accx,accy,accz
0.6292234,0.1060658,-0.0003893258
0.6496102,0.03336769,-0.02987041
0.8726365,0.03513867,-0.01852339
1.164015,0.1473728,0.03977171
1.27811,0.235568,0.1142919
0.9806071,0.1520593,-0.03011194
0.5408304,-0.04760921,-0.2023545
0.4361368,-0.1973952,-0.2279466
0.4977787,-0.3519984,-0.2314606
0.7906451,-0.5211446,-0.1757945
1.517343,-0.6852202,-0.08092325
1.972329,-0.6668679,-0.07064606
1.836136,-0.4639756,-0.3499955
1.745761,-0.356247,-0.5608473
1.721382,-0.3008039,-0.09682782
1.295618,-0.1898249,0.3822465
0.8595723,-0.0651636,0.1716083
0.8482946,-0.1012071,3.781186e-05
0.8602077,-0.2511557,0.1458569
0.7388799,-0.2291484,0.0810954
0.6376553,-0.1618138,0.0764273
0.4810665,-0.07121707,0.1186993
0.355798,0.02803028,-0.02406564
0.3672641,-0.04615217,0.0488058
0.4512977,-0.08894858,0.08571024
0.5754433,-0.1227744,0.01817237
0.7523812,-0.1705681,0.08882778
1.029483,-0.1804609,0.004308517
1.2897,-0.3016434,-0.08973235
1.302195,-0.3058677,-0.1631228
1.20942,-0.2822175,-0.2265049
1.190309,-0.3661335,-0.07421047
1.089623,-0.2924521,-0.009823182
1.04718,-0.2261786,-0.06056403
1.218178,-0.204482,-0.1291497
1.330476,-0.1695956,-0.3146037
1.341386,-0.1963442,-0.5169167
1.454515,-0.1041299,-0.6280417
1.710583,0.01786004,-0.6178933
1.815028,0.05422841,-0.6060663
1.404876,0.01926874,-0.4126391
0.7959824,-0.05754503,0.05297927
0.5954737,0.06153187,0.3125054
0.6928067,0.2179325,0.3157824
0.7617185,0.1858349,0.2187071
0.9865958,0.05358229,-0.07716956
1.28106,-0.1029225,-0.3603345
1.264986,-0.05400334,-0.3062981
1.050849,0.08277879,-0.09103293
0.8332248,0.0764836,-0.03016351
0.7617208,0.07818498,-0.002809521
0.8966385,0.02090523,-0.03509918
0.9863021,-0.04174322,-0.1429728
1.009479,0.0019006,-0.08417738
1.031627,-0.003627499,-0.05357234
0.9708256,0.02335809,-0.04654074
0.8763468,0.05898414,0.04728083
0.8223236,-0.0241963,0.006139424
0.8536177,-0.1119777,-0.06733994
0.8904747,-0.1231047,-0.1358737
0.8456317,-0.07320065,-0.1623443
0.8110628,-0.05702365,-0.09235594
0.8001991,-0.06343737,-0.1068045
0.8315922,-0.02594559,-0.07362338
0.9305249,0.01117096,-0.02798242
0.946342,0.03412955,-0.07737698
0.8576071,0.02510801,-0.03606605
0.7508621,0.03216214,0.06456681
0.6213156,0.05078682,0.1359625
0.529521,-0.03877752,0.01051694
0.6370293,-0.2302915,-0.2228933
1.068214,-0.4433491,-0.2132824
1.607596,-0.5290636,-0.1659694
1.815094,-0.4616486,-0.2136502
1.700224,-0.3728246,-0.1804731
1.559592,-0.2546385,-0.09109445
1.40891,-0.1645399,0.07058805
1.353136,-0.1427156,0.1581576
1.458728,-0.0650801,0.02833491
1.383943,-0.01848904,-0.04396288
1.111226,-0.09762491,0.05386883
0.8212943,-0.161734,0.1259724
0.6492931,-0.1510686,0.1226623
0.6723291,-0.1131904,0.1174185
0.5458988,-0.08046554,0.1192441
0.4909291,-0.07223678,0.1033888
0.6554801,-0.08510019,0.04714623
0.6064505,-0.1076152,-0.02818399
0.6572691,-0.1212671,-0.0327645
0.7330769,-0.1290783,-0.001707685
0.6839842,-0.137378,-0.01462176
0.8824139,-0.149904,-0.007619828
1.029631,-0.1919243,-0.009316651
1.171554,-0.2543728,-0.08867764
1.269674,-0.2859046,-0.1799434
1.136402,-0.2793147,-0.2001034
1.204618,-0.2844816,-0.1005413
1.166322,-0.2588187,-0.01186182
1.010214,-0.1942342,-0.05608496
1.100954,-0.1988882,-0.08907645
1.117381,-0.2150651,-0.1197104
1.182103,-0.1884563,-0.3548489
1.347448,-0.1616058,-0.7211422
1.576456,-0.1036459,-0.8849293
1.812042,-0.07124665,-0.7469778
1.530263,-0.07635161,-0.50172
1.078863,0.002365567,-0.1595601
0.7798628,0.1711734,0.2353724
0.4626932,0.2689679,0.4122216
0.62603,0.1112245,0.2702631
1.0725,-0.1551562,-0.1433348
1.236236,-0.1958552,-0.4482667
1.313513,-0.04226598,-0.3240713
1.204507,0.05817392,-0.1780162
0.9515335,0.0268022,-0.1711238
0.8406911,0.02439851,-0.01104618
0.7826768,0.1328641,0.1124335
0.8957763,0.161497,0.01818412
1.035059,0.1163668,-0.04841134
1.028194,0.06529185,-0.07955122
1.071139,-0.04553779,-0.1225975
1.005584,-0.05269281,-0.0445199
0.9189124,-0.00790251,0.01229739
0.9315354,-0.0622914,0.000789825
0.9138906,-0.08799968,-0.00496349
0.9589438,-0.1020712,-0.07046734
0.9469805,-0.09538836,-0.08732818
0.8821362,-0.02851058,-0.0861193
0.8173898,-0.00757759,-0.1314317
0.7482623,-0.002939692,-0.1227417
0.8621928,0.0142351,-0.08543467
0.9637396,0.01755828,-0.04846871
0.9368813,-0.03003999,-0.08849915
0.8775696,-0.1135278,-0.1448269
0.8130488,-0.07895781,-0.05898181
0.8965445,0.05324584,0.1134543
0.9469279,0.1273187,0.244497
0.769984,0.04221906,0.09429272
0.6120929,-0.1315846,-0.1940725
0.669195,-0.1868187,-0.2090935
0.8762955,-0.2544975,-0.1587768
1.211599,-0.4378148,-0.2311694
1.605438,-0.5121939,-0.3201472
1.712016,-0.4817829,-0.4041349
1.609845,-0.3904228,-0.250725
1.494724,-0.1883785,0.08474403
1.251417,-0.02535911,0.2093702
1.206411,-0.01254136,0.1422424
1.265253,-0.02981537,0.1069396
1.069071,-0.01915832,0.1352639
0.9361211,-0.07221465,0.06417272
0.797301,-0.08973699,-0.06465599
0.6632277,-0.06182956,-0.05344275
0.7197972,-0.1359066,-0.01377888
0.6684169,-0.1818934,0.00627828
0.6559848,-0.1845108,0.0210157
0.7092101,-0.2234746,-0.03510109
0.6978447,-0.2344633,-0.06176276
0.7824981,-0.2097856,-0.05100427
0.7400258,-0.1169695,-0.04883856
0.6964356,-0.05249038,-0.04461459
0.8507272,-0.08334043,-0.02215632
0.9382925,-0.09205998,0.02446705
0.976712,-0.09242094,0.01900664
1.083644,-0.1475147,0.03762369
1.285401,-0.2233794,0.115619
1.348531,-0.208281,0.1311004
1.19257,-0.1256638,0.1190962
1.150043,-0.09246714,0.1295687
1.133753,-0.09871958,0.1445102
1.063667,-0.1348165,0.1228598
1.03748,-0.1652716,0.03881075
1.070961,-0.1888457,-0.08663727
1.348618,-0.2074402,-0.3011136
1.610857,-0.1539229,-0.5191024
1.50558,-0.0111663,-0.5038184
1.304524,0.1380062,-0.3985399
1.207038,0.02180915,-0.4247809
1.044533,-0.1534836,-0.269296
0.8217769,0.0141622,0.04705293
0.7851773,0.09871106,0.1059945
0.9145857,-0.02327012,0.04293642
1.028947,-0.03533147,-0.02991153
1.093911,-0.06890321,-0.1426883
1.083042,-0.04962097,-0.1728707
0.9759106,0.04340999,-0.1596306
0.8251565,0.03863944,-0.1076136
0.7932718,0.05416763,-0.07528737
0.8987893,0.06283122,-0.09337565
0.9740744,0.05602934,-0.08625286
0.9895339,0.0955114,-0.07324048
0.9701575,0.08467914,-0.03661401
0.9684455,0.06589782,-0.03834119
1.034206,0.06312853,-0.05081888
1.113409,0.04683409,-0.02480155
1.155379,0.02130992,-0.02845315
1.139753,-0.05090943,-0.01622246
1.097381,-0.08884881,-0.0280042
1.020429,-0.04648882,-0.04048587
0.8813684,0.01425157,0.009215896
0.7833078,0.05823107,0.05349626
0.8027901,0.01604705,0.08141095
0.8625857,-0.04905496,0.03922337
0.9088437,-0.008941723,-0.07383007
0.9966848,0.04409983,-0.1671984
1.042752,0.04910657,-0.1490829
0.9616594,0.02997848,-0.0875247
0.8989406,-0.03346848,-0.140265
0.8821353,-0.03870853,-0.1305278
0.869965,0.009099352,3.050532e-05
0.851773,0.0009555992,0.08959949
0.7165628,-0.01572053,0.1277921
0.5441924,-0.02045764,0.08867306
0.5227196,0.04955817,0.0893947
0.6469663,0.1116876,0.07577377
0.7950015,-0.1372914,-0.1611297
1.05901,-0.5718649,-0.386475
1.612612,-0.7787639,-0.4268838
2.014073,-0.6698628,-0.3672646
1.880183,-0.4796761,-0.2483388
1.622927,-0.3247798,-0.1483857
1.491539,-0.2048251,-0.1244316
1.426388,-0.2095982,-0.1102619
1.429352,-0.1508727,-0.07649963
1.304247,-0.02218681,-0.09707666
1.044104,-0.07716605,-0.1067494
0.8169271,-0.1042374,-0.104031
0.6469773,-0.1065012,-0.125351
0.6347345,-0.2052697,-0.07450902
0.7105745,-0.2431666,-0.03303062
0.8021129,-0.3237433,-0.03616623
0.9423814,-0.3625411,-0.09136536
0.9512979,-0.2909548,-0.1713364
0.8518227,-0.2748459,-0.1126605
0.7386545,-0.2005398,-0.02436371
0.598052,-0.09203624,0.01498164
0.521346,-0.02731392,0.02566076
0.4998631,0.01864798,-0.001289892
0.5189804,0.0146315,0.03899567
0.5450131,0.04098806,0.0819149
0.5741534,0.0341332,0.08308537
0.709949,-0.05681194,0.07635288
0.8614148,-0.105677,0.009176977
0.8825037,-0.09528757,-0.06550821
0.8946024,-0.1248987,-0.1625008
1.167433,-0.3408152,-0.3201458
1.443869,-0.5410685,-0.3853463
1.265269,-0.3837951,-0.322588
1.015831,-0.1545202,-0.2958772
1.003456,-0.1773906,-0.3021676
0.9853458,-0.2585537,-0.3279099
1.204203,-0.3371235,-0.5574416
1.692335,-0.3892006,-0.8346036
1.936438,-0.1958519,-0.8458234
1.93501,0.04034608,-0.70375
1.662053,0.07328508,-0.4155049
1.029313,0.0817984,0.146955
0.6441055,0.09060796,0.5000262
0.6911658,0.02783973,0.3228076
0.7089703,-0.02534842,0.09882297
0.7441864,-0.07208797,-0.12394
0.9777277,-0.1171391,-0.4257188
1.125226,-0.09821405,-0.4294815
1.080378,-0.04485617,-0.3926234
1.044566,-0.00219485,-0.4211008
0.9866492,0.02283271,-0.2618098
0.9466697,0.00418818,-0.1622399
0.963419,0.00488986,-0.07075177
0.8919213,0.05129847,-0.005095038
0.8711621,0.06362202,-0.1074279
0.9172966,0.03686611,-0.1474916
0.9380163,-0.006529803,-0.185151
1.000001,-0.00926268,-0.2011162
1.00588,0.02913746,-0.1549192
0.9885863,0.03597063,-0.1763835
1.014174,0.03699651,-0.1493417
1.022811,0.03223708,-0.1274043
1.026145,0.02110992,-0.1357132
0.9863583,-0.001382645,-0.08505167
0.9280743,-0.05609822,-0.05921976
0.8920418,-0.06351245,-0.05837304
0.852646,-0.05288867,-0.06934588
0.8242999,-0.07829419,-0.07249292
0.8287528,-0.08583221,-0.06979482
0.8714547,-0.07743211,-0.0847091
0.8913045,-0.05638676,-0.07668039
0.8601837,-0.04225282,-0.09949944
0.8279697,-0.06924408,-0.1192912
0.823899,-0.07389866,-0.062538
0.8112666,0.02317255,0.01426525
0.717685,0.107501,0.04021185
0.5849605,-0.02112987,-0.06946763
0.5709795,-0.2415877,-0.2297754
0.8814324,-0.3770238,-0.2639816
1.464976,-0.4674042,-0.1917671
1.80764,-0.4472979,-0.1468041
1.710226,-0.3811468,-0.1639667
1.617841,-0.3996586,-0.0870329
1.589517,-0.3262263,0.1308452
1.325471,-0.1639951,0.2427819
1.099486,-0.06549805,0.08582709
1.102046,-0.07871008,-0.06615308
1.075004,-0.1964022,0.04076279
0.9448064,-0.2010069,0.1219119
0.761986,-0.1278253,0.07090423
0.6971079,-0.1190554,0.07538188
0.7269159,-0.1008295,0.004615728
0.6702245,-0.1449251,-0.09451931
0.638435,-0.1582395,-0.07861195
0.6182717,-0.1184898,-0.03534487
0.6270704,-0.1412958,0.05163162
0.7534951,-0.1339774,0.05882542
0.9092273,-0.1568709,-0.1066416
1.05309,-0.1618968,-0.2685097
1.147005,-0.1287214,-0.2965434
1.200505,-0.1436688,-0.1943185
1.086733,-0.102656,-0.1019582
0.8888308,-0.1071221,-0.02907296
0.9254897,-0.1513537,0.01160073
0.9140352,-0.1556873,-0.04688666
0.805279,-0.1880098,-0.06005296
0.9269554,-0.1904938,-0.08785019
1.0681,-0.2499889,-0.1798567
1.101215,-0.3330692,-0.2342076
1.081561,-0.2984946,-0.3098989
1.025199,-0.2808864,-0.3115232
1.053631,-0.2871702,-0.2076394
1.052813,-0.2067545,-0.136044
1.019203,-0.1245459,-0.1650887
1.124297,-0.1586505,-0.2850942
1.278496,-0.2186346,-0.3359607
1.402755,-0.206395,-0.3502217
1.483989,-0.1569223,-0.5011631
1.55262,-0.08464787,-0.7467843
1.523598,-0.08317173,-0.7727495
1.151633,-0.1047183,-0.3132807
0.6177497,-0.0007576007,0.2649933
0.3748151,0.06829719,0.4553788
0.5993812,0.0239048,0.2651664
0.9439223,-0.0308067,-0.001072563
1.121126,-0.06089558,-0.2360919
1.284759,-0.007866668,-0.3746349
1.212944,0.07416184,-0.1741898
0.9819956,0.08232708,-0.01898541
0.9456004,0.05559553,-0.08735501
0.8890449,0.05092078,0.02043172
0.9497616,0.0511114,0.007341648
1.05924,0.02934352,-0.09433457
1.014415,0.01022864,-0.02965545
1.051244,-0.008536704,-0.06990454
0.9950651,-0.03977034,-0.07326147
0.9702816,-0.05387308,-0.03200869
1.049902,-0.03651583,-0.06524876
1.023089,0.007683696,-0.06448473
1.070359,0.05294889,-0.1112706
1.045808,0.05725888,-0.1262356
0.9960723,0.02294843,-0.09437196
1.019742,0.001691021,-0.09824056
0.9494172,-0.008596935,-0.071772
0.9647043,-0.01287992,-0.0539131
1.006167,0.004827773,-0.05650861
1.017697,0.003035411,-0.08335739
1.028641,0.01264729,-0.1262535
0.9787851,0.03189193,-0.1165933
1.013104,0.01091614,-0.07519756
1.063523,0.01033058,-0.0362213
1.095431,0.01786202,-0.03389321
1.098895,0.01422983,-0.04632676
1.024922,0.01813917,-0.02178154
1.006386,-0.008217299,-0.008269184
0.9533368,-0.04363946,-0.01841797
0.9302882,-0.0601278,-0.02441681
1.045234,-0.04812152,-0.03304637
1.092889,-0.03428577,-0.03720087
1.059263,-0.04616735,-0.02942231
0.9784328,-0.03712555,-0.007618241
0.9045409,-0.0253692,0.01998431
0.9263927,-0.02135663,0.01884415
0.9665516,-0.003704913,-0.01926369
0.9915726,-0.004535438,-0.04418931
0.9924469,-0.0111946,-0.02017526
0.9901193,-0.01670038,0.02766939
0.978765,-0.0289874,0.06221368
0.892442,-0.02954217,0.06716831
0.7943465,-0.01750338,0.06198773
0.7677995,0.02387814,0.07412248
0.8288919,0.08761788,0.08906659
0.8732013,0.1116234,0.0954505
0.8351595,0.07769674,0.1050462
0.8256198,0.05535305,0.1290586
0.8229381,0.06752907,0.1635574
0.7404225,0.02463021,0.1283295
0.6545742,-0.1153992,-0.0465346
0.7268878,-0.3015529,-0.2586363
1.076094,-0.4949957,-0.3292978
1.598808,-0.6748113,-0.3076656
1.934626,-0.6997436,-0.3786092
1.872543,-0.4486988,-0.392767
1.601516,-0.1583739,-0.2322737
1.316989,-0.08935197,-0.1530166
1.177405,-0.1457676,-0.1553891
1.195803,-0.1446279,-0.04253781
1.124479,-0.1047779,0.1251213
1.053794,-0.1536301,0.1183391
1.004121,-0.2162285,-0.1039457
0.8628418,-0.2197284,-0.25221
0.8519304,-0.2349168,-0.2214321
0.8700005,-0.2425298,-0.1002691
0.8719822,-0.2794943,0.01395541
0.9448724,-0.3047074,-0.001913028
0.9179949,-0.250092,-0.03789013
0.918914,-0.2180376,-0.03820791
0.9423782,-0.1946397,-0.02542911
0.8923199,-0.1791459,0.01842375
0.8297729,-0.1420288,0.02186814
0.6885296,-0.04288656,0.03209596
0.6120101,-0.01459499,0.06369565
0.6162319,-0.01132869,0.08739027
0.6283565,-0.0008784653,0.07761491
0.6933359,-0.03242841,-0.02657047
0.7022023,-0.04098348,-0.101999
0.8201915,-0.1247217,-0.04800081
1.079836,-0.2563672,0.07857205
1.132841,-0.2413235,0.1405476
1.07142,-0.1873541,0.06810143
1.135269,-0.2025543,0.005595848
1.19448,-0.1993152,0.04750331
1.141256,-0.1655983,0.1213194
1.052945,-0.06976346,0.1540717
0.9896502,0.03842995,0.1526912
0.9940996,-0.06515101,0.1173791
1.02516,-0.2591021,0.0390245
1.001238,-0.2821217,-0.05498853
1.038305,-0.2430027,-0.1724562
1.170731,-0.2365247,-0.3984989
1.313588,-0.2460882,-0.7173138
1.494595,-0.2405175,-0.8063812
1.627682,-0.1280839,-0.6478389
1.632464,-0.04491586,-0.5240795
1.474934,-0.1527669,-0.3363445
1.154408,-0.2230132,-0.1029373
0.9021656,-0.006125929,0.08118928
0.8135353,0.187991,0.2012256
0.8482088,0.03366547,0.07230357
0.9165577,-0.09867738,-0.1122488
0.8760837,-0.02964987,-0.1626101
0.8710845,-0.03533234,-0.190791
0.9060009,-0.02377712,-0.1696083
0.9093483,0.081428,-0.1530277
0.9842924,0.1248833,-0.1519756
0.9760831,0.1114535,-0.1192247
0.9215213,0.07213796,-0.1112044
0.9479928,0.02132445,-0.06424549
0.9434684,-0.02769332,0.01668299
0.9626921,-0.0358813,0.04328514
0.9545889,0.01624641,-0.006290077
0.9046098,0.02847054,-0.1153118
0.9214924,0.00780746,-0.1614925
0.9047041,-0.03068118,-0.1351035
0.8664723,-0.1168413,-0.1358709
0.8511592,-0.1447101,-0.1519977
0.9090157,-0.07770565,-0.1456442
1.113471,0.04962997,-0.09014985
1.204031,0.1181873,-0.04548538
0.9269491,-0.05262771,-0.0958889
0.4824128,-0.2643892,-0.1418875
0.3074392,-0.2240217,-0.07307687
0.4131188,-0.1108599,0.02252279
0.6087391,-0.1220688,0.05328266
1.148695,-0.2025818,0.01745305
1.798215,-0.4333706,-0.1656996
1.899251,-0.7901727,-0.3317108
1.767719,-0.9309714,-0.1101799
1.675877,-0.5514708,0.2753281
1.241587,0.06066175,0.3395787
0.9293269,0.1582222,0.1412098
1.083759,-0.1158401,0.01339939
1.049744,-0.1685977,0.08050986
0.832565,-0.1201418,0.1216393
0.6660991,-0.05994404,-0.01339269
0.4614858,-0.02570447,-0.104436
0.465753,-0.1295745,-0.09295432
0.5726183,-0.2493758,-0.04980798
0.5929686,-0.2736457,0.008508351
0.5997328,-0.1330174,-0.07151134
0.5512185,-0.005010909,-0.1857282
0.5637511,-0.02430767,-0.1894661
0.702316,-0.1255598,-0.1559787
1.061262,-0.3251162,-0.02508079
1.41322,-0.4158739,0.08959499
1.206209,-0.2531055,0.009054338
0.9825752,-0.1051618,-0.09322325
1.199601,-0.194406,-0.05969459
1.222062,-0.2639227,-0.0260193
1.107575,-0.1654037,-0.05532291
1.149107,-0.1704304,-0.05809332
1.092058,-0.171681,-0.1080651
1.065476,-0.1010072,-0.212327
1.079747,-0.09680536,-0.3967157
1.016793,-0.03302411,-0.6579942
1.12802,-0.001472822,-0.7057194
1.4483,-0.05752592,-0.6628997
1.756088,-0.1603469,-0.727729
1.660978,-0.2941125,-0.6398403
1.227598,-0.2222126,-0.2411429
0.8954617,0.005231037,0.3401248
0.603378,0.2049301,0.5671415
0.5948237,0.2476047,0.2959199
0.8950319,0.01436345,0.06080107
1.049141,-0.1376623,-0.1181421
1.149559,0.008987688,-0.1917842
1.066543,0.1236053,-0.006272206
0.9280694,0.08731324,0.002841869
0.9861097,0.05023681,-0.06314949
0.9224693,0.04061918,0.007470357
0.8794392,0.05033756,-0.0131161
0.7958909,0.08202728,0.02012586
0.6719415,0.06356152,0.008105213
0.7778598,0.01159228,-0.06906984
0.7957158,-0.007441754,0.02608607
0.8039813,-0.0107599,0.03994633
0.8166214,0.003272765,-0.04323374
0.6992597,-0.002286957,-0.1307485
0.7121296,-0.01461941,-0.1969817
0.7028665,0.01100683,-0.08444858
0.6440726,0.02860388,0.01651868
0.5991584,-0.006209576,0.004034044
0.5693065,-0.2846262,-0.07059801
0.9193862,-0.6664643,-0.1520131
1.591372,-0.6556047,-0.1709053
2.037538,-0.5050247,-0.3594832
1.955661,-0.5398212,-0.513347
1.688231,-0.4213455,-0.0529511
1.50304,-0.2226875,0.5140736
1.246108,-0.1934155,0.3725891
1.169337,-0.1770929,0.0975854
1.175605,-0.156069,0.1162119
0.8865321,-0.1069833,-0.0007213466
0.613203,-0.0111609,-0.009954336
0.4537741,-0.002800568,0.05558476
0.3376817,-0.02649312,-0.05430498
0.3579365,-0.06645642,0.00148199
0.4365308,-0.1362464,0.02720103
0.5518702,-0.1588061,-0.0101271
0.5862356,-0.1637766,0.01391884
0.6279765,-0.1751538,-0.0799802
0.9321363,-0.1778321,-0.04725596
1.27805,-0.1210344,-0.02329954
1.370673,-0.06614455,-0.1261723
1.25139,-0.1291982,-0.1123376
1.158114,-0.2081085,-0.06790099
1.089292,-0.2481579,0.05261458
1.020862,-0.280867,0.1217298
1.094929,-0.2605398,0.03140678
1.119521,-0.1881019,-0.08080825
1.111731,-0.1379066,-0.2642131
1.16321,-0.1620944,-0.3217834
1.130433,-0.2186372,-0.3021437
1.22247,-0.2135761,-0.458961
1.432797,-0.06037948,-0.5606775
1.63251,0.1343059,-0.5631337
1.712365,0.1027064,-0.5392276
1.343803,-0.1033461,-0.3061425
0.7893438,-0.156333,0.07595692
0.4547632,0.07346857,0.4065968
0.4419271,0.3041922,0.5656734
0.7339705,0.166329,0.3497493
1.044642,-0.06061708,-0.1154765
1.227452,-0.01264537,-0.3788761
1.189824,0.06941831,-0.3400181
1.012559,0.1335875,-0.1682291
0.9067603,0.1319444,-0.04820566
0.8463151,-0.003129117,-0.02848171
0.9526292,0.01559795,-0.02331732
1.079873,0.04831407,-0.04056453
1.068275,0.04937553,-0.02986308
1.523331,-0.3413499,0.05643265
1.439216,-0.2777549,-0.2054395
1.590201,-0.217928,-0.2126038
1.34399,-0.1929898,-0.149553
0.9471356,-0.1369372,-0.04316009
0.5874596,0.009791563,0.08114499
0.3779678,0.04629532,-0.008573988
0.5237797,-0.0446396,-0.007628704
0.4981928,-0.1149889,0.02100743
0.5682716,-0.1908479,-0.02078505
0.7725668,-0.2427727,0.04557161
0.5635395,-0.1593778,0.005177879
0.4443117,-0.0558231,0.006079346
0.5337685,-0.05282154,0.1182749
0.6664814,-0.07331167,0.1251003
0.9522081,-0.08784229,-0.01237264
1.068738,-0.1274496,-0.2130669
1.048705,-0.1968873,-0.1473356
1.103414,-0.2647927,-0.04767923
1.122502,-0.2564674,-0.1203815
1.072198,-0.2292826,-0.04865553
1.090269,-0.2721665,-0.04102138
1.203932,-0.2861042,-0.169497
1.303106,-0.2517698,-0.3089289
1.369998,-0.2307075,-0.5168986
1.347361,-0.170012,-0.5973802
1.364472,-0.08498075,-0.5825297
1.429586,0.02991464,-0.586115
1.323525,0.1391192,-0.5410765
1.155242,0.1021507,-0.3706456
0.9020496,0.07523538,-0.01638471
0.7047974,0.155088,0.1515764
0.809642,0.1456447,-0.0539045
1.000388,0.04116012,-0.3008282
1.165223,-0.05082077,-0.4255439
1.099023,-0.04099291,-0.2779406
0.8535026,0.05199269,0.0582222
0.8295596,0.1078138,0.1344082
0.8838066,0.1561061,-0.05120577
0.9381779,0.1425825,-0.1951214
1.000956,0.0757166,-0.1900059
0.9725854,0.09251112,-0.11244
1.001115,0.07667419,-0.1048565
1.001328,0.03414811,-0.1212297
0.9175578,0.01867221,-0.1032068
0.8152565,-0.01844926,-0.06442734
0.6898689,0.01964897,0.007090641
0.7070437,0.03607562,-0.0159595
0.8141314,-0.01766921,-0.1036319
0.9279471,-0.05279078,-0.1467741
1.025464,-0.1051003,-0.1823062
0.9907145,-0.08932552,-0.1777648
0.9109917,-0.03448849,-0.1841417
0.7470336,-0.02141846,-0.1913366
0.5297684,-0.03546007,-0.1776688
0.5099522,-0.1693321,-0.2628403
0.7604388,-0.3730819,-0.3634224
1.26205,-0.4869963,-0.4395609
1.650582,-0.4824866,-0.5710984
1.653618,-0.5127024,-0.6054374
1.625853,-0.5575836,-0.2926322
1.616556,-0.3794104,0.06577298
1.433679,-0.1734013,-0.06325557
1.373106,-0.1222955,-0.1922912
1.409188,-0.06394777,0.0221029
1.174583,-0.01067324,0.05216988
0.8308251,0.01440887,0.05225625
0.5634212,0.01337917,0.1245356
0.4556115,-0.0476918,0.04720113
0.5603978,-0.1691953,0.07182534
0.6160825,-0.3011371,0.03968044
0.6293966,-0.2838528,-0.09775806
0.6272277,-0.1685295,-0.08196632
0.5174168,-0.06453692,-0.03556975
0.5551771,0.002204633,0.00673084
0.8055031,-0.06894356,-0.0937387
1.028295,-0.1374601,-0.246105
0.9806699,-0.128222,-0.1948344
0.8381713,-0.1762166,-0.2077444
0.9062329,-0.1880722,-0.2492989
0.9406058,-0.1734409,-0.2046976
1.025576,-0.2229525,-0.2469043
1.20842,-0.2141534,-0.2577585
1.123935,-0.192927,-0.1880539
1.076695,-0.2295764,-0.1237864
1.137668,-0.231911,-0.1123978
1.090954,-0.265089,-0.2187594
1.15566,-0.3443749,-0.3527207
1.21022,-0.3444185,-0.4230661
1.215614,-0.2104824,-0.4781736
1.355822,0.0264824,-0.5778453
1.552059,0.1358051,-0.6829886
1.668503,0.01051234,-0.6935313
1.484652,-0.09735314,-0.5046043
1.017134,-0.03734169,-0.04926517
0.5348357,0.1679707,0.4276419
0.4499584,0.3110138,0.4335382
1.042308,0.01441982,-0.1555117
1.502511,-0.3433306,-0.6486759
1.156543,-0.1480286,-0.4274312
0.8513827,0.03899082,-0.1673753
0.9623925,0.007886392,-0.2710459
0.8449859,0.2285166,-0.1115587
0.7761697,0.2285084,-0.03921156
1.001238,0.06384283,-0.2275993
0.9917292,0.1832195,-0.1061155
0.9603102,0.1372759,-0.1080244
1.023674,0.06394607,-0.1778814
0.9834289,0.08176282,-0.03726552
1.059512,-0.03284051,-0.09540431
1.050713,0.008077162,-0.0785614
0.9425675,0.03368247,-0.04828799
0.8881616,0.002759265,-0.131583
0.7991395,0.07380344,-0.02261173
0.8652109,0.01023241,-0.01254074
0.9175788,-0.02441652,-0.06991713
0.8960698,0.006017973,-0.0850846
0.9502411,-0.01206689,-0.1239928
0.9454909,0.008495287,-0.09260433
1.003998,-0.02197272,-0.1685341
1.041512,-0.02690427,-0.2138748
0.9896416,0.059029,-0.09567059
0.9555321,0.1449639,0.03606842
0.7532041,0.1352829,0.08523411
0.5129695,-0.04610397,-0.08635313
0.4830329,-0.2666,-0.2978097
0.7334877,-0.4342215,-0.4074683
1.225916,-0.4950689,-0.4785247
1.556115,-0.4313358,-0.5129223
1.484116,-0.3484528,-0.5366298
1.389614,-0.3107321,-0.4373078
1.496173,-0.3984585,-0.1481999
1.4481,-0.462894,0.1622875
1.28289,-0.281425,0.171254
1.203176,-0.05788668,-0.05751955
1.065409,-0.0127667,-0.1729174
0.9985382,-0.02985207,-0.2510064
0.9209758,-0.0643028,-0.183603
0.7597781,-0.1494708,-0.01811211
0.6739664,-0.1130507,-0.1209267
0.5426455,-0.04475779,-0.1718612
0.5200218,-0.1132375,-0.1272811
0.5729208,-0.1327024,-0.1498437
0.5633454,-0.142026,-0.04564661
0.673653,-0.180968,-0.04625713
0.780516,-0.1692252,-0.09133989
0.8581511,-0.2108308,-0.01224697
0.8673988,-0.2022175,-0.03644385
0.8481756,-0.1646374,-0.09915705
1.059268,-0.2232135,-0.1952317
1.218839,-0.2294147,-0.2514716
1.166799,-0.1954978,-0.1629936
1.148339,-0.1618,-0.1518113
1.22334,-0.1353921,-0.1850109
1.252952,-0.1888454,-0.1887928
1.171323,-0.2168977,-0.2221057
1.137178,-0.1734086,-0.3672504
1.149097,-0.1619205,-0.6929082
1.146205,-0.2530213,-0.8599499
1.12923,-0.3484378,-0.6992313
1.118816,-0.2618596,-0.5160943
1.250863,-0.02751622,-0.4423087
1.384207,0.1495466,-0.4579443
1.328213,0.07760328,-0.476611
1.130518,-0.04945854,-0.2982095
0.9220603,0.05411563,-0.0162107
0.8742182,0.0804328,0.07976218
0.9204607,-0.03761617,-0.007914003
0.9089512,-0.04944626,-0.13781
0.8880797,-0.06973489,-0.2176534
0.8997456,0.002127258,-0.1848332
0.8909984,0.1587405,-0.1354661
0.8963432,0.1566667,-0.1830247
0.9491355,0.1024641,-0.2076969
0.9891594,0.0382822,-0.1140327
1.022106,0.01544549,-0.05756775
0.9969453,0.0446171,-0.05867425
0.9476089,-0.00338875,-0.03151677
0.9707694,-0.0220834,-0.02608554
0.9640048,-0.01304304,-0.01397058
0.9516378,-0.02934005,0.01233027
0.9742351,-0.03963679,-0.01143524
0.9906615,-0.06097515,-0.1022692
1.026851,-0.05351925,-0.1965607
1.011347,-0.02327308,-0.1721717
0.9691459,0.05236689,-0.06865353
0.9517976,0.1122106,-0.0247069
0.8878082,0.09539481,-0.1079854
0.8292708,0.1187628,-0.2003711
0.833872,0.1391103,-0.1523737
0.7961852,0.1062363,-0.1086797
0.6235013,0.0256916,-0.1492013
0.4405448,-0.1256785,-0.1907038
0.4053025,-0.2266102,-0.2971118
0.5683821,-0.3024292,-0.453483
1.066702,-0.5336323,-0.5916438
1.73754,-0.7537447,-0.6800424
1.959293,-0.6825978,-0.6228137
1.723436,-0.5290057,-0.4295246
1.595016,-0.3831554,-0.07364883
1.468717,-0.06404386,0.1980103
1.290488,0.02201015,-0.04574501
1.370491,-0.2356951,-0.3155107
1.261821,-0.3583551,-0.2021989
0.8893894,-0.3480869,-0.08941369
0.6979277,-0.2589999,0.04657111
0.5318993,-0.1239402,0.1232614
0.4954136,-0.1363537,-0.03488653
0.6326267,-0.23618,-0.09206848
0.6717885,-0.3238417,-0.09142674
0.684906,-0.2799495,-0.1209049
0.6479533,-0.1499454,-0.04807065
0.6248241,-0.06757715,0.01526261
0.6619347,0.03381989,0.06571453
0.6606741,0.04103451,0.08091349
0.6859927,-0.01734757,0.05327534
0.6426729,-0.02616404,0.05816249
0.6349382,-0.1092254,0.01578685
0.9039165,-0.2165084,-0.05771144
1.261303,-0.2960172,-0.1765067
1.366092,-0.3098484,-0.2917836
1.25416,-0.2719283,-0.2459195
1.282794,-0.3150277,-0.1633637
1.319283,-0.29595,-0.14966
1.161802,-0.1671091,-0.2350094
1.102762,-0.07958537,-0.4454038
1.215944,-0.09434828,-0.6323612
1.390946,-0.1172165,-0.7363268
1.513901,0.06858871,-0.7724569
1.510073,0.2218432,-0.7266847
1.392208,0.1046839,-0.550188
1.118988,0.04296371,-0.2087282
0.8477832,0.1288456,0.05037062
0.7036162,0.1804548,0.1235598
0.7297961,0.1837349,0.1130264
0.8484005,0.1562092,-0.01055804
0.8515201,0.01373874,-0.1165364
0.930221,-0.1504846,-0.2163488
0.9550154,-0.0871538,-0.244551
0.7682926,0.04708108,-0.07157092
0.7765926,0.08274975,-0.08497458
0.8911234,0.1106499,-0.2077057
0.9699143,0.05524477,-0.2326609
0.9668669,-0.02321758,-0.2463904
0.8180268,-0.01420066,-0.1039532
0.7987974,0.004383539,-0.06197136
0.7685597,0.02788958,-0.1138731
0.7630674,0.001423494,-0.09382825
0.9228939,-0.038738,-0.1628798
0.962991,0.01728439,-0.1441559
0.9686878,0.04500879,-0.1644002
0.9677338,0.03053452,-0.2125116
0.9926106,0.06497349,-0.07586226
0.9983518,0.08771305,-0.02853662
0.6829812,0.01888927,-0.1307323
0.3286735,-0.1719704,-0.2982748
0.29192,-0.37804,-0.3373961
0.6999395,-0.4437449,-0.2016897
1.348314,-0.3803606,-0.2062269
1.702053,-0.3396964,-0.4379966
1.650778,-0.3253496,-0.6229045
1.497538,-0.2386373,-0.2691912
1.543429,-0.1811862,0.145575
1.588714,-0.1160447,-0.05777122
1.544112,-0.02248977,-0.1551154
1.463026,-0.1030442,0.01069937
1.046808,-0.2164677,-0.008309005
0.6775801,-0.2407441,0.07401866
0.5902089,-0.2077925,0.09228165
0.471865,-0.08697126,-0.050611
0.446116,-0.07809433,-0.03229131
0.4830721,-0.1240188,-0.08516784
0.4926521,-0.09055622,-0.1346887
0.5199692,-0.115217,-0.05035434
0.5684996,-0.122787,-0.08545885
0.6539803,-0.1449144,-0.06937636
0.7696469,-0.2119945,-0.08513285
1.027625,-0.1971789,-0.3172544
1.26763,-0.225428,-0.4747625
1.228726,-0.2807303,-0.4144855
1.090133,-0.2609322,-0.1894699
1.096483,-0.2483101,-0.03106633
1.11491,-0.2477802,-0.02427505
1.107954,-0.2468974,-0.06383386
1.200692,-0.2520376,-0.1547495
1.151588,-0.2482977,-0.2719082
1.073955,-0.2282246,-0.4821695
1.104346,-0.1845422,-0.5925164
1.099281,-0.06692376,-0.5388948
1.432026,0.2006096,-0.6092261
1.79842,0.3831875,-0.6254414
1.565899,0.1498309,-0.4881831
1.09855,-0.1029788,-0.2152038
0.7294796,0.08156544,0.199357
0.5622331,0.2405061,0.373189
0.7362158,0.1513354,0.2603123
1.020811,0.05210148,-0.007987548
1.166763,-0.1069162,-0.3955316
1.088516,-0.04389057,-0.4477124
0.8284036,0.1694641,-0.1292757
0.787092,0.1140768,-0.01513303
0.9398608,0.09647061,-0.1129945
0.9573134,0.09827516,-0.1601258
0.9884414,0.02893923,-0.1739286
0.9505314,0.1091609,-0.1255323
0.8917437,0.1079014,-0.07909797
0.9427289,0.04952865,-0.09369896
0.8854705,0.007267479,-0.1296939
0.881714,-0.05105051,-0.1655966
0.888086,0.04210627,-0.1298465
0.8458711,0.0947184,-0.1058937
0.89465,0.04999861,-0.133936
0.9338318,0.0568499,-0.1226272
1.085454,0.09254256,-0.04675876
1.174229,0.1209463,0.06865564
1.004817,0.02317534,0.08556482
0.8403931,-0.1346728,0.008398426
0.8073357,-0.1671195,-0.02124307
0.8779406,-0.008410163,0.007631292
0.8709168,0.1967938,0.02962647
0.7193153,0.1765255,-0.03782868
0.500485,-0.0327589,-0.257081
0.4857655,-0.3763796,-0.5918155
1.092027,-0.7635662,-0.7737414
1.83124,-0.8429178,-0.7624946
1.87486,-0.6311713,-0.7913455
1.556884,-0.3348105,-0.5887121
1.548373,-0.03833659,-0.2059632
1.58309,-0.01970639,-0.2169182
1.407275,-0.2057005,-0.2663289
1.277326,-0.2188994,-0.05578538
1.163145,-0.1854888,-0.06479386
0.9861575,-0.1620815,-0.1901303
0.7485982,-0.04482318,-0.2036719
0.5735856,-0.04962448,-0.2072161
0.5910789,-0.1563859,-0.1550224
0.6381396,-0.282622,-0.139222
0.7894558,-0.4542358,-0.148142
0.9319667,-0.5132596,-0.1324094
0.8504648,-0.414634,-0.1573259
0.7907895,-0.2522031,-0.08809261
0.7617713,-0.1903219,-0.008255848
0.6875287,-0.1741486,-0.02236011
0.6112055,-0.06968395,-0.01111468
0.5718022,-0.04770626,0.003874877
0.6852314,-0.06026908,0.006927922
0.8918532,-0.04311971,-0.01552787
1.032123,-0.06535917,-0.05335645
1.017431,-0.03978976,-0.0668464
1.048437,-0.04738324,-0.1083491
1.28112,-0.1346993,-0.1808601
1.387079,-0.1948838,-0.2246789
1.116523,-0.1493017,-0.09141507
0.7490509,-0.08482889,0.165979
0.7344882,-0.1874976,0.2994511
0.869546,-0.2503374,0.2941641
0.8274772,-0.1420094,0.07092146
0.8607009,-0.09100305,-0.2608094
0.9310748,-0.1267258,-0.2939789
1.049914,-0.1987345,-0.3376711
1.317123,-0.314673,-0.7399315
1.337862,-0.3602728,-0.9527621
1.312098,-0.1387327,-0.7856211
1.460105,0.1570321,-0.6359547
1.444076,0.124434,-0.5139514
1.459369,-0.005976167,-0.323659
1.517291,0.02005662,-0.1656114
1.32401,0.06850271,-0.1126218
1.081733,0.1439182,-0.1019845
0.9511666,0.1467203,-0.02551255
0.9210071,0.08529245,0.01752455
0.9402729,0.1037081,0.00322906
0.9466491,0.07858255,0.008296992
0.9617182,0.05491444,-0.08108693
0.9572736,0.07882489,-0.2306308
0.9606883,0.05728264,-0.2853914
0.9574357,0.0651986,-0.1626269
0.8772416,0.06415193,0.02414645
0.7731792,0.05147804,0.01547788
0.7296224,0.09379423,-0.06456201
0.7918583,0.102823,-0.1253374
0.8960417,0.03496929,-0.2476508
0.9701546,-0.1281824,-0.2776441
0.9328123,-0.2604415,-0.2632802
0.808687,-0.1681427,-0.2076021
0.8026772,0.1006577,0.0442265
0.8217067,0.3214898,0.2064897
0.7494896,0.2372063,-0.07095176
0.648217,-0.005182215,-0.4486468
0.4913582,-0.1061356,-0.3996377
0.4074524,-0.1882139,-0.2286993
0.4855448,-0.3362621,-0.230398
0.8784104,-0.5522761,-0.239135
1.58855,-0.7358349,-0.4123538
1.878467,-0.6414103,-0.5333183
1.630535,-0.4933579,-0.2710156
1.520387,-0.3836433,0.01018842
1.516272,-0.1898319,0.0559327
1.535172,-0.1530386,-0.0228456
1.672156,-0.1200479,-0.02989859
1.47984,0.009841547,-0.001281935
0.9613666,0.005753209,-0.0575879
0.5575701,0.04854493,-0.07011516
0.3891328,0.06877211,-0.06450863
0.443823,-0.09651145,-0.06082533
0.4143433,-0.221717,-0.03819551
0.3283552,-0.2759132,-0.07049836
0.3784756,-0.2847509,-0.09126117
0.3199032,-0.2513272,-0.08945225
0.3943435,-0.2287505,-0.02568808
0.7005296,-0.1705553,0.03832837
0.990211,-0.08743666,-0.1076146
1.225233,-0.01479718,-0.3036441
1.210416,-0.05262945,-0.3038058
1.217634,-0.2267496,-0.1535182
1.335954,-0.3343536,-0.06799389
1.273073,-0.3125416,-0.1813958
1.296474,-0.2695875,-0.2927677
1.323587,-0.2559511,-0.2584464
1.141542,-0.1527203,-0.3272374
0.9863478,-0.008298416,-0.508478
1.002104,-0.0274211,-0.5091907
1.218213,0.006602537,-0.4671725
1.546858,0.1074266,-0.5360796
1.752793,0.03655088,-0.5282839
1.458902,-0.02723311,-0.373936
0.8682704,-0.01320229,-0.03876726
0.5980506,0.09039328,0.3060088
0.5900496,0.2371228,0.323348
0.8214838,0.1309087,0.03986654
1.170985,-0.06172348,-0.3184576
1.154937,-0.0739618,-0.4364816
0.9369742,-0.002604864,-0.1762718
0.8019439,0.102101,0.03621051
0.8341334,0.1297087,-0.06288888
0.9378101,0.06712921,-0.1677234
0.8921324,0.03575545,-0.1809899
0.8706076,-0.02832441,-0.2123857
0.8135747,-0.04971324,-0.1601255
0.6618582,-0.007491396,-0.1148292
0.6284412,-0.04650509,-0.1480668
0.6643578,-0.0435825,-0.1232514
0.8334851,0.02397176,-0.1039199
0.9750305,0.06837173,-0.08804334
0.8234761,0.1235877,-0.06760679
0.5846056,0.1506923,-0.08825901
0.4661846,0.1295533,-0.06760762
0.527855,0.05473842,-0.06518867
0.5784849,-0.01330756,-0.08545311
0.5601327,-0.1014932,-0.1554333
0.8255967,-0.3623577,-0.3488435
1.409143,-0.6191334,-0.4476522
1.848727,-0.636635,-0.4044585
1.792306,-0.5006565,-0.3347782
1.653473,-0.4164986,-0.1752157
1.738064,-0.3706115,-0.001824526
1.651349,-0.2084216,-0.0327333
1.514699,-0.03441473,-0.1427937
1.430606,-0.02125125,-0.09065649
1.129721,-0.1300623,-0.03549817
0.8656598,-0.1556582,0.009017358
0.6870887,-0.06486291,0.0796419
0.5767513,-0.0241901,0.003416404
0.6407791,-0.02326008,-0.02439014
0.5682543,-0.06399112,-0.01192986
0.4317563,-0.1137569,-0.083609
0.412476,-0.1208765,-0.05439144
0.4551802,-0.1527518,-0.01035026
0.6429785,-0.1573275,0.005086381
0.8285192,-0.1606976,-0.09069797
0.9586961,-0.1724183,-0.3735071
1.091247,-0.1735026,-0.4647913
1.106757,-0.2089767,-0.2286917
0.9719831,-0.2116193,0.02592419
0.8472936,-0.2249764,0.003109397
0.9999705,-0.2529386,-0.1617929
1.309347,-0.283849,-0.3411282
1.476997,-0.3159861,-0.6542236
1.423708,-0.1964627,-0.7088231
1.262126,-0.03235374,-0.5123669
1.27188,0.04699527,-0.5199576
1.398383,0.09803795,-0.5350348
1.481431,0.09533062,-0.4657421
1.409866,0.05549198,-0.247223
1.156044,0.06258209,0.145831
1.069661,0.1823802,0.2085376
1.098736,0.270068,-0.04282883
1.066981,0.1126981,-0.2432539
0.9980593,-0.07499737,-0.3071666
0.7810809,-0.01134053,-0.1067423
0.6893101,0.10133,0.104614
0.8154763,0.126235,-0.02931461
0.9515735,0.1715187,-0.2074952
1.048533,0.1187933,-0.2195832
0.9924911,0.05701045,-0.2236685
0.928888,0.1131465,-0.1649582
0.9462481,0.09712951,-0.1060295
0.9351881,0.07723966,-0.1287416
0.9372297,0.0691027,-0.130464
0.919779,0.0163088,-0.1688907
0.8603738,0.03492884,-0.1814725
0.7911717,0.0512624,-0.1622873
0.7709276,0.09948772,-0.1696487
0.7942452,0.1654937,-0.1271062
0.7918043,0.04427194,-0.1861444
0.8393214,-0.1146259,-0.2660723
0.886465,-0.09890577,-0.2035214
0.8053134,-0.01703773,-0.1278543
0.6399823,0.005737427,-0.02673087
0.5005627,-0.004814732,0.03815692
0.4872965,-0.03116207,0.009544872
0.5392715,-0.09053782,-0.1265498
0.7403835,-0.2568614,-0.407607
1.339495,-0.497505,-0.5366307
1.843146,-0.5283083,-0.4742608
1.740722,-0.4012111,-0.4129695
1.616637,-0.3687526,-0.1579805
1.67446,-0.2971394,0.1765109
1.546737,-0.1652873,0.1538517
1.489899,-0.1336758,-0.1383224
1.431625,-0.146896,-0.288247
1.146933,-0.1595532,-0.1224267
0.8386982,-0.1832541,0.1039194
0.5066222,-0.1562283,0.09926709
0.4281411,-0.08531142,0.03031897
0.5181988,-0.05086946,0.02372696
0.460734,-0.07058719,-0.02393691
0.5852745,-0.1298022,-0.03785499
0.6530151,-0.1866188,-0.03778601
0.6196022,-0.1831023,-0.06569592
0.7998564,-0.17657,-0.05947156
0.9253705,-0.2344194,-0.1055133
1.077765,-0.3006084,-0.1667323
1.213236,-0.3559145,-0.2137453
1.255471,-0.4110044,-0.2863684
1.230492,-0.3644897,-0.2286102
1.00585,-0.2604819,-0.09687131
1.069438,-0.2652803,-0.1162197
1.259648,-0.2575754,-0.3255624
1.234773,-0.1812515,-0.5763856
1.30019,-0.1748748,-0.5813364
1.268264,-0.1275492,-0.394324
1.33476,0.01137991,-0.3517083
1.475225,0.08622735,-0.4409293
1.27095,0.02534657,-0.4509091
1.010719,-0.04236021,-0.1993924
0.7364288,0.08520964,0.2017731
0.6636972,0.2188792,0.2705039
0.9328448,0.1532506,-0.01105474
1.156034,0.00454676,-0.3510203
1.282569,-0.127937,-0.5523665
1.045494,-0.04032893,-0.2888491
0.6604174,0.1530213,0.08808395
0.709839,0.14135,0.024575
0.8673044,0.115244,-0.1415359
0.9360314,0.1300783,-0.2101057
0.9524891,0.1125102,-0.229766
0.8758802,0.1538174,-0.06452289
0.8799326,0.1591798,0.03902199
0.8854958,0.1274396,-0.03438417
0.8584742,0.08782769,-0.09278981
0.8807389,0.04690761,-0.1195895
0.8816844,0.09859612,-0.07013971
0.9301116,0.1488932,-0.02217292
1.010519,0.1438211,-0.08564704
1.028766,0.08092455,-0.140615
1.01766,-0.04639993,-0.1048566
0.9874718,-0.1028745,0.01361202
0.9388689,-0.1077504,0.1109644
0.8718242,-0.1304962,0.07220908
0.8615659,-0.08000898,-0.00866918
0.8771349,0.08883937,-0.05026389
0.7385922,0.2246969,-0.2467283
0.5184083,0.131128,-0.5503564
0.4784364,-0.1362163,-0.6060031
0.8704995,-0.4463662,-0.5365731
0.376634,0.04294533,-0.04111613
0.4564493,-0.07035999,0.01408222
0.4239875,-0.1890282,-0.01093161
0.5518998,-0.1512375,-0.01205821
0.620064,-0.0660202,-0.1263657
0.7569787,-0.1887313,-0.2086234
1.088988,-0.2264213,-0.207857
1.236765,-0.1870411,-0.2532947
1.136292,-0.2196931,-0.2402373
1.063123,-0.2106237,-0.2108269
1.09831,-0.2140206,-0.1779389
1.160746,-0.218768,-0.1478549
1.287723,-0.2273365,-0.2109238
1.288993,-0.2444338,-0.3466839
1.187253,-0.2043645,-0.5097865
1.260259,-0.146009,-0.5790142
1.362768,-0.02974816,-0.5557118
1.463018,0.140045,-0.6134697
1.438424,0.1969563,-0.6782114
1.203279,0.101616,-0.4841899
1.040313,0.02629801,-0.1174099
0.8652498,0.0252439,0.07717613
0.7899729,0.0150866,0.06468112
0.904604,-0.01570104,-0.01457183
0.9625147,-0.1770764,-0.1603183
1.030623,-0.3428007,-0.2904568
0.8752239,-0.1809906,-0.1155537
0.6365619,0.07464312,0.1480313
0.8191848,0.1552857,-0.01426586
0.9787002,0.2133403,-0.2603186
0.9309445,0.1904553,-0.3025932
0.9663092,0.08302532,-0.2635833
0.9437899,0.09171484,-0.06727062
0.8766391,0.07518528,-0.05104542
0.8435077,-0.002350938,-0.143472
0.7732055,0.006178275,-0.06115858
0.7587634,-0.003616167,-0.1150928
0.8323978,-0.03036244,-0.1185594
0.9176308,-0.05065418,-0.09017567
0.976611,-0.06376519,-0.2661275
0.9721413,-0.0007521724,-0.3130992
0.9583448,0.06639814,-0.1770023
0.9566874,0.1311221,-0.02337767
0.8543871,0.07752198,-0.0752842
0.6903651,-0.1130152,-0.1843614
0.6252584,-0.1664752,-0.1028869
0.6706201,-0.1603963,-0.1506366
0.7736612,-0.259737,-0.2119938
1.036127,-0.4008148,-0.2819074
1.433912,-0.4664288,-0.595631
1.600537,-0.4509383,-0.7258066
1.500671,-0.4591579,-0.3987522
1.474518,-0.3808055,0.06295433
1.470426,-0.2805658,0.08205606
1.377636,-0.2361776,-0.09776921
1.389402,-0.07912702,-0.03143331
1.381662,0.01202005,-0.1495877
1.096338,-0.008001535,-0.232484
0.7132586,-0.0002425582,-0.08127202
0.48576,-0.04940952,-0.0422448
0.4737498,-0.1275648,0.0530212
0.5654739,-0.2069872,0.06284899
0.5953458,-0.2235798,-0.06280767
0.575296,-0.1589956,-0.1074884
0.550553,-0.1343887,-0.1201676
0.5549668,-0.102996,-0.01619461
0.5959437,-0.06446088,0.04275516
0.6977886,-0.05923511,-0.04232409
0.9294209,-0.08838062,-0.1824783
1.118824,-0.1920774,-0.3300073
1.141231,-0.2764812,-0.2626765
1.071345,-0.252818,-0.1414224
1.009362,-0.1575176,-0.1381461
1.057925,-0.08558306,-0.1241467
1.111307,-0.1051201,-0.1493539
1.180031,-0.1825027,-0.194243
1.308401,-0.2423411,-0.2239347
1.275192,-0.2399626,-0.239516
1.185494,-0.2686339,-0.2450092
1.204072,-0.3430946,-0.3234513
1.192306,-0.2762492,-0.3739711
1.178691,-0.04086224,-0.4051308
1.218929,0.1544151,-0.5158777
1.33683,0.1246103,-0.5798441
1.488487,0.02745537,-0.6561958
1.372201,0.01672726,-0.6724272
1.05559,-0.06946239,-0.3152069
0.8255793,-0.02120215,0.09496009
0.7123528,0.2315316,0.09895703
0.8460919,0.2379412,-0.08990722
1.113526,0.08004569,-0.2305869
1.222646,-0.0217109,-0.3387743
1.0868,-0.02099005,-0.2440147
0.7902923,0.1014454,-0.03755205
0.7545597,0.1175258,-0.07120135
0.9226369,0.1379728,-0.112352
0.9749099,0.1780248,-0.04566186
1.063024,0.1232077,-0.09568702
1.093053,0.1476161,-0.1239448
1.053504,0.1065879,-0.1469202
0.9954775,0.05481687,-0.140181
0.8283056,0.08477304,-0.02230438
0.7745353,0.03113737,-0.01466966
0.764326,0.004984035,-0.05354197
0.7121578,-0.015651,-0.1105926
0.742123,-0.00740657,-0.177894
0.8112958,0.04888728,-0.09800097
0.9377817,0.04176214,-0.05550845
0.9808841,0.05560096,-0.1354469
0.9373878,0.03052317,-0.2329932
0.9798343,0.005846011,-0.2444756
1.003511,0.04944316,-0.04594454
0.917621,0.05942557,0.1826218
0.6834597,0.03966576,0.1426909
0.4558893,-0.1222668,-0.1563085
0.5497138,-0.3655651,-0.4291839
0.9362842,-0.4280713,-0.5093
1.427885,-0.3648219,-0.5038671
1.774662,-0.3672339,-0.5542187
1.701804,-0.3903547,-0.5052213
1.491396,-0.3011951,-0.1390673
1.425194,-0.1495005,0.1632496
1.324788,-0.0005620083,0.03342839
1.300836,0.01048919,-0.1433476
1.253082,-0.1270658,-0.0563188
0.9602557,-0.1546716,0.02354921
0.7168995,-0.1218872,0.01189826
0.5545401,-0.09416717,-0.02380231
0.4980201,-0.04422415,-0.1995431
0.5633374,-0.08909769,-0.2412394
0.5415628,-0.1184976,-0.1504886
0.5784116,-0.1059961,-0.1899909
0.6324798,-0.1270097,-0.1336975
0.6084574,-0.1237567,-0.1132633
0.6668022,-0.1340974,-0.112417
0.8038326,-0.1563798,0.04245517
0.9166484,-0.1564215,0.023874
0.8923216,-0.1262352,-0.0995303
0.9242028,-0.106221,-0.1727103
1.104309,-0.1703376,-0.1465896
1.193448,-0.2334366,-0.03984383
1.250358,-0.22674,-0.06514571
1.281935,-0.2142074,-0.05890344
1.232236,-0.2111022,-0.02674399
1.150344,-0.1117204,-0.09113088
0.9512953,0.07736535,-0.2402186
0.8931132,0.118931,-0.6155331
1.172334,-0.08867426,-0.8850295
1.398643,-0.2593769,-0.8346803
1.469942,-0.1248157,-0.8360008
1.575837,-0.005795839,-0.868441
1.537064,-0.1411274,-0.6844108
1.278792,-0.1527311,-0.3284678
1.02302,0.007921618,0.0556701
0.7369406,0.07715202,0.2295388
0.5737778,0.008847142,0.1276635
0.8501812,-0.1443265,0.02608693
1.064345,-0.1887376,-0.06058305
0.8984828,-0.1016777,-0.130673
0.7944948,0.04007362,-0.02417137
0.7860352,0.1884894,0.0001033541
0.8474661,0.1416238,-0.1080477
1.048331,0.03640224,-0.1590848
1.110856,0.04611923,-0.1738675
1.014934,0.04698476,-0.07002124
0.9593217,0.06654385,0.00988597
0.9658867,0.05062954,-0.05327704
1.017872,-0.02780098,-0.09822122
1.058933,-0.04507467,-0.1115293
0.9999466,-0.04156144,-0.08843656
0.8912101,-0.01196239,-0.06834752
0.8319786,0.04147776,-0.09195121
0.8079496,0.07138544,-0.1202772
0.8329377,0.1006592,-0.1409095
0.8951923,0.09850147,-0.09973481
0.9254859,0.0770934,-0.07218787
0.9541264,0.02983811,-0.1470966
0.9605298,-0.005212362,-0.2084266
0.9052925,0.08090551,-0.1462874
0.7720117,0.1416285,-0.05433355
0.5418761,0.03819971,-0.049625
0.4304953,-0.08034605,-0.07728757
0.4948359,-0.08174039,-0.1368947
0.5214833,-0.1081618,-0.2905508
0.7428482,-0.3664169,-0.5074119
1.417269,-0.6899371,-0.6342799
2.010916,-0.7335671,-0.6162809
1.956248,-0.5633669,-0.6031829
1.676298,-0.4173896,-0.4054729
1.662701,-0.2629353,-0.07139595
1.614243,-0.2193932,-0.1101955
1.48548,-0.2866338,-0.1883015
1.343074,-0.166521,-0.04234437
0.9879028,-0.09188862,-0.06856382
0.7060719,-0.1179973,-0.06662886
0.560227,-0.03103072,0.001458533
0.4202811,-0.07147822,-0.06401707
0.4625229,-0.1892067,-0.03898038
0.5613897,-0.3192911,-0.03721266
0.6490564,-0.4142855,-0.08025681
0.7061061,-0.2944148,-0.06728631
0.7258289,-0.2429099,-0.1196288
0.8297783,-0.2092922,-0.05322476
0.8327233,-0.04744239,0.03394954
0.739702,0.02621602,-0.04782134
0.6200489,0.04299469,-0.1143265
0.5400052,-0.01187085,-0.1603476
0.7895303,-0.141645,-0.166409
1.116599,-0.2616842,-0.172055
1.174172,-0.2716582,-0.2574503
1.054002,-0.1529409,-0.2625413
0.9779773,-0.1357189,-0.2156275
1.070769,-0.1627106,-0.200734
1.139373,-0.218749,-0.1660532
1.144416,-0.3374866,-0.1591583
1.144477,-0.2796497,-0.2149059
1.092073,-0.1923966,-0.3062479
1.093588,-0.1485876,-0.4107308
1.139803,-0.04983132,-0.5098357
1.315905,0.006125962,-0.6377476
1.653647,0.1737448,-0.8429259
1.726869,0.3081309,-0.9222497
1.383247,0.08449191,-0.4873432
0.9115801,-0.09388451,0.1405745
0.5800156,0.1099721,0.2622979
0.5610446,0.2603508,0.1628239
0.8303569,0.09872134,0.0378506
1.156473,-0.07426291,-0.4043537
1.244372,-0.1513238,-0.5173307
0.9941064,-0.07078597,-0.1583346
0.7524377,0.1478649,-0.0494272
0.8168056,0.1632107,-0.1059171
0.9463391,0.1089811,-0.1735284
0.9808549,0.1268174,-0.2246396
1.007119,0.052102,-0.1548009
0.9975906,0.06365092,-0.1016995
1.002272,0.1028147,-0.05352477
0.957455,0.05440832,-0.1007896
0.8082173,0.02936946,-0.1661142
0.7600001,-0.03794931,-0.07742178
0.77592,-0.03193265,-0.0266411
0.7725173,0.0230988,-0.01872312
0.8296314,-0.0114214,-0.0939529
0.931552,-0.002164675,-0.2529435
1.038451,0.006664641,-0.2708456
1.048431,0.02832815,-0.1677727
0.8765338,0.0852529,-0.088295
0.5917081,0.01282572,-0.1615988
0.3860231,-0.08703208,-0.2833492
0.3266422,-0.1309884,-0.3263751
0.3949025,-0.2280642,-0.372424
0.8512879,-0.4175397,-0.3774091
1.495538,-0.6135608,-0.4222084
1.674207,-0.6256567,-0.5046781
1.614267,-0.5251201,-0.3799008
1.679765,-0.4925552,-0.173425
1.548461,-0.4273045,-0.1006953
1.423185,-0.3208853,-0.09564326
1.457046,-0.2013052,-0.02540206
1.202394,-0.03906016,0.09243613
0.9854399,-0.01247775,0.07151928
0.8211912,0.01706523,0.01549163
0.4399227,0.2001396,0.06032478
0.4286891,0.1644365,-0.00271286
0.467025,-0.008720504,-0.09674195
0.4327051,-0.09889019,-0.08422844
0.7960001,-0.2467029,-0.09462403
0.895633,-0.25256,-0.1068318
0.7831216,-0.199443,-0.118483
0.8307349,-0.2957272,-0.1082024
0.8126647,-0.3037105,-0.07609887
0.8876186,-0.2850144,-0.1580927
0.9276814,-0.2763706,-0.222641
0.9037716,-0.232259,-0.1898272
0.9391577,-0.2648712,-0.2015964
1.0036,-0.2759752,-0.2781477
1.138727,-0.2871926,-0.3549049
1.153527,-0.305733,-0.3903236
1.182675,-0.287899,-0.472072
1.256682,-0.3023001,-0.5712223
1.215046,-0.2680344,-0.5607157
1.274055,-0.1769661,-0.5678076
1.406406,0.01562508,-0.6711356
1.558742,0.2227613,-0.7315647
1.567375,0.1639007,-0.5750354
1.246332,0.08850777,-0.194048
0.9005122,0.1777224,0.1312335
0.7271639,0.161862,0.1839172
0.799325,0.1050223,0.03214
0.9750645,0.04175058,-0.1301539
1.017128,-0.1205592,-0.2236997
0.9841478,-0.09826331,-0.2558649
0.8533581,0.06748867,-0.1361861
0.8287997,0.1065667,-0.02546295
1.009676,0.1066934,-0.1389174
1.090452,0.08611343,-0.2183955
1.036634,0.09201959,-0.1350276
0.9231772,0.1104178,-0.0700299
0.9016449,0.03463954,-0.04610501
0.94739,0.01178837,-0.06649481
0.9198486,0.02716712,-0.114313
0.9627516,0.03040107,-0.1045972
0.9986421,0.04132891,-0.118501
1.023522,0.009908725,-0.1847828
1.043735,0.01522249,-0.1825209
0.9334452,0.0324462,-0.1450387
0.8962697,0.0439177,-0.1005596
0.9636254,0.05089859,-0.01999639
1.045787,0.0233278,0.01944831
1.074193,0.04886828,0.0181986
1.010015,0.07606383,0.01715521
0.9714255,0.09553769,0.0007190504
0.9103898,0.1114086,-0.06789212
0.8964988,0.08807478,-0.177312
0.8798761,0.1114708,-0.2265307
0.7071304,0.1041029,-0.2152686
0.5870123,0.07977583,-0.1657695
0.4935069,0.09543853,-0.06848226
0.3524782,0.002844886,-0.05787447
0.3722842,-0.2813266,-0.2863725
0.8065352,-0.7761481,-0.5877793
1.586388,-1.058732,-0.6305142
1.91395,-0.6837852,-0.6004462
1.615078,-0.1890381,-0.6892984
1.54381,-0.133062,-0.5869792
1.743802,-0.2902421,-0.4518391
1.710721,-0.3640931,-0.4837799
1.504299,-0.2490733,-0.2949562
1.249796,-0.09387169,-0.02538418
1.064624,-0.09771902,-0.08342068
0.9750708,-0.08398484,-0.2049411
0.7902591,-0.03891883,-0.1855149
0.7202508,-0.1041482,-0.1961545
0.7820102,-0.1776301,-0.1825984
0.7127919,-0.2530862,-0.1261176
0.717787,-0.278489,-0.1479543
0.738776,-0.2342664,-0.1371147
0.7012203,-0.2114231,-0.1014468
0.7733042,-0.1271703,-0.1115237
0.7793053,-0.06182527,-0.1107016
0.756853,-0.08318281,-0.1445557
0.6971576,-0.08316513,-0.146244
0.5570725,-0.09330419,-0.06931907
0.5931152,-0.118335,0.02140168
0.6546259,-0.1483374,0.08293203
0.7592635,-0.2152334,0.02408646
1.104961,-0.2884405,-0.08476749
1.297125,-0.2856869,-0.1583614
1.183642,-0.148183,-0.137027
1.094948,0.008541381,0.01170787
1.035159,0.05017616,0.0921352
0.9222891,-0.02137564,0.06751478
0.9984969,-0.1343389,-0.01084149
1.121755,-0.2039669,-0.1671515
1.058631,-0.2099885,-0.3825534
1.105391,-0.2083856,-0.6790705
1.202926,-0.2712455,-0.8248377
1.230753,-0.2741451,-0.6732785
1.368772,-0.05986646,-0.5583373
1.509469,0.1202366,-0.5937676
1.587531,-0.007635144,-0.5292266
1.407406,-0.1467048,-0.2898652
0.9992755,0.0166018,0.01327275
0.8947873,0.1622275,0.1781985
0.955139,0.1299456,0.04034591
0.9263831,0.1018189,-0.1137519
0.9310029,0.0275107,-0.09821957
0.847217,0.04393031,-0.08739301
0.7793726,0.1243576,-0.03788883
0.9111685,0.07958044,-0.1069683
1.073792,0.07292137,-0.2526093
1.089079,0.03342128,-0.1698779
1.00547,-0.002009791,-0.122854
0.9581226,0.06494318,-0.1146641
0.846768,0.0936927,-0.04734136
0.7012992,0.1780295,-0.06718548
0.7266031,0.1799108,-0.05625269
0.7824005,0.05936186,-0.1013573
0.8013924,0.03661178,-0.1667188
0.9586142,0.025522,-0.1349169
1.075491,0.0433231,-0.1670211
0.8895331,0.04118539,-0.2150918
0.6379466,-0.06687003,-0.2497193
0.4986888,-0.1624141,-0.2532034
0.3408941,-0.2417821,-0.2218587
0.3391237,-0.3088359,-0.2414498
0.7666847,-0.4160335,-0.2316706
1.444783,-0.5235512,-0.2491513
1.863886,-0.5934635,-0.2982299
1.883166,-0.6821295,-0.2615146
1.76436,-0.538273,-0.2027953
1.516865,-0.2043287,-0.1392169
1.250781,-0.007633907,-0.1186201
1.205028,0.02114509,-0.1438202
1.220837,-0.039316,-0.1030222
1.077257,-0.006993111,-0.01921194
0.7948635,0.07076161,0.06215459
0.6086443,0.07966728,0.04685895
0.4953242,0.08403029,-0.05098209
0.2835473,-0.01543051,-0.0701788
0.270288,-0.108243,-0.07214891
0.3804151,-0.1518502,-0.0802094
0.2697518,-0.2713787,-0.07065748
0.318272,-0.2837364,-0.1049978
0.7161562,-0.2253544,-0.1206487
1.095335,-0.225941,-0.1836285
1.210811,-0.2158224,-0.297216
1.158295,-0.2331759,-0.2982488
1.219991,-0.3234478,-0.2280546
1.245206,-0.4496414,-0.1555963
1.173696,-0.4619488,-0.1648781
1.195295,-0.2839268,-0.2836526
1.116957,-0.07348377,-0.4298935
1.154861,0.007119608,-0.5768259
1.479892,0.02045362,-0.6427807
1.76389,0.1631962,-0.7305022
1.819881,0.2758225,-0.7947501
1.416418,0.117511,-0.3948104
0.8387806,-0.00281701,0.1762462
0.5409636,0.1287047,0.2677705
0.5358243,0.2083701,0.2362965
0.7516631,0.1286303,0.2901905
0.9663529,0.0183163,-0.1283717
1.133603,-0.09206979,-0.5578716
1.027155,-0.05981671,-0.3076974
0.6885375,0.09596203,-0.01844458
0.6655652,0.1429738,-0.03227076
0.819123,0.1266313,-0.05882388
0.9967032,0.1231725,-0.141042
1.058944,0.1260613,-0.156737
0.9221078,0.1386231,-0.0718241
0.9376193,0.09462204,-0.08183841
0.8901534,0.04718835,-0.09978166
0.7918503,0.002844628,-0.1148048
0.8206271,-0.01362135,-0.1091499
0.8115384,0.08982707,0.02459582
0.9203012,0.1507636,0.07076161
0.9818765,0.09886391,-0.1503867
0.9528372,0.03042251,-0.3835778
0.9269105,-0.04609792,-0.3018039
0.639734,-0.1608255,-0.1899388
0.2889442,-0.2902171,-0.2927604
0.1955716,-0.3423488,-0.2209728
0.5597533,-0.3510832,-0.07961667
1.315898,-0.3202808,-0.1073754
1.914684,-0.2929462,-0.2753034
1.970554,-0.4002364,-0.5077824
1.679445,-0.4633204,-0.2143604
1.497414,-0.3642059,0.1890118
1.288285,-0.2784704,0.009482934
1.1046,-0.3062113,-0.01159548
1.119899,-0.3053708,0.1498081
0.8376621,-0.1842291,0.09284664
0.5804843,-0.07053207,0.07449754
0.5463883,0.07872062,-0.01499608
0.3675502,0.1629055,-0.08419674
0.3360687,0.03134119,-0.02246559
0.3221079,-0.05756748,-0.009281048
0.363116,-0.09287926,0.04606429
0.634726,-0.1696364,0.04167658
0.8998781,-0.2244572,-0.09381588
1.274847,-0.2876488,-0.1982023
1.332243,-0.2715749,-0.2392948
1.08021,-0.2453432,-0.2433637
1.148012,-0.3127342,-0.2893082
1.297467,-0.3198446,-0.3398727
1.461963,-0.2560259,-0.4544836
1.507893,-0.1719475,-0.6623238
1.234818,-0.04264705,-0.6562199
1.144302,0.1044542,-0.5917401
1.331823,0.1970601,-0.591388
1.481763,0.1965927,-0.3873565
1.404148,0.07086146,-0.302281
1.241707,-0.111685,-0.3443235
1.095167,-0.01055087,-0.08841063
0.7620265,0.1997248,0.1784779
0.7235229,0.1221338,0.1581226
1.000546,0.09288123,-0.04531764
0.978184,0.08934684,-0.2007188
0.9355784,-0.005972686,-0.1571372
0.8645041,0.123141,-0.04094726
0.7251852,0.2162539,0.03238614
0.9095362,0.1723091,-0.05738985
1.080116,0.1431755,-0.2257134
1.053019,0.07541052,-0.2343723
0.9486055,0.1120562,-0.1453779
0.810795,0.1500403,-0.03230763
0.8332899,0.119671,0.005899411
0.9049775,0.09814672,-0.07987269
0.9290302,0.03996085,-0.1109508
0.9362687,0.0603537,-0.05994951
0.9434562,0.08882292,-0.02289119
1.018097,0.04381484,-0.07381119
1.034592,0.01373919,-0.2091193
0.918196,-0.027461,-0.3032389
0.7266709,-0.04074446,-0.2279611
0.5661509,-0.06254551,-0.06848684
0.4841676,-0.1537705,-0.06327219
0.3907247,-0.2092061,-0.1345257
0.3707903,-0.2438922,-0.1841022
0.5474527,-0.3092336,-0.2662278
1.016499,-0.3726429,-0.2772696
1.658435,-0.4503834,-0.2976025
1.856721,-0.4823295,-0.3298212
1.621911,-0.4469932,-0.1892768
1.566841,-0.4053566,0.03939018
1.529427,-0.3090045,0.1653271
1.36498,-0.259776,-0.01156767
1.254904,-0.2788523,-0.1919793
0.9796158,-0.1841165,0.05240306
0.7033456,-0.07295737,0.2216961
0.6063251,0.01786034,0.05862215
0.5141557,0.08572786,-0.01178465
0.4897133,-0.003094438,-0.01543104
0.4476057,-0.1224131,-0.04976176
0.5348583,-0.2367291,0.006360704
0.8054163,-0.3115747,0.03544308
0.8495855,-0.2388476,-0.09559526
0.8586981,-0.2407901,-0.2743519
1.086841,-0.352857,-0.3336973
1.296699,-0.4088194,-0.2842325
1.178744,-0.3724555,-0.1929416
0.9129026,-0.2351635,-0.07753298
0.9786007,-0.1450121,-0.053742
1.143088,-0.1556649,-0.1600041
1.311717,-0.1328341,-0.3158318
1.482187,-0.05323221,-0.4862542
1.401629,0.0498186,-0.5663358
1.529764,0.1695016,-0.6310323
1.71771,0.1956715,-0.7325473
1.44592,0.04272367,-0.5885385
1.087798,-0.03984416,-0.2420239
0.77558,0.0609172,0.1751949
0.5695852,0.154506,0.4610231
0.6801318,0.1964056,0.2819379
0.9478346,0.1089375,-0.001906135
1.167518,-0.05344073,-0.2809974
1.146493,-0.08259839,-0.4631184
0.8943877,0.002128214,-0.1222205
0.7330442,0.09158064,0.06789267
0.8100796,0.07653586,-0.07319104
0.9541779,0.03980923,-0.07139608
1.056833,0.06067104,-0.1516481
1.088687,0.04091314,-0.1616766
1.013848,0.0420231,-0.07332834
0.9467489,0.0496951,-0.04045529
0.8811248,0.02662875,0.0286141
0.7782789,0.04285157,-0.02493567
0.7605185,0.0641269,-0.07386251
0.8014557,0.1294961,-0.05651834
0.850792,0.1934408,-0.03158663
0.9210341,0.136499,0.03636119
0.9541953,0.07917242,-0.03715708
0.9571524,0.09198739,-0.1106926
1.025859,0.08263939,-0.06971578
1.067135,0.05750005,-0.06315809
0.808657,0.06893399,-0.002776881
0.4783205,0.07580425,0.09016102
0.5545832,0.04257895,0.004632251
0.8527127,-0.1023815,-0.3078551
1.132671,-0.416616,-0.6281607
1.375609,-0.6124592,-0.6693457
1.423064,-0.5028724,-0.5823797
1.519698,-0.4095596,-0.7379263
1.658578,-0.4294822,-0.8128872
1.545669,-0.3943183,-0.3900898
1.558185,-0.3630386,0.03415971
1.556001,-0.2298815,0.006126166
1.231052,0.09986698,-0.1602606
0.9735692,0.3042495,-0.1347708
0.7974639,0.2017902,-0.0754414
0.7648998,0.02109348,-0.09616715
0.8211384,-0.007537297,-0.172055
0.7243885,-0.01673597,-0.4507372
0.7606416,-0.1487521,-0.6348552
0.8116044,-0.3016055,-0.4610554
0.6336431,-0.1223552,0.001382463
0.4136646,-0.1464437,0.03002034
0.2739482,-0.1264247,-0.01176286
0.3264789,-0.07143012,0.02105489
0.3205541,-0.09332843,0.03378732
0.3453882,-0.1112086,-0.04367843
0.4620406,-0.1111861,-0.02859525
0.6687645,-0.1025254,-0.03345543
0.9938877,-0.02897546,-0.01119991
1.071226,-0.01962708,-0.03847529
1.101249,-0.08883995,-0.1002074
1.237382,-0.2101624,0.0007015772
1.217465,-0.3082216,0.0668974
1.143734,-0.2412143,0.049438
1.095881,-0.1738437,-0.0558343
1.251739,-0.1889235,-0.2667801
1.563986,-0.1793945,-0.4516573
1.628342,-0.1478969,-0.6483004
1.463993,-0.03907322,-0.6682112
1.267809,0.1537404,-0.3904356
1.179854,0.2512248,-0.1448271
1.200068,0.1800848,-0.1330071
1.158498,0.07063626,-0.1872574
1.07661,0.0253567,-0.08275423
1.008772,0.09322484,0.05625442
0.9560008,0.1866349,0.06062607
1.000789,0.1075686,-0.03230177
1.059602,0.02460793,-0.1422777
0.9836624,0.1013371,-0.1207763
0.8926244,0.1397166,-0.06525221
0.888337,0.1521942,-0.10156
0.933354,0.1307983,-0.1157827
1.000536,0.01899938,-0.1446161
0.9697184,0.02410309,-0.1402594
0.8807162,0.07700166,-0.05364268
0.839341,0.06873889,-0.03948203
0.7711686,0.07635137,-0.07624428
0.738629,0.05660897,-0.1060055
0.8123352,0.07125308,-0.07996093
0.9334572,0.1012252,-0.02131263
0.984649,0.07047251,-0.05137602
0.9444655,0.02425205,-0.07997693
0.9673248,-0.04474933,-0.09284313
0.9596451,-0.03213616,-0.0856488
0.8234645,0.03962842,0.02874887
0.6490949,0.02308324,0.09547437
0.4860687,-0.06606465,0.01818112
0.475399,-0.2343429,-0.1256925
0.6667365,-0.3726917,-0.2107652
1.144721,-0.405517,-0.2170039
1.752634,-0.4083613,-0.2545544
1.883561,-0.3783503,-0.2511931
1.682373,-0.36816,-0.1345866
1.606796,-0.303211,0.07981433
1.448411,-0.1703013,0.2316666
1.269068,-0.1711255,0.07298852
1.242606,-0.2156482,-0.08748532
1.105218,-0.2169032,0.03003974
0.8583708,-0.2139528,0.08757422
0.6640014,-0.16152,0.05160877
0.5698375,-0.1202129,0.08590175
0.6019162,-0.1107781,0.04569698
0.639256,-0.1173586,-0.01146865
0.6608345,-0.1195095,-0.02237379
0.6591112,-0.09797507,-0.05523359
0.6033139,-0.105808,-0.02260247
0.6524494,-0.09766159,-0.004084845
0.8862435,-0.0839382,-0.05390681
1.167929,-0.09950063,-0.09961569
1.190458,-0.1022148,-0.1478665
1.061035,-0.1198278,-0.09559825
1.103438,-0.1373007,-0.001301685
1.046434,-0.1755108,0.008722881
0.9708682,-0.2309552,-0.006261723
1.147029,-0.2009176,-0.06655166
1.228453,-0.1334306,-0.1620766
1.179738,-0.1053282,-0.211114
1.127244,-0.1324114,-0.1933776
1.057927,-0.1901816,-0.1854674
1.064282,-0.1844845,-0.2281236
1.092593,-0.1285068,-0.2459006
1.14468,-0.074706,-0.3093822
1.224554,-0.04011755,-0.4016134
1.35775,-0.06494721,-0.4152904
1.526529,-0.09356992,-0.4590702
1.422334,-0.08902958,-0.4146956
1.017318,-0.04536031,-0.08088015
0.5875934,0.09242725,0.3143156
0.4445629,0.1755901,0.3885444
0.6808335,0.08047164,0.104822
0.9713765,-0.03186255,-0.1782228
1.222652,-0.04567609,-0.3303118
1.291043,0.03291047,-0.3731373
1.002418,0.1370594,-0.1939747
0.8350562,0.1602364,-0.01463361
0.8855879,0.1310963,-0.007149336
0.9483931,0.1380441,-0.05496894
1.11027,0.1428357,-0.1060763
1.14094,0.1133367,-0.1061697
1.080457,0.0910552,-0.1072362
1.081105,0.05196087,-0.09138804
0.9830891,0.0068269,-0.02667947
0.8736089,0.008695713,-0.0331665
0.784685,-0.01632592,-0.06059571
0.7601362,-0.1022991,-0.08812094
0.7999419,-0.1251311,-0.1182794
0.770963,-0.05383099,-0.1063023
0.7593334,-0.00756707,-0.1166639
0.7604346,-0.000207761,-0.1315731
0.8290334,0.03788862,-0.1337481
0.9617744,0.08678656,-0.108855
0.9427226,0.08404226,-0.05889561
0.8022301,0.0095897,-0.07629154
0.5805919,-0.08958603,-0.1355555
0.3465764,-0.1422626,-0.2061065
0.3069174,-0.121946,-0.2468983
0.5640629,-0.1453511,-0.1923116
1.160766,-0.3128044,-0.1641536
1.768348,-0.4887036,-0.2227722
1.851384,-0.585284,-0.2241195
1.681519,-0.6061786,-0.0830516
1.687002,-0.4432417,0.04519482
1.495008,-0.1677681,-0.0300979
1.230392,-0.08162872,-0.1006717
1.225084,-0.1586063,0.0386507
1.014517,-0.132861,0.1148494
0.6892731,-0.07229382,0.03859449
0.5080282,-0.02310901,-0.00625445
0.3062699,0.06892062,-0.05046362
0.2368011,0.03750171,-0.09381408
0.2427812,-0.09375925,-0.09335805
0.3638491,-0.2115356,-0.07784485
0.7048392,-0.2521927,-0.05346615
0.8687214,-0.1659638,-0.07650374
0.8384673,-0.1244347,-0.1310723
0.8952642,-0.1399303,-0.1554204
1.034363,-0.2007333,-0.1387476
1.094028,-0.3346949,-0.0914499
1.069992,-0.3273481,-0.07795188
1.077501,-0.2676873,-0.08273792
1.041069,-0.3053017,-0.07507519
1.073943,-0.351967,-0.07123651
1.199714,-0.4280327,-0.04296211
1.212335,-0.3973073,-0.07298651
1.209142,-0.190113,-0.2886881
1.206092,-0.03224383,-0.5678678
1.205169,-0.04009052,-0.6548598
1.327205,-0.06145173,-0.7368858
1.646829,0.130833,-1.073701
1.945176,0.2889266,-1.154582
1.555456,0.1341279,-0.698644
0.8059295,0.01972971,-0.1644614
0.5790738,0.1241659,0.1403623
0.5423555,0.2558828,0.1847966
0.398365,0.3291368,0.3153957
0.5410094,0.1921158,0.442844
0.9770424,-0.1166149,0.03188799
1.31846,-0.2025618,-0.3922867
1.349769,-0.03193852,-0.4060751
1.123767,0.09526025,-0.2229998
0.8181873,0.152521,0.07409962
0.7550282,0.1651767,0.104436
0.8766577,0.1151176,-0.02955663
0.9363863,0.07624041,-0.09394532
1.058992,0.06780347,-0.215488
1.088299,0.06271901,-0.1783661
0.9623264,0.01420469,-0.1272437
0.9071974,-0.005804157,-0.1442207
0.8368436,0.06577959,-0.0439123
0.8154129,0.1135548,0.001700215
0.9102086,0.08342957,0.001727867
1.038763,0.005341539,-0.07346063
1.142384,-0.03439422,-0.1747164
1.042891,0.001546117,-0.07538008
0.8845194,0.01887464,0.04201464
0.878993,-0.05328422,0.04496731
0.9303683,-0.1131613,0.01799419
1.019395,0.007098657,0.005154375
1.028716,0.1372705,0.05948141
0.7777695,0.1059511,0.1539865
0.5018993,0.0779038,0.1954468
0.5274788,0.1077228,0.1629008
0.6568091,0.1746966,0.1328301
0.6277297,0.2237312,0.08879176
0.6322731,0.04064552,-0.1513389
0.7236959,-0.3236146,-0.6313762
0.9213419,-0.535073,-0.9444408
1.421422,-0.5430071,-0.8027639
1.847269,-0.5052046,-0.6718523
1.819522,-0.4028337,-0.667382
1.71337,-0.2382975,-0.3516857
1.778455,-0.1543007,-0.1339797
1.744775,-0.1922848,-0.3262256
1.61761,-0.224728,-0.3741691
1.560239,-0.229643,-0.2329953
1.318644,-0.259794,-0.1267799
0.9254777,-0.18378,-0.02520217
0.6416195,-0.04410215,-0.0104473
0.454615,-0.02062217,-0.01862257
0.4385945,-0.101152,0.02015203
0.4767071,-0.2366723,0.02127375
0.4636355,-0.3024312,-0.02682733
0.516206,-0.276421,-0.0752196
0.584935,-0.2598233,-0.06746333
0.631399,-0.2085534,-0.01178009
0.5784452,-0.07748729,0.06264664
0.4762462,0.1110975,0.1382994
0.4664041,0.2159655,0.1938761
0.5007459,0.1851813,0.21321
0.6490194,0.1344004,0.1856993
0.9219667,-0.049419,0.1334927
1.223469,-0.3231386,-0.02149167
1.474689,-0.3577424,-0.3863678
1.481735,-0.2962146,-0.6383628
1.249212,-0.3765044,-0.3137891
0.9700268,-0.3378668,0.1009174
0.8130009,-0.1666379,-0.03917193
0.9726785,-0.1030575,-0.2967961
1.393607,-0.0693377,-0.6522146
1.794429,-0.01472359,-1.231611
1.910082,0.02210674,-1.152911
1.553956,-0.0384336,-0.6251253
1.121587,-0.1270283,-0.2950877
0.9401756,0.01769562,0.1394803
0.6492002,0.2280887,0.3604051
0.5144402,0.275537,0.2236379
0.8325571,0.08742015,0.008173412
1.063237,-0.2357047,-0.2589246
1.065147,-0.2429145,-0.1849711
0.9319134,-0.02880235,0.0143382
0.7899764,0.1171525,-0.0008583514
0.8997143,0.2040914,-0.02670973
1.064648,0.1360556,-0.1567314
1.125471,0.1025329,-0.1992943
1.071306,0.1430325,-0.07343964
0.878533,0.1042472,-0.04281567
0.7638036,0.1172788,-0.04241412
0.7622494,0.09150798,-0.06141701
0.7695205,-0.03417476,-0.06453646
0.7560851,-0.1280534,-0.04409493
0.6836726,-0.11984,-0.01871544
0.6614913,-0.009856942,0.0505982
0.7617287,0.05974513,-0.03836426
0.9470569,0.1191666,-0.2125705
1.074715,0.1442858,-0.2725644
0.961208,0.01923872,-0.2708095
0.7344128,-0.1054968,-0.2179354
0.5030158,-0.1857122,-0.1881648
0.3030847,-0.2185396,-0.1642259
0.4134675,-0.2606693,-0.0971217
0.9789254,-0.4319005,-0.08400875
1.727662,-0.5310821,-0.1473612
1.983723,-0.4824464,-0.203502
1.697075,-0.4100077,-0.06887219
1.603362,-0.273842,0.09743717
1.489775,-0.08164919,0.03509202
1.163468,-0.03493111,0.02891415
1.116399,-0.1430929,0.1720772
0.9482642,-0.1447164,0.2248284
0.6356287,-0.09912759,0.1510892
0.5807825,-0.09304047,0.01546532
0.4403228,-0.03896207,-0.0538876
0.3317885,-0.05065396,-0.05525834
0.40885,-0.09576599,-0.05139185
0.5646651,-0.1064058,-0.02080894
0.789375,-0.07321049,-0.02776049
0.7812707,0.000832538,-0.08745937
0.7643185,-0.04521312,-0.2750195
1.039515,-0.1516731,-0.5003338
1.252719,-0.2816789,-0.4047456
1.17982,-0.3909106,-0.2276364
1.019171,-0.2857947,-0.2083559
1.008711,-0.2167772,-0.005678647
1.016978,-0.3093878,0.1382419
1.026897,-0.3214678,-0.1022274
1.167326,-0.2993802,-0.3293902
1.34403,-0.3093089,-0.4122007
1.452951,-0.3009025,-0.5063026
1.317945,-0.239072,-0.5584022
1.214776,-0.04739865,-0.5812039
1.412618,0.1182577,-0.6265564
1.473779,0.03584723,-0.5692638
1.248877,-0.04605959,-0.2414756
0.9090526,0.1327844,0.1353381
0.6819623,0.3441726,0.1892735
0.7467848,0.3901072,0.04747233
0.9506255,0.1693909,-0.1504765
1.185697,-0.1907255,-0.4207315
1.233615,-0.209517,-0.3743601
1.017294,-0.02115771,-0.09137237
0.8020588,0.1013047,-0.01890003
0.6962493,0.2520854,0.06964933
0.8274945,0.1697834,-0.007641258
1.031909,0.03111365,-0.2829706
0.9995602,0.131621,-0.1895089
0.9290732,0.1163201,-0.1337133
0.9118018,0.0547828,-0.1951236
0.8850595,0.02859758,-0.1073911
0.8610618,-0.1089821,-0.1544187
0.7448804,-0.1067751,-0.1051904
0.709612,-0.01160956,-0.05068893
0.8685274,0.03018207,-0.1059822
1.006021,0.113561,-0.03666328
1.007038,0.1235319,-0.04069071
0.8348057,0.07540666,0.04886289
0.665826,0.09028447,0.2594748
0.6682622,0.1378503,0.2940424
0.651815,0.1882394,0.1127989
0.562083,0.1500124,-0.2109098
0.565223,0.03457211,-0.3175421
0.7390906,-0.1743058,-0.2489146
1.012616,-0.4959449,-0.2778815
1.263881,-0.5745179,-0.2897502
1.626502,-0.5195039,-0.2512172
2.064136,-0.6848912,-0.1570765
1.962398,-0.5956249,-0.02245452
1.448728,-0.1113292,0.1249445
1.260605,0.2745632,0.2725926
1.198728,0.3208898,0.2764332
1.08567,0.0628059,0.1929626
0.9306236,-0.07030017,0.1715552
0.6775898,-0.06514381,0.1011901
0.7230946,-0.155443,-0.0326113
0.7000326,-0.1358845,-0.08926685
0.5520271,-0.1500579,-0.09666256
0.6813899,-0.1638501,-0.04184364
0.5738635,-0.1089473,0.01555326
0.510044,-0.1687799,0.002728664
0.6813206,-0.1375424,0.03899036
0.7122827,-0.152811,0.00920828
0.8806906,-0.2241229,-0.1226145
1.00993,-0.2098036,-0.2538036
1.027536,-0.2749759,-0.2758235
1.05056,-0.2374135,-0.06099833
0.9951736,-0.2006963,0.09264448
1.040423,-0.2402932,0.1071416
1.123954,-0.1989752,0.1545443
1.210467,-0.2052979,0.1719187
1.133357,-0.1695191,0.1487837
0.9755418,-0.1440851,0.08097859
1.115627,-0.186361,0.06886503
1.176678,-0.170811,-0.09180889
1.1388,-0.185637,-0.5635715
1.233922,-0.2076302,-0.8407201
1.256523,-0.2023676,-0.7807588
1.358046,-0.1079548,-0.6752013
1.558691,0.02527964,-0.6413561
1.58219,-0.02934032,-0.5607822
1.306935,-0.09544649,-0.2639781
0.8607948,-0.03841934,0.1357501
0.5766176,0.04756453,0.3641546
0.5763716,0.1452076,0.2840356
0.7840161,0.07641181,0.08439697
0.9885645,-0.0553245,-0.09957257
1.057986,0.0007456039,-0.1612328
1.113464,0.02193353,-0.0789429
1.015887,0.04376698,-0.07436299
0.799581,0.1674468,0.01799675
0.9089338,0.07417082,-0.007221704
1.101738,-0.03049242,-0.2147216
1.055331,0.06476537,-0.0928902
1.038931,0.06087368,-0.04893059
0.9933099,0.01241897,-0.09892886
0.9654776,-0.01692669,-0.0009114753
1.021876,-0.06861861,-0.06795785
0.9027251,0.008711167,-0.007246447
0.8549103,0.107272,0.05683957
0.9216275,0.09526542,-0.03237499
0.9355762,0.07338654,-0.0167922
0.9873003,0.06887069,-0.07001172
0.952938,0.04722661,-0.08253227
0.9475346,0.01582529,-0.0633399
1.021859,-0.04306217,-0.1004268
1.047039,-0.09808745,-0.06272184
1.050952,-0.04447545,-0.04657613
0.9363784,0.02030628,0.01589265
0.8130776,-0.005331511,0.06403924
0.8111409,0.02504609,0.06796206
0.922437,0.1270195,0.1869689
1.010863,0.1723477,0.2499705
0.8240759,0.05797539,0.1756478
0.6946364,-0.2349557,-0.013907
0.9531078,-0.4977873,-0.4151159
1.278633,-0.5759382,-0.8056797
1.48501,-0.514958,-0.7289851
1.635855,-0.4311864,-0.4192562
1.492279,-0.3521127,-0.2946266
1.127491,-0.1919016,-0.1218337
1.132789,-0.1548206,-0.09369447
1.354646,-0.3223085,-0.184146
1.406822,-0.3802887,0.07288243
1.305024,-0.3180458,0.1921354
0.944875,-0.2515108,0.02991862
0.6400156,-0.2261037,-0.103491
0.6003269,-0.2772891,-0.1852623
0.6040608,-0.2858708,-0.03194017
0.6055168,-0.232027,0.1147522
0.5440929,-0.1198519,0.1139905
0.5509818,-0.009492891,0.1074546
0.6418671,0.001079393,0.0746451
0.6809968,0.006671159,0.1071839
0.6863001,0.009014029,0.1047881
0.6204802,-0.01325978,0.1039889
0.6459183,-0.03300393,0.1416946
0.805008,-0.12623,0.1058444
1.103935,-0.3162849,0.1182678
1.387836,-0.4513736,0.06259168
1.269005,-0.3688824,-0.166794
1.174771,-0.2256899,-0.396393
1.259096,-0.1767075,-0.3441936
1.116522,-0.181016,0.003006119
1.020762,-0.2298704,0.1807737
1.065201,-0.2126742,0.01380022
1.15032,-0.1637403,-0.4576379
1.438735,-0.09639983,-0.8759216
1.771084,0.09006217,-0.7276192
1.86663,0.128871,-0.5256797
1.643485,0.03456352,-0.544168
1.260841,0.0101434,-0.2109956
0.9802883,-0.04744637,0.1067817
0.8850551,0.04188707,0.05507932
0.8071323,0.1914613,0.174708
0.7412978,0.07604781,0.2052337
0.9572786,-0.03194266,-0.07089122
1.11305,-0.007568904,-0.1030638
0.9400827,0.01145192,-0.06607688
0.8892925,0.06269225,-0.07700444
0.9385462,0.06364574,-0.007412243
0.9720063,0.03959183,-0.06545387
1.032594,0.0725114,-0.06958725
0.9411926,0.05824977,-0.03805972
0.8077441,0.04770988,-0.06714808
0.710332,0.07130592,-0.02179935
0.6678269,0.05167919,-0.0164915
0.7399485,0.03054839,-0.005048595
0.8321914,-0.0002826313,-0.04652604
0.9430775,-0.01207726,-0.1952217
1.049265,0.04575342,-0.2444455
1.109165,0.128448,-0.1664347
1.014205,0.1788862,-0.04813059
0.6524625,0.05177279,-0.06064572
0.2396952,-0.1819308,-0.1076153
0.2041192,-0.3031965,-0.05584359
0.7521128,-0.3806638,-0.02452149
1.520967,-0.4237897,-0.04571684
1.990804,-0.4038312,-0.3965247
1.950286,-0.4725028,-0.713424
1.752617,-0.5317226,-0.1322719
1.719319,-0.3868146,0.4909442
1.509457,-0.2022204,0.2116617
1.267242,-0.168498,0.04575432
1.107632,-0.1701082,0.2509035
0.7157383,-0.1314246,0.07515779
0.5312401,-0.1365704,-0.0035227
0.4567544,-0.1356183,0.06839318
0.1911431,-0.110711,-0.09745345
0.2716249,-0.1301602,-0.05307418
0.5278933,-0.1460701,-0.0003274672
0.606049,-0.1569903,-0.05789654
0.6287382,-0.1630844,0.007067298
0.6224406,-0.1494778,-0.08286449
0.7608329,-0.1683514,-0.1546648
0.9448159,-0.1764878,-0.1275665
0.9414258,-0.1556953,-0.08925771
0.9624227,-0.1201528,0.01657698
1.032539,-0.0829181,-0.01028356
1.059387,-0.1486111,-0.0427294
1.170375,-0.2334873,-0.06296649
1.179779,-0.2090957,-0.2167572
1.072337,-0.1963629,-0.355493
1.115064,-0.2192254,-0.4650592
1.155148,-0.1909085,-0.5532083
1.227211,-0.1521799,-0.5882796
1.454879,-0.0450861,-0.5837543
1.671338,0.2211907,-0.6542634
1.753982,0.384602,-0.6876306
1.452972,0.2011473,-0.2404722
0.8762206,0.03150781,0.381356
0.528671,0.1764867,0.4917429
0.668216,0.2302162,0.2746467
0.9916118,0.05256965,0.06590604
1.015722,-0.005989695,-0.2047594
0.9785311,0.04292885,-0.2287954
0.9310875,0.1233573,0.02884715
0.8039983,0.2249489,0.0142996
0.9742004,0.2144289,-0.09197586
1.089632,0.1256417,-0.1328745
1.001933,0.05272784,-0.2215583
0.9434266,0.06801942,-0.08848985
0.8085317,0.1097477,0.000934
0.8068725,0.07103339,-0.0365601
0.8599319,-0.01207061,-0.02397478
0.8319872,-0.1512529,-0.1154791
0.8200889,-0.1862287,-0.110182
0.7516322,-0.02363209,-0.05300471
0.7288297,0.124403,-0.04333311
0.7467451,0.1686631,-0.01860288
0.8438639,0.06655622,-0.09740117
1.060619,-0.04097005,-0.114978
1.100049,0.01755665,-0.1005733
0.8067128,0.01091528,-0.1407853
0.4003109,-0.1399293,-0.1913344
0.3244166,-0.3145485,-0.2641931
0.6814408,-0.46551,-0.1865568
1.303171,-0.4797568,-0.1519923
1.87005,-0.421727,-0.3437903
1.844801,-0.3774586,-0.41635
1.574985,-0.3119704,-0.1062215
1.510908,-0.3007904,0.2303304
1.272333,-0.3021998,0.07607834
1.142065,-0.2792405,-0.107327
1.175861,-0.3048327,0.002683742
0.8403156,-0.2979577,-0.0166309
0.6381774,-0.2568405,0.0007464168
0.6566001,-0.1981035,0.05482725
0.5634143,-0.06363613,-0.01746944
0.6204296,-0.002287307,0.0280337
0.6272051,-0.06584299,-0.01285638
0.625765,-0.1241584,-0.08903368
0.7559436,-0.1862757,0.0198781
0.7716756,-0.2277553,0.04080679
0.7661379,-0.1725841,-0.006285414
0.7915574,-0.1412701,-0.01948104
1.03576,-0.2339415,0.0243383
1.324454,-0.3090054,0.06710872
1.222894,-0.3003869,-0.096682
1.146678,-0.3157744,-0.2073893
1.200323,-0.3341458,-0.04121903
1.108874,-0.299133,0.0736901
1.102252,-0.2680999,-0.1216018
1.206974,-0.2468603,-0.3062255
1.294959,-0.2379071,-0.2424859
1.416217,-0.2437612,-0.3576322
1.374495,-0.1599214,-0.6317439
1.2532,-0.004513541,-0.6648235
1.391545,0.09802062,-0.605522
1.45169,0.09601681,-0.5714439
1.289394,-0.02411974,-0.4522999
1.045696,-0.1182263,-0.1853782
0.6815816,-0.05258661,0.09403163
0.6540542,0.1039113,0.1622374
0.9031228,0.2100316,0.139497
1.017517,0.12454,0.03092652
1.177096,-0.01404714,-0.2360022
1.18126,0.01688549,-0.2695414
0.9486411,0.08953285,-0.04482541
0.8268588,0.1267345,0.06708013
0.8625357,0.1637723,0.0804933
1.008803,0.1267442,0.01677296
1.085995,0.0873072,-0.06364598
1.033387,0.06033986,-0.03229517
0.9773252,0.008572086,-0.002820672
0.8807747,0.06567456,0.0264197
0.7710843,0.1097161,0.01121726
0.6865735,0.008175235,-0.07845593
0.6763528,-0.04580926,-0.09331745
0.7610124,0.03866839,-0.07310974
0.8484065,0.1967476,0.004761274
0.9406911,0.2714057,0.1203314
0.9485882,0.1204038,0.09176624
0.8366428,-0.1477057,-0.1076588
0.6998595,-0.3136995,-0.3013577
0.5139079,-0.3035276,-0.2220063
0.3319757,-0.2041929,-0.06626702
0.2895538,-0.1367279,-0.08534171
0.6021813,-0.2204683,-0.1087353
1.364147,-0.4156072,-0.1968497
2.003463,-0.5334215,-0.3399859
1.911843,-0.4997521,-0.3339096
1.623216,-0.3894697,-0.1288618
1.663697,-0.315356,0.2110649
1.429855,-0.2182938,0.3073749
1.02964,-0.07392063,0.1882457
0.943457,-0.02908961,0.2360925
0.7968519,-0.04190107,0.2565059
0.7356372,-0.0289091,0.1761205
1.955893,-0.4796187,-0.6146844
1.8713,-0.6258904,-0.6559618
1.956718,-0.6681038,-0.1906195
1.683299,-0.4328209,0.2601352
1.36721,-0.2122048,0.1668536
1.470666,-0.1095015,-0.1046907
1.378855,-0.1148189,-0.1029805
1.05943,-0.1489714,-0.1203022
0.7468168,-0.1068859,-0.07149566
0.3870521,-0.08878605,0.08120056
0.2492602,-0.04737234,0.01175538
0.247339,-0.04432858,-0.01041726
0.2593774,-0.1094327,-0.00964595
0.3425908,-0.09579127,-0.07978862
0.3480238,-0.07970044,-0.03606534
0.4462998,-0.0687696,-0.06738321
0.7774265,-0.1191059,-0.09205957
1.210992,-0.2586631,-0.1240401
1.427947,-0.2811187,-0.2698539
1.193674,-0.217624,-0.2837903
1.061764,-0.1792213,-0.2548773
1.254195,-0.1938765,-0.2884145
1.309253,-0.2182318,-0.420972
1.315373,-0.1823989,-0.7325212
1.395143,-0.162321,-0.8949646
1.411289,-0.07761192,-0.6378034
1.490746,0.1700567,-0.3739064
1.596219,0.3908446,-0.4881358
1.518004,0.3100808,-0.4945335
1.370138,0.00202793,-0.2001036
1.284251,-0.1125967,-0.04140758
1.067642,-0.004752198,0.0344827
0.736286,0.08113855,0.1164202
0.6783959,0.03464463,0.0883789
0.923862,-0.09730826,-0.05209249
1.054005,-0.1094974,-0.1690051
0.9649609,0.001927933,-0.1015442
0.9414096,0.206449,-0.07100595
0.9892142,0.3048243,-0.1425791
0.9814059,0.1381568,-0.1800804
0.9738471,0.05130114,-0.2185932
0.8959792,0.03867748,-0.1309215
0.7846546,0.03457072,0.00810535
0.843808,0.1094765,0.01051084
0.9637516,0.09532264,-0.03859833
0.9903762,0.08003493,-0.08998961
0.952655,0.07438172,-0.1161291
0.7984428,0.116384,-0.04731083
0.6113772,0.2157952,0.06301779
0.6080407,0.1360985,0.04162393
0.7148277,0.0137553,-0.1441165
0.7569175,-0.1001163,-0.3725577
0.6973135,-0.2080389,-0.4611147
0.5295883,-0.2050745,-0.3130769
0.3597586,-0.2452465,-0.163705
0.506996,-0.2950083,-0.09060852
1.16895,-0.3360995,-0.08093878
1.850387,-0.4367268,-0.3697245
1.881662,-0.5389727,-0.5911474
1.639157,-0.5936003,-0.1916352
1.632997,-0.3751861,0.2796918
1.476255,-0.07348221,0.1930386
1.379294,-0.1108316,0.05840905
1.51813,-0.1752103,0.1493542
1.188351,-0.09384426,0.06877351
0.779729,-0.1137788,0.01578597
0.6795503,-0.1109742,0.07953907
0.4706994,-0.077635,0.03806295
0.3192456,-0.121766,0.06188124
0.3261153,-0.1155049,0.07277946
0.4687463,-0.146604,0.007945325
0.5448337,-0.2119702,-0.06052296
0.4917539,-0.1703004,-0.1573492
0.5793119,-0.1329907,-0.1231472
0.6379617,-0.1062622,-0.09585533
0.8853959,-0.07602755,-0.1562369
1.167733,-0.1012389,-0.1274646
1.12368,-0.1660056,-0.08252946
1.162412,-0.2561162,-0.05076482
1.170156,-0.2519401,-0.1069704
1.189951,-0.2191612,-0.2406071
1.326646,-0.2861564,-0.2543814
1.307476,-0.2910408,-0.2353029
1.258906,-0.2240522,-0.257156
1.129321,-0.1429181,-0.2792137
0.9866046,-0.07220013,-0.3551636
0.9543079,-0.1259729,-0.4394069
1.049351,-0.1278955,-0.464535
1.433387,0.06672643,-0.5007857
1.717825,0.2243362,-0.6212722
1.490446,0.1759687,-0.6759368
1.024815,0.05534773,-0.4098927
0.7599638,0.04496594,0.07906125
0.6965829,0.08343593,0.4121183
0.8233322,0.08286975,0.4261692
1.115694,-0.009555252,0.1236618
1.136892,-0.1421935,-0.2572487
0.9976683,-0.07294318,-0.2324759
0.9256041,0.04562972,-0.01911509
0.8856737,0.06699315,-0.05324546
1.010346,0.1297243,-0.1120546
1.028133,0.1007689,-0.1598512
0.9037792,0.06284088,-0.1534747
0.8169013,0.1131709,-0.0340485
0.7869854,0.08848082,-0.06105444
0.8819457,0.08735319,-0.04766575
0.8613811,0.09233482,-0.004961716
0.7803494,0.05550347,-0.1249082
0.7640212,0.07826233,-0.1640176
0.7947761,0.1067483,-0.1178106
0.9338277,0.1315545,-0.07661612
0.9587511,0.1112434,-0.1234667
1.016673,0.05166509,-0.1693032
1.077115,0.05969631,-0.009475161
0.8447979,0.05240791,0.08342015
0.6221775,-0.008056622,0.003808143
0.5276016,-0.05447811,-0.0758718
0.5611595,-0.05924818,-0.134991
0.6931885,-0.1083407,-0.2441134
0.9054289,-0.3374253,-0.3854607
1.386722,-0.5410152,-0.4119641
1.7072,-0.5457934,-0.4998501
1.716772,-0.5997513,-0.5786755
1.83748,-0.6921667,-0.2685506
1.801741,-0.4933076,0.02859277
1.411533,-0.08619579,-0.1377714
1.06886,0.1376395,-0.2896236
0.9854772,0.05502646,-0.08608731
0.9865961,-0.1171447,0.03812211
0.8606949,-0.1718494,0.02702718
0.721505,-0.1660435,0.01141504
0.6736128,-0.1347708,-0.1535488
0.6013019,-0.07710776,-0.1747686
0.5964439,-0.09511606,-0.1178028
0.6414638,-0.1211939,-0.1821603
0.614038,-0.1391337,-0.1392659
0.6830667,-0.1671674,-0.1504641
0.7523214,-0.1522602,-0.1809118
0.7229536,-0.1816781,-0.1488312
0.8013428,-0.2208564,-0.1746775
0.9419132,-0.2459873,-0.1385498
1.021348,-0.2134913,-0.1491686
1.011301,-0.08037544,-0.1706132
0.9992938,-0.02525801,-0.1226783
1.052919,0.01518329,-0.1336152
1.130467,0.02321323,-0.1216786
1.250054,-0.08873613,-0.1014998
1.224771,-0.1417037,-0.05169925
1.071534,-0.1951826,0.05730378
1.035741,-0.278107,0.1440331
1.029045,-0.3070084,0.1994901
1.003639,-0.2638569,0.07053111
0.9570006,-0.1841464,-0.2624
0.9720901,-0.2663967,-0.6695378
1.19805,-0.4073804,-1.008013
1.406113,-0.424221,-1.058639
1.403138,-0.247061,-0.897199
1.275578,0.1260765,-0.695961
1.181834,0.258657,-0.4969058
1.152721,0.124095,-0.3363704
1.102241,0.09909648,-0.2201172
1.014429,0.05791725,-0.1813662
0.8552933,-0.07769691,-0.1451102
0.7982351,-0.1345786,-0.09847871
0.8746476,-0.06072446,-0.1283798
0.8677104,0.03908641,-0.1321757
0.9233343,0.0745374,-0.1470664
1.016878,0.08626324,-0.2266343
1.008065,0.04388728,-0.2241996
0.9727881,0.001296182,-0.1810281
0.9112487,0.05745525,-0.15431
0.9475221,0.1171165,-0.1177961
1.030703,0.1245038,-0.1208534
1.050078,0.07809295,-0.1557445
1.07505,0.02448466,-0.1772719
1.001698,0.04255171,-0.1220709
0.8815869,0.0721369,-0.02760311
0.8168018,0.06551342,-0.02348593
0.7635008,0.03315847,-0.0632912
0.7654379,-0.02021543,-0.1008949
0.8193608,-0.0302332,-0.1457322
0.900614,-0.006412603,-0.1342728
0.9274155,-0.03027118,-0.1261095
0.9064823,-0.08712,-0.1822235
0.9858645,-0.1214219,-0.2098154
1.055839,-0.06079291,-0.1537076
0.9819992,0.02939214,-0.02795271
0.7590182,-0.03249239,0.05369568
0.4358603,-0.1531771,-0.0618479
0.2671761,-0.2263983,-0.2828019
0.3034382,-0.2779501,-0.439391
0.4552702,-0.2685491,-0.5158884
1.049539,-0.3035428,-0.5036731
1.854982,-0.357502,-0.5161863
1.928861,-0.3395074,-0.5845037
1.645811,-0.4051466,-0.3885313
1.708064,-0.4514078,0.06239041
1.503027,-0.2978265,0.2919519
1.166491,-0.1634519,0.08651965
1.162655,-0.2715198,-0.1365359
1.033769,-0.400115,0.005031625
0.8328916,-0.3131076,0.1356484
0.6474231,-0.17644,0.1160394
0.4537036,-0.02077183,0.0882012
0.4780974,0.05923335,-0.1075295
0.5534751,-0.1022294,-0.1398778
0.6234078,-0.1843303,-0.03591414
0.6087994,-0.1471752,-0.1158076
0.5172876,-0.1292932,-0.0665118
0.5178617,-0.02117121,0.0109742
0.4927887,0.002809593,0.08487298
0.7148957,-0.1713349,0.1968948
1.224155,-0.4117883,0.005683284
1.508406,-0.4907525,-0.2601967
1.436574,-0.3529392,-0.365835
1.229801,-0.3063088,-0.2407907
1.122107,-0.3463901,-0.008181447
1.080727,-0.3166831,-0.04594979
1.145748,-0.2970789,-0.09471356
1.249696,-0.2924593,-0.09510485
1.150875,-0.2507077,-0.2849592
1.041757,-0.1461368,-0.4494477
0.8817425,-0.02950791,-0.5206739
0.7414092,0.09085497,-0.5717638
0.9391924,0.1802558,-0.6123308
1.185606,0.184847,-0.5906218
1.470935,0.3131504,-0.5568147
1.771103,0.4498498,-0.591196
1.585979,0.2604053,-0.4639387
1.118355,0.02579046,-0.1417898
0.7694115,0.03596868,0.1930665
0.5730724,0.09431302,0.2849269
0.6714275,0.09221197,0.07857507
0.9194617,0.1075581,-0.1251577
1.082805,0.1426502,-0.4060581
1.162047,0.2105864,-0.5324277
1.0273,0.2809312,-0.295339
0.8649511,0.2269788,-0.2105208
0.82166,0.07799265,-0.1484797
0.7626775,-0.02092559,-0.05691142
0.8077103,-0.006190478,-0.118638
0.7918321,0.01554608,-0.02710847
0.773094,-0.04218307,-0.03125622
0.9380526,-0.02778093,-0.182858
1.015708,0.05086411,-0.206687
1.068922,0.07225267,-0.218849
0.9820114,0.06529261,-0.1852583
0.6782856,-0.05376396,-0.219474
0.4274333,-0.1857819,-0.2734124
0.2797546,-0.1490685,-0.1988033
0.3629345,-0.1226692,-0.1806191
0.6011689,-0.1960991,-0.1679131
1.158334,-0.356912,-0.2496024
1.87992,-0.5774592,-0.4111844
1.941445,-0.616046,-0.3628664
1.737181,-0.4885761,-0.1978272
1.666801,-0.3227068,-0.002764028
1.340429,-0.04040289,0.08680191
1.0802,0.06820849,0.0177577
1.062009,-0.1007718,0.06618521
0.9310736,-0.1125111,0.1483419
0.7227535,-0.05282759,0.102032
0.6196117,-0.05028465,0.009318416
0.5334198,0.03318889,-0.1227685
0.4899452,-0.003745698,-0.193778
0.5628928,-0.079844,-0.1341673
0.5954892,-0.06338148,-0.06736156
0.6096986,-0.06517433,-0.01918955
0.5874974,-0.03523607,-0.008947493
0.5957451,-0.1097286,-0.0373
0.9660135,-0.3393539,-0.03953123
1.334336,-0.4892933,-0.1871565
1.235549,-0.4115038,-0.3775144
1.154782,-0.2701883,-0.283498
1.293866,-0.2959987,-0.1866747
1.113319,-0.2386432,-0.2475018
0.9098372,-0.1214596,-0.2687051
1.151609,-0.2100088,-0.4279829
1.27318,-0.2339237,-0.6533116
1.201606,-0.1985931,-0.6428442
1.251335,-0.2130763,-0.6187641
1.229523,-0.05247404,-0.6328787
1.202625,0.2276712,-0.5302445
1.28941,0.3365082,-0.5799617
1.347403,0.08726589,-0.6472376
1.19538,-0.1369029,-0.3756614
0.8929886,0.01774922,-0.05945594
0.7595591,0.1173328,0.09320331
0.855543,0.04442099,0.09013456
1.068192,0.04383845,-0.06880838
1.203396,0.001090475,-0.1898342
1.097628,-0.01493369,-0.172904
0.9255748,0.08984301,-0.01314767
0.9097422,0.123904,0.09133715
0.9856777,0.05697537,-0.03265723
1.022498,-0.04101592,-0.1459297
1.080364,-0.1232998,-0.1288942
1.095027,-0.1716103,-0.09622339
1.026183,-0.1871837,-0.080447
1.006636,-0.08580514,-0.04254279
1.006131,0.0034487,-0.05613986
1.018745,-0.05543581,-0.1157196
1.022851,-0.08237805,-0.07474347
1.029285,-0.03566218,-0.07547387
1.087683,-0.01500126,-0.1522005
1.093735,0.01000445,-0.1686666
1.066272,0.07287997,-0.1586345
0.9824152,0.1159312,-0.103154
0.8645963,0.1175677,-0.06964242
0.878312,0.1262181,-0.06397984
0.959883,0.139812,-0.05651336
0.9908066,0.1813567,-0.1029275
0.8819394,0.2061012,-0.09717768
0.7001949,0.1335033,-0.0888935
0.6562695,0.07355003,-0.09828595
0.70788,0.07804108,-0.03084737
0.6966209,0.05103291,-0.01057405
0.5876966,-0.1026499,-0.1173467
0.5251626,-0.3766388,-0.3670871
0.7653208,-0.608187,-0.6036134
1.339223,-0.6879803,-0.6312834
1.747838,-0.6333346,-0.5830296
1.599851,-0.5040488,-0.5048777
1.445176,-0.3492238,-0.3370799
1.582122,-0.2263783,-0.2750153
1.547501,-0.2095873,-0.4615909
1.50768,-0.2529398,-0.5711478
1.57487,-0.2770149,-0.3112626
1.41282,-0.2501537,-0.06622216
1.205345,-0.161005,-0.1482517
0.9682798,-0.05571369,-0.2399265
0.805977,-0.001972646,-0.2074459
0.9318754,-0.0754144,-0.2294821
0.9050488,-0.175779,-0.2215834
0.7737158,-0.2101798,-0.1503427
0.7613482,-0.2966816,-0.1271029
0.7451199,-0.3245925,-0.09250448
0.8289798,-0.2743855,-0.05592411
0.8756986,-0.3082989,-0.03133643
0.8581078,-0.2670343,-0.04073457
0.8244618,-0.1559222,-0.1260654
0.6934018,-0.0884949,-0.1498758
0.6484198,-0.0390651,-0.1031259
0.6370455,-0.06235907,-0.05515836
0.6375117,-0.05517389,-0.07897154
0.7428565,-0.04162245,-0.2026114
0.8513337,-0.07288689,-0.3150928
0.9323111,-0.03937191,-0.3721517
0.8828612,-0.05258438,-0.2134787
0.8267835,-0.06214102,0.04773299
0.9059584,-0.03023303,0.11003
0.9576595,-0.06141845,0.08970627
1.034665,-0.07638681,0.002358893
1.091457,-0.1559639,-0.08401318
1.067319,-0.2795435,-0.005193321
1.101447,-0.3013404,0.04674379
1.102551,-0.2429697,-0.03375491
1.114044,-0.1480221,-0.1925268
1.237644,-0.1339503,-0.4173539
1.310668,-0.1658424,-0.6745229
1.278504,-0.1868283,-0.8130906
1.198366,-0.2144008,-0.7041727
1.163648,-0.09239085,-0.4908
1.268337,0.1690451,-0.3553305
1.48789,0.3052969,-0.3630826
1.583445,0.1411656,-0.3837988
1.242357,-0.02427447,-0.1925666
0.7332386,0.09321649,0.1193412
0.5592985,0.1527534,0.2886669
0.628214,0.09556433,0.2153332
0.7882669,0.1103021,-0.01142954
1.015156,0.0449531,-0.1994238
1.015301,0.009005474,-0.2060981
0.8355357,0.06971187,-0.1142228
0.8112989,0.07088176,-0.1085754
0.8649247,0.08512678,-0.1129277
0.89521,0.08490301,-0.08587721
0.889933,0.04941592,-0.1692351
0.8331186,0.05047536,-0.2193828
0.8565998,0.04599406,-0.1362824
0.9298119,0.0652442,-0.08824678
0.9965132,0.08798118,-0.1429759
1.00127,0.0913909,-0.249193
0.8962599,0.1047619,-0.2806692
0.7031202,0.07880055,-0.21308
0.3455371,0.03434161,-0.1441068
0.2465923,-0.03655181,-0.1436587
0.6536812,-0.216171,-0.2123903
1.142818,-0.493356,-0.3004266
1.516255,-0.617832,-0.394011
1.528888,-0.4474246,-0.3517486
1.48345,-0.380299,-0.2051636
1.761692,-0.5346385,-0.05454383
1.761821,-0.53195,0.1751455
1.571223,-0.2905173,0.10472
1.503036,-0.05554779,-0.2202927
1.42488,-0.1148334,-0.2524394
1.316513,-0.2461808,-0.1256036
0.8637763,-0.1654398,0.08500735
0.5061921,-0.1393559,0.2340111
0.5045033,-0.08859802,0.09538479
0.4101286,0.01192621,0.01680524
0.4887741,-0.04766393,-0.03054639
0.5728484,-0.04356754,-0.1041881
0.5284017,-0.04066293,-0.06187469
0.5249016,-0.06102322,-0.09040232
0.4231059,-0.0175295,-0.07426893
0.6735194,-0.1673048,0.03576125
1.084923,-0.3062582,0.05643219
1.204428,-0.2649141,-0.04451821
1.283125,-0.2331654,-0.2030147
1.225025,-0.2352707,-0.1760645
1.146754,-0.2907324,-0.0780186
1.166404,-0.3099001,-0.09881774
1.0633,-0.1928381,-0.1571888
0.9753096,-0.01071835,-0.3885947
1.059709,0.03467585,-0.6398681
1.246139,-0.0806858,-0.6417817
1.422421,-0.0853785,-0.5869403
1.600734,0.04145665,-0.5922081
1.655695,0.1450253,-0.5433274
1.410012,0.1192775,-0.30782
0.9942486,0.06977995,0.1091593
0.5867151,0.1601747,0.4280107
0.4982999,0.175556,0.4023218
0.7679145,0.1065859,0.1286374
0.9982193,0.07483032,-0.1868836
1.06349,0.03381374,-0.3584349
0.9617693,0.07156512,-0.2698754
0.8569098,0.08983977,-0.1580337
0.9398206,0.04964691,-0.1326007
0.9691125,0.03901739,-0.1062164
0.9112047,-0.01076604,-0.1723312
0.885257,-0.02348402,-0.1809577
0.767131,0.01269507,-0.107269
0.659064,0.0374027,-0.08972021
0.7064285,0.05995323,-0.04634075
0.8519029,0.03914579,-0.08485495
1.033069,0.03729218,-0.1993482
1.117033,0.09662358,-0.2563588
1.094235,0.1895195,-0.1668604
1.001031,0.232948,-0.003434516
0.6838148,0.08584085,-0.1059525
0.3305143,-0.1927918,-0.2678927
0.3114805,-0.476207,-0.3368594
0.5851621,-0.6935662,-0.4620955
1.168885,-0.7140221,-0.4104121
1.867334,-0.5212164,-0.4438748
1.950164,-0.3362398,-0.7973188
1.691615,-0.353542,-0.9645604
1.775574,-0.4718772,-0.5373029
1.572504,-0.4741061,0.2166363
1.011374,-0.2710946,0.4197435
0.804277,-0.00769672,0.1503917
0.7172044,0.01584625,0.1248109
0.6616965,-0.1001335,0.09129036
0.7079813,-0.06892495,-0.04615563
0.6368535,-0.03473827,-0.02918536
0.5798761,-0.03581809,0.006506738
0.5325173,-0.0001652891,0.005851233
0.5183097,-0.04867002,0.03379715
0.5524599,-0.08793145,0.03987475
0.6067527,-0.1416815,-0.05938384
0.9730719,-0.3313038,-0.1490412
1.375205,-0.4639923,-0.2172973
1.337375,-0.416883,-0.369184
1.175885,-0.3055084,-0.3906174
1.185435,-0.2583047,-0.1935
1.114177,-0.2115023,-0.02036674
1.086621,-0.1834959,-0.05917748
1.284292,-0.2371111,-0.1912658
1.339586,-0.2487026,-0.3088969
1.347259,-0.2760639,-0.4775819
1.296946,-0.2371948,-0.509484
1.051647,-0.06375258,-0.432261
1.072131,0.05444758,-0.4504022
1.280621,0.1872783,-0.4376234
1.413369,0.2304456,-0.4103554
1.291376,0.1251393,-0.3321854
0.9128532,0.1030169,-0.07213275
0.7860079,0.1115987,0.1671993
0.8452939,0.07754181,0.1814015
1.023844,-0.06240711,-0.04535086
1.216017,-0.213149,-0.2339569
1.003493,-0.1182465,-0.1073621
0.7521657,0.05261196,0.04839895
0.7483661,0.1184831,0.009657924
0.9279732,0.1338265,-0.05387714
1.158994,0.09925566,-0.1282698
1.130592,0.07786244,-0.1554267
1.005306,0.08815925,-0.05734882
0.9492523,0.03336321,-0.01969852
0.8750419,-0.04391686,-0.03006646
0.7772779,-0.04556282,0.007158536
0.6671584,-0.01011967,0.0404492
0.6604971,0.00695509,0.06960151
0.7397686,-0.003007862,0.05203693
0.8492401,-0.009524348,-0.01176195
1.053005,-0.000991473,-0.1629291
1.130367,-0.01170539,-0.3225695
0.8634665,-0.02272104,-0.2376123
0.5157213,-0.03324701,-0.116921
0.375785,-0.04684535,-0.1223523
0.376816,-0.03699023,-0.08060091
0.3698671,-0.04373288,-0.080647
0.5770826,-0.1389288,-0.1900647
1.382368,-0.350597,-0.4172825
2.128677,-0.5310172,-0.6466893
1.898402,-0.5682826,-0.4484645
1.489483,-0.5862817,0.1854973
1.481494,-0.4811216,0.7024473
1.223237,-0.2246022,0.6155204
1.204987,-0.1463857,0.192089
1.50316,-0.100042,0.03275157
1.307855,-0.02564609,-0.03316014
1.061649,-0.1399737,-0.01689339
0.6952377,-0.09465435,0.1452341
0.2893793,-0.02704952,0.02913563
0.4363243,-0.1821891,-0.03109151
0.4908646,-0.2371177,0.004793056
0.6250741,-0.3459806,-0.1075063
0.8270441,-0.3908809,-0.0711234
0.6066266,-0.2512673,-0.1546556
0.6249467,-0.2398222,-0.2075475
0.7249469,-0.2051746,-0.09539671
0.8291471,-0.2089723,-0.1676124
1.085937,-0.2575511,-0.1342948
1.053688,-0.2138986,-0.1100853
1.022562,-0.235882,-0.1392938
1.051777,-0.2026677,-0.06229058
1.055788,-0.1651333,-0.1088741
1.11336,-0.1514265,-0.1204413
1.081841,-0.08636679,-0.1217671
1.10842,-0.140706,-0.1017277
1.118211,-0.1619016,-0.001938528
1.02062,-0.07461063,-0.09617658
0.8955214,0.02698194,-0.2893688
0.8487614,0.09351066,-0.5566571
1.048132,-0.006914326,-0.7687969
1.31387,-0.05503299,-0.7519467
1.507248,0.1473275,-0.8207824
1.552398,0.2753151,-0.8370282
1.357835,0.02952649,-0.487996
1.052701,-0.2146003,-0.01806932
0.7327618,-0.05492832,0.3009385
0.550892,0.1123167,0.4880879
0.6601209,0.07677324,0.478447
0.9642987,0.01922057,0.0494333
1.180293,-0.09271143,-0.4018954
1.130341,-0.04941808,-0.349942
0.9618579,0.1260039,-0.08173654
0.8764743,0.144755,0.02684492
0.8741362,0.1323655,-0.05789343
0.8857301,0.08103224,-0.1846437
0.8960999,0.02977624,-0.1833403
0.8488175,0.1079193,-0.09381352
0.8026875,0.1564524,0.008593116
0.828971,0.20466,0.0141007
0.8138522,0.2305611,-0.08290738
0.7957797,0.2048779,-0.123245
0.8231051,0.2184748,-0.1173043
0.8718623,0.1860021,-0.105696
0.9306937,0.182375,-0.09619326
0.9097721,0.1907002,-0.09071247
0.860132,0.1246377,-0.0131443
0.7821627,0.06971234,0.03067983
0.6623811,-0.03952425,-0.1805517
0.7434444,-0.2910269,-0.5959767
1.12378,-0.6698294,-0.8089501
1.490312,-0.8072043,-0.641298
1.556077,-0.5085356,-0.5434651
1.589743,-0.3291094,-0.6802592
1.707403,-0.3927705,-0.6617957
1.658687,-0.290344,-0.4545037
1.730227,-0.1079335,-0.3144599
1.855998,-0.1010004,-0.3415538
1.780897,-0.6107029,-0.2566428
1.598871,-0.4744379,-0.2749017
1.577854,-0.29337,-0.2926721
1.300168,-0.02007136,-0.3235177
1.134992,-0.06698535,-0.2713703
1.013701,-0.2327692,-0.08894315
0.5772959,-0.1251545,0.1022345
0.4842653,-0.178861,0.1361201
0.4062351,-0.1938006,0.01675035
0.3227229,-0.09182589,-0.05086963
0.521698,-0.1784846,-0.0764477
0.4575701,-0.1587413,-0.1275444
0.4239201,-0.1317459,-0.1129941
0.4631046,-0.1567915,-0.071607
0.6121657,-0.07452021,-0.005561117
1.044449,-0.08510433,0.03308458
1.10062,-0.1006588,-0.111207
1.044718,-0.1176412,-0.3191694
1.201821,-0.232774,-0.4164646
1.27465,-0.3178995,-0.4017248
1.282867,-0.3459018,-0.361258
1.204784,-0.2730697,-0.3454336
1.215684,-0.209113,-0.3568719
1.297848,-0.2261616,-0.4936824
1.327383,-0.2003766,-0.7253595
1.360523,-0.1199009,-0.845346
1.359072,0.04948054,-0.8388886
1.416432,0.1550221,-0.8160983
1.29326,0.03562813,-0.5878001
0.9652654,-0.01012977,-0.05035325
0.7555763,0.2184683,0.2657216
0.6017443,0.3983796,0.1603857
0.6831292,0.2373698,0.004223855
1.053359,-0.04509211,-0.2603308
1.314744,-0.1609082,-0.5194431
1.184553,-0.07236751,-0.3304016
0.8137096,0.1304998,-0.0154289
0.7138719,0.2155094,0.009524647
0.8398844,0.1366968,-0.0946132
0.9773624,0.05322255,-0.2214394
1.088052,0.02745467,-0.2269508
0.9939169,0.08857667,-0.08469741
0.95127,0.1389975,-0.05411015
1.01168,0.09266682,-0.09474319
0.9796493,0.04509623,-0.1425871
0.9604103,0.02794174,-0.180059
0.8665082,0.02057864,-0.1568176
0.7379854,0.04156089,-0.1770925
0.6762452,0.09176259,-0.1338472
0.6563904,0.1119651,-0.07337762
0.7100345,0.05249504,-0.1148364
0.7912778,-0.02297315,-0.1095662
0.8968543,-0.03594097,-0.136846
0.9031227,-0.002576347,-0.2577271
0.8483365,0.0361245,-0.3766258
0.8215797,0.07391843,-0.3730527
0.5518355,0.02081115,-0.2682324
0.1751168,-0.1470108,-0.2540332
0.1385247,-0.2864296,-0.2215114
0.7034708,-0.4198326,-0.1429888
1.588321,-0.5530901,-0.2122813
1.902979,-0.577632,-0.5643001
1.72791,-0.6768413,-0.8721563
1.769914,-0.8325734,-0.3615172
1.709563,-0.5825293,0.2483363
1.400865,-0.14601,-0.06180982
1.285605,-0.07571828,-0.2126007
1.142755,-0.09490295,0.08342872
0.8011169,-0.04630526,0.006889323
0.5920465,-0.07211579,0.02411608
0.5155017,-0.01205662,0.1177831
0.4984232,-0.0126849,-0.05537329
0.6034824,-0.117877,-0.0822759
0.7227393,-0.1494651,-0.09924004
0.7582136,-0.1513392,-0.1008898
0.6891847,-0.07561433,2.086916e-05
0.6659821,-0.05540538,-0.03527635
0.881585,-0.217213,-0.0337023
1.164277,-0.4175059,-0.113762
1.223118,-0.4947454,-0.2445983
1.077386,-0.3741214,-0.1645608
1.011454,-0.3018687,-0.143347
1.119915,-0.3024538,-0.218656
1.281009,-0.2005814,-0.3945386
1.450857,-0.1131276,-0.7487057
1.455292,-0.04686974,-0.92283
1.230375,8.664123e-05,-0.7177571
1.052782,0.04681457,-0.4674707
1.046041,0.1526407,-0.4291645
1.103508,0.1854303,-0.4526007
1.137914,0.1606442,-0.5144517
1.175666,0.1482081,-0.5784527
1.150894,0.121693,-0.4907373
0.9367926,0.05530631,-0.2798963
0.7432268,-0.03475182,-0.01359963
0.7601981,-0.0373314,0.01398273
0.8637284,-0.03544837,-0.1512797
0.9538676,-0.0791735,-0.1765718
1.00983,0.01739225,-0.2290738
0.968915,0.1646038,-0.2431393
0.8813399,0.186724,-0.1742195
0.9218532,0.1770934,-0.237869
0.9794539,0.1580064,-0.2315196
0.9662335,0.1091376,-0.1684958
0.9855952,0.1349769,-0.1613701
0.9415191,0.1760671,-0.1331425
0.9176001,0.1422684,-0.1819742
0.949417,0.09759031,-0.2055342
0.9241944,0.04775875,-0.1567072
0.9420242,0.05338905,-0.1550831
0.9076406,0.1416891,-0.1623503
0.8141439,0.2111034,-0.1863928
0.7860185,0.2378932,-0.1850084
0.8011577,0.1414466,-0.1708822
0.8938783,-0.01318422,-0.2013888
1.002476,-0.02629119,-0.233849
1.110278,-0.002681397,-0.2754716
1.141611,-0.01777297,-0.2159811
0.9902861,-0.01420704,-0.1052178
0.8327225,-0.01926218,-0.1234779
0.7537178,-0.008108164,-0.147298
0.7167431,0.02443317,-0.1442956
0.6382898,0.01200939,-0.2000254
0.5359466,-0.1664035,-0.306062
0.6613282,-0.4549519,-0.4390345
1.092475,-0.5314361,-0.4952193
1.542439,-0.4334344,-0.4925001
1.627193,-0.4350729,-0.5154916
1.595496,-0.4255618,-0.4318089
1.64168,-0.2847837,-0.1077022
1.420655,-0.1481591,0.1880909
1.345064,-0.1172716,0.02988778
1.439943,-0.1650682,-0.1929085
1.187729,-0.1721531,0.007802353
0.9875791,-0.1525324,0.07354581
0.8167907,-0.1638129,-0.0909102
0.6073149,-0.1117624,-0.07907854
0.5808455,-0.05478554,-0.1389589
0.4575082,-0.05110997,-0.1853938
0.4462459,-0.0439061,-0.1274348
0.5100415,-0.09155905,-0.1447408
0.4690978,-0.1706105,-0.07798299
0.5438943,-0.2134441,-0.05834427
0.5518451,-0.2067834,-0.0659422
0.6862966,-0.1941818,0.03098834
1.044747,-0.2365536,0.007281771
1.242676,-0.2452766,-0.1251562
1.236031,-0.2226847,-0.3139901
1.247442,-0.2260686,-0.3877326
1.391549,-0.2385775,-0.2594657
1.260884,-0.2515651,-0.1332051
0.9583394,-0.1601261,-0.05642987
0.8629107,-0.02628927,-0.2980142
0.8230767,-0.02647389,-0.696847
1.108223,-0.1148625,-0.8061544
1.568715,-0.1319137,-1.00099
1.679623,0.06271968,-1.094391
1.523981,0.2939353,-0.7291264
1.311627,0.2667453,-0.5162014
1.121324,0.1549258,-0.2555013
0.7643787,0.1511973,0.2563446
0.6175164,0.1087478,0.2695797
0.8552913,0.02913375,0.04710357
0.8545619,-0.0156348,-0.03655072
0.9078721,-0.02704409,-0.2543205
0.9806603,0.03090252,-0.2484217
0.7576371,0.09191071,-0.0590032
0.7749008,0.1808616,-0.1256989
0.8733108,0.2304875,-0.1660831
0.9375942,0.1405157,-0.1553886
1.026762,0.1430343,-0.1940754
0.9232754,0.1649852,-0.09812935
0.9519597,0.08575524,-0.08131351
1.015341,0.02430098,-0.08908925
0.9954638,-0.05413023,-0.006287343
1.010915,-0.01884659,-0.04557894
0.8673062,0.05502059,-0.07093569
0.8111479,0.02688343,-0.1061944
0.8943538,0.04614323,-0.1553933
0.9237389,0.02455806,-0.131803
0.918068,-0.003252196,-0.2038909
0.8646088,0.02654572,-0.2331065
0.8828348,0.02310498,-0.2095079
0.8626352,0.08109134,-0.1671576
0.7610437,0.1137803,-0.05882414
0.7098533,0.01599526,-0.1234354
0.7124976,-0.05414425,-0.220973
0.7546464,0.0381062,-0.1916668
0.5902937,0.1421788,-0.1346418
0.3221878,0.003997805,-0.08069929
0.3666447,-0.3344635,-0.2323915
0.9676582,-0.7332639,-0.4708168
1.849519,-0.8642389,-0.5769768
2.071328,-0.6079471,-0.7143776
1.826988,-0.4026304,-0.6454143
1.770327,-0.1931576,-0.2254106
1.551275,0.02407,-0.02064601
1.465186,-0.06324735,-0.178374
1.568825,-0.102665,-0.2747096
1.231941,-0.08826506,-0.1416306
0.8672866,-0.207869,-0.02766025
0.7073946,-0.1720843,-0.08350906
0.5374636,-0.1470878,-0.06714884
0.4507094,-0.2342186,-0.0008767834
0.3316611,-0.2707343,0.001708487
0.3341019,-0.3189654,0.008698381
0.4883301,-0.2877306,-0.08587853
0.4951227,-0.1983468,-0.1488342
0.4900364,-0.1446549,-0.07783342
0.5344478,-0.04051089,0.05702294
0.6109901,0.06270763,0.2276931
0.713525,0.06323919,0.1773373
0.7584708,-0.05405438,-0.0518267
1.037039,-0.2185941,-0.2640543
1.465069,-0.3509152,-0.4153792
1.490199,-0.3734129,-0.3922739
1.243102,-0.2702114,-0.3039685
1.161121,-0.2058169,-0.1810638
1.21997,-0.192319,-0.03221701
1.237113,-0.2031711,-0.06583898
1.163018,-0.2485294,-0.2649375
1.067956,-0.2019296,-0.5425584
1.039012,-0.1671258,-0.6850655
1.087429,-0.1635556,-0.542176
1.22517,-0.02773354,-0.5011237
1.472066,0.1539363,-0.6971764
1.668715,0.2392907,-0.7449298
1.508814,0.1599904,-0.4484865
1.123551,0.1003778,-0.04013671
0.8952663,0.1555823,0.07154854
0.8090525,0.1012534,-0.01600516
0.9348374,-0.009628986,-0.04030008
1.094201,-0.06455935,-0.1306819
0.8866435,-0.0391802,-0.1463329
0.757927,0.07219952,-0.08117743
0.8674444,0.1425877,-0.1778265
0.8891585,0.1932563,-0.2240836
0.9618227,0.1758242,-0.2034306
1.005123,0.1008382,-0.1658966
0.9576509,0.1153351,-0.04128187
0.9559734,0.0750827,-0.04653737
0.9343397,0.01544798,-0.0861437
0.8944275,0.01863375,-0.05837639
0.804599,-0.04646617,-0.08696996
0.7042794,-0.07440148,-0.08639753
0.7322421,-0.02935496,-0.0721284
0.8685533,0.05169178,-0.04130216
1.022417,0.1849663,-0.005803241
1.07565,0.2051103,-0.1172698
0.9971797,0.0354709,-0.3043762
0.8551845,-0.1977926,-0.4098042
0.6145489,-0.3077131,-0.3984083
0.3005238,-0.2970673,-0.3648381
0.231132,-0.3342469,-0.3263788
0.6339855,-0.3836965,-0.1712905
1.321611,-0.3746375,-0.1102811
1.745398,-0.379081,-0.4645789
1.62105,-0.4493066,-0.7731457
1.52816,-0.5098716,-0.336629
1.564855,-0.4589569,0.1757265
1.307623,-0.3708114,-0.001693478
1.238595,-0.3330356,-0.1607733
1.293948,-0.3037135,-0.06502689
0.9805846,-0.232266,-0.02549789
0.7034416,-0.1048231,0.1388372
0.4425817,0.008407385,0.1179799
0.2087038,0.02655752,-0.01170216
0.2829153,-0.01550386,0.09948269
0.4142601,-0.08521876,0.02472287
0.6286026,-0.1589159,-0.1322393
0.7424052,-0.1462014,-0.2124476
0.7239271,-0.1033827,-0.4070385
0.981917,-0.1482043,-0.5261288
1.141477,-0.2456372,-0.5542492
1.097848,-0.365076,-0.4584769
1.083492,-0.3795237,-0.2970868
0.9796627,-0.2136411,-0.1768026
0.8979398,-0.0967047,-0.06536559
0.8638747,-0.1044539,-0.1558872
1.015198,-0.1729293,-0.2411948
1.354126,-0.3042724,-0.2921133
1.407283,-0.3817862,-0.3989816
1.207122,-0.3383102,-0.3280526
1.067508,-0.2280833,-0.4240013
1.054076,-0.1363155,-0.6071699
1.105973,-0.09201488,-0.5852638
1.172107,-0.02114898,-0.6015126
1.357969,0.1343851,-0.591798
1.508702,0.2535183,-0.5884174
1.417946,0.1399702,-0.5205645
1.175048,0.05974765,-0.2393922
0.7031287,0.2291181,0.09641599
0.2822335,0.3276127,0.3732247
0.4634952,0.2608748,0.2957754
0.8331711,0.05336632,-0.09282329
1.026747,-0.1667582,-0.4537853
1.231126,-0.09328007,-0.5674171
1.100392,0.03789053,-0.3609007
0.8777868,0.0188425,-0.2608903
0.9174709,0.05544319,-0.1970894
0.762374,0.09510733,0.01805985
0.8534356,0.08709526,-0.07333618
1.173616,0.1169707,-0.213093
1.05163,0.1023101,-0.1181544
0.9932371,0.05152292,-0.09625987
0.9721607,0.0167847,-0.05246885
0.8005164,-0.009818956,-0.00784835
0.8404515,0.008511754,-0.05968419
0.8694661,0.009596672,-0.03853763
0.9361275,0.007494215,-0.04015533
1.051415,0.03211343,-0.08687338
1.012243,0.01465414,-0.0830675
1.063368,0.005269304,-0.1068042
1.148302,-0.001859313,-0.1219738
1.080757,0.0203822,-0.1053183
0.9395051,0.1162771,-0.04743103
0.8031981,0.1795123,0.08574743
0.7020354,0.195175,0.119861
0.6377075,0.1390901,0.003594414
0.5762359,-0.01161207,-0.1765932
0.5665525,-0.2508938,-0.4309003
0.8951093,-0.5565281,-0.6572357
1.463563,-0.6836205,-0.7626611
1.756604,-0.5855609,-0.7677072
1.718319,-0.4744374,-0.6186378
1.610627,-0.3244081,-0.3145883
1.501754,-0.1571646,-0.1203936
1.405073,-0.1675218,-0.2037496
1.393235,-0.2412984,-0.2678148
1.266357,-0.2352438,-0.1898058
0.927823,-0.2671383,-0.1827546
0.748458,-0.2581481,-0.154095
0.6884241,-0.1609526,-0.07904057
0.4875483,-0.1084072,-0.08403509
0.4424899,-0.1138625,-0.07592521
0.6834181,-0.2586927,-0.1110976
0.8590049,-0.4383546,-0.1612956
0.8715249,-0.4426311,-0.1218949
0.8366671,-0.3390488,-0.1046898
0.710746,-0.1390056,-0.05338155
0.5314088,0.08244172,-0.01184356
0.4856984,0.1092159,-0.04483772
0.6949341,-0.01471933,-0.01770036
0.9162407,-0.1092768,-0.009250056
0.8609528,-0.1672609,-0.05722089
0.7750372,-0.1787086,-0.08279109
0.8045108,-0.1471178,-0.05139065
0.8634863,-0.2148632,-0.0184242
0.965673,-0.2597405,-0.1140457
0.9538812,-0.2211507,-0.1926641
0.9224946,-0.2731398,-0.1257445
1.040127,-0.3472146,-0.02021199
1.085631,-0.3681738,0.02572779
1.013137,-0.2174472,-0.1352103
1.048183,-0.03461472,-0.4962834
1.40112,-0.1684137,-0.7991755
1.747965,-0.2783007,-0.8715566
1.476139,-0.1559222,-0.7766364
1.053825,-0.05905318,-0.6385337
1.028041,0.1028605,-0.438245
0.9642539,0.2838551,-0.2675698
0.9670452,0.2389685,-0.3877102
1.171751,0.02808276,-0.6127306
1.144464,-0.1869011,-0.6025221
1.061682,-0.2121205,-0.4113079
0.9644603,-0.06932066,-0.1015357
0.8095986,-0.01712698,0.04027051
0.9121026,0.03707818,-0.1660333
1.013764,0.1333154,-0.3105477
1.005857,0.1149554,-0.3261892
1.004818,0.1207412,-0.2696968
0.9134731,0.1380514,-0.1281304
0.9067839,0.08779017,-0.1486819
0.9236458,0.04117351,-0.1858843
0.881706,-0.01462335,-0.1581778
0.9072977,-0.02240161,-0.1936847
0.9030785,-0.02278146,-0.1716148
0.8917387,-0.03093604,-0.1619423
0.8940244,0.02645879,-0.160889
0.8644366,0.06420361,-0.1102216
0.8543984,0.07570965,-0.1375685
0.8749286,0.07433938,-0.1954743
0.990018,0.07086247,-0.2480831
1.108582,0.09947332,-0.2582479
1.035991,0.1070714,-0.2139886
0.7953689,0.0711743,-0.2233681
0.4798381,-0.05160853,-0.1953945
0.3088469,-0.173897,-0.1393884
0.4812449,-0.1714516,-0.1528764
0.8386808,-0.2410828,-0.2142604
1.308706,-0.4565951,-0.4133281
1.716896,-0.5969353,-0.6091614
1.635749,-0.6314113,-0.5549527
1.457664,-0.5809257,-0.2651399
1.525106,-0.3843125,0.04851932
1.458651,-0.2050182,0.05865175
1.426585,-0.1280035,-0.03582944
1.421839,-0.03745526,0.01844021
1.177273,0.01449461,-0.03577498
0.8912475,-0.01712859,-0.02923425
0.5948915,-0.04986822,0.1083647
0.4785606,-0.07921252,0.08136022
0.5726534,-0.1556802,0.06080386
0.6774943,-0.2211445,0.01103176
0.8406578,-0.2351112,-0.1655253
0.7773319,-0.234377,-0.2078266
0.5805637,-0.1842095,-0.1413114
0.5656753,-0.1474934,-0.06800248
0.5983864,-0.1242518,-0.09149866
0.6915464,-0.04363746,-0.3056748
0.7385887,-0.04829178,-0.4756
0.7824772,-0.1625442,-0.3543323
0.9337387,-0.2471248,-0.120505
0.9740925,-0.1873353,-0.135197
1.029426,-0.06406668,-0.2528785
1.097337,-0.06720647,-0.2711114
1.098508,-0.1134344,-0.2190534
1.192979,-0.1415775,-0.09766178
1.18342,-0.146166,-0.1592923
1.122128,-0.1214516,-0.2951316
1.170995,-0.1690785,-0.3089139
1.151392,-0.1761715,-0.3711385
1.159954,-0.09800945,-0.4743192
1.205355,-0.04722826,-0.729461
1.204787,-0.04068,-0.8638927
1.296062,-0.06263032,-0.6597682
1.39094,-0.01583446,-0.5636335
1.361639,0.03534255,-0.4584792
1.196587,0.057482,-0.2331493
0.935055,0.1656416,-0.05854548
0.7874201,0.2122724,0.04798508
0.842571,0.1437311,-0.07173704
0.9762783,0.09184551,-0.1855999
1.064853,0.04299831,-0.2106167
1.02598,-0.01759896,-0.2727142
0.9426986,-0.0008975441,-0.2043731
0.9594612,0.07064846,-0.1648901
0.9730459,0.06235741,-0.1491964
0.9458441,0.07427319,-0.07317871
0.9931199,0.1155425,-0.1238713
1.049163,0.05621959,-0.1902292
1.083743,0.0233812,-0.233993
1.020394,-0.001296359,-0.2483033
0.8198177,-0.04129878,-0.1909637
0.7153558,-0.01305815,-0.1826064
0.7023387,-0.02012878,-0.1344898
0.6905115,-0.0308385,-0.08408155
0.7381462,-0.005155584,-0.1196716
0.8235098,0.03665318,-0.1023847
0.9222651,0.1008681,-0.0863669
0.9587381,0.06497692,-0.132053
0.8630651,-0.03878685,-0.2160041
0.6590974,-0.1236568,-0.2935409
0.4833426,-0.1815806,-0.2203137
0.4296569,-0.1714329,-0.09493271
0.5185804,-0.2241181,-0.06488585
0.9869722,-0.3699677,-0.1093878
1.700886,-0.4174223,-0.3876013
1.978096,-0.3979206,-0.7973388
1.766059,-0.4606936,-0.7343674
1.659808,-0.55303,-0.1096093
1.584919,-0.5193811,0.4060329
1.272038,-0.3482781,0.33405
1.143621,-0.1935541,0.00691169
1.14909,-0.1612674,-0.04198221
0.9827215,-0.176692,0.02492321
0.8026203,-0.1193782,0.02260004
0.591682,-0.07512263,0.05528884
0.4574566,-0.1059806,0.01897833
0.4937843,-0.1334286,-0.007736536
0.5730444,-0.2017997,-0.03614544
0.6235279,-0.217444,-0.1135354
0.5857092,-0.1313396,-0.09636832
0.6043421,-0.1192304,-0.1152226
0.6689018,-0.1346068,-0.07912643
0.7594715,-0.1556798,-0.006124399
0.9949327,-0.2161767,-0.1296954
1.172638,-0.2487316,-0.2322754
1.069658,-0.2312619,-0.2410372
0.9066452,-0.177477,-0.2106427
1.094457,-0.2132125,-0.1475322
1.270977,-0.2522194,-0.1206565
1.158852,-0.1976048,-0.1179527
1.187527,-0.1778509,-0.1679223
1.197323,-0.130056,-0.1837528
1.147139,-0.1234154,-0.170056
1.184554,-0.1956066,-0.202097
1.134854,-0.2117929,-0.2257273
1.188626,-0.2317516,-0.3349292
1.252087,-0.155288,-0.5544427
1.200782,0.00763925,-0.7269154
1.228713,0.07427314,-0.7231496
1.279086,0.07715884,-0.6935113
1.312842,-0.02752264,-0.7123881
1.203574,-0.1349805,-0.4639454
0.9586957,-0.03016791,-0.09524733
0.7964577,0.1602615,0.04397265
0.7610917,0.2601148,0.01724269
0.9166061,0.2080734,-0.1178569
1.099448,0.01461532,-0.2876785
1.054235,-0.1035974,-0.3462014
0.8865153,0.06249443,-0.1630739
0.7917566,0.2849458,0.02071662
0.8665629,0.2491397,-0.1143475
0.9931807,0.1302941,-0.2461024
0.9809453,0.06919684,-0.2296537
0.9205199,-0.003539106,-0.1945582
0.8961715,0.03569953,-0.08821102
0.8719322,0.07971356,-0.07638041
0.9073569,-0.002123332,-0.1374811
0.9239524,-0.03713375,-0.1240484
0.8619933,-0.05960187,-0.1316928
0.8298343,-0.05840073,-0.1445875
0.8333302,0.006554278,-0.1852178
0.8861111,0.01899273,-0.2593725
0.9637667,0.06597752,-0.2341718
1.028957,0.1409414,-0.1441135
1.051838,0.1691215,-0.1060543
0.8714933,0.1217694,-0.2115805
0.6283278,-0.06947195,-0.3628921
0.5759774,-0.2504697,-0.339231
0.577443,-0.3393661,-0.2625792
0.6290587,-0.4054449,-0.2578412
1.004947,-0.4918844,-0.256878
1.544704,-0.566992,-0.3657202
1.760092,-0.5250086,-0.5040958
1.649682,-0.5009262,-0.3801519
1.535461,-0.4717099,0.04632585
1.384619,-0.2258729,0.3995679
1.148161,-0.01740185,0.1636001
1.098556,-0.1372974,-0.1872051
1.100805,-0.3435779,-0.004586796
0.8793579,-0.321989,0.08947466
0.6394196,-0.238013,-1.660072e-05
0.4361794,-0.2151949,0.1009138
0.4232453,-0.1842852,-0.01867965
0.6306018,-0.2240542,-0.1701292
0.6379713,-0.206117,-0.1736872
0.6249789,-0.1419704,-0.2416231
0.690496,-0.1437142,-0.1666
0.7438049,-0.1164882,-0.1091759
0.9084949,-0.1371896,-0.07649156
0.9098887,-0.1415363,-0.0415244
1.01751,-0.171003,-0.1741252
1.301343,-0.2882763,-0.1757858
1.187797,-0.2514091,-0.1483766
1.040339,-0.1461209,-0.1469145
1.06698,-0.01490014,-0.06376247
1.023638,0.08779464,-0.1037797
1.032597,-0.01872736,-0.1025315
0.9684288,-0.1067051,-0.09311469
0.906707,-0.170486,-0.1412623
1.094846,-0.3426429,-0.1147636
1.236422,-0.4096859,-0.1621981
1.131046,-0.268425,-0.3123912
1.057843,-0.13901,-0.5436945
1.161194,-0.2097621,-0.6318427
1.231267,-0.2381626,-0.4953775
1.253795,-0.0518799,-0.5090894
1.337458,0.2177559,-0.6463805
1.305558,0.3910443,-0.6826673
1.122072,0.1580793,-0.4405169
0.9009542,-0.1488737,0.02633708
0.7235802,-0.02642401,0.2501518
0.7634753,0.05431521,0.1924376
0.9610297,-0.04334464,-0.03315979
1.160466,-0.07694316,-0.3965289
1.205148,-0.1978603,-0.4497696
0.9660488,-0.1103955,-0.1567584
0.7620205,0.1617052,0.008419746
0.7968777,0.1974787,-0.05251581
0.9378988,0.1916359,-0.1921875
1.050156,0.1722696,-0.264289
0.9709162,0.1318322,-0.188794
0.8863397,0.1818769,-0.05474241
0.9457062,0.1562305,-0.006497156
