accx,accy,accz
0.7631259,-0.09714747,-0.2334407
0.8600017,-0.1954233,-0.1928634
0.8867061,-0.2063077,-0.1248855
0.8743495,-0.1936218,-0.1101277
0.8106333,-0.1385146,-0.07651024
0.68826,-0.05441801,-0.07298963
0.6184497,-0.03254923,-0.1219958
0.6527419,-0.0848169,-0.1054632
0.8064993,-0.1675923,-0.0764373
0.923299,-0.2024214,-0.0627347
0.8761006,-0.1830486,-0.07017255
0.8078883,-0.1385884,-0.161657
0.7759556,-0.1124072,-0.208315
0.7012941,-0.1295753,-0.1382031
0.629552,-0.1723341,-0.08280516
0.7843517,-0.2944206,-0.1514623
1.163072,-0.4537197,-0.2203632
1.461169,-0.4957714,-0.1469288
1.564412,-0.4098642,-0.1148183
1.627034,-0.3473542,-0.1606366
1.730887,-0.3760216,-0.1403344
1.733826,-0.4302167,-0.08607471
1.631846,-0.4899531,-0.009048364
1.431405,-0.4680472,0.02208855
1.088866,-0.3092955,-0.000539046
0.8696528,-0.1276782,0.01451932
0.7598734,-0.02916161,0.01008913
0.6477658,-0.06896917,0.003986025
0.6707539,-0.1526801,0.02048469
0.6692321,-0.2191055,0.01618264
0.6024045,-0.2625304,0.01815654
0.5786772,-0.1934251,0.01118401
0.5696511,-0.135835,0.001281111
0.6242419,-0.1464652,0.0005672214
0.7167981,-0.156447,-0.02524033
0.8598274,-0.2156056,-0.07194842
1.004196,-0.2223666,-0.125247
1.017379,-0.1790496,-0.1214731
0.9970414,-0.1762801,-0.01837061
0.991477,-0.1698585,0.07766086
0.9749783,-0.1806024,0.06837364
0.9813427,-0.1833062,0.01473033
1.070821,-0.2164535,-0.06255013
1.296562,-0.3068416,-0.2312248
1.459864,-0.3303649,-0.3527425
1.372528,-0.2981425,-0.3237072
1.153205,-0.2498388,-0.2137985
1.030933,-0.214823,-0.07069347
1.220199,-0.2181744,-0.08879185
1.597874,-0.178647,-0.1812123
1.692987,-0.08887096,-0.1477511
1.385414,-0.04713058,-0.1832811
0.9961961,-0.09610122,-0.1315206
0.7953643,-0.1534231,0.03307464
0.8340243,-0.183458,-0.02273549
0.9578898,-0.194178,-0.09745119
1.02593,-0.1582563,-0.1174448
0.9883048,-0.1381118,-0.1415719
0.8709894,-0.1358513,-0.08950582
0.8050219,-0.130702,-0.09293355
0.7363789,-0.1443295,-0.06787715
0.6501254,-0.1227425,-0.0325952
0.6713289,-0.09544475,-0.07792538
0.7399291,-0.08017082,-0.06755774
0.8001672,-0.0488262,-0.08843451
0.7809322,-0.03331286,-0.1106326
0.7315068,-0.0326706,-0.07258399
0.7642404,-0.08664748,-0.05036088
0.7568748,-0.1769715,-0.01281907
0.7988847,-0.2408247,-0.09649588
0.9684258,-0.3295535,-0.2510889
1.164382,-0.4111594,-0.2631151
1.422676,-0.4015751,-0.233604
1.568448,-0.3321001,-0.2311418
1.534296,-0.3150049,-0.2051821
1.589816,-0.4652501,-0.1155144
1.726625,-0.6794472,0.002362437
1.715688,-0.6596858,0.01441551
1.389333,-0.3507387,-0.02923157
0.9107616,-0.04285997,-0.01524048
0.7904376,-0.0002958035,-0.004474846
0.873529,-0.1275554,-0.007093286
0.7342955,-0.1538958,0.02308514
0.78443,-0.1824326,0.04029411
0.962822,-0.3195738,0.05638365
0.8302303,-0.3198593,0.07122461
0.7832791,-0.2374706,0.03012741
0.8215838,-0.2063232,-0.008161408
0.7558585,-0.1677896,-0.02867627
0.7898618,-0.181102,-0.03833113
0.7505802,-0.1897598,-0.02142837
0.705535,-0.1742121,-0.03776941
0.7825295,-0.1838873,-0.06681075
0.8055483,-0.1444951,-0.08611846
0.8292543,-0.09208541,-0.08099465
0.8621527,-0.07394924,-0.009711231
0.936566,-0.1165445,0.06337959
1.057975,-0.207261,0.09908719
1.147058,-0.27236,0.07718714
1.259424,-0.3217848,-0.02719004
1.293474,-0.3140436,-0.2480047
1.258798,-0.2909032,-0.5137133
1.258902,-0.3451832,-0.505633
1.23535,-0.3967292,-0.239465
1.259212,-0.4182171,-0.006383462
1.314411,-0.3549751,0.08297737
1.308658,-0.1501928,-0.07518636
1.302003,0.04058131,-0.2694154
1.259239,0.08553982,-0.2752423
1.095414,-0.009853916,-0.2635712
0.8894252,-0.09801555,-0.2554754
0.8147297,-0.1069749,-0.2439478
0.9012664,-0.170824,-0.2105268
1.002119,-0.2423475,-0.1064922
1.035548,-0.2304556,-0.08001656
0.9429775,-0.1664006,-0.07331972
0.7234237,-0.04213644,-0.03558736
0.6256093,0.03815767,-0.04420802
0.7160567,0.02305501,-0.04422062
0.8125214,-0.01034037,-0.07300242
0.9098825,-0.06133873,-0.1076893
0.9497645,-0.09101382,-0.08946633
0.8691306,-0.06262615,-0.0288469
0.831289,-0.03530703,0.06018628
0.8708078,-0.02846957,0.04001033
0.905432,-0.01668829,-0.02759446
0.937822,-0.05085637,-0.04436666
0.9447077,-0.1231904,-0.109442
0.9205736,-0.1315254,-0.1321845
0.911099,-0.1747817,-0.1623653
0.906993,-0.3269311,-0.2554891
0.9405821,-0.4386366,-0.1459553
1.068277,-0.4792149,-0.01089048
1.225878,-0.4915638,-0.07532482
1.454255,-0.4796904,-0.08297317
1.772965,-0.4765882,-0.0520216
1.823347,-0.4632389,-0.07790151
1.536086,-0.3849234,-0.05604213
1.368009,-0.2678616,-0.04356421
1.354722,-0.2199543,-0.05918266
1.216385,-0.1862593,-0.06579785
0.9485693,-0.07294759,-0.08144674
0.7439942,-0.06287375,-0.06933815
0.763255,-0.1876667,-0.02456648
0.757183,-0.261336,0.006520356
0.7035281,-0.2890443,-0.02529341
0.8317891,-0.2846823,-0.1141652
0.8177858,-0.255417,-0.1532418
0.7273541,-0.2269092,-0.07517467
0.77225,-0.1513193,0.02911848
0.7602298,-0.1058718,0.02971612
0.8272646,-0.1156545,-0.0316894
0.8707275,-0.1365588,-0.03982019
0.8564752,-0.193423,0.009290365
0.9553046,-0.2159409,0.04888312
0.9548171,-0.227698,-0.008382752
0.9601125,-0.2633061,-0.07291553
1.030467,-0.2566865,0.005530818
1.063192,-0.2655534,0.1072491
1.102086,-0.277852,0.1313978
0.9971113,-0.2649077,0.05871811
0.8970421,-0.288474,-0.1172893
0.9935485,-0.339434,-0.2630091
1.251017,-0.4568396,-0.4328022
1.599213,-0.6364522,-0.6169962
1.67508,-0.7018648,-0.4898224
1.498795,-0.5147448,-0.1321328
1.388034,-0.1654557,0.02852104
1.253468,0.1108093,-0.1044292
1.168466,0.1994477,-0.2398709
1.163061,0.1333807,-0.1606457
0.9912185,-0.008488041,-0.1181123
0.8437422,-0.174064,-0.1919165
0.8013481,-0.2668525,-0.1501948
0.7294298,-0.202902,-0.1618707
0.7930905,-0.1459293,-0.2434393
0.8441026,-0.1218296,-0.2409928
0.8126071,-0.06948691,-0.2656017
0.8534032,-0.1226897,-0.2105527
0.8306946,-0.1468209,-0.1148108
0.8322732,-0.09121308,-0.0819318
0.8604645,-0.09629944,-0.01172165
0.8026777,-0.074854,-0.01001075
0.7540484,-0.05676714,-0.02023283
0.6892259,-0.05602054,-0.008753685
0.7406487,-0.06458272,-0.07211014
0.9076609,-0.1410073,-0.09280017
0.9647056,-0.187309,-0.06472783
0.9095562,-0.234297,-0.03459194
0.8468869,-0.2608202,-0.03358526
0.9520027,-0.2038698,-0.05632314
1.042145,-0.1907196,-0.09203225
0.9025467,-0.2145865,-0.256649
0.8364514,-0.272993,-0.3965723
0.9454039,-0.3764348,-0.3027061
1.147543,-0.4314841,-0.08728219
1.42496,-0.459796,0.05515736
1.64449,-0.5176727,0.005532844
1.718675,-0.5624943,-0.0764831
1.584431,-0.5358989,-0.01774421
1.357282,-0.4982652,-0.01146982
1.259962,-0.4273971,-0.08882753
1.220598,-0.2558908,-0.07359282
1.109163,-0.168317,-0.03111623
0.953639,-0.1991564,0.01396614
0.7913514,-0.1976503,0.0306059
0.6625596,-0.1917388,-0.01361724
0.6029963,-0.2016434,0.008755683
0.6252473,-0.1984627,0.001541643
0.6872349,-0.1983966,-0.02415675
0.713151,-0.2137648,0.01324912
0.7518092,-0.2233889,-0.006214998
0.7549253,-0.1910135,-0.001120586
0.6518328,-0.1373049,-0.00919718
0.6081476,-0.100828,-0.05485189
0.6085012,-0.0975897,-0.009873403
0.6544024,-0.1315103,0.003339769
0.8161181,-0.1876474,-0.03138236
0.9027911,-0.2151153,-0.08024743
0.9374689,-0.1643645,-0.129394
0.9961853,-0.09163779,-0.06728099
1.041432,-0.08166802,-0.003446547
1.105051,-0.1643524,-0.04150383
1.155553,-0.3531887,-0.1016239
1.322408,-0.5659091,-0.169836
1.563891,-0.6364528,-0.2989782
1.553921,-0.5304643,-0.377584
1.270771,-0.3482432,-0.2050925
1.097681,-0.1458243,-0.01732948
1.406011,0.001874436,-0.163293
1.723059,0.04447118,-0.2998342
1.46373,0.02691797,-0.1546552
1.087024,-0.09004945,-0.07165956
0.9071961,-0.2284229,-0.04861479
0.8123975,-0.2340059,-0.0145206
0.8962699,-0.1999112,-0.125056
0.911046,-0.179391,-0.1630633
0.8541374,-0.1253279,-0.1180339
0.9385096,-0.06586491,-0.1188107
0.874168,-0.05653509,-0.08028756
0.7876188,-0.09735616,-0.06486735
0.8139615,-0.1089744,-0.03953127
0.7706871,-0.1112204,-0.00203631
0.7986843,-0.1016524,0.004135192
0.8037943,-0.0475422,-0.0110585
0.7842079,-0.02319499,-0.1159696
0.8302397,-0.03053925,-0.175302
0.7973028,-0.1002489,-0.1145828
0.8064296,-0.1993345,-0.03258159
0.827214,-0.2095379,-0.01440835
0.8112365,-0.2031841,-0.1095237
0.8273781,-0.198653,-0.1919974
0.7948636,-0.151269,-0.1981258
0.8444881,-0.1637574,-0.1767421
1.089497,-0.3011669,-0.171502
1.408439,-0.4372533,-0.1490912
1.509729,-0.4192901,-0.08230555
1.459876,-0.3763275,-0.07158978
1.629761,-0.4438265,-0.03774539
1.709763,-0.471821,0.01469904
1.568104,-0.4661246,-0.01330219
1.475296,-0.510912,0.003397788
1.293278,-0.4731658,0.009426149
1.163039,-0.348701,-0.04413506
1.13402,-0.2553033,-0.05611291
1.002719,-0.2435668,-0.05231094
0.7930761,-0.2051992,-0.03560361
0.4890362,-0.08911447,-0.01555253
0.5339779,-0.1872801,0.01967426
0.7991438,-0.330952,0.07355501
0.7303432,-0.1801361,0.05972202
0.8657221,-0.09977753,0.04061764
0.9622873,-0.1437851,0.05607391
0.7423897,-0.09089852,0.02090163
0.8115037,-0.07798708,-0.01227908
0.7545599,-0.09302483,0.004277866
0.686277,-0.1260074,0.005528584
0.8309505,-0.1807898,-0.01581027
0.714896,-0.1780449,-0.0339266
0.7483527,-0.1668259,-0.03790851
0.8442946,-0.1402276,0.002198292
0.8475011,-0.1055649,0.03425412
0.9847259,-0.1111244,-0.05079806
0.957168,-0.1907197,-0.1979782
1.095619,-0.3735295,-0.2859543
1.460011,-0.5705131,-0.3492423
1.598184,-0.6494519,-0.3831033
1.516958,-0.5266626,-0.2399467
1.30324,-0.3054979,-0.01319304
1.26786,-0.1466755,0.01987102
1.491691,-0.03973577,-0.05224681
1.676957,0.0579372,-0.05256231
1.477533,0.09871745,-0.08331911
1.040128,-0.0120224,-0.1065959
0.8885913,-0.1247787,-0.0734223
0.771219,-0.09812023,-0.1075101
0.7096166,-0.0967127,-0.1715063
0.8552769,-0.1215581,-0.2108762
0.8131393,-0.1442886,-0.1784064
0.8128629,-0.1777804,-0.0653899
0.8478787,-0.09673919,-0.03090002
0.7942613,0.01951781,-0.04573616
0.8458354,0.06875627,-0.04389496
0.7954619,0.08045004,-0.07931348
0.7594809,0.06748349,-0.1181798
0.7714725,0.02604304,-0.1521208
0.7235225,-0.07490489,-0.1474231
0.7819311,-0.1525725,-0.1124759
0.8535802,-0.1595836,-0.09188942
0.9268437,-0.1506406,-0.05443953
0.9184531,-0.1156748,-0.06021878
0.8122256,-0.07219173,-0.09011191
0.7738723,-0.0716599,-0.154165
0.7447586,-0.1747708,-0.3458233
0.9474971,-0.3497108,-0.4575794
1.31364,-0.4421686,-0.3802254
1.458759,-0.4245947,-0.3419136
1.674245,-0.4023092,-0.370601
2.033207,-0.3990228,-0.3004488
1.976215,-0.3641139,-0.2221312
1.518911,-0.3286476,-0.2662485
1.249066,-0.3002526,-0.2865301
1.270738,-0.2529439,-0.2425407
1.317228,-0.2097065,-0.1948626
1.218535,-0.1165826,-0.1189382
0.9691803,-0.0338331,-0.1147119
0.7676421,-0.03008963,-0.1752714
0.6441671,-0.018041,-0.1889842
0.5895174,-0.07614586,-0.2010106
0.6432633,-0.2132408,-0.1799523
0.7498409,-0.341136,-0.1044532
0.8858715,-0.4416186,-0.06747322
0.8911399,-0.4026688,-0.05236442
0.8161203,-0.2843693,-0.04943831
0.7903921,-0.1722586,-0.05886482
0.7397898,-0.07387857,-0.04710715
0.7481849,-0.06656476,-0.04811579
0.7792373,-0.05034096,-0.04189817
0.7845112,-0.05324777,-0.02960941
0.7720967,-0.1238231,-0.04044413
0.6847639,-0.1095943,-0.03667803
0.6402616,-0.1054631,-0.04778164
0.6780771,-0.1600461,-0.07748014
0.7648661,-0.213171,-0.08839307
0.8762449,-0.2859933,-0.07947229
0.9857191,-0.2907014,-0.04204242
1.101124,-0.2846974,-0.01743569
1.155153,-0.3355811,-0.05567848
1.184386,-0.3784864,-0.1995888
1.279786,-0.4438801,-0.4003803
1.430496,-0.5161244,-0.4614415
1.49385,-0.535659,-0.3692982
1.449876,-0.3994082,-0.2792682
1.534062,-0.1104611,-0.2128594
1.630666,0.05255225,-0.2091423
1.539248,-0.004928412,-0.2749498
1.403875,-0.121863,-0.2459045
1.218493,-0.2146038,-0.1587495
0.9835985,-0.2544398,-0.1254836
0.8653695,-0.2388109,-0.1255358
0.8149574,-0.2133571,-0.1848253
0.7327263,-0.1628152,-0.2082336
0.7205179,-0.08529194,-0.1784679
0.783807,-0.08523695,-0.1602393
0.7956669,-0.1094884,-0.08929431
0.7833395,-0.07182456,-0.05815339
0.7904144,-0.05447873,-0.06458127
0.8280426,-0.03827211,-0.02625035
0.8733331,-0.01556843,0.005957518
0.8156977,-0.02239994,0.02798444
0.7028253,-0.0149187,-0.03807086
0.6552767,-0.03048505,-0.1284987
0.7320963,-0.1011773,-0.1093785
0.9036015,-0.1897371,-0.07910204
0.9795017,-0.2110466,-0.09385976
0.9072347,-0.1556874,-0.1627564
0.8408855,-0.1427542,-0.2406597
0.8614738,-0.1628201,-0.2238774
0.912881,-0.2175359,-0.1991126
1.037192,-0.2891261,-0.2161294
1.334109,-0.2230848,-0.1296392
1.561761,-0.1674696,-0.0336909
1.575202,-0.3304199,-0.1087425
1.660585,-0.5652176,-0.1355155
1.726016,-0.6991064,0.02671495
1.449959,-0.6737377,0.1390415
1.125604,-0.500016,0.05556142
1.020675,-0.2149123,-0.08053035
0.8973881,0.07970554,-0.1146665
0.7273054,0.1601738,-0.106582
0.6707452,0.0562142,-0.08695958
0.7056351,-0.1195453,-0.00859361
0.7311846,-0.3831554,0.08516199
0.712708,-0.4210326,0.1102402
0.7125122,-0.2013516,0.02610412
0.6784628,-0.1164395,-0.02619756
0.6265087,-0.1022074,-0.004960468
0.650457,-0.1096063,-0.04501289
0.6390029,-0.1946005,-0.1539739
0.6170027,-0.2187018,-0.2595469
0.7235175,-0.2501945,-0.21086
0.9764841,-0.2991224,-0.1113426
1.210801,-0.3334852,-0.1586372
1.236216,-0.384588,-0.1818579
1.33827,-0.4339825,-0.2178484
1.555677,-0.4819221,-0.3357037
1.469542,-0.3493417,-0.3312452
1.324635,-0.1557968,-0.1921268
1.354401,-0.1704465,-0.05801779
1.387778,-0.2531674,-0.119002
1.488947,-0.3109839,-0.2243825
1.42784,-0.2711947,-0.1605849
1.185483,-0.181178,-0.179707
1.051998,-0.1754404,-0.1916331
0.8918862,-0.1553683,-0.09018187
0.8306955,-0.1436202,-0.1152706
0.8395794,-0.1354659,-0.1494452
0.7361093,-0.1219219,-0.1662478
0.7331407,-0.1728357,-0.1950042
0.6996127,-0.1828731,-0.1202654
0.6613226,-0.1561538,-0.05449916
0.6973559,-0.1011805,-0.02478963
0.6312449,-0.009654367,-0.06312477
0.6379187,0.004266421,-0.1526065
0.6723709,-0.02565855,-0.1398076
0.6588568,-0.04553721,-0.1009873
0.6674909,-0.05916994,-0.07813524
0.6326153,-0.06986762,-0.1012593
0.6876499,-0.0862455,-0.1849191
0.8070371,-0.114078,-0.1941436
0.9417452,-0.2264423,-0.162253
1.172189,-0.3578141,-0.1406126
1.415894,-0.3661505,-0.1330576
1.596517,-0.3058425,-0.1108914
1.627738,-0.3127705,-0.02564623
1.629417,-0.4665523,-0.0002330443
1.672428,-0.6835547,-0.00933237
1.570138,-0.7406082,0.0257187
1.413475,-0.5917835,0.02150997
1.300162,-0.4154724,-0.02019969
1.208926,-0.2675741,-0.07688967
1.103337,-0.1341477,-0.09166287
0.8864666,-0.08916172,-0.06380709
0.7133981,-0.1256556,-0.04539161
0.6530945,-0.1939284,0.02594001
0.6252882,-0.2100323,0.06060721
0.6507992,-0.1601548,0.01629092
0.6125756,-0.123948,0.004085213
0.5158619,-0.07045552,-0.01821016
0.4905299,-0.05640004,-0.03006474
0.5752774,-0.1173774,-0.008400243
0.7566739,-0.1961698,-0.02293319
0.8581041,-0.2961587,-0.03758761
0.8711891,-0.314586,-0.04182769
0.9418913,-0.2813667,-0.0253536
1.069973,-0.3044128,-0.009407669
1.274458,-0.3385725,-0.1061579
1.482606,-0.3793839,-0.2141958
1.52125,-0.3742593,-0.1901556
1.379282,-0.3015483,-0.1451196
1.290104,-0.2357834,-0.1257603
1.410902,-0.1954067,-0.06385079
1.498387,-0.1776662,-0.04449362
1.41088,-0.1634207,-0.07570276
1.271553,-0.1873039,-0.05251429
1.098545,-0.2319359,-0.04294959
0.9986946,-0.2182435,-0.07605184
1.020417,-0.2348241,-0.1298665
0.9427024,-0.2886205,-0.2113438
0.8046903,-0.2768174,-0.2032324
0.7731318,-0.2631807,-0.155804
0.7633246,-0.2679189,-0.1400691
0.7834475,-0.2420439,-0.04909957
0.8117715,-0.2213561,-0.00698521
0.7828,-0.1885988,-0.05486303
0.7877195,-0.1016609,-0.03930736
0.7545134,-0.007896021,-0.04498715
0.6935172,0.02000843,-0.1035207
0.7143553,-0.02059446,-0.1483544
0.7397486,-0.09787597,-0.1991542
0.7581662,-0.2080194,-0.1905687
0.7473481,-0.2802695,-0.1081255
0.7106841,-0.260694,-0.05183523
0.7125705,-0.2095041,-0.09121587
0.7335,-0.1566182,-0.1601297
0.7942068,-0.1456989,-0.1569384
0.8810925,-0.189195,-0.1715121
1.012004,-0.1875403,-0.1859287
1.234945,-0.1412922,-0.1162594
1.464736,-0.1271138,-0.08431518
1.636495,-0.264893,-0.07033645
1.758444,-0.6374877,-0.01503149
1.81072,-0.936902,0.04400692
1.666982,-0.8568097,0.1011416
1.405788,-0.6155353,0.09261229
1.323724,-0.3855945,0.03485227
1.267807,-0.1190486,-0.0370883
1.027792,-0.04905146,-0.07386293
0.8151541,-0.1715948,-0.0111113
0.7023499,-0.2076238,0.0181735
0.6651611,-0.2697131,-0.01001693
0.7051971,-0.2944579,-0.0146713
0.7286068,-0.1902202,-0.0293431
0.7418755,-0.1710167,-0.05106795
0.7135973,-0.1376071,-0.07499416
0.6299833,-0.09992862,-0.08950037
0.6192895,-0.1377695,-0.08625556
0.7102183,-0.1579622,-0.0821635
0.8183878,-0.227855,-0.07421515
0.8251742,-0.2311322,-0.07429757
0.7583862,-0.1616304,-0.04919465
0.7445196,-0.1418519,0.01370101
0.8210136,-0.1185968,-0.1107211
0.8959309,-0.1947146,-0.09336392
0.961479,-0.256269,-0.08089196
1.013948,-0.2719747,-0.07495934
1.017316,-0.2373117,-0.06814651
1.063705,-0.1954802,-0.08107109
1.203117,-0.2565384,-0.1019463
1.34969,-0.31389,-0.1446552
1.411887,-0.3271304,-0.2123155
1.286791,-0.3199925,-0.2143144
1.209479,-0.2463094,-0.1342821
1.398037,-0.1379763,-0.0870867
1.58661,0.002327879,-0.1611253
1.544208,0.09416116,-0.2274641
1.31204,-0.01719911,-0.1352311
1.0333,-0.2312491,-0.01835845
0.907056,-0.3085232,-0.006762606
0.9510546,-0.2729465,-0.05834126
0.9186809,-0.200696,-0.1474603
0.8109576,-0.05244564,-0.2196993
0.8101718,0.008832357,-0.226434
0.812535,-0.0441594,-0.1868545
0.7943644,-0.04045265,-0.1419639
0.8009327,-0.04926066,-0.131569
0.75938,-0.114602,-0.09319878
0.7403667,-0.1584513,-0.0371583
0.7542348,-0.1553358,-0.04309222
0.7545265,-0.1255958,-0.01877002
0.7607708,-0.1156027,-0.01336467
0.7692171,-0.1329757,-0.1514745
0.8069136,-0.1763961,-0.2436585
0.8302584,-0.2346121,-0.1253398
0.7925554,-0.3032423,0.03038807
0.755826,-0.321369,-0.003644722
0.7789755,-0.2011385,-0.1650104
0.8189686,-0.1045734,-0.2844893
0.884867,-0.190705,-0.2758256
1.159799,-0.265569,-0.1354179
1.544861,-0.1928082,-0.04720618
1.718196,-0.1810814,-0.04608611
1.697027,-0.3434382,-0.02517048
1.672724,-0.584174,-0.01231846
1.645116,-0.7867083,0.01842184
1.467964,-0.7718209,0.03023887
1.190074,-0.5928397,-0.01878396
1.015363,-0.3862982,-0.06396759
0.9268796,-0.1339602,-0.07837724
0.8169205,-0.01492868,-0.06198568
0.6878161,-0.04682592,-0.06490879
0.5609653,-0.08355742,-0.04412007
0.4818321,-0.1578738,0.003532493
0.4982773,-0.1656838,0.01730999
0.5419868,-0.1237781,0.02933819
0.562918,-0.1269258,0.007408517
0.6095903,-0.08549412,0.008998323
0.7069515,-0.06724701,0.0233548
0.8635572,-0.1075892,-0.01503018
0.9780624,-0.1476971,-0.02555092
0.9792116,-0.2002315,-0.05200287
0.9740088,-0.2440216,-0.0335607
0.9964849,-0.2960614,0.01925407
1.059937,-0.3506485,-0.06457357
1.157288,-0.4073372,-0.1697244
1.250483,-0.4887734,-0.2348216
1.398832,-0.5312478,-0.2797046
1.475734,-0.5277267,-0.2790345
1.30966,-0.4516947,-0.2480643
1.201332,-0.2750706,-0.1495554
1.49821,-0.1198685,-0.1055876
1.751465,-0.01731278,-0.1362213
1.445299,0.02722679,-0.07008638
1.059271,-0.04918209,0.04026825
0.9819522,-0.1365669,0.07556676
0.9531583,-0.1750865,-0.01747913
0.9537836,-0.1955399,-0.1495844
0.9672013,-0.1484983,-0.1775569
0.9090504,-0.1005426,-0.1717472
0.8921192,-0.09752081,-0.1631784
0.8388359,-0.09807241,-0.1159257
0.74958,-0.1297143,-0.06447379
0.7282456,-0.1528413,0.0004321813
0.7007039,-0.12477,0.04650398
0.6989386,-0.05256776,0.01529188
0.6918295,0.04292822,-0.06425985
0.6394299,0.06589236,-0.1070744
0.6532789,-0.02082443,-0.06393618
0.7110597,-0.1404382,-0.008020146
0.8174469,-0.2235447,-0.02307176
0.9157546,-0.2569218,-0.086303
0.8880391,-0.2270947,-0.1712019
0.8696438,-0.2008689,-0.2377917
0.9155188,-0.2915203,-0.2032107
1.003828,-0.3902987,-0.1223478
1.177216,-0.3898874,-0.03209985
1.340397,-0.3747371,0.04960532
1.593447,-0.3806468,-0.05409194
1.952853,-0.415909,-0.149719
1.948364,-0.5294549,0.01961983
1.714199,-0.6474627,0.1130113
1.575883,-0.5749444,-0.02930595
1.21131,-0.3861302,-0.1204208
1.044439,-0.3051644,-0.06487721
1.157032,-0.235135,-0.01402252
0.823312,-0.1297482,-0.01951122
0.6272187,-0.1187695,-0.01043059
0.6799083,-0.1477436,-0.0242614
0.5061051,-0.1252407,-0.03410837
0.5680696,-0.08958744,-0.02050145
0.6061789,-0.1032131,-0.0536866
0.5399949,-0.1214966,-0.04470222
0.6509415,-0.1345547,-0.01917446
0.6042964,-0.1544036,-0.03395397
0.6244106,-0.1238346,-0.04818667
0.7394274,-0.1201593,-0.09292081
0.8007731,-0.1725943,-0.09349783
0.9169957,-0.2392591,-0.08901049
0.895579,-0.3025211,-0.1235604
0.9221681,-0.291957,-0.0810001
1.05161,-0.2841993,-0.07115353
1.165177,-0.3201195,-0.1711059
1.396951,-0.3710809,-0.3137844
1.59428,-0.4851906,-0.4926382
1.67636,-0.5631153,-0.5661168
1.51946,-0.5062367,-0.321891
1.160146,-0.3447384,0.02245756
1.099005,-0.1525919,0.001587707
1.348141,-0.01694361,-0.1487503
1.518785,0.07583546,-0.1156788
1.419834,0.1161241,-0.1660384
1.193206,0.01880022,-0.1957679
1.019475,-0.1033584,-0.119951
0.7954183,-0.1161545,-0.133959
0.6639443,-0.1231871,-0.1541813
0.7491406,-0.1093837,-0.2150617
0.852551,-0.05225447,-0.2591914
0.9416654,-0.08320274,-0.210468
0.955759,-0.1191897,-0.171495
0.9117849,-0.1167788,-0.05957318
0.9108305,-0.1124729,0.002025461
0.8605621,-0.0507679,-0.05079308
0.814778,-0.02349023,-0.04491591
0.8325603,-0.0499874,-0.03556033
0.8556646,-0.07926005,-0.04423858
0.9020381,-0.1146068,-0.0444342
0.9326293,-0.08261331,-0.06199576
0.8755647,-0.04365751,-0.06884521
0.7855235,-0.06889883,-0.03132209
0.7896868,-0.0722529,0.01406941
0.8933139,-0.05496347,-0.01798403
0.9800161,-0.04906896,-0.03180124
0.9570596,-0.01013236,0.05013622
0.8836586,0.02768425,0.07097418
0.8030402,-0.01340007,-0.08192185
0.7254745,-0.1234468,-0.2604322
0.9711222,-0.3709778,-0.2806848
1.450058,-0.6950312,-0.2973069
1.602141,-0.7134027,-0.3427736
1.604937,-0.5414904,-0.2468818
1.800093,-0.4995101,-0.1448255
1.954034,-0.3469642,-0.07083251
1.828952,-0.2200688,-0.08796214
1.541599,-0.2682296,-0.2410517
1.365768,-0.2448751,-0.1927775
1.228759,-0.3598637,-0.05429996
1.079119,-0.4265787,0.008380251
0.95199,-0.2783934,0.06115701
0.6799606,-0.2374237,-0.0587349
0.5048595,-0.09233151,-0.128024
0.5373174,-0.0300986,-0.08814183
0.612531,-0.2180299,-0.08522997
0.801841,-0.3170531,0.001835652
0.8914233,-0.3963387,-0.003743923
0.8461718,-0.3190399,-0.03788606
0.8233478,-0.1459453,0.003188623
0.7252131,-0.07023164,-0.01193526
0.6524279,0.04353778,0.02151117
0.6545581,0.02482699,0.01308901
0.6737089,-0.03857018,-0.02542099
0.6857538,-0.05031341,-0.01367251
0.6482466,-0.0962058,-0.05826018
0.6381618,-0.06016976,-0.07354263
0.6876662,-0.07880232,-0.07231531
0.8534465,-0.1625281,-0.06404161
1.114969,-0.2680883,-0.00813698
1.253894,-0.4337122,-0.0005557353
1.226136,-0.4979345,-0.08130305
1.233329,-0.5156193,-0.2588559
1.40688,-0.5147997,-0.3828309
1.549044,-0.4488013,-0.3530942
1.506637,-0.4000679,-0.3008568
1.470977,-0.3348529,-0.2379194
1.525853,-0.2219039,-0.128525
1.492965,-0.09670788,-0.06146408
1.28501,-0.1012072,-0.1078179
1.01226,-0.1630727,-0.1522212
0.8579234,-0.09487495,-0.1162841
0.8786491,-0.1287967,-0.1188642
0.8622286,-0.1986699,-0.1499646
0.7807179,-0.1172867,-0.1901989
0.7771205,-0.106568,-0.2743931
0.7703708,-0.1095404,-0.267795
0.7976013,-0.1074362,-0.1864412
0.8288953,-0.1593791,-0.1560846
0.7868414,-0.1256529,-0.1449504
0.7746841,-0.1036545,-0.1452071
0.7314959,-0.1025872,-0.1247586
0.7240392,-0.0882704,-0.07127137
0.7513269,-0.1118686,-0.06308544
0.6884683,-0.07670951,-0.08038176
0.6810617,-0.05617663,-0.1120771
0.7242038,-0.104738,-0.1353154
0.7953945,-0.1601259,-0.08542564
0.8768978,-0.2184089,-0.05491902
0.8571369,-0.219862,-0.1291035
0.844319,-0.2068218,-0.2239876
0.874487,-0.227722,-0.2464305
0.968066,-0.2502565,-0.2470552
1.201612,-0.2854707,-0.2397039
1.428304,-0.3172548,-0.122895
1.541797,-0.3692553,-0.00596947
1.666085,-0.4698663,-0.02412544
1.807201,-0.5419801,-0.0399934
1.734889,-0.5150398,0.008277478
1.499785,-0.4310488,0.006935723
1.288157,-0.3362574,-0.03156623
1.074187,-0.2493349,-0.03578745
0.9546891,-0.2732073,-0.01188223
0.8698411,-0.3564502,0.03851775
0.6908437,-0.3628452,0.04757855
0.5833629,-0.3333651,0.006288181
0.5423727,-0.2431335,-0.003497455
0.5425008,-0.1212492,-0.01905898
0.6200187,-0.05894745,-0.03326376
0.6774688,-0.02327476,-0.03373782
0.700961,-0.04910532,-0.04913209
0.6481611,-0.09692783,-0.05454033
0.5994727,-0.1300651,-0.09003032
0.6824836,-0.1760914,-0.1374941
0.7946622,-0.1812354,-0.1487961
0.875568,-0.2252619,-0.1207918
0.8654977,-0.2752937,-0.07436366
0.8186447,-0.258417,-0.09557653
0.8719175,-0.3224314,-0.1584552
1.028797,-0.4404754,-0.2627715
1.36345,-0.5133888,-0.4443366
1.616371,-0.531123,-0.4963327
1.517349,-0.5197182,-0.2606068
1.461212,-0.4852419,0.001748654
1.517205,-0.263106,-0.0218263
1.418086,-0.00784757,-0.08467015
1.347211,-0.02708972,-0.004526551
1.308444,-0.01403412,-0.04021567
1.21787,0.1259057,-0.07877196
1.164337,-0.03330048,-0.08547258
0.9726806,-0.2541662,-0.1897772
0.7934872,-0.2316705,-0.1384405
0.856329,-0.2561386,-0.05144516
0.8826516,-0.2735794,-0.07986337
0.8720032,-0.2051397,-0.06460265
0.892758,-0.1623812,-0.08587516
0.7897969,-0.05528822,-0.08203359
0.6534027,0.008641979,-0.04371856
0.5861179,0.01256197,-0.06972806
0.5827126,0.03750275,-0.06231109
0.577704,0.02433207,-0.07120573
0.5853615,0.01029904,-0.07873683
0.661486,-0.0495853,-0.04222378
0.6506292,-0.09103527,-0.04614755
0.6234367,-0.06701123,-0.07417725
0.6928203,-0.1173876,-0.1443312
0.757882,-0.2035911,-0.2229552
0.9734863,-0.2847092,-0.2558098
1.373306,-0.303266,-0.2486324
1.671367,-0.2477317,-0.2167321
1.713958,-0.2522791,-0.2208847
1.663274,-0.3294264,-0.1621289
1.718463,-0.5046371,-0.06352017
1.708974,-0.6952686,-0.0863055
1.578277,-0.6847502,-0.09692983
1.419103,-0.4775575,-0.0612735
1.196465,-0.2457339,-0.08697495
1.08951,-0.1161636,-0.1116422
0.9783232,-0.004814297,-0.1141989
0.7564214,0.07308746,-0.1014204
0.7502524,-0.06164045,-0.05314625
0.7682279,-0.2322492,-0.006832278
0.6966349,-0.2856622,0.001538745
0.7133295,-0.3117571,-0.03066146
0.6313775,-0.254586,-0.05438038
0.5888014,-0.1660637,-0.01825149
0.6729744,-0.1186529,0.03814582
0.6641213,-0.07495191,0.03511919
0.6664353,-0.08362422,-0.06612273
0.6988841,-0.08420007,-0.1690879
0.7628624,-0.1065869,-0.1277623
0.8918603,-0.2209664,-0.05671725
0.935423,-0.2744996,-0.04083622
0.9099578,-0.2633181,0.03787662
0.8538672,-0.2704172,0.00407474
0.8454928,-0.3322058,-0.2522047
1.11371,-0.4883557,-0.5079704
1.628881,-0.6316452,-0.6432485
1.906737,-0.6938797,-0.556734
1.656335,-0.6875505,-0.2680415
1.439263,-0.4844597,-0.01207789
1.522654,-0.07497661,-0.01769324
1.457701,0.1619436,-0.1373885
1.274259,0.08713195,-0.02299902
1.121834,-0.01701716,0.00374988
0.9990636,-0.1585812,-0.1626756
0.9977736,-0.3244412,-0.1792656
0.9052846,-0.3237226,-0.2189964
0.6968002,-0.2844237,-0.2405604
0.5770734,-0.2738167,-0.2303104
0.5821761,-0.2404572,-0.2446301
0.7146774,-0.2272812,-0.1017856
0.8014779,-0.192374,-0.06963722
0.8391186,-0.1088867,-0.118433
0.8965278,-0.01268265,-0.1069306
0.8519302,0.02768632,-0.1199066
0.7938125,0.02986242,-0.02422323
0.7450906,0.06825194,0.02664959
0.7052451,0.04304127,0.002447874
0.7016569,-0.03019112,-0.006188248
0.6775926,-0.04798521,-0.03394392
0.7768131,-0.1200061,-0.03025747
0.9098036,-0.2194278,-0.05396154
0.9133191,-0.2465,-0.05034294
0.8763221,-0.3062671,-0.07776762
0.7856245,-0.3619718,-0.1823956
0.7816788,-0.3249946,-0.2772137
1.090342,-0.2932514,-0.3635567
1.476405,-0.2816391,-0.2383668
1.510252,-0.3071057,-0.07675848
1.455042,-0.4193556,-0.1214125
1.654898,-0.516319,-0.09544423
1.693431,-0.5576433,-0.03593435
1.564008,-0.5346272,-0.07782976
1.4915,-0.4231244,-0.07661236
1.3114,-0.2845324,-0.02287528
1.118917,-0.1283889,-0.001643175
0.903722,-0.02093158,-0.02410014
0.6905415,-0.0139316,-0.04486142
0.6180915,-0.03152986,-0.03133276
0.6088473,-0.08716885,-0.0198111
0.6758045,-0.1862521,-0.04353595
0.6995947,-0.2718714,-0.05017161
0.6698198,-0.2802055,-0.0376484
0.6103745,-0.1975849,-0.0364217
0.4628124,-0.1080798,-0.01787051
0.4285475,-0.01400311,-0.02547324
0.3976954,0.06695157,-0.115641
0.3915712,0.04333476,-0.2324329
0.6967904,-0.096185,-0.2499811
1.042183,-0.2875728,-0.2204411
1.138172,-0.4506329,-0.2875262
1.136663,-0.5840566,-0.3595054
1.285329,-0.6553411,-0.3964405
1.580297,-0.637484,-0.4194248
1.818509,-0.6174099,-0.3549034
1.75553,-0.5287344,-0.2653471
1.552411,-0.2755965,-0.2204128
1.56414,-0.004245251,-0.1862586
1.384503,0.09155813,-0.1391096
1.048178,-0.007612524,-0.1466263
0.9732627,-0.1192669,-0.186654
0.8661541,-0.1839152,-0.1729822
0.8904757,-0.2998309,-0.2096459
0.9525408,-0.3252872,-0.2253031
0.7634676,-0.2035404,-0.1891194
0.7105368,-0.09717702,-0.2401586
0.685578,-0.02212779,-0.2444122
0.7051215,-0.02978093,-0.2140438
0.7934037,-0.09388962,-0.1881041
0.7255871,-0.1165162,-0.1088366
0.7474085,-0.1479797,-0.07983065
0.7455592,-0.1317685,-0.03597131
0.7151308,-0.09715588,-0.01087879
0.7700554,-0.1067746,-0.1096671
0.7285582,-0.09250645,-0.1772493
0.7236503,-0.1137116,-0.1258711
0.705656,-0.1682497,-0.06808818
0.6832427,-0.2377259,-0.1202811
0.7570286,-0.3003631,-0.1999353
0.8117877,-0.2798814,-0.2716465
0.9245333,-0.2738953,-0.3047599
1.084059,-0.2689437,-0.1780433
1.344456,-0.2471187,-0.06465611
1.574237,-0.3270716,-0.02780971
1.519,-0.4312081,0.0215732
1.541897,-0.5578882,3.865479e-05
1.653545,-0.7538961,-0.03214356
1.567075,-0.8054024,-0.03102669
1.432832,-0.6738798,-0.01712853
1.236591,-0.5638097,0.0113289
1.056841,-0.4172441,-0.02104277
1.009902,-0.1982848,-0.05408493
0.8859131,-0.09089395,-0.03732674
0.7501208,-0.05612516,-0.02917293
0.6615187,-0.06562476,-0.008510799
0.5178419,-0.1149186,0.02015771
0.4877892,-0.09129326,-0.000608932
0.5378292,-0.05558912,-0.03904523
0.5106351,-0.01216081,-0.03510361
0.5294704,-0.01582781,-0.03010281
0.5861028,-0.1021804,-0.06234207
0.6398753,-0.1567065,-0.1555326
0.7843848,-0.2629888,-0.2844865
0.9254328,-0.3175104,-0.283204
0.9796762,-0.2643261,-0.1823094
1.005416,-0.2708459,-0.1435154
1.016068,-0.2678556,-0.1327943
1.091336,-0.3536907,-0.1364959
1.305713,-0.5116963,-0.1520767
1.527842,-0.4960045,-0.1728649
1.601847,-0.4350484,-0.2446349
1.566157,-0.3884882,-0.2580477
1.573379,-0.2037238,-0.1857341
1.601541,0.03138096,-0.1189072
1.454818,0.07644714,-0.04830136
1.216063,-0.01767992,-0.05154004
1.144614,-0.03069484,-0.1135548
1.161929,-0.08823742,-0.1482027
1.093199,-0.2332496,-0.2274842
0.9621227,-0.2697332,-0.2477986
0.8126085,-0.2494191,-0.175408
0.6737459,-0.2171967,-0.1744977
0.5737395,-0.1647043,-0.1683121
0.5191574,-0.1670237,-0.1603344
0.5336264,-0.1962141,-0.1953889
0.6090899,-0.211497,-0.1519965
0.6462915,-0.1901226,-0.1077342
0.5887175,-0.1513424,-0.1144707
0.5388376,-0.1346882,-0.1752834
0.6103992,-0.09664065,-0.2669865
0.7596394,-0.04936948,-0.2103028
0.8572071,-0.003077965,-0.1479766
0.8610806,0.06661626,-0.195682
0.8383424,0.08882627,-0.1810007
0.921083,0.01954324,-0.165473
1.189081,-0.06142464,-0.1843359
1.566023,-0.0744022,-0.1902613
1.831869,-0.06738945,-0.2326812
1.833822,-0.1560426,-0.2266775
1.759344,-0.4238598,-0.1122998
1.744748,-0.7602391,0.003223009
1.685012,-0.8161691,0.0001554863
1.521905,-0.5030639,-0.07919598
1.267602,-0.1599627,-0.1004541
1.151467,-0.03414559,-0.09836536
1.159133,-0.06749664,-0.1079621
0.9880084,-0.1141094,-0.09423858
0.798486,-0.1632985,-0.08430241
0.7558646,-0.2278051,-0.0631332
0.6875912,-0.2198526,-0.05083913
0.5462835,-0.2040381,-0.05454982
0.5333005,-0.2278988,-0.03939106
0.6384508,-0.1728659,-0.04331029
0.617806,-0.09737955,-0.03704413
0.6239929,-0.0718835,-0.02845642
0.6758773,-0.08501114,-0.04635461
0.6572004,-0.151524,-0.04413315
0.7311337,-0.1861806,-0.06494868
0.7597489,-0.1848904,-0.1053079
0.8097024,-0.1911242,-0.1220411
0.9684028,-0.1890873,-0.0972357
0.9724951,-0.1898106,-0.03947857
0.9559867,-0.1759548,-0.05529747
0.9849718,-0.1854216,-0.1109075
1.079375,-0.2559432,-0.1809284
1.364221,-0.3746789,-0.3017956
1.526232,-0.4855595,-0.3038612
1.368068,-0.4943603,-0.1796511
1.169106,-0.4273604,-0.1040968
1.239803,-0.2897544,-0.1397379
1.521088,-0.07706083,-0.2661707
1.705492,0.04920288,-0.3151282
1.47996,-0.06749952,-0.1706356
1.010241,-0.2642763,-0.004525436
0.9004103,-0.2557449,-0.03606129
0.950088,-0.1901192,-0.1485184
0.8931689,-0.1638255,-0.1925003
0.9506572,-0.07853566,-0.2731647
0.916033,-0.09921111,-0.2763926
0.8822368,-0.1646858,-0.2026287
0.9141371,-0.1832658,-0.1927982
0.8249602,-0.2092572,-0.09092657
0.7980766,-0.1423728,-0.04509454
0.777614,-0.07576667,-0.1023566
0.7963177,-0.05073398,-0.05314456
0.839446,-0.01680602,-0.04213561
0.7224785,-0.01232308,-0.04960002
0.6362913,0.02172706,-0.05538064
0.6244755,0.0115883,-0.1061972
0.7197735,-0.08329564,-0.04729296
0.861391,-0.1915595,-0.006425
0.8601898,-0.2456127,-0.07195098
0.856216,-0.1568834,-0.1274705
0.8473369,-0.0709347,-0.1514484
0.8152194,-0.07903043,-0.1278398
0.8666873,-0.1345859,-0.1090652
1.081347,-0.2605667,-0.1142339
1.525903,-0.3271179,-0.1210782
1.904109,-0.3230418,-0.1421289
1.983144,-0.4407677,-0.1165033
1.872121,-0.63678,-0.03324065
1.524432,-0.7089098,0.0518479
1.082816,-0.6697385,0.09125813
1.051352,-0.6129899,0.04901652
1.226785,-0.4325912,-0.006924341
1.113742,-0.2009883,-0.03177424
1.012773,-0.1576949,-0.05239297
0.732036,-0.3779124,-0.1618575
1.107477,-0.4142484,-0.08841283
1.443695,-0.3299493,-0.09454704
1.617473,-0.3623467,-0.1191211
1.667549,-0.5829101,-0.1484184
1.655702,-0.8733532,-0.09110019
1.569876,-0.8800307,-0.05834366
1.310868,-0.5678551,-0.08798866
1.085307,-0.2823283,-0.116917
1.00765,-0.178075,-0.1504845
0.8679993,-0.1744093,-0.1210005
0.7551314,-0.2032178,-0.07565065
0.8097131,-0.3184036,-0.02528865
0.8648168,-0.492327,0.04153669
0.8353445,-0.5058233,0.01029008
0.8183701,-0.3783001,-0.06732616
0.7655647,-0.2371882,-0.08986095
0.6363828,-0.05788802,-0.09153027
0.5722744,0.01048574,-0.05221997
0.5356492,-0.04639762,0.03976847
0.4928818,-0.05605047,0.0655483
0.5191463,-0.07485642,0.03327981
0.5947622,-0.0903297,0.0194983
0.778403,-0.0889573,-0.03811782
1.011613,-0.2014696,-0.1193122
1.165595,-0.3570329,-0.1309121
1.241189,-0.4533124,-0.104006
1.266494,-0.5136089,-0.1250815
1.380388,-0.5418249,-0.183484
1.522636,-0.5270072,-0.2850751
1.493151,-0.4547093,-0.3842002
1.45526,-0.3273585,-0.2631701
1.534427,-0.1569957,-0.1066045
1.526991,-0.03716158,-0.1444183
1.345955,-0.06035775,-0.0640805
1.111677,-0.1452385,0.06458552
0.981084,-0.2203498,-0.03273928
0.9858826,-0.2430375,-0.1163387
0.9542122,-0.2122047,-0.125718
0.9007718,-0.2180785,-0.1601797
0.9031519,-0.2182351,-0.1627272
0.8627534,-0.1968189,-0.1901882
0.8639773,-0.2230894,-0.1650308
0.8950336,-0.227687,-0.06224344
0.8537157,-0.1605461,-0.05243248
0.8309971,-0.07529513,-0.05397176
0.8084114,-0.04784125,-0.04475566
0.8123346,-0.07498921,-0.08751452
0.8574937,-0.07020175,-0.08398419
0.8389116,-0.06165287,-0.04052403
0.7760099,-0.08374965,0.005785289
0.6695101,-0.09497378,-0.016579
0.6100079,-0.1357958,-0.1163948
0.6887149,-0.2122897,-0.1399331
0.7841619,-0.2596064,-0.05449358
0.8496744,-0.2630074,0.03441264
0.8489281,-0.2241298,-0.06074645
0.7923234,-0.1564967,-0.2357831
0.8130367,-0.1178428,-0.2470376
0.9115378,-0.1628667,-0.2354595
1.107884,-0.2393971,-0.2148158
1.383678,-0.2752855,-0.1257982
1.626717,-0.3388818,-0.07621911
1.834597,-0.4876698,-0.05164603
1.840718,-0.5980675,-0.04191641
1.557499,-0.5474617,0.02381381
1.272426,-0.4776255,0.07732406
1.179302,-0.4739472,-0.007183645
1.205771,-0.3770844,-0.04744227
1.147063,-0.2471899,-0.02501649
0.9665286,-0.1757494,-0.03431361
0.7600811,-0.149643,-0.04023889
0.5492935,-0.186254,-0.03773697
0.4513175,-0.1315746,-0.02163348
0.4494075,-0.09849068,-0.01500477
0.487063,-0.1630305,-0.009284647
0.577507,-0.1144765,-0.01490767
0.5754758,-0.120939,-0.05105739
0.5353987,-0.1573945,-0.09059089
0.5505871,-0.1274301,-0.1299649
0.6191582,-0.2020072,-0.1205832
0.7882402,-0.2638709,-0.1105091
0.8905869,-0.2995735,-0.1308718
0.9202203,-0.2982206,-0.1116044
1.004385,-0.2417881,-0.1102663
1.020531,-0.2633119,-0.1297907
1.082191,-0.2757789,-0.1621896
1.412622,-0.3682721,-0.2251039
1.686514,-0.5112392,-0.2261462
1.627123,-0.5287556,-0.2131297
1.607444,-0.5796487,-0.2414213
1.679867,-0.5055959,-0.2229337
1.538404,-0.07393338,-0.1606118
1.370577,0.3009251,-0.09455372
1.202192,0.1429032,-0.06110107
0.9673356,-0.2075998,-0.08733973
0.9402866,-0.316504,-0.1245861
0.9511914,-0.3861068,-0.1733944
0.829628,-0.2660815,-0.214503
0.7978685,-0.01262069,-0.2083443
0.8312879,-0.02996026,-0.2364548
0.8575119,0.05285162,-0.272905
0.8628852,0.09842331,-0.2334184
0.8598714,-0.118887,-0.1561548
0.9052801,-0.1440873,-0.05430965
0.8987343,-0.1708103,0.01097938
0.8496232,-0.1746271,0.004825652
0.7979288,-0.005862178,0.01316519
0.7134986,0.05069635,0.01480853
0.6868686,0.1067422,-0.02910468
0.7287426,0.02474691,-0.06585924
0.8084385,-0.1808474,-0.07793361
0.8897323,-0.2245006,-0.08288569
0.911574,-0.2405554,-0.08557538
0.8658591,-0.1845501,-0.07591678
0.7796972,-0.1466589,-0.06512206
0.7718785,-0.2091205,-0.08093893
0.8622868,-0.2566842,-0.1301647
1.065069,-0.3831675,-0.1805591
1.376179,-0.4509688,-0.1750451
1.5089,-0.430389,-0.1440577
1.465677,-0.3853157,-0.1180613
1.50909,-0.290387,-0.03608036
1.573295,-0.3230068,0.03043505
1.562563,-0.3541182,0.0166479
1.470415,-0.276379,0.01239967
1.296985,-0.2258604,-0.002035557
1.17936,-0.1655988,-0.03551475
1.054258,-0.1560322,-0.04327523
0.7593389,-0.1818597,-0.06203048
0.574491,-0.1765553,-0.03749997
0.6143638,-0.2348689,0.02597939
0.6245743,-0.2696549,0.03386037
0.6891477,-0.2505832,0.02491772
0.820845,-0.2385417,-0.003213093
0.8542808,-0.152209,-0.05216201
0.8476937,-0.06547514,-0.03648525
0.8141081,-0.03339414,-0.007079336
0.785619,-0.01060033,-0.01853701
0.7576565,-0.04534865,-0.03440603
0.7263361,-0.1067895,-0.08002874
0.7950417,-0.1967982,-0.1282373
0.8548889,-0.2871554,-0.1247588
0.8942055,-0.2948959,-0.09890311
0.9735612,-0.309661,-0.07202474
1.036241,-0.3372345,-0.0725456
1.142086,-0.3581403,-0.06862082
1.183404,-0.4361623,-0.0520295
1.046776,-0.5342173,-0.1873314
1.013514,-0.6043345,-0.4703723
1.390554,-0.6173359,-0.6273414
1.774863,-0.6007448,-0.465007
1.570165,-0.4896069,-0.0842618
1.29175,-0.1342879,0.1420054
1.361747,0.2912126,-0.08124118
1.329776,0.4676112,-0.4089438
1.294113,0.3170273,-0.3407916
1.299644,-0.006286137,-0.222397
1.074774,-0.3676592,-0.2165506
0.8802486,-0.5643509,-0.03862035
0.7605354,-0.4054436,-0.07126295
0.6957829,-0.2101441,-0.2162203
0.7753218,-0.07111851,-0.1594719
0.7994208,0.08776446,-0.2233324
0.8157307,-0.0345721,-0.2161883
0.834699,-0.1426255,-0.1411251
0.7968862,-0.1300299,-0.1358901
0.8028082,-0.246345,-0.009536
0.7970939,-0.1888655,-0.0558406
0.8427095,-0.1024189,-0.1577824
0.8988749,-0.08274641,-0.09798238
0.8279341,-0.04015931,-0.04908232
0.7788973,-0.1417296,0.06393791
0.8210087,-0.1411311,0.06000176
0.9049353,-0.1560335,-0.01750785
0.9870251,-0.2497496,0.03562511
1.001415,-0.1782223,0.01291716
0.9226046,-0.1394229,-0.02289024
0.7734527,-0.04244971,-0.09544396
0.649845,0.04483794,-0.2491296
0.6673677,-0.08633441,-0.2538785
0.745077,-0.2373845,-0.2673085
0.7955363,-0.3680657,-0.3297389
1.058506,-0.3895015,-0.2646998
1.387909,-0.3436912,-0.2026643
1.454414,-0.3784329,-0.1575873
1.618346,-0.3913441,-0.1114572
1.831597,-0.4082948,-0.0546206
1.572737,-0.4330991,0.06577422
1.182483,-0.4485841,0.004821782
1.183374,-0.484958,-0.1394032
1.257613,-0.4354469,-0.09374048
1.120185,-0.3326457,-0.04308742
0.9694455,-0.2832436,0.0225561
0.7594284,-0.2321083,0.06682144
0.6114337,-0.1525544,-0.03426812
0.682133,-0.08846415,-0.05928174
0.7036183,-0.07092951,-0.03297964
0.7671596,-0.1281447,0.0001365353
0.8332641,-0.1807914,0.07475965
0.7307933,-0.150686,0.05388448
0.6947957,-0.09162458,0.0009773488
0.687193,-0.03852806,-0.03974113
0.6784554,-0.04471796,-0.06231658
0.6977081,-0.1268498,-0.06301947
0.6826223,-0.2136652,-0.1115309
0.7764877,-0.2853413,-0.12114
0.9266136,-0.3067585,-0.1380936
1.011674,-0.3139886,-0.1995148
1.020729,-0.3732884,-0.182548
1.050247,-0.4281614,-0.1949328
1.305042,-0.4833393,-0.299762
1.545811,-0.503306,-0.33789
1.446011,-0.4003302,-0.2351753
1.340659,-0.2331286,-0.130127
1.528281,-0.05207867,-0.1617118
1.600968,0.05159687,-0.182794
1.390913,-0.03989952,-0.1004581
1.205577,-0.177612,-0.05474558
1.087507,-0.1818583,-0.05515063
1.07118,-0.1241267,-0.1149479
1.089289,-0.07877819,-0.2324849
1.001771,-0.06185202,-0.2478477
0.9101498,-0.1052463,-0.1972001
0.7777725,-0.1576088,-0.149094
0.6564312,-0.205367,-0.06906692
0.6133383,-0.2241961,-0.04270006
0.5817434,-0.1620838,-0.06438998
0.565763,-0.1090988,-0.06367972
0.4767825,-0.07507985,-0.06912823
0.4356656,-0.04839432,-0.08321274
0.5284374,-0.05623658,-0.07845216
0.5969383,-0.03773265,-0.07127211
0.6590226,-0.04956879,-0.08594342
0.7523652,-0.122483,-0.1110549
0.8581117,-0.1790045,-0.1514573
0.8559475,-0.1846332,-0.1709051
0.816101,-0.1526266,-0.1577152
0.9741999,-0.1446192,-0.1962747
1.154197,-0.1272361,-0.2370019
1.426901,-0.1600894,-0.2308474
1.919211,-0.3714569,-0.2754607
2.076054,-0.5809146,-0.3439754
1.846195,-0.6621251,-0.3090019
1.659692,-0.7701165,-0.1788034
1.402736,-0.8244049,-0.0788584
1.173597,-0.566156,-0.07703202
1.128704,-0.2032165,-0.08966057
0.9727007,-0.03068207,-0.03712196
0.8456136,0.01665263,-0.02658106
0.7491035,-0.03415091,-0.07252471
0.5325878,-0.08475006,-0.05404577
0.5443569,-0.1081066,-0.03844697
0.5609771,-0.1714075,-0.03859946
0.4790672,-0.1377935,-0.03956583
0.5471183,-0.1052682,-0.09474961
0.5072446,-0.1207228,-0.1031533
0.4912344,-0.126496,-0.1032787
0.5389732,-0.2237093,-0.1526387
0.5342291,-0.2817448,-0.1821004
0.6781372,-0.3117351,-0.20905
0.8035256,-0.3873814,-0.2056382
0.9303476,-0.4174322,-0.2295834
1.167115,-0.4574643,-0.3080493
1.435204,-0.4709173,-0.3269586
1.672873,-0.4565328,-0.3038628
1.689557,-0.4470952,-0.2565103
1.741111,-0.3292572,-0.2089133
1.829517,-0.09102971,-0.187869
1.532763,0.09724454,-0.09383056
1.13566,0.01926408,0.07302843
0.966728,-0.1050694,0.1425961
1.002158,-0.05134338,0.02133258
1.067207,-0.07152079,-0.1536385
0.9666396,-0.1083778,-0.2403394
0.8939952,-0.07534567,-0.2516782
0.8670107,-0.1039645,-0.2238256
0.855029,-0.08422961,-0.2002329
0.9412909,-0.07494842,-0.1717814
0.8899816,-0.09188669,-0.09892584
0.8142277,-0.04050642,-0.06013166
0.7670646,-0.0315331,-0.1025028
0.5924522,-0.006065419,-0.1282169
0.5778949,0.01500834,-0.08039535
0.6783596,-0.0375094,-0.03979818
0.7434588,-0.05216553,-0.05015544
0.7905415,-0.05157475,-0.05047214
0.715744,-0.03996765,-0.04729118
0.6724339,-0.02942645,-0.06941442
0.7044602,-0.0473974,-0.07916299
0.8289808,-0.0611246,-0.07820676
1.004747,-0.1226711,-0.1315999
0.9581239,-0.2231138,-0.3231034
0.9422341,-0.3549743,-0.514413
1.212016,-0.5483716,-0.4738204
1.527815,-0.7527753,-0.4367688
1.714955,-0.7846013,-0.5067548
1.835412,-0.6076125,-0.2979814
1.978398,-0.5428519,-0.05834732
1.782161,-0.5238038,-0.1730892
1.226595,-0.3486151,-0.2114348
0.9786154,-0.2486689,-0.07043446
0.932529,-0.2228483,-0.05048572
0.8175492,-0.2121451,-0.05598838
0.8208164,-0.231157,-0.05260912
0.7566119,-0.1901373,-0.08019719
0.6902136,-0.1770189,-0.09523215
0.7191404,-0.1914259,-0.1282131
0.6909654,-0.2283939,-0.1215434
0.7540159,-0.3125119,-0.06280278
0.8163017,-0.322339,-0.005827854
0.8264137,-0.2640946,0.02272762
0.8493881,-0.167521,-0.009004441
0.8019579,-0.0721248,-0.02176029
0.7785256,-0.03234824,-0.01788513
0.7264715,-0.01228761,-0.04256452
0.6615296,-0.001459944,-0.01785669
0.5831471,0.01618527,-0.008545764
0.4108868,0.02417403,-0.08915343
0.4207849,-0.003048187,-0.1485665
0.6672918,-0.08917462,-0.1050474
1.020825,-0.2545321,-0.05746534
1.295427,-0.4115962,-0.1046197
1.283601,-0.5129208,-0.126177
1.230682,-0.5790751,-0.1456737
1.29329,-0.5894579,-0.3531287
1.459474,-0.5035105,-0.5524413
1.658544,-0.4077538,-0.4484185
1.608237,-0.4072596,-0.213938
1.503984,-0.310748,-0.1122544
1.524408,-0.08257343,-0.07234615
1.342287,-0.001531789,-0.04533886
1.147282,-0.01421944,-0.04888026
1.230036,0.05399236,-0.05601443
1.269317,0.1361331,-0.1628056
1.177478,0.1156504,-0.2754778
1.094769,-0.1487717,-0.2568082
0.9439848,-0.4713566,-0.205808
0.7891181,-0.4424811,-0.1688063
0.6674632,-0.2564987,-0.1497277
0.5360462,-0.1997444,-0.1322022
0.5411568,-0.07898273,-0.1569894
0.5989485,0.0437791,-0.24098
0.616406,0.01484153,-0.2649314
0.7509748,-0.05046911,-0.2027565
0.8343451,-0.1390698,-0.08483842
0.7739464,-0.1661385,-0.02399122
0.7267638,-0.1023465,-0.05327738
0.6807963,-0.09792617,-0.04806123
0.7635463,-0.1300351,-0.02359533
0.9093626,-0.1617506,-0.01880115
0.8821369,-0.1625296,-0.06939495
0.8561755,-0.1129932,-0.1804162
0.9122565,-0.1077106,-0.2637635
0.9878729,-0.1738414,-0.2970844
1.13775,-0.258982,-0.2691621
1.381104,-0.3218493,-0.1760673
1.786133,-0.5038329,-0.08142288
2.017677,-0.7098312,-0.07556358
1.668639,-0.5715419,-0.0913258
1.24208,-0.3744981,-0.01760647
1.079624,-0.3641554,0.03523626
0.9406593,-0.2586998,0.06087134
0.8924417,-0.1508589,0.07159056
0.8205404,-0.1056603,0.01425334
0.7026825,-0.1105882,0.02741539
0.7219037,-0.251043,0.03442108
0.6845032,-0.2599863,-0.01484351
0.7090684,-0.2079795,0.02237966
0.7651155,-0.2252696,0.01373483
0.6404684,-0.1141676,-0.03187924
0.5791369,-0.05374528,-0.03643061
0.5488367,-0.04836841,-0.06906128
0.5646038,-0.01631821,-0.08255532
0.630713,-0.101957,-0.1321542
0.5817558,-0.1998389,-0.1861102
0.6343286,-0.2818555,-0.1565868
0.7805357,-0.296145,-0.1086804
0.9765173,-0.2453841,-0.05189229
1.179988,-0.2922185,-0.07784674
1.271427,-0.3592859,-0.207897
1.533818,-0.4469764,-0.3255617
1.708927,-0.5170797,-0.3296821
1.453907,-0.5347554,-0.1465542
1.21378,-0.5787413,0.03473376
1.227994,-0.480513,0.02756044
1.534146,-0.2212985,-0.1035555
1.853163,0.09565728,-0.2029151
1.56271,0.2707927,-0.1488843
1.074897,0.1335625,-0.02802679
0.9582695,0.02074592,0.03376537
0.8352995,-0.0608466,-0.03946071
0.7349304,-0.21973,-0.210985
0.7577418,-0.2109093,-0.2847557
0.6820111,-0.2328485,-0.2781064
0.7243494,-0.3027973,-0.2498975
0.766988,-0.259057,-0.1568528
0.7113114,-0.2615246,-0.06915033
0.7652355,-0.1728405,9.251651e-05
0.7351746,0.007037003,0.009878984
0.645709,0.1162887,-0.06748612
0.5605538,0.165028,-0.1213774
0.5180987,0.04412297,-0.1323523
0.6750678,-0.1494205,-0.09510831
0.8123608,-0.2508037,-0.06306804
0.9037291,-0.2500216,-0.1150433
0.9756375,-0.2176388,-0.1650176
0.9449992,-0.2775031,-0.1797825
0.9975821,-0.3159927,-0.1613275
1.151485,-0.2900291,-0.1009061
1.408345,-0.2687101,-0.05974196
1.755018,-0.2584886,-0.0512314
1.890609,-0.4101651,-0.007586751
1.722642,-0.6154754,0.09249182
1.519923,-0.6260205,0.08753233
1.380657,-0.5567757,-0.04507267
1.187724,-0.4461379,-0.09547125
1.042,-0.2055395,-0.03031545
0.9516949,-0.08885442,0.03364444
0.8261043,-0.1779745,-0.009104795
0.7499829,-0.1660976,-0.05654888
0.6907321,-0.125721,-0.004042255
0.6522672,-0.1570054,-0.01037545
0.6342595,-0.1102733,-0.02708233
0.6069769,-0.1004932,0.00228934
0.6246055,-0.1220095,-0.01346814
0.6173484,-0.1198418,-0.009306686
0.6147569,-0.1730005,-0.04190769
0.6418662,-0.1716436,-0.1181198
0.6827215,-0.1690664,-0.1457843
0.8030427,-0.2469239,-0.1489301
0.8709328,-0.2920478,-0.1167001
0.8478334,-0.2914256,-0.10697
0.9052326,-0.2958725,-0.1322226
1.139423,-0.3692549,-0.1396646
1.480168,-0.4732504,-0.1501948
1.640327,-0.5230489,-0.1712232
1.463474,-0.4815271,-0.1754955
1.327872,-0.3163255,-0.02481937
1.5629,-0.1438283,0.155734
1.714629,-0.03275398,0.06737843
1.531405,0.1060494,-0.105136
1.421336,0.2276549,-0.1562585
1.314576,0.03213749,-0.1367035
1.030628,-0.3956571,-0.08275992
0.8879536,-0.4725278,-0.1156238
0.9429636,-0.3576282,-0.1607127
0.9017841,-0.341513,-0.1329069
0.7806757,-0.1464377,-0.1952613
0.7406196,-0.03542622,-0.2360824
0.6822268,-0.134479,-0.1764195
0.6337405,-0.157606,-0.1453018
0.6548753,-0.1825372,-0.1063103
0.6794716,-0.1897097,-0.09443432
0.7250115,-0.1243899,-0.08556272
0.6586506,-0.02928992,-0.04820909
0.5530629,0.03010296,-0.1100074
0.6088422,-0.03466345,-0.1738142
0.7245136,-0.1385632,-0.1491775
0.886162,-0.2306509,-0.1293684
0.9722005,-0.243945,-0.1423752
0.8644186,-0.1890606,-0.1826922
0.7740654,-0.1992606,-0.2091563
0.7812901,-0.1957959,-0.1333983
0.9807265,-0.1295735,-0.03674286
1.430473,-0.04884826,-0.09123133
1.782111,-0.03219716,-0.1594552
1.866027,-0.2564093,-0.1271884
1.835735,-0.6616012,-0.07735331
1.68115,-0.9089806,0.0738566
1.383548,-0.8258854,0.1860116
1.164877,-0.5866877,0.06599652
1.181208,-0.3198262,-0.05160574
1.173907,-0.06173788,-0.05912538
0.9787992,-0.01980703,-0.05629093
0.8414529,-0.1159071,-0.04519588
0.7255532,-0.1472913,-0.03606012
0.5434167,-0.2144618,-0.039682
0.5033985,-0.2382133,-0.03666645
0.5611369,-0.1814953,-0.02056976
0.6008078,-0.1679561,-0.01080211
0.626684,-0.1483586,-0.03279095
0.6180784,-0.1771404,-0.07671697
0.6179054,-0.2340907,-0.09787066
0.6724541,-0.2319592,-0.08205537
0.7997868,-0.2414248,-0.06875542
0.93824,-0.2421098,-0.06793477
0.9874897,-0.2320647,-0.06833687
0.9123484,-0.2358687,-0.1130371
0.8000237,-0.2343521,-0.2674802
0.8869768,-0.2621247,-0.4043789
1.339867,-0.3409792,-0.2772894
1.810404,-0.4261307,-0.08398946
1.680806,-0.4082233,-0.1231891
1.366378,-0.3528536,-0.1619269
1.445878,-0.3748098,-0.1330787
1.427286,-0.3602184,-0.1857036
1.367999,-0.3016306,-0.1679102
1.393058,-0.2583315,-0.1223442
1.14325,-0.2179979,-0.129359
0.9806527,-0.1995682,-0.1043779
0.9274551,-0.1296942,-0.1241466
0.8993462,-0.06420666,-0.1756404
0.9830527,-0.08600066,-0.2403029
0.8520253,-0.1087263,-0.2764521
0.7300179,-0.1925847,-0.2027109
0.6706525,-0.3082478,-0.1679166
0.616289,-0.3371268,-0.1603745
0.7276716,-0.3397907,-0.1084943
0.7343985,-0.2857033,-0.08304476
0.7869775,-0.1532953,-0.07041343
0.8190776,-0.06016591,-0.1052323
0.8197654,-0.2411406,-0.08109813
0.7741291,-0.1794065,-0.1636921
0.8037432,-0.1738602,-0.2031355
0.7641442,-0.2204761,-0.1968771
0.8940267,-0.2878402,-0.1698775
1.179096,-0.3653281,-0.1547504
1.442692,-0.3051558,-0.1626189
1.703113,-0.262176,-0.2340039
1.868586,-0.4572357,-0.3140677
1.787838,-0.6849974,-0.1794343
1.489579,-0.7469521,-0.01559432
1.215588,-0.6625909,-0.0782623
1.112798,-0.5213394,-0.1101485
1.15062,-0.4074168,-0.06615824
1.121224,-0.3596474,-0.08575437
0.8714209,-0.2088805,-0.03891144
0.6647546,0.0707049,0.01978358
0.6303574,0.03969677,-0.01693507
0.5787373,-0.08920934,-0.03864838
0.4933771,0.03275325,-0.04336711
0.5019491,-0.07863348,-0.0624653
0.5480256,-0.2519254,-0.04706499
0.598566,-0.2434769,-0.04109329
0.7939121,-0.3502188,-0.09651385
0.9243367,-0.3346439,-0.1425887
0.9437981,-0.2701983,-0.1133867
1.034277,-0.2861978,-0.06788912
1.018434,-0.2448731,-0.06948884
1.067552,-0.3310589,-0.1138377
1.303319,-0.4019492,-0.1997642
1.482479,-0.4245226,-0.2753756
1.485025,-0.4602791,-0.2697785
1.228956,-0.3429121,-0.1925176
1.092772,-0.1990397,-0.1364352
1.323102,-0.07518374,-0.2227681
1.514365,-0.02368491,-0.2992432
1.411856,-0.05862714,-0.1321843
1.15707,-0.08865528,0.04107163
0.9604789,-0.1568585,0.004325246
0.8644339,-0.1198742,-0.07139464
0.915553,-0.05603664,-0.149404
0.935582,-0.09265121,-0.2375673
0.8197768,-0.08044781,-0.2157085
0.8018899,-0.1109323,-0.1634075
0.7656233,-0.1979545,-0.138592
0.76734,-0.2118224,-0.02007841
0.8206214,-0.1411034,0.06514171
0.6963187,0.00500256,-0.03808504
0.6332483,0.1110448,-0.1310506
0.6326652,0.08827175,-0.1029734
0.6743259,-0.04637746,-0.1045344
0.8352845,-0.1932387,-0.1714051
0.8997795,-0.2131177,-0.2085731
0.8635472,-0.1662652,-0.2174998
0.7233746,-0.1968935,-0.2377579
0.6332589,-0.3033686,-0.2201828
0.8079193,-0.4169968,-0.09962452
1.150706,-0.4504986,0.07904727
1.480599,-0.3711406,0.08759815
1.664736,-0.2390726,-0.2113729
1.852358,-0.1971605,-0.4271855
1.790911,-0.5733561,-0.1097105
1.405165,-1.102472,0.2602286
1.332571,-0.9687205,0.1171859
1.239654,-0.4742367,-0.04139087
0.9399371,-0.1891643,-0.04079133
1.005318,-0.02394161,-0.1601274
1.030693,-0.1321714,-0.0957687
0.8278574,-0.2023194,0.04374787
0.7963245,-0.1147447,0.05823158
0.8054454,-0.2419432,0.09068637
0.7645603,-0.202906,-0.00144986
0.6941754,-0.1419473,-0.05205917
0.6110377,-0.2553881,-0.02714557
0.6100275,-0.1918198,-0.05754893
0.6495738,-0.1982427,-0.0005360281
0.7183849,-0.2006185,-0.04426617
0.7831603,-0.1531339,-0.1420735
0.7896646,-0.1999549,-0.1835371
0.7810897,-0.1018506,-0.2248157
0.7983444,-0.07999598,-0.1041944
0.8812497,-0.2199212,0.001106235
0.9795563,-0.3560308,0.01420249
1.007425,-0.4400266,-0.03524326
1.082596,-0.4251112,-0.2181454
1.347505,-0.4657296,-0.3383402
1.566585,-0.4315958,-0.3620951
1.549147,-0.3224325,-0.2196997
1.627607,-0.2671004,-0.04299899
1.775492,-0.1163404,-0.1156858
1.535904,-0.006418589,-0.1188953
1.123924,0.01816839,0.005495819
0.929582,0.02663769,0.02015334
0.9010889,-0.01626371,-0.005500155
0.9907841,-0.06206714,-0.08753571
1.037729,-0.08957794,-0.2093334
0.9350023,-0.06065025,-0.2520168
0.8484743,-0.09652138,-0.1908188
0.8003515,-0.1789033,-0.08755423
0.7869851,-0.1764655,-0.01651368
0.797619,-0.1472277,0.01708322
0.7622045,-0.04551709,0.0001819119
0.7348813,0.01736247,-0.03314033
0.7173901,0.005218195,-0.04927373
0.717083,0.01945681,-0.05638741
0.7290948,-0.01600322,-0.03046146
0.7031802,-0.02637148,-0.02003333
0.7043265,-0.02320245,-0.02775962
0.7316191,-0.0505258,-0.05390599
0.7588747,-0.08103014,-0.1522538
0.7772309,-0.1833632,-0.2448802
0.7873977,-0.3016832,-0.3146138
0.930197,-0.4203155,-0.3379167
1.233511,-0.4800942,-0.2309338
1.485848,-0.4489839,-0.1396532
1.54156,-0.4589712,-0.1598387
1.611266,-0.4686585,-0.1260407
1.786843,-0.4815518,-0.01339455
1.751418,-0.5187355,-0.0093974
1.586945,-0.4597854,-0.05413441
1.378583,-0.25791,-0.02702909
0.9771626,-0.01087955,-0.05265683
0.889664,0.02609894,-0.0738265
1.025133,-0.09294962,-0.03913809
0.7957605,-0.1415288,-0.04932745
0.7199667,-0.2461541,-0.0457192
0.8456178,-0.3411428,-0.04287698
0.7678455,-0.3341624,-0.05814622
0.8018436,-0.3488395,-0.05998144
0.8287116,-0.2404083,-0.08121876
0.7569512,-0.09086437,-0.07865528
0.7375102,-0.04616581,-0.07723809
0.6281645,-0.003297351,-0.0874782
0.612395,-0.06684407,-0.06357236
0.7149758,-0.1605438,-0.04130456
0.8591402,-0.2411704,-0.03697291
1.076035,-0.3482168,-0.1041693
1.089994,-0.3056517,-0.1624166
0.9753108,-0.2469375,-0.0301637
0.9637206,-0.2160917,0.1143353
0.9897285,-0.1848265,0.08030174
1.004475,-0.2504639,0.04804847
0.9624673,-0.2915009,0.02224958
0.9851668,-0.3596445,-0.1908206
1.298358,-0.4361145,-0.4428078
1.722779,-0.4997004,-0.5139481
1.798433,-0.5759025,-0.377073
1.56717,-0.3441513,-0.136506
1.341076,-0.0001321559,-0.03413407
1.090821,0.08049089,-0.09031055
1.038659,0.04909468,-0.1767146
1.203697,-0.07503587,-0.2541042
1.124076,-0.2820684,-0.2708787
0.9401486,-0.3854199,-0.2438964
0.7527374,-0.3348077,-0.1855876
0.5964742,-0.2497661,-0.15409
0.7426912,-0.1870616,-0.1609557
0.7920629,-0.1010077,-0.1204042
0.7253115,-0.06592324,-0.1144886
0.8083704,-0.04221802,-0.1207956
0.7653437,-0.009802063,-0.08474298
0.7337017,-0.05308257,-0.04461404
0.71757,-0.05751641,0.0161256
0.6180043,-0.05290335,0.02710167
0.6380017,-0.07604806,0.0216608
0.6476972,-0.06254472,-0.01480051
0.6844736,-0.08662834,-0.1106035
0.7757432,-0.1062626,-0.1161009
0.7825112,-0.1491184,-0.1600839
0.8091165,-0.278687,-0.2849303
0.840571,-0.3881265,-0.3244875
0.9302353,-0.4209828,-0.3519612
1.182559,-0.3402122,-0.3207261
1.512235,-0.221491,-0.2039345
1.804324,-0.1833567,-0.1854226
1.856408,-0.2330126,-0.1921237
1.734165,-0.3850773,-0.09475791
1.666499,-0.55196,-0.01439264
1.486545,-0.6302143,-0.05743714
1.254522,-0.6405731,-0.1159937
1.175933,-0.4967844,-0.08043359
0.9626334,-0.1543928,-0.07707052
0.7554126,0.02381445,-0.1124973
0.781335,-0.1036322,-0.0795858
0.714421,-0.1747893,-0.07615729
0.699022,-0.2030301,-0.07539263
0.7805885,-0.2797137,-0.05153882
0.7283,-0.2460107,-0.07168744
0.7464634,-0.2344189,-0.05199961
0.7627882,-0.2167468,-0.0321245
0.6786753,-0.0704149,-0.03758095
0.557959,0.02329046,-0.03284197
0.3473768,0.03017587,-0.05498636
0.3048394,-0.02566423,-0.05088036
0.4780758,-0.1223445,-0.08226421
0.7274162,-0.1821749,-0.1896637
1.115672,-0.2819211,-0.2506576
1.348955,-0.447917,-0.2734125
1.308417,-0.5783604,-0.386521
1.375904,-0.5926319,-0.5474375
1.509531,-0.5373515,-0.503855
1.489134,-0.4857218,-0.3469798
1.420434,-0.3858971,-0.2664493
1.341192,-0.2871236,-0.175768
1.349792,-0.1939739,-0.1876387
1.39792,-0.0354697,-0.1939874
1.208268,0.004197081,-0.08100641
1.037491,-0.05792367,-0.1342613
1.000767,-0.0318558,-0.2083488
0.8623849,-0.06576652,-0.2245537
0.8285984,-0.1367887,-0.2914769
0.8867107,-0.09610578,-0.2241922
0.8363272,-0.09710315,-0.1830322
0.8125995,-0.1270193,-0.2325795
0.8216756,-0.1341056,-0.1958324
0.7634927,-0.195757,-0.1437748
0.6685159,-0.1901518,-0.08721536
0.5802777,-0.09872227,-0.1028283
0.5644389,-0.01843584,-0.1499977
0.7152132,0.01495807,-0.08956159
0.8780402,-0.01680752,-0.08296978
0.8409031,-0.01441205,-0.1374991
0.741367,0.002413929,-0.1440816
0.7090558,-0.03331474,-0.09591892
0.7183431,-0.0905665,-0.04245022
0.780865,-0.2182814,-0.1542273
0.8933643,-0.3408283,-0.3371891
1.085947,-0.3521653,-0.3480879
1.358522,-0.2823677,-0.1887021
1.545943,-0.1683783,-0.0452609
1.56591,-0.1417833,-0.1035893
1.604526,-0.2919975,-0.1547722
1.710285,-0.58695,-0.02643288
1.647303,-0.8173308,0.01602102
1.35925,-0.6948926,-0.02835875
1.06666,-0.4782,-0.03945999
0.9656323,-0.3751856,-0.09353993
0.9602429,-0.1290928,-0.1345653
0.8748906,-0.02897758,-0.135213
0.8008101,-0.2162084,-0.1080025
0.7224806,-0.2804243,-0.04780509
0.6261868,-0.2951708,-0.006597617
0.6369107,-0.2370096,0.000224627
0.5865347,-0.04343224,-0.04211
0.5309568,-0.02566522,-0.07997273
0.6036661,-0.09272718,-0.08237808
0.645937,-0.1596945,-0.09675319
0.7253364,-0.2594038,-0.1379786
0.7832673,-0.2644818,-0.1868196
0.7912606,-0.2628842,-0.1188101
0.8646483,-0.2782511,0.000126583
0.8794697,-0.286642,-0.03102626
1.029268,-0.3434035,-0.1901535
1.45102,-0.4345229,-0.4243877
1.743474,-0.5136812,-0.5136764
1.664936,-0.4707115,-0.2782295
1.535923,-0.3367727,-0.03907502
1.599155,-0.1623493,-0.03037255
1.562689,0.03981833,-0.1120092
1.410074,0.1206019,-0.1518484
1.242239,0.08045018,-0.1372613
1.027749,0.02735041,-0.1269393
0.9167501,-0.0369111,-0.1183603
0.7242846,-0.1415318,-0.09742817
0.6527653,-0.1712073,-0.1353698
0.9150182,-0.08091549,-0.2044064
0.9752756,-0.07176422,-0.2171159
0.9313472,-0.08719585,-0.1836656
0.8416257,-0.07300685,-0.09925202
0.6050395,-0.1186932,0.02210006
0.6584074,-0.08135317,0.06348608
0.7793781,-0.02302199,0.02152532
0.7782334,-0.005799164,-0.02791861
0.7795976,0.01843429,-0.0967921
0.6795976,-0.04270297,-0.1033818
0.6981302,-0.06970409,-0.01637972
0.8326823,-0.0389849,0.02993905
0.9617042,-0.0302399,0.02604292
1.039103,0.001193873,-0.04591013
0.9367037,-0.001096666,-0.1640133
0.872304,-0.07088683,-0.2286384
0.888708,-0.2387641,-0.3744384
1.016403,-0.4479473,-0.5131465
1.372652,-0.6226293,-0.4176925
1.697418,-0.7848228,-0.3104509
1.929641,-0.7718002,-0.2564979
1.987192,-0.5173258,-0.1549267
1.784832,-0.2522611,-0.2120732
1.537876,-0.1979852,-0.2947997
1.177016,-0.2333267,-0.1198165
0.8496415,-0.1203882,0.07275661
0.8058589,-0.05210971,0.101534
0.7144811,-0.07654965,-0.005387022
0.544376,-0.02170644,-0.173662
0.5718863,-0.1030605,-0.1865637
0.6555394,-0.3083789,-0.1294781
0.6539068,-0.4214118,-0.1404624
0.6814158,-0.4742225,-0.1333982
0.7341426,-0.4084015,-0.1311137
0.771059,-0.2648663,-0.09446026
0.8508702,-0.1476594,-0.03742165
0.8545514,-0.0148595,-0.03044875
0.7868972,0.05451477,0.01526374
0.7870889,0.03702255,0.06568632
0.7676365,-0.03941877,0.04864245
0.7564424,-0.1656582,0.02885843
0.775504,-0.1962645,0.04338654
0.8260437,-0.1902789,0.02914568
1.018058,-0.2985557,-0.009903609
1.160882,-0.3776837,-0.008734997
1.07909,-0.3418752,-0.02129519
0.9148021,-0.3257875,-0.04254297
0.8493052,-0.3552699,-0.07619521
0.9537382,-0.353072,-0.2770544
1.225949,-0.3693297,-0.6208705
1.518726,-0.452033,-0.7435341
1.624211,-0.5657754,-0.4396028
1.736387,-0.6296625,-0.1540382
1.874268,-0.4504341,-0.184532
1.615325,-0.07768629,-0.2204256
1.153574,0.1358417,-0.1742926
0.9088507,0.07041524,-0.1448372
0.7844758,-0.06373439,-0.09953079
0.7182155,-0.1661382,-0.09291387
0.7120299,-0.3537171,-0.129406
0.6986481,-0.4145288,-0.1442163
0.7598361,-0.2034087,-0.1697258
0.8510437,-0.06197213,-0.197191
0.8624228,-0.02627522,-0.1444924
0.8256547,-0.00568707,-0.05847699
0.7516244,0.00740482,-0.03039338
0.7146763,0.0676255,-0.03867509
0.7093596,0.03700983,-0.02948495
0.6967721,0.01195288,-0.008999064
0.7289639,0.01181213,-0.06728036
0.728895,-0.1129666,-0.1979976
0.7111824,-0.2120364,-0.2573351
0.709881,-0.2810061,-0.1857771
0.6917165,-0.3207364,-0.122037
0.7159828,-0.3038105,-0.2118599
0.7915776,-0.3226231,-0.2782361
1.013134,-0.3036805,-0.1935397
1.377938,-0.2221853,-0.1319461
1.662815,-0.1068775,-0.1161158
1.832953,-0.09015344,-0.1095169
1.896182,-0.3292588,-0.09595522
1.73407,-0.6185331,-0.02091862
1.467125,-0.6935786,-0.001160711
1.31239,-0.5872203,-0.06960642
1.13709,-0.4648851,-0.1117128
0.9600533,-0.2795402,-0.1066046
0.8884576,-0.1015212,-0.09316264
0.7087815,-0.1769331,-0.08705664
0.5902767,-0.2615201,-0.04936809
0.6004026,-0.2509025,-0.0180546
0.5188576,-0.3178037,-0.02134526
0.5400688,-0.2517317,-0.003046023
0.582301,-0.1028151,0.005587306
0.5799832,-0.05727061,0.003302074
0.6672206,-0.05617859,-0.02040946
0.6358799,-0.1048794,-0.1139421
0.6071376,-0.1224537,-0.1889928
0.7218705,-0.1878504,-0.1703355
0.8656387,-0.3178346,-0.1124309
1.042401,-0.3232928,-0.09322386
1.105946,-0.326353,-0.0849563
1.105583,-0.338833,-0.09060719
1.216453,-0.3147568,-0.185918
1.356193,-0.3295621,-0.3279482
1.440945,-0.3179055,-0.4182086
1.382854,-0.3536986,-0.2976322
1.269639,-0.4275563,-0.04382163
1.308306,-0.4372017,0.0438469
1.529176,-0.3974436,-0.01055805
1.746445,-0.2164102,-0.1212295
1.547081,0.05683768,-0.186441
1.107047,0.1512137,-0.1097674
0.9168363,-0.02309687,-0.04142952
0.7888775,-0.187855,-0.002112133
0.752163,-0.1873128,-0.0147096
0.8534178,-0.1689686,-0.1101198
0.8078733,-0.1202642,-0.1589158
0.8132701,-0.07250296,-0.147856
0.7971803,-0.08796904,-0.08787096
0.6580753,-0.07489386,-0.02968479
0.6630761,-0.04814529,-0.01311569
0.6847483,-0.007042521,-0.03710901
0.7103717,0.01106142,-0.1464421
0.7304172,-0.06634832,-0.2067428
0.624859,-0.1377569,-0.1179603
0.5367784,-0.1266397,-0.03152621
0.503386,-0.1047747,-0.1090099
0.52741,-0.1717375,-0.2271629
0.5712761,-0.3317429,-0.1908844
0.8081605,-0.4732477,-0.06815875
1.433904,-0.3488123,0.02497004
1.93874,0.02198065,-0.1132088
1.932026,0.1652934,-0.2918512
1.701782,-0.1593309,-0.03746871
1.556382,-0.7331572,0.2546511
1.436687,-0.9969405,0.2220375
1.247292,-0.7172345,0.0667149
1.131016,-0.4393072,-0.1221675
1.123016,-0.3162673,-0.1295517
1.095165,-0.1727038,-0.05957108
0.9640047,-0.2008926,-0.09579293
0.7958265,-0.2460293,-0.0140169
0.6333954,-0.1298956,0.04680003
0.4828297,-0.0635849,-0.01422738
0.4472058,-0.009843602,-0.02413207
0.4206755,0.0296879,-0.04942147
0.3858297,-0.0539475,-0.07634179
0.4269398,-0.1068969,-0.05331165
0.5238703,-0.1774575,-0.06147161
0.7503969,-0.2720069,-0.1466854
0.8997298,-0.2530441,-0.2747893
0.9141157,-0.2670789,-0.3230771
0.9970931,-0.2796475,-0.2969513
1.197259,-0.3198333,-0.3570406
1.61623,-0.5258434,-0.5910048
1.908419,-0.6656125,-0.7424049
1.848361,-0.5848414,-0.4377826
1.782972,-0.253072,-0.09298651
1.600746,0.1533349,-0.1762961
1.237396,0.2729505,-0.1663512
1.052342,0.1240398,0.02770112
0.9997014,-0.08779644,-0.005017836
0.9194259,-0.3064193,-0.05010275
0.9597013,-0.4173887,-0.1011429
1.032868,-0.3335245,-0.2218108
0.9651741,-0.246334,-0.2459403
0.9039927,-0.09282436,-0.276292
0.8266217,0.09283572,-0.1865979
0.7064702,-0.004050382,-0.05975963
0.6575287,-0.03479373,-0.08167836
0.5744218,0.03229266,-0.03669665
0.5316987,-0.04062084,-0.02858442
0.610599,-0.003413991,-0.08187663
0.6870549,-0.02850372,-0.1315781
0.7681289,-0.09788395,-0.2054211
0.7032661,-0.06049469,-0.1204734
0.5100595,-0.09316116,-0.02823864
0.4847812,-0.09746496,-0.042957
0.5064363,-0.1312381,-0.04517018
0.5427146,-0.2106143,-0.07490223
0.8891438,-0.2622766,-0.1440755
1.478515,-0.3552584,-0.2280433
1.815792,-0.3425182,-0.2166312
1.70668,-0.3100231,-0.1767591
1.704727,-0.3901236,-0.2238436
1.838353,-0.4740587,-0.1976382
1.679445,-0.6639677,-0.1332056
1.5346,-0.8910887,-0.1096674
1.406452,-0.8083492,-0.09959388
1.249459,-0.5152785,-0.1250715
1.206987,-0.2758691,-0.1055588
0.9907143,-0.0610774,-0.0885721
0.8951491,-0.01936141,-0.1119859
0.8603027,-0.1283719,-0.07946558
0.6210369,-0.1653301,-0.03859729
0.6223493,-0.241206,-0.002442036
0.6047001,-0.2439004,0.003043574
0.5747644,-0.1483399,-0.03052926
0.706855,-0.149532,-0.0209955
0.6381783,-0.1377511,-0.05171508
0.647768,-0.1458049,-0.09042237
0.684146,-0.1715902,-0.0735444
0.6307391,-0.202993,-0.1196231
0.7161907,-0.2830655,-0.1613228
0.7654521,-0.2081911,-0.1048056
0.8691604,-0.1315023,-0.02273148
0.9504374,-0.1996292,-0.01017313
0.9303425,-0.2482072,-0.112167
1.119951,-0.3552095,-0.2686292
1.463263,-0.4842439,-0.3547474
1.658973,-0.4541422,-0.2697699
1.397243,-0.2952822,-0.06036971
1.055939,-0.168974,0.1439351
1.202856,-0.1852473,0.1680271
1.517949,-0.2050677,-0.03685021
1.728025,-0.08131615,-0.2408166
1.686856,9.295666e-05,-0.3082521
1.378704,-0.1254175,-0.106473
1.126076,-0.2611289,0.218593
0.886232,-0.2597442,0.1575958
0.8374922,-0.2158944,-0.1042948
0.972243,-0.1754728,-0.2374773
0.8686357,-0.1373565,-0.2700271
0.8402888,-0.1451697,-0.1738829
0.8417715,-0.1788035,-0.1591466
0.6711602,-0.1756885,-0.1403215
0.653348,-0.1681226,-0.0514683
0.6165097,-0.1417946,-0.1307808
0.620351,-0.05717896,-0.1447654
0.7401499,0.01414685,-0.1126209
0.76562,0.0421625,-0.1308299
0.799995,-0.01821754,-0.06922746
0.7028658,-0.148,-0.1038711
0.5978548,-0.2165531,-0.1121547
0.6475908,-0.2132043,-0.00204772
0.7034466,-0.1645104,0.03993878
0.8130966,-0.1437719,-0.03933761
0.819167,-0.2283091,-0.2606408
0.8993445,-0.34915,-0.3848091
1.322456,-0.3793144,-0.3238765
1.772588,-0.2488712,-0.2785003
1.967282,-0.159923,-0.2303981
1.916983,-0.3680442,-0.1330097
1.919837,-0.744984,-0.02976119
1.813271,-0.9457364,0.0346733
1.38083,-0.8206988,0.009118849
1.080624,-0.561044,-0.07011488
0.8453985,-0.2719285,-0.1774441
1.101903,-0.4539843,-0.1990519
1.564817,-0.6225055,-0.2473205
1.83543,-0.621243,-0.2916336
1.682001,-0.4710664,-0.2148729
1.599877,-0.3167759,-0.07982911
1.712796,-0.1100203,-0.06588773
1.612507,0.1138679,-0.1199688
1.379423,0.04259617,-0.1236635
1.137296,-0.1402271,-0.06284477
0.982616,-0.174011,-0.01805397
1.081908,-0.2113547,-0.1186569
1.027405,-0.1706426,-0.2442567
0.7912708,-0.04924221,-0.22749
0.7056315,-0.01961063,-0.1999244
0.6185698,-0.007058262,-0.2018379
0.6239766,-0.02641538,-0.155693
0.6865992,-0.08602914,-0.1410918
0.6442464,-0.129399,-0.1385837
0.6498291,-0.1780676,-0.09401037
0.5895937,-0.1612795,-0.06050255
0.5308596,-0.1324288,-0.0268997
0.5932107,-0.1024307,-0.04740701
0.7123365,-0.04941303,-0.1240563
0.9419532,-0.09749417,-0.1343989
1.014966,-0.1194994,-0.1216658
0.8981742,-0.0779627,-0.1256117
0.8718035,-0.06706586,-0.1436307
0.8644137,-0.05848367,-0.2023986
0.8864374,-0.1586417,-0.2515113
1.071344,-0.259142,-0.2944629
1.394841,-0.1793211,-0.3126936
1.669888,-0.1401447,-0.3049695
1.781937,-0.3521685,-0.3088666
1.865181,-0.6598635,-0.2622323
1.754042,-0.8006899,-0.2188628
1.338336,-0.7596203,-0.1920502
1.049901,-0.6279336,-0.117022
0.9596872,-0.3987786,-0.08104423
0.8696374,-0.1178587,-0.09361647
0.7903982,0.03195955,-0.1077031
0.6724191,0.01463959,-0.1105441
0.5980385,-0.02331014,-0.09158876
0.5509247,-0.07907785,-0.05208316
0.4646433,-0.1184292,0.006380337
0.4880043,-0.09139953,-0.004887992
0.5198904,-0.08797266,-0.04813972
0.5241886,-0.083171,-0.04304001
0.59261,-0.06420538,-0.06549474
0.6316093,-0.07026584,-0.0803637
0.6900257,-0.1159593,-0.07436133
0.8863617,-0.2474938,-0.07803533
1.128544,-0.38582,-0.08052635
1.163468,-0.4617548,-0.2110832
1.15029,-0.5567645,-0.4541955
1.385739,-0.672148,-0.595488
1.568251,-0.7061465,-0.5585278
1.56441,-0.6848543,-0.4049238
1.492892,-0.649636,-0.2095838
1.419997,-0.5107726,-0.1068202
1.566165,-0.219139,-0.1865258
1.622855,0.07461448,-0.2072662
1.206862,0.0369815,-0.04793614
0.7807991,-0.1259396,0.03428871
0.815415,-0.02661046,-0.0188222
0.9516255,-0.07177001,-0.1310076
0.8398394,-0.1972453,-0.2484795
0.8419248,-0.08787134,-0.2727116
0.8930512,-0.1131296,-0.2426979
0.7646824,-0.1267827,-0.230871
0.7595703,-0.07766829,-0.2278914
0.7176564,-0.1702727,-0.1838405
0.6069224,-0.1580272,-0.1138228
0.6384705,-0.1309221,-0.06581419
0.623394,-0.07484102,-0.04233176
0.6097598,0.05851613,-0.07870293
0.6110438,0.05741377,-0.1541662
0.6152152,-0.02369303,-0.2165496
0.7413365,-0.1918869,-0.1930648
0.8756401,-0.3113995,-0.123165
0.9024437,-0.2988401,-0.1762693
0.795064,-0.3051221,-0.2851294
0.7737811,-0.2946103,-0.3598549
0.9897645,-0.2929166,-0.3362276
1.297074,-0.233547,-0.246675
1.601183,-0.1356085,-0.3043047
1.834126,-0.2126558,-0.3175256
1.979323,-0.4904974,-0.204559
1.896786,-0.8282235,-0.1689587
1.571099,-0.8599191,-0.1261204
1.211762,-0.6041378,-0.1142718
0.920128,-0.3440913,-0.1319808
0.8462893,-0.0599824,-0.1189006
0.7948426,-0.04490572,-0.139658
0.6014362,-0.2527932,-0.08783093
0.4999741,-0.2637612,-0.01611448
0.4729235,-0.2847732,0.01496592
0.4944127,-0.2161153,0.009378857
0.4954454,0.002406522,-0.09341647
0.441452,-0.0517047,-0.1348207
0.4493487,-0.1367757,-0.08775102
0.468857,-0.1477622,-0.06286496
0.6381262,-0.2298471,-0.1269478
0.8976963,-0.2141209,-0.2275957
0.9594619,-0.2326718,-0.2015504
0.9210412,-0.2916661,-0.2000641
0.9737789,-0.3685346,-0.2845014
1.140087,-0.4799373,-0.3196492
1.358758,-0.4105116,-0.3081977
1.596377,-0.3187351,-0.2356833
1.604301,-0.2579216,-0.178809
1.50495,-0.08578937,-0.108184
1.700375,0.09099364,-0.0009433498
1.70505,0.1412091,-0.01417035
1.46955,-0.0479398,-0.04498174
1.384009,-0.2002251,-0.006968368
1.213313,-0.09682353,-0.01638218
1.042947,0.06585359,-0.103147
0.7854209,0.2639143,-0.2218281
0.5224196,0.3196023,-0.2885937
0.6541894,0.1255337,-0.2915559
0.7602135,-0.06694392,-0.2929719
0.7725484,-0.2217546,-0.24955
0.7587803,-0.2613726,-0.144826
0.5579158,-0.1382521,-0.09187152
0.5294429,-0.04449136,-0.0531945
0.624525,0.02351314,0.000776559
0.7241327,0.07571541,-0.02679515
0.893307,0.07387864,-0.04649523
0.9355304,0.07645892,-0.03050426
0.9361683,0.05290295,0.002701619
0.9652578,0.02737978,0.09085879
0.9468026,0.03115064,0.06471605
0.8535421,-0.02440915,-0.1054984
0.7162801,-0.1319301,-0.2747611
0.7049043,-0.217502,-0.3469149
0.8839562,-0.3397658,-0.3398665
1.290964,-0.5648608,-0.4103429
1.673191,-0.6644269,-0.4294068
1.725891,-0.5717463,-0.3493381
1.85225,-0.5974929,-0.3366894
2.068193,-0.6609697,-0.276252
1.889935,-0.6406844,-0.2858125
1.649793,-0.6710258,-0.372205
1.442509,-0.5342927,-0.2450912
1.029532,-0.2312237,-0.1101169
0.8568362,-0.0670369,-0.07818251
0.7782654,-0.02100795,-0.08230526
0.5706204,-0.03704002,-0.1470607
0.5486309,-0.08250673,-0.1279352
0.5130441,-0.1637931,-0.1296141
0.5536134,-0.3144734,-0.1761734
0.6884291,-0.3459763,-0.1563206
0.678756,-0.2565191,-0.1595206
0.7325709,-0.1996039,-0.1103001
0.7002587,-0.1014438,-0.060771
0.6168812,0.03801584,-0.06960164
0.6407279,0.1259689,-0.04737117
0.6800293,0.1412381,-0.06675532
0.8601798,0.04001823,-0.09751385
0.9386459,-0.1338469,-0.1412211
0.8887481,-0.2588772,-0.1792336
0.9199286,-0.2931563,-0.1455161
0.9352727,-0.2868695,-0.1536069
1.052711,-0.3167932,-0.1410874
1.158289,-0.3703516,-0.08585899
1.066855,-0.43914,-0.1086207
0.9502832,-0.5246016,-0.2613319
1.006231,-0.5425883,-0.6242302
1.369351,-0.5422345,-0.8957034
1.702054,-0.5646619,-0.7355651
1.539056,-0.4745646,-0.4573015
1.309653,-0.2987967,-0.3115324
1.457982,-0.1403755,-0.2231387
1.431143,0.02605204,-0.2624471
1.205736,0.1574406,-0.3047211
1.149432,0.1403373,-0.2552445
0.9272666,-0.03990833,-0.2698897
0.7749477,-0.2608737,-0.226269
0.7879166,-0.3454376,-0.1798839
0.6668041,-0.2513478,-0.2200447
0.7355964,-0.1279095,-0.1818342
0.7869275,-0.03829145,-0.1945472
0.6853307,0.03565131,-0.2142709
0.6523767,0.024212,-0.1821224
0.536341,-0.01512083,-0.2003458
0.5441221,-0.06318862,-0.1324415
0.6757084,-0.1575141,-0.06779213
0.738105,-0.1551893,-0.08494211
0.7822197,-0.09587006,-0.1323383
0.7306442,-0.08204946,-0.1983146
0.7027364,-0.1041501,-0.1793419
0.7254529,-0.1932816,-0.1869642
0.7791982,-0.294974,-0.2590044
0.9917953,-0.398592,-0.2849627
1.250407,-0.4081128,-0.2677271
1.513776,-0.2485668,-0.2312593
1.725482,-0.1652035,-0.2552971
1.787453,-0.2886204,-0.2622092
1.793161,-0.5409009,-0.1743948
1.656794,-0.7533656,-0.07454121
1.349718,-0.8279889,-0.00852166
1.146446,-0.8104789,-0.04662612
1.11903,-0.5761926,-0.1168387
1.042269,-0.2654561,-0.1347598
0.8754302,-0.2145747,-0.1422365
0.7248738,-0.1980061,-0.1085257
0.5572778,-0.1506313,-0.07626654
0.5136683,-0.2787471,-0.0523596
0.5921903,-0.261643,-0.01415867
0.5696567,-0.1593098,-0.006527079
0.6049504,-0.2181106,0.01050535
0.661526,-0.1314506,-0.01906445
0.6207991,-0.0506816,-0.07720601
0.6368869,-0.0535677,-0.07996247
0.6287536,-0.03677012,-0.1142656
0.6885286,-0.1830218,-0.138217
0.8885103,-0.2129868,-0.1261951
1.007367,-0.2215458,-0.1323459
0.9958534,-0.3268638,-0.1315073
0.8954013,-0.2557724,-0.1478641
0.913273,-0.3154216,-0.2165592
1.212835,-0.4803218,-0.3908964
1.597938,-0.5945958,-0.5313262
1.670516,-0.6630674,-0.4472607
1.424659,-0.4682541,-0.272361
1.380995,-0.248133,-0.1188288
1.522131,-0.105889,-0.06303574
1.536424,0.001903617,-0.1338406
1.377213,-0.02028962,-0.1648017
1.069575,-0.06078772,-0.1716389
0.9162375,-0.1578866,-0.155693
0.8831832,-0.1929597,-0.07552858
0.8240496,-0.09588404,-0.1233494
0.8508539,-0.03619298,-0.2089516
0.7786589,0.02163469,-0.1933852
0.6656591,0.006082774,-0.2046652
0.6278589,-0.05164823,-0.1822109
0.5956938,-0.07171747,-0.1330691
0.6488319,-0.1210899,-0.08609036
0.6728039,-0.09180895,0.01554463
0.6414055,-0.03748601,0.03628521
0.5608081,-0.04235989,-0.02554044
0.4377504,-0.07977371,-0.09776175
0.5346707,-0.2102063,-0.1277679
0.8599585,-0.3180609,-0.1309003
1.287086,-0.324251,-0.2674309
1.47243,-0.2496929,-0.3811338
1.052224,-0.1040037,-0.3308121
0.543199,-0.04112868,-0.2938785
0.4823682,-0.07116142,-0.3234416
0.8084413,-0.098993,-0.32208
1.40321,-0.1885783,-0.2939622
1.891218,-0.3976836,-0.335702
1.95291,-0.6449019,-0.380192
1.793397,-0.7358646,-0.3659215
1.563055,-0.5989801,-0.3138577
1.200027,-0.4196661,-0.228242
0.8969021,-0.3211387,-0.1403734
0.7786098,-0.1919431,-0.01816278
0.6515637,-0.09838001,-0.01334253
0.625152,-0.1720696,-0.1071888
0.6971403,-0.1861317,-0.1232252
0.6267881,-0.1127549,-0.2222859
0.6215876,-0.1044285,-0.2571265
0.6403453,-0.09010425,-0.1668596
0.5836418,-0.1235509,-0.1688362
0.6200051,-0.1683887,-0.1335068
0.5938973,-0.1326971,-0.1304761
0.559833,-0.1266956,-0.1882725
0.617525,-0.1566869,-0.1663093
0.7678012,-0.2662102,-0.1099007
1.063263,-0.4300735,-0.01199373
1.241383,-0.4375057,-0.003374266
1.299346,-0.3336767,-0.03416787
1.238782,-0.2633795,-0.008472111
0.952929,-0.2195753,-0.1993867
0.8525927,-0.2563857,-0.5288522
1.139036,-0.4239886,-0.6684053
1.568326,-0.6382571,-0.5590587
1.785311,-0.7257242,-0.4226003
1.649099,-0.4696014,-0.4263182
1.494049,-0.02377316,-0.4192247
1.405721,0.1404151,-0.4086724
1.282707,-0.05459714,-0.3862162
1.185078,-0.2765027,-0.2828904
0.9966277,-0.2954692,-0.2480615
0.8023721,-0.2605188,-0.2148593
0.7435557,-0.2316458,-0.2054159
0.673299,-0.1230869,-0.2665821
0.6330364,-0.1241233,-0.26216
0.6378112,-0.1493959,-0.2944746
0.6509892,-0.1294263,-0.2690311
0.7616374,-0.2101456,-0.1718141
0.8373903,-0.177842,-0.2089626
0.8830454,-0.1134946,-0.2015101
0.9247775,-0.1270274,-0.1167069
0.8089048,-0.04279112,-0.04425074
0.7025097,0.0190922,0.01928453
0.6445992,0.07942099,-0.03979669
0.5881234,0.1241761,-0.1228248
0.6543564,-0.005379321,-0.1351783
0.7284932,-0.1677331,-0.08854843
0.7901091,-0.273083,-0.02443471
0.7994276,-0.298688,-0.1364599
0.7101504,-0.2728589,-0.2863145
0.7212276,-0.3029385,-0.2718664
0.8436309,-0.3099729,-0.2692029
1.11768,-0.2147362,-0.2971328
1.457885,-0.0785016,-0.2886499
1.626488,-0.08773801,-0.3226519
1.791342,-0.4315389,-0.3381692
1.901785,-0.9512215,-0.2354766
1.669457,-1.170766,-0.1254938
1.295332,-0.9385626,-0.1539237
1.123805,-0.5713499,-0.1912034
1.104689,-0.1300264,-0.1504422
0.9905437,0.2275539,-0.1522486
0.813106,0.1225903,-0.1019588
0.7268012,-0.1114145,-0.01388713
0.7012723,-0.2277268,-0.06381443
0.693291,-0.2956527,-0.1045851
0.6931933,-0.1993943,-0.07714865
0.6727117,-0.1993745,-0.07037384
0.6601668,-0.2207319,-0.03952727
0.6573919,-0.1154393,-0.02097651
0.6055956,-0.12418,-0.02529819
0.547063,-0.0673918,-0.05126239
0.5376982,-0.06994391,-0.1434972
0.5877967,-0.1647892,-0.1839536
0.7800376,-0.1377353,-0.1329457
1.051157,-0.2710192,-0.1121007
1.128308,-0.4041011,-0.1642262
1.099285,-0.5400689,-0.3114943
1.379612,-0.8426921,-0.4701472
1.69754,-0.8459173,-0.4532639
1.557356,-0.6218875,-0.3744798
1.343327,-0.3968075,-0.3761771
1.337949,-0.1197266,-0.3057673
1.359351,0.001107646,-0.2249315
1.421793,0.04096296,-0.1829052
1.365837,-0.02130202,-0.07674884
1.20807,-0.305979,-0.08840691
1.179599,-0.3334638,-0.1145073
1.118584,-0.1883018,-0.05793974
1.028829,-0.2022706,-0.1803502
0.9447487,-0.0433424,-0.2879036
0.8145133,0.003988767,-0.244367
0.7720926,-0.1470164,-0.1819528
0.6956869,-0.1066039,-0.08957218
0.7030441,-0.1467556,-0.07261409
0.8507293,-0.1388229,-0.09017479
0.7855478,-0.03032337,-0.06481621
0.7110096,-0.05168004,-0.06456019
0.7071494,0.01684059,-0.08040755
0.6652786,0.03409844,-0.1095733
0.7696145,-0.02510663,-0.1115551
0.8342437,-0.05971462,-0.07369378
0.827438,-0.1347125,-0.03271642
0.8306363,-0.1052307,-0.03723087
0.7445335,-0.09065448,-0.1147227
0.7206732,-0.131172,-0.1884782
0.8063854,-0.1997772,-0.2102362
1.023268,-0.3592258,-0.1581734
1.278396,-0.3890918,-0.1240728
1.470427,-0.3361356,-0.1916678
1.805685,-0.3562527,-0.2322523
1.949133,-0.4166437,-0.2032381
1.672142,-0.6371868,-0.1436881
1.441972,-0.890262,-0.09228572
1.285303,-0.8034231,-0.09397107
1.090201,-0.4966646,-0.06205841
0.8792328,-0.2025668,0.009480962
0.674416,0.05485627,0.0005638302
0.7468898,-0.0272511,-0.03732885
0.7759892,-0.2445518,-0.02032177
0.5843355,-0.2592938,-0.02435205
0.6206634,-0.3897001,-0.0238116
0.5909505,-0.3734106,0.008532049
0.4689274,-0.1889927,-0.01628606
0.5357153,-0.1746757,-0.04235334
0.5513216,-0.04594073,-0.07993561
0.6455748,-0.06312777,-0.1769774
0.7114877,-0.2025321,-0.233816
0.6653263,-0.166735,-0.2381869
0.7911131,-0.2234171,-0.2117884
0.9131793,-0.1705313,-0.1826381
0.964078,-0.1088176,-0.1514044
0.9216252,-0.1894016,-0.1223777
0.8810295,-0.2458827,-0.2222025
1.096613,-0.4495442,-0.3704006
1.455514,-0.5887762,-0.4151859
1.854765,-0.7143164,-0.3941034
1.991862,-0.8093489,-0.243643
1.786662,-0.390463,-0.05043025
1.572827,0.1211879,-0.08867497
1.309454,0.2404825,-0.1366641
1.11657,0.1191477,-0.02942811
1.073142,-0.0393006,-0.1060667
0.9468234,-0.2339382,-0.1982891
0.8412001,-0.4568988,-0.1045425
0.7561642,-0.4160831,-0.12609
0.6598422,-0.2542262,-0.1859312
0.6805012,-0.1641651,-0.1921872
0.6199611,-0.07118886,-0.1816811
0.5142746,-0.1186828,-0.097007
0.553702,-0.1161412,-0.09453427
0.5152929,-0.05517896,-0.1240347
0.450839,-0.1108769,-0.137315
0.5637081,-0.08474991,-0.1906076
0.7103359,-0.08791375,-0.1407184
0.7734793,-0.1432256,-0.1029454
0.7318929,-0.1651709,-0.1985918
0.6992002,-0.2515583,-0.3345271
0.8512461,-0.2567125,-0.4300978
1.242338,-0.1729777,-0.3720851
1.685838,-0.1264825,-0.2154841
1.731137,-0.2365905,-0.107777
1.560585,-0.5172039,-0.09410475
1.63104,-0.738855,-0.05491741
1.63312,-0.85875,0.0535108
1.548545,-0.8368804,-0.04524529
1.518375,-0.6602762,-0.2053115
1.303768,-0.4797271,-0.1192465
1.135233,-0.3297371,-0.1034999
0.9793697,-0.2821051,-0.1663007
0.741732,-0.3248372,-0.08942463
0.6943034,-0.3862382,-0.05042865
0.5748101,-0.4205898,-0.01060932
0.4855858,-0.3469775,0.01748854
0.5742194,-0.2405624,-0.03236535
0.5380496,-0.1313825,-0.007306908
0.6046497,-0.04036507,-0.009981323
0.6775108,-0.008320763,-0.04965203
0.5773776,-0.0270422,-0.06525646
0.584468,-0.1327649,-0.1205796
0.6307766,-0.1868282,-0.1171645
0.7138171,-0.2026147,-0.130324
0.8416369,-0.3017771,-0.1741184
0.9165827,-0.3485184,-0.09348585
0.9943975,-0.3262575,-0.0133478
1.037853,-0.3112108,-0.05996891
1.188997,-0.3513626,-0.2548271
1.435369,-0.4613924,-0.443877
1.475857,-0.5935689,-0.3654217
1.408558,-0.6389679,-0.2237367
1.476901,-0.4507065,-0.1705271
1.687772,-0.2240204,-0.01733169
1.840948,-0.3066821,-0.2098359
1.887166,-0.4894573,-0.2423829
1.752977,-0.7127577,-0.05239275
1.613079,-0.748376,0.06200441
1.449655,-0.6474981,-0.03949854
1.267336,-0.573931,-0.1155989
1.073452,-0.4014648,-0.04384944
0.9239851,-0.1995635,-0.01271196
0.7721554,-0.1375106,-0.07816103
0.6091317,-0.08293123,-0.09192119
0.5522673,-0.06700657,-0.08672881
0.4287681,-0.09145855,-0.08253826
0.285263,-0.08007639,-0.04932986
0.3390022,-0.1224103,-0.06814432
0.4946265,-0.1682686,-0.08697124
0.6485848,-0.2334829,-0.1054709
0.6894747,-0.2764077,-0.1451593
0.6823803,-0.2431596,-0.1424092
0.7590097,-0.2995909,-0.2031188
0.8126252,-0.337291,-0.284518
0.9019989,-0.3608144,-0.2129628
1.10754,-0.507764,-0.05577513
1.232467,-0.5684156,0.003690283
1.32974,-0.4896325,-0.1656874
1.587174,-0.4247981,-0.384871
1.671484,-0.4266921,-0.3611705
1.560867,-0.4158138,-0.2832892
1.651973,-0.3137709,-0.3288115
1.670834,-0.08637976,-0.3006001
1.472614,0.1936837,-0.263716
1.221528,0.2075207,-0.2548643
0.8774671,0.07586551,-0.1254251
0.740979,0.07624369,-0.04841431
0.8020045,-0.04304142,-0.119313
0.776085,-0.1543522,-0.2405788
0.7768224,-0.07288531,-0.3012875
0.7581055,-0.07110853,-0.2425767
0.6881863,-0.08782463,-0.1934843
0.6440046,-0.07245996,-0.1452626
0.6159685,-0.1122907,-0.05858288
0.6734044,-0.1002482,0.03197482
0.7176124,-0.07550171,0.083605
0.6792604,-0.06704728,-0.04421718
0.6535553,-0.04873447,-0.1773403
0.653918,-0.06859402,-0.1019394
0.6864492,-0.1093105,-0.0188326
0.7193115,-0.1846191,-0.04433646
0.7105619,-0.2390183,-0.1234103
0.7538385,-0.1975686,-0.2053297
1.036066,-0.1571443,-0.1232307
1.51475,-0.1180636,0.009259143
1.835061,-0.07990755,-0.05018396
1.875286,-0.2421524,-0.03682871
1.831537,-0.5483967,0.05748703
1.790193,-0.7349805,-0.02892152
1.698126,-0.7800522,-0.0817869
1.457268,-0.6320277,-0.07424507
1.083098,-0.2783465,-0.0979723
0.7917499,-0.02455701,-0.08690958
0.6032798,-0.00192293,-0.1144317
0.4291363,-0.08085893,-0.1025331
0.4093407,-0.1511343,-0.05222901
0.5042143,-0.1655718,-0.03928445
0.5677621,-0.1558574,-0.01010161
0.6239373,-0.09136804,-0.05767077
0.5781348,-0.01030917,-0.1354936
0.4450815,-0.0198763,-0.1317248
0.4028483,-0.09049151,-0.122537
0.4944696,-0.1775639,-0.1329846
0.7515637,-0.2367583,-0.1744343
1.023578,-0.3136534,-0.2157117
1.058598,-0.4422314,-0.1862229
0.9891158,-0.4830884,-0.1645211
1.072139,-0.4036424,-0.2713184
1.375232,-0.3418162,-0.5061831
1.813031,-0.4388117,-0.630183
2.032423,-0.5316518,-0.3609536
1.915865,-0.362427,-0.04510078
1.823432,-0.02993733,-0.1540899
1.603325,0.2748438,-0.2682354
1.067456,0.3098496,-0.1584732
0.7354514,0.107576,-0.1239369
0.6102658,-0.01522109,-0.01910113
0.4890275,-0.1608882,0.023152
0.5737757,-0.2366645,-0.10229
0.6935984,-0.08100601,-0.1076339
0.7790767,-0.03761409,-0.1993463
0.849604,-0.07446843,-0.2413983
0.7491882,-0.04842904,-0.05050182
0.652694,-0.01513827,0.0429646
0.6071283,0.1036392,0.07971008
0.5826727,0.1703337,0.007669734
0.6549954,0.1117909,-0.1332026
0.6988688,-0.007920907,-0.1227692
0.7426168,-0.1831157,-0.08583202
0.7951516,-0.2966157,-0.05604447
0.7941447,-0.3382565,-0.2263408
0.8423395,-0.3771655,-0.5392016
0.965267,-0.4021547,-0.5635784
1.383317,-0.3676653,-0.3859944
1.966248,-0.2806488,-0.2609501
1.99862,-0.2470988,-0.2920392
1.753581,-0.3800449,-0.2543289
1.787402,-0.5847603,0.00699206
1.667766,-0.5860243,0.1080042
1.363601,-0.4778396,0.01907534
1.10513,-0.3656175,-0.02475924
0.8707076,-0.1372857,-0.02621552
0.8881023,-0.02344743,-0.0253816
0.7902927,0.02367388,-0.07103095
0.577916,0.09457525,-0.1038858
0.7097374,-0.02750128,-0.1023511
0.6704842,-0.08710555,-0.1048615
0.6031839,-0.100586,-0.1085454
0.7371039,-0.1891058,-0.1317058
0.6181642,-0.1001011,-0.1529377
0.5591439,-0.06961115,-0.1614139
0.5237322,-0.09669552,-0.1188508
0.4489213,-0.05341527,-0.08271296
0.6302673,-0.2250808,-0.1735798
0.8265718,-0.4698886,-0.334459
1.096098,-0.554003,-0.429073
1.307663,-0.4015674,-0.3343022
1.263394,-0.1929988,-0.2618901
1.265543,-0.2283752,-0.4739105
1.314072,-0.3420263,-0.6730023
1.431697,-0.5397752,-0.6157854
1.567096,-0.7173977,-0.417334
1.546181,-0.5668904,-0.1895231
1.520662,-0.4489129,-0.1013079
1.532553,-0.4686599,-0.1826938
1.44333,-0.1979047,-0.2274243
1.150339,0.09968235,-0.2233644
0.8142307,-0.09838748,-0.2234867
0.726043,-0.3224656,-0.18291
0.7809694,-0.1764698,-0.2342698
0.7610475,-0.1879607,-0.3154117
0.7462037,-0.2941853,-0.2527099
0.7504908,-0.2260552,-0.1974877
0.6711267,-0.261374,-0.1401529
0.6119808,-0.2263031,-0.04852428
0.5875819,-0.0516473,-0.03547159
0.5829784,0.04992676,-0.0323648
0.6563451,0.1241933,-0.04032799
0.707422,0.1090393,-0.04678214
0.8145156,0.04923961,-0.02384973
0.976435,-0.006443321,-0.02678999
1.003884,-0.02661429,-0.01723369
0.9516376,0.07098178,-0.04936033
0.9065808,0.08433725,-0.1169675
0.9131958,-0.01800897,-0.1950633
0.9190391,-0.2337998,-0.3940401
0.9207495,-0.5464225,-0.5293258
1.077749,-0.6777163,-0.4260726
1.344348,-0.6861186,-0.2770338
1.550986,-0.6793285,-0.1434192
1.600771,-0.6037121,0.02049892
1.576742,-0.4749877,0.06683049
1.518256,-0.3527708,0.01319034
1.377983,-0.374444,-0.00692105
1.27379,-0.3422481,-0.0396087
1.053418,-0.1500277,-0.04943713
0.6917165,-0.0901714,-0.0295503
0.4960956,-0.1211604,-0.04529483
0.3908208,-0.14364,-0.04021813
0.3711043,-0.1940915,-0.02818132
0.471981,-0.1686947,-0.03282738
0.5219203,-0.1127355,-0.06617029
0.5765672,-0.09811,-0.1440513
0.5978788,-0.1000005,-0.1905454
0.5856381,-0.1801812,-0.2003389
0.6730788,-0.2988836,-0.1893907
0.8220712,-0.3292699,-0.1586768
1.058796,-0.2630373,-0.1212583
1.223821,-0.1909952,-0.04963526
1.16201,-0.2120165,-0.03339805
1.183849,-0.3370138,-0.1589302
1.411263,-0.4758058,-0.3056932
1.535492,-0.4763955,-0.2991544
1.447436,-0.3650309,-0.08568296
1.381748,-0.2856272,0.07739196
1.408459,-0.1751219,-0.09167894
1.397977,-0.08920998,-0.2716773
1.354013,-0.09947717,-0.1869841
1.289403,-0.05688397,-0.2214112
1.16477,-0.06612555,-0.3345907
0.8973499,-0.1960212,-0.1632022
0.5267461,-0.2653677,-0.0357313
0.4318154,-0.2447449,-0.134537
0.5379994,-0.2034722,-0.2316967
0.4252849,-0.2082051,-0.356456
0.4668258,-0.2251127,-0.4021971
0.8534982,-0.2424472,-0.2385015
1.041343,-0.2922303,-0.1235245
0.8674895,-0.2486158,-0.1839645
0.653288,-0.1390393,-0.184337
0.7837901,-0.08231198,-0.01852969
0.9647536,-0.08870631,0.05963704
0.8603374,-0.1417626,-0.1445962
0.7711701,-0.1869007,-0.396343
0.6616774,-0.2755716,-0.3666293
0.8965241,-0.3120864,-0.2038606
1.543292,-0.218197,-0.198969
1.81968,-0.2451774,-0.3308951
1.898495,-0.4598983,-0.4577638
1.857949,-0.7651083,-0.3422622
1.610821,-0.8935258,-0.1353118
1.346275,-0.6659906,-0.151175
0.9041562,-0.4356796,-0.1298253
0.7644023,-0.3001282,-0.1067281
0.8302782,-0.204714,-0.1898355
0.6338374,-0.235993,-0.1212717
0.6441786,-0.2349487,-0.06709925
0.6969648,-0.2243712,-0.05130321
0.6088144,-0.1799485,0.001790266
0.5643835,-0.02269016,-0.04431259
0.3948637,0.005602287,-0.07556014
0.3066452,-0.08037288,-0.1135521
0.3904561,-0.1494624,-0.1218429
0.5240113,-0.1841788,-0.08436065
0.7752067,-0.1853277,-0.203597
0.9804751,-0.2476655,-0.2923432
0.9994371,-0.3443527,-0.2606876
0.9238525,-0.4798924,-0.27236
0.9585387,-0.582985,-0.3560217
1.328999,-0.5401536,-0.505176
1.857422,-0.5822341,-0.5480097
1.993274,-0.7202005,-0.3587004
1.809893,-0.6497216,-0.02774653
1.757242,-0.2304239,0.1498576
1.48118,0.3170935,-0.05212454
0.9373007,0.3920446,-0.2086223
0.7595053,0.02361226,-0.00647778
0.8146179,-0.1575341,0.112376
0.8362657,-0.1645054,-0.001532456
0.9047018,-0.1250958,-0.06959754
0.8912875,-0.02770977,-0.1649035
0.8129121,-0.04507168,-0.2732291
0.7604132,-0.02831854,-0.2229021
0.7371757,-0.03185409,-0.1786149
0.7478943,-0.1606728,-0.1263106
0.7333879,-0.1415296,-0.01392764
0.7497366,-0.09285811,-0.05460557
0.7869903,-0.07808325,-0.1304354
0.7745165,-0.02556154,-0.1122713
0.8176299,-0.04898667,-0.09113857
0.9063966,-0.04007289,-0.02360365
0.9592364,-0.01736005,0.01931105
0.9883669,0.007857002,-0.002553665
0.9401958,0.06718598,-0.02092994
0.8064259,-0.036606,-0.182474
0.7362866,-0.2470693,-0.4864639
0.8905108,-0.4390684,-0.6518314
1.272885,-0.6270298,-0.5340778
1.706527,-0.7739454,-0.3418169
1.935204,-0.7802586,-0.3039828
1.864636,-0.5429421,-0.3117439
1.719884,-0.3224987,-0.2963185
1.557296,-0.3748803,-0.2454183
1.244943,-0.4152875,-0.1309202
0.9794012,-0.301381,-0.05859592
0.7973697,-0.2427754,-0.01097583
0.6073417,-0.1913314,-0.03289905
0.5817569,-0.1155437,-0.08512507
0.5896591,-0.1569611,-0.05528497
0.5255956,-0.1991081,-0.0913857
0.5557853,-0.1971288,-0.09992787
0.6149838,-0.2103766,-0.06011505
0.6487709,-0.1700898,-0.08585546
0.6558583,-0.1487711,-0.05439352
0.6550434,-0.1432647,-0.05442384
0.7142436,-0.1096783,-0.07839522
0.7570976,-0.1222757,-0.05253864
0.8137658,-0.1261542,-0.0912971
0.9048815,-0.1122109,-0.1565042
0.8654277,-0.1108463,-0.2080925
0.7284218,-0.09151092,-0.1631499
0.6506698,-0.08609731,-0.07147733
0.7053321,-0.1641856,-0.08408229
0.9491572,-0.3924039,-0.004883393
1.190128,-0.625638,0.09319222
1.171404,-0.6408004,-0.1192801
1.185098,-0.5703875,-0.4982333
1.534799,-0.6135737,-0.7725344
1.769567,-0.6821354,-0.7794118
1.478004,-0.6843452,-0.3727686
1.185977,-0.490526,0.09363931
1.366615,0.01538106,0.08155182
1.506913,0.4136098,-0.08770611
1.396176,0.4257085,-0.05302316
1.325003,0.3994766,-0.1631831
1.080026,0.2902361,-0.2942525
0.8362732,-0.09818435,-0.2448135
0.8339552,-0.3693971,-0.2829617
0.733685,-0.3731201,-0.2748254
0.6930521,-0.3403497,-0.2271519
0.7341148,-0.2370777,-0.2694002
0.6472995,-0.08169556,-0.2235957
0.6513724,0.03131144,-0.1872859
0.7107235,0.09553615,-0.1627663
0.7929458,0.05865837,-0.09008004
0.8600941,-0.003326901,-0.04429174
0.7685523,-0.08216434,0.01366527
0.6979653,-0.1525615,-0.02315204
0.7000873,-0.1139818,-0.1020314
0.7346183,-0.1323943,-0.1151625
0.7924214,-0.2298166,-0.1334264
0.8159229,-0.3069288,-0.1440875
0.8732108,-0.3731478,-0.2154873
1.03127,-0.4256252,-0.2565893
1.274837,-0.5009977,-0.1787564
1.461215,-0.4626662,-0.1329714
1.661539,-0.3763799,-0.09622312
1.941629,-0.4689551,-0.0747174
1.875763,-0.5467482,-0.0787125
1.487777,-0.5535851,-0.04044881
1.146318,-0.5562833,-0.02223151
0.8696035,-0.4873605,-0.006290204
0.8303069,-0.4364586,0.02249208
0.908099,-0.3536457,0.01026569
0.8239389,-0.2253854,-0.06893929
0.7627808,-0.1536753,-0.1662008
0.6722346,-0.1009934,-0.1343198
0.5908017,-0.1396614,-0.01932078
0.629295,-0.1807532,0.08268753
0.5033356,-0.1070089,0.1242009
0.3242842,-0.04432153,-0.04437102
0.3049647,0.001112897,-0.2745037
0.4076103,-0.07096182,-0.3014645
0.645994,-0.2823338,-0.1987023
0.9750371,-0.4327542,-0.1107868
1.296546,-0.4881333,-0.09118651
1.363364,-0.4126938,-0.1152617
1.199283,-0.3152323,-0.1456445
1.151273,-0.3488425,-0.2016192
1.280433,-0.4415819,-0.2460025
1.403825,-0.6314401,-0.2214594
1.382841,-0.7628729,-0.1026198
1.41692,-0.6154154,0.02427966
1.611069,-0.3601876,-0.02671665
1.698629,-0.0459805,-0.1792415
1.523616,0.2076285,-0.2162021
1.070422,0.1022881,-0.1273038
0.6746311,-0.108294,0.004927635
0.6638134,-0.1796317,0.01249336
0.7822038,-0.2452358,-0.1580639
0.7905395,-0.2222926,-0.293688
0.7347441,-0.1800284,-0.2936306
0.6726624,-0.2191279,-0.216535
0.621585,-0.2107041,-0.1277449
0.6671506,-0.2516783,-0.005206108
0.7321008,-0.2334587,0.07756947
0.6015535,-0.06364675,-0.1105667
0.4985496,0.03412252,-0.3218029
0.5963635,0.02156536,-0.2654791
0.757076,-0.1329673,-0.2036918
0.9206978,-0.269119,-0.2200882
0.9217167,-0.2550399,-0.2056102
0.8755726,-0.2259304,-0.1732387
1.038332,-0.1200862,-0.04233123
1.205889,-0.02446975,0.07474096
1.399736,-0.06149123,-0.09506321
1.801692,-0.1952233,-0.2891358
1.971008,-0.5154079,-0.1878086
1.703366,-0.9864313,-0.1230955
1.49305,-1.181811,-0.1686761
1.328906,-0.7986816,-0.1004577
0.9760733,-0.3023167,-0.105199
0.8000717,-0.0105017,-0.1644731
0.7902934,0.1216343,-0.1468805
0.6769662,-0.02548806,-0.1142745
0.6730621,-0.1426765,-0.007867927
0.7247562,-0.1268712,0.04228026
0.6669314,-0.1689859,-0.01670748
0.6179677,-0.130768,-0.03346958
0.5042374,-0.1234271,-0.06453362
0.4090555,-0.1677017,-0.09511647
0.5099722,-0.1641188,-0.123424
0.7193484,-0.2413807,-0.1762646
1.064915,-0.3911332,-0.159501
1.29842,-0.5406497,-0.1333303
1.114582,-0.5326488,-0.1156093
1.043366,-0.4002399,-0.1119217
1.405168,-0.3031304,-0.2269822
1.69016,-0.1492232,-0.3091071
1.655167,-0.06887938,-0.1737861
1.498385,-0.08409795,-0.01734099
1.423747,-0.04472197,-0.0562225
1.462478,-0.1045763,-0.1021009
1.445253,-0.2639685,-0.07806177
1.324549,-0.4554066,-0.1337582
1.177713,-0.538513,-0.1322855
0.9804246,-0.3952497,-0.0839364
0.7037063,-0.2355712,-0.1310326
0.5841022,-0.02640766,-0.1952283
0.6849507,0.08164695,-0.2990582
0.5787503,-0.03545949,-0.3338932
0.3774827,-0.004280505,-0.2570151
0.3754961,-0.03390719,-0.235408
0.2950769,-0.1951786,-0.132099
0.2597388,-0.1634899,0.01141418
0.469678,-0.09173016,-0.04479164
0.7682286,-0.01188408,-0.30513
0.9933629,-0.03074539,-0.614055
0.9083718,-0.1429047,-0.5719722
0.7666287,-0.1259832,-0.2038656
0.7222899,-0.1841615,-0.01825369
0.6413599,-0.2182561,-0.1151375
1.071464,-0.1407671,-0.3050902
1.832393,-0.1806279,-0.4069401
2.029832,-0.3817191,-0.4314724
1.909093,-0.8284248,-0.4405305
1.814901,-1.119154,-0.3174275
1.515229,-0.9243745,-0.1963312
1.196543,-0.6378493,-0.1954876
1.066757,-0.3114687,-0.1726113
0.8852955,0.049803,-0.1060295
0.6086548,0.194698,-0.04115797
0.4672028,0.2573785,0.0210723
0.3950378,0.2654131,0.05901918
0.2853816,0.1286186,-0.007065571
0.2145326,-0.0003043004,-0.1043104
0.1721345,-0.1563993,-0.1257257
0.2303856,-0.2873253,-0.1318723
0.3842492,-0.2976754,-0.1431027
0.5912743,-0.3823726,-0.1872989
0.9172213,-0.5095781,-0.2493798
1.174622,-0.6590311,-0.4421012
1.449407,-0.7599066,-0.707795
1.839128,-0.5809581,-0.5925589
1.854609,-0.3545834,-0.4160582
1.689809,-0.2331724,-0.4855775
1.751752,-0.08468793,-0.2513517
1.550274,0.06254124,0.03397579
1.233798,0.04683815,-0.0842434
1.230361,-0.1332354,-0.1374551
1.056811,-0.1751929,-0.05629158
0.8483387,-0.1423974,-0.1336632
0.9255601,-0.1739276,-0.2306251
0.8177597,-0.1615035,-0.2921726
0.6982354,-0.2195582,-0.3107148
0.8158629,-0.2704254,-0.2236328
0.8036297,-0.2503605,-0.1749356
0.7517383,-0.2026159,-0.1331751
0.7205894,-0.06170455,-0.07916227
0.5393376,0.009993685,-0.1222404
0.3939333,0.01385014,-0.1366821
0.4012341,0.004093572,-0.1571309
