accx,accy,accz
0.4027108,-0.1986274,0.04428417
0.4812236,-0.2558785,0.05052863
0.6810417,-0.30099,0.03380911
0.9118313,-0.3959256,0.02783277
0.9470393,-0.4512996,-0.02635738
1.115723,-0.3596271,-0.08289374
1.380767,-0.3070087,-0.07788282
1.600038,-0.1972098,-0.03019784
1.755014,-0.1692232,0.1479252
1.839197,-0.2210369,0.3617555
1.828788,-0.09097567,0.2822697
1.539867,-0.1175976,0.1373337
1.278829,-0.1848026,0.2229814
1.339256,-0.1335661,0.2204736
1.253473,-0.2173436,0.1679784
0.8785143,-0.2166385,0.1884897
0.6998948,-0.1427541,0.0709123
0.7290503,-0.08981396,0.0274183
0.6505351,-0.007755183,0.08394857
0.544605,-0.003573835,0.04921926
0.4813277,0.03989417,0.02947835
0.4634128,0.04948377,0.008188619
0.5470365,-0.001496588,0.05517947
0.631095,0.07360926,0.1215606
0.7087314,0.0827806,0.007419017
0.7628906,-0.09898956,-0.1155451
0.8588384,-0.4123998,-0.09866313
1.168765,-0.6740475,0.06757972
1.528905,-0.6216408,0.244172
1.806077,-0.4351648,0.2327646
1.905714,-0.3500682,0.2283153
1.806236,-0.3588999,0.3379938
1.766021,-0.383175,0.3479752
1.58513,-0.273572,0.2846971
1.150605,-0.1248085,0.2632585
0.9422046,-0.06550714,0.2355914
0.8941269,-0.06048167,0.2018973
0.7244585,-0.1176175,0.155795
0.6336728,-0.1387815,0.1206847
0.5985085,-0.1173391,0.1135375
0.4775103,-0.1133757,0.06406402
0.4177188,-0.09543494,0.05331269
0.3762702,-0.1426049,0.06878195
0.3089751,-0.2073494,0.04313686
0.4235933,-0.2283429,0.06042637
0.5987592,-0.2842736,0.06017861
0.6615032,-0.3498672,0.04492407
0.7390944,-0.3898314,0.04189834
0.8837241,-0.3862478,-0.03329725
1.164505,-0.3747626,-0.09807649
1.433929,-0.3715755,-0.09228931
1.421681,-0.2997785,-0.02085851
1.426893,-0.1843121,0.1840218
1.700023,-0.04285868,0.3982488
1.894872,0.1063594,0.3286116
1.69911,0.1482929,0.1716112
1.355541,0.06014098,0.2341474
1.200468,-0.08518247,0.197504
1.047259,-0.2203608,0.1022957
0.87025,-0.2443714,0.1410437
0.8446112,-0.1205809,0.05710014
0.7733588,0.009514708,0.03882372
0.656688,0.07937759,0.08708195
0.5429367,0.1146362,0.01843683
0.431316,0.08972666,0.03584528
0.4864772,0.06540999,0.04475734
0.5967043,0.04222097,0.08688717
0.7229179,-0.003583296,0.1793778
0.7998178,-0.01141855,0.09825339
0.7145598,-0.07784059,-0.04434806
0.725612,-0.2511838,-0.169349
0.7889501,-0.4331454,-0.1675916
0.8777694,-0.5525767,-0.07269844
1.308051,-0.5421165,-0.02921635
1.870915,-0.5152494,0.09306221
2.005484,-0.5396752,0.1206943
1.79865,-0.43325,0.1010555
1.794936,-0.2938594,0.270929
1.772558,-0.294953,0.2931143
1.447216,-0.2511184,0.2094173
1.103722,-0.07950059,0.2158287
0.8379592,0.04310726,0.1327974
0.8366103,-0.01528106,0.0980474
0.7876328,-0.1316849,0.09912824
0.5175211,-0.1579223,0.03997474
0.5922612,-0.1797993,0.07663588
0.5736086,-0.1841087,0.07409109
0.4168844,-0.1480222,0.03853609
0.5203114,-0.1220543,0.05649946
0.4367376,-0.08361208,0.0151458
0.5142838,-0.1182716,0.02591446
0.792395,-0.2169919,0.08403305
0.7966645,-0.2927922,0.1553653
0.7723457,-0.2580673,0.2877763
0.7257075,-0.1139365,0.2753183
0.8642763,-0.1191605,0.08112765
1.272905,-0.3046192,-0.09525182
1.534109,-0.5360622,-0.1098435
1.562472,-0.6191018,-0.02519425
1.559173,-0.4587418,0.04724029
1.797073,-0.3575947,0.2477949
1.898209,-0.2812519,0.4015013
1.66433,-0.1664398,0.2990207
1.465791,-0.1886136,0.2691048
1.260272,-0.2115398,0.2743966
1.178228,-0.2330142,0.1257542
1.075329,-0.2322785,0.03098243
0.8888325,-0.1500546,-0.007240245
0.9524067,-0.09473268,-0.0234459
0.8665039,-0.02133487,0.007990073
0.6839772,-0.01681338,0.03244678
0.6221715,-0.05126784,0.1054361
0.4329334,-0.006113584,0.1244459
0.3608375,0.007539574,0.02058597
0.3931379,0.04229835,-0.06891861
0.4467559,0.06292665,-0.1005967
0.6087964,0.02031075,-0.008868298
0.7082801,0.03678709,0.1552205
0.8030353,0.08342312,0.2000545
0.8621501,0.1091964,0.08769019
0.865856,-0.03378324,-0.07319423
1.031214,-0.4068328,-0.1022899
1.27122,-0.7319093,-0.03628498
1.393717,-0.7909351,0.02313705
1.494464,-0.6443776,0.1633225
1.741037,-0.5627855,0.2807422
1.937592,-0.5846108,0.2735697
1.906836,-0.4795141,0.2681665
1.732727,-0.2515112,0.2844708
1.433669,-0.05363768,0.2702699
1.186965,-0.007137889,0.2304002
0.9585215,-0.04154545,0.1885199
0.6921784,-0.06804432,0.179446
0.7004039,-0.2186819,0.1950335
0.6893706,-0.3264721,0.1694285
0.4900172,-0.2581835,0.104987
0.4878653,-0.2184949,0.06704609
0.5380687,-0.1617392,0.07451619
0.5553834,-0.1114137,0.1108458
0.5685688,-0.1517264,0.1228103
0.4993678,-0.1625083,0.1251102
0.508276,-0.1852655,0.1493508
0.551262,-0.2052898,0.1407704
0.6618132,-0.1871552,0.1077376
0.8592984,-0.2088395,0.07606539
0.9489585,-0.2196232,0.07282517
1.062847,-0.238708,0.05867454
1.285771,-0.2716198,-0.0705352
1.438474,-0.2440481,-0.1777616
1.38814,-0.2353101,-0.09262991
1.373054,-0.2921602,0.1093472
1.584787,-0.3422303,0.2637538
1.674335,-0.323275,0.2870558
1.564554,-0.2248882,0.2469525
1.398793,-0.0929128,0.2351764
1.220064,-0.03129022,0.2297758
1.101932,-0.1026657,0.19781
0.9431316,-0.1508996,0.1790939
0.800426,-0.08951353,0.1279533
0.7088432,-0.04551032,0.04387534
0.6436527,-0.01096106,0.0316866
0.6302104,0.02001479,0.01101382
0.5352931,0.004960599,-0.02686009
0.5344597,0.01728077,0.02908681
0.6519811,0.03691106,0.1408201
0.6842564,0.04768242,0.2231153
0.7435609,0.08441607,0.1572544
0.8146898,0.06187391,-0.01181707
0.9330383,-0.1527806,-0.1121724
1.101168,-0.5389066,-0.132453
1.154015,-0.7167999,-0.06436297
1.226579,-0.5553164,0.1082199
1.4609,-0.4224967,0.282155
1.708305,-0.3613371,0.2843879
1.725891,-0.3252085,0.2083519
1.70987,-0.3467118,0.2750144
1.741229,-0.2460742,0.2788092
1.35571,-0.1206756,0.2057957
0.8352862,0.01362444,0.2303983
0.6905066,0.1624271,0.1860985
0.7238834,0.02878708,0.1769898
0.6644871,-0.122885,0.2050146
0.53312,-0.1169632,0.1313533
0.5813528,-0.1514363,0.1291974
0.589316,-0.1150087,0.09579839
0.4606519,-0.1421932,0.04276487
0.5015397,-0.212979,0.05828752
0.5183896,-0.2158128,0.0182732
0.6498024,-0.3464733,0.0621267
0.8745697,-0.3888387,0.1475015
0.8169064,-0.2963885,0.1624357
0.8840586,-0.2673195,0.1154839
1.165983,-0.250498,-0.01559597
1.347468,-0.2549494,-0.0324838
1.433331,-0.255188,0.04589358
1.589951,-0.2730587,0.1588303
1.883848,-0.2505702,0.3131217
1.839157,-0.114885,0.2689869
1.387991,0.01707186,0.2002363
1.086205,0.08464575,0.2866138
1.100647,-0.03264771,0.2722632
1.1606,-0.1735774,0.199276
0.9615373,-0.1193448,0.1427149
0.772963,-0.05175858,0.04971422
0.7721948,0.0206747,0.02695945
0.6828345,0.08721559,0.03260717
0.6130851,0.08786072,0.02376692
0.5499657,0.1122016,0.03384888
0.4900658,0.08914814,-0.001612494
0.6105462,0.04368393,-0.005820642
0.7233256,0.0514692,0.09355305
0.7884318,0.08593957,0.1808595
0.7978493,0.1608948,0.1475992
0.7717499,0.1506031,0.05554795
0.86532,-0.07211832,-0.02459508
1.075556,-0.487399,-0.1545127
1.446699,-0.8891024,-0.1720828
1.719588,-0.9522982,-0.02402784
1.78467,-0.7487028,0.07919011
1.891187,-0.5740348,0.1866001
1.942651,-0.3852535,0.2388442
1.947866,-0.1197939,0.2149971
1.801398,-0.01984188,0.2224399
1.416524,-0.09634106,0.1332635
1.19324,-0.1181617,0.09935277
1.016381,-0.2042264,0.1717357
0.715966,-0.3008549,0.1550569
0.612685,-0.2226915,0.106116
0.6056232,-0.2075538,0.01035659
0.4937964,-0.211652,-0.02476862
0.4442132,-0.1783903,0.07604375
0.4797329,-0.2219656,0.1441927
0.428407,-0.1454851,0.1849781
0.3390214,-0.05492784,0.1837183
0.3473868,-0.06524407,0.1469073
0.4588477,-0.06536897,0.1203628
0.6526695,-0.09602534,0.08964393
0.7756708,-0.09914099,0.08938957
0.7702965,-0.1293895,0.08708441
0.7325233,-0.2006569,0.1550155
0.6929525,-0.2139062,0.2333593
0.8502013,-0.2532171,0.06308386
1.291251,-0.3559671,-0.2091874
1.667874,-0.521375,-0.2895139
1.645395,-0.5729578,-0.1551811
1.534407,-0.4056539,0.07226459
1.743462,-0.2527221,0.2502145
1.833311,-0.1767887,0.3085817
1.597538,-0.1693479,0.3060487
1.37257,-0.2115859,0.3084519
1.163492,-0.212022,0.2385621
1.050479,-0.2162999,0.113881
0.988621,-0.1802485,0.0257475
0.8885377,-0.07435014,-0.03856372
0.8561587,-0.006404795,-0.04115738
0.7258945,0.001438645,-0.02757842
0.5874049,-0.005247411,-0.008480422
0.5675656,0.009950178,0.0567047
0.5328548,-0.009414961,0.05704996
0.5001082,-0.04693181,0.0537814
0.4693459,-0.01974168,0.07630618
0.5321469,0.02211951,0.05558759
0.6657897,0.08278959,0.08162083
0.7606599,0.1237328,0.1166569
0.8305187,0.09216851,0.1203373
0.8002835,0.08764363,0.09291488
0.8454739,0.02514645,-0.006105092
1.092979,-0.2584746,-0.06108422
1.362452,-0.6446717,-0.00510978
1.516949,-0.7803642,0.09726134
1.550951,-0.5568455,0.1904354
1.695833,-0.3922669,0.2911114
1.895118,-0.3737651,0.3813937
1.888427,-0.1603086,0.3527045
1.658082,0.01729918,0.2859308
1.235047,-0.09927634,0.2666444
0.9827743,-0.1820674,0.2294102
0.9135867,-0.1569073,0.2146418
0.6555772,-0.1799982,0.2002156
0.5005264,-0.1598655,0.134235
0.5121627,-0.1353768,0.08259284
0.4999841,-0.157706,0.03692605
0.5388055,-0.1419249,0.01727595
0.4754351,-0.1583072,0.04843726
0.4029248,-0.2162154,0.0732624
0.4198076,-0.2619798,0.1075487
0.4579275,-0.2880549,0.1218373
0.6688626,-0.2943508,0.101184
0.8662123,-0.3222912,0.1184284
0.8508158,-0.2471677,0.1636424
0.8539761,-0.1481798,0.2099331
1.086178,-0.2655081,0.170282
1.408534,-0.3636228,-0.01943744
1.518579,-0.3102708,-0.1695009
1.456945,-0.2797999,-0.08063014
1.488766,-0.2416931,0.1245635
1.665478,-0.1864407,0.2225568
1.738577,-0.1723098,0.2450539
1.607922,-0.1261901,0.2190305
1.388441,-0.05087797,0.1553012
1.096915,-0.069991,0.1638987
0.8923395,-0.1476947,0.1580609
0.775999,-0.1759817,0.1147602
0.6578877,-0.1561084,0.06438926
0.6647155,-0.08678533,-0.004584694
0.6503296,-0.002003341,0.02238488
0.5521319,0.07374546,0.03641569
0.4974445,0.123887,0.003215883
0.4770219,0.08727177,0.03827129
0.5608746,0.01719269,0.07164122
0.6690968,-0.02937102,0.09782732
0.6906623,-0.04100126,0.01800649
0.7670131,-0.08902312,-0.1246847
0.9844102,-0.309492,-0.06390036
1.318499,-0.5571137,0.1317647
1.654166,-0.6236201,0.2762973
1.813008,-0.5119244,0.2589074
1.88546,-0.3912029,0.2061919
1.994136,-0.4264483,0.2887907
1.853319,-0.4265621,0.2772166
1.399066,-0.3081933,0.2218109
1.028281,-0.2286471,0.2688562
0.8918818,-0.1274698,0.2153408
0.807376,-0.05936701,0.1782549
0.6562986,-0.07841309,0.1945189
0.5704063,-0.08378585,0.1318526
0.4945778,-0.09230928,0.1023063
0.3068792,-0.08899894,0.05653234
0.2290048,-0.1076078,0.01820156
0.2233027,-0.164226,0.03116171
0.3045962,-0.205362,0.005427743
0.5934483,-0.2624261,0.01792414
0.826843,-0.3049579,0.05335997
0.9296313,-0.311939,0.0781368
0.9882772,-0.2885106,0.06889629
1.210605,-0.2495077,0.007487792
1.460914,-0.2397731,-0.009116981
1.379449,-0.258606,0.008214391
1.456294,-0.2814471,0.1198468
1.789028,-0.2289649,0.2578758
1.861054,-0.1037375,0.2705527
1.606581,0.01288086,0.3074512
1.262142,-0.01486629,0.328347
1.244731,-0.2049531,0.2786794
1.282155,-0.2890987,0.2500951
1.050995,-0.2670905,0.14929
0.9548637,-0.2420605,0.07283946
0.8286775,-0.1481486,0.07093916
0.5852694,-0.05859086,0.003260077
0.5903479,-0.02277345,-0.006651611
0.6382477,-0.03270425,0.04200634
0.5711336,0.004543982,0.01971882
0.5614974,0.03753541,0.02046187
0.5627043,0.01077676,0.04574752
0.5010712,0.09247299,0.07516432
0.5215162,0.1099368,0.1367762
0.6435978,0.1016946,0.1279201
0.8048303,0.2088443,0.1032505
0.969262,0.1644622,0.119735
0.9243988,0.02347626,0.04419878
0.8639903,-0.2067182,-0.05399262
1.010618,-0.5176286,-0.05508992
1.198891,-0.6382703,0.003528081
1.566173,-0.6178369,0.1039944
1.837375,-0.5603149,0.2081733
1.753013,-0.5088594,0.2988156
1.782977,-0.4294598,0.3972396
1.792527,-0.249404,0.4303329
1.558166,-0.0625421,0.3382088
1.301392,0.02729955,0.2571457
1.005729,-0.0236496,0.2872399
0.7667331,-0.05073903,0.291905
0.6095661,-0.06739951,0.2418452
0.5328629,-0.158761,0.1998373
0.60588,-0.1441326,0.1393482
0.5840785,-0.1362284,0.1245373
0.4605319,-0.1516058,0.1342824
0.3482654,-0.1313872,0.09082881
0.2835532,-0.1895261,0.07615304
0.4125591,-0.2016852,0.08120967
0.6194094,-0.2353442,0.06165835
0.8225557,-0.2935667,0.06761952
0.9355549,-0.2655187,0.0899056
0.8862098,-0.256219,0.107566
0.7451616,-0.0830786,0.01766099
0.652112,-0.05666855,0.003102056
0.6012069,-0.09137594,-0.09100267
0.6757769,-0.1026385,-0.04456388
0.6956049,-0.08489292,-0.04042879
0.4868525,-0.003428996,-0.03592105
0.3547757,0.1018286,0.04591546
0.4468209,0.06793025,0.09485113
0.5990414,0.04241595,0.2303099
0.6671842,0.08756039,0.2856775
0.7504413,0.09578185,0.1464807
0.9398532,0.06746587,0.02993614
1.04515,-0.1427218,0.002329776
1.193496,-0.5485356,0.0666224
1.396656,-0.6927606,0.2069044
1.384674,-0.4763524,0.3439715
1.472635,-0.3595991,0.3821348
1.788731,-0.3579315,0.3408573
1.884944,-0.2723368,0.3238189
1.65735,-0.2286652,0.2690951
1.300279,-0.2054817,0.2088883
0.9566865,-0.1411047,0.2499708
0.7733367,-0.1304446,0.2672646
0.6950657,-0.1343898,0.244997
0.5819537,-0.1177693,0.2426745
0.5474496,-0.1021034,0.1849927
0.5772598,-0.06618092,0.1223434
0.5510664,-0.0566063,0.1075048
0.5355446,-0.07181859,0.1040736
0.486161,-0.1169729,0.1010229
0.4379274,-0.2426965,0.08538825
0.5553043,-0.3427221,0.1061482
0.7754728,-0.3786993,0.1414733
0.9706295,-0.4029774,0.1171217
1.094827,-0.3881896,0.05905668
1.225521,-0.3349657,-0.01636729
1.343774,-0.2397402,-0.05191245
1.319291,-0.1728222,-0.02636186
1.372111,-0.2342529,0.01301301
1.56831,-0.2889485,0.1237175
1.611649,-0.1878363,0.2408064
1.48296,-0.05297546,0.2371347
1.32454,-0.01542416,0.2108392
1.268869,-0.03422555,0.2150882
1.191756,-0.0608179,0.1887845
0.941579,-0.067434,0.1492368
0.8273854,-0.06748163,0.1031618
0.8318342,-0.05715604,0.04797838
0.7691949,-0.002787525,0.03586512
0.7231099,0.03806525,0.08326354
0.5937322,0.07316661,0.1284645
0.5218572,0.09305532,0.1234773
0.6139953,0.05876954,0.1204169
0.6527688,0.04678762,0.1385167
0.6965838,0.01974195,0.1117258
0.7704248,-0.02524391,0.04751039
0.8072711,-0.07508891,-0.01103281
0.9652618,-0.3433041,-0.02672944
1.23624,-0.7050323,-0.01337709
1.319157,-0.7140605,0.00277645
1.335634,-0.5504417,0.1536332
1.531181,-0.5193848,0.3302181
1.556598,-0.3239848,0.2940171
1.588457,-0.1636234,0.2760003
1.820586,-0.3374705,0.3577334
1.61453,-0.3725536,0.3220998
1.223642,-0.284349,0.282719
1.010128,-0.2426427,0.2840449
0.6952771,-0.06556139,0.2159695
0.6144905,0.02165473,0.1770557
0.6667741,-0.02204381,0.1689757
0.5258896,-0.02240512,0.136009
0.4875954,-0.03122948,0.1020183
0.4141557,-0.09341349,0.02968819
0.2763149,-0.1846657,-0.01543529
0.35039,-0.2284158,0.009210549
0.5602337,-0.3077729,0.04225276
0.805169,-0.4011162,0.09394609
0.8568229,-0.3532991,0.1379954
0.8044505,-0.2618635,0.1312217
1.088748,-0.1858649,0.03488024
1.470122,-0.164441,-0.08451303
1.577568,-0.2294337,-0.04772631
1.596802,-0.2409964,0.1003252
1.73182,-0.1768715,0.2649274
1.832342,-0.07473531,0.3962668
1.655123,0.02878802,0.3854556
1.346666,0.02581209,0.3684503
1.141193,-0.02389824,0.4025211
1.01427,-0.03901512,0.3041053
0.9257085,-0.06013103,0.1764836
0.8134676,-0.02559484,0.1049428
0.7221107,0.04948193,0.04144382
0.7028946,0.06412189,0.05188622
0.6201468,0.08256463,0.02296851
0.5334532,0.1221595,-0.05936007
0.5481564,0.1324201,-0.05030209
0.6118679,0.1311488,0.0278199
0.6818189,0.1263119,0.1103972
0.7016564,0.1201717,0.08374447
0.750392,0.08284422,0.02087902
0.8208876,0.01555712,0.01338956
0.8654108,-0.1599131,-0.1033991
1.181036,-0.6612669,-0.2454473
1.575743,-1.11592,-0.2305478
1.537059,-0.9348282,-0.08351707
1.495806,-0.5908976,0.07707941
1.716689,-0.4900294,0.1199673
1.776301,-0.3101432,0.1334081
1.826542,-0.2583315,0.1989606
1.724402,-0.2689189,0.2254768
1.253758,-0.1108809,0.2021238
1.083472,-0.1763175,0.1685239
1.04796,-0.2109965,0.1500497
0.8176546,-0.1562328,0.1510203
0.7046148,-0.2605558,0.1381523
0.5090069,-0.1854647,0.09894623
0.3871819,-0.1200663,0.08678028
0.4508422,-0.08498661,0.1325875
0.4357038,0.05207649,0.1640338
0.4820912,0.02638648,0.1552077
0.47562,-0.0001940012,0.1489911
0.4546715,-0.08425794,0.1487894
0.5249766,-0.2427748,0.1423546
0.565751,-0.2780177,0.1344598
0.7372304,-0.3226547,0.1252606
0.9338168,-0.3641983,0.0544695
1.072593,-0.4000783,-0.125229
1.313052,-0.4230136,-0.2920324
1.614928,-0.5076973,-0.2622452
1.820927,-0.6259283,-0.07427395
1.860412,-0.397954,0.1565336
1.889235,-0.07270108,0.3538301
1.696944,-0.001283697,0.3337347
1.209559,0.01613016,0.2564722
1.023316,-0.01112939,0.3187346
1.076247,-0.1089108,0.2409983
1.000723,-0.1303817,0.1172922
0.9511938,-0.07506871,0.1028053
0.8995165,-0.02923158,0.01265366
0.7755029,-0.01031205,-0.02177283
0.6483799,-0.03824169,-0.01367623
0.4831654,-0.08687188,-0.05287331
0.386345,-0.09421519,-0.02146772
0.4525492,-0.1016878,0.008406479
0.5840467,-0.09161144,0.05078879
0.725739,-0.0355363,0.08272599
0.8275269,-0.03869574,0.02739807
0.8982183,-0.2368288,-0.04116773
1.074967,-0.5171441,-0.1078347
1.245624,-0.5212564,-0.01255858
1.315206,-0.3676335,0.2019749
1.479845,-0.3809655,0.2531301
1.668743,-0.4424343,0.2611415
1.766677,-0.4686558,0.3088296
1.740482,-0.3825418,0.2868788
1.531568,-0.1872344,0.2560265
1.379389,-0.1360134,0.2392129
1.168397,-0.1042091,0.2211761
0.7564128,0.001882393,0.2130747
0.6032454,-0.02901741,0.2089931
0.6793102,-0.1170913,0.2145246
0.6216636,-0.1592186,0.1910399
0.5545,-0.1769647,0.1375737
0.5557078,-0.1486807,0.09731732
0.4318447,-0.139025,0.07035606
0.3322953,-0.1789611,0.0251785
0.4018397,-0.2129528,-0.03349059
0.4276305,-0.2651295,-0.01787989
0.5847294,-0.4046124,0.02504478
0.8392859,-0.5332586,-0.01275919
0.8981886,-0.496201,-0.06282795
1.097021,-0.361166,-0.09598439
1.407071,-0.2274116,-0.1018525
1.527972,-0.137194,-0.03245386
1.683427,-0.1683459,0.1199825
1.784556,-0.1590923,0.3199444
1.556015,-0.004012119,0.3802104
1.314701,0.05038387,0.3429268
1.327413,-0.01234113,0.3658603
1.336804,-0.07315764,0.2936869
1.183808,-0.134506,0.1860038
0.9572508,-0.1315735,0.147369
0.754206,-0.09867518,0.07050513
0.6097591,-0.05900739,0.0311185
0.4975599,-0.01616539,0.02092334
0.4761456,-0.04022515,-0.02427598
0.4998356,-0.08776575,-0.04744513
0.464816,-0.1298027,-0.02744144
0.4755356,-0.1182706,0.04360691
0.5712798,0.007118761,0.09381581
0.6810632,0.1378591,0.07877194
0.7639572,0.1290711,0.0134833
0.7746689,-0.03370926,-0.08906115
0.7737561,-0.2885144,-0.1361542
0.8679264,-0.5630699,-0.06358231
1.125887,-0.634875,0.06737032
1.524745,-0.4641516,0.1532252
1.823094,-0.3764368,0.2223892
1.91329,-0.4079197,0.3033278
1.90765,-0.3487533,0.3903855
1.681729,-0.1534013,0.487174
1.214809,0.1032277,0.3984569
0.9376772,0.2308169,0.2200566
0.9511056,0.1648806,0.2250646
0.875243,-0.01461104,0.2083066
0.6877184,-0.2373632,0.1021359
0.5642077,-0.2873204,0.04567187
0.4541171,-0.1952757,-0.002069477
0.3937483,-0.1886353,0.01395654
0.3974927,-0.1366549,0.05131289
0.3829157,-0.09889449,0.02266585
0.4287554,-0.1508718,0.02760857
0.5840602,-0.102883,0.05843596
0.7715142,-0.1935071,0.1240779
0.8497971,-0.3416003,0.2652318
0.7762178,-0.2601051,0.278306
0.8533713,-0.2721553,0.06146804
1.244961,-0.3817631,-0.1653916
1.610687,-0.4218941,-0.2200992
1.655762,-0.4327138,-0.1628553
1.653146,-0.3720054,-0.02786525
1.797138,-0.2953787,0.2390716
1.655474,-0.1890155,0.3859957
1.429018,-0.1581482,0.2899987
1.506523,-0.2310928,0.2519741
1.402896,-0.1959517,0.2102032
1.146565,-0.1528017,0.05822689
0.9304312,-0.1065668,0.01154369
0.7373035,-0.01315061,0.005628238
0.7540876,-0.003618638,-0.0227517
0.6728598,0.02396235,-0.00123712
0.5504412,0.05358465,0.01222263
0.5390149,0.03975801,0.03838328
0.4458868,0.06735366,0.07136984
0.4623049,0.0591783,0.0582622
0.4614716,0.04222799,0.07273811
0.4669099,0.02743669,0.1526078
0.6209027,-0.0147553,0.198778
0.7255866,0.03260594,0.116015
0.8893578,0.09042251,-0.02037627
0.9183747,0.04061197,-0.08360421
0.8896604,-0.1336405,-0.1447904
1.261232,-0.4845761,-0.2481333
1.631213,-0.7965276,-0.2328479
1.699907,-0.8190518,-0.1093042
1.700278,-0.7365868,0.05618623
1.751504,-0.7081416,0.2661914
1.807468,-0.6208215,0.287842
1.729054,-0.4584508,0.2151354
1.525655,-0.214979,0.2921888
1.251023,0.0136031,0.2478942
1.135664,0.01487938,0.1519634
1.135446,-0.07520156,0.195092
0.8012689,-0.1617715,0.1671218
0.49547,-0.2665529,0.1290251
0.4853819,-0.2202136,0.07246502
0.4329466,-0.1443189,-0.005382063
0.4320223,-0.1342652,0.05389527
0.4491309,-0.06587209,0.07953205
0.4248023,-0.05390219,0.09339334
0.4379064,-0.1144151,0.1561583
0.4079278,-0.1897469,0.1405758
0.424809,-0.2879755,0.1474786
0.4770076,-0.3311698,0.150625
0.625062,-0.3633477,0.06799185
0.8879371,-0.4048479,0.005243157
0.9952166,-0.4144465,0.0161565
1.056096,-0.4161349,0.01134451
1.23275,-0.3763815,-0.06602258
1.333615,-0.2761433,-0.05489889
1.405413,-0.1482155,0.04698636
1.668392,-0.1010835,0.104212
1.755102,-0.148036,0.2238293
1.387342,-0.1292484,0.3889434
1.156393,-0.1066169,0.415228
1.294141,-0.1746518,0.3475482
1.34143,-0.1984385,0.2653598
1.115972,-0.1301255,0.1244606
0.853503,-0.04020764,0.02788305
0.7192906,-0.01522615,0.03288953
0.6395397,-0.05763991,0.00518696
0.6387418,-0.08152369,-0.009811728
0.6308587,-0.1015878,0.008103571
0.5238686,-0.1027859,-0.007654806
0.4653316,-0.04217444,0.04162632
0.4513702,0.02788575,0.1165073
0.5299707,0.09262475,0.1330935
0.7113421,0.1402473,0.0983451
0.8429122,0.1566169,0.006801971
0.9140813,0.08574323,-0.03491338
1.029246,-0.2325564,0.001935545
1.298889,-0.666522,0.07785066
1.447519,-0.7714871,0.1633693
1.36068,-0.5692107,0.1842453
1.427431,-0.3965836,0.2303972
1.574816,-0.2389339,0.3267299
1.693956,-0.2927862,0.3339862
1.84477,-0.5053297,0.3104855
1.613705,-0.3237788,0.3078575
1.078185,-0.1323691,0.2337242
0.8156119,-0.1387099,0.1739842
0.7192585,-0.003622143,0.178149
0.5693726,-0.07147841,0.1668686
0.5027898,-0.1676393,0.1828791
0.5133138,-0.10686,0.1552581
0.5303448,-0.1488614,0.09288233
0.5047858,-0.09581271,0.1080136
0.4479029,-0.1152747,0.07612278
0.4105841,-0.2237367,0.04294164
0.411843,-0.2400516,0.06445753
0.5696516,-0.3439055,0.03895567
0.8288408,-0.40976,0.01479252
1.025286,-0.4647899,-0.03836738
1.150199,-0.4917507,-0.1019274
1.263384,-0.3628635,-0.07024224
1.419294,-0.2749603,-0.00491983
1.543377,-0.207442,0.06902859
1.710899,-0.1259392,0.2391999
1.902537,0.007325133,0.4421365
1.782109,0.1354112,0.4378324
1.513143,0.03501813,0.3089606
1.368332,-0.07757174,0.2876548
1.187333,-0.1264739,0.237467
1.03565,-0.2438739,0.1288855
0.9419654,-0.2638887,0.07489568
0.7288908,-0.1855223,0.03131987
0.5833939,-0.1224298,0.028168
0.55149,-0.06217611,0.03199362
0.4541761,-0.03547702,-0.002015844
0.409857,-0.04897091,-0.01783022
0.4155628,-0.03923897,-0.02565378
0.4454113,-0.01517479,0.007968323
0.5673812,0.009453911,0.03976673
0.6674893,0.05703513,0.0007183835
0.7536275,0.02308729,-0.08947394
0.8981393,-0.1940791,-0.1499785
1.197238,-0.5155821,0.06711225
1.569776,-0.6597747,0.3798696
1.701764,-0.5098926,0.3986064
1.776575,-0.4364456,0.3851433
1.964871,-0.5276012,0.4776656
1.93342,-0.4854319,0.4392321
1.589553,-0.356318,0.3126929
1.160303,-0.2201931,0.1907542
0.8571974,-0.104436,0.1752881
0.6895381,-0.09215574,0.2364369
0.6185737,-0.08948711,0.1781549
0.6287579,-0.09848941,0.1638838
0.5257629,-0.1089134,0.1828889
0.4064346,-0.08572117,0.09764684
0.3555365,-0.1268336,0.09181451
0.2284449,-0.1949612,0.04938526
0.269514,-0.2832753,-0.01257408
0.3596631,-0.3293218,0.03607927
0.3986147,-0.319278,0.002391418
0.709397,-0.4149197,-0.01763807
0.9047786,-0.451194,-0.02912126
0.9923225,-0.3951117,-0.1535539
1.357746,-0.3859397,-0.218626
1.533448,-0.336056,-0.163641
1.450067,-0.3063575,-0.01549354
1.562225,-0.2817485,0.2261508
1.786635,-0.2097592,0.4766985
1.785525,-0.1020701,0.4618742
1.641686,0.05114422,0.3019134
1.495801,0.006941754,0.3102254
1.258302,-0.1413336,0.1989348
1.133679,-0.1886461,0.119847
1.072571,-0.2788817,0.1795459
0.874678,-0.2501097,0.01161766
0.7599296,-0.1280402,-0.0148622
0.6800138,-0.07222851,0.03991699
0.5808482,0.05994389,-0.04491958
0.5552807,0.09800755,0.0432946
0.4938778,0.06237187,0.05417095
0.4614598,0.1002419,0.03668293
0.5695363,0.07456401,0.1345168
0.7126278,0.09016463,0.1083148
0.7511592,0.09844868,0.005102682
0.7427073,-0.04609107,-0.1552946
0.8042678,-0.33633,-0.1353039
0.9885358,-0.6840481,0.05259426
1.373053,-0.7187062,0.1295498
0.5530795,-0.09424467,0.2722274
0.4620284,-0.1101089,0.227249
0.4623742,-0.1511063,0.1809292
0.5300194,-0.1408613,0.1254985
0.5842139,-0.1132097,0.111218
0.6029094,-0.107709,0.1202262
0.5787714,-0.1222212,0.09312289
0.4722625,-0.1922018,0.08207464
0.4612831,-0.2680036,0.0965547
0.5451181,-0.282404,0.1378186
0.6671701,-0.2545411,0.1841001
0.8414094,-0.1864196,0.1715532
0.9596342,-0.1245925,0.1075163
1.163862,-0.2094273,0.04610497
1.323188,-0.3397506,0.0683088
1.291971,-0.3172798,0.1385166
1.520123,-0.2785341,0.1649564
1.820416,-0.1698946,0.20776
1.607057,0.1889805,0.3138276
1.249368,0.3911609,0.3924689
1.19174,0.2218143,0.3615854
1.20629,0.02849438,0.2938705
1.18575,-0.09342083,0.2348194
1.055232,-0.1523617,0.1245406
0.7843794,-0.0695212,0.04926587
0.6970692,-0.01558015,0.02979353
0.73355,-0.05859663,-0.01376743
0.7163624,-0.04121706,0.0159673
0.6958256,-0.00259151,0.1067314
0.5861277,0.04055753,0.1396426
0.5007719,0.101969,0.09318716
0.5749335,0.04988331,0.02122522
0.6960327,-0.02923533,0.06404418
0.7343771,-0.04788146,0.1042711
0.7338679,-0.08270547,0.01391898
0.8861783,-0.2142939,-0.03148807
1.19995,-0.4959406,-0.01616582
1.479776,-0.6190702,0.09378224
1.521558,-0.4437721,0.2958032
1.520556,-0.3478734,0.34495
1.742731,-0.3503163,0.3054969
1.857316,-0.2419874,0.3260924
1.642679,-0.1431095,0.3257912
1.325219,-0.1291125,0.2878159
1.128675,-0.1282329,0.2667781
1.011552,-0.1463257,0.2857957
0.8030478,-0.1533705,0.2989578
0.659288,-0.1348707,0.2730157
0.5996451,-0.1362392,0.2010983
0.4598892,-0.1132301,0.1109829
0.4586113,-0.0889685,0.1009999
0.5637456,-0.07532726,0.1246612
0.5256721,-0.02904863,0.0920259
0.5175959,-0.05280159,0.08623151
0.5692974,-0.1335075,0.1310568
0.5895218,-0.1742618,0.1706446
0.6903456,-0.171975,0.2082541
0.7557865,-0.1423908,0.2075036
0.7799557,-0.1337563,0.2141015
0.8274307,-0.09935281,0.2804506
0.8700226,-0.09409738,0.2532524
1.176379,-0.2421677,0.09761895
1.446726,-0.3768681,-0.0298603
1.255203,-0.385605,0.01089534
1.159678,-0.3782969,0.168639
1.409434,-0.3718618,0.2347595
1.556178,-0.2138841,0.2510002
1.473367,0.08266994,0.2966906
1.330116,0.20685,0.3102179
1.166181,0.1112717,0.306548
1.039924,0.02388052,0.2676385
1.047975,-0.04515478,0.2003656
1.031901,-0.1073952,0.1112644
0.942232,-0.03890302,0.04755518
0.8715739,0.07628663,0.07522835
0.7796323,0.1009622,0.08424297
0.6874685,0.1312532,0.0819
0.5849213,0.1471333,0.09770918
0.5568373,0.08567653,0.05811055
0.6599712,0.009360241,0.03378606
0.7283807,-0.04741982,0.09571744
0.7940444,-0.00222183,0.1674198
0.8722404,0.03613145,0.1309574
0.901964,-0.05657687,0.02895207
0.9434301,-0.2218743,-0.0700673
1.015927,-0.4793725,-0.1271559
1.202327,-0.6417561,-0.04511179
1.463481,-0.6149296,0.08606868
1.617527,-0.6026206,0.1799988
1.653479,-0.5543572,0.237784
1.76596,-0.451665,0.2634131
1.896129,-0.4013306,0.3168675
1.59467,-0.2581961,0.3204506
1.206698,-0.04117402,0.3214856
1.153005,0.00172194,0.317501
0.864595,0.00768024,0.1663365
0.5946183,0.05558051,0.1075541
0.7415847,-0.1070276,0.1909073
0.6999718,-0.2514302,0.2087902
0.5982558,-0.1881421,0.1545033
0.6459429,-0.1529878,0.07507788
0.5557559,-0.1218703,0.088961
0.5462384,-0.124777,0.1169371
0.5720185,-0.1715232,0.1170217
0.5493352,-0.1568969,0.1732278
0.69861,-0.2065219,0.1591641
0.7927662,-0.2468492,0.1833886
0.7387044,-0.1882044,0.3070547
0.7341547,-0.1115335,0.324649
0.9333893,-0.08100015,0.1864867
1.37157,-0.2565571,-0.0004654606
1.644046,-0.5486259,-0.01802693
1.514168,-0.6297847,0.05529386
1.42156,-0.4110182,0.07729137
1.638366,-0.1719347,0.2058395
1.724679,-0.1316105,0.3417128
1.525415,-0.1342643,0.36953
1.330238,-0.1487552,0.3606808
1.129528,-0.2359738,0.2846255
1.036102,-0.2497884,0.1924359
0.9976063,-0.1565179,0.1114219
0.8129667,-0.02254427,0.04110231
0.6962131,0.0968556,0.02250475
0.6249782,0.1482241,0.001822259
0.5528213,0.1422945,-0.01142719
0.5511223,0.06859163,-0.01744903
0.5293759,-0.0133234,-0.03366386
0.5329344,0.003622452,-0.036443
0.5875207,0.05126821,-0.06933411
0.6733556,0.06211648,-0.05670129
0.7010904,0.07139085,0.05689058
0.6444265,0.06629624,0.1799859
0.6538078,0.03677704,0.2100668
0.7801536,-0.09303163,0.07170133
1.102232,-0.4322876,-0.03444507
1.460889,-0.7339067,0.03456751
1.533522,-0.6935828,0.08785609
1.511896,-0.5515901,0.1309644
1.661008,-0.5572973,0.255049
1.815969,-0.5337016,0.3411141
1.771048,-0.393618,0.3666103
1.476646,-0.1979339,0.3882273
1.117315,-0.04670499,0.3641793
1.067482,-0.01548244,0.3395707
1.146642,0.0003285005,0.351148
0.9348419,-0.06599834,0.2948211
0.6719069,-0.1722352,0.2032872
0.5340079,-0.114852,0.1379713
0.4359311,-0.1000985,0.07594722
0.4467769,-0.1526376,0.06967258
0.4899291,-0.1404437,0.110394
0.5399821,-0.1670954,0.1441344
0.5787533,-0.1654461,0.1587396
0.502842,-0.1464455,0.1392301
0.4103202,-0.1684496,0.118062
0.4103073,-0.1962201,0.1273881
0.5901232,-0.3027457,0.1383425
0.8663231,-0.3932009,0.1341091
1.090152,-0.3581492,0.1050187
1.381484,-0.3197354,0.0056419
1.541929,-0.3354815,-0.04562092
1.461765,-0.3311881,0.09033666
1.662985,-0.3094995,0.2454137
1.904837,-0.2439615,0.331358
1.564072,-0.06135092,0.3727616
1.200262,0.05695765,0.2997891
1.257879,0.006002437,0.2615621
1.27649,-0.04848824,0.2623708
1.092638,-0.09384494,0.1451318
0.8519985,-0.1407683,0.08013883
0.6508922,-0.09050742,0.07570726
0.5895355,-0.01042837,0.04126987
0.5919262,0.003141718,0.03439575
0.5678795,0.03376976,-0.02784709
0.5384814,0.07979941,-0.09783382
0.5114131,0.06368089,-0.09587299
0.5040817,0.04084078,-0.04264868
0.5107164,0.02754811,0.09418603
0.5596604,0.02491118,0.1938675
0.708833,0.03727299,0.1060485
0.8364088,-0.01214438,-0.04625926
0.8879263,-0.2094923,-0.0525463
1.032754,-0.5577123,-0.002954428
1.293883,-0.7329409,0.09239142
1.509165,-0.5789731,0.3103925
1.613723,-0.4567861,0.3837825
1.720588,-0.4016397,0.365015
1.846748,-0.2791254,0.355945
1.800258,-0.2290249,0.2190188
1.470312,-0.2000958,0.1916217
1.035538,-0.1823953,0.24584
0.8130068,-0.2059657,0.2133616
0.7364568,-0.1568589,0.2319354
0.5827709,-0.142963,0.2193801
0.5051694,-0.1410103,0.1584531
0.508779,-0.0714417,0.1253065
0.4733062,-0.05621413,0.09482327
0.4623765,-0.04594906,0.08214386
0.3833103,-0.08551294,0.03938102
0.2966709,-0.2014475,0.02197311
0.354781,-0.2440647,0.04955354
0.5307209,-0.2740942,0.04347927
0.8296628,-0.3300252,0.0290121
0.9872676,-0.3566187,-0.05928337
1.018571,-0.3521366,-0.1409841
1.346161,-0.3285863,-0.04067226
1.658305,-0.3111294,0.06588567
1.570797,-0.2878063,0.07867606
1.466298,-0.1847221,0.2074893
1.535521,0.06245023,0.4306479
1.480217,0.1960765,0.4689737
1.375724,0.01962562,0.3683567
1.365933,-0.1485508,0.3347031
1.213216,-0.1679957,0.2611602
1.035927,-0.1706402,0.1273175
0.9184864,-0.1377956,0.06466221
0.7920916,-0.06852523,0.01524968
0.7460892,-0.008922153,-0.02521975
0.6052745,0.01889671,-0.02523192
0.5392373,0.02105759,-0.04047367
0.6108169,0.04575233,-0.03907472
0.584234,0.08532945,-0.01817528
0.6706382,0.09041115,0.01013438
0.781321,0.0797706,0.08788538
0.8579209,0.08629136,0.1444515
0.9310611,0.09215632,0.1342305
0.8167641,0.0937596,0.1264376
0.7416286,0.06551317,0.1247791
0.7865115,-0.08795581,0.06931244
0.9883427,-0.408662,-0.05508549
1.369436,-0.7182056,-0.1427694
1.506183,-0.7569236,-0.08319314
1.41403,-0.5898816,0.0345032
1.506711,-0.4975963,0.09197978
1.798081,-0.503401,0.1259385
1.908562,-0.4222094,0.1847824
1.634425,-0.252326,0.2268206
1.32987,-0.1277391,0.1733375
1.331441,-0.05913124,0.09649227
1.328876,-0.1122784,0.1134173
1.002829,-0.2692714,0.1396177
0.7181275,-0.3052211,0.139013
0.6683876,-0.2797525,0.1115672
0.6229969,-0.2694797,0.03726249
0.5907715,-0.2052938,0.04428731
0.5647001,-0.1891965,0.1119884
0.4696611,-0.1784682,0.1546555
0.3756025,-0.1158331,0.1871513
0.3285854,-0.04530855,0.1847435
0.30108,0.04562232,0.1888331
0.3603335,0.08878196,0.1869061
0.528201,0.09373805,0.169825
0.6304154,0.03531995,0.1726625
0.6959718,-0.112661,0.1515701
0.7554479,-0.2425498,0.1406787
0.7696413,-0.3826231,0.05665525
0.9629883,-0.5578943,-0.1852772
1.382442,-0.7291286,-0.3305378
1.749775,-0.7953194,-0.2290977
1.790443,-0.6849911,-0.1074263
1.712975,-0.4715084,-0.02979905
1.802545,-0.1628582,0.1823127
1.744628,0.01815501,0.3168458
1.579661,-0.05025232,0.2752888
1.550524,-0.1330356,0.301797
1.414763,-0.2583037,0.2220138
1.200609,-0.3083121,0.07347763
1.031517,-0.2163483,0.06188808
0.8975593,-0.2417847,0.02945711
0.8137653,-0.1945656,0.02712444
0.6743143,-0.09627863,0.02078138
0.5929129,-0.1438733,-0.02763041
0.604768,-0.1184218,-0.01356744
0.568228,-0.0729899,-0.02936126
0.5739308,-0.03734077,0.001916623
0.5601144,0.03646911,0.0498344
0.4435888,0.05813318,0.02387411
0.3867615,0.09500047,0.04098166
0.4947079,0.065901,0.07825093
0.7027028,0.01292331,0.1276759
0.8021492,0.03588204,0.1217643
0.812185,-0.02000606,6.276188e-05
0.9813582,-0.2170939,-0.07823859
1.316584,-0.5450357,-0.01155078
1.56505,-0.6771747,0.09348474
1.551041,-0.472742,0.1055371
1.513189,-0.4002393,0.182576
1.627116,-0.4691105,0.3097041
1.749428,-0.4224858,0.2811462
1.833181,-0.342453,0.2743798
1.590766,-0.2386342,0.2740188
1.095617,-0.1203217,0.1580214
0.9709069,-0.08610361,0.1397821
0.911389,-0.1422231,0.2034844
0.6431255,-0.1983181,0.2125167
0.5743131,-0.1905435,0.1743485
0.530113,-0.1660703,0.1002881
0.4742598,-0.1407739,0.05878681
0.5257092,-0.1150897,0.05149842
0.4708481,-0.1287621,0.04754054
0.4450858,-0.1990937,0.06392567
0.4515942,-0.2955875,0.07814365
0.4443156,-0.3117044,0.09860513
0.5819892,-0.2783524,0.1208191
0.7355757,-0.3023703,0.138324
0.8435861,-0.3179035,0.135958
1.036549,-0.3311998,0.02057781
1.375325,-0.3632059,-0.1113732
1.558972,-0.3446182,-0.08089472
1.423209,-0.3338815,0.02786932
1.449148,-0.3269741,0.1125808
1.639156,-0.2686447,0.1932571
1.655755,-0.1772277,0.2480768
1.513821,-0.04782092,0.2597919
1.240849,-0.005811634,0.2150983
1.125642,-0.1290739,0.1393996
1.153078,-0.251533,0.1286316
1.01577,-0.2515852,0.1053389
0.8832574,-0.1874569,0.01955908
0.7394192,-0.1442663,0.006472732
0.6069283,-0.09142614,0.02624657
0.608733,-0.02553351,0.03199271
0.5139806,0.02496172,0.05372191
0.4439779,0.08727041,0.04126378
0.4974286,0.1007761,0.04265938
0.5363386,0.0645636,0.08812382
0.6393858,0.05246427,0.1169692
0.7328785,0.04638891,0.07019198
0.7864379,-0.01880084,-0.05520094
0.9205626,-0.2665004,-0.1160439
1.195683,-0.6025974,-0.02704256
1.550024,-0.6668028,0.1087463
1.729446,-0.4761451,0.1720497
1.754522,-0.4079525,0.2094367
1.824859,-0.4724076,0.275204
1.853813,-0.447148,0.2820144
1.610404,-0.3392569,0.2520533
1.138166,-0.1952669,0.2395131
0.8617662,-0.07575789,0.2255211
0.8124805,-0.02390179,0.2271931
0.7038886,-0.007241355,0.2237658
0.6084925,-0.07822975,0.2021251
0.5647875,-0.1702612,0.1402277
0.5664793,-0.1846158,0.0734078
0.5764196,-0.156472,0.09076877
0.4264737,-0.1282169,0.08755898
0.2579373,-0.1793754,0.02775665
0.2075085,-0.2404172,0.03056959
0.276033,-0.2627888,0.05046236
0.59775,-0.3929585,0.04773606
0.9793896,-0.5332186,0.06784986
1.034612,-0.5008894,0.04988727
1.073114,-0.4263215,-0.03823938
1.413295,-0.3895538,-0.1124823
1.544346,-0.2694755,-0.05885253
1.611046,-0.1866221,0.1574886
1.90251,-0.1619126,0.3325003
1.776213,-0.004001615,0.3225828
1.522306,0.06009439,0.3042535
1.474932,-0.03093309,0.3221206
1.320522,-0.08391877,0.261834
1.286149,-0.1581704,0.2106372
1.112568,-0.1811786,0.1804321
0.8524074,-0.1567565,0.1045469
0.835695,-0.1255779,0.07852425
0.7026323,-0.03715355,0.07006309
0.6355367,-0.007239725,0.04628738
0.5800953,0.004050548,0.05927117
0.4357251,0.04969442,0.02741901
0.4939776,0.06524398,0.006951415
0.5206114,0.03355388,0.06007503
0.6114407,-0.003706203,0.06742768
0.7358248,-0.01365663,-0.03926262
0.7457232,-0.1707333,-0.1566258
0.9094343,-0.4313876,-0.0839626
1.118823,-0.5384767,0.06821399
1.368538,-0.5073268,0.1415371
1.515028,-0.3706721,0.2393707
1.487924,-0.2420301,0.320082
1.704794,-0.3946285,0.3440873
1.868907,-0.5822986,0.3465047
1.656954,-0.4015633,0.3171911
1.299114,-0.1581946,0.2631088
0.935632,-0.02633634,0.1828298
0.6447868,0.03619108,0.07517143
0.5421503,-0.08954756,0.09977297
0.5386538,-0.05121046,0.04329897
0.4652427,-0.06738052,0.01249495
0.4491869,-0.1780098,-0.03926583
0.4151994,-0.2320034,-0.04114683
0.3797616,-0.299656,-0.0272983
0.4616416,-0.3154207,-0.05007138
0.5358426,-0.3845555,-0.04202512
0.6878113,-0.4361697,-0.05864833
0.8830066,-0.4209226,-0.1171046
0.939015,-0.4944414,-0.2051471
1.150882,-0.467255,-0.3303441
1.558134,-0.4632293,-0.4412624
1.624948,-0.5358641,-0.392073
1.587137,-0.4719936,-0.1449729
1.838963,-0.3914141,0.01649323
1.749855,-0.1757484,-0.008228717
1.416416,0.04568764,-0.00638054
1.3443,-0.04251335,0.04782136
1.20828,-0.1482862,0.04472673
1.082936,-0.1745067,0.03153183
0.9145257,-0.2223129,0.044331
0.6637432,-0.1820231,-0.03981271
0.6938367,-0.1352136,-0.1319983
0.6886908,-0.1362586,-0.09843198
0.6299532,-0.0769118,-0.04987131
0.5911594,0.008668504,-0.01408317
0.4264967,0.0692634,-0.01901193
0.4484425,0.05094795,-0.04285805
0.5538018,-0.05384765,-0.02885794
0.6546199,-0.08270858,-0.09472421
0.822499,-0.1500112,-0.195546
1.01012,-0.4181469,-0.1985745
1.338742,-0.654104,-0.07090611
1.553038,-0.6592753,0.04830257
1.714428,-0.5438615,-0.04513086
1.991684,-0.543693,-0.1169921
1.958097,-0.5727058,0.02226015
1.706032,-0.5041682,0.1005698
1.435364,-0.4014677,0.04995421
1.06759,-0.1759107,0.03944958
0.8939213,-0.02460379,0.05494667
0.8664116,-0.05712712,0.04812396
0.7243512,-0.05073292,0.05722461
0.6194928,-0.06305522,0.06225972
0.5239093,-0.05356209,0.037726
0.3727262,-0.006490671,0.01453552
0.3048557,-0.02979674,-0.002810112
0.3217546,-0.0924262,-0.03275508
0.3692014,-0.2219936,-0.0674626
0.4101586,-0.3213075,-0.06000147
0.5561741,-0.4041217,-0.02245887
0.8045033,-0.4962405,-0.01471985
0.9103657,-0.4444218,-0.03994208
0.9738868,-0.4179045,-0.1590751
1.231638,-0.4661612,-0.3361224
1.471374,-0.4678317,-0.3518038
1.351425,-0.526972,-0.2646704
1.250875,-0.5306736,-0.2454377
1.584648,-0.3190862,-0.1725482
1.784009,-0.027646,-0.0395853
1.592878,0.09112339,-0.01516378
1.407496,-0.03683946,-0.03839705
1.258766,-0.1481475,-0.003006413
1.065002,-0.1814207,0.01810322
0.8861625,-0.2318706,-0.02150055
0.7972108,-0.1624314,-0.07001717
0.7846722,-0.06863728,-0.09274129
0.8051557,-0.01299578,-0.09240657
0.8186491,0.1143471,-0.08899336
0.733352,0.128913,-0.07362768
0.6121577,0.08476146,-0.03463168
0.5252877,0.1112935,-0.01459247
0.5463784,0.05351,0.005360318
0.7138033,0.03153729,0.05294082
0.8514795,0.05783252,0.06061348
0.8677147,-0.01133323,-0.01154565
0.8000363,-0.1028147,-0.1281085
0.7920956,-0.2902322,-0.1700193
0.8863197,-0.5133913,-0.1223393
1.027868,-0.6470321,-0.08163915
1.292324,-0.7044673,-0.01012036
1.589523,-0.5649994,0.02404992
1.86282,-0.4376674,-0.01866359
1.983273,-0.4328027,0.01279993
1.78222,-0.289919,0.06320288
1.469331,-0.1103596,0.0845399
1.062904,0.0008088908,0.09305897
0.7654761,0.03602431,0.04580566
0.8253624,-0.020244,0.03365318
0.7971962,-0.103935,0.04315628
0.7034309,-0.2431267,0.02379985
0.7149382,-0.2649919,0.007791241
0.5800083,-0.1644606,-0.03837989
0.5257869,-0.1594993,-0.07461463
0.5400805,-0.1811877,-0.08350756
0.3979254,-0.2134774,-0.08647905
0.3544614,-0.2878769,-0.06724718
0.4879192,-0.4058024,-0.03068019
0.8158164,-0.5465544,0.02743752
1.125459,-0.5333692,0.05476064
0.9296085,-0.2796871,0.08923768
0.5877981,0.07396075,0.146335
0.6554806,0.1095967,0.02678333
1.019594,-0.3260601,-0.2524983
1.446509,-0.7701083,-0.4034784
1.5385,-0.8418928,-0.2699273
1.374916,-0.556952,-0.08092364
1.538799,-0.2796971,-0.09986454
1.667788,-0.2312177,-0.1638777
1.524325,-0.2179624,-0.1674908
1.434734,-0.2644432,-0.1294352
1.166072,-0.3893193,0.01090703
0.9256077,-0.4030545,0.0572778
0.9311789,-0.2759746,-0.06466975
0.8701164,-0.09450145,-0.1878459
0.8575109,-0.05125255,-0.2335598
0.8545146,-0.09385845,-0.1791777
0.7429456,-0.04848098,-0.1113076
0.5967746,-0.03787972,-0.00777727
0.3928029,-0.0324907,0.0941059
0.2853963,0.04679246,0.03930623
0.3255572,0.07909449,-0.02729343
0.4834756,0.07156077,-0.04474983
0.7294445,0.09048563,-0.04317923
0.8724652,0.1183912,0.008816725
0.8752293,0.1025962,-0.02235045
0.8670879,-0.05480562,-0.1376141
0.9221331,-0.3914613,-0.2747855
1.037094,-0.680304,-0.3306789
1.278739,-0.7156457,-0.1721941
1.613227,-0.6840756,-0.05245019
1.836724,-0.6963497,-0.08742878
1.962382,-0.6258949,-0.06855412
1.986438,-0.5161296,-0.04546475
1.776961,-0.3896183,-0.06262207
1.454971,-0.1964566,-0.01290603
1.172036,-0.0734116,0.03990543
0.9719198,-0.08320729,0.0230806
0.8498887,-0.1212803,0.01831807
0.6887102,-0.1707926,0.04241722
0.5422805,-0.2008338,0.03640593
0.4828807,-0.1650721,0.01932015
0.4454679,-0.1444663,-0.01191589
0.4829713,-0.1375698,-0.03753857
0.5505739,-0.1022243,0.002131853
0.583683,-0.106415,0.03336997
0.5541095,-0.192142,0.01797522
0.4476684,-0.3234564,0.02523213
0.447314,-0.3919195,0.04757996
0.522817,-0.4313249,0.04336919
0.6219006,-0.509199,0.02339328
0.8393927,-0.4643996,-0.03390739
1.097213,-0.360517,-0.1777495
1.375804,-0.3695462,-0.2916252
1.583045,-0.4078935,-0.2219333
1.706864,-0.4382347,-0.06033399
1.841271,-0.3873694,0.03874342
1.842346,-0.2290215,0.04146379
1.731607,-0.1120649,-0.008476287
1.53691,-0.07583713,-0.01761365
1.293608,-0.1390225,0.01398536
1.135036,-0.2273022,0.017189
0.9309544,-0.2349286,0.0001507232
0.7688876,-0.2198917,-0.02032007
0.7199216,-0.1535067,-0.03484872
0.6405253,-0.04935704,-0.02475392
0.5813365,0.03455239,-0.01642962
0.4838523,0.1168957,-0.06930844
0.4388636,0.1325719,-0.1238896
0.5459405,0.09269024,-0.06671953
0.6470946,0.04327504,-0.01700213
0.7308455,-0.002326825,-0.06685803
0.7595002,-0.04065095,-0.1376496
0.8193885,-0.1850912,-0.2239639
0.9780098,-0.3843318,-0.2308218
1.157988,-0.5087251,-0.09566205
1.440299,-0.6289974,-0.004465125
1.592592,-0.6445614,-0.03867927
1.649259,-0.5111674,-0.06094554
1.934067,-0.5105922,-0.0203032
1.97009,-0.5352313,0.003715313
1.683488,-0.4063847,0.01900918
1.461223,-0.2673296,0.03340955
1.061487,-0.07610055,0.02923804
0.7504575,0.04270084,0.06504597
0.7142248,0.01194149,0.0775982
0.5640613,-0.03413367,0.04244578
0.5519477,-0.1438637,0.03473092
0.6086147,-0.1539032,0.002618319
0.5261005,-0.1188201,-0.01839582
0.544287,-0.2111399,-0.01922848
0.4797078,-0.2874245,-0.05259413
0.4215304,-0.4007063,-0.03142493
0.5180739,-0.476301,-0.006736944
0.6386642,-0.4586946,-0.02006795
0.8175595,-0.4316205,0.0002357206
0.8347391,-0.3032786,-0.02294053
0.8801084,-0.2396207,-0.1589685
1.26493,-0.3186823,-0.3500445
1.562508,-0.3705445,-0.3783122
1.599769,-0.3729324,-0.1385851
1.69165,-0.3176516,0.04133026
1.829536,-0.1943967,-0.0189547
1.651864,-0.02388911,-0.03428453
1.377823,0.03454968,0.07471468
1.34826,-0.1231329,0.1088554
1.191701,-0.2658689,0.1197584
1.032254,-0.2423504,0.1034608
1.079107,-0.150259,-0.02961305
0.9758855,-0.06306174,-0.08035399
0.8327772,0.007580985,-0.07436557
0.7142381,0.02466343,-0.09870487
0.5767772,0.01308584,-0.04452366
0.5561281,0.02912193,-0.02912812
0.5057982,0.03516003,-0.03096518
0.4878904,0.04725457,0.006809668
0.6336469,0.07437198,-0.005583398
0.8140475,0.07732014,-0.01479979
0.8970867,0.08456847,-0.03285649
0.8606538,0.08362326,-0.00810931
0.8694901,0.07347074,0.04240207
0.9150801,0.005958771,-0.03116858
0.9835671,-0.2611341,-0.1975869
1.182579,-0.6540976,-0.3611877
1.342251,-0.8552304,-0.3146055
1.418041,-0.7661058,-0.1646015
1.590077,-0.6815268,-0.1513623
1.833028,-0.6469896,-0.06894243
1.915612,-0.473396,0.006522968
1.692475,-0.2696619,0.01429485
1.357171,-0.116068,0.0917039
1.169801,-0.06759931,0.007184828
1.136297,-0.1681292,-0.06894797
1.06211,-0.2640051,0.03632831
0.8765639,-0.3307021,0.03617171
0.7501056,-0.3207517,-0.01519499
0.658033,-0.2350855,-0.0515221
0.5315844,-0.2046727,-0.05980783
0.4779742,-0.1691484,0.0012147
0.4261988,-0.1527414,0.0314836
0.3589008,-0.1313855,0.07993327
0.3537481,-0.04966128,0.08583247
0.3696251,-0.04955933,0.0555117
0.4514614,-0.04688385,0.09450887
0.5777749,0.005465526,0.08793229
0.6646893,0.009791407,0.07916981
0.7424412,0.00358869,0.08484613
0.782167,-0.04746506,0.06991193
0.755457,-0.1370416,0.1114155
0.7431776,-0.2142479,0.1164209
0.8057939,-0.3263531,-0.03084485
1.009098,-0.5284416,-0.3678703
1.367773,-0.7200811,-0.6613018
1.566606,-0.7071265,-0.6070307
1.518811,-0.6372565,-0.4305204
1.627388,-0.6307856,-0.3183773
1.756306,-0.5234677,-0.1049617
1.560214,-0.3746466,0.07673759
1.353522,-0.2443087,0.02289109
1.347436,-0.1903729,-0.04813537
1.24876,-0.266876,-0.01120612
0.9586332,-0.2369708,-0.03781274
0.7637353,-0.1575211,-0.0671715
0.7013991,-0.1242912,-0.03715692
0.6029095,-0.009978182,-0.07794384
0.5425839,0.01462414,-0.09431334
0.5381937,-0.007124551,-0.04699564
0.5502307,0.02234828,-0.01756362
0.5798377,-0.01150763,0.0312872
0.5766723,0.01893705,0.02548913
0.5914541,0.07981036,-0.009786153
0.6400043,0.09460496,-0.002493208
0.7164097,0.05967522,-0.02525092
0.7887148,-0.08570155,-0.07229311
0.7949161,-0.2471889,-0.2062111
0.9453845,-0.5264761,-0.3413502
1.289372,-0.7661134,-0.2636452
1.5782,-0.6345593,-0.1293487
1.789592,-0.4779248,-0.09600677
1.874847,-0.4704714,-0.09651367
1.834474,-0.4211122,-0.08064477
1.817743,-0.3696666,-0.0282819
1.534147,-0.2589924,0.002391203
1.000643,-0.1025054,0.02169033
0.7893106,-0.03815355,0.09722935
0.7805954,-0.0148849,0.1113768
0.6898861,-0.04196721,0.07666158
0.6490669,-0.1133166,0.08972269
0.584111,-0.1492556,0.0158265
0.5181147,-0.1569431,-0.0755069
0.5162606,-0.1529814,-0.04949533
0.4157957,-0.2277887,-0.03268301
0.3148459,-0.3117449,-0.02896233
0.36004,-0.3040394,0.001684518
0.5316661,-0.3446993,0.008935017
0.8238812,-0.3939289,0.009849972
0.9846994,-0.3968707,-0.02189692
0.9419312,-0.4016082,-0.1865538
1.104372,-0.3815485,-0.3734531
1.377584,-0.3859815,-0.3428447
1.378204,-0.408956,-0.2259945
1.367232,-0.4271434,-0.167494
1.497699,-0.3855127,-0.05415673
1.541261,-0.1419724,0.0002531076
1.580462,0.1552029,-0.001430316
1.547772,0.1480082,0.04393515
1.199045,-0.1190235,0.005897389
0.8505794,-0.3135073,0.006706154
0.8271699,-0.3918117,0.03685397
0.8769011,-0.3491856,-0.06580902
0.7829735,-0.2388474,-0.1033151
0.7665498,-0.206523,-0.07689068
0.8213639,-0.07982127,-0.0539503
0.6927132,0.1063228,-0.01518401
0.6041425,0.1806199,-0.03767332
0.6491696,0.1817713,-0.01806176
0.6938542,0.1207847,0.03279001
0.782203,0.1091626,0.03150185
0.7377247,0.09059605,-0.0734096
0.6961154,-0.05428958,-0.283674
0.8790598,-0.3303215,-0.3170194
1.104021,-0.6523062,-0.1491014
1.342751,-0.7035328,-0.0386412
1.540001,-0.5585581,-0.06786898
1.698348,-0.5052306,-0.09906998
1.815257,-0.5543945,-0.02182259
1.772996,-0.5885458,0.00494696
1.653371,-0.4536146,-0.004759816
1.367742,-0.2697422,0.0354803
1.018253,-0.1138284,0.03815128
0.8349732,0.0203735,0.06411743
0.6624873,0.01702548,0.1005409
0.5627849,-0.03394891,0.09787365
0.5581939,-0.07795229,0.078674
0.5038843,-0.100094,0.02356497
0.4816571,-0.09161822,-0.0004067259
0.4302936,-0.1583779,-0.02249123
0.3469422,-0.2518275,-0.0615135
0.3547488,-0.3188357,-0.03493417
0.4059948,-0.4059439,-0.01524856
0.5760575,-0.5133045,-0.02664656
0.858187,-0.5493953,-0.04784556
0.9827131,-0.493677,-0.1674887
1.071888,-0.4164855,-0.311729
1.372961,-0.2657553,-0.2666561
1.562618,-0.1326779,-0.1017101
1.582658,-0.1316729,-0.04502807
1.725345,-0.1556602,-0.02044207
1.731934,-0.1751664,0.05164953
1.506492,-0.1734664,0.04416896
1.313313,-0.1806893,0.01291874
1.164006,-0.2442526,0.02891194
1.073497,-0.2577628,-0.001159617
0.9549292,-0.2125773,-0.06699597
0.7638671,-0.1603071,-0.1158231
0.663064,-0.128736,-0.1359923
0.6144531,-0.1226026,-0.1001147
0.5688057,-0.0687664,-0.04630104
0.5209833,0.01920717,-0.01817863
0.483477,0.08284549,-0.02137756
0.5297582,0.08686175,-0.0432405
0.5993228,0.0444903,-0.04313556
0.6589773,0.002914244,-0.1125254
0.6899817,-0.1220688,-0.2856133
0.7938217,-0.4095337,-0.3403666
1.161151,-0.7500271,-0.1858631
1.532329,-0.8315306,-0.03645723
1.627017,-0.5536732,-0.05830825
1.673878,-0.3687571,-0.07443154
1.866798,-0.4844193,-0.02146823
1.942885,-0.5658852,-0.05791743
1.690779,-0.5158488,-0.04039613
1.339342,-0.4187439,0.03654673
1.123299,-0.2551161,0.04028173
1.076875,-0.171681,0.06469315
0.9733562,-0.1434706,0.06855357
0.6935805,-0.01090314,0.09041883
0.6046739,-0.03621187,0.1331297
0.6122264,-0.1483364,0.08111416
0.4117379,-0.07195109,0.04182033
0.2853293,-0.1167642,0.0004347371
0.2492622,-0.2467451,-0.03566991
1.088007,-0.2145642,0.07600052
0.9342002,-0.08033849,0.08947228
0.6122287,0.02752556,0.1702748
0.5280124,0.07462738,0.1602711
0.7566416,-0.1126342,0.108704
0.6162667,-0.1278812,0.09011334
0.6275321,-0.1010407,0.06032789
0.7485547,-0.1620657,0.04060701
0.5664782,-0.09587894,0.0372284
0.5507741,-0.1964462,0.02504109
0.4653575,-0.2836909,0.0760399
0.4468142,-0.3037844,0.1011093
0.7432622,-0.4084948,0.02874845
0.9609088,-0.390032,-0.03216045
1.143114,-0.4027755,-0.08345694
1.217044,-0.4270895,-0.1909556
1.323359,-0.413208,-0.3237348
1.403289,-0.3607181,-0.3046353
1.269282,-0.2068049,-0.1689513
1.402785,-0.2088765,-0.1039355
1.485441,-0.1810755,-0.02938081
1.344103,0.02516737,0.07236387
1.241982,0.1029589,0.1257186
0.9723464,-0.0182892,0.1085145
0.941308,-0.1628694,0.07697612
1.039463,-0.1357783,0.0781523
0.821058,-0.1269482,-0.05468016
0.6778273,-0.1469768,-0.1924121
0.657587,-0.0386003,-0.1534407
0.6797164,-0.0826753,-0.1369339
0.7255708,-0.1556363,-0.1483318
0.6890835,-0.1083864,-0.09309602
0.6035847,-0.08726116,-0.0008196601
0.3957043,0.06202196,0.07377846
0.3292573,0.2012187,0.08415415
0.5585211,0.1794853,0.05949907
0.7961988,0.1392795,-0.02741816
0.9478734,0.04239705,-0.1366701
0.9957535,-0.1272698,-0.1441333
1.116302,-0.4097704,-0.08966338
1.352825,-0.6828272,-0.07861931
1.390395,-0.6920872,-0.07319053
1.343012,-0.5832356,-0.03053852
1.484132,-0.5377479,-0.01576426
1.758193,-0.5495437,-0.01053869
1.90244,-0.5201407,-0.03903759
1.645082,-0.3530817,-0.09561143
1.224965,-0.1825764,-0.0386764
1.005932,-0.1115434,0.03171455
0.7856482,-0.1142638,0.05633125
0.5200191,-0.1568695,0.1244675
0.5046789,-0.192717,0.1167373
0.5409525,-0.2100198,0.04024943
0.4536202,-0.1741034,0.02004793
0.4746083,-0.1091031,0.007499271
0.4759164,-0.05733461,-0.0003951004
0.3620317,-0.0348013,0.006645044
0.3547906,-0.1100361,-0.0001157869
0.4039541,-0.199818,0.02259013
0.5173321,-0.2396644,0.04092146
0.784725,-0.3430976,-0.00470293
1.074317,-0.4590732,-0.1334509
1.338717,-0.4646205,-0.2916063
1.506275,-0.4012783,-0.3079661
1.496662,-0.3280445,-0.2336177
1.555791,-0.2676448,-0.1507465
1.831065,-0.2381318,-0.02257239
1.895338,-0.1792552,0.01423313
1.562859,-0.06629071,0.02139536
1.278903,-0.02863521,0.03389383
1.175447,-0.129575,-0.05531796
1.114338,-0.255148,-0.04175134
1.00428,-0.2875472,-0.009975617
0.8165438,-0.2062374,-0.05564058
0.6880187,-0.07456033,0.002427426
0.5627272,0.0212187,-0.00948605
0.4598433,0.06059836,-0.05820778
0.430801,0.06316969,-0.05050072
0.4471905,0.04313471,-0.102568
0.6439673,0.01854913,-0.0599257
0.8241111,-0.002863977,0.03610551
0.797343,0.03055622,0.03936784
0.6797855,0.07195359,-0.1142985
0.6199046,-0.06493525,-0.3439651
0.7814057,-0.3970351,-0.2792746
1.11642,-0.7671314,-0.06227805
1.493795,-0.8811481,0.007701884
1.758834,-0.6392834,0.01711011
1.923312,-0.4655429,0.01490898
2.010495,-0.4729058,0.07810599
1.825811,-0.3313758,0.07105336
1.526436,-0.1385588,-0.03515399
1.168384,-0.1089284,-0.006464363
0.7973854,-0.1328342,0.01009963
0.7038728,-0.1613178,0.02190132
0.6623577,-0.2338727,0.08474385
0.6041968,-0.2599315,0.04429585
0.6179936,-0.2010378,0.03153439
0.5640016,-0.1332169,0.01102472
0.5605198,-0.08951486,-0.03955987
0.5197049,-0.1134717,-0.009217332
0.4431202,-0.2039501,-0.002605587
0.51203,-0.3083293,0.02482882
0.5902674,-0.4072113,0.05110194
0.7790011,-0.4585201,0.04024306
1.019562,-0.4828884,0.07339269
0.9860876,-0.4034629,0.00806065
1.024544,-0.2553569,-0.2339558
1.425251,-0.3792478,-0.4610652
1.647216,-0.5734262,-0.3854355
1.526512,-0.5155906,-0.1753684
1.533187,-0.3897634,-0.1588836
1.603372,-0.184809,-0.1046414
1.552402,-0.04399005,0.006787466
1.493784,-0.1114975,0.04189451
1.365,-0.1213368,0.06608072
1.230945,-0.1637442,-0.01631176
1.13378,-0.2394015,-0.05184388
0.9080237,-0.1695391,-0.04975644
0.6894575,-0.1178489,-0.1397643
0.6675558,-0.1045685,-0.1419617
0.7094601,-0.1051523,-0.1614947
0.7197442,-0.1263134,-0.1457698
0.7306553,-0.09173272,-0.03010655
0.6632813,-0.0292572,0.00289625
0.5461656,0.06215092,0.04283722
0.5402861,0.1200055,0.04869495
0.6063042,0.1142318,0.07803898
0.639718,0.1229766,0.1518601
0.6713171,0.08592595,0.04698155
0.7381697,0.00964781,-0.09828963
0.8126433,-0.09223566,-0.2344282
0.9137491,-0.3549779,-0.3504439
1.139632,-0.7023366,-0.3183566
1.412877,-0.8445654,-0.2028951
1.522007,-0.7189988,-0.03972261
1.601968,-0.6005148,0.05439725
1.812766,-0.574712,0.06075218
1.853642,-0.3978659,0.01251072
1.622373,-0.1636259,-0.1008332
1.392066,-0.1361838,-0.04755944
1.208011,-0.1520881,0.05164019
0.9730523,-0.08918631,0.03069159
0.7420677,-0.1105437,0.09282205
0.6197433,-0.1767226,0.1057358
0.5436427,-0.1790444,0.03093135
0.4564879,-0.1867269,0.01006783
0.4480367,-0.1812928,-0.0363624
0.4757004,-0.1550042,-0.02333016
0.5030591,-0.1619954,0.0376843
0.5566645,-0.1630629,0.05538872
0.5758464,-0.1890659,0.07205307
0.5840258,-0.2252263,0.0555485
0.5873275,-0.2597455,0.05328825
0.6041643,-0.3651599,0.01445866
0.7345706,-0.4273648,-0.08727654
0.9426374,-0.3944794,-0.161061
1.161787,-0.3480326,-0.2887665
1.35726,-0.3024848,-0.3620404
1.475144,-0.2946299,-0.2991779
1.624156,-0.3272369,-0.2199599
1.80528,-0.313346,-0.06759105
1.618077,-0.1619424,0.1134505
1.27534,-0.009124835,0.1919277
1.314607,-0.07033442,0.1145558
1.232455,-0.2087283,-0.02432742
1.004076,-0.26259,-0.02106977
1.020737,-0.2834615,-0.05826773
0.7982411,-0.2475217,-0.1775478
0.632142,-0.1845148,-0.1167703
0.6298374,-0.1059294,-0.08024105
0.281982,0.05482762,-0.1170488
0.2255897,0.0944684,-0.07597433
0.4067146,0.03603425,-0.09416457
0.4096128,0.085425,-0.07945431
0.6459084,0.03429535,-0.04092586
0.769775,-0.07044911,-0.1262285
0.7007227,-0.1147828,-0.2401513
0.8761149,-0.3733023,-0.307205
1.107136,-0.7070139,-0.1904481
1.370169,-0.7556712,-0.04451185
1.695042,-0.576442,-0.1079946
1.89681,-0.4674674,-0.1073872
1.946957,-0.5360928,-0.05107868
1.805335,-0.544211,-0.1080698
1.428582,-0.3844435,-0.05057838
0.9200321,-0.1811227,0.07591913
0.6170998,-0.0007452261,0.1061033
0.6229516,0.08453494,0.1131024
0.6116393,0.06915667,0.07621165
0.5785243,0.0234362,0.03918976
0.5838116,-0.04169983,0.01918651
0.4764195,-0.1110207,-0.03954997
0.3936157,-0.223847,-0.02743617
0.3605543,-0.3631759,-0.007359806
0.3547625,-0.394657,-0.01452574
0.5534153,-0.4257992,0.0120702
0.8321082,-0.512115,-0.07639435
1.052594,-0.4596572,-0.2243123
1.273507,-0.3867705,-0.2870091
1.463136,-0.410389,-0.2616893
1.525629,-0.3907733,-0.1980302
1.616536,-0.3452415,-0.1759819
1.823171,-0.1961393,-0.09400263
1.70806,0.0472252,0.004439178
1.385085,0.07787777,-0.0009497754
1.216264,-0.05697032,0.04782568
1.047658,-0.154989,0.1060067
1.012119,-0.2085456,0.01962161
0.9414086,-0.1701303,-0.06605727
0.7477983,-0.09546554,-0.08077255
0.7133009,-0.05071898,-0.1178891
0.6012562,0.01583189,-0.1205319
0.5533382,0.05904559,-0.09933896
0.6038636,0.07707806,-0.1391441
0.5968091,0.09131296,-0.1381249
0.7545575,0.03714565,-0.0799961
0.7840426,0.005219677,-0.0108239
0.7423041,0.05124816,0.05341419
0.8233626,0.07521698,0.03263962
0.7848657,0.03702721,-0.03521467
0.7541817,-0.1288337,-0.1066332
0.7631597,-0.3685233,-0.1648331
0.960441,-0.6058201,-0.2351594
1.395852,-0.8935037,-0.374542
1.683115,-0.9506418,-0.3776989
1.854169,-0.7056864,-0.2229404
1.921476,-0.5520188,-0.1275702
1.751649,-0.3682145,-0.06576707
1.553145,-0.1441249,-0.04981809
1.463605,-0.2002426,-0.0206467
1.284826,-0.2462715,0.06713151
0.9952025,-0.2164433,-0.005034649
0.8659691,-0.2617422,-0.1091969
0.7939617,-0.2356713,-0.08928101
0.6593506,-0.2931209,-0.07929011
0.5597307,-0.4058207,-0.02987999
0.4314066,-0.4341397,0.0288892
0.4149283,-0.4183899,0.04070519
0.5178949,-0.3050182,0.08627079
0.5373546,-0.2103123,0.09920654
0.5709267,-0.1356361,0.05518739
0.6330758,-0.09820439,0.02168857
0.720676,-0.1363783,0.02140096
0.8511476,-0.08228212,0.04805917
0.8791062,-0.01681872,0.06890948
0.9032167,0.04882364,0.08548664
0.969809,0.08874945,0.1129439
0.9438241,0.006708631,0.1457152
0.9003757,-0.02313524,0.1656818
0.8762678,-0.05343177,0.1594773
0.8920185,-0.1794148,0.02686979
1.006369,-0.4294605,-0.3276643
1.137926,-0.7934959,-0.5997533
1.2094,-0.9024697,-0.4929576
1.242935,-0.7402897,-0.3362615
1.445698,-0.644198,-0.3582824
1.709437,-0.5506239,-0.2834168
1.598068,-0.3504698,-0.07646274
1.404366,-0.2181841,0.07741004
1.418582,-0.2084013,0.03736989
1.311799,-0.1865379,-0.1015242
1.186486,-0.1983908,-0.02070026
1.10489,-0.2582461,0.02254612
0.9540762,-0.2302775,-0.06695606
0.8732207,-0.1904181,-0.002423559
0.6425096,-0.1678364,-0.04443638
0.4694812,-0.111456,-0.08214496
0.6381688,-0.1037898,-0.01131944
0.6525207,-0.06746626,-0.06002742
0.6235993,0.004480813,-0.01929582
0.6915602,0.001439076,0.005859996
0.6253261,0.05249979,0.00851324
0.669352,0.1202936,0.08045019
0.7105216,0.07550303,-0.01635756
0.6807453,0.04932161,-0.07376943
0.7598998,0.02497121,-0.04022802
0.7990318,-0.05159801,-0.1064023
0.9017004,-0.1862634,-0.2385151
1.130234,-0.5675522,-0.330114
1.343723,-0.9144752,-0.2153063
1.509468,-0.7933754,-0.09440682
1.707299,-0.6536946,-0.1127694
1.902626,-0.6611158,-0.05677987
1.764402,-0.3532742,0.02484662
1.48097,-0.1337503,0.0008311545
1.281521,-0.2573498,-0.01799376
1.039655,-0.2381699,0.0488836
0.9404665,-0.1942753,0.07566315
0.7894508,-0.2121478,0.03926853
0.5785598,-0.1513062,0.0309758
0.5783178,-0.1706232,0.03300887
0.5236044,-0.1698293,0.04803443
0.5324163,-0.1152742,0.07144827
0.5789928,-0.1152184,0.08918707
0.5019993,-0.1148791,0.07558157
0.5426704,-0.1281906,0.036106
0.540289,-0.1609899,0.04573454
0.588008,-0.2673257,0.03263291
0.8006523,-0.4010282,-0.00234215
0.9487415,-0.3973584,-0.01487921
1.068516,-0.3624426,-0.1191984
1.09529,-0.3985118,-0.2508498
1.150721,-0.4049831,-0.2889265
1.260075,-0.3820299,-0.2665451
1.253879,-0.3782581,-0.2422945
1.417379,-0.3396036,-0.2288255
1.632235,-0.2405938,-0.1377835
1.528901,-0.06446783,0.003107405
1.354844,0.07880531,0.02603461
1.278538,-0.02068386,-0.02363501
1.109503,-0.180966,-0.009570642
0.9582931,-0.2184274,-0.01210249
0.8994073,-0.2517336,-0.06654469
0.7339634,-0.205592,-0.08597767
0.6348834,-0.09834377,-0.08794124
0.6205673,-0.05489849,-0.05419712
0.532156,0.02064502,-0.003333458
0.5416176,0.08446749,-0.003460043
0.6045937,0.08191137,-0.00572392
0.6879423,0.05671345,-0.01027889
0.7631425,-0.00260422,-0.02970518
0.7241858,-0.05800203,-0.1050313
0.7719321,-0.2194167,-0.236138
0.9271582,-0.4733387,-0.2370664
1.140431,-0.5699429,-0.09932977
1.412101,-0.5775109,-0.009839128
1.628157,-0.5949379,-0.04253998
1.885851,-0.5724939,-0.07127471
2.021704,-0.5550862,-0.001591221
1.739019,-0.437974,0.02531179
1.338846,-0.2355707,0.002822812
1.078607,-0.202753,0.03672415
0.9220021,-0.2372925,0.08755111
0.8926092,-0.1774312,0.1277156
0.8254079,-0.1577998,0.1149163
0.6987956,-0.1533705,0.06473644
0.6237497,-0.1044286,0.02847725
0.541915,-0.08959494,-0.02486363
0.5507487,-0.09337888,-0.05060152
0.5167326,-0.1307635,-0.04873996
0.4082104,-0.1989409,-0.05425739
0.4807671,-0.2459924,-0.03481049
0.5202508,-0.335709,-0.02473047
0.5526548,-0.4051316,-0.02949286
0.744592,-0.3551538,-0.03022549
0.8675845,-0.3203404,-0.04357315
0.9120167,-0.3277709,-0.09438819
1.03735,-0.3249207,-0.205874
1.266727,-0.3627975,-0.2874777
1.302431,-0.3555401,-0.2632817
1.275365,-0.2982608,-0.1789114
1.620273,-0.2808715,-0.1146206
1.818445,-0.2423258,-0.1144549
1.529657,-0.1639081,-0.06673793
1.189296,-0.08436689,0.04302233
1.098198,-0.1389974,0.02301773
1.118,-0.2809561,-0.05394257
0.9715262,-0.2477387,-0.05689344
0.8809046,-0.1602354,-0.1280667
0.8117596,-0.1083469,-0.1888726
0.6405294,-0.05492545,-0.1175441
0.6503982,-0.0761899,-0.06361631
0.6164401,-0.02747217,-0.02213919
0.5128058,0.03475404,0.001503875
0.538357,0.02553112,-0.04668969
0.6100768,0.05757924,-0.051586
0.7394106,0.0295618,-0.03094815
0.733852,-0.02048008,-0.06026794
0.7121604,-0.1157248,-0.1811093
0.9259012,-0.373666,-0.3024062
1.228542,-0.6008529,-0.1776945
1.500102,-0.6918891,-0.03010693
1.590838,-0.6624389,-0.1290692
1.717447,-0.6329833,-0.1497335
1.9221,-0.6553647,-0.01404438
1.730576,-0.4819742,0.02337682
1.370031,-0.2117362,-0.003263564
1.120513,-0.1211947,-0.0176546
0.9102131,-0.1196731,0.01813189
0.8392798,-0.1251741,0.09951337
0.7126545,-0.1435277,0.1207311
0.5722301,-0.1401719,0.08827356
0.5784267,-0.1326684,0.02686737
1.629105,-0.3859213,-0.1415427
1.902036,-0.2798235,-0.09666494
1.64731,-0.02385322,-0.01230191
1.314655,0.1636472,0.05469149
1.206572,0.05787185,0.07233634
1.15629,-0.08495703,0.04840897
1.030408,-0.09775898,0.03282907
0.9336842,-0.1409536,0.01659233
0.8044783,-0.1222311,-0.05745272
0.638544,-0.06863442,-0.09366128
0.6040824,-0.09586997,-0.09047879
0.6458074,-0.04951512,-0.0914301
0.6509578,0.02154555,-0.03640736
0.591325,0.0578471,-0.003049417
0.5585189,0.09879279,-0.01363647
0.6104495,0.06416618,-0.02175825
0.6907886,0.005201221,-0.05387558
0.7744636,-0.1158708,-0.1367651
0.834734,-0.3581801,-0.2557343
1.035365,-0.6277845,-0.2573613
1.375143,-0.7761325,-0.1049042
1.514066,-0.6147416,0.01697717
1.543768,-0.4349561,-0.02238276
1.740995,-0.4740644,-0.09781171
1.854754,-0.4599634,-0.05890828
1.600297,-0.4094333,-0.03743353
1.16964,-0.3207693,-0.02128037
0.8431146,-0.1347784,0.01999619
0.7579917,-0.06351622,-0.00757017
0.7718164,-0.09436421,0.05367187
0.6232331,-0.1135065,0.1231945
0.549993,-0.08927953,0.07879928
0.6136035,-0.05746384,0.07491334
0.534619,-0.04380173,0.0674745
0.5098281,-0.0216139,0.0292702
0.5106303,-0.1007649,-0.02204351
0.4008468,-0.2129052,-0.06333848
0.4380103,-0.2797338,-0.00866214
0.5333821,-0.3893687,0.01006206
0.7283767,-0.4804849,-0.1082792
1.175295,-0.5250407,-0.246687
1.4426,-0.4807596,-0.2967173
1.434991,-0.386217,-0.3001192
1.505827,-0.3588945,-0.2773354
1.656101,-0.3203986,-0.1471766
1.714726,-0.2444707,-0.024909
1.613332,-0.110274,-0.01444202
1.431336,-0.005242242,-0.01447565
1.294528,-0.0532997,-0.003948916
1.136174,-0.07482158,-0.02644085
0.948395,-0.07781583,-0.06218948
0.8629266,-0.1487582,-0.08735692
0.8060817,-0.1556547,-0.1084575
0.7162819,-0.120179,-0.06990905
0.6203666,-0.07132076,0.01581489
0.4812997,0.024254,0.03077288
0.4297474,0.09219443,0.001295294
0.5379653,0.08812808,-0.02273086
0.6567707,0.03428794,-0.04990007
0.6946401,-0.02886058,-0.1110617
0.6697205,-0.1129567,-0.2412519
0.7199082,-0.3055359,-0.3275193
0.9940341,-0.5895216,-0.2785537
1.381462,-0.7623164,-0.1500903
1.522191,-0.6758726,-0.04870694
1.454294,-0.4646693,-0.03708436
1.601395,-0.3702108,-0.04662783
1.774529,-0.4505359,-0.03357936
1.644862,-0.5321016,-0.03056321
1.331335,-0.4205747,-0.002029593
0.8659568,-0.2176644,0.04450044
0.5726261,-0.06463991,0.03408804
0.6556165,0.06701695,0.05043695
0.6898223,0.06269414,0.1129925
0.6721039,0.002409048,0.124104
0.6535115,0.02928886,0.1175884
0.5072012,-0.0532633,0.04238414
0.4866904,-0.2126171,-0.0630951
0.5046954,-0.3752457,-0.072272
0.5036947,-0.5328869,-0.05255058
0.7699088,-0.5864191,-0.04345311
1.065626,-0.6271207,-0.1236201
1.094455,-0.5198461,-0.2605174
1.114114,-0.2847833,-0.3063043
1.330115,-0.2322492,-0.2736432
1.499594,-0.252294,-0.1786587
1.68219,-0.2410477,-0.1232704
1.891729,-0.1502816,-0.1087974
1.550621,0.04154229,0.03021497
1.079649,0.106218,0.1961055
1.146949,-0.01019092,0.1596586
1.202071,-0.1372136,0.008937866
1.051427,-0.1138942,-0.04345042
0.9300143,-0.04920891,-0.08880226
0.7855438,-0.0493417,-0.1054383
0.7320853,-0.02089338,-0.056817
0.7258659,-0.02644406,-0.08139723
0.6363894,-0.001146113,-0.03683744
0.6097367,0.06500051,-0.001046434
0.6699222,0.03832023,-0.0757202
0.7018859,0.04329645,-0.08273641
0.7342965,0.05121475,-0.07848427
0.7772903,-0.008263776,-0.03469451
0.785901,-0.04098429,0.02196697
0.7555102,-0.0603391,-0.01454946
0.7095832,-0.1293542,-0.09605205
0.8150568,-0.3538606,-0.2679636
1.115642,-0.6710115,-0.3795071
1.405089,-0.8421666,-0.33317
1.567703,-0.7981734,-0.27821
1.614585,-0.6631237,-0.1834274
1.619777,-0.5389239,-0.06837326
1.618067,-0.4199827,-0.08731224
1.617446,-0.3858344,-0.1254631
1.564588,-0.3916288,-0.03637642
1.370559,-0.332303,-0.01413262
1.208325,-0.3343135,-0.05386933
1.129985,-0.3248394,-0.0284302
1.002982,-0.2715951,-0.05348644
0.8715514,-0.3033092,-0.05047331
0.7285695,-0.2972923,0.001670928
0.5762089,-0.2491843,0.0221952
0.4705951,-0.2011938,0.04550835
0.4211783,-0.1321318,0.05106824
0.4252236,-0.1317261,0.0942886
0.4459238,-0.1478162,0.09758118
0.4763697,-0.1480712,0.05334556
0.5308082,-0.1647126,0.08088094
0.6673571,-0.1696595,0.07115462
0.8360685,-0.1726605,0.06881561
0.9242279,-0.1386721,0.0914114
0.9757524,-0.07479448,0.08618796
0.9859972,-0.04892314,0.1344986
0.9623759,-0.06363537,0.1446354
0.9627627,-0.08705012,0.1017218
0.9716872,-0.1767554,-0.01161
1.017175,-0.4548272,-0.2491958
1.081636,-0.6800944,-0.3996635
1.163262,-0.4986435,-0.3929029
1.454361,-0.2059442,-0.3064528
1.858889,-0.1716496,-0.1893247
1.817836,-0.2142489,-0.1274673
1.333018,-0.2295925,-0.03661467
1.073915,-0.2667566,0.08467312
1.209071,-0.302847,0.0493921
1.31705,-0.3829556,-0.03053824
1.144641,-0.3824244,-0.0239891
0.896654,-0.2432003,-0.06333065
0.6912162,-0.109236,-0.08550732
0.4975022,-0.005580774,-0.05007976
0.4991885,0.03578869,-0.05461143
0.5007657,0.05817825,-0.02953453
0.4141869,0.07355684,-0.02519775
0.4825042,0.0388043,-0.06098294
0.5190368,0.03466354,-0.07337769
0.5983264,-0.01463317,-0.126923
0.7665732,-0.1225495,-0.1357354
0.8703637,-0.272889,-0.1273079
1.131928,-0.5023777,-0.1660476
1.444171,-0.5769371,-0.0927995
1.687002,-0.4975923,-0.01719115
1.850956,-0.4905757,-0.06469607
1.794907,-0.5312988,-0.07098524
1.69892,-0.5455907,0.01936127
1.532341,-0.4972724,0.1265582
1.15455,-0.3396782,0.1677606
0.8421648,-0.07442842,0.1080481
0.7900062,0.09326314,0.03297513
0.7903836,0.04361944,0.02237154
0.6629769,-0.01576208,0.04434471
0.5431947,-0.04874052,0.05723729
0.4448143,-0.09820335,0.04116474
0.3520551,-0.1154993,0.00766392
0.3874126,-0.2006796,-0.002871823
0.5112056,-0.3477168,-0.01304029
0.7028435,-0.4802972,-0.02005351
0.8619054,-0.5474707,-0.02067656
0.8788499,-0.4941487,-0.0797875
0.9636425,-0.4794143,-0.1957479
1.18384,-0.5166734,-0.3086311
1.32685,-0.4590874,-0.3216269
1.299421,-0.337728,-0.1932313
1.298782,-0.169673,-0.02440555
1.435425,-0.114144,0.04939128
1.494731,-0.1809613,0.01264047
1.526497,-0.09106364,0.03511741
1.539138,-0.01351061,0.1065517
1.291979,-0.1028417,0.07598622
1.030387,-0.193365,0.06221066
0.9566506,-0.2621363,0.07773213
0.9696875,-0.2132992,-0.01347001
0.959965,-0.100083,-0.115455
0.8395485,-0.08105076,-0.1354696
0.7959307,-0.04747198,-0.09890831
0.7420695,-0.01935392,-0.03912406
0.593716,-0.03472137,0.01136136
0.5696271,-0.01082232,0.02523677
0.5721158,0.01769751,0.01258387
0.6276357,0.06654005,0.02002017
0.7249959,0.124641,-0.02293278
0.7470418,0.1093942,-0.1341736
0.7989062,-0.002871242,-0.2021001
0.8643413,-0.2681355,-0.2100023
1.015038,-0.566328,-0.1450009
1.214611,-0.6176169,-0.07692971
1.423279,-0.4592762,-0.07149733
1.643717,-0.3890542,-0.03477782
1.637246,-0.4923767,0.004143906
1.712752,-0.5733495,0.01783276
1.893157,-0.5228703,0.04218257
1.533703,-0.3843775,0.03327675
0.9954445,-0.1719184,0.005438422
0.8694568,-0.04431572,0.007124322
0.8392511,-0.1161828,0.04591493
0.6992327,-0.1803035,0.06770736
0.6177252,-0.2094505,0.04775046
0.5826558,-0.269029,0.03776442
0.5226321,-0.222128,0.04246946
0.4998328,-0.1855377,0.0484176
0.5097525,-0.2354834,0.04027548
0.5108128,-0.2466929,0.007104449
0.5783039,-0.3235915,-0.03750325
0.7294164,-0.4545682,-0.0483448
0.8663593,-0.4916903,0.02145539
0.8870137,-0.4102081,0.04692133
0.9193814,-0.3041904,-0.1169958
1.269354,-0.3397482,-0.3157971
1.627559,-0.3970958,-0.2920342
1.499955,-0.3643075,-0.1097518
1.379906,-0.2939426,-0.01008623
1.638317,-0.144321,-0.02285718
1.747835,-0.07485491,-0.04884923
1.634959,-0.1063883,-0.01943842
1.48831,-0.120396,0.008335382
1.192789,-0.2409505,-0.01736257
1.034582,-0.3447989,-0.01419241
1.065526,-0.3152858,-0.03577126
0.9821841,-0.2425437,-0.1124578
0.9048589,-0.1224345,-0.1617784
0.8651092,-0.08180426,-0.1647947
0.7947559,-0.1038432,-0.1209431
0.7275604,-0.06394062,-0.1113762
0.6688136,-0.0627511,-0.08075791
0.596321,-0.06464998,-0.002837723
0.4052109,-0.003375141,-0.01803033
0.3403365,0.03258846,-0.04170817
0.5325811,0.03425784,-0.04385686
0.734258,0.04156334,-0.05116953
0.8988656,0.06998573,-0.02529905
0.881634,0.1254556,-0.02175114
0.7357428,0.1438694,-0.03221476
0.7661787,-0.04592266,-0.161383
1.030101,-0.5029877,-0.3692831
1.379985,-0.9752991,-0.3689471
1.386876,-1.108043,-0.2374309
1.217678,-0.8389166,-0.1118825
1.36427,-0.5818623,0.02603604
1.616741,-0.5700709,0.03863722
1.832367,-0.4389501,-0.05504152
1.737044,-0.197968,-0.08041034
1.344873,-0.163528,-0.07344911
1.248346,-0.1236996,-0.06378547
1.135068,-0.06089431,-0.01582826
0.9059868,-0.1597809,0.02114913
0.8226638,-0.2337956,0.02816772
0.5993608,-0.2603409,-0.006527026
0.5275831,-0.2587345,-0.04189379
0.5772472,-0.2060076,-0.03615782
0.4551565,-0.2293525,-0.0399198
0.486902,-0.2332228,-0.03235005
0.5713263,-0.2005612,-0.003158078
0.6108849,-0.2015884,0.02627866
0.6133869,-0.1692374,0.03554202
0.5311656,-0.2074677,0.02027334
0.5504057,-0.2942646,0.04817964
0.5765971,-0.3273773,0.05927732
0.6566743,-0.3630474,0.001808371
0.8200828,-0.3674623,-0.04116802
0.8841677,-0.3570991,-0.06781367
1.041034,-0.359594,-0.1518672
1.2469,-0.3460905,-0.2610572
1.237708,-0.3284006,-0.2315404
1.245846,-0.2973592,-0.1532367
1.576483,-0.306231,-0.1804465
1.840195,-0.296709,-0.1522978
1.534118,-0.1492073,-0.04105683
1.162401,-0.03554776,0.04596033
1.223086,-0.1450605,0.03548616
1.235357,-0.2981846,-0.06239375
1.035697,-0.2684295,-0.1007996
0.9459436,-0.2020875,-0.1545047
0.8741819,-0.1751943,-0.2007092
0.812001,-0.09055224,-0.1363639
0.806477,-0.04723895,-0.1016905
0.6899279,-0.008112332,-0.0430759
0.5804217,0.05406868,-0.007347437
0.5583626,0.03960158,-0.05455178
0.6033852,0.04014357,-0.007300799
0.6969027,0.04356514,0.03092755
0.7100444,0.02270273,0.01380596
0.7350287,0.01875505,-0.03445787
0.7569157,-0.04733728,-0.1561738
0.7658053,-0.2130824,-0.2117923
0.9182233,-0.4242786,-0.2303814
1.114308,-0.5198792,-0.2008722
1.285675,-0.5110354,-0.06896366
1.343767,-0.4814235,-0.01519881
1.367558,-0.4070064,-0.02239205
1.642553,-0.4971819,-0.01037881
1.861175,-0.6187061,0.0004008042
1.720226,-0.4811027,0.01456218
1.423716,-0.3299576,-0.02693335
1.106392,-0.1957184,-0.06361851
0.9194076,-0.07802429,-0.01301172
0.8667487,-0.1700448,0.07198357
0.6886226,-0.2491786,0.1324738
0.5451677,-0.2264454,0.1005232
0.599661,-0.2304291,0.02102856
0.6100117,-0.1955633,-0.01934359
0.6204107,-0.1489825,-0.03815266
0.6303344,-0.128024,-0.03318807
0.5410672,-0.1260068,-0.02463402
0.4749254,-0.1901515,-0.007634655
0.3660113,-0.2560126,0.03484003
0.4194293,-0.2573648,0.02435772
0.7840081,-0.2396843,0.008746915
1.024872,-0.2358061,0.03962157
0.9779617,-0.2294968,0.02941598
0.9401451,-0.2342753,-0.03026623
1.215312,-0.2847775,-0.1469685
1.454708,-0.3403312,-0.2425912
1.371207,-0.3930979,-0.1755435
1.497236,-0.4820509,-0.04807351
1.761149,-0.4845837,0.02083871
1.826905,-0.2801456,-0.003922775
1.890423,-0.03614823,-0.07475994
1.725837,0.02096354,-0.04348306
1.289824,-0.05718557,-0.0003672303
1.118203,-0.1764886,0.01997776
1.101114,-0.3271649,0.08787313
0.9276713,-0.3225677,0.007532477
0.8445761,-0.1818962,-0.1284337
0.786477,-0.146568,-0.1097092
0.681836,-0.1248571,-0.0911989
0.693282,-0.08314828,-0.0695385
0.6330908,-0.06788916,0.004530324
0.5542045,0.02425794,0.0162102
0.5282417,0.08148183,-0.02143314
0.5203985,0.08147991,-0.03900798
0.6267108,0.08186759,-0.0115977
0.67955,0.02970068,-0.03350065
0.7094109,-0.06254093,-0.2215235
0.8182818,-0.3472453,-0.3935958
1.058068,-0.7440024,-0.2711295
1.408054,-0.870887,-0.04048974
1.491843,-0.7138511,0.003512934
1.468137,-0.5432574,0.02713201
1.600293,-0.5134446,0.07896286
1.638702,-0.5099827,0.04999683
1.599873,-0.4491302,0.04142651
1.493487,-0.3541444,0.03750206
1.198953,-0.2237155,0.0402696
0.9511274,-0.1360425,0.05462109
0.9065811,-0.1205818,0.05066508
0.8066181,-0.1765674,0.1091325
0.648593,-0.2114067,0.1299864
0.6596651,-0.1820737,0.08311219
0.6369761,-0.1762915,0.0644745
0.5461942,-0.1072771,0.07819297
0.5303297,-0.05914563,0.1039642
0.4360007,-0.1144388,0.05414639
0.4038368,-0.1745967,0.003236501
0.5291797,-0.3048323,0.00369292
0.6887828,-0.4129066,-0.01565853
0.9163911,-0.4252269,-0.02808964
1.037681,-0.4338985,-0.116892
1.129149,-0.4233926,-0.2526587
1.303533,-0.3942923,-0.2951866
1.276447,-0.3641982,-0.2661605
1.346031,-0.3583767,-0.1212581
1.673025,-0.3087515,0.0575779
1.782241,-0.1657046,0.02204743
1.723936,-0.07458839,-0.0524239
1.586722,-0.07796119,0.03897384
