accx,accy,accz
0.6287025,-0.1313898,-0.05737743
0.541255,-0.1321459,-0.04724344
0.5599107,-0.2790946,-0.08270012
0.588819,-0.3573303,-0.088033
0.560752,-0.3881995,-0.081445
0.6963663,-0.529789,-0.1028518
0.7521053,-0.5786453,-0.2796773
1.010072,-0.6219411,-0.5696425
1.486746,-0.5818599,-0.7316954
1.795786,-0.5068316,-0.7776697
1.938553,-0.5266346,-0.7336526
1.770183,-0.5164612,-0.4300695
1.407802,-0.5330609,0.005104002
1.156356,-0.4349079,0.1280045
1.090184,-0.2334296,-0.1345985
1.135328,-0.165506,-0.3691449
1.041193,-0.1892769,-0.3873558
0.8136693,-0.2551795,-0.309154
0.6437006,-0.281729,-0.1963271
0.539011,-0.2730972,-0.1458481
0.5074637,-0.2594346,-0.1499092
0.5920745,-0.2053649,-0.1562313
0.6952148,-0.1690318,-0.2024715
0.7227047,-0.1305362,-0.1809972
0.6921642,-0.1079742,-0.1454134
0.6493131,-0.09010214,-0.1714298
0.6351774,-0.07315934,-0.1289626
0.6045186,-0.1289723,-0.1061504
0.5888718,-0.1640172,-0.1465392
0.642119,-0.2016866,-0.2052164
0.7171161,-0.3279292,-0.3187919
0.9221484,-0.519276,-0.3814318
1.305224,-0.7240067,-0.3628179
1.691594,-0.8536952,-0.3436822
1.891237,-0.9240654,-0.3403861
1.820342,-0.8448802,-0.3306247
1.570953,-0.6186408,-0.3141297
1.283689,-0.5085507,-0.2668773
1.089936,-0.5075288,-0.1251522
0.9523531,-0.4597887,-0.003316335
0.7834733,-0.317369,0.005638476
0.704339,-0.1719606,-0.03164959
0.6431642,-0.1324234,-0.0718435
0.572284,-0.1201108,-0.08719758
0.6203785,-0.12797,-0.1151089
0.6091163,-0.1498456,-0.1324147
0.5528494,-0.1822557,-0.1086567
0.5399008,-0.2913455,-0.0975528
0.4900119,-0.3441506,-0.0763039
0.5336129,-0.3419366,-0.07579013
0.6288402,-0.3855784,-0.09421008
0.6841415,-0.3844226,-0.08117328
0.6943958,-0.3441341,-0.07780464
0.6420481,-0.2814907,-0.04920277
0.6716828,-0.2005024,-0.03564968
0.7412317,-0.2367951,-0.1726846
1.008681,-0.3712446,-0.3867106
1.585996,-0.4891984,-0.5598491
1.90121,-0.6057469,-0.732832
1.866032,-0.6670037,-0.7879932
1.791241,-0.6706347,-0.4810051
1.521945,-0.6334052,-0.01210632
1.138832,-0.4218206,0.174574
1.054151,-0.1868184,-0.005733014
1.17284,-0.08558712,-0.2697691
1.090747,-0.09018725,-0.3851977
0.9222272,-0.2320772,-0.3887661
0.8202953,-0.3210453,-0.2727281
0.6874103,-0.3105676,-0.1444019
0.6542807,-0.2562308,-0.1750078
0.6473362,-0.1340929,-0.1934825
0.618982,-0.08080983,-0.1797807
0.697744,-0.008054774,-0.180398
0.7112356,0.03871432,-0.1388836
0.6987617,-0.05486512,-0.1561996
0.7377121,-0.1160577,-0.1891171
0.7443571,-0.1752064,-0.212268
0.7646559,-0.2109929,-0.2133905
0.7283153,-0.2247113,-0.107957
0.699326,-0.2704101,-0.00735845
0.7547448,-0.2160492,0.00304929
0.8066331,-0.1731826,-0.07927219
0.8631348,-0.2064177,-0.1672751
0.8669703,-0.2449285,-0.2012307
0.8682981,-0.3402588,-0.2374431
0.9975479,-0.5199469,-0.2151192
1.225645,-0.810187,-0.1512465
1.453458,-0.9608919,-0.165011
1.689554,-0.8120233,-0.3674714
1.975653,-0.6639905,-0.6412702
1.932751,-0.5660331,-0.6011356
1.542383,-0.4991232,-0.346152
1.263287,-0.504756,-0.1382456
1.044501,-0.4038704,0.0230918
0.9976132,-0.3019707,-0.04215611
0.9837373,-0.1882016,-0.1617695
0.6982413,-0.01957394,-0.1288653
0.6568856,-0.06969255,-0.1870884
0.6379294,-0.09630356,-0.2066606
0.4883696,-0.1161761,-0.1752983
0.6456818,-0.3601768,-0.2266846
0.6465745,-0.4127253,-0.1459642
0.6030838,-0.323264,-0.07317737
0.6836633,-0.284489,-0.07570252
0.5922677,-0.2182345,-0.042062
0.661962,-0.2393243,-0.06013951
0.73062,-0.2713281,-0.04342438
0.7290936,-0.3040846,-0.03731486
0.789822,-0.3341834,-0.0882839
0.7300446,-0.3169764,-0.1042486
0.7653972,-0.3484989,-0.08157183
0.7717965,-0.3552821,0.02445986
0.698243,-0.3719676,0.03599967
0.804919,-0.4803402,-0.2519787
1.165337,-0.672035,-0.6450456
1.684364,-0.8637153,-0.8010809
1.736252,-0.8472633,-0.775316
1.545304,-0.7578817,-0.7042212
1.631119,-0.677819,-0.3875659
1.500695,-0.4284913,-0.1099862
1.386179,-0.2367374,-0.1446084
1.463471,-0.2608236,-0.2127878
1.285546,-0.2959702,-0.2835822
1.119239,-0.3342465,-0.2699379
0.9255069,-0.3795057,-0.1662413
0.6450859,-0.3361975,-0.1277154
0.6216125,-0.2665849,-0.09180337
0.6251371,-0.1912409,-0.1405144
0.6142752,-0.1077426,-0.2020056
0.6971941,-0.1023714,-0.2282746
0.7476226,-0.1591739,-0.2918974
0.8239681,-0.2033922,-0.2705795
0.8375105,-0.2070714,-0.2430055
0.7686548,-0.1784414,-0.1805142
0.7154181,-0.1434474,-0.06340333
0.6765331,-0.1028973,-0.04442202
0.71515,-0.05949056,-0.0365628
0.750948,-0.04065032,-0.05588429
0.7532565,-0.05953676,-0.09935214
0.7744763,-0.09969982,-0.09753014
0.7620975,-0.1406261,-0.104382
0.7517573,-0.1952164,-0.1242367
0.7516379,-0.2967193,-0.2499598
0.8080128,-0.4176001,-0.4149813
1.098706,-0.5928922,-0.4911578
1.493255,-0.8771859,-0.5869282
1.597396,-0.9843486,-0.5866194
1.55217,-0.822884,-0.3700101
1.697611,-0.7084881,-0.1999389
1.705538,-0.593398,-0.2180414
1.547891,-0.5172093,-0.2828246
1.50247,-0.5789378,-0.2827236
1.275045,-0.5123861,-0.1749643
1.02056,-0.45431,-0.04759303
0.9420934,-0.3681652,-0.04376762
0.7153014,-0.1271274,-0.09953573
0.5439984,-0.09071651,-0.1240547
0.5391779,-0.1149482,-0.1461135
0.5127094,-0.1707231,-0.1328433
0.5333732,-0.3603632,-0.06945962
0.5424926,-0.3610282,-0.04128312
0.5623184,-0.3166727,-0.04280516
0.6451754,-0.3058692,-0.05258781
0.6996409,-0.2225953,-0.083623
0.732969,-0.1518835,-0.08066254
0.735353,-0.0729309,-0.0761135
0.6789427,-0.1115425,-0.06248595
0.5514156,-0.2509424,0.03074178
0.4535676,-0.3657629,0.09184465
0.5295905,-0.4168348,0.00404006
0.7218286,-0.3690568,-0.1903433
0.9335818,-0.3887313,-0.35021
1.171299,-0.4626328,-0.4967379
1.4913,-0.534252,-0.6785496
1.744239,-0.6166103,-0.695633
1.822424,-0.563836,-0.6947065
1.893678,-0.4920711,-0.7909959
1.705166,-0.4866684,-0.4338783
1.256089,-0.4426993,0.1916332
1.15758,-0.3441913,0.2279032
1.254925,-0.135721,-0.1810732
1.199761,-0.03255695,-0.4546422
1.045652,-0.1543852,-0.4190442
0.7739332,-0.2067835,-0.2349088
0.597993,-0.214828,-0.1612521
0.5561398,-0.249396,-0.1086737
0.5341536,-0.2037116,-0.1354334
0.6083282,-0.164987,-0.264312
0.7044056,-0.1235378,-0.247179
0.750734,-0.07452345,-0.2324657
0.7195348,-0.0911731,-0.1847117
0.6836236,-0.1092178,-0.04584727
0.6844145,-0.1243925,-0.03622364
0.6138596,-0.1259224,-0.07356954
0.5932594,-0.1115045,-0.1303054
0.7109961,-0.144232,-0.1605483
0.8463398,-0.2058569,-0.181437
0.9095495,-0.3550075,-0.3146385
0.9971333,-0.5977816,-0.3811661
1.253154,-0.7585636,-0.3646292
1.498426,-0.8095442,-0.326896
1.605985,-0.8411277,-0.2776917
1.670228,-0.8216571,-0.2763286
1.664441,-0.7169585,-0.2732204
1.549816,-0.590327,-0.2678589
1.318303,-0.4758669,-0.203176
1.114131,-0.421831,-0.1251721
1.108282,-0.4291189,-0.1403179
1.058811,-0.3679241,-0.1298585
0.8449635,-0.266235,-0.09285167
0.7200718,-0.2086419,-0.101075
0.6224643,-0.1560218,-0.1133444
0.4953266,-0.1311129,-0.1006388
0.5468515,-0.1606163,-0.094699
0.605944,-0.2000854,-0.0850581
0.5673157,-0.2017576,-0.04782809
0.6113992,-0.1937629,-0.05761491
0.6126855,-0.2159322,-0.07111688
0.5501652,-0.2526637,-0.06771102
0.5408399,-0.3176709,-0.1099677
0.5645761,-0.3591003,-0.1248553
0.6462622,-0.3547413,-0.1240731
0.6809886,-0.3758315,-0.1253681
0.6688035,-0.3932187,-0.1316131
0.753635,-0.382695,-0.2524795
1.071153,-0.3988235,-0.429708
1.669203,-0.5210632,-0.6081227
2.01952,-0.7307774,-0.882098
1.87263,-0.7957012,-0.9270752
1.586623,-0.5865459,-0.278075
1.227731,-0.3078706,0.4119874
1.1206,-0.1692575,0.2495564
1.424486,-0.1447925,-0.200193
1.507621,-0.1725656,-0.3531598
1.244593,-0.2154672,-0.4240921
0.938423,-0.2451932,-0.2532793
0.7068398,-0.2964713,-0.02521953
0.630881,-0.3138144,-0.0911252
0.6032967,-0.2395022,-0.127938
0.6466092,-0.1243944,-0.1855375
0.7623817,-0.03036413,-0.2987228
0.809557,-0.03168357,-0.2624846
0.8647161,-0.08533005,-0.2492915
0.8809882,-0.1099326,-0.2058262
0.8254882,-0.1125759,-0.1340605
0.7340268,-0.07075533,-0.1078578
0.6140269,-0.032275,-0.0479418
0.6861699,-0.06057648,-0.07509418
0.8712795,-0.1095276,-0.1057215
0.9489606,-0.1369704,-0.09989268
0.9490759,-0.1077485,-0.1197987
0.8715445,-0.04635365,-0.0531105
0.8348177,-0.02200344,0.01064477
0.8751826,-0.01279545,-0.002719157
0.8835856,-0.01274145,-0.06427613
0.8913653,-0.08678182,-0.1758642
0.8831095,-0.29379,-0.3144854
0.8893494,-0.6157671,-0.4100259
1.019511,-0.8635299,-0.3498765
1.302369,-0.9258025,-0.2898757
1.632105,-0.8792074,-0.3718766
1.775374,-0.6809684,-0.4426711
1.724903,-0.3917241,-0.4621858
1.566806,-0.2869769,-0.4091356
1.315808,-0.3484323,-0.2705954
1.180796,-0.3912266,-0.1831494
1.151529,-0.427893,-0.1206877
1.030746,-0.4378269,-0.07680931
0.9404219,-0.3834993,-0.124214
0.8685018,-0.3207769,-0.1572497
0.6922416,-0.2402846,-0.1808584
0.6294399,-0.2354104,-0.2001233
0.6884694,-0.3045591,-0.1601576
0.6693803,-0.3052646,-0.1440906
0.6734783,-0.3888047,-0.0949286
0.6973974,-0.4631516,-0.04658992
0.6603701,-0.3604412,-0.07357036
0.6496206,-0.3029007,-0.02881644
0.6239979,-0.2567968,0.01119003
0.6154719,-0.212789,-0.007618959
0.6643874,-0.2137721,0.01427494
0.6888296,-0.1516408,0.005729342
0.7573233,-0.1546457,-0.0301939
0.807879,-0.1664876,-0.04172181
0.7811607,-0.1702366,-0.02470542
0.7889137,-0.2766487,0.02448499
0.7793078,-0.3025037,0.04254284
0.7441557,-0.2734922,0.01347821
0.7104069,-0.2784013,-0.03894796
0.6887018,-0.3025262,-0.1611678
0.8601656,-0.4466075,-0.4594486
1.342853,-0.7153548,-0.8266398
1.889248,-0.9797244,-0.9440759
1.973358,-1.00164,-0.821606
1.650646,-0.7818468,-0.5218261
1.394363,-0.5055073,0.01221168
1.201538,-0.2395756,0.2597249
1.197875,-0.1258313,-0.03571316
1.315615,-0.115312,-0.2606691
1.168165,-0.1590504,-0.3114009
1.060247,-0.3033446,-0.357597
0.9416752,-0.3300518,-0.2227689
0.6197842,-0.3107661,-0.1158352
0.5509518,-0.3399088,-0.1304948
0.6232822,-0.2627668,-0.1418096
0.6738142,-0.2196027,-0.2348124
0.7920669,-0.1974607,-0.2961328
0.8348278,-0.1387351,-0.3066357
0.8651151,-0.1643236,-0.2987797
0.8596598,-0.1742154,-0.2305351
0.8033922,-0.1920068,-0.1728656
0.7307343,-0.2252166,-0.05266797
0.6341341,-0.1838683,0.007844774
0.6658642,-0.1597901,-0.08272167
0.7528138,-0.1333282,-0.1416835
0.8216026,-0.1262267,-0.1937897
0.8283464,-0.184607,-0.2106106
0.7125385,-0.2317944,-0.1718139
0.6520868,-0.2770795,-0.1485928
0.676027,-0.3095452,-0.1245788
0.7827038,-0.3665151,-0.2111619
0.9906271,-0.4741608,-0.3647123
1.150613,-0.5431672,-0.3934338
1.266934,-0.6236698,-0.3309555
1.493399,-0.7921086,-0.2317574
1.721768,-0.8827736,-0.140158
1.687493,-0.7302741,-0.2020131
1.52817,-0.5622251,-0.2942147
1.365852,-0.560325,-0.1876437
1.181852,-0.5508201,-0.1050753
1.066528,-0.4632076,-0.1359356
0.8465094,-0.3316726,-0.08433478
0.7243,-0.260766,-0.07767057
0.7525787,-0.2507791,-0.1137293
0.5204698,-0.1483584,-0.07935887
0.4790296,-0.1360037,-0.09231347
0.6281831,-0.2447959,-0.1052871
0.5601742,-0.2857672,-0.09014611
0.6779443,-0.3415543,-0.09341851
0.7656412,-0.3390462,-0.0586763
0.653011,-0.2605796,-0.03179309
0.6684372,-0.2321684,-0.0216706
0.6431192,-0.2053621,-0.009638188
0.6570918,-0.2463444,-0.04041957
0.7551652,-0.3158615,-0.06855113
0.7894033,-0.315496,-0.06116825
0.8469838,-0.3158816,-0.0421553
0.8301669,-0.2858759,-0.02922042
0.8029461,-0.2456167,-0.05881139
0.8875636,-0.2616684,-0.1895399
1.091712,-0.404847,-0.4064647
1.453413,-0.6323147,-0.5469158
1.648256,-0.648902,-0.5918456
1.635417,-0.5383198,-0.6923436
1.720773,-0.5547082,-0.7257173
1.672677,-0.6082925,-0.438517
1.362599,-0.6266942,0.0505874
1.134282,-0.4838856,0.276028
1.122309,-0.1757511,0.04358264
1.174598,-0.02472903,-0.2444916
1.086821,-0.09749315,-0.3188369
0.900791,-0.2431982,-0.2937381
0.7605409,-0.4072993,-0.1973791
0.6258385,-0.4672467,-0.1428261
0.5718664,-0.3536162,-0.1778922
0.5780281,-0.2127404,-0.1897614
0.5704166,-0.1173543,-0.2222606
0.6806295,-0.04874613,-0.2199514
0.834824,-0.06627534,-0.1837726
0.8982803,-0.1072443,-0.1930564
0.7993244,-0.1250863,-0.1714237
0.6301099,-0.1582529,-0.1316279
0.6164936,-0.152262,-0.05747076
0.6560832,-0.1741411,-0.0281321
0.7261884,-0.2163654,-0.1400808
0.8590743,-0.1808206,-0.2241293
0.8963229,-0.1571836,-0.2411391
0.8679571,-0.1944909,-0.241572
0.8745921,-0.3834264,-0.2437457
0.9845916,-0.680307,-0.2505074
1.138304,-0.7580019,-0.2296393
1.342317,-0.7104093,-0.2401868
1.690268,-0.8363426,-0.2454242
1.850759,-0.9211597,-0.2363013
1.734408,-0.7949144,-0.2701591
1.634021,-0.6660926,-0.2919834
1.410585,-0.5676478,-0.2949463
1.069734,-0.4775851,-0.2300412
0.8883132,-0.4206878,-0.09093995
0.7626471,-0.3282857,-0.01661874
0.6726014,-0.2784839,-0.04928504
0.6541759,-0.2484426,-0.1106162
0.5698212,-0.2001221,-0.1232759
0.5467682,-0.2432912,-0.1141128
0.5899476,-0.2816076,-0.1060548
0.5974334,-0.3105802,-0.09929274
0.6455682,-0.3608468,-0.105701
0.6319248,-0.3423147,-0.08746165
0.5439319,-0.31615,-0.0862064
0.4935011,-0.2565509,-0.0897321
0.5232393,-0.1973884,-0.06585456
0.6511855,-0.259382,-0.07906404
0.7670093,-0.3181655,-0.09359251
0.8086382,-0.2912653,-0.09600542
0.7550349,-0.2065148,-0.06160433
0.6600475,-0.1420523,-0.02468338
0.6325815,-0.2536497,-0.1776447
0.7837493,-0.4818631,-0.4630519
1.404004,-0.6971772,-0.7189321
2.082583,-0.89418,-0.838399
1.990859,-0.8847311,-0.6658573
1.682145,-0.6529546,-0.3284755
1.72925,-0.5042607,-0.08974763
1.501817,-0.3948926,0.01294059
1.244075,-0.2602306,0.001909909
1.278335,-0.1727937,-0.1029467
1.027147,-0.05392423,-0.2125979
0.8977555,-0.09083508,-0.2332217
0.9108495,-0.3061485,-0.2077894
0.5856143,-0.4131801,-0.246014
0.571992,-0.3950214,-0.2498296
0.7048669,-0.310721,-0.1956615
0.6037086,-0.2271697,-0.2060416
0.6733293,-0.1706128,-0.2091192
0.7263261,-0.1537224,-0.2265646
0.766067,-0.1789925,-0.2626991
0.8612855,-0.1316695,-0.2036184
0.7814492,-0.1204746,-0.1503809
0.7149286,-0.1445074,-0.1282669
0.6983333,-0.09916985,-0.101321
0.6892594,-0.113123,-0.1010596
0.7319066,-0.1311238,-0.1200504
0.7345781,-0.1803062,-0.1606231
0.7830429,-0.2901307,-0.1579257
0.8427327,-0.2878032,-0.1559527
0.7987529,-0.2852243,-0.2341947
0.8182961,-0.3869636,-0.329421
0.9999298,-0.557447,-0.3770814
1.279477,-0.7413155,-0.328012
1.521707,-0.8650706,-0.2582539
1.643721,-0.9214062,-0.2347104
1.719718,-0.7836543,-0.2631115
1.703355,-0.5516622,-0.3565591
1.573675,-0.4946674,-0.3756762
1.366395,-0.5279282,-0.2932302
1.041136,-0.53328,-0.1652082
0.8385594,-0.5124513,-0.02968243
0.8281592,-0.4330349,-0.04160032
0.6840282,-0.294722,-0.03050871
0.7270879,-0.2472931,-0.03719781
0.7293586,-0.2403086,-0.09912144
0.6947746,-0.2022444,-0.1479553
0.7568814,-0.1407488,-0.2086834
0.7596209,-0.1214734,-0.256073
0.8085263,-0.1413673,-0.2364505
0.8696519,-0.2205354,-0.1768803
0.8373066,-0.2216187,-0.1876544
0.8109478,-0.1904571,-0.2050999
0.7813309,-0.2300849,-0.1841905
0.7830484,-0.2841377,-0.2403439
0.8724903,-0.4460819,-0.285883
1.038692,-0.5982436,-0.2740805
1.22619,-0.6030289,-0.2767537
1.440926,-0.654722,-0.2617222
1.658984,-0.7499045,-0.2631586
1.669183,-0.7650888,-0.2863524
1.552421,-0.7357768,-0.2849377
1.435311,-0.7088472,-0.2337754
1.187766,-0.6802158,-0.134161
1.025146,-0.5728051,-0.09601338
1.033052,-0.3991551,-0.1305226
0.9159329,-0.2979848,-0.1457367
0.7621764,-0.2554906,-0.1428095
0.681463,-0.1981943,-0.1471031
0.5993037,-0.216321,-0.145281
0.6042166,-0.3248059,-0.1354771
0.6340532,-0.4215227,-0.1326703
0.6376124,-0.4660642,-0.1206328
0.6876214,-0.4314084,-0.09472778
0.7197379,-0.3523371,-0.0675018
0.723364,-0.2389999,-0.05664088
0.6918121,-0.1228537,-0.06776436
0.6330559,-0.1490458,-0.04981017
0.6310437,-0.2303453,-0.009024387
0.6654901,-0.286632,0.02086838
0.7253922,-0.3752509,0.03945458
0.7915282,-0.3807657,0.02007077
0.8344613,-0.344235,-0.0356488
0.8856282,-0.3272741,-0.09023296
0.8893152,-0.2870763,-0.1053707
0.9093219,-0.3827962,-0.193247
1.139853,-0.5640866,-0.4291895
1.401706,-0.6237767,-0.5389856
1.467419,-0.6124131,-0.49339
1.558982,-0.6185261,-0.5380311
1.661925,-0.6031929,-0.5506301
1.556999,-0.5472919,-0.4368695
1.403353,-0.5362703,-0.2465869
1.204723,-0.4653865,-0.03011953
1.057515,-0.2401636,-0.07421287
1.123694,-0.1027561,-0.2535216
1.010189,-0.1056795,-0.2633141
0.8077873,-0.1483079,-0.3114304
0.7920133,-0.2347183,-0.3004223
0.7374926,-0.2837398,-0.1780866
0.7311113,-0.291182,-0.2161502
0.7381651,-0.2756002,-0.2200745
0.6818803,-0.222443,-0.2075928
0.683909,-0.1844448,-0.2662715
0.6648032,-0.1715569,-0.2242864
0.7664749,-0.2006045,-0.1942997
0.8852996,-0.2307374,-0.1434289
0.7828919,-0.2063956,-0.1167411
0.6751151,-0.1461642,-0.1604325
0.6538605,-0.04695198,-0.1046864
0.7194717,-0.01672632,-0.1129383
0.7953065,-0.1021192,-0.1747273
0.7529375,-0.1821013,-0.1940346
0.7265746,-0.2525285,-0.2278434
0.7693219,-0.342837,-0.2252839
0.847611,-0.4804396,-0.2436501
1.065043,-0.6833078,-0.2037485
1.38913,-0.7986885,-0.1323688
1.629811,-0.7694889,-0.164337
1.74028,-0.7441386,-0.1674677
1.721962,-0.7286251,-0.1851842
1.619514,-0.6580199,-0.2570378
1.494996,-0.6047832,-0.2743766
1.260645,-0.5683348,-0.2014855
1.060286,-0.4992159,-0.0768867
0.9698472,-0.4232365,-0.06428133
0.816677,-0.3297898,-0.1171394
0.7336626,-0.2636653,-0.1202242
0.6680745,-0.2510328,-0.1425539
0.5047663,-0.2124763,-0.1619884
0.5013707,-0.2090054,-0.1562897
0.5661499,-0.2782015,-0.1435961
0.5288943,-0.3162301,-0.1272771
0.5537512,-0.3374989,-0.1164551
0.5844623,-0.3484123,-0.1044351
0.5140772,-0.3117948,-0.1107932
0.4803754,-0.2656608,-0.1031821
0.5267368,-0.2112852,-0.08636306
0.6202417,-0.2137323,-0.1094106
0.786167,-0.3159483,-0.1559351
0.9444301,-0.3840532,-0.2020832
0.9702277,-0.34853,-0.1605842
0.8376422,-0.2751453,-0.03397816
0.6520107,-0.2709858,-7.61361e-05
0.6502034,-0.3709396,-0.1724049
1.048807,-0.5144344,-0.4507835
1.625192,-0.6623586,-0.611514
1.825678,-0.7827186,-0.6608158
1.748441,-0.7866254,-0.6673831
1.764936,-0.6415392,-0.5514311
1.615273,-0.4997318,-0.3042694
1.305258,-0.3967711,0.01031808
1.15618,-0.2607642,0.07398682
1.092912,-0.1547565,-0.1051625
1.110774,-0.1212819,-0.1624589
1.142671,-0.2075244,-0.3406545
0.996392,-0.2800328,-0.4587749
0.8110303,-0.2507477,-0.2239674
0.682551,-0.2715538,-0.1424312
0.594102,-0.2482417,-0.1301995
0.5869273,-0.1736066,-0.1329884
0.6422432,-0.09414655,-0.2728434
0.7408509,-0.01786026,-0.2124223
0.7924064,-0.07945762,-0.1495513
0.7633567,-0.1122428,-0.1381005
0.7494437,-0.1101323,-0.1060922
0.7558602,-0.1629094,-0.1825625
0.7845274,-0.1596474,-0.1437528
0.813562,-0.188008,-0.1228098
0.761455,-0.1834979,-0.1434799
0.7049231,-0.137228,-0.08067265
0.7516752,-0.1443212,-0.1242299
0.8163695,-0.1006534,-0.1460498
0.8236165,-0.1040614,-0.1556105
0.8127389,-0.2203877,-0.2024081
0.7942239,-0.3723633,-0.1963602
0.8602365,-0.511762,-0.2325335
1.148419,-0.6678564,-0.2282226
1.496199,-0.9214923,-0.2192578
1.569505,-0.9692755,-0.2513348
1.544112,-0.7584198,-0.25975
1.753478,-0.6212721,-0.3724917
1.79246,-0.4804308,-0.4437496
1.503434,-0.4613021,-0.3054773
1.259786,-0.5494036,-0.1186136
1.063814,-0.409177,-0.0524109
1.003138,-0.3195576,-0.1359644
0.9117821,-0.2293192,-0.2053397
0.6540009,-0.06672378,-0.2073652
0.6326436,-0.1709563,-0.2274302
0.6033285,-0.2196296,-0.2454623
0.5243296,-0.2372705,-0.2468443
0.6241494,-0.3733322,-0.2272722
0.5978908,-0.3661043,-0.1861597
0.6146857,-0.4181729,-0.1516696
0.6658969,-0.4421403,-0.1453035
0.6289876,-0.4009656,-0.1515558
0.7140647,-0.4658487,-0.1323163
0.7145191,-0.4329244,-0.1207813
0.7014058,-0.4305878,-0.1265308
0.7627921,-0.4478605,-0.1176845
0.756796,-0.397256,-0.112152
0.7882483,-0.4212696,-0.0969197
0.77088,-0.3993244,-0.04214242
0.7475159,-0.3639537,0.0393523
0.7745582,-0.3100641,0.08434708
0.7606889,-0.2431472,0.003116446
0.8884888,-0.3319627,-0.2455792
1.258714,-0.4961304,-0.5669628
1.616265,-0.7419247,-0.7411856
1.571952,-0.9703729,-0.7420249
1.424321,-0.9573297,-0.6496233
1.546102,-0.7515318,-0.4010385
1.462212,-0.4664697,-0.1716378
1.284077,-0.2730789,-0.09877105
1.303675,-0.1769789,-0.06793731
1.209896,-0.1139118,-0.1700751
1.124987,-0.2081443,-0.2883407
1.005075,-0.3179841,-0.238385
0.7815438,-0.2992635,-0.1866498
0.7092523,-0.2692998,-0.1601288
0.6634495,-0.216422,-0.1673914
0.6967067,-0.155561,-0.2260628
0.782326,-0.1350675,-0.2474302
0.769824,-0.126364,-0.2558802
0.8237744,-0.1526242,-0.2185503
0.847987,-0.167124,-0.1573942
0.8221042,-0.1579747,-0.1520354
0.7641387,-0.1509813,-0.150463
0.6061893,-0.1259146,-0.1367584
0.5825093,-0.1471923,-0.1166741
0.7030891,-0.1953463,-0.1044563
0.7983386,-0.2042919,-0.1210617
0.8120751,-0.1616849,-0.1243348
0.7783121,-0.08919858,-0.07960771
0.7982946,-0.09308626,-0.02359646
0.8007157,-0.1220621,-0.04662882
0.7809734,-0.1336813,-0.1706031
0.7909132,-0.2283591,-0.316654
0.8200236,-0.3461401,-0.3653896
1.013575,-0.5469051,-0.3236762
1.335179,-0.8827863,-0.3381739
1.497285,-0.9915477,-0.3471121
1.539257,-0.8484627,-0.2634313
1.676527,-0.8186001,-0.2136655
1.696309,-0.771994,-0.2171114
1.522861,-0.5978961,-0.2280887
1.396531,-0.5255439,-0.2310078
1.20795,-0.5353291,-0.1922118
1.054135,-0.5723649,-0.09293074
1.001739,-0.5560528,0.0283355
0.8551985,-0.4232738,-0.009772806
0.8333945,-0.2937069,-0.1503641
0.7894544,-0.1967546,-0.2091448
0.6783421,-0.2262643,-0.2553543
0.7234713,-0.303285,-0.2324564
0.6198745,-0.3329791,-0.170223
0.5710053,-0.4111587,-0.1562101
0.6336636,-0.3846469,-0.07544351
0.5801263,-0.3320598,-0.04838375
0.637933,-0.3002227,-0.07828366
0.5905327,-0.1796875,-0.08095374
0.4896704,-0.1710811,-0.1310343
0.5238307,-0.2139142,-0.08254801
0.5407764,-0.2943316,-0.02385489
0.6880316,-0.4581502,-0.1036343
0.8291014,-0.4803137,-0.1432262
0.8591052,-0.4108546,-0.1273861
0.8455201,-0.3304475,-0.08059418
0.7747724,-0.2243645,-0.03875329
0.8244572,-0.1909482,-0.1355474
1.070166,-0.3156134,-0.3676756
1.563308,-0.5447243,-0.6260511
1.883473,-0.6702655,-0.722101
1.701742,-0.6528466,-0.5982444
1.627813,-0.6423801,-0.3772329
1.658215,-0.671602,-0.1652474
1.424061,-0.5688717,-0.1284615
1.260418,-0.3443554,-0.2170296
1.206803,-0.2233583,-0.2075861
1.082411,-0.1942614,-0.2309829
0.9398083,-0.2326019,-0.2821748
0.7446798,-0.2784396,-0.2036862
0.5920547,-0.2330795,-0.1887177
0.5441291,-0.2115557,-0.1805658
0.4950816,-0.1880649,-0.1274437
0.5301618,-0.1538149,-0.1948482
0.637096,-0.1511745,-0.2323953
0.6737332,-0.1125217,-0.227461
0.6698943,-0.1118451,-0.1920937
0.6490663,-0.1133258,-0.1141933
0.6404426,-0.06496254,-0.1578767
0.6717145,-0.03067712,-0.2027919
0.6889305,0.001650833,-0.2004577
0.6879423,-0.06184545,-0.1825073
0.7056179,-0.179284,-0.08888733
0.7619089,-0.1912388,-0.06919943
0.8117571,-0.2071095,-0.1590855
0.8784781,-0.3484993,-0.2972883
1.089974,-0.5898268,-0.4146547
1.342726,-0.7881143,-0.3868141
1.488114,-0.8923397,-0.2592763
1.64766,-1.079603,-0.1033968
1.779931,-1.190456,-0.03032283
1.725137,-0.9315638,-0.1450244
1.683521,-0.5226357,-0.2675551
1.659009,-0.2874696,-0.2626177
1.403553,-0.3309047,-0.1982807
1.160944,-0.4479927,-0.08487566
1.054526,-0.4001703,-0.006646014
0.8479481,-0.3831747,-0.04709425
0.6917564,-0.3705956,-0.08260354
0.6766907,-0.2401216,-0.109822
0.5707984,-0.2145561,-0.1977603
0.4471659,-0.2269428,-0.2262804
0.4786305,-0.2412165,-0.1743444
0.5059656,-0.2920516,-0.1472566
0.4699951,-0.2616422,-0.1455017
0.4784003,-0.2623597,-0.1370534
0.4775709,-0.2719225,-0.1106345
0.5509037,-0.2715383,-0.08915984
0.7167995,-0.3145805,-0.128069
0.7493063,-0.2914616,-0.1640616
0.6851041,-0.2639683,-0.08629823
0.6370843,-0.2328906,0.03945792
0.6158092,-0.2033058,0.07421455
0.7038252,-0.2804248,-0.05680135
1.027963,-0.4273929,-0.3762858
1.588913,-0.6222643,-0.7068104
1.941876,-0.7016653,-0.7609777
1.817139,-0.5761309,-0.592395
1.663422,-0.4991648,-0.3577305
1.565995,-0.5361582,0.0431781
1.299652,-0.4697786,0.301064
1.261315,-0.262476,0.04234239
1.371648,-0.09656826,-0.2275051
1.173297,-0.07885638,-0.2212296
0.9690682,-0.2078083,-0.2031801
0.8276474,-0.3598825,-0.1230856
0.7218078,-0.3675925,-0.08222381
0.8180589,-0.2717907,-0.1642391
0.818657,-0.1904426,-0.1842637
0.7894054,-0.132053,-0.1951801
0.8459591,-0.0494024,-0.2052809
0.8088257,-0.006397559,-0.1943686
0.7953926,-0.0285664,-0.1683094
0.7359365,0.04254974,-0.1001747
0.6503085,0.1060642,-0.09511148
0.6899964,0.06574612,-0.1139238
0.7270597,0.07375382,-0.1118002
0.7969512,-0.003784402,-0.103998
0.9176683,-0.1902593,-0.05842778
0.9379587,-0.2326864,-0.04145692
0.8856394,-0.141076,-0.05022212
0.8389139,-0.06143207,-0.09242977
0.7208886,-0.1022212,-0.2288151
0.6666462,-0.322911,-0.4387479
0.9366087,-0.6732658,-0.6036124
1.2577,-0.884508,-0.5993334
1.330458,-0.8172525,-0.4976689
1.422918,-0.7898387,-0.4046793
1.731244,-0.8150224,-0.4084797
1.872912,-0.7144868,-0.4547329
1.595179,-0.6522572,-0.3864825
1.294625,-0.5902907,-0.2741288
1.152066,-0.4870768,-0.10987
1.048518,-0.391186,-0.01904824
0.9973056,-0.2328505,-0.1693032
0.8764637,-0.173984,-0.2733689
0.7221268,-0.2301957,-0.280417
0.6394831,-0.2808848,-0.2678562
0.5485554,-0.3770211,-0.1826706
0.5005111,-0.4110324,-0.1439076
0.5028639,-0.3458097,-0.07685235
0.499314,-0.2904671,0.004229788
0.4953197,-0.2464526,-0.007723696
0.4738888,-0.2001097,0.004530158
0.4432772,-0.1395785,-0.0007071426
0.4356807,-0.0840901,-0.02674254
0.5303337,-0.06367588,-0.03422939
0.6742792,-0.09381986,-0.09068858
0.7272771,-0.2102525,-0.1646671
0.7721563,-0.3573927,-0.237514
0.8431277,-0.4234427,-0.2198716
0.8488171,-0.4539181,-0.1124687
0.8284585,-0.5190073,-0.1219096
0.8805812,-0.5392345,-0.3278917
1.179783,-0.5796305,-0.6543618
1.656984,-0.7044176,-0.8264531
1.832727,-0.774901,-0.7788995
1.735103,-0.819132,-0.7577941
1.742464,-0.8222616,-0.6117628
1.648801,-0.6953389,-0.266735
1.371135,-0.5102038,-0.07751507
1.218196,-0.278884,-0.1260686
1.184176,-0.1864389,-0.2351932
1.148698,-0.2830721,-0.3161324
1.049934,-0.2947791,-0.3626354
0.8849049,-0.3045528,-0.2842208
0.7447185,-0.3100817,-0.1359726
0.6390137,-0.1948503,-0.1211714
0.5890167,-0.1473201,-0.1387136
0.581503,-0.1246615,-0.1662737
0.5841864,-0.08623984,-0.2444472
0.6123383,-0.09175518,-0.2505357
0.6206949,-0.07081121,-0.2549855
0.6226432,-0.08550964,-0.2430267
0.6157351,-0.113323,-0.1843324
0.6015286,-0.1403804,-0.1561721
0.6375214,-0.220134,-0.08226052
0.6529101,-0.244793,0.004908887
0.6118742,-0.1999169,0.009514763
0.5882172,-0.14529,-0.0799581
0.6600902,-0.1421984,-0.2581099
0.8317075,-0.2320249,-0.4124448
1.055323,-0.4239369,-0.4229527
1.334123,-0.7060473,-0.4010643
1.535006,-0.8382192,-0.4413394
1.574975,-0.7690039,-0.3433659
1.603073,-0.7427907,-0.1972902
1.605544,-0.6908531,-0.233492
1.494314,-0.5381007,-0.2484802
1.322903,-0.5018258,-0.1957412
1.137327,-0.5501479,-0.1625846
0.9903347,-0.4916951,-0.09380272
0.9027091,-0.411563,-0.06372502
0.8112414,-0.3419426,-0.07686141
0.6853633,-0.2251905,-0.09723587
0.5894082,-0.1837543,-0.1320691
0.5954329,-0.2196225,-0.1361219
0.6158615,-0.2490905,-0.1374717
0.6038299,-0.2811896,-0.1453564
0.6500815,-0.2792625,-0.133711
0.6602407,-0.2583486,-0.1206238
0.58336,-0.2522516,-0.08752638
0.5262085,-0.2318574,-0.03254369
0.5084582,-0.2378062,-0.02362497
0.5907936,-0.2921464,-0.06803018
0.7273138,-0.3215407,-0.101337
0.7881623,-0.3116988,-0.1142837
0.8084103,-0.2976823,-0.1087767
0.8385695,-0.2737512,-0.09179477
0.8717026,-0.2615266,-0.1238983
0.9813996,-0.3830808,-0.2572814
1.415917,-0.6901302,-0.4202492
1.867181,-0.866844,-0.4220255
1.720543,-0.6318135,-0.3619072
1.543427,-0.3148362,-0.4428849
1.726992,-0.2790266,-0.4640394
1.615042,-0.3801905,-0.3448105
1.34612,-0.4599918,-0.1954663
1.191196,-0.4904683,-0.05105567
1.027384,-0.3714188,-0.07951029
1.065111,-0.2123714,-0.2004955
0.9929683,-0.1873939,-0.2407824
0.7495042,-0.1904894,-0.2482685
0.6812091,-0.1630853,-0.1916229
0.5682495,-0.1858266,-0.1542432
0.546603,-0.2244279,-0.1737204
0.6102,-0.2153749,-0.1790233
0.5560362,-0.1737039,-0.2118615
0.633239,-0.1244839,-0.2010007
0.6984201,-0.1137567,-0.1865922
0.7067626,-0.1382604,-0.2248464
0.7362792,-0.1252805,-0.2183296
0.6843665,-0.1087751,-0.1822085
0.669924,-0.1124166,-0.09899146
0.6584208,-0.1324271,-0.04334381
0.7123473,-0.2200471,-0.1139122
0.8354944,-0.3100366,-0.1713941
0.8389669,-0.3573359,-0.1684562
0.8346411,-0.4026059,-0.1862631
0.9132145,-0.4834679,-0.2505268
1.147423,-0.6104842,-0.3044641
1.468708,-0.6900508,-0.2836437
1.64325,-0.7363898,-0.255801
1.772717,-0.7945805,-0.2745361
1.872361,-0.7756135,-0.2767929
1.683651,-0.6847325,-0.2619507
1.373896,-0.5950475,-0.2715203
1.314954,-0.5756528,-0.2550093
1.2407,-0.5548418,-0.1951192
0.9464597,-0.4004402,-0.1184411
0.7935321,-0.2687144,-0.07131089
0.733168,-0.2292153,-0.1080189
0.5784219,-0.1839466,-0.1360622
0.485424,-0.1947451,-0.1315861
0.4507793,-0.2346393,-0.1264409
0.4417196,-0.2607944,-0.0862638
0.478672,-0.2851111,-0.10439
0.4927934,-0.2552584,-0.1416528
0.4882995,-0.2281861,-0.1201232
0.5059215,-0.2239261,-0.114519
0.548712,-0.2332826,-0.09804395
0.6366546,-0.2996281,-0.1165998
0.7619464,-0.3579808,-0.1775938
0.8330437,-0.3863774,-0.1710704
0.8228608,-0.3852879,-0.1318425
0.8260274,-0.3114289,-0.0688715
0.8448003,-0.2119026,-0.0403959
0.8702335,-0.2059712,-0.1631949
1.078971,-0.3886563,-0.372571
1.457641,-0.6279164,-0.5192866
1.627776,-0.6898657,-0.5118606
1.524267,-0.6010552,-0.4530439
1.528357,-0.5417159,-0.3839796
1.62258,-0.5262769,-0.2463544
1.548271,-0.465548,-0.2341684
1.452103,-0.3704989,-0.289441
1.331732,-0.2681345,-0.202802
1.100621,-0.2379821,-0.1695597
0.9670138,-0.2977898,-0.1829917
0.871578,-0.2921123,-0.1465337
0.7529606,-0.248707,-0.1714855
0.68911,-0.2218683,-0.1608784
0.6104687,-0.1937744,-0.1381943
0.6153586,-0.2172817,-0.182559
0.6992885,-0.2125235,-0.2253753
0.7398227,-0.1756207,-0.299267
0.7553536,-0.1596855,-0.3065323
0.734321,-0.144256,-0.2320398
0.7360063,-0.1807076,-0.1940775
0.7318325,-0.217057,-0.1613786
0.6719173,-0.2016063,-0.1544625
0.6273293,-0.1337898,-0.1291878
0.5776083,-0.04722795,-0.06773251
0.5885564,-0.08342212,-0.06929144
0.6761645,-0.1724262,-0.08422587
0.7539479,-0.2179106,-0.09487835
0.8460068,-0.2886701,-0.1429876
0.9296164,-0.3991257,-0.2408739
1.05487,-0.5849103,-0.3565986
1.294262,-0.7271038,-0.3713908
1.579692,-0.7368601,-0.3292626
1.804044,-0.8117305,-0.3333905
1.833119,-0.8435236,-0.3436936
1.714754,-0.6632497,-0.3550574
1.54882,-0.5156024,-0.3620417
1.289472,-0.5076028,-0.3104622
1.036926,-0.5287754,-0.2085454
0.9204978,-0.518273,-0.1295943
0.8740657,-0.4801264,-0.1242694
0.7509983,-0.4090028,-0.1442155
0.5382885,-0.2455512,-0.1465184
0.469329,-0.1572189,-0.1579459
0.5554177,-0.2443137,-0.1719427
0.5490015,-0.3231779,-0.1748735
0.5362406,-0.3897375,-0.1742451
0.5895803,-0.4298862,-0.1550202
0.6020285,-0.4178479,-0.1308081
0.6689506,-0.4399264,-0.1210044
0.7197509,-0.3947392,-0.117189
0.6832351,-0.3107187,-0.132313
0.7038285,-0.2806002,-0.1515132
0.7386795,-0.2477458,-0.1442891
1.28946,-0.3401098,-0.03344974
1.230088,-0.3184109,-0.0811511
1.151546,-0.3288862,-0.1999531
0.9862747,-0.278534,-0.2339006
0.8840929,-0.2515039,-0.2657586
0.8441277,-0.2662942,-0.2486409
0.7122443,-0.2167424,-0.2058822
0.6418421,-0.2199952,-0.1963239
0.6257404,-0.2193503,-0.1828236
0.5977683,-0.1777337,-0.2213516
0.5845184,-0.150745,-0.2335672
0.5672724,-0.1146025,-0.210884
0.6978628,-0.1499894,-0.2159229
0.8600966,-0.1924122,-0.1694808
0.9134844,-0.2028504,-0.1447185
0.8223445,-0.1847108,-0.1252279
0.6525653,-0.07660304,-0.0313918
0.7197277,-0.03767365,0.01683032
0.7865098,-0.08860627,-0.06070303
0.7621506,-0.1241587,-0.2022665
0.846351,-0.1685029,-0.2493839
0.8344958,-0.225002,-0.2308861
0.8460047,-0.3045312,-0.2628094
0.9264641,-0.4315689,-0.2824483
1.076509,-0.6426285,-0.2594837
1.418027,-0.7773417,-0.2094567
1.610539,-0.7483272,-0.1558736
1.663011,-0.7621208,-0.1273595
1.750825,-0.7113547,-0.1874187
1.700812,-0.5344617,-0.3296907
1.513541,-0.4670668,-0.3610714
1.213372,-0.4881462,-0.2216676
0.9062253,-0.4781404,-0.03079611
0.7654813,-0.3882399,0.03159265
0.6852546,-0.2593252,-0.05577259
0.6222629,-0.1759006,-0.1190647
0.6397817,-0.1671997,-0.1869023
0.633207,-0.2500522,-0.2339235
0.6003658,-0.3281157,-0.1792051
0.6072973,-0.3583565,-0.1437967
0.6008666,-0.3650531,-0.1060723
0.5981307,-0.3251763,-0.0618647
0.5800861,-0.2618322,-0.06876377
0.524357,-0.2053199,-0.03679969
0.4963597,-0.2293059,-0.004661528
0.4986401,-0.2801169,-0.02927687
0.5822816,-0.2798519,-0.03545871
0.7498677,-0.3349528,-0.03242843
0.8481845,-0.3953291,-0.04480739
0.8106148,-0.3932431,-0.05840989
0.8441696,-0.39422,-0.1555992
1.213276,-0.4700145,-0.3967542
1.728181,-0.716871,-0.6556581
1.889825,-0.9138991,-0.7377748
1.65297,-0.7397557,-0.598577
1.536473,-0.4651829,-0.4207392
1.642844,-0.4314904,-0.3592278
1.587692,-0.4158184,-0.3168176
1.43852,-0.329426,-0.2007337
1.284539,-0.3305817,-0.1040424
1.124408,-0.3288305,-0.09534559
1.134239,-0.3175919,-0.1274973
1.067657,-0.2803766,-0.1908558
0.8667292,-0.1800319,-0.2726581
0.8054023,-0.1674978,-0.2623564
0.7564849,-0.1893291,-0.19584
0.6328704,-0.1912372,-0.1773486
0.5739287,-0.2015162,-0.1672062
0.6288012,-0.1613098,-0.2035003
0.6487336,-0.09354045,-0.2720938
0.617818,-0.04604051,-0.268997
0.6947958,-0.08942751,-0.2526924
0.7504022,-0.1579272,-0.2385178
0.7204076,-0.1511833,-0.1964841
0.6543366,-0.1304087,-0.1419433
0.5723554,-0.1062936,-0.05717753
0.6206405,-0.1242858,-0.00996416
0.7080299,-0.1576355,-0.05074686
0.7493683,-0.1329675,-0.126444
0.7951588,-0.1483962,-0.2038265
0.8112748,-0.2470563,-0.2745055
0.9274008,-0.4621306,-0.3418728
1.16652,-0.7132227,-0.3748806
1.394643,-0.7950752,-0.3265936
1.625091,-0.8345147,-0.2387026
1.819482,-0.9134506,-0.1931119
1.864031,-0.8389297,-0.2293166
1.758534,-0.6813372,-0.3073116
1.577368,-0.5430134,-0.31959
1.315608,-0.4099108,-0.2608269
1.045031,-0.4187677,-0.1947987
0.930754,-0.4566926,-0.1191584
0.8165718,-0.3628464,-0.07058888
0.616876,-0.2947031,-0.07434583
0.5452696,-0.2542878,-0.09844454
0.4972683,-0.2212977,-0.114585
0.4293667,-0.2443687,-0.1092668
0.4649061,-0.2526683,-0.1097475
0.4862061,-0.2837866,-0.09717282
0.5550291,-0.3079529,-0.07426239
0.6302086,-0.2825159,-0.07998777
0.5765274,-0.2740337,-0.1030747
0.5847807,-0.2418301,-0.1291952
0.6492902,-0.2309547,-0.1117616
0.7150315,-0.2840217,-0.09223207
0.7980861,-0.3116248,-0.1254854
0.7994666,-0.2864564,-0.1318861
0.7741936,-0.2322993,-0.1000927
0.7641909,-0.2381282,-0.1210387
0.8499681,-0.3904114,-0.321707
1.194959,-0.6179088,-0.5925136
1.586772,-0.7145983,-0.6132283
1.618089,-0.6625073,-0.5082686
1.52084,-0.6190609,-0.4995209
1.75819,-0.5210116,-0.4205828
1.890638,-0.4072086,-0.320955
1.570576,-0.3712535,-0.2445693
1.253299,-0.2595962,-0.04095336
1.182165,-0.2025528,0.02493154
1.23752,-0.2798434,-0.1347634
1.16533,-0.265455,-0.2465602
0.9936379,-0.2431102,-0.2860203
0.9112422,-0.263588,-0.2423793
0.7924965,-0.2357705,-0.1785097
0.7143395,-0.2373531,-0.1664882
0.7081768,-0.2155615,-0.1460542
0.6878842,-0.1368612,-0.1869583
0.7332503,-0.08735649,-0.2342605
0.7410657,-0.06054837,-0.2271589
0.7363179,-0.07132235,-0.2147051
0.7604625,-0.08912417,-0.1786573
0.7513529,-0.08032818,-0.180386
0.7691845,-0.08871329,-0.1931755
0.7705774,-0.09095944,-0.1768166
0.7832288,-0.09579232,-0.1746498
0.8104721,-0.1125092,-0.1394949
0.8065744,-0.1087089,-0.0684458
0.8325645,-0.1098493,6.231471e-05
0.8315725,-0.09697203,-0.00825941
0.8143391,-0.08493576,-0.09666275
0.8357777,-0.183084,-0.2007922
0.9220515,-0.4229025,-0.3850154
1.139472,-0.699123,-0.5299731
1.351648,-0.851667,-0.5033311
1.465128,-0.8941254,-0.4177544
1.582746,-0.9035771,-0.3490244
1.657772,-0.7653962,-0.4220895
1.62576,-0.5770234,-0.5300572
1.523464,-0.5663119,-0.4429953
1.306142,-0.5510935,-0.3205491
1.103791,-0.4932869,-0.1832001
1.054143,-0.5340779,-0.0653625
0.9789313,-0.4516153,-0.1612532
0.8854973,-0.3008165,-0.2426824
0.8615873,-0.2704465,-0.2500457
0.8503209,-0.2311467,-0.315152
0.8532537,-0.2568121,-0.3008751
0.7859248,-0.350515,-0.2467862
0.685593,-0.4123228,-0.1922824
0.6421958,-0.4486834,-0.1215218
0.5908542,-0.3723522,-0.0895747
0.5382941,-0.2987257,-0.01974959
0.5305612,-0.2726698,-0.01195965
0.5655221,-0.2201741,-0.0642039
0.5543026,-0.2060261,-0.01814076
0.5428457,-0.1762181,-0.02744822
0.5841606,-0.1466547,-0.07825911
0.5970205,-0.1191613,-0.07043273
0.6964461,-0.1350709,-0.06718805
0.8255455,-0.2882415,-0.01667319
0.8694291,-0.3941832,0.009059745
0.9154158,-0.4178887,-0.01060681
0.9194077,-0.3859879,-0.01146446
0.9119606,-0.3256345,-0.06585833
0.8914688,-0.3568822,-0.09623764
0.823572,-0.3630994,-0.110411
0.8015441,-0.4026604,-0.2482133
0.8930172,-0.503122,-0.4789599
1.256471,-0.5469324,-0.6954193
1.72142,-0.7146469,-0.7802767
1.79016,-0.8936768,-0.7235923
1.509948,-0.8386046,-0.5233077
1.257076,-0.6934367,-0.1397908
1.058399,-0.4690484,0.2172363
0.9942111,-0.1362554,0.2452907
1.172757,-0.0384184,-0.02367965
1.237275,-0.1841192,-0.2973623
1.106951,-0.2256128,-0.3788164
0.9522747,-0.2864469,-0.2229891
0.7389734,-0.3387206,-0.05116644
0.6419329,-0.2231382,-0.08110657
0.6510204,-0.1701918,-0.165701
0.6619222,-0.09199161,-0.2583051
0.7634529,-0.01592365,-0.3228195
0.8901836,-0.1254452,-0.2735885
0.9770894,-0.2008765,-0.2698972
0.9356322,-0.2318581,-0.2546087
0.8225365,-0.2500541,-0.1410143
0.7479851,-0.2300421,-0.06572091
0.6680212,-0.2468695,-0.0519933
0.6832347,-0.211681,-0.08655867
0.6903491,-0.154224,-0.1155429
0.6366738,-0.140129,-0.1241502
0.684323,-0.1629204,-0.1696898
0.6900801,-0.2102876,-0.2314639
0.6927535,-0.2040945,-0.2761489
0.8144891,-0.2153716,-0.2586271
0.8930035,-0.249236,-0.2429416
0.8905027,-0.2558237,-0.2709375
0.9286604,-0.3664116,-0.2547716
1.106136,-0.5408378,-0.2492074
1.243398,-0.5827629,-0.2605063
1.326029,-0.5589783,-0.2445815
1.622763,-0.6932958,-0.2525671
1.806457,-0.8562312,-0.2347584
1.667284,-0.8469865,-0.1705609
1.56102,-0.8288259,-0.101844
1.432539,-0.735835,-0.08413285
1.216549,-0.4560065,-0.1436826
1.112017,-0.3225923,-0.1609196
0.9860806,-0.3380577,-0.1333169
0.7942904,-0.283842,-0.1194484
0.6768884,-0.2647012,-0.09459124
0.5562421,-0.2390334,-0.09760756
0.4934488,-0.2075999,-0.1049449
0.5348269,-0.2853534,-0.09617372
0.5435498,-0.3363151,-0.1014645
0.587908,-0.3492596,-0.09568726
0.67009,-0.3566417,-0.09316018
0.7264445,-0.3341837,-0.08663522
0.7561192,-0.3447231,-0.06432052
0.6847199,-0.3217027,-0.0618652
0.6176836,-0.2550929,-0.0778566
0.6442798,-0.1619048,-0.09818739
0.7056628,-0.09111096,-0.1035491
0.7857222,-0.1936269,-0.08845057
0.8201451,-0.3113462,-0.04726695
0.8144632,-0.3190523,-0.01350108
0.8881114,-0.3648491,-0.1317816
1.151354,-0.4656991,-0.414512
1.50806,-0.5911273,-0.6213447
1.634063,-0.694623,-0.6015991
1.597032,-0.66242,-0.5263425
1.663276,-0.5280449,-0.490419
1.595959,-0.396438,-0.2796141
1.36191,-0.2955521,0.003821489
1.275813,-0.2131261,0.01979218
1.260996,-0.08457601,-0.08460677
1.239574,-0.03092715,-0.1422292
1.143794,-0.2107683,-0.2506532
0.9034202,-0.3621807,-0.2760207
0.7993575,-0.3423097,-0.199494
0.7574574,-0.3261932,-0.1719335
0.6077626,-0.3230261,-0.1196733
0.605025,-0.2691355,-0.140734
0.6906262,-0.1655884,-0.2759006
0.716362,-0.1127726,-0.3005788
0.8162998,-0.1257458,-0.2946896
0.8753043,-0.1123477,-0.2621633
0.7652351,-0.1139529,-0.1389852
0.681885,-0.09937096,-0.1187674
0.6754262,-0.04748266,-0.1315605
0.7139241,-0.02580684,-0.1143654
0.7844643,-0.0247332,-0.1178608
0.7463104,-0.05038437,-0.07194735
0.7256187,-0.08407093,-0.05994653
0.8031594,-0.1134688,-0.1055812
0.8196327,-0.1272794,-0.1668749
0.8177894,-0.1627572,-0.2358475
0.8417466,-0.3476951,-0.274692
0.9631993,-0.6082738,-0.320627
1.208835,-0.7890797,-0.3127671
1.430616,-0.851684,-0.2008908
1.630137,-0.8342038,-0.1106566
1.755881,-0.7521205,-0.1639248
1.722514,-0.5420849,-0.2564043
1.617331,-0.3803758,-0.2067543
1.427673,-0.4107558,-0.1089492
1.183582,-0.4281374,-0.01985387
1.075809,-0.3659198,0.01703625
0.9990208,-0.2698667,-0.09145914
0.8007712,-0.1542631,-0.1640417
0.6939822,-0.1460372,-0.1941522
0.6567291,-0.2390459,-0.2255296
0.5853262,-0.312709,-0.1713778
0.6253315,-0.3660585,-0.1579821
0.6378258,-0.3759816,-0.1610281
0.5849363,-0.329527,-0.1496903
0.5872022,-0.3208804,-0.1678021
0.5569805,-0.3518639,-0.1291499
0.6019437,-0.3961647,-0.1088322
0.7546387,-0.4276856,-0.1247124
0.8702027,-0.3617737,-0.1365163
0.9037282,-0.2584882,-0.1474908
0.8403805,-0.2022221,-0.08001783
0.8161694,-0.1847875,0.01532397
0.8330479,-0.1831124,0.07026476
0.8012557,-0.159605,0.0789224
0.7794691,-0.1217592,0.08492003
0.7336581,-0.0797817,0.1242455
0.7586077,-0.1295769,0.04909712
1.002588,-0.4119777,-0.2653601
1.40442,-0.8173365,-0.6655863
1.67214,-1.000592,-0.7500957
1.579958,-0.8496523,-0.5818861
1.593909,-0.7082393,-0.5679341
1.798417,-0.6533016,-0.4933516
1.6106,-0.5102947,-0.2645334
1.311913,-0.3643786,-0.08910809
1.221592,-0.2205996,0.0331278
1.166116,-0.212191,-0.102351
1.202134,-0.327084,-0.3038643
1.134359,-0.3212618,-0.3088649
0.9635489,-0.3813105,-0.269143
0.8416601,-0.406313,-0.1202911
0.6629591,-0.3006757,-0.1006832
0.6519538,-0.2682936,-0.2308533
0.7313706,-0.159277,-0.2388923
0.725971,-0.1215333,-0.2864215
0.7886242,-0.1941056,-0.2261193
0.7848139,-0.1709663,-0.1187656
0.7347156,-0.1749492,-0.1457847
0.671245,-0.1253406,-0.1155488
0.5566187,-0.04627989,-0.1376698
0.5785781,-0.04451664,-0.1608611
0.6624653,-0.06940082,-0.1489241
0.718873,-0.1628593,-0.1609952
0.7320045,-0.2382765,-0.0570468
0.6970701,-0.2592171,0.0251843
0.7374989,-0.2266202,0.02499689
0.8109435,-0.1849699,-0.09292584
0.8907787,-0.2265927,-0.3522418
0.9711088,-0.3412698,-0.5228119
1.137599,-0.6882707,-0.526981
1.496339,-1.080476,-0.4013013
1.689448,-1.077343,-0.2838364
1.652002,-0.8564454,-0.2267544
1.66472,-0.6577169,-0.1858908
1.566671,-0.4331142,-0.2161981
1.351816,-0.3467343,-0.2103292
1.165537,-0.4342837,-0.1432075
0.9338099,-0.4273312,-0.05843622
0.7557004,-0.3664718,0.01598751
0.659629,-0.3132172,-0.02932331
0.5766922,-0.1725589,-0.1042249
0.5616834,-0.1454337,-0.1699729
0.5583513,-0.2537278,-0.2091695
0.5434421,-0.3278621,-0.1293259
0.57245,-0.3741157,-0.07186186
0.6343515,-0.3487888,-0.07800005
0.7174792,-0.2772166,-0.0648712
0.7620217,-0.1833037,-0.0689934
0.7332447,-0.08367133,-0.07610818
0.6977516,-0.1110447,-0.07051144
0.6324489,-0.2303441,-0.07295264
0.5235057,-0.3406129,-0.07626345
0.5473755,-0.3815453,-0.078667
0.7019799,-0.3878445,-0.07732814
0.7962109,-0.4717442,-0.07362916
0.8119664,-0.4963914,-0.0943061
0.8901243,-0.4752862,-0.2267544
1.297187,-0.5876705,-0.4893985
1.766464,-0.6447607,-0.6420868
1.711615,-0.5882575,-0.5595849
1.612883,-0.5148104,-0.4906267
1.770814,-0.335811,-0.4432181
1.634769,-0.2034753,-0.2486736
1.473244,-0.2554038,-0.1187868
1.433541,-0.2714111,-0.1255139
1.249414,-0.2056725,-0.1583627
1.17188,-0.2371275,-0.2398926
0.9916862,-0.3014897,-0.2266286
0.7319183,-0.3017134,-0.163582
0.6849556,-0.27965,-0.1750801
0.5790808,-0.2094546,-0.1506627
0.5940332,-0.1859723,-0.1703822
0.736836,-0.1969342,-0.2436601
0.8238295,-0.1242,-0.3180847
0.9626053,-0.1017157,-0.3826828
0.9130506,-0.1097177,-0.3032189
0.794686,-0.1092763,-0.1867556
0.6860329,-0.1456703,-0.08672222
0.5122882,-0.1309082,-0.0001289124
0.5554902,-0.1124181,-0.03891445
0.6617917,-0.1058789,-0.06245984
0.7461534,-0.1261942,-0.1043568
0.8203454,-0.1946378,-0.2180389
0.7679398,-0.2085926,-0.2294969
0.782408,-0.2257737,-0.2469104
0.8175853,-0.3001904,-0.3091002
0.9061171,-0.5221688,-0.3153793
1.169215,-0.8338421,-0.313307
1.388352,-0.841499,-0.2749027
1.586982,-0.7225221,-0.1757261
1.720452,-0.7885192,-0.06727136
1.609196,-0.734527,-0.03249777
1.482296,-0.5988131,-0.07946939
1.436841,-0.5780538,-0.1249047
1.279228,-0.50443,-0.2033638
1.104127,-0.4485198,-0.2297475
0.9898896,-0.4304578,-0.1265883
0.7983855,-0.3777021,-0.06547345
0.6657187,-0.3915717,-0.05096779
0.6402257,-0.3632164,-0.06511803
0.5847869,-0.2996578,-0.1148137
0.5616132,-0.2908267,-0.1015038
0.5232465,-0.2543992,-0.09773106
0.4863147,-0.2522021,-0.0930385
0.5198391,-0.2779435,-0.0513564
0.5170968,-0.2833333,-0.05293815
0.5289435,-0.2816466,-0.06044807
0.5541334,-0.2261312,-0.1038228
0.5617117,-0.1929579,-0.1505724
0.6337536,-0.2450758,-0.09739023
0.6897145,-0.2976875,-0.01597664
0.6920783,-0.2785262,0.01454467
0.7306944,-0.2649029,-0.08055269
0.9249094,-0.3436292,-0.3379595
1.366227,-0.4767803,-0.6062501
1.795996,-0.6190574,-0.6698062
1.872349,-0.6244032,-0.6386837
1.859083,-0.5334624,-0.7253261
1.96165,-0.5416831,-0.6861338
1.73286,-0.5008888,-0.3534595
1.336726,-0.4072419,0.01946386
1.28714,-0.3562842,0.0997461
1.297789,-0.2289396,-0.1444115
1.210675,-0.1496666,-0.2800239
1.089707,-0.1845945,-0.2420919
0.8701881,-0.197187,-0.221822
0.7528266,-0.1974867,-0.1311587
0.7328822,-0.2033792,-0.1191749
0.6806242,-0.187014,-0.1852535
0.6491632,-0.1383305,-0.2111375
0.6402109,-0.09553857,-0.2662166
0.6637807,-0.09134419,-0.2202761
0.6733325,-0.1075185,-0.1239153
0.6322175,-0.1354757,-0.05562338
0.5690442,-0.1467305,-0.007576592
0.5190408,-0.1085583,-0.0683163
0.5570225,-0.05583524,-0.110948
0.6310228,-0.07281462,-0.1596732
0.6879593,-0.1184087,-0.2574948
0.7662177,-0.1576359,-0.3205897
0.8889199,-0.3107885,-0.4377124
1.18154,-0.607355,-0.4830337
1.586774,-0.9813008,-0.4142488
1.752049,-1.178439,-0.3629462
1.709006,-1.051283,-0.1811807
1.729599,-0.866207,-0.002545228
1.643619,-0.6207929,-0.08382639
1.377095,-0.3582134,-0.1425713
1.178448,-0.3654294,-0.06640787
1.037861,-0.4024744,-0.07452584
0.8794485,-0.3310774,-0.06830785
0.6960566,-0.2795878,-0.03602082
0.5671183,-0.1988416,-0.09511297
0.6081129,-0.2070257,-0.12012
0.617475,-0.2686499,-0.1272925
0.5801837,-0.2743578,-0.125088
0.6260079,-0.3128927,-0.06511155
0.6112394,-0.3249475,-0.05539584
0.6047098,-0.3135311,-0.04961231
0.6432253,-0.2886042,-0.05771502
0.6218642,-0.2216071,-0.1065092
0.5910511,-0.2157779,-0.09110603
0.554724,-0.2590676,-0.08669001
0.6161433,-0.3131169,-0.09671565
0.7519063,-0.3337256,-0.08118126
0.7603466,-0.266837,-0.07078601
0.7071758,-0.1925332,-0.004973974
0.7074003,-0.191854,-0.0023925
0.9350311,-0.3396777,-0.2382841
1.489883,-0.5935303,-0.5276991
1.861462,-0.7489809,-0.5624558
1.647462,-0.7231865,-0.4803511
1.464152,-0.6110394,-0.4381647
1.718824,-0.5030439,-0.2482722
1.775269,-0.433924,-0.1435495
1.569276,-0.3920692,-0.2079011
1.469553,-0.2637926,-0.1046517
1.294151,-0.1347888,-0.06406803
1.142394,-0.1844007,-0.1408063
1.048175,-0.2538424,-0.1204699
0.8995299,-0.2698734,-0.1596971
0.8278151,-0.2466032,-0.1869629
0.7323035,-0.1531835,-0.1546689
0.6989126,-0.1559481,-0.1729075
0.7517155,-0.1898924,-0.2043531
0.7570179,-0.1598906,-0.2742549
0.8192255,-0.1681442,-0.3068336
0.8383803,-0.1526316,-0.2611933
0.807699,-0.1525673,-0.2130802
0.7435482,-0.1740706,-0.1503556
0.6121087,-0.1288711,-0.1231044
0.6312792,-0.1139825,-0.1559298
0.7581507,-0.1334744,-0.1916647
0.8338737,-0.1564399,-0.2167357
0.8340576,-0.1926254,-0.2180192
0.7950091,-0.2162855,-0.1580029
0.787576,-0.2399493,-0.08526714
0.7184182,-0.2522169,-0.1014604
0.6432732,-0.2927238,-0.1628564
0.7211167,-0.3884956,-0.2274816
0.9462745,-0.5443774,-0.3202683
1.254077,-0.7206135,-0.3708022
1.467316,-0.7839463,-0.3267273
1.638233,-0.855966,-0.1838318
1.804679,-0.9105422,-0.06639699
1.66124,-0.6652336,-0.1863556
1.426632,-0.4367594,-0.333092
1.315438,-0.5120132,-0.222746
1.551297,-0.780382,-0.1394775
1.839362,-0.7830421,-0.1526428
1.921649,-0.79054,-0.2096414
1.796472,-0.7105412,-0.2107153
1.541048,-0.6163519,-0.2423108
1.27927,-0.617425,-0.1498416
1.044505,-0.5470999,0.0524331
0.9769689,-0.3757759,0.04958289
0.9258792,-0.2865149,-0.005340241
0.7540939,-0.2146047,-0.002450439
0.6621098,-0.1517425,-0.06442347
0.6150253,-0.2048175,-0.07020342
0.5583907,-0.2327206,-0.06574488
0.5226485,-0.2154763,-0.1101794
0.5148229,-0.2299229,-0.09274159
0.5364702,-0.2069838,-0.06720959
0.5190537,-0.2261184,-0.04545978
0.5246006,-0.2833585,0.001659342
0.5593374,-0.2912122,-0.001070912
0.6483212,-0.3244048,-0.04404973
0.8357835,-0.3514311,-0.06435992
0.902213,-0.3653438,-0.06125374
0.8505323,-0.3884966,-0.08758157
0.9230982,-0.3982838,-0.2456328
1.242228,-0.4694251,-0.4913509
1.65824,-0.5702615,-0.6044191
1.764233,-0.6350772,-0.5781098
1.688282,-0.6006699,-0.5193669
1.832435,-0.4983213,-0.3981163
1.847224,-0.486198,-0.2814731
1.487683,-0.4052258,-0.1398806
1.207902,-0.223369,0.04879075
1.197642,-0.1765271,-0.05980364
1.202583,-0.1866025,-0.3185056
1.013064,-0.2060722,-0.2886966
0.7898411,-0.2566071,-0.2297139
0.7035371,-0.2425815,-0.2288032
0.6049567,-0.2175212,-0.1436896
0.5763323,-0.217353,-0.1571515
0.6143654,-0.2009245,-0.1960719
0.6145367,-0.185198,-0.2139695
0.7041965,-0.1733678,-0.2316349
0.7333479,-0.1620369,-0.1419441
0.700273,-0.153455,-0.0724538
0.6814099,-0.1330171,-0.03189727
0.596547,-0.08596052,-0.001979001
0.6172691,-0.04355988,-0.0448347
0.710038,-0.05918029,-0.1047314
0.7871873,-0.113673,-0.2087017
0.8310297,-0.1880186,-0.2566179
0.7617935,-0.3084446,-0.1872717
0.761916,-0.4453765,-0.156044
0.9205034,-0.5925918,-0.2070665
1.189832,-0.7094728,-0.2512787
1.504582,-0.7228229,-0.2192191
1.716454,-0.7636521,-0.2011284
1.78872,-0.7981072,-0.2181299
1.743444,-0.6743259,-0.2300866
1.673209,-0.591161,-0.257059
1.498691,-0.5872741,-0.1863424
1.183613,-0.5224429,-0.07558261
1.072101,-0.4554041,-0.0539588
0.9996485,-0.3589318,-0.02394523
0.7493819,-0.2341082,-0.002275115
0.6786369,-0.1742003,-0.05625573
0.6471529,-0.1651418,-0.1240463
0.5533785,-0.2180687,-0.1628743
0.6247792,-0.3193782,-0.1567256
0.6412098,-0.3713065,-0.1204989
0.6320963,-0.3676822,-0.09428841
0.6399794,-0.3475759,-0.07838634
0.5108885,-0.2868989,-0.07631482
0.4719685,-0.2132525,-0.06871178
0.5117953,-0.1915457,-0.03888071
0.563349,-0.2218487,-0.0552804
0.7284205,-0.2810851,-0.09007945
0.8482461,-0.3263726,-0.08268451
0.8092354,-0.2996534,-0.06783134
0.6885683,-0.2096563,-0.02823705
0.6514607,-0.1828071,-0.04823317
0.8109938,-0.3316524,-0.2881858
1.339469,-0.5907376,-0.6299758
1.966545,-0.7616066,-0.7363521
1.964981,-0.7684431,-0.6046185
1.790154,-0.740417,-0.5457879
1.861557,-0.6571237,-0.3781288
1.486989,-0.4466036,0.02419164
1.058948,-0.2772916,0.141653
1.118769,-0.2151704,-0.03690239
1.184154,-0.1432439,-0.2021929
1.188255,-0.06689708,-0.4069229
1.063234,-0.1514742,-0.425532
0.7671276,-0.3279551,-0.2364904
0.6238014,-0.3276856,-0.1714289
0.5533426,-0.2780854,-0.1151054
0.5379928,-0.2752059,-0.09021948
0.6153857,-0.1658014,-0.1797244
0.6665689,-0.07599169,-0.1611429
0.7090633,-0.03302785,-0.1721993
0.704114,0.01066983,-0.2305887
0.7225274,-0.03768093,-0.2122945
0.7360545,-0.07585979,-0.2265652
0.6373699,-0.1009293,-0.1493152
0.5802018,-0.1669653,-0.06230403
0.642128,-0.1806777,-0.09192852
0.7746303,-0.1576259,-0.09122298
0.8362178,-0.1275979,-0.1459808
0.7871107,-0.1464562,-0.255784
0.7825883,-0.3052745,-0.288725
0.8947429,-0.5715846,-0.2709177
1.150318,-0.7801191,-0.2709404
1.439108,-0.8230057,-0.2643084
1.637756,-0.840686,-0.2283913
1.839617,-0.8165322,-0.2710243
2.006923,-0.6161869,-0.3302469
1.869341,-0.3981558,-0.3096042
1.491721,-0.2740766,-0.2122065
1.232936,-0.2322726,-0.07505085
1.061448,-0.2650764,-0.06279135
0.8563442,-0.2897428,-0.085759
0.7045212,-0.2410787,-0.07766465
0.6336877,-0.1697466,-0.1751439
0.6250415,-0.1900184,-0.2310442
0.6127831,-0.2733259,-0.2118985
0.6088176,-0.368599,-0.1983276
0.5845157,-0.4173044,-0.1174072
0.5281545,-0.339227,-0.06684373
0.5242938,-0.282952,-0.07386139
0.5012117,-0.2820518,-0.06087187
0.5121291,-0.2679676,-0.05936724
0.5752646,-0.2807687,-0.04082129
0.6440471,-0.2689098,-0.03007119
0.7748736,-0.2713997,-0.05308588
0.8425469,-0.2978089,-0.05576177
0.8567608,-0.2993823,-0.04156395
0.8495134,-0.3234838,0.01461738
0.7763065,-0.3173977,0.07316004
0.7175243,-0.2610176,0.03377251
0.7118872,-0.2217128,-0.1120728
0.972798,-0.3282459,-0.3588185
1.461838,-0.608461,-0.5991075
1.732983,-0.7966205,-0.6650593
1.740955,-0.7598867,-0.616096
1.714664,-0.60713,-0.5185445
1.612304,-0.4540802,-0.2322037
1.351173,-0.3735953,0.09516728
1.24168,-0.351293,0.1072235
1.401502,-0.2990672,-0.104807
1.469187,-0.2035471,-0.2663189
1.364052,-0.223641,-0.3106493
1.102905,-0.3149998,-0.2515283
0.7408545,-0.3253549,-0.1620807
0.6294709,-0.305115,-0.1081217
0.6737359,-0.218947,-0.1259681
0.6139861,-0.1076341,-0.2013049
0.6584321,-0.05311495,-0.2279896
0.7607849,-0.0297305,-0.2277325
0.7578166,-0.06389176,-0.2222727
0.7789431,-0.06339384,-0.1598304
0.7067967,-0.04295224,-0.127779
0.5472833,-0.06352531,-0.1098427
0.5216668,-0.07093086,-0.06729446
0.5927768,-0.147713,-0.04744434
0.7521496,-0.2463462,-0.005171046
0.8564664,-0.2641761,0.01825652
0.7524787,-0.2051872,0.02820879
0.626951,-0.09917628,0.05950007
0.6131351,-0.07539429,0.05112276
0.7173779,-0.1551343,-0.03442257
0.9374183,-0.3464019,-0.3354837
1.234138,-0.6271863,-0.6787849
1.424111,-0.8054867,-0.6310434
1.496349,-0.8971578,-0.325628
1.694569,-0.978333,-0.1599104
1.84799,-0.8482868,-0.2070571
1.809673,-0.4648744,-0.3613585
1.75537,-0.2390316,-0.4395941
1.619606,-0.390758,-0.3454204
1.435017,-0.5594782,-0.2237971
1.250622,-0.5945088,-0.09555961
0.9737331,-0.6653693,0.05237266
0.8441184,-0.458263,-0.04562777
0.8187507,-0.06155192,-0.2614868
0.7095121,-0.1534652,-0.2224231
0.7380304,-0.2951477,-0.1625322
0.6799784,-0.1875722,-0.1595
0.5038477,-0.3305766,-0.01586202
0.5725743,-0.3401485,-0.0006323288
0.6165749,-0.2484319,-0.07548602
0.6272806,-0.3750982,-0.04404339
0.7155575,-0.3156223,-0.08965782
0.7032388,-0.2880353,-0.1145869
0.6785802,-0.3157316,-0.05938282
0.5776929,-0.1750772,-0.01701423
0.5204216,-0.1278486,0.01949537
0.5918008,-0.06833916,-0.01560832
0.6215626,-0.03843442,-0.03141375
0.7472152,-0.119963,-0.01549103
0.8414956,-0.1805559,-0.02256531
0.8605398,-0.3004202,-0.003032193
0.917574,-0.3403717,-0.02607088
0.8519309,-0.3022491,-0.1071218
0.8527374,-0.3513802,-0.2773846
1.07725,-0.4453191,-0.4872608
1.353168,-0.5532566,-0.5525173
1.563633,-0.5747105,-0.5628948
1.793943,-0.5497223,-0.6315856
1.957878,-0.5523629,-0.5624486
1.584922,-0.4802503,-0.1053676
1.125745,-0.3764669,0.4024728
1.26544,-0.2806961,0.2985393
1.424554,-0.1402751,-0.08846705
1.355991,-0.05953618,-0.2455895
1.269505,-0.1340268,-0.3942071
0.9675115,-0.223269,-0.2851684
0.6972767,-0.2657106,-0.006411162
0.5872064,-0.3088301,-0.09454972
0.4735492,-0.2592815,-0.1404817
0.5389257,-0.1870162,-0.1707924
0.6787569,-0.1818586,-0.3510806
0.7960587,-0.1763755,-0.313441
0.9055768,-0.208796,-0.2856471
0.8262158,-0.2228942,-0.223547
0.7375061,-0.179271,-0.085275
0.6834397,-0.1409892,-0.09056849
0.6051406,-0.1039258,-0.02613158
0.6701129,-0.1172984,0.01484994
0.7145812,-0.1355144,-0.02871433
0.7937157,-0.1278129,-0.1011809
0.9696999,-0.1427287,-0.2014279
0.9480346,-0.1343013,-0.1904812
0.8564764,-0.1393696,-0.1800442
0.8323603,-0.1936253,-0.1777671
0.8776541,-0.3471065,-0.1921482
1.043038,-0.5922074,-0.2582832
1.14872,-0.6838829,-0.2826614
1.210257,-0.6440791,-0.3118978
1.406305,-0.6860131,-0.2482677
1.652113,-0.713552,-0.1574654
1.657764,-0.6286779,-0.1696415
1.489089,-0.5493203,-0.1365306
1.462809,-0.5461237,-0.08281623
1.365274,-0.5133268,-0.05728531
1.168557,-0.3478347,-0.01143186
1.079267,-0.1683991,0.03366896
0.930497,-0.1319059,0.0007179249
0.7862774,-0.1463797,-0.06722769
0.6574627,-0.1203781,-0.04270264
0.547838,-0.1552744,-0.02667176
0.5671621,-0.2280632,-0.0376334
0.5536647,-0.2385613,-0.009440948
0.6047299,-0.2070505,-0.009792564
0.6945366,-0.1361148,0.009584256
0.6841953,-0.09950098,0.03299405
0.675644,-0.1622211,0.002795553
0.6312007,-0.2386674,-0.01476716
0.6618165,-0.3001434,-0.01742665
0.7380537,-0.346372,-0.03773957
0.7504448,-0.3908148,-0.08976397
0.7496666,-0.4078188,-0.1271362
0.6310994,-0.3127608,-0.1187605
0.5306253,-0.2323232,-0.1405865
0.6966688,-0.3064853,-0.2475235
1.351255,-0.4902328,-0.5040242
2.073188,-0.6440524,-0.7899116
1.982305,-0.6121696,-0.8105891
1.764995,-0.5393541,-0.6682784
1.858017,-0.5822288,-0.3375131
1.368083,-0.52785,0.3346925
1.043831,-0.3332922,0.508885
1.408135,-0.1238646,-0.01116867
1.410305,0.02151784,-0.3017768
1.222063,-0.08057367,-0.4110012
1.088683,-0.2632857,-0.3346982
0.8029828,-0.3373515,-0.04041301
0.6925038,-0.3902201,-0.07415529
0.616597,-0.2646963,-0.09269174
0.5880705,-0.08694688,-0.06870544
0.6751811,-0.04400343,-0.1959624
0.6846828,0.04004325,-0.1683548
0.7436047,0.07615461,-0.2247476
0.7183727,0.03284198,-0.2295559
0.6454914,-0.02623053,-0.1122821
0.6516465,-0.118405,-0.09831614
0.6454664,-0.1513103,0.001783005
0.7817402,-0.1519857,-0.01445199
0.952224,-0.1245841,-0.1004957
0.9911185,-0.07673937,-0.07607335
0.9470479,-0.03518256,-0.07708149
0.8539935,-0.004674033,-0.006831397
0.7739457,-0.06012812,0.01716408
0.7233292,-0.1386502,-0.0319675
0.7700368,-0.2981506,-0.1501969
0.9389043,-0.5951826,-0.4215125
1.261072,-0.8631582,-0.4918686
1.556663,-0.9958073,-0.3852133
1.608505,-0.914629,-0.3985536
1.763585,-0.7083674,-0.4189504
1.891307,-0.4866862,-0.3978147
1.628165,-0.3662975,-0.3562446
1.392963,-0.4680832,-0.2524322
1.297593,-0.4917561,-0.1542772
1.172812,-0.4011641,-0.1259389
1.054487,-0.3795979,-0.1326268
0.8893586,-0.2694226,-0.1473068
0.7751152,-0.1990452,-0.1831954
0.711483,-0.2231259,-0.2087138
0.6779313,-0.2320882,-0.1951544
0.7186726,-0.3597223,-0.1597029
0.6738451,-0.4395718,-0.1216348
0.638991,-0.397454,-0.0933616
0.6667727,-0.4019888,-0.07257411
0.6490283,-0.381512,-0.04762749
0.6852481,-0.3333289,-0.02172821
0.6874509,-0.2900681,-0.0231903
0.6649942,-0.2297595,-0.03517166
0.7165983,-0.1746135,-0.02032287
0.7279678,-0.1634749,-0.008926341
0.7632676,-0.2090694,-0.008694612
0.8044494,-0.2172482,-0.01199141
0.7947404,-0.2184215,-0.02358643
0.8376087,-0.2409272,0.009792385
0.886437,-0.241319,0.08121078
0.902313,-0.2744345,0.1113341
0.8751503,-0.2796132,0.07993269
0.8224434,-0.2695676,0.01028811
0.8145505,-0.324842,-0.1077227
0.8875671,-0.4674331,-0.3779978
1.148807,-0.7166597,-0.7373033
1.428495,-0.8220803,-0.8257602
1.452045,-0.7443063,-0.5988688
1.522923,-0.6899338,-0.4271115
1.717292,-0.5431678,-0.3778356
1.505004,-0.3804968,-0.2269114
1.152129,-0.3313025,-0.003067735
1.181451,-0.2355911,0.04356307
1.203872,-0.1505125,-0.1251549
1.120869,-0.138179,-0.2506109
1.049203,-0.1913976,-0.2346905
0.8028509,-0.316606,-0.1790353
0.6417844,-0.3291692,-0.1114622
0.6812664,-0.2579137,-0.1039636
0.7292473,-0.221816,-0.1421229
0.8018521,-0.1637158,-0.1751998
0.9036849,-0.1126739,-0.26591
0.9682621,-0.08215777,-0.3076352
0.9382986,-0.1053597,-0.2600045
0.8941473,-0.1616603,-0.2121269
0.7971476,-0.1531171,-0.1266791
0.6336269,-0.1483282,-0.05926766
0.6026282,-0.1435009,-0.06158572
0.6125815,-0.1187263,-0.07378752
0.6036184,-0.127362,-0.1024521
0.6509292,-0.1380949,-0.1360208
0.7089683,-0.1636933,-0.1489532
0.7468186,-0.1755983,-0.1666704
0.7129741,-0.1721148,-0.1833209
0.7198855,-0.2599564,-0.2108777
0.8841694,-0.447409,-0.2995451
1.189782,-0.6506301,-0.4147463
1.5591,-0.8051077,-0.4454401
1.800419,-0.9814394,-0.3496091
1.886115,-1.07621,-0.2447393
1.770274,-0.8452163,-0.2124323
1.48962,-0.5212386,-0.1582268
1.341632,-0.4106689,-0.08126659
1.280993,-0.441792,-0.0718267
1.162303,-0.4077254,-0.08635328
1.064009,-0.2707061,-0.08760603
0.9859224,-0.2804825,-0.1159906
0.8574754,-0.3359363,-0.1498199
0.6768916,-0.2462609,-0.1443139
0.5576975,-0.2497417,-0.1059358
0.4913061,-0.2870825,-0.05028251
0.4667811,-0.2833206,-0.02586471
0.5327916,-0.3198047,-0.0459257
0.5509551,-0.2657286,-0.04747183
0.5407024,-0.2080446,-0.05214503
0.5361413,-0.1730289,-0.07270122
0.502932,-0.1042533,-0.06370755
0.5568278,-0.09534916,-0.06272408
0.6234548,-0.1199368,-0.07570256
0.7045109,-0.2208982,-0.07960638
0.8455394,-0.3252085,-0.0833688
0.8486844,-0.2961697,-0.04753473
0.7659919,-0.2889414,-0.03348501
0.8519137,-0.3996905,-0.1919474
1.249862,-0.5365851,-0.4243262
1.722471,-0.6266232,-0.5302384
1.779461,-0.6583608,-0.5709523
1.704525,-0.5678951,-0.5762365
1.845912,-0.442135,-0.4332612
1.607074,-0.4759197,-0.1650819
1.146338,-0.5036333,0.1153558
1.133779,-0.4012461,0.1418169
1.220312,-0.2521529,-0.1238604
1.217266,-0.1049012,-0.302109
1.14997,-0.1537486,-0.3453985
0.9217579,-0.2832746,-0.3255554
0.7556269,-0.2598933,-0.2170075
0.6447688,-0.2869733,-0.1496032
0.6013061,-0.3039233,-0.1291645
0.5863065,-0.1935864,-0.1886741
0.5337693,-0.1328671,-0.2486305
0.6242888,-0.07407356,-0.198693
0.7070132,-0.05831163,-0.1561677
0.7384419,-0.09270233,-0.09578835
0.7379405,-0.07803132,-0.1194148
0.6681117,-0.1190444,-0.1900975
0.6819572,-0.1291442,-0.115031
0.6537036,-0.1534154,-0.07322381
0.6337343,-0.2593389,-0.05392106
0.7357516,-0.2427346,-0.04024057
0.8162957,-0.216049,-0.1313821
0.8730433,-0.2681143,-0.2276969
0.9114282,-0.3948523,-0.3131701
1.067842,-0.6474921,-0.2925676
1.296484,-0.7607148,-0.2108213
1.439759,-0.6960677,-0.1935263
1.698527,-0.7147422,-0.1541465
1.923497,-0.7338676,-0.2231922
1.850838,-0.628263,-0.3267174
1.621035,-0.5396963,-0.2501687
1.299875,-0.5183138,-0.1742202
1.005678,-0.4943021,-0.1139885
0.8878231,-0.420308,-0.001399966
0.8135963,-0.2970643,0.05603635
0.7425485,-0.2345687,-0.001929697
0.7155714,-0.2093307,-0.14926
0.6453785,-0.1828266,-0.1826627
0.59077,-0.2497441,-0.1269109
0.5834249,-0.3279481,-0.1453704
0.5844765,-0.3537617,-0.1243871
0.6394672,-0.3586638,-0.08621232
0.6493402,-0.3302537,-0.08007937
0.5917308,-0.2909464,-0.06274216
0.5614193,-0.2399282,-0.04623765
0.5753253,-0.2260863,-0.004028809
0.6226727,-0.2488973,-0.04077228
0.6410157,-0.2366846,-0.105342
0.7163735,-0.2298738,-0.07420234
0.8561104,-0.2388472,-0.07894307
0.8675668,-0.2720808,-0.07033346
0.7797484,-0.3256034,-0.02120178
0.7011799,-0.3242564,-0.05887661
0.7666155,-0.3358262,-0.1583614
1.182472,-0.4402471,-0.3685374
1.709902,-0.5654482,-0.6128071
1.760808,-0.6103224,-0.5978442
1.509189,-0.5593068,-0.3831703
1.540928,-0.5274675,-0.2243043
1.616787,-0.5094791,-0.1479736
1.57453,-0.3769253,-0.1407804
1.545473,-0.222383,-0.1888898
1.32788,-0.1860322,-0.2220799
1.105713,-0.2455157,-0.2067451
0.979684,-0.3387985,-0.1791511
0.8344845,-0.4087192,-0.2218675
0.7886055,-0.4086765,-0.247337
0.710785,-0.3183477,-0.1828376
0.6339958,-0.211561,-0.1418134
0.6252289,-0.1411357,-0.1411115
0.5967049,-0.08242623,-0.1849617
0.6412711,-0.07366422,-0.2252259
0.6486535,-0.09400842,-0.1820819
0.6047697,-0.1130917,-0.1292865
0.5963432,-0.1552908,-0.09848851
0.6038685,-0.1784901,-0.1062084
0.693495,-0.1786109,-0.1301613
0.7544978,-0.1900454,-0.1213954
0.7267361,-0.1971977,-0.1208578
0.6851229,-0.14393,-0.09907817
0.673842,-0.09229694,-0.08374343
0.757491,-0.2021782,-0.1778324
0.9440076,-0.4408728,-0.3445261
1.254224,-0.704383,-0.4421601
1.566008,-0.9132079,-0.3827337
1.727949,-0.9815025,-0.2514082
1.802944,-0.9457972,-0.1648808
1.830404,-0.7757317,-0.1915194
1.758933,-0.4948638,-0.2915364
1.561392,-0.4004901,-0.2970775
1.299119,-0.4882256,-0.1925419
1.043421,-0.4705835,-0.05405484
0.8604314,-0.409855,0.01353907
0.7547999,-0.3591306,-0.05235107
0.660584,-0.2242155,-0.09068393
0.6102131,-0.1661983,-0.1161587
0.562518,-0.2068576,-0.1715975
0.5046461,-0.2281531,-0.1379149
0.5093598,-0.2807981,-0.1238815
0.5272921,-0.2981955,-0.1282825
0.5864773,-0.2687158,-0.08744725
0.6565878,-0.2820985,-0.08784985
0.6352229,-0.2646429,-0.08145237
0.6056829,-0.2014103,-0.07963953
0.6150761,-0.1542371,-0.07782289
0.6332784,-0.1774824,-0.0599219
0.7087247,-0.2806585,-0.1167855
0.8139782,-0.337628,-0.1573582
0.8014435,-0.2928625,-0.1113016
0.719904,-0.2140654,-0.02825476
0.673936,-0.1746042,0.05551443
0.6188196,-0.2080331,0.04210537
0.7513922,-0.349292,-0.156206
1.300584,-0.5995286,-0.4773806
1.866429,-0.729428,-0.6910093
1.840471,-0.6750585,-0.7507962
1.634641,-0.6616024,-0.718154
1.748147,-0.6257812,-0.3829341
1.508313,-0.4679267,0.1596505
1.134908,-0.2843856,0.3247318
0.7223781,-0.3607258,0.03223892
0.5783163,-0.2752337,0.002362849
0.5802621,-0.1877648,-0.0629706
0.5830094,-0.1557466,-0.1307541
0.563714,-0.1884631,-0.1330323
0.6056767,-0.1998146,-0.1378376
0.6450147,-0.2217793,-0.1037647
0.696082,-0.215458,-0.02668914
0.7079022,-0.1772688,-0.01817478
0.6606407,-0.1828527,-0.01994501
0.6716128,-0.2340983,-0.0001213346
0.6529767,-0.3152882,0.03651241
0.6599222,-0.3512044,0.03871834
0.8267522,-0.3544246,-0.04161218
0.9884304,-0.3987592,-0.112321
1.059004,-0.3990769,-0.1540635
1.115572,-0.3911058,-0.2516923
1.310094,-0.4913216,-0.481831
1.478447,-0.5718585,-0.6183133
1.438141,-0.5516466,-0.4648826
1.567269,-0.525368,-0.3654814
1.724232,-0.4702303,-0.3731913
1.537317,-0.3421451,-0.1559666
1.31342,-0.2470332,0.1291427
1.170355,-0.1881103,0.1386421
1.072795,-0.1041656,-0.03712728
1.02912,-0.09106914,-0.1681008
0.9141125,-0.1327124,-0.2460852
0.7981545,-0.1743176,-0.213422
0.6735071,-0.2445342,-0.114339
0.5513415,-0.2504256,-0.1262801
0.5695927,-0.2098045,-0.1320948
0.6419368,-0.1688386,-0.164266
0.774203,-0.09755697,-0.2659013
0.9021339,-0.06874953,-0.2281663
0.8471329,-0.05862536,-0.1455607
0.7662432,-0.04344481,-0.08682923
0.7112904,-0.05187026,-0.06253267
0.6577636,-0.06661283,-0.1390003
0.712761,-0.1433062,-0.1688994
0.7445064,-0.2674547,-0.1768651
0.7126394,-0.3348828,-0.2023478
0.7443213,-0.3540779,-0.2110045
0.8513081,-0.4467611,-0.2494017
1.09066,-0.6037224,-0.2380437
1.397828,-0.7057955,-0.2194283
1.586443,-0.7868544,-0.2000354
1.661418,-0.866217,-0.1271395
1.670263,-0.8474442,-0.1324608
1.599432,-0.6942604,-0.1705661
1.426827,-0.5030646,-0.1622791
1.142199,-0.3972022,-0.1098045
0.9126597,-0.3326902,-0.00102668
0.8327793,-0.2393664,0.0280348
0.7336458,-0.1871046,-0.03097692
0.6090796,-0.2056635,-0.0688386
0.5381269,-0.2162952,-0.09181207
0.4887042,-0.208143,-0.08516058
0.4961923,-0.2015478,-0.04730782
0.5080509,-0.1706744,-0.01423048
0.4884158,-0.1744881,0.001719994
0.5195452,-0.2380418,0.01226487
0.5711239,-0.2975078,0.02198795
0.6575376,-0.3198515,-0.04136014
0.7770482,-0.3242107,-0.1466312
0.8049291,-0.3785108,-0.1553184
0.7551148,-0.4326207,-0.1526305
0.806952,-0.4674243,-0.2990508
1.172188,-0.5458966,-0.4972799
1.648128,-0.5701204,-0.5648604
1.744428,-0.5486286,-0.5419749
1.707861,-0.515465,-0.5356743
1.832616,-0.4263352,-0.4185999
1.565991,-0.4250836,-0.1185619
1.062494,-0.4540181,0.176963
1.046363,-0.3462098,0.2127175
1.220794,-0.2193254,-0.09957055
1.219651,-0.1493056,-0.3838683
1.063078,-0.1588679,-0.3741575
0.7661842,-0.1944331,-0.2410836
0.6057009,-0.1695661,-0.08107512
0.5518056,-0.1809804,-0.05106272
0.5033049,-0.1584495,-0.1436084
0.5983296,-0.06544249,-0.1708864
0.7068759,-0.03824266,-0.1813917
0.7704463,-0.005597579,-0.1623581
0.7964474,0.02456533,-0.1444122
0.7604831,0.02595289,-0.1521626
0.7356205,0.05006841,-0.1200307
0.7000412,-0.008593612,-0.07595834
0.7163466,-0.09742226,-0.007002249
0.8116586,-0.1354136,-0.0289394
0.8660894,-0.1942083,-0.1030053
0.8581287,-0.2111593,-0.1046463
0.8509399,-0.2424339,-0.2143163
0.9279139,-0.4474908,-0.3658234
1.038333,-0.6286987,-0.3757889
1.192366,-0.6866057,-0.2949562
1.470316,-0.8227942,-0.1959235
1.617487,-0.8483979,-0.1663257
1.640548,-0.636208,-0.2535239
1.789028,-0.4977913,-0.3641008
1.735246,-0.4472801,-0.332776
1.421842,-0.4165273,-0.2094762
1.201097,-0.4350956,-0.07678933
0.9529903,-0.3688895,0.06842339
0.7411486,-0.233801,0.03830553
0.6702703,-0.1113506,-0.09123473
0.5559808,-0.07323891,-0.1467059
0.5556103,-0.1653043,-0.1899987
0.6084993,-0.2793642,-0.1431266
0.6017258,-0.3859811,-0.094
0.6875906,-0.4102187,-0.09629595
0.7084477,-0.336984,-0.04080425
0.6646435,-0.3136189,-0.04022503
0.6493036,-0.2893933,-0.04181489
0.6532196,-0.2640877,-0.02875367
0.7612453,-0.2941239,-0.06681028
0.8499256,-0.2933912,-0.03821462
0.8368238,-0.2570845,0.01067413
0.7669933,-0.1960419,0.08378584
0.7253659,-0.1642109,0.1384801
0.8139315,-0.2576728,-0.02440604
1.079758,-0.4651333,-0.3381925
1.475906,-0.7409332,-0.6215386
1.594671,-0.9086351,-0.6958765
1.454852,-0.8183153,-0.6465434
1.510173,-0.6460635,-0.6206176
1.546865,-0.5550641,-0.3120846
1.395952,-0.5028246,0.1025712
1.277639,-0.4036884,0.1244673
1.220396,-0.2235605,0.02483396
1.238936,-0.175874,-0.1015154
1.200303,-0.2971488,-0.3486145
1.000108,-0.3483438,-0.2785663
0.8269471,-0.4196682,-0.08349532
0.6844334,-0.4365122,-0.1169336
0.5242915,-0.2579747,-0.06366992
0.4749537,-0.1155974,-0.09546235
0.5340429,-0.01952972,-0.2419585
0.5854263,-0.01777401,-0.1748484
0.61804,-0.0961315,-0.167257
0.6531672,-0.08392961,-0.1603489
0.6210629,-0.1086716,-0.05230694
0.61066,-0.1110021,-0.09950633
0.7518348,-0.09483065,-0.1073598
0.9141475,-0.133201,-0.06889536
0.9652227,-0.07313149,-0.0931634
0.8768452,-0.02186797,-0.05947894
0.7455864,-0.01085383,-0.06031068
0.6538757,-0.04326874,-0.1265158
0.6623596,-0.2542639,-0.2571661
0.9993648,-0.6116988,-0.4378618
1.501379,-0.9718956,-0.5072185
1.717271,-1.070296,-0.4081374
1.679214,-0.9963579,-0.195373
1.69399,-0.8683238,-0.0717479
1.772439,-0.5258153,-0.2327084
1.725599,-0.3477252,-0.4299307
1.529593,-0.5021796,-0.3245563
1.162777,-0.548861,-0.1207783
0.7974786,-0.4659959,0.00203069
0.6863115,-0.3635064,0.07388768
0.6231914,-0.1683787,-0.06743952
0.56628,-0.07634604,-0.1913865
0.568852,-0.1801496,-0.1541303
0.4979513,-0.2333299,-0.188318
0.4561832,-0.2424021,-0.1442171
0.4175997,-0.266306,-0.06292317
0.3732444,-0.2085106,-0.05570305
0.4372488,-0.1822034,-0.03451504
0.4923751,-0.1728918,-0.06171267
0.5209524,-0.1552333,-0.05027214
0.5661676,-0.2096971,-0.05710451
0.5679215,-0.220906,-0.09997413
0.5650008,-0.278258,-0.06114702
0.6638831,-0.4178048,-0.05616457
0.7745408,-0.4710322,-0.04037702
0.852384,-0.5042279,-0.08339722
1.201013,-0.588138,-0.327398
1.632319,-0.6589018,-0.5421514
1.714972,-0.5981303,-0.5634938
1.839982,-0.4562173,-0.6415572
2.032361,-0.3759996,-0.83204
1.831938,-0.3809102,-0.5643181
1.560408,-0.4629079,0.005406359
1.308372,-0.4487067,0.1732918
1.11697,-0.3367524,0.06382805
1.282263,-0.2435999,-0.1475063
1.182367,-0.1775316,-0.3253476
0.8470775,-0.2288464,-0.2926298
0.7117273,-0.2317498,-0.1906644
0.4830801,-0.1964759,-0.07315971
0.4517937,-0.2418407,-0.07923175
0.4972986,-0.1799393,-0.1801156
0.4429811,-0.1223635,-0.2216084
0.6292528,-0.0826252,-0.2295339
0.725899,-0.006850501,-0.194727
0.7758644,-0.00353322,-0.2275099
0.8290099,0.05308847,-0.2354011
0.7539209,0.09066115,-0.178631
0.7323782,0.04111389,-0.1573413
0.6283441,-0.05677641,-0.07767216
0.6317712,-0.2182659,-0.09003206
0.6892896,-0.2960966,-0.1826999
0.6277737,-0.4270992,-0.2538021
0.833134,-0.6887851,-0.3337605
1.224963,-0.8223235,-0.2874017
1.627853,-0.8523049,-0.239887
1.8378,-0.8695209,-0.2170512
1.746334,-0.8078936,-0.1564532
1.691744,-0.6938719,-0.223109
1.540154,-0.6267178,-0.2633069
1.234882,-0.5802079,-0.1678337
1.053541,-0.4377876,-0.07384674
0.9366222,-0.2624492,-0.02431786
0.833463,-0.1693235,-0.04103231
0.719129,-0.1344868,-0.05751387
0.5517145,-0.1248022,-0.04187155
0.4210061,-0.1147652,-0.03559015
0.3927774,-0.1058674,-0.02082757
0.4223456,-0.1252018,-0.03722097
0.4273122,-0.1458659,-0.0791804
0.4480904,-0.193942,-0.09340004
0.5171516,-0.307487,-0.1320704
0.5978162,-0.4124918,-0.2031906
0.7020347,-0.4557436,-0.2400437
0.7587951,-0.4486204,-0.2216548
0.7221807,-0.4056351,-0.2108944
0.7720753,-0.3411179,-0.2931498
1.10519,-0.3225962,-0.4128494
1.621932,-0.4860675,-0.4948149
1.899529,-0.7791728,-0.5611035
1.788827,-0.8838558,-0.5244604
1.589228,-0.6674153,-0.2318352
1.312562,-0.4346625,0.1712029
1.08272,-0.3681425,0.2804595
1.270075,-0.2138626,0.1184108
1.405097,-0.03659592,-0.03705316
1.171262,-0.1255999,-0.2104172
0.9712238,-0.2078785,-0.1923
0.7916626,-0.1514279,-0.003683521
0.685857,-0.186122,-0.03911236
0.6938204,-0.1778388,-0.05385085
0.6410578,-0.09622274,-0.0858796
0.7577949,-0.08363896,-0.3092735
0.8826541,-0.06198564,-0.3011493
0.7917566,-0.03756101,-0.1960625
0.7210083,0.008085526,-0.1092369
0.6084684,0.05549429,0.07133824
0.5507636,0.0167022,0.09520697
0.6882651,0.01486146,0.07301917
0.7821142,0.02278557,0.03499344
0.834874,-0.03625041,-0.1847056
0.9174843,-0.06666708,-0.391417
0.9190081,-0.1483542,-0.3964335
0.9171906,-0.5318509,-0.4272456
1.116563,-1.110278,-0.6506104
1.354961,-1.244259,-0.6188142
1.457027,-0.9873607,-0.4674123
1.619766,-0.8996257,-0.4809446
1.686605,-0.7353592,-0.297384
1.544709,-0.5481395,-0.295445
1.467816,-0.5625444,-0.4366194
1.335824,-0.4975772,-0.2779227
1.145676,-0.5348078,-0.2137625
0.9890876,-0.5443452,-0.09536348
0.7777915,-0.3789749,0.003253446
0.7478035,-0.327935,-0.1853726
0.7330139,-0.194086,-0.2164872
0.6026773,-0.1792414,-0.2414962
0.6184911,-0.3190354,-0.2898731
0.5282491,-0.3004137,-0.1950672
0.4591234,-0.3614231,-0.1541965
0.5171126,-0.3066135,-0.02066018
0.3753092,-0.1625235,0.03557368
0.2972608,-0.1573478,-0.04276352
0.2946455,-0.07924411,0.01225519
0.3486283,-0.1014795,0.03177416
0.6113284,-0.2110704,0.02021943
0.8097142,-0.341301,-0.04244725
0.9584568,-0.4685182,-0.1788587
0.9975253,-0.3628874,-0.1647409
0.8881525,-0.309472,-0.1436132
0.8397788,-0.3890507,-0.1826705
0.7614764,-0.4456473,-0.2235664
0.8199465,-0.598691,-0.4783756
1.269966,-0.6987067,-0.8119669
1.795929,-0.7012311,-0.827755
1.831535,-0.7600948,-0.6544687
1.650515,-0.7670455,-0.5736263
1.711844,-0.6719476,-0.4121024
1.392571,-0.5875471,-0.1433899
0.9169831,-0.4725752,-0.03692687
0.9787728,-0.3273034,-0.1296251
1.085661,-0.2621077,-0.2982951
1.097895,-0.2370085,-0.3940986
1.002697,-0.2292185,-0.3695748
0.678419,-0.183775,-0.2274681
0.4537435,-0.1067555,-0.0278609
0.3685609,-0.1340931,0.003801017
0.3710319,-0.1317206,-0.0844868
0.3679022,-0.07451421,-0.1236404
0.4355625,-0.08854226,-0.1592017
0.6845262,-0.09466159,-0.2108888
0.7788565,-0.1112866,-0.2378936
0.7392588,-0.1440803,-0.1906101
0.6662231,-0.1225686,-0.11802
0.5463298,-0.08567864,-0.08100658
0.5508123,-0.07162257,-0.08877265
0.6525697,-0.116802,-0.173259
0.8264431,-0.2698697,-0.3126838
1.059403,-0.5695822,-0.4716125
1.379269,-0.9010962,-0.4823125
1.696091,-1.004321,-0.3296995
1.783517,-0.8955102,-0.2113018
1.782254,-0.7263357,-0.1293433
1.723143,-0.4622589,-0.1971878
1.552043,-0.3346534,-0.3023458
1.360622,-0.5061637,-0.1667183
1.133354,-0.559835,-0.04944252
0.9585201,-0.4351302,-0.03422492
0.8265896,-0.3455036,-0.0380962
0.7081459,-0.2041539,-0.1136468
0.6218816,-0.1414217,-0.117166
0.5090464,-0.1852951,-0.1075703
0.4988565,-0.1940693,-0.1142312
0.5479164,-0.229834,-0.05613821
0.5380089,-0.2217892,-0.04280337
0.5282076,-0.1868605,-0.03123971
0.4940169,-0.2252132,-0.01490506
0.4982996,-0.2878563,-0.02650533
0.5492757,-0.3919638,-0.04718388
0.6229754,-0.443305,-0.1288149
0.7383227,-0.3949345,-0.1722519
0.7545917,-0.3793865,-0.1636735
0.8147289,-0.3805678,-0.2105058
1.230935,-0.4381354,-0.3788079
1.714411,-0.574088,-0.5975971
1.71971,-0.5844939,-0.584627
1.606476,-0.4671853,-0.4732107
1.88288,-0.3730074,-0.5098676
1.93723,-0.3434294,-0.4394032
1.561805,-0.3647531,-0.1629042
1.295311,-0.3347017,0.09962914
1.225742,-0.2694791,0.08883496
1.288514,-0.2357937,-0.1282179
1.203068,-0.1855648,-0.2059225
0.9564591,-0.2167389,-0.2437115
0.8007056,-0.2929981,-0.2263053
0.5903314,-0.2481163,-0.07194982
0.5169432,-0.2141759,-0.0896825
0.5639784,-0.2131838,-0.1284856
0.5677229,-0.1570874,-0.1655803
0.7438147,-0.1426563,-0.326788
0.8747072,-0.1390773,-0.307401
0.8963944,-0.1208049,-0.1970033
0.8408895,-0.1231205,-0.08645958
0.6486898,-0.07293299,0.01137563
0.554349,-0.02338836,-0.02078282
0.5228586,-0.04256296,-0.03312225
0.5993714,-0.1261394,-0.1008934
0.7800896,-0.2585303,-0.2162433
0.8766615,-0.3139695,-0.2612276
0.9718555,-0.3211777,-0.3471823
1.067689,-0.4600643,-0.3940278
1.25575,-0.6659868,-0.3383548
1.473674,-0.7398871,-0.2537189
1.563789,-0.752516,-0.1512408
1.676874,-0.7999793,-0.04521282
1.681204,-0.6543191,-0.08637239
1.610703,-0.4042012,-0.246267
1.561592,-0.4014715,-0.2374798
1.244765,-0.4655091,-0.1439621
0.9018095,-0.4261229,-0.05884408
0.7957356,-0.4042089,0.05137366
0.662058,-0.3287685,0.04700213
0.5270569,-0.2176857,-0.01261795
0.5539058,-0.2021179,-0.103638
0.6043882,-0.236019,-0.1646308
0.6013892,-0.2702975,-0.1487424
0.6020747,-0.3017675,-0.1985295
0.5320716,-0.3011456,-0.1736427
0.4318536,-0.2700341,-0.1051143
0.4116043,-0.2652199,-0.07415891
0.4319179,-0.3202905,0.008921833
0.5715513,-0.3861356,-0.02528391
0.7760878,-0.3750902,-0.09866251
0.8195516,-0.2602509,-0.1081902
0.7944161,-0.1768352,-0.1636513
0.9893615,-0.2596724,-0.3101473
1.467898,-0.4212187,-0.5781471
1.875012,-0.5297263,-0.6476086
1.869162,-0.5731702,-0.4979427
1.740716,-0.5546426,-0.4634888
1.788478,-0.5096448,-0.2970331
1.621251,-0.4413575,-0.01202184
1.261054,-0.2835247,-0.008425862
1.175817,-0.1756125,-0.1288086
1.114287,-0.1960966,-0.1640855
0.9135438,-0.185584,-0.190231
0.7250368,-0.1770581,-0.1773535
0.5220896,-0.1938227,-0.1130255
0.4238457,-0.1758152,-0.09046994
0.4188678,-0.1789477,-0.100854
0.5136862,-0.1755478,-0.1573121
0.7037789,-0.1760823,-0.2468597
0.7704469,-0.1939415,-0.2320998
0.7485727,-0.1765908,-0.187908
0.715154,-0.1565472,-0.1856049
0.6446488,-0.09600708,-0.1297118
0.5636662,-0.02658517,-0.08477515
0.5969771,-0.08358609,-0.1099176
0.7470791,-0.1822025,-0.1581704
0.798379,-0.2062574,-0.1861247
0.8334605,-0.2597966,-0.2042974
0.9200414,-0.4213434,-0.286046
0.9974853,-0.5827687,-0.3637295
1.200764,-0.6705354,-0.3278496
1.453636,-0.7578158,-0.2496499
1.628751,-0.8935006,-0.1872152
1.749542,-0.9453425,-0.1250733
1.788026,-0.7700694,-0.1685506
1.702071,-0.5036337,-0.2908252
1.507943,-0.3927388,-0.2987412
1.255805,-0.4390212,-0.2109078
0.9767761,-0.4569467,-0.08115641
0.7988684,-0.4114338,-0.006782366
0.6996365,-0.3525784,-0.06333546
0.5702051,-0.2320209,-0.09429654
0.5098659,-0.1550388,-0.1196507
0.4759292,-0.1891468,-0.1455091
0.4211042,-0.182828,-0.1084274
0.383483,-0.1603066,-0.1116211
0.3435068,-0.1522398,-0.0841061
0.3221135,-0.1202483,-0.03346768
0.2995208,-0.1696899,-0.04763872
0.3903198,-0.2865716,-0.05818681
0.6135222,-0.3992763,-0.09154374
0.7507041,-0.4588107,-0.1140366
0.7508634,-0.4095711,-0.1002141
0.6524362,-0.3771921,-0.1639969
0.5710633,-0.392835,-0.3759655
0.7388,-0.409439,-0.6134715
1.391833,-0.5388504,-0.6297227
2.146415,-0.6712948,-0.6243893
2.119598,-0.6182604,-0.7500702
1.74473,-0.5437525,-0.6008512
1.286601,-0.5257829,-0.5590464
1.4656,-0.4748094,-0.4740706
1.69162,-0.4402178,-0.373944
1.737833,-0.3760623,-0.3666383
1.696216,-0.3626605,-0.3453166
1.874997,-0.4098835,-0.3153898
1.666385,-0.3948378,-0.1818531
1.184034,-0.3889427,-0.03159874
1.137775,-0.3322722,-0.1037582
1.056886,-0.1788313,-0.196623
0.8757902,-0.1803533,-0.214226
0.7654427,-0.177752,-0.2397459
0.5319392,-0.1030124,-0.1768409
0.4776686,-0.1669731,-0.1245199
0.4517668,-0.1982347,-0.1295073
0.391554,-0.1830706,-0.1532785
0.5187863,-0.2004543,-0.2338326
0.5925167,-0.1857975,-0.2612594
0.6615077,-0.1919704,-0.2594574
0.6814466,-0.1706507,-0.2530586
0.6449817,-0.06920359,-0.118575
0.7265698,0.04258498,0.02775716
0.7268614,0.0511585,0.02161277
0.6863638,-0.03238073,-0.04386856
0.6482122,-0.06487109,-0.07026273
0.6046856,-0.1299074,-0.1586288
0.8234756,-0.3962522,-0.2936267
1.368374,-0.8427412,-0.3683447
1.854971,-1.10314,-0.3768701
1.798893,-0.9041187,-0.2887545
1.679949,-0.6599105,-0.2155925
1.854716,-0.5216433,-0.1926511
1.682199,-0.3085986,-0.2180024
1.407338,-0.2334082,-0.3128149
1.24602,-0.3232461,-0.2141303
0.8862477,-0.4457994,-0.09511916
0.7456044,-0.3997775,-0.1177976
0.6578735,-0.178404,-0.03332439
0.428698,-0.09476144,-0.06485874
0.4056221,-0.04974165,-0.1544168
0.395669,-0.1211457,-0.0798765
0.4566965,-0.2876252,-0.07344316
0.6242626,-0.2721544,-0.08415398
0.6937095,-0.3126889,-0.06520906
0.7125818,-0.3131148,-0.08589381
0.6760655,-0.2914831,-0.07771357
0.7162194,-0.4224698,-0.07570268
0.7988924,-0.4757712,-0.07420497
0.8468859,-0.5394047,-0.07202732
0.9307615,-0.5296896,-0.1635143
1.117172,-0.4860285,-0.3841464
1.461173,-0.5652566,-0.547642
1.538356,-0.5268682,-0.4387577
1.466723,-0.4573423,-0.3081942
1.703067,-0.3555963,-0.3656195
1.814495,-0.2725999,-0.3605636
1.681756,-0.3526142,-0.2822848
1.451171,-0.3547926,-0.2096997
1.118046,-0.3568738,-0.05719936
0.9793443,-0.3898019,-0.02147502
0.9499163,-0.2933414,-0.1533801
0.8378546,-0.1830836,-0.2674109
0.7185645,-0.1302932,-0.3098884
0.5787826,-0.1392151,-0.2167014
0.4662616,-0.1450932,-0.1087541
0.4280806,-0.122868,-0.1036294
0.442766,-0.1007655,-0.1117928
0.4615474,-0.0582181,-0.1215089
0.497191,-0.07759927,-0.1217995
0.5963965,-0.1410639,-0.1250546
0.6844314,-0.1982065,-0.1190326
0.7625834,-0.2269527,-0.08993328
0.8082071,-0.121515,-0.11536
0.7598039,-0.004517222,-0.1420929
0.7206214,-0.04016253,-0.1728349
0.7288591,-0.1990296,-0.2724496
0.8580029,-0.4911675,-0.3466034
1.251466,-0.8175076,-0.3446814
1.704999,-0.9809232,-0.3228165
1.88948,-0.9830266,-0.3156433
1.833409,-0.8158885,-0.3012825
1.737923,-0.5262458,-0.3198077
1.567245,-0.4317779,-0.3527874
1.254327,-0.4970427,-0.2505791
1.00395,-0.4375611,-0.08679448
0.8677977,-0.345992,-0.01581775
0.7112672,-0.2434529,-0.02818604
0.5875997,-0.09632973,-0.0753089
0.518413,-0.03992135,-0.1046405
0.4904208,-0.03283813,-0.1210965
0.5379127,-0.07396986,-0.1175004
0.5940786,-0.163343,-0.1030539
0.5934511,-0.1917221,-0.11464
0.4980198,-0.2462189,-0.09786295
0.3742696,-0.3462663,-0.0835698
0.3746576,-0.3733515,-0.0948105
0.481118,-0.3897555,-0.0804406
0.6165723,-0.4873192,-0.08562335
0.7634638,-0.5275285,-0.1664544
0.9298659,-0.400223,-0.3640739
1.219675,-0.3291471,-0.5323863
1.548018,-0.4607627,-0.4891314
1.674678,-0.6023292,-0.4392727
1.682985,-0.5660778,-0.4623209
1.670101,-0.3560169,-0.3166323
1.577055,-0.1388289,-0.09342316
1.409503,-0.07155702,-0.005621848
1.245945,-0.099498,0.004424905
1.281934,-0.1272763,-0.07676709
1.330772,-0.1972641,-0.2476711
1.164937,-0.2192588,-0.3089081
1.015628,-0.1617412,-0.2104325
0.8568282,-0.1904624,-0.09917815
0.7146031,-0.1911671,-0.0736866
0.6950809,-0.1341742,-0.1076867
0.6519617,-0.103324,-0.1500532
0.6749534,-0.0166368,-0.177697
0.7317952,-0.01382934,-0.1620922
0.7675479,-0.06299851,-0.1221318
0.8303331,-0.04815964,-0.08951568
0.7941327,-0.05403778,-0.07869716
0.7934674,-0.004304451,-0.08474146
0.8602928,0.03860227,-0.05362373
0.8710052,0.01681611,-0.008499874
0.8914574,0.02334438,-0.01961074
0.8909754,0.02709973,-0.07982234
0.898278,0.02097226,-0.1630545
0.9081374,-0.030343,-0.2406151
0.900401,-0.2234626,-0.3452163
1.007049,-0.6082839,-0.4966627
1.221964,-0.9627857,-0.5179226
1.45972,-1.019874,-0.4160314
1.577931,-0.9096304,-0.3849608
1.606165,-0.6882414,-0.3659159
1.667114,-0.3908309,-0.4336722
1.536604,-0.3384655,-0.5607705
1.253327,-0.5464105,-0.3825267
1.085548,-0.6755904,-0.1176544
0.9816724,-0.6119194,-0.08633573
0.9247833,-0.4675468,-0.1475468
0.8824803,-0.2615622,-0.2403069
0.7799119,-0.1150741,-0.2666946
0.7062379,-0.1581897,-0.2382154
0.6771825,-0.2376811,-0.23125
0.6575792,-0.3064054,-0.1720392
0.6390744,-0.3742823,-0.118746
0.6162845,-0.3775105,-0.04925039
0.6340673,-0.3466016,0.006271258
0.6862928,-0.265172,-0.01779525
0.7226376,-0.2071463,-0.01456146
0.7023335,-0.1946777,-0.04449266
0.6391909,-0.1258672,-0.08508878
0.6133457,-0.1106682,-0.06010626
0.6323685,-0.1802972,-0.02131062
0.6677473,-0.2767915,0.04480181
0.706387,-0.3796428,0.03872358
0.732142,-0.3864775,-0.01766035
0.7561512,-0.3739984,-0.005566494
0.7392791,-0.356304,0.01256686
0.6990445,-0.2688314,0.03967573
0.7996061,-0.3032034,-0.03528816
1.183137,-0.4337794,-0.3921923
1.686119,-0.5322138,-0.7989504
1.812575,-0.6347935,-0.8212365
1.666235,-0.6344361,-0.5863486
1.743009,-0.5924426,-0.5202858
1.700836,-0.5995816,-0.3656955
1.420246,-0.5239958,-0.04159184
1.287216,-0.4005072,-0.0005902722
1.200544,-0.2694258,-0.0892976
1.193911,-0.2028099,-0.1558683
1.113691,-0.2619822,-0.2714934
0.8290688,-0.2759453,-0.2237791
0.7254345,-0.2603729,-0.1131215
0.6512745,-0.2586898,-0.1138036
0.6025889,-0.2136703,-0.1382212
0.6943997,-0.1947929,-0.1936812
0.6991286,-0.1662024,-0.2732787
0.7894415,-0.1076862,-0.2944986
0.8658238,-0.09908385,-0.281464
0.8293318,-0.1320279,-0.2767044
0.810779,-0.1618007,-0.2269504
0.7130209,-0.1655477,-0.1279176
0.6602767,-0.1595612,-0.02921349
0.6088596,-0.1498985,0.004957082
0.5592576,-0.1288674,-0.07831849
0.6388431,-0.1118947,-0.158287
0.7142138,-0.1198089,-0.1345244
0.8001365,-0.1450627,-0.1355423
0.7580871,-0.1860561,-0.2274415
0.6617124,-0.318815,-0.297433
0.8724756,-0.5403708,-0.3184317
1.216218,-0.7378421,-0.3267701
1.525717,-0.8299002,-0.3139487
1.75783,-0.8503884,-0.2706001
1.810683,-0.9093284,-0.2025021
1.735551,-0.8823978,-0.1681691
1.51474,-0.7028074,-0.139709
1.28299,-0.6001831,-0.07566953
1.136733,-0.5317891,-0.02575841
1.002146,-0.3914329,-0.009009971
0.9473762,-0.2809392,-0.06518383
0.8477869,-0.2217012,-0.1284526
0.6799253,-0.2128696,-0.1329635
0.5967925,-0.1973229,-0.1223486
0.5482561,-0.2071341,-0.0935679
0.5299322,-0.3208415,-0.09383193
0.4907381,-0.4065821,-0.09065879
0.4795457,-0.4066506,-0.06735244
0.5748085,-0.3694191,-0.06408396
0.6345355,-0.3399241,-0.02391082
0.6655767,-0.2973212,-0.02716458
0.6474416,-0.2160623,-0.05052897
0.6072922,-0.1820104,-0.01570473
0.6500642,-0.1995153,-0.02517751
0.6831792,-0.297237,-0.052022
0.7606785,-0.3961791,-0.09155398
0.8388898,-0.3635956,-0.1327884
0.7991968,-0.3355938,-0.08954158
0.8004856,-0.3465269,-0.1021762
0.9433919,-0.4251186,-0.3145436
1.37045,-0.6260718,-0.6052385
1.834888,-0.7353378,-0.6908422
1.755484,-0.6131815,-0.5653499
1.668756,-0.3917161,-0.4853899
1.914311,-0.2783298,-0.3662789
1.580021,-0.2776544,-0.09500635
1.02483,-0.2692022,0.1280572
1.058985,-0.2162138,0.1199161
1.140192,-0.1749378,-0.08512666
1.120721,-0.2002033,-0.1931952
1.030655,-0.2116572,-0.1912515
0.7905733,-0.2196098,-0.2605133
0.7486543,-0.2318877,-0.2503056
0.6957976,-0.1927037,-0.191535
0.5684714,-0.1527541,-0.1943867
0.6385592,-0.08544633,-0.1964714
0.8061763,-0.05242477,-0.2416535
0.9760456,-0.05821727,-0.2769574
0.9791311,-0.03057648,-0.2546467
0.8151109,-0.07218742,-0.2081546
0.5888892,-0.0886259,-0.1446789
0.4047759,-0.06107107,-0.1110512
0.5105988,-0.09257497,-0.0841913
0.6947179,-0.1099225,-0.04935138
0.7247677,-0.1385233,-0.06586668
0.7563819,-0.1227392,-0.1275469
0.764587,-0.07678938,-0.1500689
0.7531647,-0.1520836,-0.1678699
0.8214184,-0.2877974,-0.2563524
0.938803,-0.4696423,-0.3131627
1.244178,-0.6866636,-0.2996769
1.685757,-0.9043302,-0.2693947
1.917538,-1.031567,-0.226035
1.947825,-0.8420878,-0.2112775
1.878216,-0.4869406,-0.2954669
1.737256,-0.2256586,-0.3854909
1.526397,-0.1516348,-0.2634103
1.179327,-0.2529694,-0.06535671
0.8954813,-0.2678979,0.009502264
0.7282778,-0.2570143,0.03641001
0.5940833,-0.2453682,-0.07489575
0.612678,-0.1141846,-0.2492583
0.675063,-0.2028778,-0.2592672
0.6818303,-0.3681187,-0.2401191
0.660669,-0.3764725,-0.2087036
0.5711367,-0.4128289,-0.08178961
0.5100958,-0.3311896,-0.02329318
0.4934975,-0.2377092,-0.03884275
0.5051451,-0.2501571,-0.02375713
0.6249996,-0.2812952,-0.02553411
0.7752818,-0.3992858,-0.05036488
0.8418211,-0.3941907,-0.08784435
0.8261372,-0.2761431,-0.1280697
0.8275859,-0.1887969,-0.08215251
0.8468445,-0.09907319,0.01296441
0.8049899,-0.06860056,0.06487561
0.7645332,-0.01361243,0.09157026
0.7867505,-0.06282123,0.02292422
1.071513,-0.3827551,-0.3047911
1.597254,-0.7973383,-0.7747164
1.78469,-1.002509,-0.9053626
1.625621,-0.8622528,-0.6325235
1.617143,-0.7663881,-0.4014088
1.645814,-0.6996622,-0.1851827
1.516086,-0.4352584,0.03842977
1.426093,-0.2963074,-0.04819965
1.389958,-0.1985765,-0.2447668
1.24497,-0.1466278,-0.3637597
0.9813429,-0.3047927,-0.3943963
0.707583,-0.3853323,-0.2254934
0.5431661,-0.4157497,-0.1078571
0.4762893,-0.3552016,-0.1064313
0.480321,-0.1542126,-0.1461146
0.5371896,-0.07575652,-0.2527767
0.5859075,-0.08280547,-0.235535
0.6941293,-0.1226868,-0.208375
0.7823251,-0.1258962,-0.2152696
0.7399064,-0.08566063,-0.124011
0.6932059,-0.08439587,-0.101721
0.6609556,-0.02251349,-0.1181065
0.6602885,-0.02024616,-0.1266342
0.7032209,-0.08827829,-0.1481132
0.7007732,-0.1539626,-0.0906312
0.6758625,-0.260616,0.02197185
0.6443396,-0.2467224,0.1124776
0.6167198,-0.1829098,0.006118967
0.6451245,-0.2043358,-0.2499139
0.8704871,-0.3625469,-0.4251417
1.338107,-0.6770612,-0.4982461
1.63754,-0.8210676,-0.4529808
1.653306,-0.7983681,-0.3612654
1.758541,-0.8982619,-0.1909878
1.816514,-0.9385155,0.01271051
1.658797,-0.7113032,-0.1647618
1.574597,-0.4802729,-0.4316875
1.519134,-0.5184203,-0.3385898
1.35354,-0.5843674,-0.2744897
1.111855,-0.5051329,-0.2026491
0.7898745,-0.4664961,0.03405663
0.7013373,-0.4101648,0.01029008
0.7815547,-0.2915809,-0.0983233
0.6102454,-0.1975516,-0.06877239
0.5255466,-0.1252654,-0.1567851
0.5950469,-0.1813447,-0.1871285
0.4981788,-0.2434484,-0.1169161
0.5033779,-0.2214266,-0.1236088
0.5821058,-0.2857146,-0.08487721
0.6073691,-0.302614,-0.05749519
0.6920827,-0.2632627,-0.08033015
0.6626736,-0.2541812,-0.07002436
0.5949336,-0.1960258,-0.08062331
0.5676324,-0.2090091,-0.08259013
0.5563136,-0.2668936,-0.06379642
0.7157477,-0.3365595,-0.05439071
0.9114163,-0.4530372,-0.06291368
1.01921,-0.4758033,-0.0913709
0.9950082,-0.4492215,-0.08690008
0.8452234,-0.4033431,-0.1241624
0.8443794,-0.347929,-0.3000478
1.184002,-0.4224859,-0.4879778
1.644683,-0.5830571,-0.5107159
1.696271,-0.6997167,-0.5098529
1.593641,-0.6977502,-0.5831139
1.707115,-0.6162718,-0.389484
1.458035,-0.5072749,-0.01033944
1.148531,-0.2882912,0.1165695
1.289258,-0.04389154,-0.01588734
1.289234,-0.003051009,-0.2173332
1.080657,-0.1120899,-0.2800807
0.8756348,-0.176649,-0.2575617
0.6453001,-0.2279346,-0.2219114
0.5169039,-0.3116752,-0.07583564
0.4337821,-0.351018,-0.03211578
0.4993291,-0.3197025,-0.1229193
0.7635078,-0.235385,-0.2520555
0.9634489,-0.1746221,-0.396853
1.090592,-0.1778725,-0.3651514
1.099866,-0.1834556,-0.2427711
0.9277599,-0.1586204,-0.123033
0.732102,-0.1014914,-0.03273737
0.5573854,-0.06221303,-0.06803243
0.5273281,-0.07820466,-0.07916221
0.6535486,-0.1208326,-0.07769007
0.7313902,-0.1685135,-0.1729711
0.8042388,-0.1935627,-0.2618293
0.8371473,-0.2189172,-0.274184
0.7947029,-0.2512999,-0.2412617
0.7782843,-0.2445219,-0.2176797
0.7318294,-0.2649412,-0.2055328
0.7714173,-0.4054184,-0.254597
1.028092,-0.6226187,-0.3377336
1.3617,-0.7641359,-0.3156281
1.547867,-0.7770897,-0.2675067
1.595072,-0.8060209,-0.200974
1.709171,-0.8354761,-0.0852803
1.718299,-0.7109146,-0.1619554
1.544592,-0.5702173,-0.279677
1.352402,-0.5387053,-0.1617128
1.078634,-0.4942635,-0.06206766
0.8706708,-0.4001111,-0.0293652
0.7639281,-0.3054923,0.01103277
0.6374875,-0.2615205,-0.05066331
0.5995081,-0.2568409,-0.07912681
0.5829066,-0.2572761,-0.08348659
0.5883014,-0.3121444,-0.1299508
0.6410466,-0.3772467,-0.09926656
0.6716585,-0.3913676,-0.06340917
0.743839,-0.37543,-0.04122264
0.7576994,-0.3474647,-0.03196084
0.7210795,-0.2983979,-0.06908351
0.7238815,-0.2276227,-0.05924969
0.7081869,-0.2308393,-0.04560925
0.7591887,-0.2597276,-0.04809652
0.8445596,-0.2266837,-0.05503016
0.8779887,-0.24135,-0.09739503
0.9156385,-0.2928506,-0.09432117
0.9086504,-0.2944049,-0.06030196
0.7806621,-0.1782723,0.01774137
0.6031516,-0.04236439,0.1207629
0.5835579,-0.1938025,0.004063045
0.8488666,-0.486565,-0.394737
1.402451,-0.6106543,-0.8629886
1.881863,-0.6824894,-0.9699395
1.789087,-0.7991424,-0.543806
1.679184,-0.8257933,-0.2265757
1.904434,-0.578141,-0.3288553
1.654308,-0.2382426,-0.3267981
1.179647,-0.165099,-0.1675432
1.053306,-0.2050281,-0.1486085
0.9148584,-0.207555,-0.1640686
0.8295045,-0.2526515,-0.1726913
0.8132661,-0.2644183,-0.2603384
0.7176743,-0.2607573,-0.3132578
0.5598072,-0.2473416,-0.2014592
0.3980605,-0.1887057,-0.05204756
0.4620071,-0.1548011,-0.05724621
0.4189493,-0.09899941,-0.06065004
0.352379,-0.04789843,-0.03744284
0.5408552,-0.08370158,-0.1629622
0.5603463,-0.1151404,-0.2035555
0.5953323,-0.1449804,-0.1442823
0.6944361,-0.1757305,-0.1595286
0.7113499,-0.1200536,-0.1297574
0.7216121,-0.06634248,-0.1442442
0.5965216,-0.07346146,-0.1736268
0.6435787,-0.1389369,-0.0908799
0.7739572,-0.2639624,-0.0961484
0.9066655,-0.3782793,-0.2917481
1.318114,-0.6184156,-0.4867678
1.659552,-0.943884,-0.3840995
1.81324,-1.016693,-0.2022201
1.783483,-0.9505476,-0.2052385
1.706977,-0.902908,-0.1447503
1.731552,-0.6808101,-0.2230578
1.525156,-0.4258352,-0.415134
1.302177,-0.4133647,-0.2765338
1.081808,-0.4474974,-0.1165516
0.7959413,-0.3742796,-0.07495158
0.7954316,-0.3277625,-0.03364001
0.6883203,-0.2481213,-0.1032947
0.4969592,-0.1518567,-0.0877863
0.5161042,-0.1562795,-0.04346125
0.4306913,-0.1210296,-0.07040678
0.4199277,-0.06676162,-0.02330308
0.4837975,-0.05498485,-0.0208884
0.4365186,-0.03913446,-0.02558617
0.467019,-0.12956,-0.04896827
