accx,accy,accz
1.420781,0.1721888,0.1390276
1.19558,0.03426821,0.1184331
1.087669,-0.1569691,0.1265012
1.008347,-0.1968511,0.121226
0.8750527,-0.2222783,0.0814273
0.8053906,-0.1974751,0.02974587
0.8208189,-0.1685457,0.0279757
0.818072,-0.1743587,0.035574
0.8297763,-0.09733859,0.0398779
0.8253104,-0.07054791,0.05533017
0.7577192,-0.07185528,0.03886227
0.7017249,-0.04253664,0.03224442
0.6953373,-0.06422138,0.08103275
0.8035963,-0.05795333,0.1357066
0.9055266,-0.0535755,0.1360782
0.8302579,-0.04261508,0.1243441
0.7247731,-0.00269698,0.1589156
0.7081048,-0.01825048,0.179841
0.8217771,-0.03532315,0.1550562
0.9853118,-0.04965368,0.1124986
0.9725246,-0.0521485,0.07853729
0.8853518,-0.0802117,0.07416989
0.8704762,-0.2697179,0.05585159
0.8606466,-0.4736043,0.04963527
0.9649997,-0.5227243,0.1825844
1.182019,-0.5530757,0.3837092
1.280581,-0.5838128,0.4414417
1.348057,-0.4661304,0.4246379
1.574248,-0.3627316,0.5120882
1.744095,-0.3331889,0.5571799
1.662927,-0.2037639,0.4228785
1.568666,-0.1245617,0.296629
1.420608,-0.09116128,0.2962115
0.9804986,0.04003472,0.3177947
0.6714053,0.1317413,0.2994521
0.6336072,0.1130858,0.2796581
0.536266,0.03910959,0.267584
0.4942071,-0.004192092,0.2367845
0.4871625,-0.03457535,0.2153692
0.4597985,-0.06046488,0.2124589
0.5201244,-0.06204158,0.2122207
0.5748626,-0.120714,0.2410186
0.6715487,-0.1650992,0.2670309
0.7691179,-0.1769888,0.2576924
0.8310273,-0.1621399,0.2244785
0.9429805,-0.07963062,0.1676276
0.9563422,-0.02770188,0.1505931
0.8961073,-0.01824672,0.2113908
0.8746205,-0.07918346,0.2765401
0.8881232,-0.1777659,0.2818324
1.012759,-0.2719363,0.231752
1.251759,-0.4291386,0.1123082
1.451921,-0.4927618,-0.02670711
1.451987,-0.4470064,0.007439633
1.407021,-0.4442837,0.1553852
1.44116,-0.4094918,0.2242059
1.423717,-0.2589221,0.2572539
1.450948,-0.06043343,0.2087063
1.486445,0.02415957,0.1079617
1.339356,-0.001048934,0.08879809
1.100978,-0.0159083,0.06542037
0.9195216,-0.04591779,0.07045968
0.8598279,-0.08732451,0.09713185
0.7685497,-0.107747,0.07325762
0.675341,-0.117612,0.08518243
0.7608765,-0.1228036,0.07391263
0.7535237,-0.1701945,0.05877677
0.7017435,-0.18935,0.07591499
0.7765339,-0.1005415,0.05754031
0.7473103,-0.02867696,0.07902113
0.7423498,-0.01776943,0.1041081
0.7743913,0.01937469,0.1123914
0.7397526,0.07228665,0.1292506
0.7782438,0.0488824,0.1108193
0.7746464,-0.01811744,0.1205483
0.7741852,-0.03803868,0.1208534
0.8494589,-0.1734119,0.08603027
0.899419,-0.4610094,0.09912232
0.9837964,-0.6350691,0.2085905
1.09371,-0.6275505,0.4020541
1.28737,-0.5247893,0.5001983
1.590318,-0.4101939,0.4943777
1.864251,-0.3395947,0.4870986
1.944204,-0.2875576,0.4120193
1.733606,-0.22203,0.3331215
1.398123,-0.1085949,0.2998838
1.007258,0.0180601,0.2828421
0.6738781,0.0782335,0.2757713
0.5443855,0.07055494,0.2112842
0.4620624,0.04983994,0.1820172
0.4596816,0.0006484934,0.2197074
0.4856333,-0.09526767,0.2229428
0.4535733,-0.1300131,0.2424398
0.5438087,-0.1250594,0.2457778
0.6316975,-0.1641488,0.2114842
0.699004,-0.185439,0.2064092
0.8273553,-0.1878763,0.1927331
0.879807,-0.1666519,0.1892382
0.9403905,-0.101712,0.2153505
0.9766634,-0.07683145,0.239074
0.9100345,-0.09837841,0.2526748
0.8547794,-0.1036736,0.2466994
0.8448371,-0.1162746,0.233289
1.022141,-0.2144678,0.1624105
1.3768,-0.3736589,0.04728473
1.610077,-0.4455512,0.02098528
1.617247,-0.4212785,0.07675804
1.569986,-0.3860534,0.119118
1.594951,-0.2598183,0.1267584
1.567797,-0.05105888,0.1331056
1.442496,0.04298172,0.172344
1.306789,0.007622113,0.2070632
1.190388,-0.03635025,0.1478032
1.097832,-0.08447505,0.0487749
0.947013,-0.1308409,0.03485667
0.8219454,-0.1246304,0.02617152
0.8206135,-0.1130557,-0.006544176
0.820966,-0.1170003,0.009461341
0.8271284,-0.07231,-0.01061063
0.8359907,-0.03125391,-0.04672936
0.8568044,-0.05105023,-0.03452252
0.9019961,-0.06481707,-0.0394939
0.8368103,-0.05152636,-0.03228015
0.779828,-0.04808429,-0.0009225353
0.8401835,-0.04332795,0.01309874
0.8958334,-0.02744931,0.02742918
0.9054102,-0.03462767,0.02390552
0.8139512,-0.04219098,0.02555283
0.662357,-0.02598205,0.1117571
0.6477741,-0.03041133,0.2174684
0.8350083,-0.0532253,0.2082909
1.039248,-0.06440476,0.1216875
1.034129,-0.02799844,0.06197962
0.879128,0.006915351,0.0473977
0.828217,-0.1137253,0.0725779
1.005525,-0.3691021,0.1007824
1.219255,-0.5891047,0.1369097
1.250102,-0.6543727,0.2600363
1.330897,-0.5898287,0.4318776
1.627681,-0.4618066,0.4985686
1.839036,-0.2445505,0.4048766
1.866254,-0.1318754,0.2461334
1.766233,-0.2339543,0.1114164
1.45351,-0.2380809,0.08155981
1.044496,-0.1339275,0.1456646
0.7503368,-0.09035291,0.1522724
0.6428483,-0.06474584,0.169715
0.622589,-0.1338852,0.2213914
0.6093507,-0.2384474,0.1845299
0.637212,-0.2647003,0.1994752
0.642844,-0.2870412,0.2311309
0.6736662,-0.277424,0.1979299
0.7212382,-0.2501726,0.2135039
0.6835263,-0.2313653,0.1940685
0.6883313,-0.1850713,0.1708169
0.7165037,-0.1510215,0.1928437
0.7252949,-0.1076153,0.1821938
0.7583062,-0.07248643,0.1834173
0.7596143,-0.07767382,0.1773568
0.7688898,-0.08126914,0.1725155
0.7483227,-0.08290605,0.1874975
0.7148328,-0.05397088,0.2017533
0.7928914,-0.02319431,0.2343528
0.8985902,-0.05272789,0.2255114
0.9408825,-0.1051923,0.1988589
0.9487986,-0.1892399,0.192279
1.041807,-0.3522618,0.1494481
1.271519,-0.5011232,0.05906254
1.469402,-0.4767706,-0.01996125
1.498433,-0.3728173,0.06366387
1.449176,-0.3495807,0.2457279
1.508811,-0.3145413,0.2902239
1.666506,-0.236476,0.2444333
1.72933,-0.1626551,0.1894329
1.521599,-0.08724335,0.1093474
1.132777,-0.02430899,0.08326688
0.9246279,0.05809433,0.09117199
0.8868855,0.04056172,0.0617534
0.8076166,-0.117188,0.01499371
0.7148364,-0.2023808,-0.03209126
0.596633,-0.2117083,-0.0315472
0.5479338,-0.2026197,0.01506673
0.5794545,-0.2094855,0.03050561
0.5941265,-0.255663,0.03274547
0.7073084,-0.2364094,0.05620497
0.8449088,-0.2061719,0.07463725
0.8837407,-0.1567354,0.07917069
0.8009258,-0.00607366,0.08096893
0.6878228,0.1379879,0.09759108
0.7412443,0.1554839,0.1065489
0.8079855,0.02094553,0.1001304
0.8680871,-0.1334409,0.116709
1.044237,-0.3670262,0.1605621
1.166402,-0.6526268,0.3003447
1.228207,-0.6409667,0.4822976
1.332983,-0.4720302,0.4797892
1.547477,-0.3477594,0.4109102
1.762756,-0.2315059,0.4534141
1.764524,-0.2082326,0.4510327
1.622059,-0.1853742,0.4040573
1.383115,-0.1653269,0.3646433
1.117867,-0.1802839,0.2766692
0.8870625,-0.1257742,0.2774122
0.6428568,-0.07551726,0.3151863
0.5413245,-0.04378612,0.2563094
0.5403862,-0.02734111,0.2300846
0.5225133,-0.03506908,0.1972555
0.5122205,-0.01257394,0.1494737
0.4658259,-0.02346288,0.1783278
0.5294514,-0.06625816,0.2039476
0.6688594,-0.1192081,0.2411874
0.742241,-0.1738438,0.2459375
0.8457438,-0.1585193,0.1765723
0.9053129,-0.1508977,0.1615209
0.9015599,-0.1825946,0.1985752
0.8991426,-0.1775968,0.2397499
0.8799418,-0.1497124,0.2377145
0.9199975,-0.1301017,0.2144317
1.068425,-0.2038939,0.2162687
1.340665,-0.3647626,0.1233366
1.543789,-0.4552061,0.01202429
1.504582,-0.4247834,0.04504636
1.483847,-0.2759224,0.1555366
1.573708,-0.07150019,0.2329723
1.580273,0.02520175,0.2055156
1.457249,0.03115121,0.1668295
1.290687,0.06195189,0.194213
1.250918,0.0368523,0.1807026
1.275263,-0.0508931,0.1434584
1.156317,-0.08629234,0.104985
0.9932555,-0.1446398,0.03702222
0.8831962,-0.1725471,0.04699211
0.814297,-0.1051723,0.08232215
0.8207397,-0.1170576,0.04325939
0.8604298,-0.1233446,0.04423917
0.8958913,-0.08639921,0.0598739
0.8913533,-0.1065523,0.047193
0.8726918,-0.07049029,0.08282889
0.8943999,-0.03163312,0.09853479
0.8917886,-0.00938188,0.08278886
0.8793682,0.02569704,0.06866016
0.834838,-0.022356,0.04220436
0.7252321,-0.05566693,0.05805804
0.6953942,-0.06839034,0.08001534
0.7442783,-0.08506397,0.08527142
0.7799559,-0.05639626,0.106569
0.8192496,-0.05597794,0.1065522
0.8583513,-0.03565808,0.1057663
0.8744294,-0.01207067,0.11062
0.8694324,-0.04727444,0.07427415
0.8934356,-0.1090325,0.0560114
1.004971,-0.2939701,0.1594257
1.151009,-0.5032125,0.3140535
1.247685,-0.4985735,0.3658773
1.403499,-0.3627704,0.3642627
1.640408,-0.2581015,0.3648647
1.75727,-0.1577919,0.2809883
1.781579,-0.07122182,0.1983769
1.653309,-0.08020058,0.241098
1.330066,-0.1171595,0.279421
1.233417,-0.1190067,0.2439293
1.256886,-0.1262764,0.2399072
1.05472,-0.1442009,0.2431577
0.8638347,-0.1588081,0.2144439
0.6979151,-0.1352129,0.2093005
0.5257874,-0.09040257,0.2034663
0.5319535,-0.08174217,0.1966068
0.6419625,-0.09745818,0.198778
0.7702441,-0.1299467,0.174622
0.8438415,-0.1621852,0.1697994
0.8110738,-0.1584427,0.1844667
0.7751284,-0.1436271,0.2001735
0.772709,-0.1403461,0.2424466
0.8136192,-0.1292555,0.2670166
0.9010359,-0.1168429,0.2538467
0.9387119,-0.09337203,0.2163632
0.9017168,-0.02563653,0.1796274
0.8450406,0.04569753,0.1775902
0.7621214,0.07951493,0.1870643
0.6943295,0.0672393,0.2019316
0.663117,0.03698894,0.2250969
0.635843,0.02257226,0.2211783
0.7410766,-0.1289286,0.1570226
1.089684,-0.4977094,0.03115195
1.551698,-0.8384239,-0.04739442
1.747057,-0.8989718,0.05282437
1.599115,-0.6810814,0.218584
1.594545,-0.3512465,0.2850893
1.699576,-0.005740157,0.2915504
1.626155,0.152655,0.2286203
1.54798,-0.006526148,0.1317186
1.351287,-0.1237824,0.1129106
1.055541,-0.1150113,0.09918103
0.887001,-0.1857272,0.07917704
0.7048437,-0.2004682,0.06547788
0.6030992,-0.1860986,0.004249725
0.5969969,-0.2003344,-0.04613565
0.5543335,-0.1561374,-0.06955386
0.5912263,-0.1466372,-0.07215676
0.6358156,-0.1345568,-0.08074156
0.6504834,-0.1143626,-0.1111326
0.6179464,-0.1476071,-0.06324409
0.5552618,-0.150416,0.03054308
0.7265057,-0.1834062,0.07280902
1.019245,-0.2170209,0.04823141
1.095002,-0.1568534,0.00759865
0.8452625,-0.05825064,0.04606013
0.5256856,0.06875218,0.1192417
0.5414271,0.08057557,0.1724094
0.7250062,-0.0983748,0.1716227
0.9216812,-0.3862781,0.1006164
1.235594,-0.7519156,0.1062897
1.343341,-0.8856031,0.2151797
1.242908,-0.6829483,0.3608555
1.306396,-0.5004314,0.4413565
1.485517,-0.3364056,0.3713775
1.66844,-0.166796,0.3600639
1.783173,-0.2186146,0.4125654
1.744567,-0.2872444,0.3869673
1.580274,-0.2177911,0.3703379
1.308252,-0.200643,0.3211347
1.043535,-0.1069254,0.2542583
0.7516763,0.07249268,0.2152599
0.4046745,0.09968529,0.1697638
0.2810138,0.08454944,0.1877546
0.2782154,0.04247797,0.1956839
0.258968,-0.08490482,0.1823426
0.3910596,-0.1589854,0.2108277
0.572406,-0.2385508,0.2132624
0.7605465,-0.3347362,0.2273011
0.8845251,-0.3192766,0.2231814
0.8566896,-0.1829441,0.1537799
0.8514628,0.002930066,0.1234859
0.8096929,0.06682725,0.1649477
0.7763158,-0.04423128,0.2089433
0.9181012,-0.2221931,0.1628221
1.172598,-0.3796524,0.08358088
1.537057,-0.4048405,0.06686141
1.794469,-0.3471529,0.0845788
1.70679,-0.3512337,0.1506357
1.54753,-0.3148452,0.2278756
1.551765,-0.2179924,0.2567845
1.532246,-0.1479569,0.2306892
1.494547,-0.03154945,0.1570836
1.485578,0.007463652,0.109229
1.260676,-0.05885479,0.06932108
0.9435839,-0.07525635,0.03499937
0.7201436,-0.1497802,0.0432002
0.6308457,-0.2113986,0.03412495
0.6690308,-0.1699001,0.02824116
0.5743068,-0.1384781,0.02332632
0.4874211,-0.08775651,-0.004966431
0.5174001,-0.08340575,-0.007111511
0.5193882,-0.1165546,0.03106681
0.6565561,-0.1066453,0.07909373
0.9261357,-0.153421,0.05667895
1.090845,-0.1704706,0.01840135
0.8654745,-0.04429119,0.04343125
0.5464366,0.1033883,0.09085598
0.6138129,0.1286871,0.1806134
0.699997,0.0295611,0.2128965
0.7624251,-0.1111329,0.1393652
1.003943,-0.3412646,0.1188252
1.190549,-0.6110985,0.1655166
1.297866,-0.6773867,0.2689257
1.322405,-0.5337871,0.4051064
1.475188,-0.3962589,0.4404164
1.828999,-0.3679544,0.409552
1.879289,-0.337452,0.4081665
1.672676,-0.248668,0.3839086
1.485718,-0.2112621,0.3141518
1.188686,-0.1849361,0.2656049
0.8731641,-0.0977423,0.2513867
0.6563671,-0.0225916,0.2408655
0.4918633,0.001867897,0.2297063
0.4248788,-0.004346955,0.2155734
0.4270741,-0.005372042,0.2005462
0.4484398,-0.01630426,0.2023566
0.4976805,-0.04796725,0.2166966
0.5371384,-0.07559492,0.2301887
0.5846352,-0.1259045,0.2418882
0.6861501,-0.1739889,0.198937
0.8250345,-0.1738105,0.1155708
0.9360696,-0.1379037,0.09860525
0.9192192,-0.08193237,0.116195
0.8049767,-0.0346904,0.1663921
0.7539777,-0.06448883,0.2811694
0.8870548,-0.2476545,0.2811832
1.233547,-0.479004,0.09003358
1.607554,-0.5266321,-0.09836653
1.721667,-0.4488157,-0.0794602
1.61748,-0.4392843,0.1018543
1.585472,-0.3544942,0.2121199
1.619164,-0.127501,0.1955801
1.581945,0.006090647,0.1280644
1.553635,0.05886587,0.06429906
1.44496,0.07485412,0.0293322
1.18875,-0.02933788,0.007268358
0.9512574,-0.1389766,0.02985618
0.7244307,-0.1855198,0.04662945
0.5726578,-0.1818656,0.01626075
0.536841,-0.1624313,0.01565284
0.4991227,-0.1768672,0.03165182
0.5503271,-0.1677017,0.0439815
0.6416189,-0.1583326,0.03989728
0.6595987,-0.1597829,0.03468034
0.6999271,-0.1448458,0.08780818
0.7575868,-0.1382339,0.1227278
0.7723796,-0.08080522,0.09175896
0.7324481,-0.003676781,0.06548295
0.715241,0.01225553,0.08381747
0.7754959,-0.04090684,0.09838782
0.8620547,-0.2029368,0.08512741
1.020895,-0.4559649,0.1290756
1.221793,-0.6291387,0.2702696
1.348053,-0.5698636,0.4811356
1.498598,-0.4440296,0.5750282
1.747754,-0.3639394,0.4353985
1.834394,-0.2195248,0.3548922
1.644213,-0.123749,0.4070208
1.459992,-0.07919186,0.3736341
1.337748,-0.03996221,0.3247983
1.140208,-0.1078562,0.3249917
0.9039225,-0.1283821,0.2978884
0.7770401,-0.0978713,0.2770159
0.7320009,-0.10808,0.2453582
0.517,-0.06980284,0.1517887
0.4155122,-0.05504763,0.1133023
0.5317839,-0.05688629,0.1659382
0.4214065,-0.03877586,0.2088144
0.4083315,-0.05588378,0.2540742
0.5791033,-0.0845555,0.2421654
0.6986011,-0.1265485,0.1369241
0.9346782,-0.1318231,0.0921741
0.9251324,-0.121362,0.1330842
0.8382115,-0.1463095,0.2123765
0.973346,-0.1411022,0.2839828
0.938463,-0.1634089,0.2896717
1.031409,-0.2705988,0.2385479
1.257133,-0.3947595,0.09429966
1.327038,-0.4416693,-0.05375955
1.436535,-0.3968904,-0.03374181
1.455428,-0.3438884,0.1028508
1.494079,-0.2602534,0.1955857
1.587755,-0.1325795,0.1710271
1.592259,-0.03862744,0.1006705
1.665139,-0.01354562,0.06273515
1.490201,-0.05390326,0.06058201
1.788505,-0.7058022,-0.1321789
1.500576,-0.4819723,-0.001420558
1.267499,-0.3439298,0.2023476
1.519701,-0.3822152,0.1414686
1.609067,-0.2831895,0.06638301
1.4676,-0.070862,0.1033315
1.420271,0.02484154,0.08211467
1.321858,0.04780503,0.1201026
1.267916,0.06014559,0.1046473
1.241705,0.01135419,0.02972239
1.042819,-0.03104114,0.07960525
0.8151378,-0.07930422,0.06357854
0.6139642,-0.1198051,0.03246388
0.4961647,-0.0961098,0.03179693
0.482137,-0.1327948,-0.02007091
0.4714476,-0.1673331,0.0002507208
0.5839,-0.1619381,-0.006507505
0.7257839,-0.1915669,-0.0239211
0.7592286,-0.1468879,0.02153191
0.7754923,-0.0853618,0.03962856
0.7512012,-0.02386192,0.07228471
0.7227103,0.07745062,0.06562394
0.708377,0.07428992,0.04060173
0.7266739,-0.06284182,0.07729748
0.8766602,-0.3515287,0.1480391
1.122561,-0.6405922,0.3302864
1.359237,-0.6642935,0.5097025
1.467899,-0.5071403,0.5145294
1.586498,-0.3612713,0.4744001
1.821693,-0.2922645,0.4553725
1.912245,-0.2549451,0.4009817
1.773959,-0.2302064,0.3753072
1.470445,-0.1993378,0.385246
1.151116,-0.106839,0.3699042
0.9823967,-0.07529942,0.3661238
0.8037337,-0.08245361,0.3373457
0.6197859,-0.03761547,0.2648799
0.6000971,-0.05259196,0.2302492
0.5474789,-0.05005395,0.1851798
0.3727555,-0.01104608,0.1284827
0.3353922,-0.04858136,0.1498411
0.4216212,-0.1026145,0.2043536
0.4567249,-0.2031539,0.2114707
0.5352462,-0.3059832,0.173321
0.7123493,-0.2964206,0.1345206
0.8496523,-0.2699771,0.1259626
0.8341269,-0.2271172,0.1464541
0.8219083,-0.1777699,0.1502426
1.050387,-0.2832205,0.1083451
1.405531,-0.4689583,0.01205793
1.596927,-0.5321318,-0.08592629
1.488859,-0.4917714,-0.02184644
1.316425,-0.4156888,0.1336974
1.332549,-0.3163074,0.1965431
1.494484,-0.2734922,0.1770633
1.704523,-0.2054197,0.05151642
1.64191,-0.02121964,-0.05425656
1.3995,0.07317631,0.02465339
1.322366,0.03582952,0.1027719
1.083423,-0.02328631,0.0832605
0.7803962,-0.1192633,0.0865775
0.6722621,-0.1564598,0.1009389
0.5663438,-0.134382,0.06571378
0.5315199,-0.154732,0.02561081
0.4938617,-0.1467771,0.01000731
0.4780019,-0.1253118,0.0007070856
0.5842701,-0.1287236,0.0209964
0.7449027,-0.1081407,0.0379811
0.958363,-0.1030508,-0.002109071
0.9130577,-0.0694793,-0.01725301
0.7123656,0.0490706,0.08282142
0.6631898,0.1143197,0.1940506
0.6952702,0.03787315,0.1724444
0.8067079,-0.1002323,0.1201251
0.8157961,-0.2779097,0.1137125
0.8798586,-0.5339623,0.1146153
1.100822,-0.705907,0.2659345
1.123413,-0.6598909,0.4696779
1.204076,-0.4928537,0.4736528
1.570825,-0.2417407,0.483193
1.867535,-0.08149595,0.5436025
1.784599,-0.1811821,0.4549174
1.618075,-0.2640941,0.3432546
1.670195,-0.2394382,0.2487383
1.445974,-0.2349902,0.230529
1.006104,-0.1502069,0.3230162
0.7578568,-0.08508599,0.2910384
0.5661519,-0.1235839,0.2826405
0.5443407,-0.1386855,0.2970047
0.5693933,-0.1740606,0.1807251
0.5114142,-0.1863807,0.2034396
0.52034,-0.150895,0.2254283
0.4823507,-0.161221,0.1829494
0.5109884,-0.1495411,0.231912
0.6143688,-0.138873,0.1759413
0.7024751,-0.1620345,0.1310809
0.8266509,-0.1908002,0.1545021
0.8679399,-0.2575574,0.1633516
0.8846931,-0.2693751,0.2377097
0.8827804,-0.2097256,0.2610239
0.8803457,-0.191987,0.2512839
1.005869,-0.2730533,0.2191911
1.203296,-0.4289976,0.0721152
1.451303,-0.5010202,-0.04781631
1.545092,-0.418367,0.0004270158
1.486059,-0.2612328,0.1240261
1.594127,-0.09090506,0.1622804
1.69003,0.00684699,0.1956883
1.545383,0.01403772,0.2521635
1.363176,0.02149493,0.2636116
1.309454,0.0189667,0.2384098
1.233966,-0.01713355,0.1306115
1.032181,-0.02154723,0.07377471
0.8642591,-0.02813121,0.05879073
0.7823528,-0.06099705,-0.006586603
0.745854,-0.07952513,-0.00608513
0.725378,-0.09502451,-0.02407215
0.7065838,-0.08713061,-0.03831672
0.7266051,-0.07609447,-0.01167611
0.7352907,-0.06847456,-0.03347182
0.7409975,-0.02129975,-0.01235378
0.7491129,0.03401214,0.02173852
0.7100908,0.08449486,0.05034973
0.7032945,0.1119391,0.06669632
0.768739,0.1159381,0.02756811
0.8660152,0.08293568,0.008188161
0.9033816,-0.01679022,-0.0335806
0.8622167,-0.1234147,-0.03478885
0.8798113,-0.3535902,0.05027537
0.9640692,-0.6999678,0.1362931
1.027492,-0.8105139,0.2362154
1.087717,-0.6859743,0.2498009
1.378756,-0.5348344,0.3222406
1.883266,-0.3632013,0.5488573
1.996721,-0.3034688,0.517546
1.74193,-0.3790846,0.2697092
1.627433,-0.3598393,0.1520502
1.459569,-0.3003372,0.181652
1.192597,-0.2400355,0.268263
1.031113,-0.08507065,0.2612817
0.9838947,-0.07644892,0.2306765
1.058298,-0.1611135,0.2040408
0.9283027,-0.1361036,0.07542604
0.7426745,-0.190149,0.05281786
0.7062423,-0.2267031,0.09867501
0.4309446,-0.2138172,0.07731699
0.3127556,-0.2763574,0.09448781
0.428396,-0.2412192,0.1106292
0.3344184,-0.2166495,0.1433697
0.385755,-0.258573,0.1717271
0.5271969,-0.2313261,0.1711758
0.5528433,-0.2209706,0.1948508
0.6272672,-0.1468864,0.1429661
0.6863436,-0.01374539,0.08395508
0.7868112,0.01403849,0.09582018
0.8604104,-0.01227456,0.1115059
0.8359557,-0.06997104,0.149658
0.9504077,-0.2653118,0.1566074
1.279945,-0.6197125,0.04452675
1.603409,-0.8218932,-0.08993837
1.62563,-0.6850177,-0.04172874
1.504612,-0.5368753,0.1179473
1.540835,-0.4678583,0.1983261
1.586519,-0.3475047,0.2189998
1.589832,-0.2518738,0.1929927
1.604491,-0.1305216,0.1867202
1.512081,-0.03379633,0.1701697
1.325952,-0.07619404,0.06272662
1.05176,-0.09821271,0.02987213
0.7938439,-0.1286959,0.04380137
0.741248,-0.1875124,0.02316516
0.7099852,-0.1414481,0.01172685
0.6102765,-0.1092622,-0.02059721
0.5741604,-0.1076883,0.001835424
0.6196914,-0.1262335,0.03162558
0.7857776,-0.2195853,0.00536085
0.9527156,-0.2305736,0.01752054
0.9323148,-0.1242331,0.05396619
0.7524406,0.0300393,0.1334644
0.6060123,0.1357222,0.2185426
0.6250166,0.1135418,0.2128854
0.6801493,0.09271357,0.1853742
0.7471038,0.07418041,0.1620201
0.8841575,0.01382756,0.1113857
0.9323993,-0.01572725,0.07425452
0.9029946,-0.1118159,0.04506539
0.9505935,-0.3465088,0.03390373
1.039909,-0.5721748,0.1708868
1.168317,-0.6286974,0.3661971
1.369383,-0.5231,0.4013689
1.567482,-0.4355165,0.3985598
1.670438,-0.4286752,0.4490897
1.585678,-0.3415494,0.4237572
1.503743,-0.2257249,0.3463474
1.537223,-0.2439541,0.2694202
1.330178,-0.210274,0.2140104
0.9459365,-0.05448671,0.2646466
0.6924344,0.0235182,0.3233889
0.5636048,0.03527009,0.2885237
0.5527851,0.02546735,0.2673885
0.539809,-0.01976403,0.2167643
0.4851751,-0.05459974,0.134793
0.4741782,-0.093769,0.1715973
0.5087011,-0.1402641,0.2274155
0.6002236,-0.1795444,0.2309451
0.695904,-0.199989,0.2160138
0.7975916,-0.1942042,0.166536
0.9017872,-0.1822968,0.1701551
0.9706372,-0.1379917,0.1984208
0.9856454,-0.1093818,0.1996913
0.9362074,-0.1306538,0.2340419
0.947541,-0.1560063,0.2425333
1.047684,-0.2876913,0.2061663
1.238556,-0.5109151,0.1236858
1.424327,-0.5705594,0.007955073
1.383273,-0.4245151,0.03018263
1.34006,-0.2830296,0.1414299
1.435618,-0.2309692,0.1854597
1.489016,-0.2120619,0.2065445
1.522095,-0.1563799,0.1915003
1.460615,-0.03579355,0.1741875
1.324928,-0.006053526,0.193275
1.272461,-0.05820237,0.1492802
1.126794,-0.03022336,0.09407902
0.9003847,-0.04831161,0.07512112
0.8061258,-0.1046231,0.0651509
0.7513106,-0.102755,0.0681793
0.712864,-0.1344015,0.03350017
0.7496021,-0.1570265,0.01322199
0.7795017,-0.1585857,0.018372
0.778952,-0.1474713,-0.004507991
0.6922691,-0.08674316,0.005579393
0.523739,-0.03214421,0.03893673
0.4474797,0.03352556,0.07866354
0.4797482,0.08805049,0.1062541
0.56917,0.1015885,0.08582057
0.7146717,0.1009742,0.06947619
0.8020656,0.01295477,0.03127279
0.8674994,-0.1625528,0.006407485
1.069565,-0.4237018,0.1337526
1.281174,-0.6883771,0.3219625
1.335785,-0.623907,0.4228743
1.404522,-0.4185852,0.4735755
1.713517,-0.4384058,0.4566014
2.009941,-0.3526671,0.3891222
1.925254,-0.2569115,0.4181417
1.666432,-0.3081887,0.4361345
1.427596,-0.1044654,0.3802183
1.158723,-0.03836243,0.3591347
1.062025,-0.14022,0.2532302
1.036174,-0.002377419,0.1335133
0.8518034,-0.04195433,0.1324428
0.7308516,-0.1294044,0.119942
0.6278002,-0.1445331,0.1042675
0.4779054,-0.2419797,0.09590121
0.4688968,-0.1756913,0.09109593
0.4506111,-0.174497,0.1214986
0.4499024,-0.2104662,0.1488983
0.6042133,-0.1736199,0.1822213
0.7707844,-0.2467676,0.1632018
0.8761024,-0.2269914,0.1397416
0.8859824,-0.1887025,0.1907694
0.9090175,-0.1679682,0.2201912
0.9231392,-0.05901961,0.2495555
0.824806,0.01062537,0.2815111
0.7892501,0.05020707,0.2717767
0.8622313,-0.06592573,0.2464306
1.202551,-0.4016431,0.1548071
1.707416,-0.778047,0.03402356
1.736425,-0.8936357,0.04957271
1.389375,-0.6468857,0.224364
1.253336,-0.4275855,0.3576048
1.384704,-0.2431822,0.3111182
1.535814,-0.04125693,0.1771217
1.543205,-0.07268651,0.06116017
1.392449,-0.1355484,0.001895852
1.124374,-0.1724064,0.01246777
0.8722462,-0.2494725,0.04067575
0.7449306,-0.2216313,0.04502544
0.707889,-0.2104318,0.04486066
0.7447541,-0.2096297,0.001673541
0.7682322,-0.1490751,-0.07357833
0.7196196,-0.1193316,-0.08412679
0.6886316,-0.1096158,-0.06924702
0.6745749,-0.1541065,-0.06669489
0.7158565,-0.2126406,-0.04108204
0.8429701,-0.2141379,-0.01341638
0.8881693,-0.2010633,-0.01284232
0.7912162,-0.1534141,0.0006721479
0.6715862,-0.07044276,0.095369
0.6744861,-0.01918911,0.1580211
0.7977077,-0.03168719,0.08604995
0.8884377,-0.04686033,0.01430508
0.9085396,-0.08811326,0.02018642
0.958084,-0.3131911,0.06237975
1.137892,-0.6293033,0.1432195
1.316319,-0.7499034,0.2868418
1.383451,-0.6760772,0.4531442
1.46747,-0.6087669,0.5640621
1.508443,-0.4954034,0.5587846
1.555115,-0.3073264,0.4725187
1.696386,-0.235931,0.4001902
1.640587,-0.2247424,0.3259312
1.332172,-0.1888639,0.3068329
0.9974538,-0.1597188,0.3380274
0.8442107,-0.1091098,0.288335
0.7794758,-0.0954878,0.2513453
0.5134842,-0.07295775,0.2059245
0.4143886,-0.05643231,0.1590603
0.5066135,-0.1135975,0.2108881
0.3092915,-0.1130584,0.1869772
0.2674193,-0.1140281,0.171483
0.4743965,-0.1673934,0.2155532
0.5518691,-0.2218917,0.1807961
0.6950703,-0.2998855,0.1818925
0.778177,-0.319562,0.1673218
0.7825493,-0.3143217,0.1538327
0.8183533,-0.2527043,0.2131237
0.7435957,-0.08523183,0.2248026
0.7808668,-0.05902142,0.2383402
0.9491463,-0.228421,0.211882
1.250199,-0.4270918,0.09085761
1.646489,-0.5198583,-0.02615245
1.70646,-0.4871386,-0.0240309
1.525452,-0.4249347,0.1523101
1.384813,-0.3273523,0.2733368
1.392385,-0.2473557,0.2347165
1.540009,-0.1839716,0.1328704
1.575532,-0.07894716,0.04158613
1.448194,-0.04604143,0.06762603
1.193273,-0.02881454,0.09534066
0.9507105,-0.008885481,0.07281186
0.7713281,-0.05587455,0.0879597
0.576218,-0.05959647,0.07604027
0.5624359,-0.08161656,0.03837984
0.6387108,-0.1247453,-0.008087366
0.695573,-0.1091282,-0.04768878
0.7884412,-0.1245739,-0.0238613
0.757394,-0.1105052,0.03468912
0.7042594,-0.05938979,0.1084287
0.6916541,-0.02338007,0.1550093
0.6597446,0.04001343,0.1292124
0.7044822,0.05677744,0.1040272
0.7765974,0.02442796,0.09214607
0.862227,-0.06013617,0.03617391
0.9854451,-0.2841561,0.03227739
1.147885,-0.5578226,0.1696609
1.317418,-0.6592638,0.3505947
1.374541,-0.5146102,0.4200863
1.496622,-0.3597583,0.3752773
1.741798,-0.3234528,0.3877614
1.757892,-0.2778602,0.4284032
1.555331,-0.235902,0.3890801
1.36429,-0.2436918,0.3356246
1.20614,-0.2427229,0.2656406
1.053442,-0.1911044,0.260343
0.8200586,-0.1084011,0.306611
0.6323491,-0.04439301,0.2444794
0.6050959,-0.007585353,0.1922453
0.5496905,-0.01146898,0.1704847
0.5071664,-0.03384339,0.1602411
0.4983168,-0.05212124,0.2248515
0.4638045,-0.09284388,0.2291353
0.5492131,-0.1299481,0.206388
0.6703039,-0.1664065,0.1781082
0.7387727,-0.1862239,0.1100757
0.7698472,-0.1733368,0.144848
0.7296638,-0.2038745,0.21498
0.7834961,-0.2733939,0.2444778
1.070867,-0.3797704,0.2000232
1.489463,-0.497726,0.02872139
1.654578,-0.489264,-0.06516241
1.514563,-0.4033823,0.01666427
1.54193,-0.3644576,0.1354764
1.622697,-0.3005619,0.1694894
1.56886,-0.169858,0.1390776
1.598318,-0.06977685,0.1357089
1.529228,-0.02634903,0.1285308
1.396674,0.01916972,0.1095791
1.332187,0.005712653,0.09010613
1.043223,-0.09622329,0.0655263
0.748478,-0.1213183,0.06713964
0.7389464,-0.09816448,0.05742125
0.724997,-0.1286344,0.02567627
0.6511889,-0.1129913,-0.003836277
0.6654614,-0.1025347,-0.01607054
0.6669776,-0.1160805,-0.004095254
0.6783913,-0.08925375,0.0205341
0.7421297,-0.08374017,0.06332109
0.7134563,-0.06303075,0.08409542
0.6953461,-0.06131865,0.08765789
0.7567194,-0.0748266,0.09538642
0.8005501,0.0009341419,0.06871938
0.8798581,0.04213009,0.05022727
0.9012768,-0.03747758,0.05139857
0.8735625,-0.2087817,0.05268559
0.9534647,-0.4122876,0.1156104
1.085583,-0.5090895,0.2460883
1.269333,-0.4501005,0.4129386
1.47655,-0.3635645,0.5214753
1.619339,-0.3648879,0.4493737
1.689777,-0.3693262,0.3455928
1.671325,-0.362528,0.354865
1.551555,-0.3574581,0.3569567
1.306266,-0.293707,0.3448725
1.105461,-0.2695452,0.3493338
1.053505,-0.2489387,0.3158542
0.9292044,-0.1575362,0.2764905
0.7672827,-0.07982619,0.220611
0.6581594,-0.03514437,0.1749133
0.4785979,-0.03725704,0.1776787
0.3671866,-0.04061691,0.1705317
0.3884503,-0.0492003,0.1845668
0.3855635,-0.09752252,0.2197873
0.4286433,-0.1246414,0.2410495
0.5901169,-0.1789798,0.2406018
0.8058883,-0.2435239,0.201053
0.9052435,-0.2261743,0.1915192
0.8117448,-0.1524329,0.2064352
0.7821209,-0.1002249,0.2242644
0.7983293,-0.1103689,0.2575889
0.7959222,-0.1447967,0.2435428
1.026877,-0.2381574,0.2070291
1.323441,-0.3704526,0.1319696
1.484807,-0.414793,0.04346105
1.591028,-0.4262527,0.1031459
1.600778,-0.4340409,0.2003019
1.593317,-0.3303858,0.1938198
1.611392,-0.1521104,0.1916219
1.506491,0.02129977,0.2057372
1.341396,0.0998731,0.1919626
1.318041,0.006455972,0.1631535
1.271866,-0.0634201,0.09655553
1.020751,-0.06355005,0.04876805
0.8279808,-0.132557,0.05140745
0.7733818,-0.1482528,0.03713384
0.751923,-0.1250351,0.02718963
0.7615501,-0.1260062,0.02050722
0.7336739,-0.08591381,0.001335815
0.6990134,-0.07638238,0.03938525
0.6717562,-0.05753428,0.09351791
0.6651527,-0.004818289,0.09075446
0.6954117,0.01347985,0.0796367
0.690241,0.03093272,0.06888294
0.7197444,0.0313981,0.03806629
0.7715306,0.02564736,0.04099102
0.8018214,0.02731628,0.06134228
0.8443396,-0.02249925,0.05405465
0.4091122,-0.2121391,0.1542962
0.6454245,-0.2063676,0.15681
0.6273327,-0.2038659,0.1586664
0.8065567,-0.2003403,0.1736538
0.9685094,-0.1545041,0.2062462
0.898618,-0.148692,0.2105506
0.975339,-0.1451642,0.186256
0.9130491,-0.1397857,0.1947955
0.895914,-0.190059,0.2182903
0.994679,-0.2747514,0.2018586
1.215189,-0.4025338,0.05323147
1.530926,-0.5143709,-0.1065935
1.419197,-0.4199495,0.02037395
1.328566,-0.2645541,0.1755161
1.586871,-0.3168015,0.1182669
1.682203,-0.2829267,0.1591914
1.584794,-0.1098736,0.2224591
1.420918,-0.1028425,0.1521365
1.235874,-0.03984325,0.1529413
1.17472,0.03057797,0.1175978
1.144213,-0.06082387,0.03669427
0.9431105,-0.03999893,0.06906314
0.7604107,-0.04533129,0.05194191
0.7624318,-0.1105256,0.0271363
0.7051174,-0.09507368,0.056588
0.580721,-0.1645716,0.0283008
0.580687,-0.1809492,0.03713238
0.5849172,-0.1284217,0.06851948
0.5346969,-0.1133747,0.08627749
0.6289461,-0.0387491,0.1237456
0.7999393,-0.008272923,0.1088578
0.8513966,-0.001259618,0.07912401
0.8191899,0.02317864,0.06091228
0.7801896,-0.009040517,0.05533504
0.803559,-0.09050354,0.06926909
0.8420953,-0.3148989,0.06605446
0.9334146,-0.5716702,0.1566836
1.159026,-0.6168646,0.3517308
1.346781,-0.4655183,0.4874765
1.571381,-0.2882474,0.5105909
1.82376,-0.2053352,0.4676912
1.801861,-0.1672999,0.4486957
1.611053,-0.161721,0.4428107
1.424399,-0.18821,0.3856734
1.202391,-0.1767057,0.3391453
0.9364654,-0.1437502,0.3455899
0.7439349,-0.1010109,0.3488674
0.700966,-0.08687171,0.3015123
0.6226714,-0.1070836,0.244362
0.5497703,-0.09997257,0.2175852
0.5576283,-0.1089772,0.2032155
0.4919634,-0.127388,0.2135514
0.4997531,-0.139088,0.237068
0.5611749,-0.1828836,0.2425885
0.5954379,-0.2012259,0.215757
0.7687698,-0.1923548,0.1759621
0.8796305,-0.1826036,0.1889833
0.910787,-0.1523772,0.2154996
0.9633082,-0.1413689,0.225211
0.9076373,-0.1186615,0.2585652
0.9260453,-0.07387437,0.2611075
1.014531,-0.130984,0.2138651
1.151807,-0.2968629,0.09956951
1.383388,-0.4455068,-0.05704397
1.380592,-0.4877116,-0.04676243
1.306682,-0.4647195,0.1013877
1.405262,-0.4365204,0.178131
1.501908,-0.3410658,0.1929994
1.592829,-0.2061563,0.1713091
1.481934,-0.075651,0.1518918
1.220065,0.0213752,0.162333
1.185641,-0.0249515,0.1294436
1.155599,-0.06341019,0.08961111
1.003809,-0.05293099,0.05212908
0.8984972,-0.1272822,0.02439449
0.7570298,-0.1305846,0.04105246
0.6613669,-0.1105517,0.02488677
0.6674531,-0.1392316,0.01957214
0.6967086,-0.1207488,0.03605701
0.7613843,-0.1393832,0.02704617
0.7618841,-0.1304305,0.05740227
0.7414795,-0.07103555,0.09898819
0.7685213,-0.04240207,0.1354973
0.7695828,-0.01796263,0.1344953
0.8086026,0.0008573741,0.08120274
0.8550628,0.05529026,0.07929894
0.8514023,0.03135382,0.08558741
0.8714467,-0.1249068,0.08449802
0.9209655,-0.3049098,0.1016158
0.9736682,-0.4829434,0.1072283
1.031136,-0.5481518,0.1886686
1.117089,-0.5919242,0.3053764
1.227546,-0.5671051,0.3642572
1.417809,-0.3180333,0.4093793
1.640717,-0.2487188,0.4166353
1.661392,-0.3371254,0.4043545
1.600851,-0.2933505,0.4345018
1.53753,-0.2847448,0.4228878
1.291353,-0.2582088,0.355615
1.095036,-0.2120667,0.3137114
0.9541222,-0.168876,0.2640478
0.696741,-0.05175363,0.2310404
0.5800928,-0.04495523,0.2248141
0.5084682,-0.07449368,0.1673112
0.4005216,-0.03959592,0.1359364
0.4347391,-0.04496591,0.1471406
0.449251,-0.06491313,0.1626854
0.4696966,-0.1082236,0.2078699
0.5645294,-0.1409213,0.2165715
0.676021,-0.1393082,0.2093268
0.8626184,-0.1354091,0.2177977
0.9862397,-0.1346981,0.2109382
1.01633,-0.1968217,0.2152899
1.016883,-0.258339,0.2185374
0.9935498,-0.2473562,0.208606
1.058687,-0.2628216,0.1510433
1.227709,-0.3505621,0.04981463
1.463633,-0.3968266,0.00397515
1.608666,-0.3383035,0.00660266
1.68472,-0.2740222,0.01271187
1.789403,-0.2113573,0.06558379
1.540095,-0.07542758,0.1912953
1.213575,0.02888647,0.2914703
1.354619,-0.001149137,0.2589986
1.416156,-0.04283694,0.1558732
1.231518,-0.02689103,0.07671671
1.104725,-0.01091663,0.04170387
0.8705179,0.01734083,0.05807359
0.7758253,-0.005639517,0.0638169
0.8458466,-0.07791831,0.02566693
0.7338433,-0.09522341,0.0153436
0.738679,-0.1176911,0.02095727
0.8416085,-0.1244574,0.01721962
0.855076,-0.09490827,0.02354546
0.9193817,-0.0868387,0.01718653
0.8533704,-0.02697735,0.01933411
0.7718142,0.04821518,0.02092811
0.8043872,0.09368814,0.009511826
0.7880231,0.1342785,0.01664298
0.822828,0.1290672,0.01715899
0.822473,0.1156491,0.02132601
0.7961102,0.08282912,0.03198677
0.8402056,0.01709285,0.03403127
0.8569415,-0.02762447,0.03559755
0.9386936,-0.1596795,0.02024377
1.011359,-0.4388558,0.03457874
1.049593,-0.6883557,0.1189426
1.137364,-0.7671525,0.2344845
1.205785,-0.7359296,0.36
1.434997,-0.6466333,0.5086539
1.783963,-0.4254086,0.5450079
1.871386,-0.1622821,0.3414371
1.677676,-0.09854114,0.156577
1.523195,-0.173668,0.1500743
1.429711,-0.1740982,0.1925454
1.109849,-0.1704358,0.2634686
0.8566249,-0.1966193,0.295529
0.9276337,-0.1804773,0.2494696
0.8685944,-0.2230945,0.1886886
0.7525606,-0.2731348,0.1631616
0.800654,-0.2404777,0.1934478
0.6862651,-0.2206839,0.2018412
0.5703561,-0.2019126,0.2085705
0.600563,-0.1752628,0.2027526
0.5495391,-0.1650559,0.1534358
0.5697362,-0.1506879,0.1559443
0.6323455,-0.1509981,0.1532634
0.6344516,-0.1257577,0.1437371
0.7003809,-0.07964238,0.170061
0.7249579,-0.07410325,0.1654921
0.749085,-0.07060246,0.1629518
0.8350905,-0.04122548,0.1616172
0.8984001,-0.01888571,0.153055
0.9196081,-0.03794602,0.16936
0.8976814,-0.1470867,0.2235909
1.004353,-0.3598641,0.3295114
1.157235,-0.5154813,0.3403218
1.24754,-0.4973827,0.1344878
1.401215,-0.4990257,-0.05588134
1.399214,-0.5338461,0.02545032
1.344395,-0.4162665,0.1830146
1.496465,-0.3203545,0.2113922
1.561985,-0.3358707,0.2143328
1.513856,-0.3157675,0.1605083
1.453646,-0.2723495,0.09720272
1.2961,-0.1746442,0.1197064
1.18296,-0.07630393,0.08958026
1.066556,-0.08031044,0.06270258
0.8298115,-0.09575299,0.06499034
0.6485777,-0.1067362,0.01433685
0.5347295,-0.1251524,-0.008361086
0.4596378,-0.1551887,-0.004199472
0.4853177,-0.2087409,0.02606681
0.5492958,-0.2376702,0.05400462
0.6427633,-0.2423505,0.04182568
0.6970141,-0.2041275,0.05580496
0.627706,-0.1336929,0.07872296
0.6101715,-0.05359647,0.1004966
0.756151,0.01006587,0.09069739
0.9050313,-0.02412547,0.03503265
0.9208474,-0.1284049,0.0213528
0.9494566,-0.3186085,0.1116051
1.111979,-0.5164976,0.3246788
1.240938,-0.484196,0.5060657
1.367282,-0.3501839,0.5151799
1.610706,-0.3099084,0.4271022
1.716141,-0.3072528,0.3721356
1.613488,-0.3153133,0.4253608
1.463574,-0.2627404,0.4623711
1.234449,-0.1705847,0.4006694
1.052047,-0.1396715,0.3361161
0.9345243,-0.08566997,0.2767523
0.6723001,-0.02754461,0.2486993
0.4732113,-0.03768252,0.2708676
0.4722871,-0.05965865,0.2654329
0.4979281,-0.0928783,0.2533442
0.5656495,-0.1235252,0.2543983
0.640538,-0.1383958,0.2178602
0.6986722,-0.1554341,0.169969
0.7568212,-0.1577901,0.1601771
0.760334,-0.1443076,0.1952203
0.7851638,-0.1242532,0.2452898
0.7987493,-0.134511,0.2604483
0.8356833,-0.1970958,0.2473475
1.091857,-0.3506336,0.207789
1.444812,-0.5521777,0.08470008
1.57578,-0.5930925,-0.03989782
1.46605,-0.5164228,0.006517124
1.478556,-0.4245738,0.1260471
1.619527,-0.2401614,0.1520669
1.625789,-0.136626,0.1600877
1.568323,-0.1307427,0.1749035
1.430416,-0.06658609,0.1773736
1.296568,-0.1130111,0.182663
1.258119,-0.1707126,0.133898
1.126079,-0.1114468,0.08155514
0.9686052,-0.1254149,0.05065366
0.8107151,-0.1228954,0.02019615
0.6601568,-0.0978969,0.02000173
0.6135011,-0.1338303,0.01053066
0.5809215,-0.1277268,0.01793222
0.6288363,-0.1429841,0.02972134
0.753928,-0.1715745,0.02029864
0.8483842,-0.1699183,0.03315324
0.8676359,-0.1638068,0.02672191
0.8003761,-0.1124206,0.03085159
0.7791638,-0.0517166,0.04386235
0.6680444,0.05725051,0.03798493
0.4745819,0.1675702,0.0655309
0.5037854,0.1245365,0.09293231
0.6200934,0.002227719,0.1131143
0.7094563,-0.1515516,0.117732
0.8989769,-0.3783243,0.1365497
1.175937,-0.5842622,0.2637643
1.350622,-0.6238394,0.409198
1.331049,-0.517741,0.4373586
1.528573,-0.3668634,0.3844463
1.923361,-0.2073852,0.3684459
1.899349,-0.2039704,0.3698842
1.660115,-0.2768509,0.3870659
1.469786,-0.1729079,0.4711625
1.11512,-0.1204807,0.4631738
0.9697271,-0.1125817,0.364581
1.031342,0.05104388,0.2555192
0.880252,0.1255235,0.0920363
0.7972937,0.07678117,0.01884564
0.7804371,-0.01963264,0.03453534
0.6696635,-0.1632722,0.08472118
0.6182193,-0.3065327,0.2021297
0.5420978,-0.4053221,0.2274474
0.5422881,-0.3025971,0.1951923
0.6134604,-0.1914447,0.2050955
0.6386148,-0.1348838,0.195003
0.7828176,0.002943784,0.1860274
0.9121901,0.006074819,0.1488726
0.9361348,0.003012956,0.08439102
0.9336584,0.02918908,0.07976071
0.9009761,-0.03427164,0.1151561
0.8887841,-0.02698805,0.1339717
0.8276236,-0.07559425,0.1424418
0.8028604,-0.1818108,0.1597726
0.9248689,-0.3565258,0.139327
1.158091,-0.7119861,0.03562052
1.461628,-0.8894904,-0.03731208
1.567371,-0.7485203,0.1225976
1.545066,-0.5305674,0.3472326
1.624465,-0.3306913,0.3133305
1.583088,-0.1887563,0.2376111
1.473424,-0.1885935,0.2694453
1.447362,-0.2845896,0.2191637
1.357542,-0.3549046,0.1856642
1.254408,-0.3550365,0.1823805
1.164109,-0.2743757,0.1214786
0.9996706,-0.1999083,0.09180728
0.8080494,-0.1387907,0.04095249
0.6457228,-0.1059523,-0.007941085
0.5724294,-0.1588203,-0.0002980076
0.5719676,-0.1613625,-0.02952729
0.63289,-0.1927363,-0.07154426
0.7490559,-0.2578064,-0.09103932
0.7641929,-0.2241453,-0.0891161
0.6882639,-0.2067205,-0.06022257
0.6252788,-0.1405972,0.0153657
0.6288018,-0.08509941,0.1480015
0.7974618,-0.1390148,0.1829563
0.9346967,-0.127761,0.09124863
0.7943603,-0.07473671,0.05501946
0.6297259,-0.02482642,0.1060309
0.6979509,-0.02118725,0.1369346
0.7997469,-0.1098534,0.1038706
0.8932314,-0.2753215,0.09607627
1.133343,-0.5605665,0.1686882
1.332015,-0.7328254,0.2681619
1.370303,-0.6708694,0.3745541
1.371022,-0.6172736,0.4497841
1.505162,-0.5369765,0.4646601
1.749157,-0.3746193,0.4604293
1.802558,-0.3709726,0.3904193
1.762327,-0.4182011,0.2722018
1.62884,-0.2719294,0.2864249
1.211106,-0.1278255,0.3469303
0.9323583,-0.04729207,0.2985541
0.861195,0.03152768,0.2601272
0.7465292,0.03817911,0.1925909
0.6614829,0.05260556,0.1085152
0.476675,-0.005030144,0.1280667
0.3032837,-0.1403155,0.1048843
0.3420493,-0.1955157,0.115145
0.3926036,-0.2597884,0.211843
0.4603519,-0.3183106,0.2131621
0.6052095,-0.329602,0.2005304
0.7132876,-0.3119291,0.1615771
0.796397,-0.2461381,0.09274859
0.8373196,-0.1973968,0.1415568
0.7608479,-0.1671034,0.2164491
0.7363694,-0.2350359,0.2351584
0.9979757,-0.4301002,0.1496462
1.414544,-0.5966606,-0.02489997
1.648542,-0.6319193,-0.08585777
1.595797,-0.5602879,-0.01383964
1.466425,-0.5299644,0.09692398
1.389821,-0.441374,0.2151863
1.360394,-0.2462915,0.2090898
1.476513,-0.1322642,0.05819762
1.563123,0.03359762,-0.04793388
1.397818,0.1609676,-0.04905539
1.127963,0.07422227,0.001767191
0.8556512,0.04088256,0.05740493
0.677808,0.01919305,0.06788435
0.6615743,-0.07527032,0.06330192
0.6862688,-0.08021539,0.03369251
0.6945719,-0.09988949,-0.01517051
0.6797891,-0.1349433,-0.01568442
0.6885684,-0.1053923,0.0001354314
0.749868,-0.1100551,0.0313912
0.7942381,-0.1012657,0.0689186
0.781607,-0.0649116,0.05925767
0.7338984,-0.04963061,0.05082513
0.723245,-0.001188281,0.07387101
0.7363288,-0.00137805,0.08609025
0.8081385,-0.1681313,0.1213899
1.070218,-0.4698132,0.3014578
1.323915,-0.6561242,0.5064237
1.346867,-0.5083412,0.4982325
1.480267,-0.34197,0.4440467
1.843289,-0.3720187,0.4330361
1.884703,-0.3302583,0.3290121
1.608597,-0.257165,0.3812971
1.365487,-0.2425288,0.5197945
1.096809,-0.1809226,0.4075487
0.9835531,-0.1719718,0.3223039
0.9461756,-0.138886,0.2786661
0.7603192,-0.03218397,0.1540424
0.6527931,-0.01410288,0.1604085
0.521566,-0.01650905,0.1431659
0.3903816,-0.03348051,0.1353985
0.4174368,-0.0986869,0.2214574
0.4446105,-0.1686409,0.2203878
0.5339518,-0.2670644,0.240214
0.6572603,-0.3059458,0.2185649
0.7987027,-0.2761748,0.1339209
0.9726765,-0.2643869,0.125133
0.952219,-0.257776,0.1412381
0.8594761,-0.213177,0.2209638
0.8517322,-0.1479219,0.2639178
0.8363178,-0.1535641,0.2363682
0.8709248,-0.2116772,0.2279348
1.022055,-0.3258065,0.1303637
1.242649,-0.5087998,0.007691139
1.378315,-0.5650736,-0.01637883
1.360546,-0.4724253,0.02269677
1.414855,-0.4064174,0.05317105
1.62603,-0.3614394,0.07296122
1.715788,-0.2278202,0.08830871
1.481995,-0.02494251,0.06787158
1.181065,0.06506123,0.1092364
1.190062,-0.002642544,0.1431626
1.243389,-0.04222431,0.08092228
1.045006,-0.04522502,0.05660475
0.8747309,-0.0857026,0.05570462
0.7624965,-0.06825402,0.05879399
0.7107157,-0.05071748,0.0522714
0.7944992,-0.07510042,0.002027053
0.7865003,-0.04998959,-0.02985965
0.754195,-0.06003193,-0.03237706
0.7618152,-0.09477258,0.0182852
0.7558864,-0.1080915,0.06153468
0.7909809,-0.1282519,0.05889891
0.7502996,-0.08324672,0.08144007
0.7080879,-0.03713677,0.09673385
0.701129,-0.0004871174,0.1005586
0.6472303,0.06829352,0.09906626
0.6671822,0.02734179,0.09797872
0.7750674,-0.1773128,0.1361632
1.042659,-0.5338165,0.2501528
1.326015,-0.7716302,0.4129731
1.278438,-0.5364549,0.4704267
1.314273,-0.2206194,0.491933
1.717677,-0.2269736,0.4905748
1.883066,-0.2757483,0.3539082
1.735374,-0.2753728,0.3388442
1.542889,-0.2707069,0.4051581
1.171809,-0.2138428,0.3642893
0.9136055,-0.2227705,0.3754818
0.850136,-0.1883416,0.3489025
0.6769275,-0.08200859,0.2717449
0.5957469,-0.05505744,0.2319586
0.5479968,-0.02964428,0.148487
0.4165711,-0.02792792,0.1427718
0.4265672,-0.04577979,0.1921502
0.4749037,-0.07264066,0.2078024
0.5305932,-0.1688413,0.2372334
0.6614889,-0.2115582,0.2115365
0.7776107,-0.2182694,0.1810043
0.8873353,-0.2435721,0.1884597
0.9639726,-0.2387861,0.1894206
0.9856587,-0.2142489,0.2103131
0.9750756,-0.1909838,0.2379903
0.9919285,-0.2545308,0.2510563
1.151124,-0.3928257,0.1716527
1.333968,-0.4910505,0.03689449
1.339787,-0.4901857,0.03769504
1.268561,-0.4220983,0.1222076
1.327139,-0.3523786,0.1587118
1.520305,-0.2384955,0.1549805
1.666515,-0.1293982,0.1190795
1.525279,-0.07947733,0.1021875
1.24039,-0.04857441,0.1389798
1.207744,-0.08911754,0.1627312
1.229323,-0.1254723,0.136828
1.091619,-0.1126539,0.09219548
0.9283972,-0.1248847,0.05428744
0.6984623,-0.1133159,0.02300302
0.5933056,-0.1119002,0.01561794
0.6183478,-0.1290452,-0.00173544
0.5924809,-0.1260915,-0.05810156
0.6670825,-0.147236,-0.05232863
0.683128,-0.1431196,0.00167687
0.6639678,-0.1285777,0.05433302
0.7401717,-0.1174942,0.131095
0.7028211,-0.05049163,0.1214718
0.7022745,-0.001424946,0.08499061
0.7222927,0.01620199,0.1211703
0.6737356,0.04845778,0.1025429
0.7120103,0.02617294,0.08647058
0.7514485,-0.1344487,0.1219217
0.9280032,-0.397549,0.1743062
1.25256,-0.5397402,0.3329257
1.434938,-0.4308134,0.4841674
1.582599,-0.2971364,0.5051181
1.789509,-0.2819463,0.4757442
1.847965,-0.2590156,0.434036
1.698315,-0.2481026,0.3808728
1.512983,-0.2448555,0.321949
1.275806,-0.1762483,0.3022159
0.9845529,-0.1167388,0.314574
0.8389681,-0.05890003,0.294027
0.7489278,-0.05252071,0.2659539
0.6624185,-0.1007403,0.2254362
0.6144516,-0.09096153,0.1698548
0.5014466,-0.1003229,0.1263711
0.417753,-0.1255577,0.09368651
0.391494,-0.170104,0.1212218
0.4054194,-0.2624456,0.1548675
0.5160226,-0.3173791,0.1287304
0.6831357,-0.3803654,0.127894
0.8559716,-0.4039709,0.149289
0.9210989,-0.3367677,0.1553871
0.9505247,-0.2506504,0.1625097
1.036323,-0.1588612,0.1303414
1.090065,-0.1443355,0.07964668
1.28976,-0.2455715,0.04651295
1.672277,-0.3783391,-0.01785474
1.887879,-0.4111437,-0.08925034
1.82789,-0.3471434,-0.1338008
1.630883,-0.3472025,-0.1610259
1.299689,-0.3913214,-0.09418886
1.03259,-0.4271855,0.01555558
1.213477,-0.4809507,0.04004222
1.490366,-0.5232848,0.07709495
1.444779,-0.5111699,0.09497554
1.295457,-0.4207019,-0.007203159
1.046275,-0.3494601,-0.07077733
0.8891443,-0.3543278,-0.08723892
0.9668359,-0.3975596,-0.09397441
0.888644,-0.4490964,-0.06296085
0.838764,-0.4408661,-0.08320264
0.8988308,-0.4141829,-0.07955907
0.8259125,-0.3955328,-0.05969914
0.8844049,-0.3416844,-0.0919207
1.026938,-0.2642514,-0.08531346
1.136616,-0.1529001,-0.09919115
0.7098405,0.009404916,0.2064164
0.7083108,-0.0252506,0.174815
0.5440943,-0.02416719,0.1260005
0.5465079,-0.03720361,0.1503697
0.5419971,-0.03554277,0.1631489
0.5168126,-0.07794424,0.134096
0.6564906,-0.1382973,0.1463095
0.758264,-0.2345373,0.1222045
0.8791556,-0.297492,0.09249314
0.9251733,-0.2071223,0.09027569
0.8868002,-0.1067482,0.1021728
0.9220799,-0.05862416,0.1808656
0.9347474,-0.01495918,0.2290714
0.9709574,0.03074916,0.1779778
0.9857635,0.03927314,0.1257168
1.034233,-0.1132047,0.1104442
1.236946,-0.3682931,0.02767777
1.377756,-0.4975398,-0.1306937
1.407216,-0.4554147,-0.1712434
1.464691,-0.3941382,-0.1032149
1.66186,-0.3674703,-0.04986374
1.826738,-0.3082765,0.01508506
1.66103,-0.1827703,0.02355053
1.325767,-0.01838317,0.02009575
1.046425,0.03919802,0.1047945
0.9447149,-0.01016888,0.1045546
1.032656,-0.02035784,0.02561131
1.005091,-0.04725654,-0.009987786
0.8455293,-0.07778195,-0.05836025
0.7461614,-0.06118745,-0.06507355
0.6934117,-0.08232794,-0.04695053
0.7411918,-0.09011881,-0.06336824
0.7787206,-0.07316944,-0.02341937
0.7198262,-0.07080756,0.03688405
0.7304288,-0.04512381,0.08936017
0.7378831,-0.03063905,0.1263028
0.7466747,-0.02784922,0.1009885
0.8110754,-0.03065772,0.07692219
0.8000151,-0.04933014,0.04169615
0.7972338,-0.0538822,0.01338831
0.825735,-0.06334692,0.03154818
0.8321652,-0.1169414,0.01667111
0.863742,-0.2726805,0.02475897
0.9311661,-0.4625055,0.1304479
1.091814,-0.496856,0.2765603
1.34551,-0.3868434,0.3825559
1.666551,-0.2846583,0.3948589
1.896679,-0.2486792,0.2991728
1.903176,-0.2353282,0.1590444
1.789201,-0.2290461,0.1520439
1.476518,-0.2236898,0.2300841
1.109105,-0.1692925,0.2351468
0.9311494,-0.09853945,0.2489905
0.7740482,-0.02535805,0.2215421
0.6714531,0.05440478,0.1405551
0.6522197,0.06387444,0.147899
0.5953175,0.02939545,0.1707485
0.5554337,-0.004534633,0.2059461
0.5409873,-0.05976538,0.2570648
0.5977129,-0.1184182,0.2352984
0.6917415,-0.1734922,0.2016008
0.769777,-0.2150729,0.1505162
0.8763198,-0.2220569,0.08255185
0.9279906,-0.1696815,0.07919285
0.9309523,-0.08092227,0.1017209
0.9239594,-0.04271573,0.1255834
0.9122319,-0.0406696,0.1773808
0.910998,-0.03586156,0.2014119
0.9082313,-0.06816591,0.1588974
1.038875,-0.1973653,0.0827604
1.294042,-0.4081676,-0.04498893
1.45995,-0.4883531,-0.1342026
1.46439,-0.3888415,-0.05819563
1.434209,-0.3316284,0.04962127
1.504428,-0.2800074,0.09378123
1.578316,-0.110564,0.07456539
1.555929,0.04495765,0.01644577
1.417559,0.06388207,0.0413741
1.217499,-0.0077922,0.05176339
1.158336,-0.03771412,-0.001537028
1.125267,-0.0409195,0.001890326
0.9217045,-0.06592882,-0.02040768
0.7554086,-0.04498262,-0.0363686
0.7348977,-0.04469288,-0.01491402
0.7553813,-0.06215223,-0.06312466
0.7960288,-0.05201714,-0.08419923
0.8108511,-0.07955568,-0.05217809
0.7449756,-0.06370061,-0.01254801
0.6592653,-0.02046721,0.04269418
0.647345,-0.005321537,0.05619314
0.697895,0.02386148,0.04594695
0.7646145,0.01331529,0.02958333
0.8764848,-0.004151547,0.0003184627
0.958007,-0.02348121,-0.02460419
0.9311047,-0.05768627,-0.01901897
0.8728107,-0.07034033,0.03493657
0.8111965,-0.1502151,0.06070865
0.84451,-0.2649093,0.07112113
1.024436,-0.3973893,0.1504502
1.163662,-0.5673937,0.242147
1.213003,-0.5468982,0.2334705
1.371071,-0.38696,0.1873086
1.711096,-0.3381578,0.2206202
1.844782,-0.3029096,0.2150867
1.661634,-0.2541782,0.1966677
1.539304,-0.2020265,0.2533236
1.400806,-0.09320998,0.2488398
1.265085,-0.07505617,0.230259
1.15113,-0.01523484,0.1858151
0.8256306,0.09926156,0.07056647
0.6878585,0.01539595,0.02568961
0.665389,-0.03761807,0.01389279
0.5043543,-0.04922419,0.03322476
0.5822143,-0.1585862,0.109436
0.6526292,-0.1994386,0.1692986
0.6625234,-0.2436608,0.1982754
0.8167715,-0.2700916,0.1606754
0.8733737,-0.2632894,0.120612
0.9108318,-0.2842685,0.1216489
0.927964,-0.1981482,0.123043
0.962123,-0.1359821,0.1404043
1.029201,-0.159792,0.1251688
0.9423315,-0.1314708,0.07968087
0.898511,-0.06530179,0.05169145
0.8424026,0.01033807,0.0606703
0.7914046,0.04585753,0.1241621
0.8527158,0.08613908,0.1690451
0.8003707,0.1025688,0.1713187
0.8172226,0.02905729,0.1598282
0.8563299,-0.003373342,0.1569026
0.8473303,-0.08683783,0.1955842
1.104325,-0.3389354,0.1956179
1.433555,-0.6245798,0.08980064
1.531771,-0.747467,-0.000562934
1.341066,-0.6389566,0.09240161
1.22076,-0.4762554,0.2090565
1.464312,-0.2100041,0.1171416
1.621843,0.1048614,0.01493598
1.550734,0.1474183,-0.01449647
1.458431,0.1051163,-0.05896141
1.342057,0.04432283,-0.06456682
1.187598,-0.1510781,-0.1013842
0.9509051,-0.2461879,-0.08806431
0.7400884,-0.2660675,-0.02028893
0.6814822,-0.2915265,-0.05847993
0.7219142,-0.2672423,-0.06927391
0.7751921,-0.2407508,-0.09509776
0.8405495,-0.2054504,-0.157774
0.8850369,-0.2013787,-0.1193434
0.7842447,-0.2098576,-0.09585558
0.6949273,-0.1927,-0.05280318
0.7333123,-0.1948464,0.006164054
0.7680479,-0.1813489,-0.0310567
0.793848,-0.1455749,-0.041406
0.7846233,-0.0895333,-0.01270987
0.7686012,-0.04196597,0.003666197
0.816198,-0.05813319,0.02594536
0.8683416,-0.07801492,0.02873028
0.8837172,-0.08437868,0.02598151
0.8287175,-0.1413157,0.03314903
0.7998154,-0.293446,0.0446421
0.9582734,-0.5259481,0.09908411
1.203792,-0.6598144,0.2320605
1.340304,-0.5757941,0.364824
1.428723,-0.450493,0.3954867
1.599113,-0.3897116,0.331158
1.743123,-0.3543477,0.2549507
1.75329,-0.3483142,0.2258467
1.583409,-0.2700074,0.2059367
1.265064,-0.1566017,0.1967854
1.046662,-0.09309088,0.2050878
0.9139496,0.01214581,0.1834334
0.7507094,0.04168796,0.173029
0.7018982,-0.02645685,0.171222
0.6540573,-0.05706786,0.1546464
0.5383924,-0.09590928,0.1534996
0.5163228,-0.1140984,0.1399979
0.5162994,-0.1265211,0.1409709
0.5613275,-0.1599571,0.1715349
0.6944326,-0.1565023,0.1868895
0.8032222,-0.1752587,0.1793868
0.8847709,-0.1947289,0.1197028
0.9165251,-0.1590196,0.0614309
0.9246961,-0.1089252,0.08208696
0.9454074,-0.08093161,0.1166085
0.9409536,-0.07775755,0.1193754
0.944669,-0.07436089,0.1190498
0.9435322,-0.08859142,0.1191562
0.9744414,-0.1584952,0.1099492
1.144649,-0.3524529,0.05718866
1.444717,-0.6055328,-0.07554901
1.656974,-0.6778288,-0.1717695
1.583583,-0.5905166,-0.1056187
1.528694,-0.4863685,0.02469553
1.652759,-0.3186184,0.09960059
1.632148,-0.1018482,0.08424046
1.471914,0.09566676,0.03787964
1.237855,0.1921167,0.06387488
0.9939977,0.08448949,0.05726385
0.9725001,-0.05160483,-0.01209593
0.968307,-0.1038288,-0.02264158
0.8688249,-0.1945767,-0.03020676
0.8336778,-0.2159754,-0.02463
0.8050904,-0.1866756,-0.0004874597
0.817892,-0.1897062,-0.03054817
0.8384695,-0.1091806,-0.03287941
0.8034242,-0.0704762,-0.0185643
0.7607658,-0.059233,0.001220211
0.6663926,0.02115978,0.05820431
0.652931,0.02842317,0.07260201
0.7558431,0.04175422,0.08397336
0.8182292,0.09461786,0.1134721
0.8466421,0.06738942,0.1029053
0.8564748,-0.001108897,0.07560105
0.8800996,-0.04339037,0.06203706
0.8866301,-0.03311458,0.06825848
0.8347614,-0.02939226,0.05621291
0.8238502,-0.08754074,-0.001086802
0.8492244,-0.1850935,-0.0470245
0.9450993,-0.3751253,0.02326569
1.0914,-0.6097532,0.1623123
1.151728,-0.5833914,0.2133294
1.357373,-0.3330107,0.2394367
1.734863,-0.2373656,0.2974359
1.789397,-0.2610756,0.2829897
1.592426,-0.2669741,0.2242007
1.513095,-0.2603793,0.1944643
1.353168,-0.2048498,0.1812882
1.111714,-0.1376533,0.205534
0.9626709,-0.02056227,0.243491
0.7677167,0.0432828,0.2126801
0.6402058,-0.006826417,0.1691143
0.5813573,-0.0001464343,0.1538395
0.4844509,-0.01413928,0.1302784
0.5241001,-0.04330801,0.1408392
0.5773972,-0.05183011,0.147058
0.6032948,-0.1372541,0.12591
0.6953671,-0.1895024,0.1208983
0.7616007,-0.1974399,0.09785104
0.906508,-0.2021461,0.09504167
1.048697,-0.1911124,0.1176558
1.04018,-0.1882682,0.1198613
0.9655443,-0.1488213,0.1247972
0.8228214,-0.1110645,0.1081746
0.7069403,-0.1060384,0.08502902
0.7426884,-0.1507704,0.06942948
0.9547295,-0.286241,-0.003397374
1.21003,-0.4016273,-0.09247047
1.292312,-0.4066919,-0.1055681
1.437373,-0.3854187,-0.05756105
1.719667,-0.4202111,0.02514377
1.673451,-0.3591549,0.1241622
1.511139,-0.04971433,0.1429741
1.605105,0.2866821,0.126637
1.553014,0.2937425,0.1423906
1.340062,0.04064576,0.04898797
1.157325,-0.09505233,-0.04512653
0.9856828,-0.1271207,-0.0005880615
0.9877344,-0.1595772,-0.006967775
0.8962825,-0.1431846,-0.05341924
0.8023949,-0.1566785,-0.04892958
0.9259209,-0.102731,-0.06200769
0.8173283,-0.04986694,-0.07437183
0.6923973,-0.09939509,-0.07443681
0.6570648,-0.08840909,-0.08770274
0.5569915,-0.1143676,-0.09750131
0.704231,-0.1155904,-0.08339293
0.8503426,-0.05318087,-0.06918367
0.8811776,-0.07468226,-0.07835489
0.8700582,-0.07161872,-0.06963368
0.7642981,-0.08559498,-0.02354968
0.8186542,-0.08726194,0.04853035
0.8834246,-0.03349618,0.09686743
0.9082325,-0.02467922,0.09004022
0.9501111,0.01274068,0.09106842
0.8650045,-0.01213079,0.08629129
0.8706727,-0.1782301,0.02317914
0.9392413,-0.4607685,-0.01802248
1.007367,-0.7195367,0.05265482
1.144559,-0.7092303,0.185572
1.320279,-0.616861,0.3476949
1.718396,-0.4823982,0.5183816
2.014776,-0.2203427,0.4388363
1.905533,-0.1828524,0.1144269
1.804476,-0.2803571,-0.05732972
1.678505,-0.2248013,-0.02118527
1.296612,-0.1657801,0.1344095
0.9852166,-0.07037439,0.2665121
0.9292927,0.03158869,0.1786845
0.9644115,-0.05949819,0.09304414
0.9829884,-0.1604137,0.0698132
0.9246395,-0.1662776,-0.01418404
0.7937641,-0.1749896,-0.02017495
0.6204569,-0.1728878,0.047806
0.4766865,-0.228446,0.1324718
0.4926939,-0.3136291,0.183364
0.5744794,-0.3334431,0.1632457
0.6751825,-0.3328572,0.1525392
0.777101,-0.2781564,0.125131
0.7597855,-0.159814,0.08746719
0.7576176,-0.06466233,0.06667634
0.7699734,-0.04756888,0.03391098
0.7497668,-0.08850261,0.0236239
0.7981817,-0.1031136,0.03651444
0.835632,-0.09875896,0.05765922
0.8601694,-0.08589894,0.07252657
0.8363313,-0.04090314,0.07177307
0.7369063,-0.01673823,0.0900345
0.7176836,-0.06391432,0.128543
0.9086252,-0.2820169,0.1212834
1.332758,-0.6351333,0.004386804
1.628254,-0.7921087,-0.1396182
1.5979,-0.6900814,-0.1482022
1.555012,-0.5977721,-0.03190933
1.583305,-0.4984828,0.04420121
1.584508,-0.3423412,0.02952178
1.562518,-0.2484121,0.02103022
1.504499,-0.1117051,0.05048879
1.396485,0.02440446,0.06261804
1.263367,-0.01212518,0.02536051
1.071207,-0.08861496,-0.02063897
0.8469372,-0.1217253,-0.02800748
0.7706966,-0.1105914,-0.02458459
0.7161415,-0.06530493,-0.03918534
0.6022209,-0.04800072,-0.05305985
0.6230809,-0.04362803,-0.04701337
0.6305118,-0.0791325,-0.04181972
0.6107787,-0.1387747,-0.04394372
0.6830564,-0.1739046,-0.02118496
0.712147,-0.193859,0.0003889948
0.7599479,-0.1612989,-0.006753907
0.8168934,-0.07531253,-0.008788388
0.7833674,0.01212394,0.01295816
0.7222818,0.03260739,0.06095257
0.6702186,0.0261285,0.1104686
0.7266998,0.02729577,0.0929103
0.9241648,-0.1390165,0.01468779
1.135074,-0.4215497,-0.04838286
1.175451,-0.5411668,-0.04573249
1.128816,-0.4728515,0.1054475
1.307526,-0.4102601,0.3154208
1.587398,-0.4291061,0.3480323
1.762872,-0.4136013,0.2985643
1.86602,-0.3954064,0.278939
1.905402,-0.3972318,0.1668903
1.815904,-0.329878,0.07903702
1.426768,-0.2463264,0.1403586
0.9808917,-0.1049891,0.2008578
0.7130811,0.04132516,0.2096541
0.4863867,0.08880663,0.2048152
0.4321199,0.1208164,0.1727953
0.4532114,0.08027459,0.169287
0.4273018,0.02018328,0.1962482
0.4747349,-0.01709277,0.1930554
0.483921,-0.1258519,0.1750332
0.5341272,-0.1816087,0.1413676
0.6410288,-0.1754774,0.1003857
0.7297439,-0.1730795,0.06308733
0.8571421,-0.1419478,0.04660335
0.9423695,-0.1056295,0.09595829
0.9862716,-0.09373433,0.1277889
0.9227086,-0.1371188,0.1177132
0.8863437,-0.2453174,0.1167407
1.149815,-0.4585204,0.05933106
1.479214,-0.620901,-0.05626112
1.586444,-0.5439553,-0.1277703
1.506536,-0.4564681,-0.06020982
1.518484,-0.4267839,0.02681549
1.591767,-0.3032195,0.009378609
1.472182,-0.108545,0.04436113
1.378108,0.1061407,0.08334553
1.383823,0.1325727,0.0346123
1.354729,-0.005391089,-0.01498028
1.249899,-0.02784479,-0.09549156
0.9782851,-0.04889661,-0.07650636
0.7511865,-0.08367224,0.01138842
0.6843851,-0.05405391,-0.02948319
0.6424013,-0.1130574,-0.02986336
0.6454414,-0.1596415,-0.01441763
0.6761637,-0.1506959,-0.05941467
0.7113299,-0.1514488,-0.02291142
0.73511,-0.113627,0.01495587
0.7439467,-0.1042566,0.05198438
0.7887828,-0.06886554,0.07195127
0.807325,0.001533119,0.003763223
0.7979338,0.01341311,-0.008964668
0.8201895,-0.01082094,0.0183228
0.8470572,-0.06610613,0.02687659
0.8603545,-0.1049998,0.02538468
0.8768788,-0.2284656,0.01971178
0.9751469,-0.4642502,0.1212444
1.14926,-0.5496996,0.2816506
1.294327,-0.465179,0.3579098
1.543622,-0.3596812,0.3092616
1.895179,-0.3039384,0.2153246
1.907562,-0.3056838,0.1894035
1.625092,-0.2981284,0.2242993
1.487382,-0.2667269,0.2875992
1.399302,-0.2502582,0.2813567
1.159112,-0.227253,0.2432455
0.8503655,-0.1400664,0.2681826
0.743033,-0.07021615,0.219582
0.7790488,-0.02411983,0.1431405
0.5740124,0.07155777,0.1013555
0.4979737,0.06473217,0.08421299
0.5907506,-0.01056334,0.1335807
0.4099448,-0.02596539,0.1296584
0.4166445,-0.09466695,0.1777647
0.5619341,-0.1696934,0.263366
0.6262602,-0.1785288,0.1780776
0.9067468,-0.1727163,0.08533541
1.025865,-0.1353578,0.008067765
0.9518607,-0.08429066,-0.0304305
0.8982053,-0.007033744,0.08343706
0.7667602,0.05443823,0.1789006
0.7952403,-0.0007549192,0.2150801
1.01781,-0.1396692,0.17641
1.376459,-0.368364,0.02227845
1.704459,-0.513979,-0.1235111
1.711051,-0.4028002,-0.1411814
1.595758,-0.3301807,-0.008329703
1.547655,-0.3457457,0.06575669
1.539478,-0.2750267,0.02525802
1.498232,-0.2195445,0.03192411
1.377155,-0.1406434,0.03964351
1.271232,-0.06626615,0.01568512
1.18093,-0.09856588,-0.01161918
1.084616,-0.1219864,-0.03459948
0.9611547,-0.1502572,-0.03004947
0.7922535,-0.1639382,-0.02649757
0.6300222,-0.1133396,-0.01734243
0.5024777,-0.08819201,0.001329054
0.4937175,-0.06784089,0.01277969
0.5515941,-0.07803409,-0.004797406
0.5662086,-0.1178385,-0.02617648
0.6239927,-0.1299252,0.02850967
0.7694878,-0.194494,0.07014647
0.9116143,-0.2349489,0.008830777
0.8637449,-0.1398135,-0.06245201
0.6707284,0.01161709,-0.05779143
0.5623227,0.1184044,0.02939052
0.5612009,0.1024893,0.112248
0.7516278,-0.07325146,0.1182524
1.111735,-0.3957319,0.1443332
1.427026,-0.6267288,0.2574111
1.587196,-0.5463662,0.3257495
1.591732,-0.4054207,0.2936792
1.626474,-0.3475029,0.2718849
1.637897,-0.2337248,0.2943252
1.544504,-0.1324724,0.3139841
1.518325,-0.07994709,0.3052785
1.446932,-0.1026902,0.2477925
1.273821,-0.1808944,0.1686882
1.018252,-0.09489405,0.1753724
0.7392796,-0.002861318,0.2114503
0.6519337,-0.03418529,0.1652996
0.6159176,-0.01351542,0.1524747
0.5756031,-0.02814685,0.1563896
0.5729804,-0.06073508,0.1333173
0.5101527,-0.07279006,0.1727674
0.5350184,-0.1188069,0.1951762
0.6056339,-0.114843,0.1900792
0.6615153,-0.1382589,0.1547755
0.8344752,-0.1610558,0.06024183
0.9679984,-0.1363192,0.0416408
0.9841401,-0.1327311,0.09535865
0.9918214,-0.08544504,0.165053
0.9847007,-0.05164586,0.2108244
0.9271936,-0.03888366,0.1728362
0.8629675,-0.04303931,0.124144
0.9386742,-0.1610811,0.06029508
1.157887,-0.3069864,-0.05643605
1.37827,-0.3714913,-0.1151652
1.510854,-0.3316549,-0.05667209
1.51924,-0.2910245,0.03490106
1.521112,-0.2366666,0.08490164
1.550574,-0.06363875,0.06442931
1.484298,0.03828878,0.01180339
1.354323,0.03492238,0.02018943
1.196243,-0.00521232,0.003845209
1.029626,-0.1342288,-0.05272832
0.8759265,-0.2032567,-0.02524388
0.7300761,-0.2012083,-0.004953521
0.7109658,-0.2166131,0.001309277
0.7540272,-0.2152375,0.01944128
0.7325702,-0.2275755,-0.009725473
0.7331903,-0.2139035,-0.01198007
0.7328489,-0.1569934,-0.01369864
0.7191957,-0.09668972,0.01582673
0.756724,-0.04562414,0.08228697
0.8064286,-0.04365885,0.02290377
0.8174691,-0.04645681,-0.04797574
0.7509477,-0.0633629,-0.04318268
0.6812996,-0.1157081,-0.03519317
0.7099935,-0.149198,0.01652859
0.8068147,-0.2332597,0.09995168
1.001014,-0.3708054,0.2198154
1.298888,-0.4289055,0.3692677
1.578444,-0.3884836,0.4264981
1.82408,-0.3707443,0.3353121
1.941826,-0.3974877,0.2565254
1.774271,-0.3550176,0.3640644
1.564825,-0.2545643,0.4512987
1.457055,-0.1344482,0.3553177
1.29808,-0.06377369,0.232872
1.192671,-0.1110684,0.1274164
1.057584,-0.1193929,0.1057112
0.7697822,-0.1091215,0.1533954
0.6177595,-0.1866952,0.1209536
0.5794123,-0.2284441,0.1408892
0.5211462,-0.2496559,0.2074125
0.5499467,-0.2889232,0.1983982
1.341776,-0.6191253,-0.03053829
1.515677,-0.7705168,-0.177829
1.441935,-0.5856538,-0.09334433
1.397281,-0.3736141,0.05611122
1.635905,-0.3431653,0.01051241
1.769788,-0.2453275,-0.02572154
1.539471,-0.04306263,-0.0007559639
1.306785,0.03862099,0.00475151
1.2426,0.04022098,0.06602232
1.248888,0.006862125,0.02666928
1.154416,-0.0370102,-0.05428571
0.9568209,-0.05900188,-0.02524592
0.7663399,-0.07878762,-0.03548617
0.6348384,-0.0643575,-0.03966121
0.6388562,-0.07581521,-0.03968522
0.6473938,-0.0896905,-0.07335601
0.6410426,-0.06999219,-0.03657069
0.6704147,-0.07931966,-0.006866813
0.6579934,-0.07363471,0.02063294
0.7006489,-0.08226068,0.08242088
0.7582089,-0.09642675,0.1090083
0.7763831,-0.04087492,0.09196147
0.8116914,0.01545576,0.05411773
0.8163265,0.01767636,0.06196953
0.8110435,-0.05961372,0.06836286
0.8376539,-0.2406361,0.06084896
0.9781453,-0.4837898,0.1402766
1.199462,-0.5872458,0.2609622
1.364207,-0.422446,0.3476909
1.582927,-0.2368091,0.3381983
1.84929,-0.1748294,0.2774869
1.893745,-0.1557268,0.2682605
1.689021,-0.1769976,0.260855
1.454438,-0.18693,0.246769
1.291969,-0.1936227,0.2309785
1.170327,-0.2161221,0.2240855
1.002298,-0.1504562,0.2396984
0.758362,-0.05123466,0.2039231
0.5945969,-0.02117326,0.1621001
0.5402681,-0.03170376,0.1363122
0.4437454,-0.04138779,0.1124819
0.3766139,-0.0536641,0.1492644
0.4487098,-0.1113626,0.1942627
0.5210673,-0.1801298,0.2226015
0.6135656,-0.2318799,0.2120182
0.8063049,-0.2717227,0.129491
0.9055498,-0.2333538,0.06943964
0.9142975,-0.1617709,0.08078367
0.9366431,-0.1091098,0.1367113
0.9621736,-0.06405415,0.1598015
1.027166,-0.08481514,0.1203812
1.040059,-0.1439959,0.08925279
1.095421,-0.2780064,0.06866198
1.300631,-0.5070993,0.0107528
1.406972,-0.5693768,-0.06827186
1.371365,-0.4290256,-0.04738431
1.322037,-0.2993082,0.0475317
1.334149,-0.1876627,0.07881076
1.47753,-0.1089435,0.08167761
1.611009,-0.1013826,0.0376769
1.52132,-0.06299394,-0.01230313
1.268807,-0.004085166,0.02281401
1.063465,-0.01738544,0.0271337
0.9276468,-0.07830358,0.01361463
0.856655,-0.1483233,0.02391815
0.8117153,-0.2001987,0.005359314
0.7146095,-0.1960061,-0.003262932
0.6828765,-0.1685079,-0.008814221
0.6847813,-0.1392897,-0.02406553
0.6999413,-0.08366004,-0.0313992
0.7856416,-0.0342941,0.00470409
0.8049314,-0.01043423,0.06675175
0.8155534,0.004205737,0.0574995
0.847834,0.0006461977,0.03935733
0.8414316,-0.02287996,0.0503536
0.8536991,-0.06899688,0.03004559
0.8431002,-0.1039401,0.02644689
0.821714,-0.1200062,0.02966558
0.7843092,-0.1942613,0.004807284
0.7575592,-0.3275761,0.00875917
0.8226381,-0.4552728,0.0778839
0.926038,-0.4889144,0.1682622
1.201237,-0.3661961,0.2122655
1.69339,-0.1876612,0.2279767
1.990623,-0.09865844,0.1654229
1.918662,-0.1596074,0.06000698
1.790234,-0.2965656,0.1705814
1.691979,-0.3733659,0.3042296
1.485069,-0.346358,0.2032986
1.165562,-0.2534625,0.1623306
0.8868185,-0.1957254,0.1883349
0.8399766,-0.1529962,0.1522709
0.6951018,-0.0538521,0.1750128
0.4401531,-0.01657596,0.1585756
0.5034683,-0.04262314,0.1084356
0.4749636,-0.05093267,0.1071904
0.392697,-0.09784453,0.1197474
0.5394099,-0.1796611,0.1753982
0.5542949,-0.2443733,0.1724824
0.6598741,-0.2560572,0.1001185
0.7872251,-0.2192439,0.02976725
0.7501843,-0.1698058,-0.02429772
0.8381222,-0.1102444,0.03485278
0.8643323,-0.07064831,0.08177746
0.8704442,-0.05433374,0.03680823
0.9331237,-0.0829552,0.04839464
1.039855,-0.2730902,0.08863581
1.351685,-0.5600117,0.08851176
1.578438,-0.7122134,-0.004049187
1.632696,-0.7089832,-0.1033164
1.507013,-0.5991587,0.01331481
1.307106,-0.3680442,0.1792524
1.470902,-0.1505606,0.1621526
1.649602,0.03576049,0.08709611
1.570652,0.2170762,0.03776676
1.484429,0.2242096,0.02515299
1.252307,0.1237195,0.04879472
0.9711395,0.01343583,0.02235567
0.8602612,-0.09508641,-0.004821352
0.8300915,-0.07694951,-0.008606045
0.8246737,-0.08313394,-0.05100064
0.7987589,-0.1506423,-0.06813971
0.8429416,-0.115825,-0.08133954
0.8885506,-0.1045374,-0.1033177
0.8060007,-0.1001021,-0.06377464
0.7915597,-0.05200143,-0.02350618
0.8285554,-0.05292924,-0.01097278
0.8891947,-0.02849057,-0.02926296
0.9668932,0.0155982,-0.07963372
0.8833838,0.0506998,-0.08948358
0.7913198,0.08743147,-0.06322958
0.7739185,0.06630703,-0.02515285
0.7518638,0.04788703,0.0008923007
0.8212678,0.01944353,-0.01979105
0.9524607,-0.07777401,-0.04586861
0.9898651,-0.1406855,-0.05881536
0.8914605,-0.2020674,-0.04727578
0.8433046,-0.3784411,0.02109027
0.9568887,-0.5723017,0.1091221
1.079892,-0.6400783,0.1585253
1.169285,-0.6304532,0.1817502
1.402489,-0.6238223,0.2406347
1.747184,-0.5299442,0.3224692
1.836224,-0.295911,0.3505432
1.644204,-0.1285682,0.2501524
1.488912,-0.2114347,0.07172005
1.414164,-0.2978546,0.02456341
1.282584,-0.1909214,0.0676124
1.011044,-0.08972271,0.06062978
0.7479845,-0.02075509,0.08740264
0.7540769,-0.0749803,0.09403624
0.8449318,-0.3029486,0.07027173
0.7348399,-0.3398321,0.1048269
0.6587337,-0.2938828,0.1150865
0.6446952,-0.3383075,0.1277036
0.5219792,-0.2918098,0.140156
0.5112951,-0.2431638,0.1173125
0.4859846,-0.1793185,0.1359234
0.4378471,-0.1451719,0.133311
0.6301567,-0.1610425,0.117655
0.7544637,-0.06548306,0.1302779
0.7783158,-0.06583549,0.1167705
0.83433,-0.1122259,0.1008982
0.8810901,-0.07345005,0.04456865
0.943026,-0.1130604,-0.007120468
0.8608417,-0.1341468,0.06418567
0.8251756,-0.1662676,0.1588075
0.9324474,-0.2984714,0.1638229
1.12699,-0.4935287,0.05813269
1.518365,-0.6943429,-0.1232883
1.655106,-0.6621252,-0.1918746
1.485876,-0.5288629,-0.0068628
1.436057,-0.5172929,0.2149336
1.437834,-0.4773649,0.2039053
1.511805,-0.4120005,0.0765557
1.624521,-0.3004309,0.01859459
1.503551,-0.1686352,0.022594
1.228997,-0.1660851,0.02166613
1.039396,-0.1467925,-0.02805434
0.9624933,-0.1450475,-0.04747096
0.8992156,-0.2139878,-0.03305152
0.7493791,-0.1671807,-0.054771
0.5867442,-0.1144714,-0.04782307
0.4957853,-0.08241996,-0.03494278
0.4074709,-0.03727993,-0.03908742
0.4425378,-0.08697293,-0.0162515
0.6428308,-0.1236373,-0.01741462
0.89591,-0.1705677,-0.02654035
1.092684,-0.2323089,-0.02849194
0.9877438,-0.1516123,-0.02505523
0.7710099,0.01135881,0.03654473
0.6476181,0.1738388,0.1057387
0.5800613,0.176235,0.1093961
0.7477402,-0.02688958,0.05228205
0.9184193,-0.2512829,-0.007287015
1.005386,-0.5064257,0.006881307
1.182999,-0.6467124,0.1688505
1.29724,-0.5457911,0.3751628
1.516896,-0.4246916,0.3617381
1.761867,-0.3013265,0.2635899
1.754367,-0.219941,0.3017828
1.693858,-0.2458416,0.3298066
1.576051,-0.1963212,0.333356
1.39991,-0.1635682,0.2836092
1.281402,-0.1928852,0.1614783
1.056757,-0.1027059,0.1806582
0.7338233,-0.01514132,0.2250686
0.5977127,-0.003716906,0.1874657
0.5779427,0.01517802,0.1859989
0.4875724,0.00448281,0.143031
0.516195,-0.01861923,0.1185393
0.5363236,-0.03468134,0.1618564
0.4734864,-0.08613862,0.1649895
0.5577615,-0.1632301,0.1649454
0.6302434,-0.1946581,0.1345174
0.7716252,-0.1610068,0.09379273
0.943563,-0.1393714,0.1303919
0.9437051,-0.1341528,0.1553726
1.007939,-0.1470048,0.1384702
0.995506,-0.1905589,0.133795
0.9378528,-0.2137298,0.1082253
1.085435,-0.3118537,0.01534471
1.281857,-0.5082905,-0.07079285
1.492038,-0.564653,-0.05023996
1.558469,-0.4142888,0.02790387
1.553745,-0.2496033,0.07334234
1.669027,-0.1490538,0.05483193
1.614177,-0.04135668,0.02298158
1.464145,0.02092219,0.03543834
1.352522,-0.03109318,0.03542778
1.199913,-0.0834829,0.0050739
1.098478,-0.1006576,-0.03738149
0.9135304,-0.1530386,-0.08370146
0.7251903,-0.2047457,-0.0513261
0.695226,-0.2215048,-0.001443902
0.6227214,-0.2024276,-0.02914958
0.5944512,-0.1584268,-0.04971875
0.6974763,-0.1372101,-0.0626456
0.7899518,-0.1210181,-0.07434549
0.7978387,-0.08708893,-0.0369113
0.6756445,-0.02776697,0.0103544
0.5880138,0.05871203,0.06683902
0.6079218,0.09651555,0.09042344
0.6459436,0.09344725,0.06922041
0.769702,0.07821905,0.06451018
0.9551427,0.03788302,0.02968456
1.007884,0.0005239214,0.01838678
0.897848,-0.2010095,0.06198422
0.8679452,-0.5482349,0.1039767
0.9231336,-0.6124393,0.1756934
1.034355,-0.4281574,0.165198
1.472855,-0.3125354,0.09507581
1.877069,-0.2299613,0.1086518
1.739934,-0.2474406,0.1479259
1.549148,-0.3310473,0.320332
1.619586,-0.2621874,0.5173929
1.529756,-0.1892551,0.396386
1.375922,-0.1052266,0.2079223
1.349284,0.0598827,0.172355
1.184171,0.1195752,0.07217577
1.029951,0.1464952,-0.03098487
0.9232785,0.08118774,-0.02823833
0.7608056,-0.0961402,-0.02690705
0.7361589,-0.1418523,-0.01413607
0.7059675,-0.1980651,0.01179999
0.6518901,-0.2854138,0.03432052
0.6727994,-0.2376945,0.06392555
0.6989704,-0.1765942,0.06526264
0.7495159,-0.162659,0.0931856
0.7571276,-0.1270621,0.1035085
0.799725,-0.07282774,0.07437745
0.8603717,-0.0733778,0.1035484
0.875455,-0.05796973,0.1216292
0.9440636,-0.005117646,0.1405422
0.9252038,-0.01198999,0.1637585
0.8329004,0.02152613,0.1396027
0.7858107,0.06913343,0.1683399
0.76704,0.04856531,0.1930454
0.8018476,0.008849735,0.1952604
0.8340559,-0.1135112,0.2619535
0.9189114,-0.3002262,0.2541614
1.226849,-0.5418804,0.02532916
1.757096,-0.9341097,-0.2515609
2.015575,-1.118596,-0.2012378
1.597307,-0.6991842,0.08300318
1.239704,-0.2445012,0.2265956
1.433484,-0.1553638,0.2044988
1.607367,-0.05801572,0.05380973
1.649385,-0.09324742,-0.0593858
1.562992,-0.2529261,-0.01592149
1.200044,-0.2069907,-0.008673384
0.945361,-0.1866662,-0.01818241
0.815422,-0.1709347,-0.002095784
0.6860179,-0.08206939,-0.03371906
0.6947427,-0.08523315,-0.08857912
0.6327525,-0.08709485,-0.1498313
0.5390148,-0.11746,-0.1590338
0.5481844,-0.2035973,-0.139829
0.58261,-0.260451,-0.1089024
0.6655075,-0.277453,-0.0376638
0.6708122,-0.2057215,-0.002211733
0.6855496,-0.1307053,0.01502321
0.7776821,-0.1163716,0.02549904
0.7731412,-0.07928797,0.01486938
0.7782622,-0.01758279,0.03757535
0.7942082,-0.02323304,0.0629372
0.843424,-0.1832883,0.07971785
1.086037,-0.4417152,0.1344875
1.349602,-0.6007339,0.2120852
1.464958,-0.5407656,0.2896683
1.560324,-0.4230159,0.335539
1.732858,-0.3865441,0.2811569
1.767726,-0.3622923,0.2177882
1.661261,-0.3700831,0.2711074
1.554553,-0.3243883,0.3039311
1.266183,-0.1892395,0.2695068
1.001328,-0.132597,0.2601391
0.9292749,-0.07951179,0.204736
0.7789157,-0.01760885,0.1179876
0.606636,0.0005810942,0.0806483
0.4423672,0.0384193,0.06952422
0.3131644,0.01139591,0.08854602
0.3090786,-0.04062098,0.131444
0.3089189,-0.0774782,0.1856963
0.4005513,-0.1588567,0.223086
0.5370638,-0.1899141,0.1765923
0.6369722,-0.1738665,0.09324285
0.7618527,-0.1760119,0.06769315
0.7551785,-0.1795107,0.09184556
0.7917311,-0.2249845,0.1175747
1.089978,-0.4160731,0.103061
1.521018,-0.6808594,0.01227194
1.793632,-0.7061255,-0.07882548
1.660577,-0.4880919,-0.02332131
1.528453,-0.353635,0.1265936
1.573631,-0.3511622,0.1715859
1.588842,-0.3213428,0.04100359
1.679995,-0.2040115,-0.1199263
1.547871,-0.07156515,-0.09447887
1.25834,-0.02988253,0.01712138
1.190051,-0.04299122,0.02200616
1.009317,-0.06313149,0.02115294
0.7643401,-0.1116023,0.01170825
0.6663224,-0.1429869,-0.02567792
0.5991202,-0.1365296,-0.03045753
0.6061416,-0.1147994,-0.0718036
0.5807818,-0.07611422,-0.07361927
0.5465378,-0.05259388,-0.03117595
0.6416907,-0.06779231,-0.02122167
0.8511539,-0.08892364,-0.01178714
1.067078,-0.09619807,-0.03161376
1.005117,-0.08592393,-0.01746737
0.8523565,-0.01829269,0.01812601
0.86604,0.09674521,0.04983174
0.8281792,0.1545475,0.09347085
0.8378755,0.1011047,0.03133693
0.9097136,-0.01168189,-0.01244346
0.8712786,-0.1371745,0.0344833
0.8903248,-0.2921317,0.06722821
0.932203,-0.4911277,0.1765466
0.9960305,-0.605674,0.3341993
1.237505,-0.5015793,0.3823965
1.575972,-0.3951149,0.3522404
1.898944,-0.4188867,0.3536944
1.952707,-0.3579855,0.2927079
1.722932,-0.2444,0.1464195
1.472853,-0.1564207,0.1113104
1.202671,-0.1020791,0.1588055
0.9562337,-0.1214925,0.217219
0.7483308,-0.05004041,0.2591733
0.6238286,0.003462162,0.2054071
0.6219039,-0.03206781,0.1418697
0.537838,0.006940636,0.1177535
0.4977975,-0.01491192,0.1265341
0.5270028,-0.04332308,0.1498153
0.4962209,-0.05166112,0.1469119
0.590662,-0.1499048,0.1616051
0.7041862,-0.2112529,0.1601644
0.7898087,-0.2901648,0.1188109
0.8854574,-0.3254517,0.07222401
0.8459331,-0.2273319,0.06791692
0.8022796,-0.1380063,0.1674015
0.7631777,-0.0535025,0.2588149
0.7592785,-0.05385546,0.2533238
0.923286,-0.1559248,0.1977221
1.177669,-0.2836195,0.05425609
1.49215,-0.4539507,-0.1319442
1.624397,-0.5244998,-0.1251151
1.575405,-0.5040177,0.02053992
1.635947,-0.4640043,0.04886219
1.663817,-0.2827848,0.05881091
1.62573,-0.03764802,0.06656322
1.568825,0.07360918,-0.009365043
1.4108,0.0239389,-0.035081
1.242476,-0.06672562,-0.05490128
1.066786,-0.1383989,-0.05116671
0.8849481,-0.1889353,-0.02092982
0.759652,-0.1572086,-0.05622846
0.6553239,-0.1203623,-0.03312899
0.5642147,-0.1084253,-0.008692605
0.5428741,-0.06456899,-0.004886029
0.5948863,-0.06700121,0.01978909
0.6245097,-0.07311314,-0.007439917
0.6652947,-0.09014867,0.01693661
0.7928386,-0.1597618,0.03350411
0.8674857,-0.1285396,0.004939139
0.7799633,-0.01351733,0.01372204
0.6803412,0.08463714,0.002024593
0.6924486,0.1204073,0.03190201
0.6861678,0.1078461,0.07514757
0.7214949,0.06303477,0.05900647
0.8882791,-0.1802305,0.02447192
0.9908981,-0.5095133,0.01619949
1.138618,-0.6642231,0.1827656
1.37647,-0.6187372,0.4233707
1.544016,-0.4086584,0.4403234
1.773261,-0.244122,0.2968261
1.870872,-0.2196196,0.2429083
1.694627,-0.2090908,0.2918902
1.562652,-0.1694241,0.3045586
1.45712,-0.1620533,0.253337
1.294994,-0.2190365,0.2095369
1.096031,-0.1861997,0.2163575
0.8542687,-0.1354255,0.223431
0.710358,-0.1333709,0.2009094
0.5953217,-0.05881821,0.1859721
0.500132,-0.06088602,0.1540706
0.4917621,-0.06054173,0.1070766
0.4274347,-0.01547605,0.09333316
0.4348931,-0.07409813,0.1222039
0.5010641,-0.09291175,0.1483409
0.4872559,-0.1191127,0.126057
0.594647,-0.167196,0.1061498
0.7491131,-0.1601537,0.09366591
0.8525942,-0.1657206,0.06951564
0.9499563,-0.1272417,0.07480708
0.9572802,-0.1006099,0.06783601
0.96086,-0.09652209,0.04490396
0.9605556,-0.1045928,0.06201995
0.9825342,-0.2545582,0.0706838
1.182311,-0.4638891,0.01565729
1.472427,-0.5611582,-0.09386934
1.631654,-0.4853873,-0.1576462
1.563578,-0.3632709,-0.03342767
1.528667,-0.2659371,0.1541522
1.581978,-0.1626232,0.1613408
1.55009,-0.1226564,0.06854022
1.570956,-0.01043744,0.01731538
1.52127,0.09819291,-0.003998351
1.293758,0.003911413,0.002399199
1.081866,-0.06465026,-0.006610097
0.9323271,-0.122155,-0.01616592
0.8634379,-0.2399103,-0.004206043
0.772265,-0.2788355,-0.02354706
0.702771,-0.2961669,-0.02925152
0.7202718,-0.2887368,-0.03283269
0.6792253,-0.2679967,-0.05843725
0.713401,-0.2317526,-0.05326708
0.7451678,-0.1252047,-0.04776865
0.6346243,-0.05344767,-0.02065591
0.5984544,-0.008859621,0.04555039
0.6495949,0.0237971,0.07375889
0.7678065,0.02552536,0.04322621
0.8753146,0.03627681,0.002825216
0.8568619,0.02365067,0.004388465
0.8134884,0.02051438,0.01167556
0.7765339,0.007169955,0.004978891
0.7805891,-0.09643588,0.01610923
0.8027509,-0.3022722,0.03382512
0.8626021,-0.5198847,0.09795559
1.062213,-0.5386911,0.2358174
1.263297,-0.4402717,0.3747518
1.506308,-0.3716894,0.3933871
1.875815,-0.2497086,0.3016385
2.042112,-0.2026404,0.2440605
1.880703,-0.2734103,0.1857401
1.660269,-0.2676744,0.1283128
1.373844,-0.185364,0.1755536
0.9868246,-0.08645471,0.2301941
0.79709,-0.02884262,0.2495416
0.733311,-0.05218957,0.2328668
0.6515284,-0.07142057,0.1429793
0.6440482,-0.07715749,0.07976769
0.5520928,-0.08290913,0.07643384
0.449066,-0.06979531,0.09006876
0.4341275,-0.08778909,0.09802279
0.4140179,-0.1318707,0.09552715
0.5305285,-0.1948029,0.1011695
0.7275373,-0.2643976,0.06934658
0.8927241,-0.2580924,0.004676916
0.9998793,-0.1993774,-0.0287374
1.003272,-0.1385429,0.001908519
1.044344,-0.09289834,0.04631895
1.120067,-0.05533117,0.01692223
1.142125,0.05486723,-0.001111696
1.078906,0.1384709,0.02007996
1.005496,0.07259598,0.02309272
1.133777,-0.05265572,0.03884823
1.420421,-0.21641,-0.03471233
1.701244,-0.3375974,-0.1717899
1.746609,-0.3110134,-0.1921372
1.504898,-0.3086876,-0.1437739
1.348178,-0.3856706,-0.0756942
1.335508,-0.4610674,0.02691733
1.304892,-0.5221822,0.08481876
1.224748,-0.4569058,0.06514958
1.079202,-0.3405694,0.03476728
1.022792,-0.3133507,-0.005664133
1.034728,-0.3049682,-0.09902474
0.9669216,-0.3315773,-0.147279
0.8942391,-0.3767938,-0.1019148
0.8745566,-0.3980299,-0.06059839
0.5759491,-0.1285141,0.1487965
0.528709,-0.1048078,0.1486202
0.5173544,-0.1343052,0.1519146
0.5409751,-0.1417782,0.1489135
0.6258701,-0.1663598,0.1468951
0.764424,-0.1910652,0.1344164
0.9089361,-0.1381373,0.1144963
0.9717612,-0.07681779,0.115
0.9540785,-0.02476441,0.1383326
0.9593695,-0.01591136,0.1881805
0.983809,-0.04988234,0.2345177
1.015508,-0.1032052,0.1986497
1.143566,-0.2820659,0.08990629
1.332578,-0.5123179,-0.04678466
1.380542,-0.5469275,-0.1464796
1.324905,-0.4838121,-0.09082134
1.390961,-0.5333148,-0.001100438
1.51358,-0.5211782,-0.01098789
1.556331,-0.3800568,0.02434915
1.520057,-0.2323213,0.05910325
1.43499,-0.06084022,0.0253588
1.363263,0.03068602,0.02956173
1.232083,0.05216381,0.002817567
1.063611,0.06177991,-0.03774443
0.9628163,-0.0278356,-0.03192963
0.814485,-0.08222945,-0.04211415
0.6787448,-0.07257001,-0.04556477
0.6578618,-0.0840452,-0.05283904
0.681106,-0.1124546,-0.05586784
0.7591112,-0.1825527,-0.04606973
0.8107303,-0.1895684,-0.05435571
0.7842141,-0.1306747,-0.02709663
0.7514266,-0.06933882,0.02221887
0.7413049,-0.02044634,0.05256652
0.7638905,-0.02650731,0.05648286
0.7977172,-0.004803846,0.05172596
0.8462097,0.006000317,0.06245799
0.8617221,-0.03354451,0.0393006
0.8535094,-0.05370593,0.02043924
0.8767501,-0.119353,0.03365267
0.8755425,-0.2663046,0.0476972
0.9449079,-0.4943757,0.1443692
1.104469,-0.6122853,0.2912135
1.313762,-0.4528894,0.332141
1.649019,-0.3110393,0.2895885
1.85177,-0.2982497,0.2963782
1.814537,-0.2779171,0.3232827
1.784545,-0.2807628,0.3066781
1.597828,-0.2513042,0.2910539
1.18534,-0.2088219,0.2326574
0.9631755,-0.1929688,0.1703566
0.9003225,-0.1084512,0.1943601
0.7043412,-0.03298001,0.1920089
0.5790328,-0.02961539,0.162953
0.599758,-0.08132838,0.178978
0.5699623,-0.1516132,0.1892498
0.5757334,-0.1629143,0.1954123
0.621713,-0.1794652,0.2004885
0.6261283,-0.2125745,0.19598
0.6685654,-0.2114232,0.1965103
0.7044254,-0.1819717,0.176068
0.7673482,-0.1179155,0.1469175
0.9213097,-0.07667825,0.1397663
1.019183,-0.07243064,0.1100614
1.035541,-0.06801238,0.05198985
0.9957043,-0.04409124,0.04354182
0.9139006,-0.004259034,0.1056901
0.8759073,0.01541506,0.1827811
0.8656699,0.01361839,0.2142209
0.9004091,-0.06423701,0.2077461
1.043541,-0.2484567,0.1756271
1.321519,-0.4900339,0.03268801
1.558814,-0.6705222,-0.1262289
1.413851,-0.5804101,-0.07067172
1.129766,-0.358513,0.07609542
1.145745,-0.2862151,0.1162655
1.387551,-0.2637368,0.09904158
1.656894,-0.2112374,0.01373084
1.606086,-0.09809424,-0.0603356
1.251117,0.04736333,0.01482444
1.019239,0.01506332,0.08211467
0.8902804,-0.07438347,0.06016486
0.9017866,-0.1176319,0.0300222
0.9143884,-0.1738386,-0.01219475
0.7370354,-0.1332406,-0.03578931
0.7434107,-0.1230602,-0.03735342
0.7878069,-0.153663,-0.05043411
0.7458285,-0.1003841,-0.04563104
0.7786101,-0.06609081,-0.001858392
0.7175967,-0.002493753,0.06040234
0.7317408,0.04628948,0.1073997
0.8255997,0.02905,0.1098487
0.9015614,0.03528418,0.06384513
0.9687958,-0.01260356,0.01984262
0.8555564,-0.07658029,0.01354012
0.8022654,-0.0964169,0.0452662
0.8586883,-0.1342188,0.07703367
0.876816,-0.2439493,0.06185048
0.9631893,-0.4567839,0.08616396
1.04652,-0.6293328,0.2172465
1.130651,-0.6145387,0.3359743
1.31462,-0.4145332,0.3233853
1.614356,-0.216507,0.2910076
1.764204,-0.2308486,0.3367431
1.63472,-0.2822473,0.3054908
1.617259,-0.2349146,0.2372557
1.587885,-0.2742015,0.2315586
1.339616,-0.3258378,0.2025084
1.12431,-0.2250254,0.2391191
0.8778493,-0.08757491,0.2859462
0.6832365,0.02544471,0.2343024
0.6859699,0.07052503,0.2061319
0.6804773,0.008771893,0.1725585
0.6465191,-0.02610877,0.1346531
0.6115664,-0.04218821,0.1306962
0.5892104,-0.09210886,0.1342848
0.614081,-0.1254368,0.1638983
0.6368772,-0.1604502,0.1398345
0.7243601,-0.1650199,0.1155004
0.8443321,-0.1332109,0.1634762
0.9308409,-0.09904121,0.193345
1.013887,-0.06048486,0.2025416
1.04992,-0.04852887,0.167318
1.071746,-0.02421693,0.1196848
1.042297,-0.00324476,0.1368931
0.9408753,-0.03796858,0.1450733
0.9364184,-0.08383061,0.1322942
1.050934,-0.2095381,0.1141964
1.217896,-0.3973962,0.04090214
1.309245,-0.4353336,-0.04936224
1.250557,-0.3729074,-0.06496554
1.290051,-0.3853254,0.00332599
1.53995,-0.3887368,0.05059511
1.7242,-0.2970618,0.01973857
1.567472,-0.1180784,0.006642213
1.256551,0.09577153,0.06078926
1.163113,0.1262636,0.09300643
1.157927,0.01076917,0.05912422
1.088161,-0.01823052,-0.01455479
0.9906499,-0.05569088,-0.08154461
0.8229902,-0.1069289,-0.06710508
0.7643942,-0.0942456,-0.02973066
0.8099912,-0.1098255,-0.05008058
0.8346893,-0.08647513,-0.05324728
0.9205598,-0.04155611,-0.04750376
0.9561135,-0.05233871,-0.05903741
0.9513113,-0.05008057,-0.0419084
0.9448791,-0.05750748,-0.04201145
0.8411493,-0.05519976,-0.04376227
0.7667431,-0.03384038,-0.02179832
0.7587229,-0.02684551,-0.0165071
0.7697955,-0.008139525,-0.0006321421
0.8012911,-0.02087601,0.0008651881
0.854615,-0.03438711,-0.003709984
0.9245737,-0.02633972,0.01766253
0.9055326,-0.04346407,0.005208511
0.8397615,-0.06646955,-0.003861479
0.8128184,-0.1530318,0.007099351
0.868476,-0.3399347,0.02654236
1.078945,-0.5838781,0.1417675
1.241555,-0.7592495,0.2637375
1.227153,-0.6953899,0.2378656
1.351923,-0.5720423,0.2124858
1.745063,-0.5221294,0.2991498
1.909855,-0.3395238,0.2946909
1.618102,-0.2098712,0.1741457
1.423297,-0.2680966,0.09443945
1.499476,-0.2400156,0.08455858
1.408276,-0.1969831,0.1520628
1.139793,-0.1596627,0.180451
1.003949,-0.07272614,0.1414056
0.963688,-0.1139765,0.1435186
0.8783223,-0.1771968,0.1263216
0.7844162,-0.2170857,0.105261
0.7229524,-0.2448217,0.1111577
0.7020453,-0.2053208,0.1333993
0.6325607,-0.2433481,0.1850927
0.5806285,-0.258733,0.1857221
0.6408913,-0.2121967,0.1733682
0.6229791,-0.2040279,0.1700191
0.6611696,-0.1489438,0.133423
0.8148773,-0.1089482,0.1054781
0.8464433,-0.07886942,0.08716385
0.8606065,-0.04902359,0.09513995
0.8531812,-0.09245548,0.1074806
0.8243281,-0.1380086,0.1184438
0.8582028,-0.1906613,0.1543144
0.8626957,-0.1932413,0.1544879
0.9114475,-0.1545273,0.1491263
0.955999,-0.1892112,0.1502662
0.9197806,-0.176893,0.1154125
0.8706114,-0.121575,0.1065662
0.8105545,-0.125743,0.1264675
0.9037397,-0.2403753,0.09397795
1.24212,-0.5220431,-0.05666932
1.588697,-0.703726,-0.2265793
1.603791,-0.642165,-0.1863738
1.377282,-0.5750653,-0.02194115
1.299295,-0.4997412,0.07921372
1.314262,-0.3152617,0.1368916
1.41307,-0.1393353,0.03691182
1.556947,-0.03542077,-0.1236456
1.342917,0.01644466,-0.0922656
0.9949817,-0.0106585,-0.03772639
0.857222,-0.06916856,-0.01511656
0.8255898,-0.1225715,0.01291802
0.894148,-0.1950387,-0.0296633
0.912077,-0.2017383,-0.02505864
0.8372486,-0.1635953,-0.01393031
0.8034228,-0.1556713,-0.02924061
0.7482548,-0.1195382,0.006662508
0.7104592,-0.08950493,0.02326324
0.7472583,-0.09820185,0.04331861
0.8127298,-0.1041301,0.04634289
0.8230008,-0.0866733,0.01800118
0.8027464,-0.04499299,0.01776672
0.8751654,-0.02067741,0.009141674
0.95302,-0.02175106,0.004964102
0.9925433,-0.07581325,-0.007225113
1.02032,-0.2275294,0.006870643
1.061729,-0.4356748,0.1176772
1.198492,-0.5411532,0.2583157
1.29703,-0.4807739,0.3390551
1.313237,-0.4553469,0.3016796
1.369123,-0.438375,0.2378204
1.429253,-0.3435321,0.2157864
1.424602,-0.3605486,0.2204512
1.382333,-0.3590297,0.305158
1.362644,-0.2153092,0.3584382
1.30759,-0.1591326,0.3109863
1.20024,-0.182046,0.2243351
1.015726,-0.1572643,0.1380574
0.7865058,-0.1161682,0.1626875
0.7388538,-0.108248,0.2149688
0.6559389,-0.1046925,0.2094398
0.507214,-0.07623813,0.2338674
0.6224334,-0.0777829,0.2244247
0.6730694,-0.06283762,0.1884453
0.6488525,-0.0287558,0.1950636
0.7395976,-0.04855651,0.1863414
0.7069253,-0.04368521,0.1642664
0.7804717,-0.03892942,0.1287798
0.9278041,-0.07748332,0.09185098
0.9251916,-0.1043207,0.1072971
0.9487312,-0.1325415,0.1425578
0.901355,-0.1347315,0.1863447
0.8487791,-0.1279897,0.2165448
0.8590349,-0.1175506,0.1952508
0.8155965,-0.08784191,0.1895434
0.8763484,-0.1710002,0.1794784
1.100124,-0.3942729,0.1024612
1.408187,-0.6076073,0.01427051
1.486802,-0.6423976,-0.03996544
1.303094,-0.5564541,-0.02683553
1.25837,-0.4772745,0.04792764
1.251713,-0.2402313,0.1141891
1.326798,0.01545446,0.106232
1.591237,0.04992397,-0.007231713
1.633527,0.1016926,-0.09562005
1.421717,0.1100995,-0.03861658
1.174569,-0.01782449,0.03464472
1.033801,-0.04572075,0.02679971
1.001662,-0.08024742,0.006252769
0.8809719,-0.1338697,-0.01000696
0.7862794,-0.1065253,-0.02402737
0.7847034,-0.1331335,-0.01600633
0.7847876,-0.1306135,-0.03456864
0.8146921,-0.06069309,-0.06132514
0.8047302,-0.02095307,-0.04188387
0.7989611,-0.009295886,-0.01376387
0.8121355,-0.0190898,0.0143846
0.7863853,0.01639313,0.02279782
0.7974596,0.04588219,0.005928787
0.813846,0.03863868,0.01357002
0.8283461,0.02657361,0.01541127
0.8370791,-0.04339613,0.008385443
0.8173921,-0.05806122,0.0155317
0.8249881,-0.0445695,0.01048764
0.8026349,-0.1205144,0.006206448
0.7931789,-0.2400071,0.01333515
0.9022805,-0.4244249,0.05958326
1.088366,-0.5270079,0.1556411
1.314934,-0.4765547,0.1980354
1.531826,-0.4607826,0.1568725
1.658272,-0.4682468,0.159821
1.643441,-0.4468091,0.2675956
1.565066,-0.4010821,0.3437201
1.508917,-0.2886819,0.2513215
1.433945,-0.1572672,0.1181449
1.327324,-0.05430618,0.1172041
1.159008,0.03260055,0.1534777
0.9790713,0.06281135,0.149934
0.8831553,0.02196609,0.1619273
0.8249206,-0.02879501,0.1547544
0.795181,-0.07871745,0.1294377
0.7669862,-0.1139897,0.1101642
0.749972,-0.1204851,0.08546273
0.7729501,-0.1417671,0.09013699
0.7476705,-0.1732375,0.08815657
0.7307461,-0.1992366,0.08017117
0.7475911,-0.198335,0.1165946
0.7565394,-0.1828532,0.141622
0.8116068,-0.2244102,0.1300255
0.8572606,-0.2626464,0.1124539
0.8655971,-0.2386502,0.1060443
0.842625,-0.1835396,0.1031941
0.7900787,-0.09346221,0.1077701
0.7873161,-0.03041202,0.1341078
0.8237639,-0.003579303,0.1568143
0.8599729,0.05475486,0.1843728
0.8504123,0.09406927,0.1960085
0.7638457,0.09940946,0.2018928
0.6789234,0.09317843,0.2581189
0.7077221,-0.001020022,0.2794558
1.008904,-0.3009062,0.2252469
1.5273,-0.7913234,0.0507806
1.775005,-1.096489,-0.160424
1.492417,-0.9988401,-0.04901901
1.170338,-0.7452665,0.1805971
1.202351,-0.3827601,0.1465715
1.420114,-0.04548253,0.05237779
1.656192,-0.01653086,-0.05952246
1.644669,-0.03803999,-0.1356684
1.404174,-0.01990646,-0.05135849
1.23785,-0.1315713,-0.04952134
0.9714486,-0.2196499,-0.05595451
0.7625966,-0.2515006,0.01371441
0.7928217,-0.2368379,0.00666584
0.7575018,-0.1870108,-0.001885767
0.723023,-0.1746488,-0.04617211
0.6640288,-0.1372264,-0.0822439
0.6032151,-0.1412914,-0.07170694
0.6584032,-0.1606239,-0.1123092
0.688099,-0.1474873,-0.08515696
0.8276542,-0.197551,-0.05114062
0.8969333,-0.2043485,-0.06744314
0.7376755,-0.163284,-0.03798176
0.612608,-0.1155059,0.008764806
0.552938,-0.05994347,0.07112123
0.7198423,-0.133104,0.04745078
0.9542845,-0.2275204,-0.02426336
0.9093878,-0.2419874,-0.0076142
0.802715,-0.3246128,0.005571683
0.7846998,-0.4733588,0.06358339
0.9240672,-0.572805,0.1935443
1.22392,-0.5824399,0.2718298
1.484354,-0.4976695,0.2900608
1.691441,-0.3829446,0.2731242
1.801969,-0.38977,0.2820016
1.746604,-0.4895981,0.3260257
1.632098,-0.513635,0.3576928
1.418237,-0.4299763,0.3661601
1.117645,-0.2814163,0.3209804
0.9348225,-0.1562202,0.2530845
0.7837715,-0.04095186,0.1814937
0.6259446,0.05938657,0.1339461
0.6219588,0.007687261,0.1540025
0.6140418,-0.06099504,0.1556695
0.5647768,-0.08217006,0.1589653
0.5945241,-0.1453191,0.2089571
0.5747352,-0.1408162,0.2215838
0.5365267,-0.1470429,0.2072131
0.5542818,-0.1925305,0.1617439
0.568434,-0.1663938,0.08260807
0.663596,-0.1745906,0.05255071
0.8223103,-0.1940976,0.05913959
0.9075205,-0.1917941,0.0805357
0.9421262,-0.2075998,0.1154387
0.9567745,-0.1700513,0.1113581
0.9399329,-0.148323,0.1007522
0.9843258,-0.2191151,0.1012316
1.202193,-0.3746432,0.01342087
1.528891,-0.5729947,-0.09943867
1.673917,-0.652138,-0.08425036
1.543547,-0.5725451,0.009319192
1.433051,-0.425275,0.1031398
1.413116,-0.2229734,0.1530415
1.44038,-0.05276392,0.0960582
1.540092,-0.04008245,0.01673043
1.428199,-0.06466398,-0.003881313
1.175021,-0.06013907,-0.01740364
1.011553,-0.1278284,-0.01953956
0.7929548,-0.1730567,-0.0142186
0.6734597,-0.1699637,-0.0309264
0.6712724,-0.1823721,-0.03834787
0.6533085,-0.1662521,-0.05426383
0.7037788,-0.161743,-0.05894278
0.6976689,-0.1479879,-0.01356725
0.7044025,-0.1142952,0.02432931
0.7660939,-0.09374435,0.03660927
0.7658033,-0.03154176,0.02616277
0.7751515,0.01457379,0.004753141
0.7196101,0.01103716,0.000849446
0.6663502,-0.001193075,0.01795015
0.6913806,-0.03722888,0.04895897
0.7591845,-0.1579387,0.03773767
0.9764902,-0.4306365,0.04679159
1.194493,-0.692615,0.1898697
1.314259,-0.7005475,0.3595653
1.50216,-0.4820817,0.381129
1.800808,-0.2829205,0.253466
1.914627,-0.2484891,0.1894291
1.668879,-0.2174896,0.2749903
1.492688,-0.1271382,0.341165
1.420505,-0.1555008,0.3248361
1.187494,-0.2291327,0.2654818
1.025141,-0.2187195,0.2130724
0.9117718,-0.2211331,0.2174115
0.7025384,-0.1922296,0.2302906
0.5531957,-0.1132795,0.2177995
0.5257396,-0.09369468,0.2153708
0.5423385,-0.07956844,0.2128993
0.5631768,-0.08141934,0.1791152
0.6093361,-0.1041358,0.1622311
0.6026607,-0.09772558,0.1722294
0.586221,-0.1333854,0.1709759
0.6428995,-0.1550804,0.1931641
0.7040752,-0.1335313,0.2187909
0.8519763,-0.1285667,0.1904854
1.010115,-0.09914816,0.1159414
1.024886,-0.0692269,0.06350984
0.9763702,-0.07532615,0.1108045
0.8963388,-0.08469438,0.1814768
0.8567976,-0.0731029,0.1843447
0.8967795,-0.08763807,0.1634913
1.03089,-0.2019521,0.09984085
1.294508,-0.3914346,-0.0107955
1.48341,-0.5662931,-0.04537841
1.519151,-0.6582946,-0.01219103
1.506646,-0.6492746,0.02194403
1.444835,-0.4510335,0.09584713
1.414562,-0.1236731,0.134913
1.483405,0.02065882,0.04454051
1.517868,-0.002049382,-0.04827347
1.352388,-0.02783241,-0.01922286
1.091282,-0.1149673,0.01419335
0.9727942,-0.2019615,-0.01853417
0.897039,-0.2079715,-0.02604885
0.7291221,-0.1813106,-0.04190229
0.591453,-0.1535575,-0.04529199
0.5259803,-0.1321908,-0.007101427
0.5199496,-0.101757,-0.0259069
0.5518706,-0.07837031,-0.01653881
0.5727437,-0.07752298,0.02593149
0.6574122,-0.09685353,0.02146514
0.8126931,-0.1467033,0.03580692
0.8584048,-0.1563167,0.02471297
0.6979719,-0.05451352,0.01165643
0.5460654,0.07092997,0.06548377
0.6130947,0.06055118,0.09296989
0.7498514,-0.1063999,0.05389204
0.9227327,-0.3624712,0.03359053
1.242398,-0.6056232,0.1613349
1.498369,-0.6174318,0.3511709
1.611386,-0.4329145,0.3802615
1.748149,-0.3213185,0.2803273
1.831731,-0.3042685,0.2300978
1.716294,-0.3010209,0.2924762
1.489297,-0.248944,0.3458195
1.322785,-0.1825745,0.3103085
1.243393,-0.2024104,0.2487339
1.164386,-0.1803668,0.1758539
0.9969853,-0.07333341,0.1462962
0.7951497,0.004119065,0.1657353
0.6649618,0.02434055,0.1411065
0.5307952,-0.00820894,0.130157
0.4498125,-0.01826116,0.1497268
0.4833863,-0.02152041,0.1567641
0.4929263,-0.07135798,0.2025337
0.5334357,-0.1129888,0.227437
0.6204886,-0.1553353,0.184556
0.7000339,-0.1773122,0.1467328
0.8401402,-0.1651637,0.1111763
0.9858516,-0.1759609,0.07541443
1.019427,-0.1836089,0.1071519
0.9529146,-0.1642267,0.1656493
0.9191887,-0.1265944,0.1438965
0.8980918,-0.1041441,0.1212089
0.9188738,-0.1697389,0.1340047
1.072494,-0.280789,0.07879438
1.238201,-0.3987027,0.003116552
1.518115,-0.5682665,-0.07527719
1.689122,-0.601869,-0.09462956
1.517917,-0.395423,0.02530403
1.524242,-0.2043588,0.1036956
1.597554,-0.1023775,0.100568
1.495004,-0.04791871,0.04317632
1.447149,-0.002838546,-0.05078606
1.248482,0.05860842,-0.02849583
1.000736,-0.03650517,0.01118344
0.8894924,-0.1252739,0.0009733625
0.822948,-0.106812,-0.001751361
0.8356426,-0.1889284,-0.04711716
0.7697274,-0.198445,-0.05824893
0.7483891,-0.1582088,-0.04594147
0.821584,-0.1790528,-0.0652527
0.7884636,-0.1398504,-0.06044848
0.8010876,-0.1394146,-0.04312709
0.732541,-0.1297056,0.007315464
0.604195,-0.08871807,0.05138964
0.6571834,-0.1004735,0.03957522
0.6645741,-0.07683373,0.04313135
0.6623562,-0.04859731,0.05160364
0.7573291,-0.03122547,0.03370197
0.7931197,-0.03792909,0.0222236
0.810198,-0.1681202,0.0267439
0.8779468,-0.4030676,0.06665263
1.02152,-0.5547017,0.1983068
1.203973,-0.4659,0.3530958
1.405789,-0.3110848,0.361028
1.707261,-0.2350818,0.286764
1.933782,-0.2226612,0.2597916
