accx,accy,accz
0.9638116,-0.2382863,-0.5311934
0.9855932,-0.3647313,-0.5792606
1.053044,-0.5326911,-0.583176
1.187,-0.6640613,-0.5706888
1.324301,-0.664053,-0.4533289
1.450021,-0.6706579,-0.2343813
1.438421,-0.6679171,-0.1033
1.313812,-0.5247538,-0.1645171
1.206395,-0.3934851,-0.2507827
1.014952,-0.2745619,-0.2115676
0.8081257,-0.170831,-0.1456595
0.6993546,-0.213804,-0.05953627
0.6123524,-0.2220385,0.02502819
0.612138,-0.182919,-0.02149555
0.6222343,-0.1910961,-0.04844251
0.555841,-0.1278792,-0.07464692
0.5696813,-0.09829682,-0.163647
0.60585,-0.1428733,-0.1471891
0.6514489,-0.1860544,-0.1368684
0.7754252,-0.2687366,-0.1577159
0.898528,-0.3008131,-0.1843486
1.023836,-0.2491385,-0.3022217
1.053141,-0.1759504,-0.354413
0.9864499,-0.1013738,-0.3012378
0.9546011,-0.06232582,-0.216722
0.9181557,-0.1005062,-0.1605665
0.9533267,-0.2753977,-0.2373289
1.097465,-0.4474369,-0.4587462
1.207854,-0.3957079,-0.774175
1.21461,-0.3073769,-0.927812
1.269837,-0.3541117,-0.7746172
1.506758,-0.3235741,-0.6442216
1.600539,-0.2782365,-0.6841795
1.446609,-0.3042181,-0.6396674
1.33519,-0.2157858,-0.5234567
1.231734,-0.1923584,-0.4883277
1.064132,-0.2174737,-0.4320095
0.7951985,-0.0871838,-0.3535035
0.5748689,-0.02430251,-0.3295791
0.6582025,-0.001992707,-0.3004379
0.6762548,0.09727518,-0.2116434
0.6012971,0.1279343,-0.1546114
0.7670137,-0.02180293,-0.2290621
0.8379966,-0.2441894,-0.2904838
0.7734176,-0.266863,-0.3043092
0.7930658,-0.2196008,-0.3199599
0.8041216,-0.213226,-0.2933874
0.8386957,-0.1184603,-0.3241966
0.8593352,-0.1022085,-0.3432914
0.8923693,-0.1669424,-0.2979376
0.9621951,-0.1791651,-0.2841031
0.9423306,-0.1565094,-0.2467214
0.9344296,-0.107229,-0.2404357
0.9497274,-0.1043728,-0.2874039
0.9461377,-0.1525724,-0.3356352
0.9683041,-0.2224374,-0.3919276
0.9595354,-0.3037801,-0.4238069
0.9508581,-0.3628947,-0.4694156
0.9809273,-0.4175404,-0.4966375
1.13543,-0.5075946,-0.45838
1.469349,-0.7185617,-0.3457778
1.658117,-0.8663117,-0.1957799
1.486606,-0.6615989,-0.2069144
1.267708,-0.3637804,-0.2971127
1.124986,-0.2061349,-0.2774105
0.8530934,-0.06741413,-0.2075658
0.6750666,-0.05275423,-0.0775158
0.7100369,-0.1709657,0.02867162
0.6948477,-0.2142149,0.01302649
0.7022066,-0.232577,-0.000194247
0.7330621,-0.2551933,-0.02683581
0.6941652,-0.1872531,-0.1270261
0.6785546,-0.09171131,-0.2245796
0.6479286,-0.08427276,-0.2607123
0.651036,-0.1585943,-0.2003631
0.6956346,-0.2284583,-0.1019596
0.7299282,-0.2797599,-0.07172932
0.8296332,-0.2654575,-0.1664011
0.897126,-0.1799177,-0.3068655
0.8905347,-0.126815,-0.3046375
0.8640499,-0.06617004,-0.235451
0.8173992,-0.04116858,-0.2201942
0.8342114,-0.1363863,-0.1708385
0.9151617,-0.2846983,-0.1429628
1.028604,-0.4273272,-0.2016377
1.165517,-0.4631818,-0.376747
1.26943,-0.4443303,-0.6828566
1.326566,-0.4173159,-0.8240878
1.349794,-0.2873499,-0.7145459
1.38624,-0.1757763,-0.6874569
1.426703,-0.1281644,-0.7225343
1.435649,-0.09681231,-0.5952193
1.405926,-0.1632891,-0.4808771
1.256635,-0.2558689,-0.5006186
1.024351,-0.2413264,-0.4466734
0.8201884,-0.157782,-0.3171706
0.6723752,-0.04689632,-0.2808135
0.6014974,0.1020518,-0.2659481
0.607125,0.1568891,-0.1885603
0.6870813,0.08966675,-0.1816103
0.793768,0.03814806,-0.264037
0.890248,-0.04085458,-0.3294386
0.9328367,-0.1202622,-0.3773825
0.9072198,-0.1428882,-0.3866667
0.9210914,-0.1797282,-0.3803238
0.9012243,-0.1627709,-0.3815949
0.8233558,-0.1073629,-0.3246574
0.7974159,-0.09441736,-0.2550808
0.7854571,-0.08670643,-0.2185133
0.8177926,-0.08241677,-0.2269751
0.8629917,-0.05483583,-0.2570992
0.8951667,-0.03161025,-0.2579224
0.9445765,-0.05110248,-0.2917627
0.9327697,-0.06336735,-0.3421042
0.9405834,-0.09990458,-0.3702254
0.9593149,-0.1508126,-0.3948229
0.9092013,-0.217316,-0.4322988
0.8824877,-0.3374837,-0.5111359
0.8788726,-0.4160658,-0.5227003
0.9977873,-0.5647372,-0.4971116
1.410789,-0.9378986,-0.4974745
1.802301,-1.149772,-0.3918015
1.662951,-0.8479261,-0.3248458
1.303789,-0.428968,-0.3667802
1.113666,-0.192868,-0.3212268
0.7693036,0.1142397,-0.2350807
0.6007316,0.2691024,-0.1848014
0.7860582,0.03462326,-0.1352393
0.7440814,-0.1626547,-0.09201194
0.7267769,-0.2243533,-0.1487928
0.7579581,-0.2525199,-0.2969729
0.6318223,-0.2651943,-0.317805
0.7119537,-0.3886043,-0.2464658
0.7855322,-0.4604157,-0.2100161
0.8090869,-0.4542669,-0.1684654
0.9577015,-0.4552848,-0.1666433
1.036973,-0.3745959,-0.1618735
1.04591,-0.3313271,-0.1576236
0.9084784,-0.2733669,-0.2365773
0.7389507,-0.1374479,-0.2850856
0.6863666,-0.109152,-0.2553623
0.6510056,-0.1169721,-0.1712105
0.6503092,-0.07946871,-0.03652703
0.6346057,-0.08074108,0.04497382
0.7022718,-0.112646,0.003157603
0.8247568,-0.114915,-0.06984856
0.835882,-0.1085196,-0.1136602
0.8073112,-0.1296332,-0.3062372
0.7636207,-0.1333079,-0.6785449
0.9497993,-0.1270641,-0.9433325
1.42327,-0.1691078,-1.041895
1.794746,-0.4049939,-1.187348
1.88374,-0.741968,-1.269419
1.798411,-0.7098043,-1.094379
1.515331,-0.4425461,-0.8308894
0.8578708,-0.3741671,-0.4404208
0.4735111,-0.3218225,-0.06441917
0.6455559,-0.1463827,-0.09544018
0.6062512,0.03648258,-0.1753465
0.5541144,0.1291172,-0.1360189
0.6370105,0.07113379,-0.2495495
0.5993075,-0.01300375,-0.4109782
0.7369229,-0.1078026,-0.5381785
0.8598265,-0.166394,-0.5823345
0.9232113,-0.1103895,-0.565381
0.981151,-0.142565,-0.5209642
0.8766094,-0.1998131,-0.4234404
0.8660202,-0.1935348,-0.4075849
0.8470365,-0.2282774,-0.3960049
0.7746328,-0.1834475,-0.3398907
0.7774036,-0.1016159,-0.3427603
0.7140887,-0.07219316,-0.333609
0.6716646,-0.0725365,-0.3036088
0.651678,-0.1527972,-0.2719727
0.6574574,-0.2384416,-0.2249074
0.7359127,-0.2769979,-0.2146231
0.8111326,-0.2623877,-0.2576754
0.9140752,-0.2438854,-0.3037268
0.9746427,-0.2749627,-0.318612
0.9942506,-0.2647014,-0.3317981
0.9946986,-0.259894,-0.3979382
0.9419084,-0.2971042,-0.5582397
0.9182732,-0.3766138,-0.7077716
0.9140697,-0.5334099,-0.7144977
1.039032,-0.6588506,-0.6729714
1.405081,-0.9103388,-0.6500105
1.690827,-1.174014,-0.584663
1.500512,-0.8154073,-0.4502945
1.200931,-0.3139413,-0.2886844
1.256393,-0.4036562,-0.285833
1.108687,-0.3524512,-0.3278437
0.7969831,-0.03889526,-0.1807717
0.8780705,-0.1681572,-0.1191937
0.8497493,-0.2778551,-0.08572691
0.7096944,-0.201957,0.0317988
0.7641736,-0.2937693,-0.06925325
0.6742005,-0.2284584,-0.1297894
0.5673973,-0.1321931,-0.1116231
0.5644995,-0.1655573,-0.1776119
0.5811218,-0.1334487,-0.1058457
0.6949521,-0.2019259,-0.1011634
0.7862527,-0.2827207,-0.1346958
0.8322201,-0.2773183,-0.1389647
0.8368743,-0.2515827,-0.304234
0.7881942,-0.164615,-0.3682256
0.7701635,-0.1326488,-0.338658
0.7378278,-0.1076581,-0.2758786
0.7250959,-0.08363053,-0.1323754
0.7561908,-0.1519601,-0.1205791
0.828408,-0.2561839,-0.2112888
1.043194,-0.4244857,-0.4155211
1.24601,-0.4969219,-0.7282698
1.286119,-0.4182155,-0.9099178
1.405985,-0.3827965,-0.8846084
1.641638,-0.3239547,-0.8204115
1.620743,-0.2391074,-0.8223366
1.40627,-0.2084385,-0.68722
1.256012,-0.1726468,-0.4858496
1.055699,-0.1513272,-0.4485812
0.8789692,-0.1629478,-0.4412996
0.7076145,-0.1765817,-0.4059072
0.5777457,-0.1505898,-0.3829757
0.6816062,-0.05124826,-0.3327925
0.6289728,0.03594346,-0.2291925
0.5696784,0.005432317,-0.1913796
0.7520426,-0.08992539,-0.2488455
0.7699236,-0.1363692,-0.2181705
0.8134544,-0.1348432,-0.2304775
0.8406953,-0.08942167,-0.3550929
0.7704521,-0.03685923,-0.4175726
0.8591551,-0.07420967,-0.4088568
0.8234562,-0.1373078,-0.333504
0.8122812,-0.2044165,-0.2950198
0.8878447,-0.2760819,-0.2818833
0.8428969,-0.2543191,-0.2349181
0.9066749,-0.2227488,-0.2366789
0.9343556,-0.1933067,-0.2283496
0.9109617,-0.1290668,-0.288
0.9349899,-0.1565093,-0.4091933
0.9011199,-0.2232429,-0.4675295
0.9803388,-0.3583727,-0.535252
1.276336,-0.7863042,-0.6138308
1.69882,-1.257436,-0.6466867
1.803212,-1.22583,-0.4372597
1.5346,-0.7803683,-0.1702133
1.345439,-0.3961188,-0.27089
1.051142,-0.147498,-0.3716045
0.7655977,-0.0258505,-0.2777291
0.7897657,-0.02990934,-0.2246268
0.7611803,-0.07746903,-0.07446268
0.702162,-0.2095751,0.06916071
0.7166531,-0.2579241,0.03777876
0.6538117,-0.1646819,0.00807632
0.623855,-0.1063813,-0.03151194
0.6463181,-0.07554486,-0.10905
0.7182637,-0.1204979,-0.1448944
0.8203473,-0.1848517,-0.1941287
0.8270616,-0.2022686,-0.2308362
0.8072162,-0.2314401,-0.2664527
0.8390396,-0.2054349,-0.3606142
0.921754,-0.188386,-0.3737108
1.002291,-0.1772182,-0.311326
0.9705095,-0.1090969,-0.2475093
0.860229,-0.08489464,-0.1706488
0.7761487,-0.09632666,-0.2097431
0.7708276,-0.1100879,-0.3051831
0.8569014,-0.1523682,-0.3192534
0.9354517,-0.2747423,-0.368419
0.9472063,-0.3809245,-0.5315706
1.04332,-0.3265594,-0.7416748
1.258352,-0.2974939,-0.7919861
1.500408,-0.365917,-0.7146285
1.717722,-0.356204,-0.8049979
1.695192,-0.2463819,-0.9121574
1.476609,-0.09452483,-0.8542051
1.257676,-0.03769783,-0.6768472
0.9044724,-0.129101,-0.3797461
0.620123,-0.1596059,-0.2613954
0.5957215,-0.06158535,-0.3246006
0.5511017,0.04434572,-0.280816
0.5286014,0.0907454,-0.2681582
0.6351976,0.0211254,-0.2754458
0.8008827,-0.0950028,-0.265831
1.01012,-0.1492103,-0.3726016
1.105293,-0.1565182,-0.4749663
1.082488,-0.1141362,-0.5076911
1.048237,-0.07409844,-0.4569064
0.9702094,-0.07660688,-0.3573092
0.8766605,-0.06734058,-0.2869151
0.8140208,-0.06202042,-0.2057783
0.783442,-0.04274591,-0.2399669
0.7461233,0.01038685,-0.3212408
0.7060247,0.02322855,-0.2795423
0.6802005,-0.02918115,-0.282281
0.6599253,-0.1120712,-0.2768676
0.728853,-0.1669288,-0.2169528
0.8232693,-0.1788346,-0.2501664
0.8528839,-0.1939513,-0.2666129
0.9546354,-0.1941707,-0.2646842
1.097694,-0.1515235,-0.3071048
1.112938,-0.1190336,-0.2963003
1.104331,-0.1052479,-0.2728304
1.193695,-0.07848554,-0.2754241
1.202424,-0.08135165,-0.2812364
1.091924,-0.1119563,-0.3024908
0.9897219,-0.1312272,-0.3817688
0.9236884,-0.2362109,-0.671357
1.138734,-0.5598775,-1.005684
1.557151,-0.9206098,-0.9542449
1.697241,-0.9203265,-0.7397231
1.648228,-0.7092198,-0.6838177
1.606607,-0.5957418,-0.5618828
1.393309,-0.3206427,-0.4697935
1.025881,-0.02384486,-0.4504558
0.8155849,-0.05606015,-0.3516141
0.7624201,-0.1435667,-0.3836115
0.6149229,-0.2196156,-0.3420577
0.5499547,-0.3014299,-0.2142064
0.5596841,-0.2331428,-0.2973023
0.4759034,-0.2072334,-0.2953825
0.5301752,-0.3225742,-0.2580068
0.6185551,-0.4730205,-0.2485305
0.691253,-0.5865258,-0.1112545
0.8128339,-0.6026872,-0.09570374
0.7806629,-0.5666597,-0.1334221
0.7635521,-0.5006473,-0.1328578
0.7667021,-0.3769254,-0.1730582
0.6724935,-0.2299438,-0.1699742
0.6259625,-0.1415105,-0.135529
0.5743596,-0.06854894,-0.08089962
0.6011781,0.01214909,-0.0845871
0.710668,-0.0120569,-0.1264579
0.7844268,-0.03839787,-0.1387948
0.9162289,-0.02317438,-0.2027778
0.9877417,-0.03581017,-0.2602456
0.952592,-0.0131523,-0.3171706
0.9011573,-0.07376522,-0.3833995
0.8406775,-0.2259226,-0.466301
0.9052589,-0.3063478,-0.7368146
1.012567,-0.3333986,-1.012259
1.079481,-0.3849765,-0.9803667
1.354294,-0.5634306,-0.7820265
1.723638,-0.7862764,-0.7064954
1.805351,-0.8254517,-0.8412786
1.668334,-0.6225346,-0.9816903
1.486075,-0.3560044,-0.8610008
1.13993,-0.2086984,-0.6058726
0.7784801,-0.08354453,-0.422559
0.7198056,-0.04043313,-0.2971406
0.6819621,-0.09341905,-0.2518865
0.518201,-0.03063004,-0.2285573
0.5746057,-0.02684786,-0.2514437
0.6579928,-0.06516844,-0.3431909
0.6462467,-0.01692338,-0.3339024
0.7309137,-0.04654965,-0.3130381
0.7033239,-0.03589793,-0.2973697
0.6671554,-0.01147529,-0.2569369
0.6935324,-0.09258729,-0.2837331
0.6304573,-0.1578073,-0.2646004
0.7321848,-0.2122135,-0.2979642
0.8938579,-0.2078478,-0.388638
0.9406558,-0.1931288,-0.3759214
0.9752037,-0.2404253,-0.3523381
0.9426862,-0.2382171,-0.322059
0.9233135,-0.2160986,-0.3290661
0.8996993,-0.1628803,-0.3619128
0.8529875,-0.08614694,-0.3772233
0.8924763,-0.100352,-0.4813163
0.9583152,-0.2492293,-0.5636681
1.057726,-0.4995018,-0.5803203
1.158947,-0.6174322,-0.6173827
1.259486,-0.5849232,-0.5956535
1.386605,-0.5997353,-0.4014898
1.377365,-0.5943263,-0.1605247
1.283206,-0.549782,-0.1654368
1.215889,-0.4844252,-0.2459579
1.116845,-0.3310405,-0.1703998
1.007048,-0.179285,-0.1213969
0.8858064,-0.1253009,-0.06787668
0.7836583,-0.1744026,-0.008453057
0.7500918,-0.238693,-0.07460676
0.7222707,-0.234765,-0.1173516
0.7061394,-0.2302597,-0.1486992
0.7050241,-0.2316503,-0.1994246
0.6992145,-0.2084908,-0.1592951
0.7124815,-0.2040972,-0.1522813
0.7049639,-0.2179586,-0.1655126
0.690634,-0.2369098,-0.1302421
0.6982945,-0.2301086,-0.1466285
0.7361476,-0.2178674,-0.167182
0.8502233,-0.2495361,-0.1902439
0.9583216,-0.2576745,-0.2436021
0.9899379,-0.2265302,-0.2676904
0.9799641,-0.1928567,-0.2712795
0.9270997,-0.162957,-0.2519506
0.8544604,-0.1659904,-0.23879
0.8481958,-0.2197323,-0.2647478
0.9785536,-0.314049,-0.3547381
1.120218,-0.3417112,-0.5636215
1.109998,-0.2812714,-0.7379477
1.080771,-0.2469595,-0.6938691
1.191238,-0.2398979,-0.5956536
1.426424,-0.2796144,-0.6224126
1.68048,-0.3242938,-0.7005748
1.686042,-0.2436856,-0.7699908
1.35869,-0.1475178,-0.7034087
0.9651076,-0.1510282,-0.4697718
0.6939052,-0.1788335,-0.3025533
0.5927201,-0.1727678,-0.2179062
0.5623937,-0.1104599,-0.2072279
0.5214317,-0.006004554,-0.2727093
0.5904712,0.05405225,-0.2710817
0.6814235,0.04153437,-0.2779676
0.7246516,0.02744568,-0.3041733
0.7720634,0.01065381,-0.3115994
0.750467,-0.05283241,-0.3072234
0.7914271,-0.1450931,-0.2411029
0.8881147,-0.2333711,-0.2460988
0.9178384,-0.2541712,-0.2988482
0.9843571,-0.2157089,-0.3425815
1.008614,-0.182859,-0.3965778
0.9440265,-0.1058023,-0.347367
0.8831262,-0.008003659,-0.2872916
0.8499002,-0.003659468,-0.2751746
0.8728196,-0.06161846,-0.3336899
0.9060096,-0.1685974,-0.4697243
0.9598425,-0.3873209,-0.4983283
1.068205,-0.5923533,-0.5374112
1.222681,-0.6768393,-0.6396071
1.483966,-0.8300271,-0.5627968
1.740428,-1.05502,-0.297916
1.769649,-1.032141,-0.05786044
1.590198,-0.7409118,-0.1305677
1.278508,-0.3349054,-0.3339669
0.9512846,0.002373213,-0.3141115
0.8437788,-0.05924532,-0.2594201
0.7281923,-0.1748078,-0.1416622
0.5204437,-0.04524096,0.03328126
0.6301421,-0.1965959,-0.01980362
0.6978871,-0.3777831,-0.03538846
0.5983797,-0.2814728,-0.001556811
0.7244341,-0.3003031,-0.1315066
0.7165286,-0.2553156,-0.1830941
0.6883588,-0.2010191,-0.1788375
0.7935154,-0.2881017,-0.1638845
0.7236425,-0.3042109,-0.1040557
0.7671495,-0.3782645,-0.1282962
0.8399423,-0.3822649,-0.1499244
0.8549219,-0.262594,-0.1961787
0.9344986,-0.1466878,-0.3256525
0.8358234,-0.01444608,-0.3580694
0.7881699,-0.03671719,-0.2477908
0.8331737,-0.08564257,-0.1339375
0.8487267,-0.1304633,-0.1539655
1.022277,-0.3029257,-0.275028
1.24718,-0.3703409,-0.4933564
1.399984,-0.312501,-0.8080379
1.36034,-0.2654697,-0.896327
1.302284,-0.2528968,-0.6879897
1.439708,-0.2426058,-0.5727938
1.499108,-0.1933935,-0.6559876
1.517861,-0.1591699,-0.7046955
1.451215,-0.1631314,-0.6377256
1.124416,-0.1912587,-0.4852649
0.8615022,-0.2036971,-0.2881003
0.7793594,-0.2175799,-0.2561736
0.7197059,-0.2214403,-0.3263755
0.6261828,-0.1585118,-0.2496704
0.589489,-0.1074666,-0.2179138
0.6363955,-0.01280981,-0.2393146
0.6682755,0.1016083,-0.2289349
0.7692818,0.05254302,-0.3461572
0.8097965,-0.01767269,-0.367337
0.7447763,-0.003655486,-0.2772595
0.7824185,-0.02854327,-0.2635901
0.7779932,-0.05013779,-0.2332173
0.7685693,-0.02937054,-0.2534927
0.8303183,-0.07616645,-0.2618678
0.8439031,-0.148254,-0.2347138
0.8906464,-0.1698403,-0.2634465
0.9043256,-0.1784415,-0.2490857
0.8743553,-0.1254624,-0.2707457
0.8835883,-0.0517121,-0.3201791
0.9074214,-0.06349836,-0.3619565
1.030067,-0.1785215,-0.4608793
1.209465,-0.4129558,-0.5410358
1.341331,-0.626765,-0.6424719
1.450589,-0.7021295,-0.6741259
1.627461,-0.7843714,-0.5036005
1.770804,-0.8793777,-0.2908861
1.571902,-0.6686027,-0.2188216
1.213039,-0.2154016,-0.3210234
1.047817,-0.01261758,-0.3747875
0.938246,-0.02046487,-0.285216
0.7807786,-0.008115631,-0.1917204
0.6820594,-0.1172577,-0.08719458
0.6569531,-0.3103437,-0.03199119
0.643141,-0.3882518,-0.06313387
0.6134921,-0.3425342,-0.07411607
0.6014066,-0.2837135,-0.1222085
0.5905643,-0.2317986,-0.1964288
0.5880924,-0.1708405,-0.1606141
0.6293544,-0.1577856,-0.09947927
0.6629313,-0.202885,-0.08764015
0.7012273,-0.3032584,-0.05452108
0.7927797,-0.3428881,-0.07441591
0.9276066,-0.301146,-0.1945922
1.019974,-0.3018701,-0.3005476
0.9692836,-0.2197363,-0.317641
0.9019235,-0.1046737,-0.2587069
0.8827863,-0.1024627,-0.2191128
0.8241571,-0.120333,-0.2002877
0.8915869,-0.09636764,-0.3339192
0.9666389,-0.2059072,-0.4854141
1.083346,-0.4102366,-0.6272921
1.248848,-0.6050103,-0.6975246
1.402865,-0.6318804,-0.6845888
1.524026,-0.6634704,-0.6074296
1.558256,-0.7183308,-0.3594148
1.46376,-0.669557,-0.1387374
1.304329,-0.5408641,-0.249153
1.105241,-0.2867365,-0.3704514
0.9092756,-0.07402053,-0.219623
0.7700215,-0.09907694,-0.1192786
0.6827573,-0.1971171,-0.1009668
0.6196047,-0.2632608,-0.01590973
0.5745258,-0.2924102,-0.05138719
0.5626494,-0.2314067,-0.1106327
0.557868,-0.1560365,-0.1304557
0.5792714,-0.1481356,-0.1789821
0.6237367,-0.1824919,-0.09751274
0.6235436,-0.2163763,-0.05129203
0.6041555,-0.1945845,-0.122297
0.5959316,-0.1511369,-0.1661925
0.6308769,-0.1404374,-0.2217201
0.782938,-0.1157779,-0.2548242
0.947778,-0.09734305,-0.2965389
0.9398688,-0.1334167,-0.3085068
0.9242495,-0.2742859,-0.2790179
1.073125,-0.494471,-0.3572688
1.121366,-0.5631913,-0.4535293
1.064786,-0.4973994,-0.641554
1.19302,-0.5164589,-0.9611433
1.506436,-0.501876,-1.023558
1.754719,-0.3426856,-0.834329
1.515105,-0.2231107,-0.7067345
1.085642,-0.1867984,-0.5451299
1.067974,-0.1494393,-0.3403425
0.9636418,-0.1509128,-0.298437
0.6644057,-0.1487159,-0.2349788
0.6763752,-0.08650554,-0.1463434
0.6646107,0.0001671593,-0.2286663
0.5007374,0.1351715,-0.2245086
0.5022119,0.193205,-0.175975
0.5966811,0.08649345,-0.2317666
0.6842089,0.001024757,-0.2095444
0.7733986,-0.04611431,-0.2524222
0.8188304,-0.09511645,-0.3426742
0.8101882,-0.09857456,-0.3301439
0.8089173,-0.1432198,-0.3561625
0.8027929,-0.2027114,-0.3548813
0.7990171,-0.2312485,-0.2845408
0.8284473,-0.2498942,-0.2097405
0.8311303,-0.2112864,-0.1408238
0.8479898,-0.1977522,-0.1393162
0.8485578,-0.1963166,-0.2124169
0.8217033,-0.1495786,-0.38828
0.8839798,-0.153566,-0.5377938
0.9631888,-0.1779488,-0.5669536
1.073532,-0.2945719,-0.6655159
1.369779,-0.6441568,-0.7079196
1.746951,-0.9560461,-0.4158221
1.772989,-0.8417822,-0.1204531
1.385171,-0.4848639,-0.2564716
1.106987,-0.2777964,-0.3901108
0.9845361,-0.1673898,-0.1967719
0.8646891,-0.153262,-0.119007
0.8869656,-0.2421144,-0.07246282
0.9042361,-0.3028629,0.04713966
0.8491173,-0.3590961,-0.05133906
0.789001,-0.2773036,-0.1360895
0.7085809,-0.169333,-0.1728006
0.6732813,-0.1713766,-0.2308493
0.6529154,-0.1190446,-0.1494356
0.6478771,-0.1507841,-0.1151317
0.6591036,-0.2178153,-0.117463
0.6544903,-0.2313588,-0.09172131
0.6774431,-0.2705901,-0.1337624
0.7320491,-0.2375587,-0.1731061
0.8031522,-0.2150595,-0.239748
0.796354,-0.1487234,-0.2613494
0.726677,-0.01296901,-0.224433
0.7139099,-0.0005872731,-0.2333185
0.7263586,-0.05284723,-0.1764982
0.7858528,-0.170794,-0.1501712
0.9547572,-0.3579153,-0.3149243
1.195812,-0.4468677,-0.6275748
1.341231,-0.3778235,-0.9107347
1.364639,-0.3183399,-0.9391538
1.564759,-0.361216,-0.9174656
1.764434,-0.3106179,-0.9552886
1.57675,-0.2414063,-0.7843389
1.366892,-0.283725,-0.5782916
1.29583,-0.273878,-0.4729404
1.061623,-0.2464908,-0.3190425
0.8365508,-0.2200227,-0.2785588
0.6871007,-0.09531405,-0.2986206
0.4975754,0.06481622,-0.2047168
0.48991,0.1523851,-0.2019814
0.5967224,0.1285866,-0.2744836
0.6668901,0.07763986,-0.2929961
0.7849399,0.02039964,-0.3290136
0.8646385,-0.06586086,-0.2991039
0.9258017,-0.1087355,-0.243137
0.9666594,-0.1099432,-0.2934044
0.8757333,-0.06887639,-0.3129484
0.7992222,-0.01168153,-0.2933429
0.7867499,-0.01574975,-0.2874594
0.7704303,-0.004130934,-0.2284271
0.7718773,0.03755233,-0.1868179
0.799774,0.01769515,-0.1883958
0.8734416,-0.008817748,-0.2103824
0.9196329,-0.007260489,-0.2739187
0.9068219,-0.02410789,-0.3560837
0.9143988,-0.04766225,-0.4757093
0.9287781,-0.1419815,-0.5821328
0.931757,-0.3481872,-0.6395132
1.025407,-0.5669883,-0.7743953
1.387707,-0.9093942,-0.8461283
1.854694,-1.305275,-0.5173324
1.905517,-1.194111,-0.1743318
1.573068,-0.7599863,-0.36999
1.323203,-0.5923769,-0.535528
1.126963,-0.391984,-0.3165243
0.8571636,-0.07490251,-0.2443351
0.7328248,0.04376577,-0.219607
0.7849827,0.01358027,-0.1010732
0.7999214,-0.1102835,-0.1182808
0.7277623,-0.1456079,-0.1357158
0.6792976,-0.1329963,-0.2263733
0.6632319,-0.1937602,-0.3615181
0.6712451,-0.2185918,-0.3256188
0.7443957,-0.342368,-0.2857539
0.8112455,-0.4319422,-0.2296672
0.867343,-0.44285,-0.139574
0.8879193,-0.4844056,-0.1243562
0.8198861,-0.3925459,-0.1575703
0.7883129,-0.303839,-0.2298222
0.7969356,-0.2197634,-0.2354508
0.8024753,-0.1394171,-0.2220109
0.8280228,-0.1656737,-0.2405363
0.8706459,-0.1505795,-0.1844691
0.9318289,-0.1656894,-0.1370658
0.9288155,-0.1783637,-0.1287695
0.8710202,-0.149283,-0.1701754
0.7830466,-0.1647811,-0.3925328
0.7193154,-0.1559842,-0.815733
0.9168532,-0.2411603,-1.099685
1.30408,-0.4904746,-1.001879
1.603841,-0.7049415,-1.056177
1.725304,-0.6422767,-1.300996
1.639314,-0.5085153,-1.130456
1.467484,-0.5608228,-0.8494895
1.286759,-0.437062,-0.6964095
1.009662,-0.236055,-0.4988127
0.698521,-0.105716,-0.4450455
0.4294483,0.2290223,-0.3348654
0.4349654,0.2942065,-0.2302448
0.7199504,0.04699314,-0.4150948
0.7565277,-0.03706183,-0.4930499
0.7237604,-0.1601619,-0.5126511
0.7961349,-0.2522128,-0.539731
0.6892526,-0.2780018,-0.374733
0.7093987,-0.3704651,-0.3182887
0.7290471,-0.2692194,-0.291369
0.6331854,-0.147106,-0.2183441
0.6701618,-0.1135298,-0.2631719
0.6530138,-0.05003534,-0.2920723
0.7443838,-0.07123043,-0.3526365
0.8510741,-0.04404199,-0.4027171
0.8205106,-0.09026974,-0.3998775
0.8601105,-0.2707821,-0.3710154
0.8157091,-0.33852,-0.2556821
0.8092405,-0.3982609,-0.2402067
0.840134,-0.3518974,-0.3116446
0.8171743,-0.2212476,-0.4224704
0.8834841,-0.2254315,-0.620798
0.9155692,-0.3059681,-0.7076502
0.9607987,-0.4747577,-0.681818
1.055969,-0.5427015,-0.7302085
1.376362,-0.5929624,-0.8001925
1.777658,-0.7378415,-0.6376153
1.539017,-0.5330197,-0.4379476
1.165536,-0.2437851,-0.5004502
1.173333,-0.2293387,-0.4092235
0.9607043,-0.1589296,-0.1246621
0.7774585,-0.1361941,-0.05412364
0.8785868,-0.3154744,-0.01097337
0.7677144,-0.4089426,0.06298568
0.6667566,-0.3770391,-0.0735489
0.6782,-0.3296493,-0.2253084
0.5780242,-0.2575889,-0.1904108
0.6104604,-0.2277236,-0.1617137
0.6658497,-0.2499723,-0.1878712
0.6623022,-0.2652736,-0.1393532
0.7089096,-0.2668948,-0.1117536
0.6980055,-0.2370029,-0.1562872
0.7513353,-0.1859533,-0.1942367
0.7814054,-0.1158185,-0.2214344
0.7259936,-0.03473595,-0.2054735
0.7249006,0.02897056,-0.1846872
0.69919,0.03302434,-0.2185603
0.7778079,-0.05475204,-0.2395468
0.9395106,-0.1871145,-0.2778323
1.03533,-0.3636958,-0.4416902
1.156617,-0.4943703,-0.7033074
1.274663,-0.5126805,-0.8831674
1.475958,-0.6020711,-0.8893238
1.736345,-0.6635172,-0.9056505
1.782969,-0.4274416,-0.9779427
1.722332,-0.1803544,-0.9256656
1.558448,-0.2570223,-0.7881735
1.114699,-0.3041602,-0.5716956
0.8336928,-0.1800291,-0.2625253
0.7985215,-0.2094378,-0.1762173
0.5933429,-0.1596404,-0.2646939
0.5058522,0.04064923,-0.2486294
0.5335908,0.03624094,-0.2996492
0.4658253,-0.009140051,-0.3467163
0.5940978,-0.02611983,-0.2694744
0.7272893,-0.1195878,-0.2896934
0.7468689,-0.1633396,-0.3183317
0.800127,-0.1810292,-0.3304268
0.8399852,-0.1946083,-0.3799663
0.9041673,-0.2083849,-0.3457435
0.8788483,-0.2280663,-0.3407737
0.8174777,-0.206764,-0.343388
0.7969343,-0.1697181,-0.2845866
0.7535164,-0.08968859,-0.2536718
0.7999392,-0.04121006,-0.2310863
0.8928621,-0.06805984,-0.2596325
1.012922,-0.06553624,-0.3091199
1.071573,-0.1036811,-0.3934153
1.038247,-0.2577868,-0.5778012
1.100317,-0.4968377,-0.6773644
1.155498,-0.6982381,-0.6383864
1.317246,-0.769908,-0.5028304
1.549174,-0.830512,-0.2723298
1.452122,-0.7716648,-0.1593647
1.259027,-0.5156985,-0.2791521
1.09815,-0.3391373,-0.3615462
0.84616,-0.1813547,-0.2458221
0.7179909,-0.04628548,-0.1428299
0.6343778,-0.1372281,-0.08498954
0.5411094,-0.1771463,-0.02561048
0.5851709,-0.160603,-0.05103212
0.6384257,-0.2445816,-0.05847324
0.6767701,-0.2443865,-0.06628019
0.6883334,-0.2363533,-0.1268195
0.621075,-0.219883,-0.1459998
0.5956008,-0.1608104,-0.1836574
0.5762043,-0.1816457,-0.192211
0.6055446,-0.1916407,-0.1659421
0.7846706,-0.2060082,-0.2224577
0.9218528,-0.2021828,-0.255377
0.8998397,-0.1245485,-0.2508232
0.8516044,-0.07346665,-0.2752506
0.8775742,-0.06092156,-0.2762504
0.8106531,-0.1412034,-0.2844381
0.6863534,-0.2631594,-0.4026321
0.7565843,-0.3234233,-0.6785183
0.918647,-0.3440905,-0.9079376
1.230069,-0.3760721,-0.9129534
1.694009,-0.5134373,-0.9274433
1.88618,-0.6214731,-0.9849485
1.741172,-0.5627588,-0.8900137
1.495475,-0.4084126,-0.7275176
1.272631,-0.2038934,-0.4629717
1.043525,-0.02336807,-0.2120499
0.8305341,0.1170548,-0.222706
0.7036154,0.1760936,-0.223036
0.6296437,0.132859,-0.2095928
0.6513965,0.1040842,-0.3053546
0.6552096,0.05644319,-0.3112234
0.6245673,-0.05299556,-0.3298719
0.6617512,-0.1208566,-0.3357418
0.6615529,-0.1179082,-0.2997082
0.7182998,-0.1339882,-0.3372318
0.7748823,-0.1877984,-0.3152671
0.7503429,-0.2531146,-0.291184
0.7823195,-0.3285736,-0.2589575
0.7926654,-0.306195,-0.1997905
0.8438622,-0.2048047,-0.2500876
0.9410277,-0.1118915,-0.2735157
0.9895438,-0.01806457,-0.2653609
1.036472,-0.01094847,-0.3114336
1.009834,-0.02865956,-0.3630648
0.9643772,-0.01983621,-0.4448285
0.9375509,-0.0920269,-0.5936233
0.9957781,-0.2957251,-0.8594708
1.329561,-0.8641846,-1.011521
1.612578,-1.367317,-0.7015376
1.477547,-0.8699152,-0.3453396
1.322736,-0.2208575,-0.4911416
1.415762,-0.4201899,-0.6419871
1.274314,-0.3517632,-0.5268101
0.9381361,0.08550275,-0.5582906
0.8105433,-0.06475979,-0.4675576
0.6854807,-0.273507,-0.2633132
0.6060906,-0.3921797,-0.279476
0.6276885,-0.5076954,-0.2767207
0.5606507,-0.351838,-0.3938925
0.5538301,-0.40827,-0.5280373
0.5645088,-0.475977,-0.3696488
0.5815225,-0.4254741,-0.2117686
0.658233,-0.5673706,-0.1187741
0.6529268,-0.5252071,-0.0781709
0.6663176,-0.4815346,-0.07208067
0.6883111,-0.469206,-0.04213298
0.6555811,-0.2824879,-0.06987786
0.6293144,-0.1933156,-0.07866187
0.5726785,-0.0805443,-0.1117614
0.5607465,-0.02489516,-0.132018
0.6317673,-0.06708849,-0.1209794
0.7447171,-0.05021823,-0.2487011
0.8843594,-0.09738453,-0.399048
0.9933419,-0.09306386,-0.4786808
1.045288,-0.09107753,-0.4743654
1.037898,-0.1970809,-0.3950676
1.024387,-0.3716223,-0.3691694
1.039127,-0.6113783,-0.4865983
1.076501,-0.680436,-0.7580262
1.151245,-0.6146705,-0.9005838
1.283582,-0.5954029,-0.7800921
1.534296,-0.5801982,-0.6884629
1.707922,-0.5193294,-0.7070562
1.57225,-0.2731182,-0.717529
1.356043,0.02970421,-0.7346793
1.205511,0.01978126,-0.7345214
1.043863,-0.1262096,-0.5466144
0.862105,-0.1163488,-0.3035838
0.6921465,-0.1656333,-0.3064894
0.6686436,-0.1573921,-0.3334136
0.5909399,0.02372635,-0.2142651
0.4498515,0.007494721,-0.2182764
0.6374108,-0.01911221,-0.3255369
0.7905157,0.03344039,-0.3806609
0.7502074,-0.02561481,-0.4194871
0.783323,-0.004145173,-0.3835379
0.7220043,-0.03906861,-0.3396972
0.7132793,-0.1466986,-0.3700667
0.7551949,-0.2087758,-0.3144678
0.7449986,-0.3271795,-0.2182942
0.8334511,-0.3492374,-0.1932088
0.8428805,-0.3212542,-0.2149248
0.8576343,-0.2750536,-0.2653176
0.9151264,-0.1267405,-0.2721186
0.8927002,0.008627776,-0.2856146
0.9436281,0.1107018,-0.3473902
1.005719,0.05933527,-0.4520406
1.122312,-0.1298002,-0.6163234
1.306482,-0.292991,-0.6767738
1.363332,-0.4356247,-0.6543811
1.402646,-0.5422668,-0.6739662
1.520923,-0.7176717,-0.5708953
1.569451,-0.8477412,-0.316979
1.387019,-0.636153,-0.1790006
1.07374,-0.325133,-0.2432179
0.8572541,-0.2009152,-0.26982
0.7524149,-0.1543556,-0.1869037
0.7109987,-0.1577712,-0.1249998
0.7104697,-0.2563075,-0.04245571
0.7208732,-0.3369145,-0.001790269
0.7181923,-0.3399646,-0.07822117
0.6820309,-0.2880072,-0.1076416
0.645682,-0.2217035,-0.1024769
0.6623061,-0.2249457,-0.1107882
0.714034,-0.2540582,-0.08509778
0.7297674,-0.257361,-0.100481
0.673862,-0.2448684,-0.1144186
0.5559496,-0.1909422,-0.1022315
0.507326,-0.1367422,-0.1265302
0.6544755,-0.0887432,-0.16066
0.8689113,-0.05741767,-0.2258104
0.9640761,-0.0687019,-0.243181
0.9346174,-0.09070416,-0.1838137
0.9442382,-0.1853142,-0.2165955
1.081497,-0.347359,-0.4567956
1.195798,-0.4390387,-0.8856607
1.260168,-0.4261659,-1.099967
1.532259,-0.4732871,-0.9060857
1.913036,-0.5877384,-0.8195801
1.879034,-0.4933149,-0.9079484
1.549838,-0.3259093,-0.8026771
1.349158,-0.3113199,-0.6218565
1.124683,-0.256335,-0.431696
0.884845,-0.1876573,-0.2014638
0.7079076,-0.133824,-0.1698184
0.5301194,0.01149634,-0.2340434
0.5015466,0.09719762,-0.1903229
0.5135129,0.09224806,-0.1970514
0.5552941,0.06057247,-0.2482903
0.6980053,0.003343611,-0.2653501
0.7587171,-0.03360681,-0.3013337
0.8067135,-0.06876386,-0.3037759
0.8368908,-0.09187612,-0.2973033
0.8162777,-0.09771642,-0.329883
0.8341798,-0.1213567,-0.3452237
0.8377619,-0.1589895,-0.3467566
0.8497415,-0.2070494,-0.3378918
0.8494857,-0.2093073,-0.3079131
0.8499428,-0.1600172,-0.2429919
0.887797,-0.1161263,-0.1851375
0.9132302,-0.0832617,-0.2274885
0.9530192,-0.1053635,-0.3087272
0.9727696,-0.1937288,-0.4210911
1.018586,-0.3092921,-0.5788054
1.115239,-0.4530392,-0.6178455
1.186569,-0.565119,-0.6284714
1.31242,-0.6363717,-0.6794789
1.486602,-0.7544567,-0.4804691
1.564582,-0.8099362,-0.2075806
1.412128,-0.644094,-0.239304
1.1326,-0.4006536,-0.3261923
0.9700547,-0.2414368,-0.2855207
0.8432535,-0.1488644,-0.2202231
0.7206071,-0.1648994,-0.08773513
0.6888179,-0.2521387,-0.01007455
0.6634043,-0.3022424,-0.06829077
0.6735744,-0.3326836,-0.09949819
0.6900475,-0.3055059,-0.1203913
0.643979,-0.2333175,-0.1560927
0.6184057,-0.1755076,-0.1599036
0.5966366,-0.1427486,-0.176696
0.5776437,-0.2015976,-0.1622647
0.5698467,-0.2739925,-0.1139458
0.5797175,-0.2970113,-0.104131
0.7171381,-0.261862,-0.1621749
0.9283991,-0.1268479,-0.3016713
1.032138,-0.06642182,-0.3627373
0.9597308,-0.1100207,-0.2731489
0.8468806,-0.1381838,-0.1763138
0.839616,-0.1770741,-0.1617335
0.9597646,-0.2310482,-0.390354
1.146341,-0.3143557,-0.8099071
1.191833,-0.3683107,-0.9873443
1.302039,-0.417944,-0.8507879
1.633299,-0.5392995,-0.7640841
1.667931,-0.5261868,-0.777779
1.549096,-0.3706048,-0.7344067
1.527704,-0.2596101,-0.6956074
1.228229,-0.1905725,-0.5691903
0.9265584,-0.1824746,-0.332448
0.8002536,-0.1926764,-0.2716338
0.619724,-0.1360379,-0.3076582
0.5622404,-0.03929676,-0.2789943
0.5920273,0.06853935,-0.2735177
0.6356921,0.09167236,-0.2674018
0.7433221,0.02293367,-0.2839163
0.7627824,-0.02134812,-0.3255799
0.7283426,-0.04600605,-0.299955
0.7309734,-0.05549653,-0.2556775
0.748255,-0.06401445,-0.2350522
0.7729529,-0.1077682,-0.2422778
0.7900962,-0.1385337,-0.2907137
0.8017056,-0.1552605,-0.3127648
0.8015357,-0.1844214,-0.2833334
0.8160921,-0.2184211,-0.2474587
0.8464612,-0.2180775,-0.231227
0.8693664,-0.1947781,-0.2488343
0.9036225,-0.2036319,-0.2974384
0.93492,-0.2204783,-0.4258515
1.005738,-0.3189762,-0.5859331
1.136145,-0.4790454,-0.618172
1.275792,-0.5268343,-0.6854737
1.473543,-0.6258022,-0.7885293
1.645122,-0.8438807,-0.4805092
1.614967,-0.8389861,-0.1170055
1.452652,-0.579413,-0.2960617
1.217096,-0.2804437,-0.4378985
0.9694232,-0.002837513,-0.285345
0.85812,0.07504362,-0.2698881
0.7734004,-0.09569294,-0.1597147
0.6783868,-0.2584388,0.0007157602
0.6648834,-0.3136226,-0.06415442
0.6265694,-0.2671513,-0.08202444
0.6103956,-0.1977004,-0.1131724
0.6798034,-0.2064457,-0.1648188
0.7577871,-0.2242697,-0.114931
0.8474201,-0.2724839,-0.1461437
0.8728442,-0.3238491,-0.1480335
0.7973574,-0.2907801,-0.1452421
0.7268674,-0.2450727,-0.2378825
0.7372928,-0.193351,-0.2775848
0.7962336,-0.1734174,-0.2940065
0.8354427,-0.2002009,-0.2427517
0.8688062,-0.1831651,-0.1777488
0.8631505,-0.1605092,-0.2064385
0.819147,-0.1319465,-0.2309432
0.7932988,-0.09682607,-0.263685
0.7959414,-0.141869,-0.3050217
0.9195574,-0.1868421,-0.5074843
1.074823,-0.1535739,-0.9088645
1.142491,-0.1673484,-1.035849
1.374435,-0.3066124,-0.8242356
1.700937,-0.4375465,-0.7386408
1.677909,-0.4233471,-0.8426398
1.514484,-0.3768974,-0.8297836
1.469656,-0.4012199,-0.61595
1.211444,-0.3571814,-0.3558489
0.9662096,-0.255547,-0.2529325
0.9307856,-0.1770121,-0.3220433
0.7271057,-0.0381085,-0.3317975
0.613374,0.06040324,-0.317732
0.6605117,0.04367934,-0.3675171
0.610205,0.001627466,-0.3482508
0.6554817,-0.07429332,-0.3366089
0.7052513,-0.1304454,-0.3382237
0.7226986,-0.1431333,-0.2892042
0.7439112,-0.1642579,-0.2951536
0.7017607,-0.1860405,-0.3264951
0.7843119,-0.214461,-0.3583973
0.861914,-0.2152186,-0.3816778
0.8568988,-0.1978832,-0.3611049
1.398838,-0.6268304,-0.4440248
1.616466,-0.7956818,-0.2001137
1.582062,-0.76138,-0.1595263
1.291672,-0.5041208,-0.2491484
1.023107,-0.2857323,-0.3065697
0.7044498,-0.001868797,-0.2406785
0.6422251,-0.06731945,-0.1375624
0.6751175,-0.2104576,-0.01838022
0.4811759,-0.08888715,0.06829755
0.5318017,-0.2211771,0.05170172
0.5338681,-0.2256832,0.03425202
0.4148503,-0.08634686,-0.04335963
0.5683454,-0.1830402,-0.1176855
0.564879,-0.1121828,-0.1013025
0.571585,-0.08831504,-0.16728
0.7203168,-0.1494169,-0.2613456
0.8465388,-0.1316554,-0.342877
1.138186,-0.2748602,-0.4015697
1.220925,-0.3453497,-0.3730458
1.163385,-0.3667882,-0.4673064
1.124477,-0.3985365,-0.7163671
0.9355299,-0.328032,-0.878616
0.9928022,-0.3595291,-0.8273922
1.292876,-0.4584885,-0.741236
1.636766,-0.5365805,-0.8028853
1.770494,-0.4426376,-0.8368423
1.466537,-0.2370759,-0.8412062
1.20043,-0.2382407,-0.7735532
1.003951,-0.2320227,-0.4640512
0.7361178,-0.1742673,-0.2374693
0.6561321,-0.1754681,-0.2083598
0.5869568,-0.03038143,-0.1836685
0.4621997,0.1281667,-0.1711634
0.5058913,0.1459861,-0.1781018
0.5801955,0.1201331,-0.2182556
0.6318662,0.03920207,-0.2352612
0.8235173,-0.1093283,-0.2713374
0.9371102,-0.1939833,-0.364976
0.8962162,-0.2019232,-0.4002421
0.9519903,-0.2986634,-0.4267941
0.9828064,-0.3777341,-0.431511
0.9723399,-0.343905,-0.4275085
0.9878107,-0.2928567,-0.4441067
0.8732629,-0.1848187,-0.4249542
0.8011149,-0.1683066,-0.4743361
0.8940019,-0.3215511,-0.536907
1.02798,-0.4277683,-0.5749414
1.195565,-0.4740868,-0.6317295
1.454979,-0.599614,-0.5752648
1.656988,-0.7617883,-0.3720395
1.507727,-0.7161176,-0.1809794
1.302598,-0.5438625,-0.2908155
1.263209,-0.4403745,-0.443055
0.9638539,-0.2199848,-0.2204638
0.5743034,-0.009671551,-0.04593362
0.544034,-0.06600681,-0.06131414
0.5971953,-0.1875355,-0.002257023
0.4745206,-0.2275483,0.03289999
0.4541858,-0.2640052,0.05082836
0.5382958,-0.2356244,0.02395741
0.4820099,-0.1074494,-0.07580569
0.5007089,-0.09629415,-0.1365527
0.6010744,-0.1376463,-0.1869601
0.6877264,-0.1215437,-0.2804061
0.8971324,-0.180495,-0.4194283
1.036596,-0.2024147,-0.4011033
1.148559,-0.2099349,-0.2987132
1.21925,-0.2613942,-0.3572208
1.060481,-0.3288868,-0.3779988
0.9532176,-0.4535445,-0.5159929
0.8890519,-0.4150507,-0.8026612
0.9069845,-0.3504518,-0.8048852
1.238196,-0.4360993,-0.6557508
1.604719,-0.4111642,-0.6141608
1.717829,-0.3305019,-0.7961816
1.537114,-0.2624783,-0.9855548
1.296578,-0.2056302,-0.7510322
1.069793,-0.2278732,-0.4330655
0.8364228,-0.2085047,-0.3494014
0.774941,-0.1608825,-0.2904874
0.6158366,-0.07026234,-0.2105452
0.4620062,0.0868241,-0.1504305
0.5613322,0.1286749,-0.1517539
0.5903401,0.09169316,-0.1876654
0.7065334,0.05654582,-0.2281355
0.8453298,-0.01732155,-0.3321803
0.8038773,-0.0781328,-0.3894426
0.8635152,-0.1035793,-0.3612539
0.8761546,-0.1051637,-0.3595134
0.8394219,-0.1150235,-0.3393684
0.8789245,-0.1513706,-0.2927524
0.8891811,-0.1540572,-0.2811504
0.9635955,-0.1141487,-0.2469121
0.9950891,-0.06453391,-0.1987277
0.9467205,-0.0003133103,-0.2383298
0.9056095,0.06104289,-0.3817906
0.834596,-0.0008721936,-0.5628888
0.840157,-0.1907853,-0.6863597
0.9498533,-0.3937233,-0.7925799
1.241894,-0.74501,-0.8744261
1.589086,-1.105373,-0.5870699
1.535561,-0.9903209,-0.1930036
1.312782,-0.6957902,-0.3254008
1.222101,-0.5807746,-0.4218448
0.9878742,-0.299089,-0.1996269
0.8376974,-0.0740029,-0.2456962
0.8967199,-0.1488391,-0.2313474
0.8126486,-0.1564538,-0.08695422
0.7667167,-0.1793852,-0.1851718
0.7769498,-0.1863475,-0.2179547
0.7394394,-0.1182854,-0.2357299
0.8607004,-0.2512019,-0.2591636
0.9626766,-0.3702469,-0.1576533
0.9626048,-0.4113726,-0.1708682
0.9353786,-0.4610463,-0.179929
0.8796998,-0.4327043,-0.1624346
0.867574,-0.4062947,-0.1883973
0.7993136,-0.3033975,-0.1588219
0.7362358,-0.2303332,-0.1838497
0.7493931,-0.2441008,-0.1887023
0.7748979,-0.1846847,-0.1506793
0.8484243,-0.1813863,-0.146679
0.9194923,-0.2087011,-0.1350759
0.9700607,-0.2166612,-0.1757308
0.9619474,-0.2288214,-0.2015932
0.9183422,-0.1706501,-0.2017583
0.8818325,-0.1185476,-0.2421081
0.6996679,-0.07872706,-0.3223855
0.4575491,-0.03366736,-0.5055268
0.45933,-0.05538271,-0.6430024
0.8792037,-0.2428924,-0.7004382
1.490547,-0.6883015,-0.9296185
1.74899,-1.026678,-1.142901
1.636751,-0.7847451,-1.072259
1.732647,-0.4923312,-1.099686
1.933377,-0.6396536,-1.219939
1.452355,-0.4609465,-0.8423591
0.6078425,0.03514167,-0.3165114
0.3136347,0.1005648,-0.2452709
0.4889236,0.1069289,-0.3346244
0.6550391,0.2369982,-0.3119384
0.6526135,0.2117447,-0.3209234
0.6676008,0.01425657,-0.4600241
0.6910364,-0.3128146,-0.5713247
0.6500572,-0.4467704,-0.5545972
0.7393009,-0.4298785,-0.4793087
0.7698129,-0.450257,-0.3631667
0.750547,-0.354339,-0.3289765
0.7715313,-0.1935925,-0.3379889
0.6871026,-0.07014477,-0.2979851
0.7101163,-0.04940436,-0.3322786
0.7435101,-0.08749365,-0.3639276
0.7387981,-0.1409314,-0.3604142
0.803891,-0.2466144,-0.3734954
0.7867511,-0.2794086,-0.3314903
0.8131696,-0.2728329,-0.2912154
0.8393596,-0.2795777,-0.2944286
0.8327169,-0.248195,-0.3389204
0.8722888,-0.2343347,-0.4956316
0.8589476,-0.2803764,-0.707759
0.9170478,-0.3945672,-0.7480071
1.034777,-0.4709021,-0.6624903
1.22451,-0.4965942,-0.6733497
1.517334,-0.683331,-0.5783024
1.586026,-0.9112554,-0.3698051
1.383192,-0.7866125,-0.3498842
1.145575,-0.4985224,-0.3521425
0.950511,-0.3726205,-0.2307887
0.7769399,-0.214319,-0.07246048
0.6864541,-0.1598027,0.05858814
0.6837473,-0.2704559,0.06368004
0.6332437,-0.2216149,0.03612978
0.5342812,-0.1858987,0.00657441
0.4302225,-0.1533434,-0.09299182
0.3784469,-0.0479212,-0.1656221
0.4414597,-0.05663944,-0.2150103
0.5801617,-0.02699268,-0.2692051
0.764426,-0.04617195,-0.2826068
0.8881399,-0.1675227,-0.2767289
0.953878,-0.2027099,-0.2818261
1.067604,-0.2255168,-0.3075159
1.128359,-0.2398677,-0.3282815
1.112554,-0.3185265,-0.3331635
1.106864,-0.4520483,-0.3929723
1.111884,-0.4793666,-0.5726785
1.148537,-0.4343297,-0.7757678
1.267744,-0.3725773,-0.8530015
1.498117,-0.3797538,-0.8236342
1.640051,-0.3373532,-0.762496
1.462078,-0.2245197,-0.723229
1.178454,-0.2742507,-0.6458251
0.997543,-0.3032171,-0.4229477
0.8330743,-0.2309413,-0.2701418
0.7404965,-0.1673907,-0.3155799
0.7279242,0.002678861,-0.3231159
0.671227,0.1610524,-0.2782609
0.6374926,0.2030107,-0.2872144
0.643919,0.2062729,-0.2900316
0.6658504,0.1400005,-0.2934474
0.7386678,0.04499702,-0.3062688
0.7782908,-0.04306585,-0.2841896
0.8098889,-0.1602562,-0.2565117
0.8404564,-0.2262154,-0.261606
0.7928561,-0.2015574,-0.304208
0.777013,-0.2060014,-0.3427848
0.8037862,-0.2577626,-0.3091423
0.8292392,-0.2612741,-0.250472
0.8756779,-0.2266026,-0.2451477
0.888032,-0.1635241,-0.2626596
0.9044156,-0.1079154,-0.3019383
0.9397805,-0.1580216,-0.3902291
0.9358127,-0.2698153,-0.5099869
0.941765,-0.4171144,-0.6367767
1.021337,-0.579685,-0.7010345
1.233339,-0.6583978,-0.6776059
1.581312,-0.7421277,-0.5654113
1.780783,-0.8178736,-0.3324417
1.536028,-0.6627752,-0.1870521
1.1665,-0.3805787,-0.2966813
1.017922,-0.1959055,-0.3573754
0.8362604,-0.08564759,-0.2113341
0.6560016,-0.08239732,-0.08470556
0.6629499,-0.2067528,-0.004799704
0.6464694,-0.3057638,0.05421521
0.6383663,-0.3173349,0.01166597
0.6477827,-0.2094262,-0.09931554
0.5920273,-0.06972451,-0.2290017
0.6133106,-0.09070559,-0.2500814
0.628367,-0.1456912,-0.1742851
0.6252679,-0.1654893,-0.1848539
0.6873247,-0.2266452,-0.2018096
0.7645646,-0.2083928,-0.2540432
0.8816808,-0.1587619,-0.3772264
0.9022319,-0.1602666,-0.3334181
0.8298224,-0.1456116,-0.2060585
0.8076999,-0.1851486,-0.1512802
0.7794138,-0.3099743,-0.1757852
0.8279477,-0.422635,-0.366087
1.008894,-0.4223035,-0.6566314
1.330108,-0.368531,-0.8564517
1.743916,-0.3753167,-0.8105396
1.908802,-0.2979805,-0.7432956
1.806994,-0.1993759,-0.8308667
1.560818,-0.2716039,-0.7063981
1.098402,-0.297518,-0.4533508
0.8177321,-0.2247055,-0.3259085
0.8216957,-0.1706625,-0.226432
0.6893693,-0.05104511,-0.2221622
0.6132313,0.07550099,-0.2007331
0.653294,0.1003723,-0.1844571
0.605197,0.04754432,-0.2562557
0.6618613,-0.03951737,-0.2144324
0.7085245,-0.1234735,-0.2178551
0.696666,-0.1490817,-0.2610611
0.7888278,-0.1508468,-0.2515402
0.8551115,-0.2270456,-0.3296201
0.9148161,-0.2543005,-0.3390116
0.9594082,-0.2112173,-0.3048901
0.951581,-0.2035791,-0.297673
0.9617934,-0.1122684,-0.222798
0.9448742,0.005360323,-0.1728513
0.9529662,0.009513384,-0.1979869
0.9749846,-0.03132012,-0.3022024
0.9693405,-0.04656609,-0.3744454
0.9682106,-0.05637165,-0.3738081
0.9734806,-0.1950988,-0.5374061
1.157973,-0.5123682,-0.9024831
1.503988,-0.7857884,-1.091189
1.650624,-0.7051692,-0.8435918
1.49814,-0.4969874,-0.6117632
1.345835,-0.5105663,-0.6664648
1.243046,-0.4759569,-0.6207874
0.9837816,-0.4397832,-0.4813882
0.8162502,-0.515132,-0.4033675
0.8010209,-0.4586532,-0.3278474
0.6764473,-0.3989387,-0.3351926
0.6695233,-0.2893029,-0.3458778
0.7671553,-0.1902888,-0.3090826
0.806554,-0.2842357,-0.4030292
0.9493433,-0.3262376,-0.5485907
1.043487,-0.4173399,-0.5492819
1.040193,-0.5252192,-0.4639209
1.02208,-0.5021224,-0.375418
0.8347507,-0.5221064,-0.2304781
0.5713946,-0.4775585,-0.05170396
0.4618301,-0.4063853,-0.005121704
0.4958229,-0.3540929,-0.04398457
0.4806766,-0.2509453,0.01175514
0.4823819,-0.2249438,0.008651463
0.6091258,-0.1814648,-0.06479946
0.6557745,-0.1010325,-0.05882451
0.6839723,-0.03165358,-0.1131075
0.7274668,0.05036356,-0.1750007
0.7020063,0.02945997,-0.1988893
0.765739,-0.02969267,-0.2359355
0.8536783,-0.08191497,-0.2252392
0.9441475,-0.1688982,-0.2836796
1.035485,-0.2381682,-0.3061856
0.9954158,-0.3538274,-0.3267641
0.9898855,-0.5059768,-0.5634741
1.02274,-0.5366789,-0.707015
1.017184,-0.4753266,-0.6811294
1.122434,-0.4886903,-0.6999542
1.299233,-0.5184353,-0.7232902
1.549112,-0.5094061,-0.7424075
1.834915,-0.545257,-0.8587004
1.778469,-0.4822895,-0.9976621
1.421522,-0.3335959,-0.8649386
1.157014,-0.2927236,-0.5563446
0.9178672,-0.2863764,-0.3370087
0.6604846,-0.2411669,-0.2293516
0.5121642,-0.1829559,-0.2477158
0.5062462,-0.1930553,-0.2401584
0.6060567,-0.198786,-0.2359621
0.5642872,-0.04704431,-0.3119503
0.594671,0.04329659,-0.3344869
0.7738442,-0.07985298,-0.3542656
0.7227897,-0.2473712,-0.3010868
0.7435172,-0.296202,-0.2262447
0.8094775,-0.2658148,-0.2598219
0.7415548,-0.283624,-0.2820446
0.8170623,-0.2815263,-0.3701382
0.8704189,-0.2586214,-0.4362017
0.9235575,-0.2020001,-0.3416936
0.9671783,-0.05469858,-0.294236
0.9039553,-0.01770391,-0.4060413
0.9559902,-0.1360291,-0.5827465
1.047761,-0.3274888,-0.6446458
1.181685,-0.5169465,-0.6223408
1.319056,-0.5731176,-0.6142479
1.506117,-0.6747781,-0.4827064
1.820291,-0.8670411,-0.2274245
1.695334,-0.7739508,-0.1261789
1.207231,-0.3931126,-0.2875867
0.9007589,-0.08236966,-0.3813245
0.784339,-0.007721806,-0.29245
0.7978016,-0.1320558,-0.2018254
0.6523434,-0.2374497,-0.03434075
0.4997975,-0.3013946,0.09746555
0.6198595,-0.3952533,0.05425345
0.5549962,-0.3634661,0.05536733
0.4909822,-0.2956198,0.05799928
0.5942356,-0.1590557,-0.04824503
0.5292617,-0.0009343653,-0.06882845
0.5550195,-0.08572349,-0.04027307
0.5969787,-0.1019173,-0.1051801
0.6101962,-0.08703913,-0.1878274
0.8440288,-0.1901382,-0.3061237
1.092845,-0.1709797,-0.422439
1.271931,-0.1959752,-0.4317107
1.193225,-0.2396339,-0.3801964
0.9798991,-0.3165439,-0.3489041
0.9858601,-0.4524776,-0.53613
0.9365134,-0.3130974,-0.8677751
0.9745419,-0.1932302,-0.9707019
1.414441,-0.3583977,-0.903666
1.922626,-0.4478112,-0.926318
1.965575,-0.3353547,-0.9859218
1.496965,-0.224958,-0.872941
1.094933,-0.1989613,-0.5823875
0.8312569,-0.1865632,-0.2999446
0.6146873,-0.1837106,-0.1913663
0.5524094,-0.1271853,-0.2362202
0.4422806,0.003649316,-0.1911344
0.43805,0.1193292,-0.1373995
0.4925456,0.1708384,-0.215606
0.4733332,0.1001315,-0.2382746
0.6213348,-0.004810511,-0.2642843
0.7335352,-0.1012666,-0.2947847
0.7987706,-0.2146662,-0.2797301
0.8686634,-0.2572359,-0.3401936
0.8438526,-0.2773498,-0.3661093
0.8741966,-0.2911346,-0.36888
0.8589375,-0.2722334,-0.3913891
0.8450278,-0.2331986,-0.368291
0.8651563,-0.1289532,-0.3476065
0.840371,-0.08530056,-0.3207926
0.9332086,-0.1614485,-0.3985791
1.029001,-0.2656308,-0.5501019
1.083612,-0.3592908,-0.5837498
1.251528,-0.4612531,-0.55443
1.629661,-0.8961596,-0.4269959
1.988436,-1.411013,-0.2695988
1.769658,-1.042613,-0.3112466
1.262156,-0.2616004,-0.3674384
0.9753397,-0.02750401,-0.2793023
0.7264942,0.09478183,-0.1826016
0.5809975,0.1545555,-0.04886373
0.6046219,-0.0941574,0.03869491
0.6012899,-0.2803292,-0.01115389
0.5787155,-0.3527461,-0.004449597
0.5568622,-0.2153793,-0.02498677
0.5778664,-0.05154571,-0.1064744
0.6206858,-0.1157323,-0.1380535
0.6382549,-0.1074534,-0.2212469
0.6549434,-0.1547269,-0.2042561
0.6228644,-0.2384636,-0.1444903
0.6575861,-0.2243574,-0.2188431
0.8171476,-0.2726691,-0.2810408
0.9928482,-0.2611125,-0.3682083
1.058986,-0.2423434,-0.3360538
0.9602772,-0.2220834,-0.2083909
0.9045249,-0.203726,-0.2298146
0.8734354,-0.2560989,-0.2014559
0.8831899,-0.2474504,-0.3239711
1.018489,-0.2888965,-0.6852998
1.092699,-0.2976555,-0.782562
1.456053,-0.2391727,-0.7145545
1.928199,-0.2540064,-0.7776454
1.704875,-0.201775,-0.8253541
1.269213,-0.2024237,-0.643764
1.061956,-0.2876879,-0.3405216
0.8256369,-0.3112769,-0.2421253
0.7593993,-0.2761147,-0.273851
0.7192269,-0.09972355,-0.270661
0.564577,0.1005216,-0.2833253
0.5870839,0.1595438,-0.2719327
0.557866,0.0821448,-0.261939
0.5039365,-0.0432187,-0.2650453
0.6290361,-0.1297516,-0.2363391
0.7005454,-0.2129599,-0.2198781
0.8090813,-0.2229842,-0.2400715
0.9028798,-0.2083853,-0.3107338
0.891775,-0.250687,-0.3947641
0.9523624,-0.2635223,-0.4150349
0.9465322,-0.2856644,-0.3443667
0.8776136,-0.1948843,-0.2664104
0.8113871,0.0009028754,-0.2836926
0.804342,0.005068719,-0.3504562
0.9645208,-0.18621,-0.4711712
1.100434,-0.3760986,-0.6344198
1.249702,-0.4433009,-0.7418613
1.572968,-0.6667299,-0.762568
1.825412,-0.9942325,-0.5032282
1.675856,-0.795864,-0.161662
1.341141,-0.3992506,-0.2947233
1.115637,-0.2120018,-0.444622
0.8072382,0.03162502,-0.2098344
0.6357108,0.03540377,-0.1320886
0.6428142,-0.1738282,-0.0884223
0.5278561,-0.2687478,0.05894488
0.5457091,-0.3761746,-0.005371967
0.5401868,-0.2867589,-0.04197511
0.4591685,-0.1194881,-0.07426572
0.5445294,-0.1136889,-0.1631225
0.5247766,-0.0571122,-0.1282683
0.5009003,-0.1011963,-0.1417858
0.518314,-0.1679646,-0.1398162
0.5313051,-0.1449718,-0.1645363
0.8201429,-0.2234227,-0.3851359
1.114637,-0.2508898,-0.5696159
1.082435,-0.2378799,-0.521581
0.9242223,-0.2507817,-0.2826745
0.9128801,-0.274809,-0.1632151
0.9612835,-0.3347026,-0.2815375
0.9999112,-0.3023503,-0.5619893
1.151906,-0.2991787,-0.8678667
1.344352,-0.3724335,-0.880697
1.704794,-0.380272,-0.8913302
1.960236,-0.308512,-1.050349
1.69208,-0.2153561,-0.9192829
1.400182,-0.2812014,-0.7055374
1.184099,-0.3623437,-0.5629893
0.9283212,-0.3024268,-0.3187103
0.8688637,-0.2625951,-0.2467466
0.7510688,-0.1354351,-0.308019
0.6215211,0.05180829,-0.263884
0.6702988,0.06974816,-0.2872763
0.6850531,0.008018684,-0.3422732
0.7477675,-0.05532536,-0.3431372
0.8460972,-0.1500413,-0.374674
0.8468823,-0.2159039,-0.3635655
0.8390995,-0.2198074,-0.3510748
0.8023817,-0.2018092,-0.3537622
0.7549499,-0.1771102,-0.3051881
0.740685,-0.1496475,-0.2594271
0.7449219,-0.1482876,-0.1976934
0.785202,-0.1673579,-0.1819801
0.8186148,-0.1817591,-0.2272474
0.8534186,-0.1545517,-0.2341653
0.8853814,-0.09456247,-0.2700841
0.8884042,-0.05649508,-0.3358329
0.9017166,-0.04026509,-0.3680234
0.9302373,-0.08021901,-0.3851282
0.988355,-0.1811435,-0.4334185
1.055606,-0.295274,-0.5110321
1.092675,-0.4184972,-0.5093208
1.122656,-0.4872945,-0.4890715
1.247495,-0.5634095,-0.4890826
1.51599,-0.7792281,-0.3373006
1.651173,-0.9059747,-0.2163425
1.477744,-0.67889,-0.3842673
1.257444,-0.3342767,-0.533894
1.082064,-0.1822434,-0.3938023
0.8344218,-0.1256573,-0.2415278
0.7052288,-0.1550889,-0.2161333
0.7743368,-0.3335181,-0.1342751
0.8097659,-0.4191053,-0.1045985
0.8434737,-0.3801248,-0.1776206
0.8929049,-0.3050666,-0.1806738
0.8912809,-0.2238955,-0.1686394
0.9647064,-0.2801243,-0.1628299
0.9946305,-0.3381505,-0.1590881
0.9337954,-0.3142492,-0.1770432
0.9146765,-0.3343247,-0.1625172
0.8093414,-0.3657272,-0.1865889
0.6886552,-0.4219902,-0.232113
0.7572012,-0.4630295,-0.2673657
0.950493,-0.4637597,-0.3641835
1.14024,-0.498597,-0.4889844
1.183084,-0.4784337,-0.5649368
1.042925,-0.3614186,-0.5886497
1.659714,-1.028985,-0.7061684
1.587706,-0.8685473,-0.4814547
1.431088,-0.6442819,-0.2934905
1.35199,-0.5596828,-0.410553
1.064198,-0.2752702,-0.5091611
0.7556169,-0.02326222,-0.3079936
0.7318311,-0.09584919,-0.123396
0.6028724,-0.1433285,-0.08854889
0.5362574,-0.1816886,-0.05401323
0.5891342,-0.2490402,-0.03950383
0.5141475,-0.1953812,-0.02893405
0.5427858,-0.1774319,-0.01869825
0.5681873,-0.1681411,-0.0254429
0.6113694,-0.1421922,-0.0294446
0.6862698,-0.1566566,-0.1336532
0.6410756,-0.1566345,-0.2975238
0.7394247,-0.1851814,-0.3983723
0.9501634,-0.2046903,-0.5026652
1.152871,-0.1989724,-0.5717548
1.218446,-0.2169375,-0.4899298
1.027783,-0.2762382,-0.3786587
0.899287,-0.4013616,-0.4096145
0.9153564,-0.4580144,-0.5889755
0.9961875,-0.3951879,-0.8060826
1.186633,-0.3663039,-0.8841318
1.531329,-0.3636473,-0.9265764
1.844178,-0.246956,-1.078806
1.645723,-0.09270109,-1.023159
1.157585,-0.08591736,-0.7644866
0.8918206,-0.1320303,-0.557708
0.7664541,-0.1050045,-0.3479098
0.6579661,-0.09625634,-0.2499064
0.5081356,-0.08624803,-0.2335692
0.440323,-0.01197952,-0.1930184
0.489729,0.05894952,-0.1924526
0.4716559,0.1026235,-0.1848318
0.5734126,0.09114951,-0.262278
0.707765,0.007134959,-0.3268375
0.7653023,-0.1131682,-0.2950182
0.9182193,-0.2448187,-0.3386085
0.9183823,-0.2884929,-0.3943672
0.8743895,-0.262263,-0.4507513
0.9255337,-0.2689563,-0.4783199
0.8864757,-0.2429943,-0.4731873
0.9054684,-0.1764884,-0.5097896
0.9248967,-0.1382825,-0.5034231
0.9613673,-0.209807,-0.551255
1.075628,-0.3855001,-0.6416934
1.127385,-0.4741485,-0.6560446
1.308501,-0.541845,-0.6118327
1.531204,-0.7740276,-0.4600343
1.524251,-0.9712965,-0.3215125
1.385624,-0.8287988,-0.3067952
1.182848,-0.4640716,-0.3415405
0.9371857,-0.2293357,-0.3362906
0.753605,-0.1109502,-0.2409367
0.6174039,-0.05755764,-0.0871128
0.5257225,-0.1314827,0.06233088
0.6162314,-0.1978936,0.07776785
0.6850682,-0.2233123,0.03757836
0.6035574,-0.1796286,-0.002393684
0.5830939,-0.08528894,-0.2102599
0.5305488,-0.06760069,-0.321406
0.5371718,-0.09215976,-0.2011714
0.7027275,-0.1422859,-0.175736
0.8517987,-0.1470078,-0.269008
1.032258,-0.1194196,-0.3955772
1.097777,-0.1317729,-0.4945863
1.054515,-0.1155041,-0.448823
1.043139,-0.1924082,-0.3098217
0.9115467,-0.3709604,-0.2386489
0.820549,-0.4490253,-0.398322
0.8241537,-0.3482909,-0.6969159
0.871773,-0.2382532,-0.8235439
1.165042,-0.3364536,-0.7997087
1.539388,-0.376207,-0.8902445
1.66008,-0.2144746,-1.045728
1.486119,-0.1144577,-1.069946
1.279921,-0.1033692,-0.9536644
1.134193,-0.1425566,-0.7474681
0.8530769,-0.1936872,-0.4353082
0.5689997,-0.2294062,-0.05188522
0.5254219,-0.2253882,0.02895136
0.6317491,-0.08431625,-0.1632909
0.6148204,0.09390693,-0.09646968
0.5810572,0.1865768,-0.07835007
0.7244447,0.1018705,-0.2675598
0.8005018,-0.05643254,-0.318543
0.8551864,-0.07033706,-0.4395465
0.9085528,-0.1426706,-0.4429514
0.9040747,-0.2804288,-0.3560321
1.009109,-0.2848174,-0.4653104
1.006227,-0.2541491,-0.4187619
0.9879408,-0.1972322,-0.4113168
1.007192,-0.1059986,-0.4386026
0.8743306,-0.04377396,-0.3018759
0.8594435,-0.08053157,-0.3557325
0.8471439,-0.1760652,-0.4632071
0.8006314,-0.2213434,-0.6272671
0.883778,-0.358639,-0.8657203
1.058043,-0.6768769,-0.8603856
1.48402,-1.011777,-0.607373
1.715562,-0.9842483,-0.3143033
1.436614,-0.6316639,-0.4398834
1.125482,-0.3986789,-0.611676
0.8768169,-0.1557022,-0.3543114
0.6861335,-0.04257985,-0.2783267
0.6962784,-0.1898761,-0.2821839
0.7400904,-0.1564667,-0.1277922
0.7113321,-0.168993,-0.1242127
0.6972609,-0.2279076,-0.148754
0.6429547,-0.1575578,-0.2191311
0.5807787,-0.2399953,-0.2817945
0.674806,-0.2675781,-0.2467105
0.8265,-0.2638712,-0.2697737
0.9289872,-0.3110402,-0.2674255
0.9613804,-0.2543442,-0.2860061
0.9040705,-0.2601309,-0.3229471
0.8714562,-0.2358099,-0.2963817
0.8513399,-0.2064451,-0.2586879
0.7858204,-0.2265437,-0.1708169
0.7525689,-0.1445248,-0.1500393
0.7528197,-0.103738,-0.149699
0.7104002,-0.0969829,-0.1315851
0.5822929,-0.1515762,-0.4124042
0.5095948,-0.2779654,-0.9002499
0.7770043,-0.3131317,-1.12176
1.274766,-0.4709031,-1.040433
1.546989,-0.7437961,-1.206339
1.585538,-0.8309663,-1.600949
1.584941,-0.746284,-1.534397
1.429972,-0.6186001,-1.083371
1.091005,-0.5034667,-0.6458657
0.6787084,-0.2949341,-0.390808
0.4098174,-0.02238221,-0.4107456
0.4395655,0.100596,-0.3745613
0.5726781,0.104137,-0.3256869
0.7042975,0.02639821,-0.4300842
0.803652,-0.1263141,-0.4692831
0.7908614,-0.2543092,-0.5914253
0.7584397,-0.3066848,-0.6298969
0.7139514,-0.257328,-0.4462565
0.6387667,-0.2174586,-0.3752589
0.5883554,-0.2092288,-0.2834017
0.568732,-0.1559263,-0.221901
0.5938237,-0.1271553,-0.2781658
0.6311407,-0.09810644,-0.3009432
0.69616,-0.1070884,-0.3987458
0.7812789,-0.1968645,-0.4010514
0.8171619,-0.3016272,-0.3460716
0.8854041,-0.418277,-0.3993094
0.9250441,-0.3704175,-0.4268173
0.8083694,-0.2120099,-0.6095701
0.7180298,-0.216327,-0.8397517
0.763655,-0.3808323,-0.8024437
0.8594606,-0.6520678,-0.6629496
0.9898111,-0.7660083,-0.5956098
1.173787,-0.7152348,-0.571333
1.447225,-0.8665666,-0.4881138
1.638583,-0.9571238,-0.4095671
1.449944,-0.7253081,-0.4725892
1.121508,-0.3943735,-0.5121405
0.9562568,-0.1156325,-0.3813734
0.7726668,-0.02300512,-0.2184234
0.6391863,-0.09400332,-0.1112744
0.6292315,-0.1907383,-0.04400804
0.5702725,-0.2816948,-0.03363768
0.5845918,-0.3300414,-0.03864689
0.6083965,-0.2971105,-0.09982795
0.555296,-0.2280336,-0.2329386
0.5772315,-0.1919072,-0.2681475
0.5829071,-0.1288831,-0.2418523
0.6128273,-0.07212135,-0.2660979
0.7011119,-0.1003754,-0.2745022
0.785582,-0.1587963,-0.2906939
0.9675515,-0.2516156,-0.3708295
1.060212,-0.3145321,-0.4258064
0.9934475,-0.3245333,-0.4190643
0.9855176,-0.4107271,-0.4722087
0.9879268,-0.5482946,-0.5771234
0.9686499,-0.546643,-0.6109451
0.9870691,-0.3794571,-0.66027
0.9845615,-0.2556708,-0.7615255
1.05555,-0.2484846,-0.7531956
1.384011,-0.338016,-0.7525473
1.706393,-0.4080782,-0.9103538
1.583836,-0.3077777,-0.980201
1.296737,-0.2274187,-0.872339
1.173784,-0.2237137,-0.6934989
0.8929616,-0.1522128,-0.4352216
0.6022949,-0.08103987,-0.2539214
0.5502624,-0.05142542,-0.2271907
0.4787706,-0.002571984,-0.2233374
0.5300423,0.04445857,-0.2290323
0.6538847,-0.01267819,-0.2349228
0.6873861,-0.09940614,-0.2423663
0.7737916,-0.1120789,-0.3106756
0.7376139,-0.1175988,-0.4067546
0.7319829,-0.1274795,-0.4387644
0.8129445,-0.1840939,-0.3805227
0.7753454,-0.2633651,-0.3289455
0.8502912,-0.2944509,-0.3290434
0.9458196,-0.3156726,-0.3363761
0.9602023,-0.2563306,-0.3818595
0.93133,-0.1513666,-0.4899729
0.8547874,-0.1562636,-0.6058649
0.9434791,-0.2966712,-0.6466272
1.029887,-0.4756544,-0.6367771
1.103028,-0.5585385,-0.6848232
1.363669,-0.6763269,-0.7023472
1.498271,-0.8404689,-0.5584122
1.399041,-0.7671498,-0.366253
1.293019,-0.6218837,-0.3189658
1.166237,-0.5461501,-0.370164
0.92322,-0.3196415,-0.3124208
0.7407162,-0.1541585,-0.2123712
0.6801233,-0.1833187,-0.1690104
0.579441,-0.1802768,-0.08062387
0.5565311,-0.1885548,-0.007192396
0.5985786,-0.1852736,-0.01203672
0.5586183,-0.1183702,-0.05853557
0.5527814,-0.06908155,-0.1305739
0.5953142,-0.02913424,-0.1603699
0.6411753,-0.07152939,-0.1668669
0.6852994,-0.1239648,-0.2142967
0.7213617,-0.1164537,-0.3314224
0.8124511,-0.1456688,-0.46379
0.9357779,-0.1675515,-0.4473731
0.9863021,-0.2107701,-0.3379487
0.9201772,-0.2902393,-0.3266849
0.8633775,-0.3730436,-0.486396
0.8923727,-0.4304912,-0.8015657
0.9041638,-0.3906675,-0.9772887
1.04298,-0.4107324,-0.8379458
1.495719,-0.4755601,-0.7602285
1.87342,-0.4129472,-0.8910414
1.769289,-0.2673073,-1.014781
1.510859,-0.1011552,-1.064484
1.282334,-0.09751064,-0.8061695
0.8353722,-0.153273,-0.323618
0.5670805,-0.05845145,-0.2055001
0.6101998,-0.06322402,-0.2850072
0.4964285,-0.07693797,-0.1869788
0.4833287,0.03394062,-0.1855005
0.6087907,0.04038747,-0.2739297
0.6108388,0.01729299,-0.2824942
0.7146193,-0.0333088,-0.2961144
0.7726784,-0.1358322,-0.3326098
0.7526301,-0.1584254,-0.4206408
0.8687386,-0.2040562,-0.4581773
0.9838382,-0.2850342,-0.3835134
1.043259,-0.3176436,-0.3632913
1.028834,-0.2685404,-0.3755954
1.009439,-0.1389129,-0.3476342
1.020346,0.001450908,-0.3103047
0.9947889,0.1584408,-0.289024
1.007047,0.2540544,-0.3029136
0.99163,0.253642,-0.3219333
0.975476,0.1915908,-0.4455469
1.00221,-0.04511204,-0.7948921
1.03924,-0.5513793,-1.110163
1.251149,-1.15005,-1.015561
1.476449,-1.22984,-0.7385156
1.475438,-0.7833752,-0.7000637
1.450375,-0.5699944,-0.7732014
1.447379,-0.5796336,-0.7956023
1.223049,-0.4970862,-0.6309578
0.9347923,-0.4060178,-0.3548294
0.8603582,-0.3129549,-0.3650612
0.7437944,-0.2382362,-0.3419303
0.5998778,-0.1861427,-0.180474
0.6896583,-0.1919661,-0.2813894
0.7154647,-0.2034812,-0.3246966
0.6196489,-0.1633585,-0.2722056
0.6286378,-0.206501,-0.3304311
0.6455203,-0.2336054,-0.2899205
0.6924798,-0.3197002,-0.190132
0.7676178,-0.496921,-0.1153947
0.7265288,-0.4674488,-0.1221326
0.6415635,-0.382241,-0.1811582
0.5355422,-0.3075286,-0.1532745
0.4461161,-0.1806421,-0.1475448
0.4948296,-0.1893045,-0.1286876
0.5638002,-0.186059,-0.05730972
0.6285236,-0.1080399,-0.0737104
0.7452992,-0.1381119,-0.1127622
0.8293134,-0.1564182,-0.2145163
0.9623935,-0.1171476,-0.4123409
1.044464,-0.1483294,-0.4465247
0.8966569,-0.1733878,-0.3234668
0.7827719,-0.2124218,-0.3196149
0.7550302,-0.3042904,-0.5676997
0.7171384,-0.2760351,-0.9960511
0.8119321,-0.1912253,-1.237544
1.057027,-0.2502644,-1.126077
1.556755,-0.6006817,-1.077286
1.985526,-0.9697985,-1.163089
1.73917,-0.7115572,-1.074754
1.341562,-0.2877357,-0.886094
1.182544,-0.3163836,-0.6081006
0.8229244,-0.2090254,-0.3379701
0.5258862,0.00723867,-0.3141315
0.4617848,-0.007513692,-0.2587414
0.3751508,0.06475713,-0.16916
0.4658156,0.06561959,-0.2322564
0.5744022,-0.01560568,-0.2498527
0.5838773,-0.02441951,-0.2932197
0.7083056,-0.1971011,-0.3701599
0.7512409,-0.3531541,-0.4288095
0.7665998,-0.4122004,-0.5415358
0.8278312,-0.4590148,-0.5263192
0.8456698,-0.4269664,-0.4651128
0.9057102,-0.3792782,-0.4455978
0.8976766,-0.2288766,-0.3862498
0.9060528,-0.1342374,-0.4479742
0.9551533,-0.2359169,-0.5953249
0.9323914,-0.3110301,-0.7377013
1.017004,-0.3773372,-0.8331853
1.227128,-0.473605,-0.7582926
1.514059,-0.6462181,-0.5562739
1.63692,-0.8341229,-0.3514407
1.432648,-0.7405963,-0.3709843
1.201184,-0.4861518,-0.4747496
0.949163,-0.2906132,-0.3621884
0.7295165,-0.1574358,-0.3182526
0.6656332,-0.1616517,-0.276369
0.5461151,-0.1927018,-0.07416049
0.5044882,-0.2114932,-0.02251894
0.589556,-0.3201474,0.003479216
0.5836773,-0.3097883,0.03044719
0.6092822,-0.2150907,-0.05629964
0.6599781,-0.1909665,-0.114614
0.6545601,-0.1281651,-0.2259872
0.6809715,-0.1571399,-0.2835612
0.7071026,-0.230505,-0.2616599
0.7834328,-0.2064863,-0.3337617
0.9193164,-0.1832625,-0.3840592
1.003629,-0.1263928,-0.3905169
1.024817,-0.1750589,-0.3579345
0.9634245,-0.3171704,-0.3447422
0.9242448,-0.3462195,-0.4876762
0.9941454,-0.3562194,-0.7674467
1.098995,-0.3571119,-1.02319
1.262912,-0.3906329,-0.9750146
1.452229,-0.4472759,-0.8269432
1.530972,-0.3859066,-0.8517584
1.449499,-0.3033596,-0.846379
1.28904,-0.2253104,-0.8170881
1.114125,-0.1678801,-0.6679893
0.8849736,-0.1671592,-0.3567629
0.7083862,-0.1548276,-0.2621348
0.6378947,-0.1625182,-0.3063623
0.5650047,-0.1364348,-0.293951
0.5279476,-0.07655928,-0.3319915
0.5518616,-0.05042082,-0.3711226
0.6085658,0.006603199,-0.3831316
0.6768229,0.03921315,-0.3929699
0.6922596,0.01796595,-0.3671662
0.6786758,0.001909961,-0.308643
0.688281,-0.02370451,-0.2594722
0.7279815,-0.06098177,-0.2821186
0.7842069,-0.1357726,-0.3305118
0.8308954,-0.2478786,-0.3533068
0.8540567,-0.3360686,-0.3694063
0.8705816,-0.3502225,-0.3586636
0.8971782,-0.2667627,-0.3473677
0.8959209,-0.1498214,-0.3442677
0.8880626,-0.1048073,-0.3621472
0.9086149,-0.1557789,-0.5172885
0.945991,-0.2500048,-0.6877276
1.06333,-0.3912655,-0.64484
1.374034,-0.69375,-0.5572644
1.832135,-1.127643,-0.5121987
1.955954,-1.239311,-0.3885873
1.539613,-0.7761707,-0.4304205
1.135814,-0.295826,-0.5726537
0.9742829,-0.1751714,-0.4799073
0.8478296,-0.1294237,-0.3617517
0.6619057,-0.02276939,-0.170386
0.5323542,-0.0257904,0.07276351
0.6396132,-0.2118746,-0.03354775
0.659727,-0.3504296,-0.1144238
0.5620796,-0.3461249,-0.04296103
0.6064216,-0.273482,-0.1649769
0.5219854,-0.1137343,-0.226033
0.484365,-0.07232459,-0.1943859
0.5651858,-0.1388887,-0.1641706
0.5317635,-0.1744796,-0.06894921
0.6536043,-0.26701,-0.07340338
0.7906879,-0.2843496,-0.1551986
0.8956055,-0.2172847,-0.3062763
1.137987,-0.1608019,-0.4747106
1.199686,-0.1418164,-0.4305989
1.03491,-0.238351,-0.3428768
0.8426435,-0.3740905,-0.3811448
0.8124536,-0.4738502,-0.5267947
0.9667945,-0.449095,-0.856409
1.152267,-0.3969032,-1.056423
1.381431,-0.4456168,-0.8354348
1.601312,-0.4338168,-0.6779146
1.723032,-0.3982031,-0.8238673
1.579998,-0.3200487,-0.8441978
1.233114,-0.1497668,-0.6958563
0.9910861,-0.09723026,-0.5061263
0.7578009,-0.1143921,-0.2601889
0.595985,-0.07007273,-0.208812
0.6050329,-0.007361345,-0.2927606
0.5826501,0.03021873,-0.2645338
0.5979984,0.03068766,-0.2897788
0.6196537,0.00195877,-0.3432992
0.6003876,-0.04385237,-0.3134254
0.6316552,-0.04474882,-0.3275994
0.6278543,-0.0372713,-0.3242405
0.6448634,-0.06694785,-0.2793304
0.6864485,-0.08522595,-0.2743083
0.7018646,-0.1380238,-0.2960632
0.8000627,-0.2233002,-0.3574502
0.9535123,-0.2793384,-0.3789454
1.044702,-0.2587753,-0.3435009
0.9825988,-0.167935,-0.3423513
0.891644,-0.1202483,-0.3848027
0.9139026,-0.145152,-0.502016
0.9707052,-0.2609981,-0.6247082
1.120171,-0.4136813,-0.6483634
1.375327,-0.5231127,-0.6143271
1.682374,-0.8003199,-0.5163787
1.888735,-1.075916,-0.3955978
1.665178,-0.8023178,-0.4157118
1.252082,-0.3043992,-0.461119
0.9591889,-0.1074822,-0.3370136
0.7000578,0.04163975,-0.2039932
0.6156519,0.08245135,-0.1039717
0.6221501,-0.1342231,0.01008119
0.5814263,-0.2593662,0.01812007
0.5964587,-0.3001158,-0.006656053
0.5321882,-0.2178144,-0.05790824
0.485215,-0.05180018,-0.1337837
0.5390301,-0.1093472,-0.1095662
0.5296713,-0.1486727,-0.09967662
0.5517975,-0.1627624,-0.1396266
0.6056284,-0.2463192,-0.2130053
0.7248052,-0.2123865,-0.3658669
0.9809637,-0.245862,-0.483869
1.136753,-0.2944988,-0.4934953
1.11223,-0.2451115,-0.3933195
1.011685,-0.2407336,-0.2633995
0.8720819,-0.2406082,-0.3039871
0.7625467,-0.2333136,-0.6178766
0.9261255,-0.180931,-0.4868486
1.058551,-0.3787718,-0.59445
1.119117,-0.4883938,-0.6951823
1.271838,-0.5936692,-0.7801221
1.505119,-0.8029994,-0.704835
1.564784,-0.8876878,-0.5287168
1.347406,-0.7154543,-0.4337351
1.079953,-0.5068054,-0.4512572
0.8435365,-0.3096743,-0.4035026
0.5878969,-0.09721398,-0.2443746
0.52571,-0.09252153,-0.11642
0.5480028,-0.220791,0.002239405
0.4937729,-0.2225755,0.1046869
0.5304105,-0.250257,0.06570709
0.5352749,-0.2671947,0.02166591
0.4959941,-0.1512842,-0.003906765
0.5325171,-0.1122306,-0.1264363
0.5331361,-0.1029592,-0.1255022
0.641716,-0.07955771,-0.1020508
0.8726275,-0.08026995,-0.2804774
0.9855792,-0.06797559,-0.4008776
1.075148,-0.1806701,-0.4370447
1.262153,-0.354337,-0.54788
1.325837,-0.4545247,-0.66181
1.097679,-0.432737,-0.7264578
0.9351781,-0.3712299,-0.8036617
1.10636,-0.4428707,-0.8342569
1.439844,-0.4733429,-0.8063077
1.734283,-0.4665343,-0.9846998
1.613605,-0.4124098,-1.111504
1.212667,-0.2035081,-0.8217719
0.9866535,-0.1654314,-0.4818861
0.7505385,-0.1766255,-0.3263609
0.6074643,-0.06924213,-0.3144233
0.6195343,-0.06048849,-0.3440868
0.5215857,-0.03343801,-0.310015
0.5247071,0.005980868,-0.2687654
0.5170573,0.008371955,-0.2037988
0.455571,0.0219481,-0.2007235
0.5519219,-0.01678235,-0.2384336
0.6053264,-0.05878477,-0.2310497
0.7500365,-0.1521249,-0.302788
0.9489861,-0.2461705,-0.3916618
0.9725386,-0.2571414,-0.459617
0.9880712,-0.3078689,-0.4972103
0.9663843,-0.324582,-0.4816846
0.9403457,-0.2291859,-0.5162338
0.8892223,-0.08701513,-0.4875994
0.8118478,-0.0163567,-0.4306788
0.9109548,-0.1592717,-0.5118605
0.9945126,-0.3863771,-0.5822411
1.037787,-0.4992561,-0.5851041
1.245166,-0.5815068,-0.5672354
1.594481,-0.8391965,-0.4829816
1.79417,-1.066061,-0.3633032
1.53787,-0.8541165,-0.3207152
1.226898,-0.5200866,-0.4097622
1.064097,-0.3544378,-0.4505959
0.7860572,-0.121533,-0.3010567
0.6264583,-0.05825844,-0.1154028
0.6095995,-0.1993942,-0.02165684
0.5750183,-0.2153464,-0.007493811
0.6049509,-0.2595136,-0.04338549
0.5971914,-0.2610677,-0.1164728
0.5792297,-0.1654978,-0.1902516
0.6129773,-0.182101,-0.1960884
0.6376545,-0.1840354,-0.1656603
0.70528,-0.1903374,-0.1745394
0.750254,-0.2090857,-0.2619745
0.8196538,-0.1626412,-0.4103119
1.026958,-0.1659385,-0.4769892
1.156612,-0.1556331,-0.4087199
1.103523,-0.1422629,-0.3286847
1.008924,-0.1745757,-0.28008
0.9354318,-0.2372751,-0.2608589
0.9030141,-0.3585072,-0.3448752
0.8974258,-0.358172,-0.5501969
0.8611849,-0.2296698,-0.8169731
0.9185346,-0.1503142,-0.9512848
1.260314,-0.1242737,-0.8734343
1.606967,-0.07819118,-0.8915237
1.562864,-0.04442143,-0.9923068
1.448726,-0.2637869,-0.9266477
1.457999,-0.522393,-0.8211428
1.147098,-0.4077462,-0.6074693
0.7431187,-0.2669115,-0.3145482
0.6081548,-0.257721,-0.2842733
0.487184,-0.09049257,-0.2947209
0.4290887,0.06785588,-0.1566629
0.417711,0.1176717,-0.1463622
0.4571025,0.1326354,-0.2238423
0.6585233,0.04995765,-0.2672913
0.7520991,-0.005337807,-0.3433655
0.8199323,-0.03150462,-0.3857297
0.8652819,-0.102008,-0.3912876
0.8476437,-0.1624065,-0.4214161
0.9627844,-0.2218147,-0.4285373
0.9844983,-0.1794217,-0.4258981
0.9657778,-0.0867085,-0.4075225
0.9376938,-0.02625419,-0.3356539
0.789357,0.07619168,-0.2585143
0.7733317,0.0816601,-0.2483083
0.8042019,0.01009787,-0.3685982
0.8146435,-0.07012384,-0.5702797
0.8453055,-0.2691008,-0.814902
0.8632517,-0.5293842,-1.157562
1.090713,-0.8862364,-1.316081
1.539619,-1.253777,-0.8345375
1.762208,-1.19935,-0.2699843
1.367855,-0.7487175,-0.4532332
0.8516771,-0.3699174,-0.5595743
0.7685741,-0.1703547,-0.2029347
0.7739075,-0.0693263,-0.2701271
0.7518182,-0.0305074,-0.2901682
0.8062064,-0.01745563,-0.09671887
0.8065009,-0.09178809,-0.2531888
0.7812745,-0.1046751,-0.2851583
0.7100972,-0.08017902,-0.3469697
0.6526942,-0.1646343,-0.489823
0.6909457,-0.1859316,-0.3386776
0.7160208,-0.2528936,-0.3103065
0.7523584,-0.3643,-0.258463
0.8137235,-0.4177271,-0.1137069
0.8205267,-0.491701,-0.1312542
0.7793496,-0.4282275,-0.1300591
0.7485509,-0.3700877,-0.1905001
0.7527507,-0.3735107,-0.2272092
0.7511851,-0.2802533,-0.1891425
0.7510309,-0.2343053,-0.1866484
0.7872676,-0.2015771,-0.1199835
0.8661511,-0.1644404,-0.1052285
0.9023057,-0.1411732,-0.2133296
0.7518054,-0.08994701,-0.554689
0.6190826,-0.0573775,-1.041536
0.8698067,-0.05104983,-1.222265
1.354293,-0.1973828,-1.284124
1.600716,-0.347098,-1.52775
1.505163,-0.3181769,-1.627831
1.409422,-0.4141318,-1.462026
1.409707,-0.5937726,-1.168396
1.18174,-0.5200505,-0.7782146
0.7000014,-0.342154,-0.4691084
0.2591963,-0.266386,-0.2255651
0.2090849,-0.1778986,-0.1108279
0.4314341,-0.008055925,-0.2638055
0.3340167,0.1963579,-0.1940966
0.2754242,0.205566,-0.1100581
0.4822804,-0.007318096,-0.3356114
0.5129788,-0.09795069,-0.4047415
0.6784653,-0.164545,-0.5421424
0.7636965,-0.1744644,-0.5610368
0.6870658,-0.02022964,-0.3254253
0.8270959,-0.06515592,-0.3887593
0.7783369,-0.1779484,-0.400295
0.85572,-0.3122145,-0.4122653
1.02697,-0.4550159,-0.4868042
0.8609602,-0.3639228,-0.3741208
0.8051298,-0.3326911,-0.4178127
0.7268951,-0.254628,-0.4061891
0.6939449,-0.09262277,-0.4896461
0.8051236,-0.1125271,-0.7664709
0.7836415,-0.1649228,-0.80823
0.9877102,-0.5144193,-0.885321
1.432083,-1.204314,-0.7968939
1.817183,-1.582079,-0.5224977
1.759142,-1.184591,-0.5264673
1.340846,-0.5197168,-0.5416197
1.095793,-0.2532217,-0.4561749
0.733565,0.03388431,-0.3315413
0.5236696,0.1550153,-0.1826985
0.6822987,-0.1301683,-0.07862281
0.6390629,-0.2198364,0.04755668
0.6920555,-0.3586212,0.07658658
0.7123232,-0.3941013,-0.03380047
0.5239968,-0.1998073,-0.1456526
0.5331196,-0.2652312,-0.1412162
0.4644129,-0.1879383,-0.06103684
0.4515134,-0.1292384,-0.05728914
0.5810653,-0.2704756,-0.05785999
0.6452605,-0.2488843,-0.07737796
0.8160397,-0.3105577,-0.1795173
0.8441723,-0.268218,-0.2852564
0.832543,-0.1235174,-0.3723968
0.9557105,-0.1226428,-0.3638487
0.9630587,-0.06979701,-0.3258044
0.9438349,-0.1152995,-0.3304548
0.9102849,-0.2378572,-0.3393659
0.9283257,-0.3803373,-0.5236937
0.9819695,-0.4787778,-0.8472781
1.038043,-0.3737527,-1.001742
1.409158,-0.344069,-0.9328949
1.769459,-0.3145537,-0.9076052
1.685923,-0.2556571,-1.004054
1.535739,-0.3231939,-0.9564436
1.422967,-0.2860563,-0.7444583
0.9771726,-0.2592971,-0.4835092
0.5591308,-0.2744297,-0.2535923
0.5041255,-0.1887877,-0.184038
0.407884,-0.08855945,-0.1653208
0.3716952,0.07265806,-0.114546
0.3902697,0.1405564,-0.1048546
0.2974112,0.08374792,-0.139184
0.4407595,0.07946426,-0.1895828
0.669239,-0.02716682,-0.2817796
0.8997219,-0.2227221,-0.4044828
1.054784,-0.3375266,-0.4244183
0.9715695,-0.41283,-0.4367827
1.043759,-0.495388,-0.5187809
1.04666,-0.5078534,-0.5058929
0.8614282,-0.4076293,-0.4819469
0.7661524,-0.3017926,-0.4992569
0.6205418,-0.2029296,-0.4709588
0.6351753,-0.1601851,-0.4648415
0.8193471,-0.2373422,-0.47961
1.093902,-0.3613049,-0.4746475
1.561184,-0.6670475,-0.4718286
1.87893,-0.9591771,-0.4842681
1.87081,-0.7981692,-0.5457992
1.520162,-0.4966319,-0.5984603
1.031191,-0.3045786,-0.4947791
0.7388036,-0.04569405,-0.3190028
0.6300842,0.03736643,-0.234
0.6238467,-0.06796609,-0.05939535
0.5415953,-0.06210077,0.2192719
0.5057491,-0.07950948,0.2133211
0.5637659,-0.09049984,-0.01304135
0.4666747,-0.02845389,-0.1241675
0.4719862,-0.05898917,-0.1841099
0.5444297,-0.03943194,-0.2243281
0.5086102,0.01341389,-0.2561794
0.5465218,-0.001235667,-0.3799345
0.5906681,0.02084218,-0.4871159
0.7631742,-0.043392,-0.5330286
1.065224,-0.2355661,-0.4585873
1.147271,-0.4405982,-0.3113456
1.000141,-0.5972714,-0.3533073
0.8566203,-0.628816,-0.5677641
0.96357,-0.5151873,-0.8044121
1.345192,-0.3510167,-0.8907023
1.804438,-0.255157,-1.049857
1.938198,-0.1458744,-1.369212
1.590923,-0.09712517,-1.115238
1.242941,-0.2031592,-0.5550933
0.9680718,-0.1763436,-0.3326156
0.729806,-0.08984667,-0.2142572
0.6630146,-0.03427372,-0.2622859
0.5488644,0.1144478,-0.2781995
0.59537,0.1203469,-0.1943636
0.7203504,0.08460733,-0.3105407
0.6462273,0.1060933,-0.350011
0.698371,0.01900078,-0.4008709
0.6999375,0.0009003002,-0.4478585
0.6638567,-0.01183786,-0.3488305
0.7559353,-0.0764703,-0.3802032
0.7310832,-0.06114884,-0.3601623
0.8013599,-0.0693315,-0.3319231
0.9099271,-0.09430699,-0.3783372
0.9197881,-0.1371686,-0.3306949
0.9508917,-0.1718228,-0.3638944
0.9159804,-0.127604,-0.3886322
0.9245958,-0.07383182,-0.3621423
0.9099761,0.03393882,-0.2806913
0.8499229,0.1380333,-0.1642229
0.9145762,0.08619677,-0.4751166
1.123165,-0.1673955,-1.085602
1.560418,-0.6056195,-1.355027
1.824481,-0.8677554,-1.100056
1.642867,-0.6906651,-0.8323958
1.441899,-0.4829946,-0.8738662
1.212095,-0.4516875,-0.6726998
0.8603526,-0.3873966,-0.3579661
0.7417639,-0.3988603,-0.400433
0.8076823,-0.4005743,-0.3966525
0.8506471,-0.2966636,-0.3513055
0.9203453,-0.3332782,-0.4120623
0.8300867,-0.2785162,-0.3885465
0.6638162,-0.09574914,-0.3997703
0.7090375,-0.06668191,-0.3904408
0.7454221,-0.07004213,-0.3043323
0.7558243,-0.1298471,-0.2256137
0.8164868,-0.2592322,-0.1293252
0.7507339,-0.3354229,-0.1278512
0.6276659,-0.3125807,-0.1538535
0.5007603,-0.2049282,-0.1176724
0.4255819,-0.1665431,-0.09756283
0.4734415,-0.1446262,-0.03901895
0.5239533,-0.1294927,0.02226973
0.626929,-0.1471623,-0.001092729
0.8046146,-0.07766946,-0.10404
0.9029875,-0.01144777,-0.2445887
0.971531,0.02234582,-0.3202969
1.077777,-0.01619968,-0.3188135
1.113458,-0.1036377,-0.3035898
1.049052,-0.1132728,-0.3199926
0.9792973,-0.1757623,-0.5232596
0.9731864,-0.2026998,-1.001741
1.021759,-0.2024211,-1.325789
1.115104,-0.4002815,-1.138611
1.267281,-0.5571956,-0.9684775
1.454062,-0.5246848,-1.072999
1.620995,-0.5009673,-1.001337
1.521163,-0.5071834,-0.873501
1.003001,-0.3629326,-0.6722039
0.5366206,-0.1772483,-0.2246402
0.5184665,-0.2158034,-0.2038834
0.6054034,-0.2541201,-0.3639041
0.4651287,-0.1717378,-0.1654992
0.3991726,-0.1442209,-0.2039232
0.4953549,-0.06214532,-0.2566726
0.4438133,0.04737637,-0.1130708
0.4682483,0.03328267,-0.2248376
0.6218812,0.02238125,-0.2970421
0.6587899,0.06914819,-0.3377172
0.7426585,0.02037618,-0.4471026
0.836835,-0.1212585,-0.4173399
0.9324149,-0.2668022,-0.4368059
1.039056,-0.4335253,-0.4409483
1.024442,-0.4678217,-0.4654406
1.007369,-0.3191933,-0.6493473
0.9565389,-0.2349319,-0.7492269
0.968711,-0.2733727,-0.7328098
1.107941,-0.3371742,-0.7204146
1.303068,-0.4560463,-0.7360642
1.629373,-0.7450812,-0.5716686
1.70504,-0.9597686,-0.3364731
1.471389,-0.7594224,-0.4333307
1.219187,-0.4312941,-0.4970994
0.8684401,-0.1857852,-0.3636148
0.6168227,0.01490521,-0.2817195
0.544616,-0.02780871,-0.07422276
0.5049155,-0.1894799,0.09006433
0.5602255,-0.2982456,0.0698587
0.6172304,-0.4123895,0.06217764
0.6035587,-0.3992828,-0.02589973
0.6113357,-0.3296326,-0.1168288
0.6224489,-0.2541282,-0.1286493
0.5538516,-0.03880695,-0.2289472
0.4916551,0.0976663,-0.3074642
0.5498632,0.08231864,-0.2445988
0.7101902,-0.0003429516,-0.2027259
0.9944837,-0.1842219,-0.2736837
1.244379,-0.2823104,-0.3234683
1.225038,-0.3053429,-0.3567955
1.064,-0.3605879,-0.5769198
0.9395604,-0.2972399,-0.8215836
0.9914131,-0.2056058,-0.8049187
1.441083,-0.2651023,-0.7667488
1.94238,-0.3596368,-0.9733784
1.880007,-0.3646062,-1.161785
1.56409,-0.3110085,-1.086692
1.315716,-0.2463877,-0.8176466
0.8760879,-0.2245036,-0.4382893
0.6576716,-0.247474,-0.1885282
0.7163258,-0.234966,-0.1966309
0.498813,-0.1142113,-0.2078833
0.373253,0.07699406,-0.1723042
0.3934382,0.1121193,-0.1853089
0.322895,0.02952068,-0.2215922
0.4629453,0.03937377,-0.2854454
0.6150264,0.01448955,-0.3060145
0.7366661,-0.07386819,-0.2904543
0.8961373,-0.1636616,-0.355135
0.9024542,-0.2765668,-0.460182
0.9580664,-0.3441335,-0.5282373
0.9958751,-0.3707472,-0.5577635
0.9515427,-0.2965127,-0.5613808
0.9310583,-0.1466395,-0.4698705
0.8425658,-0.112774,-0.3223783
0.8338271,-0.1833879,-0.3550013
0.9162383,-0.3161519,-0.4491
0.9642884,-0.441932,-0.4537134
0.9965776,-0.4589508,-0.5247106
1.175576,-0.5541849,-0.5098821
1.570307,-0.8067256,-0.3996014
1.696023,-0.86131,-0.4024838
1.394518,-0.596188,-0.4316189
1.073535,-0.2961589,-0.4722134
0.8882249,-0.1078285,-0.4227495
0.8225266,-0.078249,-0.2987106
0.710346,-0.121404,-0.2440103
0.5179547,-0.08157392,-0.07371051
0.5443732,-0.1080491,0.02556277
0.6349341,-0.2474504,-0.03533134
0.5395202,-0.3286802,0.0318514
0.516274,-0.250659,0.005245972
0.5023331,-0.07680294,-0.127397
0.3965113,-0.02961413,-0.1551371
0.4201323,-0.05075275,-0.2028419
0.4402786,-0.0800257,-0.2194304
0.5032687,-0.1871877,-0.2526992
0.756526,-0.1937317,-0.3944302
1.020213,-0.1735571,-0.4354764
1.228072,-0.2622877,-0.4261209
1.212139,-0.3438211,-0.5705694
1.044553,-0.3864783,-0.833738
1.026808,-0.3660505,-1.014161
1.191896,-0.3864031,-0.9612645
1.561604,-0.4690525,-0.9044264
1.777313,-0.4432971,-0.9667904
1.570286,-0.3166357,-0.926954
1.28287,-0.1754097,-0.8216771
0.9918122,-0.1540111,-0.6270365
0.7138427,-0.1911928,-0.3307482
0.6222683,-0.1343105,-0.2446345
0.5202534,-0.08694515,-0.2370812
0.3911132,0.00362213,-0.1726635
0.4697133,0.08397819,-0.2186548
0.5422326,0.02102256,-0.2096894
0.5558117,0.01572484,-0.2173076
0.6711834,0.008588747,-0.3673803
0.7005974,-0.07425367,-0.4455783
0.7497926,-0.1317811,-0.4471893
0.8762735,-0.2747499,-0.4099319
0.8774919,-0.365908,-0.40344
0.9008528,-0.3068578,-0.4330422
0.967899,-0.2751519,-0.4062478
1.00731,-0.1904634,-0.4227717
0.9914159,-0.05261185,-0.4122996
0.9142622,-0.04357284,-0.3899883
0.9182313,-0.1112451,-0.4648765
0.9247329,-0.1692656,-0.5177626
0.9427904,-0.2494086,-0.5872526
1.105598,-0.4205379,-0.6427985
1.464981,-0.8638094,-0.5661304
1.819424,-1.258584,-0.4713041
1.641489,-0.9115689,-0.495268
1.252744,-0.3675745,-0.5632212
1.052033,-0.2555059,-0.5310828
0.667216,-0.04269234,-0.4242879
0.4707666,0.03717208,-0.2129575
0.6088458,-0.23986,0.008323849
0.5743448,-0.3232064,0.0973618
0.6019296,-0.3980523,0.1327249
0.6481771,-0.3998451,0.02191731
0.5777783,-0.2041478,-0.1297337
0.6583905,-0.1397656,-0.1692016
0.6636777,-0.05508698,-0.214385
0.6065376,-0.1023213,-0.1988729
0.5942234,-0.2189948,-0.1996914
0.5482633,-0.1465315,-0.2858556
0.6949154,-0.1900915,-0.375711
0.9235832,-0.1897379,-0.4751547
1.018615,-0.1597205,-0.4576867
0.9567082,-0.2794113,-0.3753847
0.8300779,-0.3655352,-0.341461
0.8288982,-0.4632046,-0.3720722
0.9304523,-0.4486616,-0.5420109
1.292801,-0.4520514,-0.6713092
1.185836,-0.6913508,-0.7206496
1.347784,-0.8211775,-0.8043037
1.56312,-0.9995264,-0.6960228
1.724594,-1.234975,-0.4511347
1.466666,-0.9416907,-0.3223584
1.050162,-0.3630864,-0.3638657
0.8698806,-0.1701309,-0.443015
0.6910879,-0.004446352,-0.2902202
0.5561851,0.0421859,-0.10465
0.5644636,-0.1715732,-0.04613659
0.5447762,-0.2212347,0.03163679
0.5282479,-0.2598875,-0.00787749
0.4912649,-0.2104091,-0.03610897
0.4775559,-0.07143672,0.02471037
0.5059951,-0.05229427,-0.01536811
0.4771627,0.06468021,-0.06149635
0.5154162,0.09035851,-0.1779455
0.6510932,-0.004118455,-0.3357255
0.9057483,-0.06519593,-0.3973563
1.20858,-0.2142642,-0.4991963
1.242158,-0.2819136,-0.7114882
1.100414,-0.2571884,-1.026802
1.099159,-0.304919,-1.161543
1.359747,-0.5071787,-1.068803
1.737234,-0.698227,-1.168792
1.784019,-0.5182376,-1.253052
1.425642,-0.2580822,-0.9554362
1.070763,-0.2647537,-0.5615568
0.9150544,-0.3041539,-0.3827214
0.8183225,-0.2727214,-0.3458377
0.6780146,-0.2124581,-0.3327135
0.5871209,-0.08466169,-0.3584495
0.5365336,0.02661925,-0.3287351
0.4477982,0.06265778,-0.2557098
0.4177233,0.08132094,-0.2473983
0.4641599,0.06608092,-0.2497475
0.5668332,0.0362806,-0.2796994
0.7669952,-0.001853164,-0.315271
0.9203658,-0.08804579,-0.3751392
0.9304919,-0.1570531,-0.4836817
0.9297605,-0.2420275,-0.4731458
0.9653452,-0.3183039,-0.435629
0.9298251,-0.2802677,-0.433314
0.7918478,-0.2271299,-0.3073401
0.6708771,-0.2023002,-0.1756057
0.6817964,-0.188696,-0.2052598
0.7461265,-0.1760161,-0.3562656
0.7573009,-0.1244553,-0.5025881
0.8176504,-0.1672018,-0.5821404
0.9448255,-0.3802369,-0.6760972
1.129939,-0.633979,-0.9142162
1.399531,-0.8010427,-1.048913
1.629841,-0.9747243,-0.6766986
1.844749,-1.194595,-0.3204527
1.708333,-0.9046391,-0.4526186
1.076178,-0.1749916,-0.477941
0.7333465,0.08961796,-0.2996061
0.6455314,0.05279584,-0.2208744
0.4795297,0.09548577,-0.03691924
0.5306248,-0.01672444,0.09532434
0.5994032,-0.1750854,0.01804808
0.6079271,-0.2893978,-0.04047046
0.6386455,-0.2826766,-0.1355948
0.6274287,-0.1991384,-0.1784324
0.6713657,-0.2051201,-0.1361297
0.6622529,-0.1296089,-0.2234031
0.6509794,-0.1031268,-0.2686
0.7115959,-0.1762319,-0.3169685
0.8560497,-0.1886954,-0.4554396
1.138354,-0.2158207,-0.470694
1.189084,-0.1799403,-0.4425797
0.8739474,-0.1570731,-0.3577854
0.542546,-0.1936563,-0.2876285
0.486795,-0.1921339,-0.4648877
0.6940081,-0.2435176,-0.7164431
1.016418,-0.2987789,-0.8338156
1.54737,-0.32681,-0.9403362
1.977379,-0.3609934,-1.349929
1.822519,-0.3865709,-1.639609
1.442071,-0.3841202,-1.084667
1.119717,-0.3559093,-0.3495292
0.7532093,-0.3719261,-0.1910102
0.5827874,-0.283912,-0.1584248
0.5228863,-0.04672481,-0.05148363
0.4037903,0.1487001,-0.0987075
0.4214144,0.2215623,-0.1434207
0.4426802,0.1586833,-0.164078
0.5605771,0.08417958,-0.2860584
0.8239389,0.009683328,-0.3980195
0.8367117,-0.04383892,-0.4488381
0.8062186,-0.0009075698,-0.4482397
0.8938092,-0.0545791,-0.471458
0.9033416,-0.1196288,-0.4970737
0.9092132,-0.1219813,-0.4444445
0.917514,-0.1834837,-0.4648547
0.9032409,-0.1447781,-0.4537498
0.8484234,-0.0394849,-0.306647
0.7532659,0.05266695,-0.1647103
0.7172736,0.09565917,-0.09310404
0.7705033,0.01863824,-0.2375751
0.8323575,0.01845606,-0.4469357
0.7889273,0.03016107,-0.589889
0.7926505,-0.1421375,-0.8333415
1.056142,-0.6013876,-0.923963
1.5563,-1.259254,-0.6082417
1.934762,-1.391126,-0.2763788
1.752266,-0.8790562,-0.4015871
1.318868,-0.3689862,-0.5335933
0.9218533,0.08442324,-0.3074107
0.5220595,0.4284067,-0.2873512
0.5511101,0.3780695,-0.3273159
0.7773121,0.09527597,-0.19974
0.7533167,-0.2014525,-0.2113526
0.736087,-0.36751,-0.1904303
0.6508699,-0.2889531,-0.2195675
0.6070049,-0.2297144,-0.2983662
0.663689,-0.300663,-0.2516103
0.5934794,-0.2894529,-0.2360188
0.6951646,-0.341369,-0.1413811
0.8589332,-0.4642416,-0.08394162
0.944268,-0.4426409,-0.1590501
1.027059,-0.3831132,-0.2509555
0.9351341,-0.2626669,-0.3854189
0.9158278,-0.144786,-0.3054379
0.937845,-0.1683105,-0.1339601
0.8979519,-0.1674141,-0.1357796
0.9696264,-0.1556631,-0.1411553
0.9956303,-0.1380997,-0.1651187
1.022984,-0.074243,-0.194541
0.9939915,-0.05478673,-0.1830331
0.7514729,-0.06299814,-0.2386427
0.4393863,-0.1011495,-0.4190162
0.2595692,-0.1348158,-0.688819
0.4684846,-0.1862031,-0.9184794
0.9230956,-0.2796097,-1.114663
1.350337,-0.3367622,-1.178592
1.624742,-0.5285231,-1.204088
1.769532,-0.82576,-1.530559
1.825703,-0.8376055,-1.55355
1.384598,-0.6162577,-0.9332219
0.7361572,-0.4471402,-0.3479457
0.4294296,-0.2661868,-0.08267415
0.3386899,-0.07937771,-0.1808864
0.4205954,0.08409668,-0.2455708
0.3985096,0.2479538,-0.1299175
0.4240843,0.1842237,-0.286377
0.6084034,0.03296987,-0.3570708
0.6173538,-0.06913237,-0.4520727
0.7529475,-0.210689,-0.6962402
0.7571534,-0.142457,-0.562715
0.6482185,-0.07732126,-0.4586214
0.7267091,-0.1138879,-0.4015549
0.5891893,-0.01104871,-0.2543065
0.6081084,-0.0595915,-0.3160036
0.7027952,-0.1911947,-0.3109009
0.6652087,-0.2849237,-0.3387189
0.8404549,-0.3817216,-0.4381972
0.8391437,-0.2945917,-0.4084677
0.7983569,-0.2617325,-0.4138009
0.8698875,-0.2589249,-0.4134296
0.8200555,-0.1277321,-0.5045203
0.8584311,-0.1431015,-0.6843504
0.8968845,-0.2627018,-0.7533897
0.9768423,-0.45573,-0.8398611
1.263782,-0.8479301,-0.8746781
1.638699,-1.178307,-0.579905
1.80063,-1.02285,-0.2478451
1.500093,-0.560319,-0.4438842
1.11764,-0.2333671,-0.6600466
0.8357331,0.1029226,-0.3679915
0.6155433,0.2261204,-0.1794531
0.6278845,-0.01643163,-0.08579962
0.6149773,-0.1221367,0.102672
0.5511825,-0.2793324,0.06381024
0.5752678,-0.3854973,0.02690438
0.5095931,-0.1311837,-0.04314778
0.4809186,0.03609038,-0.2154848
0.528709,0.121539,-0.2066198
0.557403,0.1161434,-0.2165344
0.6465943,-0.07335087,-0.2742175
0.7507454,-0.2065099,-0.3194739
0.8279532,-0.2617723,-0.4429391
0.9328977,-0.2281594,-0.4729219
1.126768,-0.2705891,-0.4576909
1.175069,-0.3335332,-0.4285667
0.9548737,-0.3236937,-0.3624146
0.8552055,-0.4225435,-0.5780413
0.8981945,-0.3643665,-0.9099899
1.047943,-0.2769852,-0.9550533
1.499118,-0.3509196,-0.9981433
1.846406,-0.2931835,-1.158892
1.640187,-0.269025,-1.147546
1.21084,-0.3263854,-0.9005935
0.9775038,-0.3371794,-0.4906327
0.7506494,-0.3341603,-0.2749403
0.5460878,-0.2402747,-0.3343883
0.4988344,-0.09955924,-0.2981364
0.4063665,0.0557768,-0.2569084
0.431257,0.1538815,-0.25723
0.4799424,0.1312244,-0.2130956
0.4660131,0.06551383,-0.2547869
0.6366236,-0.03853344,-0.277531
0.7297953,-0.1102574,-0.2968754
0.8145875,-0.1787108,-0.3550716
0.9485215,-0.2867805,-0.349491
0.9480408,-0.3131114,-0.3774146
1.014921,-0.3059442,-0.4438674
1.01469,-0.2837154,-0.4996951
0.9229991,-0.1798279,-0.5064465
0.8631039,-0.05936687,-0.4758793
0.8029757,-0.02269577,-0.5246348
0.8793127,-0.1503894,-0.5798174
0.9505849,-0.3244186,-0.6193547
1.044348,-0.4734248,-0.6490303
1.419432,-0.9009302,-0.5924465
1.745077,-1.336584,-0.5051437
1.586372,-1.000181,-0.4259651
1.280179,-0.4038971,-0.4512542
1.155083,-0.2562166,-0.5006982
0.8481329,-0.00850394,-0.3291356
0.5963842,0.155257,-0.09994935
0.6682629,-0.106828,0.02898936
0.6111393,-0.1777251,0.06519123
0.5624083,-0.1997117,-0.03900645
0.5442856,-0.2317097,-0.1516501
0.436595,-0.06646108,-0.1832133
0.5226418,-0.06781127,-0.1442875
0.5840302,-0.06787847,-0.1030475
0.5978651,-0.06371424,-0.1760224
0.6939222,-0.169992,-0.2741835
0.7967564,-0.175415,-0.3711714
1.031828,-0.2687147,-0.4711201
1.143952,-0.3227401,-0.4397548
1.018608,-0.29553,-0.305965
0.8602358,-0.3787956,-0.2125511
0.7228579,-0.4208697,-0.3320234
0.7962569,-0.4393862,-0.6376059
0.9569332,-0.3737865,-0.8385624
1.087153,-0.2798504,-0.8518732
1.487455,-0.2597137,-0.827466
1.83839,-0.1344093,-0.9256032
1.663795,-0.0416081,-1.01506
1.384293,-0.05863463,-0.8050839
1.192043,-0.08949625,-0.462955
0.9455832,-0.1677762,-0.2816017
0.9427591,-0.2030304,-0.2733098
0.8942958,-0.1295397,-0.3064771
0.6393581,-0.04163119,-0.267854
0.6873785,-0.02551415,-0.2648398
0.6739235,0.01434175,-0.2939824
0.4529516,0.09727599,-0.2692545
0.4818595,0.06552323,-0.2862917
0.5478057,-0.01083266,-0.3062898
0.5846892,-0.03384975,-0.318405
0.6765368,-0.04197663,-0.3568567
0.7274325,-0.02029221,-0.3594992
0.8606698,-0.01124379,-0.3992199
0.974902,-0.02897194,-0.4439824
0.99095,-0.01993325,-0.4193721
1.034831,0.001673614,-0.3959423
0.9959258,0.04775107,-0.3105358
0.9223696,0.06601972,-0.1846846
1.000598,-0.03672512,-0.1590574
1.034903,-0.1172835,-0.1828867
0.8976717,-0.03459306,-0.3090297
0.8441564,-0.02252968,-0.6030333
1.093016,-0.4278023,-0.9129881
1.572419,-1.082009,-1.194822
1.81725,-1.308306,-1.193018
1.594537,-0.9143589,-0.9148444
1.436454,-0.5881672,-0.9336947
1.51365,-0.6419442,-0.9528779
1.324634,-0.5541752,-0.701325
1.022037,-0.3266832,-0.5901299
1.011805,-0.3012188,-0.513518
0.9328624,-0.2266581,-0.4558655
0.6829116,-0.1040948,-0.3649662
0.5811037,-0.129099,-0.259085
0.5168527,-0.1153838,-0.3525475
0.5161909,-0.1175256,-0.3040635
0.6536087,-0.2115896,-0.2391294
0.7147358,-0.2794121,-0.2409619
0.7023739,-0.3830033,-0.1463125
0.6103109,-0.4291119,-0.1733272
0.4681909,-0.3414766,-0.1159663
0.4193349,-0.2860372,-0.05166777
0.3972425,-0.2384609,-0.04908155
0.4011859,-0.1713449,0.05097268
0.4708165,-0.1153282,0.006708461
0.5959182,-0.007825157,-0.03931068
0.7157121,0.06041197,-0.09789269
0.7244399,0.04469259,-0.3183224
0.781148,0.05314695,-0.4989327
0.8742337,0.03060573,-0.5865413
0.8503543,-0.1827484,-0.7392519
0.9763156,-0.5191415,-1.139806
1.242455,-0.6796739,-1.285909
1.356533,-0.6708746,-1.130331
1.530481,-0.8516167,-1.380939
1.780562,-1.058714,-1.524544
1.62742,-0.7714159,-1.110966
1.245498,-0.3061832,-0.6895085
1.073693,-0.1982281,-0.4893305
0.8717116,-0.2084652,-0.3380035
0.6348464,-0.1663752,-0.1651087
0.5525707,-0.07772903,-0.2160822
0.4445178,0.1389338,-0.280272
0.4197272,0.2352626,-0.1814917
0.495849,0.1844765,-0.2482516
0.5508593,0.1510662,-0.2582274
0.6936129,0.04240546,-0.2721077
0.7674762,-0.05728208,-0.4254008
0.7854685,-0.1242561,-0.4099171
0.8732539,-0.2545845,-0.4272011
0.8907502,-0.3145032,-0.4677426
0.9008763,-0.2965634,-0.4525041
0.9229098,-0.2650302,-0.5014253
0.8666086,-0.1288367,-0.4435264
0.8143704,0.02660472,-0.3710761
0.8330641,-0.006396171,-0.3711746
0.8655973,-0.1478979,-0.4330811
0.9177009,-0.2835262,-0.5658527
1.163585,-0.6088424,-0.6165957
1.598614,-1.097994,-0.6140549
1.861954,-1.234459,-0.5556997
1.623184,-0.8125596,-0.4600506
1.210794,-0.3803681,-0.4681403
1.023076,-0.2723459,-0.4758894
0.7655522,-0.1669785,-0.3798665
0.5865292,-0.08540682,-0.2205082
0.6895565,-0.1922988,-0.06715457
0.6353866,-0.2463434,-0.006072931
0.5850284,-0.2467803,-0.02826173
0.6066246,-0.2094919,-0.06003294
0.5078839,-0.08468438,-0.07748665
0.5600497,-0.08691017,-0.07840149
0.6074177,-0.1258714,-0.07765745
0.5813806,-0.09401164,-0.1269508
0.6597923,-0.1268141,-0.1958807
0.6918608,-0.1666823,-0.2310008
0.7203763,-0.2313658,-0.2607056
0.7790278,-0.308692,-0.2952379
0.863546,-0.2952176,-0.3094729
0.9541805,-0.2951208,-0.2868548
0.8984311,-0.3254274,-0.3359308
0.8121864,-0.339668,-0.6210919
0.8519951,-0.3574666,-0.9736476
1.154095,-0.3968829,-1.067205
1.649404,-0.4909524,-1.081183
1.834435,-0.5385202,-1.219983
1.702622,-0.5173829,-1.122333
1.569307,-0.5100147,-0.7968801
1.289722,-0.4130371,-0.5138615
1.000229,-0.2402612,-0.2906645
0.879176,-0.1356506,-0.3311077
0.6544029,-0.02024087,-0.3773588
0.5281486,0.0896307,-0.2671386
0.5920497,0.03523759,-0.3535362
0.5083284,-0.02525942,-0.3633062
0.4490722,-0.01102868,-0.2913855
0.4628807,-0.05437952,-0.3197505
0.4434014,-0.06211812,-0.2492646
0.5536757,-0.08252968,-0.2710112
0.6916339,-0.1550213,-0.3036396
0.739445,-0.1318541,-0.27562
0.769675,-0.1583754,-0.3864937
0.8472558,-0.2341705,-0.4568473
0.9031664,-0.2079647,-0.4640145
0.8432127,-0.165333,-0.4349295
0.80232,-0.1135591,-0.3602556
0.7796299,-0.07559141,-0.341258
0.780929,-0.1367643,-0.4386758
0.9159521,-0.3020614,-0.6338442
1.004215,-0.4624128,-0.6672532
1.059328,-0.4913376,-0.6775294
1.320126,-0.6898041,-0.7731358
1.657368,-1.129903,-0.5462514
1.687053,-1.156289,-0.3214027
1.422122,-0.7812847,-0.5153531
1.185239,-0.4897786,-0.6360331
0.902957,-0.1506228,-0.4270553
0.6401666,0.08946546,-0.2574296
0.6274747,0.03811438,-0.2197501
0.6455677,-0.06430746,-0.07530112
0.6165339,-0.2052305,0.06825937
0.5779152,-0.2391384,-0.01263308
0.5167918,-0.1563992,-0.1573216
0.4993143,-0.13709,-0.1825656
0.4804947,-0.07116116,-0.2088982
0.4932444,-0.08378537,-0.2385148
0.5337463,-0.1938271,-0.1774312
0.6347883,-0.2720906,-0.2024882
0.861643,-0.3406121,-0.2926339
1.032792,-0.2653375,-0.3828941
1.063079,-0.147007,-0.476973
0.9785846,-0.1262357,-0.3831858
0.8537408,-0.1505552,-0.2987612
0.7885125,-0.2482179,-0.3341393
0.7947496,-0.31825,-0.4004977
0.9386955,-0.3295328,-0.7075805
1.201432,-0.3494092,-1.067948
1.545123,-0.3391242,-1.19935
1.804669,-0.285866,-1.158098
1.62259,-0.2367817,-0.9977575
1.265025,-0.3345848,-0.779552
1.153392,-0.4520767,-0.5744815
1.004812,-0.3338236,-0.4308338
0.7821714,-0.1672771,-0.320222
0.6847937,-0.05449787,-0.2898868
0.5823345,0.0670751,-0.3168142
0.5583011,0.07864242,-0.3428863
0.5658719,0.03691533,-0.4441736
0.5267505,0.01442305,-0.4368128
0.6168962,-0.05569062,-0.3315809
0.6777472,-0.1349108,-0.3098305
0.6890799,-0.1810174,-0.3000885
0.7201144,-0.2055473,-0.3229462
0.707333,-0.2246164,-0.3119099
0.7689325,-0.2158698,-0.3029941
0.8471292,-0.1894889,-0.3489964
0.9085851,-0.1907653,-0.3296589
0.9119729,-0.136839,-0.3707304
0.8254574,-0.0356345,-0.4133849
0.8225025,0.000120535,-0.4003178
0.8362035,-0.006651983,-0.5115239
0.8599417,-0.05241697,-0.6474634
0.9146808,-0.176053,-0.6979575
1.029544,-0.4261636,-0.7332248
1.440092,-0.9430649,-0.7642665
1.814398,-1.411587,-0.6105422
1.715377,-1.072058,-0.4177007
1.505191,-0.4241087,-0.5691194
1.42843,-0.4201411,-0.6711098
1.058179,-0.2634742,-0.4176368
0.5762742,0.1744202,-0.2264015
0.5952691,-0.02042855,-0.1688963
0.6900275,-0.2159057,-0.06411111
0.5688554,-0.1908929,0.00215556
0.5967241,-0.3272532,-0.08735676
0.601987,-0.2151167,-0.2043623
0.5671886,-0.1103981,-0.2196971
0.6935569,-0.197236,-0.2532105
0.7703455,-0.2181411,-0.276179
0.7711444,-0.3080236,-0.2446049
0.7315626,-0.3432998,-0.2606079
0.6475032,-0.3022268,-0.273419
0.681784,-0.3098496,-0.2986128
0.7580725,-0.2698302,-0.3516128
