accx,accy,accz
1.526028,-0.3871104,0.2544256
1.902178,-0.3301101,0.2571878
1.87759,-0.139636,0.2484444
1.567913,-0.02729906,0.2950328
1.450057,-0.09594871,0.3365836
1.502518,-0.2285665,0.3913056
1.441875,-0.172008,0.3847649
1.27753,-0.09217939,0.2928862
1.035803,-0.1159498,0.2580601
0.8766535,-0.07075475,0.2139122
0.7737125,-0.07622272,0.1768981
0.7311228,-0.05347252,0.2084916
0.762425,0.01141741,0.18626
0.6668368,-0.03995294,0.1673347
0.5713889,-0.0591969,0.1721185
0.5326794,-0.1067587,0.1513936
0.5393047,-0.09897037,0.1496062
0.5801551,0.001590275,0.1372765
0.5450055,-0.03839002,0.1345201
0.6013398,-0.06544536,0.1327728
0.6819409,-0.0727444,0.1033688
0.6878246,-0.04962076,0.09884113
0.7282493,0.04443652,0.1496527
0.7638182,-0.02117916,0.2428991
0.8385014,-0.1101238,0.2501801
0.9772187,-0.1558272,0.1500276
1.297025,-0.2176975,0.02123386
1.640899,-0.224465,-0.08942477
1.57311,-0.2546662,-0.05288575
1.474498,-0.1644915,0.02719513
1.625456,0.09540366,0.04192356
1.612708,0.247241,0.1183525
1.476438,0.1211045,0.1565572
1.342316,-0.1053227,0.1160102
1.159902,-0.0936532,0.1228499
1.116345,-0.04964469,0.09970567
1.129221,-0.1188741,0.03860724
1.018865,-0.08596663,0.01310775
0.8705087,-0.05643691,-0.01025984
0.790237,0.03158064,-0.03020083
0.8279138,0.1588321,-0.02547089
0.8232416,0.1238172,0.006979031
0.7348615,0.08032162,0.02853558
0.6796126,0.03058176,-0.01623991
0.6358242,-0.01471638,-0.06116241
0.664375,0.004794637,-0.02711496
0.6973443,-0.02288623,0.05942539
0.7182603,-0.02077639,0.1586885
0.8022567,0.05708659,0.1996152
0.7890939,0.1571455,0.1424213
0.7869697,0.209248,0.1124223
0.9066283,0.1909311,0.1368786
0.97634,0.1933297,0.1081957
0.9533774,0.1076015,0.05976399
0.9310973,-0.1325403,0.05352928
1.094647,-0.3548464,0.1620536
1.412102,-0.4091923,0.31164
1.671929,-0.2193341,0.2704296
1.748857,-0.04515826,0.2406529
1.667087,-0.1987698,0.3902337
1.625971,-0.3257059,0.4325033
1.489333,-0.1584701,0.3570902
1.18461,-0.05131622,0.3230945
1.035225,-0.0496801,0.3273217
0.9734098,-0.02404508,0.3170361
0.8848723,-0.02309309,0.2486647
0.8565469,0.009008379,0.2405147
0.8024375,-0.05387026,0.2834052
0.7390492,-0.1763975,0.2761529
0.7185543,-0.1385733,0.2736336
0.6950766,-0.07893964,0.23394
0.6649643,-0.04153431,0.1715372
0.6356316,-0.01365477,0.1504443
0.6344379,-0.06566881,0.1367708
0.6590504,-0.08045111,0.1395874
0.6655536,-0.06005348,0.1267758
0.6612213,-0.06675211,0.1054113
0.671519,-0.07922138,0.1099611
0.6966078,-0.09482918,0.1328906
0.7293642,-0.06792765,0.1873382
0.7395768,-0.04580988,0.2302821
0.7359991,-0.08647337,0.247482
0.8328804,-0.1272123,0.1901257
1.183978,-0.16487,-0.01140407
1.689518,-0.2363639,-0.1805825
1.883614,-0.2585729,-0.1180267
1.758931,-0.134753,0.03106522
1.745748,0.03035834,0.07916583
1.621419,0.07209589,0.1035168
1.262846,-0.01187318,0.1067551
1.122659,-0.0718308,0.1163412
1.128708,-0.01411763,0.1717729
1.067543,0.01936079,0.08084578
1.012522,-0.01432156,-0.005203621
0.903916,0.00985306,0.02865522
0.8106391,0.07395822,-0.03544852
0.8434872,0.1508028,-0.07060934
0.8998095,0.1931243,-0.01285985
0.8947928,0.1564874,0.03875836
0.8216212,0.1197381,0.07182747
0.7078369,0.0730811,0.02283208
0.6624463,0.05144334,-0.008161136
0.705374,0.1038413,0.05359853
0.707006,0.1246099,0.1319579
0.729015,0.1485296,0.1616562
0.8277248,0.2151536,0.1300803
0.9030523,0.2334492,0.07722157
1.002138,0.1982982,0.001106245
1.052347,0.1089512,-0.04382433
0.9356583,-0.02657131,-0.04142846
0.797818,-0.1549011,-0.03734818
0.7843509,-0.272903,0.01420686
0.9598218,-0.3724748,0.09076279
1.324639,-0.3500814,0.1327229
1.710758,-0.1594871,0.1397033
1.83565,-0.01317221,0.1709562
1.71141,-0.04679972,0.2893659
1.620339,-0.06536298,0.3566265
1.467756,0.03256961,0.2520245
1.167671,0.08521757,0.1391695
1.016086,0.05359071,0.1203177
0.9705221,0.0332162,0.09735441
0.8550459,-0.000836947,0.07061937
0.8036421,-0.05601924,0.06828847
0.82243,-0.1382761,0.04180196
0.8451528,-0.23208,0.02375616
0.8649919,-0.2286351,0.04762669
0.8065789,-0.1898169,0.07858303
0.7048283,-0.1557469,0.08939979
0.6377446,-0.1080208,0.06670091
0.6191737,-0.1068359,0.04893633
0.6443977,-0.09372654,0.08466385
0.6550617,-0.08987742,0.1244527
0.6327755,-0.1330357,0.1291047
0.6263152,-0.160795,0.1701655
0.669369,-0.1846363,0.2364266
0.7419448,-0.1692153,0.2486389
0.8088355,-0.1128481,0.2458447
0.8700026,-0.04991084,0.2548506
0.9544695,-0.02287789,0.1953515
1.177849,-0.1396802,-0.03997493
1.539783,-0.299237,-0.2906458
1.740187,-0.378425,-0.2298942
1.722269,-0.3841777,-0.09492263
1.713681,-0.1496171,-0.1235015
1.630198,0.2551067,-0.04356588
1.500563,0.3479103,-0.007886187
1.460095,0.09760515,-0.06918935
1.316341,-0.07951032,0.02394274
1.199199,-0.1172719,-0.01206152
1.142444,-0.1284793,-0.08795323
0.924726,-0.1015471,-0.009840052
0.8268162,-0.06228896,-0.03781608
0.8393519,-0.01185477,-0.03305888
0.8056614,0.03372851,-0.01191749
0.8705843,0.04629353,-0.06620782
0.9186133,0.04698191,-0.03563317
0.9531072,-0.002804066,-0.01991441
0.9561386,-0.08764538,0.04071151
0.8892525,-0.1197732,0.1357014
0.8970441,-0.09588027,0.1240574
0.8520819,-0.07489123,0.08748764
0.8048373,-0.05695111,0.01832738
0.8074836,-0.02563494,-0.01551244
0.7253994,-0.05053692,0.01614158
0.709549,-0.1013027,0.04010721
0.7448575,-0.08187075,0.07315244
0.7520955,-0.00536688,0.06001142
0.7651945,0.0769033,0.009062937
0.7498521,0.05410612,-0.04433722
0.7751322,-0.05176403,-0.07289736
0.8172053,-0.114403,-0.02965335
0.8827235,-0.1790553,0.064885
1.126316,-0.2626425,0.2592229
1.590173,-0.3287367,0.4417036
1.97871,-0.3143782,0.4198848
1.897752,-0.2431892,0.3345157
1.669983,-0.2750028,0.2972649
1.602945,-0.2800861,0.2473322
1.422492,-0.2300849,0.2325085
1.229062,-0.2504105,0.2489978
1.068588,-0.1921848,0.2363789
0.8380917,-0.1127757,0.2158002
0.7040112,-0.05562689,0.1854784
0.5964703,0.001754255,0.1699918
0.5672814,-0.07723091,0.1810605
0.6374605,-0.137068,0.1780513
0.6398795,-0.1335551,0.1965355
0.7241402,-0.1372157,0.2333571
0.8202878,-0.07115213,0.2366016
0.818863,-0.01598766,0.2050844
0.823508,0.006709723,0.1793588
0.8161705,-0.04834063,0.218185
0.8604034,-0.1615115,0.2577139
0.8845771,-0.1642615,0.2184414
0.8056662,-0.1293515,0.1420201
0.7397377,-0.1063761,0.07838989
0.7016598,-0.0705527,0.09565703
0.6538688,-0.04403337,0.1626544
0.6064703,-0.02487481,0.1688244
0.6373204,-0.02572225,0.1653035
0.7158179,0.01801365,0.1900226
0.8233364,0.04494493,0.2099303
1.067398,-0.02477622,0.1958423
1.434571,-0.1504884,0.05951124
1.763116,-0.3286525,-0.06750781
1.780538,-0.3388365,0.00561457
1.691823,-0.0959433,0.09473214
1.705023,0.07990534,0.09888129
1.457263,0.04377139,0.1759296
1.144278,-0.05055307,0.2184629
1.037318,-0.07987542,0.1363069
1.094829,-0.1230611,0.09465997
1.223314,-0.159296,0.04773616
1.025395,-0.1054233,-0.007724834
0.8556574,-0.05249991,-0.01037269
0.9420878,0.03745473,-0.06374092
0.9178435,0.09037831,-0.04585864
0.9608424,0.01694662,0.04833888
0.9334977,-0.003438916,0.09693214
0.8140561,-0.007384354,0.121176
0.7727953,-0.006612716,0.04965741
0.6326165,0.04600473,0.01818264
0.591311,0.02894472,0.05790107
0.594089,-0.01152486,0.04533744
0.5798851,-0.04840844,0.06106092
0.6728856,-0.06824041,0.01712563
0.7222567,-0.03254656,-0.03331734
0.8271712,-0.02257289,0.02415642
0.8973538,-0.0008230022,0.05556952
0.843045,0.03583628,0.06775199
0.8540942,0.04251418,0.0879225
0.8621183,-0.003568465,0.1059793
0.8972652,-0.203853,0.1597588
1.146764,-0.3763756,0.2546973
1.664645,-0.2820156,0.3073803
1.985579,-0.1176454,0.3238426
1.61295,-0.1061079,0.4373331
1.25585,-0.215885,0.480007
1.440962,-0.3037886,0.3844324
1.446005,-0.1827504,0.3387868
1.236307,-0.01361953,0.3128637
1.195387,-0.07514778,0.2972759
0.9928597,-0.1073188,0.2676954
0.8157169,-0.04347358,0.2036942
0.7931703,-0.1013113,0.1969727
0.6269513,-0.1240705,0.2033068
0.6311544,-0.1202931,0.2034549
0.7093578,-0.09982722,0.204571
0.6359995,-0.009454083,0.192639
0.6434911,-0.04911178,0.1776818
0.6068362,-0.08708469,0.1457926
0.6106269,-0.06240187,0.1506028
0.6947608,-0.09934908,0.1578316
0.6799324,-0.06895419,0.1300692
0.7488577,-0.04463022,0.1414039
0.8475385,-0.0786413,0.1575314
0.8542009,-0.06641044,0.1660071
0.8147612,-0.03404249,0.1960979
0.7469052,-0.0009950529,0.2206018
0.746216,-0.0293091,0.2333584
0.8065817,-0.08867202,0.1848575
1.05037,-0.1179658,0.02567792
1.515024,-0.2153738,-0.1304378
1.788496,-0.309865,-0.07750358
1.751438,-0.2385231,0.1079472
1.721844,-0.003345581,0.1867072
1.679296,0.2479403,0.197106
1.438845,0.2751717,0.1861517
1.232451,0.1389958,0.1641566
1.188532,0.07713975,0.1581907
1.142729,-0.004986595,0.07778848
1.038534,-0.06603629,0.04371238
0.8807062,0.04856901,0.08485792
0.8068215,0.141054,0.06558849
0.8725799,0.18309,0.0738819
0.9262445,0.2108734,0.08154163
0.9208151,0.1802418,0.06960305
0.8875211,0.2121562,0.07429928
0.8253005,0.2059625,0.009549286
0.7372867,0.1604367,-0.06424656
0.7299921,0.1693933,-0.07354946
0.7921544,0.09744269,-0.01289021
0.8211413,0.04502002,0.05243998
0.8501587,0.07708825,0.04960203
0.8400766,0.1463189,0.04612932
0.8361831,0.2849885,0.05527053
0.8962542,0.3432813,0.05344418
0.9169646,0.2509635,0.01225365
0.886738,0.09459201,-0.04642535
0.8278539,-0.06225759,-0.04568652
0.7906656,-0.204817,-0.06579522
0.8561453,-0.3984075,-0.1030547
1.159662,-0.6824542,-0.05891087
1.554129,-0.8678828,0.003201692
1.597825,-0.6438852,0.04900739
1.670131,-0.1969737,0.09375953
1.999244,0.03219769,0.09715964
1.830843,0.02091794,0.07917156
1.382094,-0.04471995,0.08779638
1.183445,-0.03961527,0.1190773
1.043216,-0.07499467,0.1480943
1.099206,-0.1715392,0.1292197
1.105036,-0.1504538,0.09813671
0.8836303,-0.1696545,0.1216348
0.8108804,-0.2543175,0.1410567
0.7611719,-0.2444218,0.1375645
0.7864629,-0.2176527,0.1138685
0.8103588,-0.1870312,0.06800979
0.6795931,-0.2149961,0.09226781
0.6954872,-0.2647671,0.129664
0.714952,-0.2128226,0.1235881
0.8102836,-0.1554072,0.1612863
0.964538,-0.09432988,0.1744054
0.8825547,-0.07566066,0.14946
0.8563548,-0.1092755,0.1671637
0.8348188,-0.1106769,0.1724704
0.7418094,-0.1724071,0.1712431
0.7349589,-0.1902671,0.1707113
0.6763724,-0.1109192,0.1266336
0.6018006,-0.05071253,0.08669425
0.5993707,0.04511332,0.08197809
0.7005011,0.06267668,0.1237848
0.8355976,-0.0490126,0.1811629
0.897078,-0.113753,0.1848752
0.9017015,-0.1106153,0.1683485
0.8796548,-0.08497376,0.1545681
0.9742398,-0.09853983,0.09651668
1.260432,-0.1675862,-0.04903303
1.636539,-0.2793911,-0.1852627
1.765361,-0.3594315,-0.09833612
1.596312,-0.1922463,0.06419371
1.531751,0.1020266,0.08540288
1.466974,0.2028585,0.1413218
1.362202,0.08316358,0.1694233
1.351179,-0.03202878,0.1082641
1.221286,0.01156487,0.1424572
1.160545,-0.03890914,0.07949557
1.149779,-0.1770109,-0.01246689
0.9613935,-0.09395365,0.04360701
0.8274371,0.04879512,-0.01269944
0.7892383,0.1421342,-0.05879975
0.8624234,0.1616397,0.01429026
0.9158204,0.04456144,0.03930907
0.7950352,0.009356228,0.03444144
0.735124,0.01130489,0.003229154
0.6875584,-0.00556604,-0.003716794
0.6632901,0.02891815,-0.00441162
0.712735,-0.02150585,0.0223815
0.7334406,-0.04538525,0.1026688
0.8595898,0.004365155,0.0848101
0.9460068,0.0398491,0.06629676
0.9236296,0.1148628,0.08332318
0.93278,0.1335454,0.06764351
0.8791402,0.104928,0.0845563
0.836152,0.0432083,0.1004917
0.9455509,-0.137888,0.1767744
1.26819,-0.2890336,0.2958946
1.676448,-0.2690867,0.3453924
1.801636,-0.1681554,0.371983
1.608822,-0.1419281,0.3235288
1.469939,-0.1685758,0.246349
1.445759,-0.2079909,0.3263078
1.272027,-0.2464327,0.4054784
1.117756,-0.1714552,0.3243156
1.046073,-0.09119039,0.2805021
0.8600098,-0.0960278,0.2810292
0.801325,-0.06780385,0.2211259
0.8078569,-0.04154346,0.2213935
0.7387859,-0.09339116,0.2492118
0.7818311,-0.1570468,0.2335058
0.7761524,-0.1531269,0.2142174
0.7309354,-0.1176066,0.1788659
0.7481748,-0.08504838,0.1755241
0.7267894,-0.06865281,0.189612
0.752038,-0.09263768,0.1646756
0.7657264,-0.1000487,0.1420467
0.7452937,-0.09445154,0.1290193
0.7701934,-0.08038644,0.1255396
0.7845159,-0.04846044,0.1281066
0.8195714,-0.07402843,0.1174904
0.8316828,-0.137902,0.1051638
0.8225792,-0.1711386,0.08882491
0.8398927,-0.1047149,0.09097204
0.8087056,0.01356804,0.128857
0.7947956,0.01095924,0.1831398
0.8093539,-0.04290753,0.2372428
0.8096169,-0.04429976,0.2342431
0.896815,-0.05973284,0.1732131
1.201435,-0.1156896,0.0276054
1.694763,-0.2216314,-0.2179335
1.923749,-0.26557,-0.2617352
1.730101,-0.1600751,-0.06333577
1.56301,-0.06861921,0.03926304
1.431112,-0.05352082,0.1081499
1.242218,-0.03304245,0.2097539
1.224517,0.01980621,0.1831072
1.219256,0.07367844,0.1228576
1.162967,0.04824103,0.09590947
1.123637,-0.02097989,0.05527143
0.9428528,-0.03560048,0.0534564
0.8589324,0.02473714,0.05429175
0.9248438,0.1072893,0.008092351
0.9116554,0.09645932,0.01611081
0.9441474,0.04460203,0.06815265
0.9325462,0.04444913,0.08416992
0.8327568,0.02071266,0.101293
0.7704504,0.00364244,0.07379831
0.663352,0.01660101,0.02434606
0.6104314,-0.005159509,0.03139881
0.6849939,-0.03570338,0.03118585
0.820125,-0.07602279,0.03763141
0.9542322,-0.08734479,0.04055947
1.007965,-0.03525555,0.031307
1.016208,0.02688986,0.06060901
0.9830865,0.09475893,0.08291248
0.9319422,0.1080938,0.0984967
0.8646996,0.05837737,0.08594535
0.7665579,-0.005958156,0.07846403
0.7975179,-0.163311,0.1727135
1.024067,-0.3558747,0.2567302
1.362846,-0.3877813,0.2637328
1.65499,-0.2418509,0.2994362
1.769757,-0.1317479,0.3758061
1.676459,-0.1851643,0.3928714
1.426206,-0.19686,0.372753
1.236291,-0.07262599,0.3653623
1.124575,-0.004295689,0.3230953
1.026158,-0.02936685,0.3214286
0.9796682,-0.04030777,0.3325578
0.9072326,-0.01421445,0.269885
0.8621461,-0.01435203,0.2467278
0.7874654,-0.0782809,0.2581563
0.6983095,-0.1396877,0.27688
0.7640757,-0.1361107,0.3016959
0.7735349,-0.06929465,0.2808429
0.7595248,-0.01124157,0.2657662
0.7934658,-0.01736329,0.2468479
0.7529161,-0.02647682,0.2306842
0.803988,-0.01228527,0.2408718
0.8399089,-0.008269735,0.2160439
0.7827074,-0.02317474,0.1919158
0.7868171,-0.05155941,0.1978731
0.8200631,-0.08256903,0.2162614
0.8691672,-0.1140602,0.2397067
0.8550978,-0.1117197,0.2473323
0.8289862,-0.05788268,0.2409199
0.8582665,-0.01178001,0.2308428
0.8350419,-0.02387038,0.2368155
0.8248009,-0.05096043,0.23152
0.8305633,-0.0603078,0.1863656
0.9032662,-0.1141792,0.08654821
1.215014,-0.1818016,-0.09855471
1.631172,-0.2134557,-0.2172287
1.814664,-0.2036413,-0.0970435
1.674262,-0.0501426,0.1094825
1.5677,0.1735505,0.1727641
1.556726,0.2374556,0.1303441
1.36632,0.1294905,0.1048787
1.183259,0.01288361,0.09363697
1.119273,-0.04846411,0.04567772
1.063565,-0.103596,-0.01969522
1.017064,-0.1142852,-0.01587693
0.9112061,-0.09229676,0.005806087
0.8656239,-0.04595982,-0.0173409
0.900319,0.08047099,-0.013226
0.8891656,0.1217648,-0.01207097
0.9164721,0.06128353,-0.02018326
0.9043766,0.05716228,0.00249264
0.8380001,0.05942883,0.0312232
0.81253,0.07095267,0.08565648
0.7767226,0.1093611,0.1112191
0.7778986,0.1150713,0.07518989
0.7743376,0.08492867,0.02844502
0.741168,0.03179518,-0.009240842
0.7691786,0.003534305,0.04152337
0.8101402,0.001670134,0.1413778
0.8592436,0.009957506,0.1469472
0.9050946,0.06301542,0.09876332
0.9199912,0.1096714,0.07458942
0.9158963,0.05088084,0.0744894
0.8820955,-0.09058802,0.09509597
0.9644396,-0.2411083,0.1364162
1.236099,-0.3668387,0.2004862
1.567258,-0.3465894,0.2145443
1.747839,-0.208094,0.1641783
1.678951,-0.1630285,0.1659142
1.627345,-0.1844957,0.2198384
1.558044,-0.1829938,0.2632124
1.288961,-0.1250533,0.2651064
1.175828,-0.05252612,0.2413202
1.189699,-0.0961288,0.2553328
1.081844,-0.1249222,0.2453244
1.069362,-0.08992485,0.2159633
1.03832,-0.1125642,0.2281951
0.8116986,-0.1273483,0.2146286
0.694055,-0.1467346,0.2130001
0.7228258,-0.1929976,0.2365462
0.6768302,-0.2052029,0.2378735
0.6650849,-0.1375658,0.2593576
0.7327378,0.002292219,0.2794494
0.714994,0.03937006,0.2840457
0.6761283,-0.02028968,0.2787809
0.6711282,-0.03764697,0.2648707
0.6841552,-0.05919092,0.2650312
0.7589429,-0.07120786,0.2442732
0.8157593,-0.03423165,0.2207911
0.8654223,-0.01434438,0.2143733
0.9213571,-0.0469856,0.1791659
0.9103854,-0.07939678,0.1431528
0.9135214,-0.05491834,0.1663841
0.9116006,-0.0336818,0.2258308
0.9522036,-0.1432378,0.07430086
1.149788,-0.3871364,0.1564549
1.443345,-0.4889235,0.2220108
1.601823,-0.2352741,0.2559959
1.626128,0.07921253,0.3072111
1.5798,0.08536151,0.3867243
1.546959,-0.04841497,0.4183475
1.524118,-0.1336263,0.3463654
1.43893,-0.1029174,0.3228535
1.309917,-0.07076592,0.3527831
1.151893,-0.1153257,0.337752
1.009788,-0.07749269,0.2964752
0.8485095,-0.0134246,0.2269655
0.6795043,0.004695341,0.2124524
0.6561849,-0.01823732,0.2378164
0.6643001,-0.08717077,0.2233524
0.6171149,-0.04907661,0.2347717
0.6389235,0.02405756,0.2462826
0.6300434,0.02887739,0.2343714
0.6067726,-0.001924351,0.2207573
0.6446873,-0.1320786,0.1883951
0.6257449,-0.1810306,0.1675019
0.6537699,-0.07385281,0.143641
0.7278666,-0.02200606,0.09291484
0.7393568,-0.04155684,0.06796826
0.7655108,-0.06355313,0.107556
0.8012727,-0.05943924,0.191611
0.8377426,-0.08246429,0.2668796
0.7926332,-0.1215816,0.2583938
0.7615141,-0.1176711,0.1894238
1.065533,-0.1343765,0.08366718
1.565198,-0.1338099,-0.1612265
1.84465,-0.1478925,-0.2765552
1.800517,-0.1525997,0.0005793968
1.714733,0.007137788,0.2262315
1.612131,0.1612537,0.1836327
1.403173,0.1484316,0.1752456
1.349901,0.06837976,0.2086623
1.289201,0.04127553,0.1423056
1.179331,0.02694963,0.059348
1.126698,-0.04839802,0.01493048
0.8658111,-0.07872528,-0.03944183
0.7830213,-0.06158848,-0.04092648
0.8569582,-0.04908216,-0.04368574
0.751785,-0.03606767,-0.07657746
0.8535201,-0.02592403,0.03577198
0.8970558,0.001781893,0.1267822
0.7517999,-0.005967011,0.04931219
0.7023068,0.01281104,-0.0126537
0.6278437,0.07052655,-0.02277123
0.6451042,0.05092262,-0.01899873
0.6695274,-0.01824366,-0.004221018
0.7210428,-0.1106364,0.0620015
0.9068639,-0.1187431,0.1524036
0.9175913,0.0001138492,0.1391102
0.8774829,0.1081931,0.07352418
0.8752431,0.1501279,0.02742607
0.8107389,0.07167369,-0.01173666
0.826048,-0.09927229,0.01047597
0.9868725,-0.2900226,0.1487308
1.357576,-0.3553299,0.3285321
1.676266,-0.1123976,0.3763618
1.667726,0.07944431,0.332083
1.653068,-0.09426241,0.3979378
1.697831,-0.2095805,0.4654346
1.501146,-0.06845446,0.3644407
1.240795,-0.01423549,0.2883897
1.092117,-0.07811143,0.3296519
0.911612,-0.08741068,0.3298772
0.8251782,-0.1002043,0.295265
0.8142399,-0.07207697,0.2792215
0.7155829,-0.002627543,0.2546252
0.6708333,-0.04799334,0.2483444
0.6731081,-0.07778713,0.2634273
0.6435978,-0.0226652,0.2488199
0.612297,-0.01565297,0.2081753
0.5894677,-0.02369526,0.1741661
0.6058062,-0.0412424,0.1666146
0.6422887,-0.09326412,0.1574458
0.6682744,-0.1124465,0.1031599
0.6753406,-0.05968756,0.09916481
0.7244731,0.0005923876,0.1744786
0.8086605,-0.03786226,0.2326758
0.8108945,-0.1146252,0.2694694
0.8040261,-0.1352912,0.2607975
0.9046059,-0.08509045,0.2273911
1.047739,-0.005068877,0.1905655
1.148507,-0.04968361,0.1064891
1.327698,-0.1719066,0.02131612
1.671057,-0.2326346,-0.03622888
1.90151,-0.2468551,0.06857475
1.870961,-0.1484635,0.250627
1.651202,0.1016667,0.1831232
1.334629,0.3490454,0.1445809
1.278144,0.285108,0.2864406
1.375765,0.05189837,0.2724601
1.280518,0.0379051,0.1693989
1.247037,-0.0471767,0.06323188
1.103017,-0.1192661,0.0003125426
0.7618642,0.05731926,0.02934723
0.7080205,0.08457859,-0.03722008
0.7462876,0.108044,-0.05970607
0.77538,0.129121,0.01266941
0.9154727,0.02941878,0.04649678
0.9290626,0.09114203,0.1162232
0.8496209,0.09499248,0.05324653
0.728926,0.1153297,-0.07092422
0.6368203,0.2003212,-0.02991435
0.6490202,0.09610325,0.01485312
0.6773056,0.01393301,0.0450292
0.7387433,-0.0881218,0.05351958
0.7589586,-0.1478615,0.03108789
0.7740321,-0.03346843,0.08787851
0.8458648,0.03357572,0.1130184
0.8427809,0.05706942,0.07141928
0.7535476,-0.01825022,0.03019942
0.7115022,-0.2349091,0.02087597
0.9786681,-0.5062883,0.1509984
1.487246,-0.6344369,0.3425184
1.809958,-0.3797337,0.3978597
1.844482,-0.0686691,0.341044
1.717527,0.01656335,0.3211238
1.52823,0.03530621,0.3312601
1.361732,0.05506533,0.3244258
1.279936,0.07210977,0.3506772
1.24974,0.03606641,0.3687372
1.157369,-0.03324167,0.3635727
1.032781,-0.03480676,0.3385571
0.9176023,0.006281856,0.2431855
0.7964998,0.02789039,0.1716473
0.7146169,-0.02808353,0.1654565
0.6699611,-0.09421922,0.2017278
0.6648175,-0.0585779,0.2487746
0.6561672,-0.01490944,0.2120082
0.6018076,-0.00118853,0.1751794
0.5926966,0.02504568,0.1830615
0.6214789,0.03226443,0.1759844
0.6731922,0.0830906,0.1915914
0.7586584,0.154361,0.1912825
0.7847813,0.1400361,0.1484159
0.81337,0.1317453,0.1030199
0.91516,0.1539579,0.1002035
1.013709,0.1311082,0.1740374
1.096743,0.1126479,0.2229371
1.076826,0.1046753,0.1767475
0.9322967,0.08374462,0.09055417
0.9179643,0.01441603,-0.03305829
1.106372,-0.2184259,-0.2838631
1.334076,-0.4371052,-0.4999969
1.569987,-0.368023,-0.275617
1.795079,-0.2698474,0.111621
1.803603,-0.2977122,0.1149505
1.619697,-0.148712,0.04050194
1.526265,0.01481543,0.0971814
1.378034,-0.06484027,0.0701269
1.177749,-0.1135305,0.06746607
1.089423,-0.08886915,0.05870096
0.8685066,-0.1041531,-0.02108237
0.7445666,-0.08203821,-0.03495285
0.741462,-0.07557661,-0.02000119
0.7124808,-0.05779026,-0.001438355
0.9195383,0.03044804,-0.007369007
0.9774589,0.06033049,-0.01106772
0.9157939,-0.005688897,0.05581343
0.8957753,-0.07657126,0.07536607
0.6890473,-0.08366719,0.007833286
0.6789706,-0.05071543,-0.07962458
0.7236955,-0.04799204,-0.08416934
0.7021208,-0.09337618,-0.04368675
0.8016636,-0.1583627,-0.03896489
0.8186234,-0.1547976,0.09866137
0.8703376,-0.0295373,0.2405889
0.8725872,0.1100795,0.1587644
0.8345587,0.1448146,0.02500064
0.8998619,0.1012425,-0.05624436
0.8906575,-0.05103713,-0.06753433
0.9938501,-0.3808189,0.03755513
1.28535,-0.5754592,0.1758753
1.601656,-0.4269583,0.2478617
1.757227,-0.255943,0.2461314
1.718161,-0.1713238,0.2417554
1.714759,-0.1511253,0.2731566
1.539228,-0.2060638,0.3109538
1.252785,-0.1319307,0.371059
1.276682,-0.07604188,0.4251422
1.309493,-0.1144153,0.377832
1.113725,-0.0483144,0.297991
0.9089801,-0.03734524,0.2652508
0.6880766,-0.0479843,0.2210808
0.5045553,-0.0489907,0.1898031
0.5141141,-0.1262121,0.2078403
0.5645945,-0.05660918,0.2202296
0.5511201,0.007333698,0.2102187
0.4918794,-0.06459252,0.1880196
0.3866795,-0.08810589,0.1483885
0.3855072,-0.1062577,0.1334475
0.475377,-0.05242804,0.1509029
0.5746706,0.04963738,0.1500598
0.7501699,0.01998486,0.1695067
0.8937894,-0.1140034,0.2040313
0.9471467,-0.2823077,0.184038
1.015724,-0.3363097,0.1389643
1.033781,-0.2431005,0.09667129
0.8954907,-0.156974,0.08228606
0.7944987,-0.1097598,0.07315034
1.026697,-0.1520826,-0.04534429
1.562393,-0.2623177,-0.1815768
1.975122,-0.2318889,-0.1421019
1.867747,-0.02959744,-0.01304891
1.605513,0.2125247,0.09552805
1.503513,0.2742714,0.1978106
1.255051,0.07257702,0.2045677
1.206025,-0.04490247,0.1582591
1.351802,0.0001898298,0.131317
1.131111,-0.02715015,0.03992347
0.9426647,-0.0500113,7.390556e-05
0.7976173,-0.01198325,0.01573212
0.6635245,0.03667431,-0.04040453
0.8727517,0.08077367,-0.04163695
0.9405258,0.08337662,0.02882601
0.9165714,0.04571636,0.08572821
0.8937888,-0.01634104,0.07148129
0.6781689,-0.02973607,-0.01672194
0.6541677,-0.01203823,-0.06826082
0.6366526,-0.02207819,-0.07676452
0.5934914,-0.01920907,0.01112456
0.6910628,-0.0226294,0.1201816
0.7241027,-0.03925815,0.09498612
0.8540608,-0.04499423,0.09607839
0.9299022,-0.01457482,0.09804265
0.915794,0.02885069,0.01867389
0.933313,0.001359498,-0.00391937
0.7938346,-0.05312167,-0.02424402
0.7952793,-0.1123278,-0.01382283
0.9891279,-0.2131043,0.1556772
1.282255,-0.2654942,0.3208018
1.709987,-0.1746967,0.3451525
1.807605,-0.01285676,0.386456
1.678286,0.02954402,0.514333
1.614094,-0.04720117,0.5407671
1.362139,-0.06954995,0.4341772
1.1529,-0.01168403,0.3424833
1.16818,0.03133569,0.3279242
1.083284,0.003698038,0.3348997
0.9112841,-0.02089693,0.2657714
0.8094672,-0.005395536,0.2103341
0.7237405,-0.02715324,0.2099565
0.6968753,-0.05049491,0.1712493
0.730821,-0.05050867,0.1716746
0.6741396,-0.05650175,0.1630592
0.5780175,-0.05226353,0.08945507
0.5301924,-0.06981061,0.06578494
0.5254028,-0.09048156,0.07048527
0.5719623,-0.0900284,0.08612325
0.5856228,-0.09335745,0.1048593
0.6343576,-0.09346037,0.1335809
0.7519439,-0.12007,0.1973133
0.7922695,-0.1650854,0.2186708
0.7998036,-0.1809005,0.2096687
0.8305444,-0.1629505,0.1655371
0.9741687,-0.1531509,0.05882939
1.286295,-0.2155717,-0.04439773
1.573439,-0.2880611,-0.07013174
1.756746,-0.2518159,0.05000791
1.871447,-0.07951316,0.1578625
1.854674,0.09853372,0.1199471
1.574879,0.1172105,0.1329706
1.266945,0.1163977,0.2273901
1.354623,0.1596168,0.2167507
1.440945,0.07126198,0.1156134
1.217144,-0.007809782,0.03546883
1.126756,0.01508449,0.01378454
1.053094,0.04936085,0.03628401
0.8553348,0.1244903,0.02023857
0.8643378,0.114601,0.001829387
0.8509603,0.08103837,0.04598128
0.6730005,0.1521028,0.0545932
0.624996,0.1674705,0.03423111
0.6089819,0.2053683,-0.01808871
0.4969532,0.2781756,-0.1370316
0.4637607,0.2579442,-0.1876811
0.5316464,0.2388741,-0.152399
0.6144074,0.2071076,-0.1141414
0.7706413,0.1409834,-0.08182699
0.9163291,0.1036282,-0.0559945
0.970139,0.1099377,-0.05573583
1.054504,0.1214316,-0.07341768
1.043077,0.08635669,-0.0866972
0.9229755,0.01911857,-0.1510987
0.9728847,-0.1647477,-0.2273479
1.302806,-0.420673,-0.2088524
1.748385,-0.5042191,-0.1023546
1.810722,-0.4013812,0.002079615
1.648689,-0.2049221,-0.01679233
1.817477,0.01976242,-0.06633956
1.878719,0.08817851,-0.04523437
1.654722,-0.01634217,-0.03472851
1.477778,-0.06412151,0.005775536
1.285826,-0.1100078,0.05944966
1.154546,-0.207515,0.05705635
0.9944777,-0.1756872,0.04891834
0.7888536,-0.1479551,0.03601534
0.741998,-0.1390328,0.03534753
0.6935346,-0.04874658,0.03953261
0.6804522,-0.003117044,0.03798908
0.6805307,0.04827219,0.08403718
0.5781114,0.0509082,0.1181062
0.5447187,0.01504667,0.1026727
0.5375715,0.0482994,0.08639635
0.5488882,0.01599012,0.06504814
0.5990939,0.002620262,0.03044446
0.6325248,0.02064834,0.01432805
0.673169,-0.01918576,0.03906462
0.6646861,-0.04562901,0.08871627
0.7272223,-0.09341779,0.1432087
0.8430786,-0.08511983,0.1481805
0.8346099,-0.02569248,0.1395866
0.8267162,-0.02440475,0.1975884
0.8568439,-0.05396881,0.2200989
0.8921974,-0.1225528,0.1901257
1.086056,-0.1594894,0.08548983
1.544745,-0.1816974,-0.1688718
1.931067,-0.2285766,-0.2742442
1.861696,-0.2088726,-0.09248852
1.7031,-0.1499423,0.0521609
1.573206,-0.03683357,0.1008867
1.256801,0.03974257,0.2152085
1.234595,-0.01779132,0.2344817
1.351376,-0.02372385,0.09704612
1.152363,-0.003725922,0.05864156
1.020862,-0.02825094,0.03323823
0.8337828,0.02103406,-0.03374214
0.6582318,0.08919321,0.009854084
0.8286496,0.1056759,-0.005800381
0.85185,0.09077751,-0.0059481
0.8187999,0.08082867,0.06398219
0.8654535,0.09945711,0.01389579
0.7478698,0.09523782,0.01103818
0.7407853,0.06358337,0.03472935
0.7220041,0.02808316,0.03451134
0.6657596,0.005461597,0.09054106
0.7455115,-0.01752324,0.03864991
0.7686398,-0.09673873,-0.03188259
0.8563975,-0.1407095,-0.02298705
0.9778936,-0.07433735,0.01105428
1.054133,0.01704296,0.06911201
1.101572,0.1065896,0.05590517
0.9493717,0.1526961,0.06072479
0.8165829,0.1117479,0.1137009
0.8045731,0.05226632,0.1126232
0.8927841,-0.07817977,0.1949987
1.225161,-0.2962274,0.3318707
1.566505,-0.3585148,0.3420076
1.699069,-0.2287102,0.3342397
1.636459,-0.129226,0.3745238
1.560736,-0.1029162,0.3395009
1.485294,-0.1049974,0.3268281
1.202013,-0.1177921,0.3830489
1.053594,-0.1104771,0.355351
1.104372,-0.1010718,0.3148712
0.9881744,-0.06101999,0.2737042
0.8550153,-0.01109347,0.2130637
0.7538891,-0.05719104,0.2507155
0.6539005,-0.1012164,0.2648526
0.669581,-0.026634,0.2424241
0.6481298,0.06058942,0.2502071
0.5223192,0.09046966,0.1849279
0.4601798,0.07536856,0.1481053
0.5100563,0.01778418,0.172262
0.5584696,-0.02221926,0.1670148
0.6112578,-0.01911529,0.1648849
0.6868464,-0.04070606,0.1604895
0.7398388,-0.09648087,0.1768997
0.8416348,-0.1252894,0.2279562
0.9170686,-0.149675,0.2586653
0.915843,-0.1845388,0.1932788
1.073728,-0.1926422,-0.005583709
1.47363,-0.2630681,-0.1999672
1.859893,-0.3407373,-0.1944959
2.002159,-0.2536539,0.007564967
1.947877,-0.1239406,0.1351576
1.7307,0.02762068,0.09763098
1.365909,0.226009,0.1426735
1.159185,0.1871405,0.2612017
1.257676,0.04680559,0.2210989
1.304748,0.07345851,0.0718948
1.195597,-0.001516896,-0.001787617
1.172107,-0.06087314,0.004256452
1.024399,0.06990177,0.005177427
0.7805465,0.0649701,-0.03513795
0.8451052,0.04617668,-0.0422442
0.931523,0.05455097,0.00201456
0.8721869,-0.04866623,0.005879036
0.8750654,-0.04229818,0.05350561
0.797677,-0.04363373,0.08459005
0.6797324,-0.04942853,-0.01848812
0.6363336,0.04521436,-0.07097467
0.59673,0.05255763,-0.05657385
0.6129605,0.03569269,-0.009170852
0.686307,-0.05406133,0.05394462
0.7997032,-0.1593222,0.06252543
0.9394361,-0.03611908,0.1247671
1.011047,0.1827213,0.1612172
1.013054,0.2999484,0.06957045
0.9546861,0.1896492,-0.01098985
0.860383,-0.01132795,-0.003182337
0.8569409,-0.1346692,0.05858044
1.00794,-0.315417,0.1761982
1.27785,-0.3848833,0.3420977
1.526679,-0.1703017,0.3609578
1.67081,-0.03725759,0.3724532
1.809155,-0.2124305,0.5708863
1.822399,-0.3218349,0.5582356
1.490928,-0.0746935,0.3713971
1.126482,0.1314526,0.3292969
1.126363,0.03601445,0.3266396
1.156727,-0.00267757,0.341587
0.9382264,0.05798353,0.308578
0.8741518,0.02003559,0.272313
0.9046128,0.008065909,0.317909
0.7106868,-0.01555612,0.2811353
0.6095057,-0.09110044,0.2631667
0.6417343,-0.04432391,0.2526528
0.5683225,-0.008768661,0.1585306
0.5179796,-0.08616152,0.1323256
0.5592816,-0.1153769,0.1202752
0.6116865,-0.09676548,0.1292956
0.640646,-0.06973292,0.1640076
0.6871719,-0.01356547,0.15641
0.7604727,0.02631222,0.2135826
0.8102403,-0.002286602,0.2800949
0.8574533,-0.04397729,0.2913119
0.9156945,-0.02648309,0.2950054
0.9563864,-0.04280029,0.2726799
0.9856286,-0.09842466,0.1863743
1.174947,-0.1334236,0.01797984
1.503964,-0.2271199,-0.1274712
1.61627,-0.2768774,-0.128981
1.54828,-0.1475833,0.01369935
1.57035,0.0587629,0.137968
1.636631,0.1966727,0.1101101
1.606287,0.1600731,0.06413843
1.414836,0.01912426,0.07545151
1.141055,-0.08361238,0.0689023
1.036113,-0.1339825,0.04897861
1.0946,-0.1404936,0.02571872
1.018459,-0.1383818,-0.001791324
0.9000042,-0.1153871,-0.00975408
0.8691118,-0.04905096,-0.01392702
0.8122958,0.01073311,-0.01238669
0.8405645,0.07940586,0.02992537
0.8578506,0.07945826,0.07823764
0.7725519,0.01139889,0.08670499
0.7151044,0.03092761,0.04151447
0.6341741,0.03867053,-0.03297392
0.6283212,0.01406886,-0.05087367
0.6846686,0.02070175,0.01067802
0.7318606,-0.02042456,0.09889989
0.8583795,0.0003371503,0.1469877
0.8840849,0.09976941,0.1365289
0.8517824,0.1812342,0.1121391
0.9135376,0.2068585,0.06914616
0.9252158,0.1050939,0.02718958
0.9202642,-0.02079342,0.04830348
1.00535,-0.1620184,0.1287482
1.257731,-0.2966407,0.2329863
1.604826,-0.2536909,0.2938632
1.720613,-0.1948618,0.3038249
1.678133,-0.20893,0.347395
1.680451,-0.183977,0.3680158
1.479024,-0.1452556,0.3115977
1.165131,-0.0756164,0.3065074
1.153313,-0.04187517,0.3436728
1.222102,-0.08289706,0.3349981
1.105241,-0.07209157,0.2794932
1.014218,-0.04032384,0.1960654
0.9061558,-0.04814766,0.1865578
0.6921548,-0.09710876,0.1928203
0.6178876,-0.1626666,0.1556816
0.7000885,-0.1156022,0.193418
0.7253385,-0.02379647,0.2088116
0.6464564,-0.03089201,0.1797395
0.5783488,-0.07543545,0.1787769
0.5944299,-0.1187567,0.1360948
0.6428438,-0.1049567,0.1255761
0.6944566,-0.04250005,0.1293105
0.7102904,-0.04100802,0.09132309
0.6803335,-0.05910823,0.09694881
0.6787997,-0.07984231,0.100568
0.6897393,-0.09594331,0.1182037
0.7280133,-0.1216329,0.1876087
0.8099749,-0.2114711,0.2050111
0.8469204,-0.2229828,0.1602866
0.8701217,-0.1696083,0.1208924
0.9720771,-0.1734434,0.06906303
1.220712,-0.1835994,-0.09840373
1.631231,-0.2019987,-0.2429195
1.914532,-0.184001,-0.08587181
1.770474,-0.08736485,0.1294601
1.419814,0.07684379,0.1424797
1.213218,0.225891,0.1900669
1.208219,0.177976,0.2178783
1.279866,0.0713351,0.103225
1.218257,0.01522731,0.05535177
1.100348,-0.06822334,0.01486264
1.0245,-0.003602692,-0.02470277
0.9118774,0.116486,-0.005244418
0.9351061,0.09180523,-0.04616216
0.947107,0.06392133,-0.01666781
0.8248646,0.0331944,0.03017023
0.7856153,0.0183286,-0.005185076
0.6852566,0.04314819,0.007839626
1.647876,-0.1173517,0.4065424
1.560327,-0.1909615,0.3764618
1.308776,-0.09392288,0.2899087
1.182015,-0.118056,0.2873343
0.8756392,-0.1008164,0.2340346
0.697465,-0.04507908,0.201217
0.6542659,-0.06438881,0.1948046
0.5170622,-0.006644617,0.1600305
0.5652183,0.003689995,0.1751608
0.5443504,-0.005359235,0.137564
0.4219677,0.0046856,0.09747174
0.4337045,-0.08209251,0.1156339
0.4741231,-0.08385153,0.09592562
0.5659991,-0.01501932,0.0962854
0.5912738,0.02745548,0.1017586
0.6023897,0.05000132,0.1283931
0.7269266,-0.02718486,0.1949551
0.8384339,-0.1091511,0.221072
0.9394407,-0.182407,0.2273723
1.02547,-0.2615852,0.1991966
1.161591,-0.2852642,0.1176633
1.381161,-0.3109648,-0.03580972
1.540288,-0.3134994,-0.1426613
1.561533,-0.266718,-0.03109381
1.540114,-0.04447414,0.06842232
1.618696,0.3409115,0.03010536
1.645871,0.4061495,0.03240553
1.490536,0.1030947,0.0473831
1.27646,-0.07994883,0.03699282
1.157385,-0.04948024,0.04559787
1.148744,-0.0629924,0.02102337
1.010369,-0.13032,-0.02819774
0.8023477,-0.08447359,-0.037455
0.7444265,-0.03341942,-0.007190159
0.6774317,-0.06078171,0.01830838
0.5484437,-0.03593817,-0.001066692
0.4266705,0.01503802,-0.01884505
0.3208343,0.06939467,-0.0001429405
0.3355284,0.08974636,0.0119862
0.4718527,0.00172622,0.04386156
0.5796022,-0.04982101,0.08144879
0.6151402,-0.04017615,0.06048146
0.6922471,-0.04480008,0.04516738
0.7981582,-0.04507658,0.06189436
0.8220681,-0.09380129,0.06047903
0.9167433,-0.2004939,0.08062483
1.330203,-0.2945584,0.1801728
1.862782,-0.2561374,0.3308391
1.947932,-0.1116604,0.4411081
1.57628,-0.07244327,0.4766396
1.376782,-0.2080294,0.4891736
1.437602,-0.3572263,0.4846978
1.381559,-0.2517934,0.4144625
1.209335,-0.0660641,0.2879715
0.9852791,-0.06988527,0.235361
0.7727508,-0.04078285,0.2929007
0.6979141,-0.003036238,0.2960465
0.6417052,0.006413398,0.2394023
0.5571393,0.07344669,0.1992229
0.5150869,0.007408901,0.153274
0.5305996,-0.06711846,0.1549716
0.6085904,-0.08214631,0.1432685
0.6586779,-0.1238555,0.06613122
0.6586866,-0.09082008,0.04301178
0.6688082,-0.09365966,0.05222852
0.6919985,-0.09992725,0.04940999
0.7098956,-0.04349459,0.08014468
0.7341734,-0.02848392,0.1612452
0.7655054,-0.03165772,0.2412653
0.7617278,-0.1083781,0.2659973
0.8051564,-0.1805181,0.3055998
0.9842596,-0.1504585,0.2724418
1.373253,-0.1475176,0.009915937
1.809189,-0.1690165,-0.2162952
1.749105,-0.1274468,-0.1273828
1.528996,0.03491517,0.05432859
1.642242,0.2310816,0.08768998
1.489595,0.2259175,0.07450018
1.176095,0.03854284,0.0569248
1.083473,-0.08387673,0.03509221
1.007927,-0.09127389,0.06567721
1.10943,-0.08765675,0.06813931
1.078893,-0.03919345,0.06802164
0.9015722,0.07625609,0.06476243
0.8995933,0.1621536,0.01643737
0.7476925,0.1749468,0.03607057
0.7363782,0.1506354,0.0616264
0.7482826,0.1119639,0.05818625
0.5325553,0.0752324,0.04200622
0.5595117,0.09382479,-0.01086124
0.5653562,0.1068897,0.01455807
0.5902266,0.03040474,0.03709716
0.7636975,-0.07560353,0.00549534
0.8410659,-0.1562066,0.005349071
0.9495554,-0.1608965,-0.02156388
0.891388,-0.06351572,-0.02687292
0.7894736,0.04461204,0.01917084
0.8195332,0.02697601,0.09440017
0.9403688,-0.1303044,0.2410071
1.438656,-0.2216813,0.3664963
1.925629,-0.09590196,0.4091886
1.987093,0.02382232,0.4530968
1.816863,-0.1048289,0.4890105
1.473456,-0.2082737,0.4145695
1.08722,-0.09916591,0.3267646
1.051717,-0.05965973,0.3249655
1.205169,-0.08062146,0.2797202
1.022195,-0.05079424,0.2218764
0.8997066,-0.05142225,0.2109784
0.9155211,-0.03856038,0.1745677
0.7193427,-0.09150244,0.1669832
0.7131049,-0.1999827,0.1869646
0.6887712,-0.1868295,0.1903774
0.585756,-0.1069473,0.1904666
0.655867,-0.01879885,0.1844502
0.5853386,0.0378965,0.1949103
0.6449853,0.03086915,0.1891401
0.7416817,0.04809545,0.1469381
0.6802637,0.09888632,0.1144138
0.778721,0.1325622,0.132055
0.8120408,0.09378882,0.1734768
0.8346974,0.0344216,0.1726414
0.9204,0.07630136,0.1883849
0.9687516,0.1231024,0.219477
1.057431,0.1127289,0.1848532
0.9940501,0.09704928,0.1003594
0.9698796,-0.007393789,-0.03407261
1.197856,-0.2562005,-0.1080542
1.535923,-0.6009224,-0.05998099
1.76523,-0.729394,-0.06531546
1.679438,-0.3144156,-0.1083137
1.680836,0.223592,-0.0931275
1.858025,0.3268059,-0.1039244
1.752015,0.1580144,-0.1273854
1.466072,0.0429942,-0.1188097
1.16672,-0.04125103,-0.1191867
0.9694671,-0.1460685,-0.1133036
0.9544682,-0.1420984,-0.09206873
0.827493,-0.1014967,-0.06055927
0.6990462,-0.1156137,-0.03389492
0.7154297,-0.03050121,-0.08091933
0.6873422,0.05132281,-0.1491756
0.749192,0.04281453,-0.1351324
0.8483943,0.03352888,-0.09284949
0.9019274,-0.03978294,-0.08270547
0.9872694,-0.08954778,-0.1087048
0.9591066,-0.06745099,-0.1690806
0.9572133,-0.04902332,-0.1858663
1.031806,-0.01745826,-0.1239327
1.088692,-0.02775079,-0.06376981
1.18612,-0.04247152,-0.05093052
1.189047,-0.04975123,-0.07016513
1.165582,-0.1493542,-0.115317
1.185559,-0.3272619,-0.1589291
1.17916,-0.5004217,-0.1077737
1.210128,-0.5132915,-0.003993952
1.215531,-0.3811837,0.02332698
1.218421,-0.2313281,0.05555328
1.239201,-0.0702081,0.09859477
1.214266,-0.02296534,0.08664425
1.175461,-0.102831,0.1168
1.050421,-0.1898519,0.1463326
0.8905577,-0.2875944,0.1490025
0.858428,-0.274015,0.1742009
0.8232622,-0.1674933,0.1565212
0.6860356,-0.1482192,0.1478354
0.6799402,-0.1266691,0.1578001
0.7443483,-0.08670978,0.1485306
0.6712365,-0.0622665,0.1822237
0.6672176,-0.0111226,0.2012509
0.615168,-0.002891239,0.1831877
0.3865351,0.05619236,0.1681482
0.3244653,0.1212282,0.149314
0.3884966,0.03672142,0.1613287
0.4542213,-0.03974491,0.1690192
0.5613119,-0.06634612,0.1404629
0.6623823,-0.01640887,0.1245449
0.8214924,0.06212664,0.1406668
0.9674911,-0.06258541,0.1745994
0.975526,-0.197924,0.1856646
0.920438,-0.1823191,0.1528115
0.9753186,-0.1812337,0.06854301
1.264376,-0.2269494,-0.05699412
1.653014,-0.2953872,-0.1172739
1.815427,-0.3013636,-0.02211736
1.697382,-0.1653522,0.08243029
1.579572,0.0226498,0.05316618
1.446305,0.1130699,0.06494572
1.265415,0.07293543,0.1265892
1.264469,0.01851502,0.07539341
1.304722,-0.0586165,0.03708153
1.20857,-0.1409698,0.009588038
1.043913,-0.08025537,-0.04264533
0.8884153,-0.004955289,0.0002088824
0.8173407,-0.02162673,0.02060493
0.774236,-0.01302727,0.002727757
0.6732607,-0.00351297,0.002234525
0.5352108,0.01070932,-0.05336585
0.4414878,0.06454418,-0.05680991
0.4173056,0.06591149,0.01616653
0.4645756,0.004396727,0.08325564
0.5296938,-0.07819554,0.1091002
0.5249528,-0.1227498,0.05598839
0.5999338,-0.09488569,0.03167057
0.7804555,-0.04483293,0.06120012
0.9032469,0.004434352,0.07577929
0.9763886,-0.03347917,0.1126588
1.149313,-0.1703946,0.1984228
1.579497,-0.2165995,0.3412449
1.935934,-0.08307292,0.4617201
1.866978,0.05603257,0.5346703
1.700016,-0.01335542,0.5980326
1.569213,-0.08972171,0.5166788
1.357196,-0.006619244,0.3798323
1.23178,-0.03832933,0.3906346
1.084378,-0.1518614,0.4015541
0.823575,-0.191278,0.3402889
0.7059505,-0.161826,0.2808634
0.6107816,-0.02381421,0.2183487
0.5027398,0.04452314,0.1829904
0.540311,0.04683594,0.1484727
0.4977479,0.04175217,0.1061862
0.4492119,-0.08076213,0.08897064
0.5019455,-0.1502592,0.08408304
0.5027702,-0.1288604,0.102925
0.5690122,-0.05948705,0.09988927
0.6341008,0.04051653,0.1027526
0.6674501,0.02119648,0.1689986
0.8160989,-0.03386912,0.2396214
0.9338563,-0.06787441,0.2914368
1.04223,-0.08836874,0.2517899
1.309231,-0.1182418,0.0975546
1.586886,-0.2369765,-0.1086147
1.642475,-0.2893052,-0.2072417
1.582202,-0.20215,0.03297874
1.612081,0.00760767,0.2753542
1.627384,0.2459431,0.1974742
1.536325,0.2458227,0.1616464
1.388298,0.1072664,0.2055406
1.267275,0.04084551,0.1135575
1.218441,-0.0244586,0.02989411
1.091731,-0.05511486,-0.004312955
0.9000882,0.003996577,-0.03854565
0.8509494,0.02290955,-0.0439208
0.8899814,-0.01831382,-0.05004916
0.868979,-0.03049946,-0.02584619
0.8194273,-0.00452451,0.02452506
0.7101457,0.02547633,0.0270194
0.5206419,0.00878484,0.02206212
0.4642671,0.00618468,0.05152576
0.5314511,0.06940387,0.1228777
0.546236,0.09661535,0.1737195
0.6120387,0.04894297,0.06909123
0.7189487,-0.01291584,-0.08700335
0.7570465,-0.006689472,-0.1243988
0.8399129,0.02563863,-0.09617708
1.009807,0.04953251,-0.01190584
1.156413,0.1413954,0.1105536
1.119223,0.1650263,0.1127441
0.9425996,0.0137547,0.07201306
0.8935909,-0.2455014,0.1354872
1.012992,-0.4498191,0.1731319
1.406757,-0.3422611,0.2466031
1.950352,-0.1407021,0.5457403
1.946752,-0.1066466,0.7511385
1.47449,-0.01991723,0.4925713
1.125742,0.06663359,0.2110055
0.9960099,0.01660472,0.3566761
1.128263,-0.0578279,0.4414959
1.242215,-0.09652885,0.3216436
1.118417,0.007436527,0.2862948
0.9820123,0.1229716,0.1085244
0.7527975,0.04473433,0.0254397
0.6115973,-0.03785984,0.1401354
0.6937746,-0.03338298,0.05703813
0.6185074,-0.054978,0.05426426
0.5805043,-0.1089944,0.1180571
0.7013177,-0.1658788,0.08950647
0.751398,-0.1699846,0.1658895
0.8136486,-0.1099176,0.1680211
0.798147,-0.0489034,0.1787852
0.7456906,0.02580622,0.2717916
0.7665751,0.06943038,0.3012168
0.7746602,0.03483364,0.3450291
0.8611808,0.04278807,0.2459624
0.9443981,0.05848998,0.06802819
0.9600418,0.009167961,0.04522952
0.9289598,-0.02079418,0.0773721
0.9139013,-0.09194383,0.07002957
1.280681,-0.3774939,-0.05774994
1.824164,-0.853696,-0.1789302
1.948477,-1.024383,-0.1256027
1.779397,-0.6258016,-0.06964484
1.681941,-0.1530339,-0.04327163
1.521721,0.09518503,0.06899404
1.193809,0.08744548,0.1239729
0.9955907,-0.08470813,0.06111322
0.9658416,-0.09182543,0.03465514
0.9671389,-0.03659615,-0.01873345
0.9547012,-0.03483056,-0.08817302
0.8796726,-0.00984671,-0.03504144
0.9028822,-0.03670188,-0.01099343
0.9433047,-0.00895066,-0.0307563
0.9047119,0.01136098,-0.02175293
0.9580232,-0.02902643,-0.04756927
1.001272,-0.05368801,-0.03741093
1.034176,-0.1677634,-0.008281603
1.046136,-0.1851166,0.01670994
0.9806218,-0.09575671,0.06742221
0.9977442,-0.06616578,0.0649737
0.966204,-0.003767644,0.05149502
0.8753395,-0.01781478,0.04959897
0.8318138,-0.08991783,-0.0009136702
0.7285248,-0.1218532,-0.04878127
0.6772047,-0.1485283,-0.05757201
0.6705923,-0.1139062,-0.04865458
0.6354376,-0.09155815,-0.02744029
0.7081793,-0.05438882,0.02668041
0.8397329,0.0426036,0.1125485
0.8964414,0.1173132,0.1627977
0.87109,0.1995173,0.1365768
0.8708556,0.2153047,0.09812741
0.9442242,0.1615153,0.07516528
1.018796,0.03559524,-0.002352331
1.17213,-0.3059834,-0.0455915
1.437435,-0.5768447,0.06531789
1.592194,-0.4726308,0.1859664
1.573512,-0.2271658,0.2400345
1.596896,-0.0977167,0.3150872
1.652821,-0.1533518,0.3576893
1.593442,-0.2405049,0.3117237
1.478358,-0.1288692,0.2838197
1.221363,-0.03352388,0.3098618
0.9085227,-0.07129827,0.2990682
0.8549715,-0.002187379,0.2620245
0.8206252,0.04636999,0.240017
0.6594685,-0.009886065,0.2332735
0.581854,-0.04878333,0.2623453
0.5434441,-0.0906657,0.2747143
0.5481794,-0.03284438,0.2611955
0.5603301,0.06059789,0.2537278
0.5183648,0.03678509,0.2313531
0.5521984,-0.05277266,0.2296585
0.7083299,-0.1879316,0.2393993
0.9311585,-0.2216145,0.2166248
0.9905108,-0.06857627,0.1504112
0.8763883,0.04389823,0.07287159
0.8403852,-0.02437457,0.08692529
0.7862948,-0.1117835,0.1266828
0.7258854,-0.1057318,0.135621
0.7290458,-0.1126006,0.233105
0.6463496,-0.130076,0.3003508
0.6536618,-0.1287059,0.225143
0.8835456,-0.1159798,0.1297921
1.301421,-0.07601116,-0.0468826
1.782469,-0.1184452,-0.2387222
1.884093,-0.1777065,-0.1576041
1.727878,-0.1056533,0.03777635
1.685083,0.09233464,0.1205777
1.561714,0.3054027,0.1968267
1.42099,0.2536911,0.2263168
1.383926,0.0866756,0.1894155
1.298291,0.06483557,0.1465062
1.183863,-0.03433093,0.0519735
0.9838251,-0.08099405,0.01306508
0.7923022,0.00478177,0.00952262
0.7594244,-0.01450094,-0.04007542
0.7316876,0.009832874,-0.02169569
0.744556,0.03190054,0.01586959
0.8047075,0.0002127885,0.03983195
0.7914272,0.05102082,0.06137776
0.7639558,0.03708719,0.02294398
0.6841441,0.03086619,-0.03648017
0.5998973,0.06103624,-0.1016143
0.6331602,0.01869512,-0.07249204
0.6549805,-0.005975088,0.07252886
0.6653986,-0.05247366,0.149519
0.8245862,-0.03245233,0.1286262
0.999175,0.09997705,0.08962713
0.9712949,0.1662381,0.08670252
0.8984449,0.1516176,0.05061426
0.9150085,0.0716605,-0.04009902
0.9048999,-0.09566811,-0.006170736
1.074611,-0.3975533,0.1595568
1.544557,-0.5524483,0.3076348
1.849892,-0.2622532,0.329581
1.777466,-0.05300148,0.3405069
1.636459,-0.1906181,0.4289136
1.516591,-0.2255071,0.3446321
1.290264,-0.1527947,0.2598846
1.187194,-0.1792724,0.3822522
1.243937,-0.1823489,0.389866
1.121079,-0.1083418,0.2935696
0.9493442,-0.02390046,0.2299442
0.8078617,0.03422548,0.2108419
0.6276621,-0.03905518,0.2211715
0.6071299,-0.1334268,0.1585849
0.6271591,-0.06739649,0.1740517
0.6062124,-0.01122239,0.2173356
0.5687245,-0.00973065,0.1760698
0.5020021,-0.03911662,0.1780372
0.5743093,-0.1189426,0.1309392
0.6280095,-0.04161428,0.08578131
0.5928006,0.07186181,0.09463201
0.6410834,0.04851698,0.1077115
0.7304549,0.03790195,0.2130106
0.8381176,-0.002130561,0.2545779
0.9377822,-0.05963263,0.2196649
1.038634,-0.06682931,0.2187247
1.116861,-0.1368315,0.1264706
1.18774,-0.2549407,-0.07717355
1.395788,-0.34279,-0.2598034
1.582508,-0.3435484,-0.1636776
1.646052,-0.1871876,0.08397703
1.698863,0.06714107,0.1224298
1.65777,0.2055464,0.116033
1.48235,0.1420217,0.1324027
1.248144,0.07717998,0.1300165
1.095914,0.05746653,0.1694017
1.142038,-0.01835438,0.1069911
1.163398,-0.05887952,0.04855194
1.034427,-0.03153383,0.0382646
0.8982642,0.04335928,0.003292993
0.7732592,0.1385129,0.05320618
0.7770911,0.1269067,0.06563497
0.8166356,0.06316717,0.04214425
0.6835556,0.0447613,0.01473399
0.6364629,0.02924914,-0.08636011
0.6474531,0.01700811,-0.08726609
0.6229477,-0.02068575,-0.001027159
0.7231687,-0.08296155,0.08477711
0.7867157,-0.07804209,0.1305146
0.8407192,0.0168851,0.08887052
0.9008922,0.1424898,0.07902646
0.8640301,0.1678396,0.07092398
0.8659539,0.05325248,0.02180996
0.8149238,-0.05837549,-0.02988538
0.8513428,-0.1063007,-0.03919399
1.311303,-0.1815613,0.1587257
1.880963,-0.2833563,0.3897436
1.945837,-0.2746856,0.3625228
1.613816,-0.2288914,0.3393283
1.538968,-0.3001604,0.568904
1.60327,-0.3193732,0.7026909
1.503258,-0.2133316,0.4671594
1.316112,-0.07769645,0.2433735
1.04079,0.03065697,0.3297916
0.9774841,-0.0526069,0.3684165
0.943341,-0.1473469,0.2373359
0.7406041,-0.0557373,0.2486744
0.7722542,-0.009563448,0.2733774
0.7129271,0.01631709,0.2239566
0.5636468,0.05155977,0.2413813
0.6008825,0.01037918,0.1827742
0.4869505,0.02953436,0.1409886
0.4701109,0.03999499,0.1666435
0.5503646,-0.004388205,0.1298238
0.5031,-0.02874984,0.1393625
0.6214582,-0.07425958,0.1141557
0.7261059,-0.06279352,0.05668535
0.7821825,-0.04858958,0.08266901
0.9135814,-0.1240921,0.1069207
0.9132701,-0.1616499,0.1474917
0.9004662,-0.154623,0.1853044
1.019571,-0.1711323,0.1506546
1.321833,-0.2365763,-0.03719418
1.652036,-0.2933166,-0.2343228
1.720885,-0.2205592,-0.06607688
1.749246,-0.06945636,0.1582534
1.761383,0.07540886,0.1040577
1.57271,0.1481422,0.1492064
1.375753,0.09598487,0.2150331
1.153244,0.02982889,0.09844803
1.044472,-0.03089159,0.06573561
1.147999,-0.1233096,0.006644754
1.015294,-0.121805,-0.06507861
0.8601931,-0.04398478,-0.003522669
0.8847947,-0.007074068,-0.04391182
0.8019759,0.01042073,-0.0327281
0.8103882,0.02573395,0.07689588
0.7633286,0.03997571,0.06864025
0.5763535,0.01874549,0.02584411
0.5577001,-0.01443044,-0.05323808
0.5684235,0.05256646,-0.04218147
0.6096937,0.1055725,0.04334481
0.6964481,0.06123301,0.0752554
0.7760218,0.05109389,0.1701288
0.865977,0.08772473,0.1318367
0.8943711,0.1061234,0.01929964
0.9528102,0.07822399,0.01414635
0.9352447,0.02456766,-0.043077
0.8961414,-0.06134584,0.01678525
1.047489,-0.2154639,0.2053007
1.337939,-0.2864192,0.3082546
1.765701,-0.1422086,0.3047719
1.916604,-0.01352869,0.2744592
1.635083,-0.1329585,0.3923061
1.436261,-0.2810601,0.4588537
1.356118,-0.2693909,0.3840454
1.287314,-0.1928239,0.384198
1.226936,-0.05160941,0.3266259
1.049484,0.04302553,0.2477112
0.8930168,0.01416574,0.2312458
0.8422125,-0.01934203,0.1876529
0.7874614,-0.0893574,0.1770742
0.7390127,-0.117195,0.1364803
0.7055726,-0.05994116,0.1154546
0.6500994,-0.06169488,0.1603598
0.6221592,-0.08549034,0.1519756
0.6826046,-0.09838902,0.1526029
0.7583666,-0.07421331,0.1517429
0.7758518,-0.01213168,0.1430658
0.8708403,-0.09642388,0.09324122
1.173094,-0.1834284,-0.1160617
1.575514,-0.2951443,-0.3434114
1.720308,-0.3266524,-0.3077141
1.729386,-0.252587,-0.2335847
2.000647,-0.1838792,-0.3322026
2.011675,-0.05885169,-0.2859573
1.592217,0.08962028,0.005717862
1.419359,0.1876719,0.2529865
1.420158,0.1888561,0.2337646
1.270026,0.06764234,0.09191051
0.9710134,0.01203226,0.1262799
0.7844701,-0.01735188,0.1265237
0.8247305,-0.06895202,0.002826189
0.8222932,0.02911991,-0.03537169
0.9361515,0.130726,-0.09609578
0.9885951,0.1574058,-0.05036107
0.8352268,0.1204126,0.07119685
0.8649483,0.01595966,0.06347018
0.798882,0.04562963,0.0604389
0.670813,0.1177536,-0.01641924
0.6409111,0.1254814,-0.05504819
0.601871,0.04815845,-0.01571819
0.7491499,-0.1232618,-0.06849981
0.8322471,-0.1080019,-0.04316735
0.8935963,-0.005192306,-0.03366365
0.9592495,0.01969513,-0.05231368
0.8090938,0.08018611,0.007545
0.7622492,0.06564515,0.02266985
0.7431002,-0.05251686,0.08150045
0.8476722,-0.2768792,0.2230866
1.286543,-0.4351681,0.3442633
1.738212,-0.255402,0.2830509
1.978642,-0.08241528,0.1781509
1.833894,-0.1124625,0.2913027
1.612493,-0.07824054,0.334725
1.492466,-0.001251699,0.2927268
1.344839,0.03637396,0.3291777
1.320265,0.0485813,0.312421
1.180282,4.399798e-05,0.3082791
1.003489,-0.02437583,0.2555257
0.8930234,-0.002272621,0.1488176
0.6590292,-0.0247689,0.1412485
0.5874381,-0.07957933,0.1571015
0.5539617,-0.1242718,0.1709784
0.5353824,-0.08639594,0.1522404
0.6231799,-0.01708152,0.1105788
0.5380528,-0.04862337,0.1013622
0.5414869,-0.05621442,0.09635934
0.6181582,-0.01724828,0.1223461
0.6202067,-0.03420387,0.1199325
0.6770107,-0.04657091,0.1093677
0.6561109,-0.06087652,0.1403217
0.7364769,-0.04451614,0.15559
0.8726425,0.008258288,0.1909978
0.8966887,-0.02185201,0.1535635
1.141378,-0.1406993,-0.02739042
1.601606,-0.3274788,-0.214205
1.85929,-0.3949358,-0.253982
1.737026,-0.1643371,-0.1435158
1.60021,0.1033281,-0.03853116
1.504107,0.1473513,0.06644381
1.224827,0.01425759,0.09532188
1.121148,-0.1006385,0.02946371
1.150536,-0.08593709,0.08004368
1.077775,-0.06933809,0.05805796
1.031257,-0.07776245,-0.0280978
0.8940776,0.001219545,0.006120448
0.7871856,0.1355125,-0.04363192
0.8143677,0.2290448,-0.06223858
0.8209428,0.2448929,0.005465433
0.8178765,0.2330857,-0.001581786
0.7466213,0.1877722,-0.01525457
0.6708948,0.09054685,-0.05501809
0.6536503,0.03339168,-0.06187016
0.6259797,-0.01602638,-0.03695841
0.6511312,-0.04829272,-0.01619137
0.7353815,-6.623744e-05,0.06543382
0.8231309,0.03570721,0.0422922
0.8811604,0.1184057,-0.02873614
0.9081625,0.1732732,-0.04154826
0.8907885,0.02304244,-0.09501115
0.8407613,-0.1645999,-0.06364359
0.8673759,-0.3568483,0.07790175
1.126645,-0.4610223,0.2009621
1.630288,-0.2535834,0.197033
1.859277,0.0295465,0.1027325
1.597877,0.1359331,0.1130364
1.45894,0.05194319,0.1465743
1.534286,-0.1234197,0.205547
1.472244,-0.2226956,0.3246539
1.389937,-0.1856966,0.2755309
1.213757,-0.03534871,0.1904233
0.838871,0.04573863,0.1790513
0.7455493,0.005184326,0.1409523
0.8663413,-0.008624728,0.1632233
0.7652317,-0.00751119,0.1605026
0.7376016,-0.005691944,0.1194831
0.7150474,-0.01373158,0.1170496
0.4392506,-0.04601909,0.06586462
0.3390614,-0.06800662,0.05697505
0.4541434,-0.06434338,0.09869149
0.5595553,-0.01567481,0.09258572
0.6654655,-0.007461106,0.0884275
0.6969149,-0.06323511,0.06969297
0.6958049,-0.1021172,0.05272183
0.7185917,-0.07895503,0.08194654
0.762606,-0.03590923,0.1243127
0.8220154,-0.08710486,0.1650797
0.9336555,-0.1425389,0.1250434
1.294761,-0.1739448,-0.06379368
1.703407,-0.242585,-0.2285606
1.690081,-0.2119159,-0.1199724
1.558109,-0.06437469,0.07756712
1.711976,0.1333902,0.05639056
1.733026,0.1957908,-0.008868897
1.522709,-0.0003133637,-0.01803424
1.340885,-0.1433097,-0.02764607
1.150074,-0.1041669,0.04041335
1.109122,-0.02421495,0.06182073
1.06421,0.06531865,0.02223303
0.8466953,0.1188708,0.01059213
0.748628,0.1272267,-0.009645906
0.7214334,0.131454,0.008001945
0.7221477,0.1379493,-0.002674059
0.7054507,0.1217589,-0.04383257
0.5820594,0.09841037,-0.07831231
0.5110973,0.1018588,-0.1509398
0.4781632,0.08839862,-0.1525153
0.5460141,0.06639894,-0.1176569
0.7027617,0.06849296,-0.09936872
0.8523818,0.08588137,-0.06245504
1.013203,0.1228033,-0.04980202
0.9858784,0.170772,-0.009151389
0.9310943,0.2272135,0.03041622
1.007504,0.2486349,0.00752255
0.9801274,0.2310032,-0.03742816
0.9784224,0.1618561,-0.1052091
1.043107,-0.1107957,-0.2135447
1.136104,-0.4964905,-0.3031746
1.445098,-0.677622,-0.256308
1.725898,-0.6032879,-0.1867901
1.782536,-0.4386715,-0.1949125
1.858233,-0.2048879,-0.1905542
1.920658,0.06974179,-0.2623936
1.677273,0.0980316,-0.2999816
1.24193,-0.04622327,-0.1385231
1.080126,-0.07213002,-0.01172392
1.144601,-0.1326897,0.02085933
1.063779,-0.1703696,0.01966104
0.906995,-0.1192049,-0.01310698
0.7891276,-0.1739842,0.0194179
0.6870222,-0.1868358,0.05854748
0.6389401,-0.1631445,0.09281136
0.6369465,-0.159229,0.1225921
0.6130254,-0.09935829,0.1059815
0.5214854,-0.1310597,0.1427587
0.5053716,-0.1484525,0.1397441
0.5880274,-0.05733508,0.07948111
0.6226322,0.03083216,0.048909
0.6445751,0.1139917,-0.004190536
0.6265892,0.114729,0.01026644
0.6122164,0.04978179,0.04831745
0.7242316,-0.01023084,0.06332704
0.8151467,-0.0466266,0.1184939
0.8206617,-0.04476132,0.1385703
0.8545409,-0.1241044,0.161425
0.9643688,-0.2548803,0.1067221
1.162934,-0.2716986,-0.1233002
1.497893,-0.1797993,-0.340638
1.759016,-0.135986,-0.3822425
1.685475,-0.2546561,-0.2632543
1.688352,-0.3352783,-0.1059169
1.786495,-0.1576374,0.06972787
1.513463,0.0751616,0.09894825
1.33872,0.1079625,-0.01597703
1.364497,0.03966274,0.05811227
1.23581,-0.027902,0.08638647
1.220168,-0.1588674,0.01871703
1.098935,-0.218213,0.04283097
0.8792876,-0.09771865,-0.08279798
0.8522137,0.03916096,-0.1218009
0.7398543,0.1147411,-0.02385415
0.7751318,0.1132856,-0.0270133
0.8362041,0.03011873,0.01384386
0.6291142,-0.02202664,-0.03971932
0.5825348,-0.015831,-0.1087158
0.6029586,0.0101865,-0.03444016
0.6538712,0.03296688,0.007269709
0.7515444,0.02986968,0.04719008
0.7241615,0.05285112,0.03037858
0.8182545,0.1114317,-0.02018083
0.9206933,0.1565604,-0.009019823
0.9698414,0.1516325,-0.02508511
1.006869,0.08206291,-0.03404999
0.87536,-0.03174732,-0.01197969
0.846131,-0.2046127,0.0956175
1.166804,-0.3186728,0.2347784
1.692387,-0.2456774,0.226259
1.911278,-0.1209864,0.2485069
1.758342,-0.05302618,0.3600437
1.659662,-0.09084951,0.3281436
1.471859,-0.1717858,0.2757625
1.24729,-0.119157,0.3142018
1.192951,-0.06008156,0.2863852
1.068913,-0.04524503,0.2517322
0.9137232,0.03236855,0.2297929
0.8190465,0.03039638,0.1875362
0.7222525,-0.0231112,0.2155833
0.6807298,-0.03745754,0.2020058
0.6822158,-0.05355688,0.1506315
0.6705467,-0.01569287,0.1377554
0.6437167,-0.01188017,0.1007063
0.6236013,-0.08301381,0.1018456
0.626949,-0.1276789,0.09473744
0.6611742,-0.1300646,0.07516355
0.735853,-0.1125763,0.1041934
0.8230556,-0.1538102,0.08489735
0.8707162,-0.2033064,0.05480591
0.8602896,-0.192293,0.06028271
0.7952628,-0.1044594,0.1513064
0.7232988,0.05807348,0.2812545
0.7865369,0.07379204,0.199609
1.060156,-0.03080659,-0.01338453
1.459608,-0.1183646,-0.1857498
1.764101,-0.227214,-0.2302561
1.822884,-0.1922716,-0.02507346
1.84536,-0.1059935,0.161263
1.801676,-0.1239718,0.1361798
1.409952,-0.05103614,0.08047662
1.070469,0.02262481,0.05051693
1.15916,-0.02141556,0.0594845
1.256777,-0.05667322,0.06049264
1.132895,-0.078535,-0.0008560218
1.104991,-0.08103052,-0.03195465
1.102727,-0.054832,-0.04302528
0.9184774,-0.009032125,-0.06431916
0.8595693,0.08339223,-0.07891229
0.8907376,0.1282137,-0.07980955
0.8510737,0.08365499,-0.02762993
0.8629572,0.06498129,0.05519665
0.7572251,0.07963757,0.08420076
0.5952032,0.07077095,0.007112784
0.5176053,0.08034409,-0.06203684
0.4992581,0.1064061,-0.02471687
0.6160079,0.1020547,0.03692451
0.7231789,0.08640943,0.06997365
0.7899701,0.08320832,0.02245819
0.8736033,0.1263106,-0.0509999
0.9713797,0.1841931,-0.03131005
1.073216,0.16583,-0.04591751
1.030745,0.1028503,-0.1114828
0.9086623,-0.01319103,-0.07647907
0.8399569,-0.2632589,0.01622092
1.020759,-0.5177206,0.1015526
1.463366,-0.5723463,0.1300678
1.753704,-0.4292107,0.1172179
1.809372,-0.1692637,0.1535283
1.582854,0.08065403,0.1042696
1.137424,0.06340226,0.04325628
0.9790657,-0.1105767,0.2234667
1.115934,-0.1080761,0.3675657
1.262811,-0.06770042,0.2412195
1.292197,-0.0144808,0.07825685
1.091349,0.0962014,0.0321673
0.8215941,-0.01211429,0.05761876
0.7746651,-0.1264546,0.07581711
0.8680781,-0.06493687,0.06431076
0.8169669,-0.07489047,0.05602627
0.7564752,-0.09258297,0.04868469
0.7760962,-0.07696372,0.03213099
0.7610567,-0.08104067,0.06341279
0.8112781,-0.06447965,0.1077596
0.7777894,-0.06179291,0.06813263
0.6429926,-0.05920908,0.05506064
0.6014038,-0.06025703,0.1285332
0.6328652,-0.07174721,0.1669621
0.7776726,-0.07551811,0.124904
0.8824372,-0.07603546,0.07876416
0.9174492,-0.06843836,0.110286
0.9458165,-0.07378792,0.1422002
0.8156089,-0.07648592,0.1701137
0.7824944,-0.1079164,0.1952865
1.086324,-0.2758164,-0.01328617
1.50022,-0.5296261,-0.2395291
1.615389,-0.5949444,-0.0912749
1.489463,-0.3325864,0.0330222
1.572604,0.0336162,-0.158088
1.597313,0.2047164,-0.2374766
1.364776,0.009330446,-0.1281184
1.239799,-0.28972,-0.02445353
1.266321,-0.2985656,0.1050867
1.297601,-0.2209451,0.1030219
1.192198,-0.1782179,0.01144153
1.096408,-0.07553322,0.01781764
1.094781,-0.04180915,-0.05379093
0.9315699,0.04963856,-0.1467065
0.7715254,0.1396852,-0.1250043
0.7973016,0.00200482,-0.08060845
0.8253847,-0.1131928,-0.008637361
0.7333247,-0.1002563,0.01274857
0.6247848,-0.1061436,-0.01163147
0.586614,-0.1221921,-0.00515772
0.503909,-0.09797371,-0.03104694
0.4803119,-0.05633962,-0.0149924
0.5929206,-0.01719703,0.04023718
0.7228005,0.0301024,0.04353341
0.8056885,0.0352482,0.02990214
0.7749752,0.03388173,-0.006702445
0.7748545,0.05377447,-0.05196386
0.816387,0.03723024,-0.08901904
0.8320911,-0.01537018,-0.0730177
0.983323,-0.1808664,0.02428337
1.295315,-0.4440234,0.09653754
1.645872,-0.5705764,0.1428662
1.790241,-0.3848969,0.159874
1.82223,-0.1805824,0.1871738
1.834216,-0.3259071,0.2788696
1.63267,-0.4181622,0.2438565
1.598965,-0.2733429,0.1956706
1.558273,-0.2455253,0.259762
1.152469,-0.1943475,0.2255504
0.9532121,-0.09588941,0.2023278
0.8250208,-0.04442145,0.1950634
0.6602579,0.06796025,0.1146978
0.6820285,0.04197886,0.1453663
0.5728146,-0.09242724,0.2037512
0.5563339,-0.1505451,0.2232302
0.6107267,-0.1159913,0.2378947
0.5405331,0.007688063,0.1903191
0.5917147,0.01497906,0.1527057
0.5880513,-0.03992,0.09446473
0.6020896,-0.02264589,0.05641025
0.6851386,0.003376251,0.09552139
0.7092709,0.03595683,0.06788909
0.8513099,-0.1170731,0.01728959
0.9464016,-0.292302,-0.009246861
0.9156552,-0.1759926,0.001151601
0.8933726,-0.07115363,0.08984554
0.854414,-0.09370944,0.1394579
0.7777997,-0.08208073,0.1566768
0.7881573,-0.100338,0.1202638
1.146519,-0.1831245,-0.09506865
1.693685,-0.2450633,-0.3652731
1.992804,-0.1979219,-0.4259023
1.866271,-0.0990013,-0.1981775
1.473296,-0.01472453,0.1028927
1.110152,0.08253292,0.2836358
1.03821,0.04515006,0.2390868
1.334229,-0.0738843,0.09956844
1.461894,-0.0142059,0.1119179
1.23202,0.0132258,0.06297395
1.037487,-0.03260415,-0.002299279
0.8532349,0.07374368,0.03473924
0.7796779,0.1433173,-0.0679317
0.830077,0.1581206,-0.06268235
0.7984566,0.1343621,0.01127788
0.7500141,0.01257273,-0.04371262
0.6527773,-0.01828284,-0.01389805
0.5992875,-0.03953201,-0.03892003
0.6040923,-0.05974336,-0.04659233
0.5869384,-0.007978491,0.01908808
0.6654894,-0.004233533,0.005303231
0.7889167,0.02979845,0.06969107
0.8900479,0.07017926,0.0901456
0.8998214,0.1114505,0.02336228
0.8776582,0.1832539,-0.01842715
0.8899357,0.1261524,-0.08468452
0.8184172,-0.01520885,-0.07504241
0.8615814,-0.2046015,0.05166395
1.112013,-0.3654706,0.2243376
1.506897,-0.2611975,0.2507439
1.927374,-0.04444637,0.2111329
1.944684,-0.003486412,0.3234397
1.726352,-0.1386891,0.3350494
1.600508,-0.2763916,0.2923056
1.378899,-0.1957521,0.3223252
1.140779,-0.03556046,0.2408767
0.9503196,-0.0207573,0.1715592
0.7779018,0.01133058,0.1503046
0.7263428,0.01139329,0.1400964
0.6961998,-0.05885906,0.1805102
0.6777945,-0.04372938,0.1698068
0.634807,-0.07772792,0.1395596
0.4896634,-0.09924901,0.09516621
0.4235948,-0.07655116,0.06038775
0.4623027,-0.09871129,0.08735885
0.5112172,-0.0583121,0.07365002
0.5899819,-0.08132796,0.07047971
0.7134364,-0.1339136,0.1008288
0.8494522,-0.1252565,0.1008213
0.9406757,-0.1355845,0.1079315
0.9769655,-0.1027118,0.1171215
0.9663809,-0.1232552,0.1452777
1.017729,-0.1724489,0.128023
1.291414,-0.198464,-0.04750193
1.661885,-0.2716782,-0.2326336
1.776759,-0.2271969,-0.1900116
1.663529,-0.06325951,-0.02200489
1.611854,0.1633758,0.0180529
1.504623,0.3723572,0.02913824
1.40044,0.3283916,0.06719284
1.34774,0.1091253,0.05990797
1.095263,-0.06487824,0.117325
1.092857,-0.06425099,0.1035931
1.201123,-0.01962359,-0.01694067
0.9197872,-0.1135899,-0.04883119
0.8684058,-0.09932086,-0.04999526
0.90448,-0.006073513,-0.0308233
0.7508991,-0.01550867,-0.03219521
0.8237797,0.02999133,-0.05564538
0.8007388,0.008923376,-0.02688764
0.6354922,-0.07680107,-0.06119425
0.5567327,-0.06550108,-0.07383473
0.550682,-0.03585006,-0.03423131
0.6515399,0.04806711,-0.02082097
0.6929573,0.06123647,0.02849229
0.8357513,0.01458732,0.03384458
0.9839629,0.07449305,0.01996012
0.9039361,0.07970431,0.0144416
0.8821713,0.07306531,-0.0222925
0.870573,0.03980289,0.01323939
0.9266605,-0.1514691,0.1259787
1.186213,-0.3322768,0.2397911
1.488443,-0.3544481,0.2168182
1.791927,-0.1685996,0.1281272
1.835929,-0.02778696,0.1680489
1.704382,-0.1283442,0.226067
1.738203,-0.2487553,0.2819642
1.721644,-0.2865492,0.3018411
1.556378,-0.2056003,0.231502
1.31682,-0.08989597,0.2295978
1.070057,-0.1186398,0.2132368
0.9496332,-0.1314596,0.1500196
0.818303,-0.06800108,0.1252248
0.6817393,-0.07712212,0.09977112
0.6480577,-0.08196474,0.1518535
0.5937374,-0.05402181,0.1868889
0.545204,-0.05626505,0.1489114
0.4911753,-0.04083958,0.1405186
0.4171967,-0.03402927,0.08910394
0.4624145,-0.006182054,0.06242706
0.5512682,0.04593506,0.08659782
0.6331005,-0.009107294,0.08300012
0.6893633,-0.09553092,0.09963065
0.6619314,-0.1213686,0.1058283
0.712322,-0.09431064,0.1201753
0.8201402,-0.05495485,0.1669224
0.924274,-0.1281521,0.1415205
1.245672,-0.2956165,-0.05549687
1.631118,-0.4072492,-0.2739975
1.676475,-0.3020053,-0.2189007
1.570424,-0.07807003,-0.1168697
1.657272,0.11965,-0.1259986
1.719603,0.383899,0.04062637
1.589509,0.3425863,0.1293895
1.317457,-0.050818,0.02246321
0.9633255,-0.1724388,0.05159756
0.9375634,-0.1459861,0.0401264
1.088106,-0.129105,-0.0430509
0.9120679,-0.05106449,-0.04069329
0.7728625,-0.0433722,-0.06629469
0.7556123,0.07862403,-0.0719843
0.7258853,0.1300028,-0.1091628
0.8950135,0.0436872,-0.1421385
0.974473,0.05975097,-0.04368847
0.8871633,-0.02059604,-0.004784692
0.7678365,-0.06679681,-0.0307215
0.5708625,-0.02699358,-0.04270992
0.5461095,-0.02604362,-0.04653447
0.666618,0.01882604,-0.0168771
0.7878987,-0.00884027,0.01875467
0.8871376,-0.01186105,0.06561691
0.8537347,0.06089952,0.03155674
0.7720708,0.1232817,-0.02135257
0.6870385,0.1618811,0.006358488
0.6628214,0.05664177,0.008695859
0.8073724,-0.1221159,0.08837483
1.154396,-0.3182759,0.2343684
1.659126,-0.3806466,0.2825417
1.872104,-0.161192,0.281955
1.652349,-0.01095761,0.2835249
1.441605,-0.09990385,0.2928039
1.308562,-0.1519441,0.3056065
1.214597,-0.06623199,0.3161968
1.234351,-0.02670301,0.2893109
1.125911,-0.02424328,0.247921
0.966324,0.02636586,0.2356211
0.922192,-0.006630163,0.185449
0.7391713,-0.07974192,0.1558406
0.616039,-0.1171677,0.157923
0.7039279,-0.1089115,0.1232201
0.6898362,-0.05254865,0.0996878
0.6331156,-0.08974435,0.1020274
0.6249566,-0.1338603,0.1409419
0.6374686,-0.1327216,0.1471205
0.7148794,-0.1466499,0.08872319
0.771993,-0.07534591,0.03371258
0.7599367,-0.03552131,0.005527596
0.7404925,-0.06761321,0.04457898
0.7760599,-0.07943311,0.07329285
0.7986639,-0.1018149,0.08267509
0.7956031,-0.07538383,0.1305451
0.8366677,-0.0534739,0.1838553
0.8496971,-0.08809352,0.2568588
0.9127662,-0.1201658,0.2069676
1.17471,-0.1926807,-0.01683229
1.528366,-0.2856004,-0.2268211
1.724562,-0.2922359,-0.2584467
1.751138,-0.182632,-0.1211106
1.83562,-0.06678217,-0.09309222
1.816908,0.005167894,-0.1257551
1.665408,-0.3248651,-0.4492068
1.680301,-0.2036683,-0.2225189
1.819729,-0.1291458,0.1411191
1.900094,-0.03675323,0.1198748
1.764097,0.06919331,0.06066028
1.548877,0.1723243,0.1443329
1.323356,0.1798449,0.1193686
1.227265,0.06788514,0.0701043
1.150361,0.01030694,-0.04379859
0.9276559,-0.08300749,-0.1550352
0.896034,-0.1043504,-0.08763928
0.8662388,-0.01052437,-0.07578747
0.7013448,-0.04416843,-0.1277789
0.8476399,-0.0001772839,-0.1096676
0.9088108,0.05140603,-0.05619061
0.8063255,-0.004616899,0.008454705
0.7945729,0.0757241,-0.01323013
0.5912373,0.076352,-0.06179315
0.5664367,0.02640249,-0.05178357
0.6845473,0.04606044,-0.02822681
0.6676921,-0.05296951,0.03872173
0.8062925,-0.07818096,0.1104649
0.8754842,-0.003224602,0.1271386
0.8844165,0.07724493,0.09994906
0.9424409,0.1602663,0.02467146
0.8905843,0.1137701,-0.05178339
0.8949066,0.02028089,-0.07733792
0.9287762,-0.1305458,-0.03379039
1.048071,-0.3414749,0.0963158
1.361244,-0.3831669,0.2094156
1.642111,-0.2251952,0.1660533
1.730538,-0.08146742,0.131289
1.628132,-0.160505,0.3283101
1.565415,-0.2889981,0.4683708
1.614605,-0.2645182,0.2879789
1.54383,-0.1389315,0.1422814
1.287064,0.01927531,0.2180203
0.9317269,-0.03846187,0.228295
0.6993183,-0.1534569,0.1433437
0.699943,-0.03244001,0.1451353
0.7244191,-0.02032917,0.1815415
0.7029928,-0.0709455,0.1974197
0.6935348,-0.003611246,0.2100232
0.6358725,-0.02701704,0.1811262
0.5071311,-0.0223992,0.1492169
0.3618609,-0.0012766,0.1046122
0.3558411,-0.01740363,0.07627129
0.4593104,0.06064141,0.1127994
0.4648415,0.1082069,0.09609547
0.5040438,0.09621343,0.09690515
0.6597383,0.04651861,0.1608018
0.8334129,-0.031209,0.1877958
0.987582,-0.07420413,0.2157311
1.043607,-0.1146229,0.2267736
1.194737,-0.1721437,0.1696755
1.485325,-0.3148317,-0.08602151
1.638177,-0.3898819,-0.3710946
1.630186,-0.2193978,-0.2358175
1.583523,0.01030386,-0.01314188
1.650145,0.1938236,-0.04069123
1.673045,0.2594922,-0.004194498
1.470534,0.09422014,0.01602051
1.274386,-0.1229935,-0.03603664
1.170495,-0.1544114,0.005106025
1.140154,-0.1166073,-0.04182774
1.074452,-0.122896,-0.09144314
0.931627,-0.03089065,-0.06391545
0.8524114,0.06483431,-0.1004247
0.7920432,0.07521898,-0.05375009
0.8108881,0.08022259,0.005241233
0.7953129,0.04418078,-0.01619645
0.6169427,0.03976815,-0.01363195
0.49879,0.06111513,-0.02859691
0.4623685,0.04491052,-0.005593251
0.5041421,-0.0005182942,0.02788509
0.5419769,-0.103264,0.03169064
0.5876441,-0.1101801,0.05476563
0.8047302,-0.009249427,0.0340536
0.9294548,0.04499264,0.01575127
0.9535353,0.06091309,-0.01616351
1.031678,0.05851997,-0.08102505
0.9656491,0.0368756,-0.06354831
0.8638245,-0.05435936,-0.008317426
0.9965057,-0.1833401,0.07324284
1.294442,-0.2478877,0.1844052
1.57732,-0.2136143,0.185661
1.730551,-0.1372368,0.1912074
1.68969,-0.1885486,0.2877544
1.619187,-0.2339409,0.2444583
1.521825,-0.1818847,0.2066384
1.284044,-0.2043615,0.2839979
1.236566,-0.1792008,0.2291364
1.246443,-0.1176593,0.2026557
1.039573,-0.08728094,0.2182954
0.9675831,-0.03812078,0.1553134
0.9344046,-0.1100753,0.1720248
0.7877434,-0.1624364,0.1495921
0.7241205,-0.08573789,0.1247319
0.6805809,-0.004805732,0.1407948
0.6265454,0.0633774,0.06571172
0.5561421,0.01798715,0.07630817
0.5112662,-0.05027437,0.1130565
0.5849608,-0.02546689,0.09640728
0.6430172,-0.03987904,0.1128009
0.6256339,-0.05090703,0.08517506
0.6444181,-0.01122245,0.06865144
0.772611,-0.004570526,0.05520905
0.9353072,-0.02962355,0.03757908
0.9880918,-0.0524053,0.06777532
0.9464219,-0.05928874,0.07892241
0.9720332,-0.09351165,0.07490539
1.169527,-0.173628,-0.06781856
1.467593,-0.2545051,-0.2511239
1.678122,-0.3150029,-0.1646701
1.706904,-0.1872697,-0.05327142
1.700463,0.1752856,-0.04586517
1.576826,0.3552266,0.06189874
1.246643,0.1894822,0.09342899
1.174293,0.013968,0.07719464
1.268792,-0.02216158,0.1734019
1.173962,-0.01401581,0.1235122
1.139344,0.0121909,-0.01067173
1.091599,0.04667668,-0.05640383
1.03013,0.03708718,-0.0799214
1.002866,0.04299334,-0.0205363
0.8348966,0.07944966,-0.008226575
0.8611885,0.06213405,-0.03182328
0.9390295,0.06019385,0.01497781
0.8243481,0.08501166,-0.008656229
0.862015,0.084533,0.001900326
0.8522054,0.09240387,-0.01065511
0.6983011,0.0911324,-0.130371
0.6294768,0.0906858,-0.1664898
0.6303554,0.08965391,-0.1259425
0.7116516,0.07424796,-0.02277152
0.7634761,0.07986731,0.0351609
0.8291055,0.1147692,0.02636213
0.8998457,0.2201226,0.06476251
0.8893268,0.3492697,0.04069715
0.9974802,0.3580456,-0.01051726
1.020158,0.2751117,-0.07539495
0.8741162,0.1430126,-0.1659243
0.8653912,-0.2157905,-0.1743315
1.044649,-0.7283935,-0.1191605
1.38726,-0.9224561,-0.01411406
1.607441,-0.7094605,0.01522358
1.696599,-0.3722369,-0.04336266
1.87551,-0.003316035,-0.08740022
1.791122,0.16253,-0.1583411
1.434759,-0.03650724,-0.1183999
1.146146,-0.1813611,-0.005069745
1.057018,-0.2099002,0.0331551
1.141148,-0.3862047,0.08382592
1.05815,-0.4233571,0.1000643
0.8782861,-0.325836,0.1158101
0.8183532,-0.288454,0.1646176
0.7448595,-0.1277335,0.1049906
0.7743756,-0.00422534,0.02938384
0.7734602,-0.01745617,0.03697435
0.5837535,-0.06812168,0.08879982
0.4700471,-0.1660109,0.1536008
0.4332093,-0.1445464,0.147081
0.4193885,-0.08726117,0.08695568
0.4010042,-0.07885318,0.05261333
0.4266708,0.007797824,0.04234274
0.5623267,0.04578997,0.03142469
0.5852005,0.01056673,0.01053196
0.6072501,-0.01349507,0.03646487
0.7585045,-0.07731236,0.1004693
0.9306675,-0.1917724,0.1146125
1.111315,-0.2728494,0.04954423
1.292467,-0.2954066,-0.194094
1.649871,-0.3814694,-0.5192791
1.902437,-0.4227493,-0.5017565
1.769434,-0.3004606,-0.1586969
1.692334,-0.1721597,0.06103208
1.643243,0.01776747,0.05235857
1.477259,0.1840543,0.01846239
1.426731,0.07246956,0.06284991
1.4552,-0.06548492,0.06686447
1.451108,-0.04945594,0.01562076
1.225109,-0.0446659,0.01895336
0.862335,-0.03516316,-0.03407176
0.7918168,-0.003707842,-0.07305062
0.8495501,-0.007922559,-0.0220128
0.7738109,0.00323127,-0.06106714
0.7727242,0.01034452,-0.07342128
0.82875,0.01527985,-0.0248324
0.8114709,0.1079581,0.02999351
0.8077631,0.1890894,0.1297318
0.7620314,0.1242602,0.05335546
0.5730624,-0.004707164,-0.1222159
0.4213605,-0.05958581,-0.1615079
0.4920255,-0.04583101,-0.08336316
0.6525405,-0.07031739,0.05210738
0.8082477,-0.1151289,0.09173354
1.022292,-0.06342509,0.08066535
1.073938,0.02880782,0.04439041
0.9045697,0.03161541,-0.06757571
0.8046569,-0.009838832,-0.03530325
0.7953477,-0.1167764,0.06016024
1.031058,-0.3203067,0.1288875
1.570752,-0.3416966,0.2664705
1.906692,-0.09149023,0.2531354
1.892318,0.06307149,0.2176082
1.715035,-0.1096771,0.3192286
1.447232,-0.2757854,0.2902175
1.209904,-0.1362427,0.2680025
1.125895,-0.0491269,0.3177583
1.15199,-0.1013869,0.2609569
1.051075,0.009070771,0.2250583
0.9070368,0.0956405,0.1942238
0.8382601,0.07338783,0.1761991
0.6913776,0.06780904,0.2158303
0.6008412,0.002914104,0.1716009
0.5866225,-0.05213744,0.1298752
0.5484807,-0.04313779,0.1013879
0.5733256,-0.06546126,0.06192988
0.6134864,-0.158798,0.09899572
0.6628792,-0.2066813,0.09338899
0.7263685,-0.1132245,0.08528659
0.7900709,-0.05298421,0.1165106
0.8469556,-0.06364114,0.1109853
0.7922998,0.007855527,0.1607
0.7397003,0.09425027,0.2106913
0.787522,0.05481413,0.2221998
0.8258297,-0.01751533,0.2302463
0.9421502,-0.009621874,0.1076384
1.269254,-0.07659124,-0.1719964
1.686229,-0.2173315,-0.3832108
1.927257,-0.261895,-0.2628083
1.853918,-0.181741,-0.01921298
1.610188,0.04310679,0.06392469
1.32374,0.209378,0.1336805
1.125928,0.1446711,0.1589988
1.224358,0.03841537,0.1125483
1.301788,-0.008602491,0.09214939
1.119271,-0.03891688,0.02173549
1.010632,-0.02965353,-0.01519421
0.912222,0.01798753,-0.05505691
0.8285361,0.04390668,-0.1292965
0.9480823,0.05734449,-0.06082749
0.9667022,0.06202619,0.01649797
0.8601399,0.07113398,0.002988965
0.7401209,0.1281005,-0.04188493
0.5801563,0.1329731,-0.08504504
0.5289022,0.114239,-0.02998677
0.5648249,0.1156623,0.02877997
0.6225582,0.0318686,0.006126703
0.6485949,-0.03657219,0.003250753
0.7190492,0.006048244,0.03314156
0.9751977,0.1032322,0.07349692
1.147688,0.1612463,0.1096762
1.024093,0.1265736,0.03098069
0.7903651,0.02474699,-0.08133338
0.7443167,-0.2075033,-0.01714852
0.9915367,-0.5162728,0.04832414
1.439688,-0.5896867,0.0230818
1.738646,-0.2790218,0.07004441
1.574374,0.05099612,0.1101247
1.459838,0.0245983,0.2075569
1.597662,-0.1635653,0.3779771
1.535642,-0.2330458,0.3552507
1.436581,-0.1348285,0.2495656
1.255634,0.06701701,0.1667558
0.9254013,0.1661672,0.02749177
0.9041338,0.0863626,0.03014102
0.9403971,-0.05090787,0.1029288
0.8196143,-0.1437276,0.05273628
0.8092538,-0.1556211,0.07090835
0.713042,-0.1334971,0.09465758
0.5843314,-0.1122331,0.03816035
0.6355477,-0.06005901,0.06995247
0.6498849,-0.0320817,0.1022057
0.6567265,-0.06354654,0.1213814
0.679751,-0.0489946,0.1450774
0.6673489,0.005336735,0.1328152
0.7895247,0.03475777,0.1933924
0.9180932,0.04552477,0.2026787
0.9332564,0.03449823,0.1613537
0.9668987,0.04061418,0.1836206
1.012667,0.03062053,0.1562452
0.9750713,-0.01680411,0.1137393
0.9815388,-0.1110189,-0.02089856
1.370476,-0.3770608,-0.2513509
1.84675,-0.6147138,-0.2757662
1.845628,-0.5436289,-0.1015813
1.697848,-0.2483392,0.05190105
1.713585,0.1674763,0.0714787
1.620514,0.4008305,0.02851358
1.472613,0.1553712,0.04180873
1.414361,-0.1310296,0.04123582
1.330382,-0.1261285,0.02262267
1.12554,-0.1090814,0.02833164
0.8212817,-0.08833434,0.005350181
0.808626,-0.03943676,-0.01610529
0.9457395,-0.06546158,-0.02392645
0.745151,-0.04021496,-0.06028514
0.728048,-0.02257,-0.07591165
0.8571496,0.006239354,-0.04276585
0.757767,0.132816,-0.01537225
0.8135733,0.1699389,-0.01235829
0.7867236,0.1042083,-0.01574711
0.6836619,-0.01539422,-0.0204836
0.7061302,-0.1550056,-0.03110433
0.6364115,-0.1992413,-0.02859739
0.7203744,-0.1317401,0.0430731
0.82375,-0.04262829,0.1348001
0.8445941,-0.0168795,0.1188785
0.9330195,0.06100852,0.04408778
0.8971886,0.1822787,0.001404608
0.8974493,0.1397576,-0.0360014
0.9640967,-0.1523874,-0.05115408
1.065871,-0.5553582,-0.03112091
1.366561,-0.6226422,0.03475621
1.669793,-0.354887,0.1281595
1.740518,-0.2070271,0.1317334
1.619566,-0.2064897,0.1543237
1.599488,-0.3052621,0.2480104
1.630635,-0.4070187,0.2082204
1.474307,-0.2948931,0.168329
1.286797,-0.1624869,0.2143422
1.086716,-0.1171471,0.1715452
0.8938267,-0.03124884,0.1424735
0.7932651,-0.02041145,0.1618286
0.6684616,-0.07938488,0.1678315
0.574438,-0.08618729,0.2127477
0.5828591,-0.09744292,0.2344767
0.5896459,-0.07459052,0.2384388
0.5440181,-0.002609278,0.2280195
0.5000521,-0.004578481,0.1680497
0.4781201,-0.07002726,0.1464356
0.5252323,-0.1452392,0.1445816
0.6428626,-0.160861,0.1289637
0.7187211,-0.05873157,0.09962455
0.8352303,0.0342091,0.04672541
0.8985019,0.01504122,0.06466355
0.8598765,-0.1000514,0.1140837
1.010394,-0.2212187,0.11657
1.108519,-0.2102475,0.1141662
1.028475,-0.09884922,0.07383081
1.062842,-0.04216971,-0.02026546
1.112857,-0.1046303,-0.1821749
1.238171,-0.1917404,-0.3490337
1.521467,-0.1987297,-0.2970612
1.678026,-0.1587237,-0.09720984
1.649776,-0.01104692,0.02744073
1.57016,0.272755,0.09281947
1.449244,0.380283,0.1202144
1.332193,0.1967247,0.113176
1.341879,0.0233395,0.08831544
1.305611,-0.06619637,0.06263759
1.073573,-0.1595299,0.06473593
0.8331916,-0.1449106,0.02561378
0.6287842,-0.03304834,-0.02179044
0.5770652,0.06003361,-0.01703286
0.7396132,0.1115681,-0.01344506
0.8071375,0.08845019,-0.009358394
0.730728,0.06316331,-0.0375144
0.646961,0.06790716,-0.09634719
0.6055788,0.03267909,-0.128267
0.6361775,0.01375573,-0.103911
0.6834185,-0.01967747,-0.0008579342
0.7835471,-0.09063597,0.0710862
0.9482984,-0.09760234,0.03288097
1.049966,-0.04283208,-0.020788
1.032203,0.06423594,-0.009317231
0.986431,0.1316564,-0.004191237
0.9567796,0.06692163,-0.03878719
0.889623,-0.1090769,-0.009102244
0.9482748,-0.3986902,0.06379983
1.240887,-0.5332307,0.1270002
1.567871,-0.3526651,0.1300279
1.704477,-0.2292952,0.1208114
1.636135,-0.2723845,0.2979607
1.662199,-0.2473897,0.4343836
1.719355,-0.1354026,0.3015643
1.533579,0.006280143,0.2008032
1.27252,0.06635048,0.2610033
0.9732917,-0.01649349,0.2773162
0.8073721,-0.0369541,0.2274035
0.842046,0.03025157,0.223105
0.6976911,0.04290247,0.1956424
0.6474964,0.0381554,0.1769391
0.7388377,0.02051027,0.2069033
0.5880107,-0.02785644,0.1347338
0.5148218,-0.07559797,0.0862543
0.581769,-0.08019512,0.119777
0.6054811,-0.05328401,0.1068847
0.6642164,-0.07608289,0.1064309
0.691075,-0.08277538,0.1093728
0.7273263,-0.0921823,0.1190361
0.7622142,-0.1472154,0.1331248
0.7826335,-0.1204382,0.1093169
0.9021822,-0.08855934,0.103502
0.9606104,-0.09306862,0.1128619
0.894314,-0.08460658,0.1455512
0.8936708,-0.1360788,0.1249243
1.071205,-0.1903343,-0.08777796
1.418528,-0.214436,-0.3245186
1.693761,-0.2028776,-0.2777346
1.73626,-0.0994115,-0.0601499
1.783276,0.05566043,0.009164621
1.758375,0.1868167,0.01784167
1.370815,0.1525855,0.05167335
1.013065,-0.03054892,0.05190504
1.00917,-0.1536208,0.05790434
1.106516,-0.1497819,0.008520563
1.120815,-0.08347581,-0.05153027
1.044517,-0.0264554,-0.07591244
0.9647888,0.07209426,-0.09581776
0.8617816,0.1680918,-0.08774319
0.8039958,0.1406957,-0.06619335
0.8753827,0.1046354,0.02960369
0.8414283,0.04510801,0.07390862
0.704836,-0.03221169,-0.01026038
0.5449197,-0.0009708536,-0.04122987
0.4450199,0.001109048,-0.03697716
0.540273,-0.02115673,-0.02216368
0.6637728,-0.002499595,0.00690386
0.8490182,-0.005527973,0.02920418
1.015805,0.03266804,0.03364535
1.025795,0.08864243,-0.01614313
1.097761,0.1190431,-0.02507093
1.06771,0.09442585,-0.01960229
0.9411482,-0.01843898,-0.0119102
0.9987626,-0.1637135,0.08696951
1.176265,-0.2943135,0.1666534
1.471329,-0.2495113,0.1392084
1.623238,-0.04024063,0.04417766
1.518687,0.02918601,0.03279985
1.562776,-0.1907652,0.1884909
1.628844,-0.4202976,0.3232563
1.523536,-0.213815,0.2558932
1.353525,0.06943226,0.1534029
1.046698,-0.009305269,0.2216366
0.8622132,-0.02674775,0.2265645
0.9144329,0.01374755,0.1668756
0.8382579,-0.04776081,0.2052593
0.7332705,-0.01757961,0.1572197
0.767892,-0.03694266,0.1509201
0.737096,-0.03131734,0.1924078
0.6530322,0.0416975,0.1319407
0.6138764,0.01415931,0.145605
0.530762,-0.02122175,0.1475153
0.4176381,-0.07733439,0.127812
0.4550232,-0.07520734,0.1532741
0.6121842,-0.04109454,0.1270306
0.7163263,-0.1168372,0.1221904
0.7858679,-0.1270907,0.1097775
0.8485932,-0.09629012,0.1142261
0.9623419,-0.09173035,0.1537952
1.058123,-0.08206152,0.1263117
1.002533,-0.1144619,0.08527902
1.132987,-0.1728257,-0.06170933
1.527615,-0.3288392,-0.2524693
1.762363,-0.4124259,-0.2039512
1.723786,-0.1955323,-0.04366043
1.688789,0.08478221,0.02805225
1.785801,0.1828582,0.0431421
1.623199,0.1067931,0.02866494
1.30598,-0.00915027,0.03536148
1.257449,-0.08491326,0.04324042
1.207698,-0.09648112,-0.01899743
1.132627,-0.0515788,-0.05177328
1.039135,-0.05701118,-0.03127241
0.8451365,-0.0301772,-0.0286172
0.8132509,0.03575057,-0.0169706
0.8067786,-0.003642313,-0.0005967436
0.7791301,-0.02158202,0.02451163
0.7255249,-0.0104101,0.01649895
0.5231776,-0.02550223,-0.05867249
0.4628848,0.008025553,-0.09676395
0.5366519,0.02338067,-0.04470781
0.6031206,0.02924387,0.0400803
0.6759672,0.007721801,0.04289041
0.6928463,-0.06454378,0.008615347
0.7779057,-0.03907021,0.02404074
0.9709542,0.06528442,0.004968714
1.084188,0.1420692,-0.04608754
0.9750962,0.1077292,-0.1155231
0.8383772,-0.04884173,-0.1182707
0.953126,-0.2131121,0.08282759
1.369212,-0.3034734,0.3099469
1.879512,-0.2012241,0.3560585
1.903317,-0.0722032,0.2995078
1.643649,-0.1623156,0.3344839
1.678785,-0.2869215,0.4097797
1.557319,-0.3510838,0.3821253
1.323951,-0.2396558,0.3339878
1.249596,0.02990324,0.2617256
0.994819,0.04746958,0.1917641
0.8497013,-0.0223787,0.1895632
0.8169231,0.01051203,0.1722605
0.7008301,-0.06127112,0.178155
0.7392901,-0.08522325,0.1569387
0.668466,-0.06159662,0.07483831
0.5386938,-0.09704613,0.06055249
0.5576347,-0.1018544,0.08759709
0.6107838,-0.1026408,0.1087251
0.7485588,-0.05556391,0.07006991
0.763601,-0.005463454,0.03077398
0.7278187,-0.04211273,0.1063845
0.8406789,-0.08247653,0.1478455
0.9163269,-0.08977339,0.1023846
0.9233844,-0.04021782,0.09135474
0.8181536,0.06690495,0.1771373
0.7276567,0.1393434,0.2973726
0.8239686,0.07532131,0.2518423
1.01507,-0.07437574,-0.04475249
1.322604,-0.1878405,-0.3575521
1.683145,-0.2869219,-0.3659018
0.4184851,-0.09852521,0.08593388
0.4418623,-0.1480472,0.04079651
0.4401454,-0.1535922,0.01588108
0.5007034,-0.1114129,0.02631531
0.5772967,-0.05667783,0.09615631
0.6174856,-0.07094497,0.1853128
0.7173398,-0.1232044,0.2230909
0.8111329,-0.1845807,0.1513382
0.9237144,-0.1825815,0.03602159
1.12292,-0.2024347,-0.1570169
1.495106,-0.3529582,-0.3722829
1.812791,-0.4263453,-0.2831139
1.806787,-0.2848534,-0.03981963
1.8147,0.03411163,0.05320853
1.785943,0.3324031,0.07558121
1.510243,0.3381294,0.04881724
1.294628,0.1444506,0.05026431
1.133788,0.002839653,0.04838105
1.055739,-0.06646002,-0.07164303
1.104101,-0.1214242,-0.09465641
0.993048,-0.1336059,-0.05756502
0.8438938,-0.09091122,-0.08272871
0.8131283,-0.04060568,-0.0772803
0.8288638,-0.01176894,-0.08250665
0.8438824,0.01865177,-0.01718279
0.7967661,0.07065137,0.06774261
0.772657,0.06433038,0.008007921
0.6963716,-0.007173596,-0.09363821
0.5834719,-0.039541,-0.178156
0.6252179,-0.03716626,-0.1625974
0.6808386,-0.04553514,-0.03732483
0.714864,-0.05539396,0.06968158
0.7846471,-0.002772391,0.1480586
0.8045495,0.087461,0.1407792
0.8121492,0.1220943,0.01519948
0.8422179,0.1660979,-0.1308169
0.8431981,0.1527506,-0.1691167
0.8320052,-0.06526743,-0.08101296
0.9218041,-0.3526091,0.06130607
1.192884,-0.4516652,0.2507607
1.605769,-0.1709683,0.2947326
1.844588,0.1698968,0.1624006
1.746244,0.09056686,0.1871495
1.708534,-0.1937594,0.3194993
1.731952,-0.363615,0.3778914
1.528961,-0.3204011,0.3241869
1.301085,-0.152973,0.1971036
1.090316,-0.1370308,0.2234155
0.8750881,-0.1268783,0.220852
0.796427,-0.07669034,0.1119021
0.735805,-0.1224779,0.1606055
0.6767776,-0.1266943,0.185482
0.6672121,-0.1604839,0.1895833
0.6474258,-0.1391194,0.235548
0.6443146,-0.002665636,0.1898945
0.6086315,0.02413016,0.1937504
0.570816,0.01136778,0.1791446
0.5855834,-0.007779551,0.1233335
0.5804613,0.01597906,0.1259963
0.5913329,0.09835947,0.09550072
0.6247059,0.08289132,0.1140183
0.6951022,-0.005803594,0.1503299
0.8180118,-0.1253999,0.1368672
0.8868762,-0.1147023,0.1896279
0.9691479,-0.07003113,0.2438657
1.12528,-0.2011104,0.15679
1.300208,-0.2711362,-0.1231563
1.536247,-0.2996223,-0.3757706
1.681267,-0.3056029,-0.263523
1.648598,-0.200216,0.02764504
1.697935,-0.03790725,0.1158841
1.722074,0.2823839,0.05057144
1.47506,0.4150289,-0.01380983
1.231937,0.182971,-0.008469552
1.189824,0.006915188,0.02464878
1.147489,-0.09433066,-0.02512131
0.9719715,-0.1546185,-0.03261916
0.836466,-0.1237443,-0.02823303
0.8323094,-0.1152811,-0.08026616
0.8064099,-0.06855773,-0.0363014
0.7924269,0.05069126,0.01781076
0.8042186,0.1186267,0.05858907
0.7780934,0.07580982,0.06099079
0.7215286,0.02722539,-0.03273565
0.5628115,0.02021248,-0.0680244
0.477141,0.004708618,-0.08421781
0.5684003,0.01392656,-0.04524164
0.6705904,-0.005281776,0.0512499
0.8127446,-0.03516035,0.06354896
0.96523,0.02854449,0.0749978
0.9825595,0.1048213,0.02350963
0.8601661,0.1281148,-0.09470475
0.7437287,0.05981826,-0.1214928
0.8075545,-0.096115,-0.01064978
1.160193,-0.2123111,0.2083214
1.707809,-0.1932222,0.2925174
1.949629,-0.01951932,0.202926
1.772292,0.07693544,0.1803007
1.658625,-0.1491273,0.2643466
1.575167,-0.3730761,0.326978
1.422645,-0.2384501,0.2984847
1.419312,-0.09641207,0.3005197
1.294124,-0.1483147,0.3277077
1.040741,-0.06288796,0.2510864
0.9730365,0.04194354,0.1711378
0.8471538,-0.001216348,0.1673466
0.6871524,-0.03958054,0.1909477
0.6331185,-0.1062705,0.2006335
0.5498518,-0.07216724,0.1983003
0.5507485,0.05643559,0.1950375
0.5181895,0.08663436,0.1623416
0.4229721,0.09857104,0.1360145
0.4673418,0.07925682,0.1314488
0.5407377,0.0946236,0.1137371
0.6683034,0.1734172,0.1036355
0.8005466,0.1728753,0.1135946
0.7964917,0.09842744,0.1301435
0.7866983,-0.0357915,0.137833
0.799789,-0.06857185,0.1377587
0.8878821,-0.0574939,0.06566046
1.210282,-0.2169398,-0.1840549
1.675468,-0.4063268,-0.4034699
1.881257,-0.5573257,-0.2377063
1.750586,-0.4461427,0.04364647
1.725329,0.04987149,0.02535595
1.737207,0.4210689,0.03642442
1.514487,0.3484778,0.1625804
1.30803,0.1442123,0.1144514
1.168807,0.1425681,0.06548225
1.022264,0.07247553,0.007741699
0.9228006,-0.06898321,-0.04885602
0.7826533,0.01560118,0.01239443
0.6734692,0.01864883,-0.02210326
0.7468085,0.03429271,-0.04028675
0.8831479,0.1538299,-0.01035093
0.8963393,0.1359497,-0.03508059
0.8684349,0.2087267,0.006592412
0.8818848,0.2369462,-0.01380489
0.8266728,0.1831517,-0.05560705
0.7574855,0.2036055,-0.05232341
0.7313053,0.1447405,-0.08763131
0.7558267,0.1546661,-0.04848849
0.8632959,0.1642654,-0.004267294
0.959497,0.1275032,-0.001333942
1.002531,0.1830696,0.015771
0.9739636,0.1986986,0.01161354
0.9387573,0.1972265,0.004161047
0.8992337,0.1061252,-0.06988662
0.7802444,-0.08410073,-0.1720846
0.7603259,-0.2579519,-0.1652434
0.8861001,-0.5394041,-0.07554779
1.227302,-0.7356298,-0.01257787
1.735349,-0.6230198,-0.04723326
1.884476,-0.4584683,-0.07773344
1.821083,-0.2537438,-0.05911632
1.968572,0.07214736,-0.1038501
1.910661,0.02321742,-0.1571601
1.538548,-0.2501187,-0.1109424
1.282794,-0.2179296,0.01123121
1.201377,-0.2777603,0.1185358
1.233684,-0.2974754,0.1054229
1.143168,-0.1124914,0.0576367
0.8041718,-0.1781623,0.09302123
0.6378543,-0.1652251,0.0768316
0.6650255,-0.09343178,0.02954072
0.6612496,-0.1541134,0.06587636
0.6081404,-0.1422404,0.09087277
0.4526702,-0.2514528,0.141557
0.3883276,-0.2440807,0.188613
0.4587823,-0.09090845,0.1329054
0.5149235,-0.03123379,0.09201919
0.5667559,0.0459248,0.06085416
0.6567342,-0.01885689,0.04138223
0.7703758,-0.04273297,0.06299733
0.7503891,0.02013276,0.04743459
0.7216423,-0.03219643,0.06183806
0.8065279,-0.03430412,0.08553176
0.8857874,-0.1162913,0.04400758
1.037178,-0.233004,0.009507011
1.131566,-0.247708,-0.01708559
1.153672,-0.2921075,-0.1052619
1.424854,-0.3781942,-0.289949
1.795533,-0.4864794,-0.3657983
1.855145,-0.3212246,-0.1231969
1.707051,0.09832389,0.0948475
1.651262,0.3182217,0.005224352
1.473884,0.2909834,-0.05915559
1.228995,0.09733751,-0.001634786
1.223891,-0.1064994,-0.0580405
1.081289,-0.1578713,-0.0924766
0.8079336,-0.1226517,-0.06288842
0.7797354,-0.07368192,-0.09250801
0.7876235,-0.02500384,-0.0525296
0.7307558,0.06642541,-0.01957109
0.7206755,0.04064285,-0.07273633
0.7107046,-0.06268957,-0.08339985
0.6116328,-0.01083557,-0.0738393
0.5067853,-0.02995144,-0.04327095
0.5646852,-0.06347438,-0.01816266
0.6948571,0.02080862,-0.03757338
0.8232041,0.007598772,-0.05848473
0.9015952,-0.00594853,-0.0942718
0.85181,-0.04629217,-0.1239015
0.8484077,-0.1283563,-0.1365757
0.9087785,-0.07352625,-0.06058513
0.8893129,0.007840885,0.09275861
0.8295627,0.05333563,0.133557
0.8095426,-0.02973637,0.1418375
1.05002,-0.2285204,0.2244348
1.584042,-0.2843337,0.2777634
1.916957,-0.2607203,0.3065064
1.799614,-0.2677833,0.3225555
1.502812,-0.2371552,0.2871868
1.290881,-0.1672247,0.2750975
1.252342,-0.1037908,0.3228638
1.216979,-0.09375636,0.3188903
1.027288,-0.07469842,0.2463956
0.880554,-0.01148606,0.1811467
0.8640682,-0.005234623,0.1544197
0.7852369,-0.03254276,0.1820392
0.6251157,-0.01114132,0.1840579
0.5682783,5.006277e-05,0.1570969
0.6244293,0.007792395,0.1443339
0.5935797,0.04362868,0.08046282
0.5384015,0.01584916,0.04970489
0.5721583,-0.04826467,0.06592528
0.5824249,-0.113727,0.04369026
0.6624667,-0.2072361,0.04261095
0.7799019,-0.2330962,0.04224704
0.7860225,-0.1950023,0.06392653
0.7998759,-0.1819334,0.1535827
0.8157135,-0.1901757,0.2068253
0.8277254,-0.1912589,0.1706016
0.9192509,-0.1776879,0.04487855
1.191756,-0.1792168,-0.1827432
1.659876,-0.1922429,-0.3952326
1.924013,-0.2026103,-0.3238599
1.853596,-0.1508109,-0.07286718
1.766108,0.08635015,0.02934001
1.582137,0.3189647,0.08291514
1.213093,0.2213194,0.1285415
1.102399,0.02688363,0.1064222
1.213515,0.01499084,0.0797218
1.071641,-0.03371031,0.007123994
0.9002887,-0.04978093,-0.02665356
0.8372112,0.07397925,-0.04276908
0.7503677,0.1066717,-0.08228377
0.8389059,0.1349128,-0.05665269
0.9305137,0.1258545,-0.03377602
0.9077622,0.05955122,0.03984775
0.9232721,0.130684,0.1175904
0.855878,0.1503033,0.08859239
0.732731,0.1643423,0.02588973
0.6368658,0.2295985,-0.05912322
0.6397392,0.1621635,-0.05694564
0.7408376,0.08432668,0.01264005
0.7904833,0.01560483,0.02823495
0.9012643,0.01453271,0.0492716
1.026833,0.1015452,0.04504072
1.00947,0.1139561,-0.02500907
0.937533,0.1140701,-0.1058922
0.8549244,0.06599172,-0.1011399
0.8452983,-0.04357739,-0.04720216
0.8938022,-0.1676149,-0.03818144
1.015589,-0.3458554,0.02871858
1.332887,-0.399272,0.07636586
1.601598,-0.2847646,0.07354041
1.69708,-0.2179968,0.2506724
1.813833,-0.2783396,0.4339274
1.843565,-0.2986079,0.3479067
1.597405,-0.1592211,0.1653184
1.297184,-0.04498795,0.09240113
1.104671,-0.01979023,0.09787683
0.8945106,0.05832584,0.08826877
0.9171817,0.1428272,0.03572129
1.109941,0.1027639,0.03729589
0.9228763,-0.06078419,0.1338124
0.7472872,-0.2070605,0.1734879
0.8173858,-0.1657946,0.1487821
0.694689,-0.01301897,0.1253837
0.604046,0.06210711,0.086623
0.6015965,0.1097115,0.07773717
0.5929709,0.0976305,0.05790488
0.6876964,0.01799079,0.03590205
0.705442,0.03615594,0.04294586
0.7685565,0.03198027,0.03253003
0.835114,0.002437125,0.04007214
0.8047289,-0.01883472,0.03634152
0.9090337,-0.1285765,0.04143475
1.015109,-0.1526363,0.07396133
1.046883,-0.1528893,0.07194995
0.9767927,-0.1851146,0.06883881
0.8818509,-0.1957324,0.00784927
1.040641,-0.4145965,-0.1650678
1.410945,-0.7274793,-0.3052971
1.795651,-0.7766938,-0.2290609
1.808533,-0.4475871,-0.06561957
1.618319,-0.02337403,-0.04313538
1.631729,0.08759235,-0.02760866
1.508399,-0.03463506,-0.001479821
1.334122,-0.1183642,-0.02147167
1.2127,-0.1088966,-0.02035848
1.035521,-0.08986645,-0.08254436
1.031101,-0.05357526,-0.1073956
0.9438903,-0.00805733,-0.08157897
0.8662627,-0.04430927,-0.1073783
0.9105401,-0.04976187,-0.071712
0.7947897,-0.04004863,-0.06157288
0.8278988,-0.06505237,-0.08397493
0.8156522,-0.03473256,-0.07335853
0.6579357,-0.02467816,-0.1079092
0.7026741,-0.02379773,-0.104054
0.6726071,-0.04737478,-0.07562054
0.6373056,-0.1317852,-0.05390435
0.6639049,-0.1685155,-0.007083191
0.6271225,-0.1656285,0.02704448
0.7050819,-0.09656711,0.07049837
0.8341675,0.03366557,0.07173873
1.018502,0.1152961,0.03714154
1.162241,0.1258361,0.006229153
1.122795,0.07349593,-0.04695754
1.019949,-0.06675924,-0.06446715
0.9320312,-0.3389574,-0.04261725
1.102838,-0.5088837,0.02703635
1.453992,-0.3361471,0.1030656
1.552266,-0.04890707,0.09033439
1.37277,0.1400243,0.0552645
1.285264,0.08182517,0.06550378
1.620796,-0.318938,0.1601871
1.893377,-0.5824314,0.2653985
1.50998,-0.3213601,0.2309753
1.008281,-0.005655442,0.1650342
0.8550142,-0.04948669,0.1626229
0.7781477,-0.09583764,0.1442007
0.7507045,0.002594778,0.1572003
0.8025025,-0.02062848,0.2159515
0.760918,-0.03118961,0.2223824
0.6630557,-0.04896445,0.2059638
0.5215135,-0.1739656,0.1852239
0.4270034,-0.147832,0.1318206
0.5540826,-0.07148804,0.0632758
0.6795413,-0.01845625,-0.001334271
0.6987089,0.04710355,-0.003811729
0.7244557,-0.01582259,0.03477808
0.7197516,-0.07331362,0.0972149
0.7667665,-0.1024655,0.1776973
0.8868534,-0.1168473,0.175843
1.007587,-0.0726321,0.1515685
1.066616,-0.09012892,0.1467051
1.017423,-0.08886723,0.08932033
1.053857,-0.1137545,-0.0385707
1.251632,-0.2329677,-0.2656532
1.502072,-0.2695824,-0.3897923
1.668997,-0.2256032,-0.2098309
1.670524,-0.08484565,-0.01301632
1.663395,0.1521674,-0.01576453
1.496444,0.2539573,0.03533291
1.192612,0.1592833,0.1444898
1.225518,0.07298291,0.05712322
1.275567,0.03989395,-0.03567622
1.056971,-0.03110628,0.001146516
0.8973375,-0.01720702,-0.01675183
0.7442338,0.04453519,-0.03374486
0.7134249,0.03548746,0.003169227
0.8246397,0.07351469,0.0115753
0.7485657,0.0752678,0.003547885
0.7324343,0.04922586,-0.01462029
0.7673763,0.09141411,-0.0349164
0.6474172,0.06903999,-0.05189781
0.6303789,0.05797208,-0.07292302
0.6448219,0.05656913,-0.06358048
0.6709366,-0.03320842,-0.004868465
0.8183063,-0.08715984,0.1006577
0.9234283,-0.05177319,0.1811545
0.9589101,0.09337091,0.1334063
0.9548664,0.2708425,0.03466344
0.9614414,0.3064258,-0.01018977
0.8972595,0.1513705,-0.05435325
0.8064324,-0.1223314,-0.06806198
0.9430245,-0.3785677,0.04714854
1.220741,-0.4950737,0.1890053
1.560385,-0.3473132,0.1818841
1.696532,-0.1266641,0.1479054
1.550604,-0.1140425,0.2626551
1.575234,-0.177327,0.3201489
1.574976,-0.2066178,0.2501598
1.345256,-0.1309587,0.2383242
1.104279,-0.01743933,0.2589894
0.8989029,-0.04750381,0.2671219
0.8552566,-0.002318035,0.2420204
0.8318714,0.09053503,0.2111952
0.7481095,0.02776627,0.2346542
0.748888,-0.02016288,0.2259397
0.6717167,-0.05195592,0.1826383
0.5620056,-0.09696887,0.1243164
0.5481078,-0.08489915,0.07407522
0.5981404,-0.09629622,0.07012884
0.6865898,-0.1182665,0.03426239
0.6787101,-0.1066405,0.0165154
0.6759502,-0.07705125,0.05875612
0.7746528,-0.04251675,0.1177287
0.8257317,-0.06796551,0.1952934
0.8099848,-0.1020904,0.1976337
0.7802206,-0.05836461,0.1642163
0.8093146,-0.03956866,0.1842502
0.9114433,-0.09531182,0.08850153
1.161154,-0.1674245,-0.1850603
1.518544,-0.2291145,-0.4001105
1.610947,-0.2288969,-0.3148055
1.611342,-0.1832369,-0.05727251
1.776131,-0.05834782,0.03921282
1.713471,0.2145294,0.03974047
1.445569,0.3463186,0.0754436
1.247388,0.1613049,0.05521413
1.151675,0.02566402,0.03835632
1.22318,0.04232768,0.03041742
1.233561,-0.05119267,-0.03183111
1.140737,-0.1201423,-0.076225
1.088612,-0.03662442,-0.0653456
0.8930206,0.01243107,-0.05054768
0.7723419,0.07852739,-0.05823908
0.8318838,0.1364001,-0.02590677
0.7494553,0.0647391,-0.007645617
0.6272616,0.03377169,-0.06846815
0.5075512,0.01474537,-0.1129717
0.4334848,-0.04949149,-0.09722362
0.5407765,-0.07111369,-0.01017647
0.6379017,-0.113487,0.1050514
0.734338,-0.08462206,0.1484666
0.8067363,0.02944465,0.09298182
0.7797832,0.1140318,0.02638764
0.8457354,0.1893001,0.02543907
0.9324638,0.1531682,0.005891731
0.9920359,-0.02259204,0.001416018
1.215557,-0.3111026,0.09881659
1.543914,-0.4968807,0.1711056
1.757566,-0.2218624,0.1177509
1.799678,0.06805538,0.08252933
1.696734,-0.04587754,0.2651967
1.549513,-0.1802075,0.4205991
1.56112,-0.2144969,0.2937256
1.465514,-0.1629206,0.1998846
1.098649,-0.02764416,0.2585311
0.9436404,-0.06155084,0.2272704
0.8888077,-0.09521651,0.1255037
0.7105607,-0.01695999,0.09697018
0.6896234,-0.05373963,0.133533
0.6979475,-0.06024059,0.1805513
0.6601937,-0.03136441,0.1877674
0.6473268,-0.06813516,0.1395299
0.5469916,-0.04168782,0.08930196
0.4617713,-0.04381497,0.06781233
0.4881614,-0.07518023,0.1008974
0.6115978,-0.09896154,0.1375143
0.7470954,-0.1542617,0.1055517
0.7723238,-0.09477563,0.08657617
0.7493221,-0.03159848,0.08758626
0.7736982,-0.08789172,0.09615298
0.8076805,-0.1142704,0.148237
0.8106582,-0.1247699,0.1558503
0.9802968,-0.1746814,0.04521932
1.467092,-0.1988414,-0.1927937
1.897516,-0.1490862,-0.3497367
1.900203,-0.03319958,-0.1887798
1.809238,0.1046912,0.01823636
1.826842,0.1664668,0.05500321
1.527593,0.1106867,0.1084019
1.164541,0.04999871,0.1112094
1.183121,-0.006421174,0.01879663
1.182016,-0.07471219,-0.0006400724
1.049108,-0.07334056,-0.0516886
0.9828405,-0.0576025,-0.08392641
0.9184322,-0.04019593,-0.03038008
0.8357754,-0.0006440656,-0.08124652
0.804549,-0.02181129,-0.1096017
0.8509087,-0.04878895,-0.08794294
0.8080157,-0.03947028,-0.08770952
0.6811564,-0.03070189,-0.01875072
0.5696652,-0.001084788,-0.02081052
0.4969164,0.02503156,-0.02453578
0.6251406,0.06868424,0.05355762
0.7897706,0.1106463,0.05206484
0.8457204,0.04326961,-0.002804393
0.8903516,-0.0245046,-0.06752809
0.9078088,0.02505101,-0.03492567
0.9796344,0.08012407,0.03308375
0.9811233,0.09987951,-0.01968008
0.8710043,0.1166101,-0.01350639
0.8587613,0.05951679,0.02780295
0.9252499,-0.1126423,0.09012276
1.184934,-0.3219009,0.2597768
1.557809,-0.3635261,0.3028233
1.715819,-0.2028561,0.2798107
1.73671,-0.1336445,0.3611089
1.661738,-0.1910495,0.3836348
1.468998,-0.1848636,0.3436875
1.376994,-0.1295024,0.3317055
1.358589,-0.06062245,0.2909535
1.160604,-0.02434091,0.2033562
0.8746728,-0.03583859,0.1470683
0.7634634,-0.05174877,0.1544646
0.746759,-0.08747932,0.15905
0.6842612,-0.09545423,0.1489736
0.6736335,-0.06231235,0.1589598
0.686013,-0.03356687,0.1371095
0.6201031,-0.01641279,0.08990557
0.6017511,-0.02163995,0.09326795
0.6723443,-0.05244365,0.09746961
0.7583432,-0.1138313,0.08803048
0.8407201,-0.1438692,0.1090739
0.8636411,-0.1193863,0.1144968
0.8815836,-0.1095502,0.1145973
