accx,accy,accz
1.549398,-0.2613679,-0.3616352
1.533376,-0.2474203,-0.3549908
1.610319,-0.3284942,-0.3642665
1.640332,-0.355814,-0.306322
1.424493,-0.3755878,-0.2718725
1.25754,-0.3869576,-0.2665111
1.155332,-0.2758412,-0.2087198
0.9872036,-0.1803628,-0.1871525
0.8728257,-0.1098774,-0.1727911
0.8279936,-0.08031105,-0.1581977
0.8121899,-0.1149161,-0.1834415
0.7717513,-0.1212836,-0.168532
0.7417579,-0.1733996,-0.138849
0.7172714,-0.1896823,-0.1061646
0.6346579,-0.1499658,-0.09577693
0.5866115,-0.1674346,-0.114272
0.5630052,-0.147439,-0.0809243
0.5745603,-0.1189946,-0.06287123
0.626999,-0.08927807,-0.06699579
0.7026052,-0.05451526,-0.07384025
0.8686446,-0.1166964,-0.1228478
0.9408447,-0.2070832,-0.1586591
0.9140625,-0.2842714,-0.2490153
1.008605,-0.3489828,-0.4756642
1.188125,-0.4114565,-0.7027044
1.318413,-0.4607293,-0.7052985
1.315524,-0.401358,-0.4870948
1.365743,-0.3072245,-0.349304
1.53348,-0.2008611,-0.3800306
1.609928,-0.03619089,-0.4072032
1.641988,0.03632935,-0.3844647
1.518617,-0.04297433,-0.3718804
1.188487,-0.1679919,-0.3451193
1.007784,-0.2248514,-0.2728571
0.920833,-0.1964077,-0.2703855
0.7707722,-0.1566251,-0.2923476
0.746362,-0.1170776,-0.2529239
0.8102768,-0.09762446,-0.2563365
0.8013977,-0.1090976,-0.2243747
0.7201225,-0.1019184,-0.1472216
0.6047932,-0.07430248,-0.1329992
0.5305796,-0.04448314,-0.1378388
0.5568613,-0.03176477,-0.1831075
0.6145399,-0.0445386,-0.219556
0.649445,-0.05143831,-0.1966863
0.7049777,-0.03182299,-0.1876072
0.7785507,-0.009980767,-0.1926955
0.8607605,-0.005806837,-0.2166802
0.8930738,-0.011215,-0.2446202
0.8627014,-0.05516827,-0.2613529
0.926276,-0.1716604,-0.3162955
1.065606,-0.3462011,-0.4182185
1.205931,-0.49413,-0.473671
1.34326,-0.4906317,-0.4294928
1.4388,-0.3373768,-0.413273
1.582848,-0.2138736,-0.4326272
1.717542,-0.2725626,-0.4204486
1.715425,-0.414402,-0.4222477
1.626518,-0.4814496,-0.3568438
1.402768,-0.4639427,-0.2228411
1.105888,-0.3677576,-0.1536087
0.9280145,-0.268464,-0.1410615
0.849379,-0.2203746,-0.1463574
0.7904922,-0.1673315,-0.1550433
0.7687252,-0.1393268,-0.1686937
0.7816542,-0.1469038,-0.1906132
0.7665,-0.1751733,-0.1859013
0.7160637,-0.2183609,-0.1573054
0.6544702,-0.2192468,-0.1192906
0.6278835,-0.2015175,-0.07665359
0.6724024,-0.190321,-0.05581901
0.6952963,-0.1756977,-0.07139694
0.6950276,-0.1497455,-0.103068
0.7173004,-0.1169339,-0.1282228
0.7144011,-0.1203831,-0.144
0.7487292,-0.1230739,-0.1316124
0.8423732,-0.134075,-0.1087603
0.9201734,-0.1867876,-0.1171024
0.9655498,-0.2217991,-0.1484694
1.008542,-0.2749251,-0.2620509
1.135931,-0.3494091,-0.5016053
1.291903,-0.3589894,-0.7154454
1.305951,-0.321072,-0.7344493
1.253513,-0.2776227,-0.5628166
1.283711,-0.2143083,-0.3611484
1.355097,-0.1169616,-0.2764611
1.461039,-0.03535207,-0.3147061
1.553396,-0.02189729,-0.4402014
1.467374,-0.04659111,-0.5348515
1.245732,-0.1108688,-0.3904703
0.9536128,-0.2230129,-0.1381439
0.7148793,-0.2670301,-0.1020511
0.7092546,-0.2154561,-0.1583146
0.7315353,-0.1802601,-0.1560627
0.8167532,-0.1059271,-0.2556945
1.03451,0.02699312,-0.3731982
0.9515401,0.03410343,-0.3229597
0.703415,-0.01009798,-0.1765655
0.5983767,0.03458017,-0.07868039
0.5701211,0.02743103,-0.09285132
0.68751,-0.01968803,-0.1669096
0.7345518,-0.04394064,-0.2540973
0.6727663,-0.09624606,-0.3195989
0.6995116,-0.08136152,-0.2574418
0.6688999,-0.0499934,-0.1178501
0.6757875,-0.07341078,-0.0887078
0.753948,-0.02601082,-0.1190048
0.8103529,0.02521894,-0.1138562
0.8778807,0.009774078,-0.1586693
0.823487,-0.05878119,-0.2802432
0.8228669,-0.2522373,-0.4586679
1.038772,-0.4956245,-0.5467914
1.279981,-0.5981816,-0.4398595
1.399272,-0.4951537,-0.3524773
1.427239,-0.3955636,-0.3713944
1.635748,-0.4064676,-0.4088928
1.832132,-0.334429,-0.4441965
1.697472,-0.2294385,-0.4249342
1.485979,-0.1582843,-0.3337984
1.235959,-0.04588971,-0.2648966
1.013592,-0.0299011,-0.3050042
0.9816753,-0.06616625,-0.350341
0.924842,-0.05124697,-0.3033661
0.869162,-0.120066,-0.2727847
0.8614318,-0.2300445,-0.2568718
0.8016068,-0.2757785,-0.19521
0.7680144,-0.2618535,-0.1854837
0.7196946,-0.1870683,-0.2016822
0.7252975,-0.1036544,-0.1780812
0.7823287,-0.06830006,-0.190006
0.7080671,-0.09132707,-0.1908411
0.6671275,-0.1199719,-0.1362505
0.6906207,-0.1390811,-0.08838059
0.7101464,-0.1778044,-0.07470301
0.7929312,-0.1952236,-0.1471759
0.8052912,-0.2338298,-0.2330129
0.7951819,-0.3048282,-0.2111509
0.8287292,-0.32725,-0.1276613
0.8122876,-0.3145713,-0.07057748
0.8218178,-0.2504398,-0.1454863
0.9062489,-0.175871,-0.3741697
1.115433,-0.197456,-0.6567557
1.350376,-0.2886782,-0.8438299
1.364842,-0.4253335,-0.7904681
1.303668,-0.5493125,-0.6144197
1.33707,-0.5026519,-0.4773181
1.318386,-0.2772341,-0.3900076
1.272142,-0.07431442,-0.4019826
1.294675,-0.06414208,-0.4298762
1.273777,-0.1470937,-0.4387225
1.190314,-0.1503014,-0.4655587
1.055051,-0.1814569,-0.3916666
0.8835217,-0.2467939,-0.3039301
0.8194756,-0.1904144,-0.2860348
0.8169335,-0.1382033,-0.2744956
0.8071308,-0.09543313,-0.3085203
0.8207496,-0.03336567,-0.339865
0.8015896,-0.07576814,-0.3424692
0.7813594,-0.08967036,-0.3152097
0.7630279,-0.09531023,-0.2440109
0.7371323,-0.1445682,-0.200757
0.7633647,-0.1245902,-0.1937924
0.7771063,-0.1307904,-0.2363113
0.7466542,-0.1376557,-0.2681547
0.6640799,-0.1159789,-0.2046577
0.5672436,-0.1089593,-0.1165091
0.6170152,-0.05838114,-0.07575426
0.7428632,-0.0408092,-0.1280626
0.8109691,-0.04675258,-0.206774
0.8800941,-0.03825706,-0.2270466
0.9388351,-0.07240338,-0.233691
0.9617803,-0.1176159,-0.2503706
0.9639173,-0.2095991,-0.3335348
0.9711503,-0.3599642,-0.4896916
1.086787,-0.4440441,-0.5550935
1.262825,-0.4017053,-0.4739034
1.393635,-0.3214312,-0.418613
1.517239,-0.2988813,-0.4502396
1.668112,-0.3622571,-0.4120022
1.815487,-0.4764396,-0.335868
1.753328,-0.4725664,-0.3210732
1.411853,-0.3434904,-0.2330896
1.0979,-0.2359696,-0.1016621
0.9888023,-0.1663164,-0.1087368
0.9354967,-0.1435351,-0.1584
0.7415839,-0.07810614,-0.1376316
0.6348951,-0.02415912,-0.149544
0.7942727,-0.1311225,-0.183366
0.8113892,-0.2068946,-0.1855296
0.7297549,-0.220985,-0.2001431
0.7486331,-0.2329406,-0.1560685
0.6886545,-0.1962889,-0.09144723
0.6949988,-0.204291,-0.09756806
0.6839616,-0.1732685,-0.07666829
0.5603292,-0.09030986,-0.05685631
0.5614992,-0.04969979,-0.07751607
0.6010854,-0.02017395,-0.08156979
0.6606342,-0.06174023,-0.1062356
0.7528292,-0.1148314,-0.1312128
0.8294209,-0.1589186,-0.1057618
0.8938913,-0.2452937,-0.08273656
0.8489893,-0.2796157,-0.1443066
0.8862557,-0.3121026,-0.3211046
1.150122,-0.3732303,-0.6064546
1.449964,-0.4096927,-0.856181
1.527363,-0.4262538,-0.8091863
1.385406,-0.3900114,-0.4938865
1.395597,-0.2762559,-0.1998901
1.495775,-0.06644278,-0.1674787
1.490682,0.09705856,-0.3249224
1.466499,0.05824715,-0.3621676
1.308709,-0.07040299,-0.334447
1.112312,-0.1970784,-0.3157867
0.9995027,-0.2686536,-0.2153893
0.8896336,-0.2286337,-0.2254977
0.8169847,-0.1623286,-0.2872703
0.7706363,-0.1119369,-0.2729735
0.7961769,-0.09740619,-0.2824273
0.7993083,-0.1221282,-0.2354701
0.7199105,-0.09142188,-0.1895425
0.7044378,-0.06323053,-0.1855212
0.6689701,-0.07440859,-0.1580977
0.6564738,-0.05100045,-0.1729636
0.6676514,-0.05136803,-0.1896836
0.6016209,-0.05365903,-0.2023059
0.6129472,-0.03440429,-0.1759334
0.6656361,-0.04076916,-0.11504
0.7374375,-0.0372757,-0.1468918
0.8335897,-0.04684171,-0.18598
0.8479869,-0.0554615,-0.2328619
0.8749157,-0.09011217,-0.3478991
0.9327677,-0.2426902,-0.4419239
1.053399,-0.4336941,-0.4755795
1.265123,-0.5226317,-0.4108965
1.434156,-0.4451061,-0.3646505
1.592317,-0.380852,-0.4490719
1.777492,-0.4379822,-0.4963721
1.846517,-0.4269376,-0.4373687
1.641173,-0.3862916,-0.3787509
1.325257,-0.3811987,-0.3270356
1.122328,-0.3273916,-0.2019406
0.9082767,-0.2900218,-0.09339672
0.7912018,-0.2474174,-0.1377929
0.8049012,-0.1565702,-0.1770054
0.7249849,-0.09760628,-0.1495057
0.7258793,-0.092346,-0.194945
0.7510592,-0.1104235,-0.2148091
0.6748637,-0.1292402,-0.1680194
0.6768989,-0.1739523,-0.1512257
0.6305731,-0.1890837,-0.1136385
0.5866191,-0.1381199,-0.08082631
0.6063073,-0.1101759,-0.0902193
0.5467619,-0.07575676,-0.1053982
0.5871352,-0.04725011,-0.1411128
0.6858722,-0.07395745,-0.1469045
0.7529691,-0.1146224,-0.1371089
0.8215256,-0.1860778,-0.1776526
0.7903327,-0.2424585,-0.2792896
0.8955856,-0.3275616,-0.5206529
1.260296,-0.4954948,-0.8577729
1.640449,-0.568098,-1.133099
1.758923,-0.5254292,-1.122879
1.541856,-0.3935765,-0.5296358
1.403813,-0.1625705,0.2030336
1.443327,-0.05949565,0.2175566
1.425622,-0.07488275,-0.1234381
1.431256,-0.00484714,-0.2488782
1.405077,-0.007605446,-0.4611752
1.234375,-0.1597141,-0.4463613
0.9717979,-0.2667071,-0.1478823
0.8187215,-0.2929862,-0.1900263
0.894712,-0.2320034,-0.2050476
0.8877136,-0.1396771,-0.1444828
0.8065452,-0.1143119,-0.2381865
0.8375517,-0.05199288,-0.1811194
0.7873308,0.01198273,-0.2066243
0.7403434,0.02759293,-0.2292677
0.765413,0.06318303,-0.153958
0.7551866,0.0459245,-0.1865755
0.8025849,0.01004651,-0.1223885
0.8296588,-0.02603271,-0.1351123
0.7981273,-0.08910784,-0.1677022
0.7708898,-0.087878,-0.08285751
0.7106766,-0.07506426,-0.08004597
0.7104961,-0.07956727,-0.01950406
0.760935,-0.05818028,-0.02232873
0.7751471,-0.0150863,-0.1185673
0.7737324,0.02135327,-0.2108683
0.7887291,-0.1181007,-0.4318186
0.9206878,-0.4269542,-0.617979
1.139903,-0.6156655,-0.654264
1.28501,-0.5666842,-0.5432528
1.369911,-0.4243693,-0.4595215
1.544062,-0.2754672,-0.547989
1.797925,-0.1683945,-0.6243749
1.867257,-0.2787291,-0.6474512
1.634004,-0.4517058,-0.4469183
1.31341,-0.4124322,-0.114119
1.094873,-0.3109846,-0.1153499
0.9830651,-0.1726283,-0.2361034
0.917454,-0.01470475,-0.2495309
0.8403532,-0.01611443,-0.3211947
0.7799672,-0.08293586,-0.3301888
0.7849977,-0.2355273,-0.2784373
0.7783255,-0.4533133,-0.2807982
0.7402584,-0.5191486,-0.2093141
0.7330417,-0.4867725,-0.1382569
0.7488012,-0.4110982,-0.1450585
0.7651007,-0.2905814,-0.1144091
0.7288813,-0.1822035,-0.08833574
0.6707615,-0.08153425,-0.05068278
0.6632178,-0.00284173,-0.01770662
0.6562006,0.03580129,-0.04932977
0.6660588,0.0176975,-0.05251339
0.7049717,-0.01622452,-0.09596311
0.7200392,-0.005499858,-0.146873
0.7377506,0.01589239,-0.1192521
0.7667041,0.01007798,-0.1199652
0.7932185,-0.07477928,-0.1135225
0.8360866,-0.2655035,-0.169254
1.002754,-0.4273281,-0.4475842
1.335421,-0.4629224,-0.8811201
1.532284,-0.4634651,-1.077466
1.479552,-0.4234803,-0.6876762
1.516141,-0.3018223,-0.2843295
1.645305,-0.1862392,-0.3661203
1.636509,-0.06651403,-0.4162244
1.532476,-0.006387322,-0.2784351
1.322067,-0.1039815,-0.2377322
1.093038,-0.1941554,-0.2181696
0.9682491,-0.2014506,-0.2105715
0.810178,-0.190767,-0.2417033
0.7077716,-0.1662407,-0.2373277
0.7052442,-0.1599021,-0.2354726
0.6805508,-0.1337195,-0.2293689
0.7072967,-0.07892766,-0.2316622
0.7175602,-0.06051212,-0.2461943
0.6952413,-0.03782416,-0.2088066
0.7025138,-0.01764128,-0.185797
0.6888953,-0.0256809,-0.1972293
0.710446,-0.02614454,-0.1969352
0.7295787,-0.04442568,-0.1937136
0.7198197,-0.08256926,-0.1726889
0.7241883,-0.100727,-0.1324772
0.7182811,-0.07609806,-0.08936396
0.7465951,-0.03647889,-0.09964493
0.8136446,-0.0369005,-0.1986573
0.9017412,-0.07182886,-0.359516
1.001191,-0.1652264,-0.4770215
1.13848,-0.3372221,-0.4204095
1.29923,-0.4467558,-0.3319481
1.309921,-0.3672175,-0.3036698
1.304026,-0.2791365,-0.2559493
1.518278,-0.3525692,-0.3122355
1.739258,-0.4178674,-0.3939799
1.753212,-0.4385368,-0.3675064
1.627121,-0.4399648,-0.3475229
1.358614,-0.3006593,-0.2403352
0.9741275,-0.1830599,-0.1013316
0.8630912,-0.1893086,-0.1490873
0.9871479,-0.2009903,-0.208027
0.8794092,-0.2031948,-0.1810388
0.8424737,-0.1893509,-0.1947012
0.9302403,-0.198521,-0.1968745
0.7554855,-0.1994152,-0.1634097
0.6775451,-0.1769697,-0.158471
0.7022255,-0.1701647,-0.132893
0.6125441,-0.09615457,-0.0740418
0.6130805,-0.04679028,-0.04064455
0.6205004,-0.08186039,-0.06358691
0.638091,-0.1080023,-0.1137484
0.6885875,-0.1273233,-0.1096716
0.7168887,-0.1059648,-0.09223572
0.7570147,-0.05776465,-0.09132614
0.7555128,-0.05319061,-0.09047916
0.7982517,-0.1303503,-0.1660232
0.8212496,-0.2256811,-0.2364308
0.8412186,-0.2289229,-0.2509071
1.030953,-0.2655667,-0.3756952
1.255684,-0.388108,-0.5676045
1.395939,-0.4127454,-0.5831122
1.36424,-0.3254945,-0.4853086
1.368476,-0.2402977,-0.4842906
1.641067,-0.1665494,-0.4623928
1.781638,-0.1034942,-0.375826
1.568902,-0.1382401,-0.2917905
1.296465,-0.2375474,-0.1846288
1.21277,-0.2484553,-0.2093839
1.134705,-0.2177867,-0.2906196
0.9131703,-0.2008961,-0.2901986
0.8205775,-0.1354569,-0.3192122
0.7756502,-0.09630195,-0.2974484
0.677061,-0.1068237,-0.2491537
0.6568812,-0.1149711,-0.2240791
0.6204421,-0.130227,-0.1436003
0.6530179,-0.1122633,-0.1265342
0.7119141,-0.07825895,-0.1563833
0.6854203,-0.05166869,-0.1747094
0.6791321,-0.02131684,-0.2151054
0.6035726,-0.01973993,-0.1849901
0.5605377,-0.02161659,-0.1135363
0.6737268,-0.01765341,-0.07594514
0.7919836,-0.009289994,-0.0834668
0.8449563,0.01726075,-0.1741286
0.8404693,0.01294848,-0.2572426
0.8703001,-0.1029525,-0.2729033
0.9823973,-0.3884147,-0.3623335
1.183091,-0.6445973,-0.49419
1.39821,-0.5936544,-0.4439684
1.508889,-0.3944054,-0.3373732
1.5932,-0.3084725,-0.3495342
1.680688,-0.3273342,-0.3282855
1.752964,-0.421682,-0.2925355
1.658833,-0.4645958,-0.2737869
1.340282,-0.3236556,-0.2139369
1.135782,-0.1746028,-0.1965897
1.023626,-0.1479665,-0.15107
0.8459928,-0.1407134,-0.1088754
0.7369659,-0.1222917,-0.1418632
0.7108984,-0.1677124,-0.1249432
0.7057501,-0.225116,-0.1181616
0.6711471,-0.2186961,-0.1252885
0.657631,-0.2140397,-0.1033106
0.6297705,-0.1839711,-0.1122545
0.5686055,-0.1147906,-0.1005467
0.6104857,-0.07932564,-0.08914928
0.6442819,-0.06165807,-0.08163472
0.6714165,-0.06257604,-0.06100908
0.7308298,-0.05937701,-0.08867899
0.7254613,-0.07076581,-0.113871
0.7407517,-0.1149451,-0.1076992
0.7359635,-0.1476611,-0.1064484
0.7448554,-0.236322,-0.1671504
0.9118507,-0.3611719,-0.3947535
1.177955,-0.4526529,-0.6771931
1.407411,-0.4537198,-0.6901352
1.469907,-0.3092729,-0.4874552
1.491393,-0.1894128,-0.401692
1.582214,-0.1654707,-0.3909612
1.63762,-0.1252381,-0.3843751
1.608515,-0.1038694,-0.4089282
1.448529,-0.1728322,-0.3612362
1.254602,-0.2589868,-0.2900863
1.111531,-0.2438518,-0.2036522
0.9546882,-0.176831,-0.1625408
0.7953372,-0.116744,-0.216867
0.6973923,-0.05282993,-0.1821203
0.724579,-0.03745818,-0.1793843
0.7411628,-0.03511889,-0.2423177
0.6786143,-0.04102254,-0.2267825
0.646968,-0.08276228,-0.2130462
0.58431,-0.1019894,-0.1540236
0.5588459,-0.1357824,-0.1273315
0.6169314,-0.165016,-0.172232
0.6458892,-0.1346505,-0.1589803
0.6949587,-0.06817062,-0.1832286
0.7445384,0.03467165,-0.2075673
0.7417211,0.06735298,-0.1907172
0.7444825,0.006115516,-0.2043701
0.789735,-0.03809043,-0.2228029
0.8325219,-0.1084048,-0.2844915
0.9383844,-0.2653575,-0.412995
1.251635,-0.502822,-0.5627498
1.485883,-0.6286587,-0.5503339
1.486391,-0.4478658,-0.3609933
1.595459,-0.2875178,-0.2833551
1.720077,-0.3515929,-0.3122492
1.656745,-0.4195839,-0.3072327
1.616767,-0.4689522,-0.2524637
1.528185,-0.4111613,-0.1921335
1.296642,-0.2476144,-0.2018151
1.127688,-0.2031895,-0.1920591
0.947247,-0.1626838,-0.1724755
0.7666112,-0.1039619,-0.1931617
0.7472502,-0.1287378,-0.1881095
0.7535954,-0.1621455,-0.2002501
0.7707897,-0.2428983,-0.202997
0.7990844,-0.2885927,-0.1794129
0.7685483,-0.2383864,-0.1529032
0.7390239,-0.2012576,-0.1005526
0.6673527,-0.1413775,-0.09391042
0.5785299,-0.08569985,-0.1065329
0.5611712,-0.08011433,-0.09492206
0.6392334,-0.08356915,-0.1079999
0.7590539,-0.1090963,-0.1438392
0.7872968,-0.1268605,-0.1744046
0.785908,-0.1205449,-0.1379356
0.805107,-0.1342342,-0.08397474
0.804498,-0.1984666,-0.1009204
0.8628394,-0.2944168,-0.1529218
1.003958,-0.3671764,-0.3126757
1.184565,-0.4006383,-0.5709434
1.299223,-0.3605834,-0.673407
1.289407,-0.2701777,-0.6002234
1.320729,-0.21081,-0.4454346
1.529581,-0.1277485,-0.2594713
1.75155,-0.04479369,-0.3192426
1.700281,-0.05760219,-0.4532673
1.475576,-0.09259184,-0.322081
1.300007,-0.137387,-0.251661
1.090619,-0.1863456,-0.2280447
0.9141687,-0.1664159,-0.1341128
0.8184758,-0.133936,-0.2202179
0.7419136,-0.09809291,-0.2614872
0.7814486,-0.06717407,-0.2470813
0.7582279,-0.09219154,-0.2970342
0.6527617,-0.1035272,-0.2214574
0.6686086,-0.1028548,-0.1817675
0.6876763,-0.1145749,-0.1967179
0.7571708,-0.1045479,-0.2134887
0.8483885,-0.1019739,-0.2888336
0.8011413,-0.1014738,-0.2621676
1.160111,-0.3514833,-0.3724232
1.360313,-0.2912804,-0.3434225
1.450337,-0.30592,-0.3638493
1.545798,-0.3239392,-0.3447434
1.711896,-0.3745503,-0.3082117
1.671252,-0.386861,-0.267078
1.424461,-0.3431513,-0.2486446
1.214518,-0.3421956,-0.2338497
1.060083,-0.3004426,-0.1789291
1.019133,-0.2623386,-0.1731116
0.9828346,-0.2641284,-0.1523586
0.8555767,-0.2327979,-0.1021929
0.8830958,-0.2481382,-0.1235706
0.8468325,-0.221355,-0.1214248
0.7261061,-0.1510517,-0.130631
0.7757299,-0.1527827,-0.1672183
0.7224971,-0.1285789,-0.1170802
0.6561346,-0.1171056,-0.08104485
0.5991896,-0.1192715,-0.09405739
0.4195339,-0.07207286,-0.07484943
0.4098869,-0.0642764,-0.03828196
0.5002221,-0.09229987,-0.01936467
0.6388948,-0.146245,-0.03900146
0.8439671,-0.2120056,-0.06783052
0.9169473,-0.2416074,-0.08600725
0.9131316,-0.24954,-0.1034193
0.9062055,-0.2468262,-0.1311276
0.9704642,-0.2581098,-0.263893
1.177012,-0.2762528,-0.5454342
1.457607,-0.3009205,-0.7899624
1.633149,-0.3419554,-0.7949518
1.6223,-0.3483183,-0.5651205
1.604696,-0.2869819,-0.2624648
1.51174,-0.166772,-0.1225759
1.344163,-0.08108574,-0.1733205
1.327351,-0.08527499,-0.2490305
1.274821,-0.1168185,-0.3166197
1.087523,-0.1468601,-0.2954646
0.9341828,-0.1499995,-0.2092567
0.8214383,-0.118327,-0.2157264
0.7322223,-0.07375005,-0.1976787
0.6865073,-0.04021033,-0.1736601
0.7114109,-0.07246537,-0.2162528
0.7731667,-0.1347689,-0.2119275
0.7764163,-0.1544556,-0.2335932
0.7367008,-0.1270519,-0.2269973
0.6881024,-0.07530898,-0.1438041
0.6454617,-0.04735081,-0.1147963
0.6742856,-0.02877266,-0.09182429
0.7007181,-0.003916041,-0.09806708
0.6515227,-0.01909709,-0.1141342
0.6443988,-0.04453944,-0.07404908
0.7230559,-0.05067184,-0.07321275
0.8683779,-0.04853385,-0.08461
1.022294,-0.03761725,-0.1411665
1.078652,-0.07131191,-0.3098338
1.117462,-0.2002081,-0.4634935
1.212171,-0.385732,-0.4727785
1.271341,-0.4567944,-0.345931
1.27947,-0.3539192,-0.2517943
1.349636,-0.3096127,-0.2609965
1.519526,-0.368544,-0.3351134
1.639456,-0.3946785,-0.3978298
1.592716,-0.4183389,-0.3103358
1.43081,-0.3922064,-0.1732324
1.210733,-0.2980861,-0.1032745
0.9850945,-0.2285396,-0.06446675
0.8704381,-0.135476,-0.09311161
0.832033,-0.01707809,-0.157971
0.7613794,0.03364107,-0.2106553
0.7391863,-0.05897463,-0.2232101
0.734624,-0.2220462,-0.1678865
0.6616042,-0.2482531,-0.116854
0.5825075,-0.2265257,-0.0711606
0.4948048,-0.2642479,-0.03188908
0.4895541,-0.2294144,-0.05471272
0.5853378,-0.1592321,-0.07523696
0.630172,-0.1019122,-0.07661231
0.6828602,-0.08088648,-0.08577626
0.7848418,-0.1246055,-0.06158389
0.8565915,-0.1296854,-0.05316477
0.8893541,-0.1608035,-0.1455161
1.028457,-0.2605708,-0.3796438
1.361333,-0.3534975,-0.6895621
1.528049,-0.4132677,-0.8027808
1.434942,-0.355685,-0.6199608
1.483658,-0.2803022,-0.4033935
1.591378,-0.2144486,-0.2874935
1.507074,-0.06351171,-0.1958681
1.403498,-0.029351,-0.1728382
1.348734,-0.1154709,-0.2618518
1.230481,-0.1576425,-0.3377277
1.085455,-0.1866832,-0.2968731
0.9549326,-0.1813406,-0.2262361
0.8785548,-0.1607418,-0.2159016
0.8449962,-0.1307452,-0.1740005
0.7353244,-0.05359057,-0.1110378
0.6991173,-0.01764701,-0.1256268
0.7627545,0.005910002,-0.1776691
0.7103633,0.06831962,-0.2386356
0.688775,0.05543854,-0.2517889
0.7120811,-0.01384231,-0.1863527
0.6682264,-0.05076003,-0.1053757
0.688835,-0.08335116,-0.05557616
0.7141238,-0.07552804,-0.1057913
0.7231027,-0.04295658,-0.1611622
0.7747565,-0.04885598,-0.1240918
0.8323853,-0.01996194,-0.1127348
0.9214336,0.005579259,-0.1189538
0.9346633,-0.01471236,-0.1159685
0.8771117,-0.03487191,-0.2053618
0.8956871,-0.1249315,-0.3626649
0.9587208,-0.2560304,-0.4434108
1.067992,-0.3236676,-0.371552
1.168958,-0.3254181,-0.293458
1.239415,-0.326808,-0.3241125
1.478438,-0.3516911,-0.3588895
1.787703,-0.3146735,-0.4250109
1.834347,-0.2419116,-0.5010679
1.607047,-0.1821187,-0.4189028
1.293127,-0.1450868,-0.3046496
1.016066,-0.195568,-0.2684148
0.8711868,-0.2551801,-0.2374635
0.8468003,-0.2809927,-0.2283508
0.8314218,-0.3004211,-0.2230573
0.8136186,-0.2686749,-0.2334625
0.7924925,-0.2258981,-0.2551744
0.7665831,-0.1699487,-0.2082399
0.7609864,-0.08322622,-0.1697695
0.709493,-0.02473681,-0.1948081
0.6448292,-0.006088905,-0.2216562
0.6178855,-0.04264293,-0.2355912
0.5910638,-0.1014427,-0.230967
0.5886563,-0.1589533,-0.2218555
0.5946887,-0.2896041,-0.2368576
0.6277808,-0.4816076,-0.2391282
0.7014664,-0.5815819,-0.1887885
0.7784682,-0.4754855,-0.1923325
0.8964576,-0.3229662,-0.4318075
1.085403,-0.2763272,-0.7854849
1.35289,-0.2550644,-0.9108393
1.450818,-0.3055024,-0.8392799
1.255505,-0.424546,-0.7217162
1.198745,-0.4457597,-0.5462514
1.372729,-0.3238684,-0.5458304
1.447462,-0.09497668,-0.6268298
1.315479,0.04737149,-0.4823257
1.104738,0.02333859,-0.4003504
1.008573,-0.01300656,-0.413623
0.9312551,-0.08119314,-0.3788468
0.7979526,-0.180737,-0.3994252
0.7683673,-0.2257987,-0.3393248
0.8028318,-0.2187755,-0.2987392
0.829358,-0.1679316,-0.334674
0.8294342,-0.1077964,-0.3166974
0.8133542,-0.0717606,-0.3475996
0.8164917,-0.08411058,-0.3081611
0.7919362,-0.1010096,-0.2145623
0.7904085,-0.0925224,-0.196427
0.7783141,-0.1032148,-0.1758882
0.7020737,-0.08583982,-0.1888021
0.6770515,-0.06404179,-0.1776769
0.6963899,-0.07980861,-0.1373768
0.7238207,-0.07777874,-0.1077319
0.7688904,-0.0722474,-0.09034834
0.8596745,-0.05064674,-0.1948717
0.9704406,-0.01851003,-0.2953095
0.9559804,-0.05639331,-0.3138651
0.9274789,-0.215191,-0.4097958
1.028005,-0.4608848,-0.585814
1.098503,-0.5724627,-0.6500839
1.162687,-0.4584042,-0.5314845
1.402531,-0.3061333,-0.4255418
1.639568,-0.2064767,-0.3794883
1.680476,-0.2559912,-0.4042075
1.724816,-0.4590954,-0.4669519
1.704725,-0.5115299,-0.3219467
1.410701,-0.391028,-0.156285
1.175214,-0.2733491,-0.1479438
1.045084,-0.1717619,-0.1216807
0.7972848,-0.1422247,-0.1296192
0.6544606,-0.1357764,-0.1524495
0.6585406,-0.1509543,-0.1298801
0.7011181,-0.2168677,-0.1275564
0.7441055,-0.2353383,-0.1225888
0.7140778,-0.2539607,-0.1400261
0.7079853,-0.2548099,-0.1639547
0.6895189,-0.2371565,-0.1467086
0.644766,-0.2380856,-0.1059182
0.6572517,-0.1704056,-0.03389864
0.6549926,-0.1030759,0.01485922
0.6611754,-0.05836762,-0.02801341
0.6790044,-0.03458283,-0.08499163
0.7090975,-0.07156645,-0.07768026
0.7916433,-0.1204208,-0.07581891
0.9004545,-0.2214999,-0.09354932
1.027821,-0.3065672,-0.1107987
1.066217,-0.3246516,-0.1696398
1.043923,-0.3736933,-0.2737608
1.120705,-0.4067763,-0.5139296
1.234129,-0.3791544,-0.8220496
1.278519,-0.3113045,-0.8657492
1.265077,-0.2384429,-0.5731597
1.315537,-0.2099933,-0.2387898
1.483098,-0.1676383,-0.1813977
1.592469,-0.07440163,-0.2922834
1.547396,-0.04283575,-0.2968425
1.422291,-0.1076601,-0.2716872
1.179009,-0.1493547,-0.1927099
0.8705835,-0.156706,-0.05535421
0.7933524,-0.1541329,-0.1104372
0.8719397,-0.1245675,-0.2092989
0.8414947,-0.1232618,-0.1928672
0.8342226,-0.1205272,-0.2138271
0.8269586,-0.09842771,-0.1869213
0.7296739,-0.097935,-0.1264024
0.7046311,-0.09538488,-0.154798
0.6818226,-0.1129648,-0.1489765
0.6545871,-0.1229112,-0.1257783
0.6855977,-0.08507225,-0.1288897
0.6476002,-0.04398393,-0.1137952
0.631648,-0.01914326,-0.1198932
0.6982171,-0.004727211,-0.1127741
0.7716765,0.02194352,-0.1115666
0.8380141,0.01041157,-0.1612213
0.8381622,-0.05614817,-0.2449379
0.8405199,-0.1551473,-0.3825849
0.93813,-0.37322,-0.4941273
1.120449,-0.5661208,-0.4979378
1.313104,-0.539125,-0.4074293
1.444703,-0.4288438,-0.3238567
1.636458,-0.3605178,-0.3439548
1.836853,-0.3545714,-0.3508889
1.826254,-0.3507146,-0.3089234
1.640063,-0.2866598,-0.2942143
1.354852,-0.266059,-0.227772
1.072782,-0.2590525,-0.1234108
0.8920583,-0.2052042,-0.07645564
0.7587514,-0.1815554,-0.08734444
0.7010253,-0.1499138,-0.1288273
0.7002283,-0.1265334,-0.1525892
0.6717004,-0.1417092,-0.1750964
0.6522533,-0.1347486,-0.1985346
0.6303648,-0.153407,-0.172601
0.5951615,-0.1989485,-0.1345947
0.5655708,-0.2206349,-0.09246772
0.5601408,-0.2069824,-0.06183776
0.6074007,-0.1542227,-0.07343955
0.6314342,-0.09284905,-0.0873175
0.6352112,-0.04347518,-0.1217345
0.6667952,-0.06561708,-0.1386092
0.7002852,-0.1248546,-0.09767055
0.7563193,-0.1405286,-0.09365964
0.8296437,-0.17757,-0.2053067
1.038878,-0.2497534,-0.502523
1.442503,-0.3454303,-0.8582305
1.70547,-0.3833842,-0.9344301
1.698607,-0.3030198,-0.7070906
1.700297,-0.2798153,-0.4688624
1.704545,-0.2869697,-0.3744121
1.463409,-0.212602,-0.3723959
1.196267,-0.1632836,-0.3603144
1.223131,-0.1710369,-0.3348616
1.249752,-0.1781644,-0.369316
1.084283,-0.1137638,-0.3825406
1.012451,-0.04615584,-0.3458074
0.9767187,-0.03357055,-0.312973
0.7876256,0.01701958,-0.1940349
0.6833301,0.01486883,-0.1153971
0.7076584,-0.04360474,-0.1694067
0.637343,-0.05388541,-0.1738573
0.5985181,-0.07245361,-0.1628195
0.7228206,-0.06858485,-0.1779207
0.8397474,-0.0532546,-0.1676659
0.8553639,-0.06307315,-0.170716
0.790629,-0.04714482,-0.1721022
0.7135317,-0.04864045,-0.1618501
0.7196837,-0.0528165,-0.1318612
0.7571376,-0.01685621,-0.08521887
0.773166,0.03266833,-0.08311706
0.7906876,0.08607002,-0.1310209
0.7832518,0.0787984,-0.1799197
0.7868791,-0.04921366,-0.2585189
0.8173906,-0.3205782,-0.4648663
0.873624,-0.675618,-0.6677288
1.039888,-0.9073505,-0.6344211
1.24225,-0.8944927,-0.4948476
1.410822,-0.6237205,-0.4445874
1.658976,-0.2424765,-0.4460854
1.895998,-0.1075752,-0.4990171
1.879512,-0.1638536,-0.5267809
1.595669,-0.08752365,-0.4033723
1.216711,-0.02867177,-0.2618535
0.9677283,-0.110222,-0.2360625
0.8918914,-0.1782343,-0.2769555
0.8300502,-0.2710574,-0.2779046
0.8281539,-0.3588002,-0.2368049
0.8515971,-0.3550252,-0.2269791
0.729117,-0.3290035,-0.2132145
0.6240394,-0.2653372,-0.2020348
0.5838748,-0.1852197,-0.1773836
0.5443167,-0.1506773,-0.1215291
0.593065,-0.171979,-0.1348176
0.6503599,-0.230827,-0.1412129
0.6835796,-0.212257,-0.09146815
0.7098949,-0.1535107,-0.06995277
0.692921,-0.1027923,-0.06441492
0.6952701,-0.01830586,-0.07033152
0.7478891,-0.002485648,-0.07681983
0.8067969,-0.04929772,-0.1018372
0.8013376,-0.1595092,-0.1453647
0.7864261,-0.3343383,-0.153306
0.8277992,-0.3955954,-0.2381167
0.9426532,-0.3937719,-0.5170327
1.235405,-0.4080345,-0.8692236
1.46292,-0.3513488,-0.9942918
1.389208,-0.2943679,-0.7644178
1.357743,-0.313383,-0.4197189
1.43932,-0.3156024,-0.1526472
1.415798,-0.2279018,-0.0920914
1.48213,-0.1083916,-0.3183478
1.561861,-0.0316226,-0.4893229
1.335626,-0.04029354,-0.4140849
1.037756,-0.08678294,-0.3049831
0.8907126,-0.1044973,-0.2142311
0.8014848,-0.1625918,-0.1759784
0.7117496,-0.221018,-0.1724905
0.6640389,-0.205432,-0.1317066
0.69914,-0.168858,-0.1831623
0.6650888,-0.1108743,-0.260147
0.5917602,-0.06901513,-0.2436573
0.6052209,-0.05759671,-0.221412
0.6048177,-0.03880754,-0.1836353
0.6126936,-0.03914464,-0.1638768
0.6172702,-0.04814697,-0.2030521
0.6054059,-0.06782643,-0.213201
0.6484141,-0.08640425,-0.1886891
0.6935868,-0.087063,-0.2006057
0.7889005,-0.165987,-0.3400254
0.9908563,-0.3637166,-0.5145467
1.275624,-0.5078673,-0.4920223
1.51256,-0.4348938,-0.3609421
1.601462,-0.3135815,-0.2875388
1.70128,-0.2994497,-0.272473
1.764232,-0.312551,-0.4012039
1.713322,-0.3946483,-0.5233587
1.581751,-0.4699127,-0.3774967
1.263418,-0.395442,-0.2069358
0.9986395,-0.3027623,-0.1924533
0.9003585,-0.2330502,-0.1503832
0.756245,-0.1698305,-0.1282416
0.7026017,-0.1562142,-0.1815112
0.7193847,-0.1554918,-0.183498
0.6734139,-0.1775162,-0.1610007
0.6460044,-0.1986295,-0.1510598
0.5691005,-0.1760169,-0.1367635
0.4859996,-0.1361317,-0.1388044
0.4878644,-0.09803248,-0.1275744
0.5070709,-0.08560163,-0.09151958
0.5412347,-0.09538794,-0.06006176
0.6205307,-0.1560837,-0.07625427
0.7921312,-0.2872205,-0.1285297
0.9642036,-0.3478758,-0.1310382
0.9996844,-0.2640029,-0.113792
0.9931335,-0.2045337,-0.1325127
1.032571,-0.2621614,-0.2509625
1.134684,-0.3367009,-0.5329723
1.259095,-0.3640475,-0.7159101
1.284324,-0.2580685,-0.6148499
1.305589,-0.09701458,-0.4933116
1.409847,-0.1298306,-0.4693189
1.457599,-0.1822658,-0.4334826
1.525677,-0.1163715,-0.4182642
1.593087,-0.1393983,-0.4203971
1.496772,-0.1532911,-0.4071744
1.406186,-0.1207349,-0.3961362
1.227309,-0.1467919,-0.308615
0.927655,-0.1146505,-0.2081431
0.7970527,-0.07486463,-0.2031484
0.7018281,-0.06588193,-0.224034
0.6467822,-0.05142445,-0.2392791
0.6844174,-0.09862792,-0.2332934
0.6339671,-0.1284362,-0.2266952
0.5918089,-0.1175974,-0.222595
0.5537177,-0.09956228,-0.1966116
0.5400508,-0.0534397,-0.2110354
0.621724,-0.01729884,-0.2146044
0.6547854,-0.0006449762,-0.176717
0.6348999,-0.0269719,-0.1344753
0.6034169,-0.06534826,-0.07654736
0.6203118,-0.07460124,-0.06575507
0.7243193,-0.08938126,-0.121238
0.8852783,-0.1121885,-0.2294996
1.056355,-0.2000778,-0.3656862
1.15446,-0.3486392,-0.4486345
1.295118,-0.4155704,-0.4515827
1.389786,-0.3310118,-0.3881339
1.362411,-0.2278128,-0.3368698
1.533897,-0.2654958,-0.3529407
1.768105,-0.3845272,-0.3718667
1.814922,-0.505106,-0.3579229
1.715786,-0.5272899,-0.3169773
1.44818,-0.3987184,-0.2407822
1.172882,-0.2856595,-0.1666752
0.9530753,-0.1798753,-0.1341953
0.7889279,-0.07633535,-0.1167228
0.7406087,-0.06884831,-0.1144016
0.6874245,-0.0739154,-0.1257909
0.6689912,-0.126419,-0.1320096
0.664284,-0.2153105,-0.1511035
0.6171658,-0.2265047,-0.1381367
0.5975377,-0.1866842,-0.1092212
0.5028538,-0.1255148,-0.1120094
0.4398004,-0.1028497,-0.07689186
0.501321,-0.09951438,-0.04342914
0.5372446,-0.08486722,-0.06356398
0.5886101,-0.09226971,-0.07940923
0.7223458,-0.06264377,-0.09022408
0.8759293,-0.04468807,-0.09283905
0.9284122,-0.1183199,-0.147541
0.9899934,-0.2619001,-0.415281
1.257969,-0.3776155,-0.7616233
1.462569,-0.351046,-0.8084043
1.405161,-0.2850939,-0.6201484
1.360301,-0.2716174,-0.4218799
1.489337,-0.2475645,-0.2154278
1.701115,-0.1692612,-0.3346077
1.845017,-0.06982058,-0.5970909
1.641424,-0.08567369,-0.3950909
1.209935,-0.1524209,-0.2253803
1.028222,-0.1457492,-0.2733262
0.8910918,-0.1753735,-0.1917814
0.6721917,-0.1671805,-0.2615024
0.6781033,-0.08401506,-0.2997422
0.6942349,-0.09187583,-0.2565067
0.6709234,-0.1201076,-0.3324119
0.6890754,-0.1400876,-0.2399442
0.6086988,-0.1606253,-0.1562152
0.547415,-0.1166441,-0.1441147
0.5225522,-0.08302177,-0.1264683
0.5534062,-0.03877766,-0.2264911
0.5997676,-0.01264535,-0.2260651
0.5485697,-0.03951689,-0.1623915
0.5622746,-0.01481326,-0.08899733
0.6280601,0.0004092468,-0.05000978
0.7266447,-0.01531444,-0.2030624
0.8915345,-0.1197964,-0.3943592
1.089147,-0.3834367,-0.5802121
1.344873,-0.5253787,-0.5918432
1.488541,-0.421231,-0.4271381
1.609914,-0.3165798,-0.3571521
1.796761,-0.3163004,-0.2768521
1.771822,-0.339924,-0.2492865
1.710102,-0.4306294,-0.2682054
1.744956,-0.544024,-0.2111796
1.629942,-0.4879689,-0.2255179
1.36062,-0.3507929,-0.2074326
0.999916,-0.2291622,-0.1434781
0.7939834,-0.1293608,-0.1482733
0.8321156,-0.1376589,-0.1516482
0.7546178,-0.1544588,-0.1660011
0.6741195,-0.1578875,-0.1740907
0.7042899,-0.1953537,-0.1685989
0.6142697,-0.1779699,-0.1644161
0.5399779,-0.1605114,-0.149744
0.5381602,-0.1622234,-0.1540822
0.5279227,-0.1397512,-0.1520341
0.5011726,-0.1365735,-0.1509994
0.480173,-0.1417091,-0.1441879
0.5731821,-0.1697929,-0.1005997
0.6598709,-0.2183526,-0.07024286
0.6987864,-0.2412954,-0.09052581
0.7499662,-0.248863,-0.1127064
0.8112731,-0.2452393,-0.04871153
0.9342454,-0.2611365,-0.02099134
1.018519,-0.3280026,-0.2271535
1.143498,-0.404441,-0.5706101
1.315407,-0.4145401,-0.7755374
1.348866,-0.3460626,-0.7081525
1.391593,-0.2729091,-0.5274987
1.510011,-0.1989202,-0.3731834
1.657945,-0.1003122,-0.2892792
1.74506,-0.01698184,-0.3197353
1.626507,-0.001948818,-0.3229747
1.459147,-0.08744381,-0.303508
1.30515,-0.1815974,-0.3302224
1.103337,-0.1942379,-0.2984728
0.9832069,-0.1712356,-0.2905006
0.9381485,-0.1533951,-0.3054887
0.8285503,-0.1425235,-0.2711983
0.6945457,-0.1377392,-0.2524474
0.6240074,-0.148609,-0.2100536
0.5655362,-0.1549232,-0.1920807
0.5367516,-0.1269442,-0.2324409
0.5821553,-0.09325743,-0.2672947
0.6217553,-0.07090908,-0.300393
0.6481501,-0.07523484,-0.2911509
0.6845686,-0.1009119,-0.2394569
0.7156363,-0.116397,-0.1658498
0.7441317,-0.1200504,-0.1349953
0.7733696,-0.08609606,-0.1939138
0.8409646,-0.03358018,-0.2280669
0.9044481,-0.01288108,-0.2275663
0.9072176,-0.02164826,-0.2228634
0.919812,-0.06092911,-0.2245772
0.9798116,-0.1692112,-0.3273687
1.122882,-0.3638053,-0.5018129
1.333615,-0.4657447,-0.579727
1.408015,-0.3749025,-0.4851024
1.354695,-0.3349497,-0.412167
1.438124,-0.4232751,-0.4509632
1.589304,-0.5029355,-0.3937717
0.8806948,-0.1482327,-0.379675
0.9688599,-0.3191011,-0.4060479
1.188184,-0.41482,-0.3760045
1.496833,-0.4298245,-0.308373
1.619118,-0.4020782,-0.2767409
1.691582,-0.3737922,-0.2888622
1.835008,-0.4242754,-0.2875374
1.722577,-0.4659288,-0.2512991
1.415143,-0.375215,-0.2338641
1.22029,-0.262543,-0.21972
1.088252,-0.1931822,-0.1791858
0.9396356,-0.129172,-0.152764
0.7640628,-0.1273155,-0.1649999
0.6759583,-0.1745262,-0.1753103
0.7056081,-0.195555,-0.1596471
0.6751962,-0.2002536,-0.1426828
0.6532014,-0.2115431,-0.1268665
0.6557586,-0.2042668,-0.1187953
0.641466,-0.1521848,-0.1021551
0.6760054,-0.09276371,-0.04366339
0.6717638,-0.07550244,-0.019788
0.6816546,-0.07613298,-0.05021809
0.7252625,-0.05509788,-0.06141486
0.737991,-0.05467635,-0.07566917
0.7700771,-0.103024,-0.0852916
0.7768292,-0.1770585,-0.07791026
0.7841803,-0.2840008,-0.12157
0.8508083,-0.3732386,-0.2983306
1.080946,-0.4244307,-0.6590338
1.401311,-0.4612413,-0.8730754
1.457737,-0.4210764,-0.6070327
1.452556,-0.3177814,-0.2844731
1.680671,-0.1416935,-0.2693361
1.814924,0.070272,-0.3085841
1.679147,0.09741033,-0.2966849
1.493734,-0.004264152,-0.2770878
1.330576,-0.09517669,-0.2378641
1.117168,-0.1944002,-0.2411053
0.9798415,-0.1861793,-0.2416907
0.899541,-0.1157327,-0.233247
0.7463582,-0.1069173,-0.2478268
0.6900113,-0.08482499,-0.2319535
0.6618803,-0.08753045,-0.2203197
0.585805,-0.1260882,-0.2096809
0.6131486,-0.1254069,-0.1981506
0.5971173,-0.1181338,-0.2033213
0.5631513,-0.09434598,-0.1750507
0.5827399,-0.06967414,-0.1553137
0.5701233,-0.06164384,-0.1371849
0.6515795,-0.03884672,-0.1049583
0.7571284,-0.04379294,-0.1178597
0.8114866,-0.02672768,-0.13459
0.8469025,0.0353788,-0.156172
0.8365984,0.03024332,-0.2255666
0.8878184,-0.09142816,-0.333457
1.00948,-0.2987547,-0.442435
1.241205,-0.4076776,-0.461008
1.484251,-0.3554464,-0.4075812
1.570025,-0.3584889,-0.3860571
1.730446,-0.4385616,-0.3927878
1.854784,-0.4684165,-0.3768797
1.678726,-0.4320559,-0.3320955
1.446798,-0.3448295,-0.2910563
1.273357,-0.2505373,-0.2643828
1.064015,-0.160769,-0.2318997
0.8807927,-0.09207042,-0.1925011
0.8362819,-0.1055141,-0.1537482
0.8589555,-0.1435169,-0.1217233
0.8014191,-0.1632659,-0.1140224
0.7478085,-0.2070222,-0.1361562
0.727051,-0.2148762,-0.1523535
0.6850347,-0.1806425,-0.1457145
0.7012751,-0.1572678,-0.1283508
0.6920924,-0.1104833,-0.09702079
0.6290406,-0.09405876,-0.08277747
0.6397962,-0.1234959,-0.08506032
0.6938853,-0.1154726,-0.06260636
0.7661353,-0.1148509,-0.05811692
0.7952868,-0.1384515,-0.1051485
0.7823794,-0.1753744,-0.1503998
0.8376601,-0.2452022,-0.1482728
0.8781745,-0.2842505,-0.165485
0.9637597,-0.3371856,-0.3541302
1.224057,-0.406111,-0.6897583
1.406232,-0.3517691,-0.8397003
1.331199,-0.2768973,-0.593192
1.302911,-0.2559797,-0.2651697
1.51591,-0.1389963,-0.1937796
1.631347,0.01361047,-0.3027519
1.50042,0.04518642,-0.3812836
1.351114,-0.03710109,-0.298957
1.212902,-0.1605388,-0.2071001
1.038832,-0.2275925,-0.2380658
0.918532,-0.2076843,-0.2393082
0.8867151,-0.1552817,-0.2503133
0.8451041,-0.1178047,-0.282846
0.8236543,-0.100883,-0.2517228
0.8222014,-0.07923962,-0.2335219
0.7206338,-0.06466344,-0.1816341
0.6782826,-0.06975213,-0.1348332
0.6796058,-0.07364204,-0.1364092
0.6125663,-0.06249671,-0.1220128
0.6180167,-0.03163414,-0.1511135
0.6068348,0.01483197,-0.1645638
0.5927949,0.04836071,-0.1527511
0.6333969,0.03908399,-0.1211278
0.6475958,0.02998327,-0.04273236
0.7302252,0.03230658,-0.08486321
0.777029,0.01078115,-0.1804924
0.7725508,-0.04137854,-0.2447116
0.9165383,-0.2314545,-0.3918732
1.164369,-0.4822358,-0.5130413
1.380964,-0.4889237,-0.4822533
1.558133,-0.3706767,-0.3839991
1.827607,-0.3655724,-0.3665242
1.939683,-0.330549,-0.3892198
1.735996,-0.2954725,-0.3767946
1.598357,-0.3088339,-0.3943564
1.417279,-0.222591,-0.3745504
1.169388,-0.1765387,-0.296013
0.9604245,-0.1416195,-0.1976217
0.6541351,-0.04383342,-0.1315258
0.7145762,-0.07940391,-0.1903898
0.8518148,-0.08948482,-0.2354772
0.6901318,-0.06446838,-0.2575407
0.7881715,-0.1453138,-0.3041065
0.7682193,-0.1621666,-0.2856716
0.6296842,-0.13902,-0.264767
0.7332447,-0.09588946,-0.1886106
0.653867,-0.05367194,-0.1116732
0.6243036,-0.08393766,-0.1507977
0.6355117,-0.08915844,-0.1483869
0.5547128,-0.1216493,-0.1320321
0.6815922,-0.1941199,-0.1510668
0.7740875,-0.2746738,-0.1544594
0.813545,-0.3666929,-0.178155
0.8452398,-0.3719915,-0.1787254
0.8427507,-0.3653216,-0.2150219
0.9945735,-0.4215154,-0.4218527
1.225616,-0.4673896,-0.7160283
1.417708,-0.4342597,-0.7916269
1.424278,-0.3123177,-0.5809102
1.473679,-0.1607426,-0.4712409
1.714658,-0.01236388,-0.5366203
1.669214,0.03404886,-0.4943923
1.425258,-0.04542499,-0.3540059
1.237273,-0.1396645,-0.2668929
1.072878,-0.2121798,-0.2837536
1.023202,-0.2138109,-0.306874
0.9253452,-0.1577228,-0.2742425
0.7930666,-0.08482998,-0.2867647
0.7371031,-0.004266662,-0.2989123
0.6799294,-0.02332619,-0.2726991
0.7182111,-0.1156952,-0.2683278
0.7393919,-0.1665342,-0.2403842
0.7373891,-0.1699399,-0.2363348
0.8459067,-0.1253714,-0.261926
0.868065,-0.07752562,-0.2454727
0.8426135,-0.04665299,-0.2456725
0.8287022,-0.008675748,-0.2218605
0.7647936,0.007589733,-0.1694761
0.7560097,0.03376422,-0.178815
0.7474642,0.052048,-0.1836224
0.7320501,-0.0163244,-0.1627868
0.7529285,-0.097665,-0.1548027
0.8093253,-0.1181213,-0.1392514
0.9573672,-0.1033248,-0.09717115
1.031509,-0.06806283,-0.04873038
0.9217015,-0.007978455,-0.08794307
0.8133516,0.01120358,-0.2089614
0.8525696,-0.1303445,-0.358721
0.9896903,-0.3844216,-0.5332321
1.124943,-0.583952,-0.5888319
1.204443,-0.6322482,-0.5200051
1.321327,-0.5370935,-0.5334289
1.652655,-0.4224398,-0.6274082
1.924916,-0.3733943,-0.6887144
1.839441,-0.3870029,-0.6346598
1.545329,-0.4271696,-0.4216751
1.184363,-0.4313359,-0.2007598
1.016231,-0.3828667,-0.1277229
0.9744285,-0.2436425,-0.1399044
0.8259962,-0.07033065,-0.1511052
0.8431916,-0.02561127,-0.2125234
0.8280055,-0.03732875,-0.2611202
0.6800787,-0.05727575,-0.1991671
0.7039324,-0.1641563,-0.1525037
0.6496183,-0.2179755,-0.1165367
0.6241593,-0.1949393,-0.05814116
0.690533,-0.1753756,-0.05919519
0.5832839,-0.07258011,-0.04511997
0.5538282,0.02457002,-0.0320177
0.5804159,0.01701363,-0.04571502
0.6686989,-0.03899343,-0.0456124
0.913653,-0.09948424,-0.08688262
0.9778468,-0.08732049,-0.1350055
0.9058515,-0.1119675,-0.1674965
0.8692833,-0.2613527,-0.1596965
0.8330424,-0.3795667,-0.132941
0.8188417,-0.4274204,-0.2459864
0.9792362,-0.4143681,-0.5384048
1.387688,-0.3620214,-0.9314197
1.602667,-0.3383984,-1.037402
1.515008,-0.3213626,-0.5935449
1.549635,-0.2709672,-0.2450552
1.675503,-0.09864673,-0.4104496
1.642864,0.1317208,-0.4996986
1.46162,0.1566262,-0.3184208
1.165899,-0.01599957,-0.2686158
0.872919,-0.1617762,-0.2592249
0.8244209,-0.2154886,-0.2191838
0.766282,-0.2557969,-0.2834117
0.5760587,-0.2857116,-0.2661458
0.6656488,-0.2301129,-0.2573795
0.7515785,-0.145587,-0.3054944
0.6518033,-0.09325342,-0.2248568
0.7021548,-0.01382326,-0.1681215
0.7077328,0.01902828,-0.1365321
0.6757834,-0.01065367,-0.1298066
0.740086,0.0370308,-0.1716847
0.7385838,0.03912997,-0.1344214
0.7236654,-0.04139215,-0.1335586
0.6687411,-0.05982057,-0.08868464
0.6005388,-0.08005146,0.002073168
0.6537148,-0.03320672,-0.05097204
0.7351715,0.07378882,-0.1196611
0.8139225,0.0587686,-0.2529689
0.9335925,-0.07624319,-0.4815529
1.14112,-0.3378428,-0.5646209
1.431247,-0.491607,-0.4748634
1.627443,-0.3705457,-0.3772274
1.697776,-0.2823076,-0.3348648
1.790288,-0.2985919,-0.2962473
1.843484,-0.3578276,-0.3215218
1.701069,-0.4996475,-0.3558671
1.440345,-0.5472221,-0.2669588
1.142055,-0.4326045,-0.1694821
0.8648811,-0.3114539,-0.1073078
0.7406799,-0.2198236,-0.09065466
0.6968182,-0.1443663,-0.1481413
0.6835064,-0.1252279,-0.1818652
0.7231658,-0.1431727,-0.1869426
0.7250112,-0.1780751,-0.1755114
0.7226793,-0.2104165,-0.1575309
0.6933383,-0.1971101,-0.1564533
0.5913451,-0.1572576,-0.1357904
0.5397625,-0.1099455,-0.1336408
0.5472141,-0.06181337,-0.1430106
0.5742672,-0.04720402,-0.1329591
0.6287558,-0.0803632,-0.1364739
0.702747,-0.1123319,-0.1295024
0.7632377,-0.1024887,-0.119649
0.7966636,-0.1113906,-0.1358196
0.876542,-0.1715547,-0.1915357
0.9487065,-0.2300935,-0.2637994
0.9632134,-0.2436016,-0.279185
1.045231,-0.2287785,-0.3559588
1.227254,-0.2502599,-0.6004217
1.391646,-0.272825,-0.7549362
1.456731,-0.228361,-0.6524551
1.613957,-0.1733525,-0.5113388
1.809898,-0.1446577,-0.4110093
1.58904,-0.130966,-0.2193725
1.186858,-0.1336933,-0.06994774
1.065276,-0.1294875,-0.1211415
1.051873,-0.1241417,-0.2338467
1.031884,-0.1357848,-0.2873641
0.9751559,-0.1373113,-0.2766087
0.8842365,-0.09960908,-0.2443449
0.9116046,-0.05913822,-0.2374308
0.8963606,-0.07500823,-0.197594
0.7650188,-0.1024252,-0.1425432
0.675942,-0.1018956,-0.1514544
0.6020925,-0.1103835,-0.1684234
0.5731437,-0.1044528,-0.1605372
0.6255072,-0.05134874,-0.1379476
0.715446,0.04181393,-0.1027099
0.8112083,0.1301221,-0.111776
0.8453448,0.1463701,-0.1439663
0.8492724,0.1262919,-0.136318
0.8591853,0.1076744,-0.0880913
0.8636537,0.07866031,-0.04040861
0.8721209,0.04911617,-0.1345455
0.8985428,-0.08425725,-0.3940117
1.029775,-0.3632493,-0.5888153
1.204945,-0.583776,-0.5632151
1.238579,-0.6144741,-0.4536389
1.243566,-0.4976076,-0.4642122
1.42856,-0.4034128,-0.5587341
1.725865,-0.530233,-0.6099812
1.884838,-0.6412247,-0.527762
1.684235,-0.4397858,-0.3645001
1.324801,-0.1722827,-0.3155423
1.11846,-0.01046788,-0.2683296
0.9370056,0.07127995,-0.2082271
0.8270396,0.03700954,-0.274418
0.8532056,0.008346424,-0.2569262
0.8123503,-0.07353933,-0.2274679
0.8112571,-0.2755382,-0.2674566
0.812076,-0.3685024,-0.2188945
0.7425137,-0.3747041,-0.1918354
0.7377574,-0.4157592,-0.1439114
0.7012671,-0.4094426,-0.08718255
0.6748594,-0.3419238,-0.0792635
0.6535773,-0.2751616,-0.01196489
0.5725278,-0.2232585,-0.01544245
0.5602545,-0.1329558,-0.01967977
0.5727224,0.01221229,0.0233714
0.5959696,0.1168002,-0.04697463
0.6363494,0.1176996,-0.08551447
0.7361874,0.03988663,-0.07860777
0.9078566,-0.05375003,-0.1047194
0.9099977,-0.1096392,-0.1063484
0.8632167,-0.2413053,-0.1717832
0.9579336,-0.4823908,-0.3630948
1.050895,-0.5422765,-0.5455699
1.234134,-0.4319237,-0.5883328
1.495309,-0.3952956,-0.6296958
1.51243,-0.3292104,-0.6414237
1.396245,-0.2206346,-0.4058008
1.412997,-0.05360621,-0.1832435
1.409398,0.1799934,-0.1896163
1.455117,0.1221472,-0.3248101
1.569384,-0.01861688,-0.4569995
1.318948,-0.008560749,-0.3993329
0.927448,-0.2215295,-0.2690186
0.781912,-0.3861274,-0.182573
0.679802,-0.3613909,-0.1278169
0.5933134,-0.4123378,-0.1809694
0.5628423,-0.2945561,-0.1909284
0.5965048,-0.1586057,-0.1901536
0.7059395,-0.1541226,-0.2712549
0.7295442,-0.03012317,-0.287213
0.6595652,0.07473559,-0.2778155
0.571822,0.02536496,-0.1887385
0.5437043,-0.08118946,-0.06324398
0.5800002,-0.09614815,-0.105357
0.6096309,-0.08863265,-0.1629588
0.724506,-0.1147282,-0.1871736
0.8669261,-0.04580472,-0.2554584
0.9313931,-0.07890354,-0.3096207
1.024069,-0.232753,-0.4254129
1.208678,-0.3565366,-0.5255022
1.391229,-0.3808114,-0.4108097
1.420749,-0.236723,-0.3012257
1.509055,-0.2394256,-0.3691721
1.790079,-0.4343072,-0.3555511
1.840971,-0.5613992,-0.2292346
1.601956,-0.4827173,-0.1600176
1.356489,-0.2489651,-0.1410709
1.172367,-0.1860564,-0.1502906
1.047464,-0.1601783,-0.1337275
0.8931706,-0.1096026,-0.1227533
0.8064644,-0.1753205,-0.1535559
0.8496525,-0.1649,-0.1495399
0.8062744,-0.2183578,-0.158654
0.7177905,-0.2568194,-0.1644221
0.6675942,-0.1778884,-0.1333199
0.6391424,-0.204363,-0.1147737
0.6470189,-0.1766802,-0.08931598
0.5932566,-0.1562604,-0.08623845
0.5294145,-0.1789151,-0.07750548
0.5187484,-0.1075394,-0.03966881
0.5209792,-0.06517757,-0.02919577
0.5774134,-0.02686434,-0.0543247
0.6464455,-0.05451323,-0.09791331
0.6984807,-0.1183234,-0.07384953
0.7492146,-0.1417013,-0.07525589
0.8958529,-0.288612,-0.2985652
1.299412,-0.4197071,-0.6861431
1.665795,-0.4180805,-0.9566569
1.610877,-0.3892643,-0.8088267
1.415484,-0.3602496,-0.3943927
1.414835,-0.2942341,-0.08969909
1.484053,-0.1129996,-0.09992588
1.576478,0.05911262,-0.3702522
1.617518,0.07693851,-0.4611626
1.406435,0.001771764,-0.3768917
1.115323,-0.07265527,-0.3373483
0.918789,-0.08517102,-0.2179454
0.801681,-0.08536566,-0.1936452
0.7230596,-0.1097249,-0.2281349
0.6195213,-0.1343047,-0.1842797
0.6250004,-0.165354,-0.2146245
0.6787558,-0.1668983,-0.2057564
0.6472059,-0.1332886,-0.1745514
0.6420102,-0.08208763,-0.1722943
0.6111935,-0.02814909,-0.1653525
0.5807971,-0.02474372,-0.2091103
0.617552,-0.02629758,-0.2050033
0.6511419,0.009790964,-0.1967658
0.7144196,0.009907066,-0.1777722
0.7471426,-0.01160793,-0.09644712
0.7352778,-0.009913222,-0.08722178
0.7737633,-0.02290369,-0.1609638
0.8294367,-0.08008976,-0.328313
0.9500041,-0.2417576,-0.4803979
1.184762,-0.4533554,-0.4514098
1.370677,-0.4910181,-0.3622204
1.460997,-0.3575713,-0.3327126
1.590784,-0.2478356,-0.3416433
1.671131,-0.2467546,-0.3397497
1.628101,-0.388406,-0.3085011
1.606566,-0.5380937,-0.2563632
1.491436,-0.4765135,-0.1994766
1.216266,-0.3325657,-0.1680544
1.026393,-0.2399416,-0.1459762
0.9500988,-0.147952,-0.1303558
0.875059,-0.1451765,-0.1456988
0.7773549,-0.1442401,-0.154415
0.7300954,-0.107066,-0.1446247
0.7268321,-0.1915031,-0.1510177
0.6185192,-0.2220611,-0.1437956
0.5655237,-0.1836056,-0.1301932
0.6057759,-0.192236,-0.1337103
0.5375225,-0.1417293,-0.0986895
0.5442085,-0.1266866,-0.06395669
0.6082345,-0.1608456,-0.07917075
0.5862082,-0.1760168,-0.09691592
0.626116,-0.1913242,-0.09458934
0.6886052,-0.1599639,-0.0696268
0.7553826,-0.1519008,-0.05069957
0.8002935,-0.1783621,-0.1159423
0.8343387,-0.2383792,-0.3400359
1.084441,-0.3296476,-0.6584111
1.396861,-0.3278422,-0.910656
1.519846,-0.3065415,-0.9539707
1.448305,-0.3250834,-0.6087603
1.369425,-0.296263,-0.1739002
1.502059,-0.188381,-0.2443527
1.601812,-0.03646876,-0.4670859
1.560379,0.003822712,-0.4010354
1.435955,-0.08486322,-0.3885343
1.15426,-0.1509254,-0.3479915
0.9944176,-0.2048786,-0.2350191
0.9156153,-0.2453791,-0.2807064
0.7643805,-0.1910652,-0.2381914
0.7577141,-0.1280196,-0.1976852
0.7421754,-0.09431178,-0.2198583
0.663832,-0.03325429,-0.1574801
0.6545842,-0.003941021,-0.1865103
0.6266825,-0.004958569,-0.1839889
0.5992851,-0.0099153,-0.1668831
0.5486663,-0.04771685,-0.2013549
0.5039178,-0.08858225,-0.1268877
0.5492521,-0.09810612,-0.0978539
0.6429404,-0.05655627,-0.1145254
0.7916025,-0.002909668,-0.1280716
0.8900631,0.0321876,-0.1827345
0.8981038,0.04169747,-0.238653
0.9636795,-0.08778218,-0.3501701
1.144114,-0.3494406,-0.4608925
1.354591,-0.5004093,-0.5021395
1.388991,-0.4141826,-0.4547096
1.401506,-0.2919915,-0.4063954
1.608978,-0.3003457,-0.4218673
1.677974,-0.4116558,-0.3649456
1.604397,-0.5532998,-0.2922738
1.519538,-0.501473,-0.239205
1.273343,-0.3215678,-0.2196145
1.123385,-0.2324551,-0.2477887
1.004632,-0.08727086,-0.1696659
0.77049,-0.03453434,-0.1351158
0.7756633,-0.1436643,-0.1540805
0.7966192,-0.1692089,-0.0883587
0.7030332,-0.2393852,-0.1010198
0.7392634,-0.2991843,-0.1092878
0.7185347,-0.2614462,-0.07672659
0.6689054,-0.2204488,-0.1049311
0.6288672,-0.09867311,-0.1055693
0.5154511,-0.02652765,-0.1036428
0.5276372,-0.03805416,-0.06772361
0.6065783,-0.05101457,-0.01766717
0.6573218,-0.1236449,-0.09232751
0.7140867,-0.1857503,-0.1531374
0.7120365,-0.2166997,-0.09821961
0.7099162,-0.2682711,-0.1025088
0.7549757,-0.3668806,-0.328158
0.9731365,-0.4143408,-0.683629
1.371772,-0.3221648,-0.8854363
1.598884,-0.240993,-0.80607
1.666637,-0.2077444,-0.5469946
1.756519,-0.1441814,-0.3064853
1.728776,-0.05117616,-0.3015452
1.638939,-0.02062862,-0.3991664
1.518341,-0.09717139,-0.324949
1.235636,-0.1458571,-0.2813127
1.088736,-0.1587901,-0.3109018
1.095818,-0.1598532,-0.2393153
0.89467,-0.1323697,-0.2378488
0.7914957,-0.1343448,-0.2435808
0.851438,-0.1095219,-0.2213382
0.6988141,-0.07973773,-0.2641233
0.6098972,-0.1031851,-0.2333023
0.6505282,-0.1291858,-0.2354098
0.5835216,-0.155673,-0.2528101
0.5928872,-0.1477237,-0.2217577
0.6515063,-0.1267469,-0.2478059
0.6456926,-0.13475,-0.2109503
0.6658926,-0.1148947,-0.1608658
0.6677797,-0.07502245,-0.1472794
0.6792197,-0.03647126,-0.1387579
0.7721473,-0.004441651,-0.1809281
0.8492242,0.001078719,-0.2212693
0.8620046,-0.051206,-0.3304996
0.932458,-0.2367684,-0.4109176
1.159503,-0.476632,-0.3657426
1.39923,-0.5179236,-0.3683049
1.473704,-0.3216023,-0.3857544
1.509987,-0.1986568,-0.4034409
1.715227,-0.350344,-0.4392552
1.873285,-0.5719326,-0.3804175
0.4934937,0.06840935,-0.01918818
0.5815735,0.1157237,-0.07855461
0.6136912,0.1834978,-0.1197721
0.6493799,0.2164075,-0.08802253
0.6632933,0.2233847,-0.04554619
0.6170871,0.2272446,-0.03453495
0.6863051,0.2595394,-0.2200576
0.9415028,0.2822226,-0.6016796
1.520948,0.2994449,-0.8248751
2.012605,0.3160535,-0.756097
1.901894,0.2952438,-0.5137378
1.602779,0.197262,-0.190137
1.413268,-0.0321482,0.0005798701
1.286197,-0.2200365,-0.04499594
1.26288,-0.2142957,-0.1174228
1.142105,-0.1077156,-0.1934213
0.9793002,0.02412511,-0.3150435
0.9792684,0.0859485,-0.3194426
0.9352599,0.09606424,-0.297748
0.8057415,0.1254563,-0.3073782
0.7064638,0.07446839,-0.2056559
0.6139842,-0.01464278,-0.08503743
0.5801914,-0.03636581,-0.026005
0.5688604,-0.03734462,-0.02352467
0.5136987,-0.03174765,-0.04685733
0.4600269,-0.009919786,-0.0293012
0.4481351,0.02225216,-0.01337906
0.5014516,0.07132494,-0.01616927
0.5962456,0.1381962,-0.1455231
0.7792267,0.240303,-0.443969
1.120214,0.3550314,-0.5802439
1.506685,0.4192486,-0.4087436
1.77756,0.4157086,-0.2745582
1.936106,0.315752,-0.3673761
1.969461,0.1235964,-0.4110737
1.741543,0.012995,-0.34328
1.37272,0.05178019,-0.2629577
1.086423,0.07826725,-0.06393708
0.9351428,0.1065015,0.02516857
0.9011358,0.2082536,-0.05341566
0.8400877,0.2273718,-0.0105288
0.7589036,0.1429776,0.00567931
0.7128541,0.06876006,-0.03360662
0.6287855,-0.0005698195,-0.009765674
0.5496735,-0.02350891,-0.02245048
0.4562659,0.008249655,-0.007233102
0.3979898,0.03753634,0.03794464
0.4100533,0.1025969,0.0457982
0.4374193,0.1771004,-0.009579572
0.6309695,0.2151952,-0.1448459
0.8474569,0.2304802,-0.1923193
0.8447168,0.2212458,-0.1381661
0.8081291,0.2570137,-0.1415848
0.9116535,0.3097497,-0.2745165
1.17556,0.2872073,-0.5192238
1.52268,0.2605233,-0.6276077
1.711528,0.2456872,-0.4366753
1.721291,0.1796726,-0.2364645
1.799266,0.03259176,-0.2311156
1.722463,-0.1303858,-0.1860428
1.410682,-0.1385897,-0.1027356
1.330423,-0.06426228,-0.1544878
1.207284,-0.008439025,-0.1758519
0.8869942,0.1212105,-0.1973318
0.8674032,0.159429,-0.2578611
0.9372215,0.05364108,-0.2097961
0.8477967,0.03291502,-0.1922651
0.7950801,0.03538419,-0.1849089
0.7456278,0.01840298,-0.1191809
0.5945983,0.02888653,-0.08281002
0.4914982,-3.519689e-06,-0.03440474
0.5634901,0.01569335,-0.04413384
0.6108927,0.07227342,-0.04211209
0.6260563,0.09568094,0.02744265
0.6807457,0.08294868,0.001490649
0.659063,-0.02808158,-0.04753165
0.6892374,-0.131478,-0.1263381
0.7813405,-0.1115191,-0.2739378
0.8341797,-1.559706e-05,-0.3487077
0.9054272,0.1499921,-0.3393564
0.9781625,0.2889598,-0.2849341
1.149522,0.4368066,-0.2457801
1.487823,0.5142271,-0.2306707
1.832953,0.4562053,-0.220994
1.942882,0.2864263,-0.2410161
1.710539,0.06798184,-0.2352948
1.441142,0.04453704,-0.2101444
1.309716,0.09378263,-0.1164004
1.182985,-0.006714619,0.00632474
1.126708,0.01648938,-0.04088613
1.096938,0.1132204,-0.09769618
0.9707186,0.1234528,-0.05192608
0.8430345,0.1600939,-0.05175665
0.7384893,0.09913472,-0.04110782
0.6300012,0.03977237,-0.01221954
0.5298268,0.08678162,-0.00731535
0.4755493,0.08894132,0.03559703
0.4891907,0.1330998,0.04566747
0.534337,0.1518467,0.00985429
0.6319808,0.08952151,-0.003010219
0.7400117,0.07551803,-0.03964146
0.7614743,0.08430229,-0.07292691
0.7097082,0.1282039,-0.06281783
0.6582597,0.1657044,-0.04588792
0.6687195,0.1879701,-0.03962432
0.7306349,0.2513729,-0.127258
0.8645936,0.3136382,-0.3493801
1.118215,0.3487473,-0.5752454
1.396066,0.2931547,-0.6327931
1.540307,0.1984537,-0.5422265
1.590522,0.1027691,-0.4431057
1.743675,-0.0417065,-0.3353307
1.842066,-0.1005254,-0.2804558
1.609144,-0.0004373616,-0.2492895
1.272162,0.1966502,-0.08251338
1.065577,0.3628635,-0.02368619
0.9675645,0.4170543,-0.1905869
0.9871854,0.4043144,-0.3343766
1.012982,0.2839019,-0.417624
0.9491863,0.08451078,-0.4142806
0.8085159,-0.04750527,-0.2946853
0.5909328,-0.04769185,-0.1487212
0.4972796,0.01463942,-0.07785047
0.5876246,0.05413702,-0.1205892
0.6184145,0.07332644,-0.1144883
0.6421009,0.00249707,-0.06565168
0.6956861,-0.108143,-0.06887766
0.6288292,-0.1118262,-0.05685685
0.5719863,-0.07562153,-0.06580385
0.5781127,-0.06009115,-0.06693345
0.6715793,-0.05963667,-0.09715241
0.8908887,-0.01070926,-0.2841117
0.9746152,0.1737586,-0.4678898
1.010419,0.3969525,-0.4794267
1.265657,0.4767436,-0.4339525
1.565071,0.3849608,-0.4883516
1.715209,0.3273425,-0.5091158
1.763449,0.3363313,-0.4691428
1.806822,0.2541068,-0.4950643
1.696538,0.1723476,-0.4254326
1.398583,0.1441053,-0.2963857
1.183041,0.1425251,-0.1826887
1.023154,0.181814,-0.0521675
0.9008645,0.1418354,-0.07441365
0.8899792,0.07564082,-0.07761001
0.8455012,0.05951564,0.01873634
0.7827082,0.01558537,0.005591466
0.710167,0.001268612,-0.009300019
0.6046296,0.001136836,-0.007575405
0.5710458,0.005649767,-0.0236633
0.5740034,0.06655213,0.009590385
0.5893915,0.1202416,0.02989879
0.6143889,0.1899151,0.0235225
0.6369702,0.2264437,-0.005870737
0.6992674,0.1643635,-0.03135586
0.7424638,0.0724203,0.0006254152
0.7548368,-0.02856058,0.031778
0.7678645,-0.02267139,0.02177624
0.7744024,0.1109701,-0.01419743
0.8124247,0.2163833,-0.09672955
0.9527704,0.2549456,-0.2780994
1.268187,0.2414187,-0.5898982
1.523064,0.2115413,-0.8896843
1.481218,0.164003,-0.8694912
1.525876,0.1111096,-0.5939333
1.808641,0.09549146,-0.4162767
1.855128,0.06056409,-0.2833081
1.600702,0.07019867,-0.1293008
1.322258,0.117673,-0.07035252
1.13527,0.06383219,-0.06684573
1.063709,0.03023656,-0.1118149
0.9285548,0.05357507,-0.1754752
0.7407312,0.03179213,-0.2558993
0.7057002,0.02879359,-0.2621304
0.6570664,0.03901063,-0.1459174
0.5078674,0.03574958,-0.1452958
0.5181392,0.04471003,-0.1525176
0.6558387,0.03533566,-0.1218974
0.7031385,0.007041309,-0.1522962
0.7360595,-0.0242503,-0.09422396
0.6911315,-0.04692558,-0.06040001
0.5365264,-0.0752812,-0.003276592
0.5286121,-0.1129942,0.1102638
0.5682062,-0.1148702,0.09771683
0.6348623,-0.08026176,-0.01969191
0.8036511,0.008818826,-0.2995659
0.8844037,0.1478894,-0.45268
1.032838,0.3213142,-0.3393395
1.326915,0.5168448,-0.3276355
1.558163,0.5078518,-0.3400848
1.761681,0.3372934,-0.3103001
1.94015,0.3346602,-0.3236673
1.896669,0.3494096,-0.2846698
1.688584,0.2663504,-0.235799
1.485379,0.2012455,-0.2005722
1.200386,0.09622133,-0.1294207
1.00485,0.03802785,-0.02786756
0.9287918,0.00633236,0.04119673
0.7688162,-0.02656778,0.04163655
0.7186827,0.03569921,0.02359826
0.6481959,0.05160601,0.01082307
0.522767,0.07356794,-0.00703823
0.5389834,0.1481245,-0.05763085
0.510649,0.1804781,-0.09960037
0.5429326,0.2054325,-0.08625609
0.6233672,0.1525851,-0.06831292
0.6380189,0.115485,-0.05407777
0.7176147,0.1478804,-0.04001835
0.7395053,0.1410825,-0.0293719
0.730817,0.157102,-0.03770644
0.7760736,0.1767833,-0.1444152
0.9591389,0.1892679,-0.3508488
1.395722,0.1932157,-0.578388
1.718282,0.1770614,-0.709553
1.697286,0.2113595,-0.5978228
1.65041,0.2001712,-0.3632128
1.771579,0.05205424,-0.2698717
1.814003,-0.1544937,-0.2363982
1.592106,-0.2244152,-0.1536719
1.276334,-0.1290407,-0.1136082
1.061358,-0.06099703,-0.109452
0.9805872,0.0512652,-0.1632406
0.8816383,0.1992955,-0.2502793
0.7885114,0.2005606,-0.2534775
0.7957496,0.1587054,-0.2158444
0.7232695,0.1005152,-0.1751653
0.6381356,0.008091086,-0.1324991
0.6348244,-0.0221059,-0.1293801
0.59285,-0.02500055,-0.1440703
0.5443642,-0.01377598,-0.1284172
0.4897187,0.002024743,-0.08241185
0.4671913,0.003497627,-0.02143045
0.5313121,0.007307319,0.04749441
0.6268978,-0.03561935,0.05399395
0.7530395,-0.07759221,-0.09166937
0.8538205,-0.02522991,-0.3592591
0.9396676,0.1599751,-0.5282959
1.06689,0.4376854,-0.4742495
1.162857,0.5451664,-0.353962
1.301241,0.3689359,-0.270401
1.634519,0.1880939,-0.2842287
1.961353,0.1660289,-0.3379298
1.932015,0.2350369,-0.2833111
1.743005,0.3077119,-0.2727184
1.666785,0.2455358,-0.3013557
1.428074,0.1203167,-0.2336163
1.088803,0.06213007,-0.1591958
0.9124044,0.008524625,-0.06410388
0.7540665,0.03300647,-0.01604715
0.6561253,0.08846926,-0.02566563
0.6314235,0.08787969,0.0335717
0.5949802,0.1195997,0.05493283
0.6160142,0.07689922,0.03709255
0.5949066,0.02516397,0.01575434
0.5615128,0.06293296,-0.02584527
0.5844348,0.05289847,0.006492529
0.611123,0.06140389,0.03497719
0.7114637,0.1053021,0.008724656
0.817977,0.1378015,-0.02632763
0.8380258,0.1685107,-0.07740633
0.7853305,0.1484993,-0.07850094
0.683076,0.1491512,-0.09240653
0.6512887,0.1807253,-0.2433217
0.8603698,0.197886,-0.4683708
1.33116,0.2042813,-0.755875
1.711832,0.175694,-1.016748
1.744352,0.1773636,-0.8438401
1.685183,0.1965364,-0.450529
1.771588,0.1783785,-0.4572223
1.803308,0.1799027,-0.4506836
1.486983,0.1733939,-0.2116131
1.070021,0.1567023,-0.1911749
0.9674385,0.1893791,-0.2048455
0.9834251,0.2159256,-0.2299324
0.9086508,0.1922274,-0.3198624
0.9384977,0.09643261,-0.3140601
0.98681,-0.09773046,-0.3658841
0.8851026,-0.2411449,-0.3198637
0.7929629,-0.2091147,-0.1978403
0.7199573,-0.1710378,-0.1439961
0.6389914,-0.1848321,-0.05126145
0.5866258,-0.1091207,-0.05960141
0.5018202,-0.0512986,-0.0495695
0.4643765,-0.0276561,0.002757464
0.4488598,0.1000912,-0.02904742
0.481513,0.1648056,-0.06266391
0.6207169,0.1431457,-0.1437747
0.6192669,0.145711,-0.08535028
0.5887504,0.0687474,0.07023969
0.6708604,-0.006939577,0.03350944
0.7727544,0.04196137,-0.2124455
0.9799808,0.1415942,-0.5858665
1.110976,0.2107115,-0.6506467
1.316768,0.1891858,-0.4371646
1.786511,0.1329836,-0.4128624
1.886278,0.1441261,-0.406836
1.798885,0.2287416,-0.3477073
2.033855,0.3347279,-0.2982578
2.008128,0.334654,-0.2126965
1.665189,0.1933334,-0.2272775
1.359534,0.06177774,-0.161179
1.062139,0.02562021,-0.01867201
0.9328508,0.04601192,-0.06050178
0.7330521,0.0398423,-0.07352816
0.5147763,-0.001142344,-0.0159904
0.5921291,0.01941714,-0.03412635
0.5174823,0.07136646,-0.01948564
0.4799643,0.1059572,-0.01816956
0.5760333,0.1139058,-0.06573824
0.4337374,0.08225813,-0.06833803
0.4604664,0.09259403,-0.06263738
0.5060554,0.09198649,-0.01254158
0.4523526,0.07604598,0.05493058
0.5896655,0.1160772,-0.02777117
0.7036539,0.1261522,-0.1158247
0.901822,0.168493,-0.07419952
0.9806178,0.2477861,-0.09577356
0.8741588,0.2713736,-0.2019084
1.032456,0.2487566,-0.3499856
1.306583,0.1739916,-0.6591313
1.682024,0.1641426,-0.8828786
1.971069,0.173939,-0.6505548
1.909891,0.06500087,-0.2849425
1.813707,-0.06647005,-0.1744749
1.641948,-0.132741,-0.1328733
1.403002,-0.06802842,-0.1014105
1.263565,0.02890572,-0.1280792
1.094637,0.09219655,-0.1693785
0.94865,0.190667,-0.2847317
0.9154,0.1645294,-0.3108307
0.8910602,0.06225829,-0.2644903
0.7668153,0.02108325,-0.2814438
0.6382635,-0.01764906,-0.195331
0.5735601,0.01079825,-0.145158
0.5161083,0.03593538,-0.1744199
0.5130738,0.02596404,-0.1443184
0.4381935,0.05473894,-0.1771079
0.2864304,0.03657783,-0.160826
0.2811684,0.03646694,-0.05477038
0.4572849,0.04679013,0.006102007
0.8156974,-0.02120544,-0.03363097
1.12629,-0.07059474,-0.2086135
1.146848,-0.07072606,-0.3150364
1.017113,0.02336497,-0.3129359
0.9459272,0.2174472,-0.3112069
1.08212,0.3754238,-0.2958543
1.316739,0.3766301,-0.3114968
1.546477,0.2272956,-0.3208343
1.821185,0.1651765,-0.3390162
1.907483,0.2917665,-0.3356925
1.7234,0.3984735,-0.2055021
1.510466,0.3240264,-0.0900311
1.335856,0.1543015,-0.09390889
1.190168,0.02910497,-0.1115374
1.136651,-0.03605802,-0.06926048
1.076487,0.01355636,-0.06221152
0.9120881,0.0803337,-0.07122297
0.8075839,0.07951868,-0.03766641
0.7360502,0.1132575,-0.05219029
0.5919771,0.08930314,-0.03294948
0.5135477,0.07956768,-0.0164249
0.4678469,0.130663,-0.05215303
0.4567044,0.1207115,-0.02826903
0.5282506,0.1646054,-0.05759575
0.5656995,0.1885848,-0.1080726
0.6205645,0.172845,-0.1218662
0.6927604,0.1753082,-0.1581577
0.720463,0.1220994,-0.1454888
0.7343711,0.153174,-0.1000717
0.7215803,0.1965927,-0.06043373
0.7750229,0.1720818,-0.171651
0.9734193,0.1635788,-0.3957483
1.268275,0.120897,-0.4478021
1.620678,0.1472375,-0.4723764
1.930559,0.2021719,-0.5439807
1.892962,0.1602647,-0.4271659
1.669734,0.06351308,-0.1976629
1.745686,-0.0602568,-0.1076928
1.566025,-0.07362613,-0.1586771
1.090893,-0.052319,-0.154612
1.101418,-0.08378029,-0.1380308
1.032504,0.02782071,-0.2313126
0.7547752,0.1513885,-0.3110598
0.8169634,0.1421016,-0.3066645
0.7952167,0.1233119,-0.2764201
0.6195046,0.1023727,-0.2432539
0.5520354,0.09965055,-0.1930831
0.5675548,0.09170264,-0.1655754
0.5659574,0.05123292,-0.1680818
0.4997945,0.04705875,-0.1458077
0.4985807,0.03584603,-0.13042
0.433717,0.01032681,-0.08212273
0.365655,-0.002687757,0.006794427
0.4568618,-0.01050926,0.03351547
0.5881029,-0.004978204,0.01786915
0.7977831,-0.02003016,-0.04378346
0.9498577,-0.01254829,-0.1862845
0.9828022,0.1018835,-0.4064993
1.06142,0.3131998,-0.5306795
1.190142,0.4225077,-0.3818881
1.466142,0.2966074,-0.2758242
1.801415,0.2148699,-0.3347051
1.958109,0.2941637,-0.3005711
1.912093,0.3001578,-0.2184287
1.701332,0.2351614,-0.1580013
1.465864,0.1829805,-0.1406957
1.292163,0.1088264,-0.1104121
1.152144,0.07602026,-0.00126156
1.015469,0.1075254,-0.03468644
0.8693194,0.1284539,-0.1060886
0.751438,0.1479923,-0.03963048
0.5798182,0.1775308,-0.03313756
0.4082299,0.1720441,-0.03397875
0.3673398,0.137961,-0.01892856
0.3807334,0.1124093,-0.06994489
0.4620556,0.1101789,-0.06834705
0.5588495,0.1343879,-0.07140415
0.5991878,0.1569722,-0.08191483
0.6226333,0.149561,-0.05444912
0.6349432,0.1386089,-0.0910347
0.7041398,0.1331222,-0.1160182
0.7638295,0.1345102,-0.1114635
0.7783817,0.1868644,-0.1314977
0.8126106,0.257911,-0.1608527
0.9411546,0.2760012,-0.2889247
1.310965,0.2611126,-0.5360715
1.652473,0.2258685,-0.6899389
1.7036,0.1546879,-0.4745804
1.711313,0.09983376,-0.185107
1.832386,0.02675778,-0.2532141
1.886795,-0.1001601,-0.2979396
1.64226,-0.09836183,-0.1754239
1.292044,0.01405627,-0.1881223
1.110752,0.07847008,-0.2162507
0.9637601,0.1686549,-0.2441958
0.8423249,0.209583,-0.2860021
0.8138099,0.1549826,-0.2494705
0.727189,0.1073984,-0.2064302
0.573219,-0.01020679,-0.1044608
0.4662224,-0.08152139,-0.04691003
0.4185857,-0.03877462,-0.08728143
0.4204656,-0.03764669,-0.06208028
0.4489705,-0.001575423,-0.06535207
0.4703346,0.04055744,-0.09419495
0.5057456,0.03544061,-0.09486448
0.5444498,0.07065942,-0.1079254
0.5950275,0.05539263,-0.07097426
0.6998691,-0.006759445,-0.05375861
0.5635813,0.1378883,-0.05462649
0.5473575,0.07515545,-0.02369071
0.4814482,0.0801842,-0.05175187
0.3974287,0.07382636,-0.03951773
0.3734238,0.08145828,-0.009372664
0.4503195,0.1602755,-0.03987423
0.7549623,0.2926258,-0.060938
0.9927285,0.4030334,-0.1006938
1.028965,0.3555974,-0.1283925
1.153532,0.2536631,-0.2797572
1.436384,0.1551289,-0.6003915
1.643184,0.0003854517,-0.7016492
1.627399,-0.0188902,-0.5229779
1.670227,0.05111411,-0.3683191
1.816384,0.005512905,-0.2912962
1.769897,-0.04463661,-0.2263279
1.579892,-0.09969048,-0.2187814
1.325373,-0.1362362,-0.2126969
1.042548,-0.0443667,-0.1789423
0.8945286,0.02978532,-0.2216579
0.8337429,0.07593002,-0.2564163
0.7729516,0.09692023,-0.2328033
0.7430671,0.01347327,-0.2284556
0.6874965,-0.03380921,-0.2025743
0.6402104,-0.01434376,-0.1559947
0.6340694,0.004457541,-0.1257715
0.5595913,0.00982712,-0.1118159
0.4727242,0.006299371,-0.0925816
0.4452149,0.02720687,-0.04315531
0.4895802,0.03050679,-0.01127781
0.6644838,0.01983563,-0.01935935
0.8881074,-0.00357036,-0.06739167
0.9928639,-0.05813054,-0.139859
0.9567715,-0.102955,-0.2089857
0.9672913,-0.1003243,-0.3294312
1.043934,0.08854874,-0.4330782
1.145957,0.4199338,-0.4110928
1.409476,0.5486077,-0.4103383
1.675624,0.4050393,-0.4711885
1.789053,0.3062868,-0.4297536
1.762417,0.3130932,-0.3017142
1.631572,0.2317398,-0.1662464
1.572132,0.2087645,-0.1132368
1.392654,0.2345965,-0.1585974
1.08687,0.1122237,-0.1223415
1.040438,0.0783328,-0.08211479
0.9937915,0.1125319,-0.09545315
0.7026381,0.04645445,-0.005813037
0.5410412,0.04895371,0.0348548
0.6351192,0.07400696,0.0102517
0.6622848,0.09280667,0.04155998
0.6079086,0.148902,0.012405
0.6747443,0.1357474,-0.02739162
0.6974543,0.1164595,-0.03215139
0.6862542,0.1105907,-0.06076228
0.7208486,0.06203656,-0.0675363
0.6784633,0.06089481,-0.0640566
0.7096573,0.1510571,-0.0792791
0.7866346,0.241574,-0.08325102
0.8014321,0.2277588,-0.04987789
0.812807,0.1639274,-0.02605675
0.8288313,0.1399202,-0.1173392
1.086463,0.1135469,-0.3928884
1.47391,0.06985626,-0.7010381
1.547484,0.06153098,-0.7140137
1.418769,0.1248203,-0.4990028
1.404431,0.1993669,-0.3490315
1.51799,0.1664848,-0.2702768
1.675654,0.02566206,-0.2890633
1.782159,-0.1413587,-0.3208921
1.534557,-0.2081974,-0.1902313
1.041356,-0.1348413,-0.08301954
0.8463732,-0.0803391,-0.08263551
0.8377886,-0.02575756,-0.1260312
0.7806817,0.08386332,-0.2042449
0.7521066,0.092755,-0.1925965
0.6712347,0.06013028,-0.1592478
0.5917711,0.05439586,-0.1284124
0.5564464,0.01031073,-0.05726418
0.4974994,0.009870479,-0.08951823
0.4575116,0.05797436,-0.1162805
0.478167,0.1162784,-0.06758484
0.5866744,0.1505778,-0.04786455
0.7496279,0.08011842,-0.03505786
0.8963983,-0.03823173,-0.09784057
0.9409299,-0.1402702,-0.2170861
0.9283795,-0.1432426,-0.2852022
0.971883,0.05856343,-0.3731386
1.05094,0.3063863,-0.4632912
1.314598,0.3633401,-0.4301512
1.745361,0.3070373,-0.3656349
1.927932,0.2960819,-0.3550081
1.842262,0.2566813,-0.2734021
1.815943,0.2253365,-0.1878098
1.814772,0.2838985,-0.2177108
1.670855,0.2627094,-0.2220684
1.396178,0.1175918,-0.1346879
1.022099,-0.01605891,-0.04167751
0.8207077,-0.01831621,-0.007904637
0.7144019,0.01915182,-0.006277934
0.3358084,-0.04187641,0.0206627
0.2681532,0.03311527,0.02221142
0.5166112,0.182949,-0.01032626
0.4792669,0.2113549,-0.03610822
0.6150123,0.3164281,-0.08486959
0.7125417,0.3153517,-0.09950333
0.5690709,0.1493506,-0.04638285
0.7206778,0.09137582,-0.03244815
0.7053481,0.04604286,-0.04787988
0.6280268,0.05874309,-0.04734581
0.809567,0.114843,-0.05839017
0.7957344,0.1098722,-0.05436913
0.8083676,0.2307559,-0.09045575
0.9341318,0.3599192,-0.2749875
1.231916,0.3404424,-0.5330905
1.673076,0.2331053,-0.6446896
1.647386,0.08834909,-0.6007518
1.489024,0.04210043,-0.545099
1.540338,0.04302651,-0.3970108
1.525719,-0.01018714,-0.2446923
1.521545,-0.04545956,-0.2641926
1.458068,0.003583638,-0.3191808
1.28947,0.1007828,-0.3650955
1.127165,0.1403061,-0.351414
0.9509736,0.1638839,-0.2901701
0.8329054,0.1821678,-0.3099825
0.7886218,0.1576886,-0.2873831
0.7683673,0.1309624,-0.2498303
0.7710873,0.03706469,-0.2189703
0.7329718,-0.08077452,-0.09767499
0.6512127,-0.1412193,-0.02429926
0.6236643,-0.1851529,0.01483629
0.5988351,-0.1990204,0.04411473
0.5570688,-0.1861316,0.01599582
0.6149736,-0.1404937,0.001775245
0.7091546,-0.0663668,-0.05833511
0.7976656,-0.03175659,-0.1420512
0.9031832,-0.03611323,-0.1871926
0.9378068,0.005533738,-0.2570268
0.9818035,0.158644,-0.3761486
1.146589,0.3692341,-0.552008
1.29902,0.5150622,-0.6454061
1.372804,0.5333417,-0.6222013
1.52047,0.5193327,-0.6299653
1.750727,0.5635481,-0.5685809
1.832915,0.5633764,-0.4507827
1.699505,0.4023175,-0.4542739
1.530054,0.1446065,-0.457155
1.360842,0.02817584,-0.3347925
1.108667,0.0646764,-0.183463
0.9198402,0.05526831,-0.1290331
0.8560426,0.05495386,-0.1276669
0.7376911,0.08823026,-0.03564296
0.6013372,0.09259822,0.06438401
0.5392154,0.1031638,0.06766624
0.5159944,0.09238865,0.03327387
0.5356428,0.0928682,-0.01174248
0.5494978,0.09948666,-0.0193817
0.5677165,0.07048448,0.02219872
0.6461064,0.05836713,0.05085035
0.7150123,0.04336078,0.04370127
0.7458311,0.03637526,-0.01704922
0.7777039,0.0516477,-0.06844258
0.8193238,0.06820771,-0.04314293
0.8617648,0.1126548,-0.008236817
0.8715018,0.169591,-0.02756846
0.7985954,0.2449718,-0.1334617
0.7296262,0.3050144,-0.3474933
0.9465609,0.3179608,-0.6594605
1.528579,0.3320383,-1.045316
1.964619,0.2982672,-1.221312
1.774938,0.1791153,-0.8391665
1.536733,-0.00216672,-0.2943666
1.719072,-0.1377652,-0.1625007
1.633211,-0.1097163,-0.2297571
1.309536,-0.09578637,-0.2115675
1.204646,-0.1347544,-0.2005547
1.030306,-0.02040847,-0.2537292
0.9218659,0.1179587,-0.2854154
0.8352022,0.1236387,-0.2264178
0.6499376,0.05134223,-0.1784585
0.6902622,-0.05871872,-0.152383
0.7162174,-0.1150205,-0.1232199
0.7675173,-0.110277,-0.1382904
0.8809799,-0.1107456,-0.1302447
0.7999208,-0.1094035,-0.1180564
0.7719715,-0.09669395,-0.0904757
0.7132662,-0.05186341,-0.01539254
0.6178485,-0.001933768,0.01838516
0.6067819,0.009444625,0.04094267
0.523572,-0.02091613,0.0635494
0.5529415,-0.05850895,0.03188328
0.7267356,-0.04257991,-0.09234372
0.9366865,0.001435473,-0.2986095
1.071907,0.1118407,-0.4701911
1.084643,0.3383246,-0.5433513
1.247251,0.5108623,-0.4932001
1.43872,0.5010028,-0.4198141
1.523713,0.4059621,-0.4430045
1.69325,0.3458511,-0.40535
1.784636,0.2944265,-0.3103382
1.644153,0.2430388,-0.3083933
1.389702,0.2191995,-0.2433923
1.137798,0.1745368,-0.112912
0.9884752,0.1523007,-0.08602248
0.8564458,0.1176368,-0.07418415
0.6882095,0.02672404,-0.05389566
0.6415028,0.0002167914,-0.05376035
0.6096484,-0.02694004,-0.0199558
0.5416899,-0.05784753,-0.01667858
0.6003563,-0.008681762,-0.0251812
0.5922993,0.01511533,0.0004215467
0.4850984,0.06304191,-0.003403869
0.4348683,0.140734,-0.002052259
0.4130932,0.1315844,-0.01018016
0.5432531,0.1600368,-0.1016854
0.7370624,0.2417558,-0.1817133
0.8149804,0.2223339,-0.1652074
0.8543665,0.196988,-0.1528936
0.9539932,0.2453724,-0.2354145
1.180501,0.2339751,-0.350933
1.500945,0.1876345,-0.5346874
1.932583,0.1672517,-0.756541
2.066813,0.1460037,-0.6789582
1.690422,0.1615043,-0.3688138
1.520406,0.122201,-0.182628
1.509705,-0.01539631,-0.1291011
1.379625,-0.1172954,-0.2086166
1.286194,-0.1040171,-0.2752214
1.013136,-0.01201566,-0.2378129
0.8630913,0.03393052,-0.2975998
0.8380717,0.07834997,-0.3174811
0.6633872,0.1372863,-0.2872757
0.6964508,0.1169017,-0.29594
0.7147523,0.1268146,-0.1893854
0.6375768,0.1479965,-0.1198183
0.6397562,0.1159954,-0.1099927
0.5263484,0.08560177,-0.08011363
0.4701205,0.0289057,-0.08929915
0.4816251,-0.007083403,-0.06691504
0.5036896,-0.01336988,-0.09636146
0.5885406,-0.02294133,-0.1530456
0.5804388,-0.01799576,-0.1906245
0.579814,0.01071819,-0.3289023
0.6740594,0.1869753,-0.5072778
0.8335404,0.5102898,-0.6036939
1.02277,0.6944484,-0.4725059
1.233305,0.5926386,-0.3165387
1.643714,0.3875167,-0.3932325
2.010314,0.1784329,-0.4383366
1.982063,0.0419804,-0.430559
1.831038,0.1489882,-0.4462961
1.615526,0.2849884,-0.3480491
1.223835,0.315141,-0.2377372
1.079527,0.3075842,-0.1378587
1.075557,0.1829989,-0.058495
0.8862806,0.1661895,-0.1101835
0.9086696,0.2211116,-0.1501752
0.9284253,0.1695605,-0.09666983
0.7094246,0.2103,-0.06708995
0.6516677,0.2017989,-0.07225611
0.5676837,0.1438323,-0.05970562
0.4852635,0.1371654,-0.05043208
0.5621198,0.03772541,-0.05181805
0.5876127,-0.001618214,-0.04407282
0.6912615,-0.007829957,-0.04152139
0.7695333,-0.02239869,-0.03461125
0.7662183,0.03842254,-0.02628974
0.8068472,0.05115941,-0.006738739
0.7790197,0.06699006,0.0417956
0.7947042,0.08885668,0.04606129
0.8405425,0.1036577,-0.02235535
0.8525949,0.1736975,-0.1716347
0.8863613,0.2572477,-0.4227173
0.9575802,0.343428,-0.6852453
1.21013,0.3018886,-0.8726476
1.534962,0.17401,-0.9159399
1.738972,0.1178449,-0.7879509
1.749883,0.1176258,-0.625231
1.656437,0.2235425,-0.4968237
1.648688,0.3117082,-0.3667392
1.456525,0.2838479,-0.2948464
1.087048,0.2380881,-0.2763348
0.9403146,0.1621907,-0.2893315
0.9252725,0.08220976,-0.3667344
0.8979394,-0.01567523,-0.3900852
0.8319219,-0.07987009,-0.3548499
0.7317804,-0.01772797,-0.3347892
0.6622329,0.03440749,-0.2503118
0.629051,0.05920828,-0.185044
0.6923991,0.06180246,-0.1948234
0.725134,0.00240536,-0.199764
0.6749229,-0.01345463,-0.2089562
0.6455868,-0.009349547,-0.1689259
0.5658539,-0.003398479,-0.09339366
0.540659,0.03860734,-0.03308528
0.6577954,0.06023113,0.02274543
0.8073963,0.07971485,-0.00684336
0.8656964,0.07837011,-0.08757549
0.7880021,0.01716867,-0.1118806
0.7584716,-0.05149337,-0.07183995
0.812197,-0.04593288,-0.05912533
0.8887709,0.1050958,-0.2535917
0.9967535,0.2879292,-0.5174165
1.084669,0.3435371,-0.5471646
1.36433,0.3049874,-0.5025575
1.776517,0.2159849,-0.5431773
1.797534,0.07865187,-0.4698764
1.625919,0.04889474,-0.3338463
1.666228,0.2300167,-0.2843098
1.606899,0.3608182,-0.1921304
1.437128,0.2897667,-0.1054784
1.314595,0.1990489,-0.1638928
1.085057,0.1152945,-0.2080017
0.8693709,-0.002814118,-0.1396467
0.6641995,-0.07492377,-0.08485113
0.5237666,-0.0831392,-0.06315912
0.5707508,-0.01063854,-0.02793717
0.5386935,0.1363663,-0.01762787
0.5128577,0.2214798,-0.02063527
0.5299041,0.2205859,-0.01386371
0.4797468,0.1953875,-0.009772132
0.5230975,0.1221873,-0.006323765
0.5505433,0.07306947,-0.0178684
0.5863452,0.07721586,-0.02302529
0.6960041,0.07491481,-0.03925275
0.8576453,0.0824522,-0.1083044
1.100195,0.08137541,-0.1694535
1.079405,0.1067004,-0.1796086
0.9588033,0.1856504,-0.2229388
1.06683,0.2527855,-0.3920477
1.133972,0.2760925,-0.5736893
1.323795,0.2846804,-0.6537107
1.602094,0.343921,-0.6511455
1.608663,0.3153647,-0.5223065
1.706777,0.07051824,-0.3423939
1.830965,-0.177965,-0.2419822
1.547881,-0.2283147,-0.1781254
1.207315,-0.1806026,-0.08824968
1.0363,-0.1731677,-0.05347247
0.9331268,-0.08009154,-0.1549405
0.9276826,0.04204592,-0.2270108
0.9100072,0.08365021,-0.2428875
0.8284408,0.2074438,-0.3107675
0.7553725,0.200609,-0.2928995
0.7024395,0.05231161,-0.2088903
0.6524165,0.05118412,-0.1707633
0.6330293,0.02450087,-0.1540841
0.6314729,0.0005378748,-0.1577229
0.5217614,-0.004413615,-0.1041967
0.4541757,-0.08010726,-0.03032756
0.5684245,-0.04519961,-0.04041766
0.6844416,-0.0416993,-0.04048548
0.7638716,-0.08644066,-0.02187888
0.7742253,-0.06809156,-0.0621842
0.7736511,-0.09625732,-0.1443901
0.8839439,0.002847274,-0.3046993
0.9763142,0.2462737,-0.4752159
1.132187,0.4248891,-0.4801206
1.403601,0.4550862,-0.4272929
1.601215,0.3256799,-0.4166127
1.643673,0.2092723,-0.3158376
1.546327,0.1884431,-0.1942884
1.518183,0.2623644,-0.1832154
1.538542,0.3837295,-0.1808586
1.45374,0.3660571,-0.1525729
1.39395,0.2213263,-0.2103087
1.28591,0.07054395,-0.2693906
1.079408,0.01448145,-0.1642128
0.8486138,0.03549303,-0.03836879
0.6405647,0.02384091,-0.03444038
0.597914,0.06733167,-0.03722258
0.5902517,0.124486,-0.008529154
0.5683416,0.1211979,-0.009451402
0.6169025,0.1365143,-0.03516202
0.6341298,0.1082463,-0.07114424
0.6780559,0.08119062,-0.1132252
0.7071444,0.0869981,-0.1243783
0.6538125,0.08800294,-0.1063747
0.6404356,0.1598491,-0.1122723
0.6731172,0.2020961,-0.1176432
0.7347962,0.1775254,-0.1101828
0.7641413,0.1691576,-0.1210146
0.7493857,0.1675748,-0.14923
0.8236532,0.1816457,-0.2991748
1.129377,0.193094,-0.6029001
1.611788,0.2165996,-0.7694873
1.807376,0.229698,-0.6207758
1.712227,0.1763677,-0.4302559
1.837459,0.02122784,-0.3624377
1.961247,-0.211187,-0.3074124
1.725881,-0.2512661,-0.3043985
1.351342,-0.1092153,-0.2682591
1.045801,-0.03077069,-0.1741325
0.968585,0.0761525,-0.2496303
0.96543,0.181687,-0.3225525
0.7952378,0.1742386,-0.285652
0.720132,0.1432388,-0.2942073
0.6746501,0.07299996,-0.2439553
0.5218878,0.0007379544,-0.1584137
0.490359,-0.01205134,-0.1116174
0.4366989,-0.01524799,-0.08139971
0.4011852,0.0140967,-0.1019227
0.5278566,0.04419828,-0.1101497
0.6135341,0.03755347,-0.1275488
0.6417729,0.03358606,-0.1503779
0.5979161,0.01827846,-0.09664812
0.5747247,-0.001596378,-0.05370451
0.6702736,-0.003922937,-0.1008707
0.7773382,0.0473642,-0.2711295
1.003027,0.2219638,-0.4995205
1.341922,0.4599731,-0.5506038
1.623621,0.523808,-0.4150277
1.749175,0.3471053,-0.3378953
1.788823,0.1758133,-0.3229851
1.884628,0.1269705,-0.2779572
1.858045,0.1782455,-0.2907111
1.695243,0.2475769,-0.3130057
1.544893,0.1937995,-0.2915668
1.334535,0.1554804,-0.2808504
1.056975,0.1813438,-0.2124246
0.7629022,0.1719467,-0.1086514
0.6076784,0.2013641,-0.0537117
0.5792303,0.1813017,-0.02776844
0.5257126,0.1199645,-0.01640463
0.5410118,0.1048003,-0.03291769
0.553567,0.03557933,-0.08526998
0.5387038,0.001497265,-0.1216812
0.5833582,0.02694566,-0.1214517
0.5688967,0.05620716,-0.09991962
0.5515964,0.1450716,-0.04878677
0.5464599,0.178349,-0.01489895
0.5208967,0.1405779,-0.02022367
0.6257285,0.1448296,-0.03744387
0.839724,0.1680466,-0.04223335
1.026656,0.1967953,-0.06512054
1.101557,0.2220608,-0.2109735
1.234711,0.2132016,-0.4672658
1.570562,0.1815149,-0.6685986
1.725559,0.1599007,-0.6822977
1.615191,0.1613369,-0.501818
1.639597,0.1345298,-0.2984734
1.754412,0.03689045,-0.3032718
1.731872,-0.05064128,-0.3850399
1.563183,-0.03628653,-0.3263328
1.285316,0.01167112,-0.2869649
1.104965,0.02767604,-0.2664009
0.9871278,0.05538317,-0.2152071
0.709716,0.08811038,-0.2360373
0.6034508,0.08889195,-0.2093355
0.6855053,0.07089837,-0.1848736
0.6066146,0.06275266,-0.1937127
0.6171863,0.05638422,-0.1621003
0.6543493,0.03207448,-0.1918507
0.5423387,0.02097136,-0.1788753
0.5080785,0.02694545,-0.1420511
0.4057001,0.03195446,-0.1279094
0.3392424,0.04708197,-0.04945525
0.4283976,0.04660898,-0.03163201
0.4416271,0.01551265,-0.02591057
0.531146,-0.01399936,-0.06119344
0.64118,-0.01437528,-0.1708597
0.728445,0.03588346,-0.1998214
0.9480891,0.1976017,-0.3722257
1.098584,0.4356968,-0.5758073
1.273417,0.4942357,-0.4173995
1.627249,0.3453113,-0.2551035
1.93105,0.1965691,-0.3423067
2.009335,0.07477971,-0.3515531
1.912484,0.1213337,-0.3011824
1.726528,0.2829494,-0.3045263
1.374153,0.2585227,-0.1905417
1.095902,0.2428944,-0.07190883
1.04945,0.2614668,-0.03351603
0.9038305,0.1519272,0.01002141
0.7354873,0.1127187,-0.03905857
0.670808,0.07473987,-0.1102192
0.6137471,0.02673021,-0.1428323
0.6241139,0.06284308,-0.1696962
0.5963953,0.07260464,-0.1286002
0.5474674,0.1565772,-0.09949634
0.567824,0.2449974,-0.09108739
0.5889649,0.2172762,-0.07457124
0.6798299,0.172288,-0.06179132
0.7587231,0.1212026,-0.009328043
0.7318488,0.1161737,-0.01141235
0.7319929,0.1192529,-0.04690583
0.7836447,0.09822541,-0.05351404
0.8615986,0.1172748,-0.08273953
0.9601821,0.1326751,-0.03248154
1.026082,0.175507,0.01174432
1.05948,0.2680211,-0.1758659
1.207215,0.3411398,-0.5077232
1.536597,0.3502745,-0.8253191
1.721207,0.3179462,-0.9359963
1.534474,0.2822767,-0.6444502
1.386157,0.1621485,-0.3600559
1.533804,-0.02628762,-0.5392258
1.563343,-0.1032405,-0.6692641
1.362169,0.01187054,-0.4562677
1.192707,0.170424,-0.3632265
1.044804,0.2109647,-0.3382027
0.9220598,0.2290403,-0.2992833
0.8057718,0.2047531,-0.3649148
0.7031612,0.07461843,-0.3338183
0.7175311,0.02651395,-0.32495
0.7320931,0.02824189,-0.3591022
0.7547275,0.03398892,-0.3098112
0.8207201,0.104935,-0.3415849
0.8778187,0.1232832,-0.3506573
0.9840314,0.1230523,-0.338229
1.032995,0.1160555,-0.3616855
0.8628494,0.2934177,-0.1305519
0.9022073,0.266478,-0.2976381
1.113944,0.2003813,-0.5626039
1.574746,0.1622551,-0.733269
1.900086,0.1829427,-0.7285373
1.937704,0.2203556,-0.6066797
1.924708,0.083584,-0.3897876
1.880158,-0.1268842,-0.2073219
1.751556,-0.2021303,-0.1482993
1.490055,-0.2074032,-0.1196531
1.163276,-0.1673795,-0.08354597
0.9987981,-0.07017506,-0.1454026
0.8882326,0.09506899,-0.2782529
0.7724633,0.1924234,-0.310352
0.7949315,0.1049395,-0.2735465
0.724679,0.04481167,-0.2477297
0.5733945,0.02319972,-0.1821676
0.5845944,-0.02721684,-0.1411937
0.5804955,-0.01019297,-0.1552787
0.5573141,-0.01429083,-0.1340846
0.5554275,-0.03318979,-0.09177816
0.4674396,-0.007512695,-0.04835583
0.4564318,-0.01349286,0.01519722
0.5566502,-0.01882079,0.05291747
0.7016128,-0.02190795,0.02182914
0.8512734,-0.04809043,-0.05024626
0.9444554,-0.05996838,-0.1685379
1.026151,-0.06377919,-0.386407
1.033502,0.005252798,-0.5325144
1.067417,0.2623688,-0.4446135
1.245964,0.5466607,-0.3476237
1.423792,0.4963286,-0.330895
1.701496,0.2910875,-0.2808584
2.031176,0.3034411,-0.2635458
2.002717,0.3060396,-0.256126
1.756561,0.2478258,-0.2507152
1.631603,0.24236,-0.2852182
1.431025,0.1776281,-0.2550029
1.198267,0.1470648,-0.1718953
1.002483,0.09414253,-0.07504665
0.7618599,0.06896871,-0.04637566
0.8040125,0.1530227,-0.07568287
0.7647829,0.1130325,0.006380454
0.5239143,0.09758397,0.03019802
0.5872616,0.1000816,-0.03770925
0.5143414,0.02627205,-0.03283998
0.4413151,0.06130197,-0.05104844
0.5446838,0.07563306,-0.05491614
0.4292675,0.1235187,-0.04169978
0.4701298,0.2217437,-0.05970751
0.5099114,0.2051156,-0.0493045
0.5190108,0.1960556,-0.06892663
0.7616761,0.1865121,-0.08432839
0.8417493,0.1975515,-0.09300973
0.9209049,0.2354464,-0.1510998
1.12231,0.2043577,-0.2748994
1.376753,0.1526587,-0.5587033
1.585489,0.09270046,-0.7379842
1.486524,0.1259813,-0.5046495
1.5379,0.1756869,-0.2667142
1.780352,0.05973099,-0.348908
1.775732,-0.0502195,-0.3713119
1.612847,-0.06539676,-0.2388245
1.359311,-0.0390754,-0.1776079
1.173236,-0.005395974,-0.09958256
1.090893,-0.0002505888,-0.08609626
0.9389498,0.02997236,-0.1652228
0.8744805,0.05054917,-0.1670257
0.8945919,0.03462026,-0.1884318
0.8041213,0.0246234,-0.1902979
0.7044727,0.009717823,-0.1570811
0.655883,0.03352914,-0.1710963
0.5598569,0.07616798,-0.1479397
0.4919283,0.08294882,-0.1397066
0.5144054,0.0993448,-0.1241882
0.6091825,0.0967134,-0.09868605
0.7887616,0.02782899,-0.1496598
0.8773884,-0.07511386,-0.1637281
0.8241042,-0.1851702,-0.1188951
0.8233831,-0.2689481,-0.07252295
0.8495598,-0.2648825,-0.09273119
0.8639034,-0.07734784,-0.2172026
0.9649454,0.2760116,-0.3289723
1.1538,0.530504,-0.3576627
1.41984,0.5024555,-0.3256866
1.649624,0.3255019,-0.3105229
1.667104,0.1968274,-0.28955
1.612941,0.2052196,-0.2216703
1.626848,0.290058,-0.1578821
1.544088,0.3025352,-0.09447172
1.372861,0.2283625,-0.1306639
1.223682,0.1140233,-0.1914199
1.002021,0.02219897,-0.1033024
0.7579032,0.04599975,-0.02957869
0.6325132,0.09238537,-0.007992241
0.56896,0.1159232,0.01545862
0.5378095,0.1870738,0.00118716
0.5776883,0.2096457,-0.001742407
0.6156816,0.1587365,-0.03023378
0.6168132,0.1090221,-0.07430279
0.6428897,0.07644508,-0.07450743
0.6561927,0.0690266,-0.07009372
0.6027282,0.07372115,-0.05411903
0.5450941,0.1153487,-0.01376613
0.5481329,0.1595541,0.03361906
0.6017981,0.1518949,0.0327776
0.6768802,0.1529752,-0.05112835
0.9035772,0.1593957,-0.245635
1.417799,0.1345242,-0.5837109
1.829326,0.1089747,-0.7912146
1.738081,0.1135683,-0.6533257
1.62093,0.1622214,-0.3863923
1.752305,0.1914268,-0.1268291
1.688086,0.1070376,-0.02201968
1.52678,0.0241349,-0.1687558
1.396651,0.1240326,-0.2271429
1.146043,0.2575189,-0.1857795
1.030514,0.2783224,-0.2505069
0.9951037,0.3116301,-0.263457
0.9425143,0.3391354,-0.3021317
0.9520461,0.2950934,-0.3704293
0.8562496,0.2378018,-0.2966197
0.7075523,0.1105806,-0.1980346
0.5139524,-0.07308652,-0.06463041
0.4246736,-0.1240862,0.0104578
0.52551,-0.07639544,-0.02568783
0.4762843,-0.08780999,0.03643019
0.4640499,-0.07089067,0.06912664
0.5436842,-0.03533969,0.0380019
0.5574734,-0.07986599,-0.001203116
0.7173587,-0.1071652,-0.1455567
0.8546454,-0.1545523,-0.2563351
0.894812,-0.1885598,-0.3474898
0.9401774,-0.04649933,-0.4851637
0.961279,0.2459924,-0.5305472
1.062621,0.5719072,-0.5108191
1.204986,0.6099696,-0.5273075
1.518917,0.4068754,-0.6163578
1.905728,0.3550023,-0.6820194
1.892306,0.2995818,-0.615957
1.761157,0.1662477,-0.4754297
1.758485,0.1158385,-0.3431534
1.542089,0.1308702,-0.3368193
1.243751,0.1826384,-0.3432736
1.060532,0.1015412,-0.1755391
0.8565473,-0.01732205,-0.07003109
0.7199248,-0.009194864,-0.05505094
0.6419895,0.004025034,0.02388363
0.5331985,0.05950756,0.03239427
0.5202861,0.08389052,0.03226196
0.5534582,0.06137632,0.05157551
0.6030408,0.09213341,0.0185685
0.7120696,0.07892998,0.03003659
0.7457855,0.08803525,0.01331476
0.7109418,0.1065035,-0.0108802
0.6926436,0.09776576,0.009693353
0.6623343,0.1273246,-0.01837327
0.6046485,0.1106089,-0.0260657
0.5898748,0.1098313,-0.01468587
0.6588575,0.1514887,-0.02904352
0.7335741,0.2306455,-0.1033583
0.8276367,0.3646089,-0.291695
1.084533,0.3543882,-0.5216858
1.522758,0.2346203,-0.8022996
1.768098,0.1646551,-0.9631655
1.631654,0.1104119,-0.7284152
1.607748,0.02203614,-0.4490798
1.695899,-0.07995379,-0.4192113
1.482738,-0.03639305,-0.2309031
1.26475,0.04675852,0.03082181
1.212207,-0.0360674,-0.06250887
1.122108,-0.05859205,-0.2131379
1.05102,0.008962513,-0.3034906
1.003536,0.01401027,-0.3743528
0.8928066,0.04774366,-0.2644487
0.7230398,0.06424355,-0.2252945
0.6124114,0.06450323,-0.2005296
0.630388,0.1071264,-0.1110581
0.6709647,0.09516663,-0.1585868
0.6936907,0.05044867,-0.125086
0.6429534,-0.009723331,-0.07221228
0.5616459,-0.06076347,-0.06798659
0.5875625,-0.06969957,0.01501042
0.6046768,-0.09780979,0.0005266118
0.5980167,-0.1068381,-0.01532224
0.6718054,-0.1292709,-0.000692332
0.7857064,-0.1732621,-0.09113803
0.9090109,-0.1042215,-0.2648962
0.973134,0.06164234,-0.5199271
0.9927217,0.2868632,-0.5788665
1.100571,0.5483597,-0.3530343
1.290274,0.6620488,-0.2224413
1.544525,0.4513885,-0.3278235
1.869688,0.1066319,-0.4186892
2.004733,0.02856733,-0.3527768
1.800857,0.1764733,-0.304419
1.573039,0.286212,-0.2125841
1.365608,0.3158202,-0.04507744
1.053275,0.241858,-0.06981509
0.8588036,0.1278432,-0.09439226
0.7327655,0.05631457,0.01828434
0.5957752,-0.01854731,0.02494333
0.6032064,-0.05016091,-0.01802023
0.6266874,-0.004205323,-0.0428923
0.6108032,0.06053129,-0.06051908
0.5988106,0.1393928,-0.04287449
0.5666953,0.2257875,-0.05559596
0.5906711,0.2452064,-0.06568601
0.6156311,0.1822087,-0.07944326
0.6184619,0.1377839,-0.1243978
0.6527043,0.1416504,-0.1236254
0.6657648,0.1440962,-0.08349567
0.6751754,0.1550147,-0.04849575
0.7183923,0.2052087,-0.1073012
0.8762216,0.2403474,-0.3218755
1.2964,0.1757152,-0.6365031
1.755495,0.1122283,-0.8948878
1.803117,0.1689118,-0.8535266
1.657277,0.2466611,-0.5469832
1.751729,0.2421559,-0.2852722
1.872003,0.1184898,-0.2559119
1.857449,-0.05564122,-0.2997938
1.605291,-0.1443256,-0.1827371
1.143541,-0.2210274,-0.09732115
1.063153,-0.2327533,-0.1267634
1.089562,-0.03964675,-0.1617809
0.7850246,0.1148536,-0.2593686
0.758071,0.1486284,-0.249107
0.8486436,0.1387517,-0.1948286
0.6768948,0.06415618,-0.221169
0.6259883,0.05865791,-0.1521449
0.6019097,0.04624293,-0.130688
0.4800137,0.00539557,-0.11557
0.4287714,0.03305825,-0.03148249
0.4270656,0.01977902,-0.05982249
0.5027206,0.03473696,-0.07103959
0.6825942,0.04204041,-0.07782934
0.9026004,-0.01984194,-0.1298273
0.9707068,-0.07777381,-0.1444514
0.8566166,-0.1646816,-0.2246802
0.7863222,-0.134822,-0.3275827
0.8020394,0.0829384,-0.3942838
0.9863497,0.4402961,-0.4071081
1.348841,0.684913,-0.3045592
1.598294,0.5114318,-0.2138402
1.711321,0.2678465,-0.2177946
1.803631,0.1548124,-0.2507177
1.82382,0.08621655,-0.2957033
1.801358,0.1486723,-0.3446946
1.673998,0.1537602,-0.2909764
1.362411,0.1381645,-0.1466529
1.076298,0.1783255,-0.07444415
0.8743148,0.0997822,-0.03831039
0.6973784,0.06948986,-0.01787932
0.6510001,0.05168879,-0.04892263
0.6243853,-0.009973857,-0.04228962
0.5693867,0.04918108,-0.05587933
0.5964191,0.0717053,-0.08157433
0.5686446,0.09209579,-0.05010025
0.5312785,0.1642429,-0.04656829
0.6105396,0.1615871,-0.03977092
0.6969431,0.1548969,-0.02693195
0.7962621,0.1164011,-0.04821205
0.8577772,0.05846947,-0.05476595
0.8286662,0.03948606,-0.05738987
0.8468348,0.05622672,-0.05774285
0.9124586,0.1135138,-0.04970762
0.9816387,0.1153538,-0.01643599
1.023208,0.123825,-0.01025634
1.003561,0.2047913,-0.1845458
1.045112,0.2784433,-0.4381871
1.186334,0.2782809,-0.5870522
1.363116,0.1898834,-0.7229823
1.493426,0.1305741,-0.8095368
1.481278,0.09355203,-0.674348
1.528402,0.06023188,-0.4852586
1.676199,0.07251861,-0.3601935
1.554177,0.08121563,-0.2772487
1.310682,0.1470181,-0.2961994
1.201341,0.2192114,-0.2649304
1.019954,0.2417022,-0.257056
0.8973744,0.2504774,-0.3633846
0.9154104,0.1397254,-0.345374
0.8646404,-0.0395133,-0.320409
0.7974276,-0.1709922,-0.3010549
0.7296612,-0.1863047,-0.213354
0.7172122,-0.1058104,-0.2314452
0.7738642,-0.09172258,-0.2128895
0.7678383,-0.08953529,-0.1550436
0.7704129,-0.05585649,-0.1632582
0.7321113,-0.03867946,-0.1191213
0.641245,-0.01951491,-0.0476743
0.6444463,-0.03282152,0.005133501
0.7066003,-0.02635689,-0.01496781
0.7621296,-0.02257869,-0.03916091
0.7283318,-0.06542202,0.05643199
0.683113,-0.08398834,0.1162084
0.7454061,-0.09850387,0.0539701
0.8221615,-0.09323245,-0.08444881
0.9220488,-0.03554022,-0.271802
1.022989,0.1417959,-0.4403978
1.129997,0.41772,-0.526858
1.291355,0.4759652,-0.4664767
1.397999,0.2695836,-0.3705426
1.601832,0.138139,-0.3924143
1.864673,0.2388176,-0.3835861
1.82605,0.4377501,-0.2891521
1.65665,0.5389585,-0.2353599
1.502152,0.3836285,-0.1962259
1.276368,0.08141279,-0.1998761
1.11654,-0.01540953,-0.1994036
0.9122639,-0.004979683,-0.106036
0.6610894,-0.06523597,-0.0758265
0.5803287,-0.001446248,-0.08539622
0.5341645,0.1112314,-0.05122495
0.5155074,0.2196601,-0.04157105
0.564795,0.2951405,-0.04869526
0.5713298,0.1905772,-0.09047786
0.6217582,0.1249116,-0.1061679
0.6585818,0.105664,-0.06080002
0.6315294,0.04351215,-0.03687571
0.6543313,0.04262743,-0.0412378
0.7043171,0.003865512,-0.06735512
0.817387,-0.004063118,-0.08602349
0.9433313,0.04603079,-0.109196
0.9483514,0.08724124,-0.1156465
0.8905867,0.199321,-0.1036939
0.8852352,0.2527696,-0.1871608
1.059094,0.2275435,-0.307277
1.2956,0.223598,-0.4434016
1.345616,0.2110177,-0.5699176
1.389155,0.2097306,-0.5159443
1.544149,0.2024524,-0.3969788
1.531744,0.1545814,-0.3629109
1.450362,-0.001284659,-0.3547333
1.497509,-0.1821068,-0.3237936
1.417184,-0.1321048,-0.2571499
1.187284,-0.002028915,-0.2293294
0.9645398,0.0358509,-0.2337856
0.8610074,0.1208567,-0.2169423
0.9335386,0.1419152,-0.2645477
0.8716302,0.1051833,-0.3121597
0.7901245,0.1396534,-0.2886901
0.8479059,0.04445938,-0.2740921
0.7483678,-0.0589892,-0.2297381
0.7313294,-0.01732203,-0.1818747
0.7867736,-0.0239851,-0.1584493
0.6676753,-0.0271184,-0.1018621
0.5984932,-0.01582712,-0.07092003
0.5485388,-0.03372331,-0.04873345
0.5714313,-0.03932317,-0.02255265
0.6607681,-0.07652826,-0.02400008
0.6588316,-0.07998744,-0.01202539
0.7418135,-0.08267349,-0.01818819
0.8574672,-0.121567,-0.07461209
0.9485541,-0.1050833,-0.2333234
1.01384,0.02345412,-0.458248
1.032112,0.3097293,-0.5048931
1.188912,0.5294999,-0.3572295
1.385403,0.4857453,-0.2784459
1.58824,0.3230217,-0.327864
1.76731,0.1603741,-0.3414863
1.697863,0.1016189,-0.3113089
1.621535,0.1966467,-0.3087475
1.585158,0.2796032,-0.2560076
1.375619,0.2667267,-0.1656567
1.176417,0.2051666,-0.1522362
1.009349,0.09950515,-0.1607488
0.8170891,0.04090917,-0.09758768
0.6841316,0.04445013,-0.0140461
0.5726671,0.01783262,0.01514255
0.516616,0.02397352,0.01143587
0.4778566,0.05393908,0.01679155
0.3912128,0.1001895,-0.009797964
0.3892913,0.1943039,-0.06854313
0.4772264,0.20174,-0.1018952
0.6032299,0.1666039,-0.1569663
0.7582773,0.1885721,-0.2144955
0.8667987,0.2204128,-0.1795261
0.9061005,0.2632924,-0.09492728
0.88164,0.2681925,-0.05733236
0.9270317,0.2421139,-0.2330801
1.23137,0.2300876,-0.5902518
1.618403,0.1981182,-0.7164873
1.689451,0.2052785,-0.5240042
1.507727,0.2308726,-0.3072899
1.52869,0.1392949,-0.2059283
1.756718,-0.0936097,-0.246023
1.862726,-0.3102465,-0.3126945
1.640736,-0.2432476,-0.2845697
1.186312,-0.02819377,-0.2357099
0.9710621,0.04572995,-0.1963614
0.9405012,0.128738,-0.211139
0.7957299,0.193475,-0.2716538
0.7674082,0.1366887,-0.2446353
0.785627,0.08142838,-0.2202833
0.6960558,-0.02050844,-0.2164504
0.6473866,-0.04848905,-0.1560218
0.6321324,0.001373526,-0.1602639
0.6142154,-0.02832562,-0.1391152
0.5350465,0.01626856,-0.04851949
0.4083011,0.05260651,-0.03484763
0.3752202,0.01017626,-0.02610563
0.4940236,0.006937724,-0.02680024
0.7192142,-0.02090324,-0.07881148
0.9175415,-0.06213849,-0.1374385
0.9856056,-0.09173694,-0.2409869
0.9535581,-0.01554802,-0.3705958
1.016982,0.2324587,-0.4498949
1.198205,0.4274833,-0.4000771
1.389915,0.3915981,-0.3364238
1.681943,0.2210731,-0.3875348
1.867109,0.1620455,-0.3770459
1.786249,0.2457491,-0.3000395
1.74848,0.3363418,-0.2397867
1.710744,0.3572376,-0.1663839
1.519583,0.2830834,-0.1770752
1.344194,0.1925254,-0.194546
1.116556,0.07182532,-0.1490548
0.8397361,-0.0143827,-0.1317289
0.7365824,0.02070537,-0.08569614
0.6336316,0.0226549,-0.03685264
0.5008938,0.05619909,-0.0224593
0.530133,0.1615175,-0.006680542
0.5107262,0.1640374,-0.01961701
0.4713182,0.1204399,-0.02825572
0.5223966,0.114554,-0.05681423
0.4929585,0.1270666,-0.10201
0.4965034,0.1417865,-0.08238633
0.5287215,0.1507209,-0.05981332
0.56202,0.1703175,-0.07339417
0.7531712,0.1714303,-0.1045852
0.9199279,0.121762,-0.1455836
0.9455352,0.08549894,-0.1478192
0.9431809,0.15334,-0.1718766
1.089241,0.2215,-0.3574713
1.464682,0.1648315,-0.6700799
1.753559,0.1274411,-0.8201201
1.791003,0.1762849,-0.6295499
1.779778,0.1562567,-0.430759
1.799421,0.01026958,-0.3908802
1.772452,-0.1586734,-0.2311533
1.689603,-0.1805397,-0.1637397
1.485074,-0.07268089,-0.2879746
1.171956,-0.01283486,-0.2408795
1.077979,0.05291669,-0.2562284
1.061772,0.1394297,-0.3446844
0.8001308,0.1525619,-0.236705
0.5958466,0.1917037,-0.2126627
0.5574262,0.1875835,-0.2144938
0.5407364,0.05661893,-0.1204889
0.5018122,-0.03130493,-0.07840372
0.4671501,-0.03657744,-0.06545582
0.5248629,-0.01207216,-0.1048069
0.5024759,-0.006485321,-0.1075407
0.4741278,-0.01369451,-0.1054161
0.5229419,0.006509622,-0.1462472
0.4708665,0.0004833469,-0.1314842
0.5006822,0.008196045,-0.1717472
0.5802107,0.01571781,-0.1370933
0.6451109,-0.03291368,-0.01601283
0.7800719,-0.07424902,-0.0171694
0.8485669,-0.09883881,-0.08029425
0.9630021,0.004689697,-0.2822394
1.123905,0.2600626,-0.4802029
1.350564,0.440257,-0.4170767
1.694184,0.4221443,-0.2961027
1.866311,0.2460041,-0.2672075
1.942402,0.1047054,-0.294808
1.946668,0.1100525,-0.3170536
1.823223,0.1622766,-0.2635013
1.760504,0.1883923,-0.1962479
1.573099,0.1786523,-0.1909023
1.234528,0.1497879,-0.1549213
0.9779509,0.0988475,-0.06454111
0.8564209,0.06318308,-0.05564551
0.7797038,0.01675059,-0.07486085
0.5640833,-0.09720221,-0.05450455
0.4089374,-0.1254699,-0.04749513
0.4125933,-0.05267873,-0.02224029
0.3523521,0.03196335,-0.01092911
0.3429948,0.1471857,-0.0483291
0.4102964,0.2093625,-0.07972798
0.4747004,0.2041793,-0.08381046
0.5865999,0.1935594,-0.07773021
0.6415445,0.1912706,-0.08893741
0.6470879,0.2281294,-0.09956951
0.7450938,0.304858,-0.094908
0.9026491,0.3902421,-0.141615
1.061229,0.4118948,-0.3652611
1.378676,0.3513194,-0.695072
1.760156,0.2704241,-0.7547879
1.796689,0.1880139,-0.5208064
1.756724,0.07463893,-0.4168647
1.88007,-0.09166716,-0.4804613
1.692316,-0.1619359,-0.4502855
1.354031,0.00823925,-0.2912257
1.190126,0.2023132,-0.1242008
1.056768,0.2155134,-0.1205841
1.032409,0.1785476,-0.2807255
0.958399,0.1738946,-0.3945941
0.8408035,0.1322576,-0.3802524
0.8289922,0.05648364,-0.3278372
0.673856,-0.005195687,-0.2956539
0.6031907,-0.006668632,-0.2499445
0.6775579,0.05691263,-0.2332328
0.7188763,0.1303986,-0.282545
0.9166851,0.1788966,-0.3125716
1.048009,0.1738966,-0.3404126
1.029122,0.1132847,-0.3607582
1.034564,0.05712463,-0.317644
1.017271,0.04924713,-0.2763084
