accx,accy,accz
1.056684,-0.07026703,-0.2831258
1.005249,-0.003385424,-0.1770669
0.9208999,0.09872657,-0.1057544
0.8025099,0.1695938,-0.07394578
0.712675,0.1742287,-0.08565273
0.700774,0.1563938,-0.1165698
0.720823,0.1381844,-0.1363926
0.7533137,0.08806842,-0.1784232
0.8616665,0.03845856,-0.1918585
0.9717431,0.034796,-0.1863997
0.961221,0.05736441,-0.186999
0.8977664,0.07764112,-0.1564464
0.8356839,0.08037184,-0.1303734
0.7825966,0.06205537,-0.1167206
0.8092444,0.01373648,-0.1445279
0.8775791,-0.07358076,-0.2202349
0.9291301,-0.1658158,-0.275926
1.056865,-0.2076468,-0.3062505
1.357795,-0.2202625,-0.3185259
1.755683,-0.258653,-0.3276623
1.868405,-0.2613643,-0.2876783
1.635675,-0.2032336,-0.218004
1.539729,-0.1515629,-0.2677304
1.470145,-0.0843423,-0.3178897
1.222264,-0.04203342,-0.2598634
1.078416,-0.06703449,-0.2318644
0.944378,-0.06129252,-0.2047506
0.7778925,-0.0460156,-0.1342256
0.6403846,-0.04348115,-0.08536002
0.585044,-0.01611936,-0.0811885
0.7119214,-0.02797693,-0.1173452
0.6822683,-0.05098357,-0.1314925
0.6337977,-0.05164048,-0.1447715
0.7198133,-0.061637,-0.1537837
0.659036,-0.05614795,-0.1023108
0.706962,-0.06746031,-0.08020574
0.7981838,-0.1137778,-0.0561456
0.8171209,-0.159732,-0.007987467
0.8728636,-0.1670953,-0.02616224
0.8038656,-0.1271262,-0.03460233
0.8202966,-0.1012808,-0.02224536
0.8573991,-0.06453784,-0.0282559
0.8099269,-0.01061165,-0.01710224
0.8691512,0.01241049,-0.008102927
0.8920444,0.04042742,-0.02229087
1.029655,0.02928378,-0.1406332
1.297008,-0.04680232,-0.4470592
1.463858,-0.1197471,-0.7220759
1.584923,-0.137617,-0.6535658
1.616307,-0.06160675,-0.4668153
1.612763,0.04183028,-0.4250384
1.584671,0.1054909,-0.3543803
1.458141,0.1098195,-0.3575107
1.274643,0.1008479,-0.3964168
1.087211,0.157183,-0.2258435
0.9622149,0.1592881,-0.1123314
0.7893843,0.09349281,-0.123029
0.6747588,0.04795224,-0.1640077
0.7097778,-0.022072,-0.2519476
0.7236794,-0.04564138,-0.2729075
0.8175702,-0.03541054,-0.2919655
0.9195455,-0.03826261,-0.2570824
0.9378973,0.01350621,-0.1612097
0.960957,0.05374668,-0.1308502
0.9187731,0.07261669,-0.09915448
0.8607739,0.08873798,-0.1455259
0.7598875,0.09298418,-0.2121192
0.6511509,0.1183757,-0.1975898
0.662504,0.1132611,-0.1856326
0.7017262,0.1089088,-0.1429871
0.7839517,0.1253022,-0.1344692
0.8628716,0.1161766,-0.1628134
0.8629834,0.1067841,-0.1739911
0.8671299,0.04179304,-0.2124302
0.9158629,-0.1073498,-0.2384919
1.081373,-0.2745426,-0.2740182
1.318821,-0.3454392,-0.3233807
1.484972,-0.2615132,-0.3619381
1.531841,-0.1884036,-0.3899622
1.548288,-0.1499795,-0.3761415
1.642526,-0.04774869,-0.3775901
1.671836,-0.04130553,-0.3889397
1.577491,-0.1490762,-0.3441576
1.425816,-0.197067,-0.2559331
1.216985,-0.2063276,-0.1801232
1.091111,-0.1597265,-0.1680517
0.9381773,-0.04158221,-0.1458786
0.7006749,0.03494858,-0.1062876
0.6534897,0.0867891,-0.1295801
0.6042627,0.09328943,-0.1307196
0.5086024,0.03216445,-0.1032956
0.579695,-0.01372029,-0.1124427
0.5920957,-0.07316204,-0.1019301
0.6336466,-0.1267758,-0.09324831
0.7460704,-0.1425287,-0.09532503
0.7537758,-0.1673327,-0.08436029
0.8268691,-0.1828325,-0.09332104
0.8480465,-0.1571924,-0.07750875
0.8213599,-0.09684594,-0.0450083
0.8919727,-0.07139625,-0.02139713
0.8926683,-0.07669528,0.01424979
0.9100715,-0.0519311,0.01635976
0.9458243,0.008466822,-0.02668447
0.988941,0.1095412,-0.1393148
1.16378,0.1416814,-0.335584
1.31029,0.06333957,-0.5573886
1.423349,-0.01719935,-0.6633741
1.543748,-0.05790915,-0.5115809
1.574183,-0.023989,-0.3383105
1.582244,0.05528525,-0.361481
1.58266,0.1208212,-0.4102213
1.463037,0.1476855,-0.4294288
1.20868,0.09756371,-0.4144418
0.9602232,0.0430419,-0.2982967
0.7779257,0.02216292,-0.1554675
0.6230748,-0.008852761,-0.06541968
0.5584624,-0.01788336,-0.05656486
0.584118,-0.01264918,-0.07419569
0.6478007,-0.007723742,-0.0917731
0.7603661,0.02299243,-0.1466016
0.8580376,0.07256092,-0.1601846
0.8673794,0.1448505,-0.1431237
0.8236523,0.2177301,-0.170862
0.7833761,0.2502665,-0.2197905
0.7597756,0.208839,-0.2553874
0.7553999,0.09984288,-0.2030225
0.7573129,0.0249949,-0.1183843
0.7588231,0.02938352,-0.1191563
0.7836522,0.07435831,-0.1456949
0.8089438,0.1055837,-0.1698688
0.8140438,0.07738177,-0.2088459
0.9131949,-0.02860231,-0.2530896
1.222141,-0.2568096,-0.3151772
1.504339,-0.4343243,-0.3334809
1.499475,-0.3563123,-0.2919563
1.532359,-0.2719147,-0.2555239
1.689728,-0.2762161,-0.223437
1.605098,-0.1595725,-0.2565039
1.505007,-0.0801356,-0.3298209
1.458608,-0.113454,-0.2853561
1.223337,-0.09436529,-0.2139968
1.080313,-0.08753571,-0.1690648
0.9744843,-0.05868852,-0.09002515
0.8145864,0.02761839,-0.09078076
0.7804702,0.06368179,-0.1189833
0.6865081,0.08368745,-0.1267757
0.6473153,0.06239863,-0.1797046
0.7069498,-0.003374839,-0.1756131
0.6992385,-0.0764912,-0.1394992
0.771217,-0.1663492,-0.1157055
0.8092307,-0.1811087,-0.07240188
0.789368,-0.1552006,-0.06674641
0.8133877,-0.1249544,-0.06598996
0.8129874,-0.04271517,-0.06940653
0.8617417,0.01651381,-0.08830601
0.9037442,0.02928636,-0.06239166
0.9017066,0.0240295,-0.03409823
0.9193807,0.03198744,-0.04044235
0.9596837,0.05366168,-0.1158034
1.086781,0.02785067,-0.3428974
1.275661,-0.02750355,-0.6572419
1.444037,-0.08162526,-0.7938033
1.514411,-0.100935,-0.6381873
1.510831,-0.0582111,-0.4503979
1.495668,0.006089431,-0.4073456
1.435975,0.09120006,-0.4553174
1.408654,0.1569885,-0.5207528
1.363061,0.1555493,-0.4698494
1.177009,0.1540292,-0.3542274
0.9527438,0.1319173,-0.2854731
0.7717301,0.03788316,-0.2417754
0.6919714,-0.03627492,-0.2921141
0.7184551,-0.04186264,-0.3260316
0.791839,-0.003273979,-0.2893631
0.8964742,0.05769227,-0.3312548
0.9516088,0.102088,-0.3476363
0.9412161,0.1173881,-0.3346533
0.926661,0.09223291,-0.334464
0.9037773,0.05126753,-0.2822801
0.882139,0.04304671,-0.2609056
0.8883447,0.04392445,-0.2564763
0.8891138,0.03206945,-0.2937009
0.8417047,-0.004944404,-0.3796026
0.8152531,-0.07592356,-0.3876597
0.8890754,-0.1658186,-0.3735083
1.017326,-0.2489951,-0.3778378
1.122025,-0.2575928,-0.3666111
1.196713,-0.1967536,-0.3172226
1.255246,-0.1315544,-0.2350884
1.259064,-0.07754772,-0.2164188
1.240845,-0.06368715,-0.2406091
1.249891,-0.07886513,-0.2510722
0.6678035,-0.08391906,-0.1115218
0.613527,-0.1296665,-0.07670362
0.6228997,-0.1383452,-0.08370748
0.6394271,-0.08422608,-0.1301565
0.5884799,-0.06089546,-0.1278034
0.614542,-0.03827142,-0.1180423
0.6876167,0.002705479,-0.06185342
0.7906807,-0.06170835,-0.01825601
0.8886869,-0.1275736,-0.03068324
0.9052061,-0.139523,-0.01653229
0.8895931,-0.1154344,-0.002436203
0.8624134,-0.0477725,-0.004471197
0.8559851,-0.01812787,-0.005709581
0.9112363,0.03018762,-0.01103486
1.038487,0.06745269,-0.06031525
1.244538,0.01854682,-0.2515581
1.348763,-0.03537735,-0.5553618
1.375808,-0.08914255,-0.715768
1.555836,-0.0964236,-0.5921719
1.687421,-0.0418618,-0.4374565
1.641119,0.02622124,-0.3686132
1.594548,0.1233203,-0.3255386
1.468236,0.1520576,-0.4054329
1.222916,0.1105291,-0.4258153
1.03869,0.1056553,-0.2844874
0.8947288,0.07909591,-0.1775634
0.7218131,0.04048962,-0.1178891
0.6033556,0.05198282,-0.1369901
0.5371391,0.05301768,-0.1529167
0.5210726,0.0423557,-0.1245564
0.6008403,0.02603029,-0.1651636
0.7123258,-0.01336921,-0.1549504
0.8238355,-0.005089506,-0.1263757
0.9220096,0.06141146,-0.123316
0.9637186,0.1391575,-0.1103563
0.9201098,0.2050091,-0.1812898
0.7891135,0.2264914,-0.2218976
0.6979994,0.1920592,-0.1873949
0.6859948,0.1082204,-0.1238755
0.6900515,0.03447635,-0.03231249
0.7502342,0.0232663,-0.02333606
0.8375851,0.04685653,-0.09764274
0.8719126,0.06727506,-0.2017208
0.879871,0.04241236,-0.287989
0.9985343,-0.05027776,-0.3373682
1.257231,-0.204792,-0.3659025
1.495023,-0.3166677,-0.3527064
1.643844,-0.2880968,-0.325848
1.672669,-0.2322401,-0.2736767
1.575654,-0.1795817,-0.2492649
1.476951,-0.1104556,-0.2694853
1.426159,-0.1134107,-0.2205785
1.332947,-0.09928481,-0.1750444
1.117926,-0.02214509,-0.1612014
0.8813493,0.032527,-0.1080227
0.720278,0.0817869,-0.06174005
0.6319237,0.1053811,-0.0496836
0.6664909,0.08828083,-0.0679263
0.7896584,0.04267082,-0.1120189
0.9225155,-0.0419149,-0.1834064
0.9611717,-0.1014832,-0.2091935
0.8639781,-0.1075313,-0.1504746
0.7898851,-0.08449419,-0.1091486
0.730402,-0.02841126,-0.0689209
0.6696504,0.03206309,-0.03524528
0.7399386,0.0386802,-0.06995528
0.8465115,-0.001041698,-0.1028127
0.8811371,-0.02747179,-0.1165408
0.8469986,-0.04573557,-0.1079502
0.8027086,-0.06279442,-0.08466262
0.8933254,-0.05266396,-0.1219471
1.116972,-0.06001219,-0.2908695
1.388248,-0.1260135,-0.6656724
1.585741,-0.2078847,-0.9287932
1.648246,-0.2041527,-0.6948672
1.66794,-0.05956231,-0.4168016
1.565528,0.1239171,-0.4676784
1.3849,0.2103758,-0.4813244
1.297424,0.2061392,-0.4142589
1.150795,0.2032393,-0.3324654
0.9203045,0.1740639,-0.1582254
0.7567141,0.064201,-0.1673656
0.6919141,-0.01533401,-0.2835409
0.6981543,-0.01258652,-0.2994603
0.7221664,0.01453924,-0.3608027
0.8487152,0.07238451,-0.3837693
1.023547,0.1335408,-0.387296
1.039142,0.113923,-0.4007024
0.9724129,0.03170612,-0.2744369
0.943611,-0.01838596,-0.1754474
0.9070766,-0.03101443,-0.1734851
0.8365161,-0.02109813,-0.1596911
0.751305,0.009221456,-0.1167308
0.6847621,0.03641699,-0.07583034
0.7104139,0.07899163,-0.1117691
0.7965447,0.09420933,-0.1452985
0.8499331,0.09599507,-0.1713709
0.8771798,0.1172783,-0.1983472
0.8819314,0.09607458,-0.1173088
0.9438601,0.1066092,-0.05407094
1.011641,0.1378011,-0.0646671
0.9607343,0.1646866,-0.08474488
0.934195,0.2574062,-0.1066144
0.9027565,0.2758442,-0.07492064
0.8479242,0.2215311,-0.06765906
0.909169,0.1699742,-0.156371
1.012352,0.00645388,-0.3064457
1.17046,-0.2345168,-0.4309846
1.3406,-0.4249409,-0.422032
1.402912,-0.4802039,-0.3416205
1.424861,-0.4187761,-0.2587133
1.414285,-0.3342091,-0.2047955
1.422099,-0.2203081,-0.2306201
1.469654,-0.136515,-0.3151146
1.444963,-0.1562202,-0.3992884
1.326992,-0.1704394,-0.3573675
1.115002,-0.1445829,-0.209618
0.9182522,-0.1364477,-0.1033506
0.8444006,-0.08596189,-0.06569888
0.8031569,-0.007537331,-0.1247466
0.788209,0.02500815,-0.1916003
0.80129,0.02980146,-0.1863445
0.7772177,-0.02340509,-0.1935944
0.7484569,-0.1055288,-0.1670731
0.7272046,-0.1389018,-0.1196497
0.7255033,-0.152412,-0.09417988
0.7469638,-0.160699,-0.04640718
0.7405946,-0.1449229,-0.04903368
0.7099971,-0.07234235,-0.05991129
0.6806709,0.03681836,-0.04173353
0.7037237,0.08309868,-0.04521263
0.7718601,0.03495621,-0.003866819
0.8208599,-0.05213395,0.04814592
0.8896378,-0.1107945,0.06069962
0.9864087,-0.1090446,0.04214079
1.078255,-0.05629319,-0.04845527
1.141225,-0.03463502,-0.1543956
1.156551,-0.09062456,-0.1676903
1.197099,-0.161314,-0.1625439
1.246572,-0.197622,-0.3255767
1.267609,-0.1449102,-0.5492947
1.381419,-0.03144403,-0.5751313
1.568446,0.05772135,-0.4255462
1.632138,0.1032525,-0.2863971
1.542445,0.08534554,-0.2792185
1.407935,0.07050837,-0.3214494
1.215245,0.06789853,-0.2971549
1.009892,0.03185912,-0.218739
0.9049632,0.02344936,-0.1112326
0.8097645,0.01648456,-0.08930261
0.7198698,0.003725308,-0.1631574
0.6939492,0.01452514,-0.1866695
0.6990442,0.03943905,-0.1870173
0.7797153,0.09305088,-0.2057518
0.8560472,0.0909307,-0.1984248
0.8994732,0.04906391,-0.1707565
0.9746272,0.05378206,-0.1327637
0.9824866,0.06755796,-0.1138899
0.9268995,0.1021981,-0.1257126
0.8311662,0.1257304,-0.1293671
0.6983646,0.1136802,-0.1191
0.6191117,0.1202966,-0.09683123
0.606829,0.1192683,-0.06840814
0.657372,0.1166776,-0.07964315
0.740173,0.1154817,-0.122293
0.830625,0.08565367,-0.1401262
0.9006799,0.04807643,-0.1391818
0.9076492,-0.003980241,-0.155565
0.9423973,-0.08515909,-0.2119727
1.070906,-0.2010153,-0.2809967
1.289315,-0.2587853,-0.3149338
1.542612,-0.1576309,-0.342666
1.721373,-0.06848051,-0.3602319
1.774394,-0.11717,-0.3224123
1.689494,-0.18196,-0.277636
1.607629,-0.2366463,-0.2745223
1.592314,-0.2718345,-0.2587705
1.426409,-0.2041589,-0.1954042
1.137962,-0.1059008,-0.1511327
0.9492546,-0.03296199,-0.1335701
0.8093727,0.05034708,-0.1067165
0.640616,0.09538673,-0.09392367
0.5523183,0.08482197,-0.08273088
0.5675458,0.0288354,-0.06614392
0.5693936,-0.04983603,-0.06240981
0.5551469,-0.08385345,-0.08602917
0.5710131,-0.08013528,-0.1329405
0.5920009,-0.07346495,-0.1440577
0.6481821,-0.09179684,-0.1096679
0.7179371,-0.1235042,-0.06257753
0.7477518,-0.129986,-0.04023392
0.7861686,-0.1142024,-0.05104825
0.8138827,-0.08763517,-0.04932994
0.8322821,-0.09775835,-0.04091753
0.9533359,-0.1149425,-0.02105683
1.081381,-0.07849917,0.004118599
0.9969993,0.02144962,-0.02481492
0.8904437,0.1693769,-0.08793699
1.046755,0.1606757,-0.2101202
1.300188,-0.03083001,-0.4754919
1.525383,-0.1533393,-0.7001615
1.697428,-0.1520255,-0.6440024
1.76188,-0.07440944,-0.5204735
1.808495,0.03912622,-0.4944102
1.70449,0.1621855,-0.4177098
1.456689,0.2159454,-0.403376
1.229236,0.1382465,-0.3929931
0.9826045,0.102398,-0.2056796
0.8497264,0.07497528,-0.1088032
0.7244615,-0.01761499,-0.1202669
0.5562276,-0.02686908,-0.1289059
0.5457454,-0.02958217,-0.1892492
0.5352293,-0.03386234,-0.1878786
0.5904098,-0.0005709988,-0.1865262
0.7411652,-0.002016121,-0.18682
0.8177279,0.04515258,-0.1264078
0.8749731,0.1092979,-0.145186
0.825953,0.1491304,-0.18985
0.7305077,0.1966021,-0.2239996
0.6691451,0.199049,-0.2308957
0.6428705,0.1756196,-0.1608662
0.7565245,0.1224759,-0.1203949
0.8427495,0.05455568,-0.1034751
0.8482299,0.0270612,-0.1036613
0.8232808,0.02541696,-0.1118209
0.7790277,0.02009397,-0.1000741
0.8811192,-0.03432557,-0.161774
1.116087,-0.1271449,-0.2638821
1.392434,-0.1940047,-0.343655
1.590396,-0.1652738,-0.3808456
1.723896,-0.1325346,-0.3732549
1.85997,-0.2496044,-0.337138
1.778908,-0.3358723,-0.2473269
1.640493,-0.273092,-0.2226947
1.559523,-0.1762317,-0.2367109
1.330586,-0.03907988,-0.193798
1.150813,0.06412926,-0.214689
0.9840514,0.0597462,-0.2056207
0.7841864,0.0457045,-0.1396229
0.7232273,0.02093867,-0.1290334
0.6305124,-0.05364038,-0.1032731
0.583192,-0.1041064,-0.1032706
0.6140764,-0.1044519,-0.1122207
0.5898754,-0.09667364,-0.09405851
0.62434,-0.07037129,-0.1130743
0.6523121,-0.03072576,-0.1027999
0.6931548,-0.01192601,-0.07704715
0.7631884,-0.02793548,-0.03932781
0.7552199,-0.07534118,0.02148629
0.7690069,-0.1170449,0.01630397
0.8057745,-0.1406441,-0.01784754
0.872985,-0.139144,-0.04155996
0.9672102,-0.1167522,-0.03869284
0.9865094,-0.07896126,-0.02407606
0.9934074,0.007399977,-0.07118087
1.042834,0.0814647,-0.1515712
1.151915,0.07018569,-0.2744099
1.377583,-0.02726031,-0.4858361
1.645646,-0.1398679,-0.685639
1.681744,-0.1010444,-0.6410313
1.579087,0.08250887,-0.4202541
1.673129,0.2195064,-0.3740569
1.666179,0.1928754,-0.4125216
1.484355,0.08208234,-0.4135418
1.394989,0.04140736,-0.4358047
1.210425,0.0254612,-0.3237942
0.975873,0.01275698,-0.1716765
0.7503069,0.04858759,-0.1191146
0.5840345,0.05058829,-0.1397709
0.612191,0.04295561,-0.1856174
0.5152387,0.03203566,-0.1598464
0.4511623,-0.01415053,-0.1769651
0.5902105,-0.03363605,-0.1850733
0.6365636,-0.04175291,-0.1272415
0.7515474,-0.01314562,-0.1188843
0.8516875,0.06004033,-0.09167857
0.7845557,0.1451877,-0.1528366
0.7147754,0.2369579,-0.2478658
0.5830928,0.2505614,-0.208252
0.5516075,0.2117959,-0.1531151
0.7026737,0.1490758,-0.1011725
0.8310118,0.03018618,-0.1200646
0.9093219,-0.06204705,-0.16837
0.9304127,-0.107426,-0.1443343
1.01389,-0.1378666,-0.1898877
1.239676,-0.144783,-0.2736692
1.446018,-0.1281801,-0.3345352
1.653986,-0.1410971,-0.3730313
1.908112,-0.2567771,-0.3519443
1.981203,-0.3953189,-0.3369352
1.814724,-0.3927842,-0.2917102
1.622295,-0.2569913,-0.2038499
1.439116,-0.1272655,-0.1788788
1.280338,-0.0111236,-0.2143401
1.176701,0.1017886,-0.2431645
1.013691,0.1173513,-0.1973733
0.9030102,0.06959462,-0.1346765
0.8319867,0.02226811,-0.1361506
0.6865165,-0.04067067,-0.1363754
0.635453,-0.08749111,-0.133907
0.5948243,-0.08460855,-0.1390045
0.5533686,-0.06260503,-0.1295584
0.6091034,-0.06146917,-0.1321806
0.6369506,-0.0698741,-0.1212702
0.7215962,-0.09037298,-0.09744165
0.8019862,-0.1261197,-0.06200719
0.7878707,-0.156257,-0.008897124
0.800437,-0.1608291,0.009322292
0.8028302,-0.1017165,0.00660047
0.8534667,-0.02005522,0.006412399
0.9582127,0.03965755,0.01364147
1.019489,0.08445719,0.03404205
1.043804,0.09812392,0.03765561
1.02134,0.1007916,0.02447187
1.04165,0.07147528,-0.02146986
1.16619,-0.04370079,-0.1632333
1.337311,-0.1685886,-0.4499397
1.441433,-0.1411669,-0.707738
1.476122,0.003212351,-0.6644185
1.585991,0.07485649,-0.5090007
1.48643,-0.2568414,-0.5891541
1.665644,-0.289373,-0.5638777
1.751516,-0.2295735,-0.447059
1.84086,-0.2214929,-0.4061728
1.656656,-0.2115519,-0.2431727
1.48633,-0.1912065,-0.1885912
1.572655,-0.2189311,-0.2922999
1.56156,-0.2135089,-0.2682192
1.437187,-0.1731232,-0.2863613
1.238752,-0.1216763,-0.3203595
0.9108116,-0.05342474,-0.1982983
0.6769121,-0.00360546,-0.08215707
0.5687483,0.03477504,-0.04765366
0.4817814,0.03489357,-0.06858748
0.4133151,0.01280756,-0.07039376
0.3896015,0.004163213,-0.0572574
0.4626745,-0.04271031,-0.07752671
0.5693095,-0.09272602,-0.059944
0.6690125,-0.1342552,-0.05278819
0.7574724,-0.1998408,-0.04464285
0.7896536,-0.2184459,-0.01711018
0.8391303,-0.171106,-0.05828276
0.9152389,-0.1016968,-0.09587009
0.9452625,-0.04142739,-0.1112318
0.9549769,-0.007876863,-0.1272595
0.9880365,-0.001156692,-0.1547224
1.091384,-0.02603897,-0.303257
1.274556,-0.05813064,-0.5407739
1.520337,-0.07030697,-0.6744462
1.731764,-0.05235569,-0.6178774
1.717743,0.005101414,-0.5218108
1.563813,0.08142121,-0.43688
1.457899,0.1115962,-0.3496988
1.368319,0.0686988,-0.4120275
1.264436,0.02849198,-0.459074
1.080252,0.01399795,-0.3449142
0.8331884,0.01103673,-0.2555041
0.6634418,0.04315285,-0.1715747
0.5430624,0.06386793,-0.116456
0.5038773,0.06165064,-0.1451452
0.5592915,0.03940433,-0.1479316
0.6019103,-0.02826101,-0.1509707
0.6883719,-0.08078872,-0.1383139
0.7662971,-0.09551853,-0.09623798
0.7384152,-0.06769248,-0.1112022
0.6753998,0.03489184,-0.1920625
0.6046562,0.1531797,-0.3137198
0.612236,0.1812585,-0.3441317
0.7176247,0.1288694,-0.2354981
0.8029141,0.1097806,-0.1511281
0.8380524,0.07600221,-0.152714
0.8244485,-0.04235852,-0.2010485
0.8493823,-0.2097526,-0.2849826
1.006408,-0.3919922,-0.3807184
1.301008,-0.4024529,-0.4190094
1.677664,-0.2470889,-0.413497
1.887702,-0.1449299,-0.448187
1.856357,-0.1274894,-0.4587079
1.773971,-0.1835456,-0.4356726
1.667827,-0.2239045,-0.4343127
1.514464,-0.253606,-0.359264
1.331762,-0.2977401,-0.2666699
1.139708,-0.2021859,-0.2466116
0.9277321,-0.07153349,-0.1922323
0.6901494,0.003507076,-0.1311182
0.5536239,0.0577172,-0.1213646
0.4769051,0.03600063,-0.08998925
0.416312,0.0001586694,-0.0637851
0.458258,-0.04461767,-0.08019275
0.4843735,-0.0864746,-0.08170514
0.5125629,-0.1138762,-0.07381402
0.5870936,-0.1745177,-0.06659872
0.6290816,-0.1785795,-0.04111202
0.7459691,-0.153507,-0.0507819
0.8955837,-0.1265382,-0.08985277
0.9972004,-0.0534776,-0.1322841
1.061551,-0.03239509,-0.1920201
1.042336,-0.05852666,-0.2344188
1.091026,-0.09818684,-0.33692
1.252784,-0.1666905,-0.5234699
1.445392,-0.1751178,-0.6270056
1.683645,-0.09432158,-0.6122124
1.773122,0.01311661,-0.5437995
1.65739,0.09924189,-0.4589773
1.554151,0.1222227,-0.4098406
1.446561,0.09156892,-0.4204333
1.295982,0.06159762,-0.4295775
1.175311,0.03549075,-0.3655317
0.9968945,0.01911706,-0.2879254
0.7622412,0.02510254,-0.2281589
0.5886896,0.02991684,-0.1623855
0.4833803,0.0500138,-0.1372876
0.4751597,0.05043858,-0.1412738
0.5304588,-0.001049647,-0.1436844
0.6213209,-0.04751136,-0.1368936
0.7989998,-0.07002169,-0.1348957
0.9036264,-0.03577435,-0.1774462
0.8474598,0.03459696,-0.2119386
0.7250936,0.143166,-0.1957674
0.5715003,0.3148932,-0.1619534
0.5404726,0.3347135,-0.1438999
0.6229608,0.2321375,-0.1409686
0.6469413,0.1983705,-0.1397062
0.7212371,0.07379951,-0.1727937
0.8011742,-0.07374325,-0.2248333
0.7993764,-0.1332043,-0.254212
0.9604208,-0.2587905,-0.2935066
1.277817,-0.2948812,-0.3557936
1.574113,-0.1801513,-0.3800885
1.769361,-0.1036142,-0.3516678
1.767707,-0.07337099,-0.3334194
1.632474,-0.1028684,-0.3271888
1.472249,-0.1311677,-0.3326935
1.418338,-0.1130659,-0.3473832
1.462249,-0.1272652,-0.3084383
1.360685,-0.1051472,-0.2484055
1.120411,-0.03198788,-0.194863
0.875828,0.03547896,-0.1267903
0.7085079,0.08961878,-0.09074147
0.6045794,0.1052298,-0.07970951
0.5207529,0.08712537,-0.07113035
0.6161047,0.00200329,-0.08572884
0.7245427,-0.1072505,-0.09289001
0.7018862,-0.1477352,-0.08673698
0.7704439,-0.1611417,-0.09464246
0.8166388,-0.1692024,-0.09825366
0.8142165,-0.1471259,-0.09869431
0.8418267,-0.1025422,-0.09878268
0.8110723,-0.06809374,-0.07678566
0.8346829,-0.04078892,-0.04520627
0.9088356,-0.006655964,-0.04221712
1.050633,-0.009359569,-0.1651664
1.286696,-0.01756863,-0.4568031
1.454324,-0.003594313,-0.7339011
1.56514,0.007146247,-0.7838768
1.565733,0.03113931,-0.6343055
1.468235,0.03396169,-0.4925624
1.435024,0.01906466,-0.4663911
1.438992,0.03099725,-0.5149516
1.444546,0.06354259,-0.5535586
1.360132,0.1118357,-0.501436
1.13738,0.1232619,-0.4067576
0.9064171,0.09008419,-0.3376077
0.7601197,0.06058972,-0.2910562
0.6493109,0.02657537,-0.2704301
0.5456084,0.02426653,-0.2527128
0.6044087,0.06049894,-0.2729967
0.7157571,0.07732757,-0.3121442
0.7866778,0.08740026,-0.3149241
0.9436879,0.08258522,-0.3438894
0.9521105,0.06763371,-0.349417
0.8595334,0.08624284,-0.3222063
0.8445176,0.09767388,-0.3207602
0.8026879,0.07814635,-0.2977992
0.9103664,-0.01305165,-0.3005681
1.050008,-0.1798641,-0.3130618
1.001661,-0.2456715,-0.2963351
0.9026764,-0.2155905,-0.3074982
0.8052524,-0.2334831,-0.3149517
0.8045577,-0.2007635,-0.3712675
0.8336109,-0.1176544,-0.5165421
0.8707874,-0.1527604,-0.5938012
1.132513,-0.2279893,-0.5044278
1.462753,-0.2590366,-0.3665779
1.574314,-0.2697845,-0.3415046
1.395238,-0.1713748,-0.4010042
1.154006,-0.03463024,-0.4371509
1.136323,0.004693042,-0.3847947
1.197318,-0.004306435,-0.3033416
1.190108,-0.0305942,-0.3040213
1.107239,-0.04853634,-0.2953691
0.9088584,-0.04989318,-0.2534528
0.7265491,-0.04415681,-0.2459342
0.6183811,-0.03186335,-0.2180251
0.5476331,-0.06436659,-0.1807008
0.5257121,-0.1127472,-0.1397142
0.5567423,-0.1459365,-0.108731
0.6636971,-0.1569474,-0.1128065
0.7351628,-0.1301261,-0.09649195
0.7187625,-0.1001976,-0.09639587
0.6964262,-0.06340691,-0.109688
0.6555629,-0.06675965,-0.09742026
0.6270132,-0.09061183,-0.09075331
0.6513939,-0.0429156,-0.04903165
0.7398288,-0.00223392,-0.001399915
0.8752637,0.002936705,-0.0255477
0.9689439,-0.01764006,-0.1044012
1.046742,-0.07966583,-0.2744502
1.19989,-0.1181882,-0.5579292
1.433223,-0.1378387,-0.7839194
1.680134,-0.1165653,-0.7907859
1.799911,-0.05135177,-0.6354858
1.673519,-0.005902159,-0.4233385
1.458972,0.08310625,-0.2551006
1.337793,0.1788735,-0.2460231
1.223862,0.2014443,-0.3053774
1.127829,0.1891251,-0.2981586
0.9527251,0.09516013,-0.2891608
0.6648422,-0.02161632,-0.2960452
0.6411109,-0.02833499,-0.2637729
0.6784573,-0.0322047,-0.1916359
0.5050322,-0.09375371,-0.1037788
0.5291984,-0.08056435,-0.1009205
0.6809029,-0.02259718,-0.1418387
0.7610007,-0.01370761,-0.1093761
0.8883895,0.005198546,-0.1305882
0.8419841,0.02763288,-0.2313187
0.7028217,0.08364539,-0.2876072
0.6802383,0.2030806,-0.252738
0.6135702,0.2530388,-0.1351898
0.6221736,0.2692586,-0.09378287
0.712627,0.2494478,-0.1693485
0.7848744,0.09068347,-0.2823695
0.9183856,-0.1171865,-0.4054413
1.010909,-0.3271228,-0.4098785
1.200677,-0.4130258,-0.3347215
1.508336,-0.3016633,-0.3165329
1.702903,-0.1840058,-0.3531347
1.825132,-0.1201817,-0.4055177
1.793542,-0.1663998,-0.3931572
1.655175,-0.2782794,-0.3602761
1.518364,-0.268685,-0.3243795
1.298919,-0.2500989,-0.2440576
1.110348,-0.2270075,-0.2207208
0.94661,-0.09998753,-0.2045373
0.7919413,-0.02444093,-0.1357084
0.7021767,0.0009959525,-0.1056259
0.6065069,0.01892593,-0.09294364
0.5755804,-0.02153304,-0.07466335
0.5838378,-0.05265189,-0.0691952
0.5818204,-0.07089177,-0.05537859
0.623569,-0.08381004,-0.04016932
0.6486863,-0.08163758,-0.02531659
0.6835524,-0.09767232,-0.005264584
0.7438164,-0.09528176,-0.003499857
0.8220909,-0.06789869,-0.03213273
0.9241067,-0.03338831,-0.07356104
0.9218118,-0.0060519,-0.09996535
0.8694614,0.004754165,-0.1002489
0.8837167,0.02397954,-0.08291694
0.9339713,0.005029237,-0.09915193
1.112856,-0.07670768,-0.2833328
1.415936,-0.165743,-0.614052
1.637631,-0.162078,-0.7644442
1.70431,0.001412896,-0.6492086
1.634753,0.2021535,-0.5540608
1.490902,0.2824854,-0.4798578
1.373521,0.2137474,-0.3698718
1.267525,0.1048457,-0.392818
1.169179,0.01994384,-0.3819471
1.060497,-0.06498983,-0.2594262
0.8797681,-0.05547847,-0.2559708
0.7220371,-0.01771935,-0.2563272
0.5996066,-0.03581164,-0.2029045
0.4934897,0.002003795,-0.161467
0.484554,0.01572366,-0.07309137
0.5104727,-0.007210591,-0.04685961
0.5875902,-0.0009765537,-0.05920671
0.7311521,0.001644048,-0.09179959
0.7873815,0.06483767,-0.2264922
0.7531926,0.1574573,-0.3101897
0.7125127,0.2361509,-0.2920815
0.6925642,0.2657046,-0.2124021
0.7039616,0.2019859,-0.1407102
0.7494542,0.09765247,-0.1966091
0.8114524,-0.1012497,-0.2860001
0.928514,-0.2988343,-0.3244119
1.19749,-0.3146811,-0.3425336
1.502384,-0.2358247,-0.3750623
1.631994,-0.1802869,-0.4379377
1.638777,-0.1662918,-0.5220785
1.701346,-0.1378523,-0.6263111
1.694224,-0.137706,-0.5990953
1.466303,-0.2235699,-0.4035499
1.309643,-0.2622152,-0.2822846
1.316292,-0.2123347,-0.266286
1.252231,-0.1166571,-0.2384452
1.153541,-0.0160197,-0.2266302
1.077237,0.0400281,-0.2576788
0.9190337,0.1089562,-0.2746392
0.7361715,0.1445095,-0.2611107
0.6674466,0.0691644,-0.2729682
0.5809079,-0.023328,-0.2664046
0.4862459,-0.08876358,-0.2061563
0.5530797,-0.1206898,-0.132902
0.6024327,-0.09326716,-0.0696683
0.6774495,-0.06590496,-0.08104405
0.8359207,-0.0673626,-0.1006553
0.8744481,-0.07970893,-0.08707002
0.8949715,-0.1176863,-0.1062255
0.8716526,-0.1491256,-0.08051138
0.8002416,-0.1594799,-0.0324291
0.8231325,-0.1634256,-0.01680469
0.8204601,-0.1184139,-0.01951975
0.8461963,-0.07019227,-0.1286904
0.9958719,-0.09558123,-0.4103896
1.284723,-0.1568565,-0.7836243
1.660739,-0.204448,-0.8992158
1.770435,-0.1740044,-0.6401375
1.530239,-0.003044882,-0.4081453
1.259268,0.2241375,-0.3905836
1.200981,0.3033466,-0.4934013
1.311907,0.2221187,-0.5775208
1.355099,0.1683429,-0.4930016
1.245783,0.09896958,-0.356753
1.063641,-0.02340413,-0.2860627
0.8916371,-0.01596764,-0.2483435
0.7673008,0.04437779,-0.2497506
0.7071686,0.04767911,-0.2215988
0.7038908,0.050503,-0.193741
0.7210683,-0.005534247,-0.2063105
0.7561628,-0.07042842,-0.1444566
0.75957,-0.07207834,-0.08371039
0.7344178,-0.0491114,-0.08698705
0.7211069,0.01683194,-0.09743097
0.6977479,0.08746421,-0.1382387
0.7279978,0.1271364,-0.1602452
0.7906746,0.1349008,-0.1644312
0.8114225,0.1166114,-0.1632706
0.8121241,0.1104835,-0.1383417
0.7934458,0.1174139,-0.1591426
0.7750057,0.1262973,-0.1981693
0.7212446,0.0618862,-0.3003666
0.6828824,-0.1309796,-0.4671875
0.8906562,-0.3809363,-0.4807528
1.340264,-0.4921361,-0.4293106
1.756049,-0.3447742,-0.4894886
1.889246,-0.1736109,-0.5213758
1.747929,-0.1355808,-0.4922441
1.59451,-0.1910561,-0.4804884
1.526054,-0.3058463,-0.4277571
1.414348,-0.3009013,-0.3381671
1.22187,-0.1899025,-0.2638211
0.9726228,-0.08061392,-0.1982177
0.752175,0.03417013,-0.1512618
0.6178211,0.05815712,-0.1150446
0.4896214,0.05573345,-0.09042263
0.4238689,0.06131078,-0.07809721
0.4286693,0.00869825,-0.06710586
0.4201193,-0.02784677,-0.07054539
0.4568668,-0.09506568,-0.05066782
0.4961289,-0.1632996,-0.006967613
0.5719389,-0.1720881,0.02603227
0.7777767,-0.1929636,0.04407238
0.9901234,-0.1581706,-0.001304752
1.134214,-0.07311555,-0.1109981
1.218573,-0.01102175,-0.2195424
1.215874,-0.005320868,-0.247777
1.067161,-0.09725075,-0.1893155
0.8734442,-0.1884485,-0.1731661
0.855572,-0.1946265,-0.2610237
1.091328,-0.1095355,-0.4543837
1.52224,-0.001865309,-0.6894438
1.81514,0.02204906,-0.7336609
1.752228,0.009997785,-0.5685834
1.501908,-0.008339827,-0.3921162
1.194056,-0.05457799,-0.2318986
1.015397,-0.0778456,-0.1599305
1.038327,-0.06491491,-0.2570558
1.036593,-0.04374622,-0.3643894
0.9560194,-0.0197363,-0.393415
0.8746302,0.01082028,-0.3301949
0.7594095,0.02430805,-0.1711739
0.6222144,0.01980022,-0.0570095
0.5225382,0.01213164,-0.01069645
0.4745006,-0.005676507,0.01477067
0.5139338,0.006846019,-0.00319153
0.6210553,0.06703444,-0.05526529
0.7337769,0.1381929,-0.1728384
0.8087765,0.1665616,-0.2694452
0.8280223,0.13364,-0.2517274
0.8670377,0.1115107,-0.2253138
0.8661673,0.08493852,-0.1951012
0.7990737,0.02712123,-0.1435163
0.790032,-0.01602953,-0.1518558
0.8045844,-0.1137528,-0.2140538
0.9655678,-0.2549506,-0.2981129
1.3773,-0.2983602,-0.3879332
1.800076,-0.2283859,-0.4398926
1.980053,-0.1749089,-0.4295655
1.80435,-0.2297262,-0.3847606
1.566723,-0.2624794,-0.3307736
1.437268,-0.2141157,-0.2603405
1.216506,-0.1924286,-0.2013237
1.106708,-0.1597957,-0.183851
1.073585,-0.108873,-0.1729077
0.8124536,-0.06841323,-0.1351136
0.5741148,-0.002270229,-0.08880091
0.5212972,0.00690303,-0.05586572
0.5260632,-0.03531052,-0.03018657
0.4769769,-0.0451327,0.00441329
0.4486776,-0.06877748,0.01345951
0.579413,-0.07167079,-0.03048871
0.6842884,-0.03063977,-0.05872944
0.7687347,-0.03315969,-0.06124324
0.8481605,-0.05294144,-0.05873566
0.8688411,-0.08445884,-0.04066212
0.9612586,-0.1421223,-0.06072339
0.9127337,-0.149183,-0.07858153
0.8616928,-0.1390337,-0.06191453
0.9825452,-0.150343,-0.107626
1.056082,-0.1426269,-0.3057437
1.289499,-0.09977959,-0.6533279
1.503667,-0.03498048,-0.8096998
1.574197,0.004258259,-0.6091868
1.729521,0.05079005,-0.437421
1.548496,0.07766484,-0.3473545
1.1571,0.02633258,-0.2125072
1.099409,0.01836558,-0.2329019
1.081807,0.04082259,-0.2754992
0.8979383,0.03312146,-0.1868437
0.83595,0.05472644,-0.1930881
0.8132297,0.06574443,-0.2198727
0.6280399,0.07974571,-0.1775927
0.5426712,0.09957435,-0.1869716
0.6047813,0.06418583,-0.1749696
0.6551322,0.03197381,-0.1645561
0.794874,0.01866857,-0.1711542
0.9069649,0.02964717,-0.1459471
0.8541962,0.1027273,-0.2014207
0.7454372,0.1941551,-0.2638481
0.5999153,0.2373931,-0.2425407
0.5206981,0.1984577,-0.1974946
0.6047005,0.1466363,-0.1438437
0.7170026,0.08476302,-0.1432522
0.8420802,-0.1045815,-0.2147144
1.004042,-0.3519204,-0.3237063
1.17975,-0.4288042,-0.4091934
1.449986,-0.3033607,-0.4019832
1.665003,-0.2079711,-0.3822951
1.711494,-0.1934429,-0.3960022
1.703782,-0.2038431,-0.3837372
1.606639,-0.2814727,-0.366602
1.47642,-0.2643003,-0.3416921
1.304976,-0.1790464,-0.2527182
1.038189,-0.1368095,-0.1799446
0.8835102,-0.03534561,-0.1850367
0.82381,-0.0002700513,-0.1686885
0.7833791,-0.00149671,-0.1268165
0.7884698,0.03672787,-0.1134198
0.7538918,0.002359509,-0.09907542
0.7120801,-0.0129749,-0.1109437
0.6628291,-0.03301071,-0.137484
0.6115341,-0.06017255,-0.1144734
0.6203196,-0.04244577,-0.09187174
0.6320788,-0.06897153,-0.07923101
0.6840013,-0.09794601,-0.04477325
0.7704305,-0.1293333,-0.02673366
0.7855756,-0.1317316,-0.03542788
0.7864386,-0.09111466,-0.08498962
0.842003,-0.1018681,-0.1567809
0.9001416,-0.09906454,-0.199795
1.029861,-0.09281189,-0.3035419
1.425988,-0.1013918,-0.589893
1.805594,-0.06919185,-0.8392035
1.795003,-0.007140183,-0.7300833
1.770368,0.1023752,-0.536068
1.751871,0.1432896,-0.4487708
1.408332,0.08303938,-0.268341
1.242935,0.06273034,-0.2650963
1.265654,0.04228709,-0.3583174
1.082849,0.02155476,-0.2252815
0.9780708,0.04042913,-0.1932678
0.8088889,0.01856529,-0.1969048
0.5762428,-0.02253692,-0.1341613
0.5648814,-0.05628166,-0.177317
0.529634,-0.08670745,-0.1619388
0.5810378,-0.07711624,-0.1878279
0.7173072,-0.06285149,-0.2386738
0.7815956,-0.02783391,-0.1835019
0.8947615,0.07140186,-0.1827164
0.8723065,0.1745383,-0.1786607
0.7617295,0.2442824,-0.2098433
0.6558315,0.2620796,-0.2598683
0.5706465,0.222529,-0.1787029
0.6710313,0.1654258,-0.09815956
0.7633426,0.09219301,-0.07965695
0.8077179,0.008891242,-0.1100932
0.8413836,-0.06338845,-0.1557003
0.809798,-0.1399634,-0.1968086
0.9148017,-0.1999542,-0.2702
1.151063,-0.1948988,-0.3097289
1.448723,-0.1374465,-0.3343149
1.744039,-0.08870164,-0.3705949
1.876292,-0.1024345,-0.3821455
1.864724,-0.1649227,-0.3565579
1.701269,-0.1978024,-0.2718547
1.450186,-0.1561034,-0.1802571
1.270134,-0.0649001,-0.140778
1.146693,0.02107635,-0.154518
0.9908332,0.08964401,-0.1428711
0.7877424,0.1441149,-0.09403285
0.6591662,0.1319732,-0.0885928
0.5617238,0.06883773,-0.06518142
0.4645044,0.01470842,-0.04635222
0.540053,-0.05170112,-0.08818716
0.630215,-0.1214383,-0.09245819
0.6765745,-0.1510452,-0.06049943
0.8123603,-0.1419137,-0.02354474
0.8699655,-0.1149117,0.0002254646
0.9102906,-0.07301528,-0.005785771
0.9993229,-0.01143657,-0.001946893
1.011348,0.02513499,-0.003950024
1.049974,0.02325996,0.00541513
1.074708,0.03422461,0.03218729
1.04446,0.07326075,0.03123581
1.053617,0.09880737,-0.00555318
1.051292,0.05535613,-0.1675255
1.081114,-0.01336479,-0.4502471
1.247235,-0.05458048,-0.6410096
1.562391,-0.1306662,-0.6669435
1.804872,-0.2197552,-0.645681
1.453031,-0.07898144,-0.7825068
1.803246,-0.1453444,-0.8027009
1.89731,-0.1406221,-0.6701344
1.640434,-0.02554997,-0.5008007
1.354833,0.1347141,-0.3072206
1.272363,0.2336467,-0.2413267
1.2272,0.2282322,-0.3259367
1.149579,0.179618,-0.3273338
0.9967472,0.1062818,-0.2826049
0.7130702,-0.04326297,-0.2511278
0.4580638,-0.1201045,-0.163955
0.3756199,-0.09046539,-0.1301626
0.3499706,-0.1177034,-0.1305002
0.3144451,-0.1357479,-0.09868043
0.4459187,-0.1069219,-0.1047312
0.6389717,-0.08300338,-0.1063528
0.7285682,0.000247598,-0.1462347
0.7684866,0.1176338,-0.2853489
0.7108013,0.2031234,-0.386978
0.670084,0.2489894,-0.3708736
0.6574282,0.2239079,-0.2805469
0.6053789,0.107766,-0.2107611
0.71536,-0.1200632,-0.2052492
1.031871,-0.3959817,-0.2594917
1.535423,-0.4883641,-0.4409436
1.937887,-0.326429,-0.6950424
1.945023,-0.2038641,-0.7739308
1.849113,-0.2937554,-0.6469583
1.659094,-0.3404125,-0.5202132
1.289016,-0.2411552,-0.3470643
1.077867,-0.1666309,-0.1565954
1.001712,-0.06766133,-0.1675126
0.8318031,0.03283358,-0.1873083
0.6615566,0.03993762,-0.128192
0.5443553,0.06598775,-0.1143202
0.4270508,0.06295345,-0.08076019
0.4018179,0.01053606,-0.09975999
0.4412146,-0.02383766,-0.1268254
0.457728,-0.09989157,-0.09959802
0.5465822,-0.1793721,-0.1024889
0.6712444,-0.2592929,-0.06737978
0.7930069,-0.298526,-0.06629063
0.9895798,-0.2551517,-0.1280384
1.12343,-0.2252063,-0.156072
1.058004,-0.1094302,-0.1742983
0.9435477,0.04491058,-0.2037681
0.9419309,0.04300387,-0.323941
1.131203,-0.04857679,-0.4918583
1.545027,-0.1780859,-0.6353005
1.879738,-0.2336206,-0.7812001
1.901934,-0.1027498,-0.7950412
1.761801,0.08191056,-0.6485119
1.531164,0.2063823,-0.4556266
1.318425,0.222092,-0.3129982
1.144098,0.1310034,-0.2779755
0.9302663,0.009115902,-0.2466041
0.7782484,-0.09175643,-0.214915
0.6331101,-0.1408468,-0.2343448
0.5202862,-0.1354641,-0.2273951
0.5059848,-0.0998611,-0.2074886
0.4906339,-0.06844829,-0.2005889
0.5224626,-0.05780162,-0.1885567
0.5773967,-0.0556679,-0.1824781
0.6445125,-0.02758081,-0.1625048
0.7470915,0.05523303,-0.162687
0.7784693,0.1502578,-0.2403944
0.7327717,0.2170304,-0.3288866
0.6669384,0.2512845,-0.3213912
0.6621772,0.2428539,-0.2270011
0.6612845,0.2225055,-0.1305971
0.6398498,0.1757775,-0.105342
0.7267268,-0.04776991,-0.2044803
0.7956706,-0.3752792,-0.3252368
0.8336399,-0.4367333,-0.3328393
1.087964,-0.2907961,-0.3734784
1.651829,-0.2032305,-0.5590091
2.092807,-0.09741841,-0.6858454
1.885574,-0.1613779,-0.6000047
1.580774,-0.4123464,-0.4156119
1.558527,-0.4150225,-0.2907215
1.341093,-0.289224,-0.2478781
1.097927,-0.1742144,-0.2338249
0.9503755,0.0009645109,-0.2254283
0.7565431,0.0470157,-0.2423831
0.6485508,0.04928046,-0.1941988
0.523703,0.03489708,-0.05999385
0.4938371,-0.05467237,-0.01961643
0.5291585,-0.07290549,-0.03568941
0.4714316,-0.08916403,-0.05361613
0.4894632,-0.07581115,-0.103473
0.4661883,-0.02501802,-0.07980938
0.4821828,-0.04446584,-0.05779383
0.6268707,-0.06251189,-0.0734296
0.7594926,-0.1122535,-0.09134466
0.9416392,-0.1477201,-0.1748593
1.031412,-0.1268531,-0.2363177
1.075687,-0.1474607,-0.300839
1.186315,-0.1713004,-0.4576837
1.307931,-0.1906689,-0.6774899
1.54414,-0.173921,-0.8589482
1.734404,-0.09394851,-0.8083281
1.77225,0.007289932,-0.6398091
1.685298,0.1318671,-0.5373665
1.463839,0.2020791,-0.4171754
1.292746,0.2340377,-0.3311575
1.175769,0.2582271,-0.3171251
1.071777,0.2012964,-0.2978153
0.9889638,0.1466245,-0.2897907
0.8546122,0.1114179,-0.2757731
0.7420563,0.06509632,-0.2590911
0.6660189,0.07848269,-0.2393221
0.6108987,0.09120606,-0.208035
0.6161513,0.09413946,-0.209755
0.655141,0.1175373,-0.1843218
0.7278381,0.1124853,-0.1520033
0.7868829,0.1322428,-0.175255
0.8048763,0.1800334,-0.1909819
0.8240278,0.2214503,-0.2099162
0.8413224,0.2440907,-0.2182852
0.8516039,0.2020919,-0.1929105
0.8387158,0.1371982,-0.1859624
0.8009374,0.04103444,-0.1929158
0.7269532,-0.1184802,-0.2232933
0.6196059,-0.2773735,-0.2746706
0.6225063,-0.3932822,-0.3013866
0.8884912,-0.4062627,-0.3239473
1.366312,-0.267442,-0.4145906
1.738155,-0.02982561,-0.6095444
1.784177,0.0924619,-0.7741206
1.683599,-0.0771383,-0.7184912
1.594367,-0.3274839,-0.5779086
1.502728,-0.4401408,-0.5167481
1.450852,-0.4494521,-0.3777358
1.355694,-0.2963161,-0.2678796
1.131759,-0.03387699,-0.32441
0.9413965,0.1016256,-0.3090829
0.8248401,0.1054614,-0.2808514
0.7238615,0.06620868,-0.2910921
0.6565548,-0.02912255,-0.2125953
0.5496365,-0.1546251,-0.1596344
0.517653,-0.2175581,-0.1266171
0.5842026,-0.2073556,-0.1039116
0.5218519,-0.1950997,-0.09632216
0.4852272,-0.1412847,-0.05293003
0.5029013,-0.02745923,-0.05375482
0.435469,0.09836696,-0.04372683
0.5018814,0.1509719,-0.03437018
0.7214315,0.04518954,-0.07689013
0.9652542,-0.01998019,-0.1074577
1.097263,-0.005166492,-0.1640572
1.076011,-0.06982163,-0.1746272
1.076194,-0.1160651,-0.08182496
0.9511995,-0.1574309,0.01604532
0.7658922,-0.1931129,-0.01189289
0.814408,-0.1973658,-0.3018204
1.067799,-0.2693265,-0.7330433
1.563018,-0.2997024,-0.9703567
1.939109,-0.2624793,-0.9039785
1.810366,-0.1457767,-0.7395402
1.496058,0.09327544,-0.5386061
1.212551,0.2418357,-0.3423209
1.084227,0.2390315,-0.3577012
1.129873,0.1746572,-0.390978
1.01271,0.08253611,-0.3212107
0.799844,-0.03636854,-0.320697
0.6993208,-0.1662682,-0.2654239
0.588187,-0.129708,-0.1874503
0.5357579,0.00885519,-0.1850359
0.5747082,0.02632912,-0.1624717
0.6056408,0.04656197,-0.1626601
0.7208738,0.07240499,-0.1583349
0.8399946,0.02558609,-0.140514
0.8693378,0.04217593,-0.1622435
0.8611548,0.04844454,-0.1720338
0.7765438,0.05960853,-0.1853401
0.6579662,0.1693885,-0.2218257
0.5796162,0.2120327,-0.2597353
0.6014638,0.1868723,-0.2689894
0.6712222,0.1041679,-0.2682901
0.7352457,-0.08810499,-0.3167275
0.9711578,-0.2953628,-0.3782111
1.344917,-0.3889653,-0.4403131
1.646914,-0.2698898,-0.5209555
1.738363,-0.1026238,-0.5592009
1.627201,-0.03567162,-0.4555185
1.482915,-0.05548508,-0.3034093
1.330115,-0.1524092,-0.3219857
1.308871,-0.1976059,-0.3489844
1.359289,-0.197862,-0.268575
1.123544,-0.1420968,-0.2710916
0.7766822,-0.009253447,-0.2494107
0.4736272,0.03617607,-0.1539125
0.2547626,0.06142686,-0.09939221
0.2847638,0.09183065,-0.04350264
0.3836102,0.05912214,-0.02494125
0.5717946,0.03403897,-0.01306213
0.8539368,-0.04060934,-0.03774216
1.008035,-0.1634231,-0.1780477
1.081817,-0.2597226,-0.2590866
1.040637,-0.2717757,-0.2749069
0.9259105,-0.199561,-0.2825113
0.8373463,-0.1770375,-0.2866195
0.823865,-0.1398634,-0.4256316
1.055289,-0.03719672,-0.638823
1.485417,0.00620677,-0.7673593
1.91547,-0.01174382,-0.7638338
1.941839,-0.03192677,-0.7004302
1.548754,0.0136493,-0.5640912
1.257132,0.08543297,-0.2798095
1.090135,0.1289002,-0.1988159
1.047655,0.1564807,-0.3369082
1.044404,0.09821033,-0.3175283
0.8458878,0.02269906,-0.3157249
0.7189801,-0.008684039,-0.3186243
0.6061251,-0.03297748,-0.1923278
0.4850682,-0.01014175,-0.1333239
0.5475962,0.02346422,-0.05325602
0.5895382,0.08959754,-0.002937239
0.6626272,0.1864582,-0.1027876
0.7190013,0.2284255,-0.1959957
0.6665765,0.2537194,-0.2743517
0.7045539,0.2384271,-0.2688265
0.7230475,0.175041,-0.2041166
0.6944746,0.08989578,-0.2266696
0.6787629,-0.04292379,-0.2545078
0.662318,-0.1618581,-0.3105573
0.8236925,-0.2569623,-0.3830538
1.225633,-0.2732106,-0.4034737
1.664545,-0.1236931,-0.4679729
1.798711,0.03529583,-0.5170104
1.679831,0.06017775,-0.5011703
1.618242,0.0162053,-0.4762665
1.463933,-0.02561025,-0.3902066
1.216165,-0.08718411,-0.2415749
1.184044,-0.1028138,-0.1602981
1.238238,2.850846e-05,-0.2406157
1.170758,0.1036882,-0.3335603
1.01715,0.1588728,-0.3249803
0.8019073,0.1664245,-0.2961156
0.6742713,0.1198813,-0.2314851
0.6714136,0.05392745,-0.1366818
0.6042192,-0.07166117,-0.05053041
0.5930556,-0.1175469,-0.0328518
0.7221351,-0.05289512,-0.09119252
0.7728461,-0.0725929,-0.06335034
0.782043,-0.07450733,-0.04323336
0.8390644,-0.05510891,-0.06634905
0.8989363,-0.1081012,-0.01158177
0.933549,-0.1181815,-0.02902779
0.8651393,-0.09902667,-0.048845
0.782009,-0.05033773,-0.01475745
0.7649239,0.01038515,-0.05999966
0.8242366,-0.008137737,-0.1604246
1.052899,-0.04361438,-0.4526269
1.381025,-0.1284101,-0.7964629
1.726046,-0.2538621,-0.8221603
1.852914,-0.1990802,-0.672731
1.595325,0.04907486,-0.5735474
1.360131,0.3058531,-0.5353841
1.33273,0.421562,-0.5401021
1.320664,0.336098,-0.518202
1.207776,0.1760342,-0.4058478
0.983918,0.01962162,-0.2786249
0.812119,-0.1095472,-0.2399769
0.7047013,-0.1142807,-0.22436
0.6696879,-0.07315375,-0.2092476
0.7427328,0.01596705,-0.2534101
0.7432754,0.1345772,-0.2821987
0.7488572,0.1194627,-0.2419733
0.7990533,0.09063295,-0.1853497
0.7617156,0.04706994,-0.131225
0.7489659,-0.02650849,-0.1027196
0.7217445,-0.008809055,-0.128579
0.6887042,0.003827979,-0.1618943
0.7616406,0.05957042,-0.1825046
0.8096673,0.1601995,-0.184244
0.8497376,0.2181468,-0.167036
0.8715489,0.2445617,-0.1911281
0.8029968,0.179027,-0.247099
0.7214708,0.05818498,-0.3520908
0.6688183,-0.1714599,-0.5087734
0.8435135,-0.4706765,-0.5730263
1.271774,-0.5636135,-0.549104
1.672119,-0.4051406,-0.5419081
1.868359,-0.1922544,-0.5143526
1.773185,-0.1542157,-0.4206244
1.535767,-0.2331726,-0.344769
1.38767,-0.2792541,-0.3718105
1.430504,-0.3047238,-0.392572
1.520698,-0.2724465,-0.3486947
1.325916,-0.2116088,-0.3248707
0.9756881,-0.1001713,-0.2715999
0.6367834,0.05662104,-0.1920817
0.3805571,0.09732136,-0.1686363
0.4389894,0.0610299,-0.1484342
0.4741871,0.03172842,-0.1219415
0.4130418,-0.006607742,-0.111394
0.5416289,-0.0419333,-0.08489764
0.5972862,-0.05746831,-0.05036584
0.6536107,-0.06709663,-0.03726011
0.76999,-0.09574291,-0.06178592
0.7782765,-0.1055176,-0.07173028
0.8962773,-0.1055624,-0.0360879
1.038555,-0.109131,-0.02850369
1.078668,-0.09504205,-0.09128837
1.07779,-0.1019207,-0.1842098
1.013161,-0.1176143,-0.2483666
1.0117,-0.1473241,-0.3795379
1.151099,-0.1745182,-0.6540981
1.480701,-0.137807,-0.8335698
1.825338,-0.0932987,-0.7849614
1.8368,-0.05694414,-0.6192679
1.551975,-0.01327872,-0.3918815
1.194285,0.007125106,-0.2559956
1.002218,0.04255613,-0.2993041
0.9870466,0.1099205,-0.3214518
0.9217634,0.1360148,-0.2847149
0.8007223,0.09272222,-0.2803113
0.6822078,0.04529607,-0.2298728
0.5594882,-0.003959755,-0.1568689
0.4546957,-0.06230383,-0.108799
0.456904,-0.04728141,-0.0651557
0.6002053,0.01824472,-0.07176904
0.6990955,0.07479463,-0.07460813
0.6920691,0.1509194,-0.1258472
0.6679807,0.22453,-0.2836433
0.6486916,0.2408158,-0.337062
0.6313229,0.1748807,-0.2662567
0.5928668,0.05345786,-0.2039755
0.6095762,-0.0725495,-0.1802931
0.7578734,-0.2044419,-0.2165459
1.102096,-0.3231903,-0.2962242
1.620124,-0.3523181,-0.4381487
1.94923,-0.2417467,-0.6016669
1.95494,-0.1116575,-0.6410005
1.871824,-0.122366,-0.5295142
1.699482,-0.1695542,-0.3856995
1.389406,-0.1601382,-0.3079684
1.156742,-0.1501665,-0.2867191
1.063233,-0.09502105,-0.2870491
0.9128686,-0.01669229,-0.2601038
0.7684542,0.004998866,-0.1995192
0.6170974,0.009327152,-0.1142867
0.3420879,0.02763899,0.01182853
0.3151953,0.01971747,0.03668248
0.4533055,-0.04825722,-0.03101582
0.3892094,-0.1072279,-0.01539473
0.4408515,-0.1071208,-0.01187918
0.6087875,-0.1292053,-0.04409021
0.7214865,-0.2055298,-0.03705888
0.8572979,-0.2409205,-0.07129109
0.883193,-0.1797365,-0.1393318
0.9641711,-0.09119955,-0.2375477
1.043893,-0.02911054,-0.298848
0.9219755,-0.01005381,-0.2332254
0.9447421,-0.01674351,-0.2282012
1.039802,-0.02949387,-0.3432621
1.22077,-0.1049206,-0.5090326
1.694977,-0.1512996,-0.7064369
1.977578,-0.104037,-0.7835837
1.89996,-0.04168601,-0.7368035
1.622236,0.08947236,-0.56736
1.207496,0.2088076,-0.2609217
0.9182667,0.2384795,-0.1148718
0.8083414,0.25229,-0.1558614
0.7399432,0.1806345,-0.1613875
0.6701381,0.06164496,-0.1978677
0.6561408,-0.03884597,-0.2553446
0.6778923,-0.1283031,-0.2311283
0.7148208,-0.1399925,-0.178936
0.8301555,-0.1172185,-0.1194808
0.8753973,-0.04544668,-0.101062
0.8018207,0.1194746,-0.170638
0.6849645,0.2632039,-0.2412043
0.5237012,0.3093205,-0.2627214
0.4426525,0.2682547,-0.2256538
0.4679202,0.1951838,-0.1471679
0.5238465,0.09036207,-0.1153439
0.6722931,-0.08668238,-0.1870438
1.016345,-0.3495183,-0.3292759
1.39144,-0.5576683,-0.4237597
1.552269,-0.4459682,-0.4642211
1.673256,-0.2025911,-0.5201915
1.808255,-0.09437432,-0.4967624
1.737031,-0.05011008,-0.3994453
1.5913,-0.1733254,-0.3263697
1.421383,-0.3231627,-0.2184942
1.13061,-0.280039,-0.1302261
0.8863882,-0.1921225,-0.1421037
0.6802352,-0.01866458,-0.1482752
0.5252328,0.1252854,-0.1315258
0.5454212,0.1142652,-0.1176182
0.6098976,0.1047998,-0.08307685
0.7609034,0.0184323,-0.07774706
0.9616089,-0.09902803,-0.1081345
0.9912956,-0.1537043,-0.1270954
0.9137711,-0.1872359,-0.1088696
0.7860424,-0.1734063,-0.07142173
0.662013,-0.1711948,-0.07080979
0.6060051,-0.1397932,-0.1081149
0.6125423,-0.08789686,-0.1830319
0.6954992,-0.0618989,-0.2860989
0.8308257,-0.01980316,-0.411316
1.107212,-0.04901075,-0.5918855
1.57426,-0.1284483,-0.7451836
1.979647,-0.1794887,-0.776325
1.909584,-0.1162566,-0.6404121
1.532289,0.06031655,-0.3840523
1.353219,0.1482183,-0.2725125
1.172303,0.1836101,-0.3320445
0.9633606,0.2072669,-0.3060277
0.8943313,0.1277447,-0.2001122
0.7597513,0.01162795,-0.1278095
0.7190452,-0.08489963,-0.1094159
0.751794,-0.1169164,-0.1633505
0.7681714,-0.09451925,-0.2134885
0.8475329,-0.04792699,-0.2099675
0.7578469,0.06064479,-0.2017795
0.5900782,0.1904102,-0.1950303
0.4394157,0.3014671,-0.1987879
0.3420925,0.336946,-0.2043905
0.4513623,0.2560212,-0.1811963
0.5752422,0.0919179,-0.1733078
0.7270777,-0.1711703,-0.2219217
0.9583995,-0.4385226,-0.3369095
1.22133,-0.5034173,-0.4593624
1.562341,-0.3223971,-0.4878527
1.752295,-0.08128197,-0.4579108
1.792825,-0.01039556,-0.4104134
1.782935,-0.129828,-0.3353563
1.586721,-0.2596307,-0.3014677
1.334535,-0.2667697,-0.2699346
1.159555,-0.179232,-0.1810667
1.048188,-0.06783073,-0.159832
0.9164641,0.02856286,-0.1873276
0.6978878,0.08546018,-0.1368863
0.5793327,0.07873537,-0.05019038
0.5115417,0.01139213,0.03755324
0.4320767,-0.04034315,0.06173039
0.5341056,-0.0732992,-0.02463885
0.6692101,-0.1234015,-0.1050818
0.8100397,-0.1384096,-0.1333821
1.023938,-0.133948,-0.1279316
1.093441,-0.1239206,-0.117859
1.15016,-0.06579629,-0.1237022
1.254504,0.02334856,-0.08868722
1.137739,0.1108102,-0.04907593
0.9215374,0.1879165,-0.05245019
0.6601463,-0.003073239,-0.1371139
0.628139,0.004310372,-0.1730942
0.6307977,-0.01176331,-0.09242745
0.7433198,-0.04105451,-0.03037386
0.8671976,-0.08302575,-0.08493242
0.9454328,-0.1634219,-0.1487217
1.00263,-0.3218363,-0.1846684
1.124967,-0.5160469,-0.1461383
1.34153,-0.5906863,-0.08538948
1.489125,-0.506426,-0.09086021
1.624747,-0.4634969,-0.06108683
1.713479,-0.5551851,0.003301832
1.668124,-0.5967202,-0.001596655
1.680499,-0.5034203,-0.04490667
1.591576,-0.3876154,-0.07901837
1.302874,-0.3060455,-0.06911598
1.07473,-0.2483142,-0.02731681
0.9052616,-0.1962016,-0.02807274
0.771977,-0.1418341,-0.02862224
0.7002581,-0.1007759,-0.01339025
0.6246136,-0.09108771,-0.00973238
0.5579769,-0.1241248,0.01237279
0.4973019,-0.1666485,-0.00318572
0.4688177,-0.1817261,-0.02909067
0.5245252,-0.1815513,-0.01367199
0.6294913,-0.2027237,0.009499682
0.736755,-0.2526551,0.08077132
0.776596,-0.2654261,0.1397235
0.7326981,-0.2135543,0.1220405
0.7227977,-0.1455073,0.09058954
0.7978716,-0.1097161,0.04811126
0.8903476,-0.1298911,0.009138672
0.9489488,-0.1594669,0.01686
0.9643994,-0.2080777,0.01025616
0.9850975,-0.299458,-0.08322105
1.081987,-0.328716,-0.1795901
1.384609,-0.3654592,-0.2218917
1.770031,-0.4744089,-0.2752779
1.737786,-0.443513,-0.2848536
1.541388,-0.3256668,-0.2470278
1.658099,-0.271453,-0.2675813
1.623948,-0.2178431,-0.2756779
1.411438,-0.2577516,-0.2335597
1.216995,-0.3188681,-0.1761575
0.9436514,-0.2713597,-0.08618292
0.9192668,-0.257982,-0.08045253
0.8154316,-0.2029347,-0.1158076
0.5516487,-0.09446897,-0.07047071
0.6385197,-0.06072286,-0.07955821
0.6496272,-0.03494238,-0.08716549
0.6480091,-0.05862211,-0.05570904
0.8453064,-0.1125232,-0.08629948
0.8555715,-0.1193831,-0.06796272
0.8570554,-0.1027436,-0.05627064
0.8361425,-0.05222968,-0.09026296
0.7341636,-0.04071514,-0.1013584
0.6859214,-0.0382447,-0.1466166
0.6307016,-0.01451553,-0.1290035
0.7182834,-0.03588387,-0.07399422
0.8287963,-0.02134187,-0.08495751
0.8755824,-0.0180989,-0.1281727
0.9991716,-0.1177129,-0.2185531
1.153485,-0.3041335,-0.2291143
1.314254,-0.5398546,-0.1385415
1.344033,-0.6197194,-0.09041473
1.385768,-0.5182764,-0.07215229
1.565198,-0.4716171,-0.06527449
1.624987,-0.5132489,-0.05260573
1.648077,-0.5203039,-0.06564051
1.626491,-0.4945139,-0.1022024
1.423149,-0.4759977,-0.06706381
1.168037,-0.3930091,-0.04645201
0.9405087,-0.2902455,-0.06684357
0.8057955,-0.2636875,-0.05069994
0.6823054,-0.2313167,-0.03470914
0.5510103,-0.1745355,-0.0126796
0.519058,-0.1424878,0.008232926
0.4946103,-0.1340163,0.009502723
0.5146326,-0.1320935,0.01516753
0.571664,-0.1176425,0.01317906
0.5929922,-0.1338341,0.01670987
0.6558197,-0.1909538,0.02603869
0.6754182,-0.2541749,0.03406518
0.6703393,-0.2984482,0.04218248
0.723841,-0.3082499,0.02884281
0.781705,-0.3036495,0.02541186
0.876722,-0.264948,0.05163085
0.94389,-0.2044093,0.0573939
1.007002,-0.1892087,-0.01749459
1.238983,-0.2438355,-0.1508183
1.500157,-0.3392154,-0.238355
1.599693,-0.3976862,-0.266527
1.620228,-0.4245439,-0.264727
1.648315,-0.4324278,-0.2392195
1.653057,-0.3800391,-0.2317808
1.576374,-0.3077897,-0.2206478
1.363634,-0.2343907,-0.1932214
1.110421,-0.1775422,-0.171329
0.981718,-0.1458819,-0.1251002
0.9106186,-0.1029527,-0.1040806
0.7835496,-0.08378228,-0.1210689
0.666467,-0.06485157,-0.1088834
0.6241118,-0.04541813,-0.09344102
0.6266351,-0.07836976,-0.07301396
0.6520844,-0.09419765,-0.04156733
0.7220679,-0.0871547,-0.01700402
0.7964142,-0.08663447,0.02378104
0.7778017,-0.04190394,0.01671396
0.7204132,0.04273481,-0.05149186
0.7140533,0.1052246,-0.1238899
0.6762739,0.0991489,-0.1834404
0.6484957,0.04402328,-0.1289503
0.7098839,-0.03972584,-0.02083256
0.7587072,-0.1320675,-0.02257113
0.8355793,-0.2144276,-0.06519582
0.9964435,-0.3415244,-0.1182401
1.193786,-0.465811,-0.1727101
1.381566,-0.4893904,-0.1707857
1.477153,-0.4801479,-0.1552964
1.541994,-0.5314357,-0.1059322
1.596025,-0.603013,-0.05480987
1.600974,-0.5909539,-0.05860663
1.606281,-0.5032107,-0.04832901
1.511845,-0.3850999,-0.01146785
1.290614,-0.2281617,0.02488856
1.053094,-0.08498515,-0.0002683537
0.8716592,0.0173666,-0.06056385
0.7925571,0.05418318,-0.06523898
0.7495879,-0.009814258,-0.07314869
0.708628,-0.1114394,-0.06846811
0.6588738,-0.2483127,-0.03963762
0.6019336,-0.3461634,-0.04562753
0.6012131,-0.2914257,-0.01680242
0.6098713,-0.2236492,0.04436055
0.6469466,-0.1750306,0.08222923
0.7445408,-0.1150772,0.09407352
0.8096475,-0.1680365,0.07435911
0.8601317,-0.240554,0.06726212
0.8898733,-0.2642583,0.08789158
0.8600233,-0.304505,0.1189986
0.8802142,-0.2857085,0.1286899
1.049355,-0.284121,0.03300817
1.330196,-0.3779468,-0.1551602
1.474151,-0.4449507,-0.2768786
1.35205,-0.4491598,-0.2358247
1.288814,-0.4177328,-0.1267554
1.409109,-0.3695302,-0.07813104
1.507482,-0.2735359,-0.1380266
1.588663,-0.1961917,-0.218784
1.567682,-0.2445219,-0.1808783
1.411994,-0.2593036,-0.1339574
1.309056,-0.2291392,-0.1496904
1.121541,-0.2393424,-0.1173319
0.8805102,-0.1914687,-0.1097408
0.8630871,-0.1523737,-0.1345858
0.8497388,-0.1081977,-0.1564404
0.6990873,-0.01137118,-0.221071
0.7064122,-0.03551459,-0.2149958
0.803909,-0.1446757,-0.1584659
0.7601611,-0.2135603,-0.1063805
0.7508873,-0.2230423,-0.03680603
0.7331678,-0.1394811,-0.05186733
0.6393549,-0.04424776,-0.07172798
0.7068069,-0.01246303,-0.05524023
0.7741741,-0.01559738,-0.1004961
0.7669263,-0.03615714,-0.1101336
0.7967737,-0.05503339,-0.07999249
0.7727678,-0.06425904,-0.06793362
0.8052973,-0.0290616,-0.04949034
0.866558,0.05375941,-0.1004839
0.8652386,0.0756231,-0.1920583
0.8415047,-0.02210354,-0.229812
0.8144108,-0.2510107,-0.2675586
0.9793817,-0.5578842,-0.2812436
1.243808,-0.7166238,-0.1920669
1.348626,-0.6298849,-0.07551714
1.37925,-0.4985441,-0.035597
1.508436,-0.4652638,-0.07111872
1.761548,-0.5214387,-0.1113423
1.869381,-0.6235595,-0.1164304
1.645396,-0.607345,-0.07066772
1.304615,-0.4758997,-0.0007136382
1.058806,-0.3504999,-0.01833883
0.9297769,-0.1741879,-0.07448922
0.8522966,-0.06182441,-0.06672166
0.7585368,-0.05569926,-0.05487589
0.6637135,-0.05565127,-0.02044172
0.6072476,-0.1204866,0.009269296
0.5326159,-0.1718043,-0.01622663
0.4511109,-0.2094211,-0.005468277
0.4704788,-0.2283811,0.01031528
0.5580612,-0.1694027,0.02988314
0.6589002,-0.1592634,0.08393673
0.761378,-0.1268343,0.08784665
0.8269398,-0.1085542,0.07543422
0.8513849,-0.1877127,0.07903245
0.8437295,-0.2360325,0.08003561
0.8508742,-0.2950829,0.08301243
0.9072137,-0.326697,0.04739303
1.035719,-0.3510853,-0.03461824
1.269463,-0.4354421,-0.1314545
1.452527,-0.4383695,-0.2180188
1.493394,-0.3815948,-0.2834205
1.579071,-0.3236957,-0.240498
1.686704,-0.3038861,-0.1364296
1.650636,-0.3133451,-0.1745599
1.528799,-0.2584665,-0.1876016
1.353378,-0.2100842,-0.1110742
1.158166,-0.1576394,-0.1475559
1.02826,-0.09223612,-0.1356992
0.9648454,-0.095831,-0.08480799
0.9404039,-0.1058462,-0.1239994
0.7683181,-0.0960074,-0.1098306
0.5054727,-0.07529457,-0.09964329
0.4914386,-0.05463214,-0.1096269
0.5911828,-0.06372007,-0.07487823
0.6520515,-0.0750572,-0.04418678
0.7584223,-0.07970745,-0.004575263
0.7483403,-0.06776775,-0.02093939
0.6799178,-0.0288528,-0.07121242
0.7169569,0.02233197,-0.0894524
0.6712697,0.05235,-0.118882
0.5923107,0.05366623,-0.1159713
0.6517424,0.03672523,-0.09458226
0.75537,-0.07789503,-0.08557476
0.9680174,-0.3185582,-0.08605016
1.255066,-0.5668168,-0.1101915
1.415449,-0.628279,-0.1046338
1.55821,-0.454212,-0.0931406
1.744745,-0.3231981,-0.07208059
1.877361,-0.3707738,-0.0261845
1.882278,-0.4132505,-0.04345873
1.696644,-0.4295046,-0.0538683
1.398533,-0.4652525,-0.001360582
1.119894,-0.3802862,0.02861975
0.9306577,-0.2027308,0.02958614
0.7637675,-0.1021191,0.02259386
0.6068318,-0.03870261,0.02671
0.5693393,-0.01456201,0.03947962
0.5826138,-0.08105223,0.04909441
0.5814314,-0.1433903,0.06851611
0.5670977,-0.1728745,0.06171064
0.5288305,-0.1675243,0.04614916
0.5228297,-0.1571112,0.057936
0.5718434,-0.1977389,0.0580856
0.6792119,-0.2257783,0.05284264
0.7632686,-0.2285345,0.04518561
0.7786139,-0.2167098,0.006761552
0.8576365,-0.2125523,-0.06534732
1.091057,-0.2985544,-0.1682051
1.468137,-0.4160331,-0.2829952
1.776899,-0.4520297,-0.3599845
1.802958,-0.4116111,-0.2756193
1.696134,-0.3579292,-0.1205763
1.640229,-0.2761706,-0.1584684
1.582364,-0.1587279,-0.2159922
1.444961,-0.09768966,-0.1542377
1.255791,-0.08696369,-0.1309934
1.084618,-0.1024021,-0.0770434
0.9570082,-0.1348248,-0.08626858
0.8558683,-0.1261969,-0.1716791
0.7777116,-0.1082759,-0.115997
0.7294093,-0.0745298,-0.08194546
0.70169,-0.03672282,-0.06871451
0.7189835,-0.03167992,-0.01824105
0.7854632,0.01459076,-0.0545553
0.8335676,0.05187088,-0.05336812
0.8478156,0.03187393,-0.06218411
0.8558122,0.0130623,-0.09769554
0.8705812,-0.01242382,-0.07130191
0.8917827,-0.02274796,-0.09198354
0.8914389,-0.01024621,-0.09262899
0.888611,-0.006667942,-0.09025292
0.9001159,-0.002251895,-0.1403227
0.8920925,-0.004896995,-0.1371021
0.8606629,-0.02790323,-0.1094237
0.7941478,-0.05486742,-0.06341045
0.7325892,-0.07653876,-0.05359715
0.7487926,-0.1415258,-0.1288118
0.8062966,-0.3081785,-0.1857867
0.9540448,-0.514584,-0.1854255
1.218038,-0.5880184,-0.1257091
1.336195,-0.4961932,-0.08466278
1.321738,-0.4319296,-0.1095045
1.48852,-0.4614844,-0.1415749
1.703487,-0.4881082,-0.1896116
1.724756,-0.5296558,-0.2111889
1.604583,-0.5605679,-0.1483541
1.417673,-0.4878847,-0.05747253
1.269587,-0.3607892,-0.03463139
1.180611,-0.2342975,-0.07728735
1.100621,-0.1558103,-0.1039076
1.021544,-0.1572988,-0.1212648
0.8921439,-0.1556501,-0.1295479
0.7530444,-0.158372,-0.1124273
0.6320572,-0.2011765,-0.09561625
0.5417017,-0.2336844,-0.05870981
0.5374912,-0.2468009,-0.009670347
0.5433394,-0.2086046,0.009950245
0.5569164,-0.1429368,0.009517217
0.6006999,-0.121277,0.02814855
0.6021736,-0.1149192,0.04653103
0.6004367,-0.1167442,0.03332018
0.6511722,-0.1295747,0.04384661
0.7624936,-0.1533975,0.08378814
0.9043659,-0.2043757,0.114108
1.028355,-0.2215294,0.131246
1.108771,-0.1949096,0.1329204
1.071797,-0.1751903,0.1412566
0.9934366,-0.1751942,0.1259159
1.041874,-0.2664372,0.03133232
1.205439,-0.4579305,-0.1428065
1.418405,-0.5715987,-0.3030653
1.493585,-0.5309361,-0.2897131
1.38423,-0.4560722,-0.1611561
1.40592,-0.3906595,-0.1072796
1.547157,-0.3348679,-0.1907722
1.594023,-0.3315641,-0.3369318
1.484394,-0.3362441,-0.3501703
1.184363,-0.3508897,-0.2177783
0.9406059,-0.3824154,-0.1018971
0.8334097,-0.3083491,-0.07524823
0.7378863,-0.1737199,-0.118321
0.7365314,-0.09564044,-0.1208751
0.7687488,-0.04537232,-0.11501
0.7922456,-0.02949103,-0.1369241
0.791398,-0.03794537,-0.1058344
0.722552,-0.0458465,-0.09013504
0.6694607,-0.06192841,-0.04311138
0.6325612,-0.04167127,0.05313601
0.6816027,-0.01117481,0.05905012
0.763754,-0.01584811,0.02335073
0.7584419,-0.0171104,-0.02192116
0.7649394,-0.008225784,-0.08732124
0.7464782,-0.008556364,-0.1465219
0.6814694,-0.02786154,-0.1541795
0.6336768,-0.07722516,-0.110093
0.6550665,-0.1787009,-0.1324344
0.7643107,-0.3101907,-0.1315081
0.9491809,-0.4058633,-0.08247761
1.311338,-0.522378,-0.08910377
1.549492,-0.6104687,-0.05887706
1.536789,-0.5258887,-0.0294293
1.718753,-0.4884828,0.02509883
1.8489,-0.5661249,0.1172828
1.717408,-0.5391992,0.06930873
1.642266,-0.474568,0.01501703
1.442077,-0.350337,0.01324192
1.164082,-0.1776239,-0.0380669
1.058154,-0.143677,-0.009504317
0.9142806,-0.148814,0.056154
0.7199659,-0.1466996,0.03602933
0.5635594,-0.1468047,0.03310134
0.4884755,-0.1197288,0.05349639
0.5244222,-0.1300178,0.03358997
0.5005175,-0.1240422,0.03914932
0.4992135,-0.1203278,0.05393006
0.5816522,-0.1465972,0.05188208
0.6197013,-0.1792597,0.07516158
0.7031184,-0.2545204,0.07520714
0.7760273,-0.2818844,0.07048455
0.8072931,-0.2532828,0.08012603
0.878053,-0.2331848,0.06885091
0.902175,-0.2068135,0.06954689
1.006693,-0.2127083,0.03559015
1.268679,-0.2781492,-0.0639643
1.502733,-0.3777506,-0.1733499
1.589789,-0.4076264,-0.2335665
1.546049,-0.3068221,-0.2212895
1.552561,-0.1974297,-0.2154866
1.598878,-0.1787159,-0.2241988
1.53516,-0.2030177,-0.215728
1.396172,-0.2189649,-0.217771
1.206267,-0.2343919,-0.1911365
1.068397,-0.1921607,-0.1282505
0.9840768,-0.08734785,-0.08307198
0.8375465,-0.04202944,-0.08361818
0.7596729,-0.0569854,-0.1078368
0.6970225,-0.06987123,-0.1141495
0.6142621,-0.08713536,-0.125418
0.6854289,-0.1123243,-0.1277981
0.7487963,-0.1311849,-0.09665832
0.8058251,-0.120852,-0.06061694
0.8870777,-0.07830728,-0.02232392
0.7898964,-0.004262221,-0.04353041
0.709421,0.06999883,-0.1296117
0.687631,0.09983367,-0.1895018
0.6322576,0.08648906,-0.1999538
0.660729,-0.003749514,-0.148662
0.6571362,-0.1240852,-0.1051324
0.6838781,-0.2070122,-0.1056355
0.8437861,-0.3560656,-0.07502287
1.006499,-0.4893406,-0.06759207
1.189781,-0.4580912,-0.0829563
1.382085,-0.4286865,-0.06748013
1.575608,-0.4350889,-0.06585627
1.785286,-0.4267937,-0.03617192
1.893717,-0.5279771,0.00750617
1.822625,-0.6123523,-0.008568867
1.61507,-0.5309241,-0.02118348
1.336527,-0.379896,-0.008733419
1.063694,-0.2077457,-0.01396264
0.9209716,-0.07617536,-0.01361828
0.801973,-0.04700446,-0.003015857
0.6481486,-0.07020922,-0.003771962
0.6011725,-0.09921595,0.002399748
0.5454809,-0.14867,0.01166283
0.5126273,-0.1948573,0.01488024
0.5541384,-0.1870473,0.02313109
0.539704,-0.1667749,0.02402251
0.5775157,-0.13787,0.03786656
0.6384203,-0.1112845,0.07321996
0.6912044,-0.1426709,0.08771426
0.7682576,-0.1849297,0.07796349
0.7630939,-0.2219918,0.06043553
0.791417,-0.250494,0.02922639
0.8938903,-0.2742595,-0.02075053
1.027456,-0.3424295,-0.08172834
1.286904,-0.4208813,-0.1986844
1.609704,-0.4683131,-0.3396602
1.765781,-0.4412327,-0.3210628
1.706483,-0.3722779,-0.2349417
1.704734,-0.3539446,-0.2547625
1.682221,-0.3225798,-0.2379395
1.436094,-0.2751132,-0.1990123
1.226336,-0.2452931,-0.1847418
1.078737,-0.1771863,-0.09933083
0.9570651,-0.1293499,-0.07306723
0.914234,-0.1195677,-0.1021345
0.7940941,-0.1192368,-0.09318764
0.6930492,-0.1625681,-0.1105572
0.6595547,-0.2178849,-0.09702599
0.6308766,-0.2450207,-0.05104571
0.6617869,-0.197003,-0.003711576
0.6629928,-0.08946984,0.033587
0.6797171,0.009717618,-0.01814085
0.7434117,0.1046223,-0.101039
0.7562266,0.1392163,-0.1619668
0.7583118,0.10473,-0.1703547
0.7514277,0.02824676,-0.1183934
0.7550273,-0.1467672,-0.1001118
0.7944618,-0.357107,-0.0828359
0.901727,-0.5221863,-0.0548714
1.125073,-0.5822906,-0.06696609
1.329363,-0.4765083,-0.08343592
1.511976,-0.3947003,-0.08989105
1.752468,-0.4792939,-0.03726827
1.85338,-0.5779045,0.04296851
1.744511,-0.6032937,0.02942649
1.59043,-0.5234586,-0.02601563
1.364694,-0.3279406,-0.04547187
1.085099,-0.1800864,-0.03554994
0.9665468,-0.1256279,-0.01654618
0.9170355,-0.09821613,-0.02086955
0.7404662,-0.08441088,-0.01253028
0.5586297,-0.03965302,0.0179614
0.5606388,-0.05362576,0.02404512
0.6554385,-0.1489611,0.04307605
0.6127862,-0.1885383,0.07108276
0.5632901,-0.1852198,0.04809843
0.5451714,-0.1712108,0.01102209
0.4595685,-0.1678302,0.003475676
0.5622936,-0.1681424,0.0121314
0.7464654,-0.1625515,0.03474312
0.8541753,-0.2223271,0.0722019
0.9669833,-0.2649217,0.1031901
0.9421892,-0.2516144,0.1062312
0.9397993,-0.2429998,0.05109576
1.06802,-0.2301352,-0.06289469
1.263272,-0.260043,-0.1511626
1.524408,-0.3332352,-0.1849086
1.592589,-0.3962448,-0.2069172
1.581582,-0.3651033,-0.2079086
1.695611,-0.2680348,-0.2190163
1.706675,-0.2308276,-0.2504133
1.485433,-0.1820613,-0.2135776
1.126006,-0.1560071,-0.1260371
0.93795,-0.1910309,-0.07358061
0.9482518,-0.1813257,-0.07724018
0.8387535,-0.2025134,-0.1264568
0.6802487,-0.2252409,-0.1576323
0.6265241,-0.1954625,-0.1396785
0.5991128,-0.1851048,-0.1022536
0.6063572,-0.1401281,-0.05365145
0.6780656,-0.06785714,-0.02514538
0.7685554,-0.02620116,-0.02254355
0.8439036,-0.03270173,-0.03727484
0.8601592,-0.07167834,-0.09638436
0.7984985,-0.08327624,-0.142222
0.7430767,-0.08816643,-0.1136632
0.7779894,-0.07006588,-0.07213705
0.8640214,-0.02499668,-0.07640634
0.9256245,-0.01930294,-0.1091734
0.9461706,-0.05995109,-0.1307243
0.9355334,-0.1828944,-0.09670199
0.9643808,-0.3568966,-0.03999597
1.059173,-0.4442694,-0.04865963
1.225176,-0.4190922,-0.07382245
1.503202,-0.4075834,-0.07576365
1.636082,-0.4540215,-0.0933006
1.593822,-0.487983,-0.08991045
1.696723,-0.5629339,-0.09452144
1.705183,-0.612039,-0.1167479
1.49128,-0.5620767,-0.08521035
1.259692,-0.571239,-0.03126285
0.9773084,-0.530231,0.004809565
0.8856983,-0.3680607,-0.001670129
0.90125,-0.2572032,-0.02482086
0.770524,-0.1857079,-0.01703853
0.7975374,-0.1659005,-0.02849686
0.812496,-0.1859439,-0.02383725
0.7325161,-0.2107497,0.01397443
0.9283041,-0.1799079,0.004445042
0.9490781,-0.2020109,0.01798168
0.935608,-0.2684279,-0.004448043
0.9740672,-0.3487598,-0.05927832
1.050654,-0.3864735,-0.1211011
1.289116,-0.3989067,-0.2062061
1.527068,-0.3861986,-0.2826757
1.502494,-0.3605774,-0.2764633
1.498027,-0.1675901,-0.2187326
1.746052,0.0526492,-0.2291064
1.806089,-0.00882985,-0.2427319
1.647939,-0.1313166,-0.2276201
1.566807,-0.1735916,-0.2388986
1.297233,-0.2621687,-0.1511095
1.022737,-0.2712378,-0.0426322
0.9313886,-0.1821397,-0.06712815
0.7428717,-0.1419523,-0.1174506
0.6126762,-0.09602573,-0.1443304
0.5453981,-0.08028815,-0.1448734
0.4951818,-0.1283842,-0.1141369
0.5431618,-0.1217835,-0.06423272
0.583667,-0.09992771,0.01516516
0.6837869,-0.04090002,0.05701197
0.7232743,0.06290759,0.003386337
0.6704455,0.1208543,-0.1093372
0.6982008,0.1503163,-0.1938694
0.6923566,0.08856372,-0.2027448
0.6756031,-0.03719117,-0.1519714
0.7097164,-0.1695018,-0.1127329
0.8263081,-0.3685766,-0.1278338
1.114434,-0.5658806,-0.119011
1.394346,-0.6261065,-0.09265065
1.556333,-0.4572175,-0.07968523
1.71243,-0.2890747,-0.02971829
1.852813,-0.3707164,0.004235672
1.882608,-0.4855027,-0.02485241
1.838189,-0.5428812,-0.06303553
1.729824,-0.5699293,-0.05672283
1.410273,-0.4566234,-0.03656072
1.032344,-0.3205954,-0.02267238
0.844228,-0.2084953,0.03307742
0.6430497,-0.07650041,0.0684233
0.4441184,-0.05832567,0.05511253
0.4515084,-0.09131229,0.0527637
0.4151059,-0.09272793,0.04752507
0.3670628,-0.1341304,0.04749861
0.4542782,-0.1429521,0.05320266
0.4589646,-0.1293224,0.05893218
0.4920097,-0.153237,0.07852654
0.5857429,-0.1589876,0.09383733
0.6667076,-0.1919796,0.1088469
0.8316075,-0.2252829,0.09540539
0.9133621,-0.1953048,0.04650779
0.9943445,-0.1919362,-0.0003002986
1.123122,-0.2256635,-0.06598541
1.166749,-0.312075,-0.1323794
1.298625,-0.459842,-0.1908767
1.455586,-0.4907015,-0.2591761
1.606849,-0.3843792,-0.2597952
1.718468,-0.2921358,-0.2226702
1.604191,-0.2241844,-0.2242804
1.498512,-0.179658,-0.1855807
1.433289,-0.1873757,-0.1395721
1.259398,-0.2009934,-0.1297263
1.093344,-0.2025598,-0.08926911
0.9671996,-0.1960367,-0.0916025
0.8546154,-0.1580281,-0.1200668
0.6723208,-0.1005678,-0.1047391
0.5340395,-0.06319401,-0.1108341
0.5961839,-0.0695762,-0.09149613
0.6579072,-0.07888702,-0.02900175
0.7324265,-0.05999398,0.01506806
0.8483105,-0.05082788,0.01740132
0.8200709,-0.03107349,-0.05195513
0.7702215,0.005095305,-0.1267203
0.7531966,0.009323576,-0.1561853
0.6985302,-0.007553779,-0.1496416
0.7031273,-0.05016962,-0.119709
0.759837,-0.1486744,-0.1125475
0.8879338,-0.336631,-0.1186807
1.097563,-0.5794468,-0.1266848
1.226143,-0.669597,-0.1157286
1.292339,-0.5230441,-0.07527307
1.468024,-0.3745414,-0.0405901
1.711924,-0.3806286,-0.01624377
1.823127,-0.4183955,-0.05618924
1.763893,-0.4401407,-0.1059465
1.56584,-0.4719741,-0.06431903
1.199877,-0.4120036,-0.0208034
0.8551092,-0.2718232,-0.004350244
0.65553,-0.1347989,-0.001151663
0.4831767,-0.01730581,-0.01530499
0.4175085,0.02622168,0.01189981
0.4646916,0.01413585,0.04305604
0.4787388,-0.01784557,0.05784866
0.5242893,-0.08497603,0.07819273
0.5821714,-0.1381301,0.06111764
0.6067739,-0.1546033,0.0365931
0.7029888,-0.1889294,0.02649121
0.8334723,-0.2627806,-0.001760548
0.9274078,-0.3248543,-0.02169503
0.9749039,-0.3592545,-0.0331035
0.9896272,-0.3770198,-0.0827337
1.084768,-0.3652128,-0.1650188
1.238963,-0.3650041,-0.2516582
1.335215,-0.3869222,-0.3406749
1.501956,-0.4326498,-0.3663532
1.790084,-0.5017889,-0.3024419
1.870088,-0.4655161,-0.2147451
1.603443,-0.2661377,-0.07150211
1.289795,0.004924294,0.02950229
1.135033,0.1775694,-0.01216625
1.062935,0.1424303,-0.05931413
0.9867688,0.03366739,-0.1435513
0.9076226,-0.08306446,-0.212799
0.80098,-0.2000551,-0.1565164
0.6788729,-0.1981722,-0.1317803
0.6249861,-0.1414181,-0.08506626
0.6326454,-0.08366646,-0.02042698
0.6880252,0.03059799,-0.08197246
0.7994601,0.1396483,-0.1389353
0.8850296,0.1483419,-0.1501318
0.8978713,0.06038901,-0.1392888
0.8857486,0.01388153,-0.09862543
0.8931948,-0.03599685,-0.08526783
0.910845,-0.1162216,-0.05666357
0.930496,-0.06534072,-0.0293804
0.949623,-0.04099146,-0.06221144
0.9665672,-0.1063104,-0.1560685
1.047703,-0.1775304,-0.3007802
1.149951,-0.3392244,-0.3310508
1.175604,-0.5225898,-0.1855614
1.206519,-0.6868834,-0.05545845
1.232443,-0.6707219,-0.02332858
1.252547,-0.4606009,-0.08754689
1.453222,-0.4273757,-0.2139248
1.646616,-0.487084,-0.2730331
1.537783,-0.5730147,-0.2143701
1.342077,-0.7422215,-0.09699736
1.223791,-0.7069291,-0.04460296
1.085082,-0.5404056,-0.06783784
0.9215261,-0.3730539,-0.05720127
0.808337,-0.2103497,-0.03446531
0.8068628,-0.1740027,-0.02513409
0.7634518,-0.1276536,-0.01956676
0.6245724,-0.1076325,-0.03145348
0.548377,-0.1883619,-0.02814791
0.4472369,-0.2101722,0.002576962
0.3641747,-0.2035758,0.04740974
0.3811993,-0.1461151,0.06495036
0.3855201,-0.04487544,0.06203875
0.4902774,-0.01075716,0.06984657
0.6922651,-0.02313763,0.05642567
0.9012014,-0.09762373,0.04816058
1.092639,-0.2021609,0.04738047
1.141829,-0.2570417,0.03269177
1.116301,-0.2609302,0.03052511
1.091715,-0.2853065,-0.001687214
1.108815,-0.3898634,-0.126991
1.263153,-0.5040602,-0.347104
1.468617,-0.5735177,-0.469377
1.555477,-0.5877065,-0.304209
1.514414,-0.5728382,-0.1220063
1.508952,-0.4995384,-0.1507937
1.489924,-0.2893896,-0.1667386
1.389732,-0.150912,-0.135125
1.270946,-0.2024653,-0.1591605
1.065572,-0.2504673,-0.1314819
0.9066451,-0.2559522,-0.0967512
0.8003774,-0.2479276,-0.1087227
0.6297623,-0.1851548,-0.08414211
0.5634759,-0.08824967,-0.05871198
0.5709319,-0.0101332,-0.03607511
0.6079795,0.02390845,-0.002335027
0.6719737,0.02844549,0.0145015
0.6499332,0.01754564,0.02109977
0.622496,-0.009226893,-0.02092823
0.6083025,-0.03764436,-0.09494282
0.5980689,-0.04310238,-0.1429328
0.6466062,-0.08058107,-0.1571806
0.7609597,-0.2333092,-0.152762
0.9963313,-0.4456378,-0.1479148
1.278217,-0.5844328,-0.09104531
1.537875,-0.5696348,-0.01753931
1.807522,-0.4681805,-0.03639213
1.950462,-0.4033315,-0.06488815
1.878813,-0.3794849,-0.04963475
1.726241,-0.3824915,-0.06173268
1.521985,-0.3974639,-0.04299488
1.19303,-0.3901369,0.01651107
0.8872717,-0.3386135,0.02325264
0.7417832,-0.2018689,0.003134172
0.6203765,-0.06522262,-0.003861657
0.4970403,-0.0195187,0.0216978
0.5125336,-0.01125846,0.06568866
0.5724082,-0.03209343,0.06760997
0.5796334,-0.08088953,0.07146439
0.6231792,-0.1387467,0.08606736
0.6483452,-0.2031355,0.07905981
0.6755715,-0.2473565,0.08283686
0.7630694,-0.2746563,0.07949273
0.8108295,-0.2787542,0.06495209
0.9081395,-0.2740679,0.02789166
1.070386,-0.3088252,-0.07301414
1.225583,-0.3789244,-0.2187138
1.415897,-0.4425365,-0.3424207
1.568973,-0.4466284,-0.3334509
1.700567,-0.4146516,-0.2411975
1.767951,-0.3784988,-0.2036285
1.644977,-0.2800728,-0.1516371
1.452652,-0.160644,-0.06763135
1.280379,-0.1148403,-0.04678139
1.111046,-0.1096585,-0.06286355
0.963344,-0.1099458,-0.07832135
0.8505258,-0.1298188,-0.105126
0.7501431,-0.1461127,-0.1438322
0.6338843,-0.1319109,-0.1566198
0.554651,-0.1020513,-0.1358661
0.5986491,-0.06939204,-0.1125504
0.7238534,-0.01884797,-0.04409681
0.7820028,0.03013814,0.02534965
0.7640498,0.04717707,0.001134244
0.7126313,0.07616641,-0.05030295
0.6476312,0.1176923,-0.09094578
0.64309,0.1012451,-0.1541988
0.6614055,0.04730141,-0.1974674
0.726478,-0.08808295,-0.1796636
0.8738527,-0.350232,-0.1455801
0.9592267,-0.4819031,-0.1369201
1.014115,-0.4756655,-0.112994
1.14637,-0.5844493,-0.03465759
1.250142,-0.5821926,0.03547349
1.358631,-0.4134055,-0.008102593
1.63237,-0.3821946,-0.1004299
1.755009,-0.399302,-0.108074
1.537222,-0.3907051,-0.08128536
1.401376,-0.3656091,-0.0567295
1.356644,-0.2600393,-0.02662441
1.248976,-0.1972893,-0.0213717
1.166945,-0.1794033,-0.003936949
0.9964128,-0.1790222,-0.002512812
0.8245991,-0.1930799,-0.03051002
0.7161137,-0.175476,-0.03946764
0.6085464,-0.2098694,-0.04839059
0.6096142,-0.2345993,-0.02317366
0.6253263,-0.229628,0.02738245
0.6370999,-0.2417621,0.06078926
0.6969571,-0.1991638,0.087879
0.7188078,-0.1688227,0.08913851
0.7429303,-0.1672857,0.09761273
0.7637126,-0.1989206,0.1087238
0.7751605,-0.2716796,0.1121366
0.7944745,-0.3004299,0.1470505
0.7916172,-0.3315038,0.1412424
0.8246223,-0.3554559,0.06256602
0.9508652,-0.3934263,-0.06043195
1.236699,-0.5286287,-0.221837
1.579702,-0.6617963,-0.3265154
1.725271,-0.7011889,-0.282359
1.687855,-0.575743,-0.1769871
1.586234,-0.3205426,-0.1440915
1.448248,-0.1197754,-0.1353049
1.343922,-0.07031358,-0.1211077
1.291609,-0.1607749,-0.1334152
1.226351,-0.2467674,-0.1251084
1.121978,-0.2544007,-0.1342444
0.9710528,-0.2449512,-0.1500209
0.7971663,-0.1772851,-0.1320876
0.6737445,-0.07108046,-0.1327853
0.6212446,-0.01816571,-0.1272828
0.6367296,-0.03875324,-0.1311129
0.7119523,-0.1193327,-0.1425334
0.8050451,-0.2068003,-0.1153696
0.872979,-0.2604467,-0.08201971
0.8653017,-0.2415789,-0.05337656
0.8029718,-0.1723169,-0.06411213
0.7320464,-0.1078178,-0.08089915
0.6862152,-0.06086707,-0.05366293
0.7057481,-0.06952453,-0.04065434
0.7220862,-0.07076186,-0.03576789
0.719445,-0.06161945,-0.06906394
0.7291159,-0.1225787,-0.1898308
0.7442726,-0.2220993,-0.3190524
0.8870601,-0.4283211,-0.3361928
1.129949,-0.686921,-0.1744564
1.2893,-0.7384331,0.01346847
1.4345,-0.5406252,0.03260156
1.633403,-0.3390754,-0.03411792
1.70135,-0.3669452,-0.0615357
1.63316,-0.508639,-0.07488367
1.580965,-0.6151148,-0.05920885
1.415885,-0.648916,0.01304915
1.15681,-0.5081758,0.0532317
0.9959827,-0.3024498,0.02105738
0.8066918,-0.1333745,-0.02870202
0.5846639,0.01532428,-0.05634609
0.4450808,0.06374986,-0.03694728
0.3576385,0.04436754,0.004580875
0.3675239,-0.0007069952,0.03936841
0.4404962,-0.07633734,0.07569711
0.5238161,-0.1309127,0.09580873
0.6180104,-0.1693452,0.09093437
0.7014009,-0.2312191,0.08466589
0.8246752,-0.3266676,0.08948109
0.9318271,-0.3793555,0.08466203
0.9812952,-0.3700776,0.04874748
1.071745,-0.3903602,-0.02588202
1.205818,-0.4186706,-0.1147478
1.372654,-0.4066252,-0.1863847
1.532982,-0.3758841,-0.263921
1.587671,-0.3345439,-0.2768505
1.635219,-0.2802303,-0.2107323
1.719024,-0.2443393,-0.2030925
1.59512,-0.2553178,-0.1670122
1.284076,-0.2481271,-0.0870043
1.074375,-0.1876955,-0.09267667
0.9663711,-0.120539,-0.08178536
0.8505082,-0.06420004,-0.0808494
0.7623966,-0.05030635,-0.1304869
0.7420314,-0.07766697,-0.1432924
0.7404579,-0.1041434,-0.168338
0.7447613,-0.1804123,-0.1371269
0.7855991,-0.2698905,-0.01958974
0.7545121,-0.2067153,0.0682271
0.684826,-0.0610541,0.06440117
0.6879291,0.04015938,-0.05111595
0.6982093,0.1532604,-0.1554657
0.7301255,0.1787684,-0.186136
0.7463611,0.04578536,-0.1574765
0.7444409,-0.08082817,-0.09534661
0.7982805,-0.1681214,-0.09054391
0.9069272,-0.337277,-0.0841096
1.144508,-0.5991581,-0.07286793
1.292504,-0.6731218,-0.08596693
1.294214,-0.4969043,-0.07141724
1.504296,-0.4188461,-0.07408189
1.698642,-0.4218802,-0.05926588
1.700477,-0.4952104,-0.02587724
1.797729,-0.6735576,-0.01263373
1.774954,-0.6146015,0.001889814
1.443394,-0.4751948,0.003818982
1.146345,-0.4217126,0.03303277
0.9854973,-0.2719542,0.02260829
0.8093246,-0.1897619,-0.01720274
0.6297288,-0.1521797,0.02188093
0.5424735,-0.126295,0.03795429
0.5281208,-0.1637208,0.0402477
0.4997728,-0.1283303,0.05173122
0.5008204,-0.128219,0.01932896
0.5169955,-0.1244421,0.01148698
0.5457353,-0.0713781,0.01393836
0.6658299,-0.1051263,0.03037922
0.7608966,-0.1627068,0.0616178
0.8132478,-0.2658331,0.04984146
0.8523103,-0.3351579,0.05650936
0.8415613,-0.3027022,0.08595507
0.8616998,-0.2891491,0.08930807
0.9070304,-0.265575,0.05586162
1.053922,-0.3062215,-0.03004466
1.317626,-0.4048725,-0.1607162
1.505156,-0.4184898,-0.3112232
1.629343,-0.4055673,-0.3578777
1.725962,-0.3846469,-0.2803897
1.743073,-0.3589928,-0.2406237
1.64725,-0.3469538,-0.2151776
1.374837,-0.2791744,-0.1605445
1.075162,-0.1663236,-0.1511194
0.9631096,-0.08860123,-0.1398258
0.8923029,-0.06898158,-0.1270467
0.7777007,-0.08742233,-0.1535689
0.7720184,-0.1496912,-0.1602934
0.7293132,-0.2066547,-0.1483113
0.6625032,-0.2136254,-0.1280798
0.7753709,-0.2031538,-0.08160734
0.8220626,-0.1556315,-0.02838689
0.7384809,-0.0708749,-0.00886801
0.6474985,0.05018097,-0.06024943
0.5307944,0.1762075,-0.1384734
0.5471626,0.193387,-0.1941079
0.6440345,0.08823031,-0.2148908
0.702024,-0.1179019,-0.2044991
0.8115586,-0.3825293,-0.1981826
1.001468,-0.6211771,-0.1517114
1.264892,-0.7041168,-0.08180633
1.445675,-0.5369446,-0.08379748
1.58421,-0.4080281,-0.088282
1.853762,-0.5259107,-0.06979688
1.948057,-0.6202201,-0.1079718
1.734569,-0.5882125,-0.1356019
1.476531,-0.5206769,-0.08284517
1.230503,-0.3578322,-0.01852975
1.035712,-0.1718236,-0.001704538
0.9258175,-0.08608856,-0.01743921
0.767586,-0.02760409,-0.03060105
0.6076935,0.005262275,-0.03324408
0.5650111,-0.04112025,-0.02897114
0.5300983,-0.1087715,-0.004439557
0.4754644,-0.1553796,0.02475118
0.4933606,-0.1763187,0.04226805
0.5049328,-0.1800349,0.0637331
0.5145497,-0.1780711,0.06782862
0.6263712,-0.1964024,0.04613433
0.7422195,-0.2381158,0.03157442
0.8146998,-0.2583417,0.02502939
0.8813646,-0.2665776,0.007710165
0.9462518,-0.2888149,-0.05153344
1.100041,-0.3450679,-0.1559985
1.312653,-0.4082276,-0.2557585
1.492404,-0.4155615,-0.312767
1.634744,-0.4003538,-0.2919437
1.721418,-0.3608636,-0.2407597
1.763679,-0.2654116,-0.2425551
1.656014,-0.1726947,-0.2183001
1.408901,-0.1357968,-0.1664833
1.298026,-0.1498186,-0.1738528
1.231208,-0.1659245,-0.1569729
1.000949,-0.1817,-0.1201518
0.8537172,-0.2075264,-0.1410526
0.8371315,-0.1827006,-0.1724986
0.6777377,-0.1260455,-0.1880423
0.5522497,-0.1035703,-0.1698309
0.6358459,-0.09717216,-0.1201477
0.6821092,-0.1014805,-0.07855435
0.7407336,-0.1111782,-0.04543193
0.8203026,-0.09868667,-0.02918236
0.7272677,-0.07703713,-0.0395882
0.6597751,-0.03323292,-0.08909044
0.6507667,0.01592309,-0.1687446
0.6271699,0.01667654,-0.1829444
0.6777843,-0.01441898,-0.1083654
0.6939448,-0.09282845,-0.0719556
0.7567271,-0.2498301,-0.1233968
0.9589299,-0.4430335,-0.1630461
1.20469,-0.5792543,-0.1312279
1.433558,-0.5773749,-0.07218158
1.582276,-0.503644,-0.004796957
1.802705,-0.4695419,0.05156958
1.987315,-0.4810516,0.02181372
1.887315,-0.4838971,-0.04061528
1.684313,-0.4378155,-0.05943992
1.438409,-0.3781436,-0.0566631
1.198366,-0.2946521,-0.01359629
0.9713746,-0.1613229,0.01756608
0.6831971,-0.08216279,0.01088059
0.5869725,-0.07929261,0.008168517
0.5242507,-0.06401742,-0.01512824
0.3790528,-0.0556237,-0.008904608
0.4369998,-0.09330517,0.02107188
0.8046485,-0.04830155,-0.1591964
0.7227106,-0.1341218,-0.16032
0.7164158,-0.2906932,-0.1362987
0.8547492,-0.4262165,-0.13453
1.127277,-0.461876,-0.09332776
1.389885,-0.3980375,-0.05380888
1.507445,-0.3200914,-0.03947074
1.568762,-0.3215916,0.03386122
1.692161,-0.436698,0.07907399
1.775436,-0.5789077,0.03320097
1.696513,-0.5478661,0.003298144
1.467912,-0.382473,0.01707198
1.13108,-0.2330684,0.00922613
0.8386699,-0.09245479,-0.02309106
0.7238577,-0.03815526,-0.04192624
0.6572404,-0.043012,-0.02688433
0.6008481,-0.03126035,0.008329508
0.5826936,-0.08660884,0.01509517
0.5003476,-0.1504382,0.01185738
0.4561093,-0.1924503,0.02737974
0.50187,-0.2181686,0.03822271
0.5670263,-0.1972687,0.06461959
0.7000865,-0.2222453,0.08969449
0.7835133,-0.248558,0.08563834
0.7900609,-0.2386657,0.07077019
0.823252,-0.2365559,0.05269282
0.7915732,-0.2101044,0.06679497
0.7805944,-0.2090295,0.07204793
1.007773,-0.2543167,-0.01159693
1.370191,-0.3305508,-0.1415444
1.569224,-0.3836292,-0.2220789
1.661657,-0.3583419,-0.2401577
1.900741,-0.3561016,-0.2840835
1.994835,-0.3638125,-0.3039554
1.766453,-0.2964582,-0.2439033
1.510444,-0.204997,-0.2403379
1.238799,-0.1611565,-0.2443698
1.098179,-0.1921944,-0.1717636
1.031483,-0.2235963,-0.1251125
0.7900041,-0.2149292,-0.1271494
0.8136303,-0.1962481,-0.157798
0.8296552,-0.1379544,-0.1714724
0.5990634,-0.07541545,-0.1677265
0.6989935,-0.05037417,-0.1673415
0.7275127,-0.03985148,-0.1100988
0.6763803,-0.07273304,-0.06015992
0.8189073,-0.1208013,-0.04007625
0.7583609,-0.1281763,-0.01045154
0.7763448,-0.1097593,0.00397529
0.8145877,-0.06290399,0.01452861
0.7593532,-0.008258066,-0.04283583
0.8431603,0.01510106,-0.1373277
0.8038101,0.007516803,-0.1599259
0.7911551,-0.01038704,-0.1276751
0.8143798,-0.03160661,-0.09465933
0.7505393,-0.09258735,-0.1246269
0.7899037,-0.2034692,-0.1620653
0.8833259,-0.3493335,-0.1668311
1.155842,-0.4887466,-0.1584079
1.417902,-0.518649,-0.1076956
1.455312,-0.4370945,-0.07951104
1.592567,-0.4116211,-0.0390555
1.769613,-0.5323947,0.03062268
1.795628,-0.6433809,0.03083465
1.706398,-0.5998597,0.02698935
1.493563,-0.4504968,0.02950262
1.215284,-0.2584963,0.008473002
1.021582,-0.09703263,0.005667715
0.9138752,-0.05490153,0.01368505
0.7744724,-0.07276698,0.04085353
0.6806477,-0.1012921,0.05741353
0.6176415,-0.1846102,0.05818988
0.5120192,-0.2469565,0.05385418
0.4833422,-0.2367939,0.01473164
0.491472,-0.2014849,-0.006473114
0.5089071,-0.1494687,0.00044804
0.575191,-0.1395579,0.03102024
0.6110613,-0.19131,0.09293447
0.6545306,-0.2444074,0.1106554
0.7373953,-0.2595539,0.0950039
0.823264,-0.2150612,0.0966077
0.9107698,-0.1710688,0.09977975
0.9794098,-0.1655755,0.08613075
1.082068,-0.1690946,0.02929242
1.235831,-0.1963261,-0.08232418
1.404718,-0.2610948,-0.2134821
1.62105,-0.3229079,-0.2765447
1.756546,-0.3273012,-0.2411882
1.736987,-0.3095169,-0.2064081
1.748804,-0.3111574,-0.2079747
1.662526,-0.2857965,-0.1629488
1.349102,-0.2348452,-0.09745135
1.139419,-0.1855787,-0.06928889
1.053133,-0.1391333,-0.03249316
0.9371932,-0.1126301,-0.04659055
0.8456225,-0.0947533,-0.1071427
0.7142737,-0.07980355,-0.1033211
0.6306612,-0.09406915,-0.09460252
0.6347766,-0.1269285,-0.07624065
0.6198328,-0.1493889,-0.02165599
0.6781583,-0.1471656,0.01175211
0.7671006,-0.1035126,0.03681865
0.8146439,-0.03300282,0.005147073
0.8634214,0.01390935,-0.0757321
0.9050687,0.01520264,-0.13949
0.9205586,-0.0183524,-0.1649669
0.8419031,-0.06527746,-0.114655
0.7309279,-0.08232871,-0.05564606
0.6822814,-0.04746718,-0.006626754
0.6772645,-0.0213343,0.02255091
0.7189703,-0.07082558,-0.06793069
0.791771,-0.1897986,-0.1659881
0.9406038,-0.340481,-0.1490573
1.207071,-0.4483314,-0.08519026
1.47579,-0.4630484,-0.0265723
1.575404,-0.4253108,-0.000425839
1.614473,-0.3915585,-0.01117887
1.782791,-0.4122737,-0.01920786
1.778908,-0.4357928,-0.01215322
1.549579,-0.3888607,0.003095931
1.376433,-0.3391703,0.04042836
1.151942,-0.2831967,0.07566248
0.9573405,-0.2027807,0.07481963
0.7637004,-0.1021377,0.05101433
0.4270109,0.05282569,0.01827206
0.3865785,0.07462957,0.02462068
0.5604628,-0.05735973,0.07346614
0.5455162,-0.1167752,0.1058566
0.5676526,-0.1544853,0.1122384
0.623684,-0.192183,0.08062203
0.6006331,-0.2063149,0.0375856
0.6533754,-0.2471497,0.02006346
0.7065226,-0.2280529,0.02426008
0.7912225,-0.2328371,0.04974705
0.9120606,-0.2820139,0.04186915
0.878853,-0.2672018,-0.02478883
0.982054,-0.3212422,-0.1458385
1.347487,-0.4033311,-0.2970458
1.641703,-0.429542,-0.3670837
1.819664,-0.4653805,-0.3150835
1.908866,-0.4490124,-0.2455241
1.879996,-0.4032747,-0.2440421
1.602751,-0.2968874,-0.1908253
1.156593,-0.07082561,-0.06463724
1.035209,0.06727015,-0.03676493
1.070334,0.05830895,-0.05032599
0.9251664,0.06277396,-0.078282
0.879283,0.06417166,-0.1603108
0.8607222,-0.007366956,-0.1860292
0.7640461,-0.07323661,-0.1636454
0.7938535,-0.0966502,-0.1359902
0.8098673,-0.1060139,-0.1081332
0.7824406,-0.0795023,-0.05538133
0.8135377,-0.01235937,-0.007002592
0.810712,0.06652632,-0.04870248
0.850374,0.1213981,-0.07945445
0.9161799,0.1281205,-0.117385
0.9068737,0.07104162,-0.1964008
0.8770392,-0.01286631,-0.1882965
0.8216229,-0.06773768,-0.1553016
0.7846483,-0.143389,-0.1565004
0.7612109,-0.2747607,-0.2199915
0.7544041,-0.4498789,-0.3000865
0.9007204,-0.6388321,-0.2232538
1.138086,-0.7176339,-0.1193471
1.353439,-0.6366823,-0.1235622
1.505587,-0.5351274,-0.1299259
1.550403,-0.5265793,-0.127857
1.547551,-0.5788071,-0.1273377
1.546924,-0.636809,-0.1066242
1.511615,-0.6399858,-0.06408133
1.400103,-0.5847351,-0.01686318
1.219587,-0.4835304,-0.03858187
1.020523,-0.3096773,-0.07921147
0.924804,-0.255316,-0.053778
0.9242205,-0.3110081,-0.03822731
0.8382985,-0.2426781,-0.02937272
0.7222366,-0.2080212,0.003254733
0.618542,-0.2091399,0.0005688248
0.502194,-0.1347597,0.00185566
0.5050182,-0.1261083,0.01325848
0.5066284,-0.1035345,0.0112069
0.4807449,-0.07987054,0.03377557
0.563774,-0.1322461,0.04961995
0.6315092,-0.1441038,0.07531371
0.7114216,-0.1608337,0.1232348
0.8103058,-0.1852032,0.1296082
0.8603608,-0.1953852,0.1202476
0.9636406,-0.2406553,0.118545
1.031824,-0.2613939,0.0966768
1.04406,-0.2689641,0.02532305
1.11766,-0.3396112,-0.122391
1.261667,-0.503934,-0.2935128
1.455075,-0.6288557,-0.3785874
1.53249,-0.5784736,-0.3232407
1.515544,-0.5085844,-0.2007194
1.556553,-0.4526115,-0.1298585
1.533316,-0.2897495,-0.1495142
1.45643,-0.1250463,-0.1942971
1.368774,-0.06096967,-0.1868077
1.170355,-0.08339856,-0.1757492
0.9703061,-0.1494905,-0.1676062
0.8179292,-0.206181,-0.1226545
0.6728238,-0.241968,-0.1242483
0.6204169,-0.2226731,-0.122321
0.6389654,-0.1724886,-0.08190151
0.693443,-0.1421145,-0.1089952
0.7878118,-0.1148688,-0.1153478
0.8569668,-0.133028,-0.0684572
0.8616505,-0.138391,-0.03816472
0.7658385,-0.05674978,0.007585951
0.6293195,0.02268785,0.03500313
0.5933757,0.06972964,0.01401191
0.6362323,0.06749662,-0.05304246
0.6691733,0.03441222,-0.1235856
0.7022052,-0.02212006,-0.1290037
0.7168692,-0.1469288,-0.1285335
0.7234204,-0.2461435,-0.1458867
0.8923455,-0.4150347,-0.1312741
1.190115,-0.6969604,-0.0936495
1.383519,-0.7159203,-0.06551055
1.593188,-0.4885609,-0.05315934
1.919763,-0.4114375,0.002692707
1.967108,-0.4699848,0.08477862
1.74855,-0.5148341,0.06724765
1.62631,-0.5512078,0.01625964
1.403378,-0.5294431,0.03787086
1.160224,-0.4253852,0.02667008
0.9826226,-0.2408653,0.006410062
0.6860554,-0.0885319,0.03162397
0.711202,-0.1096474,0.02372245
0.7243072,-0.1117333,0.03456088
0.4776548,-0.06067838,0.04286286
0.5576628,-0.1262606,0.01583
0.470645,-0.1519627,0.02601779
0.3266832,-0.1223932,0.04229366
0.473799,-0.1379682,0.07819417
0.4522834,-0.1189855,0.1083379
0.6178215,-0.1472399,0.09900093
0.8231948,-0.2195034,0.1046665
0.8504793,-0.2293101,0.08501852
0.9304776,-0.2271187,0.04931661
0.8652605,-0.2273253,-0.006505988
1.047061,-0.2880716,-0.1435848
1.45583,-0.4346809,-0.3311173
1.722731,-0.5378291,-0.4528739
1.867914,-0.5265597,-0.3562112
1.817545,-0.484695,-0.228517
1.83437,-0.4621935,-0.2556703
1.724196,-0.3050453,-0.1752347
1.412679,-0.1010746,-0.05612611
1.278287,-0.04966163,-0.1063114
1.1017,-0.04372765,-0.1219737
0.961748,-0.09999854,-0.131693
0.879969,-0.1914196,-0.1859423
0.6742557,-0.1877312,-0.1346252
0.5426095,-0.170805,-0.08807761
0.4742788,-0.1367788,-0.06163205
0.5047323,-0.06305134,0.01705832
0.6041942,-0.003233805,0.03987661
0.706853,0.03023133,-0.01132272
0.8447651,0.06530184,-0.09849527
0.8317982,0.1326156,-0.1561347
0.7763947,0.13828,-0.1231922
0.7815529,0.05030314,-0.08671897
0.7836409,-0.06947316,-0.1097188
0.8447624,-0.1715825,-0.1461801
0.8592608,-0.2193618,-0.1964906
0.8648495,-0.3016735,-0.2297102
0.9980278,-0.4526171,-0.1393253
1.21638,-0.5572518,-0.05251693
1.396532,-0.5149726,-0.09712235
1.463072,-0.4185389,-0.1142651
1.529361,-0.4268613,-0.08079699
1.521256,-0.4511742,-0.05982136
1.434924,-0.4502559,-0.01269908
1.469626,-0.4316656,0.0130217
1.456601,-0.3253929,0.01432506
1.351076,-0.2439104,0.01515906
1.226432,-0.1983757,-0.02571004
0.9924696,-0.1543838,-0.04712399
0.806522,-0.1583053,-0.03317993
0.7095327,-0.1506874,-0.04436574
0.6629128,-0.1855617,-0.04062909
0.7005456,-0.2508217,-0.03418315
0.6827849,-0.2587845,-0.03633059
0.6567814,-0.2452836,-0.002429297
0.6541941,-0.206984,0.03627579
0.6070393,-0.1795645,0.07180107
0.6200242,-0.1763976,0.0840971
0.6769181,-0.2015345,0.08094682
0.7635153,-0.2665334,0.1044545
0.8843177,-0.2973038,0.1074135
0.9501401,-0.3111414,0.1223627
0.9754693,-0.3142616,0.147474
0.9777537,-0.2997334,0.07967842
1.01692,-0.30336,-0.03635476
1.12159,-0.3246292,-0.09732449
1.272669,-0.4338411,-0.09803493
1.568484,-0.5625897,-0.1116931
1.758605,-0.5252918,-0.129425
1.600639,-0.3456893,-0.1191495
1.509915,-0.1345702,-0.1757136
1.575886,-0.03071172,-0.2403724
1.465996,-0.1513184,-0.2090618
1.305858,-0.3107075,-0.1885586
1.190848,-0.3349961,-0.1930771
1.061992,-0.3387043,-0.1774517
0.9652938,-0.3008504,-0.1856422
0.8269364,-0.1980314,-0.1915313
0.7231111,-0.1240168,-0.178865
0.7134631,-0.05923109,-0.1773737
0.7055043,-0.08002566,-0.1703429
0.7457493,-0.1743192,-0.1457704
0.7852073,-0.2374178,-0.1055235
0.7771893,-0.2639651,-0.05549139
0.7705164,-0.2286029,-0.009581313
0.7575703,-0.1957455,0.003490792
0.7478495,-0.1045881,-0.05663405
0.7227919,0.02285112,-0.1310691
0.713418,0.008403534,-0.1282836
0.7372251,0.01680192,-0.08717809
0.761366,0.05469172,-0.06465869
0.8113179,-0.00749949,-0.07610301
0.8332533,-0.07877498,-0.1635997
0.8245052,-0.2498219,-0.3311504
0.8996478,-0.5523163,-0.4227441
1.088962,-0.8040564,-0.2627754
1.301405,-0.8487029,-0.03895887
1.434569,-0.6265894,0.002339724
1.530001,-0.3679693,0.01222061
1.580463,-0.347111,0.04686086
1.512652,-0.4646765,-0.01433939
1.452998,-0.497672,-0.0644191
1.42647,-0.4600845,-0.03627167
1.305644,-0.4196056,-0.01099451
1.118435,-0.3617397,-0.005790341
0.893009,-0.3079187,-0.006596515
0.6650751,-0.2355136,-0.01552504
0.5111718,-0.1232874,-0.02229239
0.420771,-0.05990886,-0.007017458
0.3999873,-0.06243113,0.01621211
0.4136837,-0.05076321,0.03995365
0.4553015,-0.04825473,0.07183534
0.5858516,-0.08836094,0.1072591
0.6858784,-0.1188403,0.1318835
0.7033343,-0.1732056,0.1180164
0.7738061,-0.2750898,0.1087251
0.876697,-0.3670814,0.09782046
0.922346,-0.4242034,0.0005954558
0.9925656,-0.4463345,-0.1356039
1.193596,-0.4556884,-0.2511875
1.479782,-0.4208115,-0.3194397
1.722662,-0.3735724,-0.285563
1.79183,-0.3919372,-0.202488
1.681154,-0.3639534,-0.1334067
1.522619,-0.2365877,-0.06253005
1.367666,-0.09546942,-0.03875395
1.259448,-0.002220534,-0.08543435
1.20625,0.002488652,-0.1164659
1.074833,-0.05780003,-0.1249612
0.9038285,-0.1588452,-0.1368961
0.763884,-0.2430212,-0.1221815
0.614137,-0.2499902,-0.08743595
0.5584419,-0.2203144,-0.04650112
0.5725985,-0.1557142,-0.02836119
0.5500109,-0.04550455,-0.04485713
0.5596973,0.06639703,-0.07304648
0.6115277,0.1278852,-0.1387916
0.6916765,0.1174448,-0.2012601
0.7309382,0.0635265,-0.1681262
0.6632443,-0.05042604,-0.07955077
0.6152997,-0.1853328,-0.02999367
0.6425748,-0.249678,-0.04574776
0.7707539,-0.3472877,-0.09500282
1.024106,-0.5135901,-0.1180677
1.323937,-0.5484717,-0.1165114
1.665539,-0.5097382,-0.1049514
1.894617,-0.580682,-0.04040915
1.853907,-0.5999708,0.06421268
1.766894,-0.4865676,0.1211831
1.725465,-0.3628294,0.02919637
1.614653,-0.273281,-0.0822151
1.423594,-0.2795613,-0.01901229
1.123594,-0.2629073,0.02889178
0.8800169,-0.1393142,0.009104436
0.7699405,-0.07575229,0.05076921
0.6098873,-0.03926435,0.03786446
0.5264404,-0.01232688,0.02311849
0.5351314,-0.05522769,0.05142735
0.4796578,-0.1009841,0.03450634
0.4602012,-0.165077,0.04736661
0.4762276,-0.1872768,0.0570334
0.5387506,-0.1925912,0.05732571
0.6362797,-0.2829933,0.09354302
0.6532139,-0.2912022,0.08135849
0.6772968,-0.2486374,0.0598325
0.761687,-0.2725867,0.04831545
0.8294425,-0.2531009,0.02217919
0.818251,-0.2479378,0.02269144
0.8269647,-0.2763315,-0.01564957
0.9602015,-0.2732419,-0.09843623
1.203727,-0.3275779,-0.1954778
1.576769,-0.4231295,-0.3508447
1.781179,-0.4736878,-0.4316214
1.816116,-0.4578629,-0.3785207
1.980435,-0.42305,-0.3529484
1.814484,-0.3976603,-0.2729472
1.370191,-0.306702,-0.08900863
1.17342,-0.2166747,-0.01795363
1.006885,-0.1814451,-0.02185287
0.9302484,-0.1441104,-0.04001468
0.9260404,-0.1468366,-0.1352972
0.7420264,-0.1366837,-0.1739859
0.6515713,-0.1017036,-0.1494097
0.6158534,-0.1195394,-0.1421341
0.5843127,-0.1231243,-0.1134308
0.6736184,-0.1139249,-0.08210579
0.7337923,-0.1031577,-0.01590446
0.8255791,-0.05428495,0.05067961
0.8684334,-0.019403,-0.04312658
0.7530375,0.01104905,-0.1906746
0.6229043,0.03886686,-0.1858944
0.5148558,0.0161801,-0.125662
0.5071927,-0.0383929,-0.0998099
0.5695928,-0.1399951,-0.06716452
0.6975548,-0.3201249,-0.1129589
1.01239,-0.505011,-0.1850592
1.365969,-0.5743088,-0.1799783
1.598379,-0.5320297,-0.1778473
1.741462,-0.5296376,-0.09297235
1.831835,-0.6114271,0.07229383
1.833691,-0.6504241,0.08337428
1.799734,-0.6126321,-0.01683193
1.748111,-0.5501375,-0.05335363
1.501685,-0.4390504,-0.02790681
1.169228,-0.2602779,-0.01137888
0.9770716,-0.1002222,-0.02569763
0.8592701,-0.06335014,-0.02497747
0.6779338,-0.09424259,-0.01202126
0.4351876,-0.100912,-0.01327158
0.3999571,-0.1337803,0.008326827
0.5006372,-0.2035194,0.04122823
0.4297975,-0.2237687,0.05351646
0.4405739,-0.1967214,0.06221873
0.5512991,-0.2040285,0.06556528
0.6110499,-0.2307734,0.06273592
0.7887269,-0.2484872,0.05236452
0.859038,-0.2762418,0.03799608
0.8366186,-0.2709544,0.03702611
0.9442607,-0.2652159,0.03179007
0.9459882,-0.2831013,0.01799875
1.003849,-0.3005434,-0.03564356
1.319929,-0.4029185,-0.1838825
1.571838,-0.5020589,-0.3039756
1.654867,-0.4611554,-0.2796274
1.810671,-0.415753,-0.2938569
1.929257,-0.4079017,-0.3652297
1.643129,-0.2955179,-0.2328315
1.319624,-0.1520877,-0.05852207
1.264969,-0.1464226,-0.07199658
1.14497,-0.1750015,-0.08533733
1.035126,-0.1442234,-0.0866551
0.9756682,-0.139228,-0.1478564
0.8226138,-0.1278795,-0.1734498
0.6886562,-0.09624552,-0.1842426
0.6214535,-0.1174487,-0.1858011
0.649368,-0.147107,-0.1484961
0.7098844,-0.1674243,-0.07570549
0.7706604,-0.1861611,0.0277274
0.8014103,-0.1321756,0.05266508
0.7502818,-0.01137206,-0.02556669
0.7549136,0.09563525,-0.1007361
0.7450728,0.112775,-0.1376621
0.7088837,0.0699438,-0.126858
0.722197,0.03306634,-0.09775836
0.6797983,-0.08865583,-0.1018077
0.6716648,-0.2560332,-0.1135702
0.7272859,-0.3802597,-0.1224063
0.8890455,-0.5121269,-0.1152157
1.252312,-0.5188274,-0.09222772
1.583036,-0.3909565,-0.09853211
1.775757,-0.3600748,-0.07067366
1.873813,-0.5142154,0.007388397
1.798161,-0.7030846,0.03413896
1.630457,-0.6585512,0.004313624
1.456908,-0.507341,-0.02426007
1.2291,-0.3854162,-0.01524532
1.046154,-0.1467747,0.001240942
0.9200665,-0.03156059,0.006387753
0.7422676,-0.07321318,0.02392369
0.622434,-0.06060251,0.02402645
0.56256,-0.1271097,0.02089642
0.5125282,-0.2002078,0.02247252
0.5311296,-0.2178241,0.01430729
0.5301571,-0.2347283,0.03688304
0.526058,-0.1779004,0.07258307
0.5570515,-0.1379957,0.09218582
0.6074069,-0.1247783,0.08278904
0.7507698,-0.1163943,0.05951497
0.914418,-0.1456851,0.06206089
1.038588,-0.1695757,0.05505797
1.101682,-0.2311353,0.03318354
1.078653,-0.293752,-0.006307448
1.113109,-0.3238702,-0.09311998
1.299434,-0.3444323,-0.223388
1.557554,-0.3529494,-0.3467613
1.683061,-0.3971709,-0.2919197
1.653574,-0.4106003,-0.1773148
1.63896,-0.3856142,-0.2584926
1.555963,-0.3607506,-0.2918885
1.404391,-0.2970641,-0.2191902
