accx,accy,accz
1.96768,-0.09013913,-0.08115033
1.914111,-0.2682089,0.05465774
1.738488,-0.572088,0.2179914
1.675816,-0.6779401,0.1805453
1.472645,-0.4917253,0.1029419
1.202201,-0.2636164,0.001947613
1.021086,-0.1637166,-0.03158281
0.739928,-0.05514596,0.02641445
0.5662318,-0.01457023,-0.02881178
0.5648212,-0.1370152,-0.0101742
0.5051122,-0.198221,0.0414589
0.5136633,-0.2037851,0.03648886
0.555294,-0.2048582,0.1329405
0.564178,-0.1361352,0.1297675
0.6064464,-0.07109447,0.08307242
0.5746707,0.04872482,0.0876933
0.547786,0.1613697,0.04381269
0.6056371,0.1441376,0.04442427
0.6369534,0.05621375,0.02964054
0.6332706,-0.2076539,0.04329906
0.6325761,-0.52234,0.07430007
0.7738533,-0.6082039,-0.07158439
1.296184,-0.6475329,-0.3630159
1.898879,-0.7409865,-0.6477386
1.868058,-0.6148729,-0.5985419
1.505597,-0.4236515,-0.2137562
1.545678,-0.5054536,0.03009604
1.712366,-0.5370574,-0.03171041
1.73664,-0.3753631,-0.1103814
1.429009,-0.1848857,-0.002239459
0.7448724,0.08441274,0.04185631
0.5344806,0.09850313,0.005442499
0.708478,-0.07952714,0.006906415
0.6596822,-0.0725424,-0.1284254
0.7045207,-0.2055605,-0.1848187
0.7862113,-0.3736071,-0.1799209
0.7638849,-0.2857067,-0.2192255
0.8021199,-0.2053872,-0.0758458
0.9015184,-0.1251711,-0.05140104
0.9983655,0.008144104,-0.08627487
0.9304805,0.09705801,-0.00560895
0.753242,0.1942507,-0.04926412
0.5227538,0.2818795,-0.02413773
0.3809594,0.2495795,-0.02130667
0.4892512,0.07608419,-0.1046425
0.577011,-0.1776988,-0.1015091
0.6617628,-0.4448175,-0.1616011
0.7579592,-0.5585016,-0.1303463
0.7195113,-0.4769984,0.01346582
0.9045227,-0.3112676,0.08767707
1.468723,-0.01835635,0.08419564
1.96669,0.16817,0.02798749
1.941009,-0.1040766,0.0945277
1.726076,-0.5293682,0.2130994
1.773965,-0.6818612,0.2948331
1.654239,-0.6352847,0.2930758
1.442557,-0.4729251,0.1111233
1.274561,-0.2159956,0.03068196
0.7419538,-0.0248639,0.0697331
0.4488036,0.0762603,0.06209354
0.5470571,0.08769781,0.04638592
0.5500119,0.01574225,-0.009781587
0.648178,-0.03067675,-0.003673238
0.6362565,-0.0599025,0.06534765
0.5788858,-0.08979195,0.1296406
0.6563912,-0.08036379,0.1559235
0.5849415,-0.04795411,0.06815328
0.5863984,-0.05801889,-0.01139312
0.6125666,-0.1112834,-0.06238936
0.5540579,-0.2427622,-0.03360622
0.5510469,-0.465087,0.06694675
0.5076306,-0.5002852,0.02509657
0.6998825,-0.4358175,-0.1324922
1.29961,-0.575566,-0.4679508
1.816895,-0.6561315,-0.7354709
1.709255,-0.6100144,-0.5160784
1.487479,-0.6198782,-0.2394357
1.728548,-0.5521214,-0.1618721
1.769325,-0.3424322,-0.05467838
1.73483,-0.0799337,-0.02518415
1.782921,0.09103957,-0.05159447
1.278619,0.09377809,0.00548641
0.8591295,0.03224889,0.05068253
0.7806124,-0.05747169,0.04028839
0.6889864,-0.1956374,-0.03568342
0.8000076,-0.2873823,-0.1496884
0.8725936,-0.2765539,-0.1853209
0.8489276,-0.2651497,-0.1478918
0.794834,-0.2564157,-0.1028821
0.6948226,-0.1613242,-0.05628002
0.664947,-0.005628274,-0.02835942
0.5962136,0.1728619,-0.03286
0.5958737,0.2879425,-0.03335901
0.5992296,0.2822799,-0.05177531
0.5821621,0.2150812,-0.1038801
0.6376044,0.06508633,-0.1179556
0.611491,-0.174579,-0.1215308
0.6305273,-0.3819934,-0.06851395
0.7085876,-0.4329532,0.1053324
1.023715,-0.3220743,0.1599084
1.683633,-0.1746907,0.006713206
2.046881,-0.1223234,-0.1005953
1.930057,-0.167467,-0.008046061
1.725692,-0.2544398,0.1365603
1.573828,-0.333949,0.1865251
1.438641,-0.2538604,0.2126865
1.306564,-0.07303779,0.1640269
1.077619,-0.02353226,0.03893278
0.829859,-0.02672966,-0.03779362
0.7429144,-0.01266702,-0.1156507
0.5854269,0.002001628,-0.1346743
0.4091641,0.04729587,-0.09026933
0.3832165,0.03466323,-0.08823305
0.3680715,-0.01158748,-0.06789266
0.4543126,-0.04726567,-0.03570681
0.5510132,-0.08447429,-0.007387201
0.6161886,-0.09054213,-0.001379735
0.7379615,-0.1282866,-0.02404988
0.7716958,-0.1869834,-0.01582128
0.7829613,-0.2598797,-0.04514366
0.7686529,-0.3618291,-0.1036265
0.8049871,-0.4134659,-0.152522
1.142759,-0.5294187,-0.2377114
1.491584,-0.7390018,-0.3114663
1.508194,-0.8925523,-0.2928397
1.551099,-1.011962,-0.1632616
1.835636,-0.9344179,-0.0008387384
1.87285,-0.5447308,0.142359
1.68602,-0.1727442,0.1904855
1.46195,0.08025527,0.1474196
1.036606,0.1737128,0.1395688
0.8612867,-0.05627752,0.03392193
0.9485319,-0.3223542,-0.1019132
0.8642993,-0.4260146,-0.0697029
0.7618234,-0.3995927,-0.06552376
0.6505672,-0.2476758,-0.09508087
0.545297,-0.1365851,-0.08425798
0.5500322,-0.08945695,-0.107104
0.6462978,-0.1238052,-0.09191065
0.8392992,-0.163911,-0.04179667
0.9891611,-0.08967324,-0.0227605
1.063781,-0.06447795,-0.06314195
1.05876,-0.0122442,-0.1254895
0.9167288,0.0557122,-0.1123242
0.674939,0.03730234,-0.04296215
0.4836603,0.07749021,0.05311916
0.5124886,0.08507247,0.1192232
0.6481529,0.06976308,0.04684655
0.8430987,0.06093203,-0.1146328
1.060934,-0.1007173,-0.2779822
1.081065,-0.3288679,-0.3666896
1.000548,-0.5071439,-0.3152285
1.000507,-0.6381175,-0.2289261
1.134525,-0.7137857,-0.05454922
1.404168,-0.6604841,0.2271221
1.587843,-0.493209,0.2500117
1.571827,-0.2697986,0.08995132
1.576268,-0.1132413,0.05522579
1.658804,-0.3093026,0.03013734
1.568122,-0.5480405,0.03997414
1.307665,-0.4932071,0.08908224
1.025921,-0.429251,0.06799195
0.7519617,-0.2992901,0.0544531
0.6134744,-0.1047562,0.01625233
0.5481782,-0.06311491,-0.01574837
0.4910299,-0.07407414,-0.006254366
0.5318258,-0.1419964,-0.01261214
0.5467904,-0.2702646,0.05373913
0.5772343,-0.3652032,0.1142604
0.6844192,-0.3444005,0.08831585
0.7503554,-0.2397903,0.06895539
0.792203,-0.1824735,0.05194702
0.7424829,-0.0721943,0.04427101
0.6789969,0.0124204,0.04712322
0.7527867,-0.06850037,0.06513447
0.8123524,-0.2031902,0.1395141
0.838738,-0.3753156,0.1914138
0.9380567,-0.4393742,0.06916929
1.138119,-0.3761614,-0.2155494
1.337761,-0.4053344,-0.3849231
1.346093,-0.4478662,-0.3165093
1.354054,-0.4591897,-0.209591
1.533567,-0.5198709,-0.1784441
1.616997,-0.5379626,-0.185324
1.529205,-0.4491303,-0.1670768
1.323505,-0.2074293,-0.04636249
1.057947,0.09513005,0.09350677
0.983368,0.1053978,0.06178171
0.9504034,-0.03171086,-0.03381822
0.779865,0.0277828,-0.08150296
0.7982408,-0.02987182,-0.173294
0.905187,-0.2179796,-0.1934024
0.8430456,-0.2892935,-0.1739156
0.8465726,-0.3489415,-0.1995793
0.8616198,-0.3149473,-0.1119864
0.7752287,-0.2700705,-0.03092457
0.7307495,-0.1838131,-0.002905116
0.6664288,0.08138226,0.03683143
0.6637047,0.1947532,-0.03607092
0.7123541,0.1936197,-0.1010588
0.6790505,0.1309774,-0.1019861
0.7049973,-0.0361959,-0.09898495
0.667238,-0.06263853,-0.04602872
0.5745682,-0.08124883,-0.02516247
0.6320437,-0.1702813,-0.01718969
0.7550164,-0.2520219,0.03134908
1.107749,-0.2771978,0.05474616
1.689119,-0.2057329,-0.0176641
1.979815,-0.2299904,-0.1046131
1.810133,-0.3138723,0.0242875
1.692782,-0.4558661,0.2000423
1.85533,-0.5947068,0.2071617
1.832105,-0.4629178,0.1769519
1.638192,-0.2688811,0.09006596
1.426544,-0.1323088,-0.01343556
1.001223,-0.01479981,0.0003548068
0.6403976,-0.01314851,0.07187293
0.5456746,-0.02738815,0.1258729
0.6266054,-0.05907502,0.1124968
0.7459964,-0.1131777,0.06018242
0.7812787,-0.1208298,0.03585152
0.8484377,-0.08910228,0.0379929
0.8107288,-0.0141171,0.04532682
0.6708776,-0.0223956,0.03222041
0.5330391,-0.08581895,0.00930732
0.3529372,-0.1246996,-0.007034065
0.4028725,-0.2246597,0.001364596
0.5421439,-0.2629567,0.02345524
0.5906897,-0.2235585,0.0003479752
0.622272,-0.2225406,-0.05364385
0.6709735,-0.2362661,-0.1582097
1.195141,-0.3765647,-0.3010657
1.836597,-0.6446632,-0.3149389
1.819638,-0.7583104,-0.2147417
1.618708,-0.6036865,-0.1191762
1.691538,-0.3756865,0.005376956
1.696727,-0.08876186,0.09877659
1.51948,0.2721972,0.08033931
1.318094,0.2959035,0.08704125
1.059577,0.07688933,0.1448692
0.917812,-0.0123311,0.07203133
0.8910192,-0.1984563,-0.04397506
0.747418,-0.3073499,-0.03412063
0.6915874,-0.1882251,-0.03019917
0.6598961,-0.1705494,-0.06660283
0.6424295,-0.08694018,-0.0836074
0.7764104,0.01535541,-0.1076828
0.8131084,-0.04230172,-0.09914094
0.8558838,-0.0055933,-0.09072367
0.8952826,0.0546418,-0.09273681
0.7900434,0.1033608,-0.05911745
0.6737077,0.182844,-0.02632941
0.6085651,0.163861,-0.004722395
0.7374949,0.1435757,-0.05337062
0.9309062,0.07469077,-0.1611713
1.021011,-0.1286508,-0.2042605
0.9943149,-0.362092,-0.175486
0.9820456,-0.5631885,-0.0599756
1.385485,-0.6016239,0.08196366
1.827258,-0.4470114,0.07373021
1.827458,-0.2211932,0.002578862
1.781258,-0.1072337,0.007923638
1.838694,-0.2425027,-0.006994336
1.714748,-0.4024081,-0.0287186
1.404573,-0.3599125,-0.006492611
1.094822,-0.2205784,-0.02081141
0.814613,-0.06103032,-0.04414856
0.6778709,0.05744732,-0.07770831
0.6916004,0.03287454,-0.1390738
0.7042775,-0.09934207,-0.1457691
0.8170937,-0.3399854,-0.1053416
0.8930993,-0.5571122,-0.03935411
0.846048,-0.5505851,0.006872747
0.7948554,-0.4433521,0.003150747
0.6370181,-0.2810556,0.02375483
0.5376573,-0.117516,0.05166408
0.5878458,-0.0900574,0.06168291
0.6416394,-0.04763035,0.06162294
0.7257976,-0.01730363,0.02524694
0.8140577,-0.09815539,0.002437343
0.8428351,-0.1622607,0.06897207
0.8254628,-0.1908727,0.1792147
0.8363112,-0.1469692,0.2075753
0.8495901,-0.07659769,0.1664993
0.8727618,-0.1201231,0.04133144
0.9733191,-0.1746152,-0.2411259
1.036431,-0.2842555,-0.4117119
1.128931,-0.6882921,-0.3152596
1.262814,-1.098681,-0.2528883
1.235914,-1.013904,-0.2671356
1.209893,-0.7279373,-0.1811221
1.351816,-0.601802,-0.1231604
1.479946,-0.3879573,-0.154744
1.561043,-0.2486472,-0.1518118
1.655449,-0.1278664,-0.1311826
1.492182,0.2020503,-0.09876848
1.051571,0.114396,-0.02500653
0.7294671,-0.08795186,0.02799129
0.6183217,0.002653822,-0.006028916
0.6920864,-0.1209993,-0.07674935
0.8576621,-0.131701,-0.1174611
0.9092811,-0.1145116,-0.1837543
0.8745452,-0.2310019,-0.1749308
0.7927403,-0.120055,-0.08290871
0.7715762,-0.1564813,-0.09264619
0.8288379,-0.1492512,-0.06199275
0.7973357,-0.02145859,0.003050605
0.7467324,-0.06542657,-0.03139653
0.6720581,0.04690365,-0.03797073
0.6313714,0.1073001,-0.06867925
0.7205409,0.04022335,-0.1207584
0.7345418,-0.01828214,-0.1448491
0.714477,-0.179178,-0.1838173
0.7442824,-0.2599739,-0.1413114
0.8780171,-0.3434088,-0.06846547
1.296095,-0.4009725,0.03114124
1.74311,-0.3141211,0.1279075
1.81666,-0.2589404,0.07204294
1.57737,-0.234032,0.05474328
1.464872,-0.2982927,0.1069521
1.573051,-0.4241309,0.1032114
1.540427,-0.4278785,0.1314649
1.275024,-0.3277639,0.1344103
0.951418,-0.2050401,0.09488008
0.769614,-0.1021087,0.05719284
0.6679465,-0.0008078198,0.02314369
0.5632829,0.04367861,0.05517442
0.6330719,-0.03136715,0.07093399
0.671604,-0.102596,0.04886323
0.6181894,-0.1236378,0.06367508
0.6608343,-0.1366801,0.08733654
0.5992134,-0.1108791,0.1232664
0.5464812,-0.09572492,0.1184829
0.6211236,-0.1345425,0.03028013
0.6937968,-0.2068153,-0.03820787
0.8689175,-0.3477756,-0.04067049
1.008133,-0.4549139,-0.08091768
1.047703,-0.4181955,-0.1808824
1.149667,-0.3772623,-0.2102761
1.233461,-0.3728488,-0.2846142
1.305539,-0.3244498,-0.4156747
1.437654,-0.3484448,-0.2868645
1.578854,-0.4513039,-0.1367094
1.678361,-0.4501906,-0.21554
1.69184,-0.337177,-0.1891132
1.587213,-0.1426958,-0.07084106
1.35011,0.02898717,-0.002184695
1.01857,0.04122771,0.07068552
0.7642418,0.03118453,0.05655495
0.7019143,0.03352932,-0.02179733
0.6917404,-0.02709783,-0.1205344
0.7111921,-0.09291262,-0.1774137
0.8002428,-0.1609393,-0.1280067
0.841379,-0.2166848,-0.1195084
0.8185545,-0.2008957,-0.07663428
0.7326974,-0.08480091,0.03980606
0.6590391,0.04593757,0.02636689
0.6188469,0.08418308,-0.02575302
0.5421111,0.04311296,-0.03666462
0.5332677,-0.02087911,-0.07841027
0.551971,-0.03748628,-0.1063437
0.5790699,-0.09180919,-0.1074207
0.6792336,-0.2134934,-0.06629331
0.8904084,-0.2566099,0.05787693
1.33124,-0.2280743,0.1578053
1.755908,-0.1700125,0.0536741
1.918036,-0.1652307,-0.07754812
1.925999,-0.3224925,0.05762261
1.82255,-0.5694499,0.232918
1.66474,-0.6586442,0.2790721
1.553821,-0.4673258,0.2789577
1.383615,-0.2234346,0.1450535
1.02711,-0.0174698,0.01387546
0.6883457,0.1101154,0.01429415
0.4896414,0.05775785,0.02683139
0.4043491,-0.005104313,0.032364
0.4932754,-0.09889683,0.02425751
0.5691172,-0.2220793,0.05116746
0.615029,-0.214899,0.1060327
0.6894134,-0.2051933,0.1223346
0.6454271,-0.2139686,0.1273886
0.6305084,-0.2041349,0.0942269
0.6277917,-0.2158234,0.04479585
0.5708676,-0.2163375,-0.006588169
0.668818,-0.2673852,-0.00306029
0.8360127,-0.3468848,0.0267789
0.9689148,-0.3876453,-0.1243114
1.15988,-0.4288603,-0.2559394
1.354997,-0.4904753,-0.1845378
1.386903,-0.5421925,-0.09682741
1.36794,-0.5103416,-0.07017647
1.56821,-0.421642,-0.1318345
1.738807,-0.3507632,-0.1959935
1.650407,-0.2936296,-0.1551721
1.566897,-0.2066994,-0.08755066
1.464363,-0.09032624,-0.03796239
1.080699,-0.007818367,0.006550119
0.6460261,0.08545316,0.04285498
0.6485828,0.1032224,0.03208245
0.8390543,-0.02339364,-0.0442968
0.8138226,-0.1067922,-0.1466155
0.9049433,-0.2061176,-0.2083696
0.9570246,-0.2475576,-0.1657122
0.7783613,-0.1753165,-0.07030369
0.7805367,-0.2126367,-0.01256869
0.6783882,-0.07769666,-0.001944673
0.4651473,0.1673856,-0.0001637541
0.5261462,0.1513633,0.01729026
0.6029967,0.06395337,-0.005746584
0.6862289,-0.05455279,-0.08294784
0.7386599,-0.1343496,-0.1674823
0.7091041,-0.1476513,-0.2083232
0.8958452,-0.2376924,-0.08458202
1.290593,-0.2524896,0.05155111
1.761262,-0.1641906,-0.03379209
2.001453,-0.07510316,-0.07553383
1.895746,-0.1981153,0.06720544
1.777683,-0.4722979,0.1894653
1.704935,-0.5120562,0.2421109
1.619846,-0.4068692,0.1766672
1.383157,-0.2132938,0.04091578
0.9423102,-0.007360536,-0.01867186
0.6321225,0.003940951,-0.02330342
0.4368844,0.01147261,0.005931152
0.2933342,0.01005079,0.0429993
0.4484374,-0.09325808,0.09166196
0.6221599,-0.1827257,0.1492708
0.6688984,-0.2156154,0.1313248
0.7965887,-0.152824,0.116804
0.7553819,-0.06633851,0.1093232
0.6595231,-0.05100201,0.03512544
0.6482649,-0.105189,-0.001674295
0.5361125,-0.219174,-0.007562305
0.560694,-0.3580255,-0.01121233
0.6665197,-0.4388334,-0.02135124
0.8550887,-0.4208425,-0.1318229
1.265131,-0.4407643,-0.2651102
1.479477,-0.5295861,-0.3252755
1.419124,-0.5591918,-0.3223221
1.451416,-0.5466215,-0.1871157
1.744123,-0.5381241,-0.009122748
1.911197,-0.5202426,-0.05375474
1.776709,-0.4127645,-0.1528443
1.678537,-0.1412535,-0.08046339
1.326455,0.1124957,-0.05122628
0.7947056,0.1289261,-0.01083588
0.7423343,-0.05065264,0.03906797
0.9290691,-0.2622572,-0.09055125
0.5756411,0.09483052,-0.1402817
0.6763891,0.05955545,-0.1566367
0.8708043,-0.04730745,-0.131858
0.8808837,-0.09788922,-0.08000897
0.921886,-0.1697825,-0.01602362
0.7576841,-0.1403282,-0.01553387
0.5707009,-0.1455561,-0.02585259
0.5477198,-0.1031349,-0.04477829
0.5247368,0.1455823,-0.1080605
0.5745954,0.2598167,-0.1682294
0.6060745,0.08691289,-0.1406231
0.6147293,-0.2508669,-0.05305594
0.6581002,-0.4874781,0.01453838
0.8052287,-0.5423181,0.1226179
1.119525,-0.5106577,0.182952
1.584167,-0.278657,0.05527749
2.106871,-0.05375883,-0.1090084
2.055902,-0.1345598,-0.08187965
1.604548,-0.4443156,0.1446487
1.56693,-0.6767408,0.3089361
1.546456,-0.5947486,0.254352
1.317977,-0.3804644,0.1402308
0.9827673,-0.1385367,0.07132532
0.553483,0.07205157,-0.0200251
0.5629879,0.03853917,-0.05790898
0.5306894,-0.01295989,-0.03895238
0.2784478,0.04384893,-0.08703808
0.4533689,-0.01933225,-0.04361571
0.4531275,-0.01307198,0.03204299
0.350658,0.07944109,0.003277591
0.4658813,-0.01510668,0.007740276
0.3028097,-0.1198272,-0.03271705
0.2487414,-0.2658206,-0.03446513
0.3377099,-0.4591513,-0.01547581
0.5767502,-0.4589731,-0.179747
1.344661,-0.5063024,-0.3102473
1.906866,-0.5973118,-0.3499082
1.843349,-0.6009734,-0.3299658
1.664552,-0.6424039,-0.1895058
1.642185,-0.6762081,-0.04147074
1.575184,-0.7360514,-0.03100845
1.547346,-0.6772276,-0.1561996
1.658737,-0.4048656,-0.1962064
1.43428,-0.169459,-0.2106588
1.061836,-0.1120211,-0.2068451
0.7860833,-0.1611223,-0.08022982
0.5333564,-0.08720686,-0.07356637
0.5767282,-0.002197383,-0.0940887
0.6494106,-0.01443919,-0.07036596
0.7097775,0.03116764,-0.07232453
0.8181555,0.03156398,0.01269647
0.6917253,0.07013148,0.03531761
0.5744325,0.1391391,0.01137866
0.5028454,0.09564867,-0.00499392
0.5458233,0.05993909,-0.07495357
0.7812061,-0.06607741,-0.1282252
0.8862647,-0.2155391,-0.2029283
0.8833897,-0.2896038,-0.1969278
0.7747534,-0.3565313,-0.06477516
0.7346429,-0.2735708,0.06955294
1.083306,-0.1975984,0.1143131
1.643331,-0.2256492,0.02110718
2.023103,-0.1964918,-0.02137604
1.949033,-0.2159421,0.01224072
1.766349,-0.3623151,0.04731078
1.753098,-0.5053203,0.1127492
1.693069,-0.4309615,0.09122083
1.541857,-0.243603,0.04668827
1.21861,-0.1706173,0.04448506
0.8569783,-0.06097803,-0.009779633
0.5117976,0.09019384,-0.07972617
0.1633774,0.1591094,-0.1330446
0.196168,0.1440765,-0.1086184
0.2581758,0.05673176,-0.0411698
0.1772346,0.02636704,-0.04681668
0.3729736,0.02645605,-0.04445599
0.4843163,-0.01842038,-0.07747208
0.5212051,-0.122658,-0.2052142
0.5934937,-0.325684,-0.2557913
0.4382132,-0.4507373,-0.2082872
0.4998552,-0.4541602,-0.1554626
1.025269,-0.4851877,-0.1877158
1.718046,-0.6369564,-0.3129209
1.970686,-0.8502585,-0.2887397
1.737542,-0.831647,-0.1033051
1.844575,-0.6501599,-0.0285365
1.973945,-0.4624461,-0.08922375
1.796367,-0.1114001,-0.1488577
1.680274,0.1250352,-0.1359034
1.277359,0.01168526,-0.09037715
0.8367349,-0.1495379,-0.05952391
0.6959463,-0.2622002,-0.01991153
0.5650011,-0.3195353,-0.03772292
0.5658317,-0.2303433,-0.09155088
0.5783892,-0.1357205,-0.1130641
0.5451177,-0.05421063,-0.1448869
0.6141759,0.06246241,-0.096131
0.6132048,0.07603972,-0.008152256
0.5899811,0.08460442,-0.01599396
0.5814974,0.1933085,-0.05739304
0.603821,0.2622191,-0.1537056
0.7014688,0.2508393,-0.2641792
0.7292227,0.1309089,-0.2849098
0.691913,-0.2319584,-0.2763692
0.589042,-0.6957452,-0.3023884
0.62252,-0.7264013,-0.3181128
1.24296,-0.4571424,-0.17832
2.015195,-0.3323261,-0.02115433
2.034624,-0.07047922,-0.08826924
1.808025,-0.0326244,-0.1835018
2.049448,-0.308791,-0.20413
2.058811,-0.2129371,-0.2514395
1.804652,-0.2994355,-0.2356235
1.537626,-0.5024816,-0.2048665
0.9573339,-0.3231808,-0.2175433
0.7388776,-0.2909266,-0.1501819
0.6019969,-0.181655,-0.09827704
0.2129275,0.01614842,-0.1418146
0.4546571,0.04366402,-0.1701868
0.5732716,0.00263094,-0.1787433
0.4262248,-0.2418495,-0.1772087
0.5663312,-0.2342176,-0.1437081
0.3488558,-0.1119293,-0.08610589
0.2855219,-0.2121803,-0.05603606
0.3846239,-0.1690199,-0.05740725
0.251346,-0.2126973,0.009289567
0.4510551,-0.2451875,0.1154367
0.6377106,-0.1821429,0.1655602
0.8488065,-0.2868156,0.09914641
1.065875,-0.357545,-0.1349142
0.9992452,-0.5854352,-0.5059681
1.333569,-0.9175688,-0.7369898
1.706279,-1.000225,-0.4555728
1.614047,-0.9271717,-0.01941905
1.551051,-0.7585439,0.04914874
1.647124,-0.5903401,-0.008366907
1.752855,-0.38876,-0.05075857
1.781673,-0.1352504,-0.105348
1.676217,0.0408852,-0.08409753
1.220477,0.1150531,-0.06143009
0.7070968,-0.005782675,-0.007028626
0.5729752,-0.2016339,0.0281104
0.4998796,-0.3257141,-0.01468581
0.5256256,-0.3798706,-0.08249295
0.7933102,-0.3436651,-0.2264171
1.0175,-0.2928108,-0.2768735
1.082812,-0.2094396,-0.166187
0.9599962,-0.1378662,-0.07528363
0.7431543,-0.1093233,-0.01028514
0.54051,-0.008507565,0.04090681
0.3695365,0.1026941,0.0419699
0.3585591,0.174397,-0.01308761
0.5478897,0.1635101,-0.09859382
0.7058749,-0.009194122,-0.2122013
0.6811418,-0.2730872,-0.2830677
0.6740029,-0.4839677,-0.1659783
0.9317538,-0.4965675,0.01746544
1.469402,-0.3655456,0.07599968
1.956876,-0.1878385,0.01458291
2.036155,-0.03982946,-0.01222043
1.945606,-0.2099291,0.147432
1.996964,-0.5669282,0.2870459
1.886135,-0.6387809,0.209007
1.508108,-0.4184234,0.09422141
1.061574,-0.1022743,0.03482091
0.5611718,0.1108761,-0.007569147
0.2885567,0.1756864,-0.01237876
0.2854912,0.1878922,-0.0268801
0.3108495,-0.003074663,-0.03563961
0.4144922,-0.2468133,0.005466349
0.4762398,-0.2432123,0.02057913
0.4944103,-0.1808778,0.02835074
0.5344267,-0.1983086,0.05047751
0.4949093,-0.2405046,0.03893024
0.4907074,-0.3295692,0.03140043
0.5517958,-0.4344207,0.01322401
0.6760041,-0.4158532,-0.03343385
0.791773,-0.2856096,-0.07963007
0.869182,-0.1836831,-0.1470007
1.253617,-0.1664538,-0.234099
1.774997,-0.4021852,-0.2554836
1.811671,-0.7924458,-0.1275075
1.511998,-0.8971884,0.04816814
1.454484,-0.6878124,0.151083
1.662738,-0.397976,0.08286854
1.897895,-0.1174364,-0.1588868
1.896801,0.05325168,-0.23288
1.393279,-0.04809689,-0.09883935
0.7926542,-0.2310665,0.02724562
0.6668316,-0.2255749,0.1305006
0.7384322,-0.212719,0.06725196
0.5939113,-0.1809555,-0.0730483
0.5645419,-0.09683948,-0.1138927
0.7328285,-0.09546736,-0.1007084
0.6925589,-0.01649559,0.01918991
0.6558885,0.04049,0.09296682
0.5993454,0.04445841,0.0498867
0.3516264,0.1708905,0.02091224
0.339548,0.2129683,-0.04135041
0.4833626,0.153314,-0.1160686
0.6855564,0.08589253,-0.1737385
0.9094798,-0.0555261,-0.1754562
0.8533204,-0.2278643,-0.08356932
0.8239412,-0.3813987,0.02481053
1.046998,-0.4206393,0.07421902
1.496899,-0.3607205,0.01929992
1.996216,-0.3347009,-0.01554283
2.005818,-0.2922931,-0.001306176
1.753107,-0.2237817,-0.004260825
1.654598,-0.194926,0.04876699
1.446445,-0.1338927,0.08799638
1.289891,-0.08450368,0.08090757
1.267791,-0.0977207,0.06204695
0.9758203,-0.04352474,-0.002616181
0.7196477,0.0431537,-0.06737055
0.6221117,0.1135328,-0.1439087
0.4204062,0.1554198,-0.2112968
0.4015718,0.06448092,-0.2101642
0.4588373,-0.063463,-0.1802304
0.4264034,-0.1320265,-0.1508422
0.4611808,-0.1587157,-0.1294227
0.4639839,-0.1763563,-0.08736379
0.49745,-0.3097562,-0.03466969
0.5391047,-0.4850159,0.01256656
0.5171262,-0.4705681,0.07293335
0.5387432,-0.3045226,0.05662937
0.7151484,-0.2389841,-0.05282872
1.317581,-0.4008527,-0.2022971
1.967101,-0.6648517,-0.3846757
1.885781,-0.7921805,-0.3948803
1.505229,-0.7663647,-0.1075848
1.494317,-0.7342565,0.1322422
1.541216,-0.5967324,0.03749108
1.669096,-0.3441019,-0.1371122
1.86346,-0.2140931,-0.1256378
1.542974,-0.1722412,-0.02397949
1.111327,-0.110942,0.09405418
0.8934476,-0.1263155,0.1153754
0.5451081,-0.1701992,-0.001675129
0.398004,-0.1195332,-0.05438919
0.5449723,-0.09582996,-0.1324993
0.6466715,-0.1460937,-0.2217502
0.7579862,-0.1665291,-0.1566994
0.8587875,-0.1779308,-0.102554
0.7681094,-0.1234946,-0.02259674
0.6494348,-0.003383776,0.04032861
0.6766825,0.06611327,-0.02684331
0.7409945,0.1165176,-0.05085243
0.8870636,0.1291556,-0.08635991
0.963065,0.088633,-0.1050315
0.8293959,0.03045966,-0.03407252
0.730113,-0.05499884,-0.02578846
0.6318572,-0.14194,-0.08406104
0.5587877,-0.3046353,-0.1883936
0.6088063,-0.5604711,-0.2917368
0.8176933,-0.7321209,-0.2933655
1.349286,-0.7269734,-0.1247955
1.848512,-0.5395392,0.07053968
1.938621,-0.193019,-0.0243213
1.867045,0.01783716,-0.1791707
1.897572,-0.1905101,-0.1370727
1.933037,-0.4418413,-0.1234701
1.80814,-0.40825,-0.08555341
1.477756,-0.3818026,-0.01587339
0.8460737,-0.2998662,-0.02991887
0.2603773,-0.007484042,-0.009588339
0.1199044,0.1785865,-0.04007178
0.1328689,0.1963146,-0.09762759
0.2546552,0.07582048,-0.1101041
0.4742298,-0.126992,-0.1780964
0.4945983,-0.1799492,-0.1409557
0.5137239,-0.2561821,0.01658974
0.6055841,-0.4118532,0.1504844
0.5727934,-0.3548964,0.1952518
0.5066001,-0.1926067,0.1018593
0.4880831,-0.1145513,0.02817805
0.4938975,-0.1116416,-0.00961731
0.5041378,-0.2354655,-0.03078478
0.6217148,-0.4227767,-0.03872401
1.063053,-0.6115359,-0.2327293
1.574457,-0.8471489,-0.4006134
1.569584,-0.8887743,-0.3154406
1.397401,-0.5999893,-0.1689834
1.650643,-0.3356571,-0.07621173
1.875567,-0.2909438,-0.1283194
1.859146,-0.2704823,-0.2027822
1.582993,-0.128677,-0.09455238
0.9062605,-0.0305768,0.01010715
0.4797033,-0.08362622,0.02368606
0.3880445,-0.1424815,0.01477482
0.3680019,-0.2334446,-0.1165289
0.65919,-0.3562654,-0.3081415
0.9264839,-0.3974688,-0.3479792
0.9584879,-0.3844571,-0.2278109
0.8626023,-0.2926306,-0.08214709
0.7064343,-0.1517417,-0.001753131
0.5919087,0.003499091,0.008469309
0.3394461,0.2109524,0.002648212
0.1963568,0.290939,-0.03534691
0.3370357,0.1013411,-0.1458215
0.5007402,-0.1816782,-0.1777068
0.73876,-0.3998512,-0.07141393
1.070041,-0.5527608,0.04884757
1.521659,-0.4845046,0.1403765
1.928566,-0.2080457,0.06203538
1.999752,-0.1096503,-0.0570066
1.889675,-0.3092417,0.0796951
1.698692,-0.5911708,0.1975639
1.492148,-0.621356,0.180992
1.345368,-0.3909866,0.1781757
1.070154,-0.2099681,0.09666178
0.7016865,-0.05761265,0.008957537
0.5013531,-0.01191111,-0.05231927
0.4167392,-0.08125199,-0.0855144
0.3544826,-0.08181274,-0.03723062
0.3926564,-0.145892,-0.01925283
0.3774693,-0.1408537,0.01118599
0.3100624,-0.06001108,0.04580375
0.3174207,-0.08368001,0.03384915
0.2712891,-0.07182435,0.0680469
0.257779,-0.1283072,0.07014127
0.3024769,-0.2172178,0.02285508
0.4795839,-0.2280889,-0.07693905
1.109404,-0.3358178,-0.3452506
1.813499,-0.5531618,-0.5863872
1.926727,-0.769086,-0.4917334
1.626125,-0.7495853,-0.1759289
1.53953,-0.6339139,-0.01424264
1.668962,-0.6512706,-0.1071917
1.750206,-0.4567698,-0.2666167
1.811077,-0.2078013,-0.2933494
1.540723,-0.2297573,-0.2015912
0.9752171,-0.2616704,-0.1285013
0.6700723,-0.2809047,-0.07507928
0.5342215,-0.3025754,-0.1031497
0.4411432,-0.251719,-0.1875627
0.4949508,-0.2071939,-0.2074595
0.5497561,-0.1160254,-0.1788119
0.6014167,-0.01567668,-0.08288491
0.6067528,0.07392723,-0.04055158
0.425845,0.2000607,-0.04961071
0.2510243,0.2082077,-0.01836457
0.2622118,0.09868596,-0.06146389
0.3354894,-0.02832543,-0.09676097
0.43609,-0.2377095,-0.1174452
0.7216592,-0.4278293,-0.1006529
1.182098,-0.4699873,0.0002374223
1.687487,-0.5398364,-0.01975922
2.033558,-0.5948131,-0.03812403
2.010338,-0.5378185,0.01372336
1.936834,-0.5905071,0.05350246
1.943026,-0.5832932,0.1399002
1.564355,-0.3387734,0.08703029
0.9748454,-0.07100853,-0.04465054
0.6200011,0.1084832,-0.07925467
0.4886755,0.1154903,-0.1133433
0.4019161,0.06015598,-0.09093055
0.2219323,0.0160641,-0.04219994
0.223535,-0.04061462,-0.02927949
0.3524756,0.005471748,0.03206206
0.3105363,0.01644319,0.08884912
0.3646426,0.007729059,0.09355277
0.3992687,0.02087315,0.02654394
0.3122349,-0.08872811,-0.1160783
0.3597415,-0.1723827,-0.20616
0.3326901,-0.2395808,-0.152596
0.2833444,-0.3251228,-0.07976019
0.5146337,-0.3939653,-0.1824758
1.213919,-0.718825,-0.4255265
2.016455,-1.147405,-0.5904395
1.931707,-1.098639,-0.4015606
1.68343,-0.7829562,-0.1050756
2.059403,-0.6797173,-0.2389416
1.914363,-0.3754288,-0.309436
1.525433,0.06012989,-0.07493847
1.419387,0.05397609,-0.06750971
1.002805,-0.06017222,-0.02529863
0.7254371,-0.06984437,0.05740411
0.6268199,-0.07965603,-0.08401174
0.5770769,-0.07982138,-0.1857748
0.637209,-0.126178,-0.2289392
0.4715543,-0.1141298,-0.1471651
0.4871865,-0.07974953,-0.03703254
0.5270746,-0.007678555,-0.05058596
0.5472044,0.1169164,-0.04498231
0.8355387,0.1720474,-0.1328472
0.8852108,0.2037209,-0.2415438
0.9008374,0.1675183,-0.2596316
0.8384299,0.1038038,-0.2381879
0.5967831,-0.008263749,-0.1780887
0.529592,-0.2579042,-0.1133295
0.4416862,-0.4322607,0.09665457
0.6403497,-0.4087306,0.2164724
1.319058,-0.2482549,-0.006579376
2.010411,-0.09703242,-0.172228
2.078943,-0.08979835,-0.09362665
1.813537,-0.3771937,0.007268452
2.036728,-0.7283936,0.03594887
1.972269,-0.5683317,0.07314619
1.635904,-0.2559627,0.04527313
1.496681,-0.1071106,-0.05724677
0.9414804,0.1438941,-0.08760982
0.6144974,0.1845595,-0.170565
0.5200312,0.1322236,-0.2631498
0.264934,0.1862462,-0.2669837
0.3572209,0.0811651,-0.3175003
0.3626217,0.07783499,-0.3517403
0.369819,0.09776064,-0.3776757
0.528074,-0.01573709,-0.4303803
0.4794924,-0.05105277,-0.4326003
0.50613,-0.1710273,-0.4213962
0.4766819,-0.3259599,-0.3839878
0.4303899,-0.4870555,-0.2940851
0.50685,-0.7036878,-0.199684
0.5486655,-0.7123102,-0.1878157
0.7527516,-0.5900663,-0.22849
1.089847,-0.5483657,-0.2429191
1.480781,-0.7117084,-0.276453
1.655066,-0.9843393,-0.1995003
1.332319,-1.003854,0.08372321
1.119436,-0.7440914,0.2567678
1.564195,-0.2984872,-0.08374652
2.064526,0.07167043,-0.60021
1.835887,0.008656438,-0.5247058
1.165581,-0.1629367,-0.1515359
0.5765795,-0.1406615,0.007466512
0.3929199,-0.1396545,0.08051082
0.5165273,-0.1335624,0.02677653
0.476301,-0.06182975,-0.02493293
0.7903543,-0.02993178,-0.1060886
1.307001,-0.01679675,-0.2723839
1.262876,-0.08707905,-0.215176
1.197936,-0.1471967,-0.1857504
1.149734,-0.02645893,-0.2340701
1.025154,0.1138029,-0.2830766
1.090543,0.1348375,-0.4489262
1.068214,-0.06203428,-0.3929212
1.043656,-0.4068895,-0.3068674
0.9960945,-0.6128509,-0.3216551
0.9040526,-0.6312284,-0.1969926
0.9299812,-0.5250202,-0.2005358
0.922885,-0.4047738,-0.2457617
0.936116,-0.3642165,-0.2102118
0.9191321,-0.3626988,-0.234193
0.8951443,-0.4383882,-0.2196701
0.9554848,-0.5958819,-0.2078719
0.9526699,-0.7190273,-0.1861271
0.8912358,-0.7444263,-0.1071892
1.957216,-0.1731234,0.2707747
1.808792,-0.5747672,0.3120938
1.606248,-0.5894993,0.3026042
1.345391,-0.3673118,0.2696933
1.070224,-0.1792368,0.1335939
0.7939381,-0.07193297,0.1221543
0.6190565,-0.04715881,0.1350636
0.5394221,-0.0141386,0.07496199
0.4257772,0.009916683,0.1101313
0.3670203,-0.01328184,0.1042299
0.3777146,-0.01209964,0.08631577
0.4188845,-0.01285943,0.1367273
0.5028251,-0.02904124,0.1302633
0.5690155,-0.03354853,0.1407626
0.6110859,-0.0980473,0.1452652
0.5995365,-0.2337251,0.1329605
0.5443431,-0.3617144,0.1469824
0.5209131,-0.4116513,0.1050024
0.5476234,-0.3644428,0.03121583
0.7552854,-0.3328253,-0.1553845
1.277372,-0.4101802,-0.4078765
1.764298,-0.5089833,-0.4337571
1.781358,-0.5834426,-0.2158892
1.750842,-0.6312381,0.06748926
1.903864,-0.4764744,0.1935007
1.813864,-0.1224722,0.04224912
1.744568,0.1456772,-0.09953376
1.543786,0.1954976,-0.01308833
0.8731129,0.06298651,0.03465629
0.534471,-0.1265128,0.01562325
0.5075655,-0.2720116,0.06612676
0.4908364,-0.3704827,-0.06272591
0.7833679,-0.3604496,-0.2750791
1.035532,-0.2642993,-0.3152129
1.05971,-0.1580819,-0.2579579
0.8082502,-0.04524822,-0.09871612
0.4194238,0.0809696,0.03324968
0.3259601,0.2276703,0.008316689
0.3241397,0.2661749,-0.0508008
0.4450915,0.1823502,-0.06941975
0.7701321,0.05359757,-0.0978135
0.9657201,-0.2296452,-0.1476513
0.9703815,-0.5035295,-0.1083419
0.9125856,-0.5137034,-0.04528749
1.096414,-0.2914082,-0.01755241
1.583329,0.05608426,0.009166729
2.01953,0.2206,-0.02506687
1.984227,0.05160324,-0.0004049366
1.653091,-0.1886957,0.1010587
1.486038,-0.3430839,0.181867
1.152925,-0.3565158,0.2239856
0.9466172,-0.2384559,0.1951896
1.110996,-0.1472419,0.1662304
0.8940484,-0.08984447,0.07615117
0.68882,-0.07621852,-0.02292184
0.6652966,-0.1170718,0.004477601
0.4577183,-0.06452003,0.004385161
0.479919,-0.02569606,0.01109395
0.5335782,-0.04249491,0.07600679
0.5229488,-0.001444801,0.09180527
0.6096486,-0.01308315,0.08594813
0.5689685,-0.02256785,0.04657131
0.5113651,-0.06956378,-0.01420019
0.4973392,-0.2822676,-0.03225397
0.6709156,-0.4775737,-0.08412226
0.9510679,-0.5538586,-0.245263
1.038771,-0.5667909,-0.3662605
1.378188,-0.7050702,-0.3520597
1.86342,-0.874597,-0.330403
1.756385,-0.7497922,-0.2063952
1.547715,-0.5121949,0.003502542
1.740882,-0.3118562,-0.03471693
1.746996,-0.08525439,-0.1227902
1.675901,0.1268314,-0.04213147
1.614873,0.3045141,-0.06064375
1.112445,0.2907626,-0.02808253
0.7394319,0.1184443,0.1207643
0.6356512,-0.02093109,0.09941542
0.5756944,-0.1502429,0.03468029
0.8074341,-0.1883205,-0.06032499
0.9644645,-0.1574879,-0.1770838
0.998097,-0.1864343,-0.135006
0.9420098,-0.1576428,-0.07604292
0.7171506,-0.0658127,-0.01176067
0.6221833,0.0771753,0.04894489
0.5162625,0.2469927,0.02881462
0.5099461,0.2481344,0.004310693
0.6301802,0.1470407,-0.105908
0.6672553,0.006718505,-0.2306038
0.783742,-0.2361918,-0.2568556
0.7755285,-0.4766171,-0.248434
0.7329458,-0.5684429,-0.1623775
0.8955887,-0.4529817,0.005473775
1.279074,-0.3606221,0.1238521
1.879538,-0.3116878,0.03631206
2.02865,-0.09053722,-0.05843574
1.813917,-0.009031012,0.06357
1.870143,-0.2160104,0.1104039
1.773771,-0.357901,0.04546902
1.492003,-0.3164367,0.06355845
1.307936,-0.2034968,0.08727031
0.9679719,-0.09115396,0.1000189
0.6742174,-0.01471875,0.05653268
0.5722533,-0.008136556,-0.02286797
0.4185821,0.03160922,-0.0128355
0.3454821,0.1229157,0.001503069
0.3870777,0.1026819,-0.02630401
0.3806794,0.02683122,-0.0838687
0.3822213,-0.09787488,-0.1500551
0.4534926,-0.2778174,-0.1117704
0.6091806,-0.3519653,-0.02517774
0.7316938,-0.3713442,0.05119539
0.6947865,-0.3444303,0.1506318
0.6973164,-0.253807,0.1043812
0.956004,-0.2280601,-0.08581723
1.38848,-0.3505047,-0.2049214
1.696307,-0.6669279,-0.2622457
1.655814,-0.9399737,-0.2108841
1.497386,-0.9671781,-0.0614121
1.506037,-0.9163899,-0.01296235
1.580048,-0.8656694,-0.07054358
1.598549,-0.6635677,-0.1182197
1.396443,-0.2522652,0.06923873
1.086288,0.02664427,0.3008513
1.031871,0.1029098,0.1989608
0.9617328,0.2861874,0.1307812
0.8959526,0.2764525,0.1014854
1.035039,-0.0137843,-0.1459624
0.9173215,-0.1738689,-0.1868876
0.7889758,-0.3372971,-0.02609654
0.8575266,-0.4205115,0.04816245
0.7077579,-0.2200787,0.09162603
0.5639364,-0.08045236,0.06998611
0.5219544,-0.02739242,0.01203107
0.526047,-0.03454903,-0.0367652
0.635042,-0.1052536,-0.108695
0.6677096,-0.05901621,-0.1576987
0.6938056,-0.1095421,-0.1886131
0.6177236,-0.2086601,-0.1725995
0.4561835,-0.2246169,-0.1325986
0.4922838,-0.3095623,-0.1753343
0.6108241,-0.2979769,-0.1782706
0.9647051,-0.2404762,-0.04518947
1.606102,-0.2286568,0.1181635
2.00547,-0.1573571,0.1746792
2.004682,-0.184377,0.05152283
1.959109,-0.4411332,-0.01778054
2.01423,-0.7985619,0.1066101
1.864644,-0.7962191,0.1713536
1.373429,-0.3618095,0.09215352
0.7095541,0.0198917,0.01920152
0.3030631,0.1780994,-0.02763535
0.3553907,0.1394782,-0.1413907
0.3144154,0.0775703,-0.2108275
0.3022257,-0.01862968,-0.1306608
0.55518,-0.3089347,-0.06270718
0.5123066,-0.411465,-0.003221466
0.4662897,-0.3289542,0.05046141
0.6237521,-0.3397934,0.04176753
0.6602742,-0.2553526,0.08685893
0.7497664,-0.1476916,0.07612847
0.6832416,-0.149673,-0.01509245
0.5046289,-0.2103094,-0.03004204
0.5486191,-0.3115383,0.01118846
0.6051396,-0.3760343,0.06932287
0.7602288,-0.44008,-0.01832801
1.119556,-0.5332067,-0.1846105
1.539302,-0.5982978,-0.1928357
1.733546,-0.5461357,-0.1658901
1.618819,-0.4442162,-0.1574811
1.752911,-0.4834005,-0.176709
1.924124,-0.4711152,-0.1910346
1.647879,-0.2895407,-0.03650009
1.243185,-0.1147396,0.1405589
0.8017427,-0.0153173,0.1699551
0.5543895,-0.06031406,0.09863955
0.6462832,-0.1072356,0.003266752
0.6989274,-0.1107926,-0.1438865
0.7608313,-0.2268524,-0.3150513
0.8562178,-0.2880972,-0.3131162
0.8786634,-0.3192743,-0.2278468
0.9079939,-0.3709305,-0.1654564
0.8313279,-0.2616198,-0.06809615
0.7085098,-0.1451244,-0.01894892
0.6737574,-0.07343944,0.0006712678
0.6016243,0.1078891,0.006060132
0.5165443,0.2824981,-0.007243475
0.5830049,0.1946148,-0.06431139
0.708715,-0.05204565,-0.1968954
0.7111302,-0.1397388,-0.184025
0.7210454,-0.207229,-0.0280221
0.8851702,-0.2141377,0.1103691
1.245629,-0.01828371,0.1621514
1.775945,0.05915357,0.01219977
2.037816,0.01670001,-0.07896609
1.923281,-0.2021909,0.1204158
1.841364,-0.5865082,0.3694014
1.734194,-0.6386164,0.4352989
1.502947,-0.3642903,0.2813652
1.255482,-0.04323083,0.08964132
0.9390108,0.1238616,0.007637124
0.6952412,0.09828591,-0.01471915
0.5614686,0.05789854,-0.009377618
0.4159366,-0.02555173,-0.01325088
0.3874812,-0.0749191,-0.01726014
0.4119459,-0.08186046,0.01238922
0.3676809,-0.1388691,0.03090018
0.3747292,-0.1380861,0.03492032
0.3899814,-0.1655704,0.04668912
0.369241,-0.2429463,0.06527152
0.4160647,-0.2450467,0.06955652
0.5664783,-0.2105416,0.04988096
0.7314125,-0.1718412,0.04556831
0.787649,-0.1231438,0.01850891
1.066278,-0.1994663,-0.1127116
1.745017,-0.5468392,-0.247491
1.976779,-0.854249,-0.176108
1.489219,-0.6990418,0.05697686
1.190548,-0.3228253,0.1913087
1.340814,-0.1250236,0.1520095
1.572024,0.06513505,0.05744228
1.756106,0.2949813,-0.01093431
1.682703,0.2355604,-0.04849639
1.233126,0.02503458,0.04373982
0.7232277,-0.09030403,0.1997971
0.5697806,-0.1644908,0.1054905
0.7239981,-0.1407367,-0.07591891
0.7472842,-0.0822211,-0.1454068
0.6717366,-0.06689472,-0.1902027
0.6929606,0.01458779,-0.08931925
0.6264723,0.039341,-0.01892659
0.6003314,-0.04682879,-0.05253129
0.650216,-0.04472397,-0.02152299
0.590536,0.06591792,-0.06667044
0.7232665,0.2507568,-0.1384863
1.007287,0.3536268,-0.276632
1.097327,0.2046618,-0.4285674
0.9455572,-0.04442312,-0.3485868
0.6823567,-0.3677555,-0.2753757
0.6382248,-0.6633465,-0.2471771
0.7564687,-0.7197441,-0.1559926
1.120194,-0.6483232,-0.005302187
1.830028,-0.3133423,0.195866
2.057529,0.2161115,0.08114969
1.777679,0.305532,-0.1351758
1.730952,0.06870767,-0.03723788
1.750779,-0.1170396,-0.0249741
1.643407,-0.4605213,-0.09638634
1.47435,-0.6044902,-0.03612283
1.120326,-0.3072529,-0.07085716
0.7919977,-0.1186611,-0.1031406
0.6827668,0.05514325,-0.1243857
0.6200536,0.2038229,-0.2233522
0.6181915,0.037516,-0.2309544
0.6404811,-0.08452008,-0.2502374
0.5620651,-0.2391971,-0.2764959
0.5056992,-0.3980485,-0.2183556
0.4713288,-0.3002107,-0.1729286
0.4759522,-0.3023781,-0.06868207
0.5116814,-0.3094028,0.03937257
0.4725061,-0.2427797,0.07187446
0.4916664,-0.3062558,0.123779
0.5539007,-0.3024247,0.1863722
0.6417423,-0.2901174,0.1820913
0.8375191,-0.3215579,0.04279036
0.9626848,-0.3142069,-0.1738394
1.007784,-0.3522707,-0.3785554
1.26827,-0.4342239,-0.4663208
1.672627,-0.579945,-0.3500932
1.667881,-0.6937286,-0.1395774
1.479038,-0.6888472,0.06970867
1.585456,-0.558062,0.1101335
1.529717,-0.275895,-0.02025341
1.434365,-0.02936932,-0.08749994
1.376153,0.1000219,-0.1630602
0.8104534,0.005060081,-0.1387511
0.3121243,-0.2941792,0.01506462
0.2923318,-0.3968654,-0.0445109
0.4755906,-0.4900823,-0.1482821
0.7451934,-0.7008355,-0.2111722
0.8087013,-0.5770796,-0.3021094
0.6516691,-0.1923634,-0.2088613
0.3838468,0.1917107,-0.08732505
0.2404002,0.3534796,-0.01649571
0.3762758,0.2909952,-0.03558634
0.5220989,0.3767871,-0.1799094
0.7012661,0.2710623,-0.1263626
0.8162865,-0.1418778,-0.0463928
0.8727522,-0.2765031,-0.008203556
1.177235,-0.3133739,0.1224447
1.603559,-0.3984611,0.04223233
1.928755,-0.3403216,-0.04353623
1.929914,-0.3535974,0.0114038
1.804987,-0.4118716,0.05776829
1.804706,-0.4222057,0.2268388
1.645787,-0.4025096,0.2774275
1.496811,-0.2928318,0.1281505
1.281411,-0.2077802,0.007217898
0.7806111,-0.1256533,-0.09897532
0.5485278,-0.05740083,-0.1227608
0.5270411,-0.09679589,-0.08588059
0.419007,-0.1212566,-0.04581423
0.4092798,-0.132099,0.0455036
0.4495505,-0.1477923,0.1135582
0.5328286,-0.1196912,0.1102592
0.6015194,-0.09874963,0.0568868
0.5598863,-0.09723587,0.01086821
0.4789466,-0.1253491,-0.006711942
0.4244928,-0.2438112,-0.03892574
0.5597216,-0.4160392,-0.05810342
0.7732089,-0.4238392,0.0005487644
0.8981488,-0.242917,0.07462202
1.15993,-0.1724351,-0.01994022
1.550363,-0.3376412,-0.2428163
1.644866,-0.5383707,-0.3434143
1.52494,-0.5673197,-0.1892715
1.682108,-0.567341,-0.005132764
1.837172,-0.6128152,-0.113865
1.75357,-0.4159335,-0.2105499
1.742979,-0.143705,-0.1109815
1.587525,-0.0995915,-0.1189058
1.167023,-0.07787109,-0.07361472
0.8198216,-0.06452806,0.001705156
0.6572004,-0.1705567,-0.07479078
0.5830132,-0.2593406,-0.0924544
0.6079093,-0.3112253,-0.1510194
0.8181283,-0.342796,-0.2262347
0.9141276,-0.3040543,-0.1727064
0.7507642,-0.2147091,-0.1280477
0.5646273,-0.08006408,-0.06213388
0.4332787,0.06279982,-0.04086245
0.4750071,0.1736494,-0.06991092
0.5817217,0.2511443,-0.06148799
0.6055523,0.1828501,-0.1135983
0.6184541,-0.0582159,-0.09639887
0.5793877,-0.2970041,0.001961572
0.7255381,-0.3478588,0.03311253
1.291859,-0.2580841,0.0480629
1.881151,-0.2731503,0.01650186
1.918847,-0.2742007,-0.07060738
1.793639,-0.2108817,-0.1349081
1.916948,-0.3817977,-0.03845413
1.648756,-0.5283958,0.1502097
1.412416,-0.4011172,0.1108479
1.537679,-0.2542751,0.003889834
1.240712,-0.172534,-0.02827751
0.9834579,-0.1486862,-0.1303695
0.8118792,-0.1261265,-0.1542922
0.4678229,-0.07034863,-0.1312129
0.4410434,-0.08163041,-0.1135322
0.3382728,-0.1229165,-0.03553876
0.2572885,-0.1279349,0.0009829176
0.4022585,-0.09544476,0.06615113
0.3923986,-0.06071039,0.1116617
0.4020836,-0.09067444,0.05051823
0.3289627,-0.1587269,0.005705654
0.2533949,-0.2257729,-0.02255647
0.3793149,-0.3201361,-0.03343884
0.6227772,-0.3987783,-0.0689853
1.24018,-0.4362073,-0.1983038
1.88626,-0.4949876,-0.3347876
1.91392,-0.508764,-0.3292382
1.668837,-0.4513179,-0.1715019
1.752239,-0.4397829,-0.09888757
1.89591,-0.4839871,-0.166247
1.843777,-0.4830484,-0.1907164
1.648537,-0.3054079,-0.09513758
1.156954,-0.08768678,0.02476788
0.8078715,-0.09836023,0.01526858
0.6754661,-0.1524257,-0.03857925
0.557076,-0.1268274,-0.0708043
0.7285223,-0.216385,-0.1308035
0.7237949,-0.2682828,-0.1282148
0.6160688,-0.1806239,-0.07788059
0.6775003,-0.113106,-0.02164403
0.5234921,0.007757565,0.02754918
0.4917932,0.1343192,0.02571406
0.5052013,0.1695082,0.01831998
0.4521209,0.1905786,-0.04424001
0.6182634,0.1261205,-0.1567823
0.7095983,0.02179666,-0.1785539
0.7610356,-0.0537822,-0.1406233
0.8064329,-0.1952558,-0.1193903
0.9613548,-0.3454331,-0.07055915
1.446978,-0.4456197,0.02003154
1.836383,-0.4554008,0.06643932
1.941936,-0.2816403,0.0299097
1.840207,-0.04672453,0.01035154
1.724476,-0.009917537,0.0954053
1.671942,-0.1397311,0.167028
1.476289,-0.214994,0.09961375
1.296493,-0.2439681,0.02218916
1.099302,-0.2331379,0.01323141
0.7999922,-0.1378052,-0.01825151
0.4278907,-0.02334895,-0.1023378
0.08489208,0.06819569,-0.1932962
0.211975,0.01940441,-0.1964121
0.3701107,-0.1217128,-0.1392561
0.3099353,-0.1982226,-0.09924165
0.5271537,-0.2364769,-0.006335154
0.6129623,-0.203551,0.08171775
0.555382,-0.178856,0.05991785
0.5602784,-0.1792816,0.02246037
0.3853476,-0.1355737,0.02055604
0.4583101,-0.213767,0.008394049
0.8363353,-0.2848447,-0.03762705
1.294316,-0.256488,-0.1177293
1.654532,-0.3734762,-0.1623902
1.74662,-0.6063132,-0.1216822
1.986109,-0.7451284,-0.05608081
2.077116,-0.6495333,-0.01256508
1.859891,-0.4108911,-0.01456006
1.674306,-0.1200798,-0.03741256
1.110673,0.149379,0.006052709
0.665068,0.13508,0.05202699
0.7343709,0.02553292,0.02893672
0.6833348,0.02485772,-0.03150858
0.7122629,-0.01168416,-0.105152
0.792586,0.001552135,-0.06764605
0.6082563,-0.003890181,0.04135167
0.4865764,-0.05724458,0.06488674
0.4674443,-0.02606407,0.04503719
0.4568682,-0.02897248,-0.01508238
0.440221,-0.0221389,-0.0871137
0.4536777,0.02233259,-0.1589892
0.6101932,0.007918376,-0.2776729
0.7679265,-0.04270551,-0.3132412
0.7924516,-0.1788694,-0.2756134
0.7459078,-0.2912686,-0.2648464
0.8875341,-0.2807905,-0.250436
1.395207,-0.3561226,-0.2414906
1.959141,-0.4567629,-0.2151647
2.039286,-0.2587555,-0.1860791
1.806719,0.001076341,-0.1891925
1.884118,-0.05613251,-0.1435063
1.904645,-0.1289956,-0.09702172
1.724044,-0.06491907,-0.1818379
1.641172,-0.01003385,-0.2997152
1.164826,0.1334041,-0.365828
0.655293,0.2004139,-0.457523
0.4923583,0.1287837,-0.516357
0.2970217,0.0915292,-0.5074214
0.338742,-0.06006609,-0.4712437
0.4456037,-0.2469905,-0.4006081
0.4495715,-0.2988869,-0.3834584
0.5490398,-0.3718405,-0.3964935
0.6301965,-0.4956341,-0.360832
0.9051627,-0.6259276,-0.2910269
0.4156311,-0.2287521,-0.1210229
0.4104618,-0.2991638,-0.1681439
0.505399,-0.3258043,-0.2685108
0.6023628,-0.1174546,-0.3044331
0.687129,0.12831,-0.3528449
0.6700553,0.2504313,-0.2816705
0.5975238,0.2568286,-0.1529697
0.604568,0.01553147,-0.07496759
0.6432363,-0.3589065,-0.03902696
0.8907392,-0.4452813,-0.02925196
1.463941,-0.1902916,-0.01821731
1.946468,-0.1069325,-0.1053752
1.959754,-0.3337452,-0.1990141
1.712937,-0.4936855,-0.1241414
1.451341,-0.4235013,0.155564
1.080887,-0.2927624,0.4037731
0.8480632,-0.2197038,0.06977912
0.8639933,-0.1084954,-0.465506
0.7843062,-0.1034173,-0.4261989
0.7390117,-0.2282897,-0.1780565
0.7086084,-0.2628223,-0.01836704
0.5259621,-0.2735561,0.1211632
0.4180566,-0.1427177,0.1236904
0.335756,0.07614629,0.1877949
0.3452725,0.1132126,0.1906021
0.4143306,0.1110148,-0.005800023
0.3229404,0.05630453,-0.07258928
0.3720841,-0.1059643,-0.1116567
0.6175717,-0.2528438,-0.2169841
0.9572555,-0.3423663,-0.4031284
1.423263,-0.4771322,-0.773765
1.811817,-0.6896105,-0.9657173
1.894852,-0.6361883,-0.7943725
1.724179,-0.4645541,-0.3784325
1.750903,-0.4741073,-0.05055247
1.79073,-0.3973533,-0.2995303
1.538475,-0.3365215,-0.5943176
1.338183,-0.3349141,-0.3243834
1.020631,-0.2857984,-0.1690213
0.7641103,-0.3277252,-0.328433
0.7183678,-0.2644773,-0.2411157
0.4628622,-0.1517911,-0.1552158
0.4418452,-0.1228282,-0.1805972
0.6053749,-0.03524436,-0.07586526
0.586884,0.006455692,-0.07503599
0.6447097,0.07219252,-0.127025
0.574811,0.1218911,-0.1630149
0.406003,0.04668263,-0.2249103
0.2721306,0.05462078,-0.212225
0.1678435,0.02091541,-0.252019
0.3592399,-0.1347789,-0.2417929
0.7310035,-0.2555661,-0.1575048
1.296803,-0.319696,-0.142854
1.93764,-0.3495435,-0.1755511
2.050219,-0.4738512,-0.3831436
1.871649,-0.5715756,-0.5171099
1.749068,-0.4266418,-0.2188219
1.315352,-0.2025744,0.1523907
0.828782,-0.08615023,0.1445016
0.6802007,-0.08613256,0.03743455
0.5618348,-0.1421946,0.1381402
0.5182086,-0.1838378,0.1299923
0.5420259,-0.105721,0.03310232
0.3978455,0.04666406,-0.04030954
0.3381903,0.1189347,-0.1791238
0.3547428,0.1628611,-0.1287973
0.315307,0.1645407,-0.0658323
0.2621736,0.1032444,-0.1208506
0.1478647,0.03254743,-0.05603422
0.1240476,-0.07592847,-0.04633228
0.1635274,-0.0944491,-0.09417465
0.2947485,-0.1129082,-0.2468937
0.9276683,-0.4439987,-0.6525588
1.800786,-0.9235363,-0.9939933
1.953236,-1.053997,-0.9858737
1.472614,-0.7084923,-0.4057518
1.395638,-0.259342,0.2142218
1.632315,0.07020298,-0.07951445
1.655408,0.1574137,-0.4903998
1.490738,-0.03928541,-0.2549255
1.066387,-0.1214877,-0.1093898
0.7003449,-0.07945597,-0.00751448
0.583122,-0.1167845,0.03265818
0.4757185,-0.09575016,-0.2555917
0.4243574,-0.09878313,-0.2334625
0.4110831,-0.1053213,-0.2031643
0.4486945,-0.05995219,-0.3270626
0.5342787,-0.04810023,-0.2067726
0.5889268,0.05949592,-0.2700402
0.5787726,0.2098916,-0.3024893
0.5142503,0.2419402,-0.2584345
0.6877037,0.05538231,-0.3407653
1.105742,-0.2598697,-0.2050588
1.606371,-0.3797853,-0.1032146
1.969628,-0.3461188,-0.07631323
1.93158,-0.273246,-0.1640313
1.845824,-0.1440055,-0.357183
1.774944,-0.1154336,-0.2415215
1.583008,-0.231109,-0.1990083
1.459976,-0.35185,-0.2785082
1.208882,-0.3591878,-0.2074786
0.8798615,-0.3173418,-0.1847384
0.6915277,-0.2630475,-0.1457088
0.5596869,-0.1092912,-0.1628992
0.5288851,0.001354765,-0.2262611
0.5320657,-0.01271973,-0.1666297
0.4806555,-0.01483093,-0.1291203
0.4086487,0.002318919,-0.1010416
0.3511492,0.008050892,-0.03617914
0.3663057,0.008671983,-0.0004060869
0.3962733,-0.01096929,0.01870501
0.4047385,-0.05135721,0.01129073
0.3956421,-0.1405616,0.004679049
0.3733239,-0.2382181,0.02059125
0.4567281,-0.2220167,-0.006015484
0.752844,-0.1783794,-0.2184066
1.055804,-0.219416,-0.7351684
1.085216,-0.2533728,-1.158591
1.322888,-0.4335719,-1.058413
1.884443,-0.8380752,-0.8473011
1.804166,-1.006442,-0.5136507
1.419457,-0.8040582,0.09349715
1.527797,-0.5209629,-0.05638962
1.674047,-0.1685299,-0.6123722
1.777849,0.09788288,-0.4880831
1.532194,0.01264419,-0.2864756
0.8995091,-0.06417239,-0.04088011
0.7050277,0.02794975,0.1114511
0.4859991,-0.0700774,-0.1807065
0.3425258,-0.1435694,-0.1445194
0.7411564,-0.04610907,-0.2444531
0.8391884,-0.05335994,-0.5255611
0.869435,-0.07186708,-0.3238533
1.038983,-0.1017753,-0.2663071
0.9099535,-0.1486643,-0.206734
0.6881106,-0.0940051,-0.02210185
0.4063714,-0.05302862,0.01737087
0.3875267,0.02942683,0.004420786
0.6381732,0.1679392,-0.2613222
0.6971061,0.176245,-0.3738814
0.6916189,-0.01564546,-0.2655662
0.6536737,-0.3183602,-0.2165497
0.6857595,-0.5237331,-0.0626405
0.9679789,-0.4816188,0.05667719
1.467059,-0.141536,0.1055591
1.93733,0.2261286,-0.03134471
1.930663,0.1806539,-0.192107
1.697643,-0.229941,-0.04180033
1.556282,-0.5405089,0.09115233
1.365893,-0.4937334,0.1188866
1.175284,-0.3290629,0.05218262
0.962326,-0.2344346,-0.1223036
0.8065579,-0.1028227,-0.1694008
0.7512623,-0.03118257,-0.1376403
0.6472789,-0.07552764,-0.1061762
0.5787884,-0.05576911,-0.08629209
0.4911088,-0.01720887,-0.09069449
0.3618632,0.002758822,-0.06896097
0.3037106,0.06159382,-0.001149332
0.2486269,0.04369804,0.1135477
0.2569545,-0.01629116,0.1416846
0.4097725,-0.104156,0.007554685
0.6747969,-0.2759614,-0.2027429
0.8852853,-0.3784369,-0.3621321
0.9088431,-0.4102658,-0.3917585
1.085225,-0.4537082,-0.4599419
1.622091,-0.5509547,-0.7142213
1.993806,-0.6655412,-0.8637681
1.750817,-0.6087982,-0.4989819
1.450019,-0.4115679,0.005089722
1.594283,-0.1448045,-0.0655656
1.757892,0.1196362,-0.409235
1.774051,0.1874866,-0.4676966
1.435185,0.1175565,-0.2150714
0.6874023,0.05064859,0.1485161
0.4316915,0.0115325,0.1458477
0.5323505,-0.037531,-0.04049104
0.5279088,-0.1515465,-0.1074071
0.8155705,-0.2615676,-0.3974881
1.052643,-0.2776223,-0.469774
1.059877,-0.1727673,-0.2634896
1.001237,-0.002078888,-0.2992172
0.7635783,0.2066148,-0.1905205
0.6041605,0.3890574,-0.0900484
0.4924326,0.39523,-0.1585256
0.389054,0.3122563,-0.04295061
0.3797745,0.1887538,-0.03600551
0.333433,0.008191393,-0.1119845
0.40821,-0.1200163,-0.1299312
0.7640559,-0.267616,-0.1374044
1.425806,-0.4581742,-0.02466215
1.868518,-0.5365811,-0.05617632
1.808873,-0.4251606,-0.3450897
1.894123,-0.2785675,-0.5934185
1.791616,-0.1369633,-0.3326997
1.398557,0.0737324,0.2730352
1.630419,0.05369786,0.3720051
1.845554,-0.08781417,-0.02018146
1.518668,-0.092144,-0.3741325
1.257318,-0.1339122,-0.349371
0.7699728,-0.06704534,-0.1310116
0.2691906,0.06327854,-0.1322505
0.3052985,0.1050971,-0.02631294
0.3447845,0.08469624,-0.0004919294
0.4650245,-0.1557765,-0.1869243
0.8198899,-0.3979164,-0.1628182
0.9458417,-0.4675969,-0.2638918
0.9851754,-0.4629645,-0.3108718
0.9511551,-0.3682307,-0.1533324
0.7404024,-0.2251376,-0.1059742
0.7038985,-0.09292408,0.05323155
0.805115,-0.06696011,0.08476874
0.8312212,-0.03569771,-0.04832189
0.82153,0.08173027,-0.07438482
0.7879831,0.132773,-0.03550641
0.7292527,0.1183268,0.09615381
0.6232769,0.05296268,0.03502948
0.6603177,-0.05634892,-0.2262833
1.180126,-0.3316107,-0.5357735
1.854128,-0.6957412,-0.8157831
1.997204,-0.8553858,-0.7778996
1.829528,-0.9239437,-0.4987115
1.932749,-0.7965047,-0.1826236
1.909547,-0.4743329,-0.1848572
1.394274,-0.2612165,-0.251435
0.8435808,0.0418409,0.1434971
0.6272838,0.2353682,0.2932853
0.8115785,0.09443097,0.04169467
0.9316102,0.05603685,-0.1445313
0.791521,-0.001783998,-0.2250274
0.7376304,-0.1493731,-0.1198008
0.5440509,-0.08461738,-0.1063105
0.4565382,-0.07952201,-0.0890115
0.6266235,-0.154763,-0.01552495
0.6180568,-0.1631952,-0.1636164
0.7328712,-0.2515138,-0.1976656
0.7682545,-0.2359575,-0.1668927
0.6656452,-0.1083809,-0.1945091
0.873345,0.06966057,-0.2002361
0.9383709,0.3034105,-0.2646204
0.863153,0.2396694,-0.2045542
0.8269025,0.06896759,-0.1344905
0.6816582,0.005185624,-0.1413106
0.6080725,-0.2912066,-0.1978321
0.5938903,-0.5619749,-0.3217942
0.8362289,-0.5512291,-0.2473536
1.411378,-0.4098771,-0.09296937
1.881928,-0.1348526,-0.04521035
1.925665,-0.01601667,-0.1458917
1.589041,-0.133353,-0.2963917
1.386209,-0.2140711,-0.09413417
1.450136,-0.3098314,0.1317028
1.505245,-0.3641109,0.01328096
1.488081,-0.3166292,-0.1215629
1.288239,-0.2990099,-0.2399877
0.9198929,-0.2477429,-0.2785075
0.5744448,-0.1256645,-0.1488564
0.4099429,-0.04655534,-0.09497388
0.3923145,-0.05526037,-0.04364143
0.4330987,-0.08863099,0.0511012
0.5344991,-0.1168204,0.04211564
0.5575483,-0.1193749,0.01823095
0.5055285,-0.0614024,0.005082799
0.4134632,-0.03095862,0.003041413
0.2717422,-0.09628923,0.02376456
0.261336,-0.1961986,0.01677976
0.4490517,-0.2841175,0.01904946
0.814337,-0.4175128,-0.07626339
1.245678,-0.5584938,-0.413688
1.666263,-0.5931957,-0.8563579
1.868425,-0.5826855,-0.9548162
1.496217,-0.528498,-0.5110984
1.140834,-0.4164912,-0.1791371
1.38682,-0.199364,-0.3569553
1.716833,0.2751521,-0.5517428
1.878582,0.5293273,-0.5747443
1.740652,0.1496998,-0.4669231
0.9939699,-0.1439595,0.07486642
0.3517093,0.01536677,0.622728
0.4079818,0.04318151,0.4095065
0.4927929,-0.05653499,0.003148176
0.4889441,-0.01469551,-0.137327
0.8724914,-0.1032924,-0.4643903
1.110748,-0.2374917,-0.5803186
0.983758,-0.2134361,-0.3105421
0.9296731,-0.1495022,-0.1976419
0.6742854,0.03044645,-0.07818836
0.4024558,0.224828,-0.01662235
0.3753135,0.2615314,-0.09568329
0.2492482,0.2251363,-0.03589025
0.32255,0.1459386,-0.07244461
0.5091977,0.01809485,-0.1533729
0.6681223,-0.2278593,-0.2057158
1.051499,-0.4218519,-0.3171939
1.384108,-0.3313379,-0.2371613
1.786497,-0.1254726,-0.1120631
1.982946,0.02785449,-0.04591609
1.703671,-0.04011035,-0.008866367
1.65006,-0.2872697,-0.02560982
1.722095,-0.4307842,0.0692811
1.651557,-0.4708285,0.03682458
1.500924,-0.3684428,-0.1542995
1.123015,-0.1969944,-0.2261783
0.7536826,-0.1161452,-0.208292
0.5322323,-0.002258478,-0.09800642
0.3917544,0.04249501,-0.03199251
0.3251558,0.007354578,0.002879843
0.3182964,0.03836355,0.09621742
0.4063253,0.02562461,0.08067846
0.5031953,0.02198306,0.05646402
0.5156695,0.01726685,0.009069139
0.4032109,-0.06905785,-0.06581989
0.3225705,-0.1551465,-0.00440432
0.5057836,-0.2736483,-0.02562289
0.8179524,-0.3415448,-0.2386507
1.125876,-0.3317053,-0.4730394
1.51197,-0.4414302,-0.505744
1.79785,-0.6600445,-0.4074527
1.680414,-0.7236085,-0.3955005
1.443944,-0.4662591,-0.1528054
1.480009,-0.1644384,0.06889749
1.697187,-0.03635615,-0.4128645
1.873132,0.0947523,-0.8347187
1.503484,0.1657208,-0.3182325
0.7843681,0.06918036,0.2368175
0.5919776,0.0169505,0.09914419
0.5707846,0.001808984,-0.03655484
0.4542421,-0.07574907,-0.05680252
0.5967442,-0.1186454,-0.2535745
0.718827,-0.1724802,-0.3098502
0.8365677,-0.2073673,-0.3170109
0.9005498,-0.1541628,-0.3195547
0.7221475,-0.111805,-0.1908607
0.5878589,0.01601541,-0.1094607
0.44418,0.182908,-0.02899307
0.3268508,0.2143296,-0.003865315
0.3570379,0.1735881,-0.02189954
0.4608531,0.006689635,-0.06293555
0.7874278,-0.2386216,-0.2722331
1.299087,-0.3261187,-0.3599531
1.80885,-0.2835588,-0.3071341
2.019579,-0.2933765,-0.3238245
1.884984,-0.3650374,-0.2782877
1.797487,-0.3696175,-0.1030331
1.729751,-0.2708492,0.1190901
1.641746,-0.1611448,0.07777688
1.584732,-0.1931187,-0.2601475
1.399126,-0.2455509,-0.4739364
1.167758,-0.1291581,-0.3785561
0.7753599,-0.04667005,-0.1421072
0.3330224,-0.0115524,0.0004037272
0.2406079,0.04406199,0.07590921
0.2031613,0.02397353,0.08755625
0.2005977,0.02796824,0.04146402
0.4056984,0.005770452,0.07863018
0.5723118,-0.06655713,0.04044149
0.7447729,-0.1077509,-0.06009593
0.739732,-0.155105,-0.1641149
0.5072942,-0.1378548,-0.2719529
0.4293943,-0.1361217,-0.1056359
0.5223277,-0.2222925,-0.005013985
0.8165238,-0.3635188,-0.3291073
1.266416,-0.5428538,-0.6172526
1.712494,-0.579889,-0.6561069
1.938269,-0.6241245,-0.6750065
1.884799,-0.7571354,-0.587362
1.915146,-0.6068139,-0.290757
1.830774,-0.2899415,-0.2146328
1.549479,-0.03950472,-0.2751972
1.281466,0.1913728,-0.1380134
0.9730097,0.2384146,-0.1473922
0.9362597,0.198251,-0.1821517
0.9289537,0.1520107,-0.1367704
0.728392,-0.09833055,-0.1822534
0.622509,-0.2668576,-0.1224755
0.5298342,-0.2724897,-0.1351192
0.5448405,-0.3751074,-0.1906326
0.5287927,-0.4109556,-0.1762514
0.4921368,-0.3514302,-0.2446581
0.5604643,-0.2092841,-0.2424626
0.4520351,0.08710992,-0.2589209
0.3842209,0.2682108,-0.2126792
0.3181442,0.2482942,-0.02507897
0.278672,0.09524957,-0.02816566
0.2135365,-0.3462509,-0.05552286
0.4904334,-0.4701823,-0.1848697
1.129911,-0.5105052,-0.3446493
1.713595,-0.7671106,-0.6769275
1.845053,-1.103707,-0.8778444
1.761184,-1.198399,-0.6293429
1.831449,-0.8427034,-0.2038159
1.857155,-0.2533091,0.2093444
1.7781,0.1845381,-0.2239565
1.437672,0.1560707,-0.7720904
0.6842114,-0.009081,-0.09648836
0.2340114,0.1176464,0.3945979
0.2543982,0.068238,0.08810484
0.3037907,-0.04981044,0.0348923
0.4798045,0.05700723,-0.07682313
0.7708081,-0.03532229,-0.4130297
1.064938,-0.1684738,-0.4072076
1.153548,-0.2262504,-0.2964223
0.8530572,-0.2531385,-0.2221695
0.5375448,-0.1003828,-0.03147393
0.3579646,-0.02029475,-0.02939762
0.2114916,0.03508002,-0.173577
0.1488298,0.08193078,-0.1777874
0.2112158,-0.01770441,-0.1396284
0.5903571,-0.0697606,-0.03845573
1.276567,-0.1064326,0.1528465
1.812841,-0.1354532,0.1036689
1.932599,-0.3110201,-0.5085292
1.967507,-0.7240207,-1.089785
2.004684,-0.8551883,-0.5826339
1.722838,-0.6006027,0.1929572
1.284556,-0.3347881,0.03502671
0.8316177,-0.1754039,-0.2514531
0.444454,0.01427345,-0.31522
0.257719,0.1922913,-0.3499532
0.08864651,0.1831257,-0.1232305
0.09544467,0.1405446,-0.05594628
0.2324832,0.09213576,0.0712828
0.3362736,-0.03294369,0.3784218
0.5806879,-0.09405505,0.3373859
0.639453,-0.1055807,0.2601864
0.5582348,-0.1269374,0.0776787
0.6167567,-0.1774576,-0.1768997
0.6399035,-0.2724688,-0.2101679
0.7337442,-0.4350314,-0.4512366
0.9907081,-0.6054509,-0.7177495
1.484277,-0.6770968,-0.7960247
1.914614,-0.7844665,-0.8250015
1.750997,-0.7968372,-0.5048085
1.449621,-0.5887118,0.07793658
1.378366,-0.4322279,0.2295899
1.357041,-0.1462059,-0.3296761
1.390079,0.2109201,-0.7765868
1.252649,0.1278359,-0.5053058
0.7890787,-0.04515932,-0.05612027
0.1730194,-0.02411182,0.191813
-0.1266679,-0.1443558,0.2237767
0.1717487,-0.1845817,0.02605976
0.465609,-0.08522701,-0.07257129
0.6555957,-0.1394576,-0.08016203
0.9496424,-0.02982772,-0.2733031
0.9922608,0.1319516,-0.4354372
0.9043824,0.03466026,-0.4520114
0.6098638,0.03633963,-0.2861525
0.2502527,0.07112533,-0.06828188
0.2361533,0.01272337,-0.09124281
0.2049164,-0.03972374,-0.05911244
0.4656182,-0.1989104,0.006896656
1.174845,-0.2768866,-0.07337519
1.825353,-0.2577593,-0.1603603
2.125131,-0.338524,-0.4134945
1.935545,-0.4375737,-0.514132
1.920205,-0.4817632,-0.04074081
1.879243,-0.4349192,0.3940394
1.357471,-0.3407856,0.02341065
0.987268,-0.20535,-0.4933069
0.5984529,0.0295535,-0.3467991
0.2655518,0.2022779,-0.2354159
0.2091284,0.2091031,-0.2315884
0.08047231,0.1918856,-0.03402103
0.1122936,0.1733918,-0.02123335
0.1859921,0.06755151,0.1018055
0.179762,-0.05242137,0.1763504
0.2376749,-0.1352549,-0.009892341
0.2042061,-0.1993457,-0.04164154
0.2906834,-0.2642964,-0.1195764
0.5715397,-0.3960253,-0.2190507
0.8395026,-0.5046096,-0.3443996
1.087448,-0.502976,-0.6253747
1.517667,-0.5518212,-0.7119835
1.940323,-0.6476525,-0.613799
1.755079,-0.6041267,-0.3391604
1.587335,-0.431066,-0.01082659
1.900311,-0.04887507,-0.03588775
1.843253,0.3460596,-0.2485009
1.432789,0.2350838,-0.2672627
0.9216433,0.06497769,-0.01513452
0.4893564,0.1621925,0.2058504
0.5543368,0.01005751,0.08574883
0.5990819,-0.12632,-0.1635842
0.5879651,-0.1378541,-0.2975928
0.7211465,-0.2963966,-0.3926759
0.6140124,-0.2420032,-0.3402568
0.5674742,-0.1437391,-0.1822553
0.6367958,-0.1167984,-0.2092508
0.674687,0.1333605,-0.242478
0.7791327,0.3502619,-0.2994173
0.7219874,0.425448,-0.431989
0.6411347,0.2265964,-0.3745397
0.6514803,-0.2149911,-0.3826056
0.7807864,-0.3743272,-0.4078853
1.391425,-0.3431489,-0.1650913
2.091745,-0.3808583,0.02765932
2.06261,-0.3749265,-0.02231157
1.757545,-0.2391804,-0.06469835
1.798081,-0.1066539,0.1338492
1.615483,-0.1845895,0.2021139
1.377154,-0.2915929,-0.119888
1.262831,-0.3296823,-0.3694807
0.8074869,-0.3306524,-0.2626278
0.6871381,-0.2053465,-0.01813856
0.5993458,-0.06185276,0.06573834
0.2655525,0.07205492,0.05495911
0.5769016,0.09494791,-0.04583961
0.7225323,-0.05038603,-0.2676449
0.642115,-0.1568126,-0.3388366
0.827658,-0.2147773,-0.3090032
0.6632546,-0.1908253,-0.1855581
0.6443451,-0.1190033,-0.02101738
0.7028778,-0.09628375,-0.02067718
0.5750268,-0.05774398,0.01020471
0.6240049,-0.09287891,0.1068378
0.516428,-0.1352152,0.2216846
0.5700677,-0.1264281,0.2453584
0.7812258,-0.2078532,-0.002838433
0.80886,-0.2909899,-0.4144992
1.032546,-0.4318825,-0.8594592
1.440087,-0.7431612,-1.067872
1.82579,-0.9543106,-0.9319823
1.67985,-0.840271,-0.4278117
1.331037,-0.5932094,0.2533036
1.570685,-0.3450101,0.2138124
1.714701,0.004783787,-0.4568687
1.635851,0.1380894,-0.6810225
1.282147,0.01453755,-0.2396874
0.4339326,0.05752597,0.1988653
0.25103,0.05780401,0.01679686
0.4465348,-0.08859714,-0.2229415
0.3504761,-0.1821231,-0.1416785
0.6548461,-0.255398,-0.3613405
0.9567842,-0.2662987,-0.4635385
1.019854,-0.2730512,-0.2868895
1.038282,-0.1788339,-0.2979938
0.7509742,0.04112619,-0.1227839
0.5344911,0.1236907,-0.0255361
0.4611907,0.1455879,-0.1227861
0.4322923,0.13014,-0.05994517
0.4731227,0.04219392,-0.1107005
0.4991315,-0.0571747,-0.1489778
0.7829175,-0.1981148,-0.2110562
1.082835,-0.2535052,-0.3498285
1.432711,-0.2447525,-0.298558
1.983867,-0.2492182,-0.328693
2.045124,-0.2448372,-0.446709
1.848958,-0.3199481,-0.4009685
1.822233,-0.3939429,-0.03162312
1.66432,-0.3733146,0.3940682
1.452832,-0.2920149,0.208809
1.211677,-0.1929514,-0.1814202
0.8812103,-0.104986,-0.2393233
0.5736587,0.02802263,-0.2508418
0.3063737,0.1299575,-0.1813902
0.1813549,0.120427,-0.06861344
0.2245379,0.09036504,-0.008692301
0.3354613,0.04931671,0.1769271
0.4873693,-0.02483192,0.209091
0.5434394,-0.0857346,0.04574913
0.4942745,-0.1524266,-0.03361801
0.5775982,-0.2832326,-0.05142434
0.7597098,-0.4071232,-0.05192673
0.9185599,-0.4264237,-0.251118
1.001793,-0.3888169,-0.4769973
1.155651,-0.3821666,-0.4119295
1.652014,-0.4320002,-0.35295
1.972146,-0.4936306,-0.317822
1.83176,-0.4928224,-0.1968975
1.758278,-0.3697736,-0.06545512
1.734768,-0.1719872,0.04134885
1.730214,-0.06278974,-0.178123
1.724752,-0.06174316,-0.4568424
1.265459,-0.06026515,-0.1501219
0.6323654,-0.02695743,0.1786339
0.4608178,0.00843342,0.01598321
0.6001864,-0.02060787,-0.06546962
0.6638064,-0.0993443,-0.1416068
0.7818575,-0.1606596,-0.3856924
0.9483873,-0.2217142,-0.3718066
0.8763111,-0.2296972,-0.2895385
0.698486,-0.1310532,-0.2390815
0.4736875,0.03124239,-0.1091327
0.354654,0.2301348,-0.08728353
0.5474167,0.3578011,-0.07422639
0.6831449,0.3279193,-0.07012554
0.7417694,0.1427481,-0.1833767
0.7766433,-0.1845328,-0.2871849
0.7265691,-0.4580836,-0.2653111
0.9343623,-0.5072707,-0.1195737
1.361885,-0.3625119,-0.03721484
1.814104,-0.02956926,-0.1168641
1.984914,0.3092555,-0.288603
1.762161,0.303894,-0.3703702
1.701484,0.05627029,-0.1810075
1.67087,-0.1039326,-0.01942526
1.432899,-0.2137462,-0.205711
1.222814,-0.2325863,-0.3912968
0.8265559,-0.05957902,-0.3374227
0.3618212,0.08702425,-0.3655975
0.2362235,0.1526397,-0.4089632
0.2864476,0.1895793,-0.2972319
0.2426098,0.1527751,-0.269847
0.2550142,0.05742246,-0.2066632
0.3614927,-0.07128456,-0.1459574
0.4055214,-0.1791113,-0.2789942
0.5131626,-0.2874962,-0.3024895
0.4156779,-0.3046617,-0.2559562
0.2083182,-0.2510295,-0.2263536
0.4712227,-0.3867841,-0.1648862
0.8941259,-0.546778,-0.3056965
1.445484,-0.6812047,-0.5195248
1.912383,-0.8669087,-0.5606866
1.701735,-0.8741655,-0.4329369
1.604194,-0.7780676,-0.3268911
1.888613,-0.4351929,-0.4384887
1.833516,0.1408342,-0.5011166
1.462873,0.2432277,-0.3211258
0.9304677,0.08670749,0.00113773
0.6054813,0.1683087,0.2411422
0.7367252,0.06839545,0.04697639
0.7104538,-0.1501941,-0.2602739
0.5145194,-0.1329066,-0.2230343
0.5087006,-0.1362491,-0.1799489
0.504411,-0.2048438,-0.2215477
0.6122352,-0.2009742,-0.1674624
0.7523517,-0.1336854,-0.1814428
0.6551511,0.04467964,-0.1917583
0.5455211,0.1906007,-0.1561078
0.4636084,0.2016404,-0.1373595
0.4422653,0.150549,-0.02990165
0.5949095,0.01199718,-0.01981368
0.7517804,-0.1937208,-0.1939232
0.7973105,-0.3341553,-0.3760357
0.7899362,-0.3804444,-0.5609882
0.9180291,-0.5057543,-0.7606231
1.190097,-0.5700425,-0.7860093
1.582264,-0.3291786,-0.5722295
2.060867,-0.04887013,-0.4998647
2.104388,0.006376056,-0.5510873
1.883226,-0.3800323,-0.4346397
2.014169,-0.8641131,-0.3643034
1.894848,-0.6878727,-0.3923463
1.337865,-0.3630944,-0.4179242
0.9539452,-0.2851799,-0.3888273
0.6355216,-0.009699893,-0.2796134
0.3442343,0.2182118,-0.2139853
0.1282618,0.3414625,-0.187061
0.02511197,0.4101471,-0.2150628
0.1042174,0.2280125,-0.192938
0.101174,-0.0009309676,-0.1042406
0.1955278,-0.3340451,-0.09780365
0.3826487,-0.519117,-0.0390527
0.5749893,-0.3454148,0.05868537
0.8133786,-0.2683493,0.1259644
0.6830214,-0.1367292,0.03467871
0.5175944,0.002387522,-0.1914911
0.4288644,-0.1102136,-0.192363
0.2373855,-0.2122369,-0.1713779
0.5551876,-0.51811,-0.3464137
1.304521,-0.9258238,-0.6823045
1.987782,-0.9334091,-0.956567
2.065888,-0.8151073,-0.6097733
1.726753,-0.6979177,-0.1246326
1.820874,-0.2484708,-0.144716
1.683103,0.2779936,-0.234622
1.143313,0.3494467,-0.2140898
0.7712053,0.08359914,-0.1707039
0.3493814,-0.1612137,-0.1002693
0.2839991,-0.3713399,-0.1431434
0.3659596,-0.5601399,-0.2136964
0.3769192,-0.6071806,-0.2653162
0.7787085,-0.4742393,-0.3908374
0.8785787,-0.2545899,-0.475263
0.6591236,-0.03314857,-0.4893997
0.4882742,0.1707199,-0.4600597
0.221574,0.3617377,-0.3383871
0.2707753,0.433513,-0.1985506
0.445009,0.3149741,-0.02742431
0.5352904,0.2147565,0.1039012
0.6898665,0.08830863,-0.06576152
0.8510528,-0.2080845,-0.3815902
1.149867,-0.329399,-0.4688088
1.519231,-0.2219158,-0.3103094
1.955419,-0.2074938,-0.2152097
2.080794,-0.296293,-0.4211103
1.800083,-0.4372693,-0.525432
1.814743,-0.5687876,-0.08282842
1.697304,-0.5062902,0.2795103
1.331524,-0.3136917,-0.07909617
1.188809,-0.1578986,-0.506586
0.809047,0.03347616,-0.4423141
0.4685245,0.1681379,-0.3097999
0.3704569,0.1238019,-0.2267235
0.197816,0.06098668,-0.08039642
0.2212019,-0.03387002,-0.04533683
0.2227193,-0.1165435,-0.006839759
0.1569955,-0.1079234,0.02433995
0.1520827,-0.1415559,-0.05197701
0.0007325932,-0.1783447,-0.09122104
0.03241412,-0.3265119,-0.1460791
0.360897,-0.6451701,-0.1748964
0.8538906,-0.7541324,-0.2202578
1.447668,-0.5240217,-0.4405962
1.909403,-0.3348684,-0.6429597
1.920242,-0.4449838,-0.5882242
1.494504,-0.5637576,-0.1587265
1.41182,-0.5285896,0.1636959
1.642293,-0.3952572,-0.1401155
1.69182,-0.1374383,-0.4653777
1.750566,-0.00454428,-0.4218687
1.607021,0.05706891,-0.4644804
1.105292,0.06024093,-0.4009076
0.4759156,-0.1837354,-0.09439898
0.3615714,-0.2230451,-0.1854111
0.6992172,-0.1806228,-0.3145026
0.5505167,-0.2967235,-0.1392118
0.541126,-0.2005319,-0.2187348
0.695421,-0.1575101,-0.2250504
0.4323573,-0.1257399,-0.1547255
0.4244054,0.03231658,-0.2899169
0.2869616,0.01263081,-0.224049
0.06748466,0.01607909,-0.1775746
0.2115591,-0.05773012,-0.1508176
0.3122791,-0.1964513,-0.0772629
0.7736786,-0.09680015,-0.2256552
1.511366,0.03585686,-0.2899515
2.035836,0.09712132,-0.3201111
2.069958,-0.176173,-0.4620779
1.76822,-0.6968027,-0.5059785
1.79713,-0.7726155,-0.2525665
1.511305,-0.4647834,0.06847906
1.008469,-0.2019149,-0.2424853
0.9604835,-0.07787485,-0.6340421
0.7173291,0.007374281,-0.4812313
0.4934801,0.1076391,-0.3662103
0.4218588,0.07389694,-0.2305622
0.2852972,-0.03879069,-0.0378883
0.3230228,-0.1097637,-0.03301664
0.2500243,-0.1617027,0.08876068
0.2098917,-0.1147802,0.191652
0.203742,-0.0606907,0.1165159
0.05495878,-0.1119476,0.003286206
0.02445858,-0.1613508,-0.2010865
-0.0169421,-0.2936002,-0.3370388
0.2396072,-0.4843655,-0.4024293
1.195574,-0.6089888,-0.6389647
2.197618,-0.7820537,-0.9467158
2.109241,-0.8038602,-0.9527705
1.460927,-0.6157299,-0.4537642
1.507254,-0.4735952,-0.009218842
1.431381,-0.2008333,-0.1671969
1.433484,0.1180747,-0.4523309
1.833303,0.2094878,-0.4629243
1.238012,0.1262152,-0.3182179
0.6166396,-0.08357484,-0.06254204
0.5764263,-0.1256095,0.00953668
0.450563,-0.1029072,-0.1684148
0.637365,-0.2452885,-0.2470029
0.7077147,-0.2003482,-0.3257654
0.7391628,-0.1211961,-0.3938635
0.7963764,-0.08678503,-0.3165076
0.5579551,0.04094286,-0.3004276
0.4920128,0.04967735,-0.281871
0.3209491,0.08477763,-0.2658276
0.2382333,0.03445687,-0.3078072
0.3377547,-0.1726658,-0.2734815
0.7914609,-0.1647935,-0.3657654
0.8823537,-0.1423842,-0.2967266
0.8119296,-0.07812334,-0.2628999
0.6661205,-0.03826879,-0.1672763
0.5420754,-0.0350081,-0.08168485
0.4311435,0.01625018,-0.1977502
0.4046497,0.08680307,-0.2390793
0.3631495,0.07466968,-0.2621843
0.4744793,-0.0470611,-0.2660836
0.9499662,-0.1630898,-0.2251157
1.635896,-0.1432546,-0.2998352
2.058321,-0.1576249,-0.4878232
1.924402,-0.405735,-0.733386
1.675612,-0.5986151,-0.6575201
1.457071,-0.5356328,-0.244583
1.161923,-0.4739382,0.004566029
1.051742,-0.4060875,-0.03619004
0.8727004,-0.1800729,-0.2084991
0.5756145,-0.01838741,-0.2384189
0.4932525,0.03088902,-0.1707597
0.3821652,0.1408715,-0.1810079
0.3048209,0.1965611,-0.1566035
0.3503363,0.1910497,-0.1713977
0.2800183,0.2050325,-0.1785248
0.2252724,0.1237586,-0.1350398
0.1280675,-0.03869501,-0.1438535
0.0718196,-0.2606009,-0.09412678
0.3916504,-0.4798949,-0.1129906
0.8851111,-0.6414592,-0.264253
1.358715,-0.748926,-0.5520775
1.807359,-0.6231934,-1.113696
1.98566,-0.5095548,-1.445771
1.781988,-0.6381447,-1.017631
1.52184,-0.7212417,-0.341344
1.356615,-0.7274988,-0.2022699
1.30561,-0.4788184,-0.4362366
1.307074,0.0465732,-0.5149498
0.9049262,0.2216361,-0.353621
0.4846259,0.0458251,-0.1268394
0.5134999,-0.02233836,-0.1048396
0.5402451,-0.07792315,-0.1510817
0.6010383,-0.2387968,-0.1272654
0.7156094,-0.2522113,-0.1734873
0.7865076,-0.176339,-0.2157921
0.8095524,-0.160719,-0.3101338
0.6114181,0.02861328,-0.398578
0.4988065,0.2052035,-0.3938381
0.4256875,0.1683309,-0.3973586
0.3650044,0.09855129,-0.3397386
0.509341,-0.09790401,-0.2995183
0.6416258,-0.2449678,-0.3130573
1.018572,-0.2006409,-0.3681372
1.539562,-0.1326428,-0.4955088
1.846202,-0.03669615,-0.5483211
1.936364,-0.1509692,-0.5266413
1.66513,-0.3836933,-0.4707511
1.468913,-0.4539993,-0.3429963
1.551703,-0.5120866,-0.143112
1.52428,-0.4544243,-0.06410234
1.323959,-0.2853176,-0.2198199
0.9772404,-0.1294571,-0.3326044
0.6480437,0.07253498,-0.3723763
0.4246715,0.1632024,-0.3584701
0.2965401,0.1655095,-0.2419802
0.3106551,0.1723766,-0.1830855
0.3313662,0.1073774,-0.1079882
0.3147245,-0.002479606,-0.08438578
0.2874223,-0.1592359,-0.1424846
0.290283,-0.3161316,-0.0732418
0.4612563,-0.4659845,-0.01225579
0.7722661,-0.6020925,-0.03938068
0.9832353,-0.5627759,-0.3200436
1.185563,-0.495577,-0.8390078
1.677741,-0.5684317,-1.013289
1.931241,-0.6321925,-0.8474708
1.618777,-0.6783168,-0.4998059
1.500287,-0.6141193,-0.06327732
1.638908,-0.2220108,-0.1848276
1.596911,0.2920917,-0.5617802
1.526272,0.4310033,-0.5134654
1.228791,0.08531923,-0.3374803
0.6649705,-0.1751586,-0.07002352
0.5109623,-0.1085203,0.0745364
0.6880692,-0.09719969,-0.1152911
0.6542884,-0.1170793,-0.12279
0.6345942,-0.08546626,-0.1962298
0.828903,-0.1159722,-0.4193908
0.9746428,-0.1195985,-0.4499042
0.9744435,-0.1076906,-0.4627772
0.8142119,-0.05238024,-0.273734
0.6074334,0.103814,-0.1375864
0.5689122,0.2445597,-0.275934
0.6051484,0.2184262,-0.326137
0.6566749,-0.05363567,-0.4324076
0.8002806,-0.3877033,-0.4849974
1.072504,-0.6168948,-0.4308986
1.447683,-0.7150786,-0.3837081
1.670972,-0.552593,-0.2315236
1.6993,-0.1337266,-0.2166158
1.679249,0.1586814,-0.349811
1.611157,0.04581969,-0.5147053
1.621631,-0.1941053,-0.5854235
1.587798,-0.3695059,-0.4240886
1.27387,-0.4749049,-0.3098327
0.9374758,-0.3350226,-0.321144
0.7205778,-0.1144331,-0.339339
0.4846116,0.01084863,-0.3338521
0.2910824,0.09316445,-0.3358346
0.2550348,-0.004668324,-0.3566966
0.2845547,-0.1686857,-0.2918911
0.3004144,-0.2487837,-0.2062963
0.4081451,-0.3109888,-0.1218881
0.5359355,-0.2504255,-0.04139774
0.5848333,-0.1638481,-0.04957441
0.5940654,-0.156412,-0.1282018
0.5608138,-0.1840931,-0.198651
0.6068655,-0.3120481,-0.07210792
0.7042334,-0.3887256,0.006114604
0.7558439,-0.4364097,-0.4085846
0.8610835,-0.5590233,-0.9768277
1.245104,-0.6290465,-1.201074
1.884535,-0.7383248,-1.162248
1.973313,-0.7771766,-0.9545926
1.508151,-0.6156867,-0.4472828
1.438651,-0.4346588,-0.1186473
1.668077,-0.1773037,-0.5010747
1.720832,0.05612679,-0.8014431
1.265797,-0.006283185,-0.4139523
0.4914736,-0.1127195,-0.05280608
0.2692369,-0.04532443,-0.02744769
0.3642564,-0.1212049,-0.06301069
0.415351,-0.3061362,-0.1733035
0.7498386,-0.3302692,-0.3249677
1.074873,-0.3369767,-0.482651
1.123232,-0.2061667,-0.5295676
0.8674733,0.09393878,-0.3436449
0.4584744,0.2545493,-0.2415796
0.2952055,0.2904126,-0.268501
0.2599907,0.171972,-0.2476622
0.2487372,-0.08530543,-0.2550725
0.3948344,-0.3840999,-0.288048
0.6876989,-0.6477761,-0.3795641
1.11643,-0.6231293,-0.4303606
1.517352,-0.3429577,-0.4060721
1.808962,0.01652433,-0.5093417
1.956144,0.1485651,-0.6217269
1.870363,-0.1783352,-0.5831068
1.792807,-0.5478846,-0.3652449
1.795191,-0.6795779,-0.03912088
1.644811,-0.5694167,0.08463953
1.230459,-0.1894511,-0.1526366
0.626082,0.1679862,-0.4247684
0.3186005,0.1873122,-0.40572
0.3347534,0.003923174,-0.3155231
0.2046152,-0.0467361,-0.2120715
0.2450348,-0.09309517,0.04408283
0.4684407,-0.1755521,0.2108581
0.524673,-0.05954429,0.196225
0.6088221,-0.02953072,-0.01093567
0.5416509,-0.09928365,-0.3212356
0.476935,-0.1342521,-0.3527081
0.6634239,-0.3968462,-0.1413878
0.7286529,-0.6610062,-0.02946684
0.8899691,-0.6201088,-0.1259077
1.388866,-0.4297513,-0.409063
1.901685,-0.3275416,-0.8459365
1.866576,-0.3049031,-1.089424
1.532567,-0.2832781,-0.7311476
1.593779,-0.2882266,-0.1382938
1.466382,-0.2080097,0.1153845
1.382937,-0.1732687,-0.025142
1.593039,-0.1706901,-0.2386458
1.095293,-0.03678477,-0.1834524
0.5527434,0.02936338,-0.1458114
0.4723643,0.09259035,-0.2480483
0.5240126,0.03936191,-0.2531535
0.7647957,-0.1317648,-0.3823958
0.8104981,-0.09828727,-0.4358362
0.945721,-0.1307643,-0.2973244
1.057102,-0.2075236,-0.2734709
0.8657077,-0.1544843,-0.179643
0.833631,-0.09485188,-0.1127366
0.6198179,0.05263592,-0.1525322
0.3894908,0.1536058,-0.156865
0.4042005,0.1386018,-0.217848
0.3923495,-0.0001649002,-0.2084402
0.5207382,-0.2886189,-0.2603438
0.716741,-0.3859491,-0.472802
1.172454,-0.295754,-0.6013463
1.772796,-0.2578113,-0.6535248
1.942489,-0.1698903,-0.7050955
1.827433,-0.07819219,-0.7342219
1.636024,-0.1902833,-0.5262385
1.461816,-0.3375913,-0.1882766
1.349541,-0.3016425,-0.1598552
1.256607,-0.2483193,-0.3386025
1.092792,-0.223168,-0.4349228
0.808839,-0.1592988,-0.377918
0.5723282,-0.1356037,-0.2946937
0.3810622,-0.1053868,-0.2489005
0.2599028,-0.08523933,-0.1007106
0.1941838,-0.1143151,-0.01293002
0.2155345,-0.1410153,-0.03482173
0.3786675,-0.1879417,0.02347034
0.5041448,-0.1937683,0.04720963
0.702694,-0.1554958,-0.005946438
0.7863189,-0.1356455,-0.04801789
0.7174034,-0.09161065,-0.08233231
0.8019387,-0.0189371,-0.174547
0.8343692,-0.0002893555,-0.5034056
1.141405,-0.19902,-0.8853362
1.709208,-0.5190293,-0.8611725
1.903297,-0.7103155,-0.6809556
1.947335,-0.8832356,-0.7309344
1.982594,-0.9563605,-0.7156269
1.83074,-0.6300276,-0.6216779
1.379471,-0.1160789,-0.4528406
0.7243979,0.2508715,0.0163071
0.3856325,0.3385417,0.2041329
0.3940195,0.1998634,-0.050472
0.419856,0.06307162,-0.2149493
0.4777708,-0.1361275,-0.3713544
0.6061399,-0.3725157,-0.4754813
0.680931,-0.4227846,-0.3808799
0.6834944,-0.4466468,-0.2623136
0.703539,-0.4401636,-0.114222
0.7202893,-0.2666073,-0.06954274
0.7133764,-0.02826944,-0.2524492
0.6957251,0.1879046,-0.4031874
0.644771,0.250343,-0.3776743
0.5603377,0.2435362,-0.2839093
0.5155685,0.1618654,-0.2344938
0.5538844,-0.1911663,-0.3349421
0.5945601,-0.5016551,-0.5059445
0.7258406,-0.5172956,-0.536715
1.173283,-0.4635249,-0.4769738
1.772628,-0.4721225,-0.4856839
1.91601,-0.339838,-0.6132151
1.585927,-0.1303908,-0.7278744
1.423298,-0.2359089,-0.6341675
1.384284,-0.3664187,-0.4961289
1.394812,-0.3447323,-0.4183421
1.566326,-0.4756765,-0.2716952
1.452642,-0.4539206,-0.2749111
1.132235,-0.2226626,-0.4146307
0.6794157,-0.01240215,-0.3875925
0.2106504,0.1858666,-0.3571466
0.3114625,0.1164944,-0.2896469
0.3441627,-0.02128518,-0.06708483
0.1822775,-0.05006565,0.03719934
0.4425715,-0.2512485,0.09838344
0.5134161,-0.3092428,0.1414187
0.4663889,-0.2270608,0.01122208
0.5599914,-0.3136365,-0.1302522
0.4985916,-0.3106409,-0.2041455
0.6726374,-0.304983,-0.1919747
0.9420099,-0.3940516,-0.2347772
1.046518,-0.4651877,-0.5183036
1.188774,-0.6000208,-0.82127
1.38307,-0.6157683,-0.9314132
1.621668,-0.4836302,-0.8421364
1.571096,-0.3024359,-0.5454293
1.479074,-0.08318575,-0.2351038
1.737808,-0.02505974,-0.4367412
1.796351,-0.05593682,-0.8885259
1.54039,-0.0657315,-0.7802026
1.08429,-0.1068918,-0.3749383
0.5816431,-0.0927129,-0.01058356
0.4029589,-0.06290229,0.1247521
0.3031844,-0.06109706,-0.08926846
0.3790902,-0.02724998,-0.1107177
0.7891339,-0.01304287,-0.2880653
1.011985,-0.0595266,-0.5973728
1.017152,-0.1104387,-0.4087491
0.9394513,-0.1044833,-0.339326
0.7724492,-0.03595321,-0.3168919
0.6558944,0.1083768,-0.1717279
0.5216837,0.2956055,-0.2514443
0.4609888,0.3407093,-0.1709414
0.4971975,0.176433,-0.1460004
0.509446,-0.1025887,-0.3563493
0.6686276,-0.4639374,-0.5267144
0.8538581,-0.7023514,-0.6025059
1.025814,-0.6065667,-0.4358037
1.451839,-0.359497,-0.3579263
1.826006,-0.1837853,-0.4763876
1.760719,-0.1703839,-0.4895163
1.562477,-0.2595728,-0.4031297
1.588187,-0.3854532,-0.2227878
1.611054,-0.589789,-0.1516185
1.491592,-0.5055919,-0.2786984
1.173552,-0.1332988,-0.4158641
0.6241112,0.006180362,-0.4496606
0.4114518,0.07573848,-0.3300391
0.3880504,0.1247279,-0.1945067
0.2087767,0.04084722,-0.1059336
0.3382355,0.02851698,-0.05818767
0.4523976,-0.02011595,-0.05975053
0.3915934,-0.05169211,-0.0709613
0.3685026,-0.0983153,-0.1408705
0.1251455,-0.2320615,-0.1865504
0.01754132,-0.24828,-0.1450729
0.05817957,-0.3389692,-0.117943
0.2859147,-0.4992494,-0.1831569
1.149695,-0.6581433,-0.4129071
1.820227,-0.818208,-0.7582857
1.844121,-0.7090102,-0.9369087
1.826742,-0.5635834,-0.7577768
1.87228,-0.5264197,-0.5670321
1.854964,-0.3924666,-0.5803495
1.746005,-0.2706421,-0.5549273
1.371005,-0.1989762,-0.4561362
0.6871999,-0.1175435,-0.2095515
0.3287468,-0.07552248,0.005722244
0.4415307,-0.1177972,-0.1585328
0.4719649,-0.1312503,-0.2941102
0.6104717,-0.06213435,-0.2608417
0.7604926,-0.0284238,-0.3360596
0.6575138,0.02602459,-0.2948143
0.5780209,0.06076181,-0.1696374
0.4089934,0.02578177,-0.1989557
0.2970244,0.0434887,-0.2188842
0.3211192,0.04747146,-0.2117056
0.2095828,0.01946811,-0.2560485
0.2319722,-0.08569962,-0.2466033
0.4669764,-0.3132062,-0.2471611
0.8586276,-0.3938579,-0.3307973
1.444169,-0.261496,-0.4846785
1.858009,-0.124218,-0.7161104
1.928775,-0.110116,-0.7894028
1.850057,-0.2719941,-0.639685
1.786947,-0.4856677,-0.4639658
1.754652,-0.5148111,-0.2670578
1.639753,-0.4075709,-0.2189383
1.361443,-0.311392,-0.3603247
0.9161609,-0.1201494,-0.3562739
0.5716068,0.06250196,-0.2332222
0.4554011,0.1212762,-0.129757
0.3148627,0.1907178,-0.0758095
0.285039,0.1635151,-0.124539
0.3657224,0.07521117,-0.1120737
0.2882515,0.0165075,-0.09389831
0.2459228,-0.113243,-0.1813289
0.1929497,-0.165722,-0.2087529
0.1337503,-0.178816,-0.1961882
0.2691346,-0.3203292,-0.1812205
0.411734,-0.4743042,-0.2077496
0.5965343,-0.5144147,-0.3206589
0.8124525,-0.4904042,-0.4190418
1.225133,-0.5799947,-0.6070195
1.918145,-0.6831399,-0.7874412
2.003439,-0.7138247,-0.6059956
1.719508,-0.7317318,-0.3858939
1.89631,-0.4285203,-0.6476359
1.947461,0.1248977,-0.9823801
1.811997,0.32706,-0.9621981
1.60434,0.1677559,-0.7568365
0.9112393,0.1056977,-0.3710969
0.4514021,0.1008382,-0.09608633
0.5050632,-0.03922607,-0.1486726
0.5021722,-0.08899077,-0.1927586
0.5826663,-0.1029696,-0.2618785
0.7086494,-0.1642018,-0.3268372
0.7413483,-0.1103001,-0.3002173
0.7667318,-0.0911653,-0.3222736
0.7231375,-0.03509918,-0.318513
0.6431456,0.1415837,-0.3501221
0.4437301,0.2263689,-0.3849915
0.278071,0.2399688,-0.3408843
0.3175062,0.1545371,-0.3303854
0.3876861,-0.06164024,-0.3204866
0.6052682,-0.2977372,-0.3428381
0.9758027,-0.3883809,-0.400639
1.324361,-0.279602,-0.4764859
1.72586,-0.2345533,-0.6207864
2.032078,-0.2463917,-0.7724914
1.992114,-0.2624097,-0.8570739
1.881623,-0.4105317,-0.7277913
1.853852,-0.4537081,-0.4553008
1.55026,-0.2972637,-0.3430596
1.124676,-0.09346494,-0.439883
0.812173,0.08007171,-0.5212477
0.4558319,0.1653013,-0.3901897
0.2176487,0.2517265,-0.2643862
