accx,accy,accz
1.57455,-0.165344,0.3389609
1.058508,-0.2516688,0.2649762
0.9180506,-0.3897644,0.3152907
0.8750277,-0.3947297,0.2900928
0.7042488,-0.2648712,0.1795109
0.5637783,-0.1723522,0.08779167
0.5374592,-0.142124,0.06396198
0.53188,-0.1101227,0.1166855
0.418542,-0.007555576,0.1109625
0.3811852,-0.01029849,0.1243547
0.3949682,-0.1145788,0.1819426
0.3086662,-0.1188139,0.1784888
0.3383149,-0.1277636,0.1742851
0.4481288,-0.1165503,0.1335484
0.536819,-0.06209171,0.089813
0.7462296,-0.03969958,0.09602373
0.924672,0.008830393,0.1052772
0.9955699,-0.03798212,0.1453299
1.124493,-0.205517,0.09195556
1.418866,-0.4492577,-0.06109729
1.802509,-0.6808846,-0.1199986
1.831359,-0.670877,-0.01230059
1.701604,-0.5931489,0.1380594
1.821883,-0.4771294,0.108451
1.644972,-0.2156663,0.1003532
1.304897,-0.1777927,0.1931345
1.262269,-0.250875,0.1073364
1.146155,-0.1586558,0.04109761
1.033103,-0.1320077,0.03870452
0.9970306,-0.09533917,-0.02182892
0.8766398,-0.05533437,0.01834414
0.8206977,-0.1538455,0.05244243
0.7605583,-0.1610018,0.06072807
0.7032122,-0.1329564,0.07729887
0.6708996,-0.1155469,0.03742695
0.6370778,-0.01700417,0.05437924
0.6736438,-0.004110402,0.04116306
0.6767656,-0.009952247,-0.00722806
0.679325,-0.01628388,0.016059
0.6495117,-0.09977014,0.01527335
0.5621117,-0.1239837,0.032655
0.5756201,-0.09779551,0.06303309
0.5820472,-0.05603215,0.0381521
0.5909112,-0.05154519,0.01878305
0.7281559,-0.1687592,0.001320952
0.9092235,-0.3853614,0.002084599
1.113234,-0.5393574,0.09298542
1.498515,-0.407415,0.2605402
1.987076,-0.238542,0.3784549
2.057717,-0.2642239,0.4202209
1.870597,-0.2590981,0.4598585
1.870188,-0.2212571,0.4401744
1.649985,-0.1948242,0.3750861
1.324512,-0.1447658,0.3286108
1.173576,-0.1414254,0.2939108
0.9586646,-0.1424558,0.304458
0.9424424,-0.1621311,0.2869442
0.8975782,-0.1916312,0.2179796
0.6358747,-0.1610686,0.1769965
0.6119715,-0.1207773,0.1315595
0.5611648,-0.0611996,0.1161529
0.4865507,-0.03020208,0.1461081
0.5269171,-0.06767631,0.1521985
0.4747634,-0.07721659,0.159963
0.5828528,-0.08994869,0.1644586
0.7418353,-0.1341353,0.1588904
0.8185949,-0.1484885,0.1679356
0.9075232,-0.1168891,0.1784666
0.8988628,-0.07209,0.2113459
0.9151915,-0.06004865,0.2421245
0.9138133,-0.04722355,0.2335595
0.9230389,-0.04843919,0.2003525
1.147677,-0.1569525,0.1092281
1.459099,-0.3515651,0.008692581
1.708829,-0.5436958,0.005580525
1.78671,-0.6172939,0.03378436
1.645212,-0.4517844,0.09095898
1.427646,-0.1848115,0.2301682
1.363607,-0.1128074,0.2437401
1.326534,-0.1718052,0.1391838
1.115787,-0.1454131,0.1093057
1.033371,-0.07555082,0.05541254
1.031293,-0.005878893,0.02965778
0.9357509,0.02185851,0.05834787
0.9028166,-0.01992209,0.02012842
0.8299685,-0.03705624,0.03839097
0.7654029,-0.06674682,0.05216367
0.7361489,-0.1038227,0.02774403
0.6757783,-0.0590778,0.07833665
0.7435166,-0.005238416,0.08171231
0.8259986,0.02816004,0.04896648
0.8377696,0.03541379,0.0239273
0.7922672,-0.05200227,-0.003405452
0.6521704,-0.1727272,-0.002790898
0.5969354,-0.1869609,-0.0066647
0.6542341,-0.07590268,0.05489906
0.6899887,0.01621686,0.1096154
0.668542,0.02098603,0.0721163
0.6481582,0.02446521,0.0314522
0.6681919,-0.04606689,-0.03598094
0.7008082,-0.2790475,-0.06826917
0.8407938,-0.4860015,0.01412476
1.130284,-0.5341634,0.161971
1.592528,-0.4543783,0.316901
2.032366,-0.3339911,0.3867183
1.961689,-0.2918474,0.3752614
1.740651,-0.2072527,0.3460986
1.747082,-0.03634858,0.3046345
1.448182,0.03417995,0.254427
1.103196,0.04586082,0.2247155
1.069289,0.003281022,0.2065165
0.9050584,-0.1313721,0.1691194
0.7764546,-0.2045299,0.1433398
0.762282,-0.2059489,0.08332526
0.6674766,-0.2097222,-0.009840084
0.6898858,-0.2204794,-0.003871714
0.7352433,-0.2042682,0.06155473
0.7739992,-0.1683008,0.1214627
0.8262152,-0.1815754,0.1873005
0.7822402,-0.2058106,0.1916736
0.7464367,-0.2161579,0.1560112
0.6901056,-0.2019179,0.1499189
0.683589,-0.1493319,0.1484068
0.7615038,-0.1325005,0.1438617
0.7839345,-0.1259817,0.1384067
0.8008017,-0.1113279,0.1319001
0.7884587,-0.106678,0.136102
0.7770061,-0.0717416,0.1264083
0.800965,-0.04337243,0.127051
0.7914378,-0.01952394,0.1677121
0.8314045,-0.01536308,0.1806504
0.9991515,-0.1625225,0.1072231
1.388679,-0.4768432,-0.03716392
1.828044,-0.7818193,-0.140711
1.868735,-0.8640604,-0.08819521
1.570185,-0.7087301,0.1303093
1.291634,-0.4295511,0.3994827
1.177579,-0.1414617,0.4292125
1.239301,-0.01348064,0.1847578
1.27665,0.002734994,0.0343951
1.193089,0.04048007,0.06595768
1.145759,-0.003055622,0.08901709
1.047934,-0.07073633,0.07143617
0.8707943,-0.09970671,0.06299647
0.7923007,-0.1933051,0.05588461
0.7828479,-0.2114598,0.02232961
0.8084779,-0.1894132,0.01072439
0.8192688,-0.2417445,0.01112975
0.7990518,-0.1999832,-0.0029431
0.7971489,-0.1259785,0.01806305
0.7601562,-0.05226175,0.01506438
0.8141718,0.0563836,0.002579327
0.8911469,0.0508302,0.005656931
0.8053765,-0.01506081,-0.05633047
0.7441247,-0.07572942,-0.09849414
0.742805,-0.1194407,-0.05777915
0.7580439,-0.1263926,0.005416576
0.8209244,-0.1444166,0.04026257
0.8524051,-0.1092428,0.06095765
0.8489311,-0.06178873,0.1121227
0.807264,-0.07486786,0.121497
0.755986,-0.1504042,0.0862787
0.7715536,-0.3665586,0.08705334
0.9734481,-0.6007384,0.1857946
1.434914,-0.6584377,0.4191512
1.809358,-0.5430363,0.5537136
1.84946,-0.3656738,0.3805378
1.849165,-0.2364944,0.166141
1.83401,-0.2036038,0.1762396
1.543957,-0.2679652,0.2330121
1.218659,-0.3171166,0.226324
1.05406,-0.3347966,0.2507844
0.8760073,-0.3824097,0.2436822
0.7390303,-0.3712855,0.2129802
0.658826,-0.3325704,0.1835189
0.57263,-0.2760384,0.1215433
0.5478347,-0.1602867,0.108429
0.5456196,-0.08656852,0.1165781
0.5491981,-0.0523982,0.1249355
0.5447796,-0.06465778,0.1625145
0.5242483,-0.09492558,0.1840869
0.5288914,-0.06249421,0.174006
0.5804264,-0.02599885,0.1283914
0.723719,0.01893542,0.1091933
0.8433212,0.02478847,0.1148574
0.8599194,-0.01413895,0.1183721
0.8896825,-0.01240452,0.1676989
0.9464401,-0.07403076,0.1994092
1.005943,-0.165989,0.1897144
1.192671,-0.2498411,0.1422707
1.546359,-0.4215291,0.03342748
1.76349,-0.5507594,-0.06179971
1.713409,-0.5782496,-0.07194105
1.643199,-0.5295477,-0.006371069
1.54063,-0.3375468,0.05768773
1.370237,-0.1014908,0.1295647
1.306449,-0.01711953,0.182353
1.223142,-0.09819267,0.1325207
1.060779,-0.1204447,0.09596652
1.025059,-0.0505164,0.09054479
1.044875,-0.00593749,0.04927707
0.99064,0.07993057,0.02370189
0.9248106,0.07632417,0.0224249
0.8831323,-0.02849434,0.0500719
0.8049168,-0.06154862,0.07003809
0.7289751,-0.1265414,0.06417468
0.7470742,-0.1114505,0.05945717
0.6933812,-0.008161484,0.03698826
0.6143313,-0.01725179,0.02869353
0.6799643,-0.01234121,0.009067389
0.7000871,-0.02823297,-0.03258351
0.6937883,-0.07922268,-0.01588594
0.7159425,-0.06802543,0.04120936
0.6838401,-0.06399766,0.101046
0.6890764,-0.006743454,0.1170211
0.6929163,0.00821547,0.05225623
0.6958619,-0.1460199,-0.02186428
0.8106447,-0.3908575,-0.01614625
1.119974,-0.5507363,0.1533609
1.636048,-0.4298536,0.392502
1.986382,-0.3212491,0.4604055
1.963078,-0.349081,0.4209107
1.876428,-0.1857912,0.4028932
1.74138,-0.04353799,0.3118224
1.414162,-0.1108607,0.2514944
1.188567,-0.12121,0.2985974
1.098115,-0.08212021,0.2827815
0.9057192,-0.1330971,0.2351295
0.7240342,-0.1839742,0.2073463
0.5692932,-0.1814053,0.1573081
0.4962273,-0.1804675,0.1224724
0.5461712,-0.1327508,0.08952482
0.5163781,-0.04324436,0.0887502
0.561848,-0.02612108,0.1317847
0.6361886,-0.07795124,0.1790406
0.5777076,-0.1085716,0.2265673
0.5698446,-0.06480169,0.2006052
0.5485413,-0.02459212,0.1393225
0.5948809,-0.04323245,0.1147835
0.7688506,-0.04430563,0.1124415
0.8614469,-0.05203271,0.1641108
0.9397974,-0.1496921,0.1714955
1.180788,-0.3283336,0.04554907
1.581305,-0.4817406,-0.08719356
1.807033,-0.5413375,-0.09837222
1.810901,-0.5500058,-0.021768
1.765653,-0.3994538,0.0997702
1.56997,-0.1277584,0.2824733
1.4954,-0.08066848,0.3055874
1.502491,-0.1419259,0.1723438
1.258068,-0.06975408,0.1404666
1.096272,-0.06943187,0.06474105
1.113689,-0.09335628,0.04480973
1.040017,-0.02085965,0.1575996
0.9039876,-0.02228459,0.1207785
0.8629593,-0.05325337,0.1160956
0.8062965,-0.05522455,0.1288028
0.6910824,-0.06554289,0.03845952
0.7651291,-0.04261977,0.02036419
0.8033969,-0.01484182,-0.03024082
0.7608888,0.03527321,-0.04019045
0.8660268,0.08334057,0.006717755
0.8480924,0.07355211,0.002230154
0.7783714,0.05810675,0.06933623
0.7492275,0.01438479,0.08366245
0.7083642,-0.03069945,0.0368447
0.7994183,-0.01517421,0.0385634
0.8212401,0.03300715,0.08847936
0.7764032,0.09024034,0.1807892
0.7671086,0.09972614,0.1582552
0.7457194,0.09266121,0.1030838
0.8009241,0.09347694,0.06276296
0.8568184,-0.07128791,-0.04565482
0.994906,-0.5172816,-0.03941962
1.23626,-0.9681517,0.08006596
1.405982,-0.9423512,0.2482573
1.641401,-0.6006503,0.3820681
1.923335,-0.316032,0.2575733
1.965223,0.009129761,0.07879816
1.757502,0.08289598,0.09349919
1.506214,-0.08082755,0.1655737
1.289951,-0.01719459,0.2204867
1.154879,-0.07243779,0.2198993
1.04001,-0.2014374,0.1736352
0.8463464,-0.1346,0.1484144
0.7513545,-0.1725563,0.06563262
0.6697315,-0.1636902,0.03254634
0.5806586,-0.1393131,0.09983092
0.7429777,-0.2091259,0.1008872
0.8660828,-0.1897857,0.1267192
0.808497,-0.1992664,0.1474523
0.7622865,-0.165301,0.1083627
0.672039,-0.1083997,0.1437316
0.5896519,-0.08513881,0.159075
0.5507418,0.01755975,0.1597108
0.5287111,0.03173566,0.1601633
0.5612836,-0.01488007,0.07756159
0.6398025,-0.04520212,0.02517909
0.7318589,-0.06286676,0.00948418
0.7498338,-0.01892445,0.02413576
0.7068796,0.001363935,0.07210563
0.6728296,0.01868238,0.092453
0.6927476,-0.01893041,0.1141559
0.9166442,-0.1826731,0.04498319
1.408054,-0.4601063,-0.1221476
1.870661,-0.8030818,-0.2414016
1.92942,-0.9161841,-0.225807
1.701235,-0.7560609,-0.007387287
1.486912,-0.4848382,0.2481522
1.349502,-0.1617649,0.2957981
1.32498,-0.07162571,0.1745434
1.31178,-0.1939227,0.09654814
1.213412,-0.1471324,0.1046668
1.131738,-0.02870046,0.06695439
1.025776,0.003024421,0.01703153
0.9095502,0.01929446,0.009511525
0.8442371,-0.08532989,0.0217021
0.7014184,-0.1807005,0.04185058
0.6567106,-0.137798,0.02607079
0.7549877,-0.1323033,0.02782669
0.6923056,-0.08656125,0.03857518
0.6487379,0.02044269,0.02490484
0.6811299,0.05938113,0.02397127
0.6571227,0.06027824,-0.03103853
0.7153807,0.05488489,-0.0763543
0.6565311,0.01663441,0.001795202
0.5021874,-0.09156726,0.1155785
0.4782718,-0.1219301,0.1482051
0.5010315,-0.1038225,0.1105514
0.6679209,-0.2824375,0.08214151
0.9701777,-0.5305902,0.08980015
1.345131,-0.6228238,0.2207071
1.67594,-0.5182455,0.3966326
1.81554,-0.3349867,0.3902618
2.005414,-0.2053881,0.3727656
2.041389,-0.1748762,0.4187897
1.796632,-0.1839811,0.3434318
1.627504,-0.09624727,0.2940437
1.306523,-0.131165,0.2965264
0.9684023,-0.2514441,0.2663601
0.887172,-0.1810651,0.294976
0.6996612,-0.1857319,0.2458779
0.5867588,-0.1991746,0.135269
0.5840327,-0.1198367,0.1117052
0.5028995,-0.1166034,0.1034285
0.5397358,-0.03190643,0.1193747
0.4484798,-0.009695555,0.1134659
0.3407601,-0.07283437,0.109937
0.4012245,-0.04907317,0.1633015
0.3914124,-0.07625695,0.1587148
0.5444645,-0.07630768,0.1384964
0.7434905,-0.06056405,0.1160686
0.8278677,-0.09863983,0.1266669
0.9077762,-0.1463885,0.2002591
0.8671416,-0.28287,0.1909428
1.00732,-0.4150451,0.08715683
1.418868,-0.4939596,-0.08003298
1.792596,-0.5365075,-0.1422952
1.923086,-0.511541,-0.04844092
1.796225,-0.4399851,-0.006897681
1.632217,-0.2477612,0.08177993
1.394416,-0.06839312,0.1993027
1.284572,-0.06220935,0.1749869
1.299282,-0.08508687,0.08769475
1.075094,-0.07581958,-0.007802422
0.9980324,-0.0526459,-0.03012047
0.9721182,-0.03522486,0.002850297
0.7681484,-0.06368466,0.02029377
0.7750299,-0.08208578,0.07679218
0.7191457,-0.06463799,0.07999726
0.5840967,-0.04516156,0.04316529
0.6105703,-0.02886755,0.05955298
0.6077585,0.008361841,0.03545739
0.633791,0.04555657,0.009822957
0.5996363,0.05661938,0.0224437
0.5240499,0.08279438,0.03257793
0.5333386,0.07416992,0.08022416
0.4912173,-0.007883617,0.08662051
0.5094344,-0.09414314,0.05380743
0.6051366,-0.1874327,0.05279395
0.7802648,-0.3487077,0.03350516
1.138494,-0.5041449,0.1140806
1.618,-0.3962458,0.3283925
2.049578,-0.1394968,0.449888
2.027049,-0.08974979,0.4080543
1.747225,-0.117086,0.3739296
1.59497,-0.1476262,0.4221751
1.277358,-0.2424096,0.39227
1.102232,-0.2492702,0.3369122
1.122001,-0.2075881,0.3408001
0.8131822,-0.1570775,0.2604645
0.7239852,-0.1198794,0.2140183
0.7894326,-0.1130189,0.2101259
0.5062885,-0.03159274,0.104994
0.4761525,0.009767121,0.06314104
0.5611364,0.001435898,0.09030741
0.437918,0.01944253,0.08798149
0.4015668,-0.02375642,0.1028814
0.2786194,-0.09208176,0.1182605
0.1815238,-0.1384584,0.1089387
0.3252226,-0.1275226,0.06903915
0.5457264,-0.09888175,0.0247312
0.800115,-0.1166978,0.03219306
0.96481,-0.1197847,0.1209299
1.009582,-0.2114677,0.1998333
1.220224,-0.4012448,0.1002609
1.728856,-0.4948797,-0.1426496
2.028459,-0.5296745,-0.2598103
1.828591,-0.5791732,-0.01405441
1.660273,-0.4967868,0.2794938
1.592635,-0.2673655,0.1867652
1.435871,-0.1302186,0.1071503
1.350271,-0.09104604,0.2062438
1.166117,-0.01560211,0.09170597
0.9366728,0.00342343,0.006050021
0.8752719,-0.01495482,0.03445782
0.810553,0.007507536,-0.03294976
0.7861055,-0.01052198,-0.002005452
0.7682321,-0.05404983,0.04291803
0.6752004,-0.06743666,0.04393459
0.6534944,-0.07039642,0.07996047
0.6014924,-0.0463228,0.02862531
0.5590635,0.01354733,-0.006405241
0.5703702,0.04062334,-0.01455149
0.4788276,0.003760014,-0.02328564
0.4190096,-0.04906635,0.02763249
0.4296288,-0.08879709,0.03576624
0.4619453,-0.1172653,0.03639974
0.595578,-0.1766083,0.05228455
0.8090814,-0.3076768,0.08532575
1.099614,-0.4373763,0.2182492
1.554414,-0.4491069,0.410044
2.011735,-0.3377579,0.5200021
2.040552,-0.2181446,0.4526202
1.878473,-0.1690368,0.3988504
1.796109,-0.1197335,0.3867903
1.392818,-0.08764815,0.3042192
1.025981,-0.187722,0.3538859
0.9461856,-0.2716564,0.3991559
0.7583662,-0.242822,0.2723394
0.6700544,-0.1971596,0.1798257
0.5646373,-0.08000189,0.100745
0.3407194,0.03461681,0.04528628
0.3353493,0.01552302,0.07787491
0.3201598,-0.06710368,0.1237606
0.3136718,-0.1398812,0.1643837
0.4693281,-0.1310682,0.1531592
0.5945299,-0.06521084,0.1242052
1.43719,-0.04232416,0.2109111
1.458224,0.01588316,0.1615746
1.349648,-0.04210619,0.09887292
1.15837,-0.01023464,0.07755442
0.9575704,0.02896029,0.07202085
0.8746035,0.009017151,0.07155775
0.8400377,0.0206959,0.04429909
0.7429696,0.01550966,0.04329614
0.7709936,-0.03766348,0.05216047
0.7712045,-0.03957018,0.02341659
0.7324339,-0.05555601,0.01714854
0.7250224,-0.08311016,0.03551747
0.6172043,-0.06310552,0.0393183
0.5896997,-0.06082463,0.01244565
0.5959414,-0.04668624,-0.02613501
0.5643639,-0.04070908,-0.01541765
0.5657773,-0.06636864,0.02042807
0.5036573,-0.06784179,0.04053242
0.497073,-0.08179542,0.0461051
0.5526892,-0.1668947,0.01189197
0.6473866,-0.4139481,0.005938435
0.9563691,-0.6961965,0.1516099
1.466345,-0.7030618,0.4277914
1.945415,-0.5289268,0.5822603
2.04438,-0.3727196,0.4389398
1.884455,-0.183291,0.3014202
1.720402,-0.07413019,0.3486577
1.343738,-0.1373006,0.3400207
1.05688,-0.1997757,0.3195889
1.051094,-0.2242637,0.3531512
0.8413941,-0.2256333,0.3034203
0.6358284,-0.1791982,0.2341517
0.5979886,-0.1599638,0.1575922
0.4848675,-0.1076668,0.1117936
0.5052195,-0.004208125,0.1654197
0.5164432,0.04525625,0.1592367
0.4055603,0.06276036,0.1120525
0.3998329,0.04157068,0.1038589
0.3940634,0.01420071,0.09993115
0.4577649,0.01456863,0.1223126
0.6108344,-0.04052471,0.1187012
0.7618248,-0.1153162,0.1356929
0.9970163,-0.1919969,0.2129023
1.167769,-0.2971176,0.2489138
1.276587,-0.3833723,0.2165304
1.538883,-0.4855211,0.06178891
1.826293,-0.5885361,-0.09277463
1.77145,-0.5396948,-0.03552774
1.543521,-0.3396861,0.07199316
1.574198,-0.1971761,0.07783806
1.574908,-0.1776161,0.08799599
1.467298,-0.1721276,0.1297422
1.426443,-0.126645,0.1539805
1.259668,-0.07600228,0.1099055
1.120232,-0.06639031,0.0156136
0.9897272,-0.03244021,0.003923951
0.8248767,-0.02840637,0.01061375
0.7847628,-0.1037317,-0.002384322
0.7193107,-0.09864735,0.06539312
0.7476059,-0.08288102,0.06658375
0.7914642,-0.08436028,0.01974557
0.7425394,-0.0279319,0.03386636
0.779112,0.00113112,0.02548643
0.7293831,0.04615791,0.04290307
0.6885443,0.05959401,0.03899552
0.7010363,0.00961574,0.01212835
0.6421777,-0.02157976,0.03918601
0.6280736,-0.07554043,0.03738853
0.5847315,-0.08438961,0.05301194
0.6019449,-0.06438249,0.06124644
0.6582245,-0.08962489,0.008337177
0.6187845,-0.1430532,-0.0238095
0.6952946,-0.3134275,-0.01377584
0.9349844,-0.5024796,0.09693331
1.352016,-0.4944714,0.2686439
1.82556,-0.3468852,0.4162519
2.01551,-0.245797,0.5051868
1.928354,-0.2129975,0.4433127
1.742649,-0.1741992,0.3528475
1.54399,-0.1654456,0.363415
1.368487,-0.173942,0.3418223
1.265588,-0.1491416,0.2984008
1.148039,-0.1687983,0.3109051
0.9396599,-0.2096121,0.2695999
0.8285994,-0.1715436,0.1993653
0.7380108,-0.1074648,0.1740134
0.6034888,-0.0475183,0.1457761
0.6305682,0.01956321,0.1554418
0.6274995,0.05319431,0.1753333
0.483872,0.07668276,0.1563741
0.4185368,0.05965884,0.1442694
0.398503,-0.005068806,0.1257195
0.3951509,-0.05047052,0.1170297
0.4997894,-0.1166429,0.0988634
0.6671782,-0.165924,0.06335331
0.8135744,-0.1778416,0.08427991
0.8734409,-0.2085001,0.1256752
0.9426486,-0.2784293,0.1306431
1.203676,-0.440069,0.07173386
1.567191,-0.5453116,-0.02205349
1.880743,-0.5180631,-0.06329351
1.9453,-0.4462034,-0.06569197
1.592978,-0.2622772,0.02653967
1.223764,-0.1227385,0.2568967
1.167498,-0.1353661,0.3572318
1.211204,-0.1080459,0.2210537
1.254564,-0.06494995,0.1191244
1.284925,-0.03448077,0.1254549
1.153625,0.08095009,0.1070521
0.9469371,0.1979488,0.07272344
0.9247369,0.1745106,0.08510905
0.9101775,0.06663612,0.1157253
0.7019652,-0.03616742,0.1241669
0.6187204,-0.1451101,0.1249263
0.7124797,-0.1262586,0.1076141
0.7662896,-0.02683572,0.08040498
0.8151196,-0.009992222,0.06939607
0.840253,0.07389279,0.03886898
0.8030402,0.1311804,-0.001652293
0.755982,0.0967514,-0.01623579
0.7382169,0.1111309,-0.008741366
0.7658211,0.03305564,-0.001056635
0.7869214,-0.0226203,-0.01006169
0.7506429,0.006476463,-0.01748029
0.6923967,-0.04481895,-0.02529728
0.6936079,-0.06711551,-0.02458183
0.7947813,-0.1806957,-0.002401868
1.061296,-0.4529653,0.04322947
1.466329,-0.6394622,0.1794962
1.763644,-0.668175,0.3520286
1.879578,-0.5805154,0.3769021
1.920624,-0.4093766,0.2892758
1.780058,-0.1615936,0.2708609
1.465296,-0.02722449,0.3107217
1.303918,-0.02598072,0.3125425
1.242591,0.04995187,0.2747583
0.999731,0.01929774,0.2081043
0.7366509,-0.07286173,0.1381534
0.6116809,-0.08384836,0.07001959
0.5784985,-0.1905672,0.01865186
0.5888613,-0.2523123,0.04214879
0.6149178,-0.249483,0.09382952
0.6656552,-0.2677553,0.1503048
0.6294524,-0.1965331,0.2083683
0.5623095,-0.1191591,0.194648
0.5798701,-0.001585797,0.1395346
0.5702967,0.1215487,0.09923576
0.5431368,0.1359006,0.1114505
0.4836585,0.1741452,0.1405706
0.4298957,0.1801993,0.08765236
0.5533804,0.09085361,0.04172929
0.7409046,-0.02029419,0.05174678
0.8406411,-0.1257076,0.07263568
0.8894338,-0.1768294,0.1363464
1.040773,-0.2500176,0.1793868
1.429068,-0.4123678,0.1491208
1.849308,-0.6036982,0.03242183
1.965279,-0.7054987,-0.09808339
1.86704,-0.6551225,-0.05693979
1.853365,-0.6057395,0.02989318
1.746794,-0.5350089,0.03157401
1.405904,-0.2772188,0.07580956
1.214108,-0.05596568,0.08905841
1.209236,-0.04894317,0.04700385
1.149882,-0.08787341,0.04801692
1.107619,-0.09116937,0.02627446
1.090676,-0.05502548,0.02519582
1.018453,-0.02469448,0.05846256
0.9096166,-0.06926043,0.05293654
0.797799,-0.1080602,0.0713891
0.7074555,-0.1097189,0.06091044
0.6310426,-0.09807851,-0.004218337
0.614517,-0.05220949,-0.02401133
0.6438707,-0.001867066,-0.0121799
0.6346765,-0.002216987,0.003556126
0.6605173,-0.04873398,0.0001591544
0.7618353,-0.07769607,0.005215775
0.8390178,-0.114308,0.04255605
0.8386244,-0.1661756,0.06351717
0.8043222,-0.1612603,0.1077903
0.7942144,-0.1421966,0.127123
0.7620348,-0.1635428,0.06887346
0.7398654,-0.2869836,0.06517845
0.9024366,-0.519326,0.1817446
1.264306,-0.6100385,0.3553535
1.650603,-0.4191001,0.416021
1.887797,-0.1936561,0.3233041
1.965757,-0.1535007,0.262768
1.888319,-0.2169795,0.2651701
1.606101,-0.2623995,0.3052388
1.276815,-0.2854097,0.355861
1.00468,-0.2962215,0.2885094
0.7704187,-0.2366795,0.2027236
0.6391274,-0.09192007,0.1911185
0.5843648,0.01552025,0.1352846
0.5210631,0.05289271,0.1027598
0.3441987,0.04650103,0.1104336
0.173622,0.008210699,0.04732652
0.2876857,-0.02116352,0.03214671
0.4958582,-0.1069334,0.05988577
0.5781932,-0.1784879,0.0380426
0.7076559,-0.166714,0.0935058
0.8919945,-0.202599,0.2063169
0.9919817,-0.2453415,0.2707858
1.158281,-0.3286483,0.21115
1.503725,-0.5088202,-0.02364225
1.720667,-0.594429,-0.173932
1.698074,-0.5639247,-0.03794038
1.777392,-0.4529622,0.1699015
1.888481,-0.217211,0.2076254
1.686978,-0.01368294,0.1815727
1.418631,0.02882863,0.2125885
1.293828,0.04906265,0.1747234
1.132548,0.08647552,0.1351868
0.9610128,0.05028825,0.1219488
0.8067485,0.04299644,0.04117218
0.7075642,0.04300801,0.01639917
0.7221946,-0.01208156,0.0262839
0.7354109,-0.00521039,0.04417004
0.7551554,-0.00418994,0.09530093
0.7492387,-0.01270251,0.1020688
0.6888501,0.01606367,0.1118161
0.6612424,0.009652681,0.1024438
0.6685716,0.02093165,0.05076137
0.7224111,0.02087956,-0.0009776412
0.7490155,-0.002335643,-0.04039709
0.7304931,-0.003466494,-0.01838637
0.7201908,-0.01267382,0.01343698
0.6702895,0.001507888,0.03697775
0.6356027,-0.03223856,0.03468768
0.6533372,-0.1813916,-0.02709972
0.7082332,-0.3704415,-0.03984759
0.8699311,-0.4477162,0.05030233
1.24247,-0.3592968,0.2813003
1.711956,-0.2229289,0.4982501
1.925262,-0.07355933,0.4668465
1.90036,-0.08653576,0.3998035
1.836615,-0.187179,0.3959997
1.629112,-0.05413621,0.335622
1.311462,0.01249801,0.3368589
1.148563,-0.04202264,0.3468794
1.140035,-0.03234353,0.307165
1.014449,-0.1301975,0.2889963
0.7855183,-0.153616,0.1727847
0.6559059,-0.1094109,0.06413131
0.5931345,-0.1476228,0.08594505
0.5516394,-0.1215521,0.09654738
0.5105558,-0.1082822,0.104411
0.4827128,-0.07317243,0.1108764
0.5455048,-0.01097843,0.1052337
0.6358256,-0.02060601,0.1204188
0.7122149,-0.009619972,0.1239482
0.7782482,-0.01577126,0.1644737
0.8161683,-0.0304823,0.2072116
0.8448602,-0.04137307,0.1950628
0.8367462,-0.09126944,0.1980781
0.8363502,-0.1267706,0.2131932
0.9376455,-0.1848344,0.1243135
1.186022,-0.2999324,-0.1297398
1.561499,-0.5009513,-0.3214586
1.822135,-0.7698931,-0.2231992
1.809929,-0.9330807,-0.05245728
1.677007,-0.7597395,0.01627812
1.510651,-0.3309462,0.1183386
1.369519,-0.111556,0.1269794
1.360275,-0.1019338,0.0227175
1.324829,-0.06496109,0.05466011
1.153579,-0.1053204,0.07317563
1.01343,-0.1464886,0.07777414
0.9153917,-0.08908074,0.1412128
0.8183447,-0.02679102,0.08050282
0.766648,-0.0294712,0.04509905
0.7342667,-0.06804037,0.02343977
0.7512335,-0.07080976,-0.04990599
0.7987191,-0.09846838,-0.04773846
0.8147822,-0.1171348,-0.05918567
0.8100935,-0.105565,-0.009446936
0.7981295,-0.1081342,0.08282465
0.8601144,-0.07012554,0.08389667
0.9193435,-0.06280686,0.03282326
0.8372853,-0.07017269,-0.05435461
0.7408154,-0.02537694,-0.05043367
0.7246792,0.04323446,-0.01456425
0.7620952,0.120476,-0.01718897
0.7971946,0.1097162,0.05470921
0.778157,0.04992717,0.1100097
0.7456147,-0.01155207,0.1478487
0.7434497,-0.1716719,0.1732129
0.8745777,-0.436385,0.1485847
1.186897,-0.670428,0.1991482
1.487227,-0.6680192,0.2826863
1.673193,-0.5503813,0.3139092
1.848602,-0.4967097,0.2987814
1.973184,-0.4026539,0.2569697
1.882978,-0.3638356,0.2550214
1.574692,-0.3258957,0.2817008
1.263885,-0.1660948,0.3187127
1.198613,-0.1529777,0.3244303
1.113008,-0.1477287,0.2590705
0.7776607,-0.008431316,0.2180765
0.7347217,-0.05620114,0.2135962
0.7909884,-0.1565679,0.1601779
0.4814225,-0.1931649,0.06506008
0.4468518,-0.2745534,0.0567531
0.5494926,-0.199631,0.1695673
0.404978,-0.101433,0.2253675
0.4424104,-0.1266657,0.1783841
0.4444727,-0.06150485,0.1314912
0.3983802,-0.006967106,0.1189325
0.5219176,-0.001126357,0.1052293
0.5749657,0.03838993,0.05723012
0.7004857,-0.02576072,0.05359534
0.8988972,-0.1111876,0.1116794
1.039062,-0.1368712,0.1842751
1.105631,-0.1851925,0.2361203
1.115706,-0.2401774,0.1840127
1.372271,-0.3380197,0.0606574
1.69705,-0.4625076,-0.04470847
1.775653,-0.5685885,-0.03380945
1.739295,-0.613663,0.07125232
1.603793,-0.4363656,0.1280359
1.374103,-0.1731247,0.2235127
1.219798,-0.08988415,0.2941455
1.230478,-0.09223209,0.1696847
1.182149,-0.07458819,0.03242198
1.023083,-0.03706146,-0.00760656
0.9709934,0.04821337,0.01149919
0.9164728,0.07419037,0.04775389
0.8459385,-0.007419933,0.057897
0.7821521,-0.08449778,0.07686221
0.6414538,-0.1468704,0.05665954
0.6036448,-0.1823662,-0.003658838
0.6314076,-0.1493777,-0.04006064
0.6010386,-0.09896162,-0.03859409
0.5654528,-0.04277988,-0.001633618
0.5377991,-0.01872317,0.006487406
0.5789108,-0.06000948,0.02608002
0.6146299,-0.1051558,0.04270444
0.5656027,-0.1479957,0.01423237
0.5421196,-0.1571795,0.05804533
0.6264169,-0.1790569,0.1012344
0.8761032,-0.3667,0.1447853
1.324101,-0.5083187,0.2874283
1.807596,-0.3144133,0.370859
2.015659,-0.1211472,0.366586
1.959878,-0.2780532,0.3570115
1.873961,-0.384599,0.3484832
1.682675,-0.2391182,0.3483972
1.368234,-0.2202246,0.3341582
1.15186,-0.2716428,0.3219842
0.9917993,-0.232511,0.2963762
0.7671656,-0.1966921,0.2285858
0.5973476,-0.0999907,0.1481194
0.5128526,-0.03929189,0.1105746
0.4867348,-0.0653691,0.1396454
0.5233429,-0.08666489,0.1554805
0.4998125,-0.1594619,0.162036
0.457397,-0.1832037,0.1788524
0.4242282,-0.1255627,0.1427074
0.3552638,-0.09617182,0.1164069
0.4355969,-0.07537393,0.1326623
0.5628871,-0.05590301,0.1321797
0.6147474,-0.05545114,0.123108
0.7985343,-0.08008725,0.1236437
0.9480383,-0.09811554,0.137848
0.9335195,-0.1487063,0.1356115
1.105132,-0.2993976,0.05886612
1.538229,-0.4839132,-0.05508118
1.876531,-0.6453489,-0.07491964
1.906271,-0.6629403,0.002128453
1.800731,-0.4559333,0.05311585
1.655478,-0.1611865,0.1009907
1.414471,0.02120186,0.1645274
1.333549,-0.00342677,0.126896
1.310056,-0.04007748,0.04724658
1.075031,0.003779298,0.05533812
1.013278,-0.007849151,0.08574313
1.01088,-0.0155213,0.09732445
0.8502127,-0.01798454,0.1123675
0.8666074,-0.05332551,0.09535501
0.8549356,-0.04155298,0.06261389
0.7854234,-0.0390945,0.0145649
0.7829611,-0.05169065,-0.03579872
0.679725,-0.03173439,-0.02507443
0.6839737,-0.02407659,-0.02586885
0.7192319,-0.02583218,-0.0453892
0.6662849,-0.04411446,-0.01493701
0.6347506,-0.08885748,0.02076421
0.5573546,-0.1088055,0.05572195
0.5962583,-0.06909827,0.05910738
0.6697264,-0.0007913218,0.02920811
0.6283636,0.00737659,0.02868951
0.6706913,-0.1294419,0.02459287
0.8090014,-0.4151049,0.08521362
1.116875,-0.5941921,0.2674
1.619559,-0.4253995,0.421956
1.980333,-0.2328391,0.4391743
1.990203,-0.2811134,0.3846647
1.85562,-0.283191,0.3757782
1.752061,-0.1827629,0.3609676
1.517301,-0.1171028,0.3109381
1.253825,-0.06278452,0.3055063
1.07931,-0.08686114,0.2975907
0.8299615,-0.1308799,0.2766117
0.6903406,-0.1460821,0.2244363
0.6403345,-0.1837982,0.1545598
0.5267598,-0.1520706,0.1611542
0.496893,-0.1238207,0.142814
0.4637562,-0.1253605,0.1262024
0.4705032,-0.08218141,0.1763437
0.482581,-0.07300711,0.174671
0.4295996,-0.06073454,0.1700351
0.554315,-0.04956708,0.1618877
0.6731383,-0.05630823,0.1152474
0.7097437,-0.04084391,0.1062633
0.7447272,-0.06758767,0.1137638
0.7301817,-0.1010496,0.1457061
0.8753153,-0.1452317,0.2093081
1.049846,-0.2202136,0.2274243
1.243614,-0.3141872,0.1060145
1.646709,-0.5053756,-0.08801686
1.856533,-0.6288828,-0.10462
1.721461,-0.5393683,0.02045925
1.635147,-0.3765226,0.09409638
1.55807,-0.1710423,0.1374145
1.311565,-0.01244648,0.1752507
1.283606,-0.04575697,0.1617396
1.301472,-0.100128,0.0893045
1.01945,-0.1008087,0.03711992
0.9571679,-0.1215668,0.02749715
0.9955326,-0.1015149,0.01640935
0.8632953,-0.1157572,0.03252113
0.8367791,-0.1432279,0.04356273
0.790701,-0.104522,0.03815786
0.7354267,-0.1032585,0.03232717
0.6843732,-0.08053449,-0.007220016
0.5712619,-0.02319679,-0.02311339
0.550309,0.02681511,-0.01179119
0.5584971,0.06753792,-0.005688565
0.6034641,0.00931148,0.01960711
0.6670244,-0.0384039,0.06452236
0.6586669,-0.02152253,0.105676
0.6329885,-0.03232911,0.07253788
0.5992235,-0.06939286,0.0182346
0.6187395,-0.1631337,0.02687303
0.7309649,-0.2383521,0.07573137
1.143156,-0.2180451,0.258893
1.821883,-0.2042797,0.4651282
0.4013971,0.02265637,0.1640897
0.4530958,0.01718847,0.116787
0.5234613,-0.004296849,0.07918179
0.7243934,-0.09492966,0.1111389
0.9169622,-0.1770499,0.1585861
1.075518,-0.2919562,0.1712748
1.296563,-0.4835525,0.108927
1.508735,-0.6179788,-0.006181594
1.585721,-0.5502315,-0.03191928
1.551792,-0.421236,0.02992709
1.600243,-0.3353165,0.07991363
1.636959,-0.1632949,0.137945
1.50301,-0.1136545,0.1793508
1.307036,-0.1868383,0.1448694
1.12135,-0.1076279,0.07525283
0.9777616,-0.1047815,0.007309593
0.8944886,-0.1287884,-0.03614966
0.9017424,-0.04542676,-0.02449369
0.9138676,-0.07185954,0.002572717
0.7986131,-0.06616424,0.01630669
0.6781196,-0.02755332,0.0300788
0.6009859,-0.03322716,0.0143671
0.5872507,0.01565429,-0.001166949
0.6328857,0.01660354,0.02343067
0.5905188,0.007728319,0.05162567
0.5677704,-0.03133333,0.09188884
0.5591897,-0.1108915,0.1120868
0.5047915,-0.104327,0.06955092
0.5582088,-0.1152613,0.02360156
0.6219808,-0.1895421,0.02123322
0.7383512,-0.3501205,0.1235046
1.06626,-0.4803059,0.3269109
1.540382,-0.3391142,0.459998
1.977963,-0.09652504,0.4453017
2.006869,-0.002408049,0.4191386
1.826973,-0.1059809,0.4495321
1.791201,-0.2561075,0.4595541
1.563014,-0.2523408,0.4600942
1.2612,-0.2027032,0.4480653
1.096776,-0.1552818,0.3661128
0.8173559,-0.03821737,0.2737261
0.629216,0.01278343,0.1919066
0.5908541,-0.004235623,0.1418653
0.5373034,0.004820909,0.1490444
0.5273225,-0.01641428,0.1276169
0.4580712,-0.02794817,0.1232818
0.4401552,0.008506505,0.1630488
0.5199853,0.03064228,0.1579467
0.601436,0.01206555,0.153211
0.789827,-0.06469715,0.1452678
0.9194518,-0.1338784,0.1060137
0.9265435,-0.1277802,0.1080847
0.8666184,-0.1225817,0.152571
0.7421725,-0.1993809,0.2201985
0.7628393,-0.2898168,0.2337305
0.995693,-0.3351394,0.08304403
1.376382,-0.4061311,-0.07488142
1.587313,-0.4295548,-0.04770477
1.548744,-0.3691124,0.02598815
1.672887,-0.3306357,0.07987981
1.712342,-0.2139828,0.1982101
1.446825,-0.0425672,0.1932807
1.315742,0.03360482,0.1022611
1.364446,0.05055984,0.1337418
1.354027,0.02502984,0.09623027
1.259252,0.03156076,0.05317203
1.161231,0.06882593,0.09331751
1.015644,0.04256271,0.02643905
0.8292067,0.01195994,0.00855108
0.8108411,-0.04684641,0.0239367
0.840093,-0.07466999,-0.0151172
0.7891543,-0.004042083,0.01566749
0.7747331,0.02300456,-0.001975071
0.7184902,0.02761219,-0.02788655
0.670195,0.03012508,-0.001919257
0.6647149,0.02258722,0.02704442
0.6313079,0.056455,0.1016938
0.6794827,0.063114,0.09437649
0.7293181,0.06044176,0.05580073
0.7240649,0.05969334,0.07297661
0.7175552,0.009184442,0.04224213
0.6518388,-0.1177088,0.01914623
0.6291736,-0.3471868,0.01019542
0.8021774,-0.5417091,0.02905931
1.21725,-0.5877145,0.156721
1.692167,-0.5267419,0.2838066
1.933381,-0.458941,0.2901213
1.978982,-0.3829622,0.2467332
1.940033,-0.1468414,0.2688347
1.717842,0.09407029,0.2755471
1.343062,0.1330129,0.2325594
1.057955,0.1202805,0.2132467
0.8905773,0.08097788,0.1517218
0.7522121,-0.01480972,0.08719697
0.6741055,-0.05821529,0.0252967
0.5921031,-0.1067516,-0.07486842
0.6209173,-0.2121544,-0.04171932
0.7663393,-0.285975,0.07732742
0.7517141,-0.2944683,0.1442892
0.7213559,-0.2363908,0.1934259
0.7351962,-0.1499632,0.197949
0.7229738,-0.0948202,0.1870677
0.7892843,-0.07370984,0.1860818
0.7835486,-0.08378208,0.1946808
0.7621528,-0.07411831,0.2266383
0.789719,-0.02462374,0.2131923
0.7588005,-0.00182955,0.1950392
0.7683021,-0.002679546,0.189771
0.7348779,-0.01413668,0.1613447
0.6864772,-0.04650245,0.183965
0.7516136,-0.1166006,0.1873375
0.9190046,-0.2290271,0.05954237
1.290692,-0.3223445,-0.1572088
1.644296,-0.4981666,-0.2947317
1.715671,-0.8424802,-0.2195091
1.701992,-1.034863,-0.09690334
1.687527,-0.8493371,0.02095887
1.570644,-0.4545802,0.1637455
1.480396,0.02623304,0.1163683
1.461083,0.3405523,0.04362664
1.33176,0.256018,0.1150654
1.127655,0.1140316,0.1205343
0.9995525,0.03977974,0.1485693
0.9524165,-0.05870959,0.168777
0.8730576,-0.02192042,0.1006839
0.7890285,-0.04266941,0.1318774
0.7950096,-0.08994168,0.1070209
0.7601052,-0.02133772,0.008533317
0.7505758,-0.06268925,-0.01767086
0.819191,-0.05086623,-0.04254361
0.8338061,0.0009829011,-0.01315388
0.8995174,-0.004296174,-0.00312999
0.9609152,0.07678811,-0.001122134
0.9143028,0.04937905,0.05565389
0.8625536,-0.009168489,0.0278671
0.8330774,-0.005703016,0.02388589
0.7781485,-0.06655203,0.04429858
0.6578957,-0.0828659,0.03315908
0.5892563,-0.09491477,0.09962167
0.5937427,-0.07834092,0.1466764
0.576588,-0.0009567929,0.1445055
0.6071572,-0.003188353,0.1204497
0.6764248,-0.1036765,0.06432538
0.7580446,-0.38929,0.04499466
0.9702918,-0.7603277,0.1435488
1.355116,-0.8423384,0.4188589
1.719587,-0.5213868,0.628242
1.876515,-0.1093019,0.5623556
1.869846,0.04622517,0.4448946
1.752594,0.01057328,0.4132218
1.547456,-0.07977335,0.3888499
1.312922,-0.2188689,0.3839705
1.129576,-0.282167,0.3792847
0.9943798,-0.2521342,0.3022546
0.7803258,-0.2167673,0.2104692
0.5626821,-0.1725879,0.1407588
0.4684736,-0.1388186,0.1271326
0.4615581,-0.1303623,0.1704047
0.4867588,-0.1016934,0.1533924
0.4660181,-0.0449244,0.1370124
0.4242145,0.0111698,0.1443415
0.3789524,0.0324973,0.1406029
0.3392163,0.01440198,0.170401
0.4253608,0.0110223,0.1262119
0.5797977,-0.01766914,0.0628452
0.7357925,-0.09459806,0.08047598
0.9251808,-0.1202378,0.1365438
1.061195,-0.1414673,0.2327943
1.125202,-0.2515836,0.2371333
1.279356,-0.4267435,0.1173001
1.60279,-0.525188,-0.01411482
1.775639,-0.4604139,-0.06357772
1.682454,-0.4191171,0.05725116
1.772301,-0.3911919,0.1655622
1.897061,-0.2553095,0.1402302
1.581679,-0.1718188,0.148209
1.228098,-0.1029994,0.1797572
1.203797,0.0120534,0.1427948
1.187205,0.04298793,0.09473059
1.070255,0.06907589,0.05666846
0.9988815,0.0933198,0.02966598
0.852543,0.01422455,0.04130569
0.6798645,-0.06329811,0.04342781
0.6881322,-0.09356356,0.04095092
0.6779066,-0.1043268,0.06451984
0.6041877,-0.0552239,0.05848015
0.6266669,0.01512829,0.0261788
0.6244632,0.02936562,-0.01570348
0.6385348,0.01167173,-0.03469428
0.7003826,0.01894928,0.01486605
0.7014486,0.03578156,0.07158451
0.7066623,0.06199572,0.09880058
0.7063824,0.07560064,0.07705616
0.7129047,-0.07249436,0.006802212
0.7742726,-0.3893437,-0.007884228
0.941383,-0.6401752,0.1333869
1.358807,-0.6513167,0.384939
1.841943,-0.4965891,0.5004047
2.028098,-0.3390179,0.4237443
1.914982,-0.1973678,0.3207393
1.663848,-0.1081832,0.2318424
1.276723,-0.1539459,0.2748275
0.9426961,-0.215699,0.3956711
0.8603215,-0.1978954,0.3664884
0.7417043,-0.1506716,0.311115
0.5902997,-0.05061119,0.2574732
0.5693991,0.06293781,0.1501766
0.4550719,0.09860796,0.1144826
0.2977406,0.1179855,0.07223964
0.2080649,0.1226074,0.03259193
0.2589158,0.03656046,0.06427318
0.4847492,-0.0902999,0.06024968
0.6881526,-0.1706172,0.07021495
0.9728428,-0.2105035,0.1503581
1.216836,-0.3117088,0.2530862
1.261341,-0.4492325,0.2483644
1.563068,-0.523968,0.03441147
1.931497,-0.5596734,-0.1394987
1.817218,-0.5186707,-0.06986692
1.655203,-0.3949686,0.05791682
1.706576,-0.213334,0.1099933
1.556059,-0.01375554,0.1553595
1.418495,0.009456293,0.1478097
1.342752,-0.01684253,0.1058547
1.038723,0.02744518,0.1292224
0.9413196,-0.04610325,0.09294939
0.9654106,-0.04108497,0.04764091
0.9040744,0.03483057,0.0601672
0.9415714,-0.0355312,0.03116702
0.8050282,-0.0291187,0.06658765
0.7127072,-0.02319515,0.09591046
0.7178384,-0.06611423,0.04081358
0.570387,-0.003982717,0.02692261
0.5748995,0.02026185,0.0386321
0.6649346,0.07667415,0.05891581
0.7262568,0.1200206,0.05430625
0.7512208,0.07985761,0.06461861
0.7272391,0.1617127,0.1391399
0.7847382,0.2513191,0.1756032
0.7838668,0.2814763,0.1434313
0.7809437,0.2525169,0.03862461
0.8254052,0.0355769,-0.0675158
0.8842351,-0.3468631,-0.07688394
1.114056,-0.7392077,0.07360676
1.453571,-0.81975,0.3501707
1.830036,-0.579949,0.4214467
1.984855,-0.282056,0.194685
1.708913,-0.06616625,0.04498811
1.358094,-0.09393742,0.1901096
1.219238,-0.1744884,0.3255973
1.278663,-0.1289585,0.2339109
1.317141,-0.1570495,0.2230251
1.193986,-0.2001219,0.2583841
1.057544,-0.1966902,0.1611315
0.8886099,-0.2190937,0.149583
0.715058,-0.2002461,0.1582526
0.6915946,-0.1979662,0.1085078
0.6793941,-0.2239791,0.098199
0.6602383,-0.2183189,0.1019786
0.6948245,-0.2210016,0.1292115
0.6412528,-0.16328,0.1135689
0.5600375,-0.06472768,0.0947546
0.5320832,-0.02194503,0.1205331
0.5475764,0.03953964,0.1039162
0.6040724,0.1245709,0.1152751
0.5938352,0.1216512,0.1295692
0.5946625,0.03550195,0.1098429
0.6639081,-0.04470191,0.1056919
0.7021313,-0.1093111,0.0825873
0.743753,-0.1206172,0.09446497
0.8044836,-0.1263143,0.1366075
0.8741956,-0.2194542,0.1552047
0.9725678,-0.2195483,0.1505816
1.248819,-0.2690769,0.07926041
1.711019,-0.5733028,-0.05433313
1.932545,-0.7315461,-0.1596765
1.800491,-0.6259547,-0.07743307
1.608052,-0.4846506,0.101641
1.5009,-0.3764501,0.151168
1.399103,-0.2939548,0.1802733
1.243029,-0.1588635,0.2234561
1.236962,-0.05866995,0.1727011
1.231267,-0.04317722,0.1003508
0.9974335,0.01430459,0.07075095
0.8759926,0.05763758,0.06435701
0.8444938,0.02031344,0.03040934
0.7322869,-0.02057773,0.01446668
0.7094052,-0.06434833,0.03246257
0.6848614,-0.0907992,0.009905991
0.7050781,-0.03473368,0.01273835
0.8338505,0.0003857432,0.03894284
0.8374802,-0.00127218,0.04302572
0.7798808,0.007060516,0.04112975
0.7349333,-0.01859454,0.02227337
0.6950739,-0.008999346,0.04063571
0.7335282,-0.003771174,0.05552684
0.7745519,-0.02494026,0.0319722
0.8027346,-0.02427231,0.03357256
0.718031,-0.1035492,0.03765582
0.5211641,-0.2299319,0.05182897
0.496257,-0.3835575,0.09952762
0.6838939,-0.5470227,0.2064113
1.141911,-0.5286279,0.3522603
1.780639,-0.2770337,0.400829
2.04971,-0.01068382,0.3720946
1.922176,-0.01045456,0.380761
1.810312,-0.1138505,0.4099677
1.657026,-0.1155841,0.4232894
1.430198,-0.2041713,0.4285456
1.260824,-0.237686,0.4197031
0.9617554,-0.1244774,0.3762878
0.6926573,-0.09036929,0.2947535
0.6536683,-0.03851929,0.1933341
0.5191461,0.01528458,0.1302197
0.4366077,-0.01242072,0.1410702
0.5078744,-0.02788102,0.1634599
0.3927558,-0.06996118,0.1579581
0.2962518,-0.05597264,0.156405
0.3514354,0.01859587,0.1376997
0.4096712,0.02791003,0.1015892
0.5468441,-0.02173045,0.1104262
0.7252707,-0.1177888,0.1326418
0.9001288,-0.1344094,0.1552259
1.072519,-0.1538467,0.1750783
1.280019,-0.3292166,0.07089156
1.622838,-0.476952,-0.11401
1.854857,-0.5720131,-0.1648937
1.782986,-0.632803,-0.01460348
1.694644,-0.5478776,0.1589985
1.685129,-0.3372457,0.1698563
1.547514,-0.08525495,0.1162306
1.351738,0.05173145,0.1054914
1.211167,0.03768083,0.07582584
1.065668,0.01844312,0.05205832
0.9746385,0.02720302,0.07273601
0.9123571,0.02424586,0.08596332
0.7799236,0.04347768,0.07048472
0.6861536,0.07489568,0.05730277
0.6845316,0.04612071,0.05068543
0.7062818,-0.003597974,0.03807229
0.7166408,-0.04451601,0.05186673
0.6726572,-0.0788474,0.08832622
0.6054228,-0.03628892,0.08948529
0.5975032,0.007992084,0.02175351
0.6164302,-0.02584116,-0.05105185
0.6350682,-0.02987595,-0.01821544
0.6710191,0.02652767,0.0286911
0.6791216,0.07226196,0.005043962
0.6789758,0.03315889,0.02214801
0.7305373,-0.2061846,0.0539853
0.8641518,-0.5485401,0.1317688
1.212207,-0.6156369,0.3470911
1.744432,-0.3667473,0.4755457
2.034145,-0.1687519,0.4402484
1.934197,-0.1542504,0.4082283
1.776976,-0.2599895,0.3903783
1.609579,-0.3926464,0.3921152
1.435848,-0.3994582,0.4069978
1.324165,-0.3491292,0.3839313
0.9541903,-0.2852813,0.3311773
0.5654852,-0.1230583,0.2386031
0.5899164,-0.01832416,0.1633173
0.5611744,-0.02258392,0.1620746
0.4251647,-0.008714214,0.1689197
0.475916,-0.003433176,0.1684947
0.4444341,-0.006289781,0.1722106
0.3959524,0.01618925,0.1626425
0.4695631,0.0248711,0.1595058
0.5499078,-0.006713706,0.1583254
0.7016045,-0.07471307,0.1520068
0.7658478,-0.1226437,0.1555442
0.7521244,-0.1302906,0.1785488
0.9080053,-0.1786731,0.2053986
1.076951,-0.2995272,0.1564429
1.299818,-0.4518603,-0.007312478
1.692441,-0.5753284,-0.2068124
1.838043,-0.5791748,-0.2403032
1.636859,-0.5232688,-0.01421126
1.536598,-0.4915268,0.167155
1.61307,-0.3418367,0.116699
1.588501,-0.1332512,0.08346872
1.450431,-0.05564939,0.1112633
1.252452,0.007090542,0.06107413
1.018947,0.0439968,0.05454789
0.9422192,-0.03293216,0.08442887
0.9156191,-0.05028622,0.03165745
0.7937935,-0.02659186,0.02403727
0.7596627,-0.06295365,0.0410574
0.7527285,-0.08085865,0.006708637
0.7363617,-0.1065116,0.01214607
0.7584105,-0.1169853,0.02035737
0.707771,-0.06048151,0.03993501
0.6801368,-0.0230395,0.06413829
0.6470569,-0.01960639,0.009539578
0.5635939,-0.04299136,-0.0274927
0.5354814,-0.0605752,-0.00140642
0.4764832,-0.04422214,0.02560009
0.4595004,-0.04103918,0.02345986
0.5364338,-0.05876397,0.01440146
0.6569791,-0.2042699,0.03581004
0.9260533,-0.4773122,0.1218339
1.3504,-0.561696,0.3164313
1.826878,-0.3378534,0.43917
2.041421,-0.1232514,0.3841653
1.940464,-0.1437235,0.3793863
1.835911,-0.219733,0.4374471
1.567177,-0.2636438,0.4221791
1.174931,-0.326616,0.387898
1.070037,-0.2809119,0.3555697
1.007466,-0.1538457,0.3087906
0.8096731,-0.07043066,0.266702
0.7278727,-0.01112947,0.2093274
0.6090296,0.02731377,0.1558935
0.4415528,0.04633273,0.1292774
0.4641215,0.01179049,0.1388738
0.4413169,-0.04635641,0.1683213
0.3357769,-0.06048655,0.1462132
0.3355873,-0.1036493,0.1274512
0.3485407,-0.1144046,0.1222752
0.4548958,-0.07665729,0.08834141
0.6322502,-0.1076043,0.1043942
0.7586997,-0.1294969,0.1240725
0.888752,-0.1921298,0.1133248
0.9939553,-0.3553199,0.05097378
1.263389,-0.4829737,-0.1012427
1.685278,-0.5838334,-0.1843699
1.860784,-0.6131996,-0.1518758
1.788091,-0.4760302,0.01117905
1.627916,-0.2708168,0.2255935
1.472489,-0.1245904,0.1960042
1.421144,-0.06064436,0.1030114
1.344103,-0.03775342,0.1534293
1.224649,-0.0322368,0.1246687
1.245643,0.04521361,0.09930285
1.194069,0.1590108,0.137688
0.9703349,0.1376411,0.08771148
0.9346079,0.08541763,0.0674906
0.9320397,0.04438016,0.07606832
0.8041169,-0.06872198,0.04583925
0.7912003,-0.09762147,0.03610878
0.7298834,-0.05602467,0.0108738
0.6466145,-0.06882101,0.01412538
0.7294824,-0.03217398,0.02507681
0.786438,0.06304375,0.007180109
0.7975931,0.1335263,0.02903355
0.8282541,0.1440848,0.03731121
0.8344905,0.1149984,0.05969034
0.8201729,0.1435434,0.08726654
2.024401,0.03042543,-0.04758716
1.88229,-0.1010929,-0.170103
1.95215,-0.07571161,-0.1021635
1.622852,-0.1298302,0.06886523
1.014125,-0.1154831,0.2003604
0.7847796,-0.03156158,0.2747267
0.7181051,-0.1138412,0.2344886
0.6608656,-0.1116312,0.1567168
0.5866541,-0.0252478,0.1029523
0.4813822,0.06358368,-0.02492225
0.4245444,0.1830894,-0.05024759
0.2142851,0.1705438,0.03235925
0.1647494,0.1007875,0.1017887
0.3341956,0.0140067,0.1970749
0.4917934,-0.1040111,0.112594
0.8043791,-0.1480175,-0.08619511
1.008042,-0.1781698,-0.1502851
1.091511,-0.2020217,-0.03144919
1.151086,-0.256932,0.1744305
1.203283,-0.4167066,0.1283779
1.511548,-0.5957261,-0.07878924
1.726655,-0.71478,-0.1733169
1.693425,-0.6779003,-0.1680888
1.694528,-0.5719977,-0.09240874
1.697656,-0.5133449,-0.1112015
1.534709,-0.3281469,-0.1107201
1.229606,-0.09433917,-0.03941449
1.119789,-0.04316789,-0.09154817
1.071462,-0.08446127,-0.08745023
0.9297371,-0.1033622,-0.07192029
0.9569865,-0.09747476,-0.1036243
0.9027194,-0.1020055,-0.04436076
0.7132792,-0.1066671,-0.01652503
0.6676285,-0.08733736,0.02163034
0.6533937,-0.0861376,0.03398329
0.6563915,-0.06028654,-0.06365897
0.7218131,-0.02555074,-0.1293131
0.7795175,-0.02315799,-0.1321348
0.8081919,-0.01262072,-0.05078546
0.7875741,-0.04465843,0.01666356
0.7804696,-0.08376826,0.003046468
0.7920333,-0.07596471,-0.002981418
0.7469877,-0.05478587,0.002108945
0.6759276,-0.03804437,0.07857246
0.6038946,-0.1287265,0.1832756
0.5418955,-0.3212768,0.2595506
0.6123519,-0.4277101,0.3402319
1.063312,-0.3237148,0.3076382
1.766934,-0.1147209,0.1643339
1.993208,-0.03577499,0.03193065
1.793494,-0.1408368,-0.1376493
1.880507,-0.2617533,-0.321216
1.838095,-0.203876,-0.2371065
1.228025,-0.06065303,0.1184183
0.7200316,-0.01450636,0.3254106
0.7304169,-0.03755959,0.2368597
0.8279502,-0.09638262,0.09395543
0.5892542,-0.05425747,0.0496391
0.4333016,0.04035942,-0.006641079
0.5023994,0.0262151,-0.04188468
0.3705533,0.05375594,0.04047125
0.2914185,0.06823539,0.05745642
0.3177481,0.03875653,0.07386225
0.4169864,0.02504502,0.1182501
0.6486212,-0.04995644,0.06881152
0.6501251,-0.05959551,0.06984405
0.8097548,-0.09100607,0.0001197367
1.128006,-0.1527255,-0.08883293
1.089606,-0.07431362,-0.01685345
1.119462,-0.07893458,0.02101443
1.345734,-0.2728582,0.05320618
1.590407,-0.5672293,0.008066787
1.747032,-0.7467469,-0.1089032
1.688922,-0.6466518,-0.0802548
1.658267,-0.467187,-0.05152853
1.534086,-0.2423976,0.009451275
1.286396,-0.07501126,0.07588561
1.297496,-0.1321958,-0.03824071
1.325872,-0.1367037,-0.125769
1.163328,-0.03800283,-0.1379354
1.085367,0.01247709,-0.1539157
1.003728,0.05798277,-0.1145131
0.864746,0.03391817,-0.07281395
0.8490975,-0.02374165,-0.03096493
0.7830421,-0.07214053,-0.004468389
0.6372226,-0.1625654,-0.02653364
0.5672062,-0.1685133,-0.0236976
0.5389259,-0.1266697,-0.02860795
0.5617872,-0.1207044,-0.0453135
0.5827942,-0.09881395,-0.03155989
0.6280724,-0.1007423,-0.04407399
0.7454346,-0.08586383,-0.07253201
0.7929008,-0.04658478,-0.1048092
0.7594404,-0.0319163,-0.1152347
0.688459,-0.05735057,-0.03143674
0.6404021,-0.19342,0.1201626
0.7456219,-0.3358406,0.274997
1.121963,-0.3103212,0.3062486
1.709675,-0.1312619,0.1547174
2.034956,0.0003081022,0.02810923
1.924148,-0.0492203,0.05863281
1.774337,-0.1080679,0.08566839
1.657224,-0.07774605,0.06113099
1.490922,-0.02397342,0.09443533
1.395273,0.07395047,0.07353047
1.274913,0.1344411,-0.01536407
1.10033,0.05343167,-0.02662202
0.9201208,-0.02639595,-0.03970149
0.7032499,-0.03802828,-0.04476851
0.6274977,-0.09594099,-0.007961026
0.5841024,-0.1398252,-0.005455329
0.4909009,-0.112457,0.007976612
0.5144027,-0.08151786,0.000836876
0.4691356,-0.04618445,-0.01677097
0.471985,-0.0204491,0.001707056
0.5592861,-0.007300905,0.006961989
0.5308898,0.0004340917,0.03087828
0.6746623,-0.03649356,0.03300075
0.8715558,-0.09647215,0.01738145
0.8849733,-0.1229301,0.03600646
0.8502637,-0.1494714,0.02305569
0.8334742,-0.2640108,-0.000373915
1.023594,-0.4553158,-0.05112516
1.469719,-0.7285379,-0.1123764
1.90365,-1.08947,-0.07935133
1.854577,-1.205986,-0.001477884
1.456691,-0.7660287,0.1480603
1.350153,-0.154761,0.3008362
1.392803,0.03582631,0.1578707
1.40968,-0.07320357,-0.1397017
1.407105,-0.09053193,-0.2205166
1.289652,-0.07102399,-0.1258573
1.227479,-0.08075524,-0.02893106
1.111223,-0.03183708,-0.02054547
0.9547065,-0.01736333,-0.05690234
0.8565246,-0.08033417,-0.05276747
0.7614907,-0.135821,-0.09447811
0.7594547,-0.1647011,-0.1242073
0.6877105,-0.1493407,-0.1022365
0.6498393,-0.1186708,-0.1250541
0.7174406,-0.1057629,-0.1209409
0.715068,-0.09068191,-0.131151
0.7870794,-0.09934902,-0.1702998
0.7932139,-0.1087195,-0.1439802
0.7213944,-0.1181319,-0.08410388
0.7303157,-0.155539,0.0070136
0.7304224,-0.1606039,0.03860912
0.7673595,-0.1332463,-0.001096963
0.7632305,-0.05520145,0.007115889
0.7387042,0.05798747,0.01105313
0.7168185,0.06228101,0.02430682
0.5765317,-0.01589838,0.1045057
0.541531,-0.1202979,0.241675
0.797009,-0.2674995,0.4533897
1.336565,-0.2986794,0.5544743
1.872551,-0.2111255,0.3436401
1.997198,-0.2115402,0.01149574
1.932744,-0.250191,-0.2544
1.904204,-0.2222234,-0.3963215
1.625996,-0.1031845,-0.1644304
1.182634,0.07139689,0.2013268
0.9876847,0.06605794,0.1816104
0.9350258,-0.05174091,0.08085097
0.7546578,-0.0729391,0.1091005
0.5632243,-0.09755331,0.04318148
0.4502504,-0.07473075,0.03624236
0.3769045,-0.01617103,0.06560716
0.3505467,-0.03250943,0.03002854
0.3225248,0.003556348,0.03349298
0.3163729,0.03864729,0.008374902
0.4405957,0.001299235,0.008233257
0.632101,-0.01422166,0.0256362
0.7601425,-0.02506546,-0.03595451
0.8991321,-0.07101441,-0.0631737
1.033584,-0.1282435,-0.04985774
0.9821392,-0.1184073,-0.02854663
1.007838,-0.1691987,0.006818949
1.395504,-0.4783456,0.02079409
1.736892,-0.7733474,-0.02625402
1.702267,-0.7370355,-0.1174408
1.602386,-0.5514218,-0.08599272
1.615795,-0.3424184,0.0507743
1.492663,-0.009636257,0.1432926
1.389427,0.07986029,0.1513156
1.435206,-0.1403448,-0.004446068
1.232906,-0.142478,-0.1688858
1.028041,-0.1008485,-0.1127066
1.03533,-0.1109954,-0.03796267
0.9107695,0.002217369,-0.070746
0.8611878,-0.05290664,-0.03955775
0.8714358,-0.1289952,-0.01571017
0.6776477,-0.157237,-0.04194921
0.5721252,-0.2365488,-0.02048755
0.6422693,-0.1339785,-0.06829934
0.6749433,-0.05806125,-0.1160559
0.6642275,-0.07380136,-0.08028673
0.6667797,-0.0194159,-0.07292779
0.6104397,0.02146899,-0.001612379
0.5358747,0.05231687,0.1053031
0.5559888,0.01861765,0.1041644
0.6332865,-0.04533768,0.01366887
0.7120711,-0.1486237,-0.0663144
0.707746,-0.3416137,-0.004112294
0.7729787,-0.4532164,0.1745336
1.150619,-0.4493771,0.3130083
1.638194,-0.2304531,0.2314811
1.924447,0.08018728,0.05218404
1.953426,0.04855909,0.01522071
1.942413,-0.08768226,-0.08877379
1.909552,-0.06125452,-0.1930543
1.608926,-0.09392477,-0.01009686
1.243137,-0.07003709,0.1793699
1.058646,0.01358622,0.1896128
0.9782433,-0.05402592,0.1698296
0.8901271,-0.07255076,0.1556325
0.7004956,-0.02408615,0.1039235
0.5359084,-0.02563499,0.04361638
0.4336209,0.01478212,0.03653373
0.3300025,0.03162036,0.003022364
0.3145128,0.03245125,-0.03315655
0.3336583,0.05136033,0.05769763
0.3977219,0.02855327,0.1681875
0.5650722,-0.0006063527,0.1646068
0.7549611,-0.04778699,0.02825829
0.8991027,-0.06132756,-0.1231516
0.9397931,-0.02856656,-0.1060967
0.9177281,-0.04250465,0.001622261
0.9704749,-0.1301656,0.03074952
1.323693,-0.4077212,-0.01603052
1.791969,-0.7408197,-0.07027514
1.864889,-0.7481646,-0.07723455
1.751947,-0.538512,-0.01071349
1.621893,-0.363002,0.17447
1.34202,-0.1903055,0.3063974
1.32388,-0.1339611,0.07410793
1.361301,-0.1400859,-0.1813329
1.118533,-0.06117222,-0.09306312
1.137536,-0.05116214,-0.05808711
1.139545,0.01172114,-0.1141837
0.8418945,0.06883375,-0.02767995
0.7605954,-0.04256144,-0.0160555
0.6977854,-0.0174095,-0.06103962
0.6175922,-0.004149683,-0.05158569
0.6470343,-0.08265763,-0.06586152
0.5626791,-0.06543271,-0.07682689
0.6012546,-0.1001602,-0.1062061
0.7289143,-0.0647365,-0.1433058
0.8247854,0.01851317,-0.165893
0.8998339,0.06613774,-0.1755533
0.7918614,0.163043,-0.1072455
0.7504336,0.2004618,-0.06002119
0.8209957,0.2386005,-0.09209602
0.891865,0.1951139,-0.121161
0.9812379,0.09056405,-0.1287921
0.832004,-0.0006325657,-0.04856319
0.5866363,-0.2945935,0.1282588
0.6146815,-0.5924903,0.3372198
0.9660108,-0.7077897,0.5303476
1.559448,-0.5865133,0.5575282
1.998214,-0.3202943,0.3551208
2.004083,-0.2308403,0.04185412
1.889523,-0.1533988,-0.1863492
1.703279,-0.06259205,-0.1400617
1.315,-0.033769,0.001533373
1.13434,0.04050256,0.02412168
1.084723,0.0090174,0.08840571
0.8748396,-0.04588534,0.08904241
0.8331259,-0.1423025,-0.01420225
0.7871473,-0.2866086,0.003585475
0.638241,-0.2447835,-0.02357723
0.6758518,-0.2048734,-0.03690779
0.6535178,-0.1994398,0.03920877
0.5838998,-0.1513514,0.02266991
0.5321788,-0.1274679,0.0583078
0.4223749,-0.04089413,0.05041721
0.4616508,-0.008804968,-0.01991839
0.5222961,-0.02610888,0.01698393
0.5731275,0.02008684,-0.01005804
0.6718961,0.01055724,-0.03156717
0.7098971,-0.05195718,-0.01785788
0.8345267,-0.1195921,-0.05522265
0.9497794,-0.1440736,-0.05160115
0.9459779,-0.09448957,-0.05002356
0.9325023,-0.04793471,-0.0151477
0.9215609,-0.03482157,0.06517392
1.104473,-0.1648763,0.08322313
1.567264,-0.5416865,-0.01500688
1.986458,-0.9633649,-0.139415
1.945618,-1.078949,-0.09827117
1.525561,-0.7907453,-0.005082662
1.194032,-0.3260766,0.14484
1.108408,-0.0145707,0.3363617
1.240438,-0.08814146,0.09474517
1.305619,-0.2401923,-0.2609162
1.117363,-0.1309062,-0.1670859
1.00229,-0.09519405,-0.07908573
0.9751757,-0.1100208,-0.09913583
0.9489085,-0.01890732,0.01319566
0.9179293,-0.08146503,-0.004707793
0.7870379,-0.1048313,-0.05570233
0.7670819,-0.108317,-0.02433094
0.82826,-0.1674927,-0.07817859
0.8151388,-0.06167689,-0.09443744
0.7596,-0.02191246,-0.09338757
0.6250984,0.02474601,-0.09976562
0.5571888,0.06966167,-0.03120784
0.5532407,-0.08328088,-0.01085245
0.5230569,-0.1632021,-0.01116942
0.5380776,-0.1920295,-2.997725e-05
0.572896,-0.1406715,0.009688796
0.6179765,-0.05862774,0.0648997
0.6099718,-0.1648714,0.1276629
0.5988202,-0.3031284,0.276948
0.8237101,-0.4338026,0.4026536
1.428777,-0.3625533,0.2796241
2.076412,-0.2095674,0.1028565
2.072014,-0.3420507,0.03716524
1.843192,-0.3544511,0.02118558
1.949809,-0.1379317,0.04905364
1.602602,0.06887852,0.09917295
1.021182,0.2071699,0.1832394
1.018443,0.1342665,0.256701
1.00891,0.06524433,0.1868003
0.7523278,-0.01112876,0.08461209
0.622214,-0.2153563,0.06046455
0.5586527,-0.1496367,0.03441674
0.4022734,-0.0008156395,0.02754046
0.2398432,-0.04254714,0.05162238
0.2620069,0.01713806,0.09178702
0.2604155,0.04140462,0.1081062
0.2707582,-0.01474693,0.0347162
0.4885252,0.01120057,-0.02390738
0.6874201,-0.0502231,-0.04187402
0.9128162,-0.09704858,-0.07944672
1.062993,-0.0700496,-0.09362581
1.041209,-0.07844701,-0.02354937
1.066432,-0.07319182,0.1088109
1.130957,-0.19042,0.1131668
1.418657,-0.4139397,-0.0537146
1.778137,-0.5753211,-0.2409854
1.798895,-0.6669011,-0.3284011
1.661473,-0.6024909,-0.2138215
1.422286,-0.3233105,0.09743481
1.162048,-0.05502176,0.3473651
1.313543,-0.116914,0.07481472
1.533254,-0.2314729,-0.312514
1.19438,-0.08478537,-0.08970652
0.8608261,-0.004301224,0.04597634
0.9119704,0.03171724,-0.1244402
0.8919075,0.03954666,-0.01138628
0.8692391,-0.1118709,-0.02035745
0.8553551,-0.07263846,-0.09602788
0.7862069,-0.02224321,-0.01538371
0.7737095,-0.08890911,-0.09797007
0.6789339,-0.002429302,-0.09311173
0.6502306,-0.008837239,-0.06213408
0.6384038,-0.02954427,-0.1172564
0.5779567,0.01781099,-0.05917809
0.6433801,-0.04363473,-0.04027906
0.6255153,-0.08077384,-0.003010684
0.5856764,-0.1898267,-0.01191512
0.5925384,-0.2696266,-0.08885205
0.5563427,-0.1962064,-0.02947203
0.5732524,-0.1533533,0.02065121
0.5358928,-0.06179627,0.1587454
0.5991713,-0.01291468,0.3962074
1.075043,-0.02155591,0.4027897
1.770669,0.004081263,0.1521377
2.077344,-0.1771689,-0.1207143
1.902955,-0.3899018,-0.1243655
1.833158,-0.3218535,-0.01556345
1.744827,-0.1953552,0.002736654
1.510908,-0.1402783,0.1026039
1.379392,0.01455802,0.1308476
1.097834,0.1702918,0.08261763
0.9415846,0.1131818,0.1191071
0.863482,0.008317298,0.04513271
0.4187879,-0.01360587,-0.003196016
0.2598636,-0.0691469,0.05917253
0.3403585,-0.1017875,0.05881074
0.2177238,-0.03591521,0.1225353
0.2433638,0.01880322,0.1603195
0.3183779,0.03732045,0.07378464
0.4652842,0.04971721,0.0130944
0.7254139,0.03031667,-0.03090171
0.816272,-0.009675803,-0.02822617
0.9858736,-0.0838527,0.03523019
1.218592,-0.2058181,0.08871663
1.3572,-0.4053992,0.04045444
1.611554,-0.669737,-0.1303049
1.775655,-0.7757665,-0.231124
1.725038,-0.670291,-0.1951652
1.701268,-0.4536325,-0.09235505
1.574465,-0.1175327,0.0479067
1.385939,0.02652053,0.1236613
1.419904,-0.1510978,-0.03286229
1.321433,-0.2023195,-0.2299595
0.9833649,-0.140332,-0.09919485
0.8675994,-0.1502598,0.01184847
0.8964489,-0.08710324,-0.07995341
0.8767715,-0.09611019,-0.02266893
0.864394,-0.1504187,-0.002113865
0.7755851,-0.1110007,-0.0659083
0.6430246,-0.1385732,-0.05455295
0.5961047,-0.1319046,-0.07669402
0.5965213,-0.05935329,-0.0546297
0.5625425,-0.03577105,-0.03606189
0.535297,-0.01820639,-0.05863799
0.5544354,-0.026012,-0.03841006
0.5528144,-0.01277988,-0.03880515
0.5482686,-0.001344217,0.003135602
0.5703057,-0.001494761,0.05748405
0.5651332,0.05145962,0.04267931
0.5797384,-0.004610484,0.05724994
0.665753,-0.225826,0.1675448
0.9236313,-0.4396385,0.3266689
1.483376,-0.4014397,0.3205984
1.982565,-0.1806011,0.06771216
2.010909,-0.1097188,-0.142617
1.925866,-0.06408209,-0.08902652
1.986058,0.01760096,-0.002898169
1.797912,-0.01086026,-0.01652934
1.38988,-0.02125993,0.1071561
1.133465,-0.02058695,0.1826647
0.96688,-0.0381666,0.07764671
0.7794586,-0.0483327,0.09355413
0.6052864,-0.0599897,0.1078909
0.4494066,-0.03354852,0.06423628
0.3213168,-0.02936348,0.08486778
0.3007597,-0.01175375,0.05175052
0.3685941,0.03072122,0.03867849
0.4044769,0.05958945,0.04297743
0.532375,0.09477858,0.0054546
0.7003945,0.05593698,-0.01977124
0.7950989,-0.03070117,-0.06292113
0.9560599,-0.139049,-0.0462035
1.008666,-0.2119001,0.01195371
0.9402631,-0.1763251,0.07407949
0.9914254,-0.210789,0.1779743
1.187872,-0.3234268,0.1945065
1.483587,-0.4310865,0.07947429
1.651321,-0.5551118,-0.07966813
1.683202,-0.5860299,-0.214729
1.62858,-0.4251945,-0.2668134
1.331914,-0.07873859,0.00437233
1.154398,0.1201462,0.356596
1.39206,-0.08680221,0.007880695
1.561111,-0.2860466,-0.3841504
1.894697,-0.02782139,-0.07145343
1.830724,0.06653306,0.1467288
1.57442,0.03187751,0.08008209
1.269549,0.02566236,0.1395248
1.123933,-0.0134911,0.1824534
0.8498435,-0.08036588,0.04115453
0.6266582,-0.04707215,0.1106568
0.5198022,-0.0230769,0.09873525
0.3537471,0.02819731,0.03392151
0.3486003,0.08378514,0.112012
0.3433163,0.08552926,0.05678734
0.3276537,0.08801298,0.06624344
0.4483819,0.04203671,0.07464627
0.5655023,-0.03907911,0.005890907
0.8077242,-0.106952,0.04391743
1.051434,-0.131858,0.01566093
1.178987,-0.131288,0.05031056
1.276389,-0.1915336,0.1839146
1.272788,-0.3273573,0.2141051
1.302403,-0.526713,0.0807192
1.314442,-0.6361477,-0.189381
1.32484,-0.5510298,-0.2627416
1.566966,-0.4602699,-0.1337357
1.749744,-0.3718561,0.001829069
1.571751,-0.1828216,0.1065121
1.319446,-0.06995619,0.01452093
1.30212,-0.09007139,-0.07246066
1.223739,-0.09396656,-0.02447526
0.9723589,-0.08016279,-0.0604974
0.9100728,-0.08574519,-0.06383853
0.8829685,-0.1023509,-0.0207935
0.7706158,-0.1333275,-0.0395394
0.7304357,-0.167484,-0.008915367
0.6806316,-0.208624,-0.008496342
0.6635447,-0.2247425,-0.0505571
0.6707713,-0.1778032,-0.03926297
0.6443187,-0.09248776,-0.04587463
0.6201442,-0.02511669,-0.01048761
0.5772296,-0.01674611,0.0384637
0.5805183,-0.0133752,0.02047992
0.5981197,0.0261709,0.04295164
0.605298,0.040024,0.07081393
0.6522876,-0.001934404,0.06552649
0.675296,-0.1324303,0.08580173
0.7508067,-0.3696525,0.1770133
1.025713,-0.4668714,0.3396747
1.509109,-0.2656393,0.4204312
1.946138,-0.1060149,0.3516974
1.975971,-0.1307996,0.1836183
1.790876,-0.07102198,0.01101373
1.668935,0.01717526,0.02579628
1.416668,-0.01285644,0.1452837
1.14957,0.0006476272,0.1572069
1.029782,0.05179354,0.1612447
0.8669269,0.02752436,0.1634187
0.7283668,0.03051923,0.09112958
0.604878,0.06354019,0.06129525
0.4884512,0.05773067,0.03597242
0.5129941,0.07075322,0.01363188
0.4779214,0.08364474,0.03161047
0.4443466,0.06101351,0.009140313
0.5825202,0.0145007,0.02764482
0.7742053,-0.04316847,0.0477547
0.9691055,-0.05097842,0.01245603
1.016681,-0.04526724,0.02327029
0.9678903,-0.07933228,0.07652384
0.988199,-0.1027572,0.1665536
1.025679,-0.1533349,0.1755594
1.226241,-0.325898,0.01799082
1.567757,-0.5737862,-0.1924924
1.704875,-0.6991938,-0.3075626
1.667689,-0.6403938,-0.2314573
1.679842,-0.5289868,-0.1825666
1.544628,-0.325739,-0.221523
1.30805,-0.09307887,-0.1093578
1.395868,-0.09966209,-0.02060076
1.471924,-0.1657006,-0.1258192
1.244913,-0.09137105,-0.1845885
1.047641,-0.05765451,-0.07495672
0.8592903,-0.04206002,0.01479181
0.7932514,-0.0315962,-0.03403393
0.9061349,-0.07361716,-0.06556521
0.8776228,-0.04883137,-0.05807102
0.8482926,-0.03089261,-0.09149413
0.8537033,-0.03181639,-0.08351122
0.7938598,0.007590989,-0.06871617
0.7950926,-0.01081639,-0.07639023
0.7501111,-0.0189734,-0.06547901
0.7269594,-0.009233699,-0.08759015
0.8214899,-0.0410304,-0.1057201
0.8561932,-0.05928969,-0.09398382
0.7996212,-0.1140259,-0.06425575
0.7174002,-0.1646833,-0.003768931
0.7060191,-0.1423809,0.02525834
0.712018,-0.09297327,0.03083764
0.637049,-0.02892854,0.04255478
0.5585633,-0.03242263,0.07564386
0.530344,-0.1419326,0.2167785
0.702734,-0.2841796,0.4133628
1.108285,-0.3530087,0.4610782
1.597592,-0.2570256,0.2916557
1.990486,-0.1589139,0.1397123
1.981596,-0.1779218,0.1638475
1.76641,-0.125335,0.142196
1.644735,0.01279321,0.03244622
1.418974,0.1035193,0.01033854
1.227477,0.1731743,0.01814209
1.109744,0.1961703,0.02600113
0.8737786,0.1199531,0.04471736
0.74918,0.03099697,0.0471039
0.6468479,-0.03825873,0.07280628
0.535437,-0.1372413,0.03897059
0.5949311,-0.1596909,-0.02665803
0.5638927,-0.0543479,-0.01649503
0.538732,0.02938181,0.01038148
0.6343275,0.1040469,0.07128608
0.7201495,0.1406158,0.1033823
0.8983508,0.04608581,0.004945015
0.9978624,-0.01886379,-0.1021538
0.9987501,-0.03492755,-0.1033707
1.023977,-0.04267844,-0.02134608
0.987916,-0.04034793,0.07197295
0.987881,-0.1308405,0.1505951
1.071467,-0.260764,0.1111536
1.368125,-0.5335106,-0.127367
1.71236,-0.8728727,-0.2957383
1.583739,-0.8474685,-0.1024417
1.353973,-0.7170885,0.2086227
1.427599,-0.65319,0.2165086
1.439708,-0.3111003,0.1002457
1.425808,-0.1126115,0.08115473
1.450627,-0.2018813,0.03415666
1.310903,-0.1000216,0.05060155
1.206259,-0.07649178,0.07088401
1.122777,-0.1108805,0.02433762
0.9952842,0.03235611,0.03941569
0.9951703,0.03187782,-0.005391757
0.9692815,0.02420216,-0.06310012
0.8937434,0.03853426,-0.05295325
0.8089129,-0.04721645,-0.04947723
0.6827397,-0.07389209,-0.02363599
0.6519946,-0.1372114,-0.03178183
0.6701824,-0.1403954,-0.05939514
0.683643,-0.1067628,-0.08900203
0.6845843,-0.1571565,-0.11498
0.6827005,-0.1358007,-0.07440789
0.7319143,-0.1533318,-0.0555855
0.7590903,-0.1962219,-0.05631953
0.7584523,-0.1856727,-0.04540592
0.7186101,-0.1597683,-0.03109601
0.6788237,-0.0654003,0.01926615
0.6889423,-0.04012274,0.03789559
0.6692594,-0.1359729,0.07404547
0.7600905,-0.2975981,0.2540996
1.174671,-0.4179216,0.5364091
1.746205,-0.3234129,0.6231529
1.98742,-0.1784403,0.2719652
1.947781,-0.1296428,-0.04455376
1.989064,-0.09142441,0.06871429
1.859224,-0.07022265,0.09257377
1.638182,-0.0791433,-0.08079451
1.511871,-0.09005632,0.01725279
1.165912,-0.09256036,0.1364327
0.837357,-0.09797144,0.1067698
0.6645684,-0.113458,0.1762129
0.4622157,-0.1033067,0.1652144
0.3930452,-0.06849123,0.1193326
0.4063355,-0.02860727,0.1255043
0.4084167,0.00334048,0.03508245
0.4129027,0.008262989,0.04269474
0.4047659,0.02017846,0.06965467
0.4333798,0.0246589,0.002990393
0.4711123,-0.01164099,-0.002258127
0.619199,-0.08015831,-0.03221962
0.875352,-0.1862156,-0.05819772
0.979889,-0.2014558,-0.04814057
0.9279624,-0.09657761,-0.02825642
0.9377584,-0.02716062,0.0810463
1.014319,-0.02273311,0.1771708
1.170249,-0.2081124,0.1062574
1.578476,-0.5722323,-0.1544811
1.843258,-0.7270556,-0.33876
1.669632,-0.6214213,-0.212375
1.56382,-0.5478699,-0.07237226
1.561561,-0.4871823,-0.1351851
1.465743,-0.2242129,-0.1030273
1.460194,0.05913643,0.01488099
1.434354,0.04220071,-0.1068677
1.280695,-0.02885011,-0.1936737
1.075486,0.06953624,-0.08692627
0.8966867,0.06872469,-0.06114915
0.8222015,-0.01364409,-0.0296531
0.7794538,-0.03919762,0.001318372
0.7662023,-0.1406538,-0.03175266
0.6945778,-0.1803601,-0.0331168
0.5552304,-0.102098,-0.05393615
0.5793528,-0.09623197,-0.06571657
0.6607099,-0.08634966,-0.0796877
0.7449874,-0.06619608,-0.09394777
0.8134358,-0.04784283,-0.04704661
0.7007857,0.01411011,-0.004333673
0.6299624,0.02246492,0.01640564
0.6635811,0.04198703,0.01296171
0.6553009,0.04953929,0.03406819
0.6459425,-0.09145922,0.1170549
0.667495,-0.3216169,0.2377892
0.9130046,-0.455682,0.3777455
1.488194,-0.3367702,0.3525079
2.002247,-0.1801013,0.1159864
2.033719,-0.1482211,-0.08371236
1.911832,-0.06831173,-0.1032305
1.945339,0.03219134,-0.047309
1.69013,0.07869345,-0.001798804
1.248649,0.09126452,0.1256304
0.9979296,0.08054487,0.2053252
0.7470209,0.07233964,0.133318
0.5051817,0.008097101,0.1176868
0.3941584,-0.04837823,0.07536914
0.3896628,0.01492646,-0.01029556
0.3604551,0.08617458,0.0152456
0.2662702,0.08486088,0.006499226
0.2481373,0.101755,0.003932486
0.2530497,0.1268069,0.04487137
0.4114708,0.04553902,0.03142827
0.7597781,-0.05861067,0.04053149
1.027023,-0.09145199,-0.0003137696
1.169064,-0.1069523,-0.03963864
1.189579,-0.1759887,0.08902846
1.299828,-0.4058718,0.1817493
1.48651,-0.6839995,0.03865392
1.48501,-0.8250867,-0.1265321
1.593346,-0.8435776,-0.06303985
1.747761,-0.6004853,0.03508899
1.559757,-0.07316657,0.04914787
1.392639,0.2557083,0.08009832
1.469587,0.1654551,-0.06748087
1.377855,0.06021038,-0.2601863
1.128463,0.06961817,-0.1264007
1.039388,0.0322873,0.0277373
0.9642467,0.0193841,-0.02472554
0.8177426,-0.02891391,-0.01254123
0.711574,-0.1500376,0.00931908
0.632146,-0.2205101,-0.05525761
0.630197,-0.2495694,-0.0763221
0.6515121,-0.1946354,-0.1177574
0.6389264,-0.04623294,-0.1413069
0.6697104,0.1056685,-0.0910979
0.7079011,0.1547304,-0.07936545
0.7265281,0.06791457,-0.07898155
0.7536416,0.01484077,-0.08142896
0.8032774,0.01802695,-0.07603554
0.8482413,0.03421789,-0.05465941
0.8153842,0.09221221,-0.0584604
0.7286698,0.04769014,-0.001517964
0.6771545,-0.162355,0.1349655
0.7929819,-0.4655972,0.3048861
1.218708,-0.5969762,0.3707092
1.788592,-0.3310982,0.1992443
2.047108,-0.08119684,-0.0002583653
1.931378,-0.09718177,-0.09833852
1.794828,-0.09228112,-0.1620649
1.601074,-0.01632989,-0.05279324
1.332469,0.07268463,0.1470098
1.294871,0.1122941,0.1045534
1.229442,0.01185266,0.008215923
0.959821,-0.1040746,0.0178854
0.8471771,-0.1491549,-0.06047256
0.7714878,-0.1947406,-0.03325
0.5975285,-0.2687632,0.06808485
0.6086757,-0.2812707,0.03585527
0.6837006,-0.2164669,0.04629723
0.5893628,-0.1442496,0.01429077
0.5467274,-0.03860164,-0.04004722
0.5577039,0.01805953,-0.003265215
0.4428655,0.04978526,-0.034385
0.4083038,0.1473735,-0.05102131
0.4579077,0.1106684,-0.02812865
0.4722576,0.05125102,-0.02615747
0.563251,0.06623983,-0.01713636
0.7111208,-0.07148948,-0.03089602
0.8773392,-0.189512,-0.02487989
0.9546993,-0.2299731,-0.02841209
0.9463683,-0.2934846,-0.03098918
1.004433,-0.312411,-0.0008722183
1.144888,-0.4714456,-0.02031912
1.515538,-0.7232394,-0.1137129
1.867843,-0.8177782,-0.2369156
1.819194,-0.8336604,-0.2466791
1.615348,-0.7885396,-0.1223639
1.239541,-0.4779039,0.1998377
0.8743689,-0.07228145,0.5573741
1.204699,-0.05178319,0.2289099
1.592066,-0.1627149,-0.3109534
1.23591,-0.02539874,-0.157962
0.9156562,0.04815685,-0.008656704
0.8694768,0.03531651,-0.06755884
0.7358433,0.02817501,0.03813651
0.8179838,-0.06466628,-0.04298769
0.8454926,-0.06032954,-0.09951395
0.6957612,-0.01448361,-0.05312176
0.7101889,-0.03958265,-0.08675314
0.6578353,-0.04500148,0.00066432
0.6172451,-0.08213068,-0.05563743
0.6198548,-0.08673634,-0.1326823
0.5794087,-0.09627352,-0.02071764
0.6335975,-0.2047853,-0.01709377
0.5474448,-0.2110301,0.003618155
0.4755315,-0.07409121,0.04971598
0.5518322,0.04741093,0.09977891
0.604068,0.01240831,0.2393118
0.7591225,-0.1274756,0.3256973
1.029389,-0.230342,0.3602153
1.596481,-0.3426305,0.2953108
2.120588,-0.356235,0.1869769
1.997745,-0.2698079,0.02487457
1.869003,-0.2046884,-0.2037061
1.890709,-0.004656962,-0.1424464
1.457559,0.1931881,0.07276656
1.059805,0.1693802,0.1667415
0.9703647,0.02102044,0.1800144
0.722245,-0.1484317,0.09528942
0.4710747,-0.2021314,0.07331482
0.3524384,-0.1360852,0.07596557
0.2756154,-0.06252145,0.02438954
0.2973852,0.01756031,0.04876801
0.2705049,0.1069515,0.03869017
0.2643324,0.1555014,0.01435298
0.3986106,0.1289805,0.02393375
0.6037696,0.05848629,-0.002066894
0.8313086,-0.0192285,-7.868648e-05
0.919841,-0.03666893,-0.0234154
0.9503197,-0.04266388,-0.01106648
1.069361,-0.1992654,0.1299759
1.295596,-0.4723184,0.1917613
1.634125,-0.7241329,-0.001457355
1.806444,-0.7950602,-0.2338497
1.733994,-0.7027877,-0.1571556
1.637451,-0.5497199,-0.02505244
1.548943,-0.2393881,0.003527309
1.480887,-0.04801507,0.1286015
1.464251,-0.1517577,0.02279818
1.378953,-0.1321443,-0.1544013
1.145478,-0.02290248,-0.04693173
0.9714979,-0.0098464,-0.04732635
0.9376218,0.02374657,-0.07636004
0.8420072,-0.004375955,-0.01581393
0.7819288,-0.04409709,-0.05778553
0.7968321,-0.03635805,-0.04277747
0.7068709,-0.06417048,-0.03080386
0.643176,-0.05802155,-0.04862442
0.6491142,-0.0614255,-0.02364982
0.6485913,-0.09991108,-0.08360293
0.6636605,-0.1516374,-0.136057
0.6531651,-0.2166501,-0.1302954
0.6683675,-0.1650203,-0.1042341
0.6826713,-0.04371096,-0.0224346
0.6541397,0.04658976,0.05136679
0.6081768,0.09005938,0.06102722
0.495517,0.0549615,0.07658341
0.4665744,-0.1008132,0.1882469
0.6640493,-0.4317133,0.2826735
1.123168,-0.5835117,0.3358897
1.740567,-0.4018304,0.3723377
2.046888,-0.2823208,0.1886162
1.977792,-0.124529,-0.03835156
1.940498,0.1214149,-0.05216382
1.812077,0.1694785,-0.03692692
1.367894,0.1744847,0.02426576
0.9905305,0.179604,0.206509
0.889032,0.09694673,0.2501914
0.8082553,-0.02373321,0.153426
0.6504325,-0.1890443,0.1251076
0.4735203,-0.1924812,0.06885331
0.3455995,-0.07312424,0.003695338
0.2862408,-0.0792611,0.04476312
0.2183789,-0.0442982,0.08585212
0.1459604,0.01860338,0.1298694
0.1644755,0.001950481,0.1207915
0.3324714,0.03384301,0.02996603
0.5553468,0.006038678,-0.009649208
0.764697,-0.06208075,-0.0523065
1.031716,-0.05797083,-0.07770375
1.313445,-0.1276715,-0.02942782
1.548523,-0.3331156,0.008079324
1.717821,-0.6590637,-0.0004423866
1.749591,-0.8670675,-0.02444616
1.715053,-0.7707216,0.003038374
1.675208,-0.5140016,0.03065772
1.596036,-0.1499861,0.04232337
1.585731,-0.01270586,0.03824207
1.571172,-0.2064126,-0.06581523
1.372105,-0.2128586,-0.1248326
1.091485,-0.1227153,-0.05636936
0.8902936,-0.1331388,-4.422703e-05
0.8719166,-0.08076711,-0.02446987
0.8833181,-0.1058158,-0.05819201
0.8039041,-0.1441799,-0.04058422
0.7703801,-0.1114717,-0.07138062
0.7082943,-0.1328907,-0.09146577
0.6671736,-0.1163352,-0.04759264
0.6617366,-0.09149582,-0.0549452
0.5783998,-0.06801098,-0.06960821
0.6036217,0.01486055,-0.08114855
0.6780608,0.03750951,-0.05382407
0.6790915,-0.005504799,0.008668383
0.6160303,-0.04496398,0.0003143532
0.4946012,-0.04878869,0.02171311
0.5214789,-0.08186697,0.05526798
0.6273344,-0.2400836,0.06014896
0.7196088,-0.4196436,0.1722552
0.9548612,-0.4837247,0.3494489
1.312377,-0.4000685,0.4246868
1.73404,-0.1754132,0.2883359
2.016878,0.1149018,0.01169197
1.976179,0.2107982,-0.1628291
1.808295,0.1036936,-0.03817897
1.568682,0.06555535,0.1873526
1.207281,-0.04783062,0.190474
0.9929498,-0.1718429,0.1674364
0.9259127,-0.09802529,0.1717759
0.7553477,-0.09585211,0.06554426
0.636872,-0.06023233,0.06200188
0.5792631,0.05690337,0.0688082
0.4381868,0.05741943,0.02297518
0.3716766,0.08656644,0.06423304
0.3576579,0.05889757,0.05674578
0.4220302,-0.01867328,0.05388249
0.6289939,-0.04166163,0.05341648
0.8154307,-0.100852,-0.02051401
0.9849709,-0.1069886,-0.04219221
1.02935,-0.1122945,-0.0254559
0.9097147,-0.1166766,0.05804607
0.8747918,-0.1012406,0.1913851
0.9848034,-0.2446645,0.2469035
1.174159,-0.421777,0.1872342
1.337407,-0.5033365,0.06146831
1.583899,-0.6114652,-0.1077043
1.939866,-0.7669565,-0.4150005
1.908428,-0.6811889,-0.4732641
1.534046,-0.2527249,-0.03959543
1.387158,0.03282826,0.2248168
1.450498,-0.04388093,0.08641934
1.440971,-0.1336615,-0.07864361
1.27299,-0.04354654,-0.1267558
1.096135,-0.01004071,-0.1050381
1.071309,-0.0244532,-0.06438124
0.9739927,0.09344598,-0.0147819
0.8158781,0.03224219,-0.001057743
0.7772764,-0.4138121,0.2787516
1.094692,-0.5476841,0.4364344
1.609036,-0.3634658,0.4044253
2.001581,-0.08534765,0.0966435
2.021701,-0.1024647,-0.1281141
1.928011,-0.1408776,-0.0696242
1.865262,-0.06703214,0.08603256
1.607392,-0.04849241,0.1618313
1.292483,-0.02729204,0.2538581
1.148293,-0.03511916,0.2374548
0.9651717,-0.07870292,0.08334105
0.7484169,-0.09572793,0.1087303
0.5788292,-0.06790415,0.1144802
0.422969,-0.003696534,0.06849672
0.3726797,-0.01734815,0.1310962
0.3472528,-0.03084501,0.09369813
0.30491,0.02951288,0.09348213
0.3050701,0.06209267,0.07590121
0.3740329,0.08088314,-0.03510312
0.5480398,0.04179114,-0.01222944
0.7639778,-0.05598263,-0.001246091
1.002952,-0.1442302,-0.001041388
1.149567,-0.2227703,0.03032892
1.146295,-0.256418,0.06592773
1.211105,-0.4201617,0.1215811
1.421513,-0.7360206,-0.01964322
1.65467,-0.8361138,-0.1740372
1.751384,-0.6946055,-0.1238958
1.758862,-0.470421,-0.07376147
1.699305,-0.1670129,0.003628924
1.521568,-0.0282356,0.09605524
1.5039,-0.1091571,-0.05766839
1.4367,-0.09245661,-0.2351617
1.06158,-0.06056643,-0.08595449
0.885981,-0.09964826,0.04723308
0.8596511,-0.05993763,0.007556143
0.7502944,-0.08055554,0.0282918
0.7278799,-0.1144981,0.009331099
0.6290469,-0.07189158,-0.02742544
0.5546313,-0.08356704,-0.04027397
0.6344458,-0.0780259,-0.08723893
0.6666312,-0.07958219,-0.07528715
0.6795769,-0.1033465,-0.07159108
0.6596113,-0.0728118,-0.04159033
0.6243717,-0.04988047,0.04787376
0.620924,-0.009287099,0.05095164
0.6068483,0.02345414,0.03672506
0.6561434,0.01553582,0.05184378
0.7074555,-0.06566564,0.07663896
0.7375506,-0.3147917,0.1747338
0.9357638,-0.5166536,0.3157334
1.406706,-0.4610838,0.3451553
1.900207,-0.2973767,0.1600569
2.027154,-0.1798616,-0.06134959
1.931778,-0.09051086,-0.1147532
1.847773,-0.004184826,-0.02584497
1.583529,0.0303,0.09220877
1.202179,-0.004398382,0.1649356
0.9364439,-0.03247164,0.1860655
0.7022616,-0.01104534,0.1267338
0.4956819,-0.006492565,0.05664533
0.3759329,0.02000662,0.04565707
0.2605426,0.08583278,0.01559366
0.2157577,0.0657628,0.008116875
0.2576436,0.02849963,0.03802934
0.2888545,0.01079957,0.05173555
0.3782486,-0.05823489,0.06483025
0.5913323,-0.1217682,0.04363668
0.8962544,-0.1626337,-0.002831736
1.123322,-0.1285998,-0.04137361
1.171739,-0.09168025,-0.02947513
1.303787,-0.2714778,0.003825268
1.55284,-0.560907,-0.034741
1.605067,-0.6967477,-0.04239008
1.559936,-0.6378172,0.004207405
1.651849,-0.53905,0.01449108
1.725137,-0.3681194,0.004875595
1.652554,-0.02868724,-0.02085938
1.534602,0.1356563,-0.0299409
1.430527,0.06726905,-0.06293773
1.247899,0.06220568,-0.1194991
1.009324,0.01756163,-0.07470043
0.8720352,-0.03079443,-0.02973312
0.7855733,-0.01598939,-0.06103789
0.734347,-0.06980384,-0.07154871
0.7491762,-0.06985001,-0.07648005
0.6797242,-0.03970641,-0.08578389
0.5568201,-0.04347532,-0.07493872
0.5231966,-0.03398616,-0.06828193
0.562877,-0.0719536,-0.05940569
0.6122657,-0.08591511,-0.06188809
0.6889684,-0.08642025,-0.1145231
0.8077876,-0.1005496,-0.1626457
0.8423944,-0.04852526,-0.1337372
0.8128141,0.01972881,-0.05501784
0.7514286,0.04052468,0.04636115
0.5959893,-0.06768968,0.1902244
0.6418426,-0.2325045,0.3480941
1.035424,-0.2683989,0.412949
1.579555,-0.2144634,0.3102282
2.008798,-0.1789072,0.1561551
1.976973,-0.1789676,0.07222963
1.82929,-0.155148,-0.03490059
1.843459,-0.1207909,-0.1363332
1.60993,-0.07053834,-0.07906845
1.369859,0.0550501,0.01033834
1.27281,0.09433496,0.02598325
1.032756,0.03080108,0.06219657
0.8432713,0.01074418,0.0705389
0.7205642,-0.04530815,0.02024146
0.5931422,-0.1163158,0.002722704
0.5570512,-0.1029188,-0.001126134
0.5765577,-0.06428813,0.006316029
0.5861,-0.02911051,0.02731614
0.5617386,-0.008552964,0.005148039
0.6171069,-0.01642036,0.00118657
0.699105,-0.007726038,0.03293177
0.7371787,0.01706354,0.04341571
0.7630277,0.02955271,0.02722873
0.7292493,0.03603907,-0.01765993
0.7621517,0.03400064,-0.03649261
0.826029,0.04063027,-0.01965633
0.8814323,0.04121924,0.01803447
1.046222,-0.05792388,0.08218392
1.289432,-0.2914709,0.06666671
1.632169,-0.6257295,-0.06503205
1.799251,-0.9635412,-0.1582559
1.658016,-1.113433,-0.05906809
1.571847,-0.9484513,0.0807248
1.427427,-0.471452,0.08670098
1.174905,2.545319e-05,0.1380592
1.231724,-0.0281595,0.1530625
1.395464,-0.1999633,-0.01360047
1.346275,-0.004248024,-0.08110611
1.331107,0.02341295,-0.03778437
1.25118,-0.09414579,-0.01382336
1.048709,0.02758687,0.01427336
1.054533,-0.02068745,-0.006811508
1.047077,-0.05333854,-0.0270112
0.9190371,0.02507913,-0.04429924
0.8548421,-0.05741491,-0.06409445
0.7295883,-0.03193901,-0.05429932
0.6535669,-0.06414591,-0.0858684
0.6932192,-0.1442453,-0.100093
0.6907024,-0.09130346,-0.100317
0.656588,-0.1329495,-0.1131441
0.5959294,-0.1557448,-0.0695421
0.5464518,-0.2084785,-0.02585412
0.6007126,-0.271584,-0.004287817
0.6854739,-0.1833506,-0.01299326
0.6741074,-0.07820503,-0.02897095
0.6800976,0.07488762,-0.008197871
0.7235828,0.1278233,-0.006134412
0.6906711,-0.01086698,0.03913609
0.748012,-0.2079258,0.2048393
1.010302,-0.4197988,0.4384691
1.44363,-0.4091868,0.5133837
1.781373,-0.2498322,0.2669165
1.832125,-0.2132493,0.01993498
1.955243,-0.192395,-0.1046592
2.033794,-0.1339232,-0.2898696
1.80337,-0.06426138,-0.2223137
1.515801,0.02040585,0.1044849
1.188103,0.04244958,0.1709715
1.033911,-0.001342536,0.1006386
0.9557391,-0.06944825,0.1183908
0.5888172,-0.09276989,0.08381619
0.462504,-0.03945952,0.04795982
0.4706948,0.01074265,0.01943706
0.2897715,0.04763551,0.01861146
0.3473037,0.0638532,0.04221907
0.3410568,0.07834631,-0.01100795
0.2632739,0.1108779,-0.01840603
0.4241772,0.05663708,-0.005773172
0.5259722,-0.02267998,-0.02385943
0.7166506,-0.05143878,-0.02151995
0.9172906,-0.07802705,-0.05790831
0.9252235,-0.06694795,-0.04303764
1.009515,-0.08647336,0.03432269
1.262908,-0.2798784,0.05125844
1.734002,-0.6715121,-0.1063301
1.92648,-0.9989025,-0.2844287
1.591235,-0.9273897,-0.1149767
1.434191,-0.6166383,0.06222614
1.506834,-0.2955285,-0.06573805
1.489495,-0.03127178,-0.1311292
1.453315,0.0008533468,-0.1723289
1.385925,-0.02872464,-0.2517231
1.200184,0.03282191,-0.1352045
0.9449043,0.03772073,-0.02990061
0.8580129,0.06893628,-0.05187009
0.8834598,0.05587936,-0.04498565
0.7847459,-0.05245066,-0.05067799
0.6690606,-0.0726466,-0.06228256
0.6010664,-0.1014987,-0.072768
0.5569404,-0.1419379,-0.09927414
0.5768074,-0.1494415,-0.08404352
0.5890195,-0.1626083,-0.07671785
0.5853386,-0.1072513,-0.07604552
0.635204,-0.08792253,-0.06182169
0.7112369,-0.1093517,-0.06910549
0.7825942,-0.1017766,-0.05359074
0.7835434,-0.1318398,0.02159172
0.6736402,-0.2100318,0.1738919
0.6400617,-0.3316895,0.3098699
0.8974367,-0.3229532,0.3464755
1.455379,-0.1534173,0.3587492
1.955743,-0.04097783,0.2679731
2.021037,-0.02193084,0.09682967
1.910753,-0.05807246,0.08806465
1.797271,-0.05000159,0.1083823
1.455659,-0.01369598,0.02682735
1.195889,-0.03163086,0.05414889
1.134434,-0.03582981,0.1211765
0.8385667,-0.1158564,0.1175231
0.6269982,-0.2061968,0.1222254
0.7088374,-0.1220087,0.06621005
0.5387261,0.01197011,0.01017085
0.3544145,0.09092957,0.02688393
0.3960339,0.1057453,0.01940506
0.2455574,0.111529,-0.005231654
0.2025412,0.1222903,-0.03109036
0.4516335,0.03563727,-0.03279703
0.6503245,-0.06169728,-0.03675315
0.8548706,-0.09187803,-0.08446876
0.9985063,-0.1049692,-0.06469657
1.063674,-0.1139123,0.01889132
1.230381,-0.2140588,0.06083984
1.418682,-0.4872777,-0.01606429
1.544883,-0.7382645,-0.1242673
1.516501,-0.6753971,-0.09598201
1.502249,-0.4951492,-0.1273588
1.592769,-0.3907948,-0.2205884
1.457551,-0.04777598,-0.08053854
1.319133,0.2380473,0.03456495
1.381802,0.08409656,-0.09748777
1.292964,-0.02239281,-0.1696458
1.089088,-0.02452592,-0.09240268
0.9652788,-0.07739113,-0.03244543
0.9007671,-0.001523126,-0.01496106
0.8749677,0.007893759,-0.02250522
0.8229448,-0.04758464,-0.05440373
0.7248185,-0.04896823,-0.06353644
0.6729296,-0.0989183,-0.07707628
0.6975117,-0.0692651,-0.1119223
0.7212481,-0.007016717,-0.1036831
0.7501407,0.02312849,-0.1015171
0.7844316,0.07824638,-0.1166327
0.758884,0.03949855,-0.1043181
0.7158613,-0.00658789,-0.08754195
0.7030555,0.008562623,-0.05298173
0.7707521,0.06361191,-0.05049162
0.8834289,0.1745413,-0.07839926
0.8650828,0.1367559,-0.08365776
0.7543835,-0.07873029,-0.09430086
0.7359904,-0.3205418,0.028279
0.9694951,-0.476453,0.359066
1.472224,-0.4668482,0.5911661
1.863607,-0.4562518,0.4093427
1.943948,-0.4897118,-0.03620891
1.960067,-0.491063,-0.3171033
1.850953,-0.4819966,-0.2433673
1.50586,-0.3366338,0.03476343
1.270936,-0.122348,0.1615102
1.261943,-0.07137551,0.0732443
1.183102,-0.1321784,0.001021522
0.9495814,-0.1518796,-0.02981297
0.7338854,-0.137192,0.01003351
0.6179008,-0.1693265,0.08193693
0.5816537,-0.1733216,0.08860103
0.6041967,-0.1300022,0.0815056
0.5887197,-0.1152865,0.0354154
0.5273009,-0.09946399,0.005379774
0.5226606,-0.1038106,0.01555298
0.526507,-0.07187092,-0.003907026
0.5351807,0.02864553,-0.02790242
0.5889237,0.09275792,-0.04430319
0.6315239,0.1009361,-0.03654831
0.6922683,0.04561753,-0.05874278
0.7406079,0.002923634,-0.08586052
0.7641827,-0.01346249,-0.05297554
0.8551621,-0.1032961,-0.00261127
0.9368186,-0.202439,0.07047833
1.054327,-0.3237348,0.07023825
1.409514,-0.5960409,0.01452157
1.799341,-0.9120628,-0.0367781
1.868308,-1.006691,-0.154925
1.717592,-0.8893748,-0.129074
1.506089,-0.5918883,0.07727855
1.242676,-0.09438715,0.2268801
1.210894,0.07502545,0.2482207
1.324447,-0.121841,-0.0005111274
1.210542,-0.0741263,-0.2881242
1.122965,-0.004482949,-0.1902503
1.093659,-0.03170693,-0.04173652
0.947526,0.08263012,-0.05142199
0.8947871,0.02141344,0.03045595
0.7961723,-0.1087331,0.04204934
0.6279914,-0.08387559,-0.02238486
0.5950144,-0.1031368,-0.01162888
0.5716084,-0.09874482,-0.0612299
0.5695992,-0.1094587,-0.08128603
0.5697794,-0.1816046,-0.07541192
0.5368036,-0.1759945,-0.1047603
0.5182104,-0.1120614,-0.05337346
0.4250908,0.03152047,-0.04779978
0.4061138,0.1233901,-0.05840228
0.5455291,0.01763715,0.01371595
0.747193,-0.202121,0.1016403
0.9582154,-0.4069981,0.1861927
1.1821,-0.3545194,0.1366794
1.704663,-0.1838505,0.03097269
2.157473,-0.1873559,-0.006314167
1.978247,-0.1751514,-0.04641922
1.864367,-0.1311584,-0.08747953
1.894068,-0.1251089,-0.1311785
1.440474,-0.03573594,0.01321641
1.08372,0.02605734,0.2482782
0.9589984,0.01426919,0.2010497
0.7213626,-0.01538887,0.1139408
0.6528715,-0.02887489,0.08738376
0.5046023,0.04658729,-0.02925699
0.2589822,0.1375223,-0.03091207
0.1903161,0.1758584,0.0259417
0.1511577,0.1118356,0.01227678
0.2423708,0.03701225,0.0135498
0.3299692,0.07740808,0.0007955273
0.491591,0.05649914,-0.002306254
0.8731726,-0.007907877,0.01050011
1.021834,-0.02489074,0.01306473
1.08938,-0.1726912,0.07231121
1.353891,-0.5338897,0.0929297
1.602125,-0.8956629,-0.06465373
1.62083,-0.9204252,-0.2274673
1.531773,-0.7592404,-0.1650629
1.668654,-0.5646894,-0.05707063
1.728851,-0.1131543,-0.07412948
1.602784,0.1938548,-0.07005185
1.533288,0.1085132,-0.0956181
1.368974,0.02872101,-0.1452167
1.147153,-0.08770234,-0.08045663
0.8892638,-0.174376,-0.03352121
0.7158993,-0.09429653,-0.01039106
0.7040157,-0.1065172,0.02563937
0.6111,-0.1072154,0.01708517
0.5679668,-0.08304472,-0.007553544
0.57725,-0.1663508,-0.08720191
0.5601772,-0.165335,-0.1566202
0.5919953,-0.06778879,-0.1572757
0.5664439,0.09229184,-0.06518698
0.5687599,0.1936981,0.1062348
0.5939883,0.1217532,0.1013519
0.6023391,0.04096207,-0.01957401
0.6627379,-0.1013127,-0.06523428
0.7233822,-0.29262,-0.04070972
0.9431807,-0.4302695,0.2033104
1.289365,-0.514601,0.4524754
1.585331,-0.3093069,0.3559373
1.914783,0.02694924,0.1851326
2.056605,0.05904797,0.122185
1.901437,-0.06708936,-0.02309286
1.767144,-0.09993311,-0.1095554
1.503053,-0.06376393,0.06177779
1.062084,-0.04042452,0.2459104
0.9421967,-0.06809912,0.2377444
0.9453318,-0.07340615,0.1474573
0.7210355,-0.04106826,0.08570153
0.5306823,0.0008481962,0.0348688
0.3927615,0.08159356,0.01958458
0.2703175,0.114065,0.06294913
0.2235227,0.0564474,0.0772468
0.2062942,0.01053398,0.07768008
0.2961023,-0.002579772,0.0496758
0.4798503,-0.03448796,-0.0145761
0.714483,-0.1078703,-0.002619901
0.928665,-0.1485982,-0.02084277
1.008955,-0.1171892,-0.04817563
1.082691,-0.1452978,0.08601
1.271336,-0.3292178,0.1753796
1.479635,-0.5594773,0.01163944
1.579206,-0.6465803,-0.1693829
1.700871,-0.6012283,-0.1173186
1.816327,-0.4371572,-0.01956228
1.518299,-0.08886974,0.1243601
1.20758,0.07288367,0.3166901
1.463102,-0.1172546,0.01156347
1.650076,-0.1861437,-0.3958351
1.436757,-0.1182521,-0.1905017
1.196398,-0.1373536,-0.0211358
0.8872554,-0.1130695,-0.06137532
0.7620139,-0.08487959,0.05927087
0.9068855,-0.1052117,-0.001239525
0.7972327,-0.09851107,-0.06247589
0.6743003,-0.1002394,0.02781875
0.6790776,-0.1201977,-0.03488918
0.5023168,-0.1392869,-0.02571923
0.4835132,-0.1455806,-0.006946085
0.5467529,-0.1532693,-0.07071529
0.4715675,-0.1746226,-0.03052427
0.5650671,-0.1610184,-0.05891317
0.6831555,-0.1203006,-0.09592866
0.7288194,-0.07530315,-0.119285
0.7415564,-0.01904531,-0.1814707
0.6218156,-0.01543695,-0.04571522
0.5878844,-0.1222434,0.2201109
0.8027975,-0.2125623,0.446431
1.358935,-0.1249842,0.4477025
1.957013,-0.0129553,0.1139905
1.989556,-0.03068909,-0.1337374
1.773684,-0.03896638,0.02012082
1.688558,-0.05663631,0.2002383
1.453832,-0.09228217,0.1344286
1.271052,-0.01095487,0.1617752
1.23974,0.04649232,0.1930886
1.010539,0.05521378,0.05054451
0.8018501,0.07065705,0.09018332
0.6480879,0.01952861,0.1160079
0.4211884,0.02051952,0.04630906
0.4060586,0.02005813,0.1154489
0.3830551,-0.01534888,0.08784388
0.3017414,0.03372311,0.05569819
0.3707601,0.06368378,0.06908666
0.3829796,0.08379428,0.02448423
0.5013053,0.0469274,0.04671773
0.7412737,-0.07849178,-0.02321355
0.8893767,-0.1272707,-0.07828612
1.050803,-0.1985168,0.06352143
1.234769,-0.3863811,0.1597774
1.483227,-0.6187538,0.08540195
1.662454,-0.7334049,-0.05825866
1.640401,-0.6216026,-0.1006513
1.617489,-0.3833457,-0.05408046
1.590175,-0.02832505,0.06133273
1.51892,0.1589886,0.1452573
1.49845,-0.03279601,-0.06129986
1.413973,-0.1256089,-0.2460916
1.138965,-0.05068754,-0.1081378
0.9521338,-0.0833498,-0.005518402
0.9680997,-0.08072621,-0.07200401
0.914173,-0.08627972,-0.04144363
0.8501634,-0.1569316,0.02348407
0.8061266,-0.1413089,-0.03018753
0.7253921,-0.1249168,-0.03178769
0.737413,-0.1037343,-0.03447977
0.7502682,-0.0201058,-0.1002738
0.747969,0.03391458,-0.09804485
0.7869624,0.1133676,-0.1191607
0.8210635,0.2045274,-0.1316295
