accx,accy,accz
0.8433589,-0.1418884,-0.09791802
0.8329309,-0.06653776,-0.09455708
0.7558568,-0.01666468,-0.07988628
0.729204,-0.02729558,-0.05466706
0.7505254,-0.03617743,-0.04391891
0.6932627,-0.06658649,-0.0487583
0.6851158,-0.05344242,-0.0893246
0.7427021,-0.08281051,-0.1752302
0.793526,-0.2048031,-0.2511548
0.7324051,-0.3789449,-0.2485609
0.6614976,-0.5562778,-0.2043163
0.8810738,-0.57848,-0.1392322
1.427375,-0.43263,-0.07325407
1.959798,-0.2764053,-0.09561221
1.917746,-0.2864027,-0.1236453
1.564779,-0.4046798,-0.05863761
1.438144,-0.4218989,0.03198435
1.196049,-0.3153264,0.08544332
1.070557,-0.1205012,0.001660392
1.255812,-0.03813697,-0.1198169
1.174771,-0.19203,-0.04224407
1.034825,-0.3044757,0.06453713
0.9035305,-0.2712436,0.08991101
0.7172951,-0.1995608,0.1265265
0.7564174,-0.06791484,0.0669975
0.6889933,0.07594578,0.01096472
0.6059117,0.07026419,0.02059467
0.6343162,-0.03431075,-0.02141314
0.5573862,-0.08842983,-0.01346502
0.647491,-0.1929693,-0.01121385
0.766326,-0.3169416,-0.05777811
0.7841309,-0.3177737,-0.0493795
0.8177465,-0.2895066,-0.05248919
0.791156,-0.2731878,-0.06446267
0.8963903,-0.2967008,-0.09598091
1.09284,-0.3976328,-0.1745034
1.212008,-0.4811684,-0.2273495
1.234206,-0.4356689,-0.2647742
1.216052,-0.2905613,-0.2737756
1.330494,-0.2373915,-0.256967
1.436857,-0.254584,-0.2580536
1.484946,-0.2087193,-0.2225945
1.405246,-0.1241634,-0.1428406
1.15402,-0.08854605,-0.1062209
1.124832,-0.1753151,-0.1393915
1.109092,-0.2255382,-0.1856749
0.9211915,-0.1725457,-0.2175627
0.872517,-0.1384323,-0.2281637
0.7972545,-0.1136491,-0.2138368
0.7384018,-0.1444188,-0.2092951
0.7868872,-0.2105431,-0.1884756
0.7786199,-0.2406137,-0.1379747
0.8232728,-0.2299944,-0.1274261
0.8187277,-0.1115242,-0.1261898
0.7598191,0.03699615,-0.08654057
0.7751857,0.06307234,-0.06122562
0.7630231,-0.01711284,-0.04901739
0.7926163,-0.07483679,-0.02455565
0.8314154,-0.08022759,-0.0333929
0.8471944,-0.07049122,-0.09914047
0.9045542,-0.01913585,-0.1856075
0.8799803,-0.01164687,-0.2297463
0.7979234,-0.1471603,-0.1899318
0.6875456,-0.3989715,-0.1494554
0.6184819,-0.6038263,-0.1641766
0.8130337,-0.6768041,-0.126336
1.125241,-0.7669167,-0.05842551
1.389199,-0.6404766,-0.05951992
1.688733,-0.2218215,-0.09142246
1.806982,-0.1069178,-0.1589538
1.657447,-0.2573971,-0.2109859
1.523039,-0.2865398,-0.1296245
1.290542,-0.2727102,-0.039749
1.030813,-0.1800189,-0.08033215
1.100959,-0.08411129,-0.1040672
1.14622,-0.1665511,-0.04638267
1.027713,-0.2388432,-0.005685195
0.9630859,-0.1591414,0.06559394
0.7810036,-0.05382509,0.09975088
0.6463999,0.007988936,0.02029573
0.6587556,0.05179367,-0.03124472
0.636448,0.01419622,-0.0703191
0.692209,-0.07430968,-0.08619054
0.7404357,-0.1460348,-0.0535363
0.7089078,-0.204433,-0.08315457
0.7272572,-0.1962758,-0.1134454
0.7802651,-0.2436313,-0.1333691
0.8569057,-0.3463489,-0.1343819
0.8817575,-0.3810709,-0.0559086
0.8726681,-0.4501813,-0.03698168
0.9869644,-0.5212438,-0.118008
1.184443,-0.5544241,-0.2187485
1.340198,-0.4970766,-0.2727604
1.436067,-0.3408706,-0.2842243
1.528746,-0.307167,-0.2728343
1.589813,-0.3258288,-0.1468021
1.547307,-0.2889534,-0.0353847
1.374722,-0.1995914,-0.05067671
1.153564,-0.08439509,-0.112359
1.134819,-0.1857054,-0.2414632
1.21421,-0.4159958,-0.3187497
1.119578,-0.5241013,-0.2723811
1.01606,-0.481993,-0.2170342
0.9494964,-0.3019449,-0.1685209
0.8880048,-0.1314834,-0.140217
0.9385689,-0.07551832,-0.1515882
0.9449394,-0.1355394,-0.1696277
0.9157456,-0.2017764,-0.1630025
0.9431359,-0.1845563,-0.1648635
0.9100642,-0.2328282,-0.178221
0.8942332,-0.2995005,-0.1720864
0.9254621,-0.3002212,-0.1735791
0.972459,-0.3053313,-0.1377945
1.045691,-0.2906804,-0.09304018
1.021786,-0.2864357,-0.09826352
0.9398658,-0.2297721,-0.08702015
0.8512166,-0.1329383,-0.05257118
0.7806971,-0.1470822,-0.03165224
0.9072376,-0.1819009,-0.08018325
1.110275,-0.185983,-0.1591663
1.136719,-0.175393,-0.163803
1.040323,-0.1279265,-0.1213226
0.9444719,-0.09371406,-0.06825415
0.9046739,-0.08236557,-0.03492802
0.9034123,-0.08065035,-0.0183509
0.8967083,-0.06436757,-0.00808662
0.905032,-0.04133539,-0.03654876
0.9060056,-0.02401761,-0.05139949
0.9026183,-0.01270956,-0.04928787
0.9254349,-0.05176071,-0.05662772
0.9353435,-0.1197705,-0.0258551
0.9505655,-0.190021,0.04410044
0.9663994,-0.2001813,0.115341
0.9765175,-0.1178384,0.1298768
1.055922,-0.05154054,0.08107681
1.16555,-0.02022883,0.01804031
1.191542,-0.04376231,-0.02511283
1.097981,-0.1573961,-0.002962697
0.9598645,-0.2814033,0.02084292
0.8749978,-0.3271103,-0.04638149
0.8954076,-0.2810641,-0.1531424
1.035642,-0.2938937,-0.2147796
1.260791,-0.4124962,-0.1435904
1.523282,-0.5573505,0.009574489
1.617685,-0.6674997,0.07932271
1.410612,-0.5634368,0.1027149
1.127177,-0.3209071,0.1214832
0.9796529,-0.1795768,0.105962
1.041263,-0.1940717,0.0910814
1.157558,-0.2716572,0.01100679
1.143891,-0.2387025,-0.07990577
1.101518,-0.279513,-0.03529168
0.9830145,-0.4071734,0.01127764
0.8210286,-0.3668412,-0.0304132
0.8095935,-0.3594996,-0.03458498
0.8430451,-0.3687101,-0.009879711
0.8749226,-0.3309156,-0.01788934
0.8961141,-0.3478321,-0.004639375
0.8812061,-0.2637251,-0.004077884
0.8971246,-0.2086852,-0.02700755
0.8817183,-0.2210041,-0.01346389
0.8779211,-0.1992061,-0.02832083
0.9231053,-0.2345477,-0.04799035
0.9358208,-0.2285006,-0.02380159
0.893991,-0.1877326,-0.01170485
0.7944859,-0.1421205,-0.0001395938
0.7644234,-0.09922008,0.007664433
0.8164578,-0.1241133,0.01044446
0.8438037,-0.1342286,0.008507521
0.8535289,-0.1912278,-0.002163806
0.8249243,-0.2886746,0.03396652
0.8153715,-0.3402385,0.07458702
0.8850252,-0.3738739,0.07129927
0.9749609,-0.3357769,0.06368116
1.013536,-0.2680225,0.0428902
1.008318,-0.2007669,-0.01430541
1.093265,-0.1602484,-0.07652077
1.267973,-0.2282049,-0.1009165
1.355669,-0.323371,-0.1231045
1.212555,-0.3835751,-0.1952931
0.9637914,-0.3394623,-0.2559633
0.9035245,-0.2548974,-0.2382291
0.9929595,-0.3115323,-0.2005123
1.139092,-0.359288,-0.1629267
1.323589,-0.3363269,-0.07578608
1.334536,-0.3158667,-0.01784798
1.232082,-0.2119278,-0.009587401
1.146935,-0.08575522,0.02318111
1.01702,0.01912828,0.02896845
1.041351,0.009698689,-0.02016234
1.146225,-0.1456323,-0.1004751
1.04323,-0.195412,-0.1541482
0.9810241,-0.2333973,-0.1428685
0.9886304,-0.2836437,-0.1340279
0.9027507,-0.2035048,-0.1041813
0.9032585,-0.1923952,-0.06138358
0.8846806,-0.174324,-0.04263588
0.8019649,-0.0991886,0.003998963
0.7833218,-0.07897333,0.0156286
0.7476759,-0.02274649,-0.02097863
0.7608825,-0.01945429,-0.04562161
0.7680191,-0.05372478,-0.04922073
0.7180487,-0.07983214,0.003862957
0.72091,-0.1290453,0.0601564
0.7240734,-0.09982519,0.04478333
0.7623807,-0.09331898,-0.03111615
0.7935275,-0.1449806,-0.1118085
0.7463359,-0.2028148,-0.1348156
0.6918693,-0.3021615,-0.1365388
0.6815679,-0.3886387,-0.1572976
0.9677919,-0.4699309,-0.1235483
1.585162,-0.5001203,-0.005507805
1.956216,-0.4344992,0.08372871
1.742342,-0.3567565,0.07852649
1.470344,-0.308131,0.05651976
1.444676,-0.306693,0.06100141
1.3205,-0.2539796,0.03470843
1.230736,-0.1186755,-0.02192975
1.228213,-0.09362062,-0.02117945
1.080642,-0.1664963,0.03540259
0.9878965,-0.1882113,0.08189155
0.8893285,-0.1810367,0.08257482
0.7771874,-0.1273804,0.04803559
0.7952597,-0.0244454,0.01987695
0.7763607,0.02708838,-0.03507109
0.711308,0.03789908,-0.07655228
0.5706796,-0.00691947,-0.04458522
0.5019453,-0.1333937,-0.03374738
0.6545628,-0.2649789,-0.03388402
0.8088432,-0.401126,-0.001130274
0.8921288,-0.4617735,0.01210279
0.823489,-0.3691506,0.0004694633
0.766272,-0.289164,-0.04673313
0.9734714,-0.3097705,-0.1435727
1.247622,-0.4176003,-0.2496467
1.389875,-0.5296151,-0.2778467
1.295187,-0.4161726,-0.2239297
1.231519,-0.1788238,-0.1542632
1.456383,-0.1030256,-0.08313338
1.591294,-0.132192,-0.1097864
1.503523,-0.1316194,-0.1798952
1.369323,-0.09120556,-0.1276837
1.201583,-0.09987568,-0.1111499
1.08576,-0.172852,-0.1557018
1.045,-0.1907571,-0.1532234
0.9709346,-0.1818426,-0.1936462
0.866427,-0.1725572,-0.1989697
0.8126373,-0.1679423,-0.1694716
0.7903698,-0.1970452,-0.2003048
0.779656,-0.1981219,-0.1894567
0.804781,-0.2076608,-0.1642817
0.814792,-0.203119,-0.1365869
0.8061954,-0.158981,-0.08355895
0.7949738,-0.1102483,-0.07386162
0.7760507,-0.01644996,-0.04857944
0.7618874,-0.01274983,-0.03428773
0.7033092,-0.06694732,-0.04909684
0.6373362,-0.03805356,-0.01702055
0.6698187,-0.04594072,-0.02756969
0.7972999,-0.05922308,-0.09508946
0.9491297,-0.05625457,-0.1803767
0.9876526,-0.1120871,-0.2526407
0.7817874,-0.2173543,-0.1815567
0.4972414,-0.4029174,-0.0860319
0.4996269,-0.4973133,-0.09704697
0.9158487,-0.4307365,-0.06631796
1.539952,-0.4350736,-0.01973442
1.865271,-0.4383307,-0.04565951
1.709527,-0.3553101,-0.07233226
1.568427,-0.3420219,-0.08619277
1.481016,-0.307517,-0.08599236
1.244865,-0.1560423,-0.07776893
1.193219,-0.0124042,-0.08413932
1.24994,-0.0002687656,-0.07256287
1.163179,-0.1319982,-0.03529638
1.069844,-0.2200784,0.02307772
0.9712394,-0.1979457,0.06531689
0.9094868,-0.127762,0.01983595
0.8629163,-0.01590094,-0.05922743
0.7694697,-0.01029445,-0.0776694
0.7934245,-0.08985305,-0.06743862
0.8248083,-0.1086895,-0.07806987
0.8038639,-0.09421016,-0.1118041
0.8736573,-0.05283725,-0.1582014
0.9487866,-0.05003303,-0.1907103
0.9795761,-0.1252391,-0.1970427
0.899801,-0.2382715,-0.1714565
0.7384477,-0.3375417,-0.1291846
0.6984871,-0.334503,-0.09629409
0.7226901,-0.3115351,-0.08735506
0.7546189,-0.3223577,-0.1421933
0.8763937,-0.3578626,-0.2483583
1.068339,-0.489301,-0.3300021
1.236146,-0.5909135,-0.326361
1.34595,-0.5341321,-0.2711237
1.474273,-0.4497943,-0.2518249
1.508761,-0.4210616,-0.2366683
1.355801,-0.3128902,-0.191478
1.202134,-0.146335,-0.1426349
1.119543,-0.1244967,-0.1196993
1.085188,-0.2106156,-0.1437231
1.050397,-0.2951504,-0.135346
1.008247,-0.3494079,-0.1115507
1.006855,-0.3340677,-0.130608
0.922591,-0.2388157,-0.1543089
0.8576564,-0.1023873,-0.2127698
0.9259063,-0.07292245,-0.240582
0.939925,-0.1371314,-0.2167435
0.9353664,-0.162663,-0.2258842
0.9157928,-0.2093002,-0.1959674
0.8500516,-0.2567712,-0.1417505
0.8626219,-0.2453763,-0.1183335
0.8710507,-0.2317907,-0.1115448
0.8655029,-0.2087017,-0.1450441
0.8807363,-0.186256,-0.1557461
0.8237553,-0.1887895,-0.1115737
0.7688243,-0.1835931,-0.0552422
0.7948291,-0.1722126,-0.02641387
0.8576417,-0.1436779,-0.04019682
0.9202124,-0.07454479,-0.05405805
0.9529638,-0.01153675,-0.0874011
0.9176693,-0.009159436,-0.1179353
0.855866,-0.0657016,-0.09448221
0.849984,-0.1397483,-0.0816402
0.8985351,-0.2027795,-0.09993289
0.9498651,-0.2812194,-0.1484689
0.9026897,-0.4012332,-0.1881138
0.8873929,-0.5299534,-0.08576508
1.17028,-0.579339,0.09327659
1.541231,-0.4690722,0.1647819
1.678753,-0.2375986,0.1584272
1.661937,-0.08503594,0.1231234
1.618422,-0.1849949,0.04285658
1.467618,-0.3081762,0.003878549
1.261186,-0.1901375,-0.01138915
1.1962,-0.1057668,-0.06320054
1.152574,-0.1576493,-0.06131539
0.9966101,-0.1785234,0.01728774
0.841849,-0.2516645,0.08903895
0.7920136,-0.2359336,0.0691108
0.826933,-0.1050061,0.01549461
0.7699319,-0.0492565,0.01771621
0.7070103,0.004148551,-0.005190501
0.7334863,-0.0304036,-0.02479186
0.6559428,-0.1052372,-0.01629194
0.6108718,-0.1067787,-0.03708934
0.664143,-0.1304339,-0.02618076
0.6688578,-0.08970623,-0.03257044
0.7038552,-0.08945296,-0.05129293
0.7299045,-0.1766018,-0.02433094
0.7452172,-0.2522134,-0.01805789
0.8149054,-0.3553149,0.01195463
0.8757846,-0.3455288,0.03358716
0.9808995,-0.321361,-0.007509306
1.174152,-0.3740673,-0.08710703
1.382477,-0.3882585,-0.2175689
1.486065,-0.4922622,-0.2923496
1.530734,-0.5617637,-0.3356405
1.57827,-0.3833594,-0.3479831
1.517937,-0.1476278,-0.2205387
1.513095,-0.1352064,-0.1034323
1.501105,-0.263183,-0.01739181
1.260172,-0.2710619,0.007865218
1.120657,-0.2408004,-0.08575843
1.141561,-0.212411,-0.1033165
1.144726,-0.1779536,-0.1603863
1.103819,-0.2258093,-0.236786
0.9660704,-0.2432776,-0.1634569
0.8687493,-0.2361911,-0.1622887
0.8168935,-0.2101464,-0.1719751
0.8194562,-0.1251146,-0.1554066
0.8806463,-0.07678896,-0.2029582
0.8669046,-0.057145,-0.1608594
0.867125,-0.07268749,-0.1073235
0.8309757,-0.08204247,-0.07065365
0.7786919,-0.05351371,-0.04556008
0.7964075,-0.06117948,-0.100064
0.7684522,-0.07728975,-0.1012196
0.7620013,-0.09523166,-0.07932431
0.7458331,-0.08184865,-0.07946481
0.6980249,-0.04473059,-0.0794722
0.7090765,-0.06163823,-0.1124009
0.7860986,-0.08842213,-0.1286217
0.9407629,-0.1474281,-0.1651407
0.9757715,-0.2670232,-0.197441
0.8710063,-0.4044551,-0.1775318
0.8231183,-0.5140348,-0.1551606
0.8592885,-0.5265741,-0.08717265
1.111465,-0.479255,-0.02225926
1.626592,-0.3756272,-0.0102376
1.954798,-0.23309,0.005956414
1.699255,-0.2129922,0.006938138
1.395125,-0.2642339,0.001763313
1.439431,-0.2417561,-0.01110064
1.338732,-0.1969845,-0.06311151
1.229276,-0.1859912,-0.08909606
1.27105,-0.2476778,-0.03373085
1.061788,-0.3564302,0.05333251
0.8995131,-0.3548855,0.0849937
0.8808287,-0.2503753,0.07461971
0.7199429,-0.1408084,0.08073384
0.6537601,-0.03896745,0.07333415
0.7174047,-0.02648618,0.05021563
0.7070181,-0.06050383,0.06065089
0.6535805,-0.04595284,0.07690112
0.6259276,-0.05581917,0.05940306
0.6112219,-0.0831747,0.01209173
0.6819633,-0.147321,-0.05908786
0.8355342,-0.2866044,-0.08379169
0.8687227,-0.3706811,-0.04632411
0.8424201,-0.3530381,-0.04646915
0.8677254,-0.2797353,-0.07507168
0.9374219,-0.2222599,-0.1298968
1.101282,-0.2782042,-0.2226111
1.195187,-0.3494399,-0.2525141
1.177976,-0.3328726,-0.272018
1.303248,-0.3777603,-0.3072051
1.564101,-0.4882344,-0.2476688
1.617671,-0.4602236,-0.1447221
1.429335,-0.2581582,-0.06485143
1.344852,-0.01606021,-0.08974292
1.364156,0.007342733,-0.1919644
1.281361,-0.1821053,-0.1875539
1.105869,-0.2854148,-0.1846141
0.9426898,-0.3169104,-0.188572
0.8185855,-0.288328,-0.09806972
0.7102911,-0.187747,-0.09947157
0.7224966,-0.1603287,-0.145905
0.8005933,-0.1244288,-0.1676239
0.8449791,-0.1159131,-0.201821
0.8959112,-0.1579577,-0.1532966
0.8685213,-0.127831,-0.116099
0.8174286,-0.1043877,-0.0970796
0.7679906,-0.06665439,-0.04075518
0.6897541,-0.06411566,-0.01533842
0.7227759,-0.1245018,0.007517447
0.7739262,-0.1055407,-0.00957393
0.8049312,-0.07339833,-0.06329796
0.8927587,-0.03289879,-0.1221305
0.9339706,-0.02522494,-0.1729976
0.9442496,-0.100716,-0.1523088
0.9458644,-0.171331,-0.1559552
0.8987548,-0.3281615,-0.1755083
0.870745,-0.5000426,-0.134775
1.02027,-0.5669301,-0.100162
1.362783,-0.5721412,-0.04255989
1.576195,-0.5030385,0.009929601
1.53553,-0.4030661,0.0005648928
1.462425,-0.236987,-0.03204209
1.426259,-0.1273692,-0.07471224
1.37621,-0.1878331,-0.0557983
1.343349,-0.1894703,-0.004877132
1.309206,-0.2228938,0.01259205
1.155273,-0.3199622,0.06930995
0.9383147,-0.2334354,0.08750486
0.8106278,-0.1117395,0.02195742
0.7873335,-0.07438869,-0.01268666
0.8112654,-0.06745781,-0.01418762
0.7866079,-0.1062416,0.01120302
0.7454725,-0.1190027,0.04107695
0.7144117,-0.1009226,0.04424043
0.6417996,-0.07643658,0.05207586
0.6244785,-0.03465707,0.02348961
0.6844947,-0.04454924,-0.02569971
0.7790279,-0.1360971,-0.04112765
0.8581314,-0.2652978,-0.04641151
0.8304652,-0.3377123,-0.01648
0.8057694,-0.3007811,0.02833824
0.8502533,-0.234038,0.0024439
0.8746342,-0.171699,-0.07471743
0.91986,-0.1582985,-0.1390141
1.027325,-0.2948739,-0.1721591
1.14655,-0.4478415,-0.2083611
1.239773,-0.4535255,-0.2845336
1.353773,-0.41205,-0.3119652
1.551158,-0.3922292,-0.2562507
1.599415,-0.2894855,-0.1959518
1.369642,-0.09622384,-0.1074547
1.218604,-0.0130832,-0.08206719
1.236939,-0.1159078,-0.1556689
1.232643,-0.2329348,-0.1670499
1.182064,-0.2716089,-0.1852729
1.047835,-0.2517482,-0.2075348
0.9004675,-0.2120062,-0.1672871
0.8565886,-0.2115134,-0.1805673
0.8710219,-0.2299603,-0.1937704
0.8491157,-0.2389527,-0.1871786
0.8171595,-0.2339147,-0.1668148
0.8576623,-0.1743776,-0.08383137
0.8652081,-0.09824641,-0.06830914
0.8349026,-0.06853933,-0.1199607
0.8214344,-0.06962819,-0.1400408
0.7839803,-0.094142,-0.1120002
0.8250639,-0.1366555,-0.07394154
0.8926518,-0.1552678,-0.1031432
0.8964681,-0.1425528,-0.123979
0.901487,-0.1401961,-0.1217386
0.8984952,-0.1372866,-0.1652597
0.9189517,-0.1323186,-0.203193
0.9452764,-0.1969431,-0.2195911
0.9391706,-0.2831836,-0.2024175
0.9643741,-0.3275919,-0.1670317
1.03681,-0.3813816,-0.150883
1.159596,-0.3978037,-0.1322523
1.379819,-0.3815905,-0.09154648
1.623357,-0.4287094,-0.01418646
1.641587,-0.4449964,0.02387868
1.54525,-0.4102154,0.030237
1.499364,-0.3778966,0.05373873
1.232167,-0.2741535,0.02155114
0.9965516,-0.2174092,0.02022195
1.028871,-0.2241213,0.02414863
0.7510789,-0.4104816,-0.06865155
0.8475575,-0.5542525,-0.07807135
0.917867,-0.613455,-0.08571145
0.8924663,-0.503899,-0.1345434
1.047486,-0.4163218,-0.2214453
1.19527,-0.3502867,-0.248401
1.226325,-0.2728764,-0.2609935
1.271919,-0.2607427,-0.3146298
1.480181,-0.3313607,-0.3312439
1.652151,-0.3511688,-0.2766202
1.44453,-0.1773375,-0.2445778
1.248935,-0.03197911,-0.231238
1.319214,-0.2287677,-0.1688096
1.28348,-0.4705985,-0.1358362
1.12844,-0.4039183,-0.1804243
1.067536,-0.2750512,-0.2144155
0.980492,-0.2067233,-0.1933958
0.862447,-0.1336861,-0.1862411
0.8161675,-0.1616438,-0.2016053
0.7274069,-0.1771612,-0.1859512
0.7023567,-0.152049,-0.176781
0.7661521,-0.1684617,-0.1645543
0.7559835,-0.1110993,-0.1196056
0.7521977,-0.06221093,-0.07837997
0.7154934,-0.0552526,-0.04059588
0.6635604,-0.03565703,-0.03122484
0.7176901,-0.05766981,-0.05261331
0.8298792,-0.04757995,-0.1038281
0.9449311,-0.04134219,-0.2041745
0.9004346,-0.08270582,-0.2537112
0.7238316,-0.1865538,-0.260739
0.6234816,-0.3766062,-0.3264584
0.6379662,-0.4418983,-0.3359672
0.8698186,-0.4812804,-0.1807287
1.356056,-0.6811072,0.07504916
1.737391,-0.7331032,0.2419778
1.623472,-0.5677594,0.1408415
1.422177,-0.4402454,0.03085347
1.503802,-0.3521284,0.1102986
1.34953,-0.1880234,0.05052659
1.14299,0.04140511,-0.09349243
1.223751,0.09467331,-0.07527711
1.101496,-0.1277495,-0.0126162
0.9144329,-0.27802,0.09109032
0.8481866,-0.2503242,0.133998
0.7431915,-0.1719267,0.08165205
0.6801208,-0.02676356,0.09260409
0.5692182,0.02433037,0.04678434
0.5378572,-0.04816413,-0.02361511
0.6294844,-0.1654649,-0.02927726
0.6477983,-0.3533364,-0.03577199
0.6533787,-0.4493723,-0.01565868
0.676836,-0.4596974,-0.03829685
0.7568864,-0.4736062,-0.09078423
0.8252521,-0.4486333,-0.13469
0.8836989,-0.4769079,-0.2199567
1.072071,-0.5344451,-0.2765702
1.210535,-0.5066443,-0.2701588
1.217693,-0.3511469,-0.2517044
1.308129,-0.1572388,-0.3143901
1.571888,-0.1535726,-0.3666421
1.703182,-0.1689921,-0.2777775
1.54491,-0.03060585,-0.2151087
1.432783,-0.05229367,-0.2142288
1.411434,-0.2488078,-0.1886979
1.351172,-0.4154941,-0.165093
1.252175,-0.4422227,-0.1607928
1.055314,-0.2736797,-0.1802139
0.8750665,-0.1541342,-0.1818493
0.7773718,-0.1004725,-0.1810162
0.6818573,-0.06132791,-0.1849333
0.6350183,-0.1294361,-0.1747811
0.6858822,-0.1224306,-0.1837026
0.7505907,-0.1118046,-0.1813161
0.7861628,-0.1535698,-0.1753042
0.8474587,-0.1445489,-0.1518595
0.8651105,-0.183209,-0.08569948
0.8116298,-0.1716438,-0.03711689
0.7833027,-0.1278795,-0.01397796
0.7808424,-0.06260392,-0.02826367
0.799532,0.06649588,-0.07235464
0.8719843,0.02225643,-0.1473515
0.955582,-0.09362214,-0.2497006
0.9040686,-0.1759643,-0.2657879
0.7810094,-0.3159521,-0.2341617
0.7851542,-0.3800832,-0.2469349
0.8658893,-0.4624874,-0.2285962
1.127115,-0.6538007,-0.124519
1.600616,-0.7075823,0.04852921
1.849345,-0.5716817,0.1480921
1.732246,-0.4388508,0.0741176
1.462453,-0.3673901,0.02205529
1.211286,-0.2571598,0.0401441
1.186903,-0.1626066,-0.03566457
1.296473,-0.2259517,-0.1001164
1.261528,-0.3083156,-0.06072455
1.176617,-0.2956867,-0.02136826
0.9851838,-0.28951,0.04927639
0.6416842,-0.2513519,0.1524825
0.6414516,-0.1687451,0.1357378
0.7853481,-0.07567517,0.02895152
0.6765163,0.05658682,-0.005391315
0.701074,0.06682999,0.004927877
0.742347,-0.02352914,-0.001654624
0.67207,-0.04198546,-0.02350504
0.7311337,-0.103417,-0.06104137
0.7467012,-0.2205093,-0.03444208
0.7764899,-0.3771458,0.01647824
0.8212017,-0.5263422,0.03540921
0.7409668,-0.4357222,0.05372751
0.7304118,-0.3362875,-0.02291429
0.797263,-0.3973458,-0.1709976
1.008573,-0.3960261,-0.2726487
1.370437,-0.4479807,-0.3163208
1.621504,-0.5375109,-0.3561964
1.729564,-0.5464905,-0.3582085
1.542987,-0.4635763,-0.110563
1.125108,-0.1175865,0.20762
1.022112,0.1922412,0.2090933
1.190365,0.1478084,0.01845907
1.273481,-0.06105929,-0.1454659
1.289553,-0.2415111,-0.221264
1.160732,-0.233853,-0.1473583
0.9287083,-0.1338581,-0.05280216
0.8502466,-0.11357,-0.06973447
0.8620835,-0.1229507,-0.09259946
0.8549552,-0.1472446,-0.0877411
0.8502959,-0.1642319,-0.08747045
0.8245779,-0.1729579,-0.04640013
0.7793336,-0.1540345,-0.03216269
0.7442609,-0.08749216,-0.03017747
0.7550556,-0.04525389,-0.002790787
0.7878403,-0.04200129,-0.05136123
0.8207545,-0.0854567,-0.1049178
0.8696646,-0.1182362,-0.1046781
0.8963033,-0.07252555,-0.1059912
0.9067728,-0.01129734,-0.08891638
0.9170167,0.02207086,-0.03982906
0.9273144,0.006069278,0.003551754
0.9728904,-0.05067781,-0.01061644
0.9817108,-0.1049094,-0.02921019
0.9025374,-0.1355465,-0.04019123
0.8571845,-0.1469501,-0.102836
0.9428184,-0.2186515,-0.1200186
1.126513,-0.3760717,-0.05274149
1.29032,-0.5222091,-0.004810466
1.436178,-0.6604677,-0.00423052
1.607121,-0.8577631,0.04615781
1.579704,-0.8112471,0.1050749
1.380277,-0.2147797,-0.0603026
1.338538,0.3482427,-0.2743692
1.369372,0.256621,-0.2253761
1.325634,-0.06249436,-0.1320037
1.209908,-0.2417183,-0.08838464
1.032334,-0.4361031,0.01097159
0.9631587,-0.4064775,-0.0186299
0.8912586,-0.2075942,-0.1003458
0.8107576,-0.2453657,-0.07284908
0.9279825,-0.2449699,-0.08566414
0.9515529,-0.2060911,-0.08491102
0.8800158,-0.2706087,-0.04012039
0.8828778,-0.1966831,-0.04468741
0.8032567,-0.1816151,-0.0460343
0.7862127,-0.1631529,-0.07402519
0.8117971,-0.08757888,-0.08120364
0.7794557,-0.1275968,-0.04135871
0.8024599,-0.05455537,-0.03113259
0.7914372,-0.03592218,0.003079071
0.79144,-0.08720732,0.004718885
0.8271209,-0.06444356,-0.03632818
0.8290557,-0.1330456,-0.04572043
0.8510927,-0.1253282,-0.04641926
0.8424864,-0.109159,-0.03097173
0.8437721,-0.1726715,-0.0687731
0.9144976,-0.2231881,-0.1655293
1.050772,-0.3862311,-0.2526759
1.18023,-0.5303576,-0.3058886
1.100227,-0.5192008,-0.2940558
1.03019,-0.3872928,-0.2873711
1.283657,-0.2771329,-0.2800848
1.667131,-0.3340595,-0.2664705
1.831949,-0.3587036,-0.2615289
1.545276,-0.2669485,-0.1564822
1.210562,-0.2144871,-0.0495458
1.285399,-0.2256596,-0.05298326
1.242794,-0.2444842,-0.09805123
1.037018,-0.2434791,-0.1484054
1.111564,-0.2290065,-0.1827473
1.033303,-0.2155458,-0.2016121
0.8367368,-0.236318,-0.1802322
0.8496719,-0.2604404,-0.1481796
0.7623786,-0.2305088,-0.1533638
0.7069816,-0.177984,-0.1625854
0.7701482,-0.1315491,-0.1806992
0.7608102,-0.09981296,-0.155439
0.7968104,-0.07556017,-0.09160971
0.8043649,-0.06733542,-0.07070461
0.766298,-0.09197055,-0.06593729
0.7507638,-0.09936525,-0.04941552
0.6887465,-0.09719742,-0.004166912
0.6973524,-0.07997384,0.01234739
0.7814131,0.00508968,-0.05488852
0.8351896,0.04688826,-0.1409544
0.8515223,-0.03277799,-0.1935391
0.8086072,-0.1751905,-0.1736499
0.7836479,-0.3649552,-0.1555108
0.8298603,-0.5470988,-0.1751697
0.9526728,-0.6096373,-0.1075184
1.231538,-0.5526504,0.01611516
1.575435,-0.4788937,0.08047522
1.817249,-0.4218306,0.03381396
1.891471,-0.4138745,-0.01632107
1.695341,-0.4180861,0.07629135
1.336181,-0.254954,0.1247398
1.165084,-0.09647053,0.03580898
1.216795,-0.1732552,0.007740431
1.182903,-0.2679147,0.0872095
1.005881,-0.267458,0.1544272
0.9086349,-0.2212139,0.096
0.8529329,-0.131768,0.02307542
0.7675198,-0.1136267,0.02766202
0.7609785,-0.1564132,-0.003932753
0.73948,-0.1779185,0.000164109
0.7179955,-0.2470123,0.05755509
0.7457991,-0.2869183,0.06106388
0.7112052,-0.2100042,0.05164984
0.7321645,-0.1755071,0.01926422
0.8070437,-0.2207892,-0.01578785
0.8686821,-0.2717143,-0.01607338
0.9122487,-0.3228201,-0.006697742
0.850616,-0.320199,0.02059305
0.8488944,-0.2548106,0.01551835
0.9067128,-0.181244,0.0198501
0.9070376,-0.1572585,0.06733174
0.913943,-0.1718735,0.06425419
0.8950755,-0.1538596,0.03956689
0.9443201,-0.1453466,0.007373985
1.033566,-0.1987344,-0.05187065
1.070227,-0.3128291,-0.08630528
1.145069,-0.4537266,-0.08315502
1.1747,-0.4904327,-0.06751842
1.168043,-0.3866147,-0.08369781
1.202129,-0.2471034,-0.1140956
1.289199,-0.09545165,-0.1474772
1.473471,0.02305496,-0.176535
1.559708,-0.02172258,-0.129827
1.42686,-0.109842,-0.07282672
1.296877,-0.1073409,-0.06093458
1.277607,-0.1690595,-0.07188647
1.188772,-0.2458822,-0.1242603
1.042019,-0.2212064,-0.1501593
0.9723743,-0.190776,-0.1286809
0.8286334,-0.1258845,-0.1084138
0.7185664,-0.05994574,-0.105795
0.7934354,-0.03805935,-0.1266738
0.7919713,0.02017119,-0.1359663
0.7681175,0.02539709,-0.1379617
0.8078955,-0.009436467,-0.1246879
0.7222258,0.01363786,-0.08640983
0.6035202,0.01646836,-0.06108062
0.5516928,0.001907514,-0.0356678
0.5376598,-0.01397738,-0.007900485
0.5863459,-0.05367165,-0.006797752
0.669101,-0.05821041,-0.07901971
0.7733907,-0.1059783,-0.1797956
0.869263,-0.276048,-0.1904576
0.9118007,-0.4272712,-0.1535079
1.016001,-0.4985353,-0.09904318
1.362389,-0.5191343,-0.01195681
1.829478,-0.4898274,-0.006341483
2.023251,-0.4817535,-0.09827218
1.888179,-0.4555334,-0.1380075
1.639189,-0.2645496,-0.06780793
1.381424,0.0164528,-0.007483099
1.318338,0.1005161,-0.0410755
1.309247,-0.04256978,-0.08749266
1.056366,-0.1661189,-0.09543422
0.9832328,-0.2505855,-0.0913018
1.078656,-0.2892104,-0.04942451
0.9188062,-0.2566801,-0.006906904
0.8719065,-0.2659169,-0.02900008
0.9056557,-0.1475052,-0.06870956
0.7594577,0.04125542,-0.10355
0.6939773,0.01961491,-0.112852
0.6179339,-0.04024571,-0.09907708
0.5469733,-0.08483458,-0.1224504
0.6442498,-0.1888508,-0.1418792
0.770087,-0.3102177,-0.1457077
0.8381158,-0.488323,-0.1506494
0.8028143,-0.6057797,-0.1194092
0.7928487,-0.5782787,-0.08223334
0.8613397,-0.4402054,-0.05748747
0.8868216,-0.1934193,-0.02077621
0.8932778,-0.01377968,-0.002116863
0.9313153,-0.1365246,-0.09817053
1.136761,-0.4799759,-0.2270504
1.390761,-0.6908513,-0.1708887
1.369508,-0.575846,-0.06411001
1.291482,-0.3342077,-0.05908958
1.405389,-0.2827662,-0.07720421
1.502948,-0.3046992,-0.1684932
1.510902,-0.2684515,-0.2389602
1.390163,-0.3278694,-0.1889631
1.089358,-0.3256481,-0.1400539
0.9220176,-0.2760539,-0.09438845
0.9277805,-0.2601606,-0.1105028
0.919887,-0.145458,-0.2001572
0.9463961,-0.1205102,-0.2634367
0.9262156,-0.1541817,-0.336961
0.8938681,-0.219663,-0.344357
0.8670386,-0.391552,-0.2616621
0.7574954,-0.4184127,-0.1826235
0.7350446,-0.3407841,-0.1242933
0.7911916,-0.2561513,-0.1433555
0.8236422,-0.1798473,-0.1565228
0.809512,-0.1875832,-0.1142842
0.7522079,-0.186299,-0.1128004
0.7465644,-0.1648638,-0.1085156
0.7440741,-0.1433335,-0.1105446
0.7643175,-0.1323218,-0.137059
0.8109064,-0.1353256,-0.1351381
0.8307873,-0.1161176,-0.1350495
0.8947291,-0.1038287,-0.1311392
0.8897981,-0.1371278,-0.1339444
0.8028323,-0.3103809,-0.1616252
0.729005,-0.5471156,-0.174886
0.6904183,-0.6056247,-0.1747157
0.9154834,-0.5112837,-0.1462941
1.42656,-0.4259069,-0.06767556
1.767241,-0.3472741,0.03962208
1.62599,-0.2975883,0.1251509
1.455188,-0.3177381,0.1681662
1.574773,-0.3040192,0.1234702
1.526106,-0.3015408,0.003001212
1.348387,-0.2698662,-0.001569438
1.236177,-0.1190776,-0.003499595
1.062135,-0.09359619,-0.09805931
1.051231,-0.1677357,-0.04510222
0.9989454,-0.2099556,0.002514772
0.7923711,-0.2406828,0.002233538
0.7167303,-0.1811707,0.08020575
0.6233872,-0.1195954,0.05027388
0.6494215,-0.06227012,0.02528565
0.7477304,-0.01055041,0.03535512
0.7034154,-0.03947531,-0.0155086
0.7523668,-0.06939155,-0.02544336
0.7975789,-0.149448,-0.07257955
0.8330784,-0.2258269,-0.07098876
0.8509219,-0.2108286,-0.02341611
0.748613,-0.1964395,-0.0798818
0.7584663,-0.1856546,-0.1042906
0.823249,-0.24073,-0.1294746
1.026446,-0.4557258,-0.1897073
1.300633,-0.6811979,-0.2195484
1.218297,-0.6154211,-0.2440326
1.175756,-0.3284037,-0.2303298
1.446581,-0.1106083,-0.277198
1.585201,-0.02043421,-0.3461153
1.499281,-0.1988827,-0.2840488
1.358642,-0.3802046,-0.1613426
1.222901,-0.1792389,-0.02000342
1.159105,0.002731728,0.01962873
1.178374,0.02608478,-0.0726123
1.142101,0.01427172,-0.1497863
1.018181,-0.09641149,-0.2765239
0.9357293,-0.1406435,-0.3596828
0.8868628,-0.2177525,-0.3041044
0.8146555,-0.3381959,-0.2768432
0.7077633,-0.335513,-0.1959384
0.6469974,-0.3374232,-0.09573609
0.7509508,-0.2614312,-0.1384743
0.8537176,-0.1009071,-0.1717196
0.8225736,0.01371622,-0.185585
0.7588965,0.0977008,-0.2114755
0.6956891,0.08530749,-0.1810643
0.6928252,0.01090109,-0.1501133
0.7590163,-0.07694355,-0.110474
0.8031052,-0.1337742,-0.1254959
0.8220107,-0.145652,-0.207894
0.828249,-0.2069504,-0.2273983
0.8770083,-0.224884,-0.2373536
0.9592728,-0.2084786,-0.2632942
0.9569357,-0.2932571,-0.2659341
0.9251756,-0.4491257,-0.1851137
0.9791302,-0.5656044,0.03939207
1.211793,-0.5010877,0.203542
1.650869,-0.3472599,0.1683643
1.877566,-0.2479232,0.02001255
1.633114,-0.200273,-0.09911658
1.378017,-0.2379723,-0.0595965
1.27266,-0.2203856,-0.01268496
1.161089,-0.1354406,-0.05643738
1.173976,-0.1392615,-0.03151438
1.092374,-0.1268793,0.03018655
0.8370951,-0.1001614,0.05887455
0.7859283,-0.09143991,0.07691521
0.7777386,-0.03306123,0.05631761
0.6862108,0.006167094,0.0400145
0.6507631,0.02392428,0.02148662
0.5614743,0.002601123,-0.01087025
0.5901745,-0.07157542,-0.02173621
0.764784,-0.1888991,-0.07256715
0.8368938,-0.3719347,-0.08578915
0.8688048,-0.4776558,-0.02842642
0.8582554,-0.5025066,-0.04998903
0.8925314,-0.5409681,-0.1821921
1.048547,-0.5686986,-0.3756372
1.098804,-0.5977016,-0.4557018
1.119266,-0.5378552,-0.4251978
1.363681,-0.329424,-0.4368712
1.792171,-0.1396059,-0.3558606
1.928431,-0.1425149,-0.256361
1.545829,-0.1213205,-0.2552761
1.302732,0.07622912,-0.2104397
1.412571,0.004836405,-0.2020171
1.334536,-0.2582522,-0.2273838
1.07814,-0.3175073,-0.1742842
1.000389,-0.3150648,-0.1464413
0.984713,-0.2070372,-0.1818371
0.83674,-0.08363208,-0.2364017
0.7935078,-0.07688386,-0.2779307
0.840032,-0.07974005,-0.2660322
0.7545686,-0.1898292,-0.2320299
0.7228076,-0.2121147,-0.1891816
0.7542329,-0.1615208,-0.1009965
0.7337674,-0.1570403,-0.04574642
0.7298685,-0.02304481,-0.07019038
0.6958868,0.01364334,-0.07752236
0.6639352,0.007580425,-0.08654864
0.7132686,0.04989698,-0.1446294
0.764239,-0.03772983,-0.2271094
0.7278123,-0.1452173,-0.2926166
0.6274793,-0.3431834,-0.2340735
0.5638599,-0.5343987,-0.1318955
0.6763727,-0.5577343,-0.1128648
1.11498,-0.5555209,-0.09635887
1.698464,-0.5177075,-0.08668116
1.906326,-0.4480513,-0.113173
1.670113,-0.3937614,-0.1264339
1.525314,-0.4400512,-0.1022496
1.547419,-0.502836,-0.04543505
1.387249,-0.3705983,-0.02217842
1.195279,-0.2057121,-0.02299311
1.105308,-0.1309672,-0.004757531
1.031008,-0.1237696,0.03850757
0.9618047,-0.1245849,0.1053617
0.7958483,-0.004950903,0.09022915
0.6358442,0.1105398,0.0230992
0.5209971,0.1189831,0.005739713
0.4548617,0.04614223,-0.02977295
0.5764306,-0.08541176,-0.07907362
0.7030779,-0.1996232,-0.1123519
0.7631094,-0.3243236,-0.1350556
0.7626027,-0.4492614,-0.1394888
0.7227842,-0.5618289,-0.177048
0.8265208,-0.6516268,-0.2274476
0.9860264,-0.5539892,-0.2617134
1.275877,-0.3228229,-0.3127814
1.691164,-0.1872936,-0.3910752
1.800338,-0.2540268,-0.4283612
1.514159,-0.3252636,-0.2831918
1.217113,-0.09807953,-0.09171946
1.256313,0.07959012,-0.1125687
1.314291,-0.1033218,-0.1909922
1.117414,-0.2618315,-0.1709062
0.976398,-0.2607762,-0.1769342
0.8753933,-0.2179591,-0.1960231
0.8061643,-0.1516287,-0.2059004
0.8513728,-0.1311188,-0.2330381
0.8319421,-0.1151039,-0.1716997
0.7967289,-0.06894335,-0.09238989
0.7661128,0.005071725,-0.1034307
0.7234258,0.1064478,-0.1368099
0.7343788,0.1187029,-0.1626803
0.7294733,0.03733968,-0.1473255
0.7171579,-0.02506518,-0.118866
0.6982472,-0.08482399,-0.1233242
0.6546421,-0.1751621,-0.1264741
0.6074567,-0.2418008,-0.1551235
0.5446141,-0.3070869,-0.1992652
0.5468121,-0.4136882,-0.2242588
0.8272167,-0.5268,-0.2074329
1.446361,-0.6653669,-0.1110424
1.882265,-0.7606964,-0.02658438
1.766199,-0.6226404,-0.04651575
1.52896,-0.3297728,-0.07780671
1.412984,-0.1243266,-0.05445324
1.330878,-0.05113057,-0.07650683
1.34779,-0.09316339,-0.111918
1.305469,-0.2386189,-0.06777925
1.129874,-0.4193387,-0.02832534
0.9970585,-0.4822784,0.005131175
0.8404747,-0.3249245,0.0226067
0.7104655,-0.150346,-0.02435687
0.6861406,-0.05592396,-0.0486146
0.6234132,0.0003685658,-0.05312466
0.5757233,-0.04491929,-0.03879081
0.5369781,-0.04582364,-0.01026684
0.4829353,-0.005734649,-0.03773104
0.5167128,-0.08063728,-0.07638086
0.5983176,-0.2917505,-0.1690316
0.686254,-0.5978634,-0.2893081
0.6680293,-0.644677,-0.2456256
0.5890142,-0.5105747,-0.1304625
0.6325437,-0.5589306,-0.1164467
0.7834805,-0.5190857,-0.175219
1.138759,-0.4313855,-0.2483673
1.549871,-0.4587865,-0.2571313
1.744957,-0.412878,-0.2510108
1.882765,-0.5037402,-0.3069375
1.926452,-0.607717,-0.284224
1.742982,-0.3441824,-0.2007135
1.58332,-0.1651017,0.03166133
1.427812,0.09004088,0.06897265
0.8807292,0.1519249,0.05066361
0.7412757,0.1043233,-0.0250188
0.7926085,0.04165106,-0.1048152
0.6913533,-0.0504784,-0.1908744
0.8434552,-0.2175171,-0.1663234
0.8779453,-0.4242122,-0.1714166
0.7877218,-0.6372429,-0.2671866
0.762619,-0.7695632,-0.3229368
0.7098872,-0.6730102,-0.3576734
0.8268977,-0.4273823,-0.3115945
0.9821952,-0.2702398,-0.2770391
1.258791,-0.3186176,-0.3352556
1.53812,-0.4361222,-0.3219744
1.476094,-0.4046634,-0.2357952
1.301198,-0.1778298,-0.1520271
1.111301,0.05894336,-0.1649155
1.091015,0.009332996,-0.2190238
1.167608,-0.2390528,-0.1716718
1.084805,-0.3740757,-0.1242913
1.075527,-0.4055911,-0.07423255
1.014836,-0.2524014,-0.04864486
0.8448929,-0.01735605,-0.08826626
0.7696058,-0.0253864,-0.05882294
0.6921911,-0.001462506,-0.07131481
0.663306,0.06007365,-0.121065
0.6902732,-0.0995233,-0.1279576
0.6376383,-0.2683751,-0.1907006
0.5561609,-0.4089673,-0.1863513
0.5154788,-0.4540139,-0.1535493
0.5681401,-0.4095621,-0.1634389
0.8984687,-0.435298,-0.07906124
1.514966,-0.3986117,-0.01175346
1.86006,-0.4020361,-0.01222789
1.676925,-0.4928835,-0.005478362
1.517373,-0.5406887,0.01244712
1.49108,-0.5331818,0.03415219
1.316564,-0.2860318,0.006114501
1.214774,0.001744113,-0.02727217
1.240373,-0.03300671,-0.02775895
1.159305,-0.1277294,0.07050227
0.9532653,-0.0796368,0.2291314
0.7818034,-0.07820292,0.196492
0.7674194,-0.09189591,0.08862236
0.7086683,-0.04236006,0.02503718
0.655589,-0.06261655,-0.07675357
0.7307813,-0.08621597,-0.05503551
0.6607415,-0.1098268,-0.02020972
0.6354067,-0.2457353,-0.0923221
0.7394103,-0.3631587,-0.06852341
0.7209267,-0.4324316,-0.05954052
0.6921578,-0.4436405,-0.1295
0.6720768,-0.4488247,-0.1848715
0.8124071,-0.5781759,-0.2683711
1.127938,-0.6133643,-0.2712207
1.365482,-0.4871032,-0.2419533
1.692285,-0.3333297,-0.2406593
1.905206,-0.1377549,-0.09769839
1.727275,0.04183615,0.0159412
1.553441,0.1210098,-0.03302887
1.479451,0.03803543,-0.07381939
1.325902,-0.1054944,-0.1302318
1.191305,-0.208798,-0.2254418
1.045193,-0.2998007,-0.2207277
0.8099531,-0.2685739,-0.1266053
0.6677476,-0.2104987,-0.06824884
0.6568744,-0.2018721,-0.0494116
0.6981629,-0.1139596,-0.07294158
0.7740481,-0.05665217,-0.1362363
0.7783234,-0.02604887,-0.1516674
0.7481505,0.02325648,-0.1353196
0.7368627,0.02501643,-0.1059818
0.717103,0.02122186,-0.08001456
0.7133058,-0.01923375,-0.07727672
0.6880908,-0.03765159,-0.06579964
0.6920624,-0.02147941,-0.1105624
0.7262901,-0.07844658,-0.1637916
0.7539366,-0.1817141,-0.1546552
0.8073776,-0.3330472,-0.1335544
0.7756716,-0.4370464,-0.104022
0.6979367,-0.4329721,-0.1114119
0.8055378,-0.4371007,-0.1219708
1.344592,-0.4821843,-0.1127601
2.035451,-0.5592142,-0.1499995
2.048261,-0.5815087,-0.1555595
1.699602,-0.5309593,-0.05537857
1.541439,-0.466377,0.1011662
1.206338,-0.317796,0.1080507
1.302501,-0.0638921,-0.151065
1.731762,0.159957,-0.3564245
1.4316,0.05147523,-0.228552
1.214169,-0.2557325,-0.0234626
1.190842,-0.2682435,-0.02067139
0.8596444,-0.1825711,-0.08362452
0.8399655,-0.1708045,-0.1527588
0.735596,-0.1124567,-0.2415065
0.6258958,-0.2501421,-0.2359586
0.7872377,-0.4796604,-0.186785
0.6766457,-0.5681427,-0.1015474
0.6996004,-0.5381886,-0.04056971
0.7196139,-0.4155578,-0.07195594
0.6075934,-0.3165105,-0.05873158
0.7275175,-0.1504674,-0.06781642
0.723164,-0.0003485168,-0.08991703
0.7527462,0.0162818,-0.06260288
0.8087888,0.05237651,-0.07458776
0.7645923,0.002154521,-0.05858077
0.8592535,-0.07943875,-0.04743559
0.9124358,-0.1928296,-0.05279736
0.9957456,-0.4050687,-0.02718485
1.048592,-0.4498299,-0.03316543
0.9722805,-0.3883726,-0.02953653
0.9280305,-0.2709977,-0.04029001
0.8570681,-0.1077923,-0.08164867
0.941401,-0.1198955,-0.1042548
1.107066,-0.2065616,-0.1153461
1.102339,-0.2681784,-0.1243697
1.038465,-0.335124,-0.1720432
0.9336367,-0.3626738,-0.1913667
0.9217041,-0.3603884,-0.1997069
1.220835,-0.4036236,-0.3110796
1.667735,-0.4564901,-0.4037947
1.793384,-0.3273612,-0.3651971
1.516896,-0.1020506,-0.2357892
1.261713,-0.03088861,-0.1007844
1.101747,-0.132235,-0.04139442
0.9779444,-0.2601342,-0.1025147
0.9459699,-0.2791743,-0.2090328
0.8146753,-0.2503447,-0.2214244
0.6519023,-0.2275249,-0.2123343
0.6660861,-0.2048899,-0.2233491
0.7135709,-0.2243035,-0.219476
0.7308436,-0.2296057,-0.2370233
0.7677735,-0.1926817,-0.1890577
0.7872044,-0.1233535,-0.1221307
0.7762008,-0.04285628,-0.1120491
0.7437485,-0.02818082,-0.08781175
0.7354191,-0.04376375,-0.06205511
0.7138152,-0.01955433,-0.01248951
0.6697411,0.03720546,0.01900929
0.7322802,0.1049653,-0.02518985
0.8135959,0.138152,-0.08089304
0.8323287,0.07548341,-0.1671435
0.8858634,-0.02698666,-0.2640237
0.8929593,-0.08553246,-0.2523417
0.8515351,-0.2459283,-0.1892476
0.8714865,-0.4849335,-0.2117756
0.869528,-0.5026166,-0.2188791
0.8912305,-0.4621447,-0.1512891
1.069571,-0.6126703,-0.01789517
1.308057,-0.6447162,0.1708008
1.608014,-0.4390509,0.1089387
1.964141,-0.2183782,-0.1062664
1.989249,-0.1142656,-0.1288472
1.681255,-0.2381205,-0.07302536
1.492831,-0.3348736,0.02097732
1.309777,-0.1884011,0.03471043
1.039159,-0.1238353,-0.01303677
0.865175,-0.1707206,0.1081259
0.6535273,-0.15102,0.1675516
0.5268384,-0.09723283,0.1435957
0.4652217,0.01583841,0.1049904
0.3609844,0.09161589,-0.02366912
0.4933843,0.01881613,-0.04463504
0.5767771,-0.1354915,-0.008287715
0.5237476,-0.3154673,-0.002031913
0.6607681,-0.4809736,-0.01082781
0.8411923,-0.5635481,-0.07039774
0.9661465,-0.5629913,-0.09362071
0.9692113,-0.5584842,-0.1217364
0.9672993,-0.5585801,-0.1583876
1.066471,-0.5143856,-0.2052348
1.106329,-0.3219388,-0.245479
1.31183,-0.06860994,-0.1998677
1.716822,-0.08046884,-0.2025775
1.951029,-0.2054168,-0.1951692
1.785511,-0.1595251,-0.1304459
1.450551,-0.09343594,-0.1219303
1.359777,-0.06097043,-0.1158821
1.24299,-0.1297208,-0.1210701
0.9626543,-0.3153663,-0.07544025
0.7929346,-0.3255414,-0.01567911
0.6882595,-0.1999176,-0.08648928
0.6954074,-0.1052855,-0.1595687
0.7390297,-0.04118764,-0.1747929
0.7085532,-0.07386623,-0.1362544
0.6775081,-0.08316221,-0.06125481
0.597847,-0.05975139,-0.03995968
0.6004301,-0.1083614,-0.03270604
0.6276309,-0.1357748,-0.04739066
0.5781804,-0.1832804,-0.1157898
0.6060329,-0.23686,-0.1741333
0.5945721,-0.2745131,-0.1840827
0.5396918,-0.384192,-0.1748716
0.5595503,-0.4299203,-0.1559569
0.7847563,-0.3960204,-0.05548146
1.396444,-0.4168782,0.0380321
1.946411,-0.4705468,0.02982576
1.957202,-0.5474337,0.02923179
1.734708,-0.594311,0.06382702
1.539437,-0.4721913,0.1226325
1.241192,-0.2078771,0.1509501
1.075061,0.08255748,0.07202683
1.172415,0.25254,0.01708017
1.106794,0.0748007,0.07050796
0.9617826,-0.2148,0.1364742
0.9136457,-0.2250554,0.1391147
0.7626149,-0.1713029,0.08609562
0.698568,-0.1725657,0.02107353
0.7426452,-0.1276108,-0.02594238
0.7287638,-0.09683282,-0.07826872
0.7334657,-0.07854932,-0.1725838
0.7543372,-0.195974,-0.2020899
0.7878161,-0.4004243,-0.1193027
0.7551153,-0.4495475,-0.05650837
0.6811426,-0.4130224,-0.0651017
0.7230341,-0.4010744,-0.1429768
0.933927,-0.4255759,-0.222162
1.321379,-0.4681364,-0.2339532
1.689714,-0.5980972,-0.2512884
1.893924,-0.7399826,-0.2379475
1.771894,-0.5321417,-0.1049438
1.389772,-0.09511044,0.02543843
1.235621,0.1903572,0.006071703
1.148267,0.2262747,-0.1007632
1.014326,0.06029392,-0.1796983
1.035227,-0.09870568,-0.2208743
0.885778,-0.1895361,-0.2229901
0.7323671,-0.1876845,-0.219354
0.7557772,-0.08500824,-0.2622502
0.715391,-0.09079113,-0.3220814
0.7798059,-0.1522626,-0.352995
0.9066093,-0.2227456,-0.3355836
0.9769769,-0.3162666,-0.3176212
1.00135,-0.2921942,-0.3271755
0.9645205,-0.2894491,-0.3213538
0.994806,-0.3353441,-0.3283738
0.9711278,-0.3735325,-0.3338347
0.8743598,-0.4956403,-0.2897417
0.8233836,-0.5504488,-0.2309793
0.807034,-0.5090471,-0.1264908
0.8369839,-0.4689197,-0.009552191
0.8719234,-0.4009582,-0.0247535
1.100572,-0.2704448,-0.09899908
1.379033,-0.1241726,-0.09011437
1.284952,-0.1569708,-0.08767513
1.130751,-0.2490416,-0.1272423
1.03933,-0.21586,-0.1459257
0.8202374,-0.2109875,-0.156661
0.7908089,-0.1690932,-0.07858532
0.8455945,-0.07504054,0.03104914
0.7463817,-0.09930047,0.02080061
0.7612564,-0.1130336,0.009352105
0.6913187,-0.06018201,0.04663469
0.5102313,-0.01088915,0.0580334
0.5079363,0.08282728,0.01536648
0.4295374,0.1330475,-0.09568063
0.4111649,0.02520073,-0.2098988
0.5431853,-0.2609693,-0.301756
0.5776235,-0.6459278,-0.3663994
0.7719268,-0.8920535,-0.3677111
1.147485,-0.9291374,-0.3682879
1.5875,-0.7725055,-0.4552866
1.878885,-0.4734424,-0.5518672
1.753285,-0.3517849,-0.525983
1.523139,-0.2892894,-0.4023951
1.276395,0.01407583,-0.2976384
1.15667,0.1424078,-0.3156829
1.232637,-0.02056435,-0.3500483
1.017505,-0.152582,-0.2834164
0.7872307,-0.3277102,-0.2575863
0.8047101,-0.4434559,-0.2345983
0.798702,-0.3586305,-0.1803217
0.8269694,-0.2401975,-0.2074831
0.7841386,-0.0877346,-0.1953008
0.6697108,-0.01208113,-0.1486445
0.5904507,-0.1367698,-0.1507159
0.4957992,-0.2609764,-0.143856
0.4604205,-0.3670978,-0.1527166
0.4202899,-0.438864,-0.1683264
0.5239497,-0.3586294,-0.2102469
0.8583998,-0.3225957,-0.2408319
1.197409,-0.3427329,-0.07423292
1.532427,-0.3283186,0.1853031
1.739317,-0.4166811,0.2338416
1.762021,-0.5255466,0.0699636
1.671811,-0.601679,-0.02782286
1.484132,-0.6228003,0.02568945
1.304484,-0.3994694,0.05241575
1.13403,-0.1252328,0.02387689
1.138745,-0.1381914,0.0006888772
1.198648,-0.2392792,-0.03536799
1.041439,-0.1760696,-0.01231972
0.9248891,-0.1375177,0.06059882
0.7843538,-0.1129305,0.06095465
0.6357847,-0.03845172,0.05251247
0.6603498,-0.09012418,0.07060924
0.5787691,-0.1160082,0.05817182
0.5337082,-0.1126331,0.05439134
0.6405716,-0.1742428,0.0198956
0.739321,-0.183565,-0.05813799
0.8912312,-0.2701957,-0.09953703
0.9289098,-0.3385381,-0.1059616
0.8864534,-0.3593411,-0.1300296
0.9205584,-0.5570316,-0.2235211
0.9285912,-0.6758882,-0.2952461
0.9775534,-0.5484304,-0.262255
1.116979,-0.3834771,-0.2349528
1.27635,-0.321348,-0.239275
1.406281,-0.3298826,-0.198154
1.518053,-0.2811501,-0.1283696
1.502744,-0.1856737,-0.08881285
1.245253,-0.1038715,-0.02896709
1.018744,-0.04249202,0.07583471
0.9148336,-0.08172358,0.07269941
0.8758592,-0.2113175,-0.05932401
0.9407413,-0.2238467,-0.1942222
0.9403674,-0.1513233,-0.278987
0.9197763,-0.1404723,-0.2503424
0.9256485,-0.1125217,-0.1513451
0.8686753,-0.1503011,-0.06385928
0.7814769,-0.2244195,0.01376225
0.6433129,-0.1885994,-0.006312676
0.6226272,-0.1444806,-0.06296393
0.7052055,-0.08342534,-0.09692654
0.6760959,-0.04876628,-0.2133002
0.5723759,-0.0666268,-0.233733
0.3934173,-0.1227912,-0.1067973
0.3607567,-0.2972286,-0.02309645
0.7225796,-0.381936,0.0276165
1.285198,-0.4005516,0.0531337
1.67905,-0.4993081,0.06605431
1.679471,-0.5063472,0.004324039
1.58129,-0.5200759,-0.08466558
1.554752,-0.5943442,0.04852765
1.35051,-0.5270107,0.1587519
1.106912,-0.2003955,0.02448258
1.04283,0.219921,-0.0506385
1.148384,0.2227999,0.01050368
1.253469,0.01796984,0.04719992
1.106998,0.07200911,0.0619961
0.8682934,-0.04885554,0.08442314
0.6771507,-0.2463578,0.05659992
0.5612861,-0.1448947,-0.006791349
0.669251,-0.155843,-0.09757166
0.7219939,-0.2924208,-0.2224869
0.6226761,-0.4583753,-0.245734
0.6296602,-0.7485785,-0.2424395
0.6856761,-0.8548274,-0.3386427
0.882564,-0.7139996,-0.396075
1.305857,-0.4438103,-0.4179458
1.634944,-0.147279,-0.4107725
1.606808,-0.07931318,-0.2665365
1.329329,-0.09371943,-0.1169318
1.161308,0.059284,-0.1052966
1.185018,0.1186003,-0.1096166
1.176708,-0.03627952,-0.09133479
1.060395,-0.1603968,-0.1527864
0.9613676,-0.2109872,-0.1718043
0.9357967,-0.1803576,-0.1530214
0.9110269,-0.1502258,-0.2013176
0.8965226,-0.2580692,-0.1477694
0.865099,-0.3342858,-0.1029182
0.7936646,-0.3411926,-0.1783445
0.6779871,-0.2855473,-0.1773562
0.4387596,-0.142921,-0.0985742
0.1654965,-0.01205065,0.03387471
-0.07046487,0.1397754,0.1218562
-0.1663127,0.1989602,0.08475538
0.1267039,0.04343248,-0.03428274
0.9425462,-0.3588916,-0.3181026
1.795008,-0.7892631,-0.4779533
1.763874,-0.6626004,-0.2247918
1.527158,-0.3147606,-0.006577394
1.842061,-0.3341046,-0.08470108
1.674421,-0.3886677,-0.006454694
1.353041,-0.3880882,0.2271059
1.32688,-0.2024893,0.1724792
0.9951447,0.220726,0.1039332
0.9938708,0.2648743,0.1264131
1.029589,0.124152,-0.05551565
0.7959949,0.04161939,-0.1466112
0.8146667,-0.2486193,-0.1265495
0.5583355,-0.3699352,-0.1904897
0.3766251,-0.3788623,-0.20452
0.31317,-0.5659022,-0.2712789
0.1886524,-0.7165584,-0.395747
0.8539084,-0.8725356,-0.4874038
1.664697,-0.9292937,-0.5382201
1.866622,-0.6771861,-0.4788418
1.654371,-0.3400986,-0.3921655
1.427566,-0.1666875,-0.2684182
1.445259,0.006482279,-0.1384122
1.370793,0.1948122,-0.1538881
1.372948,-0.03832291,-0.2362721
1.217894,-0.4257961,-0.2833618
0.8530648,-0.4802691,-0.2290436
0.8851991,-0.3935752,-0.1354227
0.8646026,-0.243318,-0.1455505
0.829347,-0.1119931,-0.1842059
0.9431208,-0.07850736,-0.2195756
0.8478486,-0.06696673,-0.2462503
0.8058006,-0.1370778,-0.1736582
0.7720059,-0.1741749,-0.08687259
0.753997,-0.1743189,-0.08377757
0.8934087,-0.1887273,-0.1162619
1.014741,-0.139185,-0.1521683
1.095181,-0.1270736,-0.1969371
0.9998094,-0.1399927,-0.216968
0.8222326,-0.1518026,-0.1715943
0.7020118,-0.154841,-0.1122371
0.5781978,-0.1188932,-0.1007851
0.5607564,-0.1286843,-0.1141058
0.5399286,-0.151287,-0.1212928
0.4886462,-0.2168388,-0.1243029
0.5920255,-0.3324685,-0.1600505
0.825758,-0.4393612,-0.2252618
1.11626,-0.5332396,-0.2313984
1.439538,-0.5401769,-0.1482024
1.852223,-0.5596813,-0.07662034
2.072127,-0.540832,-0.1036845
1.919862,-0.3910296,-0.1528648
1.869527,-0.2847086,-0.1774093
1.7207,-0.1239322,-0.2742061
1.280713,0.01818088,-0.4103114
1.030623,-0.05561211,-0.4550506
0.6765434,-0.1534756,-0.3757081
0.2915126,-0.284063,-0.2695006
0.3039819,-0.3919521,-0.2534594
0.3018009,-0.332122,-0.2479039
0.2624967,-0.3373668,-0.2088852
0.3109682,-0.3875158,-0.2297689
0.503124,-0.4176672,-0.2822987
1.037894,-0.5961383,-0.3273974
1.424936,-0.7119298,-0.3319311
1.341038,-0.6389033,-0.2631639
1.253903,-0.5818727,-0.1839805
1.292006,-0.4673171,-0.1484107
1.144946,-0.1913631,-0.1915583
1.112662,0.02012001,-0.2516036
1.214769,0.02057647,-0.2591032
0.9657784,-0.0219775,-0.2923523
0.8281193,-0.03838241,-0.3480207
0.9047849,-0.1647712,-0.3752735
0.8824517,-0.3365015,-0.3865732
0.9561859,-0.387152,-0.3482065
0.9370903,-0.3545605,-0.2699486
0.8649527,-0.07013291,0.04248813
0.8352844,-0.07157747,0.01566648
0.9315411,-0.1391621,-0.048898
1.059125,-0.2068971,-0.08473989
1.197075,-0.3755833,-0.1107804
1.331633,-0.5257481,-0.1899623
1.430851,-0.4972553,-0.3482362
1.652234,-0.3338374,-0.4271677
1.788617,-0.1250288,-0.3065959
1.647762,0.03855339,-0.1726224
1.434645,0.04070045,-0.0517482
1.257664,-0.1061736,0.04574964
1.052129,-0.2330762,0.01125565
0.8908075,-0.2438903,-0.04521718
0.8849551,-0.1469497,-0.1164192
0.9161605,-0.06231812,-0.1986569
0.9182624,-0.07498333,-0.1892027
0.8951987,-0.1142057,-0.1828522
0.853554,-0.1522723,-0.1922981
0.8597426,-0.148094,-0.1702038
0.8615099,-0.1005184,-0.163553
0.8693004,-0.06018558,-0.1289864
0.9099011,-0.02630583,-0.08369428
0.9271893,-0.06146492,-0.0829133
0.8984383,-0.1119421,-0.08793997
0.8189214,-0.1107756,-0.09074312
0.7786164,-0.1199986,-0.09104847
0.7572515,-0.1139926,-0.07996582
0.7028423,-0.1070081,-0.06512887
0.7239111,-0.1220562,-0.05510375
0.8280067,-0.12229,-0.06800247
0.9244351,-0.123094,-0.1048407
0.9370711,-0.110696,-0.1448535
0.9216271,-0.08750447,-0.1502203
0.9620971,-0.07982497,-0.1273474
0.9931513,-0.08447986,-0.1099833
1.017649,-0.1070281,-0.09763996
1.030798,-0.1685193,-0.1452583
1.008862,-0.3096418,-0.2078912
1.069606,-0.4714075,-0.1197111
1.297601,-0.5101541,0.05189154
1.650475,-0.3887333,0.1154307
1.806419,-0.2143073,0.01346043
1.555518,-0.1384362,-0.09654371
1.259619,-0.1625451,-0.02621889
1.149747,-0.1664774,0.01853412
1.190804,-0.1468773,-0.08121419
1.264233,-0.170804,-0.08895245
1.097533,-0.1967924,-0.02340261
0.8650912,-0.175468,0.03677355
0.7879072,-0.1652997,0.07255586
0.7885547,-0.1712041,0.02728371
0.8722829,-0.1555562,0.0165976
0.8922748,-0.1460171,0.01856875
0.8845363,-0.1383367,-0.01488429
0.8817798,-0.1303427,-0.006415676
0.7732858,-0.1210966,-0.001971174
0.7472149,-0.06586136,0.01154153
0.7311067,0.02219113,0.04700421
0.7043177,0.06875509,0.05282581
0.7725054,0.006573438,0.00026011
0.8046884,-0.1654844,-0.09801414
0.8775382,-0.3428172,-0.1091148
0.8847593,-0.3598424,-0.03565469
0.8140352,-0.2524318,0.0173972
0.8590371,-0.1850228,0.02949346
0.8972441,-0.09071106,-0.01181697
0.9922487,-0.0477399,-0.03903409
1.11463,-0.1724276,-0.02735543
1.161423,-0.2519736,-0.04505023
1.248297,-0.3197994,-0.1298999
1.249344,-0.4080659,-0.2631279
1.215474,-0.3892395,-0.3078046
1.313228,-0.3771671,-0.2457332
1.505614,-0.3323337,-0.2393681
1.672785,-0.2309916,-0.2959653
1.496704,-0.1660403,-0.3032865
1.213991,-0.1106565,-0.2161079
1.235605,-0.1420464,-0.1121983
1.118101,-0.2476107,-0.09345236
0.8696512,-0.3147853,-0.0904887
0.9548085,-0.274514,-0.1166063
1.007589,-0.1748498,-0.2375814
0.8916022,-0.1594221,-0.2583856
0.8946234,-0.1524517,-0.2062262
0.8509032,-0.1481485,-0.2247098
0.8011853,-0.1841922,-0.1720571
0.8648503,-0.1398832,-0.1174106
0.8813171,-0.09037822,-0.1382252
0.9236285,-0.07992296,-0.1344702
0.945079,-0.07940601,-0.1385386
0.8352709,-0.1214135,-0.09686974
0.7541342,-0.127363,-0.02023173
0.7246488,-0.09934359,-0.01122884
0.7481543,-0.05418612,-0.03055482
0.8181866,0.0006483899,-0.06702483
0.901024,-0.006679163,-0.1359434
1.021144,-0.01616346,-0.2148676
0.9980224,-0.02400514,-0.2167934
0.8951335,-0.0650429,-0.1374586
0.9036825,-0.09962138,-0.0784547
0.8948531,-0.1758157,-0.04290402
0.8902176,-0.2728107,-0.07136832
0.8777826,-0.3124319,-0.1445065
0.8365054,-0.3409945,-0.1695147
0.9683474,-0.3970355,-0.1430439
1.27786,-0.4120048,-0.03190146
1.6343,-0.3613843,0.05728566
1.715152,-0.3178892,0.02698231
1.382814,-0.2783528,0.02022539
1.150951,-0.1907386,0.03550244
1.23056,-0.09916057,-0.06236825
1.291614,-0.09605352,-0.1666236
1.236565,-0.1673319,-0.09765558
1.140212,-0.2098172,0.01060951
0.9331289,-0.1893553,0.04513552
0.7527963,-0.09491289,0.08728889
0.8240779,0.01425709,0.0402858
0.8913599,0.007261015,-0.06974779
0.8456012,-0.06791163,-0.08895268
0.8040972,-0.1180614,-0.05703601
0.6735312,-0.1416193,0.004521546
0.6539267,-0.09927531,0.0283268
0.7788921,-0.0306894,-0.01279891
0.8192004,-0.02442004,-0.05073096
0.8495227,-0.05868488,-0.08698921
0.8515643,-0.1539747,-0.04334116
0.8487797,-0.2899678,0.02770342
0.8759958,-0.293821,0.00626904
0.8487016,-0.1938032,-0.02211805
0.8711633,-0.1539187,-0.03962473
0.8956603,-0.1600892,-0.05140773
0.8901663,-0.1943747,-0.04461997
0.9293666,-0.2692029,-0.07392344
0.9594568,-0.3399693,-0.100646
1.120216,-0.4185732,-0.1181353
1.35167,-0.5078235,-0.1966142
1.389447,-0.5071706,-0.3277519
1.452378,-0.3956026,-0.4665943
1.671233,-0.2698687,-0.518011
1.690926,-0.133458,-0.377706
1.429888,-0.0477806,-0.1348068
1.142633,-0.1015827,0.02958258
0.9899454,-0.1500646,0.06497774
1.006064,-0.1570694,-0.01088339
1.042815,-0.1508865,-0.1426308
1.047478,-0.09565697,-0.256641
1.052732,-0.1126067,-0.2899396
0.9640967,-0.1469087,-0.2037193
0.8982185,-0.1264594,-0.1365542
0.9229843,-0.1262565,-0.1651175
0.9386317,-0.08788005,-0.1763682
0.9449225,-0.0699372,-0.1786029
0.925933,-0.09144166,-0.1794449
0.9256239,-0.1017036,-0.1549332
0.9494506,-0.1789719,-0.1381596
0.9677917,-0.2299428,-0.1033529
0.9710245,-0.2094983,-0.07903545
0.9133334,-0.1947294,-0.07817541
0.8333797,-0.1634675,-0.06515925
0.7651964,-0.1388906,-0.06347313
0.787501,-0.122317,-0.05864465
0.8359227,-0.09192631,-0.0640898
0.7857115,-0.06583424,-0.09397913
0.7785317,-0.0369959,-0.106081
0.8014723,-0.001503467,-0.1130754
0.8661402,0.007379393,-0.1135546
1.006745,-0.06552895,-0.08559298
1.009931,-0.1652259,-0.0320675
0.9989612,-0.2068564,0.01950118
1.064158,-0.2066639,0.01757496
1.014846,-0.1795131,-0.009439304
0.9330558,-0.1625341,-0.02746508
0.9345589,-0.2091809,-0.06641587
1.166768,-0.3220507,-0.1270923
1.613713,-0.490464,-0.1819387
1.863085,-0.7283615,-0.1854677
1.831653,-0.8604133,-0.1449071
1.486339,-0.5027454,-0.07888593
0.9230747,0.0645194,0.005958599
0.8701988,0.1388106,-0.03079726
1.163936,-0.01352291,-0.187988
1.178301,0.01926831,-0.2534594
1.19384,-0.08307729,-0.1708457
1.136761,-0.2365552,-0.05116774
0.9081151,-0.1837248,-0.05515643
0.8342787,-0.1405581,-0.1460195
0.7953652,-0.1525732,-0.1986038
0.8306331,-0.1815432,-0.2564464
0.9249073,-0.2857133,-0.2394522
0.892421,-0.3527792,-0.1643285
0.8618329,-0.3287986,-0.1539964
0.8329875,-0.3277256,-0.1525107
0.9300146,-0.3969833,-0.1905668
1.094989,-0.4635384,-0.201602
1.040447,-0.4698697,-0.1351742
0.9715557,-0.3922925,-0.08636066
0.9507157,-0.2406027,-0.04583815
0.9069828,-0.1153495,-0.07144693
0.9306195,-0.1048829,-0.08884578
0.9024771,-0.1400235,-0.04915717
0.8144529,-0.1010236,-0.06366601
0.7882581,-0.04022645,-0.06891899
0.8503568,-0.02636808,-0.09534092
0.9590719,-0.0606855,-0.1292521
0.9724654,-0.1570491,-0.08330984
0.846682,-0.1869639,-0.06089225
0.687826,-0.1036842,-0.07846713
0.6559348,-0.05420827,-0.1045283
0.8181889,-0.0874817,-0.123523
0.9660236,-0.1312588,-0.1122554
0.9424647,-0.1111427,-0.09835059
0.8816302,-0.07843873,-0.0899817
0.8917454,-0.0749008,-0.09590648
0.9661791,-0.1209228,-0.09852539
1.081037,-0.2441996,-0.1069625
1.13945,-0.2907222,-0.1386169
1.128523,-0.2751587,-0.1717681
1.161601,-0.3223733,-0.2377537
1.22227,-0.3436274,-0.3315999
1.273959,-0.3174259,-0.3857701
1.346781,-0.2685234,-0.3620103
1.443942,-0.186521,-0.3083266
1.513227,-0.1060879,-0.2564234
1.310563,-0.1290238,-0.1582098
0.9809308,-0.224617,-0.06803843
1.002709,-0.2113555,-0.06585071
1.092082,-0.1947386,-0.1426507
0.9953737,-0.2282069,-0.2253038
0.9993939,-0.2235776,-0.2317492
0.9785395,-0.2492801,-0.2106392
0.8929935,-0.1824559,-0.1914994
0.8917802,-0.06383002,-0.1550666
0.8767246,-0.06278283,-0.1626675
0.9058829,-0.02114741,-0.211993
0.9439189,0.05339455,-0.2448794
0.9396506,0.04147105,-0.243164
0.9585779,0.00386095,-0.2218965
0.92864,-0.02131966,-0.1960912
0.9311462,-0.06283099,-0.1414222
0.9411986,-0.1004769,-0.06737885
0.8627834,-0.09050443,-0.01062905
0.7672414,-0.08034522,0.01390311
0.6664545,-0.04068133,-0.01700242
0.7139981,0.06581445,-0.1171323
0.9011113,0.1457498,-0.2605069
0.9926426,0.09846526,-0.3099803
0.909192,-0.07285994,-0.1763509
0.7680304,-0.1926798,-0.04078361
0.8223945,-0.2366919,-0.03814542
0.9008613,-0.2741572,-0.1105028
0.8441435,-0.288053,-0.1763917
0.8060202,-0.30324,-0.1552447
0.7107686,-0.2738408,-0.1502814
0.7954051,-0.3136907,-0.233811
1.188815,-0.4874711,-0.2299416
1.590737,-0.6227981,-0.06279098
1.811018,-0.6189517,0.173204
1.657164,-0.3867264,0.2578287
1.463795,-0.1448416,0.1577498
1.393184,-0.08555094,0.08943886
1.23998,-0.07016981,-0.01701948
1.356286,-0.136623,-0.1184508
1.436478,-0.2757263,-0.02499333
1.145183,-0.3648684,0.06437845
0.9233309,-0.30187,0.1022095
0.7475419,-0.1137397,0.1349299
0.6663932,0.01770587,0.0721828
0.7616957,0.03164391,0.03191454
0.8245283,-0.07720546,0.01322988
0.8359259,-0.148858,-0.005051669
0.7500688,-0.1363568,0.04119441
0.6627183,-0.1334539,0.04454786
0.6253223,-0.04362615,0.03566924
0.6231787,-0.006922877,0.01365118
0.6761054,-0.1094949,-0.07166402
0.6910367,-0.2441625,-0.1036294
0.774641,-0.3593218,-0.115445
0.8380317,-0.3431672,-0.1025235
0.8095722,-0.2754821,-0.01164608
0.8789559,-0.2241061,0.04060099
0.9698715,-0.2179636,-0.007520963
1.075816,-0.2808332,-0.09061781
1.2316,-0.3083552,-0.1182674
1.359661,-0.3549936,-0.1789547
1.408249,-0.3549046,-0.2877844
1.410435,-0.2831507,-0.3127629
1.526601,-0.2648881,-0.3360081
1.677718,-0.2170158,-0.3392018
1.731143,-0.1882661,-0.2811674
1.54992,-0.1752222,-0.1909884
1.172821,-0.1101193,-0.00371657
1.067421,-0.1115851,0.05466393
1.090763,-0.1298627,-0.06143737
0.9294669,-0.1225065,-0.1306778
0.8846219,-0.1272136,-0.2107698
0.9325517,-0.1265333,-0.2162488
0.8950235,-0.1491569,-0.15856
0.8683206,-0.1782524,-0.2044202
0.8747416,-0.1884078,-0.1865385
0.8864458,-0.1716927,-0.1450932
0.8953508,-0.1411983,-0.1622502
0.8779762,-0.1063929,-0.09154676
0.7963868,-0.04443948,-0.04113115
0.7254371,-0.0185678,-0.05126464
0.7559448,-0.04412909,-0.04505691
0.8398129,-0.06639537,-0.06983935
0.8906295,-0.08307699,-0.1183956
0.8362315,-0.0825838,-0.1684969
0.7439678,-0.08093699,-0.1456915
0.7315649,-0.09629897,-0.07498634
0.7970601,-0.09242016,-0.06477539
0.8817225,-0.06337328,-0.07086116
0.9046118,-0.04236129,-0.1006152
0.8634278,-0.06212602,-0.1559588
0.8667565,-0.1753766,-0.2272666
1.009127,-0.4013655,-0.2797957
1.240918,-0.5985084,-0.1582503
1.433563,-0.5801661,0.001837451
1.620222,-0.3815791,0.003163506
1.79094,-0.239909,-0.0301399
1.695761,-0.2629854,-0.02730863
1.393149,-0.2291324,-0.04589847
1.247637,-0.05949082,-0.1012363
1.300133,-0.05172156,-0.1666635
1.353502,-0.1727874,-0.1798598
1.244119,-0.2320085,-0.0835019
1.022996,-0.311742,0.05096028
0.8270037,-0.2554256,0.07255229
0.7114152,-0.08651592,0.001756286
0.7944533,-0.05567209,-0.05929322
0.8540589,-0.05513357,-0.09028361
0.7778584,-0.1022101,-0.08285834
0.7956711,-0.1598799,-0.05759501
0.7699828,-0.1137381,-0.05228136
0.8073721,-0.1163579,-0.07500042
0.9573535,-0.1222381,-0.09889392
0.9323992,-0.1038761,-0.08553848
0.8920283,-0.1081132,-0.07583022
0.8534086,-0.09032276,-0.1123082
0.7945761,-0.1159383,-0.1334566
0.8452524,-0.1748808,-0.1084573
0.8779966,-0.2744793,-0.07913174
0.8986189,-0.3959602,-0.05126323
0.8892426,-0.4066143,-0.006111025
0.8249691,-0.31395,0.03004957
0.8236595,-0.2200218,0.002600402
0.8975467,-0.1816655,-0.07742166
1.013176,-0.1352081,-0.1432355
1.058023,-0.1567161,-0.1492569
1.089555,-0.375957,-0.13241
1.190162,-0.5574761,-0.1829948
1.205708,-0.5335923,-0.245794
1.34286,-0.4393579,-0.2962047
1.759707,-0.3253626,-0.4510822
1.931964,-0.1884395,-0.5295396
1.563774,-0.16882,-0.2957092
1.042817,-0.2136916,0.01792225
0.8088155,-0.1498475,0.08770552
0.9096652,-0.1626234,-0.04991016
0.9771071,-0.215395,-0.1799176
0.8953764,-0.1717298,-0.2386767
0.9299279,-0.2086076,-0.246873
0.926138,-0.1786052,-0.2075757
0.8313894,-0.08463801,-0.1886085
0.9259014,-0.07068161,-0.2107752
1.028225,-0.02357902,-0.2474522
1.069688,-0.06046731,-0.3007029
1.111894,-0.172167,-0.2962624
1.004436,-0.3013724,-0.187433
0.8998456,-0.374995,-0.06544979
0.8587463,-0.2673051,-0.0340306
0.8434517,-0.216551,-0.0797563
0.8758493,-0.2032871,-0.09764352
0.8305085,-0.1724497,-0.08727146
0.7818751,-0.1803124,-0.0809168
0.770708,-0.02526135,-0.05634342
0.8278421,0.1022736,-0.08676299
0.9963505,0.03496511,-0.1513239
1.030065,-0.07480216,-0.1443616
0.9222973,-0.1515015,-0.089242
0.8572719,-0.06693477,-0.01346758
0.8873811,0.05375804,0.007511309
0.9523595,0.01383161,-0.04712304
0.9369927,-0.09216354,-0.05391445
0.8963143,-0.1597065,-0.009203676
0.8674604,-0.1216397,0.01575177
0.933506,-0.0275902,-0.03836817
1.080267,-0.03859591,-0.1491044
1.079351,-0.2048593,-0.2032699
1.056877,-0.4870457,-0.1858709
1.127186,-0.7074075,-0.0628343
1.287301,-0.6684456,0.1380349
1.570225,-0.4543934,0.1981351
1.610933,-0.2077738,0.09761521
1.35919,-0.08644254,0.04823029
1.213094,-0.1673705,0.07674299
1.203811,-0.1850974,0.03765422
1.205845,-0.1693772,-0.02099077
1.167133,-0.2842863,0.004784527
1.090932,-0.3339416,0.01525761
1.006114,-0.3083717,0.002220405
0.8690417,-0.2580299,0.04660302
0.7519958,-0.1784992,0.07110948
0.7962202,-0.1359138,0.0215311
0.8898181,-0.1208208,-0.02173288
0.8420843,-0.1646936,-0.003446056
0.8163196,-0.1911729,0.0133513
0.8719725,-0.1660518,-0.000356602
0.8317996,-0.1598028,0.01070633
0.8329598,-0.1190024,0.0232839
0.8458106,-0.07751669,0.02295336
0.7932815,-0.06391032,0.0257853
0.8420941,-0.07878073,0.001254131
0.8486599,-0.1254287,-0.01493587
0.7783045,-0.1491788,-0.005645147
0.7154044,-0.1822561,-0.001751107
0.6619312,-0.2005071,0.008358745
0.7422419,-0.197208,0.01106507
0.8423924,-0.2127716,-0.005465732
0.8732336,-0.2107371,-0.02147683
0.8710103,-0.2277535,-0.01076492
0.8641862,-0.2573708,-0.005757772
1.007842,-0.2810439,-0.07828413
1.239757,-0.3471439,-0.1805043
1.376553,-0.3973095,-0.2431945
1.356749,-0.3712444,-0.3011723
1.316725,-0.2827576,-0.3678548
1.435718,-0.1474482,-0.3603008
1.641377,-0.06655825,-0.2880208
1.776911,-0.1560047,-0.2370609
1.524009,-0.2322757,-0.1268486
1.020477,-0.1325434,-0.007294893
0.9001302,-0.08666689,-0.03819059
0.9608394,-0.1504703,-0.1183821
0.9012999,-0.1839706,-0.2006459
0.9192507,-0.2134888,-0.283233
0.9144998,-0.2084757,-0.2702698
0.8667447,-0.1704785,-0.2248824
0.8504252,-0.1410275,-0.2020276
0.8535798,-0.09435615,-0.1813914
0.8980385,-0.08598397,-0.1844812
0.9007939,-0.1062907,-0.1786443
0.904532,-0.1041709,-0.1573198
0.915188,-0.1077335,-0.1505995
0.8822697,-0.1082541,-0.1298077
0.8478426,-0.1045539,-0.1046874
0.7743181,-0.1063648,-0.1002798
0.7048927,-0.1012546,-0.1053864
0.6708796,-0.1003193,-0.1195512
0.6970501,-0.09327782,-0.1208805
0.8307754,-0.0552361,-0.1442049
0.9181155,-0.03523384,-0.218026
0.8745016,-0.1273456,-0.2389318
0.8188314,-0.263018,-0.1743404
0.8427294,-0.2729657,-0.1252713
0.8582552,-0.2279235,-0.1660187
0.8784438,-0.2505159,-0.2304717
1.102113,-0.2869348,-0.2326207
1.443163,-0.3676076,-0.1991339
1.710394,-0.5128406,-0.1025851
1.761383,-0.5800263,0.06799221
1.505057,-0.4786355,0.165995
1.260453,-0.2413395,0.07101938
1.298111,-0.01581493,-0.08694274
1.366558,0.03302303,-0.112037
1.294421,-0.09460791,-0.1017524
1.269751,-0.2513612,-0.07593638
1.200062,-0.3203233,0.04214772
0.9591242,-0.2759534,0.101227
0.8237128,-0.1580263,0.1084807
0.8181095,-0.06224122,0.0687243
0.8153655,-0.004901799,-0.02640738
0.801365,-0.02076749,-0.02913892
0.7751777,-0.1118311,-0.05062221
0.7992985,-0.1289258,-0.06430296
0.7741137,-0.1116406,0.05005742
0.6995333,-0.08538763,0.1085953
0.6500292,-0.02661561,0.1002396
0.6438966,-0.0167291,0.07391697
0.7154618,0.001718419,-0.007784515
0.7629168,-0.08241725,-0.08197727
0.8244979,-0.2573738,-0.07159645
0.8183868,-0.2656266,0.02064366
0.7381453,-0.2257549,0.06694953
0.8369963,-0.2268086,0.06358351
0.9447966,-0.1999506,0.03169663
1.005558,-0.2034586,-0.04312242
1.078535,-0.2465055,-0.04991753
1.137514,-0.3297022,-0.06322961
1.290204,-0.4145152,-0.1165972
1.264345,-0.3800073,-0.1484531
1.169772,-0.225978,-0.2058964
1.345264,-0.1009757,-0.212216
1.553153,-0.1081224,-0.2187094
1.702467,-0.2333985,-0.2307789
1.543556,-0.3173744,-0.09275301
1.153233,-0.2362925,0.07728076
1.090199,-0.1488142,0.122218
1.045321,-0.1338777,0.01150986
0.9319713,-0.1213453,-0.1278725
0.9821383,-0.1673053,-0.161881
0.9133816,-0.2611725,-0.168895
0.8672578,-0.3009096,-0.1551624
0.8715025,-0.2641837,-0.1409749
0.809626,-0.2030534,-0.1600693
0.8571601,-0.1412558,-0.1468542
0.8553237,-0.08118723,-0.1262183
0.8345459,-0.06394293,-0.09022996
0.8330478,-0.08577322,-0.03965587
0.7109238,-0.1260304,0.01356996
0.676658,-0.148542,0.08059222
0.7714143,-0.1132373,0.06537414
0.8671072,-0.0671304,-0.002300201
0.8682793,-0.04037513,-0.05731758
0.7914842,-0.02467716,-0.1042153
0.8010741,-0.02881477,-0.08354689
0.8685701,-0.07676147,-0.0684875
0.9517698,-0.1683188,-0.09224889
0.9633127,-0.2146094,-0.08915988
0.9144694,-0.2093628,-0.1317519
0.9756138,-0.2998358,-0.181495
1.085388,-0.4953095,-0.1350708
1.303766,-0.5813119,-0.01944751
1.59192,-0.4518455,0.116016
1.713527,-0.2804576,0.1512032
1.692015,-0.2023944,0.08865731
1.503497,-0.145375,0.07305343
1.269605,-0.0842613,0.0247333
1.214151,-0.0945225,-0.09304474
1.214541,-0.186117,-0.1052918
1.121732,-0.2990346,-0.01795292
0.9426372,-0.3351746,0.06117024
0.7938849,-0.2299357,0.09666686
0.7269334,-0.09074704,0.07611428
0.7278038,-0.0510572,0.05287117
0.781884,-0.05283084,0.00292049
0.7797894,-0.03525273,-0.07641049
0.737565,-0.07434079,-0.04127474
0.6894145,-0.1363112,0.03048364
0.6594677,-0.09828956,0.01439204
0.7001345,-0.03689978,0.01157273
0.7478476,-0.0543521,-0.001365821
0.8275699,-0.1248169,-0.03982798
0.8568636,-0.2473808,-0.01101497
0.7816495,-0.3092791,0.004613279
0.7861025,-0.2513672,-0.02412243
0.8564295,-0.2353778,-0.059514
0.9470614,-0.2553548,-0.137458
1.049636,-0.3193477,-0.2014497
1.153017,-0.4953403,-0.2215761
1.266456,-0.5596897,-0.2328389
1.233249,-0.3965488,-0.2228486
1.227715,-0.1479698,-0.2252126
1.494164,-0.02340367,-0.2729311
1.679121,-0.1873852,-0.3127036
1.522411,-0.3435854,-0.2792986
1.275284,-0.1983824,-0.1571971
1.178484,-0.07339807,-0.02790613
1.122616,-0.1161316,-0.03439707
1.023671,-0.1404946,-0.1455297
0.983497,-0.1932712,-0.2185888
0.9678002,-0.2117589,-0.2570917
0.9559778,-0.1612895,-0.2594819
0.9002875,-0.165933,-0.2345753
0.8130705,-0.1343721,-0.2492353
0.8515271,-0.1373309,-0.2552034
0.8921337,-0.2084352,-0.2530258
0.8966075,-0.2040874,-0.2448072
0.9336113,-0.2100821,-0.1959194
0.8812137,-0.1827537,-0.1740591
0.7928617,-0.1202463,-0.1517645
0.7472901,-0.1458407,-0.1259182
0.7588998,-0.1605855,-0.1352576
0.8286213,-0.1613563,-0.1211078
0.882663,-0.162298,-0.1378374
0.7717955,0.001662179,-0.03408769
0.815611,-0.05024529,-0.06228279
0.7861928,-0.1691204,-0.05413949
0.7503436,-0.2340504,-0.03644752
0.715802,-0.2118651,-0.04072202
0.7999789,-0.1990731,-0.05170362
0.9620137,-0.1931548,-0.06403891
1.012635,-0.1768215,-0.03970116
1.043693,-0.2142013,-0.007722281
1.102018,-0.2686885,-0.04730814
1.19886,-0.3042079,-0.1039139
1.333309,-0.3128308,-0.1795167
1.352401,-0.2899771,-0.295682
1.348505,-0.2826175,-0.3312418
1.44332,-0.2456327,-0.307617
1.509544,-0.2209104,-0.3141382
1.491551,-0.2790769,-0.2462966
1.367131,-0.2967889,-0.1012865
1.129335,-0.2242329,-0.05469739
0.9820965,-0.1558435,-0.1041878
1.024965,-0.1754697,-0.1589763
1.03756,-0.2097237,-0.2331039
0.9547101,-0.1851756,-0.2709785
0.9080359,-0.1813083,-0.2254015
0.8540497,-0.1706683,-0.1970555
0.8037394,-0.15163,-0.2016747
0.8211719,-0.1593321,-0.1835721
0.8338181,-0.1307716,-0.1818219
0.859703,-0.1246014,-0.1793489
0.8529261,-0.1357745,-0.1537727
0.7752377,-0.1186195,-0.1486304
0.745208,-0.1265836,-0.1193357
0.7251634,-0.112982,-0.0617157
0.7258781,-0.08977384,-0.04249649
0.7740114,-0.08906372,-0.06281872
0.8010886,-0.06982702,-0.09985928
0.859871,-0.06858031,-0.1380855
0.9200806,-0.09881163,-0.1595934
0.9445792,-0.1507728,-0.118739
0.9047429,-0.2108183,-0.05793308
0.8113903,-0.2569031,-0.06990157
0.8482805,-0.2983818,-0.1209838
1.035992,-0.3247212,-0.1839139
1.297613,-0.3518046,-0.2070918
1.469899,-0.3711379,-0.1281415
1.52505,-0.367905,-0.03804902
1.674379,-0.3915243,-0.01269346
1.674348,-0.4094105,-0.04680922
1.409811,-0.3731494,-0.07585251
1.167822,-0.3020411,-0.06499809
1.023908,-0.2312993,-0.1054598
1.085773,-0.2297691,-0.1559517
1.133527,-0.2573188,-0.1090042
0.9632643,-0.2226921,-0.03753404
0.8648311,-0.1505052,-0.01244909
0.7924734,-0.04623951,-0.02071234
0.7539694,0.02642708,-0.03128736
0.7971807,0.006044929,-0.02226373
0.7342653,0.004027428,-0.01933536
0.7397813,0.0001643722,-0.01778545
0.7639137,-0.04171458,-0.003596564
0.6939877,-0.03134495,-0.006705293
0.6853141,-0.02793118,-0.008497856
0.6608505,-0.05672428,-0.0138368
0.689443,-0.1225248,-0.07460493
0.8035579,-0.2626881,-0.1415891
0.8867885,-0.3177647,-0.1390367
0.9368605,-0.2670636,-0.08697633
0.9383505,-0.2612406,-0.03974797
0.9604378,-0.2551842,-0.0194999
0.9590154,-0.1975051,-0.0635445
1.020284,-0.1736898,-0.1822774
1.261909,-0.2472444,-0.2779798
1.395504,-0.3668391,-0.2941719
1.350251,-0.3829171,-0.2792481
1.318946,-0.2644217,-0.286638
1.37709,-0.1868829,-0.3084837
1.397492,-0.239814,-0.3072629
1.285856,-0.2743046,-0.2688096
1.155128,-0.1888925,-0.1632793
1.01724,-0.1248889,-0.08263966
0.9992772,-0.1508062,-0.1252255
1.042864,-0.1571374,-0.1744212
0.92842,-0.1539837,-0.1967947
0.8444364,-0.1678609,-0.2233748
0.7945588,-0.159921,-0.2102476
0.7493739,-0.1507169,-0.2061448
0.790567,-0.1361639,-0.2088753
0.8464248,-0.1134561,-0.1524782
0.9432396,-0.0907318,-0.09513061
0.9362641,-0.05578816,-0.09266371
0.8378858,-0.01451463,-0.1045631
0.8004764,0.01477169,-0.09828355
0.7423675,-0.003784254,-0.09803596
0.7556223,-0.03455691,-0.1183215
0.7776084,-0.03519541,-0.140388
0.7341759,-0.05596446,-0.1607124
0.7908727,-0.1074768,-0.1496173
0.8531539,-0.1830054,-0.1058694
0.881273,-0.270893,-0.1037926
0.9040215,-0.3084124,-0.1487374
0.8553625,-0.3116925,-0.2225796
0.8404191,-0.3373321,-0.260901
0.9614106,-0.3646417,-0.1345302
1.264675,-0.3646011,0.05821786
1.562913,-0.3656568,0.1117236
1.605143,-0.4138449,0.04010745
1.578097,-0.4508467,0.0007083065
1.399592,-0.3566288,0.02530946
1.039065,-0.1597094,-0.02326911
1.13422,-0.03113848,-0.1388366
1.377639,-0.05530532,-0.1872545
1.209681,-0.1266882,-0.142449
1.030129,-0.2300018,-0.0232944
0.7682061,-0.385619,0.1007087
0.6340562,-0.3519849,0.1253778
0.8184722,-0.1719263,0.07045951
0.6949642,-0.09033584,0.02222132
0.6669237,-0.01693032,-0.02319738
0.7902603,-0.03651008,-0.04303568
0.660288,-0.1376754,-0.01480822
0.7328017,-0.1304996,-0.02849325
0.7717447,-0.1625304,-0.03425986
0.760137,-0.1639626,-0.02519701
0.8793756,-0.1457136,-0.06316953
0.822791,-0.2497941,-0.01986724
0.8607976,-0.2719348,0.02933634
0.8925373,-0.2560878,0.003870896
0.8513187,-0.2525631,-0.002923431
0.9392488,-0.2226798,-0.02009418
0.9016881,-0.205996,0.01200421
0.8613407,-0.1392081,0.04595761
0.8799246,-0.1584965,-0.04344505
0.9548841,-0.2503847,-0.173903
1.195197,-0.3584116,-0.3319223
1.344185,-0.4857066,-0.4625554
1.45439,-0.4293883,-0.4350432
1.655222,-0.3527953,-0.3497924
1.721039,-0.3344831,-0.3077808
1.513522,-0.1866957,-0.2082254
1.243749,-0.0306552,-0.1183242
1.197654,0.03240939,-0.1247212
1.183325,-0.05484149,-0.1091601
1.052956,-0.2000438,-0.1440464
0.9699429,-0.2043253,-0.2069495
0.8954877,-0.1608256,-0.1886702
0.830402,-0.1345673,-0.1979312
0.8465864,-0.1434313,-0.1933172
0.8766603,-0.1779819,-0.1828538
0.9033705,-0.1506563,-0.1952817
0.9397232,-0.1425495,-0.1683645
0.9443398,-0.1458779,-0.1663084
0.9192025,-0.1462775,-0.1481498
0.8930666,-0.2102724,-0.1299545
0.8489862,-0.2439068,-0.1392897
0.8332095,-0.256398,-0.1093353
0.8727209,-0.2605783,-0.09760773
0.8752081,-0.2052247,-0.08361781
0.825655,-0.127287,-0.05910698
0.7924243,-0.04623682,-0.05830676
0.8433762,-0.05140198,-0.06258035
0.9389428,-0.07989257,-0.08596401
0.9558432,-0.01428479,-0.0893906
0.9336316,0.02650885,-0.0940015
0.9423718,0.03236554,-0.1079074
0.9757283,0.02004914,-0.09095008
1.020391,-0.02232978,-0.08889001
1.031759,-0.04312164,-0.07411073
1.049431,-0.1030104,-0.05909035
1.085021,-0.1744115,-0.1056212
1.076293,-0.2363339,-0.1593341
1.078711,-0.3453174,-0.1629595
1.145603,-0.4026348,-0.0787191
1.275719,-0.4070911,0.01171312
1.426912,-0.4139947,0.001348283
1.456265,-0.3731876,0.009967079
1.327215,-0.2639848,0.08909062
1.198546,-0.05171474,0.09174371
1.186332,0.183133,-0.0416687
1.21599,0.2589231,-0.1776291
1.172916,0.1034149,-0.1364733
1.057981,-0.1385773,-0.05195104
0.9248997,-0.1958332,-0.09903577
0.8564066,-0.1774215,-0.1301299
0.8695093,-0.2389876,-0.1687924
0.8955379,-0.2110774,-0.232112
0.952723,-0.1859685,-0.2028691
0.9906573,-0.2135159,-0.2187591
0.9624084,-0.1882344,-0.2412361
0.9653998,-0.2207072,-0.2229023
0.9648857,-0.2784456,-0.2336678
0.9599507,-0.3324434,-0.1663704
0.9929253,-0.3685933,-0.12951
1.001907,-0.3072142,-0.1469674
1.015042,-0.2684374,-0.1143902
0.98076,-0.2541942,-0.105766
0.8971857,-0.2341282,-0.09294999
0.8622226,-0.2502024,-0.09392803
0.8067183,-0.2344753,-0.1055364
0.7949318,-0.2114167,-0.09329005
0.8446189,-0.1748439,-0.11109
0.8182186,-0.1153768,-0.107283
0.8184751,-0.1213036,-0.08175176
0.8556088,-0.146098,-0.06659843
0.8437329,-0.1609936,-0.08295211
0.8401269,-0.2172162,-0.1234582
0.8120044,-0.2504736,-0.1182295
0.7923914,-0.2166456,-0.1212973
0.8161095,-0.1728617,-0.1118722
0.8280514,-0.1250029,-0.05650012
0.908799,-0.1031952,-0.04871879
0.994548,-0.1257899,-0.05447885
0.9697012,-0.09173764,-0.04987584
0.961778,-0.0361281,-0.0674195
1.011774,-0.04559653,-0.09637844
1.065672,-0.1218902,-0.1627025
1.18409,-0.3034679,-0.2510067
1.273391,-0.4908596,-0.3228741
1.135711,-0.5397064,-0.3657045
1.002636,-0.4686593,-0.3616669
1.177219,-0.3487684,-0.3473429
1.538686,-0.1963128,-0.353589
1.776888,-0.04286074,-0.3098388
1.510425,-0.04638972,-0.1450649
1.034029,-0.1505709,0.04754174
0.9661336,-0.1567862,0.06351378
0.9165099,-0.120023,-0.08336876
0.7860517,-0.05423024,-0.1703787
0.9097343,-0.0006312745,-0.1738632
0.9105597,-0.05828898,-0.1882242
0.8899186,-0.132588,-0.2052991
0.9577947,-0.186684,-0.1903205
0.8481774,-0.1633975,-0.09575078
0.8457116,-0.0454853,-0.01124209
0.8761204,0.03023599,-0.04461629
0.8573535,0.09117122,-0.09926656
0.9309827,0.1341051,-0.1340622
0.8942778,0.04478283,-0.160672
0.8465408,-0.1150431,-0.1286026
0.7964168,-0.152265,-0.08470262
0.7313155,-0.07861175,-0.08677437
0.7599503,-0.0663966,-0.07054904
0.7147725,-0.0472169,-0.04016833
0.7218946,0.0005691415,-0.07104676
0.8428179,-0.01653437,-0.1274412
0.9261071,-0.05907513,-0.178192
0.9476353,-0.1572407,-0.1855675
0.8944221,-0.2474235,-0.1469756
0.9090186,-0.2733984,-0.1633768
0.953355,-0.354419,-0.2004513
0.9695834,-0.492189,-0.1918264
1.148282,-0.5426825,-0.08310586
1.570052,-0.3399964,0.0698717
1.92752,-0.1056683,0.05125047
1.659231,-0.1340789,0.01447518
1.221444,-0.1653654,0.0536564
1.291354,-0.1280793,-0.04874751
1.326018,-0.229218,-0.1086462
1.217021,-0.3066634,0.003333705
1.124087,-0.2729502,0.1062512
0.8169603,-0.2281807,0.1453217
0.6597356,-0.1168567,0.09385828
0.6577776,0.005894605,0.03835498
0.6572698,0.01753485,0.01381605
0.7882773,-0.0008150777,-0.03538486
0.7664281,-0.01549926,-0.01768428
0.7514478,-0.07298541,0.01094794
0.8202402,-0.08229623,-0.0008670728
0.699744,-0.05367507,0.002688394
0.6194358,-0.08869212,-0.03647492
0.5793075,-0.1211764,-0.07418661
0.6228182,-0.1967581,-0.05182065
0.8890354,-0.3518319,-0.02058066
1.051491,-0.3787026,5.330218e-06
0.9880289,-0.2754586,0.009844901
0.846137,-0.1703378,0.03493128
0.8099387,-0.09956596,0.04971858
0.8778558,-0.1550306,-0.04019895
1.017457,-0.3222141,-0.1953632
1.294435,-0.4987804,-0.2919591
1.397809,-0.5430673,-0.341999
1.380131,-0.3130822,-0.3550653
1.547332,-0.08980832,-0.2733275
1.603514,-0.1459412,-0.1608056
1.391222,-0.1674645,-0.06074506
1.208587,-0.07520705,0.008960452
1.254835,-0.1059901,-0.06171502
1.261634,-0.1379712,-0.2022213
1.08274,-0.1622371,-0.2479056
0.9672574,-0.2432636,-0.2220449
0.8572544,-0.2542122,-0.1779783
0.7839789,-0.2664772,-0.1284667
0.8292601,-0.2598626,-0.1136934
0.8031967,-0.1741321,-0.1367158
0.7820205,-0.1236064,-0.1542584
0.7801138,-0.08658659,-0.1415552
0.7605678,-0.05551541,-0.1092551
0.7925193,-0.02066341,-0.07922069
0.7801453,0.004446265,-0.08218234
0.7745881,-0.04519184,-0.09701889
0.7860314,-0.06789584,-0.07615187
0.7600566,-0.07948458,-0.06894798
0.7727597,-0.08149085,-0.08459752
0.7598939,-0.03603829,-0.08742235
0.7188406,-0.07407367,-0.1036068
0.7039839,-0.1357549,-0.1102778
0.7261835,-0.2115279,-0.1370235
0.8016453,-0.3446486,-0.2034368
0.9093458,-0.4183281,-0.1806665
1.206663,-0.4654151,-0.03883708
1.630004,-0.4363028,0.07780811
1.832839,-0.3621076,0.03478966
1.837505,-0.4219476,-0.02500964
1.742244,-0.4884471,0.05840987
1.52096,-0.4623237,0.08092533
1.290407,-0.2568537,-0.0005441715
1.17496,0.05323306,-0.05350039
1.20985,0.01406817,-0.08851701
1.219763,-0.2136812,-0.01669147
1.06408,-0.2379232,0.07847722
0.9178871,-0.2091504,0.0433093
0.8357166,-0.1336261,-0.01653017
0.8194113,-0.0599815,-0.06796755
0.8664948,-0.09511361,-0.0750278
0.7993395,-0.1042761,-0.03241162
0.7414516,-0.1542428,-0.03274318
0.7663198,-0.200337,-0.01682362
0.7314501,-0.1500264,0.004873232
0.7198156,-0.09444148,-0.02128231
0.6926024,-0.005727805,-0.05893588
0.6687929,-0.0007422276,-0.1081658
0.7286273,-0.1329249,-0.1144459
0.7688288,-0.2788957,-0.07836666
0.8172413,-0.3960145,-0.06524217
0.8236367,-0.3958316,-0.04610149
0.7885967,-0.3222958,-0.02842535
0.8170013,-0.2797651,-0.04745274
0.9154272,-0.318847,-0.1089281
1.22136,-0.4958927,-0.1969964
1.55055,-0.6814847,-0.2538694
1.549324,-0.6799535,-0.3141865
1.470757,-0.4731216,-0.3873567
1.572368,-0.2471387,-0.373478
1.604305,-0.1264078,-0.2845827
1.446156,-0.07816422,-0.1367247
1.228675,-0.07608291,-0.002825829
1.025006,-0.06487608,-0.0412795
0.9572805,-0.06236519,-0.1509233
0.9746823,-0.09023729,-0.2384665
0.9431558,-0.1043713,-0.3120131
0.9480908,-0.1182728,-0.2972637
0.9460398,-0.1193289,-0.2887434
0.9094021,-0.131105,-0.3085086
0.9115367,-0.1492114,-0.2808892
0.9093793,-0.1423934,-0.2790743
0.9212847,-0.1617381,-0.2688989
0.9492872,-0.2047905,-0.2295654
0.9724369,-0.2535979,-0.2036882
0.9602037,-0.2474118,-0.1893371
0.8711778,-0.1955429,-0.2096699
0.7996546,-0.186957,-0.2098021
0.8045407,-0.1711666,-0.2052427
0.8682494,-0.1760078,-0.2258651
0.9233291,-0.2148777,-0.2272275
0.9158917,-0.220035,-0.2449917
0.9000989,-0.2263911,-0.2227795
0.8790845,-0.2203774,-0.1580523
0.8641858,-0.2075301,-0.141182
0.8628257,-0.1674911,-0.1199414
0.8308104,-0.08344252,-0.09244424
0.8065477,-0.07403065,-0.0886918
0.8281598,-0.08563794,-0.08645211
0.8954127,-0.0418379,-0.08923965
0.9869626,-0.005692931,-0.1129288
1.044998,0.03156297,-0.1618889
1.021371,0.0616553,-0.1662392
0.9608385,0.07782227,-0.1078333
0.946204,0.06042828,-0.07837003
0.9810718,-0.1117597,-0.141499
1.08423,-0.4270824,-0.2143723
1.180412,-0.6698756,-0.1474535
1.192368,-0.703418,0.00534011
1.263415,-0.5706026,0.1146044
1.436794,-0.3468639,0.1009187
1.608794,-0.1597909,-0.00996962
1.604487,-0.1028146,-0.02589415
1.31883,-0.1051767,0.03155784
1.033992,-0.1117705,0.04664861
0.9945589,-0.1204084,0.01078742
1.066149,-0.1382521,-0.06345867
1.049665,-0.1793237,-0.04877258
0.9500458,-0.2348498,-0.02454331
0.8810233,-0.2988311,-0.04866399
0.862354,-0.3152508,0.01260825
0.9206747,-0.262946,0.04991785
0.969322,-0.1827075,0.04571384
0.9057981,-0.09388073,0.03720578
0.8704932,-0.0581692,-0.001286185
0.8704524,-0.06900598,0.02336795
0.854316,-0.062297,0.03741098
0.860421,-0.06033015,0.02485084
0.8315544,-0.06244985,0.04308159
0.7691733,-0.05098033,0.03929281
0.7182813,-0.0466883,0.04345727
0.7049892,-0.04958703,0.02233117
0.6800316,-0.05554253,-0.02851452
0.6311326,-0.0692568,-0.03913084
0.6885785,-0.1222039,-0.03865897
0.8276522,-0.2373035,-0.04859863
0.9434086,-0.3125992,-0.06770915
0.9445236,-0.2708676,-0.07676401
0.8893238,-0.2257136,-0.07590339
0.9383225,-0.2374994,-0.05993824
0.955772,-0.2626707,-0.03976291
1.021011,-0.3114746,-0.1600692
1.281356,-0.3277208,-0.4040464
1.520331,-0.302932,-0.5276989
1.759668,-0.3054854,-0.439121
1.868006,-0.2793956,-0.2772077
1.650484,-0.2521779,-0.1607087
1.417028,-0.2316523,-0.08082381
1.269714,-0.1332043,-0.0262398
1.146464,-0.06326471,0.01507295
1.022306,-0.05403829,-0.007243701
0.8523981,-0.04211265,-0.09007191
0.8389743,-0.0566982,-0.1285992
0.9012507,-0.07528368,-0.2005075
0.8428967,-0.09060315,-0.2414754
0.8371958,-0.110056,-0.1858928
0.8586789,-0.1322686,-0.203507
0.8446649,-0.1612586,-0.1875961
0.9054538,-0.1622375,-0.1338705
0.9362137,-0.1261557,-0.1414208
0.9066757,-0.06641961,-0.1023225
0.8701427,-0.04716321,-0.08221378
0.7713656,-0.08587166,-0.07310568
0.6876886,-0.09495837,-0.04780387
0.6818691,-0.05512962,-0.07793557
0.751473,0.009445374,-0.1193535
0.8631879,0.04289458,-0.1910143
0.8898159,-0.01936002,-0.2243835
0.8401215,-0.1464696,-0.1841487
0.7728074,-0.270183,-0.1725029
0.7073958,-0.3188741,-0.1558201
0.7239108,-0.3122613,-0.1608911
0.8090807,-0.3615716,-0.2049331
0.978888,-0.4463921,-0.173916
1.417462,-0.4701005,-0.03148522
1.935143,-0.4099036,0.1054835
1.953056,-0.2984385,0.05206688
1.561686,-0.2311973,-0.03847893
1.337925,-0.2231652,0.01534151
1.317535,-0.1979615,-0.04057477
1.334765,-0.1972979,-0.1243344
1.290764,-0.2662019,0.02345039
1.079228,-0.3154047,0.1616072
0.8065742,-0.2184792,0.1672061
0.6099816,0.0005153294,0.1036434
0.61026,0.1695891,-0.01011353
0.7221722,0.1969343,-0.06913724
0.7593411,0.04469887,-0.06879782
0.7715205,-0.1634062,-0.02064044
0.6945669,-0.2000749,0.03064062
0.5997045,-0.1652124,0.01805873
0.6289536,-0.210798,-0.01952265
0.6668596,-0.2684915,-0.06337138
0.7293418,-0.294222,-0.05833358
0.7636374,-0.3026696,-0.04036892
0.7556318,-0.2981369,-0.06849455
0.7938665,-0.2695632,-0.07133984
0.7883444,-0.250037,-0.08069297
0.824481,-0.2703306,-0.1387419
0.997888,-0.3181899,-0.2650716
1.181424,-0.3658899,-0.3864959
1.361712,-0.3563426,-0.3401891
1.724486,-0.3436794,-0.2733592
1.998304,-0.3585049,-0.2737211
1.693819,-0.2689148,-0.1664149
1.355228,-0.08016059,-0.07490166
1.378472,0.006870292,-0.1471933
1.305125,-0.1404124,-0.202148
1.19228,-0.3288044,-0.1532437
1.036584,-0.3174798,-0.1134519
0.7942161,-0.2375637,-0.117018
0.8061011,-0.168703,-0.1369509
0.8324965,-0.07446686,-0.1804714
0.7784174,-0.09220916,-0.1832404
0.8177354,-0.1403054,-0.1321422
0.7718005,-0.1036484,-0.1022735
0.7532495,-0.07151347,-0.08154531
0.819551,-0.01625337,-0.1088098
0.8436597,0.0007896831,-0.1469198
0.8452596,-0.03762544,-0.09645212
0.7732958,-0.002934576,-0.06643342
0.6988737,0.02345326,-0.08341981
0.688958,0.01202843,-0.1163955
0.7351206,-0.05393561,-0.1881035
0.822547,-0.2199055,-0.2236668
0.8452813,-0.3358143,-0.2370935
0.8331828,-0.3964273,-0.2636194
0.8877355,-0.4152583,-0.2251987
1.152676,-0.3927646,-0.0972078
1.573671,-0.4385961,0.01631893
1.776124,-0.4122235,0.007170373
1.755228,-0.3374667,-0.07559849
1.654159,-0.3644025,-0.1167663
1.411213,-0.3336486,-0.08964745
1.232292,-0.2477048,-0.07222769
1.209447,-0.2060396,-0.1108126
1.127239,-0.2750561,-0.1160857
0.9944873,-0.3991933,-0.02951936
0.8456439,-0.3222201,0.06940422
0.7100344,-0.1808222,0.0775327
0.6955307,-0.08487029,0.0269184
0.6863102,0.0387789,0.0007882636
0.6586829,0.02052749,-0.02104013
0.6983161,-0.02599486,-0.02168658
0.7609839,-0.07077605,0.006855646
0.8377932,-0.2032131,0.004093602
0.8269037,-0.1836906,0.002364568
0.7271434,-0.1395394,-0.008593081
0.6762537,-0.1928893,-0.05032123
0.6730103,-0.1811765,-0.059921
0.8019128,-0.2345553,-0.07350241
1.012501,-0.3505274,-0.09947354
1.051494,-0.3662027,-0.09165987
0.941357,-0.3062396,-0.08843994
0.8856964,-0.2594227,-0.1161783
1.015588,-0.2933863,-0.2065737
1.288462,-0.3379893,-0.3704947
1.533849,-0.350173,-0.4619366
1.653797,-0.3758738,-0.3641116
1.730659,-0.4030495,-0.2679639
1.766757,-0.4114571,-0.294702
1.465162,-0.2904176,-0.2318058
1.028454,-0.06289766,-0.08895852
0.9821649,0.001911335,-0.05617948
1.037011,-0.09188305,-0.1214763
0.9425843,-0.1431504,-0.1967889
0.9208896,-0.163456,-0.1980948
0.8699852,-0.1884652,-0.1928564
0.8066715,-0.1569513,-0.2259188
0.8806529,-0.1080353,-0.2089855
0.9540364,-0.1158056,-0.2048238
0.9812812,-0.1168399,-0.1950146
0.9517816,-0.08243131,-0.1328072
0.8610347,-0.06147765,-0.1056316
0.8559853,-0.05716478,-0.08309289
0.9095938,-0.09657517,-0.07115948
0.9166275,-0.1451396,-0.09228497
0.8520997,-0.1360198,-0.09992722
0.7237158,-0.1117421,-0.1050926
0.6931101,-0.08452287,-0.09002346
0.7902053,-0.05750313,-0.07984404
0.8915973,-0.08069125,-0.1097083
0.9477614,-0.1281922,-0.1258612
0.9070751,-0.1348115,-0.09956187
0.8834527,-0.08260768,-0.07243976
0.9617453,-0.02017597,-0.1017491
1.006885,-0.02243686,-0.1414295
1.002417,-0.06608726,-0.1552225
1.015069,-0.1199193,-0.1877879
1.046101,-0.2370136,-0.2183526
1.091295,-0.3883078,-0.1760189
1.251236,-0.5782179,0.02025349
1.517577,-0.7060408,0.203279
1.578796,-0.428462,0.07612836
1.443755,-0.00956431,-0.1021605
1.370096,0.02333801,-0.04106003
1.293808,-0.06337049,-0.02488804
1.256145,-0.08732554,-0.06269158
1.27665,-0.2164765,0.01503084
1.162678,-0.2404168,0.02478446
0.9889375,-0.1392887,0.005035458
0.8417484,-0.1196082,0.01701099
0.8220724,-0.1196599,-0.02302164
0.8283553,-0.1288501,-0.1479998
0.8455509,-0.2682764,-0.1204245
0.8649725,-0.3961969,-0.07047762
0.9370679,-0.4667461,-0.04743272
0.9473768,-0.4904943,0.03286
0.9761365,-0.4810483,0.06582902
0.9945683,-0.3880707,-0.03665646
1.091007,-0.3461403,-0.1670847
1.200778,-0.3478738,-0.3049194
1.235157,-0.2797751,-0.3903752
1.363685,-0.2162571,-0.3831478
1.486456,-0.1803096,-0.3627736
1.431851,-0.1942214,-0.2908614
1.30687,-0.1944229,-0.1762806
1.17761,-0.1198361,-0.1896262
1.02944,-0.1139031,-0.2562438
1.019011,-0.2349152,-0.2249496
1.033779,-0.3620809,-0.2238488
0.8754396,-0.295443,-0.2297815
0.8016229,-0.1506798,-0.1933283
0.7807797,-0.1347673,-0.2289963
0.7396028,-0.1002624,-0.2366017
0.8180167,-0.08922019,-0.2100638
0.8260603,-0.1139453,-0.2096969
0.8045547,-0.07021823,-0.1816924
0.8169156,-0.09551531,-0.1849537
0.7788527,-0.1039796,-0.1826244
0.7835672,-0.08000338,-0.1680293
0.7455763,-0.1096607,-0.1782146
0.7100728,-0.09069521,-0.1543819
0.7906776,-0.1122549,-0.1487683
0.8931313,-0.1547471,-0.1576779
0.9519196,-0.1520074,-0.1758529
0.9400985,-0.1811117,-0.226462
0.9485439,-0.2012663,-0.2245808
0.9227184,-0.2555682,-0.2075594
0.7840339,-0.3442631,-0.2130872
0.7141039,-0.3812779,-0.1991735
0.7753053,-0.4080884,-0.1820739
0.9218848,-0.5040248,-0.1188938
1.123782,-0.5889915,-0.03238829
1.460751,-0.4589173,-0.0374161
1.897443,-0.2745076,-0.05628174
1.918689,-0.2651799,-0.01862174
1.458548,-0.3150835,-0.009334008
1.158067,-0.3350865,-0.01266036
1.166584,-0.2660814,-0.07775924
1.208433,-0.1901112,-0.1760019
1.165575,-0.2337922,-0.05317187
0.9749725,-0.2314216,0.1142722
0.7471309,-0.110098,0.08324793
0.6426562,0.04046155,0.0425568
0.664509,0.1330095,0.004505897
0.7094647,0.1011679,-0.06275936
0.7264787,0.01378281,-0.05516444
0.7643022,-0.1163085,-0.02886942
0.7283914,-0.2323462,-0.008648914
0.6949542,-0.205711,0.0003180308
0.8032473,-0.2059233,-0.05554888
0.9259196,-0.3182279,-0.108973
1.009193,-0.3798132,-0.09152412
0.9509452,-0.4147486,-0.07578938
0.8231541,-0.4363233,-0.111992
0.8142898,-0.4188588,-0.1654317
0.8529424,-0.4260798,-0.2827652
0.9716745,-0.4205359,-0.4327382
1.198332,-0.4266375,-0.4740755
1.564353,-0.4957978,-0.4316034
1.823802,-0.5157093,-0.3447795
1.600733,-0.3180009,-0.2274141
1.359387,0.02484847,-0.200996
1.333922,0.1163352,-0.2743392
1.214498,-0.07345555,-0.3124888
1.1132,-0.2279903,-0.2845442
0.9737568,-0.300055,-0.2494141
0.7748345,-0.2767574,-0.1973373
0.7080647,-0.194517,-0.1550535
0.6826166,-0.1590425,-0.1686636
0.7228782,-0.1094588,-0.1846893
0.7813349,-0.06787582,-0.1950074
0.7575765,-0.06967308,-0.1889553
0.7365792,-0.06603393,-0.1406738
0.6810769,-0.06415716,-0.1073148
0.6858408,-0.04964943,-0.1057249
0.8164989,-0.03847073,-0.1198854
0.9213843,-0.04165897,-0.1467856
0.9282682,-0.05644011,-0.204976
0.8655128,-0.1266613,-0.2654689
0.8634105,-0.2110541,-0.2505778
0.8624754,-0.2945308,-0.2406365
0.7614828,-0.399086,-0.2604271
0.7147563,-0.4652266,-0.2083786
0.8857808,-0.5002221,-0.1146257
1.371807,-0.5124118,-0.001572882
1.874597,-0.428598,0.0347105
1.926177,-0.3342118,-0.1319107
1.611005,-0.3600774,-0.2695312
1.307471,-0.3581665,-0.192994
1.207551,-0.2610094,-0.1350851
1.235637,-0.2395206,-0.1746288
1.193798,-0.26882,-0.08406097
1.007682,-0.265489,0.07487406
0.8182858,-0.2204171,0.09064357
0.7407359,-0.0879423,0.0243571
0.7450377,0.06132191,-0.04706768
0.7789282,0.1089411,-0.07753193
0.752452,0.02235981,-0.03944591
0.6887779,-0.1048082,-0.002925652
0.627665,-0.1762891,0.02295009
0.602606,-0.2034772,0.01269859
0.6959085,-0.2031751,-0.04864984
0.7761032,-0.2725754,-0.1219328
0.8061152,-0.3929745,-0.1678333
0.7963628,-0.4161933,-0.1185553
0.7581637,-0.4152306,-0.09044985
0.8812565,-0.43655,-0.1890623
1.057856,-0.4545159,-0.2559187
1.138205,-0.4963427,-0.2382353
1.131998,-0.4907791,-0.265777
1.145489,-0.4465412,-0.3416529
1.394813,-0.3894998,-0.359277
1.716126,-0.3045439,-0.3528993
1.836629,-0.3050415,-0.3230431
1.631754,-0.2889412,-0.1848824
1.266342,-0.1241568,-0.07548659
1.151044,-0.06913688,-0.06270889
1.189451,-0.1806536,-0.100887
1.170242,-0.2493937,-0.1958687
1.091033,-0.2418104,-0.2063915
0.9211408,-0.1489476,-0.159228
0.7814387,-0.06438002,-0.1726819
0.7968975,-0.1019095,-0.2058231
0.9111236,-0.1520617,-0.2572594
0.8979126,-0.1617655,-0.2342615
0.8228196,-0.1812973,-0.1493988
0.8115568,-0.1979502,-0.1111398
0.7572273,-0.1804193,-0.09348224
0.7923179,-0.1257535,-0.1196467
0.806059,-0.06629619,-0.1231938
0.7584216,-0.0572159,-0.09562454
0.8020079,-0.06595383,-0.09162225
0.7666972,-0.02869483,-0.05127465
0.8122906,-0.0224044,-0.07532355
0.9501268,-0.05485131,-0.1486954
0.9992956,-0.09256588,-0.1646963
1.039629,-0.2182721,-0.1812355
1.024703,-0.3657928,-0.1775187
1.011729,-0.4193246,-0.1682972
0.8877623,-0.3918215,-0.1821115
0.74632,-0.3612349,-0.2361351
1.015805,-0.3902911,-0.3192641
1.452504,-0.4227888,-0.2807901
1.759487,-0.5188509,-0.1905234
1.940295,-0.7456,-0.1377732
1.843135,-0.8306411,-0.07167251
1.417481,-0.5077812,-0.07438871
1.0048,-0.02443337,-0.07725187
1.048709,0.08806497,-0.06793198
1.258826,-0.07174271,-0.185688
1.213007,-0.1186396,-0.2725353
1.175753,-0.2017716,-0.237883
1.090522,-0.3116989,-0.2242721
0.8101949,-0.3296891,-0.2523585
0.7387516,-0.3560236,-0.2583153
0.8356648,-0.3281196,-0.2437888
0.8495362,-0.3488721,-0.2376554
0.8566418,-0.4008058,-0.1824161
0.8240044,-0.3153657,-0.1082943
0.7824542,-0.230629,-0.1231545
0.7879991,-0.1404648,-0.1767775
0.8346932,-0.1038523,-0.2112939
0.911305,-0.1717262,-0.2072202
0.9125523,-0.1453179,-0.1682361
0.858884,-0.09327777,-0.128983
0.7873487,-0.05746121,-0.07895873
0.7068981,-0.0424832,-0.04477204
0.6680142,-0.1058816,-0.02977051
0.700974,-0.1569442,-0.02947617
0.7774299,-0.2216441,-0.06230957
0.7757732,-0.207304,-0.07108375
0.7769873,-0.1245177,-0.05894538
0.8483817,-0.1593589,-0.04135524
0.9003668,-0.186574,-0.01013312
0.9933152,-0.23182,-0.03792712
1.108988,-0.3396849,-0.1199449
1.20248,-0.394949,-0.2199904
1.243877,-0.465749,-0.3254223
1.162547,-0.473914,-0.3731204
1.058451,-0.3945736,-0.3800266
1.078545,-0.3398058,-0.3881516
1.394603,-0.2996346,-0.3959405
1.732364,-0.321261,-0.3828918
1.488005,-0.3188454,-0.2570364
1.045133,-0.2101188,-0.02955212
0.9825961,-0.09076278,0.07738435
1.018103,-0.03603683,-0.03835882
1.014556,-0.1188514,-0.1558089
0.9576108,-0.2207132,-0.1578406
0.7856966,-0.2318416,-0.1484376
0.7219683,-0.2084646,-0.1247263
0.7547903,-0.1265408,-0.1216117
0.8192738,-0.06477525,-0.1531067
0.9368573,-0.07172022,-0.1514473
0.9977383,-0.07482024,-0.1566408
0.9388292,-0.1064773,-0.1047722
0.7748153,-0.1613603,0.009582933
0.6868523,-0.158628,0.05805919
0.6742367,-0.02284638,0.04853287
0.6869316,0.1509807,-0.01697855
0.8316531,0.1776208,-0.1392302
0.9165943,0.1191736,-0.2368486
0.8360118,0.007105863,-0.20959
0.6865413,-0.2249321,-0.1403246
0.6143304,-0.3810003,-0.163487
0.7258627,-0.4166633,-0.1553107
0.9514651,-0.5491908,-0.1329478
1.270574,-0.5997842,-0.1424984
1.546434,-0.4881735,-0.08521136
1.743749,-0.4769211,-0.05445574
1.70901,-0.4346446,-0.03370649
1.434494,-0.4025609,0.01949278
1.50235,-0.465088,0.01706843
1.555573,-0.2862958,-0.05635836
1.284182,-0.06468953,-0.1477268
1.141588,-0.05579116,-0.09791592
0.9095004,-0.1527951,0.003214114
0.8077924,-0.2871858,0.0266966
0.9032564,-0.2438286,0.06258868
0.772747,-0.1008346,0.02827044
0.7300304,0.02048994,-0.01327541
0.6282722,0.1175579,0.01454543
0.4776189,0.05280438,-0.01310145
0.5708821,-0.00241436,-0.03573277
0.5979254,-0.08719322,-0.04096047
0.6833776,-0.3002721,-0.04319601
0.8125187,-0.4010466,-0.02964125
0.8233844,-0.4288945,-0.08484676
0.8634063,-0.4036914,-0.1514385
0.8685984,-0.3465173,-0.1804589
0.9321495,-0.3626863,-0.1956509
1.065073,-0.3559017,-0.2058226
1.237038,-0.3472824,-0.2611269
1.473748,-0.2987621,-0.317974
1.616224,-0.2245054,-0.3158062
1.753551,-0.2862384,-0.290265
1.785816,-0.3090528,-0.2546563
1.498686,-0.1667049,-0.1440418
1.163456,-0.05611862,0.0028876
0.976499,-0.09657362,0.01367289
0.912637,-0.1571943,-0.1081692
0.9266225,-0.1631229,-0.2411776
0.9142823,-0.2230383,-0.3119542
0.8453104,-0.2536687,-0.2890312
0.7110039,-0.2248957,-0.2212193
0.5722752,-0.2308035,-0.1196526
0.5604894,-0.1603853,-0.03588023
0.630772,-0.05099417,-0.04910699
0.6799023,0.0300238,-0.08800356
0.6815287,0.1215222,-0.1125479
0.6656247,0.1219235,-0.1198665
0.6793223,0.03161342,-0.1066749
0.6874117,-0.1031355,-0.126364
0.6855993,-0.2306746,-0.1522316
0.6803374,-0.2972963,-0.1775798
0.6613899,-0.4166802,-0.2273837
0.7129292,-0.5244421,-0.2210662
0.9198765,-0.4945726,-0.1117878
1.349508,-0.4391703,0.01897686
1.838859,-0.4140351,0.0129594
2.018431,-0.4184905,-0.1262733
1.893547,-0.4426826,-0.1869004
1.633147,-0.4008765,-0.1025386
1.334331,-0.2835629,-0.02198618
1.293531,-0.1762306,-0.06060854
1.364424,-0.1810083,-0.1088045
1.173567,-0.2263332,-0.0914966
1.061912,-0.1844979,-0.09535228
1.045335,-0.1807383,-0.04360643
0.7651808,-0.1841185,0.02492783
0.607039,-0.1127565,-0.0102192
0.6886781,-0.1232808,-0.009428009
0.6571013,-0.1209018,0.02730022
0.6050775,-0.0860125,0.03184407
0.6134537,-0.1090803,0.0294215
0.5883989,-0.07380053,-0.02602343
0.6048542,-0.1004026,-0.1362586
0.7206622,-0.2465823,-0.238391
0.8309632,-0.4228712,-0.2199624
0.8957846,-0.5425195,-0.1365473
0.9336923,-0.4487828,-0.1413301
0.963918,-0.3900731,-0.2139305
1.153481,-0.4842425,-0.3759479
1.441467,-0.473692,-0.5599364
1.551096,-0.4154182,-0.5940798
1.516594,-0.3975098,-0.4476019
1.537306,-0.4432262,-0.2442309
1.567722,-0.5022584,-0.2103179
1.422938,-0.3666642,-0.2210625
1.193052,-0.1471957,-0.1197246
0.9826315,0.01798677,-0.1164021
0.7880242,0.1308082,-0.1766797
0.7973436,0.02003319,-0.2445992
0.9533223,-0.2316054,-0.3695564
0.9949226,-0.3503974,-0.4036166
0.9347691,-0.3162172,-0.3447985
0.8499255,-0.2155455,-0.2790387
0.8139433,-0.1692811,-0.269825
0.902424,-0.2133007,-0.3002105
1.02022,-0.258778,-0.2751164
1.039736,-0.2743567,-0.2405232
0.9570574,-0.2371161,-0.2034205
0.8727947,-0.181612,-0.2097923
0.8820255,-0.1656312,-0.2602807
0.9292306,-0.1546025,-0.2448659
0.9431995,-0.1289871,-0.2493551
0.9239193,-0.09645256,-0.2542659
0.8490511,-0.083099,-0.2088205
0.7910825,-0.0688129,-0.192793
0.8552143,-0.03270617,-0.1826036
0.9552749,-0.0174046,-0.1888931
0.9563293,0.001660647,-0.1837556
0.8958792,0.001656151,-0.1593885
0.8657305,-0.02040177,-0.1709144
0.8804898,0.003940426,-0.1665881
0.9238785,0.02893141,-0.1695933
0.9450011,0.04970297,-0.1874483
0.9285729,0.02698034,-0.2142069
0.8971264,-0.1152186,-0.3033541
0.8709608,-0.2654247,-0.3520468
0.9100479,-0.4149855,-0.2895689
0.9946668,-0.6462094,-0.1649969
1.11684,-0.7533332,0.009487283
1.343965,-0.5773591,0.1287557
1.586383,-0.3513663,0.04940091
1.662012,-0.2077086,-0.06288696
1.535906,-0.1558524,-0.03514047
1.362529,-0.2309474,-0.04375331
1.240974,-0.1989942,-0.07462676
1.148206,-0.1034164,-0.04360532
1.096184,-0.1136221,-0.06396192
1.018388,-0.1190103,-0.0573687
0.9358856,-0.2069995,-0.04991616
0.9672183,-0.2421181,-0.09229707
0.962797,-0.1535117,-0.0765291
0.8557582,-0.1395616,-0.05333042
0.7788058,-0.09311995,-0.0166668
0.7247228,-0.07556843,0.008652005
0.6816796,-0.05793349,-0.01097544
0.65198,0.02046786,-0.008072092
0.663646,-0.02343788,-0.03753425
0.7313523,-0.07514158,-0.04669875
0.749456,-0.1331379,-0.04151376
0.7025872,-0.205237,-0.09876551
0.6314907,-0.2359212,-0.1130341
0.6357474,-0.3421483,-0.09830353
0.7671812,-0.4005402,-0.07105205
0.8515334,-0.4083092,-0.03330474
0.8274857,-0.3988556,-0.07879809
0.8114349,-0.275748,-0.1704608
0.9306164,-0.204276,-0.2721197
1.170577,-0.2559453,-0.3785571
1.39359,-0.3953324,-0.471417
1.575275,-0.6117092,-0.5285533
1.746321,-0.7042287,-0.4805418
1.837678,-0.4767836,-0.410267
1.666384,-0.1221429,-0.379123
1.376205,-0.02296189,-0.2638271
1.199769,-0.1035598,-0.130973
0.9942229,-0.1671316,-0.1178013
0.8601166,-0.2289949,-0.1657858
0.851417,-0.1871472,-0.2369775
0.8216854,-0.1037662,-0.2979624
0.8311212,-0.1165119,-0.2958076
0.7971992,-0.1636203,-0.2689356
0.7656951,-0.2209781,-0.2412712
0.7947433,-0.2387195,-0.219216
0.7793636,-0.1679851,-0.1853563
0.7884368,-0.07179935,-0.1341849
0.792316,-0.02550115,-0.1350621
0.8055876,-0.07125207,-0.1524073
0.8586607,-0.1659138,-0.1254271
0.8501751,-0.2124113,-0.1142748
0.7844247,-0.1599687,-0.1340291
0.7228725,-0.06034611,-0.1565966
0.8033169,-0.02638647,-0.1905128
0.9546893,-0.06618346,-0.2048058
0.9887732,-0.1199582,-0.1826389
0.9699563,-0.1818919,-0.1753475
0.916199,-0.2148001,-0.2059882
0.852903,-0.2425378,-0.2768561
0.8528337,-0.3432396,-0.3223386
0.8656038,-0.4593418,-0.2118831
0.9104684,-0.5218643,-0.03579304
1.14213,-0.4383767,0.03053149
1.602755,-0.1635702,0.03645213
1.891902,0.01940285,-0.01927013
1.727567,-0.1460522,-0.1158283
1.476362,-0.3660304,-0.06171534
1.276131,-0.2907615,0.002211607
1.083927,-0.1788134,-0.05767194
1.135181,-0.1822953,-0.03269538
1.136836,-0.1344323,0.03245281
0.8656811,-0.1125304,0.05140324
0.6579774,-0.004270057,0.04568901
0.5295441,0.1641526,-0.0356643
0.5563015,0.1273932,-0.06347283
0.6843481,0.02511971,-0.01693771
0.6892624,-0.121363,-0.001513369
0.8054669,-0.3021622,-0.009147522
0.8785092,-0.3881155,-0.03103217
0.8019561,-0.3865897,-0.02456943
0.809267,-0.2901598,-0.05500112
0.767861,-0.2879755,-0.1408695
0.8012043,-0.3559225,-0.2194606
1.018986,-0.4119464,-0.3560603
1.280862,-0.4900193,-0.4825168
1.429247,-0.3520301,-0.542779
1.357699,-0.2003509,-0.5176707
1.402685,-0.1979046,-0.3205368
1.51179,-0.1140139,-0.1310524
1.415924,-0.1046776,-0.1346677
1.30532,-0.1642878,-0.2143488
1.192082,-0.1507049,-0.2211516
1.150109,-0.196734,-0.2059711
1.118014,-0.2872166,-0.2233377
0.8697423,-0.3405976,-0.2079774
0.7167902,-0.3326422,-0.1988999
0.73444,-0.2345144,-0.1766814
0.7216926,-0.1072468,-0.1080773
0.7448424,-0.01773305,-0.1006626
0.7419789,-0.01267336,-0.1207017
0.7369386,-0.08186778,-0.1224996
0.8077844,-0.08873831,-0.1260838
0.838935,-0.03311061,-0.155925
0.7965243,-0.007577164,-0.2677057
0.6170795,-0.06457264,-0.3411107
0.3638318,-0.2817231,-0.2319156
0.342079,-0.5116295,-0.03998338
0.7096231,-0.5503894,0.05565644
1.348563,-0.4319784,0.04547161
1.816959,-0.3139816,-0.0264269
1.797732,-0.2944012,-0.1258416
1.629918,-0.3591454,-0.1141562
1.60563,-0.4969263,-0.01760526
1.471567,-0.5065094,0.03000444
1.219173,-0.2450867,0.0212949
1.100517,0.03643693,0.0003880195
1.059226,0.1160393,0.03795745
1.004743,0.0722754,0.0612308
0.8603157,0.08067438,0.02972495
0.6523988,0.04866698,0.01100725
0.5475647,-0.009513037,-0.02816607
0.5157817,0.009709566,-0.03687531
0.5263435,-0.1156126,-0.05038893
0.6147501,-0.308412,-0.1385675
0.8203878,-0.429022,-0.1680689
0.9806116,-0.4906855,-0.1463228
0.9222851,-0.4246594,-0.1333294
0.9080861,-0.4023728,-0.1388162
0.974041,-0.3885908,-0.2705361
1.054379,-0.3073506,-0.5018077
1.256143,-0.3124462,-0.5916618
1.415685,-0.3786318,-0.4130739
1.530074,-0.4564433,-0.1896444
1.605147,-0.4079566,-0.1347439
1.535228,-0.2048203,-0.206066
1.461863,-0.008652001,-0.2992258
1.352181,0.05783433,-0.2977047
1.165133,-0.08892355,-0.2148899
1.024651,-0.2197599,-0.1458899
0.8978853,-0.2484231,-0.1378914
0.8161018,-0.2821842,-0.1961569
0.8079446,-0.2396351,-0.2054307
0.8015838,-0.2289654,-0.1674025
0.8118214,-0.2286704,-0.1463095
0.8019525,-0.1352591,-0.1216516
0.7612221,-0.05002169,-0.1248676
0.7173698,0.04568662,-0.1153933
0.6746905,0.06164041,-0.1143463
0.71799,-0.01941065,-0.141577
0.7583243,-0.05538754,-0.11732
0.6939855,-0.05428233,-0.1179685
0.6251944,-0.02077054,-0.1541121
0.5891842,-0.03344625,-0.1798027
0.6336262,-0.1733224,-0.2143762
0.7287506,-0.4496642,-0.2462329
0.7527833,-0.6889881,-0.2909939
0.8031634,-0.6209068,-0.2493602
1.020537,-0.4737772,-0.07551519
1.335687,-0.4219788,0.05581477
1.648842,-0.2911294,0.02789671
1.948058,-0.2328574,-0.04260672
1.968777,-0.4303748,-0.0003549326
1.657483,-0.6271256,0.04081013
1.440761,-0.4060746,0.03288705
1.249244,0.03715062,0.002135951
1.163747,0.1576059,-0.09464682
1.311658,-0.003736128,-0.06691772
1.149957,-0.1919906,-0.01384721
0.9811778,-0.2233103,-0.0776337
0.9845992,-0.134843,-0.05797438
0.8195251,-0.09888228,-0.08780542
0.8543207,-0.004428414,-0.1462789
0.8439435,-0.01050429,-0.08018189
0.6569187,-0.1016721,-0.06027274
0.585942,-0.04932978,-0.06596052
0.4564748,-0.1151916,-0.08982963
0.4649099,-0.2453192,-0.1380307
0.5367446,-0.3484508,-0.1243724
0.5756192,-0.4904973,-0.122343
0.7280535,-0.5120428,-0.1320773
0.7691552,-0.5237157,-0.1436513
