accx,accy,accz
0.7505299,-0.07673793,0.101712
0.7946195,-0.08927048,0.1470412
0.8179806,-0.06166245,0.2396428
0.8231571,0.009810471,0.256507
0.914381,0.04858684,0.23326
0.9949054,0.1022769,0.2300956
1.0128,0.0983693,0.1908035
1.031191,0.007365905,0.1156577
1.101859,-0.09590819,0.05710912
1.241811,-0.2165672,0.09003286
1.338789,-0.2793185,0.1512402
1.363904,-0.1908021,0.1671401
1.45774,0.003478379,0.1915555
1.67296,0.1561112,0.1698988
1.760568,0.1814196,0.1080439
1.626447,0.135243,0.1320128
1.447699,0.0780415,0.2420747
1.208652,0.02383281,0.3410336
1.078197,0.005476826,0.2902793
1.065771,0.02823964,0.1612042
0.9008996,0.01685333,0.1285483
0.8071614,-0.005697808,0.08816329
0.7723083,-0.003115704,0.02946464
0.6981728,-0.04091108,0.01509449
0.7922902,-0.07967984,-0.02574729
0.8410008,-0.1351073,-0.02739712
0.830662,-0.1983003,-0.001469736
0.8556857,-0.1564837,0.02814204
0.8043232,-0.08862844,0.09524022
0.8015277,-0.0113874,0.1035734
0.7402748,0.08541513,0.07369694
0.613509,0.1103032,0.05582009
0.6001184,0.09689778,0.09462276
0.6386279,0.07040358,0.1914614
0.7529677,0.06465195,0.2095906
0.8682859,0.06723607,0.1569596
0.9147344,0.01705765,0.07272285
0.928115,-0.04021657,0.00252343
0.928866,-0.1439625,-0.006065814
1.030734,-0.2694113,0.005736057
1.184047,-0.309733,0.1147975
1.397065,-0.2947447,0.3353767
1.680023,-0.2349303,0.5347423
1.846604,-0.09791521,0.5608253
1.868993,0.09599736,0.3834193
1.757094,0.1894085,0.2055511
1.586697,0.1312633,0.1869899
1.381862,0.05316451,0.3262768
1.100805,-0.03851835,0.4332043
0.9695875,-0.05410596,0.3759071
0.8486641,-0.00714239,0.3123859
0.5920582,-0.02527552,0.2524947
0.5876461,0.02910421,0.1463115
0.6444269,0.05838572,0.1030687
0.5576951,-0.002607849,0.08947542
0.6038019,-0.0218629,0.09058713
0.5852488,-0.1415376,0.1774958
0.5516037,-0.2187473,0.2569868
0.6743093,-0.1345162,0.2418785
0.7454909,-0.1160903,0.1482218
0.8168506,-0.1158407,0.05970431
0.8009799,-0.09870443,0.1029831
0.7569823,-0.07306779,0.2049157
0.8239908,0.01533788,0.2755498
0.8123887,0.07019534,0.3311578
0.8563138,0.0889991,0.3013722
0.8986005,0.08747057,0.2468439
0.8523399,0.02658991,0.1956542
0.9249996,-0.07695435,0.09455009
1.050732,-0.1935388,0.07889579
1.256908,-0.2431289,0.1075928
1.525981,-0.1840131,0.09029522
1.788246,-0.03318797,0.1013456
1.922565,0.1241209,0.1368285
1.632715,0.1357064,0.2754761
1.338771,0.06915913,0.4406522
1.35176,0.07018802,0.3738372
1.232958,0.04882235,0.2132798
1.120707,0.02523107,0.1470261
1.147224,0.07090255,0.06798237
0.9538811,0.04906331,-0.003299844
0.7941545,-0.002527811,0.02775741
0.7992347,-0.04097506,0.08470386
0.6940745,-0.09151425,0.09123527
0.6936733,-0.05873766,0.07153869
0.7665093,-0.04449678,0.06956557
0.7377766,-0.04084557,0.06481144
0.7597928,0.0280772,0.04220293
0.7398983,0.04035319,0.03495628
0.7187152,0.04992437,0.06128596
0.7369165,0.05018876,0.1512854
0.7131263,0.02129569,0.2513759
0.7928409,0.04263206,0.2583465
0.8860438,0.03146336,0.1886524
0.9111148,0.00664723,0.114128
0.9086555,-0.006052612,0.07464014
0.8875737,-0.05421094,0.06045883
0.932189,-0.1273954,0.05631186
0.9634296,-0.2273924,0.03775683
1.044677,-0.2818435,0.04027198
1.266181,-0.2978296,0.1977122
1.516076,-0.2806302,0.4431213
1.756201,-0.1401873,0.4982734
1.869987,0.01791007,0.3299545
1.81176,0.05792373,0.2308546
1.5963,0.01703904,0.2806939
1.286258,0.01135775,0.2822374
1.142329,0.0295572,0.2542799
1.018231,-0.01589232,0.2676014
0.7167468,-0.03452435,0.2343798
0.6453849,-0.009274551,0.1819473
0.7500245,0.02114633,0.1566523
0.6160111,0.08933307,0.09106974
0.5705053,0.09725738,0.02747233
0.6349682,0.03472693,0.03444885
0.5201364,-0.02525137,0.0649694
0.52197,-0.07324544,0.1287057
0.5715498,-0.1051375,0.1819462
0.6100524,-0.170061,0.1428457
0.7751729,-0.2326078,0.1197839
0.7670174,-0.2300783,0.1639861
0.6991692,-0.1697074,0.2315866
0.7018125,-0.07290522,0.3082374
0.6731462,-0.02705962,0.2762041
0.8096502,-0.0527454,0.07874198
1.091415,-0.1365876,-0.1724991
1.423755,-0.3020488,-0.2601236
1.711127,-0.4105508,-0.02025106
1.818765,-0.3319282,0.2715809
1.826909,-0.1713538,0.3275562
1.801463,-0.008209641,0.3291411
1.743961,0.124156,0.3292173
1.518952,0.1835566,0.224916
1.17744,0.2721532,0.1402534
1.064037,0.2612624,0.1444001
1.040476,0.08905362,0.1473537
0.8751444,0.06826319,0.09797884
0.7886019,0.06247806,0.07108487
0.7594588,-0.00640689,0.06842375
0.6896954,0.0517499,0.05000297
0.7137057,0.06232251,0.08424782
0.7009085,0.1054292,0.0968882
0.6524045,0.1756414,0.06166113
0.7093103,0.115053,0.04614208
0.7568534,0.08992622,0.03093553
0.831863,0.02186891,0.09983781
0.8857727,-0.02120113,0.2019367
0.8618155,0.04578995,0.2194572
0.9101611,0.04115101,0.2217913
0.9369752,0.06588618,0.2612243
0.9239381,0.08755749,0.3282187
0.9407993,0.06351064,0.3097574
0.9575826,0.0507174,0.1300772
1.052405,-0.07102842,-0.09214182
1.185165,-0.2267003,-0.1560069
1.313195,-0.3889316,-0.04385417
1.47305,-0.5855272,0.06240673
1.579729,-0.6790041,0.2138642
1.621843,-0.6093984,0.3513964
1.684454,-0.2793575,0.2882542
1.732559,0.1181395,0.2364378
1.655007,0.1566312,0.1285468
1.499506,0.1108332,-0.07993392
1.365734,0.1466251,0.03448632
1.169692,-0.07850619,0.2133929
0.9074032,-0.1434447,0.1282286
0.7280583,0.01250089,0.1046954
0.6289946,-0.05983651,0.09206926
0.5929761,0.006006709,0.01949679
0.6525248,0.05180237,0.05758843
0.7347709,-0.1016024,0.07015194
0.8347215,-0.1165575,0.1066765
0.9012046,-0.2103621,0.2121433
0.8186756,-0.2182174,0.2171032
0.6775634,-0.1001927,0.2038216
0.5651437,-0.07132132,0.189012
0.5265232,0.05696445,0.1342817
0.5773704,0.08839606,0.110465
0.6436955,0.07137409,0.1325014
0.7571416,0.09630703,0.1863446
0.8633313,0.01311907,0.1942299
0.911831,-0.01631863,0.183659
0.9693795,-0.0608077,0.1777094
0.9365804,-0.1050231,0.1380052
0.8822377,-0.1423764,0.1349854
0.9117095,-0.2876831,0.09992024
0.9809809,-0.3966531,-0.0004325726
1.263086,-0.5517787,-0.06900089
1.669013,-0.7082145,-0.09492902
1.848978,-0.6209522,-0.04380034
1.732625,-0.228332,0.112349
1.493234,0.2487891,0.3213014
1.345581,0.2881054,0.390526
1.302462,0.1141654,0.2823856
1.3444,0.162841,0.1983901
1.333738,0.05982341,0.09109961
1.155021,-0.1152318,0.02613416
0.9786481,-0.1137546,0.1407121
0.7899253,-0.1890517,0.2087877
0.6765315,-0.1788692,0.2236874
0.6899771,-0.0489621,0.2087945
0.6921588,0.01822985,0.08273407
0.7873819,0.1165935,0.01483528
0.85867,0.1018342,-0.02126743
0.8851711,0.03734008,-0.02971975
0.9234964,0.04892461,0.06757882
0.8318809,0.005374241,0.141128
0.7567918,0.0166162,0.1873244
0.6874532,0.04789958,0.1706847
0.6196266,0.05653661,0.1275335
0.6738738,0.06599903,0.1663951
0.7394748,0.02020786,0.2268271
0.8121528,0.054803,0.3060776
0.8675405,0.08343979,0.242074
0.9117433,0.0642364,0.07650037
0.9470997,0.07716435,0.06552235
0.8943091,0.02078149,0.0439433
0.883318,-0.03030606,-0.005292133
0.9493792,-0.1459203,0.001590571
1.053063,-0.3526339,-0.01010838
1.243931,-0.3892625,0.1035438
1.498303,-0.3174036,0.3422121
1.723098,-0.251494,0.4801068
1.834063,-0.08475309,0.4086042
1.854108,0.09365388,0.2527244
1.72441,0.09534618,0.1731754
1.452165,0.02512527,0.1775917
1.24581,-0.0336811,0.2686916
1.073039,-0.1423553,0.3159141
0.8521555,-0.1644577,0.2736412
0.6822795,-0.09752823,0.2492018
0.6091413,-0.04993252,0.1783791
0.6276519,0.005611673,0.123081
0.6729009,0.00570058,0.1278585
0.6916096,-0.04372979,0.1215743
0.6769071,-0.08287758,0.1431439
0.634585,-0.1089041,0.16644
0.6353861,-0.0968027,0.1905882
0.6710407,-0.101914,0.1682879
0.7079066,-0.1344297,0.08515056
0.7463426,-0.1360838,0.07287846
0.7441407,-0.1134241,0.1092159
0.7393033,-0.06820606,0.1791719
0.7667626,-0.0197417,0.2580206
0.8348232,-0.005446405,0.2552984
0.9354019,0.0006120304,0.2074121
0.9558517,0.01133459,0.1532722
0.9525268,-0.02612081,0.1261187
1.091947,-0.1535096,0.09423861
1.313696,-0.292683,0.03569597
1.486084,-0.2698233,0.05274239
1.63441,-0.09450178,0.09462882
1.806557,0.1430364,0.09199653
1.843556,0.3832672,0.1393915
1.658868,0.3601196,0.2645308
1.43818,0.1686746,0.3910755
1.278313,0.1067864,0.3997712
1.164566,0.007951669,0.2555073
1.047737,-0.02198633,0.1044355
0.8772695,0.05135589,0.03329756
0.7370194,-0.01623264,0.002848377
0.6382608,-0.008726873,-0.005151397
0.5782187,0.01796749,-0.0003208461
0.5933575,-0.01202483,0.01875383
0.5970971,0.05343471,0.03330014
0.6023155,0.03825326,0.02410309
0.6392448,0.03430589,0.02140724
0.6658678,0.06192336,0.05039889
0.7243982,9.530074e-05,0.1424518
0.8097764,-0.004021968,0.2444551
0.8850684,0.006917675,0.2391856
0.9088012,0.01999189,0.16857
0.8584304,0.02286433,0.1411485
0.8175258,-0.02280707,0.1318696
0.8341848,-0.03760942,0.06690311
0.9016655,-0.07120436,-0.04828073
1.014306,-0.1053151,-0.1061394
1.249764,-0.1944343,0.002802726
1.678586,-0.3863738,0.2287603
1.988626,-0.4587806,0.4393284
1.921975,-0.3199162,0.4728674
1.725686,-0.08011672,0.2984076
1.526696,0.104017,0.1583617
1.362085,0.1378863,0.1287513
1.312716,0.06084041,0.1770254
1.12758,-0.003790861,0.3099092
0.866731,-0.01278112,0.3568753
0.7530916,-0.0113843,0.3084565
0.6410654,0.0571483,0.2102969
0.6138537,0.1427154,0.06015689
0.6800116,0.1663754,-0.002712102
0.7375759,0.1520739,0.01326581
0.8525092,0.07422466,0.05893688
0.8510808,-0.014249,0.1373843
0.7441761,-0.07954109,0.2174248
0.6886786,-0.07927206,0.2426143
0.6726016,-0.05000961,0.1464563
0.7361589,-0.1177158,0.05141609
0.7971549,-0.1779836,0.05969374
0.8061786,-0.205141,0.1287557
0.7834984,-0.1826487,0.2004834
0.7145766,-0.08790701,0.2131723
0.6647253,-0.06958596,0.1970777
0.6466703,-0.06972613,0.1532935
0.7884263,-0.1004293,0.04327549
1.17477,-0.2292226,-0.09094997
1.515487,-0.3116541,-0.15164
1.691179,-0.2893815,-0.1118347
1.900011,-0.1984465,-0.07298219
1.930268,-0.09587882,0.02144168
1.576053,0.01933956,0.2675528
1.337776,0.04115487,0.4339976
1.351165,-0.05023516,0.3264883
1.338192,-0.04961989,0.1594207
1.30914,-0.07106645,0.1003351
1.112568,-0.1057441,0.06285273
0.8434191,-0.05999362,0.08193311
0.6814935,-0.07073287,0.1154815
0.5451642,0.008656323,0.08772683
0.5187052,0.1247697,0.1052349
0.5641383,0.136582,0.07588096
0.7805194,0.156744,-0.03249258
1.09125,0.1188166,-0.09854837
1.157404,0.02911393,-0.1080351
1.104305,-0.0788596,-0.02213746
0.9820063,-0.1346467,0.08135265
0.8151291,-0.07514884,0.1782641
0.7402036,-0.05822934,0.2640732
0.7583495,0.01195815,0.230445
0.8223953,0.1318753,0.1681123
0.8398571,0.08108901,0.1196865
0.8736018,0.01042242,0.1236466
0.8448636,0.02333144,0.1887696
0.7733732,0.03534158,0.1795816
0.7944645,0.08274061,0.1770374
0.7709003,0.1120422,0.1615695
0.8162208,0.009278922,0.05428236
0.9311631,-0.1647048,-0.0544097
1.013394,-0.3205326,-0.1174984
1.23575,-0.5147641,-0.03468615
1.515178,-0.7224729,0.1601409
1.629039,-0.6941042,0.3737318
1.592635,-0.489531,0.4865721
1.611352,-0.2795337,0.3471437
1.629736,0.1047184,0.1856545
1.576022,0.2473898,0.1162898
1.559085,0.01300888,0.07374271
1.397238,0.05055797,0.115014
1.170369,-0.01592884,0.1609357
0.9951471,-0.2367903,0.2531148
0.7837966,-0.1190109,0.2857597
0.7018019,-0.1020357,0.1719725
0.6529453,-0.06462023,0.1566705
0.614956,0.04690256,0.1284524
0.6786743,-0.04440344,0.09397698
0.6965403,-0.02470469,0.157175
0.7322903,-0.05606408,0.1483504
0.7723121,-0.1014206,0.1801604
0.7838191,-0.03655151,0.2198407
0.7944394,-0.08762706,0.203801
0.7186555,-0.05663387,0.2240569
0.6494962,-0.01806433,0.1913069
0.6382801,-0.01403924,0.1795924
0.6704457,0.03214455,0.1610493
0.738639,-0.04224193,0.1063284
0.7796339,-0.07520221,0.1398035
0.8099104,-0.0547789,0.1796195
0.851828,-0.06919272,0.2272529
0.9424177,-0.07664895,0.2348976
1.077093,-0.1437861,0.1374042
1.279792,-0.2345974,0.05112309
1.543922,-0.3000066,0.00642085
1.734473,-0.2158286,0.0277896
1.848638,0.02399346,0.05223748
1.782071,0.1769247,0.06865977
1.559587,0.1580635,0.2008699
1.400885,0.04689966,0.3454033
1.232099,-0.01202826,0.3720723
1.12131,-0.01975123,0.2597797
1.038363,-0.01825518,0.1004772
0.8537823,0.02759094,0.04611463
0.7584539,0.03376852,0.03015022
0.6615139,0.04545611,0.001169987
0.5867348,0.0594162,-0.01069465
0.6596799,0.0174245,-0.01847235
0.7055242,0.02482851,0.03719149
0.7834066,0.02946754,0.09551565
0.823392,0.02695905,0.06052605
0.7691617,0.03399007,0.02443388
0.7839339,0.003443278,0.02871524
0.7725698,0.02177805,0.04160041
0.7616904,0.05962944,0.1000156
0.8084133,0.08217997,0.1690207
0.8513795,0.04994203,0.1503403
0.9049317,-0.04647687,0.1015375
0.8837485,-0.07059698,0.08296319
0.8516786,-0.1007843,0.03695784
0.9236294,-0.1812966,0.007967604
1.042078,-0.2316792,0.04472813
1.262316,-0.2836892,0.1505802
1.564828,-0.3134297,0.3535451
1.760442,-0.3091934,0.5032577
1.791824,-0.2244793,0.4506894
1.753708,-0.03106112,0.2454365
1.723782,0.09600181,0.02809556
1.580338,0.06678974,0.0328191
1.258703,0.005142866,0.2194722
0.9992491,-0.03394466,0.3029422
0.8794127,-0.1178781,0.3079319
0.7333678,-0.1430258,0.3023637
0.6073285,-0.04550751,0.2607517
0.5896554,0.03826738,0.213615
0.5479539,0.1040664,0.1161949
0.5030948,0.1076937,0.0509313
0.5449698,0.03692922,0.06282932
0.5507837,0.004987311,0.08755574
0.5850052,-0.05303409,0.1366198
0.683207,-0.1535146,0.1116919
0.7022941,-0.2535027,0.08535764
0.7135098,-0.3011497,0.1540363
0.7157154,-0.2352313,0.1742823
0.7033262,-0.1443558,0.1632873
0.7686145,-0.05199113,0.1481631
0.9191416,-0.05358833,0.08542396
1.220909,-0.1771478,-0.007487024
1.604113,-0.2342107,-0.06806315
1.911642,-0.2321823,-0.03575604
1.954983,-0.08403987,0.02294903
1.672409,0.142166,0.1797216
1.45917,0.117847,0.4192184
1.441695,0.04460954,0.445324
1.371227,0.07834908,0.263505
1.232394,0.05936847,0.08625886
1.071034,0.05466626,0.007073334
0.919338,0.0450698,0.009216295
0.8119475,-0.01048958,0.02371241
0.7292216,-0.03828481,0.06877297
0.6592797,-0.06445586,0.112635
0.6579882,-0.06056392,0.1013714
0.7300197,-0.0051893,0.07162961
0.7351235,0.03510865,0.02668772
0.7072254,0.04577722,-0.02225131
0.7002832,0.02715431,-0.0344414
0.6796124,-0.02921227,0.04493915
0.7113101,-0.0731662,0.2079032
0.7405688,-0.00669758,0.2780909
0.7722778,0.09445251,0.1665365
0.813068,0.06354204,0.06000299
0.7714676,0.009738985,0.08833739
0.7594264,-0.00534625,0.09843418
0.8240237,-0.1016829,0.02222255
0.964686,-0.2066767,-0.02730801
1.201551,-0.2575839,-0.01918578
1.438773,-0.2963982,0.113872
1.677736,-0.3583994,0.3613588
1.869299,-0.3928989,0.5047285
1.902794,-0.2494804,0.4570169
1.847461,-0.05300761,0.2976098
1.738625,0.04347832,0.1541469
1.494975,0.08394842,0.1532671
1.192616,0.04408925,0.2419752
0.9494797,-0.01823713,0.2701247
0.7167689,-0.05814889,0.2495855
0.5351177,-0.06013523,0.2193455
0.4548583,-0.01164601,0.1489759
0.425137,-0.01784548,0.1176205
0.470314,-0.03784123,0.1174296
0.5280662,-0.07532005,0.09052689
0.5524363,-0.1669738,0.1064
0.5969353,-0.1776775,0.1239272
0.642726,-0.1458758,0.1177477
0.715373,-0.1457264,0.1077379
0.7903735,-0.1556004,0.08370158
0.7733018,-0.1554774,0.1317932
0.6834864,-0.08193781,0.2224033
0.6129505,-0.01161482,0.2568484
0.6412902,-0.03543932,0.2313251
0.7196307,-0.0722248,0.1593999
0.8494654,-0.1152486,0.07195842
1.185046,-0.2714391,-0.001967069
1.650423,-0.4344064,-0.01862728
1.949964,-0.3830922,0.00473514
1.957036,-0.1358385,0.04684412
1.819989,0.1949405,0.173438
1.649318,0.3943044,0.3067043
1.428752,0.3151024,0.332394
1.314756,0.1886138,0.3024739
1.296537,0.08707723,0.2286769
1.186198,-0.01356154,0.09340347
1.073701,-0.03080972,0.03015108
0.9187855,-0.1183574,0.05296203
0.7261225,-0.1708689,0.01610137
0.6823009,-0.08293763,0.004093367
0.6382501,-0.0941777,0.05015078
0.5900724,-0.06981285,0.06013937
0.6173338,0.02619682,0.0959019
0.5859749,0.03717762,0.07499687
0.5865594,0.06765919,0.001559444
0.6404629,0.03248922,0.032635
0.6863951,-0.015391,0.1005499
0.7867844,0.05563883,0.1655218
0.843064,0.07832133,0.1706046
0.8130521,0.06011239,0.1154831
0.8079305,0.04717034,0.0976175
0.825765,0.01301366,0.03418772
0.8498662,-0.07076644,0.01175211
0.9743989,-0.2537286,0.04232709
1.182207,-0.3706455,0.03831489
1.414207,-0.3353829,0.2853898
1.720742,-0.3176392,0.6155049
1.842106,-0.3302763,0.5797903
1.715373,-0.1861841,0.4319151
0.6266271,0.02963312,0.126211
0.788571,-0.04585581,0.1148604
0.8319499,-0.07927448,0.10269
0.701105,-0.1057238,0.135644
0.6507955,-0.1108806,0.1833026
0.5758228,-0.0906224,0.1612579
0.6693346,-0.1547144,0.1210214
0.7295605,-0.1884609,0.07020614
0.6998442,-0.1772184,0.07594531
0.7475893,-0.1134355,0.1383167
0.73053,0.02065525,0.1851376
0.8187647,0.1043184,0.2076339
0.8937014,0.1649719,0.1712667
0.8777917,0.1861059,0.1404565
0.9116572,0.1033794,0.1475958
0.9204625,-0.05433321,0.1285952
1.053825,-0.2350712,0.1064457
1.253603,-0.3782294,0.09655409
1.431118,-0.4634246,0.09899407
1.646659,-0.3114035,0.09925648
1.803043,0.08636116,0.04316951
1.799884,0.3015417,0.01619065
1.589719,0.208487,0.1652346
1.432725,0.09370462,0.3719954
1.37602,0.06069212,0.3760353
1.276304,0.04046387,0.2028146
1.167912,0.06265361,0.050822
0.9511674,0.08780853,-0.007142736
0.8073281,0.01258358,0.02265654
0.74964,-0.07041144,0.04994662
0.6667706,-0.1197887,0.02954974
0.7392905,-0.1594675,0.001262479
0.7486681,-0.1526255,-0.05008118
0.7057015,-0.1452134,-0.03607121
0.726896,-0.09460043,0.03433134
0.639581,0.01120118,0.03818408
0.6151481,0.0745252,0.05443743
0.6700586,0.09195468,0.08880494
0.7010259,0.07811999,0.120502
0.7164674,0.07045453,0.1603737
0.7328914,0.04491651,0.141125
0.8190358,-0.02504126,0.1357173
0.8172058,-0.06782606,0.1275827
0.746378,-0.09588228,0.06367552
0.7379074,-0.1396512,0.02770463
0.7877329,-0.1999721,0.00213591
0.9867416,-0.2426072,-0.0004892803
1.300768,-0.2553748,0.09956782
1.701429,-0.3430502,0.3462513
1.990813,-0.4297564,0.5710383
1.921945,-0.3001071,0.4901062
1.827831,-0.06839528,0.2475075
1.802233,0.02228563,0.1119903
1.51911,0.04542337,0.1235571
1.180569,0.07279352,0.249501
1.00226,0.02743767,0.3294842
0.7961346,-0.03254667,0.3351418
0.6132201,-0.0529189,0.3237371
0.5383746,-0.03156345,0.2501719
0.4951058,0.002156843,0.1729429
0.5101956,-0.01015452,0.07547541
0.525291,-0.03493047,0.00863341
0.5447103,-0.08010972,0.0703266
0.6160597,-0.1422028,0.079387
0.668007,-0.1963655,0.02106404
0.7498738,-0.2669882,0.0138911
0.8048436,-0.2761574,0.07470755
0.7542725,-0.1888426,0.1955313
0.7317767,-0.03085374,0.2415786
0.7455085,0.1519237,0.2197998
0.7465317,0.2028971,0.1991255
0.802581,0.1220659,0.1234725
0.9560912,-0.02265713,0.03285497
1.214665,-0.2967109,0.00166281
1.555258,-0.5333474,0.04670672
1.791559,-0.488718,0.1002344
1.780181,-0.2173899,0.1429807
1.724173,0.1490435,0.2208312
1.71158,0.3404459,0.2626242
1.603386,0.2165915,0.2637516
1.496311,0.09785602,0.2714844
1.393244,0.01812352,0.2546387
1.219978,-0.06881119,0.2117267
1.079658,0.01533862,0.1294281
0.8913205,0.04284368,0.04499138
0.7369999,-0.01213188,0.04749858
0.7179691,-0.001778423,0.06649019
0.6266368,-0.0698755,0.03086907
0.6306153,-0.07894325,0.01694427
0.7387778,-0.04283334,0.009152864
0.7132483,-0.07938092,-0.01162274
0.7422454,-0.03797234,0.03606076
0.7693611,-0.006620436,0.080888
0.727612,-0.000998639,0.07183379
0.7413585,0.03291039,0.09907599
0.6987071,0.03444296,0.1460546
0.678614,0.05605093,0.1634006
0.721604,0.04914039,0.149006
0.7484845,0.01965827,0.1215291
0.7698816,0.008707139,0.109468
0.7486915,-0.04065734,0.08355748
0.7801341,-0.1050973,0.02032816
0.9028015,-0.2006713,-0.05600549
1.125704,-0.2695317,-0.05913661
1.445352,-0.2715763,0.1223867
1.729364,-0.3249381,0.4361059
1.94302,-0.3518417,0.6016021
1.967731,-0.1865896,0.4400827
1.838744,0.09443727,0.2235404
1.680541,0.2650607,0.1680254
1.37962,0.2519319,0.1411458
1.132826,0.1254051,0.2039417
1.044769,-0.03216063,0.3243844
0.8571782,-0.07743132,0.3140784
0.6063927,-0.06575032,0.3050397
0.4535683,-0.08080307,0.2787197
0.4752968,-0.01547416,0.1499512
0.5731128,0.01201657,0.04820809
0.5962474,-0.03397633,-0.002015009
0.626658,-0.03633116,0.03286639
0.6314028,-0.09782691,0.1046418
0.6199959,-0.1696976,0.1229963
0.6973497,-0.1865129,0.09828978
0.772532,-0.2562195,0.03972052
0.8182815,-0.3155129,0.08066853
0.7468201,-0.2552832,0.2035169
0.6143248,-0.1333949,0.2714463
0.6365292,-0.05419913,0.2705887
0.6720232,0.01025874,0.2073476
0.6999705,0.07054012,0.1597592
0.8225245,0.01965986,0.05357157
1.037699,-0.1443712,-0.04740566
1.421205,-0.3011056,0.06838115
1.782539,-0.3038789,0.1844921
1.932421,-0.06188235,0.2126707
1.915039,0.2789453,0.2345587
1.749388,0.3679463,0.2652586
1.494233,0.2269854,0.4084447
1.278109,0.1489548,0.4411955
1.265156,0.03075731,0.2739577
1.260988,-0.09261799,0.1389115
1.046973,-0.02707826,0.07562975
0.8758197,0.005302757,0.0946977
0.7247704,-0.02815215,0.1150321
0.6086932,0.0107886,0.1040748
0.6827174,0.02133864,0.103502
0.6714862,0.02765399,0.03065644
0.6838578,0.07054177,-0.02646183
0.7888977,0.07554129,-0.01172202
0.7450619,0.08619034,0.03888986
0.7692604,0.1219591,0.1285114
0.82559,0.1329738,0.1719224
0.8065577,0.1184562,0.1910735
0.8199451,0.07388273,0.2108246
0.7848012,0.0232545,0.2025926
0.8290535,-0.001720345,0.2108969
0.9354675,-0.02440966,0.2259517
0.9518928,-0.04549581,0.2448483
0.9262985,-0.02772753,0.2577312
0.8593202,0.009278014,0.2184168
0.8631378,0.01004119,0.1516373
0.9645899,-0.05720309,0.05740885
1.143617,-0.2691332,-0.1180102
1.352285,-0.4862387,-0.2076466
1.465026,-0.4274972,0.01872003
1.739098,-0.333549,0.3480133
2.000538,-0.3533353,0.4508535
1.811906,-0.07044413,0.2760368
1.645618,0.3564081,0.02613047
1.649253,0.4115377,-0.02163394
1.456957,0.2292227,0.02116595
1.251397,0.06399431,0.05938585
1.064091,-0.06579515,0.1606196
0.806643,-0.1146457,0.1400084
0.6044644,-0.09350351,0.07723778
0.4922901,-0.07330541,0.07840516
0.5317501,-0.06052365,0.03642201
0.6635333,-0.09195505,0.07901843
0.8398263,-0.1837903,0.1603799
0.905107,-0.224487,0.1847077
0.7906958,-0.2500477,0.2273186
0.7774399,-0.2816406,0.2415028
0.6729704,-0.2054684,0.23861
0.5520358,-0.1122879,0.1970632
0.6665065,-0.05306162,0.1173591
0.6772701,-0.03558308,0.1269477
0.7228712,-0.08672196,0.1752384
0.7854712,-0.09947866,0.2102819
0.7203731,-0.09965785,0.2386839
0.8211396,-0.09897813,0.1954695
0.8864835,-0.08146506,0.1295638
0.8713873,-0.1226872,0.1042742
0.8986292,-0.195424,0.06947306
0.910029,-0.2764932,0.00822916
1.083076,-0.3162404,-0.03240684
1.448034,-0.3324207,-0.05394
1.874769,-0.347015,-0.1161056
1.93549,-0.1529254,-0.1124458
1.549039,0.162876,0.1549287
1.337138,0.2479965,0.4905675
1.355343,0.1166225,0.5009207
1.373894,0.014848,0.273558
1.352042,0.01156792,0.1204249
1.252974,0.04264269,0.02747646
1.157998,0.08076798,-0.02287012
0.9536504,0.06307953,0.04732937
0.7223456,0.01505773,0.1075026
0.680806,-0.008927952,0.1024921
0.6675951,-0.06998686,0.1226213
0.7084179,-0.0576405,0.1079264
0.8903188,0.005779333,-0.01122986
0.9502346,-0.02283477,-0.1051845
0.8618415,-0.007058672,-0.034829
0.8404025,0.01089321,0.06860456
0.7936462,-0.03200729,0.07951032
0.7396173,-0.03865224,0.1148777
0.7755033,-0.07062711,0.1896105
0.7358156,-0.07066809,0.2129005
0.7383894,-0.02824898,0.1890616
0.8015745,-0.01381666,0.1394317
0.776415,0.05023835,0.09901207
0.7792127,0.07651263,0.08979391
0.7567419,0.03603193,0.09405525
0.7379005,0.006949688,0.08038742
0.7761484,-0.08231824,0.003453002
0.8240784,-0.200876,-0.07779423
1.016802,-0.295045,-0.05561003
1.262844,-0.3682456,0.08547381
1.479804,-0.3781474,0.3132566
1.711903,-0.330412,0.4869736
1.86546,-0.1994738,0.45024
1.923394,-0.01038422,0.2879451
1.84065,0.05774744,0.1939672
1.621038,-0.004939886,0.2337732
1.33974,-0.04624972,0.3257045
1.04151,-0.08402663,0.3522943
0.8930497,-0.1087434,0.3296966
0.8494518,-0.04830986,0.2852717
0.6860493,-0.004495809,0.1920035
0.5261551,0.02506008,0.1247082
0.5247103,0.05551151,0.09140664
0.5188627,-0.004576979,0.07072177
0.4871898,-0.07477698,0.09952035
0.5140371,-0.1198732,0.1413346
0.5239343,-0.1429184,0.1733677
0.6155443,-0.144147,0.1175526
0.7976401,-0.2020188,0.02858766
0.849305,-0.2207447,0.08788117
0.7984911,-0.175227,0.1801315
0.7603593,-0.1290515,0.2344353
0.7486768,-0.03073549,0.2790527
0.7386455,0.02920083,0.2463191
0.7546723,-0.00893291,0.2072915
0.8374909,-0.07776917,0.1605167
0.9840777,-0.2137168,0.1066987
1.311381,-0.4058615,0.1272588
1.661652,-0.4609014,0.1239327
1.805985,-0.2437671,0.1122928
1.895527,0.1109046,0.1537364
1.791768,0.3400133,0.2479206
1.499376,0.3149707,0.4627543
1.435166,0.1989787,0.5683928
1.424487,0.1543994,0.3841544
1.252177,0.1174535,0.1626937
1.036952,0.1075032,0.0508584
0.7614847,0.08805934,0.01723911
0.6357248,-0.0257558,0.05727098
0.6628655,-0.09129478,0.08516851
0.6531398,-0.09711751,0.0284026
0.7760699,-0.09480719,-0.03366194
0.9007523,-0.04743503,-0.04385142
0.8835341,0.002004033,-0.01507512
0.8281905,0.06670117,0.04021057
0.7433793,0.09980599,0.07134862
0.7457914,0.08223241,0.1416854
0.7249802,0.1026394,0.2617954
0.6627035,0.09929978,0.2666919
0.7379077,0.06411565,0.2208594
0.8208908,0.04816219,0.2287297
0.8880521,0.03898714,0.2039834
0.8883013,0.05604648,0.1700745
0.8166481,0.07854291,0.1499858
0.8383376,0.09246997,0.1071007
0.8250574,0.05986892,0.08458522
0.7957301,-0.04487261,0.02538985
0.863634,-0.1464792,-0.06298179
1.011896,-0.2682327,-0.03609561
1.290122,-0.4269008,0.07150284
1.553017,-0.5036031,0.270831
1.778587,-0.4466079,0.5213239
1.940763,-0.2653598,0.543732
1.8336,0.01153327,0.3615111
1.631476,0.1816507,0.1858728
1.368284,0.1118404,0.1247375
1.005944,0.0050724,0.2329544
0.7997943,-0.04769704,0.3201403
0.7038541,-0.07646658,0.2712096
0.6527636,-0.03092445,0.1957353
0.5773307,-0.02468619,0.08145048
0.491014,-0.01282157,-0.01374373
0.6034142,0.03970781,0.01242066
0.7026129,-0.03364987,0.0396326
0.7834867,-0.09276424,0.03616878
0.8336397,-0.1177551,0.08204792
0.6791864,-0.2051735,0.1105324
0.6826728,-0.2286524,0.09025082
0.7579178,-0.226504,0.06267436
0.7782311,-0.2510108,0.06151479
0.857819,-0.2643331,0.1618925
0.7476365,-0.2051985,0.3323707
0.6546006,-0.08675613,0.4256684
0.6691224,-0.04844178,0.3990275
0.6791362,-0.01548074,0.3178629
0.801513,0.03306689,0.1770661
0.9252053,-0.06549113,0.002127668
1.16688,-0.2650188,-0.05098611
1.49725,-0.3990584,0.01987245
1.73314,-0.3990858,0.04494966
1.913428,-0.2422127,-0.04849316
1.845548,0.04490241,-0.09207151
1.556515,0.1792399,0.132021
1.269075,0.04169947,0.4572471
1.161688,-0.04428996,0.5325087
1.263217,-0.03719309,0.3517101
1.224736,-0.1002871,0.1594753
1.081555,-0.09107081,0.05411367
1.005971,-0.00345153,0.009039149
0.8658318,-0.01296596,0.02711959
0.7665648,-0.02808546,0.03213597
0.7063898,-0.01094532,0.01507699
0.6504576,-0.03980793,0.02785238
0.7370625,-0.02041598,0.007784886
0.8287618,0.01300363,-0.01965325
0.8923404,0.02046135,-0.02712048
0.9869924,0.03962865,-0.02817832
1.023735,0.01254808,0.02153828
1.034208,0.006830594,0.1003139
0.983709,0.02511863,0.1820844
0.8853906,0.03150882,0.2046483
0.8333745,0.06793714,0.1583255
0.8096674,0.05953092,0.1492866
0.8568996,0.007944509,0.1604992
0.9110947,-0.04828195,0.1686281
0.8873889,-0.06988039,0.1900007
0.847962,-0.0139671,0.1947342
0.8030372,0.01730827,0.1960093
0.7845333,0.008765517,0.2119927
0.7992839,0.01269691,0.2376588
0.7906163,0.0149133,0.2222154
0.7760083,0.01221203,0.1187482
0.782435,-0.03322084,-0.03074891
0.845053,-0.1737433,-0.1267626
1.010033,-0.3830723,-0.09675074
1.252158,-0.5295213,0.04485477
1.529323,-0.5583732,0.2960148
1.782617,-0.4782367,0.5185585
1.910366,-0.216881,0.4878032
1.905024,0.1043272,0.2934421
1.81314,0.2279653,0.1084828
1.620611,0.1560288,0.060529
1.329787,0.04720022,0.2019218
1.015992,-0.05309649,0.3175122
0.7939574,-0.09443788,0.3315307
0.6613114,-0.03455551,0.2829881
0.5705717,-0.02225322,0.1920598
0.5477552,-0.01623361,0.1637314
0.5169245,0.07690272,0.08517501
0.5064287,0.07082812,0.0091807
0.638453,-0.01021555,0.09864263
0.8053475,-0.09177452,0.1604458
0.9016124,-0.1635516,0.1890359
0.8858687,-0.1462953,0.219363
0.8277202,-0.1723193,0.1922253
0.7914571,-0.2061077,0.217388
0.6274891,-0.1496521,0.2109297
0.53713,-0.1429122,0.1674562
0.6588684,-0.1663325,0.1718596
0.7316294,-0.1860325,0.146971
0.8028672,-0.1909362,0.1641885
0.817044,-0.09882289,0.2060935
0.7608068,0.007124367,0.2046374
0.8490551,0.0186975,0.1766285
0.9074322,-0.01490046,0.07548598
0.9797468,-0.05675198,0.01476912
1.175622,-0.1669416,0.0397416
1.352087,-0.2295605,0.05604551
1.652438,-0.09802959,0.06705021
1.931174,0.1055905,0.06768199
1.857763,0.2294401,0.1149278
1.606055,0.1310243,0.2702547
1.385774,-0.1066743,0.4308043
1.242826,-0.1888194,0.4216882
1.228138,-0.1496449,0.2609506
1.169307,-0.08443733,0.1247868
0.9658983,-0.01652341,0.04718907
0.8310126,-0.01535504,0.04002566
0.7128307,-0.02029981,0.06064752
0.5942245,-0.02496081,0.02753738
0.6394212,-0.0238966,0.004469965
0.6993484,-0.01197596,-0.02078804
0.7490496,-0.01605855,-0.01904188
0.7612335,0.02084246,0.04234352
0.6992816,0.05518249,0.0720962
0.7170474,0.07281162,0.1119448
0.6984567,0.06955129,0.1620052
0.6910096,0.03203461,0.1860828
0.7863775,0.02650346,0.1805794
0.860549,-0.01731729,0.1290395
0.9206336,-0.06642639,0.1210356
0.857193,-0.05986741,0.1212127
0.7505636,-0.08059892,0.07969961
0.7632761,-0.1043902,0.02447245
0.8495027,-0.1580024,-0.05510034
1.088895,-0.2523296,-0.03488464
1.411024,-0.3320889,0.1311419
1.725795,-0.4000943,0.3831476
1.946337,-0.3708306,0.5436032
1.92154,-0.1914042,0.3877554
1.834249,0.04199937,0.1673702
1.678304,0.1340115,0.113717
1.361134,0.06129166,0.1346395
1.144117,0.02163031,0.2373734
0.9679157,-0.03674538,0.3477603
0.6875356,-0.1225582,0.3982931
0.5509664,-0.0556029,0.3403319
0.5468083,0.03911893,0.1504615
0.470477,0.08570632,0.03564029
0.4775483,0.1252965,0.005100236
0.5665762,0.07349063,0.003749204
0.6105561,-0.03540425,0.09760365
0.7351933,-0.1548911,0.1971726
0.7663596,-0.1776517,0.2070879
0.7128393,-0.1428723,0.0964304
0.8210298,-0.2525552,0.02102906
0.8219497,-0.2753608,0.08086537
0.7337376,-0.1540586,0.1565396
0.7143106,-0.03858396,0.2404983
0.6535861,0.1193146,0.2498616
0.7299898,0.07495474,0.1641378
0.888869,-0.06531715,0.06663458
0.98223,-0.06284287,-0.03367191
1.169533,-0.1921661,-0.01045192
1.5298,-0.3860215,0.04287562
1.912238,-0.4126318,0.008151272
1.95161,-0.1382585,0.05872192
1.738315,0.2871157,0.2155204
1.542601,0.3462326,0.4206262
1.298248,0.2267121,0.5245438
1.207171,0.179695,0.3903213
1.204739,0.03356714,0.2309589
1.031533,-0.00531603,0.09621243
0.8794896,0.005673966,-0.01089643
0.7662772,-0.08573063,0.04104329
0.6741333,-0.1074805,0.05940114
0.6880104,-0.1534337,0.0479498
0.7199481,-0.1714648,0.08500184
0.7400007,-0.0672627,0.04232279
0.7270521,-0.004793631,0.04578771
0.7134704,0.0645762,0.04113174
0.7547069,0.1041183,-0.006097462
0.7710114,0.05756976,0.06196101
0.7283348,0.06330817,0.1441536
0.6895197,0.09570634,0.2126924
0.7271182,0.1218734,0.2021472
0.8219443,0.1105236,0.1217773
0.881086,0.05751506,0.1024856
0.8359146,0.01758272,0.02630056
0.7201596,-0.08067188,-0.02582322
0.6648231,-0.1857393,-0.00819418
0.6946684,-0.2690047,-0.02940296
0.857491,-0.3639804,0.02930278
1.260913,-0.3898163,0.1753074
1.739423,-0.4039373,0.3685186
1.998924,-0.3895711,0.4917868
1.973358,-0.2430347,0.4025967
1.877588,-0.0532327,0.2637759
1.749938,0.06476706,0.134329
1.426668,0.08445331,0.07668262
1.163347,0.046154,0.2341592
1.065644,-0.02224687,0.3835653
0.8722605,-0.05868349,0.3811544
0.7152387,-0.01826438,0.3203468
0.6409222,0.04365365,0.1953484
0.5232614,0.128048,0.05875089
0.4650804,0.1535418,-0.02184131
0.433138,0.06236324,-0.01345822
0.4211038,-0.04167389,0.09653143
0.4805906,-0.1477064,0.1674577
0.590194,-0.2154429,0.1010611
0.770392,-0.2584214,-0.008115368
0.8475288,-0.3188398,-0.01187696
0.7699928,-0.2530746,0.1023698
0.7346044,-0.1223758,0.2255601
0.7410457,-0.03987876,0.2508878
0.7777839,0.008396583,0.1488376
0.8977849,-0.06248322,0.06744202
1.135788,-0.2053525,0.06784947
1.603576,-0.3364483,0.07829261
2.021194,-0.298124,0.09985651
1.925219,0.0843097,0.1120392
1.652732,0.448645,0.2032819
1.541892,0.4221353,0.3926259
1.353421,0.1911171,0.4632028
1.272182,0.03318351,0.351642
1.261059,-0.03081558,0.1864439
1.018476,-0.02964038,0.07354496
0.8664397,0.009952504,0.01960183
0.7771892,-0.03176202,0.03171392
0.6551882,-0.06550713,0.07206348
0.7033807,-0.05842202,0.06529128
0.7422057,-0.08356045,0.05044408
0.7770847,-0.02932517,0.02014744
0.7498154,0.04562323,0.3169053
0.7154869,0.06115688,0.2289418
0.7140716,0.0592409,0.1498636
0.6121021,0.07239657,0.06513499
0.609925,0.03634816,0.02854224
0.5408875,-0.01320084,0.105885
0.4274637,0.000804555,0.152339
0.4284998,-0.02399076,0.09549117
0.5016136,-0.1151674,0.04486474
0.6163717,-0.1806384,0.07975532
0.6465965,-0.1671857,0.1604648
0.7018007,-0.1375811,0.2375337
0.7845108,-0.158146,0.2501788
0.788024,-0.1357958,0.1600899
0.945879,-0.09769898,0.06745138
1.107933,-0.1395012,0.01567416
1.245362,-0.2030439,0.03568673
1.661192,-0.2642433,0.1279223
1.905724,-0.2158507,0.1606834
1.748178,0.02069874,0.1646088
1.7218,0.2362521,0.1741333
1.779128,0.2360385,0.1899791
1.607341,0.09920065,0.2928253
1.439544,0.0483715,0.3646352
1.313742,0.06550328,0.262875
1.102053,0.06665021,0.09811535
0.9577958,0.1035945,0.07851538
0.8376032,0.08801746,0.119215
0.7049644,0.05904522,0.08400869
0.6956052,0.06649636,0.09257385
0.7429958,0.02556869,0.05944127
0.8123576,0.009615495,-0.03152554
0.9162903,-0.02212241,-0.03790032
0.9242976,-0.05331695,-0.02303817
0.7992645,-0.01000077,0.05011562
0.7079155,-0.008869792,0.1472334
0.7417284,-0.01062087,0.1592153
0.7753035,0.02294584,0.1618398
0.7681964,0.06062847,0.1896666
0.8008144,0.08866938,0.1845803
0.8520004,0.05835807,0.1103344
0.9074023,0.03721551,0.06661153
0.9607153,0.01764114,0.09775148
0.9600167,-0.02539657,0.1422481
0.9570469,-0.03203099,0.1864554
0.9364016,-0.03128154,0.194128
0.8441641,-0.02804816,0.1951891
0.8073473,-0.02376936,0.1880352
0.833493,-0.03025734,0.1180257
0.8612489,-0.05620641,0.0257948
0.9534008,-0.1659923,-0.02581544
1.131514,-0.31555,0.05200965
1.382354,-0.3641445,0.3167592
1.59871,-0.2693597,0.5786806
1.711659,-0.09588626,0.4775681
1.789246,0.08455437,0.2162115
1.751425,0.1429697,0.1932486
1.554888,0.0430571,0.1702394
1.360117,-0.01402877,0.189209
1.143736,-0.03453508,0.3461131
0.8340944,-0.1031229,0.3342957
0.658101,-0.08686289,0.2845659
0.6859781,-0.02765737,0.1954637
0.6930204,0.01520474,0.05009018
0.6743581,0.03845906,0.0684283
0.7225292,-0.03115913,0.06802399
0.7247227,-0.08478871,0.06470709
0.6611334,-0.08087798,0.1198736
0.6318774,-0.09324681,0.1200928
0.6284462,-0.1146788,0.1145925
0.6801098,-0.1589156,0.08030069
0.7418999,-0.1815048,0.09338075
0.7207319,-0.1352774,0.1514776
0.7246693,-0.0611261,0.1996824
0.7791931,0.005695697,0.2538658
0.8460926,0.07378454,0.2054356
0.9127535,0.07539722,0.155022
0.9414124,-0.05201376,0.1188673
1.0572,-0.1957279,0.01409661
1.259273,-0.345864,-0.02501279
1.346572,-0.434987,-0.01494246
1.409853,-0.3368785,0.009778542
1.684001,-0.165984,0.06051114
1.876637,0.1087929,0.1210593
1.610636,0.3356987,0.2759245
1.314847,0.294057,0.4532472
1.329573,0.2635389,0.4659725
1.323048,0.2419746,0.2971708
1.227814,0.1030689,0.09118536
1.128336,-0.004057069,0.001466103
0.9463535,-0.1267608,0.02384745
0.793613,-0.2368509,0.06233249
0.7233526,-0.249603,0.1070447
0.6792152,-0.2252637,0.1464182
0.6788046,-0.1580882,0.127372
0.655659,-0.01682884,0.09586272
0.6012774,0.147037,0.05289852
0.6072609,0.167661,-0.02067305
0.6728308,0.08942573,-0.006996178
0.7402809,0.08711376,0.09854414
0.7625966,0.0706806,0.1947902
0.8049419,0.03337266,0.2145793
0.8906264,0.02920833,0.156287
0.896046,-0.01345658,0.1191683
0.8778727,-0.04347218,0.09917912
0.8863226,-0.060499,0.08845326
0.8574371,-0.1251051,0.1045694
0.9191297,-0.1967828,0.07494953
1.098263,-0.2616027,0.07114834
1.291212,-0.3325551,0.1052626
1.435508,-0.3788669,0.1183844
1.498186,-0.3523117,0.233477
1.633546,-0.2943098,0.4248046
1.753738,-0.1643789,0.4843835
1.697322,0.08165833,0.3113342
1.637828,0.1944247,0.1152582
1.473024,0.140007,0.1399299
1.194423,0.05908873,0.2355104
1.018536,-0.09281948,0.2992028
0.8128838,-0.1498702,0.3406206
0.6420533,-0.07799285,0.2745006
0.599235,-0.06309886,0.2071362
0.5683282,-0.02279623,0.1901966
0.6230213,0.03346428,0.1501909
0.7056332,0.04562422,0.1170213
0.7287248,0.06066339,0.1038299
0.685769,0.01069421,0.1226611
0.5945152,-0.03987162,0.1595574
0.6084044,-0.04950368,0.1664108
0.6731979,-0.1153264,0.120731
0.7100135,-0.1947263,0.06319958
0.7337313,-0.2305558,0.1060623
0.7098544,-0.1769977,0.18949
0.7264733,-0.08984606,0.2223195
0.768675,-0.08160296,0.2370003
0.8365029,-0.1034365,0.1518953
1.038629,-0.1800091,0.01052599
1.311668,-0.3177863,-0.004097876
1.592121,-0.3473066,0.09088641
1.83338,-0.142669,0.1814611
1.949397,0.1414447,0.1841456
1.842607,0.2112021,0.1807441
1.587632,0.181814,0.2925358
1.435545,0.1731506,0.3996361
1.313492,0.06163475,0.3786233
1.18687,0.02477065,0.2502437
1.114371,0.08499241,0.1074154
0.9248896,0.06976248,0.05065429
0.7827549,0.04636188,0.05453123
0.7518871,0.00776079,0.04856477
0.7004117,-0.03661689,0.03313467
0.7755839,-0.0433688,0.02888116
0.8470649,-0.05018866,0.02820804
0.8326613,-0.01563816,0.02744077
0.8416244,0.04145612,0.0238875
0.8260246,0.08427906,0.01762925
0.8474098,0.09523183,0.04857373
0.872613,0.06437501,0.1161751
0.8710437,0.05319804,0.1802204
0.8833941,0.02693943,0.214531
0.8532068,-0.006421624,0.2274686
0.8282386,0.01726551,0.2421569
0.8138135,0.04693525,0.2283142
0.8185098,0.07699182,0.2090866
0.876132,0.106952,0.2131391
0.9232983,0.1200041,0.2056169
0.9336169,0.1285526,0.2090132
0.8919977,0.1097213,0.2158846
0.8640708,0.07100231,0.1862464
0.8737641,-0.02658462,0.08372922
0.891298,-0.2058023,-0.05705232
1.058286,-0.3753401,-0.05432383
1.333762,-0.5437803,0.07204708
1.47063,-0.6399174,0.203826
1.524847,-0.491229,0.3782774
1.647955,-0.2026371,0.4332227
1.668259,0.07278661,0.2644971
1.580831,0.1866387,0.07324071
1.567618,0.08118464,-0.006741826
1.422689,0.03227343,0.09866646
1.135893,-0.00159293,0.2561244
0.9558712,-0.0835499,0.2521179
0.8266882,-0.003053241,0.1962523
0.7402399,0.04068001,0.1131966
0.7338828,0.05279729,-0.02436595
0.7908633,0.09729277,-0.08544594
0.8671913,-0.06223408,-0.07616619
0.8558596,-0.2248497,0.0142521
0.8267628,-0.2707631,0.1658543
0.8161404,-0.2631111,0.2322898
0.8024509,-0.2007421,0.2218418
0.8066556,-0.1834322,0.2158325
0.7719904,-0.1241849,0.2100381
0.7242095,-0.05036282,0.1809447
0.6953046,-0.02616341,0.1657316
0.7046617,-0.01213732,0.1516095
0.7585315,-0.03319176,0.1030952
0.7916244,-0.0341883,0.09903629
0.8221452,-0.0691985,0.1301423
0.8668425,-0.08782853,0.1656387
0.9154871,-0.05596576,0.2216823
0.9140725,-0.06832321,0.211045
0.8651716,-0.02855304,0.1832094
0.8725593,-0.03253212,0.2232171
0.8436093,-0.09954041,0.2265213
0.8029369,-0.146773,0.1699211
0.8887817,-0.2762292,0.05621923
1.045595,-0.3603409,-0.1229617
1.334248,-0.393869,-0.1844216
1.69507,-0.4026239,-0.07372633
1.888343,-0.2067912,0.02117992
1.839816,0.07999555,0.08459601
1.590943,0.2561165,0.2369766
1.340319,0.2488673,0.3668934
1.241958,0.1492501,0.3141895
1.2318,0.08760195,0.2176005
1.131466,0.01993072,0.1302512
0.9453883,-0.02666073,-0.006859231
0.8734685,-0.05803057,-0.01166076
0.7894628,-0.1160306,0.04201029
0.6826142,-0.1385268,0.003608354
0.7274142,-0.1224559,0.03513415
0.742337,-0.06779076,0.05575131
0.7742036,0.009238091,0.01689206
0.9066782,0.08519939,0.02437548
0.9254422,0.1309882,0.003953411
0.867055,0.1324913,0.04025124
0.8332318,0.1432775,0.1138315
0.8029127,0.1165576,0.1025481
0.7552562,0.05248505,0.1302697
0.7121306,-0.01366063,0.1657237
0.7113992,-0.08073845,0.1687837
0.7207508,-0.06036122,0.2045609
0.8001715,-0.01518832,0.1865788
0.9342667,0.003288209,0.1375136
0.9720092,0.04921164,0.1252401
0.9204152,0.04959854,0.1002164
0.8256104,0.01398491,0.08225675
0.7549313,-0.02659045,0.08688161
0.8423883,-0.1134425,0.07320288
1.074261,-0.2078747,0.06950056
1.344019,-0.3183181,0.1471859
1.616683,-0.435404,0.3071331
1.778803,-0.4386337,0.4366889
1.751717,-0.2942582,0.4508648
1.703183,-0.06930632,0.3803872
1.631475,0.1205918,0.2741342
1.442149,0.1752182,0.2047005
1.241339,0.142088,0.2260509
1.028868,0.08701693,0.2749326
0.8194009,0.01134764,0.2783006
0.6690134,-0.03887418,0.2182621
0.5614319,-0.03951914,0.117028
0.5527832,-0.04268237,0.07135206
0.6358933,-0.0759979,0.1041102
0.7609669,-0.1108458,0.1190947
0.832725,-0.1163261,0.1367165
0.7767361,-0.09323034,0.1914695
0.7090519,-0.07039783,0.2125671
0.6572674,-0.04849733,0.1953179
0.6161798,-0.02734156,0.1454741
0.6769041,-0.05189001,0.06517863
0.7612772,-0.08605641,0.01652064
0.7695032,-0.07821035,0.05540912
0.7550224,-0.06257214,0.1778542
0.754008,-0.02634543,0.2981241
0.7840466,0.01985441,0.3308838
0.8578801,0.005388165,0.2456049
0.9769391,-0.07192475,0.1135976
1.203044,-0.2034127,0.02634276
1.476443,-0.3636859,0.02054471
1.619729,-0.40701,0.1074808
1.692696,-0.2123432,0.143995
1.803694,0.05895316,0.08825163
1.775039,0.1297148,0.08281212
1.561457,0.05230553,0.159611
1.362335,0.02393485,0.2747311
1.217163,-0.01709491,0.2841475
1.118059,-0.07373274,0.1739151
1.014642,-0.03210668,0.08236256
0.8686758,0.01081817,0.02490223
0.7916419,0.02917046,0.02519935
0.73771,0.06404063,0.02046885
0.726057,0.03351533,-0.01917254
0.8134761,-0.004823401,-0.02245356
0.8791362,-0.01731578,-0.02683992
0.9116457,-0.03567037,0.005112325
0.8474381,0.01097389,0.05827828
0.7275859,0.07501168,0.06103124
0.7019827,0.09036119,0.07445506
0.7255956,0.06478959,0.1289214
0.7848996,0.02933079,0.1917953
0.8209813,0.04887334,0.194354
0.8429945,0.05936071,0.163721
0.9366312,0.04720901,0.1512565
1.031141,0.06836907,0.1149949
1.054771,0.06267128,0.1264639
0.9668534,0.05761279,0.1943237
0.8958431,0.07946082,0.2206844
0.8891258,0.08124937,0.2122053
0.8165721,0.07686927,0.1687537
0.7658055,0.04497894,0.0847431
0.8294624,-0.05025996,-0.01176501
1.013155,-0.2378582,-0.0413026
1.204776,-0.4377146,0.04938497
1.300881,-0.4756367,0.2119444
1.454636,-0.4284951,0.4156372
1.669086,-0.3787856,0.4913366
1.750486,-0.2418564,0.3791791
1.591578,-0.09702576,0.2669026
1.369742,0.006401302,0.1492819
1.287832,0.0227686,0.1437137
1.070354,-0.06744848,0.2528888
0.7092136,-0.04062127,0.2090084
0.6669778,-0.004024405,0.1896886
0.7590763,-0.03260906,0.1749643
0.6440008,0.05567463,0.04672092
0.6511262,0.0496101,0.07050447
0.7780332,-0.008632335,0.08973489
0.7570454,-0.00761269,0.03612299
0.7635497,-0.08998662,0.08284305
0.7402878,-0.1101087,0.1553077
0.6631445,-0.1305393,0.2554276
0.6691493,-0.1487497,0.2450131
0.6437796,-0.08195894,0.1347326
0.7168767,-0.1327106,0.1085449
0.8529552,-0.1703478,0.08685184
0.8582752,-0.1529798,0.1261832
0.8410755,-0.1468189,0.2037964
0.7983951,-0.0595778,0.2260361
0.7568899,-0.03791174,0.2598121
0.7840891,-0.06273444,0.2127376
0.9507825,-0.07483977,0.08198028
1.263772,-0.1760053,-0.04368642
1.516231,-0.2831055,-0.09213986
1.745483,-0.2944468,-0.01677966
1.909812,-0.1769616,0.02390536
1.786828,-0.02875777,0.06413861
1.517734,0.0471461,0.2050361
1.253628,0.09271417,0.2857243
1.096502,0.07019937,0.2120146
1.140728,-0.003861902,0.05281947
1.089839,-0.05260267,-0.01580788
0.8868076,-0.08885711,0.006628767
0.8440938,-0.08599259,-0.002893312
0.8271901,-0.06090971,0.00249629
0.7419591,-0.05223562,0.004692173
0.7215497,-0.01753079,0.00587751
0.699072,0.04004951,0.01481862
0.722889,0.09511125,-0.02767549
0.7973993,0.1076969,-0.06688226
0.9305168,0.04965115,-0.08591245
1.108073,0.005748196,-0.05823554
1.059068,-0.02094981,0.02937442
0.8566449,-0.06867116,0.1310777
0.7131323,-0.05312235,0.1947298
0.6502865,0.0005321834,0.1665733
0.6678327,0.02438927,0.1998206
0.6877771,0.07351283,0.2770489
0.7893967,0.1454321,0.2273415
0.9127009,0.186764,0.1762549
0.8808556,0.1900965,0.1574052
0.8221568,0.1583094,0.1370256
0.7873095,0.07733023,0.1072572
0.8400492,-0.09799329,-0.02464543
1.101044,-0.3816141,-0.1004646
1.454635,-0.6832225,0.0001086397
1.699402,-0.823262,0.1963329
1.720425,-0.6920501,0.4848183
1.719473,-0.3595417,0.6178507
1.775243,0.05606795,0.3722052
1.701482,0.3020502,0.1017887
1.590212,0.2234237,0.08866481
1.411552,0.08458161,0.1882342
1.117167,-0.06187277,0.2901891
0.9014564,-0.1965718,0.3135848
0.7217818,-0.1162442,0.2251666
0.5586412,-0.04471345,0.1293816
0.5061229,0.006677868,0.06302637
0.5397182,0.07990304,0.05265664
0.6171186,-0.04841812,0.1156632
0.7048807,-0.1206503,0.2000489
0.7862021,-0.0889128,0.2563943
0.806751,-0.09003586,0.2469803
0.8031974,-0.04247642,0.2293657
0.8023178,-0.06398843,0.2282747
0.6934069,-0.06838028,0.1899387
0.553892,-0.02301409,0.1541744
0.5306287,-0.02228728,0.1454795
0.6119325,-0.005419079,0.1189576
0.7086341,-0.06382395,0.08456257
0.7906033,-0.1584499,0.1209169
0.8793303,-0.1967982,0.1776597
0.9422855,-0.1939401,0.1488264
1.033157,-0.1858712,0.1384575
1.134842,-0.2547068,0.137052
1.27653,-0.3488606,0.01374043
1.527094,-0.4700241,-0.09185579
1.550086,-0.4941576,-0.05521726
1.498684,-0.2419698,0.03557303
1.689302,0.08747946,0.1625814
1.648486,0.2710905,0.3189005
1.509199,0.194259,0.3463477
1.543826,0.0660148,0.3131939
1.410543,0.09815769,0.3236952
1.276666,0.06669372,0.1953095
1.11288,0.07375471,0.1030095
0.8560387,0.1326036,0.1351824
0.798877,0.04687198,0.06364233
0.7100327,0.01573357,0.06504457
0.6671071,-0.02044451,0.08222481
0.7979183,-0.07435646,-5.742946e-05
0.8382338,-0.03981642,0.003694744
0.8558878,-0.04088362,0.0101672
0.7788988,0.03094411,0.03516796
0.6733599,0.09779391,0.07619081
0.7112574,0.0671118,0.09431049
0.7106717,0.06669483,0.1973437
0.716493,0.04713953,0.2427293
0.7755766,0.05114983,0.2095897
0.8550497,0.0593889,0.1871241
0.9297433,0.03897049,0.1471174
0.8711526,0.04770418,0.1135925
0.7787232,0.01663878,0.08048367
0.7370599,-0.02126523,0.07099344
0.71912,-0.07354642,0.03432578
0.7444931,-0.2046578,-0.06151738
0.825218,-0.3550336,-0.07383687
1.073773,-0.4382268,0.07853855
1.471064,-0.4056909,0.3272096
1.785035,-0.3152438,0.4565261
1.922801,-0.1692192,0.372398
1.939384,-0.003357271,0.2182318
1.809639,0.02961158,0.1178788
1.522977,-0.04818499,0.1718769
1.235997,-0.1303699,0.3271804
1.01654,-0.1550503,0.3881666
0.8180834,-0.09624739,0.3746389
0.6982085,-0.01259822,0.3273121
0.6669822,0.04903324,0.2100038
0.6720081,0.09186607,0.1200274
0.6929441,0.09587994,0.0563
0.6946715,0.0224615,0.02684934
0.6762731,-0.0723596,0.1017003
0.6275315,-0.102956,0.173102
0.5944317,-0.1272816,0.1957064
0.6811988,-0.2123673,0.1657376
0.7904962,-0.286955,0.1137936
0.7894291,-0.2816034,0.1284365
0.7623043,-0.204634,0.1511947
0.7865809,-0.04460359,0.1796522
0.8168878,0.1314548,0.1982847
0.8356093,0.1779192,0.1508198
0.8207915,0.1540171,0.1231195
0.794096,0.1062364,0.118587
0.8937724,-0.1091873,0.08663487
1.102137,-0.3602636,0.05757994
1.329725,-0.4015686,0.08571577
1.633534,-0.3471164,0.1290609
1.877188,-0.2506159,0.1124845
1.74622,0.02238656,0.181496
1.409772,0.2778163,0.4235353
1.289435,0.285003,0.6149822
1.282298,0.2054565,0.5459045
1.273164,0.1852742,0.322721
1.283111,0.1869735,0.1426267
1.130887,0.1446347,0.0259202
0.9450416,0.01250871,0.04857058
0.8164837,-0.1354695,0.1486447
0.7227751,-0.241024,0.170413
0.7660885,-0.2771177,0.1846698
0.7984958,-0.2141886,0.09276324
0.8400283,-0.1503395,-0.04699678
0.8688329,-0.1032106,-0.03361483
0.74871,-0.002198944,-0.009866766
0.6421776,0.1114189,0.0127301
0.5979277,0.1380234,0.05344964
0.6441348,0.08216389,0.1243693
0.7162908,0.08700705,0.2554118
0.7315425,0.109883,0.2542596
0.8077869,0.078325,0.1901921
0.8662065,0.08637809,0.1632465
0.8564942,0.06929599,0.1054766
0.7938744,-0.002905218,0.09758138
0.7114816,-0.1181605,0.06429449
0.7448199,-0.2562785,-0.0279343
0.9342545,-0.2910427,0.004454567
1.245463,-0.3497754,0.1045036
1.465323,-0.4115948,0.2025486
1.636902,-0.3561061,0.4236835
1.886968,-0.3525844,0.6072594
1.877804,-0.1996541,0.5507876
1.762628,0.1507857,0.3767849
1.750352,0.2845197,0.1849216
1.472953,0.2549646,0.09907196
1.136265,0.1972807,0.2042048
0.9418289,0.05334433,0.3208636
0.6904071,-0.06452984,0.3559441
0.5713588,-0.09235549,0.3430838
0.5348507,-0.05760786,0.2624172
0.4688541,-0.02341812,0.1479105
0.5040265,-0.0243988,0.05324979
0.5092773,-0.04961415,0.02731948
0.5265416,-0.1025715,0.07802131
0.5769216,-0.1137861,0.09060826
0.6122823,-0.1252916,0.06717652
0.7568647,-0.2079405,0.08274339
0.8249405,-0.2481077,0.118691
0.7721757,-0.2104497,0.1901176
0.7501665,-0.1173276,0.2321374
0.7243235,0.01448489,0.2124951
0.75509,0.04357805,0.1800979
0.921068,-0.07194869,0.0760991
1.246606,-0.2050923,-0.002913771
1.591303,-0.2957329,0.07770634
1.802378,-0.2718492,0.1555755
1.892904,-0.003797256,0.1141502
1.757164,0.3231549,0.1121191
1.524676,0.3452833,0.2162628
1.428699,0.1727778,0.3666648
1.338373,0.09356185,0.4979803
1.273093,0.04596486,0.3927084
1.231436,0.0402873,0.1499738
1.05567,0.09151572,0.06430843
0.939105,0.03795851,0.03156248
0.8466839,-0.03314248,0.02162892
0.6826079,-0.09876865,0.03984234
0.7270471,-0.1747995,0.01492046
0.7931301,-0.1520363,0.0211673
0.781794,-0.1585983,0.001257388
0.8996427,-0.1433514,-0.001030035
0.8976678,-0.05378631,0.05983149
0.777576,0.03682334,0.08720274
0.6979535,0.2192872,0.118167
0.6440135,0.2518511,0.1190531
0.7084525,0.1299331,0.132505
0.7803193,0.1204668,0.175278
0.8550261,0.07609131,0.1515128
0.9267515,0.04621677,0.1398081
0.8712945,0.07638038,0.1120821
0.8560441,0.02256166,0.06954053
0.8396573,-0.03529308,0.07296537
0.7617238,-0.0963412,0.05783812
0.7613167,-0.1562646,0.04665325
0.7884927,-0.2229302,-0.006792362
0.9272871,-0.3538653,-0.05995794
1.231243,-0.384967,0.08187347
1.518008,-0.3450001,0.3459312
1.696458,-0.3353594,0.53704
1.813715,-0.1764177,0.5516945
1.904111,0.05772234,0.3599576
1.815042,0.1684269,0.1261257
1.582174,0.2030735,0.1011259
1.450218,0.176299,0.200739
1.335928,0.1142958,0.2236386
1.037299,0.009231731,0.28997
0.676707,-0.1443114,0.3906
0.6511846,-0.1302237,0.3325461
0.7541318,-0.02376013,0.1697201
0.5435643,-0.03306287,0.02743246
0.5027414,-0.02719184,-0.004551354
0.6167269,-0.06549823,0.06299802
0.4890568,-0.1644177,0.1097178
0.5407477,-0.1292632,0.1527408
0.6607092,-0.1238695,0.1577896
0.7255765,-0.2041125,0.09146291
0.8686413,-0.2237735,0.1083046
0.7897036,-0.2159925,0.1653919
0.7611052,-0.1712924,0.2007742
0.8237719,-0.1097549,0.2532455
0.7615806,0.009406581,0.2299317
0.8166215,0.1642712,0.1956822
0.8374,0.1115756,0.1599884
0.8658942,-0.06388067,0.06125706
1.08625,-0.23277,0.02020679
1.385103,-0.4606105,0.004462486
0.8462047,-0.2373836,0.1115247
0.8367819,-0.1950194,0.1459909
0.8538576,-0.1051499,0.1768174
0.8588597,-0.01061914,0.2032317
0.856441,0.07161687,0.1836955
0.8498551,0.086531,0.1828933
0.7992287,0.08017,0.1942107
0.7638942,0.07332819,0.2026007
0.763843,-0.007670594,0.2145536
0.8488511,-0.1311325,0.1574349
0.9870034,-0.2355433,0.08369744
1.125484,-0.3647942,0.08951468
1.300169,-0.5164659,0.08744612
1.359352,-0.4726605,0.07192236
1.434728,-0.1885063,0.1208772
1.741213,0.08933012,0.1472143
1.794923,0.2628105,0.1600835
1.514061,0.2429837,0.2917433
1.396878,0.1416067,0.4377859
1.352609,0.1626605,0.395356
1.198753,0.08769253,0.2368568
0.9878669,-0.006865466,0.1341034
0.8667452,0.01587471,0.08310358
0.8961595,-0.02024539,0.08916375
0.7890237,-0.0373,0.09254982
0.6986065,-0.05765008,0.01233972
0.7766334,-0.07871013,-0.01828875
0.8086975,-0.06311149,-0.02312782
0.8972654,-0.1160896,-0.05432835
0.9258548,-0.1059661,-0.006830036
0.8397977,-0.05268943,0.06362476
0.7742869,-0.004085592,0.1080717
0.6545655,0.06851345,0.1165655
0.6336922,0.04668859,0.1067159
0.7097753,0.01673074,0.1351309
0.7699506,0.005267701,0.1523214
0.8450388,-0.04112249,0.1534984
0.8727477,-0.05324595,0.1486826
0.8801701,-0.04583794,0.1322962
0.8552976,-0.02657459,0.117317
0.8050577,-0.009245661,0.1119179
0.7985575,-0.009154747,0.1112353
0.8367443,-0.03332317,0.03610255
0.9310006,-0.103272,-0.0588732
1.055016,-0.1868275,-0.04588229
1.244594,-0.2991589,0.07682159
1.437381,-0.3703423,0.258824
1.553122,-0.3295406,0.4455359
1.702155,-0.2730112,0.580204
1.792478,-0.1341269,0.4865342
1.764204,0.08963917,0.2488147
1.700654,0.1416385,0.2024921
1.488101,0.05407694,0.2470462
1.203765,0.009071755,0.2738455
0.971994,-0.04503501,0.337531
0.7242071,-0.08270191,0.3142025
0.5809369,-0.03515636,0.2594359
0.5684451,-0.001755306,0.2130488
0.6019465,0.005586536,0.1308845
0.6734205,0.0128864,0.0981072
0.6667915,-0.03561617,0.09157979
0.61142,-0.08724011,0.1264431
0.5755035,-0.08923734,0.1821038
0.5768639,-0.08820555,0.1551676
0.6763372,-0.1261399,0.1030891
0.7524638,-0.1920042,0.06864836
0.7540432,-0.1970278,0.1028206
0.7439265,-0.1023681,0.2077901
0.7563415,0.03461869,0.2755575
0.8129265,0.1200768,0.3027531
0.8739534,0.0975237,0.2711556
0.9635901,0.03689758,0.1726223
1.048252,-0.05748565,0.07958447
1.185138,-0.2578686,0.04768697
1.412521,-0.4531162,0.08605187
1.529837,-0.4306437,0.1132808
1.67372,-0.1477229,0.1332699
1.81509,0.163845,0.1609992
1.645646,0.2558993,0.1975229
1.445959,0.190572,0.3583346
1.351135,0.1431387,0.4646185
1.222422,0.09170653,0.3424775
1.14515,0.03934829,0.1933216
0.9744241,0.05340777,0.07546486
0.7839901,0.03240858,0.01014644
0.7829142,-0.02165284,0.04500242
0.7416221,-0.05767531,0.05117238
0.7141037,-0.1136193,0.03439791
0.8255038,-0.09901333,0.04535435
0.8545767,-0.04934934,0.03366003
0.804416,-0.005395031,0.0335695
0.7495144,0.07103566,0.06761045
0.7175625,0.07197101,0.109159
0.7511557,0.03802299,0.1789271
0.7656592,0.02390032,0.2286852
0.7797433,0.01386985,0.1869852
0.8176891,0.01800752,0.1270488
0.8396623,-0.01290759,0.1074302
0.868902,-0.01509235,0.1006946
0.879439,-0.02445039,0.1208118
0.8859718,-0.07724813,0.1462782
0.8908598,-0.04933236,0.129311
0.8582869,-0.006368888,0.1062971
0.8448683,-0.002676719,0.08008539
0.8603359,-0.04745141,0.008899415
0.9061005,-0.1714758,-0.05557015
1.026219,-0.2758273,-0.02949973
1.201649,-0.3395062,0.09914527
1.400554,-0.3303072,0.2914775
1.603513,-0.2126305,0.4521234
1.769023,-0.07355961,0.4361619
1.827766,0.06193904,0.2879628
1.756177,0.1028614,0.195099
1.618495,0.02955829,0.1820032
1.432717,-0.01709718,0.2222884
1.161922,-0.06784347,0.2457647
0.8857492,-0.1131758,0.2149626
0.7101007,-0.09396604,0.2187906
0.6281244,-0.05952323,0.2045174
0.6349904,0.007887009,0.1796155
0.6737445,0.04622759,0.1763996
0.6639714,0.01371137,0.124638
0.6204886,-0.01062039,0.1132862
0.5518416,-0.05063045,0.1381568
0.5394475,-0.1057597,0.1359072
0.617775,-0.1505167,0.1258211
0.692847,-0.2006054,0.09777875
0.7453844,-0.220263,0.1089086
0.7354356,-0.1915762,0.1562169
0.7103099,-0.1074611,0.2251723
0.742977,0.007520399,0.2817164
0.761132,0.06225988,0.2423699
0.8150647,0.02622364,0.1793064
0.9299956,-0.09106114,0.0841512
1.114233,-0.2845734,-0.02541887
1.436044,-0.4452049,0.00559528
1.734152,-0.4439697,0.04501386
1.890831,-0.2589301,0.006151719
1.910079,0.01188026,0.04198344
1.790147,0.1091737,0.1249698
1.548913,0.01745878,0.3047321
1.234731,0.01843724,0.5440021
1.18909,0.0488249,0.4784536
1.283765,0.03895224,0.254413
1.041121,0.1375263,0.1267317
0.8933188,0.1965649,-0.02716603
0.9388731,0.1406698,0.00200652
0.7699508,0.08971232,0.1083392
0.7050148,0.03445034,0.05231503
0.7665294,-0.01593808,0.1190406
0.7835447,-0.05856961,0.115607
0.8821188,-0.08148725,0.01075347
0.916214,-0.05446656,0.0826733
0.8944701,-0.006497126,0.06014232
0.8655286,0.0735563,0.03535905
0.7948093,0.1467152,0.100583
0.8109336,0.1356486,0.09888657
0.8609554,0.0743224,0.1738831
0.8770553,0.005681764,0.2070827
0.8876312,-0.04362075,0.2045266
0.8714962,-0.01597375,0.2551573
0.8620938,0.0408456,0.2299984
0.8722404,0.06390217,0.2392865
0.8706511,0.08768836,0.2626816
0.8683981,0.09481078,0.2427256
0.8731502,0.09653891,0.2283834
0.8849612,0.08227571,0.1443679
0.9535356,-0.03663779,0.03957837
1.100142,-0.2478794,0.01706541
1.27405,-0.5162823,0.1039574
1.422144,-0.6964427,0.2440413
1.525892,-0.6424928,0.3570016
1.581144,-0.4017785,0.3738421
1.572508,-0.0343585,0.250963
1.526933,0.1936627,0.1221997
1.469604,0.1310859,0.0821253
1.383857,0.0466355,0.1214088
1.24301,-0.05023498,0.2070246
1.055247,-0.1881514,0.2519723
0.9248141,-0.1566194,0.2435687
0.81437,-0.07343095,0.1806966
0.6867268,-0.06002757,0.1195886
0.7161931,-0.03203557,0.09307377
0.791453,-0.04694539,0.04471351
0.7901845,-0.07235399,0.04873914
0.8285421,-0.0849238,0.1016932
0.8160175,-0.1372096,0.1443354
0.7946955,-0.1353377,0.2125214
0.823592,-0.1304133,0.273501
0.7824163,-0.1511108,0.2686102
0.7489274,-0.104484,0.2044902
0.7043371,-0.06894551,0.166957
0.6606348,-0.05605232,0.1487121
0.6898288,-0.06069887,0.1310262
0.6784071,-0.08616029,0.1671448
0.6929164,-0.04989754,0.1811688
0.7398189,-0.01711321,0.1926459
0.7696314,-0.005927723,0.2204677
0.8527724,0.01078169,0.1896338
0.8922739,-0.01990851,0.169046
0.89938,-0.08456332,0.1541396
0.9655281,-0.2262093,0.09826563
1.127901,-0.4227606,0.01277036
1.409077,-0.5584312,-0.06177764
1.638928,-0.5886914,-0.07187347
1.768286,-0.401144,-0.06191387
1.813174,-0.03327694,0.03191535
1.639705,0.2185834,0.2303098
1.4212,0.2472757,0.3694984
1.400268,0.1942606,0.4005453
1.343465,0.1121741,0.2935017
1.10866,-0.008458386,0.113274
0.9475858,-0.04488356,0.06174728
0.8530005,0.005389838,0.0831283
0.7115262,-0.009777387,0.05544169
0.6787661,-0.02700059,0.05288338
0.7646767,-0.0001466426,0.05744393
0.8554527,-0.01542208,0.004016509
0.9430159,-0.01027307,-0.04230844
1.004066,0.009133731,-0.0448503
1.004898,0.002770994,-0.00583628
0.9675263,0.01719716,0.06815657
0.9219733,0.01340763,0.1376612
0.8905415,0.01054739,0.1695953
0.9056075,0.01652001,0.1642568
0.9162945,-0.0030868,0.1701887
0.9028824,-0.02225284,0.1652199
0.9165126,-0.05866997,0.1133173
0.9096618,-0.06270392,0.08153651
0.8805647,-0.03458111,0.05662841
0.8568804,-0.04272478,0.02594625
0.8249574,-0.04306865,0.06496655
0.8104293,-0.05790366,0.1515326
0.8092529,-0.08113183,0.2143215
0.8329936,-0.04314157,0.212828
0.8540167,0.02087736,0.1812909
0.8139434,0.08345096,0.1772298
0.7631291,0.1151624,0.1537728
0.7421546,0.09216286,0.1131325
0.7576259,0.03307688,0.05347521
0.8258408,-0.08982053,-0.07647267
0.9657111,-0.2645359,-0.1250614
1.180796,-0.3980528,0.01345928
1.431804,-0.4386205,0.2347928
1.686573,-0.4034052,0.4504758
1.867468,-0.2980894,0.4956641
1.910524,-0.1289133,0.3117191
1.815772,-0.009519932,0.1851136
1.601826,-0.009999945,0.2587791
1.377506,-0.02033789,0.3235299
1.162422,-0.005440189,0.3161756
0.9154954,-0.005301187,0.3351041
0.7077027,0.03032967,0.2946827
0.5711394,0.09160896,0.1800436
0.5463683,0.1135163,0.1018371
0.6196268,0.0679452,0.05212612
0.7011509,-0.0297407,0.06788752
0.7547502,-0.1250975,0.1474011
0.7210436,-0.1750414,0.2324207
0.6815344,-0.1551702,0.2922621
0.7219051,-0.1430701,0.2066887
0.7700865,-0.176693,0.07017194
0.8510249,-0.191946,0.03270192
0.9055572,-0.206415,0.0350145
0.865529,-0.1655388,0.1115457
0.8576209,-0.06120074,0.2201554
0.8583664,0.04374049,0.253768
0.8311213,0.1741361,0.245052
0.8894773,0.1691454,0.2301962
0.962838,0.08004541,0.23709
0.9649179,0.09296614,0.2257815
1.02771,-0.08696137,0.1694665
1.194752,-0.3907371,0.1012324
1.297848,-0.4189131,0.05612286
1.284901,-0.342665,0.05248159
1.345178,-0.3173264,0.01675079
1.502156,-0.2314487,-0.002281756
1.673814,-0.06371944,0.004328483
1.828012,0.1011188,-0.01357439
1.604952,0.1099876,0.1527218
1.157239,0.0783334,0.349254
1.127494,0.1422467,0.2621841
1.152513,0.1289218,0.178375
0.9943902,0.08711147,0.1813094
0.9888601,0.09778056,0.04769818
0.8972304,0.02395236,-0.008871896
0.8092096,-0.03338952,0.05743455
0.8303973,-0.05597121,0.02264988
0.7623581,-0.1126634,0.01880867
0.8421847,-0.08173808,0.05424872
0.937972,-0.04764047,0.02910709
0.9389955,-0.00119163,0.05498841
0.967672,0.1350388,0.07034261
0.8918882,0.2025813,0.07211253
0.8514904,0.201449,0.1048108
0.8361211,0.1237067,0.1081617
0.7828115,-0.01138279,0.1499032
0.7913172,-0.06231685,0.1794764
0.7942696,-0.06853041,0.1503284
0.8394919,-0.05719496,0.1036483
0.8549539,-0.03533466,0.03639004
0.8136234,-0.02736476,0.03910848
0.8011858,-0.01837473,0.09737824
0.7549305,-0.02774396,0.1470409
0.7386858,-0.02814146,0.1622117
0.7441462,-0.03506543,0.08600633
0.8172232,-0.115255,-0.0209409
1.065834,-0.2728293,-0.06024973
1.293799,-0.3896159,0.0253503
1.366223,-0.3619683,0.1864171
1.452716,-0.3407349,0.345113
1.649681,-0.3208804,0.4575815
1.742171,-0.1218753,0.3856368
1.753944,0.08415753,0.2273833
1.773614,0.1374863,0.1862421
1.590112,0.1071902,0.1865063
1.344045,0.03894982,0.206037
1.138533,-0.01814752,0.2310726
0.9255496,-0.07513686,0.2097067
0.8391987,-0.09711108,0.1884532
0.7888116,-0.06901879,0.1224093
0.7735004,-0.06374499,0.06214786
0.7708304,-0.0181131,0.05005338
0.7099917,0.02140188,0.01377834
0.7305565,0.0004861891,0.03248872
0.7528929,-0.01831749,0.0770856
0.7571738,-0.1016023,0.1163649
0.7544648,-0.1789312,0.2138323
0.7096684,-0.1655226,0.2442658
0.7501952,-0.1511079,0.1758443
0.810042,-0.1553146,0.1319193
0.8723002,-0.1653453,0.1654607
0.9269592,-0.1598255,0.2230167
0.8835412,-0.1124804,0.23788
0.8614991,-0.02187798,0.2354328
0.8381501,0.06264843,0.226526
0.7884686,0.09428853,0.2361628
0.7894865,0.09224442,0.2538005
0.7989797,0.02166027,0.2187837
0.9137655,-0.1073128,0.1484218
1.174478,-0.2695637,0.04579372
1.41764,-0.4648238,-0.003522051
1.62016,-0.5223646,0.01560469
1.82757,-0.3489195,-0.03455523
1.889895,-0.1169917,-0.0547694
1.642845,-0.005322991,0.07077128
1.289444,-0.001486236,0.27704
1.150683,0.002344561,0.4082843
1.148347,0.01236439,0.3175411
1.093076,0.002389236,0.2057547
1.037934,0.001547496,0.1589045
0.9937291,0.005080384,0.01512571
0.9056316,-0.0094471,-0.02015261
0.8224055,-0.02496777,0.03403933
0.7957514,-0.03901369,-0.02652992
0.8413598,-0.05527321,0.01814769
0.8926952,-0.06342826,0.08319416
0.9169992,-0.05926914,0.04497994
0.9773921,-0.01007874,0.06048581
1.037874,0.0669956,0.008427748
1.055911,0.1018424,-0.0285502
1.017397,0.08230785,0.0394571
0.9666993,0.04545797,0.07089459
0.9746503,0.006049403,0.1214709
0.9590619,-0.06307543,0.1262197
0.9373257,-0.0997935,0.095033
0.9385485,-0.07452612,0.104004
0.8984125,-0.07937209,0.0750709
0.8648321,-0.09270092,0.0722957
0.8333924,-0.08804349,0.09684395
0.8163981,-0.08042378,0.1231911
0.8228484,-0.04345226,0.1386123
0.8120707,-0.01475182,0.1241834
0.8235241,-0.01313011,0.1567837
0.8357367,-0.01662662,0.1828946
0.8665501,-0.004373337,0.1956836
0.8984692,0.05139878,0.208438
0.8455169,0.1506186,0.1754425
0.7884958,0.2372491,0.1714637
0.7691423,0.2196477,0.1665682
0.7754593,0.1384793,0.1057238
0.8731992,0.01974637,0.0118061
1.098969,-0.2591202,-0.07348961
1.348019,-0.6138065,-0.06301402
1.465823,-0.7937931,0.07146056
1.554252,-0.7336452,0.3151645
1.710786,-0.5097275,0.4464511
1.765207,-0.1903044,0.297306
1.700947,0.05753927,0.1451655
1.613986,0.07624449,0.144122
1.423773,0.01200391,0.2135029
1.175459,-0.02787277,0.2999838
1.007743,-0.07175755,0.2769885
0.8521909,-0.02190856,0.2042628
0.7199095,0.07101947,0.1638357
0.7034145,0.1024966,0.08370974
0.7425809,0.06348016,0.0764649
0.7882857,-0.05582558,0.1307592
0.7978159,-0.1417644,0.138452
0.7876865,-0.149769,0.1914414
0.8203384,-0.1433614,0.2180847
0.8678792,-0.1415719,0.1814158
0.9549169,-0.1384407,0.1795268
1.04172,-0.1256153,0.1718712
1.030573,-0.1254528,0.1849188
0.9181619,-0.09629718,0.2202972
0.7560819,-0.04896364,0.2358177
0.7115433,-0.04444105,0.2434188
0.7801456,-0.06337708,0.1734337
0.814158,-0.1257891,0.06909869
0.851685,-0.18739,0.05478075
0.8598889,-0.1899725,0.111662
0.8309204,-0.1479051,0.171354
0.866205,-0.0664864,0.2023726
0.8859954,0.0144751,0.1907763
0.8666597,0.08696437,0.1580623
0.8471916,0.1375751,0.1578504
0.783205,0.1647751,0.1744201
0.7744242,0.1478878,0.1716482
0.8792128,-0.01331159,0.1249971
0.9996117,-0.2104945,0.04691945
1.145504,-0.3258246,0.01230222
1.326373,-0.4541704,-0.03289692
1.417764,-0.4833272,-0.05788794
1.510623,-0.3210335,0.03331435
1.748169,-0.18418,0.09117857
1.780692,-0.05278651,0.1374246
1.512029,0.1087044,0.287298
1.316963,0.1531076,0.3808734
1.201181,0.1758765,0.331072
1.124133,0.1037225,0.219165
1.036453,-0.0674134,0.1226476
0.8793937,-0.1324697,0.09220048
0.8181133,-0.2240385,0.1184793
0.7629281,-0.2720231,0.1092018
0.7487585,-0.2168838,0.05498686
0.8257262,-0.1903673,0.03862846
0.8258139,-0.08932851,0.03070002
0.8519733,0.01839261,0.03149106
0.8732389,0.1180854,0.02703596
0.8573908,0.2018977,-0.01576353
0.8270137,0.1260506,-0.00134129
0.7021436,0.01682315,0.06479859
0.6720445,-0.08151565,0.157356
0.7818246,-0.1273117,0.2132155
0.9066364,-0.06523706,0.166916
0.9496473,-0.06033176,0.1446936
0.8772844,-0.05468202,0.131348
0.828461,0.002148087,0.1204983
0.7768519,0.009847992,0.1788248
0.7463864,0.02568427,0.2116917
0.7876566,0.0365432,0.2019861
0.8021981,0.02617519,0.1163575
0.8872452,-0.01480941,-0.03264766
1.081628,-0.1773473,-0.06892476
1.291023,-0.379606,0.01572691
1.457833,-0.516578,0.1477865
1.556097,-0.5198633,0.3238684
1.66197,-0.3705826,0.4355251
1.754833,-0.164279,0.3512183
1.761959,0.03308102,0.2157087
1.688109,0.07364599,0.1522451
1.556724,0.00838789,0.0769406
1.380369,-0.0142966,0.1297242
1.065275,-0.1008254,0.267251
0.7494153,-0.1181992,0.2466038
0.6749357,-0.02943092,0.2138039
0.6103955,-0.009221697,0.1731372
0.5306384,0.05223088,0.06565251
0.6740053,0.07587595,0.04418578
0.7919407,-0.005746024,0.05608201
0.8030277,-0.04243551,0.09297951
0.8101812,-0.07910243,0.1634918
0.6969053,-0.1142005,0.2181329
0.5976657,-0.1348625,0.2787038
0.5995489,-0.1528472,0.2261916
0.6799434,-0.1558013,0.07865041
0.7991888,-0.2024836,0.01084473
0.7953983,-0.1983829,0.07156843
0.8091554,-0.1114726,0.1941187
0.8933007,-0.0176463,0.2304123
0.9409023,0.07332321,0.192309
1.006494,0.08530128,0.1637519
1.002752,0.02260057,0.1151724
1.011571,-0.07617021,0.04484874
1.198759,-0.2263153,-0.02643254
1.3605,-0.3730194,-0.07187774
1.335094,-0.390752,-0.04171205
1.380966,-0.3064123,0.0650922
1.690034,-0.2423282,0.1215281
1.85766,-0.06231014,0.09613961
1.634405,0.09719897,0.1361971
1.314834,0.09005741,0.2408994
1.083014,0.1699507,0.3138586
1.019667,0.1219425,0.2471291
1.072397,-0.01914958,0.05844906
1.014175,0.01555815,-0.04544418
0.8791616,-0.05060087,-0.06110032
0.7977884,-0.1270683,-0.05097897
0.7542826,-0.1554587,-0.03482216
0.7590348,-0.2108866,-0.04239992
0.7924307,-0.1335493,-0.002203064
0.7994289,-0.06213725,0.04468327
0.7928385,0.04219588,0.06641658
0.775449,0.1713635,0.04433294
0.7665143,0.1462136,-0.03620838
0.7707622,0.07462465,-0.01214197
0.7731663,-0.03176147,0.1104676
0.8130151,-0.08258347,0.207341
0.871664,-0.02450142,0.1902106
0.9157289,-0.00324209,0.1041041
0.8732265,0.006484698,0.1130718
0.7484055,0.01292936,0.1006075
0.6991366,-0.02866554,0.05152108
0.6899441,-0.1458035,0.02205642
0.7785189,-0.3150199,-0.06596478
1.080987,-0.4254404,-0.02753817
1.40632,-0.4775837,0.1632969
1.659095,-0.5217523,0.3727818
1.779613,-0.4790558,0.4580427
1.822422,-0.2371965,0.2962558
1.915849,0.05577134,0.1727586
1.805824,0.1522573,0.1162671
1.56313,0.143348,0.02921669
1.438419,0.1423611,0.1154795
1.21718,0.0655616,0.2398716
0.944814,-0.002822414,0.2983693
0.7924355,-0.03762488,0.3225363
0.6849805,-0.09901128,0.2332936
0.6670367,-0.03862762,0.1266895
0.7070655,0.04629326,0.03929236
0.7056582,0.03254718,0.008353436
0.6611113,0.01784532,0.06505272
0.5554262,-0.05323194,0.09993091
0.4858401,-0.1057872,0.1199813
0.5485385,-0.1564715,0.08763032
0.6353247,-0.2785357,0.02537815
0.7052879,-0.338734,0.06113265
0.8058386,-0.4005664,0.1081284
0.7884117,-0.2918044,0.1455907
0.6927149,0.03239102,0.2007371
0.7476171,0.1724656,0.183645
0.810799,0.1828322,0.1350127
0.9208047,0.1081383,0.05883815
1.238054,-0.1312039,-0.02557759
1.492807,-0.3351821,0.02540895
1.637655,-0.4231753,0.1030768
1.749973,-0.2560709,0.1294597
1.760527,0.07894505,0.2199724
1.661409,0.2161682,0.2664343
1.485387,0.19899,0.2356259
1.428592,0.1188728,0.248366
1.380361,0.01623985,0.2236585
1.169674,-0.02306014,0.1331571
0.9994861,-0.07526065,0.069671
0.8790941,-0.0938291,0.05744093
0.7854306,-0.08700811,0.07606736
0.7021249,-0.1142406,0.07317159
0.6772595,-0.09077772,0.05911811
0.8045382,-0.07366708,0.04443191
0.8442854,-0.07410264,0.002734952
0.8479638,-0.04089689,-0.003601268
0.9024778,-0.01686147,0.03362882
0.8666133,0.01263847,0.0752753
0.8385905,0.0452343,0.1271749
0.7882456,0.05305857,0.1398162
0.7696582,0.02511149,0.115308
0.8180384,-0.006452573,0.1036904
0.8018094,0.008243895,0.0856006
0.8441027,0.01437773,0.07497989
0.8954642,-0.01035659,0.08673817
0.8834856,-0.01812392,0.09066318
0.862798,-0.01716418,0.09058018
0.7978323,-0.02100492,0.07359188
0.7865774,-0.03507418,0.03031958
0.8439727,-0.08509294,-0.001915709
0.6372126,0.07160495,0.1999624
0.7155997,0.03404425,0.227633
0.7866608,0.003646449,0.2790147
0.8928018,-0.03402831,0.2492469
1.166168,-0.2803593,0.1141563
1.590832,-0.5128498,0.04892426
1.825496,-0.4121017,0.1581301
1.867559,-0.1616576,0.2789773
1.939629,0.06714792,0.189549
1.855704,0.2760052,0.1262185
1.641618,0.2736364,0.3066569
1.460224,0.1957251,0.4357013
1.330595,0.2243504,0.4271767
1.333754,0.07351834,0.3826798
1.236272,0.005310836,0.2624155
1.061278,0.11926,0.1237352
0.9420418,0.02260231,0.06471815
0.731091,-0.01304284,0.1046246
0.6642559,-0.01859524,0.09404647
0.6695953,-0.08693345,0.02474108
0.6454711,-0.0005164572,0.01153815
0.7429766,0.000773656,-0.0232726
0.7248007,0.008975597,-0.005786377
0.6875679,0.06029321,0.04436352
0.6872477,0.01731351,0.03891029
0.6486372,0.032818,0.108989
0.6862462,0.007206677,0.1565196
0.6621316,-4.498574e-05,0.1358766
0.6836377,0.02649101,0.1278162
0.7585112,-0.01937014,0.1028338
0.75751,-0.01808548,0.1146969
0.7815873,-0.05451162,0.1165334
0.7802251,-0.1297476,0.07021895
0.8966436,-0.2237508,0.03270439
1.179848,-0.3476361,0.03983043
1.482326,-0.3507805,0.2027687
1.766586,-0.3324086,0.4986563
1.900337,-0.3263869,0.6497695
1.970826,-0.1948652,0.4598623
1.991718,-0.02833493,0.2419121
1.796167,0.009674725,0.2764687
1.483315,-0.04139144,0.3038426
1.207841,-0.05619872,0.3245828
1.038193,-0.1102473,0.4455912
0.8264943,-0.1527577,0.4404742
0.5688678,-0.05512371,0.3398999
0.4903133,0.02975987,0.2245256
0.468292,0.05869084,0.08859743
0.5055434,0.04587168,0.04747236
0.651528,-0.02603997,0.06377926
0.6623004,-0.07690003,0.1021897
0.6145911,-0.1126012,0.1708996
0.5804943,-0.100752,0.1957213
0.5273328,-0.07790587,0.1661238
0.5660758,-0.1039102,0.07330347
0.6091207,-0.1110993,-0.01689813
0.6558345,-0.1380628,0.04267275
0.7209552,-0.1304467,0.2054415
0.7290432,-0.08105299,0.3233931
0.7918014,-0.1030251,0.3348352
0.9271643,-0.1350689,0.1782733
1.174491,-0.2064463,-0.0643514
1.585694,-0.2949799,-0.1353392
1.918769,-0.2686626,-0.001536957
1.956028,-0.1231568,0.1541643
1.807808,0.1273417,0.2492016
1.656833,0.2799733,0.3469604
1.48674,0.2302964,0.4197103
1.398871,0.1805267,0.3492991
1.392248,0.1151178,0.2283978
1.213981,-0.006978046,0.1327767
1.006559,-0.04882064,0.06503503
0.8622174,-0.05813643,0.09126253
0.6967404,-0.09388409,0.1044565
0.6632439,-0.08363807,0.07703442
0.6826582,-0.05649624,0.0585221
0.7103509,-0.0320781,-0.0136973
0.7930447,0.008956637,-0.03413859
0.7718977,0.03948936,0.03990218
0.6993397,0.09117687,0.1000288
0.6532603,0.1315676,0.1271886
0.6459415,0.1162783,0.1150985
0.6969303,0.08094512,0.115534
0.7039044,0.01250607,0.1470345
0.701696,-0.01785051,0.1480508
0.7270814,-0.007570276,0.1496943
0.7552261,-0.06697599,0.1730511
0.7942509,-0.1048469,0.1889417
0.7971144,-0.08334849,0.1682283
0.822547,-0.09985707,0.1152183
0.8904992,-0.1353535,0.09869361
1.021818,-0.1802572,0.1211409
1.309829,-0.2624694,0.2070908
1.58313,-0.3201532,0.4321001
1.762112,-0.2870382,0.598849
1.908983,-0.1527261,0.4486521
1.873068,0.07759855,0.1969374
1.736855,0.2554128,0.09765683
1.639341,0.2293687,0.05953452
1.410901,0.06521251,0.1813717
1.136211,-0.1122594,0.3883275
1.050589,-0.1359952,0.3474382
0.9531542,-0.09887295,0.3051432
0.6724674,-0.1827371,0.3643767
0.576446,-0.1127926,0.2780365
0.6546441,0.05478356,0.1572096
0.5530278,0.04041017,0.04488985
0.5497079,0.007140767,0.004090834
0.5930429,-0.03958334,0.08767365
0.4855013,-0.09112418,0.1205087
0.548196,-0.09607054,0.1411008
0.6390564,-0.1657281,0.121292
0.7244339,-0.1923878,0.05525543
0.8085126,-0.1608419,0.1044344
0.6869284,-0.09772465,0.1662658
0.6654096,0.02634535,0.2104917
0.7039943,0.05687262,0.2455573
0.7449942,-0.008213514,0.1796131
0.9941331,-0.123805,0.1208043
1.288186,-0.3300742,0.09888561
1.54348,-0.4744741,0.0901149
1.690048,-0.3728808,0.1151831
1.802056,-0.1306714,0.1107644
1.767835,0.08590432,0.1504621
1.438675,0.2502246,0.293377
1.344045,0.2613034,0.4325834
1.375007,0.1934992,0.4265337
1.263022,0.1779005,0.2592808
1.258583,0.151307,0.106342
1.117671,0.1463762,0.01839584
0.9367301,0.09477417,0.02159684
0.8775364,0.01182937,0.1054097
0.751488,0.007756643,0.107828
0.7465362,-0.00261203,0.09333265
0.7814617,0.0238703,0.06471904
0.8156263,0.05128015,-0.02229467
0.9173275,0.04166025,-0.04274159
0.8537546,0.06152453,-0.02154505
0.7512568,0.05382509,0.04503556
0.7188684,0.08035072,0.1078153
0.7212493,0.1090096,0.1110201
0.797633,0.09993865,0.1369874
0.8440144,0.1090463,0.1313065
0.8703099,0.05858605,0.1247303
0.8691796,0.003846172,0.1568638
0.8423161,-0.0245637,0.1859942
0.8444126,-0.04395758,0.2418089
0.795403,-0.0138675,0.2911854
0.7767887,0.02320843,0.2993073
0.8364016,0.05807232,0.1946629
0.8942686,-0.0240261,-0.01259344
1.023426,-0.2637751,-0.161245
1.238732,-0.5028531,-0.1616092
1.444914,-0.668374,0.03166717
1.561618,-0.6621591,0.3577824
1.642126,-0.4237727,0.5347443
1.735962,-0.03565237,0.3129448
1.68758,0.2671005,0.00253613
1.575362,0.2802971,-0.02647141
1.53507,0.1620497,-0.007100472
1.372483,-0.01705419,0.05109255
1.111672,-0.2551821,0.2278944
0.9132574,-0.2592575,0.2359221
0.729937,-0.09644553,0.1494274
0.6099619,-0.0514201,0.09632896
0.6482098,-0.04909726,0.02051638
0.7620396,-0.07934511,0.0006830636
0.8065898,-0.1639404,0.0417984
0.7842143,-0.1947625,0.1358153
0.7608223,-0.1951328,0.2168002
0.7381195,-0.1561146,0.2194413
0.7351713,-0.09598411,0.195474
0.7225629,-0.08775368,0.1546806
0.6949225,-0.05605382,0.141234
0.6772489,-0.01480093,0.1229088
0.6549029,-0.02145428,0.09168795
0.6811767,-0.05385904,0.1487159
0.7134253,-0.1087585,0.2349342
0.7214071,-0.1319547,0.2656266
0.7715283,-0.09458457,0.2235399
0.8165287,-0.03164993,0.1592679
0.8421672,-0.001392056,0.1138514
0.8617477,-0.05787836,0.01689533
0.9158649,-0.2028871,-0.1060623
1.091203,-0.4034896,-0.1909225
1.385893,-0.5714292,-0.1895178
1.751037,-0.6083356,-0.07077326
1.934019,-0.4107377,0.04321888
1.766543,-0.03613178,0.1228894
1.568127,0.1690788,0.2845513
1.487928,0.09257252,0.4070459
1.388056,-0.008488703,0.2677646
1.366006,-0.03537062,0.0842943
1.332706,-0.03625789,0.09371527
1.140114,-0.01734433,0.07212938
0.9554944,-0.03288829,0.03879916
0.7250454,-0.05564097,0.1049069
0.5995652,-0.03765772,0.08744883
0.7211696,-0.035522,0.06283167
0.6635821,-0.01692678,0.03971928
0.6194961,0.0127851,-0.03637623
0.774996,0.01967461,-0.005518654
0.7973288,0.06310406,0.0123351
0.8327108,0.0838099,-0.0005652958
0.7714631,0.0778657,0.09535574
0.6306395,0.1041261,0.1607858
0.7145258,0.08879485,0.1333174
0.7135114,0.04309903,0.1167383
0.6706817,0.02919754,0.1859508
0.7252697,0.05076196,0.2442111
0.7318326,0.07726209,0.1938546
0.8208361,0.04251589,0.09137428
0.8881178,-0.04639978,-0.05586614
0.9035671,-0.1855024,-0.1271089
1.049844,-0.396746,-0.06917759
1.244876,-0.5498825,0.007252828
1.429244,-0.4997269,0.2416292
1.654247,-0.3447961,0.5963434
1.833372,-0.2096941,0.6846403
1.829023,-0.03322264,0.4382151
1.797614,0.1214025,0.1667251
1.719739,0.1251999,0.1007974
1.387929,0.03958774,0.1845489
1.063235,-0.06605921,0.2782136
0.8365236,-0.1136692,0.3368342
0.6445054,-0.08705689,0.3222498
0.5992233,-0.04658127,0.2545985
0.5524089,0.03241203,0.1997351
0.4877327,0.0680431,0.1193658
0.4628314,0.01428348,0.04638008
0.4284917,-0.03869501,0.05185483
0.4643841,-0.09822271,0.05080732
0.5563547,-0.1716718,0.03150054
0.7119513,-0.2568468,0.04416354
0.8285181,-0.3318796,0.09865387
0.7722903,-0.3115016,0.1979193
0.7195035,-0.1882821,0.229631
0.6806913,-0.03973513,0.1931498
0.6836693,0.007856512,0.1708216
0.9604077,-0.08645831,0.0660844
1.31964,-0.1968364,-0.06257709
1.447057,-0.2446988,-0.02826456
1.58946,-0.2172776,0.05454638
1.927424,-0.1154919,0.08189345
1.935564,-0.03765459,0.1844059
1.556939,0.02407252,0.3360825
1.351174,0.1643891,0.478173
1.273772,0.2680728,0.5228745
1.239653,0.2390232,0.3279332
1.238461,0.2103378,0.1437906
1.081702,0.2036394,0.07089311
0.9338644,0.09531044,0.0134505
0.7919991,-0.01228199,0.07864471
0.6751274,-0.03225153,0.1064509
0.7066274,-0.05394424,0.07626442
0.7256691,-0.03320789,0.06843892
0.7825341,0.01218681,0.001003818
0.7938128,0.05353124,0.01764713
0.7144559,0.1462024,0.03639779
0.7153489,0.1805393,0.00801533
0.7140861,0.1383522,0.08550577
0.7378026,0.1134793,0.1583071
0.7484877,0.1007294,0.1813933
0.7400702,0.04803587,0.1563836
0.8049866,-0.02794084,0.1173472
0.8200868,-0.03742978,0.1153863
0.8287888,-0.05966158,0.07328686
0.8090096,-0.1486054,0.02490585
0.7594235,-0.2335061,-0.02806185
0.8533192,-0.3504233,-0.04957941
1.054289,-0.451522,0.0780189
1.358916,-0.4854185,0.3102898
1.672851,-0.4866405,0.5506707
1.86361,-0.380718,0.6073623
1.967017,-0.1408854,0.4186382
1.912429,0.1103627,0.2178967
1.744561,0.2145208,0.1170659
1.496777,0.1577412,0.1214192
1.127286,0.06399337,0.2293749
0.8520953,-0.0386299,0.31371
0.6933877,-0.09634953,0.2818226
0.5459903,-0.04493018,0.2019281
0.5286247,-0.001856885,0.125235
0.5782757,0.00686437,0.02562023
0.6131826,0.001868037,-0.000249864
0.6788924,-0.0799992,0.06794949
0.6991524,-0.1421764,0.1211314
0.6894274,-0.1466819,0.1931964
0.6895526,-0.1593983,0.208745
0.6787098,-0.1577113,0.1345783
0.719404,-0.1665856,0.1274632
0.771898,-0.1618191,0.1522385
0.762426,-0.1205111,0.1882162
0.7582487,-0.06988349,0.236141
0.786049,0.003878249,0.2326488
0.7891855,0.03223598,0.2329393
0.7687066,0.01532659,0.2126561
0.7958038,-0.04690617,0.1290156
0.9849072,-0.2405199,-0.01689732
1.294379,-0.4309599,-0.1506836
1.530413,-0.4313955,-0.1016975
1.78813,-0.3200861,0.01660024
2.006077,-0.2159577,0.07451899
1.807433,-0.04400547,0.1899386
1.504746,0.1365034,0.3493944
1.449057,0.1981061,0.4245277
1.382464,0.2250528,0.3104644
1.286131,0.187731,0.110579
1.098999,0.107973,0.03391385
0.8091251,0.06740699,0.006564068
0.6921293,0.003595928,0.005633489
0.6276086,-0.009601744,0.03955231
0.5925781,0.001126011,-0.007824887
0.6626345,-0.02183841,-0.02138439
0.7399511,-0.02761979,0.003677202
0.8832176,-0.0605896,-0.009911258
0.9028741,-0.05020552,0.01783234
0.7992295,0.008406208,0.04338987
0.786044,0.06850565,0.0900239
0.7370898,0.1320468,0.1395428
0.7284941,0.07368677,0.147561
0.7506603,-0.0249298,0.2247445
0.7006911,-0.04429651,0.2725305
0.7769677,-0.04049507,0.2460374
0.892412,-0.01442514,0.2599567
0.9090691,0.0037687,0.254795
0.9019089,0.04595614,0.180484
0.8694883,0.09571551,0.06510333
0.8751049,-0.001093935,-0.0609853
0.9975465,-0.2265126,-0.1418043
1.252299,-0.4972504,-0.07971538
1.52334,-0.7132812,0.1997757
1.624582,-0.7181103,0.5801797
1.634934,-0.4664372,0.7298567
1.67594,-0.06019111,0.4831207
1.660771,0.2182132,0.2005182
1.577134,0.2163787,0.1252884
1.500497,0.07513371,0.1178752
1.303929,-0.09679139,0.2411024
0.9859946,-0.1929449,0.3653021
0.8044607,-0.1785461,0.2716468
0.6820794,-0.1272064,0.1829508
0.5447355,-0.02727221,0.1407607
0.5384109,0.02358187,0.0764157
0.5597678,-0.01088129,0.09918967
0.5819276,-0.00525374,0.1677156
0.6427326,0.0001688376,0.232385
0.6732851,-0.01893443,0.2693483
0.6836992,-0.04504162,0.2395904
0.6550869,-0.1003036,0.2073103
0.611477,-0.1044663,0.1880608
0.5856475,-0.05374125,0.1450803
0.6044312,-0.04073379,0.1286825
0.6991527,-0.1032446,0.1529973
0.7766347,-0.1933159,0.1889029
0.7964523,-0.2168481,0.2429449
0.8427715,-0.2246821,0.2281581
1.046377,-0.3199663,0.1105745
1.327976,-0.4364989,0.02591253
1.489032,-0.4612991,0.06003342
1.652482,-0.3106103,0.1408074
1.826865,0.04778193,0.1614882
1.762794,0.3644708,0.1885044
1.574626,0.3612466,0.2973026
1.472622,0.2451715,0.3997946
1.346979,0.1374804,0.3861685
1.210783,-0.09785313,0.2907421
1.102344,-0.1138595,0.2285419
0.8767524,0.06821744,0.121307
0.7147087,0.02185858,0.02607245
0.7057343,0.0268804,0.04967847
0.6613676,0.0602293,-0.002421651
0.6957663,-0.04442916,-0.04428963
0.7578816,-0.00927426,-0.004003659
0.6563565,-0.01188057,-0.02668083
0.5699367,-0.0481672,-0.01346782
0.5874017,-0.04344792,0.02477025
0.5718551,-0.1138589,0.08763265
0.5602547,-0.01024307,0.1787171
0.6524815,0.1253145,0.1454549
0.7626694,0.122134,0.1026272
0.8221655,0.09688871,0.1116536
0.8274094,0.01304575,0.06849703
0.7872776,-0.09844787,0.008609041
0.7930434,-0.260916,-0.04046004
0.9201811,-0.3551637,-0.01696593
1.227292,-0.4004308,0.1195092
1.575514,-0.4982788,0.2661566
1.766867,-0.4389365,0.3811185
1.898864,-0.3930857,0.4466969
1.919785,-0.3061172,0.4036413
1.760662,0.003192885,0.2995348
1.616011,0.1012911,0.2229423
1.425437,0.05234396,0.2451808
1.184627,0.04808888,0.3471462
1.026228,-0.04661962,0.3937576
0.836475,-0.0539025,0.363327
0.7057607,-0.009822051,0.293953
0.677498,0.00122403,0.1936832
0.5814006,0.05551741,0.1032713
0.5045188,0.02750188,0.07057796
0.4535065,-0.06398936,0.1177523
0.3820526,-0.1296711,0.1694478
0.3748484,-0.1455305,0.163347
0.4683091,-0.1305515,0.07488898
0.6607174,-0.1878362,-0.02861495
0.7689557,-0.224297,0.05280604
0.7276958,-0.155251,0.2122352
0.7036266,-0.06748657,0.2654163
0.7297007,-0.03396366,0.2680603
0.855703,-0.1460584,0.1558885
1.161132,-0.3201424,0.02615525
1.544502,-0.3497197,0.04801503
1.843951,-0.2267321,0.03087652
1.984697,-0.03750997,-0.05446301
1.911474,0.1076851,0.002139345
1.656098,0.1613312,0.3137857
1.449578,0.2260324,0.6821289
1.423718,0.2333767,0.6170415
1.349198,0.1013556,0.2817997
1.096526,0.04510226,0.1567757
1.025938,0.08310846,0.08752858
1.03973,0.05590245,0.03422187
0.7727717,-0.002097063,0.008589427
0.6827065,-0.06270227,-0.04265724
0.7711078,-0.08865429,0.04305058
0.6612126,-0.09398228,0.03828526
0.6329103,-0.09113561,-0.01508525
0.6016255,-0.01067093,0.0303249
0.5155564,0.005599954,-0.03729373
0.5708195,-0.04961651,0.01767987
0.5884814,-0.03807275,0.1497855
0.6194681,0.02510149,0.1745953
0.7174911,0.1345287,0.1666268
0.8133151,0.1509777,0.05037202
0.9209765,0.05978742,0.03940665
0.934559,-0.007093189,0.05972633
0.9392275,-0.1184908,-0.0009540162
1.059172,-0.2575181,0.0310357
1.268142,-0.373705,0.04128663
1.518178,-0.4552546,0.1806116
1.687947,-0.4684187,0.4345674
1.746506,-0.4137709,0.5036329
1.734985,-0.2163781,0.3977454
1.707387,0.03552216,0.2102021
1.665671,0.1512846,0.1143268
1.501365,0.1275322,0.1174244
1.255892,0.02914448,0.2022147
1.012303,-0.07790759,0.3352785
0.7768889,-0.130448,0.326029
0.6125882,-0.08718273,0.2676069
0.5329083,-0.02734709,0.1977263
0.5312931,0.0004625454,0.1060282
0.5739452,0.02500207,0.07790088
0.6008402,-0.04273438,0.07682941
0.621181,-0.1257897,0.1335379
0.5894781,-0.1399367,0.1713723
0.5340744,-0.1645451,0.1394119
0.5679875,-0.1710621,0.10275
0.6817236,-0.1967003,0.05290572
0.816132,-0.2293792,0.0644485
0.8414758,-0.1840219,0.1467882
0.7631022,-0.07040655,0.2386693
0.7629772,0.09686594,0.274261
0.8092859,0.144342,0.2309881
0.9094107,-0.01071047,0.1638671
1.145435,-0.2008982,0.04231798
1.378335,-0.3231495,0.00233417
1.601301,-0.3014249,0.14006
1.867807,-0.08908416,0.2149739
1.972853,0.1642742,0.1595039
1.755303,0.2477087,0.1461923
1.406132,0.2319749,0.2466803
1.240246,0.2288855,0.3351081
1.202437,0.1236952,0.3126843
1.11893,0.01892704,0.2666562
1.025557,-0.007249273,0.1639762
0.905763,-0.09272509,-0.009754716
0.8173434,-0.1130761,-0.04641916
0.8106087,-0.07897755,0.009997534
0.7374476,-0.1182006,0.01121951
0.6270645,-0.06343333,0.05191298
0.5932208,0.0136941,0.06502532
0.6083431,-0.01968739,0.01149236
0.6330954,-0.01335748,0.03482619
0.6381923,0.01638945,0.05171274
0.6797603,0.04322484,0.09561968
0.7852032,0.1264785,0.1922397
0.8405264,0.1491808,0.1519786
0.8143726,0.09430411,0.09879071
0.7837137,0.03815497,0.08219042
0.7869615,-0.04227892,0.02445053
0.8264507,-0.123898,0.0405609
0.9773513,-0.2477445,0.05107118
1.187479,-0.3791518,0.04757348
1.307064,-0.3804732,0.1797189
1.531386,-0.4339143,0.3710311
1.804942,-0.4967633,0.4820461
1.791247,-0.2918948,0.4695521
1.729088,-0.06235239,0.3887707
1.677457,0.08179873,0.2682975
1.479911,0.2199797,0.1581712
1.37058,0.1660964,0.1964649
1.215016,0.03538943,0.3024009
0.9360709,-0.02961974,0.3556758
0.7826375,-0.08373744,0.3657249
0.6544626,-0.04898189,0.2863618
0.6055986,-0.01652745,0.1881705
0.6837602,-0.05377378,0.129082
0.7071043,-0.05130224,0.07824214
0.7422519,-0.08886566,0.09604903
0.7461178,-0.1681926,0.1469922
0.663106,-0.05531009,0.02052522
0.6465602,-0.078681,0.05903685
0.5728172,-0.1406939,0.145715
0.5465952,-0.1926876,0.1969435
0.6355806,-0.220694,0.1148813
0.7320685,-0.3039265,0.01309831
0.759043,-0.2927791,0.04808664
0.7845707,-0.2495004,0.08298963
0.797239,-0.1894827,0.09962791
0.7252212,0.02846921,0.2602844
0.7112932,0.1863704,0.3478223
0.7624398,0.1838189,0.3002954
0.7835428,0.1985448,0.2926851
0.8395114,0.1429606,0.2350898
0.8890499,-0.08254851,0.1257236
1.027463,-0.2987173,0.06129244
1.338812,-0.4338053,0.07394321
1.652715,-0.4651566,0.09695373
1.852981,-0.2450784,0.04491736
1.793303,0.1045074,0.06142608
1.571031,0.2572924,0.2107111
1.421118,0.173663,0.3844434
1.353942,0.02889567,0.41714
1.392941,-0.0877672,0.2293395
1.343918,-0.08944955,0.0481781
1.136455,-0.01770226,-0.02179162
0.9808671,-0.05620637,-0.01597623
0.8013605,-0.108432,0.06608152
0.6504988,-0.1245613,0.1178996
0.61013,-0.1519613,0.1321729
0.5906309,-0.07095336,0.09508043
0.6712219,0.003023326,0.04090044
0.7633693,0.03491742,0.06037619
0.773882,0.1091871,0.05862804
0.7420948,0.1331137,0.05618663
0.6736964,0.1418109,0.07752297
0.666557,0.09086038,0.1029243
0.6927054,-0.001852814,0.1892627
0.7540227,-0.02010676,0.2216733
0.8787926,-0.05760383,0.1609211
0.9267835,-0.09443091,0.1012363
0.9123464,-0.1044795,0.08134808
0.8890156,-0.1205705,0.09237663
0.8192057,-0.1460081,0.06844742
0.7620053,-0.2012118,0.0429381
0.886617,-0.2353254,0.05280604
1.181945,-0.3047896,0.05433004
1.370422,-0.3601761,0.08431901
1.47517,-0.3146771,0.236489
1.701131,-0.2904507,0.432867
1.841597,-0.1908652,0.4232647
1.752619,0.007832139,0.2676838
1.68979,0.07350631,0.1998613
1.61035,0.04245191,0.1990624
1.358234,0.00211448,0.2615687
1.156421,-0.07727732,0.357209
0.9768974,-0.09483726,0.3639196
0.749184,-0.03998528,0.3063136
0.6176394,-0.01773796,0.2293515
0.5813546,-0.003370152,0.1812578
0.6679727,-0.010661,0.1576101
0.6909131,-0.05303499,0.1199897
0.6064313,-0.06135056,0.1642229
0.6011549,-0.06978247,0.2262161
0.5683184,-0.07876412,0.1822603
0.6242868,-0.1086695,0.09879385
0.8031214,-0.2363812,0.03054603
0.9201147,-0.3209496,0.0537553
0.9272103,-0.23228,0.1421026
0.796898,-0.04962133,0.1777028
0.7306131,0.1293921,0.2051826
0.7170694,0.2400847,0.2121325
0.7111544,0.2442905,0.1987965
0.7768392,0.1799313,0.2288984
0.7706308,0.02999087,0.201112
0.9647924,-0.3002574,0.1096992
1.393126,-0.6384604,0.01178701
1.648296,-0.7108722,-0.03927213
1.748045,-0.4975552,0.08432081
1.791449,-0.1005513,0.2177972
1.72551,0.2557623,0.2379887
1.535693,0.3696641,0.3135466
1.427144,0.3146965,0.3813549
1.384284,0.2475864,0.3398475
1.21651,0.183306,0.2498608
1.093393,0.1223231,0.1087412
0.9546228,0.06409913,0.004749117
0.810349,-0.07404378,0.03268797
0.775885,-0.1757661,0.05939302
0.6900568,-0.1891178,0.04587946
0.6792944,-0.2364021,0.07699226
0.7173393,-0.2144763,0.06906126
0.7741622,-0.1453859,0.01419821
0.9270921,-0.07395819,9.094582e-05
0.8970386,0.03479564,0.04725685
0.773273,0.08428073,0.1423778
0.7109457,0.1461324,0.1587177
0.6557118,0.1677659,0.1204691
0.6956079,0.1049913,0.1380322
0.7147578,0.09626794,0.1512425
0.7238386,0.06610159,0.1650147
0.8154781,0.03134294,0.1581338
0.8570343,-0.003137147,0.1025638
0.8505804,-0.09205419,0.05547706
0.8094039,-0.1431452,0.01106291
0.768133,-0.2086078,0.0003991273
0.8464547,-0.3051161,0.003831929
1.021641,-0.3765413,0.01740813
1.325907,-0.4537864,0.1691061
1.707482,-0.5448507,0.4075431
1.859517,-0.5295098,0.5080648
1.852211,-0.2197964,0.4051109
1.925447,0.1637624,0.2792316
1.803187,0.2982374,0.181275
1.471434,0.3155051,0.08409301
1.273245,0.2416449,0.1788225
1.073516,0.004527411,0.3618725
0.8461358,-0.1201029,0.3995596
0.7202739,-0.08999582,0.3678306
0.5730396,-0.07971279,0.2812243
0.5334158,0.003655684,0.1772086
0.6532381,0.05781358,0.09280935
0.7573878,-0.01914121,0.02637659
0.7997239,-0.07186044,0.05732745
0.7359007,-0.1093923,0.08195859
0.6141611,-0.09530238,0.09711821
0.5282375,-0.08051975,0.1396448
0.5921163,-0.1956907,0.1093278
0.7559857,-0.320645,0.1024219
0.7690477,-0.3748654,0.1170621
0.7327175,-0.3254984,0.1082105
0.7312774,-0.2116561,0.1375877
0.6776905,-0.07308848,0.1547008
0.6848767,0.03593406,0.1642681
0.767899,-0.04983071,0.1222857
0.9821415,-0.1878816,0.003369387
1.380947,-0.3100112,-0.04161701
1.760985,-0.4077729,0.01649401
1.969276,-0.2125991,0.06392609
1.936935,0.06917249,0.05593513
1.698183,0.1413076,0.1429145
1.419343,0.09143015,0.375648
1.277554,0.006973397,0.4833249
1.256688,0.005195576,0.3377066
1.142315,0.04859127,0.1416246
0.987929,0.08898142,0.04664363
0.8853172,0.133054,-0.00659602
0.7624105,0.08893656,-0.02287618
0.7081023,0.03491642,0.01835779
0.7171384,-0.04725883,0.01602209
0.7600506,-0.1251297,-0.01753018
0.8721834,-0.06664158,-0.05081839
0.936467,-0.04834849,-0.07810444
0.9302985,-0.04792732,-0.0295279
0.8895369,0.02269367,0.06224452
0.826713,0.05618506,0.1586236
0.784436,0.09645481,0.1852624
0.7606841,0.1211006,0.1450714
0.7760774,0.101593,0.1709789
0.801851,0.07682697,0.1845992
0.8163651,0.04240645,0.1821462
0.8455943,0.04765881,0.2195886
0.8634044,0.06100186,0.2120075
0.8685475,0.0558998,0.2275131
0.8322752,0.07153561,0.2554554
0.7786201,0.06925586,0.217957
0.823979,0.000837187,0.1603976
1.024874,-0.160077,0.1025514
1.343941,-0.4016278,0.1097779
1.557603,-0.6580629,0.1726104
1.588599,-0.7651723,0.3061042
1.66495,-0.5955322,0.5018897
1.744238,-0.3397529,0.4440096
1.647757,-0.02619301,0.15203
1.53981,0.4216913,-0.04071215
1.56259,0.4518206,-0.07412437
1.500648,0.07715619,0.06861167
1.222495,-0.06675751,0.2610705
0.9911217,-0.216164,0.3399926
0.9204394,-0.2822669,0.3061555
0.8030531,-0.06912713,0.1674448
0.6874264,-0.05013718,0.08740235
0.7522024,0.03133646,0.03392994
0.8581568,0.0963646,-0.02670733
0.9032544,-0.1081177,0.05764012
0.9282464,-0.1511079,0.1372333
0.8551924,-0.197249,0.2198078
0.7908004,-0.1953564,0.268021
0.8135722,-0.1082141,0.1852944
0.7828162,-0.1618087,0.2028556
0.7568172,-0.08387987,0.2193173
0.7371613,-0.05031519,0.1914814
0.6891186,-0.05523329,0.1947687
0.6663769,0.008620118,0.1226241
0.6501778,-0.05798429,0.1129801
0.7029395,-0.03897078,0.147665
0.7819253,-0.03855859,0.1747624
0.8610922,-0.0902235,0.2448834
0.9299847,-0.05504336,0.2508944
0.8850935,-0.07699636,0.2432414
0.8291268,-0.06048315,0.2570857
0.7679784,-0.06673147,0.2565104
0.7468926,-0.1567738,0.2295235
0.8927496,-0.3200005,0.0941623
1.047975,-0.5574269,-0.06494535
1.153638,-0.5770945,-0.07514424
1.281548,-0.4865371,-0.01265739
1.593674,-0.3799063,-0.02810154
1.958107,-0.0537433,-0.02077944
1.817701,0.1935884,0.04261708
1.434018,0.2282683,0.1736208
1.27082,0.2242879,0.4701837
1.116943,0.0860041,0.5586136
1.110446,-0.06216514,0.284939
1.139484,-0.04536287,0.07678721
0.9015453,-0.01408986,0.03402463
0.7950981,-0.02662534,0.04216666
0.7436994,-0.05349924,0.02152046
0.6463476,-0.07881249,0.001826567
0.7148552,-0.06975068,0.06135463
0.6781949,-0.04160848,0.06443128
0.6536884,0.01243757,0.04739548
0.681563,0.06129906,0.04396753
0.6077222,0.0572042,0.001837351
0.6331712,0.0428043,0.06570611
0.6200614,0.06970269,0.1693233
0.6438212,0.111382,0.204925
0.7658696,0.1283538,0.1944501
0.7707361,0.1182206,0.121916
0.8152291,0.07322122,0.06037359
0.8662106,-0.01373481,0.01766986
0.8991777,-0.1732429,-0.02658594
1.01688,-0.309998,-0.05806871
1.223133,-0.387918,0.01755615
1.633077,-0.5933569,0.3604151
1.939626,-0.6789015,0.6591202
1.894217,-0.3446418,0.4897728
1.863228,0.03736832,0.1653445
1.810657,0.1717922,0.08275608
1.507652,0.1917373,0.07235035
1.283872,0.1369805,0.1671516
1.074092,-0.02317446,0.4275172
0.752645,-0.1002578,0.4811177
0.6982265,-0.05659757,0.3784819
0.6090125,-0.02455241,0.2879828
0.438548,0.0469631,0.1664651
0.5316653,0.05913832,0.1155678
0.4753167,0.004796219,0.05755506
0.3939196,0.01500969,0.04362937
0.466355,-0.03088867,0.09973813
0.4583599,-0.08869539,0.07650376
0.6183093,-0.1807682,0.07873242
0.7740804,-0.359102,0.09476653
0.7346766,-0.3622932,0.1505977
0.6924223,-0.2086063,0.2673147
0.6338978,-0.05816453,0.2599992
0.6758824,0.0003439733,0.1845262
0.9079193,-0.1060711,0.09865046
1.348154,-0.2207098,0.01553782
1.802517,-0.2382112,0.02460918
1.931267,-0.08319821,0.05861015
1.836458,0.2381772,0.1188007
1.673024,0.4106684,0.3086754
1.519639,0.3678602,0.5300018
1.485853,0.3203003,0.5857742
1.479268,0.2335052,0.4523821
1.337034,0.08376427,0.2644848
1.093063,0.07095849,0.1176755
0.9078437,0.1357753,0.0384984
0.7488147,0.0823676,0.0539631
0.6433305,0.03845787,0.07511031
0.6502461,0.01042038,0.03588078
0.6708948,-0.0671265,0.002715704
0.7424256,-0.05110789,-0.05026893
0.8027182,-0.01397434,-0.0531273
0.7909111,0.02437878,0.03722505
0.7717689,0.1023197,0.069035
0.7383921,0.09024317,0.075167
0.7422105,0.07550134,0.1184227
0.7050546,0.09041732,0.1871462
0.6221479,0.08163626,0.2317295
0.6346391,0.09874354,0.1960731
0.6921475,0.08840524,0.1855693
0.781194,0.05170834,0.1348561
0.8718133,-0.03226986,-0.03059557
0.9014033,-0.2060209,-0.1750229
1.00384,-0.3906445,-0.2213087
1.263792,-0.5213759,-0.04935883
1.551914,-0.5651543,0.3000929
1.750696,-0.5612446,0.5782003
1.854845,-0.4517233,0.6318727
1.845597,-0.1992181,0.4630089
1.713369,-0.00336337,0.2493861
1.499916,0.08691654,0.1086917
1.299417,0.06196739,0.119168
1.111662,-0.06851803,0.2533673
0.8899444,-0.1285764,0.2853268
0.7950218,-0.1785539,0.2507069
0.7847471,-0.1967281,0.2104892
0.7368353,-0.08899608,0.121944
0.7576562,-0.03059268,0.08128558
0.7484418,-0.008570657,0.05370983
0.6903495,-0.01849406,0.04762347
0.647015,-0.07076033,0.1138195
0.5489443,-0.05541722,0.1708226
0.513076,-0.06795652,0.1743657
0.5623256,-0.08675349,0.09347996
0.6512508,-0.1218904,0.02631588
0.7741863,-0.2031477,0.04523155
0.8027364,-0.182495,0.1090576
0.7811888,-0.1643966,0.2433621
0.7926625,-0.156083,0.352676
0.7620613,-0.08337728,0.3472139
0.7252557,-0.07017482,0.2979747
0.8308477,-0.1418985,0.1891465
1.071244,-0.2828841,-0.01357291
1.317755,-0.3658876,-0.08753046
1.64254,-0.3093433,-0.002982036
2.027766,-0.2362897,-0.05011549
2.038081,-0.1733157,-0.07676706
1.698924,-0.07337928,0.1010536
1.494266,0.06872885,0.3210964
1.327375,0.1319159,0.4387592
1.247851,0.0581152,0.264516
1.33533,0.02765912,0.05461834
1.12136,0.05241365,0.07651875
0.8685126,0.01770763,0.03061454
0.8092942,-0.01350487,-0.03707058
0.7297264,-0.03951976,0.001102715
0.751914,-0.08893821,0.00768573
0.7183194,-0.08727847,0.01962785
0.7617005,-0.06330387,-0.01439448
0.9165692,-0.05367681,-0.07197467
0.8878624,-0.03570061,-0.009552128
0.8771359,-0.01678641,0.06228797
0.801198,0.01759128,0.07430271
0.7314993,0.02481573,0.09257562
0.782278,-0.02303359,0.1332973
0.7263148,-0.04988928,0.2144703
0.7276594,-0.02004783,0.2787678
0.7498184,0.03721122,0.2588826
0.7651368,0.0913357,0.2217499
0.8290306,0.1248947,0.1739184
0.8155067,0.09588381,0.06834538
0.8423418,0.001067542,-0.03345527
0.9046037,-0.1349733,-0.1125424
1.042111,-0.3461469,-0.1521063
1.290813,-0.5855239,-0.04867428
1.487661,-0.7608126,0.2023048
1.642324,-0.772437,0.5041392
1.733185,-0.4903111,0.6293644
1.757138,-0.08601001,0.4266164
1.751685,0.06441525,0.2206049
1.713199,0.003863103,0.1544296
1.609335,0.03387172,0.02161208
1.327676,0.02313633,0.1056153
1.004809,-0.1199306,0.3661585
0.7957269,-0.09427934,0.2983126
0.6217742,-0.03360164,0.2132069
0.4982139,-0.07278322,0.2455977
0.4795717,0.008601007,0.1121206
0.5538825,0.05679985,0.08184748
0.6505616,0.01403966,0.1073425
0.6909685,-0.01363057,0.09653387
0.7003646,-0.09283662,0.1916943
0.6795732,-0.1381429,0.1699133
0.60769,-0.1406001,0.144849
0.5347079,-0.1294326,0.2037029
0.5231676,-0.1162228,0.1791311
0.610636,-0.1843814,0.1762362
0.7039901,-0.2401924,0.1457318
0.7002429,-0.2285307,0.1109509
0.7053932,-0.2180786,0.1130003
0.8644176,-0.2572082,0.008189492
1.176577,-0.354294,-0.08962036
1.490412,-0.4618237,-0.07599115
1.743469,-0.4544928,-0.007642859
1.958955,-0.1660051,0.05028881
1.878649,0.2127036,0.133122
1.550687,0.3465899,0.3284265
1.430115,0.305402,0.4692478
1.423933,0.2288127,0.382015
1.350212,0.1223282,0.2368118
1.179935,0.06352036,0.1744891
0.8658816,0.03240462,0.04096577
0.7824913,-0.02149621,-0.01659254
0.8078862,-0.01585857,0.094527
0.6208013,-0.05989939,0.03701258
0.6109953,-0.1330181,0.004150859
0.7068136,-0.06268127,0.0372555
0.7115423,-0.03968709,-0.09824747
0.8320918,-0.04549674,-0.08641911
0.8830774,0.003069295,0.001884186
0.7850456,-0.007048048,0.04723478
0.7389452,0.01873889,0.1295844
0.7348761,-0.006689832,0.1127756
0.7321499,-0.05577409,0.1505421
0.7373411,0.02246862,0.1696613
0.7552544,0.04736892,0.1157939
0.7930643,-0.01310454,0.1561418
0.8103815,-0.1059611,0.138624
0.7825423,-0.1808689,0.1199198
0.7482958,-0.1764993,0.08685988
0.7653848,-0.2011257,-0.06111095
0.9100495,-0.2903838,-0.1178162
1.16328,-0.3889716,-0.03766844
1.361799,-0.41705,0.1867476
1.525003,-0.3833944,0.5119841
1.77642,-0.2942842,0.6204836
1.942313,-0.05835464,0.3468801
1.886354,0.1476323,0.04534919
1.703455,0.1517821,0.06402669
1.43841,0.0363207,0.2077876
1.206393,-0.1081315,0.3230355
1.010402,-0.1542579,0.3893188
0.7387791,-0.1004718,0.3484737
0.5875273,-0.05359425,0.3098886
0.5646412,0.01871013,0.2125909
0.4904033,0.09086952,0.04421079
0.4954662,0.05876367,-0.0302383
0.5372564,-0.04033864,-0.02315793
0.5111467,-0.1491299,0.07574181
0.533252,-0.2259739,0.1988522
0.5746899,-0.2117057,0.1905711
0.6736291,-0.2162519,0.08560155
0.8450096,-0.2625618,0.02193996
0.8634905,-0.1945371,0.0968762
0.7755123,-0.03994834,0.2123978
0.7600665,0.1362401,0.2555873
0.7574153,0.2180296,0.2762823
0.7654335,0.1194932,0.2609268
0.8589603,0.003636542,0.1732431
1.069839,-0.1699979,0.07839974
1.392796,-0.3880734,0.03851304
1.673074,-0.4397974,0.03635799
1.859068,-0.4330064,0.02920181
1.97449,-0.3928381,0.03688896
1.879608,-0.2009019,0.08199124
1.628241,0.05478967,0.1993386
1.34462,0.2070998,0.38619
1.159097,0.2064021,0.4457492
1.201883,0.1991506,0.3166393
1.134539,0.1766464,0.1791616
0.9473008,0.1288027,0.05952109
0.952044,0.1073459,-0.06719119
0.8836513,-0.0251894,-0.1080038
0.7291144,-0.1496131,-0.02731145
0.7033744,-0.1938895,0.0737428
0.7096211,-0.2237395,0.1024684
0.6938168,-0.121225,0.1143251
0.6227793,0.003960079,0.1266557
0.6213386,0.06132519,0.09971463
0.7158215,0.07339993,0.0873522
0.7563315,0.08544582,0.10993
0.7826466,0.1659217,0.1368833
0.8086491,0.1471354,0.1541893
0.861486,0.06254802,0.1655639
0.8799914,0.001641397,0.16435
0.8106307,-0.09643064,0.09977489
0.7650899,-0.1449659,0.004109635
0.7414402,-0.1976908,-0.02195266
0.8945356,-0.2534424,0.03993541
1.233718,-0.2616944,0.1734665
1.495205,-0.3143335,0.3581808
1.721588,-0.3753006,0.5124594
1.917739,-0.3894165,0.5330533
1.927035,-0.2058778,0.3239019
1.780815,0.06443498,0.03044386
1.554559,0.04459238,0.05267185
1.224734,-0.04178383,0.2777586
0.92578,-0.01250839,0.3651217
0.7584183,-0.06360145,0.4150621
0.5510412,-0.06724674,0.3560842
0.4348228,0.009470355,0.208199
0.4630748,0.0395004,0.1518581
0.4382152,0.05542728,0.05898173
0.5017463,0.007870526,0.05242767
0.5889577,-0.061573,0.1024521
0.5994651,-0.08106069,0.05047129
0.6485523,-0.1732418,0.04547976
0.7030439,-0.3066543,0.007844416
0.7663286,-0.3245643,0.02085986
0.7570014,-0.2715943,0.1713363
0.7388647,-0.248311,0.2754611
0.7814783,-0.1715269,0.3114447
0.7654485,0.03893683,0.2324891
0.8482227,0.2315951,0.1321405
0.9796938,0.1967508,0.06558691
1.103896,-0.03983146,-0.0114904
1.402562,-0.2741072,-0.004063276
1.596688,-0.441554,0.04914369
1.602358,-0.4398267,0.1483704
1.755253,-0.1842224,0.1590346
1.855047,0.05456565,0.09561707
1.620337,0.1184575,0.2238116
1.350166,0.07408823,0.355472
1.221015,0.03933253,0.4152527
1.172838,0.05824945,0.3572618
1.14092,0.02925108,0.1368553
0.971339,0.04432983,0.06452451
0.8334876,0.04616485,0.02161896
0.7624543,-0.03223314,-0.01925687
0.6518834,-0.06772248,0.04360137
0.7130384,-0.1416662,0.02028124
0.7952051,-0.1520347,0.03602587
0.8060137,-0.08094972,0.05521925
0.8104584,-0.03385865,0.03322901
0.7286681,0.03953034,0.09098986
0.7613976,0.03450561,0.1178712
0.7943452,0.04650254,0.1863562
0.7473736,0.1002679,0.2350341
0.8132034,0.07443629,0.1638269
