accx,accy,accz
1.520563,-0.3220635,0.2832761
1.462259,-0.3250475,0.3558172
1.197865,-0.2411898,0.333891
0.9969763,-0.190854,0.2563622
0.8951427,-0.1169453,0.2406535
0.7488537,-0.03894962,0.1835796
0.6751254,0.01000807,0.1162424
0.6132169,0.0311007,0.1087839
0.5910946,-0.07219838,0.08914206
0.6217769,-0.2193998,0.1255748
0.5437696,-0.3365449,0.1624117
0.5493841,-0.372849,0.1736522
0.6460763,-0.2834098,0.1583157
0.7563725,-0.1869378,0.05366745
0.9611924,-0.1091664,-0.00655365
1.014993,-0.09629613,-0.02986182
0.9580251,-0.1694046,-0.000209268
0.9519257,-0.2468179,0.1155712
0.8916696,-0.3142751,0.1648481
0.872083,-0.2774219,0.1848758
0.9216042,-0.206839,0.1913641
0.9602072,-0.2369422,0.1641068
1.01669,-0.2766304,0.07838304
1.218484,-0.345637,-0.1454613
1.598335,-0.4311609,-0.3434926
1.792953,-0.4603769,-0.3848427
1.562639,-0.481554,-0.2208449
1.215388,-0.4345652,0.1177908
1.122968,-0.3227804,0.2790307
1.274014,-0.1909511,0.06547109
1.349482,0.006547257,-0.1256944
1.100473,0.1399827,0.06158063
0.7968687,0.1601645,0.1925849
0.8478978,0.1371055,0.0342861
1.016936,0.009676094,-0.0420697
1.048793,-0.1050461,-0.1003921
1.000604,-0.05918141,-0.1363766
0.8505909,-0.01297263,-0.05180364
0.7599248,-0.05277797,-0.0669697
0.713182,-0.05864388,-0.07226619
0.6191595,-0.07861332,-0.08327578
0.6462364,-0.1626387,-0.1527758
0.7321109,-0.1721722,-0.05949016
0.8355307,-0.1628471,0.02060504
0.9167631,-0.1901458,-0.009767031
0.8970411,-0.1507321,-0.01864226
0.9168034,-0.1380429,-0.04764388
0.8871271,-0.2285885,-0.1117811
0.8101502,-0.4203984,-0.1950254
0.9186182,-0.6687299,-0.1738576
1.130645,-0.7113691,0.01070914
1.389264,-0.419531,0.1900344
1.692998,-0.02829667,0.2260307
1.782939,0.05465637,0.2023167
1.561927,-0.2607232,0.3615972
1.260699,-0.4911141,0.5290919
1.072395,-0.3642426,0.3977357
1.015968,-0.2043799,0.2354718
0.9804728,-0.1328511,0.2180254
0.8585295,0.000935473,0.1828931
0.7322201,0.06774333,0.1469263
0.6918415,0.03103377,0.1509964
0.6343042,-0.03207153,0.143921
0.5220237,-0.1830378,0.1232019
0.467025,-0.2951271,0.1124067
0.4767561,-0.3458226,0.1023742
0.5938068,-0.3680254,0.03715549
0.8807755,-0.2861969,-0.07022872
1.079235,-0.2347232,-0.1090587
1.073951,-0.2098198,-0.02791438
1.052445,-0.201575,0.08582082
1.007131,-0.2367387,0.1396179
0.9618579,-0.1894976,0.173053
0.9836146,-0.1777791,0.1811659
1.02993,-0.209138,0.06736265
1.220699,-0.2153307,-0.1552186
1.598717,-0.3173387,-0.3813773
1.7804,-0.4416619,-0.4117638
1.408168,-0.4989906,-0.1268221
0.9499256,-0.4935288,0.2007106
0.9748479,-0.4371324,0.2285854
1.194843,-0.2361251,0.03005748
1.399914,0.1446215,-0.124766
1.515755,0.341006,-0.1717044
1.226066,0.2606799,-0.107235
0.8530809,0.1689196,0.02568299
0.8416577,0.07858412,0.05479056
0.9576526,-0.04327538,-0.0246809
0.962099,-0.1395365,-0.1001188
0.8871982,-0.1156392,-0.09461022
0.8352358,0.005457582,-0.06880274
0.8931302,0.04078535,-0.1245746
0.9515977,0.02167432,-0.155132
0.8882114,0.01229766,-0.1571034
0.7855901,-0.04087521,-0.0945927
0.704618,-0.08107235,0.06201921
0.7108936,-0.09528779,0.06130937
0.877985,-0.05680785,-0.02241953
1.046606,0.0208517,-0.07539193
1.05038,-0.008325962,-0.1767665
0.8864065,-0.08830687,-0.2052207
0.7403477,-0.2182632,-0.2174224
0.8246226,-0.480775,-0.2812518
1.022893,-0.7212845,-0.2664283
1.236738,-0.8132142,-0.08461947
1.390868,-0.6981357,0.2360464
1.3381,-0.407976,0.4338617
1.321187,-0.1729244,0.4055588
1.429514,-0.2049672,0.2824653
1.47059,-0.3148568,0.1678604
1.458463,-0.2260973,0.1955756
1.253106,-0.216695,0.2317886
0.9238007,-0.267783,0.1321382
0.8318475,-0.1548368,0.09532029
0.8232756,-0.153281,0.1074504
0.709777,-0.1335415,0.07167512
0.7098852,-0.09471235,0.08188609
0.793914,-0.2328644,0.08836945
0.7674476,-0.2533934,0.07010938
0.7533443,-0.2366931,0.07724376
0.7624883,-0.2139077,0.09093754
0.7085924,-0.1251438,0.1256779
0.747038,-0.1454653,0.1391351
0.8241772,-0.1233214,0.1237069
0.8787938,-0.1117661,0.1276311
0.9708291,-0.1676773,0.1384834
0.9867461,-0.1868875,0.174029
0.9325036,-0.1967791,0.2434765
0.8305517,-0.06829735,0.2834401
0.778084,0.1077341,0.1985843
0.8629814,0.1555804,0.02743006
0.8929033,0.05579146,-0.1049021
0.9199182,-0.1980003,-0.2465158
1.186676,-0.5547215,-0.4351934
1.681507,-0.9314745,-0.571304
1.936191,-1.022262,-0.5466203
1.643474,-0.7555271,-0.2145346
1.348848,-0.3861529,0.3261037
1.321374,-0.02694716,0.5160377
1.318484,0.1998953,0.1747521
1.300105,0.2718319,-0.07608751
1.1233,0.185917,-0.003316707
0.8714589,-0.02781777,0.02054853
0.7646071,-0.172253,-0.007764469
0.6983652,-0.1967622,-0.009691503
0.6922651,-0.1035686,-0.08329864
0.7419334,-0.0005373131,-0.1430035
0.7563303,0.012062,-0.1643147
0.7795244,0.02133205,-0.212864
0.796097,-0.006693684,-0.2365568
0.8422008,-0.03687433,-0.1558348
0.8954757,-0.02455193,-0.01959724
0.8515558,-0.05269059,0.02935153
0.7913163,-0.09945884,0.04202202
0.774211,-0.1695819,0.08448664
0.8083596,-0.2461483,0.03309383
0.9070569,-0.2947161,-0.1064983
0.962597,-0.3206276,-0.2360165
0.9235865,-0.3550526,-0.3274357
0.9018307,-0.5297742,-0.3614139
0.9889554,-0.73243,-0.2797925
1.178834,-0.7362514,-0.02178281
1.412673,-0.5794169,0.2339098
1.53371,-0.3700648,0.2759672
1.510191,-0.2393538,0.2367214
1.543483,-0.249125,0.3006089
1.537155,-0.3136867,0.3771353
1.27778,-0.3399079,0.309695
0.9581498,-0.246779,0.2235543
0.7523879,-0.09282475,0.2048636
0.6304958,-0.0465948,0.1415953
0.5815308,-0.1153238,0.1302862
0.5888046,-0.1869313,0.1435377
0.5760804,-0.2345043,0.07017039
0.5118724,-0.2832278,0.07125317
0.5053084,-0.3489529,0.1026915
0.5290219,-0.4154449,0.08201691
0.5549049,-0.3912991,0.07675831
0.7096461,-0.2688915,0.005317426
0.9338872,-0.1456857,-0.08653553
1.121481,-0.08393654,-0.07040112
1.169049,-0.08697319,0.03412527
1.088437,-0.08298819,0.1558699
1.041622,-0.08505276,0.1942953
0.9530127,-0.1256728,0.177271
0.8898963,-0.1610271,0.1816913
0.9992139,-0.2503861,0.1215319
1.176964,-0.3257205,-0.04719631
1.517926,-0.3279832,-0.2400539
1.837819,-0.4470444,-0.338599
1.6655,-0.5944725,-0.2481468
1.414175,-0.546413,-0.1259353
1.464932,-0.4263267,-0.11289
1.356274,-0.349833,-0.04628857
1.25733,-0.246574,-0.01807893
1.294769,-0.07123264,-0.1025961
1.037796,0.1447142,-0.071196
0.9569203,0.1790891,-0.05924051
1.041272,0.01835778,-0.08684287
0.8126182,-0.03637099,0.006175758
0.7479303,-0.08556976,0.04922858
0.8006409,-0.1138045,0.02698539
0.7599635,0.01788263,-0.07472855
0.7921951,0.01444029,-0.1995461
0.7619853,-0.01842233,-0.1446691
0.7727573,0.004549025,-0.0832142
0.8178318,-0.04481904,-0.05717701
0.8464462,-0.04445491,0.002323398
0.9220283,-0.1218515,-0.03098866
0.9186997,-0.1772224,-0.08227553
0.8816049,-0.1977183,-0.1300557
0.7942393,-0.4192817,-0.2072303
0.751647,-0.6253572,-0.1378056
0.9083809,-0.7476428,0.05607444
1.234345,-0.6988309,0.2068497
1.690081,-0.4145843,0.3049988
1.83032,-0.2284216,0.3013183
1.595669,-0.2611175,0.3148113
1.443546,-0.3202038,0.4291325
1.245699,-0.1797446,0.3231899
0.9645877,-0.02470009,0.1257219
0.8504234,0.02861506,0.1226255
0.7760805,0.117931,0.1287276
0.666398,0.05800111,0.1429276
0.567425,-0.03574527,0.156993
0.4298621,-0.1068582,0.1372055
0.3817985,-0.2814568,0.1557033
0.4961542,-0.3359638,0.08548561
0.6769099,-0.3688424,-0.03211193
0.9094524,-0.3979701,-0.09480336
1.031221,-0.3024781,-0.07622107
1.016771,-0.2293845,0.01919706
1.083045,-0.1838745,0.06453049
1.105288,-0.2053539,0.08420424
1.009614,-0.2290734,0.07923781
0.9967007,-0.2256717,0.02736543
1.182847,-0.3012108,-0.09966258
1.55684,-0.3426214,-0.3488431
1.743433,-0.4144683,-0.3964295
1.489429,-0.5298705,-0.09851758
1.2156,-0.5491339,0.2205825
1.217471,-0.4655723,0.2552658
1.29894,-0.1387016,-0.008491697
1.323393,0.2692909,-0.2120444
1.265259,0.3025484,-0.1877521
1.100157,0.09976036,-0.1005682
0.9471711,0.02265607,-0.05118525
0.8938731,-0.08032788,-0.02605567
0.8785517,-0.1966232,0.02585911
0.8942073,-0.09434729,0.01619314
0.976959,0.0008525113,-0.08721199
1.033034,0.04440161,-0.1820761
0.9275709,0.1006737,-0.2108666
0.7699901,0.02023949,-0.1422659
0.7545917,-0.04493353,-0.08085865
0.8701195,-0.08204146,-0.08707212
1.014446,-0.1306979,-0.1278714
1.054302,-0.09141406,-0.1747711
0.9498523,-0.06920851,-0.1142608
0.8489424,-0.01036684,-0.03595961
0.8605229,0.07913277,-0.07536745
0.9580622,0.1101515,-0.151666
1.037947,0.1339431,-0.2357407
0.9992171,0.05050736,-0.2682354
0.8537279,-0.122722,-0.2403248
0.7086267,-0.3467503,-0.2653824
0.716061,-0.6968086,-0.2556092
0.9695664,-1.109783,-0.125745
1.197376,-1.371525,0.05403673
1.164918,-1.093468,0.161348
1.309902,-0.4737814,0.08203687
1.729446,-0.2242927,0.001696776
1.778718,-0.3018914,0.009918962
1.485754,-0.2831682,-0.04457137
1.250755,-0.1162706,0.01753148
0.9752723,-0.03207661,0.1478483
0.810768,-0.1539636,0.09170579
0.9352532,-0.2506881,0.07869496
1.011302,-0.3259426,0.1413127
0.9140214,-0.4123712,0.1233088
0.8253368,-0.3673555,0.1137243
0.753512,-0.3172724,0.06795994
0.6789709,-0.2554676,0.002072782
0.6700678,-0.2213251,0.006706981
0.6802279,-0.2787583,0.02490495
0.7296298,-0.2634001,0.04251126
0.8730766,-0.2835833,0.03757264
0.9287752,-0.340112,0.01658233
0.881428,-0.3245546,0.01213219
0.8417404,-0.2987559,-0.0008978389
0.8037819,-0.2346296,-0.01179789
0.8309403,-0.1946904,-0.03259227
0.8669045,-0.1780287,-0.0478328
0.8454837,-0.1433062,-0.02412647
0.8380345,-0.1468097,0.02571946
0.8415005,-0.1339965,0.1119674
0.8417533,-0.1217022,0.147795
0.8648957,-0.1167752,0.08357507
0.902321,-0.09535921,0.02566388
0.9047411,-0.1640567,-0.003981836
0.8764497,-0.2792234,-0.01394377
0.8592279,-0.3082064,0.002223185
0.8769656,-0.2977827,-0.006055111
0.9733151,-0.3242988,-0.06590019
1.192454,-0.3564912,-0.2219483
1.539225,-0.3847385,-0.4074082
1.745305,-0.4222837,-0.3881146
1.477723,-0.4428719,-0.1113604
1.043141,-0.515968,0.2919585
0.9628596,-0.6068046,0.5077684
1.12683,-0.4838136,0.2284488
1.20866,-0.1867865,-0.09158569
1.158272,0.04481344,-0.04048072
1.06869,0.1345167,-0.07123653
1.021519,0.1250689,-0.2231924
0.973363,0.06138543,-0.2060031
0.9080967,-0.06344462,-0.1777107
0.8322844,-0.1365719,-0.1319667
0.7836319,-0.1089088,-0.05922381
0.8383873,-0.1202935,-0.0749131
0.8436092,-0.1019274,-0.1330827
0.8031003,-0.06326605,-0.1922199
0.7946069,-0.08701378,-0.158621
0.7352574,-0.07236235,-0.0803101
0.7656969,-0.1035293,-0.05284728
0.8400483,-0.1922309,-0.01495258
0.8395488,-0.2383573,0.0006590724
0.8456919,-0.2757931,-0.00850978
0.817069,-0.3586082,-0.07065534
0.8314004,-0.5878625,-0.1703957
0.9718921,-0.8172297,-0.1110871
1.2256,-0.7977299,0.07732652
1.510429,-0.5141524,0.2233214
1.664986,-0.1803274,0.2427864
1.715953,-0.1724244,0.2262456
1.556295,-0.354282,0.3296854
1.24343,-0.3559422,0.3808502
1.146938,-0.2593249,0.3022994
1.080377,-0.105138,0.2313022
0.8670533,0.03279017,0.1403382
0.7533327,0.009084481,0.1009922
0.6895205,-0.02318665,0.1249553
0.5886,-0.0507801,0.10637
0.5330484,-0.1783734,0.09625359
0.488131,-0.3092266,0.1130304
0.463718,-0.3483917,0.1243257
0.566523,-0.3060928,0.07344
0.7665436,-0.2664599,-0.02245038
0.9122374,-0.2378526,-0.04829782
0.9488049,-0.2140257,0.01135914
0.9387388,-0.1913496,0.09251793
0.9916539,-0.1167979,0.1005403
1.093736,-0.1225273,0.08276245
1.114794,-0.2061932,0.1003772
1.121345,-0.2642263,0.06046718
1.256541,-0.3754324,-0.07537063
1.497055,-0.390833,-0.2949848
1.589641,-0.3018313,-0.3544066
1.337177,-0.3102589,-0.05170637
1.059576,-0.3448993,0.2122931
1.123388,-0.3472683,0.1075524
1.509468,-0.1959766,-0.1167683
1.786231,0.06565061,-0.2138148
1.36265,0.1231523,-0.1623153
0.7256161,0.07159817,-0.0006426385
0.7563097,-0.009763409,0.07373678
1.021106,-0.2090791,-0.04152551
1.020579,-0.2829768,-0.1255863
0.8665802,-0.1792484,-0.07286498
0.6434393,-0.1064134,-0.02195289
0.7110647,-0.06972434,-0.06455077
0.9443748,-0.07070221,-0.1666509
0.9601484,-0.1042419,-0.2439183
0.893901,-0.06977949,-0.1402246
0.695921,-0.01718971,0.101767
0.6098344,-0.000128946,0.1492275
0.7765073,-0.02009987,0.0758967
0.8226599,-0.1020187,0.07091534
0.8973727,-0.1901224,-0.007557897
0.9984955,-0.3118906,-0.09427438
0.9547056,-0.3697844,-0.1081687
0.8989573,-0.3113676,-0.1485826
0.8592007,-0.4085987,-0.2627805
0.8985568,-0.5112655,-0.2981915
1.022413,-0.4166733,-0.0814997
1.28378,-0.3008387,0.2333981
1.502535,-0.1890323,0.4229593
1.400457,-0.2201848,0.3328115
1.306844,-0.4051578,0.2458031
1.280793,-0.5427615,0.4783363
1.15311,-0.6180466,0.5563779
1.119897,-0.4912394,0.3397492
1.084187,-0.2709058,0.1829407
0.9551795,-0.1804692,0.1677909
0.8689622,-0.07389554,0.1999071
0.69092,0.006166446,0.1162071
0.5221451,-0.01283163,0.1003222
0.5447639,-0.1097111,0.1382879
0.5036615,-0.2958937,0.05027843
0.4918546,-0.3723637,0.06530511
0.6870484,-0.3446519,0.05619585
0.8469467,-0.3370962,-0.02252353
0.8935989,-0.2796511,-0.009898851
0.8786683,-0.1804066,-0.01632015
0.8877521,-0.07025742,0.03790858
0.9204481,-0.01527704,0.08303939
0.9518618,-0.04902031,0.06509858
1.040729,-0.07230359,0.1183965
1.049015,-0.1059896,0.143825
1.086735,-0.2288765,0.09633209
1.312411,-0.3732043,-0.0563385
1.565001,-0.4114594,-0.27075
1.683316,-0.3792961,-0.3484679
1.464362,-0.3858423,-0.1987
1.139241,-0.3948459,0.07802715
1.102388,-0.382713,0.1735408
1.217461,-0.376876,0.000157682
1.253437,-0.312606,-0.1538675
1.06549,-0.1428623,-0.0800718
0.8911148,0.0427059,-0.01694838
1.064402,0.1092307,-0.1213512
1.218675,0.04977666,-0.1237784
1.114744,-0.01498128,-0.1040183
1.001715,-0.06427927,-0.1074341
0.8820628,-0.1469437,-0.01224108
0.765492,-0.2093997,-0.03518848
0.7613681,-0.2320168,-0.06164129
0.7706868,-0.2034419,-0.02757415
0.7794977,-0.1373394,-0.06814235
0.7863144,-0.1280077,-0.05848246
0.7383981,-0.1031019,-0.05234075
0.709578,-0.07441158,-0.005839073
0.7111771,-0.1291485,0.07520597
0.8458939,-0.1433238,-0.01724543
1.074512,-0.1576809,-0.1376715
1.081615,-0.2043619,-0.1546612
0.951435,-0.2047026,-0.1162774
0.8816662,-0.2912963,-0.08228304
0.8860315,-0.5066043,-0.1063062
1.054642,-0.6955886,-0.08069093
1.362129,-0.6382427,0.07173856
1.634896,-0.3649662,0.2182797
1.678236,-0.1707618,0.226978
1.525446,-0.1407099,0.2657993
1.356228,-0.2680799,0.4094958
1.151148,-0.3657637,0.3911465
0.9923653,-0.2975992,0.2876197
0.9974582,-0.2782134,0.2517067
0.3306664,0.1664577,0.04983407
0.1929703,0.1056573,0.05113741
0.1820312,-0.1871824,0.07969698
0.2864817,-0.3081408,0.087911
0.5933893,-0.4072333,0.02718226
1.034568,-0.5239765,-0.090116
1.283464,-0.4985338,-0.136484
1.215943,-0.4402131,-0.07598484
1.130219,-0.3363902,-0.0009890016
1.182331,-0.3111364,0.004506022
1.414257,-0.3159015,-0.1913081
1.706153,-0.2957372,-0.39652
1.587678,-0.3760955,-0.2070502
1.242191,-0.3838195,0.1817343
1.195602,-0.2828498,0.30712
1.41757,-0.1710712,0.09106745
1.639433,-0.1614348,-0.3101855
1.283304,-0.2657123,-0.438976
0.5578256,-0.2782695,-0.0232044
0.3987654,-0.260192,0.3102385
0.6235997,-0.2389686,0.05906529
0.8640883,-0.1471432,-0.2570849
1.034218,-0.001324982,-0.2264453
0.9782836,0.1907604,-0.1669159
0.8804199,0.2312284,-0.1100341
0.7355345,0.1411856,0.002466679
0.7038525,0.05346621,-0.03531345
0.84742,-0.09959752,-0.0207134
0.8631512,-0.229181,0.03374624
0.8204887,-0.2849014,-0.004332183
0.7522333,-0.3410737,-0.001337567
0.7508691,-0.4301167,-0.1196809
0.8378407,-0.5034424,-0.224313
0.9853628,-0.5188429,-0.142554
1.287448,-0.5623102,-0.04032647
1.363521,-0.4864204,0.07340179
1.351563,-0.09391191,0.1282652
1.541469,0.2609677,0.1641844
1.509172,0.1247791,0.2064439
1.41386,-0.2621671,0.2387151
1.442167,-0.4954724,0.3906387
1.287906,-0.5732409,0.4175255
1.024246,-0.3321095,0.1957177
0.6913953,0.04989643,0.03792263
0.3936419,0.1541062,0.06031578
0.3279475,0.2228152,0.151503
0.2808596,0.1526389,0.1676964
0.3110403,-0.1461882,0.1145504
0.4360298,-0.2731791,0.07962356
0.4979054,-0.3423703,0.05186641
0.822886,-0.4213934,0.01047689
1.190085,-0.4359404,-0.056874
1.171122,-0.3066068,-0.07633403
1.037469,-0.01521723,-0.05240598
0.9523404,0.02322722,-0.07446613
0.9948463,-0.1607867,-0.1113925
1.338039,-0.3672098,-0.278847
1.844453,-0.5832959,-0.5114581
1.903565,-0.6677623,-0.4211314
1.344836,-0.6885318,-0.003502347
1.041309,-0.5275305,0.3352862
1.383733,-0.1062573,0.1914414
1.655747,0.2855289,-0.2997128
1.296368,0.3869173,-0.510413
0.7460515,0.2097232,-0.1852938
0.5650977,0.06750025,0.2150934
0.7276066,-0.1012311,0.1155999
1.036438,-0.2604346,-0.1488534
1.036717,-0.08331113,-0.1505444
0.8466683,0.1550534,-0.189288
0.8307637,0.3197145,-0.1720292
0.7466508,0.4021725,-0.1260875
0.7403643,0.2140468,-0.202646
0.7228655,0.05365215,-0.1190557
0.6567117,0.03722574,-0.09877298
0.815523,0.002491899,-0.1393763
0.8625913,-0.008267944,-0.1743246
0.8907293,-0.04742932,-0.3726361
0.8851615,-0.198683,-0.382612
0.7263033,-0.5653731,-0.3090244
0.7759744,-1.012328,-0.1561947
0.9470436,-1.14599,0.2535592
1.301943,-0.9488687,0.4073441
1.662861,-0.5696093,0.2661542
1.694487,-0.0949274,0.08421185
1.610754,0.1634509,-0.05423101
1.399734,0.04036062,0.0479454
1.22216,-0.07055636,0.2065351
1.129324,-0.01416627,0.1467095
1.014416,-0.05094346,0.07294043
1.012069,-0.0515901,0.05735729
0.8635282,-0.08044637,-0.06662175
0.6355456,-0.2530763,-0.04161446
0.585703,-0.2949086,0.07211199
0.5386067,-0.3699592,0.05321861
0.4953154,-0.4289113,0.1563429
0.5176777,-0.2500673,0.1947577
0.6276038,-0.0986316,0.1071458
0.8720991,-0.02927234,0.0613868
1.146406,-0.05283931,-0.08111425
1.280251,-0.1372435,-0.1357806
1.268091,-0.1830647,-0.09788154
1.197341,-0.26619,-0.03010298
1.067706,-0.2970988,0.1460152
1.00047,-0.2257367,0.1713111
1.019606,-0.08779671,0.09747683
0.9578812,-0.01529166,0.07759081
0.8298486,-0.08309271,-0.002309747
0.7939911,-0.2062684,-0.1668245
1.065882,-0.540642,-0.4767602
1.606444,-0.9270984,-0.7810537
1.832912,-1.003061,-0.6931866
1.347739,-0.7762401,-0.1586568
0.893324,-0.3956086,0.391253
1.155296,-0.1203285,0.3723878
1.414986,0.02661013,-0.132546
1.29044,0.05886119,-0.339127
1.044275,-0.07580872,-0.02318144
0.6335985,-0.1699964,0.2592242
0.6253053,-0.2407374,0.1617713
0.9113689,-0.2581981,-0.05360401
0.8013302,-0.1108502,-0.1244244
0.8293827,0.04459036,-0.164741
0.9728768,0.154154,-0.1567933
1.003349,0.1274309,-0.1951317
1.133068,-0.03105446,-0.3073747
0.8971156,-0.1909698,-0.1278842
0.6184974,-0.2759722,0.08607126
0.6175179,-0.1883526,0.09349065
0.556222,-0.1511007,0.08525635
0.6485037,-0.2089321,0.0110479
0.7782422,-0.1796768,-0.06200772
0.9205482,-0.2113555,-0.2274129
1.111098,-0.2736226,-0.4190117
0.9422347,-0.3249535,-0.326846
0.7300728,-0.4735042,-0.17986
0.8532228,-0.6090019,-0.06572134
1.055513,-0.6002257,0.1798829
1.289469,-0.3828511,0.3326532
1.565155,-0.1533632,0.242573
1.563627,-0.1919746,0.2340073
1.41256,-0.3921081,0.3582198
1.308345,-0.4848378,0.3405132
1.012654,-0.3354314,0.2250159
0.8488446,-0.1096148,0.07162909
0.9147472,-0.05740068,0.04754171
0.8095109,-0.07848266,0.1882532
0.6414028,-0.01160525,0.2125537
0.5093081,0.03812922,0.2105959
0.4456905,-0.00596279,0.1771837
0.4579829,-0.1096331,0.06170615
0.5747514,-0.2834815,0.01854966
0.8588458,-0.429865,-0.02569881
1.008308,-0.4273182,-0.03620425
1.050012,-0.3582733,-0.00856655
1.127905,-0.3046562,-0.008586591
1.115207,-0.2596933,-0.00829725
1.157665,-0.2506134,-0.0401822
1.231487,-0.2509617,-0.0308692
1.245022,-0.2130123,-0.05696968
1.349816,-0.1854787,-0.1776873
1.442229,-0.189113,-0.2357089
1.390241,-0.2450624,-0.1808831
1.297485,-0.416715,0.008513738
1.251804,-0.5756082,0.1589057
1.266534,-0.4990861,0.06998777
1.261903,-0.2580352,-0.1106721
1.10267,-0.08171357,-0.1688353
0.8547402,-0.01023399,-0.07652373
0.7157363,0.008118025,0.01081526
0.6979649,0.02811846,0.01756488
0.7977516,0.05738442,0.009129517
0.9718428,0.07292294,-0.06875705
0.9806851,0.1028497,-0.2565221
0.8325713,0.07879647,-0.3186981
0.7159961,0.02807474,-0.2035099
0.6829906,-0.01390093,-0.148488
0.7540608,-0.1618774,-0.03992056
0.8283142,-0.2842218,0.1343496
0.8501562,-0.2702061,0.08025745
0.8829499,-0.2898573,-0.1150309
0.8988142,-0.4240692,-0.2469006
0.9008137,-0.4988344,-0.2644886
0.9271412,-0.5216579,-0.1832058
1.055009,-0.6567921,-0.04910005
1.250831,-0.6213497,0.1173264
1.386082,-0.3424467,0.1953513
1.561002,-0.04068529,0.210154
1.638301,0.1498989,0.2459183
1.482351,-0.09866714,0.2130483
1.3417,-0.4263857,0.2542287
1.134465,-0.3923629,0.3379446
0.9757554,-0.3089166,0.2113082
1.035274,-0.1999232,0.1055949
0.8407658,-0.1146771,0.1052227
0.5281616,-0.1020678,0.07931484
0.4378259,-0.02468403,0.1036521
0.343747,-0.07190599,0.1004036
0.3097412,-0.1580184,0.0830045
0.367726,-0.1962385,0.07073441
0.5299045,-0.2683707,-0.02019136
0.9115761,-0.2557796,-0.1321708
1.253368,-0.271003,-0.2004071
1.326774,-0.2865191,-0.1165466
1.153443,-0.2133929,0.0282358
0.9950769,-0.1968469,0.1010931
0.9867604,-0.1934807,0.1258174
1.058088,-0.2470686,0.02176943
1.40034,-0.3679047,-0.153975
1.78761,-0.4120669,-0.3166353
1.662153,-0.4113765,-0.3287118
1.225405,-0.3870512,-0.05900939
1.091717,-0.366308,0.1726643
1.454543,-0.3144051,0.1066034
1.77684,-0.1302106,-0.1878298
1.315189,0.05680603,-0.3725198
0.5694111,0.06409836,-0.1049546
0.5021911,-0.04884422,0.1706775
0.7640484,-0.07367857,0.005207562
0.9953273,-0.01334806,-0.1627731
1.208329,0.05857158,-0.1581732
1.154118,0.1480401,-0.2314038
1.010302,0.1769688,-0.1957446
0.8286477,0.2035094,-0.09308408
0.7256595,0.2005329,-0.1168488
0.8611107,0.08398142,-0.1139336
0.873048,-0.001740914,-0.1591689
0.858558,-0.1002908,-0.1618565
0.9200712,-0.1879162,-0.05264172
0.9695644,-0.1311017,-0.04576465
1.079122,-0.03511764,-0.0405231
1.06316,0.1164187,-0.06933681
0.9971292,0.288696,-0.1242983
0.9787777,0.3037538,-0.1810638
0.949694,0.0383194,-0.388632
1.033212,-0.5698982,-0.5127095
1.159873,-1.19181,-0.501337
1.205553,-1.484876,-0.3937141
1.199357,-1.447453,-0.0550282
1.27334,-1.141401,0.2646933
1.443542,-0.7588067,0.2246481
1.53968,-0.3825418,-0.03254066
1.553029,-0.006658431,-0.09843053
1.429071,0.09138761,-0.06430313
1.103422,-0.1563397,-0.01662997
0.8225352,-0.3677016,0.1480723
0.7044025,-0.3779736,0.1819794
0.6148448,-0.3258782,0.1584263
0.4809148,-0.1995035,0.1858509
0.3346818,-0.06624588,0.1854473
0.3008809,-0.06124067,0.1820741
0.3716717,-0.08809567,0.09037484
0.4785654,-0.1047699,0.03563149
0.7337155,-0.1367785,-0.01547024
1.03603,-0.1929559,-0.1484028
1.127474,-0.279162,-0.1612231
1.071886,-0.364589,-0.03273623
1.032161,-0.3896041,0.1141376
0.945935,-0.2634514,0.07249549
0.8396994,-0.1405005,0.01054972
1.018765,-0.1416688,0.06180702
1.329116,-0.1141115,-0.06685726
1.353741,-0.1117626,-0.1852567
1.390543,-0.2410155,-0.2664465
1.610687,-0.3747575,-0.5006584
1.603725,-0.4495888,-0.4999389
1.328484,-0.5808249,-0.1157925
1.119956,-0.7331902,0.2467664
1.216317,-0.6584859,0.1786302
1.392177,-0.3333223,-0.1831843
1.305208,-0.02987339,-0.3232973
1.011173,0.04492152,-0.1013953
0.6665926,0.005445112,0.1393498
0.6499395,0.03721858,0.03957099
0.9177005,0.04722516,-0.1092068
0.9642174,0.04011516,-0.09141318
0.9851024,0.07976316,-0.1696908
0.9024493,-0.01896197,-0.1040967
0.6356158,-0.1370031,0.03889261
0.6835698,-0.1068334,-0.03113448
0.7336025,-0.1002264,-0.03354833
0.6977029,-0.08986083,-0.05284103
0.811631,-0.0509126,-0.08457296
0.8011705,-0.07582951,-0.04507739
0.8633966,-0.1833752,-0.185136
0.9880624,-0.4482284,-0.3591884
0.9790364,-0.7265656,-0.4497346
1.05424,-0.8563359,-0.3600765
1.161734,-0.9257414,-0.0712338
1.256816,-0.6793824,0.1870724
1.379117,-0.08723133,0.3677377
1.455228,0.05589416,0.2920034
1.384048,-0.1636682,0.20001
1.171803,-0.09206525,0.3200394
0.9999453,-0.06598921,0.2661307
0.8986034,-0.07967963,0.1989296
0.8884374,0.0375053,0.2041277
0.8533227,-0.01070733,0.1298531
0.6351714,-0.03500196,0.112662
0.4289312,-0.0433339,0.03433329
0.3508952,-0.157297,0.02126712
0.4453423,-0.2247194,0.07541042
0.7167017,-0.3081974,-0.01886741
1.069464,-0.3844362,-0.02213656
1.26627,-0.4220348,0.0115258
1.114891,-0.3401376,0.0344303
1.085298,-0.1624737,0.1197045
1.281054,-0.1645047,0.02952492
1.395309,-0.2744957,-0.173288
1.55514,-0.3874846,-0.3608794
1.458847,-0.4715866,-0.343327
1.068243,-0.4116178,0.07285336
0.8776147,-0.3736101,0.3827068
1.016109,-0.4147207,0.1732746
1.390175,-0.3690862,-0.1298352
1.495368,-0.202168,-0.1640535
1.267822,0.07234216,-0.1897808
1.029081,0.2591811,-0.1863843
0.7392441,0.1882653,-0.04685005
0.6993166,0.02753833,-0.07817275
0.8416243,-0.1392246,-0.07611029
0.8684372,-0.2200598,-0.0001156743
0.878298,-0.09653597,-0.1167109
0.7624615,-0.02132984,-0.1676069
0.6166953,-0.05949064,-0.1744944
0.572962,-0.1052204,-0.1146968
0.5979693,-0.2226199,0.08020337
0.6823682,-0.2461725,0.08780217
0.8143854,-0.1744986,-0.04090108
1.021161,-0.175078,-0.178473
0.994861,-0.2143436,-0.2175308
0.9102444,-0.4179447,-0.1326185
1.126266,-0.7101237,-0.08842331
1.246761,-0.7433993,0.03309886
1.376065,-0.530696,0.1853159
1.680642,-0.202799,0.2909689
1.735492,0.06093955,0.339904
1.597395,-0.1374745,0.2801578
1.462367,-0.4883256,0.3269685
1.238038,-0.3752581,0.2964731
1.016407,-0.1876876,0.1190138
0.9517926,-0.1024035,0.1141609
0.8356929,0.04114585,0.09832897
0.5634739,-0.01558406,0.07520769
0.3865838,0.003738303,0.125767
0.2883773,0.02026662,0.101763
0.2596733,-0.2351577,0.1299954
0.3634448,-0.3463244,0.1365121
0.5083425,-0.4176762,0.0653719
0.7843348,-0.4515007,-0.03302281
1.085124,-0.35277,-0.1747805
1.175793,-0.3033849,-0.1303167
1.075302,-0.1405547,0.03800018
0.9485815,-0.1229761,0.1559797
1.034221,-0.2798887,0.1864845
1.373822,-0.3539729,-0.03454127
1.773184,-0.4792063,-0.2792435
1.767158,-0.4117818,-0.2301021
1.303307,-0.2335339,0.04851008
1.028762,-0.1852909,0.2701089
1.118562,-0.07944714,0.1164014
1.485023,-0.06288618,-0.1577859
1.75764,-0.1472795,-0.1849926
1.261858,-0.2050294,-0.1161991
0.5487071,-0.2587483,0.03348547
0.459671,-0.2172317,0.1777308
0.7225919,-0.1870361,0.02396394
0.865224,-0.1762778,-0.1683459
0.841603,-0.07443498,-0.1461169
0.8112342,0.05316695,-0.1343157
0.7969369,0.1733999,-0.1729437
0.7701192,0.1068521,-0.1263736
0.7410737,-0.075831,0.007638422
0.7161971,-0.07012649,0.1307155
0.7465784,-0.0750672,0.08321177
0.7929661,-0.1807308,-0.107753
0.8323891,-0.249787,-0.2693495
0.8794532,-0.412657,-0.3376171
1.0522,-0.674325,-0.1987589
1.412334,-0.843507,0.134439
1.583109,-0.6330365,0.3917329
1.507454,-0.1728193,0.4084225
1.539048,-0.04865966,0.2822823
1.570513,-0.2560543,0.2747525
0.5104237,0.05458354,0.1370805
0.8168641,-0.1301368,0.05628185
1.018295,-0.2475356,-0.1753208
0.9555221,-0.1029489,-0.2161086
0.9113416,0.013726,-0.0788089
0.8324229,0.02560489,-0.09149877
0.7163094,0.05918305,-0.1071171
0.6778145,-0.01109023,-0.1213005
0.6966326,-0.1048578,-0.09959735
0.7191354,-0.1318771,-0.03167359
0.8085026,-0.1547451,-0.08442503
0.9018819,-0.1849119,-0.1023536
0.818652,-0.2837672,-0.143283
0.7333059,-0.470172,-0.2273971
0.8590039,-0.6806328,-0.1571925
1.020366,-0.7142811,-0.04815927
1.245697,-0.4434868,0.1403755
1.584455,-0.09040256,0.3661252
1.592737,0.05757142,0.2898108
1.415886,-0.06848701,0.1452057
1.42064,-0.2447943,0.2770923
1.211564,-0.3307574,0.321821
0.9821876,-0.287461,0.2187423
0.957212,-0.003993928,0.2161227
0.7275436,0.202727,0.1299315
0.6747373,0.1215929,0.1163091
0.7458396,0.02815792,0.1791121
0.443852,-0.09005127,0.06756192
0.327113,-0.2692366,0.06153964
0.4988033,-0.2829603,0.0720485
0.7029208,-0.2337002,-0.04578019
1.002537,-0.310046,-0.1014071
1.11211,-0.3129182,-0.09856848
1.156048,-0.2748023,-0.02835111
1.1684,-0.2820921,0.01431642
0.9018639,-0.1654994,0.07826844
0.837726,-0.1752746,0.1461694
1.110297,-0.296996,0.0001171754
1.423864,-0.3311226,-0.1708442
1.649136,-0.4361768,-0.2493253
1.480043,-0.4303841,-0.1783683
1.100917,-0.365484,0.09987052
0.9422949,-0.3556587,0.300074
1.18296,-0.1978818,0.1796816
1.563156,0.009386636,-0.2472334
1.293936,0.151412,-0.469735
0.6217967,0.1289529,-0.07581075
0.2820184,0.08562293,0.329069
0.4461219,0.06387277,0.1388166
0.9539423,-0.1377754,-0.1053934
0.9956794,-0.1392003,-0.07256565
0.871438,0.02353482,-0.2441649
0.9925639,0.05099477,-0.2936323
0.7489766,0.1048125,-0.1104431
0.6898454,0.03200029,-0.1268259
0.7897727,-0.1155219,0.007903434
0.74722,-0.1955174,0.08759381
0.961459,-0.2918592,-0.05715209
0.9395076,-0.3213406,-0.1334034
0.8850324,-0.4034959,-0.2997036
0.9684096,-0.4958393,-0.2767096
0.9208748,-0.512589,-0.1160589
1.133332,-0.5048595,0.02749476
1.364466,-0.2829125,0.3071069
1.46279,-0.04865197,0.3070632
1.491206,-0.09036402,0.2101563
1.423631,-0.316076,0.2950365
1.372961,-0.4930147,0.2980568
1.17415,-0.3518818,0.3064713
1.032212,-0.1030032,0.2385389
0.9030177,0.04582835,0.06300101
0.6139658,0.2007231,0.03713489
0.4554966,0.2282225,0.06986687
0.4029183,0.1069729,0.05486992
0.4169764,-0.07317605,0.07514807
0.4788051,-0.2996844,0.09441698
0.6340087,-0.4381223,0.04306206
0.8938656,-0.4505834,-0.06555488
1.037035,-0.3992609,-0.1892413
1.105577,-0.310546,-0.2149522
1.061343,-0.2066378,-0.08421887
0.9724501,-0.1307046,0.0564415
0.9953193,-0.148185,0.07205419
1.094708,-0.2150762,0.004736039
1.37575,-0.2556666,-0.1091348
1.594889,-0.2794161,-0.258516
1.583579,-0.2929542,-0.284271
1.478469,-0.3078637,-0.1527036
1.286061,-0.3467254,0.04950583
1.250916,-0.4118127,0.2418624
1.328633,-0.4081418,0.0765535
1.267477,-0.2390277,-0.2404961
1.109189,-0.03992513,-0.1617208
0.9364626,0.01711393,-0.1085276
0.9802967,-0.03877705,-0.2218562
1.074295,-0.04489244,-0.1589194
0.9618311,0.03229661,-0.1453586
0.9154293,0.07721095,-0.1088929
0.8810163,0.1036838,-0.03452108
0.8101736,0.1000158,-0.1027595
0.8463494,0.05625269,-0.08635532
0.7792326,0.005118144,-0.0721268
0.7228861,-0.0823756,-0.09988584
0.8743479,-0.04328453,-0.08725861
1.03414,0.04250047,-0.1810363
1.063245,-0.02265739,-0.2426715
0.9262302,-0.03517773,-0.1602828
0.8230674,-0.03237354,-0.01081591
0.9025986,-0.0771168,0.05108721
0.9843894,-0.02115084,-0.08869301
1.013469,0.02995306,-0.2464557
0.9811314,0.04394794,-0.2711173
0.8613442,-0.005862606,-0.1938059
0.7941308,-0.2336719,-0.1619114
0.9119144,-0.5822016,-0.2229493
1.14022,-0.8908,-0.2175384
1.350567,-0.8907971,-0.05919583
1.570888,-0.6698753,0.1387462
1.702845,-0.5841322,0.1486233
1.675878,-0.5876135,0.0918755
1.593147,-0.5217942,0.1446203
1.374112,-0.2685485,0.09633623
1.136165,0.1086586,0.01189529
1.049019,0.2165777,0.02486246
0.9274242,0.02378527,0.02422931
0.7558619,-0.1558763,0.09305627
0.6477234,-0.2524666,0.1821622
0.6283277,-0.2811874,0.1236298
0.6224097,-0.1899598,0.05150836
0.5386799,-0.1170984,0.06215758
0.4798633,-0.1577949,0.07574069
0.4553335,-0.1674609,0.0831208
0.5756328,-0.2001823,0.08696547
0.8528778,-0.2849319,0.07463794
0.9043697,-0.2658947,0.06501742
0.8722967,-0.2226519,0.005243422
0.9680784,-0.218112,-0.0777464
0.9495837,-0.2035039,-0.05725045
0.9325791,-0.2109539,0.02733212
1.036176,-0.2250456,0.1207694
1.086239,-0.2248234,0.1911588
1.043199,-0.2230099,0.1569861
0.9579149,-0.2160625,0.1014495
0.8958772,-0.2388686,0.06516248
0.8929942,-0.3370827,-0.0414741
0.9940087,-0.4450246,-0.1632092
1.28437,-0.4638339,-0.2610142
1.705236,-0.4542576,-0.339166
1.854723,-0.4816031,-0.2874436
1.400858,-0.4507298,0.01721206
1.037238,-0.2956895,0.3457212
1.471992,-0.006231764,0.1868547
1.772009,0.2671031,-0.107376
1.201377,0.2591623,0.0142102
0.677372,0.1472812,0.09184295
0.7248461,0.08147098,0.06581954
0.9138671,-0.09603792,0.03786446
1.002726,-0.1409924,-0.1690919
0.8998743,-0.01814068,-0.1259597
0.7123131,-0.007660245,-0.0520144
0.6412426,-0.003638864,-0.1978792
0.632475,-0.04291862,-0.1458582
0.6958415,-0.1840934,-0.09398118
0.7937959,-0.2479791,-0.06598204
0.7974243,-0.2653704,-0.05966712
0.7699843,-0.3433648,-0.2032066
0.7801019,-0.5415165,-0.2007705
0.9213996,-0.6872893,-0.1458645
1.239974,-0.5500699,-0.01075944
1.542601,-0.3049844,0.2246317
1.648076,-0.1552392,0.2556882
1.59401,-0.2269907,0.276788
1.521788,-0.4558478,0.3588354
1.327244,-0.4799329,0.3402146
0.9861435,-0.2781819,0.2728662
0.8437209,-0.06051045,0.2029769
0.8351418,0.005290101,0.156326
0.7241884,-0.05239277,0.1649642
0.6466355,0.02573328,0.2019291
0.569037,0.05932438,0.1445227
0.4900522,-0.04618049,0.09962529
0.5298976,-0.09046067,0.1314013
0.6194072,-0.1875089,0.0805707
0.8161958,-0.2613874,0.02540638
1.069464,-0.2701195,-0.004583202
1.176331,-0.294447,-0.005994179
1.160105,-0.2574869,0.02804588
1.069651,-0.2627703,0.02811586
1.007199,-0.2612698,0.02690754
1.166682,-0.263228,-0.1603981
1.558366,-0.3687501,-0.431026
1.803813,-0.4161084,-0.3699168
1.495395,-0.4362402,-0.08626196
1.068626,-0.4524094,0.1829677
1.118602,-0.3912665,0.2701791
1.333135,-0.2647899,0.04377775
1.448069,-0.1046291,-0.2505173
1.466895,-0.02198831,-0.3381006
1.177571,0.0507427,-0.1798216
0.896305,0.1588217,-0.003655203
0.9430475,0.1585135,-0.07768951
0.9587027,0.06997671,-0.1194659
0.8074018,0.03541948,0.005414486
0.716842,0.0631181,-0.01303942
0.7554961,0.05634033,-0.06461434
0.7650017,0.04446231,-0.1136193
0.74366,0.02711202,-0.187727
0.8235257,-0.00610793,-0.09386321
0.9128238,0.03632135,-0.04706456
0.9635784,0.06268702,-0.09298154
0.9378806,0.0002849376,-0.08476158
0.8748399,-0.05461029,-0.1167442
0.9172334,-0.07132732,-0.1973092
0.9152218,-0.1587347,-0.3708695
0.861057,-0.3592658,-0.4845411
0.8764482,-0.5521351,-0.3159387
0.9264575,-0.7713638,-0.002274447
1.063295,-0.8666804,0.2637267
1.23776,-0.4641374,0.3093571
1.38545,0.0765885,0.1316084
1.470613,0.1183107,0.03094074
1.497177,-0.1520984,0.1452832
1.562685,-0.3121248,0.2319827
1.38574,-0.3405435,0.1925294
0.9626185,-0.1903374,0.1819986
0.77304,0.05876946,0.1374267
0.759121,0.09303673,0.0269691
0.7963054,-0.09222526,-0.003735526
0.8948678,-0.3410133,0.008817211
0.8588026,-0.4881925,0.01925414
0.7017179,-0.4283091,0.1058959
0.5179998,-0.3112748,0.2032425
0.4710572,-0.1621665,0.1930987
0.6029806,-0.02969877,0.1614902
0.7915064,-0.08358126,0.1277348
1.095005,-0.1289522,0.02671259
1.173299,-0.0806477,0.02485315
0.9812764,-0.1212248,0.143006
0.957803,-0.1431622,0.2141888
0.8683809,-0.09200463,0.2484054
0.7582542,-0.032817,0.200219
0.7743741,0.06632591,0.04382055
0.6923252,0.04109341,-0.1252924
0.9662555,-0.225372,-0.3953641
1.658762,-0.7829153,-0.8597443
2.00595,-1.316814,-1.005312
1.507314,-1.085401,-0.189442
0.9225013,-0.5254671,0.5966422
1.344416,-0.242754,0.2155249
1.64952,0.1767344,-0.1812933
1.216259,0.3528782,-0.02943548
1.034225,0.1436981,-0.09791727
0.7384828,0.01023592,-0.02388971
0.5890341,-0.3377124,0.1406148
0.8930267,-0.4984431,-0.009082949
0.8345493,-0.2316252,-0.03364018
0.850903,-0.07472835,-0.07003053
0.8738036,0.1020455,-0.1206781
0.6971049,0.1604138,-0.03213183
0.9427967,0.02398376,-0.115606
1.100872,0.004567123,-0.1458527
1.012728,-0.03944714,-0.1176417
0.9354212,-0.06872626,-0.1073502
0.694876,-0.031751,0.04985528
0.5462201,-0.03172441,0.06737367
0.559023,-0.04605949,0.01283839
0.6863405,-0.1058283,-0.02642707
0.9011344,-0.146796,-0.1785496
1.060243,-0.1357288,-0.251919
1.093925,-0.1263799,-0.2718345
0.9732927,-0.1599123,-0.3110856
0.9382583,-0.3112303,-0.3271226
1.000653,-0.6033586,-0.2951848
1.115127,-0.8285069,-0.1518876
1.361828,-0.7341283,0.08867858
1.460515,-0.4737292,0.3000859
1.40469,-0.2043395,0.3040098
1.403764,-0.06468502,0.2687521
1.421134,-0.2735056,0.333288
1.371744,-0.398097,0.3243875
1.18246,-0.1914929,0.2675547
0.9091216,-0.04177304,0.195126
0.7136216,0.003769985,0.1645865
0.6547345,-0.04292077,0.1952084
0.5781299,-0.1207962,0.1638185
0.4799281,-0.08530214,0.1445385
0.4640328,-0.1146284,0.1207571
0.4640987,-0.1838708,0.08486628
0.5446075,-0.2089683,0.08619939
0.6786971,-0.2570923,0.02694467
0.7707324,-0.2505139,-0.005416608
0.8427532,-0.224275,0.010439
0.8901701,-0.1809833,0.02398379
0.978071,-0.1187225,0.08181273
1.022516,-0.2069052,0.0854585
1.016061,-0.3415566,0.0615261
1.107095,-0.3456597,0.03041521
1.383271,-0.3180077,-0.1966646
1.829988,-0.3129205,-0.5401779
1.874684,-0.3006238,-0.5674598
1.353886,-0.3421602,-0.1017916
0.9807348,-0.4388916,0.3373695
1.01528,-0.4679807,0.2945036
1.245924,-0.3356706,0.03196648
1.368704,-0.05537467,-0.1932603
1.218909,0.145718,-0.3212743
0.8955965,0.05659908,-0.1056638
0.5782768,-0.09657864,0.1809205
0.6561515,-0.1106541,0.04770759
0.8918783,-0.1014751,-0.0999735
0.8383449,-0.02674329,-0.0730795
0.8242497,0.09315191,-0.1067101
0.8217494,0.1026897,-0.04829066
0.7502657,0.06397256,-0.1061644
0.7701229,-0.01124711,-0.2264076
0.6808216,-0.1016114,-0.09393156
0.6787215,-0.1193247,0.007661129
0.8343535,-0.09918056,0.06612793
0.9493122,-0.08228029,0.02677571
1.048879,-0.1366787,-0.1579611
0.9112738,-0.2532752,-0.1762399
0.7368921,-0.442476,-0.1613793
0.8072425,-0.6908862,-0.1146978
0.9974824,-0.7310826,0.08275766
1.30992,-0.497795,0.2340802
1.456487,-0.1723113,0.2476921
1.43221,0.04422217,0.1493825
1.437421,0.002074924,0.1524198
1.21738,-0.1802556,0.2677053
1.006159,-0.2993849,0.3182954
1.076413,-0.2473011,0.2868588
1.08383,-0.1279551,0.1977376
0.847226,-0.08476115,0.2178633
0.5475313,-0.02345304,0.242237
0.4370787,0.002335716,0.1906785
0.5447475,-0.09207075,0.2034566
0.7323315,-0.1945086,0.07789486
0.990984,-0.3208664,-0.1020294
1.196844,-0.4191313,-0.1283641
1.12097,-0.4166096,-0.08841389
1.012735,-0.4185712,0.02474077
1.014816,-0.363768,0.14251
0.8570945,-0.2144078,0.1701209
0.8219444,-0.1597407,0.02098177
1.000734,-0.1952969,-0.1979994
1.172836,-0.2001862,-0.2595139
1.52181,-0.2916952,-0.2497751
1.605386,-0.4782407,-0.1364659
1.201002,-0.4936492,0.1287831
1.013281,-0.2442242,0.2524314
1.248286,0.08396506,-0.0138731
1.465454,0.2185629,-0.3429692
1.273305,0.161404,-0.2363174
1.000407,0.1705794,0.002854034
0.9383152,0.19061,0.1245653
0.8777467,0.08736734,0.2287887
0.9160373,0.0140231,0.1286027
0.8913127,0.03842853,0.0114952
0.8033764,0.04653066,-0.08985391
0.8588325,-0.01591739,-0.2646381
0.7878876,-0.1051924,-0.1769088
0.7348406,-0.2364442,-0.08823492
0.7199648,-0.3916898,-0.1454354
0.6384009,-0.4777255,-0.1374805
0.6934925,-0.5461962,-0.2383157
0.7781356,-0.5889637,-0.2169499
1.020013,-0.5378114,0.09355808
1.334426,-0.413251,0.364314
1.454928,-0.1577812,0.3720252
1.570346,0.01917995,0.1848579
1.494515,-0.1386628,0.1592092
1.188319,-0.2561527,0.2282348
1.052674,-0.09538361,0.2415803
1.132348,-0.005326032,0.3055384
1.161405,-0.02655033,0.2430604
0.8856078,0.02542049,0.1489311
0.5118046,0.03479899,0.1211121
0.3958783,-0.04521785,0.07105813
0.4807883,-0.158363,0.09475183
0.6596993,-0.2610787,0.06610284
0.9008016,-0.292306,0.01131085
1.0237,-0.332794,0.01263946
0.9542185,-0.3768858,-0.009372496
0.8865401,-0.3842917,0.01751197
0.8726975,-0.4127079,0.02842757
0.9943185,-0.3729322,-0.020242
1.461128,-0.2436351,-0.2213165
1.821097,-0.1764842,-0.4711434
1.60435,-0.2756735,-0.2859398
1.294833,-0.4348284,0.06911404
1.260324,-0.4088052,0.09713114
1.264397,-0.1906603,-0.08200562
1.320263,0.02840006,-0.2884681
1.403639,0.08268699,-0.2796678
1.220991,0.02748177,-0.1150629
0.9637315,0.03698792,-0.05093988
0.8893735,-0.007644895,0.02283687
0.8978759,-0.1127006,-0.01119355
0.905479,-0.1330292,-0.1084271
0.8671397,-0.09127682,-0.04921155
0.8602154,0.03840967,-0.09020824
0.8195326,0.08307365,-0.1464024
0.7367063,0.01665026,-0.09408436
0.780243,-0.009493267,-0.0849491
0.7895348,-0.136351,-0.02572004
0.7988747,-0.2021122,-0.003371987
0.8747019,-0.1510294,-0.01188222
0.8729896,-0.183466,0.02214226
0.8924233,-0.1768553,-0.02743907
0.8988309,-0.2003691,-0.125236
0.8820646,-0.3235406,-0.3100973
0.9374677,-0.4213927,-0.3784722
1.082297,-0.4749215,-0.05084028
1.3257,-0.5001178,0.2806034
1.413879,-0.492704,0.2793585
1.396054,-0.3324509,0.2049313
1.538832,-0.1725876,0.2631167
1.570607,-0.2252923,0.2695673
1.388641,-0.3313688,0.2314478
1.212579,-0.4023159,0.2951973
1.060315,-0.3692239,0.2935542
0.9816745,-0.2166451,0.214141
0.9144456,-0.07099506,0.1349683
0.7660968,-0.002838931,0.07561076
0.6852128,-0.0485503,0.1089293
0.6482291,-0.1235726,0.09424583
0.66152,-0.2446726,0.05466564
0.7440073,-0.3749835,0.07778269
0.7134589,-0.3402768,0.06407217
0.7252366,-0.2898782,0.07144729
0.8501931,-0.2619922,0.07438538
0.9337474,-0.1470359,0.04639462
1.012359,-0.04984104,0.04920193
0.9903934,-0.003322717,0.04178479
0.921424,-0.03021745,0.07791916
0.8936863,-0.08639137,0.1567165
0.8520408,-0.1250531,0.2077872
0.9835412,-0.2461205,0.2205413
1.175646,-0.3048404,0.1673679
1.184507,-0.2241326,0.1025433
1.114302,-0.2025006,0.07552308
1.109852,-0.2868933,0.02616121
1.327121,-0.4683384,-0.1296866
1.590073,-0.649557,-0.3558673
1.543212,-0.6447365,-0.4289597
1.313624,-0.5441095,-0.2608859
1.243833,-0.449336,-0.09205034
1.477015,-0.2604668,-0.1173109
0.8335938,-0.01824003,0.01380124
0.8039636,0.02009377,-0.01052712
0.8541747,-0.002756202,-0.07649179
0.8290586,-0.01978995,-0.09024997
0.7544532,-0.07108656,-0.05919035
0.6759541,-0.2235711,-0.01183924
0.6695862,-0.2974534,-0.1010202
0.8690678,-0.2157668,-0.2855299
1.176835,-0.1886828,-0.4851531
1.236432,-0.2121413,-0.5929023
0.9665632,-0.2027929,-0.4388762
0.6381041,-0.1957409,-0.2370442
0.4616441,-0.1564253,-0.2066554
0.5015563,-0.062412,-0.2607736
0.8247939,-0.004571437,-0.3907383
1.441925,-0.09192896,-0.5759391
1.868001,-0.2414642,-0.6440195
1.745216,-0.293239,-0.5486057
1.454641,-0.1952677,-0.3303476
1.102572,0.05288882,-0.02938339
0.7401245,0.253854,0.05396242
0.8061084,0.1980194,-0.1866216
0.9505107,0.06770838,-0.2878304
0.832572,0.0610572,-0.1228694
0.8564716,0.05215283,0.01015761
0.816296,-0.01824603,0.03288135
0.6354627,-0.06870774,-0.08142707
0.6924742,-0.05748489,-0.232879
0.7807698,-0.01323186,-0.3048668
0.837388,-0.0563938,-0.415848
0.8155366,-0.09397296,-0.5036608
0.6350655,-0.08066119,-0.4422694
0.6143503,-0.2432,-0.2993801
0.7929713,-0.4808426,-0.1609691
1.200994,-0.5096136,-0.1414219
1.667533,-0.2459131,-0.2476132
1.787969,-0.05685649,-0.2875237
1.699543,-0.3839639,-0.2384389
1.560886,-0.6733318,-0.2331471
1.320902,-0.3861232,-0.222628
0.9490189,0.01521583,-0.1412212
0.6913642,0.2694309,-0.04493166
0.7244951,0.3959934,-0.05327336
0.6889897,0.2434768,-0.1737374
0.6265031,0.007760691,-0.2253426
0.6694509,-0.2064021,-0.1970858
0.6386821,-0.4475437,-0.1791676
0.7155951,-0.4271768,-0.1927508
0.9177143,-0.2820054,-0.2424664
1.083672,-0.2180981,-0.3102076
1.186376,-0.1047782,-0.4206022
1.170578,-0.09771984,-0.4631298
1.038251,-0.1170084,-0.4075
0.8210411,-0.07755418,-0.4026569
0.8104943,-0.09618214,-0.4375602
1.13233,-0.1104789,-0.5042157
1.381496,-0.2325445,-0.5225827
1.328419,-0.2904586,-0.2939678
1.118296,-0.04784027,0.1185719
1.068619,0.2636646,0.3224963
1.300353,0.5968243,0.09640072
1.456157,0.8524803,-0.2397937
1.15157,0.4614264,-0.3565083
0.7172211,-0.2662369,-0.1281284
0.7510201,-0.2491282,0.164554
0.9021684,-0.07229418,-0.01487817
0.8458211,-0.2605782,-0.2643022
0.8260683,0.04393169,-0.2346433
0.7019372,0.381099,-0.2955128
0.5863344,0.3751873,-0.2628562
0.6347675,0.337578,-0.1919638
0.7192315,0.1181795,-0.2810111
0.8814641,0.1331356,-0.2424252
0.8885662,0.1940675,-0.2477134
0.7975858,0.08481718,-0.3175512
0.7635104,0.05111302,-0.371897
0.6050885,-0.2932672,-0.5224155
0.6202148,-0.6746358,-0.5077599
0.940973,-0.7805402,-0.3880575
1.33137,-0.6515338,-0.3417153
1.645635,-0.2947813,-0.3920404
1.711317,-0.08729725,-0.4868769
1.688527,-0.05171913,-0.3687764
1.618201,-0.1928622,-0.257635
1.320403,-0.2976529,-0.2425865
0.9549363,-0.1201473,-0.08938977
0.652337,0.01404439,-0.007317524
0.5433252,0.08508716,-0.05575184
0.6698813,-0.06383576,-0.1030829
0.780441,-0.3850515,-0.1783983
0.8485696,-0.4978447,-0.2430074
0.8974375,-0.5587852,-0.2274631
0.8521538,-0.4904437,-0.1919838
0.7936212,-0.2375355,-0.1871351
0.755511,-0.04969246,-0.1334166
0.7766822,-0.03906395,-0.1194922
0.9170876,-0.1027413,-0.1597519
1.06322,0.002837057,-0.126139
1.08403,0.01166104,-0.1305396
0.9891398,-0.07218245,-0.1543985
0.9183632,0.01495179,-0.1648497
0.9238417,-0.0423034,-0.2365884
0.8708956,-0.1527305,-0.3046272
0.7604827,-0.2046127,-0.5007297
0.8032653,-0.2793778,-0.9461669
1.200543,-0.2668268,-1.468511
1.786022,-0.4036313,-1.606901
1.943566,-0.494916,-1.028591
1.566436,-0.2864473,-0.3837839
1.206296,-0.148087,-0.2495966
1.064133,-0.1804567,-0.200004
1.095094,-0.1958819,-0.092941
1.13763,-0.02910866,-0.1033196
0.9331209,0.09849694,-0.0641123
0.7187726,-0.009880759,-0.04760456
0.6756832,-0.05108045,-0.1269594
0.6934509,0.01427602,-0.1335584
0.7293469,0.06409744,-0.1718602
0.639468,0.08133464,-0.2077881
0.5803352,0.07128683,-0.1597526
0.6649895,0.04330047,-0.1997
0.7403524,-0.04416753,-0.219395
0.881317,-0.0794247,-0.2393638
0.9355676,-0.08537224,-0.3814895
0.8012301,-0.1146185,-0.4466732
0.6495145,-0.0958883,-0.4183649
0.5146341,-0.1010745,-0.3595483
0.4252914,-0.1294029,-0.3245157
0.48333,-0.1768919,-0.3769559
1.035333,-0.2759917,-0.4932536
1.775192,-0.366188,-0.6549152
1.769961,-0.4085089,-0.612745
1.433312,-0.5500746,-0.3086814
1.411702,-0.8027775,-0.04800516
1.255521,-0.679591,-0.01306415
1.085352,-0.1695923,-0.09583079
1.097228,0.2013411,-0.01412091
1.013934,0.2666698,0.05444375
1.014705,0.1779064,-0.08295644
0.8646124,0.268297,-0.1918355
0.624982,0.2562783,-0.2618297
0.7584666,-0.1740128,-0.2570235
0.7832471,-0.4589917,-0.2418106
0.8050534,-0.47605,-0.3522296
1.04047,-0.4379686,-0.3760452
1.00387,-0.4344247,-0.3704525
0.8412653,-0.4309937,-0.3610282
0.6478782,-0.2329818,-0.233106
0.487995,-0.09203396,-0.1485568
0.6002289,0.0698108,-0.1418362
0.9509226,0.2286749,-0.3578673
1.548256,0.09610702,-0.7897239
1.861687,0.04148013,-0.9105584
1.519402,0.04131305,-0.5540199
1.148509,0.1116473,-0.1244006
1.052576,0.2683117,-0.03935228
1.055322,0.06715806,-0.2306413
1.056573,-0.106843,-0.2887743
0.8201236,-0.0105853,-0.1114952
0.515867,-0.008812853,0.07310365
0.5088159,-0.04968909,0.05925915
0.6397654,-0.04549252,-0.103085
0.8386649,-0.09262265,-0.3019098
1.021381,-0.1435823,-0.4831235
0.9906093,-0.07373318,-0.5469067
0.8724053,0.01366229,-0.5653511
0.7215855,0.04318839,-0.5538851
0.5835585,0.05836823,-0.4444539
0.5402422,0.0002125855,-0.3410684
0.6593684,-0.1407265,-0.2135733
1.031011,-0.345479,-0.1483129
1.472522,-0.4458626,-0.3117241
1.681287,-0.393696,-0.4292462
1.477792,-0.4282274,-0.2932607
1.172366,-0.4693168,-0.07418516
1.077198,-0.38436,0.04036527
0.9788098,-0.2050943,0.03998071
0.9157386,0.05369475,0.09109137
0.9045357,0.1198287,0.1685214
0.7763471,-0.0002604425,0.01334599
0.6264944,-0.001705025,-0.2251376
0.5543596,-0.04827096,-0.2435935
0.6849894,-0.1616146,-0.2799698
0.9504031,-0.198286,-0.4637567
1.242336,-0.3004517,-0.5840759
1.397279,-0.3134568,-0.6091293
1.045651,-0.2307698,-0.4732688
0.5867141,-0.2136962,-0.2508058
0.5091348,-0.07827402,-0.1737696
0.6652122,0.08519636,-0.2433601
1.100845,0.1237817,-0.4610008
1.703995,-0.02477151,-0.725113
1.92986,-0.3255478,-0.741379
1.635289,-0.3747674,-0.4853751
1.335821,-0.1794325,-0.2421035
1.138909,-0.06277567,-0.1723525
0.870988,-0.07800063,-0.1944506
0.8439521,-0.07931729,-0.1531445
0.8555101,0.0264894,-0.05636438
0.7668874,0.04801022,-0.1354826
0.8015507,0.06741639,-0.2839067
0.6765619,0.1643684,-0.2703588
0.5405807,0.1717229,-0.20111
0.5148161,0.2303153,-0.1187086
0.6036815,0.2407218,-0.1478387
0.9979534,0.144756,-0.2898998
1.168478,0.1670585,-0.3540517
1.068594,0.2119779,-0.3790377
0.9374668,0.2823344,-0.2570871
0.6748607,0.3367086,-0.06915554
0.6748612,0.3060362,-0.05291741
0.8118792,0.3385125,-0.1372263
0.8049829,0.2554284,-0.3466506
0.8596591,-0.09810986,-0.6369067
0.928472,-0.5857592,-0.8446692
1.095734,-0.9455413,-0.8369175
1.347241,-0.9993103,-0.7449852
1.46405,-0.9025843,-0.8231926
1.534456,-0.632727,-0.8118727
1.63905,-0.2642721,-0.7091636
1.654906,-0.05666453,-0.628249
1.395209,0.1570576,-0.393537
0.9575912,0.2349109,-0.2487238
0.7213729,-0.02797017,-0.1511245
0.7581561,-0.2532989,-0.05725799
0.8674408,-0.3764068,-0.1643038
0.9617405,-0.4289249,-0.1517901
0.9010655,-0.3116605,-0.07602669
0.6709369,-0.2369813,-0.06621147
0.4874073,-0.1457199,0.0102146
0.3594334,-0.01184339,-0.07365949
0.3560724,-0.05504019,-0.1770739
0.4834042,-0.1180529,-0.1433582
0.617309,-0.1685238,-0.1600684
0.8616598,-0.2398388,-0.1785432
1.03128,-0.2610941,-0.2131983
1.066024,-0.359398,-0.252147
1.150366,-0.4036975,-0.2410825
1.142578,-0.3229391,-0.3033911
1.039535,-0.255925,-0.4074718
0.8271935,-0.1392292,-0.4360995
0.5981672,-0.0197949,-0.410517
0.7208899,0.0437871,-0.4401586
1.246521,0.0539186,-0.5648881
1.818481,-0.06803103,-0.7152018
1.766661,-0.2118258,-0.6985328
1.15941,-0.1779264,-0.3229331
0.8890664,0.08403825,0.0262404
1.087229,0.4624042,-0.09719664
1.232375,0.6168955,-0.2740215
1.051325,0.3323249,-0.1830805
0.8574908,-0.03976924,-0.07248341
0.9000188,-0.2028776,0.03606237
0.8840352,-0.2486763,-0.02748521
0.8707597,-0.1515973,-0.3441009
0.8803748,-0.02988417,-0.4711745
0.7894818,-0.04523911,-0.4606193
0.7896246,-0.052626,-0.4437464
0.7210666,-0.06442715,-0.3406416
0.6250689,-0.1126493,-0.3173469
0.6101021,-0.1540708,-0.2611138
0.5206847,-0.2317506,-0.2341281
0.5507665,-0.2916958,-0.2823569
0.6376713,-0.3385834,-0.2269704
0.8379995,-0.3066471,-0.2949792
1.334075,-0.1430426,-0.4442914
1.607692,-0.09257301,-0.5038057
1.490437,-0.265771,-0.3598227
1.384287,-0.5350762,-0.02457152
1.310738,-0.6155214,0.04038165
1.115869,-0.2693123,-0.06244134
0.985934,0.2118096,-0.05489902
1.004023,0.3591235,-0.06053399
0.9737735,0.1501351,-0.08735774
0.8673391,-0.08942913,-0.1782452
0.7212615,-0.2118608,-0.2142299
0.6926452,-0.2660901,-0.1200079
0.7914208,-0.2471371,-0.09556836
0.8180238,-0.2614739,-0.2356132
0.9110149,-0.3140831,-0.4119459
0.9706879,-0.3118675,-0.3861267
0.8417776,-0.2784626,-0.3247075
0.7784575,-0.1587936,-0.3938616
0.8404151,-0.08192028,-0.464005
1.099358,-0.1624234,-0.6489746
1.477341,-0.3072876,-0.7624834
1.565071,-0.4270712,-0.5582118
1.448716,-0.2022246,-0.4398272
1.430525,0.2140131,-0.6061438
1.267517,0.2757661,-0.659398
0.7886716,0.1528443,-0.3017007
0.5344757,0.09630471,0.145961
0.8569173,0.0006544239,0.1707423
1.289561,-0.1510243,-0.1538562
1.405081,-0.289431,-0.4241946
1.237413,-0.2665559,-0.4386096
0.7465025,-0.07958429,-0.227301
0.1816758,0.06610004,-0.0224327
0.2187443,0.08672825,0.01336962
0.5106812,0.0737249,-0.06419665
0.6249409,0.06060808,-0.317066
1.007235,-0.03242201,-0.6627261
1.084197,-0.1294149,-0.6813785
0.7400173,-0.2213683,-0.5165059
0.8716203,-0.4145858,-0.4960647
1.135208,-0.4170273,-0.3882207
1.49551,-0.1249937,-0.3511824
1.881013,0.003987485,-0.4400164
1.6943,-0.2675036,-0.2556297
1.575859,-0.6586204,-0.1323674
1.418135,-0.685479,-0.1842523
0.9238774,-0.3441502,-0.1108776
0.7449224,0.01720214,-0.08882738
0.6165388,0.2510619,-0.06448656
0.5451389,0.22352,-0.03122051
0.6855325,0.07493783,-0.1136739
0.6516863,-0.05442188,-0.1614813
0.6103948,-0.2405483,-0.1741512
0.5924078,-0.2709259,-0.1606999
0.6168771,-0.2067528,-0.1569349
0.8116227,-0.2307397,-0.2044691
1.020826,-0.2627831,-0.2898489
1.155501,-0.3361264,-0.3961016
1.031283,-0.3524024,-0.3268693
0.8036044,-0.2969358,-0.2103818
0.791423,-0.2611559,-0.291256
1.022806,-0.1976078,-0.506567
1.494505,-0.1385704,-0.7955105
1.727772,-0.09571572,-0.822551
1.479,-0.1850236,-0.4237668
1.232275,-0.3097035,-0.06094132
1.150715,-0.1458483,-0.07573164
1.232375,0.03268817,-0.4843984
1.3089,0.008404728,-0.7913206
0.9626904,0.05073113,-0.4223742
0.5426694,0.08516587,0.08162983
0.5650382,-0.02557578,0.09024026
0.7384167,-0.1435118,-0.0932492
0.7566895,-0.2082416,-0.2367594
0.6782773,-0.1300488,-0.302099
0.5987832,0.0292004,-0.2420466
0.6270862,0.04563699,-0.2445298
0.7417201,0.0001516743,-0.3096582
0.8559904,-0.01992587,-0.3446086
0.9156716,-0.04837019,-0.4124694
0.8238108,-0.1011877,-0.458311
0.7597744,-0.2522888,-0.4645653
0.9533818,-0.3364809,-0.4610639
1.299082,-0.1900464,-0.4432355
1.637198,-0.0008089555,-0.4267647
1.715742,-0.01885691,-0.3336493
1.532439,-0.3680808,-0.2334017
1.446687,-0.7950132,-0.2625076
1.364076,-0.8043402,-0.311085
1.079837,-0.3946987,-0.2849161
0.751849,0.02348932,-0.1884378
0.4926904,0.2863668,-0.04026094
0.3682737,0.340207,0.01389101
0.3804226,0.2113743,-0.08354883
0.4318317,0.09418936,-0.1333336
0.5295833,-0.149114,-0.1314807
0.6723289,-0.4862325,-0.2102471
0.741529,-0.4854894,-0.24258
0.8555098,-0.3315301,-0.2226908
1.077431,-0.3138513,-0.2725346
1.009596,-0.1657241,-0.3206633
0.8508801,-0.0162115,-0.3054002
1.045385,-0.05515323,-0.347457
1.310622,0.04484842,-0.6008022
1.580693,0.06698268,-0.8463001
1.737024,-0.2141591,-0.7464075
1.706996,-0.4040698,-0.5098963
1.752216,-0.389535,-0.4417024
1.441433,-0.1538222,-0.4445134
0.9449542,0.06925301,-0.411026
0.8302646,-0.01241673,-0.3327959
0.7579802,-0.09936759,-0.25303
0.7059752,-0.1191202,-0.2514991
0.8032048,-0.1336422,-0.3202875
0.9515577,-0.0495043,-0.4186935
0.936749,0.06267921,-0.3274525
0.759299,0.1389141,-0.1229241
0.7672621,0.1137046,-0.1614143
0.6946144,0.060191,-0.2338574
1.008358,-0.003150959,-0.3301055
0.9233918,0.01658661,-0.3948009
0.6695204,0.09150701,-0.2703129
0.354637,0.1180362,-0.2112452
0.4028103,-0.1068779,-0.2570605
0.5666879,-0.2191232,-0.2851058
0.7952662,-0.2862337,-0.404199
0.9055289,-0.2563704,-0.493606
0.7548174,-0.2190978,-0.4507121
0.7785223,-0.3653491,-0.4052611
1.01142,-0.356724,-0.3836437
1.401092,-0.2308353,-0.3819508
1.691491,-0.1352963,-0.38347
1.62303,-0.2592169,-0.3361119
1.500907,-0.5504676,-0.2398701
1.289377,-0.5188547,-0.1316541
0.9901771,-0.3501909,-0.06434943
0.9079224,-0.2033004,-0.02343291
0.9274366,-0.05744543,-0.01134926
0.8068484,0.01321801,-0.05421167
0.6501416,0.1436736,-0.05313067
0.6132916,0.07125545,-0.05694924
0.5915165,-0.1340786,-0.1615007
0.6370001,-0.2204207,-0.2253641
0.8142556,-0.324819,-0.2506045
0.9627652,-0.3431198,-0.3257117
1.037914,-0.3823661,-0.3987919
0.9781697,-0.4022546,-0.4148596
0.8315053,-0.2810862,-0.3547802
0.7686142,-0.2104328,-0.3487703
0.88272,-0.05590948,-0.5184391
1.208349,-0.007433272,-0.7750048
1.444811,-0.1933424,-0.8308157
1.407763,-0.2637634,-0.5453375
1.376056,-0.1953964,-0.3337168
1.462612,0.01358973,-0.439667
1.439145,0.1664793,-0.5015622
1.071108,0.06162896,-0.3457091
0.6168412,-0.02672942,-0.1125176
0.6120777,0.01247914,0.088391
0.8882451,0.03193287,0.0279283
0.9557927,-0.00286591,-0.2403152
0.8851521,0.04019646,-0.3297285
0.7620618,0.08576911,-0.3200599
0.553596,0.06357497,-0.2556618
0.5027692,0.07589302,-0.1228696
0.5852858,0.01894256,-0.1705028
0.6583748,-0.02110697,-0.1885384
0.8199286,0.03163728,-0.2423351
0.9204122,0.03820718,-0.4680188
0.8375057,-0.03068068,-0.4795059
0.7221157,-0.2158712,-0.4375539
0.6786877,-0.3966136,-0.4756779
0.8846049,-0.4417858,-0.4553508
1.345673,-0.3195852,-0.4765752
1.58305,-0.1111353,-0.4653967
1.445676,-0.09628751,-0.3777385
1.319714,-0.3125481,-0.2733093
1.220496,-0.4992972,-0.2428578
1.04551,-0.3646191,-0.258459
0.9251784,-0.1266754,-0.1686599
0.8195348,-0.1174,-0.1163892
0.7456516,-0.07262789,-0.1321368
0.7212536,-0.02527806,-0.09749551
0.6466143,-0.09299878,-0.09972122
0.6007413,-0.1418303,-0.1662078
0.6133053,-0.273441,-0.2275581
0.6756274,-0.3132505,-0.2381862
0.8459009,-0.2594133,-0.2862141
1.033689,-0.2692199,-0.420242
1.106912,-0.141688,-0.4865441
0.9928227,-0.05430176,-0.4939482
0.817139,-0.0911307,-0.5021904
0.8401121,-0.05964915,-0.512338
1.167061,-0.0959128,-0.6717557
1.653548,-0.263371,-0.8278801
1.761174,-0.4548259,-0.6509216
1.357489,-0.441633,-0.3207074
1.122493,-0.1337658,-0.1770895
1.22761,0.2328543,-0.2538775
1.237007,0.4107934,-0.4080071
1.026025,0.2358611,-0.440441
0.7350064,0.03430855,-0.2364391
0.6040192,0.06171466,0.009031638
0.8544792,0.0211699,-0.03575488
1.20079,0.01351847,-0.2171635
1.139525,0.1039502,-0.2351124
0.8478619,0.1455637,-0.237503
0.6229207,0.2597098,-0.2461751
0.5378363,0.2353799,-0.2181643
0.7269343,0.05496261,-0.224346
0.8475521,-0.02450111,-0.180159
0.8213148,-0.05728887,-0.1982794
0.930968,-0.001034475,-0.2605608
0.9842657,0.06864868,-0.2658472
0.9691342,0.1435051,-0.3537271
0.9056433,0.2828379,-0.4118462
0.7611501,0.2140446,-0.455256
0.7364537,-0.08019335,-0.6362942
0.8746741,-0.5614776,-0.8313761
1.167355,-0.9760424,-0.8993288
1.443701,-0.8820337,-0.8200517
1.566536,-0.6428848,-0.701123
1.590154,-0.5325349,-0.576985
1.543076,-0.3878168,-0.5782079
1.456519,-0.2299105,-0.6395967
1.157404,-0.04763977,-0.4165748
0.7727028,-0.06318108,-0.1840418
0.6148754,-0.2379789,-0.1576823
0.6078686,-0.2865971,-0.1724951
0.731215,-0.3510728,-0.2329406
0.8741003,-0.3177033,-0.2279811
0.8778243,-0.1848458,-0.176389
0.7751771,-0.1419184,-0.1195599
0.6140723,-0.06990848,-0.07811296
0.5430064,-0.1274917,-0.1245201
0.5714923,-0.2372508,-0.1138075
0.6430532,-0.225327,-0.1490088
0.7652853,-0.2396529,-0.26251
0.857258,-0.1942643,-0.3248135
0.9365218,-0.1929554,-0.3953731
0.9930016,-0.2478826,-0.3875932
0.9430684,-0.223081,-0.3348409
0.8664546,-0.2311597,-0.2490109
0.8744522,-0.1920703,-0.1512681
0.9201399,-0.1835707,-0.2339201
0.9303673,-0.262356,-0.343009
0.8943191,-0.308317,-0.3947581
0.8289798,-0.3469499,-0.4354782
0.8633029,-0.2411432,-0.4906048
1.077093,-0.09517573,-0.7178677
1.414316,-0.1232996,-0.8560771
1.596549,-0.2563207,-0.6068135
1.356111,-0.3726762,-0.2568202
1.201412,-0.2040564,-0.1910254
1.498228,0.2040016,-0.3900047
1.587692,0.429501,-0.5073173
1.125461,0.3193209,-0.4204177
0.7148397,0.1563442,-0.3125072
0.8162795,0.1197113,-0.1651856
0.9154765,-0.05341396,0.0539873
0.7621684,-0.1512385,-0.006561377
0.8626332,0.008146303,-0.3002968
0.9351435,0.02497624,-0.3813749
0.7871283,0.07980064,-0.3401262
0.7145352,0.134439,-0.2647605
0.5543355,-0.0177705,-0.166268
0.6510952,-0.01877547,-0.1797412
0.9314424,-0.04383782,-0.1860385
0.8578807,-0.08082217,-0.2785483
0.8469426,0.002860504,-0.433135
0.8769209,-0.07647128,-0.4857484
0.7637464,-0.1123901,-0.557755
0.7243885,-0.1705427,-0.5544188
0.6208073,-0.3413835,-0.4782904
0.6037333,-0.398171,-0.4124673
0.8342659,-0.3978574,-0.338575
1.292665,-0.214367,-0.3641496
1.686759,-0.07036464,-0.3740261
1.498283,-0.2321583,-0.2905353
1.23956,-0.4351359,-0.2129118
1.264736,-0.5176799,-0.1575966
1.155566,-0.3064541,-0.150293
1.159273,0.001502632,-0.1677397
1.240908,0.04955228,-0.1732607
1.042683,0.01050175,-0.1660468
0.8014395,0.004555286,-0.1350426
0.5133479,-0.08381862,-0.0791078
0.3289721,-0.2597332,-0.0248696
0.473282,-0.3237068,-0.03010715
0.6668887,-0.2691003,-0.1563166
0.9850809,-0.2966188,-0.4014159
1.220002,-0.3176411,-0.6018258
1.046479,-0.238289,-0.5979166
0.8750096,-0.1370934,-0.4487954
0.7851566,-0.03648624,-0.3922077
0.8779667,0.02117912,-0.6241383
1.282356,-0.06792121,-0.8833834
1.467832,-0.229098,-0.7449729
1.403753,-0.2502793,-0.3712423
1.415544,-0.1629497,-0.1802393
1.424965,0.01900302,-0.344758
1.297293,0.2359362,-0.592918
0.9788736,0.1553976,-0.4233335
0.6372796,-0.008635087,-0.07801136
0.5851672,0.02126284,0.04178116
0.940835,-0.05561938,-0.07339216
1.226047,-0.07798656,-0.3787236
0.9925734,0.095766,-0.3740874
0.7600723,0.1396427,-0.2439323
0.7288998,0.1660171,-0.3285664
0.5405294,0.2083429,-0.1409849
0.5720226,0.132498,-0.08963443
0.8689857,0.07375042,-0.291766
0.9485972,0.05518032,-0.3528656
0.9732225,0.06834569,-0.4826311
0.9034666,0.04436098,-0.4450075
0.6303997,-0.05458803,-0.4344448
0.5656633,-0.2509221,-0.5676863
0.7360283,-0.5866663,-0.4754086
1.098737,-0.7146317,-0.4816128
1.544167,-0.5484339,-0.5275123
1.658548,-0.3236014,-0.4745992
1.546513,-0.1190027,-0.4265217
1.487598,-0.1497628,-0.302637
1.460537,-0.3127393,-0.2953551
1.309558,-0.3183075,-0.2761613
1.064423,-0.2494433,-0.1337592
0.8682752,-0.1218522,-0.09051244
0.668659,0.01417523,-0.1413212
0.5808427,-0.01913171,-0.2346956
0.578579,-0.1403392,-0.2446587
0.5401973,-0.2914694,-0.2049105
0.5668911,-0.434475,-0.2394761
0.6460047,-0.407678,-0.2580091
0.8407625,-0.3012203,-0.2935941
1.015202,-0.2079227,-0.3120527
1.007668,-0.1149552,-0.2683464
0.9604043,-0.09678286,-0.2451498
0.9040399,-0.09733161,-0.1629106
0.9333767,-0.1181745,-0.0835228
0.9979328,-0.1762393,-0.0969446
1.005348,-0.1809527,-0.09324677
1.036201,-0.174525,-0.0906652
0.9587463,-0.1652905,-0.1201867
0.8158404,-0.1278966,-0.1975594
0.7402014,-0.08066232,-0.467614
0.814026,-0.08460186,-0.9902687
1.261549,-0.2869033,-1.450779
1.742832,-0.60429,-1.399698
1.66741,-0.6957444,-0.9399888
1.368266,-0.4042525,-0.5070317
1.336299,-0.06012745,-0.3702352
1.229086,0.01276117,-0.4713309
0.9099467,0.007616988,-0.3361894
0.6424298,0.02816033,-0.01689454
0.5359693,-0.03537349,-0.005896632
0.7275445,-0.08293299,-0.1587239
0.8811141,-0.05028317,-0.263679
0.8121767,0.03737594,-0.270348
0.8153698,0.1399983,-0.1833994
0.7826699,0.1521903,-0.2148951
0.7747555,0.08176735,-0.3071102
0.8077904,0.03387226,-0.3592825
0.7447891,0.04014445,-0.2546619
0.7556345,0.0887506,-0.02928435
0.7679172,0.1332672,-0.07537352
0.8011959,0.07908604,-0.2522177
0.8652052,-0.02057234,-0.3277707
0.8138839,-0.06476685,-0.3343209
0.7871918,-0.1056982,-0.2949328
0.7787009,-0.1534653,-0.4397765
0.7325046,-0.1985419,-0.5666931
0.6846755,-0.2554895,-0.5136775
0.6591875,-0.3528838,-0.5314821
0.8073078,-0.5222022,-0.4953111
1.154684,-0.5538751,-0.4209626
1.503896,-0.3651709,-0.4619599
1.589595,-0.2093989,-0.4757867
1.33174,-0.2002107,-0.3884963
0.970742,-0.2739185,-0.2391849
0.8184824,-0.3155362,-0.1067436
0.9206822,-0.3135682,-0.05846552
1.131533,-0.3113626,-0.09505545
1.277817,-0.2582083,-0.1037477
1.046244,-0.1681405,-0.05857831
0.5537936,-0.01719176,-0.06238336
0.3424397,0.06706613,-0.05996397
0.4160598,-0.07218193,-0.0519482
0.5875403,-0.1964934,-0.08501486
0.8918045,-0.2677977,-0.1890218
1.175839,-0.4160874,-0.3835812
1.217415,-0.4845963,-0.4385845
1.026888,-0.415166,-0.3344198
0.8545493,-0.3050117,-0.3213592
0.8813704,-0.1663319,-0.4456152
1.103651,-0.04032474,-0.6818749
1.467348,-0.09460753,-0.8467574
1.636416,-0.2261752,-0.6792751
1.335526,-0.1874365,-0.3677774
0.9994473,-0.02259373,-0.2208987
1.070458,0.2360966,-0.2235567
1.328655,0.3528722,-0.3347241
1.415067,0.1867345,-0.4117407
1.060619,0.1195862,-0.2628181
0.5434517,0.08323551,-0.04411614
0.5768698,-0.08916279,0.04604634
0.7914265,-0.1718988,-0.04933345
0.7090399,-0.1584802,-0.2187735
0.7323227,-0.04436644,-0.2800245
0.7136611,0.08804877,-0.2848076
0.6145117,0.07608628,-0.2264323
0.7040515,0.00533443,-0.1552309
0.7822244,-0.06515773,-0.21411
0.9472881,-0.0908605,-0.2870495
1.066077,-0.0455652,-0.3465064
0.8963048,-0.0140905,-0.4040424
0.7440326,-0.0996496,-0.457141
0.709979,-0.3221443,-0.5686674
0.9044374,-0.5079739,-0.5938185
1.283126,-0.4554548,-0.5508562
1.447246,-0.2171081,-0.514183
1.427013,-0.08413067,-0.3027851
1.443794,-0.1948057,-0.09936494
1.53349,-0.4787519,-0.2179387
1.553403,-0.689758,-0.3531455
1.257989,-0.5036165,-0.2261494
0.7887668,-0.1671771,-0.1185653
0.5644197,-0.02095523,-0.08193853
0.560917,0.0991839,-0.01755719
0.5581167,0.1557368,-0.04177265
0.6019262,0.03966939,-0.04546854
0.5995616,-0.125683,-0.08302112
0.5260185,-0.3214061,-0.19296
0.5470574,-0.388451,-0.1827844
0.6900542,-0.2905556,-0.249994
0.9894244,-0.3012432,-0.3913943
1.148845,-0.3127319,-0.4174733
1.003307,-0.2237424,-0.3684992
0.9435795,-0.1841577,-0.2940226
1.026269,-0.1253275,-0.410167
1.285824,-0.0985854,-0.702104
1.703735,-0.1898492,-0.8753087
1.755363,-0.2709058,-0.657489
1.531172,-0.2101546,-0.2533874
1.515727,-0.003523334,-0.2873723
1.541145,0.1415957,-0.5236879
1.453093,0.134079,-0.64124
1.302545,0.06988961,-0.6572337
0.8967339,0.009936786,-0.2035466
0.4766539,-0.05496292,0.2183781
0.6032396,-0.07891667,0.01886666
0.9562509,-0.0255629,-0.2498607
0.9474237,-0.0287428,-0.3048391
0.7279504,0.08532297,-0.3080605
0.5438835,0.2620605,-0.296732
0.579523,0.09802776,-0.3447577
0.7493751,-0.05296595,-0.401701
0.7054701,-0.05037984,-0.3425483
0.7876747,-0.1993171,-0.2599575
0.9097477,-0.2486862,-0.2058746
0.762899,-0.1317776,-0.1947783
0.8062079,-0.07938521,-0.2796095
0.789363,-0.06761749,-0.324007
0.6925185,-0.08738418,-0.3935258
0.845456,-0.217315,-0.4779812
0.9977167,-0.3567782,-0.4531718
1.37103,-0.3247078,-0.5255454
1.650114,-0.1436153,-0.5334261
1.523343,-0.04176947,-0.3160081
1.472639,-0.2414757,-0.1328496
1.362833,-0.5393597,-0.1321563
1.154001,-0.5531958,-0.229778
0.9903541,-0.3391621,-0.1822987
0.798016,-0.07783371,-0.1044457
0.677519,0.1438541,-0.0926666
0.6154971,0.1790419,-0.08714976
0.6029075,0.05091507,-0.1976185
0.5885469,-0.1168604,-0.2075016
0.567756,-0.3319427,-0.1653615
0.6284128,-0.480901,-0.2113314
0.7285547,-0.4146587,-0.2044595
0.9558762,-0.3224512,-0.3410217
1.189826,-0.3166679,-0.480128
1.145271,-0.2240842,-0.395945
0.9479674,-0.1323885,-0.2908719
0.806004,-0.1425398,-0.2512504
0.8330007,-0.09583785,-0.3943638
1.185718,-0.05610633,-0.721139
1.709239,-0.1130702,-0.9141353
1.840353,-0.2314086,-0.731887
1.332943,-0.3407118,-0.340166
0.7654616,-0.2107478,-0.02528435
0.7664474,0.01259138,0.05761518
1.143855,0.0435631,-0.2008798
1.347284,0.08363315,-0.4394049
1.166551,0.1959467,-0.3714571
0.8140114,0.1982507,-0.1792989
0.6044071,0.1276372,0.0461415
0.5649577,0.07054075,0.02465242
0.6292921,0.02477857,-0.2257913
0.6998206,-0.00944657,-0.3386408
0.7121058,-0.01284276,-0.3526288
0.791566,0.009123647,-0.2904798
0.5355908,0.0202263,-0.09871251
0.5816296,-0.1722148,-0.1504605
0.5649815,-0.3285884,-0.2334783
0.5447863,-0.3124493,-0.2039606
0.7355011,-0.2625221,-0.2524656
0.8831412,-0.2993067,-0.2915791
1.042836,-0.2742621,-0.2876307
1.135854,-0.2645873,-0.327318
0.9799338,-0.3323613,-0.3174201
0.9089223,-0.2451347,-0.3659803
0.9636567,-0.1191544,-0.5339925
1.161521,-0.0842063,-0.7595947
1.520365,-0.1737035,-0.8432267
1.614242,-0.3545134,-0.5305282
1.351973,-0.2996368,-0.1553605
1.156474,-0.1524129,-0.08291127
1.25039,-0.1179626,-0.1268891
1.233656,-0.07550472,-0.1157559
0.8730515,-0.0342588,-0.08883119
0.5078516,0.07215305,-0.03677729
0.4347342,0.0384554,0.03557549
0.7579046,-0.1113291,-0.03655884
1.097075,-0.04844043,-0.2237979
1.084705,-0.008174756,-0.3230932
0.8649186,0.03811269,-0.3257949
0.5639434,0.1330448,-0.2502938
0.4381198,0.04699946,-0.1588065
0.5513739,-0.006185292,-0.1191523
0.7023869,-0.03063842,-0.1340795
0.9338547,-0.06538571,-0.3069444
1.03171,-0.06148798,-0.5443377
0.887147,-0.2221762,-0.6170194
0.8362216,-0.4283807,-0.5741074
0.8998904,-0.541315,-0.5712059
1.019294,-0.5118686,-0.5704669
1.321131,-0.3052337,-0.5190368
1.581974,-0.08854256,-0.491514
1.534922,0.007322845,-0.3595638
1.410828,-0.2380322,-0.13023
1.35593,-0.5802513,-0.1161992
1.200794,-0.5387201,-0.1863884
0.9621245,-0.3504719,-0.1189529
0.7713927,-0.1733096,-0.04659529
0.7167571,-0.005219015,-0.01405132
0.7530033,0.05299045,-0.07971201
0.7138268,0.1007258,-0.2401027
0.5913705,0.01293393,-0.26449
0.4279046,-0.1947559,-0.1774757
0.3452591,-0.3224692,-0.14248
0.5039895,-0.429419,-0.1574752
0.8122485,-0.4448631,-0.263925
1.166449,-0.3658404,-0.4295799
1.315225,-0.2613707,-0.4908812
1.021967,-0.1021061,-0.3803757
0.7192827,-0.03842407,-0.2450188
0.7755274,-0.06102591,-0.323942
1.144159,-0.0565336,-0.656521
1.708329,-0.117079,-0.9656635
1.87427,-0.2068982,-0.7827525
1.41999,-0.1554968,-0.248803
1.151847,0.06556843,-0.04343415
1.374168,0.2895583,-0.2178979
1.406683,0.285627,-0.3706754
0.9286897,0.0917506,-0.2233384
0.5513603,-0.001785247,-0.05674033
0.6857214,0.01979224,-0.1538424
0.8237144,-0.02332498,-0.1150389
0.8157536,-0.06799177,-0.1544979
0.9605286,-0.02090948,-0.3764301
0.8379773,0.09140368,-0.3002228
0.4886107,0.2052985,-0.2392507
0.5479505,0.2178902,-0.2492631
0.7268269,0.1195344,-0.2186808
0.8494935,0.03829415,-0.3283852
0.9806815,0.04071877,-0.3477058
0.8398198,0.0383684,-0.3071154
0.7209368,-0.02366483,-0.3113269
0.6715258,-0.171219,-0.4089546
0.5695464,-0.4051054,-0.6031925
0.7548466,-0.588778,-0.6147435
1.099938,-0.6408586,-0.5805784
1.492361,-0.5922628,-0.6060965
1.827542,-0.4731492,-0.5357792
1.852305,-0.3295737,-0.4075513
1.737175,-0.2397065,-0.2543877
1.485191,-0.1543464,-0.2001794
1.130864,-0.03243234,-0.2330372
0.9625929,-0.03874407,-0.1815171
0.955041,-0.06603158,-0.1232155
0.9116051,-0.01720142,-0.149452
0.788174,-0.0879585,-0.2125914
0.6821502,-0.1423246,-0.2817678
0.5714395,-0.1301073,-0.3295614
0.4459067,-0.2181846,-0.3393118
0.3899787,-0.3247574,-0.353852
0.4493053,-0.3746442,-0.3426519
0.6200344,-0.3578607,-0.2856813
0.7626957,-0.3304449,-0.2591033
0.8964481,-0.2697208,-0.2375613
0.98255,-0.1265309,-0.2259735
0.9159394,-0.05570688,-0.2243792
0.9057875,-0.05178831,-0.1563287
0.9128253,-0.06351859,-0.1173647
0.8887324,-0.1025418,-0.1768294
0.9219397,-0.1097027,-0.2558028
0.8451477,-0.1389663,-0.2942135
0.7241391,-0.1642955,-0.3569205
0.7539714,-0.1681187,-0.641406
1.124294,-0.291106,-1.105544
1.739791,-0.4537219,-1.359197
1.88994,-0.4137986,-1.138414
1.484877,-0.1454233,-0.602892
1.157663,0.05525149,-0.1856501
1.083294,-0.04651553,-0.2344012
1.088264,-0.1711334,-0.3941397
1.031416,-0.102976,-0.1843934
0.9334017,-0.1344711,-0.1219357
0.8941967,-0.2058097,-0.2815138
0.7925232,-0.07211225,-0.219926
0.6809914,0.01749178,-0.280918
0.7357019,0.03242019,-0.2895479
0.7466953,0.07632065,-0.1439503
0.6616252,0.0436183,-0.2029772
0.5813317,-0.01075771,-0.1804905
0.4548219,-0.07890651,-0.1823467
0.5029124,-0.1057911,-0.2277453
0.7025811,-0.06058223,-0.185252
0.7723046,-0.04781681,-0.2892406
0.7844209,0.0163798,-0.3348191
0.7287929,0.03057872,-0.3981509
0.6533177,-0.171714,-0.5112884
0.7453539,-0.4102368,-0.5194147
1.070599,-0.4696094,-0.6518579
1.667184,-0.4057821,-0.7438814
2.032883,-0.4757945,-0.6465929
1.858342,-0.6951946,-0.409309
1.590466,-0.7928953,-0.1675711
1.22615,-0.4437453,-0.1744402
0.8159448,0.122862,-0.1417462
0.7326893,0.1717426,0.02220762
0.7588064,-0.0290521,-0.0190813
0.8028938,-0.008547112,-0.1026945
0.8846369,-0.1381848,-0.09348051
0.7570827,-0.2598256,-0.1689877
0.576582,-0.2264417,-0.1907543
0.5035263,-0.282857,-0.1576199
0.4980741,-0.2368936,-0.2334443
0.6327235,-0.1557725,-0.2580893
0.8168931,-0.1675164,-0.2739129
0.9226993,-0.1943912,-0.2965779
0.94721,-0.2565125,-0.2286759
0.9477549,-0.2016352,-0.2027876
0.9139456,-0.140807,-0.1672762
0.7833955,-0.2168261,-0.1366124
0.7163126,-0.2692733,-0.1469192
0.8635976,-0.2847748,-0.245331
1.232383,-0.1783583,-0.6836995
1.616203,0.001584603,-1.173818
1.598845,-0.008322227,-1.138759
1.32308,-0.123858,-0.5353464
1.273776,-0.1698803,-0.04706653
1.447883,-0.1393808,-0.2240156
1.546018,-0.07219079,-0.4875843
1.243307,-0.0326451,-0.3961716
0.7000607,0.001013455,-0.213333
0.520522,0.05123101,-0.004020982
0.6665761,0.06968189,-0.03716098
0.8095655,0.07050468,-0.3073476
0.9397405,0.1011019,-0.3393231
0.9294892,0.1478467,-0.3282218
0.7837856,0.1355839,-0.3259305
0.6766589,0.05273737,-0.2133584
0.6227785,-0.03211034,-0.214667
0.6389111,-0.07336184,-0.1342945
0.6878378,-0.03755446,-0.08207463
0.7337464,0.008369473,-0.1633973
0.8103604,0.003457671,-0.1962625
0.8454417,-0.01784801,-0.4011196
0.8224296,-0.09234808,-0.5127386
0.7829591,-0.234944,-0.4641547
0.7545209,-0.4230871,-0.5325129
0.903176,-0.506672,-0.4658314
1.146148,-0.4007141,-0.3797575
1.314748,-0.3062231,-0.4429479
1.563328,-0.1502271,-0.4651489
1.644382,-0.053739,-0.4081781
1.429341,-0.3717926,-0.3644856
1.298295,-0.6106586,-0.3461387
1.052695,-0.3932989,-0.2113893
0.7578693,-0.09664815,-0.05994988
0.7805032,0.07631872,-0.0527429
0.7644322,0.08689604,-0.08915438
0.7176957,-0.05718318,-0.08330054
0.73144,-0.2052944,-0.07010996
0.5942342,-0.287278,-0.09310303
0.5604565,-0.3272464,-0.1200997
0.6525117,-0.3158964,-0.2393468
0.8111847,-0.2690801,-0.4439965
1.067623,-0.2123011,-0.5157726
1.106927,-0.1386102,-0.4679199
0.9032419,-0.116321,-0.4028564
0.6992034,-0.1094992,-0.3702605
0.7373668,-0.0602957,-0.5054739
1.150412,-0.08037587,-0.8301045
1.728518,-0.1941957,-1.009639
2.047852,-0.2635042,-0.8122752
1.918604,-0.09896281,-0.6339396
1.6784,0.1202728,-0.6786836
1.297461,0.07345191,-0.5498927
0.6010458,-0.01105571,-0.1628632
0.2554948,-0.07015096,0.1028991
0.6465166,-0.2559145,-0.06461775
1.116534,-0.2368109,-0.4126115
1.047071,-0.01084321,-0.4111646
0.7920268,0.115163,-0.2640746
0.6728301,0.1688355,-0.228749
0.5395854,0.1131714,-0.1519207
0.6273865,0.064914,-0.1899928
0.7750512,0.1301895,-0.2204395
0.8176601,0.1317325,-0.1721803
0.9262187,0.1637499,-0.2429722
0.8534375,0.2010363,-0.2105318
0.8479364,0.1720386,-0.1755473
0.9382999,0.205321,-0.2028063
0.9168101,0.193174,-0.1679926
1.042113,0.1859903,-0.2502211
1.000361,0.2146549,-0.3438031
0.8713789,0.1525,-0.4323314
0.8977981,0.02068672,-0.5443949
0.8473097,-0.2950884,-0.6212417
0.9736189,-0.719213,-0.7327421
1.192339,-0.9671181,-0.7183951
1.279038,-0.9013485,-0.623167
1.388631,-0.7076687,-0.5638173
1.596541,-0.5535242,-0.58154
1.779977,-0.06171671,-0.7755394
1.469469,0.4053499,-0.8544722
0.9017994,0.2293,-0.6144707
0.6040303,-0.1281175,-0.2430147
0.4544126,-0.479867,-0.07105954
0.6089828,-0.6277713,-0.1268585
0.8559963,-0.4460352,-0.117236
0.7754325,-0.4214543,-0.1329787
0.7080305,-0.2730875,-0.1676666
0.6089538,-0.06407382,-0.1099433
0.3857761,-0.1376966,-0.1120914
0.3884271,-0.09254738,-0.1104084
0.4891945,-0.111755,-0.1054029
0.5993668,-0.2052936,-0.1181502
0.815922,-0.189552,-0.1407445
0.9650277,-0.2949968,-0.2666368
1.013262,-0.2958189,-0.3549116
1.023871,-0.2351276,-0.3673245
1.001267,-0.2297628,-0.3793182
0.9685238,-0.1656089,-0.3817512
0.9159854,-0.1909622,-0.4036901
0.9116489,-0.1772267,-0.4868384
1.111003,-0.1458455,-0.6798342
1.570373,-0.2873507,-0.8266838
1.89307,-0.4749223,-0.7337328
1.614295,-0.5018188,-0.3809243
1.206165,-0.1590356,-0.05561864
1.224217,0.2334955,-0.2086541
1.318202,0.2564737,-0.5270111
1.262061,0.1995887,-0.5290103
0.984559,0.1632746,-0.3842832
0.5338814,-0.07103453,-0.1360239
0.5320059,-0.2289225,0.0197925
0.7986013,-0.2303242,-0.18043
0.7904993,-0.312585,-0.3028855
0.7119985,-0.2129851,-0.2549605
0.5423746,0.05904081,-0.296735
0.4141225,0.1542458,-0.2292688
0.5400217,0.1206603,-0.1016059
0.6625048,0.05731956,-0.1443603
0.8277074,0.02987868,-0.2659028
0.9607347,-0.08773447,-0.4148345
0.8598632,-0.2925757,-0.5449977
0.8148408,-0.3719028,-0.5109802
0.9995585,-0.4684528,-0.4623261
1.299153,-0.4278539,-0.5304435
1.639331,-0.1978165,-0.4961651
1.824894,-0.1641104,-0.4011246
1.647251,-0.2978058,-0.3177457
1.393328,-0.4382972,-0.2217107
1.263411,-0.3809377,-0.2722364
1.023924,-0.1628258,-0.2708753
0.8141724,-0.0267025,-0.1424458
0.7343704,0.0911819,-0.07479787
0.6468689,0.07171948,-0.02087981
0.6337439,0.01257174,-0.04867055
0.6003315,-0.0122576,-0.084287
0.5410909,-0.2271201,-0.08899529
0.5710983,-0.3007632,-0.1785042
0.6177468,-0.2281916,-0.2347362
0.7893282,-0.2608147,-0.3228799
1.038633,-0.24822,-0.436743
1.111049,-0.2881322,-0.4452653
1.022495,-0.3516945,-0.4090448
0.9216102,-0.3270604,-0.3532659
0.8941989,-0.2708306,-0.4177982
0.952428,-0.1610721,-0.5974275
1.227432,-0.1222487,-0.7052532
1.641845,-0.2091167,-0.6766384
1.708058,-0.3062064,-0.4941968
1.42893,-0.2657373,-0.3314422
1.276325,-0.01466885,-0.2828098
1.320654,0.2327568,-0.3065856
1.271424,0.2207467,-0.33458
0.9410229,0.09852441,-0.2534277
0.563767,0.1245083,-0.1435028
0.5578108,0.07930948,0.02706093
0.7642589,-0.05852123,0.1287224
0.8127511,-0.03227834,-0.06937449
0.827333,0.04156704,-0.280647
0.7548936,0.1584482,-0.3810211
0.5498976,0.209393,-0.3876
0.5663846,0.03490995,-0.2802832
0.7058565,-0.1185493,-0.2504045
0.8333461,-0.1767937,-0.2930272
0.9514186,-0.1673812,-0.4244556
0.86285,-0.1715345,-0.5865861
0.771699,-0.2775915,-0.5554049
0.8195928,-0.4012854,-0.4382914
0.9820143,-0.5328563,-0.3722801
1.284204,-0.4813878,-0.3727827
1.510458,-0.1814151,-0.4331602
1.696944,0.03188344,-0.4451591
1.676406,-0.107704,-0.3462398
1.397426,-0.4266411,-0.2396472
1.36776,-0.4702024,-0.2439983
1.228763,-0.3184636,-0.2261487
0.9016638,-0.1988696,-0.11137
0.9042624,-0.09795256,-0.06604415
0.8033445,-0.06128177,-0.1153684
0.5951127,0.03806983,-0.1828279
0.4789718,0.05158713,-0.1953462
0.3045796,-0.1045327,-0.1292348
0.3793075,-0.2148375,-0.1017105
0.5270726,-0.3370482,-0.1735787
0.7333639,-0.36215,-0.2863911
1.10908,-0.3472793,-0.3468449
1.15741,-0.3738058,-0.337658
1.008473,-0.272555,-0.299588
0.8639122,-0.2425032,-0.2411786
0.7755283,-0.2155887,-0.2868946
1.025785,-0.07485506,-0.5298553
1.475541,-0.0486242,-0.8255892
1.787387,-0.1417905,-0.8645461
1.648232,-0.2366384,-0.5159642
1.230488,-0.1486014,-0.1714415
1.028709,0.04932056,-0.1523001
1.151232,0.1566098,-0.3246634
1.279648,0.1610034,-0.4202241
0.8939448,0.04426595,-0.2691874
0.4776926,-7.892815e-05,-0.06593097
0.6227268,0.02379705,-0.003410941
0.7468085,-0.009876504,-0.04132184
0.7743139,0.01107417,-0.1692703
0.863187,0.02369754,-0.3187306
0.744386,0.05642502,-0.3913312
0.6449994,0.09317501,-0.3000557
0.6844635,0.01362629,-0.18052
0.7505892,-0.04049421,-0.2096911
0.8548911,-0.05632136,-0.2577664
0.8805368,-0.1370613,-0.3913703
0.8481474,-0.3159302,-0.5745183
0.9088657,-0.4859513,-0.5447492
1.163685,-0.5054231,-0.4906744
1.544216,-0.4168387,-0.5023959
1.681899,-0.2104279,-0.3979179
1.497528,-0.08811439,-0.2716617
1.359779,-0.3194686,-0.2336131
1.229231,-0.5364228,-0.246192
0.9536689,-0.3632342,-0.248113
0.8072033,-0.1365829,-0.1705909
0.7404862,-0.09889253,-0.07522183
0.6313451,0.01038991,-0.05343965
0.6209936,0.1133818,-0.0614303
0.5902245,0.001551838,-0.09682559
0.5181035,-0.1819083,-0.1487203
0.5149093,-0.3112555,-0.1506402
0.5685249,-0.3154883,-0.1723179
0.6908516,-0.2757615,-0.2504777
