accx,accy,accz
0.7420754,0.08907262,0.1823974
0.754529,0.1047631,0.1896727
0.7602077,0.1095316,0.2576727
0.7287918,0.09627962,0.2745354
0.7578967,0.1033075,0.2357503
0.7611962,0.0880297,0.2092783
0.7229956,0.08405786,0.186331
0.7154514,0.08929781,0.2291745
0.7213681,0.06641507,0.2883948
0.7595051,0.0277736,0.3142507
0.7865975,-0.03171485,0.3176526
0.8071146,-0.0597549,0.2964934
0.8787483,-0.09662442,0.2823589
0.9708893,-0.231385,0.2510681
1.107695,-0.3724335,0.2458283
1.287438,-0.3912633,0.3113581
1.482891,-0.2891105,0.4577094
1.61647,-0.1851492,0.6608116
1.536647,-0.1557872,0.6892482
1.388517,-0.1666342,0.5713947
1.308159,-0.1324654,0.5411351
1.110103,-0.02191883,0.4922493
0.8718157,0.06031529,0.3935335
0.7668595,0.06116859,0.3661511
0.6970522,0.003081374,0.3657588
0.6528422,-0.08483334,0.3634995
0.5993378,-0.1248623,0.3474
0.5340665,-0.1265532,0.3282534
0.5837055,-0.1071187,0.3363659
0.6380224,-0.05780713,0.3202446
0.6473308,-0.0241419,0.2998779
0.6824936,0.02455823,0.3094361
0.7380979,0.07170162,0.31546
0.833688,0.08406857,0.3139437
0.8724622,0.1020952,0.3077393
0.8975128,0.07129476,0.3107282
0.9882208,-0.009525906,0.3430863
0.98513,-0.1064431,0.3798222
0.9886109,-0.1829137,0.3640789
1.08938,-0.1575467,0.3063785
1.122292,-0.1468382,0.2357303
1.186018,-0.1772004,0.1652296
1.328353,-0.1505143,0.1893451
1.374279,-0.1298015,0.2673562
1.359802,-0.0733405,0.2998343
1.383845,0.0561767,0.3531684
1.442061,0.1843339,0.3988788
1.466852,0.2044619,0.3776673
1.359239,0.08047009,0.3267849
1.183884,0.01075098,0.2864055
1.097302,0.003564476,0.2933973
1.048787,-0.00231435,0.2763754
0.8968055,0.04177217,0.1924245
0.7847675,0.03087752,0.1295527
0.804284,0.03441013,0.1248132
0.7348154,0.0743198,0.1168823
0.6703548,0.0604228,0.09259863
0.7553869,0.06080776,0.1275036
0.7722786,0.01973426,0.1746704
0.7539599,-0.02228657,0.1971591
0.7818417,-0.009388651,0.2259599
0.7702462,-0.01274761,0.2026321
0.7922138,0.002884684,0.2004714
0.8215905,0.01495681,0.2668847
0.8232664,0.0441723,0.3114516
0.8266699,0.08792746,0.3174272
0.7939126,0.08152641,0.2814368
0.7950793,0.03663655,0.2448515
0.8284215,-0.1441626,0.2086187
0.8870091,-0.3902336,0.1966252
1.043844,-0.4823285,0.2991688
1.237849,-0.451697,0.4143631
1.401007,-0.3335617,0.4901206
1.483963,-0.131244,0.5832528
1.490161,-0.06144173,0.6350954
1.448366,-0.1274126,0.6190499
1.325847,-0.076387,0.5958026
1.167052,-0.007494066,0.5592568
1.021793,0.004642164,0.4542575
0.9104913,0.05672192,0.3799076
0.8088076,0.03229441,0.3760483
0.679849,-0.03297296,0.3588535
0.5848412,-0.07432459,0.3746125
0.5562492,-0.08490094,0.3794214
0.5921648,-0.008251934,0.3274503
0.6217191,0.02816952,0.2841316
0.6036149,0.02857689,0.2580757
0.6286296,0.02699626,0.2853486
0.6756697,-0.02252328,0.3224715
0.7282318,-0.04246106,0.3276844
0.8271362,-0.05906323,0.3152333
0.9324199,-0.08390751,0.2759245
0.9829034,-0.1027649,0.2936028
0.9564797,-0.1123834,0.3294886
0.9675089,-0.09456642,0.317789
1.04992,-0.10874,0.2892343
1.152257,-0.09315726,0.220079
1.283557,-0.06782463,0.2128096
1.352923,-0.08884167,0.2795426
1.39348,-0.04721307,0.3061164
1.443424,0.05181159,0.3195294
1.412585,0.1351086,0.3154317
1.355155,0.08435423,0.3320287
1.267596,-0.03430213,0.3849765
1.222566,-0.04295811,0.3813029
1.2505,-0.05870804,0.3416348
1.155191,-0.04288499,0.2630666
1.043927,0.04660399,0.1527658
0.9603795,0.05869982,0.09860373
0.8129317,0.08128539,0.1026071
0.7414855,0.1052685,0.1269362
0.7290935,0.08718671,0.1432704
0.7668263,0.1136867,0.1681029
0.8443207,0.1124065,0.1955423
0.8405069,0.08934184,0.192365
0.8008303,0.08456798,0.1901372
0.7682397,0.07833338,0.1770643
0.8078892,0.1005914,0.1600906
0.8649243,0.108649,0.1765962
0.8151615,0.1025203,0.2091394
0.8001538,0.1074949,0.2533226
0.833107,0.102609,0.2743677
0.8460182,0.08845636,0.2968692
0.8836669,0.04275852,0.3687531
0.894375,-0.002882772,0.3891197
0.8845777,-0.03738751,0.3415007
0.9029276,-0.142567,0.2766339
0.9308496,-0.2811479,0.1804769
1.010211,-0.3001509,0.1960124
1.272127,-0.2499847,0.3945726
1.585785,-0.2843159,0.5557071
1.566026,-0.2937893,0.5501691
1.40288,-0.2444442,0.5019923
1.379487,-0.2104363,0.5265053
1.221333,-0.1105781,0.5195355
1.068798,-0.02080521,0.4247136
1.023226,0.04491169,0.3685561
0.8611368,0.09207712,0.3610635
0.8266624,0.008680972,0.3666364
0.7869562,-0.04022726,0.3424317
0.6468538,-0.07956369,0.292226
0.6671806,-0.1654767,0.3078492
0.6299284,-0.1310762,0.3217317
0.6597438,-0.113799,0.3259015
0.7515036,-0.08628077,0.3368961
0.6710443,0.002780908,0.3110883
0.6899683,-0.008187152,0.3266398
0.7095552,-0.01529357,0.3568203
0.7187285,-0.0208274,0.3896446
0.8379786,-0.06448792,0.4127435
0.9054351,-0.08769632,0.375564
1.004221,-0.1208661,0.378493
1.063767,-0.115524,0.394585
1.047071,-0.1104236,0.4046374
1.06184,-0.1218716,0.4325783
1.103491,-0.1181464,0.3878983
1.263787,-0.1608862,0.3126398
1.468854,-0.1781579,0.2596313
1.536706,-0.101755,0.2562722
1.396658,-0.01276083,0.3251812
1.200146,-0.01114546,0.3892752
1.144324,-0.03117678,0.4099563
1.196724,0.0008157066,0.3770159
1.274537,-0.0215639,0.32916
1.241575,-0.06558292,0.2984204
1.129744,-0.08769685,0.2688173
1.042355,-0.1042455,0.2798056
0.9526165,-0.04781373,0.2776174
0.9083478,0.01057805,0.2155543
0.8427647,0.06420015,0.1656979
0.8150472,0.1385647,0.1345381
0.8681943,0.1488343,0.1111186
0.8504734,0.1353838,0.1064357
0.8677161,0.1049053,0.1349622
0.884008,0.04497719,0.183678
0.8362475,0.00147613,0.1959407
0.8263323,-0.01513277,0.1930105
0.8113159,0.01686698,0.2028879
0.8425688,0.06410385,0.2122553
0.8600813,0.103476,0.2185326
0.7831754,0.113366,0.2160022
0.7129978,0.09316411,0.2235186
0.6937349,0.1134954,0.2400154
0.7756029,0.123278,0.2590092
0.8680556,0.1038236,0.2738865
0.8897458,0.09914017,0.2853681
0.8933857,0.08471806,0.3248921
0.8938573,0.08492929,0.3429441
0.9333877,0.07069818,0.3296319
0.9870978,-0.03317433,0.3071569
1.088984,-0.2628908,0.23606
1.266401,-0.5317665,0.2089187
1.430351,-0.613157,0.2835691
1.610212,-0.5801561,0.4068683
1.694227,-0.5848545,0.5416018
1.52084,-0.4290837,0.5602712
1.329208,-0.1936402,0.4798072
1.312814,-0.1350838,0.4438054
1.199387,-0.05105403,0.4087296
0.968647,0.06805714,0.366548
0.9289766,-0.009279282,0.3650818
0.8996065,-0.09754843,0.3553602
0.7987162,-0.1375629,0.3387827
0.7916143,-0.2138895,0.3176098
0.6928134,-0.1773824,0.2792913
0.5987974,-0.1453031,0.2706058
0.6162063,-0.1766301,0.291126
0.585552,-0.1428085,0.3234037
0.6105733,-0.1488617,0.3738612
0.6620276,-0.1197108,0.3921699
0.6712948,-0.01704601,0.3253703
0.6569607,0.03667461,0.2280719
0.5992753,0.1015535,0.1925671
0.6411857,0.1076957,0.2126713
0.7417108,0.01707112,0.2677639
0.8173841,-0.07348821,0.3512291
0.8796435,-0.1083392,0.3811607
0.9298979,-0.05919716,0.3673656
1.060063,-0.03607665,0.391043
1.080461,-0.03562173,0.3955688
1.009411,-0.02188414,0.358535
1.086866,-0.04319193,0.3198955
1.087291,-0.04312317,0.2568343
1.084676,-0.08831906,0.2013439
1.27438,-0.2076857,0.1538617
1.401516,-0.2670687,0.1391364
1.397455,-0.2375402,0.2533309
1.379665,-0.1771792,0.3529571
1.408238,-0.1130103,0.3405596
1.406391,0.01083278,0.3414601
1.374265,0.1076924,0.3515047
1.380371,0.07434496,0.3345164
1.23527,0.05220798,0.2942707
1.020722,0.06779115,0.2409436
0.9090349,0.06437628,0.1996619
0.8287775,0.07163424,0.1474877
0.7899729,0.05976356,0.1226594
0.7599384,0.04431248,0.148154
0.7867871,0.06976417,0.1720324
0.829834,0.09713754,0.1965376
0.7951135,0.08540955,0.2301921
0.7727327,0.04804677,0.2323025
0.72534,0.02434301,0.2137476
0.7264424,0.05249251,0.2235691
0.784977,0.1041594,0.2125986
0.7858009,0.1040677,0.1906192
0.8222857,0.08482744,0.2249717
0.8543523,0.06512952,0.2757687
0.8658209,0.008702461,0.3348152
0.8736705,-0.02681069,0.3621063
0.8382013,-0.05873578,0.3189151
0.8639492,-0.1535152,0.2693218
0.9457789,-0.2634726,0.2366184
1.128916,-0.3167038,0.2891742
1.41676,-0.2962508,0.4544561
1.559245,-0.2956507,0.6174173
1.516358,-0.3575356,0.6781497
1.419271,-0.3797698,0.6110242
1.332863,-0.3086514,0.5566812
1.244071,-0.1532503,0.5641734
1.136356,-0.01359596,0.5027248
1.045476,0.01089852,0.4449476
0.9162275,0.002937342,0.4115866
0.7546857,-0.02873288,0.3165702
0.6232999,-0.1122491,0.2677214
0.5066548,-0.1193611,0.2721253
0.4765205,-0.09033521,0.2899842
0.5631893,-0.1135349,0.3440988
0.6499889,-0.09587588,0.3467599
0.6654892,-0.0619582,0.302709
0.6581914,-0.02692262,0.2798024
0.7062704,0.0403527,0.3002518
0.7970662,0.02289123,0.3439575
0.8556077,-0.02985775,0.3380459
0.8916972,-0.04130988,0.3246513
0.9519568,-0.08566326,0.3312926
0.9731989,-0.09697445,0.3423456
0.9493177,-0.08363402,0.3878498
0.9449891,-0.1058716,0.4042134
0.9273938,-0.09016803,0.3799873
0.9311879,-0.07080361,0.3435879
0.9965459,-0.06305623,0.2550389
1.063695,-0.04702152,0.159186
1.153886,-0.06266438,0.1435906
1.342458,-0.07131098,0.2388565
1.548814,-0.1032727,0.375911
1.512267,-0.126252,0.443159
1.35414,0.02127304,0.4432709
1.385343,0.2202133,0.4585219
1.392485,0.2488146,0.4695657
1.319051,0.1783974,0.3942975
1.22091,0.1407197,0.2846071
1.015237,0.09386694,0.2154171
0.9980435,0.055252,0.2023036
1.000694,0.06256571,0.2098132
0.8489666,0.05346138,0.185787
0.880503,0.08529093,0.2000252
0.8498793,0.1191317,0.2036219
0.7443299,0.071574,0.14874
0.7680084,0.05156576,0.1386674
0.7239741,0.04982174,0.1271518
0.7691818,0.05962728,0.1441485
0.8610034,0.09499788,0.195871
0.8401487,0.08902893,0.2036728
0.8466083,0.08156998,0.2422127
0.8335734,0.05396235,0.2631518
0.8448998,0.005590607,0.2851993
0.8692188,-0.001231392,0.3623286
0.8301559,0.01423208,0.3786628
0.8157422,0.04240344,0.3620423
0.8018769,0.0492146,0.3517613
0.8228549,0.02868786,0.3318219
0.8977852,-0.03039549,0.2897212
0.9999889,-0.1648419,0.2026185
1.151439,-0.3036608,0.1107242
1.286665,-0.3897393,0.08164231
1.471686,-0.4480756,0.2392332
1.696235,-0.5008597,0.4799039
1.735791,-0.4848766,0.5563001
1.569723,-0.3572594,0.5250975
1.366552,-0.171868,0.463474
1.22748,0.01700142,0.3740091
1.095913,0.1142136,0.3513111
0.9442215,0.1059223,0.365217
0.8507752,0.03090158,0.3322545
0.7969842,-0.1140246,0.3130855
0.7421945,-0.2145124,0.311841
0.7162734,-0.2275261,0.2748535
0.7274708,-0.2221483,0.2619531
0.7409104,-0.2230385,0.2696817
0.7384897,-0.2332375,0.2793118
0.7355538,-0.2115399,0.3373113
0.7060857,-0.170914,0.39401
0.6481642,-0.126944,0.4163414
0.6079133,-0.06615745,0.3849379
0.5983201,-0.006489239,0.3050512
0.631836,0.05924803,0.2605724
0.6752589,0.06577607,0.2501785
0.684151,0.02264181,0.2689047
0.6973965,0.02670877,0.3112779
0.7574519,0.04546209,0.343099
0.8593512,0.08867032,0.3615517
0.9401583,0.1286694,0.333738
0.9624991,0.0662226,0.3119296
0.988747,-0.00756982,0.3329103
1.028234,-0.02854193,0.3565497
1.044592,-0.1025611,0.4144319
1.088637,-0.2166261,0.4446592
1.182904,-0.2586433,0.3835093
1.322687,-0.2876634,0.3084162
1.504337,-0.3423462,0.2782512
1.622592,-0.2897038,0.3077153
1.617559,-0.1380934,0.3518291
1.420814,0.003973644,0.383149
1.09622,0.06805156,0.4147652
1.037335,0.05096532,0.3976044
1.165246,0.05096421,0.343889
1.128977,0.009999292,0.2923381
1.091545,-0.07952602,0.2229359
1.046565,-0.08219083,0.18406
0.8827149,-0.0755891,0.1801786
0.7911561,-0.06269535,0.1632917
0.7806967,0.00359343,0.1673494
0.8039685,0.0359627,0.1704057
0.832494,0.06158324,0.1588609
0.8277227,0.09952114,0.1737501
0.8554955,0.1403143,0.1896758
0.8593186,0.1579143,0.2110866
0.829008,0.1237161,0.2302174
0.8023242,0.1191956,0.2323912
0.751414,0.120642,0.2419778
0.7642611,0.1099288,0.2385287
0.8102243,0.1302309,0.247007
0.806708,0.1205829,0.2643989
0.8158402,0.08363017,0.2750637
0.8342185,0.04968616,0.3269193
0.8508824,0.04081619,0.347614
0.8581395,0.05250299,0.3054749
0.8434364,0.02799449,0.2688606
0.8657832,0.02235123,0.2354158
0.9193059,-0.002946542,0.2289773
0.9898642,-0.1415269,0.2591012
1.069947,-0.2914399,0.2892935
1.169392,-0.3674791,0.3422342
1.350866,-0.3655255,0.4777233
1.487584,-0.3363001,0.6281757
1.467607,-0.2808899,0.6117152
1.337856,-0.1570223,0.5001664
1.164692,-0.08742072,0.4736864
1.096605,-0.0779121,0.4822536
1.04435,-0.03324454,0.4761489
0.9048804,0.004715503,0.4354979
0.8610637,0.01227329,0.3629945
0.8316284,-0.03343042,0.3305009
0.7210413,-0.08554375,0.3205111
0.6433515,-0.08945903,0.3339002
0.5711202,-0.08137662,0.3569146
0.5487512,-0.04734936,0.3410259
0.6013647,-0.01139253,0.3216794
0.6171176,0.02813635,0.2906674
0.6047537,0.0593137,0.2819028
0.6098162,0.01883651,0.3144601
0.6638819,-0.03332522,0.3246772
0.7680964,-0.06505604,0.3424088
0.8637978,-0.04880341,0.3562584
0.9411335,0.007681586,0.3559457
1.00737,0.01342271,0.3771614
1.055229,0.0001024248,0.3816623
1.107271,-0.02664588,0.3690199
1.19374,-0.06922961,0.3475746
1.293593,-0.08194807,0.3125835
1.36596,-0.1005329,0.274021
1.362335,-0.1153832,0.2653462
1.255852,-0.1102974,0.3487889
1.16975,-0.08532021,0.4346145
1.186651,-0.01542213,0.4195658
1.222917,0.03759902,0.3894025
1.23956,0.02029167,0.3746598
1.244441,-0.01400919,0.3240063
1.212824,-0.02132216,0.2986535
1.123611,-0.02460004,0.3126875
1.021112,-0.008718093,0.2828617
0.9483256,0.03869324,0.2422241
0.8787762,0.07240963,0.2059873
0.8032839,0.09896802,0.1479724
0.7478271,0.10933,0.1260773
0.7541728,0.09346235,0.127111
0.8065235,0.0895923,0.165066
0.8385791,0.08917485,0.2501367
0.8194711,0.08205947,0.2687684
0.7635624,0.06542658,0.2464213
0.7409565,0.06019427,0.2524842
0.7570153,0.08588108,0.2522578
0.7868345,0.1021614,0.2495056
0.8282562,0.09967141,0.2606947
0.8258796,0.08164153,0.2797606
0.7953712,0.05975904,0.2818904
0.7852156,0.02477665,0.2350722
0.8135255,-0.1114271,0.18555
0.8818676,-0.3204668,0.2243174
0.9590655,-0.4425563,0.3026979
1.062557,-0.4406323,0.3332288
1.22244,-0.3461081,0.3928462
1.487557,-0.2228606,0.5312067
1.677539,-0.2587938,0.6612175
1.484624,-0.32597,0.670671
1.246642,-0.2089186,0.61822
1.289977,-0.1127443,0.6305631
1.266567,-0.0212164,0.5707644
1.130232,0.09172642,0.4650048
1.045735,0.05190702,0.4716265
0.9476335,0.02035973,0.4469655
0.8928349,-0.009570184,0.4043618
0.7731336,-0.09100143,0.3818366
0.5579793,-0.1222498,0.3138234
0.5329017,-0.1468571,0.3231195
0.625808,-0.1177323,0.3538214
0.6407436,-0.119091,0.332087
0.6415356,-0.1454236,0.3372339
0.6289318,-0.09354759,0.3187175
0.5888003,-0.08722891,0.281776
0.6136424,-0.05902834,0.2815509
0.7084576,-0.02273042,0.2787692
0.8419805,-0.008932991,0.2504668
0.9499337,0.0479149,0.2296599
0.9153453,0.01265062,0.2396978
0.8920661,-0.02099127,0.2577639
0.9439988,-0.01220107,0.28887
0.9130935,-0.03736672,0.3277069
0.9401191,-0.01480431,0.3127473
1.06019,-0.03142076,0.26263
1.207478,-0.08489792,0.2426966
1.420446,-0.1641292,0.2516836
1.476067,-0.2825616,0.2962956
1.345689,-0.2603445,0.3838677
1.259865,-0.1271408,0.4438079
1.266843,0.11173,0.3986988
1.302093,0.3896006,0.3128348
1.292038,0.3477644,0.2964606
1.274449,0.1419097,0.2939886
1.236331,0.03409151,0.2776363
1.128617,-0.1597145,0.2799901
1.014666,-0.2788848,0.2509957
0.9019539,-0.1693137,0.2060044
0.8153256,-0.0597197,0.147734
0.7601471,0.05894931,0.09759585
0.7480006,0.1597913,0.09767164
0.8058684,0.1576265,0.08682717
0.8331434,0.1619182,0.1207793
0.8286853,0.1300181,0.201184
0.8009913,0.04886553,0.2209176
0.7269034,0.003199021,0.2142328
0.6958523,-0.01484926,0.2112329
0.7105626,-0.001796726,0.2206736
0.7276305,0.02797277,0.2427993
0.7398631,0.07003446,0.2697636
0.7779085,0.1058669,0.2866313
0.8260527,0.06839303,0.2347139
0.8307797,-0.05378194,0.2011593
0.913108,-0.2260262,0.2744307
1.102284,-0.3318636,0.352208
1.272925,-0.308685,0.372936
1.423237,-0.2972171,0.4288345
1.554565,-0.3337727,0.5494333
1.561193,-0.3495673,0.6123285
1.427758,-0.36875,0.6146115
1.33407,-0.3159758,0.5962833
1.307969,-0.1694968,0.534003
1.223757,-0.04792079,0.5035834
1.110957,0.02848603,0.4643505
1.022068,0.03598003,0.3815682
0.9466229,-0.03531489,0.3556728
0.8204235,-0.1327068,0.3212198
0.6620618,-0.1955581,0.2758516
0.5697154,-0.1905278,0.294355
0.5206137,-0.1767128,0.3068066
0.5253902,-0.130988,0.3205118
0.5718428,-0.02523049,0.3454218
0.5934972,0.06616697,0.319587
0.6070602,0.09852952,0.2798148
0.6318884,0.04904863,0.2759333
0.7076062,-0.008755294,0.3044481
0.7962502,-0.02459196,0.3473003
0.8477004,-0.01920092,0.3683056
0.9012453,0.02393106,0.3580475
0.9171874,0.05772021,0.3363776
0.8992823,0.06957755,0.313231
0.9149269,0.04168875,0.3076011
0.9800457,-0.06716868,0.3061138
1.113438,-0.1564823,0.2829787
1.287317,-0.1666869,0.2768623
1.445573,-0.1842604,0.2969354
1.519494,-0.2343054,0.3280304
1.430142,-0.1686672,0.3653151
1.270261,0.01601245,0.3765179
1.197342,0.1709965,0.3753509
1.206027,0.2742559,0.3558937
1.274892,0.2574856,0.2764452
1.334423,0.1774967,0.184538
1.282075,0.1215999,0.1538893
1.214392,0.01090575,0.1818967
1.131085,-0.07250907,0.2231702
0.9817502,-0.1458396,0.2625032
0.9447089,-0.1499147,0.255028
0.9377585,0.0249633,0.1890587
0.8085109,0.110805,0.1563166
0.7908203,0.1050004,0.1474177
0.8455023,0.1086277,0.1123964
0.7763755,0.08563158,0.07202776
0.7766503,0.1136948,0.06897987
0.8538478,0.09725436,0.1335452
0.8840239,0.07742084,0.1930101
0.9008445,0.09584129,0.20838
0.8508236,0.08158268,0.1687487
0.8149805,0.1337139,0.1019955
0.8244937,0.1495386,0.1275874
0.793354,0.100603,0.1902849
0.7727163,0.05739783,0.2601802
0.7593345,0.0004501101,0.340555
0.8052997,0.02163115,0.3235022
0.8845376,0.02046272,0.299053
0.8872413,-0.07592538,0.2994749
0.892032,-0.2076255,0.2697645
0.9356007,-0.3494499,0.2802092
1.097497,-0.3614128,0.2945075
1.371765,-0.2686748,0.3063667
1.520507,-0.2146604,0.3629807
1.56643,-0.2378173,0.4381383
1.638746,-0.266833,0.4760463
1.62876,-0.2169751,0.4168125
1.500944,-0.1709739,0.358006
1.326218,-0.1206145,0.3519291
1.143228,-0.06547962,0.3199822
1.055997,-0.1023561,0.3107798
0.9693491,-0.1184111,0.3109889
0.8139575,-0.09352626,0.2610098
0.6280947,0.00950451,0.2949056
0.6690463,0.02922603,0.3052087
0.7047929,0.08573193,0.311491
0.7634397,0.09366463,0.3326153
0.8574045,0.07330411,0.3423964
0.9623297,0.04575455,0.3414129
1.015513,0.04381004,0.3752136
1.041287,0.04793074,0.4162065
1.085988,0.02310465,0.4300277
1.131836,0.02235846,0.4136927
1.163158,-0.003714434,0.3760314
1.166364,-0.05661505,0.3346883
1.16705,-0.08932184,0.287126
1.206123,-0.13981,0.2371919
1.239354,-0.1522421,0.2251745
1.22224,-0.1016623,0.2836078
1.213997,-0.04857324,0.3347668
1.27598,0.001161992,0.3150583
1.339602,0.0403599,0.3061314
1.328942,0.05852183,0.3157683
1.278648,0.06800312,0.3008318
1.204077,0.0705523,0.300794
1.102007,0.03404318,0.3047011
1.023585,-0.0163507,0.2878506
0.9506719,0.0005334666,0.2464745
0.8411417,0.03816141,0.1786946
0.8079565,0.06228156,0.1442478
0.8611389,0.120542,0.1444037
0.8509133,0.1313254,0.1425442
0.8435289,0.07990457,0.1756834
0.848211,0.05733524,0.2136664
0.7734521,0.02482852,0.2105623
0.7574132,-0.01444726,0.2081673
0.7808608,-0.001283081,0.2106669
0.7661779,0.03115885,0.2090652
0.7820101,0.04870888,0.2105745
0.7818331,0.05154306,0.2145848
0.7969369,0.05226194,0.2449595
0.8327834,0.05198084,0.2903966
0.8261163,0.04522331,0.3093427
0.8418581,0.03625973,0.300117
0.8725549,0.03418989,0.3018261
0.925625,0.02273772,0.3231642
1.036519,-0.05269837,0.3333739
1.130438,-0.1731994,0.3354019
1.181809,-0.263272,0.3377936
1.243818,-0.2668132,0.3546778
1.31891,-0.1864901,0.3985835
1.352086,-0.1461109,0.447647
1.357075,-0.2265317,0.4940866
1.349577,-0.305503,0.5395468
1.298431,-0.2444788,0.5795008
1.219689,-0.1210894,0.58482
1.148718,-0.02035641,0.5365172
1.107386,0.07124802,0.4599469
1.030361,0.08410972,0.3866042
0.8896449,0.03888075,0.3483348
0.7526596,-0.01032947,0.3209776
0.6228474,-0.06792181,0.3006569
0.5550329,-0.08413849,0.3207512
0.5642746,-0.1077932,0.3353733
0.5774899,-0.129028,0.3410801
0.6139476,-0.1068327,0.3426403
0.6422066,-0.09284133,0.3111128
0.6211139,-0.04664324,0.2865572
0.6097288,-0.006042656,0.2772867
0.6483805,-0.004692868,0.2861322
0.7306351,0.01285515,0.3137601
0.8270793,0.03259518,0.3228194
0.9183725,0.05944364,0.3426853
0.9830763,0.06128644,0.3844926
1.017122,0.03344522,0.4174561
1.060623,0.01472776,0.4170021
1.169704,-0.02050781,0.3634272
1.322147,-0.04887969,0.3013435
1.389976,-0.06699587,0.276508
1.367697,-0.1160923,0.2957158
1.283798,-0.1630253,0.3386594
1.130038,-0.1365157,0.3649865
1.074438,-0.07099346,0.3478512
1.144869,-0.05061917,0.3027649
1.206082,-0.02424087,0.2740801
1.260363,0.0003915803,0.2390157
1.235387,-0.06668894,0.2357538
1.144243,-0.1665925,0.2923504
1.137289,-0.1901988,0.2900183
1.115074,-0.1118383,0.2657937
1.024267,0.007674706,0.2434853
0.9568321,0.1250355,0.1732209
0.8951934,0.1903028,0.1452616
0.8738452,0.1611024,0.1322444
0.8798648,0.1176737,0.1233699
0.8712677,0.06409468,0.1530558
0.8836976,0.005167026,0.1700826
0.862207,0.005137717,0.2118451
0.8293381,-0.00220494,0.2388847
0.8139681,-0.016254,0.2233938
0.7523244,-0.009175478,0.2288068
0.6870426,-0.01255901,0.229035
0.6627399,0.004899858,0.2287332
0.6733731,0.02525319,0.2325023
0.6889274,0.02818135,0.2374394
0.7406294,0.03181947,0.2663914
0.8544178,0.03968251,0.2960729
0.9034758,0.05364943,0.3055645
0.9241839,0.03319309,0.2824413
1.020074,-0.03746957,0.2646353
1.126036,-0.1455703,0.2780519
1.247057,-0.2426524,0.283209
1.341677,-0.2503708,0.2854314
1.331868,-0.2009423,0.3112253
1.35451,-0.1996621,0.4153056
1.431868,-0.3362557,0.5920502
1.393792,-0.48154,0.6657918
1.282538,-0.387136,0.595252
1.173672,-0.1715354,0.5230151
1.068971,0.00292227,0.4469881
1.023438,0.1391302,0.3800361
0.9295872,0.1095273,0.3985973
0.8034535,-0.003729871,0.3930065
0.7519116,-0.07640011,0.3625367
0.658213,-0.1509552,0.3782198
0.6031646,-0.1190116,0.3640037
0.6409943,-0.07135501,0.3621258
0.6511409,-0.07805726,0.3658324
0.6729012,-0.01884073,0.3298284
0.6759311,-0.01165305,0.3236993
0.672657,-0.0210716,0.3109227
0.7325669,0.00140426,0.3046721
0.7958596,-0.02308419,0.3277262
0.8652822,-0.01053478,0.3340882
0.9366186,-0.02438578,0.3520964
0.9730742,-0.05134905,0.3631714
0.9945326,-0.01523766,0.3894543
1.015548,-0.006233957,0.4408578
0.9941313,0.001176613,0.4403567
0.9365784,0.002340709,0.4212081
0.9578675,-0.02085327,0.3964241
1.063257,-0.05983587,0.3260737
1.164421,-0.143322,0.273067
1.198147,-0.2575486,0.2950479
1.190099,-0.3671338,0.3256452
1.174933,-0.2669813,0.3325014
1.100375,-0.0005921451,0.3591721
1.107527,0.125817,0.347851
1.187775,0.1898993,0.3027457
1.169406,0.2046553,0.2983351
1.191299,0.07420556,0.2990831
1.210949,-0.04897665,0.3087067
1.175756,-0.114188,0.3184762
1.167214,-0.09282742,0.3067824
1.074747,-0.05019717,0.3026918
0.9906354,-0.04453149,0.2610677
0.9409868,0.05846946,0.1954525
0.8697234,0.1009397,0.1639223
0.8787465,0.05428215,0.1635874
0.9078807,0.07791746,0.1829726
0.9359836,0.05713518,0.1912327
0.9357852,0.05491054,0.2025968
0.8922038,0.0882184,0.2277881
0.8872885,0.06379551,0.2436349
0.8741367,0.06342444,0.248444
0.8669176,0.04108141,0.241483
0.8393916,0.02096651,0.235089
0.7743929,0.0473903,0.2146124
0.7828772,0.06618316,0.2077076
0.8219862,0.1325004,0.253779
0.8599451,0.1808311,0.2947095
0.9118189,0.1482526,0.3101778
0.9643469,0.1296021,0.318084
1.010215,0.1359857,0.3378879
0.999148,0.1104691,0.3725931
0.9761512,0.04943318,0.3811033
0.9718819,-0.04150762,0.3800242
0.9733395,-0.1763397,0.3820612
1.022334,-0.2699382,0.3619265
1.120022,-0.2842996,0.3190858
1.262072,-0.3127471,0.2734041
1.345935,-0.3493919,0.2774461
1.33003,-0.3940576,0.3634821
1.347394,-0.4293739,0.4797248
1.330393,-0.3099278,0.5026986
1.218841,-0.08480625,0.4144292
1.120602,0.04400201,0.3288497
1.037252,0.03989049,0.281761
0.9663693,-0.05065726,0.2821381
0.8968986,-0.1749554,0.3170232
0.8299568,-0.2274054,0.323688
0.8299271,-0.204869,0.3315266
0.8395557,-0.2356989,0.3732169
0.8234033,-0.3053752,0.4244556
0.8171103,-0.2894253,0.4370574
0.7903254,-0.2344147,0.3981331
0.7460043,-0.1918498,0.3767034
0.7045741,-0.09633897,0.3607923
0.6407836,0.005741468,0.3451006
0.587702,0.04248036,0.3609073
0.6214137,0.0364113,0.3472538
0.6724714,0.03600078,0.3173214
0.6823882,0.05189779,0.2887237
0.7396238,0.03047874,0.2602622
0.800514,-0.00200535,0.2852609
0.8313234,-0.0234893,0.3164088
0.8954029,-0.04957089,0.3348543
0.9533231,-0.01234836,0.3553419
1.030518,0.05958957,0.3509947
1.099087,0.09022175,0.3556078
1.072349,0.05188113,0.3600344
1.048147,-0.03213115,0.3629937
1.030315,-0.06252605,0.3929168
0.9693572,-0.07256169,0.4129218
0.9608964,-0.1118105,0.4121162
1.023209,-0.1464913,0.3816715
1.143762,-0.2173834,0.3254636
1.298094,-0.3155512,0.2969999
1.346544,-0.3488681,0.3154146
1.300967,-0.2667836,0.3396945
1.305762,-0.1203484,0.3296923
1.318886,0.02690182,0.3230804
1.275628,0.1308788,0.3226163
1.227875,0.1206344,0.302177
1.169945,0.05361022,0.3025789
1.098718,-0.03575329,0.3104343
1.027434,-0.1563983,0.3044133
0.9317012,-0.1730164,0.27667
0.8765891,-0.1223859,0.2279102
0.8834091,-0.06994284,0.2014992
0.8439856,0.07418395,0.1533266
0.7858159,0.1693789,0.1112437
0.8038724,0.1181542,0.1446371
0.8302016,0.09092691,0.1597506
0.8265159,0.0998863,0.157268
0.837169,0.07652957,0.176511
0.8218412,0.07324187,0.1865313
0.7974731,0.06435586,0.2285072
0.790863,0.0410223,0.255747
0.7387486,0.05474278,0.2403101
0.7095173,0.06073331,0.2507671
0.7837067,0.07623072,0.2458474
0.8779861,0.1054401,0.2298242
0.901933,0.07962864,0.2384986
0.8871602,0.0451957,0.2581662
0.9149876,0.0227761,0.3163956
0.9700841,0.01276671,0.3636011
1.02448,0.0213615,0.3765248
1.048609,-0.01647579,0.3837067
1.028682,-0.08997197,0.3346095
1.077942,-0.1837086,0.2617037
1.20159,-0.2756246,0.2450386
1.289869,-0.2898074,0.2947461
1.32095,-0.3014651,0.4015138
1.331415,-0.414211,0.5387815
1.349561,-0.5117715,0.6254074
1.321403,-0.4028008,0.5860667
1.254674,-0.1358707,0.4939139
1.192769,0.09462644,0.4116473
1.088021,0.2072387,0.3395259
0.9513516,0.1694606,0.3276964
0.7868197,0.05741579,0.3203524
0.6340549,-0.05535847,0.299323
0.5431683,-0.1852561,0.3163227
0.4774003,-0.2046222,0.3327456
0.4883734,-0.1401094,0.3549543
0.5260066,-0.1065688,0.3353143
0.5212878,-0.05070454,0.2705067
0.5520651,-0.03275829,0.2655494
0.6205177,-0.02121228,0.2809812
0.7576914,0.01468582,0.296235
0.906311,-0.0120667,0.3133471
0.9676867,-0.0157214,0.3236403
1.005723,-0.02800978,0.3801223
0.9870301,-0.09500994,0.4331657
0.958001,-0.1264479,0.4577842
1.031159,-0.1380015,0.4711437
1.123484,-0.1451712,0.4509155
1.203561,-0.1758999,0.414904
1.243359,-0.2074722,0.3518216
1.217043,-0.1854853,0.2990272
1.206996,-0.1647406,0.3084321
1.195883,-0.1462354,0.3251015
1.183351,-0.1180453,0.3253662
1.202779,-0.03496997,0.3267212
1.203095,0.1464586,0.3244406
1.20535,0.249024,0.3165882
1.223314,0.2000979,0.307681
1.226822,0.1356266,0.3077058
1.215994,0.04623084,0.3179643
1.168526,-0.04261399,0.3141845
1.093029,-0.009320895,0.2690047
1.008229,0.05566898,0.2067609
0.9448689,0.08036292,0.1833321
0.9171641,0.09458745,0.1830521
0.8705118,0.05902332,0.1632234
0.8486948,0.03867599,0.1549267
0.8775362,0.05029397,0.1527573
0.8755005,0.03536944,0.1386827
0.8549816,0.03886382,0.1730985
0.8422576,0.02694555,0.2408373
0.8346821,0.00495065,0.2803798
0.8436618,0.02132491,0.2729246
0.848461,0.03354766,0.2396562
0.8506965,0.06229494,0.2277494
0.8433708,0.09743151,0.2077512
0.8190935,0.1068745,0.1978334
0.8163434,0.1081501,0.2256559
0.8522795,0.08816915,0.227463
0.9191973,0.05879789,0.2384773
0.96953,0.03765939,0.2787351
0.9729564,0.0236762,0.3192587
0.9792599,-0.003521137,0.3499013
0.9909495,-0.05609003,0.3327526
0.9911307,-0.1342073,0.3214469
1.024,-0.2561565,0.3186111
1.078761,-0.311757,0.2938
1.1379,-0.2583146,0.3227254
1.251422,-0.2629106,0.3960555
1.363355,-0.3028269,0.4862475
1.375717,-0.2885463,0.5538609
1.319328,-0.2586218,0.5283839
1.225198,-0.1440895,0.490649
1.12865,0.01174056,0.4736916
1.067793,0.05836444,0.4282912
0.9944544,0.0436068,0.4167518
0.9051825,0.02054774,0.4234018
0.8147805,-0.01382639,0.3760255
0.7282182,-0.02781927,0.3243829
0.6829428,-0.01965444,0.3088402
0.6734696,-0.02155967,0.31762
0.6906357,-0.04829206,0.3168641
0.6904785,-0.06000586,0.2921656
0.6421919,-0.04227692,0.2851147
0.6074452,-0.01948634,0.3012533
0.628545,-0.01866196,0.329432
0.715789,-0.04909454,0.3487074
0.834214,-0.07210107,0.3479741
0.9459358,-0.0762526,0.3521413
1.01853,-0.06482117,0.3406977
1.005165,-0.04659161,0.329387
0.9831863,-0.04104021,0.3428238
0.995158,-0.05512859,0.3683078
0.9678045,-0.099934,0.4320902
0.9531143,-0.1261273,0.4770188
1.004193,-0.1272534,0.4259436
1.055005,-0.1564045,0.3524694
1.127187,-0.1798511,0.3186728
1.252409,-0.1844252,0.2650692
1.333358,-0.209856,0.2133519
1.341421,-0.2298867,0.2431686
1.319304,-0.1738493,0.3046886
1.203063,-0.09087293,0.3817361
1.031192,-0.04413768,0.4459986
1.029302,0.05296168,0.4138206
1.146664,0.1402641,0.3720217
1.185159,0.1241935,0.3548948
1.195528,0.1233261,0.3192721
1.133732,0.1336624,0.2966272
0.9973343,0.1068191,0.244577
0.9404471,0.09632461,0.2008703
0.8937056,0.08300067,0.2123444
0.8711214,0.07854516,0.1961531
0.9116946,0.08725223,0.1752909
0.9021524,0.07182971,0.15926
0.8776692,0.05480058,0.132667
0.8481213,0.02915121,0.1457381
0.8246645,0.0002400005,0.1608055
0.8542736,-0.01358757,0.1895642
0.8746497,-0.007163508,0.2544889
0.8811397,0.02182105,0.266481
0.8537265,0.01892143,0.2203452
0.8121803,0.03367809,0.1831106
0.8423323,0.09318044,0.1857473
0.8621519,0.0900421,0.1944523
0.8218112,0.05622443,0.1870871
0.7863778,0.04514021,0.2214249
0.7784702,0.0562098,0.2858551
0.8389848,0.09482828,0.3336002
0.9455393,0.1171299,0.3773028
0.9810378,0.1466806,0.4055702
0.9548192,0.1658399,0.3957351
0.9478047,0.1272586,0.355775
0.9478335,0.07133882,0.3217057
0.9659358,-0.01810027,0.317989
1.045649,-0.1166351,0.3260965
1.135165,-0.1892469,0.3121293
1.165574,-0.2645053,0.258183
1.191975,-0.2949874,0.2283429
1.321858,-0.3153875,0.322043
1.504551,-0.4002187,0.4689065
1.557136,-0.4353266,0.4945166
1.426323,-0.322245,0.4445752
1.275372,-0.1571364,0.4251843
1.224729,-0.06306283,0.3790494
1.168545,-0.03998377,0.3501544
1.03908,-0.0486801,0.3600363
0.9223875,-0.07958483,0.3337053
0.8597445,-0.1153479,0.3285681
0.8009252,-0.1470224,0.3178451
0.7013596,-0.1614479,0.2829298
0.6648509,-0.1431891,0.2981388
0.7069113,-0.1180342,0.3004547
0.686243,-0.1010424,0.3009112
0.6841394,-0.07160802,0.3505012
0.7186932,-0.04482654,0.3903958
0.6968114,-0.04050166,0.394408
0.6964592,-0.01286,0.3681843
0.687642,0.03463896,0.3349003
0.6693797,0.05578275,0.2824183
0.6886826,0.07808115,0.23733
0.6815541,0.07845577,0.2645673
0.7007493,0.02750546,0.3043506
0.7742417,-0.0006218795,0.3372647
0.8839478,0.01346651,0.3598566
0.9988107,0.03532515,0.3389947
1.030465,0.05470739,0.3422772
1.029973,0.05992983,0.3560418
1.0493,0.01911636,0.3551224
1.09809,-0.09356502,0.37102
1.183777,-0.2094209,0.3420014
1.232018,-0.2443514,0.2939506
1.268549,-0.2211776,0.2954351
1.31932,-0.2009421,0.3038396
1.31134,-0.1805318,0.3047731
1.28844,-0.1126827,0.3108195
1.294257,0.01407928,0.3184979
1.266017,0.1315092,0.3243162
1.234504,0.1293031,0.3251008
1.241631,0.06614373,0.3210315
1.206434,0.0254644,0.2971354
1.131757,-0.06223417,0.260334
1.088552,-0.0922912,0.2322915
1.051861,-0.02712796,0.2220278
0.9836018,-0.0002144193,0.2149233
0.8955104,0.0590186,0.1802416
0.8443383,0.1160785,0.1501284
0.8556227,0.108559,0.14204
0.8665453,0.1340364,0.1273447
0.860715,0.1372005,0.1402412
0.8816556,0.09907116,0.1884453
0.8989161,0.07050293,0.2289255
0.8809326,0.03773929,0.2475112
0.8570684,0.02663218,0.2392355
0.8237051,0.02405981,0.2140206
0.7757889,0.01764256,0.1858827
0.7196372,0.02221786,0.1865898
0.6843448,0.02677009,0.2380359
0.72831,0.03354302,0.2838115
0.8043213,0.02907425,0.2871558
0.866421,0.02522506,0.2761171
0.9342507,0.05151298,0.2792315
0.9845889,0.08170537,0.3008335
1.014452,0.08637527,0.3362485
1.003514,0.06725152,0.3610244
0.9637316,0.02515636,0.2983183
0.9449791,-0.06553126,0.1901443
0.9188549,-0.194662,0.1692842
0.9432149,-0.2750401,0.2004387
1.073002,-0.2932426,0.2546036
1.249198,-0.3556781,0.3989641
1.383993,-0.4595144,0.5465116
1.365539,-0.4714345,0.5610701
1.256807,-0.3499655,0.526122
1.176986,-0.1514729,0.5248991
1.160438,0.01338916,0.463622
1.182504,0.075945,0.4085061
1.09768,0.0837634,0.4404561
0.9686948,0.02165196,0.4388503
0.9048265,-0.08913449,0.4217737
0.8420491,-0.1634597,0.4139212
0.7929436,-0.1928703,0.3761862
0.7317961,-0.1359074,0.3779578
0.7054447,-0.05088869,0.3886342
0.7192707,-0.01561769,0.3654292
0.6708772,0.009007682,0.3469995
0.6577487,0.005097439,0.3262834
0.6701884,0.001837377,0.3148012
0.6816476,0.00414343,0.3191578
0.7645929,-0.01154479,0.3219984
0.8533147,0.01177957,0.3271219
0.9335877,0.03159724,0.3306004
0.9802119,0.02360507,0.3274117
0.9807318,0.02240584,0.3290312
0.9823052,0.006598241,0.3495983
0.9618302,-0.02831136,0.3756456
0.9501881,-0.06604458,0.3752732
0.9548531,-0.07854551,0.3391641
0.9606175,-0.08282672,0.2786957
1.005336,-0.1141632,0.2154379
1.125981,-0.1722533,0.1837126
1.290527,-0.2444198,0.1971713
1.322927,-0.2542871,0.2506086
1.232566,-0.1862239,0.3256984
1.212449,-0.09532203,0.3479407
1.2457,0.08542395,0.3082981
1.269788,0.3091426,0.2810927
1.286587,0.2978741,0.2605692
1.261429,0.09376628,0.2602199
1.21318,-0.02398649,0.293846
1.186448,-0.08247224,0.2972605
1.157588,-0.08115372,0.2872956
1.085123,-0.03740831,0.2713338
1.022839,-0.07546847,0.2368137
1.007691,-0.01902551,0.2154734
0.9378212,0.07326414,0.1663106
0.8567376,0.05298218,0.1254377
0.8735453,0.05859718,0.1368349
0.8575041,0.03158838,0.113435
0.8127848,0.009583998,0.08929475
0.8467148,0.02885208,0.1164313
0.8592406,0.00892199,0.1378284
0.8624699,0.02174155,0.1630137
0.8687341,0.003871088,0.1866533
0.8224629,-0.0209726,0.1796189
0.8184885,-0.002913225,0.1790543
0.8242949,0.008935077,0.1801762
0.7921871,0.05741302,0.1746815
0.7640383,0.06992009,0.1976849
0.7327742,0.05468853,0.254373
0.7674412,0.04927036,0.324103
0.8244659,0.003126422,0.3456781
0.8294519,-0.04404297,0.3201154
0.8485973,-0.1122316,0.3103347
0.893834,-0.1846833,0.2879549
0.9866465,-0.2217138,0.2654389
1.113424,-0.2392247,0.2688838
1.226857,-0.212218,0.2585435
1.354812,-0.2043418,0.3074037
1.510099,-0.2809272,0.4691
1.604929,-0.3464546,0.6139693
1.461152,-0.2809485,0.5958503
1.241913,-0.12985,0.4879163
1.220214,0.0009904325,0.4565148
1.159989,0.07851271,0.4532813
0.9873194,0.07434683,0.4367045
0.9164851,0.04882902,0.4315424
0.8751739,0.02961706,0.3942819
0.8192788,-0.03685036,0.3699842
0.7543553,-0.08066007,0.357054
0.655729,-0.09811352,0.3349904
0.6248557,-0.1129336,0.3319354
0.6450546,-0.09289168,0.3297074
0.6533061,-0.09651774,0.3476722
0.6724857,-0.09038817,0.3388141
0.6766942,-0.05595839,0.3158855
0.6619333,-0.03853896,0.3193268
0.6698905,0.005573626,0.2890872
0.7167817,0.01415031,0.2915965
0.7861548,-0.02040545,0.3008166
0.8321047,-0.008489958,0.2742993
0.8547878,0.009196755,0.2993849
0.9056189,0.02110603,0.3340961
0.9512876,0.01914605,0.3748624
0.9556873,-0.006104089,0.4123822
0.9697154,-0.007084913,0.3868089
0.9995434,-0.01742267,0.3434357
1.055526,-0.03518959,0.2903477
1.154272,-0.056635,0.2576282
1.244884,-0.1316322,0.2773398
1.282395,-0.1950872,0.2990181
1.25595,-0.1950831,0.3305661
1.235578,-0.1289607,0.3521762
1.252838,0.01921407,0.319061
1.260685,0.1759883,0.2839011
1.287386,0.2290279,0.2600158
1.299639,0.1545934,0.2357497
1.252334,0.03223136,0.2425014
1.20031,-0.1101231,0.2491102
1.148948,-0.2320106,0.2420058
1.107485,-0.2188814,0.2408159
1.070409,-0.1510155,0.2193617
1.017459,-0.1080543,0.191521
0.9689113,-0.03081451,0.1653569
0.904882,0.03296171,0.129173
0.8818161,0.03668238,0.1206898
0.9008856,0.02047436,0.1247203
0.8785544,0.03623931,0.113211
0.8884174,0.04442146,0.125702
0.900459,0.0224958,0.157983
0.8752555,0.03324971,0.1930046
0.9007176,0.01811577,0.2257351
0.9065159,0.006835337,0.2167939
0.8942319,0.0388504,0.2034955
0.8919602,0.03738563,0.2076283
0.8464916,0.05444483,0.1882356
0.8241873,0.05545961,0.1876456
0.7956,0.03626768,0.201563
0.7609526,0.05631916,0.2034938
0.809488,0.04695359,0.234078
0.8697219,0.04943883,0.2756468
0.8951347,0.06097639,0.2988178
0.9055364,0.06614222,0.2985529
0.9134454,0.1182533,0.2930945
0.9288549,0.1322089,0.2920096
0.9434321,0.07429807,0.2782369
0.9752247,-0.04428348,0.2950842
1.038357,-0.2180081,0.3484513
1.129048,-0.3720571,0.4085243
1.200908,-0.4172688,0.4553016
1.26057,-0.3108312,0.4503321
1.363151,-0.2070477,0.4472944
1.414022,-0.2123736,0.4594648
1.375566,-0.1921397,0.4321716
1.353469,-0.1197881,0.4154576
1.316866,-0.07574597,0.422811
1.218485,-0.02864084,0.4079217
1.135131,0.01564636,0.3744607
1.054528,-0.01267385,0.3546989
0.9440176,-0.07396699,0.3687817
0.8734201,-0.1289007,0.371232
0.8366584,-0.1549741,0.3371357
0.8068189,-0.1117726,0.3072812
0.7997324,-0.07588224,0.299881
0.793856,-0.05241656,0.3076644
0.7963343,-0.02303515,0.3234982
0.8020022,-0.05614015,0.3559943
0.7982481,-0.0773772,0.3792926
0.8134298,-0.06734994,0.3617203
0.8463819,-0.06428818,0.3521473
0.885535,-0.04112912,0.3541453
0.913603,-0.06028567,0.3325302
0.9181178,-0.09593706,0.3220801
0.904963,-0.1024024,0.329118
0.8869468,-0.1129234,0.3287487
0.8817751,-0.1175546,0.3273844
0.8426177,-0.1712478,0.3317302
0.7850256,-0.2493291,0.3395985
0.8104151,-0.2523701,0.34336
0.8587052,-0.2327377,0.3420329
0.8684594,-0.2199992,0.3432659
0.8931168,-0.1610147,0.3554899
0.9035337,-0.07503351,0.38816
0.9130411,-0.002766511,0.4347635
0.9420848,0.04737553,0.4585665
0.9060452,0.05684991,0.4359991
0.8514595,0.04812927,0.406469
0.8402865,0.03872043,0.3985899
0.836985,0.001100507,0.39713
0.8602124,-0.04589223,0.3923359
0.8872436,-0.09559332,0.37165
0.9422516,-0.1525814,0.3566048
1.174566,-0.2717729,0.3542273
0.8756658,0.1063716,0.1389884
0.8991626,0.1172162,0.1475767
0.8629623,0.0886591,0.151247
0.8397239,0.0571077,0.1598378
0.8161289,0.04610167,0.1971654
0.7951253,0.0366326,0.2222003
0.8391361,0.05110594,0.234698
0.8494074,0.04625997,0.2288972
0.8349412,0.04556402,0.2307668
0.8233334,0.04800637,0.2456803
0.8105349,0.03244416,0.2394373
0.8119464,0.0331226,0.2501339
0.8161108,0.03413484,0.2757887
0.8573145,0.04305814,0.2850662
0.8882585,0.04623516,0.2902828
0.8834705,0.03974352,0.2992856
0.8832615,0.05317769,0.3310288
0.8760132,0.07648174,0.3612434
0.8816927,0.1294306,0.3485102
0.9060261,0.1765911,0.3248723
0.9558616,0.1570465,0.3114399
1.032697,0.06052982,0.2934511
1.093373,-0.08413029,0.2903115
1.108757,-0.1756469,0.3043716
1.115071,-0.2084599,0.3089834
1.219977,-0.2327362,0.3266215
1.341463,-0.2586837,0.3801941
1.331516,-0.3077433,0.4431973
1.295191,-0.291946,0.5017974
1.290332,-0.2165888,0.5581144
1.245935,-0.179835,0.5501518
1.159034,-0.08895806,0.4571223
1.025729,0.03572481,0.3863493
0.9157063,0.05611469,0.3606708
0.8884864,-0.004453498,0.353573
0.7644079,-0.06987457,0.3460792
0.6039152,-0.1020686,0.3048499
0.6245046,-0.1279804,0.3180109
0.577485,-0.1509108,0.3496857
0.4763138,-0.1491848,0.3458376
0.5447103,-0.1177791,0.3790201
0.5560658,-0.06116136,0.3489412
0.5668597,-0.03262865,0.28584
0.6592308,-0.01341062,0.28501
0.703268,0.004640081,0.2903797
0.8459329,0.02288663,0.3372956
0.9670607,0.08493165,0.3762561
0.9536063,0.1238718,0.3728459
0.9869996,0.1204698,0.3799675
1.037133,0.09352603,0.3797804
1.078448,0.04444057,0.3832752
1.132433,0.01255856,0.3693276
1.203701,-0.01641519,0.3534765
1.269237,-0.05562422,0.3562715
1.252451,-0.124249,0.345178
1.232647,-0.2009467,0.3341933
1.214509,-0.2208426,0.3146903
1.139504,-0.1678159,0.329698
1.097526,-0.0519914,0.3613455
1.139054,0.04350469,0.3405238
1.209764,0.0894429,0.341588
1.23392,0.1039561,0.3571736
1.237946,0.04049716,0.3534465
1.23135,-0.06327332,0.3647715
1.169945,-0.1170205,0.3629812
1.09914,-0.09233267,0.34052
1.023139,-0.02073235,0.291372
0.9546631,0.07185136,0.2257209
0.9061233,0.1439353,0.1855928
0.8590143,0.1357701,0.157138
0.8637512,0.09401581,0.1330478
0.8678982,0.03914872,0.1214609
0.8308073,-0.02193507,0.129214
0.7960854,-0.02554277,0.1728474
0.7656571,-0.001724312,0.228704
0.7757723,0.03417283,0.2416802
0.7949931,0.06719884,0.2136439
0.8017109,0.06436117,0.2065228
0.8202399,0.08033781,0.2120449
0.80545,0.09957686,0.2032285
0.796706,0.07814933,0.2086195
0.8104988,0.05001599,0.2214929
0.8050359,0.02879646,0.2453398
0.8055964,-0.02698184,0.2899101
0.8212536,-0.1214673,0.3354998
0.9054269,-0.1692233,0.3656306
1.072574,-0.1850748,0.3574252
1.208581,-0.2181647,0.346085
1.275191,-0.1813184,0.3404437
1.304453,-0.09883121,0.3208833
1.298283,-0.08722997,0.3522332
1.28173,-0.1638733,0.4280423
1.282145,-0.3077276,0.5269362
1.296066,-0.4158379,0.6696583
1.302606,-0.3770945,0.7356185
1.238249,-0.151644,0.595526
1.122152,0.1943248,0.3693647
1.051149,0.3275889,0.3126777
0.9649992,0.1522962,0.3857394
0.8117588,0.01520445,0.3851721
0.6900898,-0.05459051,0.3619818
0.6167471,-0.1507224,0.3654948
0.5584098,-0.1402275,0.3615312
0.5473515,-0.1098625,0.3724002
0.572385,-0.1143999,0.3788542
0.5820495,-0.0733517,0.3705828
0.5916488,-0.03851276,0.3345989
0.6345798,0.01254793,0.287275
0.6921524,0.03899883,0.2895636
0.7698969,0.01221311,0.3158026
0.8624653,0.04078489,0.3238696
0.8738225,0.04378214,0.3229026
0.85362,0.01585206,0.3389872
0.9274373,0.02465202,0.3635152
0.9581503,-0.003753147,0.3633795
0.9450126,-0.03014755,0.3504998
1.058575,-0.07131412,0.3328797
1.151752,-0.13226,0.3038103
1.175858,-0.1302607,0.2781086
1.281767,-0.2032999,0.250576
1.341211,-0.3410468,0.2401496
1.207173,-0.3445535,0.3032873
1.08601,-0.265517,0.3806396
1.170227,-0.1610134,0.3854102
1.291762,0.04691319,0.3573252
1.369973,0.2449725,0.3195044
1.412154,0.2289468,0.2760097
1.326008,0.145175,0.2698367
1.255112,0.1303114,0.2989413
1.187085,-0.02769022,0.3238794
1.041661,-0.1661211,0.3214338
1.011654,-0.05975679,0.3009432
1.00344,-0.01158449,0.2709708
0.9083346,0.004860408,0.2277814
0.8350492,0.1353576,0.1709031
0.7935396,0.1520658,0.1410143
0.8077548,0.1192186,0.1612095
0.8280384,0.1395342,0.1780165
0.82418,0.09742692,0.2094251
0.8270742,0.05334621,0.2413876
0.8010059,0.0495509,0.2196263
0.8047552,0.04367279,0.2261642
0.8212041,0.05099135,0.2580158
0.8168218,0.06862754,0.2847568
0.8557985,0.1122554,0.3266535
0.8752065,0.1754268,0.3195443
0.8671311,0.1927726,0.30251
0.8698501,0.1774124,0.3078685
0.8520183,0.1647711,0.2942922
0.8425126,0.1293747,0.3031682
0.8640287,0.07723854,0.3104234
0.9345698,0.02349985,0.2917233
1.037521,-0.05899967,0.2895367
1.102229,-0.1658118,0.3031212
1.133149,-0.2350111,0.3122664
1.19296,-0.2529033,0.2820743
1.273872,-0.2817795,0.2645694
1.298707,-0.3530523,0.3630175
1.293095,-0.4036648,0.5057586
1.272783,-0.3347189,0.5385286
1.21467,-0.1853618,0.4691319
1.193998,-0.06642636,0.4227495
1.157117,-0.008084921,0.4166236
1.057459,-0.0372896,0.4006162
0.9774437,-0.08761727,0.3883815
0.890592,-0.1001485,0.3745772
0.8037675,-0.1350182,0.3533845
0.7606453,-0.1302069,0.3503969
0.7210282,-0.09284735,0.3520431
0.6572353,-0.08964642,0.3442539
0.6151145,-0.05904293,0.3333007
0.6311794,-0.05152301,0.3262795
0.6341306,-0.06657044,0.3356472
0.6547338,-0.05784204,0.356611
0.7393818,-0.07270996,0.3644129
0.7838553,-0.06648503,0.3497601
0.7946621,-0.04895113,0.3312739
0.8128266,-0.03955265,0.3280177
0.8458476,-0.02819658,0.3502785
0.8980354,-0.06222325,0.3814779
0.9125318,-0.08177344,0.3872767
0.9263443,-0.06231967,0.3784452
0.9633288,-0.0532094,0.3827155
0.9815061,-0.05379895,0.4037564
0.9912186,-0.05182874,0.4477063
0.9884768,-0.03133539,0.4939553
0.9852466,-0.008871397,0.4947447
1.009352,0.004376192,0.4530447
1.06373,-0.03268456,0.3902879
1.130396,-0.1355927,0.3082966
1.17904,-0.2381197,0.2467478
1.185699,-0.3178666,0.2346618
1.152622,-0.3077735,0.2641157
1.13041,-0.2156517,0.3239403
1.126143,-0.1396705,0.376553
1.125315,-0.05058942,0.3972868
1.161357,0.05737753,0.3691792
1.225357,0.1716993,0.3067801
1.246927,0.1950151,0.275431
1.185554,0.08401398,0.2725171
1.09372,0.04855889,0.2748296
1.017397,0.03501269,0.2667119
0.9572106,0.00185761,0.2207013
0.9124343,0.06650119,0.1633925
0.8577102,0.07431733,0.1107415
0.8314982,0.06042893,0.09186897
0.8708485,0.03865706,0.1242955
0.8973027,-0.06689042,0.1498656
0.8749188,-0.07811351,0.160625
0.8552297,-0.05168386,0.170355
0.8520308,-0.01660454,0.1654079
0.8389149,0.07164547,0.1372611
0.8285294,0.07502695,0.111371
0.8332864,0.04096107,0.1511282
0.8416261,0.02817099,0.2262199
0.8660183,0.03297795,0.2645128
0.9107435,0.04242993,0.2778933
0.9677838,0.03453841,0.2921515
1.006736,0.06242342,0.3039373
1.000179,0.07934149,0.3020859
0.9412003,0.04740103,0.287432
0.8445303,-0.03711287,0.2751977
0.8352429,-0.1436422,0.2999189
0.9462436,-0.1703413,0.3544269
1.075014,-0.1741528,0.3645792
1.174854,-0.1909725,0.324717
1.188799,-0.1996955,0.3057045
1.231162,-0.3228705,0.3701911
1.357473,-0.5149426,0.4940341
1.324241,-0.5398301,0.5482166
1.180291,-0.4043739,0.5010943
1.078104,-0.2846211,0.4482707
1.023739,-0.2201579,0.4304255
1.082136,-0.180211,0.4267998
1.115186,-0.15279,0.427764
1.097323,-0.153963,0.4292675
1.099472,-0.1966014,0.4258144
0.9962142,-0.2292588,0.4246003
0.8775507,-0.2232452,0.4067417
0.7958797,-0.1869394,0.3642541
0.7247259,-0.1376411,0.3345402
0.7257693,-0.113931,0.32528
0.7114597,-0.119071,0.3329116
0.7280343,-0.1403748,0.3687804
0.7827548,-0.1726886,0.4152847
0.7795114,-0.1939301,0.4194707
0.8008039,-0.1826025,0.406814
0.8202563,-0.1577962,0.4326853
0.80879,-0.1376089,0.4229906
0.7808205,-0.08066651,0.3707301
0.7025219,-0.00861336,0.3279734
0.6557074,-0.004968574,0.2938307
0.690237,-0.05159626,0.3123618
0.7600494,-0.0844318,0.3249973
0.7882451,-0.09845389,0.2992087
0.7733307,-0.1038048,0.2845968
0.7705076,-0.09918013,0.2457641
0.776704,-0.08478304,0.2517739
0.8180435,-0.05358238,0.3091162
0.8930978,-0.04115691,0.3314554
0.9718729,-0.05462343,0.3496833
1.019756,-0.03140235,0.3344727
1.011685,-0.007232263,0.3197064
1.005361,-0.02173626,0.3591657
1.018835,-0.06230209,0.3801633
1.057197,-0.1421213,0.3881
1.116364,-0.2050384,0.370459
1.158367,-0.2213486,0.3311237
1.192915,-0.2034282,0.3302589
1.201508,-0.1294097,0.3402687
1.235059,-0.04188677,0.3431557
1.381629,0.002292105,0.3079069
1.46736,0.007963353,0.2729859
1.301084,-0.006188319,0.3393743
1.097951,-0.03497992,0.4247621
1.098376,-0.05481114,0.4332522
1.15098,-0.07095376,0.3957912
1.128308,-0.08629761,0.3510257
1.085142,-0.0337466,0.3029445
1.002431,0.03546162,0.2456055
0.9184904,0.05567026,0.1965369
0.8827822,0.06513289,0.1692566
0.8198021,0.03840408,0.1664244
0.7588086,0.003135412,0.1564492
0.7717245,0.008131998,0.1307741
0.7948648,0.03884302,0.1412456
0.7980088,0.07983485,0.1608169
0.8003026,0.07662022,0.1724943
0.7606003,0.04858298,0.2091703
0.7126955,0.02463144,0.2252919
0.7456274,-0.0220715,0.2215845
0.7865006,-0.0455678,0.2423192
0.7883827,-0.0257294,0.277176
0.8362849,0.002885234,0.3096536
0.8769165,0.03163755,0.3061387
0.8843356,0.06204483,0.2943469
0.942836,0.06895175,0.3110125
0.9740419,0.01544808,0.2898184
0.9292125,-0.07734523,0.2650586
0.9113735,-0.1527742,0.302573
0.9652625,-0.1823014,0.3333226
1.093672,-0.1849129,0.3324444
1.266874,-0.1811399,0.3152123
1.377994,-0.1977269,0.3163684
1.406083,-0.3111531,0.4205264
1.418172,-0.4730592,0.5642484
1.357349,-0.4894159,0.5845411
1.225702,-0.3333835,0.5090732
1.176083,-0.1606777,0.4832475
1.179156,-0.05277526,0.4885069
1.142948,-0.02334102,0.4570386
1.078418,-0.06239295,0.4262589
0.9741884,-0.1039238,0.4061078
0.859759,-0.1348808,0.3877396
0.7564571,-0.14754,0.3686177
0.6699312,-0.1220537,0.350114
0.6243332,-0.1168663,0.3450152
0.602039,-0.1317877,0.3327768
0.6227824,-0.1359676,0.3313098
0.652553,-0.1362376,0.3370335
0.6415346,-0.1069913,0.3139296
0.6438308,-0.06470892,0.2865153
0.6475399,-0.03692583,0.2662861
0.6441077,-0.01541451,0.2731687
0.6733027,-0.00484525,0.3064982
0.7169106,0.00183528,0.3336239
0.7660804,0.0006174127,0.3562233
0.8400517,-0.02612185,0.3629671
0.9535416,-0.05896262,0.3789136
1.006714,-0.06907927,0.3996061
0.959414,-0.06343455,0.4025891
0.9698411,-0.06357882,0.442269
0.9901742,-0.06739833,0.4689401
0.9455961,-0.06692682,0.4575833
0.9485499,-0.07486913,0.4814835
0.9636794,-0.0884187,0.4838278
1.011536,-0.1008708,0.4244401
1.156897,-0.1606214,0.3394043
1.301715,-0.2645691,0.2783505
1.358768,-0.298677,0.3088164
1.259994,-0.2014765,0.3696906
1.146345,-0.001426788,0.3902862
1.180053,0.2229271,0.3778149
1.213333,0.311011,0.3374495
1.213109,0.2278904,0.3314978
1.235583,0.1147968,0.3469861
1.223893,-0.03329006,0.3363104
1.213171,-0.1660585,0.3356259
1.185551,-0.1190609,0.3007613
1.091752,-0.02153435,0.2287846
0.9969539,0.0531329,0.187871
0.9193512,0.1239197,0.1655199
0.8752962,0.09019098,0.157994
0.8845128,0.06441417,0.1530138
0.887723,0.04790884,0.136394
0.884072,-0.006977914,0.1318961
0.8982514,0.01867347,0.1562826
0.9047617,0.0150354,0.1988234
0.8981014,-0.0044797,0.2056704
0.8862766,0.03139545,0.1903227
0.8826833,0.02895563,0.1887885
0.8812646,0.04604382,0.1831433
0.8605666,0.05557801,0.1936059
0.8276827,0.04200073,0.21205
0.795028,0.05792917,0.2134258
0.7749563,0.04314535,0.2190921
0.766874,0.03209724,0.2341286
0.7756965,0.03254505,0.2513784
0.8194647,0.03623038,0.2689248
0.8749916,0.05521188,0.2946751
0.9018007,0.03023858,0.3307525
0.8820794,-0.005143764,0.3675127
0.8420458,-0.04706324,0.3905633
0.8221792,-0.131923,0.3775495
0.8524204,-0.2192024,0.3498521
0.953088,-0.2845085,0.3213025
1.109604,-0.29725,0.2636948
1.353017,-0.2791476,0.2224461
1.630355,-0.2857085,0.2507297
1.724948,-0.2867437,0.3148925
1.608515,-0.2528711,0.3933559
1.407118,-0.1759599,0.4535951
1.174661,-0.06470856,0.4395783
1.034111,0.004809039,0.4099354
1.042703,0.008052682,0.4130837
1.040151,-0.01071025,0.3873689
1.007292,-0.05900651,0.3438665
1.015479,-0.1266059,0.3106212
0.9769383,-0.1743625,0.2918746
0.9247703,-0.1998155,0.31984
0.8960478,-0.2057229,0.3353807
0.8475949,-0.1982242,0.3236134
0.8354086,-0.1765231,0.3364
0.8060608,-0.1640939,0.3441773
0.7693315,-0.1680101,0.3496504
0.7664563,-0.1575629,0.3592972
0.7284725,-0.1562125,0.3631474
0.7254593,-0.1497625,0.3752864
0.7264473,-0.114231,0.3738711
0.6765401,-0.07340083,0.3530959
0.6311722,-0.02088428,0.3229603
0.579255,0.01441298,0.29908
0.5872735,0.02221258,0.2963597
0.6406796,0.02041488,0.2999078
0.6936924,-0.006190345,0.3141601
0.7755669,-0.02518819,0.349194
0.8292037,-0.01573907,0.3833487
0.9173434,-0.001497733,0.3742749
1.032746,0.02717716,0.332797
1.037019,0.08964602,0.3100176
1.014923,0.1197262,0.3153309
1.029873,0.05058582,0.3612159
1.030828,-0.02057653,0.4117982
1.033142,-0.02341868,0.4109461
1.034819,-0.02137055,0.4151287
1.028968,-0.04224761,0.453037
1.034292,-0.0983183,0.465009
1.071023,-0.2080972,0.4314908
1.166605,-0.318174,0.3596519
1.287446,-0.3633532,0.2503185
1.323713,-0.3714604,0.2019932
1.245859,-0.359019,0.3182728
1.185271,-0.2645281,0.4425786
1.212727,-0.04801339,0.4235316
1.235886,0.2148145,0.395859
1.235359,0.2749229,0.4032017
1.250234,0.1630635,0.3497476
1.229626,0.1294487,0.2979016
1.166147,-0.004402471,0.2917452
1.068768,-0.1989214,0.2729322
0.9515244,-0.1733894,0.2507475
0.9057185,-0.1094755,0.2314911
0.8898444,-0.05926433,0.2022903
0.8668495,0.0006513307,0.1820863
0.8927198,0.005384033,0.1630689
0.8940171,0.04671024,0.1496993
0.8944855,0.03554532,0.1546638
0.9340869,0.006488332,0.1572647
0.9299309,0.02822411,0.159457
0.9343261,-0.002026305,0.1668538
0.9475413,-0.001797503,0.1783491
0.9283384,-0.009251041,0.2058034
0.9089443,-0.03937866,0.2204693
0.8607705,-0.01320152,0.2097689
0.8453736,-0.0154612,0.2080922
0.8842644,-0.01025164,0.2070278
0.8865024,0.002680654,0.2091567
0.8533323,-0.009323239,0.2316992
0.8106954,0.01019774,0.2452889
0.8045577,0.02541141,0.2482472
0.8428895,0.04336654,0.2570607
0.8884396,0.06381133,0.2689669
0.928753,0.06104037,0.2739755
0.9064581,0.06176378,0.2575359
0.8699086,0.05798456,0.2461484
0.8937351,0.05104156,0.2793659
0.9164837,0.03275506,0.3500282
0.9341956,0.01300755,0.4027193
0.9567915,0.01242912,0.3893616
1.008307,-0.00879864,0.3415994
1.112574,-0.04831434,0.3178194
1.139702,-0.0809829,0.3375109
1.138255,-0.1138852,0.3878517
1.23303,-0.1501474,0.4355544
1.310529,-0.2201199,0.4638356
1.382826,-0.3199446,0.4718055
1.424517,-0.3330613,0.4620551
1.309577,-0.2434726,0.4546373
1.213161,-0.1843022,0.4570311
1.199006,-0.159737,0.4577339
1.104862,-0.09578438,0.4540309
0.9578112,0.001965165,0.4362508
0.8868206,0.03829063,0.3826716
0.8684653,-0.02172293,0.3148394
0.797136,-0.0493246,0.2959953
0.7531636,-0.07343402,0.3215036
0.743107,-0.1325917,0.3420793
0.6851045,-0.1198867,0.3618139
0.6888123,-0.09929958,0.3696711
0.7000496,-0.07218267,0.355905
0.6765858,-0.02170749,0.3587379
0.6970714,-0.03661907,0.3619991
0.6814025,-0.03854261,0.3460763
0.6656472,-0.006735571,0.3284704
0.6744314,0.01875731,0.3052487
0.6838775,0.05088758,0.3025851
0.7401242,0.04426673,0.3175215
0.7748894,0.03208024,0.312981
0.8005473,0.04276634,0.3061145
0.8620349,0.04355974,0.3043629
0.9452034,0.04847921,0.3225252
1.014512,0.04460304,0.3601347
0.9846737,0.02505547,0.3759218
0.964542,0.007128435,0.382665
1.016904,-0.03596331,0.363357
1.065732,-0.09798197,0.3035307
1.184495,-0.1349956,0.2736021
1.311399,-0.1801816,0.2782731
1.333542,-0.2537579,0.2840224
1.304819,-0.2678744,0.3007964
1.264299,-0.2010159,0.3231133
1.26943,-0.07230685,0.3331684
1.275079,0.1398206,0.3273855
1.248433,0.2679514,0.3140385
1.295028,0.2180981,0.2936256
1.323828,0.1571378,0.2808321
1.254754,0.03761702,0.2840201
1.161049,-0.1289378,0.2802055
1.065472,-0.1277229,0.2757832
0.9969997,-0.05058626,0.255215
0.9452286,0.01201067,0.2152032
0.9084496,0.08175156,0.1990244
0.8913305,0.1004293,0.1728641
0.8674222,0.1142502,0.1412358
0.870733,0.1123603,0.151987
0.873294,0.0726525,0.1539074
0.8506618,0.0609769,0.1441508
0.8358882,0.05608901,0.169811
0.8191029,0.04918848,0.2071478
0.8169916,0.03920208,0.232173
0.8257538,0.01235974,0.2440023
0.8288723,-0.0005969781,0.2466241
0.8472747,0.00500246,0.2388382
0.8625939,0.01981893,0.215162
0.8497129,0.02524719,0.2112882
0.827811,0.02074531,0.2348951
0.8245647,0.02810377,0.2460493
0.8219027,0.04824005,0.2493297
0.809457,0.07676488,0.2550525
0.8165886,0.07814961,0.2635476
0.8348211,0.05746534,0.2875714
0.8620179,0.05492784,0.3229402
0.9170178,0.04937711,0.3530014
0.9944065,0.03959467,0.3651773
1.074318,0.01852324,0.3681423
1.123764,-0.04779943,0.3602624
1.182656,-0.1127928,0.348495
1.289868,-0.1342817,0.3564904
1.368416,-0.2251066,0.3847394
1.378014,-0.4258902,0.4569841
1.304499,-0.4843058,0.5315847
1.183615,-0.3500992,0.5291609
1.155946,-0.2257337,0.501012
1.176547,-0.07020645,0.4868881
1.138832,0.07711478,0.4564936
1.094715,0.08856947,0.4288724
1.019459,0.034544,0.411617
0.9035136,-0.0667429,0.3714507
0.8136231,-0.1396706,0.3275743
0.7424145,-0.134556,0.3153057
0.7059194,-0.1408792,0.3186098
0.7031799,-0.1444176,0.3317729
0.6995597,-0.1466952,0.3491154
0.7093238,-0.1374787,0.3530462
0.7313042,-0.09222431,0.3587845
0.7502904,-0.05098822,0.365949
0.7490438,-0.02147384,0.361222
0.724144,-0.02491394,0.3472862
0.7063704,-0.01877954,0.324381
0.7203226,-0.002689176,0.3139423
0.7779381,-0.03688564,0.3348307
0.8572416,-0.05880183,0.3570419
0.8960365,-0.05961595,0.3600271
0.8834588,-0.04225803,0.3683439
0.8984878,-0.006020741,0.3877309
0.9446099,-0.01538978,0.3998452
0.9616639,-0.02854958,0.4011115
0.9793615,-0.02429679,0.3947385
0.9726304,-0.02498113,0.3784713
0.9384151,-0.01893796,0.3567948
0.9692672,-0.05055839,0.3475313
1.012783,-0.1217563,0.333887
1.047776,-0.1938202,0.2878849
1.140018,-0.2243677,0.2243057
1.256012,-0.167535,0.1854261
1.33749,-0.08332152,0.2370708
1.316883,-0.004385044,0.3143578
1.243783,0.108672,0.3100058
1.198509,0.1734168,0.3399869
1.169115,0.15058,0.4018259
1.227592,0.1286422,0.3644135
1.294969,0.07188977,0.3156309
1.253526,-0.03367235,0.2743313
1.201042,-0.08259228,0.2315685
1.146356,-0.08595513,0.2523705
1.086103,-0.07900352,0.2456226
1.018155,-0.054552,0.2176405
0.9299713,-0.02599955,0.2172957
0.9090029,0.009203436,0.1857727
0.881926,0.02918596,0.1631464
0.839145,0.03478045,0.1433551
0.857729,0.03623802,0.1019174
0.8380317,0.02757248,0.09453804
0.8117858,0.02898231,0.1301816
0.8102281,0.02080252,0.1858802
0.7862774,0.001951901,0.1980881
0.7852263,-0.005164313,0.1741736
0.7762693,0.002103501,0.1718369
0.7905797,0.02396987,0.1703465
0.8574494,0.02041254,0.1981816
0.8942456,0.01108647,0.2569924
0.9001345,0.01583494,0.2766209
0.8730635,-0.003720947,0.2623341
0.839281,-0.010477,0.2604453
0.8401487,0.004138046,0.288751
0.8647741,0.0262145,0.3327242
0.9179016,0.0611578,0.3763219
0.9320955,0.0550224,0.3847652
0.8863634,0.0111326,0.3481182
0.8790895,-0.04660763,0.3194644
0.9928077,-0.116282,0.3071419
1.202533,-0.1661096,0.3112827
1.359703,-0.2540608,0.3412214
1.434559,-0.3783254,0.4093325
1.454063,-0.3767702,0.5206867
1.344927,-0.2326684,0.553926
1.19625,-0.07023715,0.499255
1.153238,0.01842454,0.4927959
1.149867,0.005666019,0.4966645
1.094053,-0.02173529,0.4672653
1.030053,-0.03903363,0.4454417
0.9936803,-0.08024123,0.4219999
0.9162888,-0.1096891,0.3851386
0.8131003,-0.1488143,0.3338442
0.7898001,-0.161336,0.3283572
0.762617,-0.1361122,0.3611479
0.6600153,-0.1654067,0.3474928
0.6598456,-0.1740596,0.3460507
0.7103869,-0.1568077,0.3562399
0.6597975,-0.1790072,0.3337564
0.6623161,-0.1665195,0.3320447
0.6700902,-0.1382969,0.3115637
0.611219,-0.1019974,0.2772387
0.6298207,-0.06028249,0.2803242
0.6594677,-0.0828014,0.2956008
0.7244166,-0.1118761,0.3152498
0.837561,-0.1157905,0.2862118
0.8441899,-0.08585495,0.2365733
0.8322896,-0.0107984,0.2467103
0.8631027,0.006478028,0.2825926
0.8935625,-0.02754033,0.3473328
0.932755,-0.03050435,0.4019613
0.9735944,-0.008294165,0.3897523
1.013677,0.0217018,0.38207
1.027263,0.03231014,0.3939947
1.072169,0.01453051,0.384931
1.149915,-0.04002708,0.3640387
1.178177,-0.132409,0.3438082
1.210635,-0.1781265,0.330874
1.243808,-0.1516528,0.326175
1.243582,-0.1035397,0.3326959
1.258461,-0.03668018,0.3468314
1.275595,0.01089852,0.3441223
1.250547,0.01975812,0.3421462
1.177533,0.03254495,0.3697728
1.117352,0.02912718,0.3838268
1.13605,0.01776167,0.3563397
1.175021,0.01361817,0.3006293
1.155384,-0.01713671,0.2348227
1.116055,-0.04015948,0.2090741
1.045087,-0.05380433,0.2241876
0.9403325,-0.06503755,0.2235972
0.9261089,-0.03893244,0.1986433
0.9444885,-0.01008372,0.1796481
0.9231309,0.001840861,0.1684089
0.9267068,-0.002362534,0.1554736
0.9076476,-0.01245876,0.1543676
0.8902392,-0.00828269,0.1576953
0.9081809,-0.008322062,0.1591269
0.9036764,-0.0006760523,0.1664132
0.9006932,0.01564626,0.1803652
0.8910996,0.04120078,0.2208902
0.8824111,0.0675323,0.2617945
0.9160204,0.04732927,0.2562983
0.9486169,0.03247926,0.2353962
0.9315684,0.05187887,0.2225368
0.8684614,0.05921852,0.2058353
0.811358,0.06795573,0.2146598
0.8047529,0.06695432,0.2379386
0.8408242,0.04569849,0.2343445
0.8597192,0.03814459,0.2454568
0.8531708,0.04698298,0.2705199
0.8766278,0.05902192,0.2877603
0.9067772,0.05788197,0.3370908
0.916805,0.049706,0.3727338
0.8881498,0.04990771,0.3599568
0.822123,0.04396066,0.3509937
0.8157852,0.02023735,0.3600657
0.9073434,-0.05381849,0.3919722
1.066895,-0.178629,0.4207468
1.236763,-0.2445195,0.3719686
1.358947,-0.2108817,0.2668008
1.427475,-0.2018639,0.211244
1.438168,-0.2759733,0.234598
1.444362,-0.3659768,0.3244155
1.434371,-0.4104368,0.4442741
1.329306,-0.3254695,0.4809915
1.185264,-0.1637056,0.4445819
1.05988,-0.08350058,0.4232031
0.9861847,-0.02492278,0.371195
0.9559048,0.01962466,0.298302
0.9152499,-0.02553989,0.2751715
0.889219,-0.09072348,0.2533748
0.8391135,-0.1757682,0.2209751
0.9263654,-0.02300603,0.08234451
0.9911328,-0.1155754,0.102773
1.041742,-0.2403622,0.08922593
1.216854,-0.2807145,0.0949699
1.495334,-0.2736148,0.1196177
1.640365,-0.3188813,0.1734739
1.601735,-0.3711779,0.2682703
1.529269,-0.3806491,0.2963573
1.491162,-0.3476752,0.2615437
1.425751,-0.2774604,0.2661642
1.289462,-0.08708049,0.2641054
1.125047,0.1359086,0.2184376
1.01223,0.1682375,0.180338
0.9145166,0.06510417,0.1680815
0.743836,-0.05998152,0.1848143
0.58055,-0.1656774,0.2070977
0.5294038,-0.1879369,0.2300707
0.580572,-0.1439221,0.2529994
0.6646348,-0.1042818,0.2076781
0.699042,-0.08741577,0.1462704
0.6851743,-0.03050211,0.1509376
0.6656503,0.02827466,0.154789
0.6882907,0.01428223,0.1518527
0.7647672,0.003776491,0.1634215
0.8473704,0.01760338,0.1523165
0.9274695,0.01372798,0.1329368
0.9822096,0.01000326,0.1313093
1.008613,0.007999572,0.1646455
1.008984,-0.007272828,0.2132318
0.9959413,-0.02990042,0.2125762
1.037042,-0.06935331,0.1644721
1.106082,-0.1374023,0.09836527
1.218138,-0.196864,0.03043543
1.337406,-0.2394033,0.014794
1.361541,-0.2616194,0.04060658
1.380899,-0.1874212,0.05646056
1.397019,0.01991926,0.08763202
1.360512,0.2359762,0.1261793
1.310259,0.2618467,0.1615271
1.27264,0.1731494,0.1821951
1.296772,0.126187,0.1202361
1.312896,0.0167517,0.06598511
1.245466,-0.05207235,0.08514777
1.044,0.02856166,0.04006442
0.7709184,0.05804158,-0.04906223
0.7314156,0.08881278,-0.06156488
0.789596,0.1451217,-0.04543974
0.6654093,0.1365055,-0.06053413
0.6535964,0.1658715,-0.05850859
0.7641065,0.1184446,-0.01588508
0.7665256,-0.01626496,0.03259761
0.8014834,-0.06674689,0.06294354
0.8223912,-0.05941168,0.04552695
0.8207427,-0.007821728,0.02749978
0.8716146,0.01944506,0.06023197
0.8083704,0.04237654,0.09351292
0.743271,0.0597882,0.130235
0.7515796,-0.02707921,0.1459996
0.7789359,-0.06168518,0.1293137
0.9120733,-0.0609068,0.143142
1.033877,-0.1171479,0.1144833
1.122545,-0.1999711,0.02668253
1.253131,-0.3150657,-0.01111405
1.438083,-0.322216,0.05819427
1.6549,-0.3002436,0.2185667
1.667183,-0.3409262,0.3569626
1.535497,-0.329531,0.413443
1.485336,-0.3065557,0.3666365
1.396913,-0.1937223,0.2564256
1.212081,0.01537225,0.2054302
1.013468,0.0952563,0.1825773
0.8782851,0.03932831,0.1802808
0.8178982,-0.05586082,0.1941844
0.7006367,-0.1816287,0.1778315
0.5518409,-0.2297769,0.2089999
0.5291337,-0.1561952,0.2222557
0.6040284,-0.1238111,0.1805397
0.6459315,-0.09694036,0.1681486
0.6018534,-0.0276178,0.163452
0.553138,-0.009046501,0.1625266
0.57731,0.02407337,0.1393456
0.6777933,0.01961279,0.1260867
0.8616537,-0.01111402,0.1328421
0.9884336,0.01239191,0.101694
0.9965212,-0.04116978,0.1032248
1.045578,-0.09882961,0.107041
1.078485,-0.1050501,0.1071896
1.056201,-0.1197252,0.1352091
1.111356,-0.1064011,0.09208887
1.180374,-0.1209804,0.04585863
1.251509,-0.1359811,0.03930911
1.41746,-0.1296466,0.0004364343
1.601829,-0.1243778,-0.03689298
1.612874,-0.06442707,-0.03123316
1.378013,0.0041344,0.07047665
1.204402,0.04899258,0.1948286
1.27204,0.07465621,0.1778379
1.300842,0.07409078,0.1035138
1.216515,0.02661842,0.02303414
1.11778,-0.06355108,-0.1072546
0.9501425,-0.08426308,-0.07175959
0.8061737,-0.0333901,0.03628059
0.7957409,0.03176061,-0.05412213
0.8042485,0.09206905,-0.07347899
0.7884481,0.1113068,-0.01067042
0.7932056,0.09950447,-0.01950416
0.7946244,0.05683684,0.05319951
0.8152363,0.02257276,0.04299096
0.8370818,0.02586302,-0.0193895
0.8194424,0.0419017,0.01828143
0.7864694,0.08900971,0.0002888942
0.7376798,0.1493614,0.02611415
0.7342322,0.165378,0.07550937
0.8269346,0.1209597,0.07480739
0.973151,0.07142113,0.1234553
1.056111,0.03076104,0.1087614
0.9933142,-0.03542212,0.06143881
0.9510615,-0.1594583,0.05525905
1.000593,-0.3272416,0.04443658
1.027003,-0.3550329,0.05802473
1.162613,-0.3011867,0.06432728
1.462689,-0.35375,0.1001062
1.607307,-0.3744926,0.1689386
1.517019,-0.3738357,0.1982892
1.488255,-0.4253931,0.2366341
1.51534,-0.4182648,0.2447166
1.398472,-0.3175584,0.2048304
1.242603,-0.1251852,0.2077379
1.128693,0.03712895,0.2066395
1.022303,0.07258664,0.1934796
0.9655089,0.03829206,0.2063234
0.8851675,-0.02961877,0.1807613
0.7383693,-0.07969913,0.152621
0.6041459,-0.09465866,0.1581908
0.5315221,-0.07862427,0.1546353
0.5495373,-0.05499002,0.1578525
0.590351,-0.0319432,0.1565998
0.6318749,0.02496072,0.1582549
0.7270232,0.04559528,0.1679583
0.8096726,0.04295542,0.1523168
0.8446345,0.04543018,0.1403646
0.8798254,0.001820785,0.1346318
0.910027,-0.01592419,0.1338182
0.9024605,-0.02815106,0.1411582
0.9227381,-0.08817693,0.1431432
1.01901,-0.1458449,0.1678028
1.090485,-0.1771605,0.2060862
1.107926,-0.1484205,0.2471057
1.13086,-0.1343598,0.2393877
1.280461,-0.1935438,0.08906816
1.614432,-0.2242453,-0.05719871
1.77045,-0.1816225,-0.005839045
1.505119,-0.106542,0.08013199
1.239586,-0.05153652,0.09362895
1.275341,-0.009555713,0.1572002
1.34133,0.01402097,0.1018878
1.32098,-0.03814588,-0.0726287
1.324354,-0.1040989,-0.06734076
1.228224,-0.1088176,-0.03099824
1.037505,-0.07658698,-0.0502873
0.9072671,-0.01149717,-0.01884397
0.8321829,0.0850756,-0.03901034
0.8302918,0.1218858,-0.08090526
0.8984166,0.06123791,-0.1389275
0.9543952,0.009334432,-0.1701408
0.9316231,-0.01306746,-0.1062725
0.8800728,-0.02824966,-0.0920497
0.8943542,-0.01146946,-0.09222675
0.9246952,-0.01377743,-0.07828346
0.9605423,-0.02714246,-0.09297753
0.9716015,-0.01708616,-0.07185107
0.9320461,-0.003933561,-0.03507547
0.9368378,0.02163163,0.01695622
0.9334037,0.03123911,0.02059251
0.9255694,0.05900222,-0.03865267
0.9426863,0.1242504,-0.04975779
0.8867245,0.1191986,-0.04353766
0.8058809,0.066949,-0.007292768
0.7436809,0.008752765,0.09179029
0.7318276,-0.07311918,0.1866277
0.7847833,-0.08792943,0.2074999
0.8437866,-0.01897266,0.1600726
0.947051,0.08324157,0.1473827
1.003105,0.1920171,0.1411491
0.9587544,0.2235801,0.1320888
0.9454523,0.2033504,0.1696404
0.9363595,0.2071467,0.169741
0.9259323,0.1670138,0.1579876
0.9727684,0.05949296,0.1123185
1.094045,-0.09646095,-0.02135925
1.360529,-0.3321479,-0.08302694
1.625406,-0.5166731,-0.04236748
1.648483,-0.5128148,0.03054246
1.547231,-0.4738364,0.1404386
1.492631,-0.4884834,0.250296
1.447258,-0.4101776,0.2972794
1.389428,-0.2140728,0.27277
1.27399,-0.007127873,0.2545262
1.127068,0.06462915,0.2336486
1.070094,-0.004906121,0.1527421
1.002535,-0.01819127,0.09708149
0.8624262,-0.03370983,0.1315914
0.7258618,-0.09160302,0.1903376
0.6144736,-0.05646549,0.2136536
0.6318819,-0.07092892,0.2142799
0.6866996,-0.1268672,0.2067833
0.6595725,-0.1159743,0.2134428
0.6848541,-0.1215591,0.2288053
0.6845053,-0.09525619,0.2179063
0.6366854,-0.04826285,0.2084707
0.6422297,-0.007525247,0.1839021
0.6311462,0.02220002,0.1445768
0.6909086,-0.02631958,0.1269289
0.7851164,-0.05751185,0.0953079
0.7814092,-0.05253994,0.09530401
0.8187026,-0.04346905,0.1284248
0.9274867,-0.01591533,0.1195608
1.016895,-0.02861731,0.1061984
1.048858,-0.03338823,0.09266332
1.060716,-0.0344646,0.06448415
1.111381,-0.09811434,0.03394208
1.159102,-0.1636413,0.000751355
1.254207,-0.2166614,-0.001983813
1.396443,-0.2923973,-0.0123207
1.421409,-0.3355597,-0.02892896
1.428591,-0.2588566,0.006634474
1.536255,-0.08261668,0.0331108
1.496318,0.09380922,0.05105586
1.31136,0.1554687,0.09784191
1.263901,0.1528426,0.1188635
1.37677,0.177336,0.07133937
1.491915,0.0503575,-0.009594579
1.327577,-0.1120752,-0.006792464
1.018854,-0.1016188,0.01646397
0.9224792,-0.09014829,-0.0448397
0.8359805,-0.02619251,-0.0756718
0.7580612,0.07037106,-0.0693602
0.7536114,0.07818649,-0.0528593
0.6994177,0.09012812,-0.01190172
0.7776104,0.06950954,-0.005666851
0.8431342,0.04650223,-0.000351526
0.7865433,0.02306784,0.01440134
0.7821317,0.01007388,0.03369794
0.7679431,0.09515543,0.06280068
0.7999275,0.1670329,0.05648662
0.8566473,0.191012,0.0503071
0.8452657,0.1508248,0.05528872
0.8436871,0.09625845,0.08215319
0.8513099,0.09017973,0.1242755
0.8593186,0.001473127,0.1050392
0.8546417,-0.1393818,0.09120873
0.8554393,-0.2752235,0.1203623
0.9163235,-0.3730065,0.1124751
1.082853,-0.4314261,0.0604739
1.323075,-0.5018044,0.03144761
1.485477,-0.4145288,0.1325405
1.612856,-0.2643868,0.2831772
1.685168,-0.2849966,0.2837742
1.585536,-0.2938227,0.2215925
1.483361,-0.1884217,0.2219383
1.336469,-0.05497477,0.2111284
1.085481,0.06794968,0.1899116
0.9761357,0.1010553,0.1868631
0.9023394,0.04954162,0.186068
0.7416884,-0.01732622,0.2032662
0.6436759,-0.07513423,0.2229227
0.6043075,-0.07641793,0.2330628
0.6225742,-0.04174819,0.2004361
0.6694045,-0.03583443,0.1285988
0.6870158,-0.0376966,0.1065471
0.6959186,-0.0309277,0.1264954
0.7059256,-0.02834675,0.1543838
0.8030978,-0.03109888,0.1777193
0.9164858,-0.033306,0.1573726
0.9475003,-0.02124596,0.1235122
1.011342,-0.01506297,0.1117713
1.073972,-0.03705092,0.1140005
1.068222,-0.05921351,0.129178
1.0644,-0.06304349,0.1442302
1.081855,-0.08861645,0.1241389
1.114941,-0.1444138,0.071338
1.185196,-0.1818613,0.01997905
1.276829,-0.2017252,-0.01409493
1.320052,-0.1722267,0.003529282
1.304991,-0.05340644,0.06669069
1.270947,0.05140081,0.1455378
1.259888,0.1173568,0.2324726
1.310649,0.2029745,0.2499243
1.360708,0.2138457,0.1712053
1.337114,0.1345514,0.0798684
1.265573,0.09776018,0.05711513
1.161097,0.104063,0.08789183
1.027456,0.1139472,0.07919346
0.9553779,0.14317,0.0549318
0.9406659,0.1466582,0.04110322
0.8856279,0.1203282,0.01425097
0.8353618,0.09906521,0.02425921
0.7926858,0.08773186,0.03264234
0.7581125,0.1097074,0.02217035
0.8020025,0.1284106,0.03784272
0.8247524,0.1242111,0.03653003
0.7873629,0.1287599,0.03147604
0.7775284,0.1322347,0.03379257
0.8061294,0.1456184,0.01586577
0.8386896,0.1487312,0.02080597
0.8344082,0.1038442,0.07589475
0.828382,0.03539746,0.140732
0.8500944,-0.007209626,0.1425853
0.8914967,-0.004373912,0.1144458
0.962185,-0.02212953,0.1198966
1.003924,-0.1138138,0.1035808
1.020643,-0.2536094,0.08343281
1.063899,-0.3523565,0.08318246
1.153316,-0.3644421,0.04830723
1.463757,-0.3904412,-0.008333491
1.873584,-0.4367631,-0.06871175
1.84597,-0.4039223,-0.04025627
1.570624,-0.2936699,0.1157268
1.527006,-0.1704875,0.2233245
1.452824,-0.1228776,0.2144919
1.297009,-0.1021598,0.1682754
1.154004,-0.01795633,0.1574126
0.9952803,-0.01503209,0.1630095
1.045128,-0.1089143,0.1504206
1.001795,-0.1528499,0.1789347
0.8230764,-0.1927735,0.1946894
0.8210394,-0.203182,0.1968324
0.7252621,-0.1690581,0.2241583
0.7032895,-0.188859,0.1968345
0.8008718,-0.1829414,0.1882708
0.7631532,-0.1681993,0.2131954
0.7675391,-0.1754912,0.2282802
0.7028025,-0.1170033,0.2703074
0.6344509,-0.05956112,0.2705023
0.6439465,0.003666655,0.2234475
0.5871288,0.07176127,0.1591395
0.6297637,0.07246916,0.1057941
0.6915574,0.04555185,0.09424661
0.7586489,-0.009356079,0.08498775
0.8728854,-0.04494523,0.1018732
0.9155017,-0.03799312,0.1149873
1.008676,-0.04062551,0.09478638
1.06832,-0.03605404,0.09723927
1.048645,-0.03502845,0.1204073
1.065785,-0.02403698,0.1681324
1.07397,-0.008559579,0.2105985
1.105641,-0.03255083,0.2213812
1.125108,-0.1084717,0.2247711
1.137509,-0.2327788,0.205059
1.220725,-0.3123629,0.1412638
1.322207,-0.3776623,-0.01500255
1.423772,-0.4677359,-0.1768611
1.457576,-0.370682,-0.1469386
1.412244,-0.1164493,-0.02363031
1.359435,0.03122937,0.0510791
1.267643,0.05314512,0.146901
1.230682,0.04833121,0.1721599
1.295626,0.04798221,0.06607059
1.284123,0.0007384115,-0.001864639
1.152118,-0.07786216,0.002867718
0.9780836,-0.0983009,0.02941308
0.8611039,-0.09947617,0.03506548
0.8463459,-0.05884039,-0.0005288915
0.8271189,0.03898082,-0.02383337
0.8222837,0.0966278,-0.04865402
0.8526966,0.1389425,-0.06869277
0.8355933,0.1567443,-0.07295954
0.8214481,0.1285112,-0.06462075
0.7991641,0.08870633,-0.02666681
0.7759587,0.02649178,0.0001048148
0.7982657,-0.004567275,0.0465067
0.8039153,0.003274509,0.07358133
0.8520036,0.01234031,0.0456717
0.9247369,0.02736253,0.0550749
0.9211318,0.03407293,0.05291465
0.8787019,0.04089682,0.06853854
0.8455217,0.05642237,0.1374092
0.9018658,0.0683908,0.1457304
1.003521,0.04457829,0.1333316
1.023867,-0.02144409,0.1263127
0.9919592,-0.1094318,0.09804212
0.9739662,-0.1880615,0.07801673
1.062338,-0.185105,0.05340225
1.282968,-0.1892995,0.01121826
1.461875,-0.2790378,-0.02261627
1.457334,-0.3399923,0.0822007
1.417925,-0.4094455,0.2831037
1.425884,-0.4496638,0.3222315
1.338989,-0.3285705,0.253949
1.312161,-0.1931552,0.2215577
1.308607,-0.07325622,0.1680268
1.093323,0.04279878,0.1330013
0.9439217,0.03542359,0.1674209
0.8628708,-0.01026112,0.2033921
0.7292396,-0.07479593,0.2114038
0.6793198,-0.1407621,0.2181348
0.5947198,-0.1028528,0.2218365
0.5904731,-0.04771646,0.212537
0.6803222,0.001416653,0.1902815
0.6715664,0.03132266,0.1462601
0.6758689,0.01502981,0.1236742
0.6727771,0.02859561,0.136121
0.7479254,0.01063833,0.1335281
0.9205292,-0.03552908,0.1340053
0.991146,-0.03820657,0.1504663
1.034275,-0.07253137,0.1564796
1.033614,-0.12039,0.1570868
0.9979802,-0.1159077,0.1615144
1.025021,-0.1018683,0.1479378
1.078568,-0.08554678,0.06349513
1.155651,-0.05759958,-0.04600083
1.199121,-0.08034222,-0.0564685
1.358683,-0.1680299,-0.01401405
1.608018,-0.2350456,-0.009885497
1.545426,-0.2018658,0.01637658
1.416827,-0.0877313,0.06322209
1.468103,0.009048019,0.09692071
1.40134,0.03605271,0.131443
1.370154,0.02512186,0.09044797
1.382363,0.03940018,0.01285596
1.190593,0.05649098,-0.02766606
1.052403,0.03185465,-0.06525105
0.9294564,0.03140231,-0.04159066
0.7463872,0.02622566,-0.007666584
0.7186683,-0.0001756733,-0.02030422
0.715374,0.02594012,-0.01292799
0.7694273,0.02659391,-0.02789748
0.892023,-0.007285029,-0.03271823
0.8897317,-0.03618496,-0.01456439
0.843432,-0.05935282,-0.02154054
0.7932439,0.005057506,0.0006029614
0.7762632,0.09822661,0.0277342
0.7815567,0.1322264,0.07478457
0.7413573,0.1182302,0.1499873
0.7498089,0.0827688,0.1841598
0.8109642,0.07900972,0.1973502
0.9205112,0.09361557,0.1483948
1.014076,0.106125,0.06246799
1.01471,0.07514722,0.0478515
1.035696,-0.01413912,0.03825871
1.083489,-0.09391978,-0.02235747
1.145127,-0.1990572,-0.05933524
1.290095,-0.3629779,0.009941457
1.459222,-0.5359639,0.1569514
1.486532,-0.5928356,0.2866958
1.379273,-0.4946051,0.3616593
1.352174,-0.4151725,0.3625953
1.391826,-0.3047969,0.3181461
1.389285,-0.06974423,0.2608871
1.358805,0.1035521,0.1980072
1.240287,0.1518437,0.1777966
1.063025,0.1206416,0.1887081
0.9115362,0.02290351,0.1951042
0.7767457,-0.112883,0.1933792
0.657993,-0.2170934,0.1982333
0.5950483,-0.2026973,0.2277865
0.6110653,-0.150917,0.2327485
0.6401396,-0.10551,0.1947317
0.6492684,-0.04348908,0.1428935
0.6114091,-0.02611172,0.1215492
0.5523239,-0.01119978,0.1495873
0.6026084,-0.01365351,0.1571583
0.7024539,-0.05065206,0.1454923
0.8168627,-0.04009603,0.1350567
0.977332,-0.03708283,0.1132331
1.053046,-0.03707691,0.1186747
1.057063,-0.01026206,0.1361347
1.064828,-0.0160005,0.1438879
1.0892,-0.03335339,0.1304832
1.172675,-0.05814947,0.0789123
1.25089,-0.09805899,0.02785356
1.301714,-0.1619096,0.008097133
1.364792,-0.2212374,0.04055509
1.405187,-0.1912744,0.07879861
1.425598,-0.092795,0.06342355
1.439286,0.1068002,0.04364685
1.43014,0.3110078,0.03663849
1.391383,0.2492001,0.04449027
1.337934,0.07657648,0.07199406
1.279104,-0.01942911,0.07450214
1.183982,-0.1381205,0.07492333
1.05635,-0.1717421,0.07613157
0.9286257,-0.0894628,0.04641291
0.8261479,-0.01071035,0.02430573
0.761,0.06329667,0.008226722
0.7438823,0.09978728,-0.01794031
0.7906531,0.1347175,-0.03278335
0.8417999,0.1495705,-0.01913111
0.8528998,0.08854088,0.0213482
0.8180817,0.04384292,0.04129158
0.7488874,0.02675642,0.03617422
0.7429246,0.05703227,0.02916182
0.810296,0.1241387,0.01734315
0.8632251,0.1391068,0.02504159
0.8502044,0.09037698,0.06042407
0.8052909,-0.004759483,0.116963
0.8055161,-0.03990485,0.1551489
0.8258461,-0.06502998,0.1557627
0.85823,-0.1597358,0.1776695
0.912861,-0.1715708,0.1657308
1.015285,-0.1788281,0.05119176
1.195716,-0.2685459,-0.06266714
1.271007,-0.2900342,-0.06884404
1.334056,-0.3026646,0.03721346
1.63933,-0.4419971,0.2093317
1.804342,-0.5686845,0.3479535
1.598106,-0.5070846,0.3148191
1.42886,-0.3825811,0.2312277
1.398438,-0.3069464,0.2650809
1.281906,-0.1556177,0.2296081
1.106492,0.01962409,0.1649785
1.004476,0.03566285,0.2050351
0.9325736,-0.04448465,0.1912062
0.8359306,-0.08277601,0.1869788
0.7701339,-0.141364,0.2069731
0.6870805,-0.202117,0.1848041
0.6138517,-0.1338172,0.2037585
0.6788818,-0.0662783,0.1872376
0.7121146,-0.05068971,0.1453919
0.6580518,-0.007965358,0.1193773
0.654686,-0.00935484,0.1046246
0.6451065,-0.008375116,0.1446682
0.715675,-0.04407109,0.155575
0.8755457,-0.1520997,0.1621295
0.9431057,-0.165979,0.1718013
0.9821416,-0.1507721,0.1339168
1.014792,-0.1690705,0.1300373
0.9870702,-0.1554011,0.1502093
0.9566442,-0.1206275,0.1678778
0.9517431,-0.06858184,0.1488589
1.005632,-0.0538117,0.08901489
1.13207,-0.08095569,0.05192262
1.315512,-0.1392196,0.01330509
1.501869,-0.238278,0.01254153
1.547866,-0.2511508,0.02708801
1.464929,-0.1185731,0.01138171
1.381098,0.06154725,0.06285546
1.256244,0.1811368,0.1367056
1.189479,0.1850119,0.1524879
1.297539,0.1130893,0.0883027
1.326767,0.02372754,-0.02538149
1.244407,-0.06963293,-0.04650206
1.173463,-0.1460209,-0.00627533
1.059496,-0.1795856,-0.0008774618
0.9951605,-0.1300267,-0.009967173
0.9374274,-0.02127851,-0.03084338
0.8621126,0.02279734,-0.0506764
0.8925229,0.02741687,-0.06772857
0.9010711,0.04101433,-0.07548226
0.8967566,0.01116057,-0.06129623
0.9351867,-0.00292914,-0.03952644
0.9191781,-0.006076302,-0.01014834
0.9111596,-0.01797077,-0.0004277195
0.9007255,0.001286205,-0.00463358
0.8494913,-0.005700768,0.004589324
0.843391,-0.01103803,0.02899629
0.8826178,-0.004029418,0.07580559
0.9154002,-0.009044898,0.09239363
0.9033588,0.01693163,0.06803941
0.8624933,0.02970387,0.061921
0.8445726,0.03585388,0.07325298
0.8616164,0.05446231,0.09936692
0.887921,0.05661707,0.1381153
0.8732859,0.05870625,0.1437041
0.840977,0.0509359,0.1185032
0.8328432,0.04999186,0.1137983
0.8563052,0.02275035,0.1258342
0.9518635,-0.08683178,0.1282759
1.088321,-0.196611,0.1195362
1.214765,-0.2156611,0.08264025
1.327902,-0.1834804,0.01291113
1.414566,-0.2348515,-0.02046665
1.521667,-0.3983819,0.09467511
1.63975,-0.5483742,0.2809078
1.639488,-0.5192904,0.3105463
1.527731,-0.327122,0.2152556
0.8080968,0.08014843,-0.0593376
0.8118993,0.06118873,-0.009743029
0.7917862,0.02034538,-0.01070913
0.7245315,-0.01540177,-0.002764869
0.6646436,-0.03834149,0.03450263
0.711455,-0.02131505,0.04535873
0.8137895,-0.02318237,0.07565818
0.8872292,-0.01958055,0.1177721
0.9488332,0.02058432,0.1027301
0.9658219,0.03941578,0.07497317
0.9421489,0.07825262,0.0787387
0.9765339,0.1164875,0.08741835
1.048985,0.09672795,0.09464199
1.126642,0.02528058,0.06619094
1.173303,-0.08826616,0.01168645
1.16062,-0.1912976,0.02262784
1.243678,-0.2746183,0.08095179
1.384928,-0.3134787,0.1288907
1.388649,-0.3059094,0.1565793
1.348724,-0.3684415,0.196556
1.361298,-0.4426383,0.2792472
1.35296,-0.3828537,0.2963589
1.315629,-0.2410748,0.2553226
1.274901,-0.07163046,0.2532936
1.215183,0.05971465,0.222986
1.147257,0.03302809,0.2018682
1.074576,-0.06367135,0.2285897
0.9766205,-0.1286987,0.225024
0.8864302,-0.1638952,0.223759
0.8226565,-0.1328579,0.2255654
0.773979,-0.1168445,0.2164122
0.7470452,-0.1203685,0.2309692
0.7331431,-0.0846015,0.2384039
0.709806,-0.08041276,0.2318811
0.6496822,-0.05307884,0.2216608
0.5897439,-0.02775575,0.204253
0.5850498,-0.05903282,0.1863807
0.6216225,-0.04790822,0.169191
0.6986272,-0.05892336,0.1688834
0.7854707,-0.0827033,0.1725771
0.8248727,-0.04988433,0.1674725
0.8489752,-0.04034697,0.1727823
0.9081767,-0.03631065,0.1797281
0.9723383,-0.02710089,0.1875471
1.002158,-0.03771784,0.2030971
1.05054,-0.0594263,0.1990256
1.148568,-0.1083468,0.1555286
1.233877,-0.1713764,0.08069798
1.267707,-0.2227712,0.0142228
1.258953,-0.2300129,-0.004340269
1.250768,-0.2151607,0.002621519
1.261534,-0.1933105,0.01393874
1.275778,-0.1183289,0.03720766
1.302095,-0.000799418,0.05681339
1.310711,0.1050605,0.0793181
1.313718,0.1008269,0.09206298
1.374974,0.04980411,0.05389585
1.417055,0.05528948,0.01594129
1.317986,-0.03306858,0.02508198
1.12717,-0.1321671,0.04008488
1.007532,-0.0983208,0.0394364
0.9748223,-0.06733748,0.02353669
0.9037795,-0.008633754,-0.004369047
0.8093184,0.05073077,-0.01503495
0.7695936,0.03805308,-0.01186715
0.7605574,0.05380697,-0.02236272
0.7739721,0.04970426,-0.02796515
0.8072509,0.03144404,-0.01437937
0.8219547,0.03372983,0.01425801
0.8311221,0.01024748,0.04770431
0.8385526,0.01247417,0.03673417
0.8066446,0.01097649,0.00953291
0.7555867,2.929819e-05,0.03508782
0.7425563,0.003621256,0.08760691
0.7922998,-0.01171676,0.1406574
0.8617789,-0.002737322,0.1398226
0.8930002,0.01277181,0.07618768
0.9147902,0.00792744,0.04976782
1.001924,-0.03080206,0.04518357
1.156013,-0.1223664,0.04506944
1.265698,-0.1784941,0.06024016
1.307043,-0.2276926,0.04796624
1.372077,-0.3105968,0.05728553
1.398364,-0.3045426,0.08270733
1.394637,-0.2905265,0.1362886
1.470178,-0.4122324,0.2702235
1.467013,-0.4851367,0.3336952
1.386133,-0.3535717,0.2846728
1.366463,-0.1162966,0.2490628
1.284815,0.0645789,0.2249257
1.172747,0.09045411,0.1788909
1.032293,0.1095378,0.1447805
0.872962,0.1425985,0.1526251
0.8419558,-0.0007838911,0.1777832
0.675567,-0.1399264,0.1998855
0.507194,-0.1526463,0.2225986
0.6321286,-0.1445156,0.2283006
0.6529913,-0.09785025,0.2189408
0.634277,-0.08038716,0.1973162
0.7074547,-0.04972412,0.1564545
0.6263055,-0.003690243,0.145914
0.6046363,-0.04084069,0.1668871
0.6939969,-0.04597433,0.160296
0.7981832,-0.0480156,0.1556952
0.9650905,-0.04058881,0.1443537
1.056707,0.01955867,0.1120029
1.098499,0.007886698,0.1261969
1.121402,6.704122e-05,0.1497613
1.093313,0.009542915,0.1660645
1.110528,-0.01904601,0.1866882
1.15662,-0.03956623,0.1609332
1.213617,-0.09394092,0.1255625
1.235211,-0.191037,0.09226239
1.174921,-0.2945467,0.05996243
1.147947,-0.2860207,0.04797144
1.184444,-0.1442664,-0.01744055
1.244592,-0.01544356,-0.08879806
1.295848,0.07633396,-0.05209146
1.290797,0.08023744,0.009342962
1.291989,0.02150002,0.02393172
1.343719,-0.03004011,0.02348868
1.367884,-0.1451056,-0.01120807
1.313125,-0.1909283,-0.0483364
1.193889,-0.1007532,-0.04331961
1.053503,-0.01821435,-0.0281614
0.9483248,0.04626585,-0.01122674
0.8859482,0.07363434,-0.02587588
0.8461894,0.06818045,-0.0606056
0.8382361,0.06667544,-0.06123872
0.8494798,0.04228273,-0.04571507
0.8495045,0.0202783,-0.008592435
0.8413348,0.01099211,0.01981854
0.834476,0.01987558,0.01610492
0.8188813,0.05697746,0.01345585
0.7895687,0.1034633,-0.009873818
0.7791079,0.1502465,-0.02664012
0.8170951,0.163651,0.0008559798
0.8633452,0.1408348,0.0547949
0.8801069,0.08905957,0.1249681
0.9079494,0.02875345,0.1834745
0.9505684,0.01984391,0.2033919
0.9574956,0.01707905,0.1920849
0.9327111,-0.0395666,0.1651449
0.917506,-0.1293209,0.07476287
0.9761879,-0.2418388,-0.04427878
1.114747,-0.3358519,-0.06407929
1.242229,-0.3746151,-0.04277939
1.322003,-0.3800593,-0.02054934
1.389665,-0.3871877,0.09781532
1.447981,-0.4131962,0.2517447
1.399494,-0.3628125,0.3126805
1.269935,-0.2091165,0.2896494
1.249284,-0.09161911,0.2444353
1.267095,0.0309203,0.1780501
1.207565,0.1704636,0.1217999
1.119289,0.1127865,0.1247809
0.9685885,-0.04582552,0.1390506
0.8111322,-0.08138967,0.1456421
0.6978898,-0.1246263,0.1552368
0.6159605,-0.1869771,0.1579243
0.6291569,-0.1532456,0.1741952
0.6758088,-0.1556345,0.1771867
0.7035788,-0.1538909,0.1527163
0.7157162,-0.09181164,0.1219705
0.7087248,-0.08874327,0.08207535
0.7696868,-0.08145786,0.07208317
0.8817625,-0.1010192,0.09748115
0.9629241,-0.1627324,0.1259593
0.9899712,-0.1896262,0.1703134
0.9977738,-0.2302151,0.2134926
1.052771,-0.2081611,0.2160947
1.115088,-0.1429871,0.2034321
1.151385,-0.108332,0.2146711
1.128179,-0.05624316,0.2247872
1.04071,-0.001989446,0.2379524
1.029189,0.0371052,0.2518753
1.156322,-0.06477484,0.1635105
1.447658,-0.2600269,-0.02865816
1.761961,-0.3109252,-0.1693564
1.743764,-0.2860231,-0.1335307
1.400812,-0.2810384,0.03682937
1.080524,-0.2491451,0.2199843
1.04089,-0.1460157,0.3177808
1.151894,-0.02076584,0.2230137
1.174074,0.0092936,0.05571573
1.231321,0.03159323,-0.02015939
1.237599,0.07067094,-0.04915636
1.080771,0.05309932,-0.01100163
1.012714,0.07601824,0.01441088
0.9411128,0.0986315,0.01112166
0.8365316,0.07474032,0.05756133
0.863747,0.08774319,0.007074368
0.8916642,0.09641616,-0.06203446
0.9099444,0.09497082,-0.0877277
0.9131324,0.07999874,-0.1306022
0.8985891,0.007812769,-0.07053311
0.9460591,-0.07124164,-0.002213986
0.9514935,-0.1298491,0.03752993
0.9095284,-0.1278778,0.07834072
0.8563619,-0.05326948,0.04887379
0.8139864,0.03191613,0.03801916
0.7946603,0.1023677,0.02233306
0.746287,0.1119861,0.02172984
0.7666736,0.08340664,0.0865905
0.8513797,0.07898699,0.1038438
0.9389825,0.07361429,0.09062386
0.9956176,0.06833924,0.08028191
0.9417328,0.06615802,0.1140969
0.9193885,0.07053842,0.1788112
0.9527275,0.06939159,0.178813
0.968929,-0.01311966,0.163446
1.078578,-0.160372,0.1091674
1.235623,-0.2847368,0.01074023
1.375818,-0.382747,-0.008673442
1.515284,-0.5232828,0.07626874
1.577532,-0.6623714,0.2310567
1.480581,-0.6562186,0.3666192
1.284801,-0.5295676,0.4031622
1.209273,-0.3666812,0.3408869
1.233358,-0.1617751,0.2384484
1.190286,0.006456021,0.1699212
1.121425,0.01186237,0.1450933
1.038371,-0.0822881,0.1480677
0.9373922,-0.1250902,0.1454668
0.8220511,-0.1590456,0.1746022
0.6870818,-0.2067317,0.2394507
0.6188076,-0.1981809,0.2408349
0.5945425,-0.2069699,0.2362554
0.5780134,-0.2205192,0.2568281
0.6122339,-0.1774909,0.2666014
0.6850855,-0.1224419,0.2909863
0.7491746,-0.05926999,0.2653903
0.7536979,-0.03386706,0.1899192
0.7474473,-0.02269289,0.1189296
0.7754061,0.02624608,0.08808004
0.8164013,0.02498864,0.1273099
0.8856531,-0.03776398,0.1513775
0.9241338,-0.118287,0.1642559
0.9301676,-0.1566555,0.1944947
0.9989097,-0.1335202,0.1740949
1.050877,-0.1383705,0.1580115
1.02819,-0.1422758,0.1818194
1.035912,-0.1200544,0.2069571
1.056062,-0.1236979,0.2279395
1.065213,-0.141088,0.1784875
1.139894,-0.1868107,0.07113414
1.209137,-0.2327989,0.01029171
1.228779,-0.2567734,-0.01388934
1.271685,-0.3059817,-0.01325298
1.30603,-0.3055546,0.03005331
1.325369,-0.1695934,0.06587703
1.365816,0.04150036,0.0755945
1.379551,0.1817069,0.06787935
1.376978,0.1730972,0.04544174
1.386049,0.1186555,0.02845159
1.320918,0.05072822,0.02776975
1.17253,-0.07584309,0.04608718
1.038444,-0.1125611,0.04699839
0.9299667,-0.03538689,0.01301
0.8332285,0.007782603,-0.02315766
0.7701857,0.0592642,-0.04106025
0.7656383,0.1027545,-0.03707908
0.8232817,0.07633281,-0.04915656
0.8737402,0.05550658,-0.0607802
0.8640261,0.005439069,-0.02110121
0.8085403,-0.05337035,0.03144097
0.7742329,-0.03982063,0.05752542
0.8227867,-0.01750408,0.05450451
0.8770661,0.003094443,0.06831203
0.86656,0.02078139,0.09917761
0.8664067,0.03675458,0.08547607
0.8905639,0.08128225,0.07661604
0.8676882,0.08431316,0.08669791
0.8533786,0.06584875,0.07865264
0.9066932,0.08477741,0.08949511
0.9480459,0.06718073,0.1023299
0.9519784,-0.0343103,0.09195109
0.960533,-0.1930985,0.06725616
0.9942464,-0.3179399,0.0211081
1.102006,-0.3814683,-0.02028709
1.279772,-0.4450594,-0.0114333
1.419132,-0.4599063,0.09895059
1.496022,-0.4811185,0.2713267
1.52019,-0.5427973,0.349373
1.446086,-0.4001385,0.319979
1.38485,-0.1153528,0.2788931
1.339294,0.06420571,0.2099725
1.204452,0.1734614,0.1513396
1.090595,0.1679722,0.1721706
0.9705637,0.0412204,0.1924319
0.8292929,-0.07540215,0.1983304
0.7457833,-0.1585569,0.2257786
0.6651886,-0.1640586,0.2284516
0.6589119,-0.1270344,0.2178699
0.6802125,-0.09983427,0.1922555
0.6381283,-0.04432271,0.1492885
0.6020251,-0.02534853,0.1506422
0.5733632,-0.04214243,0.1674567
0.64347,-0.04484729,0.1639072
0.792039,-0.05922878,0.1602264
0.9036491,-0.06763792,0.1401789
1.00286,-0.07536218,0.1202209
1.036055,-0.0971253,0.1460245
1.015232,-0.1101757,0.1858864
1.015168,-0.0897442,0.1914711
1.027839,-0.05497885,0.188957
1.067265,-0.06723056,0.1831906
1.116937,-0.1083077,0.1410007
1.154343,-0.1534057,0.07671309
1.243809,-0.1859187,0.01588649
1.361983,-0.1737118,-0.002165199
1.34478,-0.1504908,0.04211129
1.289104,-0.08034011,0.09327076
1.32463,0.0322656,0.1188946
1.297151,0.07582088,0.129447
1.29557,0.1078259,0.1205425
1.375043,0.1479539,0.08936958
1.364776,0.07512129,0.0577029
1.302093,-0.02070315,0.04665301
1.168903,-0.01701232,0.03937151
1.024184,0.01484288,0.02072451
0.9629674,0.04453375,0.01225429
0.8844842,0.07613844,0.01277074
0.85995,0.07659923,0.002363984
0.8758169,0.06331989,-0.00715334
0.8555518,0.05209139,-0.02079872
0.8470182,0.04884206,-0.03128901
0.8065985,0.05507837,-0.0009767014
0.799063,0.05382435,0.02947591
0.8430804,0.05094273,0.03548219
0.8689818,0.0426917,0.07112806
0.8867002,0.02724077,0.1084994
0.8519013,0.02639626,0.08929254
0.816484,0.06200806,0.06913047
0.8357501,0.1287596,0.08458837
0.8828787,0.1598042,0.08363685
0.9579942,0.1264304,0.09290295
0.9861321,0.08160047,0.1234079
0.9635055,0.04625898,0.1133893
0.9798897,-0.005104306,0.113228
1.03948,-0.09470898,0.1341544
1.077425,-0.1935863,0.1084384
1.025662,-0.2571701,0.03030664
0.9847279,-0.3491664,-0.0975289
1.180511,-0.4887839,-0.1594067
1.576633,-0.5468644,-0.07185681
1.814802,-0.5163225,0.02573393
1.703497,-0.4715686,0.07527362
1.52141,-0.372418,0.1058077
1.433429,-0.1900809,0.1106099
1.25951,-0.0008652824,0.1341838
1.106933,0.08802441,0.1483262
1.06777,0.06089833,0.1365441
1.003883,-0.0614574,0.1533081
0.9441914,-0.2363997,0.1588721
0.831039,-0.3264565,0.151916
0.7591618,-0.3233897,0.1366576
0.8234798,-0.3284688,0.09831026
0.8483656,-0.3291162,0.1139032
0.9112463,-0.3110972,0.1590293
0.9334295,-0.2944656,0.1896475
0.8605811,-0.2564324,0.2159818
0.863195,-0.1802525,0.2009504
0.8281158,-0.09385286,0.1894167
0.8155711,-0.04903569,0.1947594
0.8371359,-0.03059435,0.1795014
0.7890548,0.01651559,0.164667
0.7949055,0.04985438,0.1369903
0.7880263,0.03343468,0.1273271
0.7340334,-0.002854826,0.1282401
0.6672607,-0.03465109,0.08635829
0.6102917,-0.02470213,0.0793765
0.6721389,-0.00125682,0.1111455
0.7773693,0.001955291,0.1407688
0.8774232,-0.007796878,0.1804482
0.9556066,-0.06588842,0.1599655
1.026688,-0.1286898,0.1153407
1.128343,-0.1181391,0.121601
1.112738,-0.06232869,0.1236343
1.106616,-0.04102645,0.1409628
1.162655,-0.1048148,0.1967846
1.11787,-0.2303482,0.2231942
1.156686,-0.329333,0.1690175
1.202541,-0.3310232,0.05412973
1.156345,-0.3070229,-0.009770042
1.207717,-0.3251154,-0.005862839
1.270498,-0.3081863,-0.02316734
1.374994,-0.1993759,-0.03329838
1.469957,-0.02246965,0.00281753
1.365169,0.08901765,0.03136217
1.290408,0.06038194,0.03212739
1.337897,0.03599087,0.0005069567
1.328803,0.01470011,-0.04425428
1.2205,-0.09962885,-0.01897492
1.068543,-0.1842832,0.02135323
0.9637091,-0.1809091,-0.001928236
0.9444201,-0.1415934,-0.01447524
0.9146602,-0.05879569,-0.03729109
0.832377,0.01805636,-0.07012589
0.8285781,0.04385256,-0.05794999
0.8655514,0.04983453,-0.07085919
0.8625603,0.06569127,-0.0773135
0.8599085,0.07529131,-0.04951131
0.8074631,0.04121121,-0.03432131
0.7819318,-0.00314753,0.01879894
0.8256067,-0.01333321,0.07197402
0.8648703,0.01368487,0.04773363
0.9062112,0.05688721,0.003840242
0.9079522,0.08327613,-0.004313901
0.8905962,0.1178413,-0.0005134651
0.836687,0.1459344,0.04035641
0.7672876,0.1289178,0.1344281
0.8394454,0.1197091,0.1742524
0.9651784,0.1190816,0.1598646
1.014524,0.08060659,0.1531918
1.022268,0.01107086,0.1247534
1.023777,-0.08437941,0.08806495
1.049304,-0.2078693,0.04023541
1.146346,-0.3738607,-0.001906569
1.318278,-0.5477884,-0.006440794
1.407784,-0.6060271,0.007423424
1.387562,-0.5868179,0.1271785
1.425652,-0.6137861,0.2781736
1.463551,-0.5533351,0.2149319
1.437508,-0.3522742,0.07780101
1.432716,-0.1987335,0.06750309
1.350898,-0.09340237,0.07713526
1.148333,0.04240083,0.09976793
1.008149,0.1078562,0.1262323
0.9451391,0.03300735,0.1197224
0.8116715,-0.04638105,0.1597343
0.642524,-0.0589072,0.1687554
0.56612,-0.09125373,0.1670435
0.556611,-0.094927,0.2175565
0.5885747,-0.07555279,0.218801
0.6767367,-0.08505083,0.2098499
0.7180873,-0.03853414,0.1736694
0.6899881,0.01110408,0.114424
0.6775342,0.04050089,0.1188156
0.705201,0.07176629,0.1168279
0.7687988,0.05183475,0.1207062
0.8558781,0.03809774,0.1334939
0.9444457,0.02931733,0.1051736
0.9841179,0.02659248,0.07843029
0.997774,0.04783569,0.07335873
1.048777,0.0203709,0.08050486
1.121726,-0.05190645,0.05702121
1.222331,-0.1786938,-0.005253391
1.332215,-0.2949468,-0.08409771
1.432015,-0.3219494,-0.1239528
1.478886,-0.3349304,-0.05943912
1.403919,-0.2630588,0.0029834
1.29517,-0.07837492,0.01539682
1.233265,0.04555669,0.05222296
1.25735,0.05851139,0.05602662
1.353646,0.01111341,-0.005101321
1.390794,-0.04492635,-0.04871224
1.34285,-0.1090175,-0.04634922
1.239782,-0.1608181,-0.02804415
1.131714,-0.1108335,-0.01331582
1.057599,-0.04576891,-0.00872504
0.9621766,-0.01487309,-0.01576619
0.8596284,0.06889752,-0.0283922
0.8341956,0.08859571,-0.03016826
0.8900236,0.03560539,-0.02253542
0.8992425,0.04590413,-0.01476797
0.8798603,0.03681865,0.002101434
0.8918505,0.02305293,0.01432875
0.8204544,0.06431559,0.02102484
0.7809965,0.07016672,0.02607342
0.8170128,0.08762842,0.01784324
0.8022456,0.1233257,0.0222267
0.8097613,0.1081022,0.03222191
0.812806,0.08545551,0.06103562
0.8207997,0.06481511,0.1389612
0.8791253,0.0663163,0.1773081
0.9073303,0.08245723,0.1471323
0.8981409,0.07852851,0.123316
0.8452552,0.07909827,0.1108616
0.8270373,0.03358533,0.08948469
0.9048505,-0.06058689,0.05909796
1.0223,-0.1618493,0.02240698
1.144927,-0.2859283,-0.003418104
1.281649,-0.3730096,0.001382425
1.486335,-0.4287014,0.064603
1.601481,-0.5020069,0.1821898
1.4948,-0.4915998,0.2713518
1.375648,-0.4145879,0.2882213
1.352239,-0.3427044,0.2629692
1.301485,-0.1488295,0.211483
1.180333,0.04688785,0.1743047
1.048546,0.04361387,0.1710492
0.9097216,-0.01074331,0.1658623
0.7882048,-0.09434062,0.1572347
0.6767373,-0.195035,0.1626799
0.5633054,-0.1817164,0.1909568
0.5632491,-0.1353226,0.217325
0.6236928,-0.07614733,0.2060176
0.671662,-0.01122627,0.1701
0.7128097,-0.007399984,0.1414377
0.6930114,-0.01716597,0.1356785
0.7222186,-0.02910273,0.1347489
0.823322,-0.05069999,0.1244685
0.921194,-0.0703923,0.1032141
1.014834,-0.0607994,0.07325145
1.044781,-0.05262289,0.07215047
1.061626,-0.1286822,0.08453184
1.074469,-0.2394066,0.06936683
1.052447,-0.2972063,0.04414209
1.114982,-0.2716288,-0.02995071
1.285572,-0.2476603,-0.1337023
1.531198,-0.2494797,-0.1392246
1.667191,-0.1225144,-0.09189938
1.465536,0.04748575,-0.01871362
1.244433,0.08139185,0.1291828
1.294569,0.05646783,0.1539188
1.373963,0.05239781,0.04684521
1.379215,0.02821424,0.01896057
1.307351,-0.009211304,-0.004588905
1.121018,0.01489055,-0.03984776
0.9973993,0.0400347,-0.03056233
0.9275992,0.0153452,-0.03402711
0.8266221,0.02143153,-0.007784038
0.8037682,0.0264239,0.005008049
0.8303583,0.01533472,-0.01373988
0.8535826,0.01983526,-0.001928143
0.8715139,0.004509365,-0.01225153
0.8574518,0.0007493108,-0.01058398
0.8460751,0.03195627,0.008048956
0.8401597,0.06589229,0.001127516
0.8451556,0.08042462,-0.01097472
0.8513365,0.08883289,-0.03664185
0.8206447,0.0951571,-0.0109204
0.7806051,0.06374259,0.06254721
0.7586798,0.03598846,0.1254748
0.7800222,0.03725115,0.1695509
0.8408658,0.05385389,0.1425092
0.9181583,0.08171186,0.1116799
0.9855238,0.05114206,0.1110417
1.011858,-0.01498159,0.07592843
1.051216,-0.0895594,0.05297956
1.125897,-0.2131848,0.04308129
1.227254,-0.2956725,0.03857148
1.359452,-0.3187618,0.07390474
1.479496,-0.3940975,0.1469857
1.55342,-0.4702125,0.2483006
1.492533,-0.3936787,0.2771093
1.375467,-0.2557112,0.2374829
1.367413,-0.1863524,0.2436916
1.32589,-0.02556377,0.2384244
1.237276,0.1556768,0.2027727
1.173225,0.1223832,0.1795525
1.020775,0.03099599,0.1406007
0.8826061,-0.01660853,0.1221261
0.8066404,-0.101043,0.137863
0.689568,-0.1697732,0.165504
0.6262064,-0.1962138,0.2017147
0.6504305,-0.1979625,0.2097373
0.6699937,-0.1601109,0.1966274
0.6755384,-0.08976869,0.1731837
0.6817055,-0.02750698,0.1263257
0.6736955,-0.02186236,0.1023622
0.6839993,-0.06296046,0.1257276
0.7501004,-0.1129128,0.1349433
0.8653074,-0.1595354,0.0970607
0.9876657,-0.1688302,0.05865006
1.043292,-0.1300048,0.04745416
1.068047,-0.09724389,0.06382547
1.057444,-0.08632712,0.09212114
0.9676872,-0.06575692,0.1057671
0.9450128,-0.03717877,0.1089959
1.020683,-0.03261353,0.07594417
1.105948,-0.05362546,0.01262453
1.180314,-0.1075458,-0.02009658
1.293746,-0.240849,-0.02570904
1.480017,-0.3501604,-0.01733745
0.6547384,-0.01894824,0.1046694
0.6322874,-0.03233379,0.08414147
0.6329313,-0.0633749,0.1018907
0.6729897,-0.07153816,0.111858
0.7509396,-0.09562712,0.1297407
0.8414521,-0.1077817,0.1391109
0.9481633,-0.05665547,0.1168364
1.05533,0.00291873,0.0964302
1.092322,0.04542473,0.1014736
1.065909,0.0881668,0.116835
1.051343,0.1146782,0.1365107
1.060147,0.09471866,0.1344932
1.109216,0.01061844,0.1010174
1.225405,-0.09127734,0.06109847
1.318263,-0.1787677,0.0199166
1.33813,-0.2176749,0.01721709
1.315785,-0.1795249,0.07387609
1.284495,-0.09427879,0.1231041
1.313799,0.06501836,0.1103219
1.339465,0.2284262,0.09134088
1.3155,0.2346691,0.1079919
1.327934,0.1369987,0.07650564
1.325695,0.03508514,0.02041908
1.263693,-0.09695689,0.01954592
1.158296,-0.1768795,0.03362309
1.028388,-0.1428536,0.04646281
0.9535527,-0.1059209,0.03505396
0.894644,-0.03731208,-0.001691905
0.8280636,0.06400999,-0.03110366
0.8285377,0.07606452,-0.06353678
0.8491497,0.07981014,-0.0668001
0.8468028,0.0960889,-0.05777426
0.8514372,0.06959989,-0.03833091
0.838895,0.06813418,0.02328964
0.7978316,0.06530225,0.05026273
0.7866355,0.05037102,0.05122418
0.8110361,0.06084782,0.06363177
0.8285376,0.06888331,0.06353252
0.8531157,0.09544014,0.07640684
0.9042515,0.1248543,0.07782528
0.9480971,0.1158239,0.06624987
0.9252777,0.09637693,0.07739966
0.8817285,0.07636138,0.08876169
0.8947992,0.07051089,0.111662
0.9123171,0.0709283,0.1352325
0.9438111,0.03179272,0.1258835
1.022472,-0.03305252,0.09393956
1.099058,-0.1135812,0.02698343
1.18907,-0.2138408,-0.03808367
1.299027,-0.3010155,-0.0348117
1.391308,-0.4060574,0.01829082
1.434213,-0.5825792,0.134757
1.422094,-0.6627951,0.2964476
1.360648,-0.4665383,0.338729
1.282882,-0.2026966,0.2736876
1.294226,-0.05656505,0.2475377
1.296858,0.05727172,0.1943997
1.16898,0.09922348,0.1336117
1.052037,0.05077299,0.1661263
0.9641822,-0.004113899,0.1724321
0.8367403,-0.1039083,0.1582859
0.6924342,-0.2038513,0.197138
0.5953622,-0.1880044,0.2133626
0.5760177,-0.1263925,0.230294
0.5578516,-0.08854221,0.2411577
0.5948456,-0.01184352,0.2089288
0.6520826,0.05814008,0.1812536
0.6353257,0.07356184,0.1462865
0.6781593,0.0823258,0.135378
0.7457287,0.03539433,0.1525681
0.8154212,-0.03574726,0.1422875
0.9231966,-0.05313086,0.1449874
0.9792769,-0.04858871,0.1543148
1.049759,-0.03486679,0.1566281
1.095206,-0.03151684,0.1781224
1.053244,-0.01110949,0.1847523
1.068912,0.01064059,0.1692238
1.224773,-0.03803349,0.1103806
1.422903,-0.1003771,0.01405983
1.444026,-0.1323821,-0.009649097
1.338519,-0.1169,0.04983979
1.227537,-0.08166565,0.1359633
1.080514,-0.0666266,0.2167223
1.109708,0.02319758,0.1858057
1.267299,0.2082928,0.06432038
1.280216,0.3276549,0.005067046
1.288002,0.2139215,-0.01779817
1.313134,-0.003262283,-0.04757903
1.274266,-0.1030257,-0.03570043
1.218903,-0.1912884,0.0103345
1.079582,-0.2915314,0.05011972
1.001714,-0.2633316,0.03579955
1.009267,-0.1422477,0.006015636
0.9105813,-0.01167246,-0.007215109
0.8472038,0.09078777,-0.04446444
0.8466631,0.138259,-0.07113916
0.823046,0.1226056,-0.08730345
0.8442743,0.1004744,-0.09088655
0.8603409,0.07253514,-0.05565117
0.8446521,0.02271912,-0.02539475
0.8173869,0.01522754,-0.004250916
0.775582,-0.0004308108,0.008002745
0.7722117,-0.01732606,0.01879889
0.8139294,-0.001280178,0.03037541
0.8595662,-0.007172831,0.02724132
0.905753,0.005308565,0.05482955
0.9348103,0.01666133,0.08089188
0.9061997,0.01964904,0.0624053
0.8680461,0.03903461,0.05787982
0.8726337,0.03609141,0.09389918
0.9213041,0.03059122,0.1455511
1.043455,-0.00288368,0.1730322
1.19345,-0.05187561,0.1635016
1.276418,-0.06569588,0.110348
1.302062,-0.07707526,0.02480968
1.331711,-0.08752639,-0.02236606
1.380501,-0.154127,-0.01127797
1.450526,-0.3716725,0.06766749
1.487137,-0.5991867,0.2148932
1.379655,-0.5879346,0.3194197
1.226418,-0.410732,0.3336265
1.181384,-0.2075168,0.2863131
1.16436,0.05919315,0.1841943
1.114376,0.2051488,0.1117582
1.025838,0.1489557,0.1098745
0.891722,0.05285424,0.1380482
0.7782864,-0.1095234,0.1823164
0.6778943,-0.231279,0.2008909
0.6164737,-0.2127435,0.2198517
0.652229,-0.1918471,0.2511975
0.7052938,-0.146072,0.2243778
0.7330008,-0.08272791,0.1835863
0.7094138,-0.04861845,0.1606309
0.6468256,-0.01268795,0.1468815
0.6655792,-0.0289884,0.1541095
0.75445,-0.05036003,0.1297494
0.8724775,-0.04852946,0.08740349
0.9919223,-0.06769821,0.07750271
1.023151,-0.06460495,0.09260385
1.024883,-0.06733093,0.1163579
1.044792,-0.07449364,0.1416577
1.050935,-0.05668892,0.1763363
1.053913,-0.05250545,0.1800369
1.026534,-0.03153449,0.1737155
1.011172,-0.004922402,0.2083033
1.031291,-0.0180052,0.1896764
1.068707,-0.05168787,0.1043761
1.180523,-0.1272961,0.009708458
1.321373,-0.229561,-0.07265013
1.385207,-0.2476035,-0.05485433
1.32649,-0.1483514,0.04341723
1.265802,0.002729378,0.1337611
1.317284,0.14766,0.1508581
1.333179,0.1950629,0.08557146
1.317706,0.1430128,0.05394196
1.347354,0.1035525,0.02436158
1.295679,0.03157669,-0.009925308
1.189733,-0.06366478,0.02695344
1.08895,-0.05988027,0.02305725
0.9794029,-0.03686582,-0.0001916795
0.9181487,-0.03394525,-0.0009266789
0.8898199,-0.004442673,-0.03186639
0.8765914,0.01897797,-0.04765923
0.889399,0.05718043,-0.08604708
0.8862117,0.0759371,-0.1147552
0.8532951,0.04129972,-0.09012819
0.8262239,0.03033452,-0.07670489
0.8510718,0.03462862,-0.03138367
0.8971463,0.03020328,0.02734898
0.9054458,0.04342611,0.04660829
0.8993299,0.07250859,0.04477028
0.8976303,0.1168926,0.01783893
0.8795849,0.1367235,-0.009226686
0.8209548,0.1143613,-0.0198505
0.7592912,0.09759391,-0.007526077
0.785843,0.08370718,0.04352233
0.8715374,0.06050362,0.1023911
0.942601,0.0284326,0.1148017
0.9824806,-0.01649934,0.1192124
0.9740388,-0.0313261,0.1708145
0.9786376,-0.03101702,0.1837709
1.022539,-0.08875337,0.1647782
1.051393,-0.2019861,0.1653514
1.091555,-0.3179907,0.09386877
1.199572,-0.3763867,-0.0162659
1.429754,-0.3896945,-0.05089108
1.653307,-0.4202346,0.006967762
1.656519,-0.4210257,0.08762992
1.540588,-0.3464765,0.1179875
1.416018,-0.2265346,0.1283856
1.263851,-0.05644137,0.1226025
1.153976,0.1087119,0.1177532
1.124155,0.1152896,0.1288501
1.135715,-0.03701329,0.1061068
1.09257,-0.1607853,0.09682832
0.9959378,-0.2080657,0.1035126
0.9119214,-0.2432934,0.1011467
0.8477457,-0.2331102,0.1127549
0.8699549,-0.2044314,0.1071991
0.8948442,-0.2116532,0.1067461
0.8613954,-0.2076956,0.1161843
0.8818609,-0.1937954,0.1280856
0.8793697,-0.2009084,0.15865
0.8363462,-0.2011613,0.1697372
0.8149967,-0.1908476,0.1811455
0.7866861,-0.182263,0.1873877
0.7951165,-0.1418957,0.1662251
0.7960503,-0.06609551,0.155987
0.7772104,-0.01214233,0.1355226
0.7827708,-0.009437187,0.1218406
0.7537628,-0.02236617,0.1380212
0.7371446,-0.01932975,0.1333722
0.7438036,-0.01654846,0.1161886
0.7428014,-0.007907637,0.09688294
0.7970521,0.01569016,0.07594354
0.8593906,0.02612319,0.08470909
0.8953998,0.01648185,0.1108935
0.9637849,-0.01381541,0.1419347
1.046018,-0.05664869,0.1580408
1.090766,-0.08491421,0.1444726
1.136489,-0.1025031,0.1457187
1.200418,-0.1368935,0.1529516
1.201962,-0.1869998,0.1438828
1.187151,-0.2248483,0.1238167
1.182616,-0.2630593,0.04834383
1.164669,-0.3192289,-0.03143549
1.298718,-0.3089521,-0.02619768
1.522461,-0.147643,-0.0318532
1.549666,0.04116846,-0.06025753
1.357449,0.08638402,0.06744019
1.180459,0.08064042,0.2467806
1.198406,0.1252845,0.2312065
1.224484,0.08900889,0.1218359
1.132028,0.002201673,0.04844343
1.058898,0.008592605,-0.008999475
0.9623719,0.005627761,-0.02267454
0.8671357,-0.008197442,-0.02771376
0.8558036,0.04133054,-0.03894833
0.8357026,0.04986278,-0.02637926
0.8307878,0.05973852,-0.03073198
0.8528359,0.09069778,-0.03316546
0.8633781,0.0717479,-0.02574764
0.8856494,0.06716419,-0.02581375
0.8709775,0.04202915,0.004339161
0.826777,-0.008903571,0.03443697
0.8014006,-0.01274197,0.0308465
0.8284477,-0.002840854,0.02558961
0.8987274,0.009474948,0.03756435
0.8997419,0.01875573,0.05520713
0.8482542,0.02497809,0.0701625
0.8180775,0.03377521,0.08802761
0.8221035,0.05274046,0.08396909
0.8733131,0.09774412,0.07082913
0.9339831,0.1040437,0.08032546
1.015761,0.06642592,0.08509823
1.082689,0.02389506,0.09136229
1.08799,-0.03774154,0.09120747
1.099957,-0.1142074,0.04046713
1.112707,-0.2369553,-0.02787156
1.171504,-0.3804279,-0.02895864
1.336516,-0.4578724,0.07892282
1.515915,-0.5286524,0.2361864
1.58882,-0.6017269,0.3192869
1.480096,-0.4918616,0.2754075
1.365731,-0.2628267,0.2249828
1.384413,-0.1573177,0.2283578
1.312469,-0.02897612,0.1888134
1.140562,0.1764354,0.1594837
1.066197,0.1316919,0.1845507
0.9544733,-0.07541464,0.2023635
0.7468909,-0.1797296,0.2290915
0.7033852,-0.2427175,0.225925
0.7411091,-0.2297059,0.2102362
0.6595988,-0.1742367,0.2223714
0.6656983,-0.1803684,0.2040731
0.7031346,-0.1103591,0.1785325
0.5967772,-0.01244846,0.1420993
0.550464,0.01353816,0.11271
0.5648257,0.01178517,0.143269
0.6054328,-0.04769573,0.1623453
0.7255569,-0.1085333,0.1597134
0.8140345,-0.1340922,0.1497565
0.9196023,-0.08886149,0.1188447
1.030424,-0.007682181,0.1180594
1.066313,-0.03427412,0.1418107
1.073041,-0.0604028,0.1682521
1.059273,-0.05836784,0.1905796
1.07798,-0.07035989,0.1702323
1.098795,-0.04422647,0.1419759
1.106224,-0.05894193,0.1288613
1.140011,-0.07388358,0.09017333
1.161265,-0.1008465,0.06875972
1.23352,-0.2116088,0.08281845
1.332212,-0.2818243,0.08540539
1.378584,-0.248738,0.09580408
1.380554,-0.08474144,0.09789886
1.326102,0.1511975,0.0754941
1.271481,0.2616879,0.06184332
1.240145,0.2059754,0.03457325
1.228131,0.08575116,0.01287368
1.201234,-0.08114737,0.007290484
1.125294,-0.2484451,-0.004498818
1.093403,-0.2538801,0.003958368
1.04526,-0.1494343,-0.01162771
0.9317833,-0.03733672,-0.04296249
0.8588333,0.08350674,-0.03795186
0.7948862,0.1169825,-0.04204719
0.770953,0.113273,-0.04996348
0.8267842,0.1019894,-0.05469273
0.850886,0.04107038,-0.04668894
0.828821,0.02547154,0.0004878193
0.8031416,0.02261613,0.03977371
0.7965959,0.02765194,0.05582755
0.8248588,0.05927362,0.04146054
0.8495838,0.05292595,0.03150094
0.8328679,0.05695329,0.08241583
0.8169482,0.05854532,0.1384467
0.8590855,0.03491549,0.1529718
0.8885224,0.02032259,0.1063154
0.8650925,0.008981585,0.04110898
0.8686613,0.007376455,0.02431818
0.9311909,-0.03240663,0.003373045
1.036036,-0.1340982,-0.03105526
1.121939,-0.2893361,-0.05546865
1.19259,-0.4764871,-0.06045373
1.367473,-0.5793295,0.02401243
1.588346,-0.5770046,0.1618296
1.64464,-0.5335722,0.2256334
1.524677,-0.4318736,0.2076641
1.376679,-0.2682562,0.2084351
1.267955,-0.128478,0.2360771
1.209497,-0.05997722,0.2243873
1.150607,0.02389044,0.2079321
1.059089,0.09109093,0.1926327
1.023686,0.01949876,0.160116
0.9604208,-0.08337764,0.1646077
0.7954256,-0.1511236,0.1766604
0.6933709,-0.1894387,0.1665619
0.6687322,-0.1280652,0.1548202
0.6682327,-0.08688596,0.1322366
0.6747008,-0.08479921,0.138363
0.6594354,-0.04131471,0.174853
0.6939741,-0.04996867,0.1994643
0.7729794,-0.06108713,0.2079213
0.8815133,-0.06326414,0.1831487
0.9848995,-0.09602304,0.1474687
1.008575,-0.1035863,0.1344044
1.037567,-0.1391439,0.1505474
1.053213,-0.1447954,0.1928006
1.024532,-0.08892262,0.2285901
1.019283,-0.05345086,0.2716891
0.9868882,-0.03554775,0.2949709
0.9602063,-0.07649407,0.2319301
0.9757294,-0.1380793,0.1264016
1.007313,-0.169024,0.01069658
1.104924,-0.2110302,-0.09096056
1.305515,-0.3059097,-0.1503409
1.571081,-0.4096057,-0.2002821
1.645075,-0.3295379,-0.1921932
1.449037,-0.1779407,-0.08243853
1.278573,-0.1181491,0.07191547
1.169354,0.02510609,0.1804804
1.093875,0.1389287,0.1585012
1.126339,0.110334,0.08354715
1.129516,0.09706901,0.03287082
1.1086,0.08113366,-0.04178791
1.096499,0.113179,-0.09546578
1.01105,0.1755262,-0.1051021
0.9581534,0.1365315,-0.08176603
0.9573146,0.1003995,-0.03489928
0.9513947,0.06736219,-0.05292188
0.952131,0.009185235,-0.08034859
0.9122795,-0.003388957,-0.07547708
0.8560333,-0.03580107,-0.0860838
0.8412219,-0.06893285,-0.0449766
0.8837258,-0.06058141,0.01180295
0.9260864,-0.05401756,0.02451815
0.90495,-0.03156983,0.01313012
0.9027444,-0.009293747,-0.008650834
0.9297031,0.01381989,0.0056698
0.9315133,0.05066724,0.008652485
0.9220879,0.04412868,-0.001061644
0.8722494,0.02425095,0.03465445
0.8009975,0.03538203,0.08698472
0.7846442,0.03988444,0.1439068
0.8184656,0.06662942,0.1516459
0.8585571,0.1359681,0.1422085
0.9180047,0.1979711,0.1599065
0.9844581,0.2572125,0.1122844
0.9799011,0.277682,0.06511724
0.9390923,0.1897429,0.07074611
0.9348584,0.02490232,0.08967023
0.9707773,-0.1541679,0.1463893
1.076986,-0.2427762,0.1554433
1.248507,-0.2150318,0.07258148
1.425567,-0.2256293,-0.02899978
1.521406,-0.334567,-0.06476917
1.528852,-0.5066843,0.01513967
1.54453,-0.6922108,0.1433454
1.499229,-0.7204152,0.2667364
1.318124,-0.4806627,0.3100999
1.150347,-0.1501729,0.2793274
1.117543,-0.03095678,0.2782721
1.13564,-0.05992921,0.2192754
1.0755,-0.01935618,0.1470797
1.017694,-0.04513341,0.1573181
0.9756679,-0.1247531,0.1459263
0.8637001,-0.1182631,0.1564891
0.8138597,-0.1378923,0.1836209
0.8076471,-0.1417227,0.1756964
0.7782718,-0.116758,0.1908262
0.7914754,-0.1409744,0.1953656
0.7684133,-0.1291783,0.2163327
0.7415903,-0.1066032,0.2540594
0.7489379,-0.08267534,0.2483049
0.7417861,-0.03788997,0.228953
0.7452277,-0.02709376,0.1990832
0.6969319,-0.004658057,0.174936
0.6444104,0.01970081,0.1533174
0.6708786,0.0051854,0.1469642
0.7176321,-0.02835245,0.1753133
0.7737588,-0.05726606,0.1778863
0.822638,-0.0521771,0.1867043
0.9014007,-0.06700224,0.1896086
1.070475,-0.1137016,0.1507317
1.173579,-0.1221379,0.145331
1.114739,-0.1086387,0.1502917
1.097886,-0.1132532,0.1472758
1.150097,-0.1232023,0.1340183
1.141318,-0.1273412,0.06558386
1.175333,-0.1401145,-0.01217278
1.224941,-0.165229,-0.07361646
1.247355,-0.1922946,-0.09712741
1.308616,-0.1974908,-0.01178099
1.292563,-0.1549138,0.1306504
1.29713,-0.04279097,0.1612585
1.377275,0.1380232,0.08337519
1.362916,0.2443034,0.04966899
1.341922,0.201495,0.03557493
1.32117,0.1577285,0.01332636
1.242198,0.09319261,0.02799818
1.153451,-0.05249067,0.03800157
1.017363,-0.09327375,0.04782758
0.9170115,-0.04412763,0.04101701
0.8982333,-0.049483,-0.0005284918
0.8782299,0.006549043,-0.0372151
0.8627785,0.1043815,-0.0600096
0.8501421,0.09322634,-0.0426155
0.8360868,0.06720737,-0.01699818
0.8330725,0.07024168,0.0008805577
0.8317057,0.03314346,0.03076247
0.8271191,0.01061258,0.02698356
0.823017,0.01931564,0.02264913
0.835406,0.012923,0.02707183
0.8453977,0.01569052,0.01060676
0.8346488,0.03416819,0.0318986
0.8256384,0.04844953,0.07848284
0.8314564,0.05689689,0.1075823
0.8497895,0.04380705,0.1183319
0.866616,0.0282548,0.115699
0.8763282,0.01965644,0.1402134
0.9245543,-0.0005995543,0.1656996
1.041939,-0.01347829,0.1473881
1.135297,-0.04617375,0.1096057
1.144354,-0.1243339,0.06890751
1.166543,-0.2006944,0.05416792
1.235099,-0.2431587,0.05007786
1.331594,-0.3086581,0.04541767
1.495363,-0.4802904,0.1533323
1.593783,-0.5867371,0.3123757
1.484152,-0.4262201,0.3050393
1.359219,-0.1838065,0.2071722
1.32895,-0.002183949,0.170948
1.238548,0.153559,0.1550865
1.123575,0.169839,0.1626506
1.042632,0.05968866,0.1750606
0.9167518,-0.043222,0.1621367
0.7926717,-0.1338875,0.18994
0.702071,-0.1774356,0.2188725
0.6501576,-0.1785154,0.2263472
0.6608834,-0.17636,0.2436619
0.6769647,-0.1395292,0.2334207
0.6946641,-0.08962206,0.2084085
0.6963849,-0.04180959,0.1675173
0.6520144,-0.004485689,0.1218096
0.6310174,0.007165166,0.09977271
0.6822986,-0.006722405,0.08470892
0.7922586,-0.06009669,0.09368337
0.8804565,-0.07587042,0.0927516
0.92575,-0.03789535,0.08514129
0.9946277,-0.02082092,0.1062288
1.051076,-0.01434387,0.1197683
1.046206,-0.007154589,0.1458329
1.02705,0.007333937,0.1559972
1.026374,0.009680347,0.1260338
1.019861,-0.01111977,0.09578388
1.046455,-0.04313525,0.05119718
1.183286,-0.1267637,0.03254594
1.379491,-0.1896446,0.01934812
1.486288,-0.1487638,-0.02461236
1.431606,-0.01625368,-0.007592446
1.351092,0.2174174,0.03705525
1.323991,0.4261381,0.05326305
1.298437,0.4306314,0.07904759
1.331162,0.2694102,0.07764103
1.347976,0.0524275,0.06350948
1.280748,-0.1641445,0.07732481
1.209079,-0.2727528,0.07144147
1.095355,-0.243949,0.05817479
0.9806551,-0.1310814,0.04324782
0.870402,0.05813983,0.003876222
0.7746379,0.1764833,-0.0091046
0.8124362,0.1435091,-0.01281806
0.8399402,0.1219408,-0.05023975
0.8254594,0.1262996,-0.0754211
0.8604856,0.08882342,-0.04929205
0.8540027,0.06944702,0.009885992
0.8464186,0.07716983,0.05008334
0.8399204,0.08432944,0.05949024
0.8063973,0.1019078,0.05389517
0.8087146,0.1101354,0.04554417
0.7983492,0.1118196,0.04562756
0.7974098,0.1098865,0.05403008
0.8352211,0.06255208,0.1048505
0.850261,0.01628512,0.1578495
0.8470951,0.02195597,0.1412988
0.860931,0.01786821,0.1294101
0.9466434,-0.04533533,0.1598655
1.057986,-0.1151367,0.1686053
1.122362,-0.1282942,0.1526374
1.206862,-0.1408215,0.1289968
1.256896,-0.1588119,0.1003444
1.278553,-0.1612563,0.1089328
1.463545,-0.2804479,0.1506982
1.606994,-0.4438023,0.1952002
1.49514,-0.4413901,0.2586963
1.392774,-0.3596559,0.289923
1.338165,-0.2809289,0.2773835
1.232954,-0.1327748,0.2816901
1.171409,0.01247263,0.2679633
1.10233,0.05437888,0.2274264
1.034279,0.03400163,0.1815654
0.9571084,-0.01485683,0.1441657
0.7921901,-0.07743206,0.1549626
0.6970516,-0.1101823,0.1690202
0.6698037,-0.1306262,0.1807479
0.6222497,-0.1764161,0.2301909
0.636475,-0.203326,0.2624748
0.6672756,-0.1658843,0.2579297
0.6713724,-0.1090826,0.2177279
0.668933,-0.066896,0.1611371
0.6507141,-0.03197283,0.1646917
0.6565458,-0.01331059,0.1798867
0.7207756,-7.36286e-05,0.1511861
0.8685897,0.007568328,0.1259079
1.027486,0.02776685,0.08406009
1.066691,0.07685416,0.05438817
1.041034,0.1151763,0.08725325
1.034587,0.1361862,0.1224018
1.008299,0.109484,0.1675997
0.9915237,0.03600043,0.1888143
1.03806,-0.0340562,0.1030549
1.094684,-0.1064558,0.00306555
1.162545,-0.1693298,-0.04027555
1.293968,-0.2314207,-0.04578199
1.408269,-0.2314116,-0.03804506
1.433946,-0.1059905,-0.03695458
1.44485,0.05602136,0.01186511
1.406819,0.1819147,0.08974228
1.295209,0.167847,0.1305502
1.304033,0.08237549,0.1345316
1.350739,0.05764476,0.08888312
1.282052,-0.02318048,0.02640718
1.234194,-0.05874528,-0.01003033
1.12508,-0.002832232,-0.02306017
0.9624052,-0.01234523,-0.0185056
0.8988997,0.007103066,-0.01581964
0.8350278,0.02935445,-0.01619999
0.8236015,0.01941506,-0.01855945
0.8579345,0.05307311,-0.03180264
0.8383934,0.05597578,-0.03961783
0.8500006,0.05794121,-0.005795833
0.8562251,0.06774585,0.04136752
0.8587328,0.06253917,0.03422247
0.8718748,0.09189893,0.01803971
0.8451426,0.1118213,0.02678983
0.8391574,0.1223525,0.0208906
0.8426627,0.1377296,0.01994017
0.8501254,0.147019,0.02844709
0.873011,0.1414528,0.02914291
0.8933742,0.09469899,0.02919914
0.9276585,0.049782,0.02201035
0.9227897,0.03395235,0.01721141
0.9059788,0.04069944,0.02868689
0.9303559,0.02784877,0.06548498
0.9544021,-0.00875008,0.1115571
0.9795258,-0.006173023,0.1072403
0.9696014,-0.03202127,0.06233604
0.9549153,-0.1204092,0.02518153
1.061756,-0.236461,-0.003542209
1.218411,-0.3442437,-0.00722345
1.291155,-0.3387862,0.0005757926
1.338254,-0.3339539,0.01543942
1.462568,-0.4723118,0.1107126
1.568248,-0.5682229,0.2306649
1.524279,-0.4675382,0.246523
1.445054,-0.285886,0.2111518
1.362016,-0.1089837,0.2008846
1.221542,0.1347695,0.1669085
1.169125,0.2718404,0.1252115
1.112511,0.1738992,0.1297871
0.9329407,0.1246812,0.1286042
0.8382898,0.1002338,0.1265704
0.8113528,0.006797615,0.1534935
0.755405,-0.01067802,0.1637652
0.7357074,-0.09003359,0.1672404
0.7159225,-0.162724,0.1623753
0.6988239,-0.1128409,0.1376852
0.7092257,-0.114673,0.1082203
0.7046878,-0.06642895,0.07316697
0.6828511,0.0003195034,0.0741345
0.6470926,-0.02653107,0.09898958
0.6209745,-0.01053952,0.1239435
0.6467616,-0.009691073,0.1570178
0.753824,-0.02661324,0.1662471
0.9280621,-0.01533784,0.1815168
1.057684,-0.03931687,0.1913506
1.071765,-0.04911683,0.1652443
1.025944,-0.08262353,0.1678879
0.979367,-0.1883127,0.1894984
0.964554,-0.3292358,0.1990605
0.980945,-0.4639351,0.1965455
1.041262,-0.5110753,0.1789651
1.218985,-0.4895515,0.1723841
1.448404,-0.4731932,0.1433305
1.547492,-0.4665159,0.09214235
1.472284,-0.4163071,0.07591593
1.384927,-0.3368014,0.0841903
1.399614,-0.2333283,0.08057558
1.358288,-0.009883283,0.01000762
