accx,accy,accz
1.126807,-0.103637,-0.6586881
1.528011,-0.1029367,-0.7901135
1.874181,-0.08572955,-0.8737318
1.56604,-0.0316068,-0.5985181
1.087822,0.01521721,-0.154668
1.143177,-0.0319554,-0.1441876
1.012489,-0.1145076,-0.1386221
0.7681453,-0.1077629,-0.03615279
0.9998217,-0.06183745,-0.3135014
0.9587093,-0.02893229,-0.3877766
0.8205262,-0.001002771,-0.2823097
0.9212063,-0.02130857,-0.3588461
0.8022039,-0.0492836,-0.2408456
0.8830719,-0.06678774,-0.2274758
0.9860862,-0.08955182,-0.3059
0.8608383,-0.06804268,-0.24627
0.8734574,-0.0532834,-0.2888799
0.7628275,-0.04860721,-0.2115869
0.7270758,-0.01723601,-0.1292692
0.8516371,-0.01510341,-0.1654438
0.8846347,-0.01231057,-0.1801973
0.9555347,-0.004499035,-0.2832837
0.8989293,-0.01819152,-0.3031607
0.8507192,-0.02666674,-0.2699734
0.9199002,-0.05762115,-0.2757887
0.9068266,-0.08908737,-0.2557784
0.9057301,-0.08059215,-0.2592374
0.881261,-0.04177947,-0.1955246
0.8523205,0.01471552,-0.1455996
0.8592436,0.02853579,-0.1501806
0.8484168,-0.01483296,-0.1657205
0.8900553,-0.08236535,-0.2688801
0.9918563,-0.195617,-0.4160814
1.186778,-0.3361571,-0.549093
1.405731,-0.4241089,-0.5678398
1.519786,-0.4348894,-0.5405124
1.565846,-0.4004923,-0.5008311
1.570699,-0.3102146,-0.337459
1.478512,-0.1462586,-0.2739861
1.247892,-0.0163964,-0.31899
1.01858,-0.008571654,-0.2752296
0.8935575,-0.03202547,-0.225803
0.800078,-0.05270612,-0.207514
0.7416165,-0.1139327,-0.2020645
0.7411648,-0.1632944,-0.1955508
0.7776117,-0.197626,-0.1954331
0.8273058,-0.2291613,-0.222897
0.8795077,-0.2130957,-0.2257475
0.9005009,-0.1702123,-0.2142735
0.8504361,-0.1051717,-0.1936041
0.8034633,-0.03806029,-0.1534027
0.7930465,-0.03354169,-0.1260814
0.7829577,-0.05531754,-0.1173958
0.7652574,-0.0737033,-0.1305284
0.7522139,-0.1161089,-0.1380403
0.8108574,-0.1617642,-0.1407572
0.9161198,-0.1803509,-0.1887258
0.9662559,-0.1683708,-0.2547055
0.9518627,-0.1434056,-0.267313
0.9576066,-0.1255349,-0.2331427
1.015774,-0.1224397,-0.2172541
1.015957,-0.1198007,-0.2089693
0.9709945,-0.1020861,-0.1848119
0.9521713,-0.1061321,-0.1776204
0.9281171,-0.1196986,-0.2025599
0.9720648,-0.09660976,-0.3006862
1.137198,-0.07074623,-0.4781477
1.380264,-0.0507128,-0.6556584
1.553245,-0.04011637,-0.7278807
1.497817,-0.03950433,-0.6025809
1.326364,-0.02325783,-0.375498
1.176229,-0.04859744,-0.2332254
1.153606,-0.1078616,-0.2261922
1.220565,-0.1379786,-0.3316946
1.127379,-0.137645,-0.4045876
0.9695667,-0.09299395,-0.3125681
0.8340556,-0.04968399,-0.1945639
0.7005475,-0.04171628,-0.1770295
0.7343644,-0.04619569,-0.2092265
0.803819,-0.06099086,-0.2588845
0.8493303,-0.06250007,-0.3002677
0.895792,-0.05539685,-0.2946098
0.8208368,-0.03460462,-0.2429877
0.7933227,-0.009397954,-0.190415
0.800863,-0.01816449,-0.1704924
0.7568083,-0.01930628,-0.1493477
0.7770531,-0.01718221,-0.149741
0.7826362,-0.02860535,-0.1901598
0.7872485,-0.01739359,-0.1923701
0.8442291,-0.005056183,-0.1939483
0.9192775,-0.008865396,-0.2448378
0.997252,-0.02657397,-0.2766685
1.002765,-0.04709731,-0.2704822
0.9563079,-0.0442888,-0.233909
0.8985498,-0.04256202,-0.2082768
0.8776888,-0.07373152,-0.245422
0.9171183,-0.1242357,-0.3300994
0.9731633,-0.18479,-0.4551473
1.116059,-0.267855,-0.5571316
1.309072,-0.3447151,-0.5834428
1.439131,-0.3683163,-0.5895041
1.487386,-0.3535217,-0.5643708
1.445743,-0.3135022,-0.4514661
1.371788,-0.2278324,-0.3113922
1.268584,-0.1432515,-0.2788489
1.133629,-0.09172939,-0.3368052
1.027603,-0.03205249,-0.344416
0.9531763,-0.02451711,-0.3187758
0.9105459,-0.08791288,-0.3046451
0.8504964,-0.1141771,-0.258459
0.8006146,-0.1253148,-0.2239538
0.8049444,-0.1419818,-0.20747
0.7791613,-0.128523,-0.1791401
0.7943342,-0.1226474,-0.182176
0.8282871,-0.11093,-0.1775919
0.7876432,-0.09682372,-0.1515628
0.7824411,-0.09941724,-0.1430968
0.769757,-0.1032634,-0.1297727
0.7453992,-0.1260619,-0.1452559
0.7837936,-0.1335433,-0.1757701
0.8268251,-0.141655,-0.1889209
0.8992479,-0.1783402,-0.2373035
0.9572466,-0.184435,-0.2698707
0.9592629,-0.1777652,-0.2529505
0.9574407,-0.153759,-0.2388777
0.944571,-0.1036025,-0.2100828
0.9445213,-0.08866994,-0.1778417
0.9304434,-0.08324681,-0.18455
0.889841,-0.07068404,-0.2018323
0.8932344,-0.07248687,-0.2294227
0.9952406,-0.06525048,-0.3469509
1.209158,-0.06428413,-0.546117
1.417697,-0.1043399,-0.6800924
1.553189,-0.126136,-0.6582258
1.608688,-0.03403092,-0.5577563
1.515909,0.07672505,-0.4908259
1.35643,0.04889125,-0.4469291
1.211267,-0.0390168,-0.3696478
1.017495,-0.1060016,-0.2288476
0.8391337,-0.1556058,-0.09506081
0.7982879,-0.1042652,-0.1237454
0.8096328,-0.01637609,-0.2384273
0.7863461,-0.002590198,-0.2907134
0.8590484,-0.0008655853,-0.3064036
0.9882287,-0.004984719,-0.2919412
0.9684972,0.002333751,-0.2746346
0.8799386,0.02647226,-0.2479115
0.8340704,0.01469595,-0.1819311
0.8310939,0.03275387,-0.1629685
0.882789,0.07002284,-0.1986022
0.8835997,0.09573021,-0.257867
0.7973388,0.1322129,-0.2893904
0.6905845,0.1196107,-0.2079287
0.6402393,0.07176877,-0.1079195
0.6965146,0.01537491,-0.09966463
0.7761436,-0.05197742,-0.1487532
0.8651748,-0.1041118,-0.1745871
0.9089396,-0.1122046,-0.1569019
0.8889843,-0.09319385,-0.1487958
0.9480643,-0.1399385,-0.1479728
0.9426052,-0.1636744,-0.1498851
0.8459296,-0.1188902,-0.194889
0.8357423,-0.1208387,-0.2940382
0.8961882,-0.1178647,-0.4048094
1.215946,-0.1990891,-0.5240682
1.711059,-0.3953616,-0.7219334
1.835469,-0.4477095,-0.809837
1.62179,-0.3361117,-0.6289064
1.489223,-0.204376,-0.4676879
1.367736,-0.1075314,-0.3694108
1.117186,-0.0262827,-0.2199648
1.01546,-0.005531111,-0.2248173
1.042728,-0.07613263,-0.2837989
0.9863079,-0.09211715,-0.2412142
0.9683607,-0.0996848,-0.257445
0.9335656,-0.1513015,-0.2686162
0.8542012,-0.1468698,-0.2322882
0.830462,-0.1372894,-0.2260264
0.7784339,-0.1071639,-0.1919978
0.7560427,-0.05975625,-0.1762365
0.7729032,-0.05712557,-0.1893609
0.7787575,-0.06937403,-0.1871735
0.820869,-0.102257,-0.2061026
0.8261136,-0.1207371,-0.1982497
0.7957151,-0.1356484,-0.163357
0.7930857,-0.1728367,-0.1407042
0.8416211,-0.2009589,-0.1236698
0.9435553,-0.2379076,-0.1445194
1.004645,-0.2426096,-0.1763049
1.005847,-0.2176335,-0.2001138
0.9989173,-0.1985605,-0.2090409
0.9914899,-0.1662305,-0.1688083
0.9644696,-0.1369695,-0.1369517
0.8917108,-0.1050814,-0.1316944
0.7865628,-0.07665933,-0.1402383
0.6695727,-0.03225511,-0.1859163
0.625264,0.02748328,-0.2896768
0.7899386,0.02113329,-0.5037527
1.260669,-0.05335042,-0.7523121
1.866671,-0.2025826,-0.9411449
2.009004,-0.3119256,-1.00723
1.652258,-0.1614848,-0.7712857
1.343401,0.05593021,-0.3637447
1.006593,0.04206893,-0.1584354
0.795199,-0.1075924,-0.1847639
0.9644107,-0.2204554,-0.2253896
0.9474922,-0.1963142,-0.1937193
0.836821,-0.05042607,-0.1930626
0.8644337,0.06856371,-0.2179072
0.7395477,0.1180099,-0.2062451
0.7622155,0.06213469,-0.2344102
0.8843905,-0.03787928,-0.2592497
0.8968013,-0.05467356,-0.2474135
0.9792075,-0.07437579,-0.2483165
0.9593202,-0.07155059,-0.2329973
0.9241973,-0.04698434,-0.2295031
0.9274169,-0.07486533,-0.2093633
0.8310857,-0.05314301,-0.1573096
0.8256522,-0.03675303,-0.1446929
0.8427611,-0.01734932,-0.1490366
0.8202863,0.04267621,-0.1862453
0.8050486,0.02804307,-0.2416971
0.7461839,0.0150324,-0.2405632
0.7628932,0.01365807,-0.2150592
0.8515466,-0.0177297,-0.1795882
0.9326287,-0.03602338,-0.133091
0.9504377,-0.05051697,-0.1345757
0.9194351,-0.03094844,-0.1412526
0.9541386,-0.008966106,-0.07366489
0.9544769,0.01748198,-0.03334619
0.9071531,0.0526684,-0.06693736
0.8737457,0.02582602,-0.1334783
0.8216176,-0.005498955,-0.3360056
0.935216,-0.08250467,-0.6350204
1.292584,-0.3100724,-0.8436452
1.650355,-0.5526431,-0.9126457
1.694512,-0.5906646,-0.8477915
1.475577,-0.4017491,-0.6762165
1.410118,-0.2060708,-0.5317483
1.438606,-0.1491275,-0.5572578
1.31023,-0.1554811,-0.586854
1.112099,-0.1249489,-0.4032783
0.8773917,-0.06141602,-0.1959794
0.6933533,-0.04661471,-0.115108
0.6031035,-0.08561372,-0.1070008
0.5673965,-0.1309162,-0.1488522
0.6611006,-0.1693101,-0.17566
0.8259286,-0.1853796,-0.2376298
0.9833523,-0.187802,-0.3433122
1.014804,-0.1703459,-0.3463617
0.9169079,-0.1162192,-0.2715763
0.9107048,-0.07298109,-0.2060508
0.9323976,-0.07679804,-0.1882331
0.9192769,-0.0868694,-0.1988385
0.9253721,-0.07047766,-0.1874586
0.8610569,-0.06241801,-0.1750857
0.7491818,-0.07972524,-0.1226681
0.6577921,-0.123981,-0.06427989
0.6405291,-0.1887243,-0.09575073
0.6889653,-0.200728,-0.1482106
0.7609192,-0.1752266,-0.1950358
0.9095034,-0.1773638,-0.2628042
0.9851645,-0.1532266,-0.2827078
0.9119696,-0.1066683,-0.2332601
0.8974636,-0.0826257,-0.1814931
0.9275357,-0.05766209,-0.1705578
0.9089084,-0.05458176,-0.1977486
0.8973481,-0.06901781,-0.23389
0.9122129,-0.06591324,-0.2822247
1.033018,-0.06005306,-0.4299595
1.355008,-0.06299804,-0.7012669
1.727367,-0.1109465,-0.9234512
1.857642,-0.1494736,-0.8975215
1.649649,-0.05757716,-0.6454094
1.302872,0.04140333,-0.3178055
1.024883,-0.003367009,-0.07698224
0.8906326,-0.07410207,-0.06984713
0.9097999,-0.1235241,-0.1706862
0.9108804,-0.1845211,-0.214791
0.8349612,-0.1355933,-0.2563407
0.8167397,-0.03075549,-0.264546
0.7938447,0.00404777,-0.2558784
0.8046386,0.02982385,-0.284984
0.9011867,0.02680684,-0.2977765
0.9390683,0.01407416,-0.3152771
0.9683123,0.01656531,-0.2982018
0.9931715,-0.01322712,-0.2541143
0.9274401,0.003757432,-0.2366998
0.8266043,0.02056672,-0.1800658
0.7693092,-0.00482555,-0.1610997
0.7784935,0.0002570282,-0.1888377
0.7649594,-0.005045287,-0.1621864
0.7419968,0.005925783,-0.1525808
0.7397663,0.03190665,-0.1656353
0.7277961,0.02396833,-0.1635595
0.7564595,0.01007355,-0.1775417
0.7873747,-0.02112925,-0.1847256
0.8515888,-0.04115293,-0.1831956
0.9221385,-0.03821582,-0.1951722
0.8905493,-0.0385252,-0.214947
0.9104287,-0.04032402,-0.2539211
1.050852,-0.08104369,-0.347578
1.275591,-0.1804853,-0.4951145
1.551426,-0.3268438,-0.6495049
1.682697,-0.4206391,-0.7349748
1.57165,-0.3609602,-0.6099436
1.420776,-0.2622426,-0.3711818
1.423906,-0.2098275,-0.3330296
1.366545,-0.143985,-0.3968505
1.176602,-0.1038754,-0.3675351
1.073447,-0.1092094,-0.3347567
0.9459655,-0.1033564,-0.2739095
0.8086577,-0.1102506,-0.2044873
0.7816171,-0.1201197,-0.1970129
0.7731232,-0.1201919,-0.197133
0.8198232,-0.1334877,-0.2303168
0.8542605,-0.1310095,-0.262033
0.8317493,-0.1229949,-0.2458258
0.8313209,-0.1031571,-0.2270996
0.8110041,-0.06772635,-0.1888805
0.7980337,-0.06142368,-0.1366973
0.8085054,-0.06674929,-0.1182937
0.8190871,-0.07587686,-0.1305155
0.8089051,-0.09563974,-0.1162495
0.7708983,-0.1193604,-0.09497169
0.7609496,-0.1381487,-0.1227745
0.7854679,-0.1423532,-0.1612371
0.8776769,-0.1692131,-0.205378
0.9855326,-0.2206186,-0.2313876
1.003931,-0.2458005,-0.2071615
0.9906913,-0.2013854,-0.1981013
0.9907309,-0.121842,-0.2061006
0.9667471,-0.08582025,-0.2026353
0.892237,-0.07074979,-0.204019
0.8356701,-0.06247128,-0.2099205
0.8505789,-0.05687486,-0.2475615
0.9335493,-0.02026464,-0.3632419
1.134559,-0.02007699,-0.541573
1.449177,-0.08683176,-0.7345923
1.775148,-0.1413259,-0.8599046
1.809061,-0.1102509,-0.765464
1.467166,-0.01403987,-0.5131231
1.203037,0.02741791,-0.3454699
1.141445,-0.03862104,-0.2686773
1.069585,-0.110649,-0.2408953
1.015569,-0.06267989,-0.278082
0.995505,0.001238773,-0.3008542
0.9449974,-0.02252566,-0.2848624
0.8588868,-0.005437282,-0.2415721
0.8050772,0.006874902,-0.199271
0.804038,-0.02075103,-0.1871854
0.8070381,-3.79127e-05,-0.2014109
0.8212032,-0.01453417,-0.2332197
0.8550003,-0.02924547,-0.2294208
0.9153668,-0.01553255,-0.2220917
0.9370933,-0.01880538,-0.2152263
0.893668,0.02711251,-0.1743199
0.8559415,0.06729772,-0.1630298
0.7796916,0.08414682,-0.1451864
0.703961,0.1039853,-0.1046316
0.6911147,0.09654564,-0.0843648
0.6818414,0.09656791,-0.08344675
0.7388147,0.07605956,-0.1038364
0.9333609,0.0262359,-0.1082618
1.145742,-0.01959213,-0.1161323
1.155943,-0.04084608,-0.1009312
0.99019,-0.03461063,-0.01286413
0.8748244,-0.07054287,0.04830177
0.8102046,-0.1161567,-0.01297455
0.7771571,-0.1399756,-0.2226126
0.8635448,-0.2071305,-0.4896188
1.148231,-0.3715263,-0.720299
1.550126,-0.5692308,-0.8713386
1.643601,-0.5503655,-0.849388
1.511455,-0.3973731,-0.7580298
1.597947,-0.2177345,-0.6818476
1.624015,0.1480977,-0.5481194
1.469575,0.2417259,-0.5435189
1.337635,0.004932766,-0.6068607
1.121623,-0.01733537,-0.4170473
0.9440017,-0.1460242,-0.2110019
0.8612677,-0.3329996,-0.1631648
0.8186927,-0.2498226,-0.1605679
0.8585123,-0.2739698,-0.2285758
0.8381448,-0.2505963,-0.2388849
0.8402682,-0.1140875,-0.2326935
0.8674279,-0.1336067,-0.2617354
0.8174092,-0.1360751,-0.2234348
0.8286325,-0.1393419,-0.2278981
0.8206542,-0.1375148,-0.2038815
0.816597,-0.100708,-0.1706807
0.8671913,-0.1108191,-0.2050791
0.8600131,-0.08482412,-0.1806537
0.8740743,-0.08541915,-0.1723025
0.8600964,-0.1005795,-0.1471782
0.8141327,-0.09839406,-0.102133
0.8157111,-0.1239102,-0.1228588
0.818129,-0.1195302,-0.1303994
0.8564091,-0.1339521,-0.1557417
0.8813671,-0.145347,-0.1685343
0.8884275,-0.133183,-0.1526893
0.9114276,-0.1413055,-0.1419663
0.9051991,-0.1329582,-0.09868119
0.9134661,-0.1560708,-0.08249341
0.9081993,-0.1984803,-0.05587933
0.8887434,-0.2029442,-0.02271005
0.8505532,-0.1745155,-0.06644628
0.7597519,-0.1272479,-0.1087379
0.8049553,-0.1164628,-0.1798817
1.074525,-0.1106872,-0.3957105
1.382563,-0.1058544,-0.6736038
1.599922,-0.189615,-0.8894026
1.788793,-0.2502069,-1.015399
1.787405,-0.1028864,-0.8085554
1.473053,0.06457603,-0.3425615
1.277129,-0.01284206,-0.3038902
1.225467,-0.13794,-0.442926
1.096369,-0.1775506,-0.2652952
0.9899292,-0.2180815,-0.2342802
0.8124647,-0.1571194,-0.237363
0.7304089,-0.07597684,-0.1319762
0.7644989,-0.04445262,-0.1928223
0.7273235,0.0242351,-0.1962669
0.7951302,0.01993348,-0.220321
0.8214659,0.008120675,-0.2587435
0.8272703,0.03284059,-0.1760302
0.8818745,0.002749631,-0.1647923
0.8195106,0.003715434,-0.1071248
0.8299483,-0.002403993,-0.06953295
0.8324209,-0.01139248,-0.1074678
0.799068,0.02009982,-0.09361407
0.8301034,0.03399686,-0.1281157
0.8082019,0.08969457,-0.1393714
0.8400968,0.121803,-0.1575472
0.8822594,0.07007216,-0.211351
0.9261174,0.02748994,-0.2010437
0.986987,0.02103042,-0.1894908
0.9445103,0.03197777,-0.1636757
0.9334029,0.00493424,-0.1674031
0.8903671,-0.04856591,-0.2097365
0.7642118,-0.1009186,-0.2396769
0.7521672,-0.1574155,-0.311023
0.9167028,-0.200993,-0.3855252
1.254582,-0.2703075,-0.5040371
1.59571,-0.3402325,-0.670347
1.766719,-0.3658357,-0.7145054
1.753317,-0.3352862,-0.6079199
1.596281,-0.2326227,-0.4374223
1.386647,-0.1119179,-0.2820467
1.162011,-0.007314801,-0.2155266
1.022291,0.01427281,-0.237675
0.9685436,-0.04592722,-0.2307986
0.8504739,-0.0796232,-0.1938079
0.7359094,-0.1172912,-0.197906
0.7304227,-0.1434601,-0.1721014
0.7766992,-0.1479178,-0.1830014
0.7867001,-0.1871106,-0.2379507
0.7764172,-0.1731745,-0.2077427
0.7872715,-0.1286946,-0.1814602
0.7788418,-0.1124256,-0.1627806
0.7940686,-0.08979974,-0.1297855
0.8273944,-0.1037607,-0.1303412
0.8316185,-0.1172126,-0.09860295
0.8645517,-0.1185836,-0.0992998
0.9038903,-0.1472195,-0.1448283
0.9333889,-0.1479467,-0.1726374
0.9432564,-0.1541868,-0.2093815
0.9124495,-0.1711162,-0.1852553
0.8907391,-0.1575407,-0.1415132
0.8597775,-0.1549353,-0.149097
0.8326793,-0.1338022,-0.1522515
0.8394375,-0.09699455,-0.1670076
0.8337324,-0.0952055,-0.1671576
0.8034841,-0.08770699,-0.1600079
0.7502107,-0.06351894,-0.197055
0.7746652,-0.05693169,-0.2453787
1.085004,-0.07442974,-0.4057676
1.610476,-0.1110228,-0.712341
1.88535,-0.1353028,-0.840145
1.77509,-0.06420641,-0.6016541
1.638461,0.07854941,-0.3754261
1.502425,0.1035082,-0.4165804
1.307542,-0.02738946,-0.414881
1.173018,-0.1424019,-0.2623579
0.9855458,-0.1304382,-0.1498799
0.8426917,-0.06391,-0.1376217
0.8101019,-0.03821152,-0.1879328
0.7295401,-0.01629553,-0.1897711
0.7728624,-0.01410167,-0.1992964
0.8468792,-0.03213331,-0.2446165
0.8371242,-0.009275627,-0.2044422
0.918176,-0.015095,-0.1913885
0.9260882,-0.02704276,-0.2104086
0.9065377,-0.02284155,-0.1888506
0.9141813,-0.06052034,-0.1870182
0.8172734,-0.06240008,-0.1443032
0.7905183,-0.03715192,-0.1091955
0.7797887,-0.01433955,-0.1345158
0.7593591,0.02341691,-0.1530332
0.8217221,0.03068438,-0.1709913
0.8491476,0.0428139,-0.1575339
0.8777093,0.05998681,-0.1362972
0.8911227,0.06569216,-0.1452609
0.8957854,0.07458752,-0.1442259
0.9271852,0.02692903,-0.1532762
0.9172707,-0.05043499,-0.172129
0.9242823,-0.07262439,-0.1673446
0.8514575,-0.06541018,-0.1663205
0.7067231,-0.1083239,-0.2156291
0.7162813,-0.1850946,-0.3124619
0.9372003,-0.2474819,-0.4120833
1.363784,-0.3170076,-0.5062974
1.738465,-0.3334362,-0.6408189
1.787168,-0.2564776,-0.7042504
1.690348,-0.1863095,-0.5264809
1.623321,-0.1497202,-0.3233442
1.460005,-0.08345715,-0.2839576
1.221355,-0.01307752,-0.2483053
1.112008,-0.02152486,-0.2072097
1.004284,-0.04007448,-0.197327
0.8466037,-0.01138219,-0.1799079
0.8244551,-0.03342627,-0.1827061
0.7761318,-0.08045332,-0.1609634
0.7250717,-0.1169535,-0.1423074
0.7914757,-0.1559765,-0.1729402
0.7760312,-0.1328677,-0.1805958
0.7752331,-0.1060236,-0.1674456
0.8096089,-0.08392313,-0.1559576
0.7670292,-0.03002117,-0.1396035
0.7709452,-0.04301672,-0.1211527
0.7406405,-0.08478349,-0.09688145
0.6972492,-0.1168275,-0.08852748
0.7512369,-0.162679,-0.0952791
0.8311977,-0.167992,-0.1307734
0.9478919,-0.1694038,-0.2211956
0.9830235,-0.1715736,-0.2831153
0.9073683,-0.1431988,-0.2373193
0.870214,-0.1219056,-0.1735462
0.8399872,-0.1098316,-0.1768968
0.8223708,-0.1164358,-0.1831805
0.8505528,-0.1071392,-0.2068592
0.9661523,-0.04921223,-0.3494771
1.273311,-0.01771161,-0.5996962
1.588667,-0.06234798,-0.8206986
1.673382,-0.11686,-0.8300359
1.639791,-0.07279766,-0.6528189
1.539078,0.03107288,-0.4488871
1.368076,0.07914262,-0.3360897
1.354428,0.00139976,-0.4000734
1.331604,-0.1499115,-0.4235672
1.06645,-0.1583418,-0.2593697
0.8668224,-0.07621494,-0.1359003
0.7566172,-0.04785978,-0.1199959
0.6556422,0.006669272,-0.1557697
0.6869657,0.01426625,-0.1863378
0.7179054,-0.0105733,-0.1786769
0.7782918,0.01533963,-0.2174352
0.9006869,0.0106449,-0.2500325
0.9739468,0.01688146,-0.2671969
1.027951,0.006412044,-0.3032814
1.00114,-0.03773167,-0.2817988
0.9835629,-0.03430763,-0.237202
1.010683,-0.04029831,-0.1782207
0.9531264,-0.05341758,-0.1382017
0.9022154,-0.05327473,-0.1541477
0.8243484,-0.03269759,-0.1207158
0.6988811,0.03652016,-0.07755101
0.6502064,0.07693668,-0.08844914
0.70874,0.05668246,-0.1355943
0.8225818,0.03650041,-0.2083626
0.8348098,0.05029416,-0.2176672
0.8183509,0.04277215,-0.1833708
0.8498892,-0.004220694,-0.1888429
0.8098496,-0.04771825,-0.2245787
0.801078,-0.1260417,-0.3258609
0.8977124,-0.2302771,-0.4508778
1.177981,-0.3447061,-0.5021007
1.6374,-0.4290026,-0.6041449
1.830118,-0.3762209,-0.7320939
1.672648,-0.2818968,-0.5945906
1.556219,-0.2160438,-0.3566791
1.447797,-0.127021,-0.3044321
1.208429,-0.08697725,-0.2722266
1.066665,-0.08837156,-0.2453188
1.004095,-0.06822998,-0.2552219
0.8698709,-0.05220553,-0.191548
0.7904847,-0.04988208,-0.1703769
0.7371509,-0.08641195,-0.1625965
0.7060731,-0.1451414,-0.1133865
0.7506354,-0.1653115,-0.1375354
0.770844,-0.1563644,-0.1620338
0.8174827,-0.1358574,-0.1761056
0.8450046,-0.1140214,-0.186761
0.8187053,-0.09213974,-0.1273795
0.8404323,-0.06756653,-0.08620151
0.8342399,-0.07177765,-0.09170257
0.8102692,-0.09607398,-0.1101312
0.8075519,-0.1236083,-0.1370439
0.8089515,-0.1591823,-0.1588543
0.8540327,-0.1733647,-0.1761115
0.8913776,-0.177732,-0.179109
0.8932109,-0.1862548,-0.1803177
0.8831937,-0.1586794,-0.1600998
0.8788922,-0.1266754,-0.1375556
0.8695188,-0.1186415,-0.1527413
0.8158401,-0.09431067,-0.1565115
0.7927489,-0.05077324,-0.1843452
0.9280113,0.01679771,-0.2988821
1.276045,0.03721283,-0.5279054
1.685073,-0.09855358,-0.8219171
1.856216,-0.2226709,-0.906234
1.726256,-0.1191758,-0.6558776
1.473607,0.01043132,-0.3515813
1.214427,-0.03701706,-0.2233347
1.0549,-0.06674235,-0.1599903
1.027157,-0.04618254,-0.1066533
0.9353238,-0.06101658,-0.1524816
0.8759852,-0.02153642,-0.21911
0.9701695,-0.01661578,-0.2809861
0.9427489,-0.03791927,-0.3287999
0.875434,-0.01205896,-0.2673357
0.8442786,-0.04456547,-0.2084322
0.7692369,-0.06205218,-0.1950014
0.822738,-0.04723374,-0.172971
0.8508756,-0.03585438,-0.1980868
0.8258697,0.01337298,-0.2088732
0.8514265,0.01904174,-0.1882316
0.7865263,0.006098057,-0.1860069
0.7728919,0.01177735,-0.1665089
0.8200276,0.01135421,-0.1582759
0.8367989,0.03293228,-0.1695338
0.8574298,0.04431706,-0.1802826
0.8365239,0.02816514,-0.1925629
0.8650696,-0.01035797,-0.183615
0.9131603,-0.03840258,-0.1649444
0.93577,-0.03082511,-0.1289103
0.9602615,-0.02128685,-0.09375025
0.9134096,0.003653724,-0.1132774
0.8802153,0.03177541,-0.1452742
0.8774684,0.02606715,-0.1763026
0.9527583,-0.0124448,-0.287464
0.8320428,-0.03533035,-0.2343901
0.8160183,-0.05915671,-0.2480988
0.7308466,-0.06755686,-0.2251291
0.726538,-0.05338458,-0.1995962
0.7614401,-0.05442135,-0.242491
0.7134395,-0.05435331,-0.2073079
0.7346777,-0.03332477,-0.1877814
0.7139814,-0.00501854,-0.1520349
0.7450947,0.03145895,-0.1069542
0.8640606,0.05790066,-0.145702
0.897723,0.06240409,-0.1568963
0.9092444,0.04419375,-0.194158
0.8771694,0.01554302,-0.2188518
0.857049,-0.001503612,-0.2007755
0.8723264,-0.0118284,-0.2362137
0.8548202,-0.01543756,-0.229814
0.8571911,-0.03136643,-0.2345546
0.8013999,-0.07293436,-0.2836568
0.7709925,-0.1402713,-0.3222898
0.9621276,-0.2525167,-0.4463506
1.319119,-0.3306483,-0.5808818
1.596398,-0.3118333,-0.6412365
1.606796,-0.2928879,-0.6666135
1.534761,-0.3066789,-0.574682
1.485436,-0.2848801,-0.3728214
1.336647,-0.228463,-0.2707766
1.190387,-0.1500777,-0.3189354
1.110211,-0.07170274,-0.3382035
0.9980577,-0.05625461,-0.3012457
0.8764444,-0.07106705,-0.2908176
0.8129135,-0.09225885,-0.248273
0.7841126,-0.1437623,-0.1971969
0.7658733,-0.1613592,-0.2139487
0.7588546,-0.1478249,-0.2151269
0.7572562,-0.1471444,-0.199272
0.7717306,-0.1278314,-0.2035337
0.7973128,-0.09001944,-0.1652086
0.8316891,-0.06512524,-0.1254598
0.8458288,-0.06743506,-0.1177122
0.8253489,-0.07619453,-0.1137418
0.8203192,-0.1063968,-0.1137293
0.8123677,-0.1667621,-0.09777448
0.8225877,-0.1832645,-0.117
0.9043401,-0.1767302,-0.2058834
0.9726015,-0.1963048,-0.2861343
0.9635035,-0.1948252,-0.274026
0.9427994,-0.178492,-0.2039638
0.9581574,-0.1792837,-0.1927396
0.9106721,-0.1723837,-0.2063607
0.7802393,-0.1483009,-0.2163627
0.7331565,-0.1133614,-0.274658
0.8649995,-0.06005849,-0.3781582
1.175333,-0.02773622,-0.589569
1.527702,-0.07283119,-0.8448198
1.693488,-0.1207835,-0.9237071
1.625749,-0.06752088,-0.748458
1.440788,-0.02484163,-0.4929613
1.236181,-0.0931564,-0.3715618
1.090895,-0.1545509,-0.2894622
1.062111,-0.1564196,-0.2151315
1.013062,-0.1002359,-0.2394024
0.8906818,0.004896944,-0.2361682
0.822427,0.04799343,-0.2271003
0.7717403,0.0433182,-0.2449042
0.7720191,0.0403514,-0.2311699
0.8241821,-0.002862624,-0.2638683
0.8415485,-0.0526491,-0.2997185
0.8760754,-0.07342505,-0.2973213
0.8548503,-0.07064171,-0.265559
0.8250367,-0.06013239,-0.1970713
0.8600021,-0.03995431,-0.1753256
0.8461878,0.003098547,-0.181951
0.8357863,0.02659292,-0.1871494
0.8238466,0.04153102,-0.1990355
0.7986095,0.08023548,-0.1856706
0.8264115,0.1058423,-0.1822522
0.8632591,0.09315242,-0.2050979
0.9089693,0.04770475,-0.2534516
0.9025453,0.001276351,-0.2975172
0.802558,-0.0426297,-0.2868536
0.6874051,-0.1271502,-0.2898455
0.6466654,-0.2484627,-0.3656742
0.8293681,-0.3407596,-0.4766514
1.203628,-0.3774471,-0.559087
1.533478,-0.3780762,-0.5951854
1.636775,-0.340847,-0.6254973
1.562754,-0.3098243,-0.6023939
1.530637,-0.293605,-0.4851979
1.458818,-0.2360821,-0.4036029
1.248061,-0.1696429,-0.4080179
1.099965,-0.1130413,-0.3924635
0.9835573,-0.06466203,-0.3214504
0.8352214,-0.05745432,-0.2445325
0.7678489,-0.07869036,-0.2175267
0.7511013,-0.107766,-0.230725
0.7560411,-0.1287422,-0.2289063
0.7485748,-0.1288738,-0.2157518
0.7082926,-0.1119589,-0.1936634
0.7057206,-0.09844983,-0.143655
0.7246854,-0.09591235,-0.097743
0.7491209,-0.09470938,-0.09309493
0.7676033,-0.1147581,-0.1231608
0.7811316,-0.1443045,-0.1566852
0.8532269,-0.1659977,-0.1681405
0.9588388,-0.1921486,-0.1917036
1.034172,-0.223608,-0.2504836
1.042903,-0.2464076,-0.2695367
0.9988886,-0.2274463,-0.2307341
0.9456372,-0.2016029,-0.1994865
0.8911655,-0.1943623,-0.1938811
0.8475136,-0.1541018,-0.2175806
0.7938493,-0.08205082,-0.2873825
0.7925338,-0.03062222,-0.3872841
0.9768964,-0.0547632,-0.4894381
1.335184,-0.1013934,-0.5899303
1.682462,-0.1034837,-0.6095367
1.72629,-0.08062937,-0.5460435
1.56063,0.03553752,-0.5474122
1.505087,0.160256,-0.5374173
1.411445,0.09300212,-0.4680084
1.192651,-0.06667277,-0.375027
0.9934156,-0.1695563,-0.1822914
0.8805559,-0.1735595,-0.1530684
0.8748322,-0.09602551,-0.2829036
0.8117616,-0.05322086,-0.258658
0.7869777,-0.01535176,-0.2667664
0.8445118,0.04903084,-0.2877434
0.8024833,0.04062911,-0.241097
0.8494664,0.01249482,-0.2754675
0.884769,-0.002482872,-0.2480179
0.8622747,-0.03158386,-0.1971286
0.9471687,-0.02356136,-0.1727288
0.895864,-0.007590318,-0.1176988
0.806251,0.01706404,-0.1299975
0.7636976,0.05430902,-0.1168582
0.7031261,0.05536447,-0.08660914
0.7308312,0.06547011,-0.08860453
0.7392509,0.06887172,-0.06282482
0.8332531,0.04790732,-0.08483975
0.9416716,0.05178956,-0.1258887
0.8877356,0.03514809,-0.1885868
0.8553957,-0.01374163,-0.276358
0.8006453,-0.05752767,-0.3250458
0.8145235,-0.1259003,-0.4542519
1.038559,-0.2456812,-0.6238819
1.347586,-0.3798053,-0.7074657
1.55513,-0.432242,-0.7349252
1.472099,-0.3616278,-0.6109146
1.411,-0.2215997,-0.36266
1.50154,-0.0841983,-0.2892456
1.494639,-0.06647323,-0.4252319
1.521816,-0.1371836,-0.4956831
1.418676,-0.1192759,-0.4087315
1.088273,-0.07318747,-0.294062
0.8747986,-0.0457327,-0.2300296
0.7384343,0.009217581,-0.2235188
0.6679182,-0.01307104,-0.2371086
0.6947807,-0.04829599,-0.2097454
0.6624591,-0.05790192,-0.1727289
0.6311726,-0.1192246,-0.1474078
0.6146048,-0.1382404,-0.1152478
0.623885,-0.1515426,-0.1216443
0.7116826,-0.1916729,-0.1278108
0.7801816,-0.2018932,-0.1301669
0.8056221,-0.2208428,-0.175565
0.8112504,-0.2225954,-0.1761594
0.878641,-0.2361641,-0.1738931
1.000235,-0.256954,-0.2306467
1.024855,-0.232799,-0.2675719
1.00084,-0.2243171,-0.2562814
0.9640352,-0.2121807,-0.1908048
0.8726131,-0.1844315,-0.1433528
0.7756255,-0.1263672,-0.1780183
0.7285529,-0.02066295,-0.2943339
0.8761254,-0.01609559,-0.5121079
1.279682,-0.1608961,-0.7960089
1.644744,-0.3130348,-1.020351
1.666656,-0.3428574,-0.9642246
1.574029,-0.2638898,-0.7232374
1.607808,-0.1247099,-0.5939781
1.451017,0.0504554,-0.5100838
1.132712,0.05872826,-0.4064418
1.014647,-0.05847017,-0.2453059
0.9691638,-0.05230178,-0.1126503
0.8956113,-0.06701608,-0.2548108
0.8589454,-0.08828543,-0.3481683
0.8233339,-0.008569623,-0.2667879
0.8152754,-0.002194587,-0.3018484
0.8237211,-0.0005917082,-0.3063068
0.8350275,-0.01301434,-0.2818578
0.8405606,-0.08598693,-0.294002
0.8567404,-0.07825867,-0.2507667
0.914577,-0.0825764,-0.253237
0.9265657,-0.07526555,-0.245948
0.9044095,-0.02819539,-0.1996661
0.8775686,-0.03439769,-0.1749081
0.8207553,-0.0007526401,-0.1439732
0.7947156,0.05236026,-0.1438064
0.7971078,0.09613178,-0.1512172
0.8146782,0.1178314,-0.1524049
0.8663841,0.07217017,-0.1453041
0.9268478,0.03388396,-0.1296461
0.9616213,-0.01668964,-0.1621239
0.959722,-0.07928611,-0.2024305
0.9145439,-0.1025925,-0.2068795
0.7871995,-0.1134097,-0.16177
0.6609424,-0.1302162,-0.1301551
0.6787395,-0.1587253,-0.2650457
0.8364256,-0.1948074,-0.5187689
1.128069,-0.2671994,-0.7192868
1.516933,-0.3383794,-0.8659766
1.726053,-0.347545,-0.9727971
1.596926,-0.2941934,-0.8275401
1.446553,-0.1956402,-0.5063463
1.440966,-0.1811306,-0.4249291
1.354958,-0.2241762,-0.4359706
1.199916,-0.2175284,-0.3219816
1.09889,-0.2302307,-0.3192642
1.019958,-0.1976055,-0.3152846
0.8678352,-0.1117701,-0.1887046
0.6930294,-0.09794155,-0.1613746
0.7351956,-0.1128322,-0.1974882
0.7679722,-0.1152254,-0.193486
0.6545671,-0.1076303,-0.2034519
0.7035552,-0.1003112,-0.2163228
0.7418924,-0.1073796,-0.1892161
0.7601538,-0.1107163,-0.1501241
0.8510777,-0.1306438,-0.1312398
0.7853009,-0.1450399,-0.1061085
0.7617204,-0.1432471,-0.0740082
0.7840674,-0.1551892,-0.06861144
0.7555874,-0.1607907,-0.1186198
0.8443534,-0.1680837,-0.2046809
0.9379579,-0.187297,-0.2563989
1.01977,-0.2204672,-0.258388
1.036329,-0.2469665,-0.2290654
0.9514776,-0.22026,-0.1909831
0.9198573,-0.1770107,-0.1808975
0.8653317,-0.1203972,-0.2216031
0.8345293,-0.0418647,-0.3131567
0.9117471,-0.02505955,-0.4352388
1.117917,-0.05129174,-0.6263049
1.483372,-0.07927308,-0.8790268
1.686821,-0.1344977,-0.9584975
1.605898,-0.1226279,-0.721942
1.494663,-0.02548054,-0.4416378
1.358597,0.0186735,-0.3709535
1.140794,-0.01832616,-0.3649727
0.9763694,-0.08570856,-0.273473
0.8715874,-0.1250509,-0.207778
0.7879764,-0.1308803,-0.2552237
0.8019311,-0.127329,-0.312696
0.8198981,-0.08618586,-0.3293594
0.8067169,-0.05271753,-0.3513733
0.8392233,-0.03151783,-0.3082779
0.8375398,-0.003596504,-0.2059899
0.814081,-0.001942619,-0.1383249
0.7835282,0.02900079,-0.1101275
0.7149279,0.05287239,-0.14564
0.6556207,0.03361404,-0.16826
0.6313919,0.03443462,-0.1318066
0.7017013,0.02717444,-0.1197336
0.8173192,0.02005489,-0.1183795
0.8885103,0.04394886,-0.1681856
0.9141894,0.06316034,-0.2415066
0.8845402,0.031264,-0.2159815
0.8677319,-0.04032893,-0.1737312
0.8648369,-0.08304313,-0.1792924
0.8498472,-0.1165085,-0.2492279
0.885423,-0.1779615,-0.4311265
1.020011,-0.2461396,-0.585542
1.36423,-0.2996885,-0.6229669
1.701218,-0.3345088,-0.6716221
1.639765,-0.3383478,-0.6643355
1.479694,-0.280805,-0.4621084
1.496227,-0.2220082,-0.2834916
1.399856,-0.1935784,-0.3040784
1.267691,-0.157456,-0.3765205
1.201768,-0.1379767,-0.3725133
1.007326,-0.1036092,-0.300124
0.8406377,-0.04239602,-0.2109285
0.762715,-0.01793065,-0.1590893
0.6969844,-0.02447522,-0.1620822
0.7091289,-0.03981714,-0.1517727
0.7168609,-0.06814907,-0.1228359
0.731243,-0.09432498,-0.1284222
0.758255,-0.09153712,-0.1132486
0.7692127,-0.08594415,-0.102839
0.8026822,-0.1041107,-0.1321262
0.7670778,-0.1251404,-0.1508657
0.7478478,-0.149554,-0.1709876
0.8361504,-0.1677819,-0.1796872
0.9295504,-0.1925276,-0.2077838
0.9556584,-0.2419301,-0.2443657
0.8638852,-0.2611222,-0.2014607
0.7618878,-0.2159065,-0.16241
0.7236734,-0.1113814,-0.1864518
0.7249722,0.006213514,-0.236462
0.8351674,0.08116883,-0.3491166
1.048548,0.1010989,-0.5238721
1.435163,-0.01669352,-0.7590898
1.9248,-0.2365366,-1.003439
1.964927,-0.2651232,-0.9306545
1.578364,-0.05247682,-0.5438325
1.37216,0.08981706,-0.3270283
1.243182,0.03077541,-0.3052862
1.046,-0.04638854,-0.239696
0.8499429,-0.05863219,-0.07527429
0.6325758,-0.1000326,0.03733398
0.7560488,-0.09580068,-0.1205768
0.9279063,-0.023788,-0.2663106
0.8748057,-0.01854885,-0.2979525
0.9491021,-0.01056466,-0.3246994
0.8600773,0.002292263,-0.2165084
0.7681455,-0.01475627,-0.1645309
0.8298739,0.002962022,-0.1122159
0.7659854,-0.001892897,-0.049181
0.8370551,0.02315003,-0.1204066
0.8271912,0.08783087,-0.05652169
0.7372758,0.1309957,-0.01533689
0.7993415,0.1706449,-0.03416137
0.8903616,0.1310713,0.005554548
1.136777,0.08258422,-0.09945999
1.15045,0.08081386,-0.168809
0.8888033,0.05949639,-0.1641356
0.6937599,0.0194771,-0.1738424
0.469873,-0.09698246,-0.2322907
0.4749366,-0.220324,-0.5001982
0.7019315,-0.3004588,-0.7802892
1.121857,-0.4435177,-0.9005028
1.693082,-0.5464288,-0.9186665
1.774596,-0.4275319,-0.8702717
1.545969,-0.1458004,-0.7358053
1.523314,0.07635825,-0.6051967
1.506783,0.09911494,-0.6275502
1.384251,-0.03809009,-0.5932025
1.226029,-0.1533766,-0.4700939
1.049506,-0.165383,-0.3892091
0.8825625,-0.1608384,-0.2664878
0.7380352,-0.1459229,-0.2169674
0.6407058,-0.1469981,-0.2319103
0.6174313,-0.1745188,-0.2130942
0.643903,-0.1947482,-0.2142854
0.6610125,-0.2372119,-0.1836823
0.6663273,-0.2384042,-0.1443225
0.6903827,-0.2138796,-0.1150899
0.7366029,-0.1946589,-0.07785458
0.7749684,-0.1481462,-0.08585891
0.7833488,-0.1437882,-0.1032718
0.797492,-0.1491894,-0.1072782
0.8462915,-0.1554828,-0.1136808
0.8994325,-0.1811356,-0.1210066
0.941013,-0.1659561,-0.150486
0.9880233,-0.1620611,-0.1740698
0.9851263,-0.1771246,-0.1624885
0.8939143,-0.1772492,-0.1575244
0.7970206,-0.1670004,-0.1775847
0.7470392,-0.1194978,-0.2038158
0.7441101,-0.05164735,-0.2690742
0.8577378,-0.01530705,-0.4263624
1.2304,-0.07923049,-0.6662941
1.746145,-0.2679477,-0.8804118
1.912795,-0.4116845,-0.8768491
1.662462,-0.2283709,-0.5874994
1.490757,0.1287867,-0.3337227
1.467953,0.1728418,-0.4371352
1.358035,-0.05251191,-0.5462823
1.174462,-0.2416257,-0.3627935
0.8694317,-0.2826862,-0.2098911
0.5632802,-0.17581,-0.09952233
0.5217469,-0.1070207,-0.01773727
0.5594246,-0.06519521,-0.1350081
0.5613069,-0.01664401,-0.1654396
0.6707782,-0.05501985,-0.1623365
0.8023157,-0.03427445,-0.2503446
0.838593,0.002310181,-0.1703848
0.8102638,0.003547028,-0.0991451
0.8042176,0.06489467,-0.1123601
0.7924438,0.07907686,-0.09011285
0.76727,0.07598136,-0.09109683
0.8150226,0.08145734,-0.05306661
0.8465508,0.06473256,-0.03013768
0.861955,0.08599045,-0.08053439
0.898465,0.08642722,-0.1550675
0.8763075,0.05872935,-0.2153531
0.8203436,-0.00878613,-0.2459382
0.7602351,-0.1407101,-0.3428816
0.870468,-0.2773359,-0.4535698
1.284401,-0.400389,-0.4941325
1.755705,-0.4201399,-0.5711287
1.91193,-0.3317389,-0.6683601
1.727698,-0.2770459,-0.5572494
1.588896,-0.2544086,-0.2972564
1.465586,-0.1988604,-0.2344022
1.265454,-0.1515825,-0.2995214
1.173359,-0.1396315,-0.2937387
0.9327545,-0.09212633,-0.2345504
0.6760697,-0.02431251,-0.1224017
0.6032607,-0.00141187,-0.06346961
0.4983208,-0.006522254,-0.08821559
0.6211435,-0.05625378,-0.1442154
0.7438578,-0.1069403,-0.1894298
0.6301836,-0.1100188,-0.1295114
0.6520494,-0.1352105,-0.05559191
0.6054088,-0.1666341,-0.04064048
0.5466264,-0.1898552,-0.02970446
0.7194576,-0.2307147,-0.03716769
0.896308,-0.230241,-0.1025781
0.9969747,-0.1997239,-0.2333562
0.9653445,-0.1782896,-0.3155468
0.900989,-0.1391904,-0.2627261
0.8347594,-0.08786384,-0.2157319
0.7346834,-0.02921119,-0.2830707
0.8786569,0.03863034,-0.3703333
1.273737,0.05914503,-0.4973422
1.754768,-0.03022317,-0.6713851
2.025061,-0.1325678,-0.6791004
1.924483,-0.07706383,-0.5575633
1.817395,0.04852131,-0.4837386
1.666217,0.07890647,-0.4666337
1.315673,-0.02007205,-0.396437
0.9606951,-0.2418704,-0.1569562
0.6773102,-0.3890213,-0.001875915
0.6047606,-0.3730781,-0.07913956
0.6109751,-0.2979931,-0.1299212
0.577238,-0.1324512,-0.155119
0.7048275,0.004549429,-0.233472
0.73563,0.0509937,-0.2499842
0.6188945,0.1071458,-0.2134653
0.5734435,0.1099842,-0.1830088
0.5372495,0.09953283,-0.1302271
0.6649485,0.09175313,-0.09766977
0.8607566,0.04903211,-0.1340185
0.8946198,0.04777915,-0.1576729
0.8188598,0.05630659,-0.1575279
0.6737049,0.05565431,-0.1699241
0.6389151,0.03791466,-0.1870847
0.6787507,-0.04291206,-0.2540024
0.6885183,-0.1313523,-0.3453551
0.8845175,-0.1913087,-0.4362241
1.434037,-0.3053826,-0.5701126
1.980622,-0.4304086,-0.6467841
1.936165,-0.3866245,-0.6573033
1.800259,-0.3348734,-0.7081759
1.830974,-0.3459019,-0.5665723
1.40261,-0.2058441,-0.2466496
1.159841,-0.1218973,-0.2006565
1.25496,-0.1559602,-0.2855049
1.00549,-0.1286625,-0.2376504
0.8709913,-0.1384684,-0.212522
0.7753298,-0.1247019,-0.1699081
0.5974411,-0.09398006,-0.1341925
0.6620158,-0.1267784,-0.1827708
0.6214193,-0.1146573,-0.1941245
0.6341119,-0.08976066,-0.1729526
0.7153905,-0.06100885,-0.1524221
0.6378277,-0.03999843,-0.1261765
0.661113,-0.05501677,-0.08439749
0.6427999,-0.05860242,-0.04324222
0.6385799,-0.1161301,-0.05422477
0.7426428,-0.1771322,-0.0775729
0.8476736,-0.1828235,-0.1482059
1.026811,-0.207478,-0.2644688
1.011667,-0.2169522,-0.2826221
0.8311588,-0.1815801,-0.2529287
0.7088534,-0.1242706,-0.2490447
0.6790144,-0.06158187,-0.233938
1.010547,0.0004837665,-0.3797832
1.593807,0.02154316,-0.7268246
1.963465,-0.08938638,-0.8980303
1.925539,-0.1846966,-0.728774
1.678941,-0.03058988,-0.4602052
1.462368,0.1204414,-0.3223451
1.24398,-0.02456431,-0.3633072
1.110375,-0.1709607,-0.4073823
1.031589,-0.1527126,-0.2976854
0.8267474,-0.1426296,-0.182229
0.6463226,-0.0947418,-0.168761
0.6169935,-0.04356178,-0.1778598
0.6999629,-0.06061399,-0.224493
0.7568424,-0.06081835,-0.2665649
0.7402384,-0.06184397,-0.2466282
0.7522554,-0.02855185,-0.193194
0.7037508,0.03914176,-0.1078769
0.6340978,0.07377026,-0.09477528
0.6199738,0.1037413,-0.1139849
0.6253797,0.1002295,-0.08772485
0.7202384,0.08329089,-0.1076991
0.8116923,0.09209384,-0.1133852
0.8367125,0.07890452,-0.129153
0.7977428,0.02694391,-0.2068228
0.7325168,-0.07812404,-0.2628194
0.7719539,-0.1946324,-0.3360802
0.8568694,-0.274018,-0.428932
1.063946,-0.3236704,-0.5111045
1.559584,-0.308752,-0.620169
2.076233,-0.274458,-0.760291
2.056439,-0.2798836,-0.7759158
1.667874,-0.2415536,-0.5429723
1.491429,-0.1590581,-0.2552663
1.264541,-0.1217112,-0.1112608
1.136205,-0.1372145,-0.2017169
1.208823,-0.1544415,-0.3321969
0.9250747,-0.1158105,-0.2449872
0.7903762,-0.05529197,-0.1895171
0.7308262,-0.01783852,-0.1721071
0.5181387,-0.01934106,-0.1164351
0.6619925,-0.06644411,-0.1873089
0.6068174,-0.07660067,-0.1678912
0.550227,-0.07004701,-0.1184699
0.7137151,-0.08128007,-0.1269566
0.7043729,-0.09785826,-0.1326502
0.6591155,-0.09513469,-0.1086956
0.682648,-0.03408565,-0.1132439
0.668778,0.04264263,-0.1275955
0.7504274,0.08753164,-0.1707531
0.8279916,0.0931586,-0.2068874
0.8649027,0.04631002,-0.2641001
0.8990737,0.01555662,-0.2519423
0.8175389,0.003298041,-0.2370292
0.7312555,-0.0195908,-0.2808105
0.6738923,-0.07520899,-0.3085962
0.7238394,-0.1734103,-0.4113925
0.9588276,-0.2805096,-0.5430615
1.325959,-0.3637657,-0.6113172
1.711759,-0.3620032,-0.6799527
1.778789,-0.3542191,-0.7295882
1.624137,-0.3654106,-0.6165281
1.506606,-0.2557412,-0.3760223
1.293697,-0.109219,-0.2907599
1.131877,-0.03739716,-0.3410054
1.088589,-0.02936341,-0.3364553
0.9403557,-0.05429061,-0.3082401
0.7809675,-0.05603893,-0.2582993
0.7166259,-0.07549088,-0.1977007
0.6842702,-0.1236782,-0.1803994
0.6763491,-0.1653117,-0.185928
0.7044693,-0.1690921,-0.183434
0.7657499,-0.1216454,-0.1815633
0.7960611,-0.09839562,-0.1744349
0.7567933,-0.07564999,-0.1202471
0.7071472,-0.05628154,-0.07277586
0.6952957,-0.1115816,-0.07081808
0.7572926,-0.1873371,-0.09578601
0.8508374,-0.2396357,-0.1531124
0.8591979,-0.2384661,-0.2142876
0.8085209,-0.217288,-0.254682
0.7617087,-0.2171646,-0.2113755
0.6998695,-0.1914293,-0.1510983
0.6765923,-0.1729129,-0.2089541
0.7277814,-0.09284639,-0.3396674
0.9277099,0.08572306,-0.5969584
1.438684,0.1110872,-0.9192266
1.901472,-0.08102653,-1.00078
1.775125,-0.2015341,-0.7711435
1.400577,-0.06469879,-0.3701947
1.242182,0.1072935,-0.09932923
1.212777,0.08919456,-0.1893798
1.269503,0.0457709,-0.3952912
1.239148,0.04662572,-0.4454929
1.044281,0.01813404,-0.3448516
0.8569182,0.03716775,-0.1858528
0.6539558,0.04752474,-0.1500316
0.6060568,0.001508844,-0.2006271
0.662697,-0.03423518,-0.1809368
0.6381478,-0.07075229,-0.1988683
0.7316184,-0.0692972,-0.2161392
0.7897719,-0.04660974,-0.1781191
0.7612195,-0.02142162,-0.1822649
0.7877351,0.05839308,-0.1355855
0.7838097,0.1085655,-0.1055625
0.8384617,0.09486647,-0.1495401
0.882851,0.075163,-0.1575055
0.8440085,0.05299515,-0.211453
0.7331616,0.01957221,-0.2685919
0.5364253,-0.04599944,-0.2697075
0.5008543,-0.1559227,-0.3193189
0.7588346,-0.305806,-0.4465624
1.345537,-0.4416584,-0.6161255
1.955572,-0.4818847,-0.7173928
1.965247,-0.3961111,-0.6922967
1.590615,-0.2304239,-0.5222918
1.349396,-0.08690187,-0.2725513
1.149226,-0.03192849,-0.184173
1.053096,-0.07382431,-0.2410624
1.07818,-0.11884,-0.2403857
0.9445112,-0.1128293,-0.2171221
0.8589446,-0.1213554,-0.2087063
0.84181,-0.1145742,-0.165474
0.7075506,-0.1115194,-0.1637027
0.6551598,-0.1339105,-0.183615
0.6360297,-0.1084547,-0.1511526
0.6664454,-0.07871562,-0.1316608
0.7308007,-0.04878901,-0.08820367
0.7047382,-0.04606179,-0.04974733
0.7472859,-0.1176567,-0.08587889
0.7738834,-0.1901211,-0.0816121
0.8253057,-0.2507444,-0.07888546
0.9291655,-0.2388745,-0.1516683
0.9511732,-0.2001928,-0.2513509
0.9710979,-0.2184543,-0.3207158
0.8574625,-0.1576617,-0.2779947
0.7384142,-0.07446466,-0.2612642
0.7833197,-0.02187366,-0.3980723
0.9817262,0.03714079,-0.6134196
1.432832,-0.02430888,-0.8561016
1.71019,-0.1550802,-0.9247317
1.647938,-0.2410303,-0.7221623
1.523396,-0.1971568,-0.4805772
1.288753,-0.04767447,-0.2872278
1.036803,0.00166509,-0.126257
0.9445253,0.02144395,-0.1219876
0.9729499,0.01907682,-0.25211
0.9628701,-0.07265554,-0.3196095
0.8824235,-0.0777062,-0.2960829
0.7755901,-0.05782888,-0.2378546
0.6354212,-0.05114725,-0.1635441
0.6174244,-0.02045572,-0.1552903
0.6790362,-0.04784278,-0.1866607
0.7189481,-0.04193606,-0.2076478
0.7650839,-0.02061079,-0.2396566
0.6968641,0.005467163,-0.1983684
0.6249007,0.09357556,-0.1087238
0.6829155,0.1415624,-0.08377215
0.7822352,0.1461886,-0.1078271
0.8643971,0.0905501,-0.1925454
0.8288976,0.0001966862,-0.317485
0.7366189,-0.04634297,-0.386556
0.7779184,-0.139243,-0.4734196
1.047401,-0.2998858,-0.6298234
1.530951,-0.444695,-0.7031821
1.855188,-0.4926985,-0.7146904
1.762949,-0.4646828,-0.7012863
1.593106,-0.3910546,-0.5201885
1.450508,-0.2252359,-0.3260848
1.228243,-0.09940799,-0.3196688
1.088669,-0.07222186,-0.3601645
0.9515126,-0.05191911,-0.3239987
0.8164339,-0.08295676,-0.268627
0.804781,-0.1389674,-0.2593429
0.7564822,-0.1581575,-0.25691
0.7161393,-0.1664209,-0.2527629
0.6981335,-0.1546605,-0.2414177
0.6542874,-0.1366959,-0.1796417
0.6728259,-0.1195041,-0.1233931
0.6658854,-0.09280485,-0.08720298
0.6755238,-0.07496725,-0.08264729
0.7107307,-0.06885428,-0.1077608
0.6864588,-0.1062735,-0.1188184
0.7023695,-0.1840438,-0.1672824
0.7329903,-0.2309537,-0.195654
0.8067244,-0.2413599,-0.2050113
0.9387809,-0.260367,-0.2933142
0.9502222,-0.2756008,-0.333324
0.8638839,-0.24426,-0.2614065
0.7878055,-0.2025403,-0.2046063
0.7441301,-0.1733963,-0.246539
0.8315476,-0.1651798,-0.4010324
1.230397,-0.2705226,-0.7037511
1.803451,-0.4317706,-1.079142
1.957716,-0.4403154,-1.169149
1.630095,-0.1867081,-0.794119
1.409842,0.1494895,-0.3758531
1.325692,0.2032812,-0.3663013
1.187096,0.04733501,-0.4825862
1.138845,-0.02664063,-0.3888838
1.027889,-0.0954553,-0.3466268
0.8550826,-0.1625474,-0.329347
0.8018279,-0.1214969,-0.2345432
0.7003291,-0.08032788,-0.2658798
0.6423673,-0.07484158,-0.2762174
0.73353,-0.07816897,-0.250737
0.8174469,-0.1064528,-0.2825666
0.8522227,-0.1020042,-0.2291363
0.8101441,-0.07741428,-0.1715777
0.7590543,-0.04702094,-0.1202178
0.7469724,0.02680234,-0.06496324
0.7876193,0.06231654,-0.09071857
0.8802309,0.05787823,-0.09647083
0.8716054,0.05744598,-0.08239102
0.7920401,0.03082909,-0.082376
0.7332915,0.04512822,-0.04928342
0.710326,0.06109279,-0.0326281
0.7331525,-0.0108332,-0.128534
0.6989206,-0.1116999,-0.3220106
0.6760305,-0.2372099,-0.4846782
0.8355583,-0.372725,-0.6022409
1.251758,-0.4722511,-0.6883269
1.786665,-0.5121031,-0.7609879
1.949423,-0.4781503,-0.8212907
1.706259,-0.4254242,-0.6540976
1.517878,-0.3326445,-0.3554612
1.367176,-0.2417701,-0.2875963
1.180542,-0.2112504,-0.3164388
1.053922,-0.08270383,-0.2365485
0.8814678,0.05600223,-0.1825264
0.7784131,0.01129469,-0.1942223
0.7272553,-0.05992476,-0.1892266
0.5936455,-0.08426184,-0.1595819
0.6132995,-0.1223506,-0.1387391
0.6432136,-0.1170393,-0.1201572
0.5962309,-0.08328403,-0.08278403
0.6790861,-0.0626998,-0.05173059
0.6710351,-0.04918895,-0.03736059
0.6233775,-0.06831408,-0.0370693
0.6426882,-0.09590861,-0.0256001
0.6170334,-0.1257502,-0.01410731
0.7291931,-0.1838066,-0.08272448
0.9232177,-0.247864,-0.2228889
0.9983824,-0.2802713,-0.3472049
0.8476501,-0.2179148,-0.3631694
0.5808672,-0.1094008,-0.3744021
0.61648,-0.02012315,-0.5037854
1.048848,0.02886462,-0.6403984
1.675911,-0.08980766,-0.8618395
1.963429,-0.2641749,-1.014146
1.703215,-0.2661407,-0.7089816
1.484739,-0.11927,-0.2994159
1.259496,0.03227678,-0.2044177
0.9587358,0.008146844,-0.2686167
0.9669982,-0.08670118,-0.2659997
0.9192378,-0.09553432,-0.1785774
0.7569214,-0.1225361,-0.1515964
0.7513112,-0.103422,-0.1569845
0.716437,-0.05230355,-0.1542481
0.7333477,-0.06680676,-0.1890203
0.7477592,-0.03769065,-0.1888184
0.6665125,-0.008032002,-0.1554594
0.6340448,0.01259548,-0.09180351
0.5768101,0.08319826,-0.05405775
0.6022441,0.1265285,-0.1049632
0.714448,0.1462648,-0.1668027
0.7529821,0.1049138,-0.2860204
0.7131082,0.001898177,-0.4093542
0.5854005,-0.08529881,-0.4321272
0.6398211,-0.2101143,-0.493119
1.057566,-0.365849,-0.6179742
1.664245,-0.4925662,-0.688672
1.976179,-0.5218005,-0.7315805
1.733646,-0.4146111,-0.758088
1.514754,-0.2803818,-0.5780903
1.366637,-0.1816525,-0.3044892
1.139432,-0.1560515,-0.2972632
1.157142,-0.1779143,-0.367525
1.019768,-0.1278246,-0.3045081
0.773835,-0.08032819,-0.2735527
0.7681974,-0.08535729,-0.2234717
0.6621499,-0.07621773,-0.1548749
0.6261499,-0.07553343,-0.1729538
0.6476628,-0.0643496,-0.1499721
0.5465541,-0.05108527,-0.09015509
0.5533794,-0.06332854,-0.07918741
0.5168192,-0.07074575,-0.0694704
0.5315286,-0.1029278,-0.08077127
0.7268407,-0.1708519,-0.1359633
0.8773108,-0.2646477,-0.2353302
0.8983264,-0.312439,-0.3434605
0.766443,-0.2698352,-0.3609298
0.7243697,-0.2705797,-0.3365621
0.7774064,-0.2567703,-0.3724977
0.8295111,-0.08824319,-0.512958
1.180998,0.03825042,-0.7415163
1.707226,-0.07580758,-0.8614755
1.973021,-0.2290857,-0.8080482
1.870067,-0.163062,-0.7045657
1.67916,-0.03214833,-0.4856828
1.471527,0.03465153,-0.2160125
1.210477,0.06794771,-0.1678946
1.236086,-0.01080184,-0.2587449
1.249074,-0.07074913,-0.3154821
1.035883,-0.08478158,-0.3690323
0.9606813,-0.1134884,-0.3375078
0.7636785,-0.07203651,-0.2231481
0.5437058,-0.103487,-0.1450154
0.5573524,-0.1282288,-0.06631807
0.5244282,-0.05554137,-0.02096546
0.556621,-0.001413527,-0.04238719
0.6405372,0.1409985,-0.06064788
0.657211,0.2387539,-0.112288
0.7032137,0.2263689,-0.1569665
0.7282899,0.2237043,-0.1340018
0.8204641,0.162737,-0.1127404
0.8956128,0.1247301,-0.100697
0.834458,0.104782,-0.1371754
0.765499,0.03073988,-0.2386155
0.6264281,-0.08235014,-0.3649842
0.5619652,-0.260477,-0.593079
0.9168641,-0.4552614,-0.8417663
1.537956,-0.6124857,-0.9517091
1.83982,-0.5739374,-0.9543659
1.655187,-0.2943813,-0.804959
1.557947,-0.007898018,-0.6013198
1.669105,0.05009748,-0.6229062
1.584599,-0.1410468,-0.6531146
1.450004,-0.2371967,-0.5092491
1.295818,-0.1597748,-0.4426311
0.9700515,-0.1277043,-0.3507613
0.7488933,-0.09149812,-0.2163335
0.5947549,-0.09911254,-0.2055169
0.4826482,-0.1781043,-0.1361891
0.561464,-0.2169973,-0.1038088
0.6155779,-0.2341285,-0.158656
0.6863192,-0.2061393,-0.1419666
0.745088,-0.1600003,-0.164095
0.6829282,-0.1012885,-0.1465308
0.7134218,-0.02355323,-0.0945937
0.724311,-0.0418405,-0.1061991
0.7335628,-0.08125567,-0.05490504
0.8419088,-0.0906039,-0.02503556
0.8706159,-0.1513894,-0.07281069
0.8976141,-0.1955496,-0.1095461
0.9118833,-0.2098834,-0.1109709
0.8704643,-0.2308272,-0.1010596
0.8162074,-0.2274123,-0.1429131
0.6482387,-0.212636,-0.1971475
0.5040005,-0.1509448,-0.2693107
0.5525986,-0.01803394,-0.416553
0.9011508,0.03782568,-0.6528698
1.552715,-0.1307876,-0.9552218
1.958773,-0.4449322,-1.088822
1.821334,-0.595063,-0.852173
1.587737,-0.3360908,-0.4246439
1.423606,0.07481904,-0.1973741
1.263018,0.183889,-0.2657666
1.242884,0.09017557,-0.3539505
1.116202,0.05505494,-0.3254669
0.80965,-0.0534965,-0.2216618
0.6573226,-0.2105972,-0.06906044
0.585906,-0.1534449,-0.01287621
0.5902967,-0.01048204,-0.1084943
0.6790144,-0.01275813,-0.1595997
0.6852254,-0.01422503,-0.1637202
0.7024177,0.003112886,-0.1956504
0.6536191,-0.03017047,-0.1456386
0.5561911,0.01685564,-0.08042492
0.5818083,0.07173736,-0.05628575
0.679737,0.1202624,-0.06096976
0.8379692,0.1802468,-0.1643334
0.8702613,0.1404183,-0.258536
0.7791813,0.1220068,-0.2692773
0.7765489,0.08986411,-0.2629292
0.7382238,-0.05555626,-0.3462193
0.7367368,-0.2513374,-0.5349125
1.029511,-0.4525759,-0.6397058
1.575825,-0.5040066,-0.649087
1.964001,-0.4197732,-0.7019945
1.903924,-0.2966688,-0.7360112
1.684901,-0.1804252,-0.5716291
1.469004,-0.1456979,-0.3297756
1.260903,-0.1350245,-0.2882368
1.159475,-0.1447981,-0.3068056
0.9758808,-0.1286259,-0.2596244
0.7409397,-0.06493106,-0.2249622
0.6583744,-0.0481849,-0.1437229
0.6303339,-0.0525963,-0.09066262
0.6300975,-0.09573419,-0.1311659
0.6428402,-0.1294958,-0.1476468
0.6299466,-0.1103998,-0.1343032
0.6516063,-0.1114506,-0.1261012
0.6876106,-0.1108099,-0.07597007
0.7238584,-0.1342435,-0.03384857
0.7407801,-0.1688743,-0.09683603
0.7886916,-0.1754383,-0.1652892
0.9354942,-0.1957171,-0.1804302
0.9903727,-0.2228573,-0.257449
0.8987354,-0.2323529,-0.331579
0.7951765,-0.1826832,-0.2746873
0.6703837,-0.1056099,-0.2362814
0.6810729,-0.03758699,-0.3632891
1.12195,0.01911364,-0.5986202
1.758884,0.01007373,-0.8867842
1.925324,-0.003222384,-0.982076
1.651634,0.008969987,-0.6566454
1.443174,-0.009938116,-0.290498
1.206359,-0.0403896,-0.2373128
1.019584,-0.08792002,-0.2778753
1.067238,-0.1295724,-0.2507785
0.9378109,-0.1118933,-0.2398085
0.7542064,-0.08067193,-0.2125683
0.7558543,-0.07234594,-0.1549493
0.6805276,-0.03698277,-0.1447446
0.6471145,0.001004849,-0.1325905
0.7156777,-0.0282911,-0.1459178
0.7889957,-0.05435915,-0.2120147
0.8266848,-0.02546019,-0.1919401
0.7229345,0.006485609,-0.1409497
0.6429036,0.04766741,-0.1085405
0.6298164,0.09187183,-0.05310891
0.6893672,0.0786576,-0.07171059
0.8308307,0.04049032,-0.1286973
0.8203695,0.02487575,-0.1966199
0.7043662,-0.004263374,-0.2993607
0.6227186,-0.06318996,-0.3607367
0.7481015,-0.197751,-0.4579105
1.214396,-0.39272,-0.6025091
1.745992,-0.470047,-0.7279151
1.948136,-0.4046653,-0.8216751
1.677651,-0.2915591,-0.6593954
1.355561,-0.1395852,-0.3089212
1.222017,-0.05365369,-0.1898621
1.161948,-0.1114087,-0.2682226
1.195892,-0.1469093,-0.3109936
1.02563,-0.1098428,-0.3085533
0.7873884,-0.09905766,-0.2508164
0.7284853,-0.05497469,-0.1607901
0.5782005,-0.03037656,-0.1418219
0.5604061,-0.07062583,-0.1731715
0.6363049,-0.04657688,-0.1433037
0.6279139,-0.03054078,-0.09394189
0.7002072,-0.03819356,-0.06549226
0.6524905,-0.04278059,-0.01522875
0.5908068,-0.1203114,-0.009338922
0.614921,-0.1679238,-0.03540704
0.6321809,-0.1895384,-0.0641593
0.7531199,-0.2234428,-0.1642999
0.7858841,-0.2058593,-0.3088391
0.7262098,-0.1817173,-0.450353
0.7969591,-0.136097,-0.583312
1.186641,-0.1022978,-0.7852429
1.80622,-0.1468062,-1.013853
1.953311,-0.1481306,-0.9868494
1.58616,-0.002317387,-0.6013357
1.286003,0.1414584,-0.105751
1.137688,0.07631032,0.03239117
1.183266,-0.05633877,-0.2025604
1.280385,-0.114454,-0.3444723
1.102869,-0.1639739,-0.3759049
0.8435195,-0.1222604,-0.2862063
0.6321925,-0.07140445,-0.06247873
0.5520012,-0.1183957,-0.09583539
0.7363124,-0.1005592,-0.1821585
0.7900855,-0.05491162,-0.1338312
0.7043512,-0.01364144,-0.2136843
0.6811106,0.07254756,-0.2052436
0.5419859,0.1120583,-0.1237731
0.5180968,0.1414089,-0.1377166
0.7037199,0.1414268,-0.1195663
0.871405,0.09614893,-0.158876
0.864273,0.09807125,-0.1934641
0.6034035,0.05689527,-0.224703
0.4158703,-0.03483294,-0.3428069
0.4780478,-0.1119453,-0.3808035
0.7286049,-0.2415979,-0.4654231
1.230438,-0.4560789,-0.6868924
1.799482,-0.5880218,-0.8821491
1.94992,-0.4650371,-0.9571065
1.632222,-0.3166391,-0.732822
1.40788,-0.2255747,-0.3202195
1.285564,-0.09599489,-0.1715205
1.129894,-0.1314017,-0.2813126
1.130339,-0.1896648,-0.3028896
1.027597,-0.1517399,-0.2735026
0.8448617,-0.1782037,-0.2669199
0.7304102,-0.1391605,-0.1902741
0.6107934,-0.09008591,-0.1626862
0.637375,-0.07096465,-0.1657155
0.6867915,-0.01503594,-0.1229931
0.6988287,-0.04963404,-0.1342631
0.6989132,-0.07745872,-0.1347848
0.9720823,-0.2764234,-0.159659
1.074534,-0.341198,-0.146283
1.369661,-0.3627367,-0.07731111
1.880475,-0.5240979,-0.05761049
2.109117,-0.6305408,-0.06615296
1.853869,-0.4858081,-0.00193987
1.600419,-0.2859116,0.09733239
1.445554,-0.1592736,0.1511919
1.326182,-0.1455165,0.07391865
1.215183,-0.1461921,-0.0332149
0.9475445,-0.03072233,-0.03036773
0.8231415,-0.02527102,-0.003954219
0.6924694,-0.05845864,0.03546031
0.3971098,-0.009905518,0.05910423
0.4763333,-0.1019364,0.04172608
0.5443394,-0.1415855,0.05908915
0.4787722,-0.09579156,0.07609075
0.6396122,-0.1162655,0.1015514
0.6095669,-0.06302535,0.1215111
0.6080857,-0.0638031,0.1079574
0.7456034,-0.1209393,0.1169732
0.8110803,-0.162998,0.115555
1.051136,-0.2846142,0.1097431
1.16852,-0.3414107,0.1080869
1.095619,-0.2962567,0.09014247
1.033979,-0.2158996,0.09668477
0.9667319,-0.1606575,0.08991117
0.9721142,-0.159599,0.04639346
0.9032169,-0.136191,0.01003802
0.8613645,-0.1333427,-0.0007391144
1.039843,-0.1089974,-0.01902225
1.442782,-0.08653392,-0.1199371
1.895257,-0.2012451,-0.2573894
1.942327,-0.2927806,-0.2591189
1.667603,-0.1895039,-0.05076357
1.406154,-0.03629882,0.1634956
1.201622,-0.03226564,0.1604658
1.076735,-0.07079305,0.1095447
0.9662542,-0.05978567,0.1487014
0.8558255,-0.07377812,0.1007742
0.8297164,-0.0680485,-0.002043176
0.8761875,-0.07193684,-0.0358631
0.9052043,-0.08966828,-0.0676579
0.9033659,-0.08079854,-0.06964589
0.8612161,-0.08386961,-0.01404134
0.7565793,-0.05290535,0.04085787
0.6980836,-0.02528522,0.06812813
0.6898836,-0.007339996,0.04153969
0.6830907,0.05396757,0.03690213
0.7134912,0.1060883,0.09162682
0.7464893,0.1547313,0.1496655
0.7591308,0.1730031,0.1959723
0.7849342,0.1436278,0.1659115
0.8466658,0.1005528,0.06689332
0.86623,0.009183173,-0.04375126
0.7919787,-0.1080042,-0.1254911
0.7530694,-0.2123594,-0.1394775
0.8562835,-0.3298878,-0.1587873
1.176302,-0.4684705,-0.1017318
1.667722,-0.5305749,0.04519192
1.947668,-0.4535423,0.05466925
1.836693,-0.346752,0.03385098
1.680053,-0.2447297,0.09864233
1.570514,-0.1382675,0.1081331
1.363827,-0.09718006,0.05433483
1.204021,-0.07910695,0.001670833
1.003469,-0.03853192,0.04895336
0.7386501,-0.02258293,0.1415526
0.6951891,-0.05060283,0.1401996
0.717048,-0.1179596,0.1302247
0.7025304,-0.1667866,0.12708
0.7437559,-0.1763114,0.1155943
0.7397684,-0.1899579,0.1231643
0.7165832,-0.1474717,0.1098882
0.6755876,-0.06723652,0.1200072
0.6663475,-0.07858691,0.1264445
0.740422,-0.1245082,0.1008602
0.8182584,-0.1442119,0.08558918
0.9225315,-0.1831762,0.05086508
0.9489966,-0.1845825,0.04226388
0.912897,-0.1603888,0.0708071
0.9339198,-0.1732723,0.0861122
0.9140108,-0.1674894,0.08974665
0.9162601,-0.1612553,0.07841505
1.033522,-0.1603662,0.05292106
1.223855,-0.1310224,-0.05298031
1.429251,-0.1319418,-0.2122946
1.611134,-0.1512329,-0.2527045
1.770071,-0.184087,-0.1686221
1.773745,-0.227082,-0.07242381
1.613169,-0.2092151,0.01627376
1.357246,-0.1736804,0.1013037
1.00149,-0.1292209,0.1580498
0.7876123,-0.04050758,0.2085927
0.7511647,0.01199081,0.2040385
0.7257836,0.01168626,0.09689618
0.8012542,0.01377286,-0.01829262
0.9077652,0.01020545,-0.1025701
0.9504265,-0.01554257,-0.1075279
0.9792936,-0.03347764,-0.03606346
0.9101909,-0.01081289,0.02590329
0.7827916,0.03044649,0.1019647
0.708454,0.06276723,0.1336337
0.6930797,0.1194533,0.1248719
0.743319,0.1874868,0.1384225
0.7841727,0.1947751,0.1070844
0.7770969,0.1610641,0.07546022
0.7919934,0.1235386,0.05122624
0.8326902,0.07189537,0.02728541
0.8525716,0.0264568,0.04644069
0.846064,-0.01354458,0.02076967
0.853279,-0.09989656,-0.07306745
0.9090537,-0.2354664,-0.1850548
1.055278,-0.3258924,-0.2006384
1.424251,-0.4291791,-0.08632393
1.870669,-0.643363,-0.01587612
1.887113,-0.6920039,0.00552634
1.677076,-0.508413,0.05306388
1.703009,-0.3322393,0.1106522
1.585161,-0.1426378,0.124986
1.391102,-0.08829932,0.06044585
1.353027,-0.1290202,0.03957508
1.074135,-0.01441076,0.05435916
0.8327781,-0.01813074,0.03404455
0.8325354,-0.07168803,0.04054744
0.7891245,-0.05916346,0.02730235
0.7384749,-0.1670687,0.007647695
0.7040685,-0.1494416,0.02516149
0.7465433,-0.1183852,0.04854542
0.7279108,-0.1546458,0.09656709
0.6899108,-0.06351543,0.1198781
0.7769359,-0.08040062,0.1091141
0.7376626,-0.104397,0.1102965
0.7314939,-0.09088666,0.1149359
0.7491579,-0.1988082,0.1289245
0.7402183,-0.247787,0.1393708
0.8742133,-0.2595791,0.1303851
0.8978924,-0.2495212,0.1289179
0.8942895,-0.2066675,0.1864793
0.8622662,-0.1749785,0.2480798
0.7314877,-0.09403359,0.2006513
0.7677491,-0.07550058,0.06593307
0.9454825,-0.119542,-0.1288741
1.350046,-0.1937675,-0.3511422
1.790919,-0.3811754,-0.5176527
1.867189,-0.5750224,-0.540306
1.760165,-0.6077975,-0.2965179
1.685408,-0.4065433,-0.01029122
1.589219,-0.145424,-0.03787628
1.365952,-0.03065465,-0.1300336
1.158934,0.006467844,-0.06985913
1.06539,0.003209254,-0.06586887
0.9803707,-0.07886532,-0.06268005
0.9505227,-0.1701924,-0.02325604
0.8907504,-0.187868,-0.0415288
0.8159388,-0.1419281,-0.01537891
0.833973,-0.1022704,-0.01794408
0.8198883,-0.09707697,-0.06325877
0.7956896,-0.1140191,-0.03446287
0.7929273,-0.1298455,-0.02301635
0.8052462,-0.1159895,-0.008671985
0.8512504,-0.08209971,0.01350909
0.8452125,-0.04152967,0.005322997
0.8038166,0.01585228,0.06080869
0.7604283,0.06417353,0.1205833
0.743082,0.09516685,0.1449519
0.7651416,0.1305412,0.1556502
0.7731665,0.1531612,0.1380501
0.8325318,0.1571107,0.1404097
0.9180396,0.1394402,0.1185858
0.905047,0.08878511,0.04666376
0.8296269,-0.04486245,-0.1069802
0.7805778,-0.2681077,-0.3512041
0.9008453,-0.3989947,-0.3829997
1.357828,-0.492465,-0.1326357
1.845913,-0.6887647,0.01853426
1.809851,-0.6460584,-0.03201284
1.632238,-0.3527516,-0.04003819
1.799574,-0.1743971,0.08308126
1.779945,-0.08549696,0.1599983
1.595711,-0.1286364,0.09093077
1.49365,-0.1940797,0.04006593
1.206254,-0.09808811,0.07449104
1.056815,-0.05587078,0.0698355
0.835886,0.05523624,0.02326237
0.4378838,0.1555063,-0.0009781959
0.5155633,0.02296941,-0.003656717
0.5379293,-0.02809812,0.0251466
0.454267,-0.08153654,0.06306415
0.6724198,-0.1554634,0.07273698
0.637428,-0.09274655,0.09491444
0.5798405,-0.09472557,0.1415476
0.6175786,-0.08200405,0.1622032
0.5322076,-0.08618191,0.1410097
0.697695,-0.185373,0.1037446
0.9278905,-0.2438775,0.07214024
1.007779,-0.316107,0.04565789
0.965024,-0.3271903,0.04668151
0.8686273,-0.2476168,0.04340761
0.9104073,-0.1635923,-0.03448738
0.9423995,-0.07795447,-0.1237116
1.164619,-0.05073828,-0.1698869
1.649974,-0.07920847,-0.2450306
1.87061,-0.1945887,-0.3028813
1.805077,-0.3083169,-0.1370846
1.707829,-0.2216445,0.1366371
1.606586,-0.06474492,0.1685411
1.451483,0.001440361,0.06601345
1.259646,0.0144935,0.05955282
1.068151,0.0001552294,0.09131931
0.878415,-0.027747,0.1108019
0.8099913,-0.05738998,0.08140847
0.7995398,-0.08180504,0.03669236
0.7513068,-0.09256489,0.0022357
0.7524084,-0.104737,-0.06170375
0.757254,-0.1044465,-0.050196
0.7410573,-0.08795027,0.01431365
0.7304183,-0.07209806,0.03830308
0.7392586,-0.01573576,0.06650683
0.7674152,0.04860967,0.04792103
0.7770191,0.08375903,0.01899489
0.799359,0.1358214,0.07514316
0.8103584,0.1591414,0.1260895
0.8010804,0.1453032,0.1375656
0.8018234,0.1270333,0.1200948
0.7858216,0.06484849,0.06291842
0.7817307,-0.03230241,-0.03732306
0.8260648,-0.1459704,-0.1896133
1.028461,-0.2836449,-0.2079594
1.457796,-0.443449,-0.06885548
1.810317,-0.555131,-0.02909775
1.79801,-0.5404832,-0.0469272
1.636308,-0.4478461,0.01094423
1.538011,-0.328853,0.1196573
1.406513,-0.2457829,0.1760232
1.310483,-0.2413681,0.06247644
1.237712,-0.22303,-0.02775499
1.040231,-0.1606857,0.03781839
0.8897887,-0.09828473,0.08906503
0.8393907,-0.06907499,0.1047605
0.7820535,-0.08132531,0.1074839
0.7295675,-0.0715513,0.08402791
0.7004142,-0.06007391,0.08309578
0.7342792,-0.07608065,0.08730664
0.7332614,-0.06552644,0.08885161
0.713224,-0.04887427,0.1216543
0.7595026,-0.0311195,0.1600646
0.7489902,-0.01823607,0.1618396
0.7518794,-0.06684875,0.1409811
0.8045463,-0.1524577,0.1248174
0.8596386,-0.2296679,0.1080944
0.9259599,-0.2533012,0.08540175
0.8407137,-0.2222903,0.06304283
0.6968701,-0.1934704,0.04172261
0.6798784,-0.1269947,-0.00558132
0.8267704,-0.03058297,-0.09623925
1.260075,-0.0135198,-0.2044598
1.790975,-0.1043184,-0.3335972
2.029488,-0.2910277,-0.3708426
1.933844,-0.4015217,-0.1086233
1.71742,-0.1986978,0.2019822
1.412708,0.03597838,0.1877814
1.091619,-0.04975015,0.1079841
0.9881253,-0.1602055,0.1676264
0.8926657,-0.1717501,0.1469374
0.7786889,-0.2692374,0.08086819
0.8516615,-0.2574823,0.04822792
0.8197412,-0.1450721,-0.01683418
0.7736868,-0.0774292,-0.02844803
0.8445824,0.01085747,-0.02570508
0.8103449,0.01651413,-0.03692818
0.8374333,0.03833917,0.04518713
0.8710425,0.1282789,0.1045971
0.8249083,0.132569,0.08356749
0.8416754,0.1719163,0.06482941
0.8114755,0.2035902,0.06235824
0.7916021,0.1951001,0.0955936
0.800973,0.250791,0.1429227
0.7869278,0.2573726,0.1729366
0.8480352,0.2051057,0.1451493
0.8786665,0.09656501,0.08523621
0.8175153,-0.05267714,0.05057237
0.7323298,-0.1417952,-0.02512481
0.6890281,-0.2616413,-0.177815
0.7443193,-0.4455119,-0.3775199
0.9880382,-0.5911544,-0.4242625
1.496827,-0.7007839,-0.2121155
1.833237,-0.7232991,-0.02778774
1.744929,-0.4867817,-0.01754353
1.771074,-0.1301732,-0.1331123
1.952495,-0.01437823,-0.2430766
1.877961,-0.1214104,-0.1849935
1.698762,-0.1845677,-0.09451473
1.462584,-0.1368487,-0.04971749
1.090205,-0.09368657,-0.02722182
0.8467937,-0.05398085,-0.06561479
0.6923348,-0.03811627,-0.05552037
0.6038314,-0.1455262,-0.01783813
0.6886757,-0.2619187,-0.004427321
0.6996111,-0.3396441,0.02924338
0.6927626,-0.3441044,0.01277472
0.7585287,-0.2622262,-0.005341583
0.7563763,-0.2455542,0.007859868
0.7889349,-0.1924873,0.01225834
0.8120747,-0.1225149,0.06343131
0.7892184,-0.1076513,0.09749952
0.7897238,-0.03121529,0.09507785
0.7525101,-0.008364365,0.1001153
0.7405012,-0.01580136,0.07217747
0.7663154,-0.02231693,0.05336105
0.8136366,-0.0912284,0.05706629
0.9221324,-0.1090537,0.06580305
0.9705619,-0.1166894,0.09202188
0.8685913,-0.1177909,0.1049145
0.7450281,-0.08941216,0.08620643
0.7828221,-0.07493136,0.009318618
0.9596399,-0.03937144,-0.09684614
1.204695,-0.1074483,-0.1682078
1.618024,-0.3781823,-0.2467597
2.036359,-0.6668854,-0.3445068
1.95019,-0.6197755,-0.2974823
1.528149,-0.2828373,-0.05455095
1.428397,-0.09875304,0.1055523
1.478309,-0.1066236,0.04390868
1.408869,-0.1698484,-0.05122215
1.238518,-0.2074347,-0.04819098
0.8882739,-0.1860796,0.01790874
0.7799957,-0.1986205,0.06563834
0.8068721,-0.1274534,0.05021253
0.6363616,-0.04484321,-0.004950476
0.7122625,-0.07690552,-0.02446252
0.8343626,-0.06765657,-0.03681421
0.7578055,-0.06119437,-0.04253755
0.7551313,-0.06023908,0.02478385
0.7399367,-0.03563957,0.04859783
0.7407676,-0.03211352,0.03452634
0.8078974,-0.01761458,0.02648205
0.8333611,-0.02641289,-0.004196259
0.8312159,0.02082853,0.05862006
0.8480274,0.1514392,0.1577832
0.8985699,0.2500407,0.1864226
0.9011547,0.2240018,0.09139601
0.8528425,0.07661475,-0.07239614
0.7876311,-0.03621156,-0.09314035
0.6779201,-0.1359951,-0.09762914
0.6208305,-0.2809516,-0.1783772
0.7326609,-0.4209813,-0.1843491
1.054801,-0.5068215,-0.1349543
1.570786,-0.4875495,-0.07118645
1.97754,-0.4814392,-0.04578207
1.965838,-0.467989,-0.05627993
1.794333,-0.372062,0.01110699
1.625291,-0.2688759,0.159741
1.306242,-0.159389,0.2479468
1.134387,-0.1345749,0.1577717
1.108055,-0.1161058,0.04990105
0.9006553,0.005977891,0.06041093
0.7917894,0.04288951,0.06509937
0.7591509,0.004723776,0.05577858
0.588918,-0.03164716,0.06738424
0.5829602,-0.09166492,0.06178885
0.6523508,-0.1111189,0.07302264
0.6114347,-0.07767297,0.09749933
0.6482206,-0.04860583,0.1222832
0.6959476,-0.06249333,0.1566912
0.6939022,-0.08051754,0.1787802
0.7443152,-0.1079439,0.1905769
0.8198151,-0.1795399,0.1654674
0.9099816,-0.2229751,0.101601
0.9647796,-0.216794,0.04770446
0.9430819,-0.2031837,0.03108214
0.9034784,-0.2007409,0.08145264
0.788344,-0.1778122,0.1161865
0.6448773,-0.1287644,0.02897471
0.6666654,-0.0956845,-0.1209873
0.9785632,-0.07447205,-0.2554126
1.585589,-0.155424,-0.370744
2.012327,-0.4019848,-0.4223667
1.904024,-0.5730124,-0.2203598
1.643464,-0.3416193,0.1784938
1.411277,0.04433027,0.3084504
1.167361,0.05082949,0.1438132
1.054532,-0.05948991,0.0957169
0.9067137,-0.0261554,0.1661721
0.7111953,-0.096838,0.1527198
0.7126458,-0.1376279,0.05277642
0.7555509,-0.1205779,-0.04308366
0.7875878,-0.1328378,-0.06478162
0.9004781,-0.07906228,-0.05434255
0.9321767,-0.04736105,-0.04332948
0.8657399,0.003213984,0.01582044
0.7789187,0.05766477,0.07821843
0.7020524,0.0790828,0.1041998
0.6795096,0.1760215,0.1483592
0.7085366,0.2418401,0.1820996
0.7623423,0.2513449,0.1816916
0.7741822,0.2330852,0.172296
0.7980448,0.1564529,0.1009172
0.838505,0.05800896,-0.01000231
0.7710904,-0.08119727,-0.09608986
0.6729381,-0.2528451,-0.1851379
0.6810147,-0.4110341,-0.2211086
0.9489663,-0.4812284,-0.1132548
1.516416,-0.516645,0.01822685
1.969814,-0.5447872,0.03862979
1.96903,-0.4403234,0.02481971
1.79655,-0.3175406,0.05826517
1.67165,-0.2139298,0.1373099
1.421669,-0.1365714,0.1845496
1.22599,-0.1500655,0.1403228
1.126182,-0.0617231,0.08944977
0.8311195,0.03266586,0.05455004
0.6147339,0.02519356,0.03494949
0.5912082,0.0305495,0.05038168
0.5757474,-0.02465566,0.05196415
0.6094916,-0.07457222,0.06213707
0.5737375,-0.09032952,0.06987595
0.5623591,-0.1073023,0.06543464
0.6329742,-0.09987285,0.09792342
0.6768973,-0.1638469,0.1102104
0.8439927,-0.2345167,0.09808012
0.9643229,-0.2524976,0.09576356
0.9427009,-0.2468259,0.08320693
0.9356398,-0.2259619,0.08689706
0.8991029,-0.2204021,0.09571537
0.903789,-0.1783025,0.09279116
0.9222266,-0.1457644,0.08257253
0.9287928,-0.09931217,0.02596702
1.025278,-0.02358448,-0.04753742
1.28487,-0.08102387,-0.1098288
1.791231,-0.1911838,-0.2210121
2.078614,-0.2572449,-0.2634591
1.874296,-0.2460233,-0.05826176
1.750123,-0.1342462,0.1472944
1.687962,-0.08965046,0.1160865
1.343504,-0.09717733,0.1021615
1.080482,-0.09162823,0.1808607
0.977964,-0.0983356,0.1641806
0.8185504,-0.0750122,0.09388574
0.744314,-0.08269268,0.01743474
0.738318,-0.09009238,-0.04037839
0.7402029,-0.06986451,-0.04530519
0.7752582,-0.07667826,-0.04903609
0.7740647,-0.03767353,0.01070298
0.7367235,0.004687549,0.09423378
0.6685224,0.02195443,0.08849276
0.6867091,0.08400063,0.07546515
0.7597731,0.1426051,0.06838371
0.7776561,0.1270322,0.05894592
0.830353,0.08233509,0.07200756
0.7762957,0.1090358,0.0846501
0.6769095,0.1152598,0.1082879
0.7041831,0.06449072,0.07832124
0.7200903,-0.0005969598,-0.0484493
0.8129269,-0.1678986,-0.2003114
1.035551,-0.3075345,-0.2211569
1.402413,-0.4343894,-0.05587623
1.848482,-0.5983832,0.03906641
1.921308,-0.4987282,-0.03130809
1.755561,-0.3276597,-0.03643303
1.759278,-0.3101454,0.1311569
1.666064,-0.2042,0.27338
1.497822,-0.1517808,0.1787085
1.459331,-0.1970664,0.03618405
1.209441,-0.1162,0.01201619
0.8277873,-0.05774539,-0.009172805
0.6323746,-0.01583876,-0.001332656
0.5254385,0.06984345,0.03534278
0.5273901,0.00679755,0.04435485
0.5766446,-0.09672387,0.06223988
0.5719878,-0.1115598,0.06845609
0.5789305,-0.1318816,0.1061523
0.5510018,-0.155261,0.176772
0.5689129,-0.1899767,0.1942972
0.7293786,-0.2309436,0.1529421
0.9567282,-0.2076963,0.04319495
1.051348,-0.1738068,-0.02405355
0.9584412,-0.1744897,0.04124524
0.9265957,-0.1331671,0.1049691
0.8812539,-0.07748035,0.09661889
0.7734388,-0.05720472,0.0374179
0.8624443,-0.02996122,-0.03970271
1.139701,-0.04743163,-0.1370964
1.650788,-0.1705269,-0.3843619
2.093789,-0.3825774,-0.6023673
1.894113,-0.4805182,-0.257547
1.445342,-0.2307306,0.3344378
1.170655,0.06008865,0.3629845
0.9884915,0.09094864,0.1833002
0.9988651,0.07751845,0.2066852
0.9716217,-0.002048121,0.1039696
0.867285,-0.2050412,-0.01314102
0.9113967,-0.2155389,-0.02135071
0.8892585,-0.1140656,-0.04303744
0.8749979,-0.1102104,-0.06930766
0.8915066,-0.06372746,-0.0787487
0.809794,-0.03762076,0.001226906
0.758298,0.0002500132,0.06531314
0.6744754,0.128511,0.08565162
0.6973856,0.106727,0.09223419
0.7992299,0.06926903,0.04026185
0.8001085,0.1198408,0.04839698
0.8465471,0.0537537,0.03036757
0.8057633,0.005099641,-0.008250856
0.7385829,-0.0136461,0.00444324
0.7292747,-0.08889687,-0.0430923
0.6347584,-0.1361781,-0.07283081
0.6412786,-0.2296564,-0.1324793
0.7918511,-0.3449112,-0.1895581
1.161553,-0.4431519,-0.122527
1.721464,-0.5398575,-0.0252256
2.010151,-0.5177397,0.08044589
1.782089,-0.3037069,0.06012743
1.668126,-0.1741955,0.1183595
1.50491,-0.06925749,0.0555749
1.322414,-0.05220991,-0.07104583
1.152689,-0.06116058,-0.06623132
0.8898507,-0.03165668,-0.05550737
0.630149,-0.01742889,-0.006878175
0.5359604,-0.03905634,0.0583909
0.4996756,-0.08978291,0.05402147
0.5462352,-0.1320632,0.06914575
0.6075237,-0.1276068,0.07187489
0.589585,-0.1027042,0.09856631
0.6249869,-0.07353974,0.1555611
0.6441574,-0.0602144,0.1653782
0.6518665,-0.07389288,0.1452183
0.7105677,-0.1067662,0.07467737
0.7683452,-0.1499508,0.03432627
0.9210761,-0.2100705,0.05917812
1.074502,-0.3014248,0.0585419
0.9940772,-0.3302002,0.009057452
0.8175182,-0.2563106,-0.04625948
0.7733151,-0.2063115,-0.05201035
0.8344829,-0.1964527,-0.1256381
1.223433,-0.1520661,-0.2903663
1.876028,-0.1169042,-0.4298796
1.974602,-0.1126316,-0.4924172
1.64471,-0.04787515,-0.2290756
1.489234,0.03106994,0.1387876
1.297466,-0.04534798,0.0372988
1.180568,-0.1809783,-0.07109704
1.146399,-0.1812424,0.1464343
0.8933853,-0.1216806,0.1453539
0.7553411,-0.07006745,0.0596126
0.7883839,-0.03020313,0.03816718
0.7983297,-0.03899758,-0.09040099
0.8642257,-0.02813754,-0.0573866
0.8813689,-0.01463627,-0.006478183
0.8321355,-0.02515074,-0.02264407
0.7580072,-0.0007691526,0.06045906
0.6930909,0.03050946,0.05798667
0.7311275,0.08698215,0.06589793
0.7716703,0.1389481,0.08677506
0.8339585,0.1143774,0.03956814
0.9249247,0.05827756,0.04432215
0.8957223,-0.0210669,0.003607611
0.8016181,-0.09605229,-0.06121962
0.7396343,-0.1510657,-0.1332083
0.7962094,-0.2645585,-0.201247
0.99575,-0.4178678,-0.1758587
1.237675,-0.4930795,-0.1587111
1.57987,-0.4510441,-0.09635684
1.878324,-0.3621331,0.005489879
1.630927,-0.2078801,0.01531869
1.196187,-0.02876901,0.02986734
1.291928,-0.04935444,0.04260187
1.279983,-0.1275408,0.001632283
0.9023611,-0.0576891,0.01461907
0.8023281,-0.03924783,0.08164325
0.7041048,-0.0377754,0.1310971
0.6571953,-0.01974188,0.1455118
0.8280188,-0.09860098,0.1099325
0.7889757,-0.09808148,0.09283983
0.7705509,-0.08715907,0.1168058
0.7446661,-0.1292174,0.1095962
0.66896,-0.09871423,0.1069059
0.7792738,-0.1329925,0.1029783
0.8058191,-0.1827404,0.08390906
0.8561183,-0.2003482,0.0908057
0.9081564,-0.2474698,0.08374048
0.8303579,-0.2292917,0.07178512
0.822881,-0.2158015,0.05246957
0.8330725,-0.2158223,-0.005071469
1.083396,-0.1827669,-0.1395167
1.499537,-0.1725731,-0.3625203
1.593724,-0.1696793,-0.4183767
1.490884,-0.1609294,-0.1915032
1.482332,-0.08198459,0.07808097
1.516228,0.0119175,0.186883
1.469078,0.01035279,0.03159571
1.408081,0.008090425,-0.1327792
1.258611,-0.009319442,-0.03004123
1.038676,-0.0848574,0.01679233
0.908214,-0.1188747,-0.04843534
0.7162747,-0.1423071,0.01272144
0.703194,-0.1616651,0.007031031
0.8764496,-0.097515,-0.02388255
0.8120443,-0.04376734,0.03222738
0.7937192,-0.02069632,0.02690465
0.7938433,0.04085997,0.05566228
0.634102,0.1147246,0.08733752
0.648961,0.2066554,0.02828377
0.7141383,0.2309256,-0.002897537
0.7772123,0.1882649,0.02019577
0.8771347,0.1713605,0.08300854
0.8129619,0.1184416,0.1134043
0.7862655,0.06179098,0.05466365
0.8520422,-0.03732206,-0.07709322
0.8982892,-0.1978114,-0.2159242
1.053595,-0.3110865,-0.2414358
1.322189,-0.489133,-0.2190162
1.581746,-0.6521697,-0.1783319
1.638768,-0.6147044,-0.05970152
1.522937,-0.4541339,0.003983101
1.477402,-0.2214127,-0.03167726
1.491446,-0.07661281,-0.03980722
1.46328,-0.1123159,-0.01564567
1.357646,-0.1370811,-0.02472094
1.164441,-0.1276145,-0.02192656
0.9437833,-0.09778089,-0.00151384
0.778326,-0.004871186,0.001648018
0.7017632,0.02000905,0.01987543
0.6979915,-0.01917805,0.007870219
0.7455498,-0.06214689,-0.01424757
0.7895385,-0.1480354,0.01602645
0.7999756,-0.1732243,0.0470899
0.7905432,-0.1313859,0.07811686
0.7756642,-0.1203305,0.07954949
0.7804896,-0.1161621,0.0512695
0.7852535,-0.1488783,0.06209221
0.7987879,-0.218127,0.0815013
0.8372557,-0.2419316,0.1215789
0.8583571,-0.2490011,0.163457
0.8596577,-0.2503463,0.1492075
0.8255522,-0.1946703,0.1464723
0.7500965,-0.1208839,0.1401166
0.6860987,-0.06240238,0.04405791
0.6673595,-0.02398698,-0.1152036
0.8189274,-0.05252521,-0.2559343
1.385661,-0.2219683,-0.4283886
2.062134,-0.5294355,-0.6793595
2.039336,-0.6437542,-0.6838615
1.652572,-0.3425969,-0.3475322
1.625107,-0.01619096,-0.05566406
1.501751,0.02604156,0.06946547
1.321145,-0.02900547,0.0113897
1.262171,-0.01127871,-0.07150303
1.01045,-0.005959022,0.01657331
0.9880734,-0.08147287,-0.00617277
0.8924527,-0.1305746,-0.03566165
0.5972148,-0.1111855,0.0380324
0.7717503,-0.0964923,-0.0348281
0.809623,-0.1044816,-0.06035036
0.7285991,-0.1194697,-0.0583144
0.9074894,-0.1272118,-0.06489921
0.9004748,-0.1144585,0.05613738
0.9594427,-0.08919918,0.08758673
0.9889758,-0.0735427,0.06707525
0.8767589,-0.02878876,0.06508126
0.869002,0.05928076,0.06661461
0.6918931,0.1192217,0.1225168
0.5795454,0.1761348,0.1502189
0.6592943,0.2381947,0.1999446
0.7417459,0.243382,0.204113
0.9138483,0.2029288,0.1270635
0.9396382,0.1042016,0.0423016
0.8147806,-0.05662826,-0.1128989
0.8070209,-0.2575099,-0.2562873
1.015908,-0.4955255,-0.3273726
1.480848,-0.69854,-0.2347068
1.878458,-0.7405455,-0.04684805
1.88348,-0.5786172,0.01003737
1.663184,-0.3294859,0.08913926
1.504418,-0.1247636,0.1241871
1.423654,-0.069239,0.006745404
1.322483,-0.132233,-0.01082558
1.166857,-0.1125422,0.05072928
0.9611053,-0.05379777,0.1109767
0.7929958,-0.05733897,0.1385056
0.7216707,-0.06879172,0.1099046
0.7439474,-0.1246887,0.1257064
0.7895478,-0.1590444,0.1144391
0.7762965,-0.1338264,0.08029544
0.7456408,-0.1127692,0.09462756
0.6650421,-0.04930085,0.1217746
0.5633302,-0.01095165,0.1914726
0.5417633,-0.02471651,0.2097835
0.558025,-0.02119733,0.1492954
0.66236,-0.05489201,0.1247402
0.8616168,-0.1437178,0.1296673
1.040874,-0.2459871,0.1522856
1.132195,-0.2765925,0.1514498
1.111885,-0.2161835,0.09101822
1.029983,-0.1413374,-0.0003359971
0.8771178,-0.03187624,-0.08330383
0.7422543,0.05770237,-0.121621
0.7962475,0.04016165,-0.1625623
1.066276,-0.05365844,-0.2367545
1.552203,-0.2597423,-0.3476818
1.951587,-0.5336689,-0.4133168
1.926087,-0.6189145,-0.2901186
1.659408,-0.3646746,-0.0480527
1.317241,0.00196897,0.1732777
0.9631299,0.143028,0.2258058
0.8304012,0.08808962,0.1212961
0.8672279,-0.01230023,0.08835526
0.9143038,-0.1513121,0.03796884
0.9887179,-0.2040973,-0.07334951
0.9828456,-0.1501359,-0.08256029
0.9140916,-0.1315561,-0.07056
0.8700919,-0.08098741,0.002526038
0.7801573,0.003112723,0.1310024
0.7250662,0.0008751699,0.137558
0.6982916,0.02550965,0.104637
0.6540033,0.1177848,0.09031868
0.7379677,0.1213541,0.07223824
0.8858546,0.05194225,0.07510527
0.9474863,0.01448202,0.07586469
0.8823451,0.02263844,0.06181899
0.7615898,0.02971728,-0.002181595
0.738083,-0.03153745,-0.1144007
0.7654017,-0.1514078,-0.2130408
0.8701121,-0.3020751,-0.2241807
1.182073,-0.4354493,-0.145637
1.582881,-0.470096,-0.07736659
1.851544,-0.4490692,-0.04354561
1.815699,-0.4089947,-0.01400597
1.592486,-0.3008535,0.0515345
1.394541,-0.1613309,0.1167958
1.231914,-0.1085937,0.06470503
1.170121,-0.1414063,-0.01730366
1.095865,-0.1221392,-0.002056312
0.909527,-0.06746648,0.0461241
0.7910119,-0.0341237,0.07048621
0.7083267,0.005059224,0.06975776
0.6655037,-0.006058058,0.05803984
0.7039596,-0.02183237,0.07611469
0.7004679,-0.02034922,0.1023411
0.7028609,-0.06556771,0.1146574
0.7020301,-0.07026074,0.1266157
0.6860862,-0.06781156,0.1097181
0.7538927,-0.1353852,0.07654385
0.8431437,-0.2021004,0.04252133
0.8897913,-0.2380608,0.03510405
0.8747183,-0.2343386,0.06046357
0.7910636,-0.2101106,0.02516268
0.67468,-0.1447707,-0.03936211
0.6685732,-0.04659436,-0.1447253
1.008429,-0.06228439,-0.3355954
1.56023,-0.1797149,-0.4640084
1.840436,-0.2571188,-0.4497529
1.796935,-0.2165047,-0.2086926
1.856503,-0.09344792,0.130593
1.905042,-0.01349156,0.1796591
1.580184,0.02910842,0.05783504
1.186516,0.07233831,0.0642558
0.9722222,0.06449463,0.08914623
0.9368471,0.005357928,0.06051253
0.9300346,-0.04648749,0.04568016
0.7945197,-0.0555363,0.01820094
0.8513768,-0.05837415,-0.003998839
0.8920837,-0.06791734,0.001354692
0.7662725,-0.06585647,0.009896325
0.8254835,-0.05137121,0.06315738
0.7699409,-0.005116856,0.1212258
0.7197373,0.07306874,0.1598587
0.8178076,0.1648332,0.1989331
0.7857079,0.2193839,0.1614907
0.8400389,0.2304527,0.1186086
0.8269242,0.2337848,0.1230578
0.7608486,0.1915512,0.1060088
0.8256176,0.08291463,0.09772432
0.7883373,-0.06614432,0.03817903
0.8182894,-0.2092901,-0.154797
0.9945448,-0.4232599,-0.3877985
1.328125,-0.7465827,-0.4459933
1.663245,-0.8615278,-0.2503462
1.621553,-0.6440316,-0.059901
1.583469,-0.3366771,-0.03553218
1.714087,-0.09728624,-0.07293991
1.69744,-0.03979449,-0.1085608
1.588514,-0.1051038,-0.1206679
1.357322,-0.09268695,-0.08474501
1.041507,-0.05715545,-0.0003565118
0.8554867,-0.08154991,0.07261665
0.7583361,-0.1085046,0.1036157
0.7359135,-0.1803262,0.110916
0.8043409,-0.2794766,0.06744706
0.8425467,-0.3129095,0.01962626
0.8283758,-0.3094647,0.00527254
0.7838779,-0.254783,0.01588924
0.7247485,-0.1470559,0.07143432
0.7062778,-0.05313949,0.1264904
0.7060415,0.003587449,0.1583208
0.6780458,0.0432732,0.1612967
0.6379151,0.1367686,0.1573063
0.6400219,0.1886374,0.1626755
0.6917181,0.1481774,0.09986755
0.7724414,0.1351493,0.02693408
0.9067679,0.02191935,0.0201094
1.03182,-0.2163648,0.05535871
1.040732,-0.3632041,0.1249685
0.9624899,-0.3631227,0.1496571
0.8868153,-0.2852646,0.04899043
0.8919172,-0.2318964,-0.1690975
1.157885,-0.2253551,-0.3723827
1.678957,-0.3353294,-0.4821732
1.93596,-0.5500868,-0.5021426
1.704464,-0.5606921,-0.2475
1.414707,-0.3245348,0.1452532
1.251464,-0.08358292,0.1852045
1.193129,-0.03520821,-0.03392465
1.254088,-0.1834519,-0.1266583
1.162478,-0.2400779,-0.1056341
0.8915505,-0.1813099,-0.02611102
0.691168,-0.1623773,0.06754635
0.6097414,-0.1222749,0.04918318
0.6496436,-0.08226441,0.02204034
0.6580605,-0.06541226,0.03849822
0.6544288,-0.03600374,0.01966582
0.7896333,-0.01178216,0.04673449
0.8733942,0.01960833,0.08788737
0.903017,0.06356061,0.05738607
0.9029985,0.0869497,0.03566388
0.8675258,0.08043232,0.05294569
0.9145179,0.106528,0.1043358
0.9124816,0.140148,0.2039458
0.9136845,0.124961,0.2654081
0.9177958,0.1183781,0.2344933
0.781009,0.09468606,0.1692582
0.6608352,-0.003806922,0.04498882
0.6348089,-0.1599951,-0.1275
0.7509751,-0.3285087,-0.2132178
0.9728608,-0.4622296,-0.1853181
1.270886,-0.5408164,-0.05988506
1.661924,-0.5223239,0.05529754
1.86504,-0.4329484,-0.01862238
1.848093,-0.3385675,-0.08058759
1.674425,-0.2428522,0.08555388
1.370828,-0.1617647,0.2029044
1.255141,-0.1090436,0.1247499
1.229741,-0.09149719,0.04402983
1.027145,-0.0667732,0.007862767
0.8227738,-0.007577226,0.01766247
0.7241498,0.003665388,0.07526314
0.6346088,-0.02403991,0.09633941
0.569575,-0.04306237,0.1193001
0.6070931,-0.07824289,0.1373551
0.6689615,-0.09545964,0.09703608
0.6985338,-0.07601878,0.096381
0.7660233,-0.05068056,0.1290276
0.8084282,-0.04256857,0.1405609
0.7577051,-0.08061595,0.1492189
0.7271964,-0.1591157,0.1500045
0.7922141,-0.2352881,0.1553448
0.8859254,-0.2750985,0.08686261
0.9510519,-0.2891878,-0.02226609
0.9626002,-0.2686766,-0.01366113
0.8893743,-0.1622636,0.006370481
0.8927608,-0.01983742,-0.04905377
1.265074,0.01701985,-0.1377102
1.827164,-0.0606632,-0.2937024
2.004028,-0.1272681,-0.354569
1.83803,-0.1357764,-0.1047763
1.743707,-0.04510871,0.1463691
1.546928,0.07332395,0.0326926
1.211837,-0.005369345,-0.05976638
1.003842,-0.1227368,0.09602314
0.76572,-0.1163605,0.1331503
0.5769405,-0.1724934,0.1214342
0.6062473,-0.1984056,0.126647
0.6874763,-0.1329274,0.01752805
0.8490328,-0.100567,-0.01131973
0.9489609,-0.03398803,-0.02724727
0.8540026,0.02754828,-0.05053001
0.7151835,0.08007188,0.05222304
0.5744916,0.173075,0.08619969
0.6271166,0.1765236,0.05459484
0.8125488,0.1064719,0.04277292
0.8438227,0.0684825,0.05425714
0.8288108,0.07648995,0.08937302
0.7772603,0.08998602,0.04584979
0.6714332,0.07511552,-0.01433627
0.6734857,0.0262748,-0.07742417
0.8474582,-0.1816988,-0.1324945
1.146041,-0.4376731,-0.1173181
1.490284,-0.4492623,-0.06454934
1.899757,-0.438975,0.03676958
2.029151,-0.520277,-0.0001133608
1.806891,-0.3951175,-0.0746675
1.725062,-0.2248372,0.06300132
1.454254,-0.1331735,0.1264823
1.107392,-0.01693649,0.09451915
1.129687,-0.04400338,0.09532651
0.9237265,-0.07421953,0.06594839
0.7463808,-0.04290094,0.1018608
0.8153296,-0.1186572,0.1312798
0.7208476,-0.1451156,0.1121059
0.7791222,-0.147163,0.08520523
0.7985587,-0.1401877,0.03267795
0.724891,-0.06202195,0.05114951
0.7591275,-0.006057566,0.08893039
0.6554701,0.05854652,0.1063934
0.6327495,0.03755137,0.1359632
0.6365397,-0.05315315,0.1276728
0.6379656,-0.1141766,0.1322538
0.8063695,-0.1889765,0.1314669
0.8856575,-0.1926043,0.07514139
0.9079635,-0.1802629,0.03390752
0.8824417,-0.1657903,0.0249792
0.8642564,-0.09854791,-0.01134918
1.060867,-0.06725851,-0.1137451
1.479948,-0.06907309,-0.2520623
1.96682,-0.2231124,-0.3692099
1.974248,-0.398717,-0.3213189
1.607865,-0.2471823,-0.02840489
1.401176,-0.02973044,0.229751
1.27174,-0.02707076,0.1901327
1.290607,-0.06402896,0.02184006
1.286431,-0.08034891,-0.02435565
1.024661,-0.09778379,-0.003792947
0.8450328,-0.08418009,0.008552889
0.7222029,-0.09527989,0.03955441
0.6597708,-0.1090841,0.01628481
0.7322509,-0.09106966,-0.01709095
0.723498,-0.07780733,-0.01861389
0.7607514,-0.03764861,-0.03273641
0.7950609,0.000754314,-0.007263084
0.722618,0.02261885,0.02242003
0.6907356,0.07583647,0.06654788
0.6426934,0.1265128,0.1026726
0.684579,0.1586565,0.06670786
0.796459,0.1546218,0.06215556
0.8185126,0.08096646,0.02591512
0.8304195,-0.0320166,-0.06193201
0.7746981,-0.09876777,-0.1115617
0.734993,-0.114908,-0.1600698
0.9179894,-0.239209,-0.1649495
1.335806,-0.4582143,-0.1483193
1.816587,-0.5574918,-0.1269794
1.942963,-0.5007126,-0.06010384
1.698549,-0.3587141,0.002557122
1.496892,-0.1622371,0.07382379
1.395888,-0.06291906,0.1009032
1.321534,-0.1337806,0.05519768
1.262777,-0.1525463,0.04417028
1.058179,-0.1058923,0.06240152
0.8015354,-0.1294583,0.06452281
0.7113687,-0.1113092,0.04575855
0.6833008,-0.09541296,0.01804792
0.6730693,-0.1153545,0.008916888
0.6695225,-0.05378399,0.01391493
0.5906654,-0.01961654,0.03910528
0.5150139,-0.03162983,0.1039258
0.4701049,-0.03920145,0.1638721
0.5394283,-0.09465569,0.1304968
0.769403,-0.1782098,0.04998385
0.9284775,-0.2546347,0.01131424
0.9304779,-0.2445987,-0.00666042
1.327106,-0.06455751,0.09868412
1.186044,-0.04468881,0.08586714
1.102952,-0.07094812,-0.004476023
0.957287,-0.07353917,-0.02991461
0.7582964,-0.0826233,0.03461404
0.6720342,-0.08005577,0.1178995
0.6486593,-0.09138708,0.1394423
0.6662271,-0.1053709,0.09429913
0.7363774,-0.1081886,0.08592627
0.7759508,-0.1066788,0.07878336
0.8026206,-0.08416957,0.08042187
0.7578836,-0.05194427,0.1354605
0.717668,-0.03536728,0.1523026
0.7829231,-0.09274664,0.1330914
0.8611431,-0.1987942,0.1135698
0.9579215,-0.2545991,0.1094187
0.975429,-0.2488344,0.0903942
0.9065595,-0.2264145,0.02391429
0.8477413,-0.2062139,-0.001110173
0.7549039,-0.1370229,-0.04936758
0.8543667,-0.04695663,-0.1681273
1.289152,-0.02654219,-0.285722
1.787245,-0.08837142,-0.4466142
1.959177,-0.1649383,-0.4696447
1.710983,-0.1123873,-0.1855216
1.488676,-0.007254462,0.09036777
1.366659,0.003577254,0.1044412
1.147924,-0.01354391,0.043377
1.023772,-0.04905234,0.07748002
0.8941704,-0.05430891,0.08577171
0.7691753,-0.04147703,0.0382632
0.7835057,-0.0994934,0.01834982
0.7252702,-0.1245778,-0.02388957
0.7580975,-0.1310347,-0.04053171
0.8664344,-0.1339535,-0.01268946
0.8214479,-0.09442925,-0.01724566
0.760925,-0.06080602,0.01025422
0.6661919,0.0367726,0.03437754
0.6693876,0.1381489,0.0171746
0.8412992,0.1473554,0.006501762
0.9281893,0.07875256,-0.02550255
0.8993749,-0.03551125,-0.01876359
0.7803566,-0.05577193,-0.002765564
0.6891027,-0.05924117,-0.05671128
0.7161574,-0.1642515,-0.1232614
0.8492175,-0.2923526,-0.1884599
1.146194,-0.4171986,-0.1878178
1.49745,-0.461024,-0.120698
1.785946,-0.4278425,-0.09085362
1.839323,-0.3989431,-0.07383596
1.641108,-0.3210274,-0.04326461
1.511753,-0.2275507,-0.003099993
1.38288,-0.1880894,0.009905226
1.124077,-0.1380231,-0.007580962
0.9600204,-0.08751701,0.01141825
0.8694524,-0.08197977,0.01224245
0.7497917,-0.0427027,0.01712384
0.7572031,-0.04872561,0.0639072
0.8267781,-0.1215798,0.06040623
0.7883021,-0.08478314,0.05527685
0.7596229,-0.06145069,0.06568154
0.723228,-0.08258341,0.0616456
0.6740786,-0.04677458,0.08451691
0.696911,-0.07326425,0.0967859
0.7184206,-0.119805,0.0933528
0.8295789,-0.1940209,0.06861488
0.9112966,-0.2845923,0.02013177
0.8365149,-0.2592307,0.004539184
0.7980242,-0.226788,-0.0009135235
0.7701156,-0.1908539,-0.05455952
0.8920375,-0.1557525,-0.1766978
1.264904,-0.1912689,-0.2868274
1.641212,-0.2128855,-0.3173912
1.895578,-0.2224604,-0.2694166
1.914617,-0.1375252,-0.13359
1.782274,0.0004207902,-0.04618096
1.599675,-0.03382706,-0.07208453
1.271411,-0.1278296,-0.04970073
0.9870348,-0.1739487,0.04293924
0.8851989,-0.2100958,0.05933124
0.8686778,-0.1851334,-0.01108335
0.8938873,-0.1408575,-0.05101502
0.9007933,-0.09735894,-0.06119183
0.889806,-0.0514683,-0.05672173
0.8683852,-0.06039406,-0.004129266
0.7789334,-0.04102576,0.07043636
0.6670942,0.02732032,0.1338748
0.6022606,0.0751293,0.1220192
0.6237393,0.1309566,0.07441371
0.7713674,0.1550057,0.02469625
0.9404614,0.1488034,-0.08262
0.9533817,0.1516416,-0.0910224
0.8377801,0.1332919,0.0527438
0.7753905,0.1387242,0.1514943
0.7688513,0.1312371,0.1051547
0.7452574,0.0293748,-0.04620092
0.8413845,-0.1756852,-0.2442713
1.101457,-0.4686805,-0.4241189
1.353952,-0.6858496,-0.3892189
1.528953,-0.7086239,-0.1874704
1.606935,-0.6297804,-0.05822445
1.541096,-0.5213866,0.02679874
1.461239,-0.3308098,0.04673833
1.491516,-0.1394224,0.05803666
1.492212,-0.1363238,0.07648832
1.394996,-0.1757388,-0.04739361
1.209705,-0.1177274,-0.1020875
0.9034814,-0.09122388,-0.04093994
0.6959465,-0.07183133,0.009536019
0.6754012,-0.05684786,0.0731814
0.6776521,-0.09771516,0.06860299
0.6999629,-0.1144832,0.06703191
0.7125633,-0.09659192,0.06818241
0.7115202,-0.07119353,0.04801732
0.735257,-0.06307349,0.09336661
0.7235016,-0.07270177,0.1006707
0.7081835,-0.0900687,0.0609173
0.7146624,-0.1538788,0.01069561
0.778981,-0.2409987,0.008286832
0.8991071,-0.3365426,0.09803271
0.9163228,-0.3907932,0.1530172
0.8459126,-0.3265072,0.1517699
0.7952377,-0.2134189,0.1036035
0.7473227,-0.1205377,0.0253687
0.7567038,-0.1125007,-0.1185658
0.9839646,-0.221028,-0.3383871
1.406791,-0.3546239,-0.4634498
1.763687,-0.5361754,-0.5628035
1.930213,-0.7735656,-0.6227636
1.869716,-0.7855703,-0.3935256
1.573059,-0.3076489,-0.05071195
1.267389,0.2669732,0.04939744
1.05608,0.2566349,-0.03525701
0.8910744,-0.006687381,-0.03142891
0.8185874,-0.001894847,0.02309227
0.8219744,-0.09243745,0.001365058
0.848004,-0.2136976,-0.01853264
0.8713409,-0.144721,-0.07637632
0.9324796,-0.169855,-0.1701466
0.9973043,-0.1862771,-0.1767314
0.9744207,-0.1844084,-0.1305196
0.9244514,-0.2417529,-0.05049509
0.8434796,-0.1803542,0.05800853
0.7657869,-0.08705123,0.1055532
0.7297749,0.04690432,0.088263
0.6823253,0.1950282,0.08231523
0.730423,0.2355008,0.09598352
0.8081381,0.2537169,0.07431282
0.8019149,0.2212907,0.03703942
0.7997697,0.1660898,0.007906574
0.7833508,0.0699168,-0.04015761
0.7614594,-0.1038181,-0.1014357
0.7463469,-0.2242896,-0.204521
0.7261831,-0.4006249,-0.3256129
0.8333575,-0.5708301,-0.3407562
1.202776,-0.5708621,-0.2437774
1.75431,-0.6038633,-0.1452869
2.012726,-0.5672546,-0.08973981
1.781038,-0.3492093,-0.08015267
1.596777,-0.2405973,-0.09101304
1.596111,-0.241497,-0.05023689
1.4584,-0.265441,-0.02879784
1.289604,-0.2822939,-0.03658227
1.089633,-0.1887233,0.02421053
0.80471,-0.09140237,0.0526879
0.6657956,-0.0352676,0.05266043
0.6072336,-0.02543433,0.07165159
0.5850836,-0.04953917,0.0524397
0.6274903,-0.01305544,0.05562995
0.6248218,9.752309e-06,0.06238741
0.6632949,0.0008349248,0.06036318
0.6821648,-0.01061967,0.0704694
0.6773934,-0.09818847,0.05445034
0.7981412,-0.1999622,0.06323904
0.9401724,-0.3262752,0.09889112
1.060837,-0.3814592,0.1309446
1.060583,-0.3493371,0.1046213
0.892593,-0.3090479,-0.02118462
0.7267969,-0.1840901,-0.1240153
0.6150158,-0.06335951,-0.1209625
0.712803,0.01330876,-0.08949694
1.107938,0.09468219,-0.1537128
1.615729,0.04232166,-0.2733629
1.929132,-0.1994573,-0.342149
1.883606,-0.4290778,-0.2947317
1.684022,-0.3506119,-0.03453261
1.344706,-0.1089477,0.1965339
0.9973996,-0.05456481,0.1324064
0.8868556,-0.1050223,0.03895439
0.7205769,-0.1632231,0.07793875
0.6240851,-0.1679911,0.0578647
0.7645735,-0.09308504,0.005175918
0.7969766,-0.0707726,0.009238662
0.7712117,0.003444363,-0.012466
0.7263599,0.08629137,0.0153871
0.6713421,0.09893194,0.05838656
0.7519703,0.1606463,0.00983536
0.856808,0.1575076,0.01219893
0.9024494,0.1282809,0.02712033
0.8572613,0.1048823,0.02630635
0.7881721,0.01914402,0.02986146
0.7559345,-0.05922791,-0.110883
0.7409553,-0.228168,-0.3013601
0.8498495,-0.3901821,-0.3490474
1.08725,-0.4648845,-0.2279774
1.438155,-0.5857943,-0.1095259
1.741181,-0.6487096,-0.1064191
1.711674,-0.5865913,-0.08873043
1.533717,-0.3768579,-0.01237161
1.483515,-0.1585928,0.07247094
1.516728,-0.210896,0.02410876
1.526121,-0.2960698,-0.09065162
1.410185,-0.2024047,-0.06637809
1.184233,-0.1497107,-0.0649175
0.9538582,-0.0545198,-0.0593029
0.7460133,0.09298355,0.02843537
0.6557138,0.03930316,0.038299
0.7165193,-0.01570376,0.06091741
0.7672804,-0.03187505,0.0969328
0.7713676,-0.1238815,0.08889254
0.7369854,-0.1036655,0.1025067
0.6459295,-0.1090732,0.08425991
0.6279992,-0.178297,0.05816955
0.7045423,-0.2059354,0.03621767
0.7730712,-0.2858411,0.000696627
0.7967237,-0.295738,-0.03528905
0.7239007,-0.2447619,-0.1286979
0.6207743,-0.1671278,-0.2165259
0.7076422,-0.03071296,-0.2774801
1.170821,-0.02402364,-0.4032404
1.820085,-0.1678975,-0.5815008
2.003446,-0.3621636,-0.6364311
1.760934,-0.4312663,-0.2835938
1.657514,-0.2441502,0.1977972
1.359203,0.01998579,0.2242956
0.8920945,0.1798488,0.09714106
0.8912327,0.15056,0.1440682
1.009737,-0.002472413,0.04219541
0.999454,-0.133436,-0.07659675
1.02442,-0.181549,-0.02890126
0.9181983,-0.09115578,-0.02696858
0.7934282,0.009833427,-0.01213029
0.7309508,0.02998394,0.01000133
0.6775514,0.08384469,0.01844648
0.6895927,0.1241202,0.1075529
0.7347316,0.1305817,0.1189764
0.8258362,0.1723601,0.07935269
0.8660363,0.2069113,0.07799806
0.8519147,0.2213499,0.05538351
0.8572049,0.1626242,0.08604382
0.8233688,0.02295044,0.1170925
0.8180802,-0.06440396,0.0763509
0.7723796,-0.09317969,0.01575145
0.6791851,-0.1580713,-0.1057536
0.7586893,-0.2948832,-0.3166869
1.085807,-0.4921293,-0.4966111
1.560274,-0.706462,-0.457133
1.757801,-0.7578593,-0.2259761
1.606486,-0.4843105,-0.05933191
1.630369,-0.1101133,-0.1045449
1.756041,0.04542327,-0.1961209
1.70538,-0.01430854,-0.1559159
1.607208,-0.1058552,-0.09723628
1.383318,-0.150676,-0.01571767
1.126333,-0.1721775,0.07018162
0.9817917,-0.1559672,-0.006531828
0.801051,-0.1703584,-0.03702598
0.7369771,-0.2123474,0.0191043
0.7517977,-0.1877955,-0.00257865
0.6697648,-0.1641117,0.01717334
0.6530177,-0.1253399,0.03994892
0.6538102,-0.07738692,0.03479711
0.6494791,-0.06192407,0.04432474
0.6681598,0.0004132068,0.02609251
0.6535055,0.006362569,0.0523324
0.6859896,-0.0359523,0.1174044
0.7201396,-0.02258841,0.1914973
0.7735964,-0.05723637,0.200265
0.9007096,-0.1054095,0.09690591
1.012777,-0.1183203,0.04260866
1.048842,-0.1157054,0.05808722
0.9992418,-0.08611413,0.1250965
0.9555392,-0.1015495,0.2165075
0.8603869,-0.1130782,0.207944
0.7248559,-0.08453531,0.114918
0.7059151,-0.08741384,-0.05737206
0.7795372,-0.08805265,-0.2549057
1.161828,-0.1473866,-0.353045
1.772606,-0.3417202,-0.4297726
1.916684,-0.4856176,-0.4683904
1.609199,-0.3576213,-0.2024169
1.488894,-0.1014152,0.1521679
1.563184,-0.03264824,0.05911273
1.492269,-0.0962123,-0.1464224
1.325851,-0.1287146,-0.07239679
1.075518,-0.1172517,0.0157306
0.7634486,-0.0576584,0.1342543
0.6438108,-0.03408807,0.1217227
0.6425,-0.076612,-0.06804096
0.6884614,-0.1434976,-0.06090159
0.8018086,-0.1652448,-0.0854569
0.8011683,-0.1214082,-0.102674
0.7663481,-0.08741189,0.02585215
0.7743733,0.002592734,0.04859335
0.7568511,0.08715859,0.1217422
0.7585985,0.1191344,0.133547
0.7491967,0.2467545,0.07745807
0.7451758,0.3085792,0.1078909
0.7526193,0.1727302,-0.01488635
0.7242126,-0.01132596,-0.1087322
0.7304281,-0.1759794,-0.1630213
0.8484038,-0.3569723,-0.2708589
1.171992,-0.5408468,-0.2281255
1.627618,-0.5970158,-0.1674433
1.913999,-0.5149657,-0.114811
1.900905,-0.4015026,-0.1018447
1.709588,-0.2771131,-0.1248192
1.48782,-0.1888891,-0.02962989
1.31211,-0.1904713,0.04152377
1.216187,-0.2035929,0.1031119
1.100241,-0.1522557,0.1015895
0.9148599,-0.09159397,0.002361129
0.7981409,-0.05702412,0.04261565
0.7279491,-0.06073604,0.04832245
0.6780253,-0.09822342,0.007449045
0.6766684,-0.09999503,0.06551233
0.6334019,-0.07516197,0.0389818
0.615289,-0.03772989,0.03607157
0.6432425,-0.0204862,0.1023139
0.6441666,-0.07780134,0.130292
0.679148,-0.1530191,0.1795142
0.7398543,-0.2144171,0.1592625
0.8663955,-0.2455426,0.1021908
1.039373,-0.2671609,0.04753901
1.030188,-0.2793538,-0.03556219
0.8931873,-0.2138057,-0.03216077
0.8086819,-0.147479,-0.05620507
0.7701183,-0.08623182,-0.1304412
0.9781381,-0.005396098,-0.174763
1.524958,-0.0238947,-0.3296225
1.954704,-0.1888171,-0.4463771
1.915099,-0.3635795,-0.2836329
1.561877,-0.2414511,0.07447903
1.258875,0.01451871,0.3086705
1.191407,0.01832257,0.1357234
1.232679,-0.03600603,-0.1136833
1.175724,-0.08212907,-0.0574685
0.9956162,-0.1338636,0.04064815
0.8481194,-0.06484194,0.08200682
0.7617534,-0.04444757,0.124756
0.7452776,-0.0509302,0.01799658
0.8269898,-0.05541566,-0.07784869
0.8583183,-0.1136332,-0.07786111
0.8344343,-0.09620769,-0.0639837
0.7574403,-0.05047414,0.02680904
0.6274715,0.03301232,0.07731023
0.6092912,0.1370575,0.09017526
0.6812594,0.1535901,0.1009754
0.7946531,0.1462744,0.05958649
0.9104996,0.09619701,0.05826453
0.924853,0.027945,0.002574457
0.853975,-0.01857805,-0.09984622
0.7797586,-0.09379087,-0.14927
0.7965963,-0.2018972,-0.184276
0.9758026,-0.3615216,-0.1636203
1.396919,-0.501527,-0.1383577
1.855923,-0.545771,-0.1158616
1.9396,-0.4980141,-0.09428112
1.722832,-0.3780967,-0.08668438
1.500853,-0.2137327,-0.006750022
1.306455,-0.08497909,0.03850929
1.157826,-0.1036137,0.01483144
1.082823,-0.1268537,0.005442939
0.9756151,-0.07906061,-0.001553348
0.8452472,-0.0708635,0.01473141
0.7681556,-0.04595486,0.03888598
0.6937729,-0.06929018,0.06580273
0.6855647,-0.1345219,0.06785323
0.7378759,-0.1150285,0.02992757
0.7429278,-0.1040906,0.02010552
0.7536806,-0.08868598,0.04251924
0.7589553,-0.05343316,0.1021855
0.7606824,-0.05848066,0.154242
0.7849114,-0.07449045,0.1417999
0.8100555,-0.1251213,0.08990624
0.8872807,-0.1595891,0.011396
0.9417793,-0.1368986,-0.02972286
0.9048113,-0.126309,-0.01246106
0.8127064,-0.1279421,0.01582664
0.7150188,-0.1237366,0.0389735
0.7174033,-0.1335217,0.01205869
0.8119366,-0.1575844,-0.07198592
1.144315,-0.158551,-0.1879359
1.764554,-0.1564059,-0.346513
2.033891,-0.156843,-0.4222257
1.827197,-0.08591512,-0.1681359
1.689412,0.01813743,0.2017941
1.48851,0.03791729,0.1938
1.251308,-0.0886825,0.02230269
1.225016,-0.2238277,0.02805106
1.009311,-0.1870612,0.03118001
0.7467006,-0.1228963,0.03616087
0.7049542,-0.1201806,0.05356721
0.6342065,-0.08539291,-0.008789528
0.6861254,-0.08458368,-0.0497971
0.8053993,-0.0996195,-0.09806246
0.8456503,-0.07158476,-0.1141879
0.9049775,-0.04752497,-0.0565857
0.8126308,0.01141732,-0.03177194
0.6935289,0.07276518,0.009669111
0.666791,0.1041485,0.06158064
0.6406568,0.1520164,0.08997694
0.7132697,0.1536857,0.1175816
0.7774838,0.1361879,0.1232201
0.7829762,0.1301869,0.05083832
0.7913322,0.04181778,-0.1090261
0.780426,-0.1067185,-0.1854009
0.8309349,-0.2595495,-0.2083495
1.004708,-0.3587775,-0.2177678
1.38939,-0.3847373,-0.07297707
1.813335,-0.3987219,0.02267274
1.916039,-0.3715729,-0.04641401
1.793438,-0.3257701,-0.0700983
1.666962,-0.2862008,0.04498778
1.509207,-0.2259564,0.1489579
1.342337,-0.1937748,0.0816873
1.21729,-0.1284426,0.01793196
1.021835,-0.03914382,0.03474344
0.8128052,-0.0191825,0.03880925
0.728293,-0.02581801,0.08324398
0.6608586,-0.07350254,0.08827295
0.6454023,-0.1190194,0.03515848
0.6732249,-0.1038967,0.008070819
0.6347912,-0.09378608,0.000287484
0.6426517,-0.09094762,0.05246028
0.6540332,-0.09831237,0.1177408
0.6614964,-0.1149367,0.1377506
0.7448582,-0.1449729,0.1295871
0.8148227,-0.2090955,0.08410838
0.8629447,-0.2421819,0.04577632
0.8606913,-0.2226458,0.03885961
0.8303037,-0.1793466,0.02199884
0.799666,-0.1366408,-0.01495249
0.7112131,-0.1272616,-0.03659776
0.7605683,-0.1384867,-0.08624403
1.145047,-0.1467283,-0.2254451
1.715059,-0.1933635,-0.3931636
1.975631,-0.30015,-0.478127
