accx,accy,accz
1.036088,-0.009908498,-0.04013246
1.024671,-0.002616402,0.01878092
1.015224,-0.002183426,0.03252573
1.01649,0.002975074,0.01183931
1.023659,0.005793474,0.00256845
1.039857,-0.0076866,-0.01437415
1.051881,-0.01814631,-0.03681214
1.045729,-0.01321514,-0.0447435
1.039565,-0.00758802,-0.04556487
1.033513,-0.006265487,-0.03831081
1.017843,0.002556282,-0.03730001
1.004693,0.01177271,-0.03271783
1.000727,0.009802849,-0.02084638
1.007521,0.009044149,-0.03535807
1.017902,0.007909878,-0.0462522
1.021228,-0.006162101,-0.03596115
1.026922,-0.02805591,-0.03033198
1.031703,-0.04092238,-0.02341627
1.028436,-0.03765937,-0.02571693
1.033756,-0.03719249,-0.03282879
1.041377,-0.03713381,-0.02703646
1.040501,-0.02276424,-0.02362286
1.034394,-0.0120512,-0.01830236
1.022715,-0.01091892,-0.00590163
1.028749,-0.009800696,0.002910919
1.042045,-0.00636908,0.005913349
1.035933,0.001161114,0.01137545
1.027254,0.01465858,0.04172286
1.005648,0.03415082,0.08408794
0.9812289,0.04102654,0.09859348
0.9855922,0.03242733,0.08940002
0.9992388,0.02589322,0.06856986
1.016697,0.01269524,0.03223387
1.031362,-0.004767487,0.009437523
1.03132,-0.01443886,0.01053109
1.032883,-0.02454607,-0.001546323
1.036245,-0.02881854,-0.01833063
1.039708,-0.02394563,-0.02427348
1.042063,-0.02066056,-0.03939145
1.040161,-0.01719704,-0.03823561
1.040419,-0.01363579,-0.02375347
1.033722,-0.01088953,-0.03065711
1.0228,-0.00559914,-0.02474888
1.022184,-0.001684497,-0.01076757
1.024022,-0.003034255,-0.01593612
1.024186,-0.007247583,-0.01862611
1.029197,-0.01024759,-0.02882466
1.033607,-0.01311945,-0.04082932
1.031268,-0.01339472,-0.03810112
1.029541,-0.009191752,-0.03629728
1.031913,-0.008061469,-0.03267346
1.032448,-0.005895436,-0.03081361
1.03141,-0.002528468,-0.02943503
1.03115,-0.005214579,-0.02427984
1.031441,-0.007486359,-0.02827631
1.035652,-0.01034347,-0.03248872
1.039789,-0.01255291,-0.03384378
1.034028,-0.01103122,-0.03604921
1.027761,-0.01470402,-0.03530101
1.031635,-0.01766046,-0.03492385
1.032984,-0.01387851,-0.0346234
1.027784,-0.01302523,-0.04250567
1.025022,-0.02243886,-0.05183234
1.022629,-0.03520323,-0.04384211
1.020549,-0.03578138,-0.03454238
1.021257,-0.02583666,-0.03604601
1.022515,-0.01312949,-0.03655062
1.024206,-0.0009392941,-0.03422073
1.024097,0.000812676,-0.0285718
1.023877,-0.002874535,-0.01826516
1.025344,-0.0001517471,-0.01253744
1.023097,0.00460545,-0.01048971
1.019968,0.006590726,-0.006624939
1.019008,0.001738872,-0.00660235
1.019206,-0.007151274,-0.009048588
1.026388,-0.009498129,-0.01447464
1.036107,-0.01230245,-0.02225423
1.035564,-0.01493883,-0.01944652
1.028675,-0.00923607,-0.01163259
1.024073,-0.005319822,-0.006193639
1.020065,-0.0006790055,-0.0003381419
1.017185,0.001208624,0.0001006927
1.015164,-0.004072063,0.00693881
1.012712,-0.0006441596,0.0211622
1.008375,-0.0008481441,0.02089502
0.9957968,-0.007086741,0.02011879
0.9904404,-0.009001102,0.02197924
1.011219,-0.02416897,-0.001058033
1.051554,-0.04598294,-0.03796895
1.087477,-0.05504332,-0.06315354
1.090115,-0.04989626,-0.07779864
1.082888,-0.04305685,-0.09120338
1.06771,-0.03063629,-0.07171295
1.00348,0.007299914,0.002216664
0.9704256,0.03226176,0.05655453
1.009277,0.02627825,0.06293281
1.024245,0.02627017,0.06904957
1.016293,0.01847062,0.06555261
1.022512,-0.003580066,0.04267581
1.031122,-0.01120898,0.01814074
1.043733,-0.008430937,0.009577525
1.045492,-0.009586531,0.02253056
1.038018,-0.01065142,0.03357967
1.029063,-0.005853548,0.04306442
1.011275,0.00593694,0.05112272
1.004563,0.02172339,0.05055139
1.01499,0.02323098,0.05171159
1.017514,0.0167595,0.05052238
1.00477,0.0232276,0.05431279
0.9968785,0.02149005,0.06108482
1.003087,0.007929208,0.05352413
1.01343,-1.663904e-05,0.04172859
1.026366,-0.003851972,0.02769703
1.038652,-0.002838838,0.01726746
1.034487,-0.005360243,0.02279429
1.022922,-0.006633821,0.02617902
1.025873,0.0007108503,0.02362834
1.029638,0.008579173,0.02771875
1.029288,0.02167175,0.03503955
1.029979,0.02510744,0.0417366
1.024031,0.01641476,0.03871063
1.025965,0.01423685,0.032201
1.028541,0.01046948,0.04152677
1.02394,0.009143063,0.04778074
1.026744,0.01105607,0.04117977
1.024846,0.009491487,0.04094404
1.024276,0.01280476,0.04225636
1.029394,0.01588052,0.0400487
1.02816,0.0178123,0.03572599
1.02705,0.01573253,0.03098447
1.022556,0.009129026,0.03889514
1.019712,0.01294249,0.05129507
1.020254,0.01937245,0.05309634
1.018723,0.02061405,0.04951061
1.023887,0.01764242,0.04396396
1.02629,0.009481862,0.03578695
1.024609,0.009111202,0.03180088
1.026227,0.0151227,0.03238682
1.026303,0.01934708,0.02762405
1.026774,0.02213824,0.02453046
1.026001,0.01846615,0.02926423
1.025266,0.01493847,0.02986398
1.024946,0.01459402,0.02858677
1.02249,0.01042592,0.0293784
1.022247,0.007404032,0.02803488
1.021936,0.009479284,0.02937059
1.020806,0.01479115,0.03758053
1.015492,0.01907293,0.04938978
1.008499,0.02015443,0.05388229
1.012493,0.02021353,0.04912553
1.020614,0.0180869,0.03827368
1.028727,0.01410843,0.01954099
1.036377,0.01031017,0.01192241
1.033045,0.009531377,0.01866634
1.029201,0.006977512,0.02114065
1.031319,-0.001567988,0.02552056
1.02735,-0.004318403,0.0251593
1.023578,-0.003676077,0.0172427
1.024865,-0.006921511,0.01850679
1.027265,-0.007670702,0.01164501
1.034985,-0.009142402,-0.006196719
1.037687,-0.01110436,-0.01370778
1.031357,-0.01186171,-0.01783088
1.031345,-0.01747317,-0.03408656
1.039523,-0.01993932,-0.05315482
1.044565,-0.01081999,-0.04290828
1.031276,0.001116903,-0.01414812
1.015721,0.005331499,-0.003427589
1.025234,0.003950638,-0.01225514
1.036193,0.003977581,-0.0262805
1.033968,0.003550105,-0.01657924
1.029109,-0.001031483,-0.0005578158
1.020014,-0.006757671,-0.004585324
1.021827,-0.008250249,0.00295584
1.030926,-0.006325593,0.007876183
1.030379,-0.006736489,0.002717924
1.032489,-0.008046154,0.004970169
1.03297,-0.009169126,-0.0006305767
1.030784,-0.01186865,0.0005202976
1.03591,-0.01073349,0.0006200632
1.036106,-0.008488264,-0.009649259
1.032556,-0.009497754,-0.009420071
1.02806,-0.006361191,-0.007685242
1.021463,-0.003448024,-0.005111377
1.021101,-0.009197478,-0.009923086
1.023987,-0.01632257,-0.02319921
1.027601,-0.01954737,-0.02674544
1.025939,-0.02317845,-0.02768584
1.021243,-0.02598122,-0.0271681
1.023696,-0.02203514,-0.02794036
1.02669,-0.0173495,-0.02916859
1.030994,-0.01688385,-0.02903433
1.031157,-0.01199782,-0.03230147
1.023388,-0.004152294,-0.02342039
1.022273,-0.003986741,-0.01302343
1.027483,-0.007304462,-0.01713349
1.036097,-0.004291328,-0.02654523
1.039593,-0.00261261,-0.03427973
1.032655,-0.007392078,-0.02777408
1.028028,-0.007446125,-0.01772366
1.025734,-0.006145961,-0.01978606
1.027478,-0.008276726,-0.0229086
1.031037,-0.009126899,-0.02497262
1.027937,-0.01194715,-0.02713056
1.02617,-0.01095941,-0.02789445
1.024398,-0.005216946,-0.02890211
1.021305,-0.00293328,-0.02473362
1.021558,-0.003107309,-0.01836022
1.023207,-0.006869061,-0.01949694
1.028248,-0.009228792,-0.02391016
1.030786,-0.009533849,-0.02559936
1.030338,-0.0122184,-0.0263438
1.03306,-0.01108342,-0.02889224
1.033397,-0.01049543,-0.03268749
1.032021,-0.01165196,-0.02822434
1.029739,-0.009735982,-0.01800109
1.026151,-0.00976051,-0.01506994
1.025324,-0.01067113,-0.01654509
1.024684,-0.01127209,-0.02254847
1.025257,-0.01144252,-0.03088973
1.027196,-0.01064089,-0.03010518
1.028054,-0.01139303,-0.02819788
1.029149,-0.0111333,-0.03159828
1.029032,-0.01085724,-0.0325809
1.029247,-0.01143542,-0.03101464
1.029544,-0.01068991,-0.02832491
1.029658,-0.0102967,-0.02538616
1.030662,-0.009532877,-0.02592701
1.027846,-0.009790265,-0.0280935
1.025218,-0.01190968,-0.03048598
1.0265,-0.01316973,-0.03449836
1.026709,-0.01484786,-0.03381462
1.026177,-0.0173693,-0.02920191
1.026179,-0.01720124,-0.0289923
1.025643,-0.01004156,-0.02920902
1.024816,-0.002623992,-0.02889802
1.025736,-0.005374295,-0.02984122
1.027209,-0.009294769,-0.02961685
1.027112,-0.008454907,-0.02935298
1.02754,-0.009474315,-0.02125714
1.026343,-0.008871146,-0.00688868
1.024059,-0.006379491,-0.003937394
1.024971,-0.005654059,-0.01306393
1.026002,-0.005369566,-0.02064433
1.027118,-0.008568108,-0.02010418
1.029366,-0.01091374,-0.0180469
1.028677,-0.009471819,-0.01723938
1.027251,-0.01060184,-0.01494467
1.026481,-0.01172642,-0.01814387
1.024323,-0.01190038,-0.02473836
1.025515,-0.01279698,-0.0251689
1.027382,-0.01213788,-0.02121565
1.024586,-0.01014543,-0.018358
1.022816,-0.0070149,-0.02023545
1.022252,-0.007395599,-0.02375598
1.022754,-0.01158812,-0.02686494
1.02541,-0.01180644,-0.03219223
1.025113,-0.009472872,-0.0329816
1.024713,-0.01008457,-0.02900586
1.025881,-0.01284699,-0.02925475
1.027378,-0.01536653,-0.03117477
1.029612,-0.01490464,-0.03186919
1.026828,-0.009466189,-0.02996153
1.023385,-0.005751722,-0.02458928
1.025939,-0.009601122,-0.02343302
1.02912,-0.013631,-0.0255158
1.030727,-0.0130233,-0.02557914
1.029415,-0.01382331,-0.02707825
1.026692,-0.01718651,-0.030984
1.028615,-0.01658169,-0.03351562
1.030219,-0.01318158,-0.0327905
1.028556,-0.01084995,-0.03069439
1.029193,-0.008631264,-0.02620256
1.028983,-0.008676968,-0.02369907
1.026049,-0.01099289,-0.02930204
1.024481,-0.01322831,-0.03200321
1.024792,-0.0129099,-0.02906349
1.026554,-0.01034066,-0.02885969
1.027494,-0.009832397,-0.02888414
1.027981,-0.009535532,-0.02745394
1.029046,-0.01029458,-0.02583605
1.029034,-0.01184826,-0.02602689
1.029406,-0.01210216,-0.02686865
1.029154,-0.01470622,-0.02508451
1.028535,-0.0135005,-0.02417642
1.02777,-0.01101122,-0.02254148
1.025388,-0.01303558,-0.01981569
1.025312,-0.01062898,-0.02069273
1.025349,-0.00867714,-0.021354
1.024545,-0.01003723,-0.02157471
1.026303,-0.008669615,-0.02674419
1.02648,-0.008281654,-0.03363623
1.025307,-0.009141599,-0.03358672
1.024892,-0.01009114,-0.0270664
1.024378,-0.009930718,-0.02343813
1.023529,-0.00941106,-0.02568887
1.022636,-0.01120052,-0.03021691
1.027235,-0.01215295,-0.03260367
1.032516,-0.01271784,-0.0292246
1.028965,-0.01254221,-0.02179831
1.026187,-0.01100499,-0.01873629
1.029354,-0.01027616,-0.02560153
1.029743,-0.009259363,-0.03110605
1.028796,-0.009667523,-0.02480274
1.030332,-0.01010772,-0.01944218
1.030837,-0.009315404,-0.02294006
1.030301,-0.01029744,-0.02404563
1.029678,-0.01153302,-0.02275906
1.028661,-0.01231146,-0.02320289
1.027712,-0.01028535,-0.01818069
1.024987,-0.006907091,-0.01319513
1.023091,-0.00846505,-0.01524842
1.02623,-0.009989511,-0.01574088
1.029124,-0.00931925,-0.0129468
1.02719,-0.008989333,-0.01231746
1.02413,-0.004326558,-0.01436385
1.021547,0.0003115833,-0.01598394
1.020008,-0.002149119,-0.015861
1.023164,-0.005323256,-0.0183336
1.029214,-0.006284839,-0.02493847
1.033359,-0.009957947,-0.0309078
1.032826,-0.01270569,-0.03294669
1.030451,-0.01161267,-0.03263306
1.031498,-0.01312759,-0.03409013
1.030833,-0.01673601,-0.03716906
1.029479,-0.01873795,-0.03679857
1.031672,-0.02045341,-0.03706252
1.03121,-0.02354629,-0.04373505
1.030864,-0.02700924,-0.04498696
1.027666,-0.02184426,-0.03124319
1.019171,-0.01170931,-0.01430548
1.0182,-0.0100821,-0.01015006
1.020456,-0.01160425,-0.01350985
1.020594,-0.01305788,-0.01546465
1.025235,-0.01637614,-0.02543368
1.033448,-0.01848789,-0.03753876
1.040184,-0.02048001,-0.04251871
1.039626,-0.01929251,-0.04364893
1.036792,-0.01739203,-0.03345006
1.037793,-0.01545645,-0.01969074
1.037349,-0.005772932,-0.01059505
1.035617,0.004392022,-0.001799789
1.030475,0.007307029,0.003911907
1.018032,0.00460344,0.01355042
1.00867,0.002445877,0.02075684
1.011188,0.002923676,0.01739261
1.018303,-0.001167002,0.01565327
1.0218,-0.00487968,0.01130307
1.024382,-0.008329868,-0.0052617
1.028795,-0.01450247,-0.02391812
1.035478,-0.01140235,-0.02520443
1.040287,-0.005637818,-0.02105863
1.034868,-0.0001606858,-0.02658941
1.028787,0.01465539,-0.01450686
1.029511,0.02027891,0.002515796
1.02425,0.01058919,-0.00362345
1.018448,0.005661793,-0.008395272
1.024452,0.003745744,-0.008933771
1.030631,-0.001666159,-0.01306461
1.029872,-0.005322384,-0.01083637
1.025784,-0.006212515,-0.004159552
1.01937,-0.002760142,0.006759839
1.018671,0.001859718,0.008964717
1.02412,0.002574133,-0.006524227
1.025835,-0.0002613209,-0.016387
1.025768,-0.004499099,-0.009646291
1.028511,-0.003146642,-0.001729845
1.03248,-0.0007077627,-0.002537771
1.032992,-0.0003285949,-0.003270659
1.030145,0.004894045,-0.0005373967
1.028525,0.00722314,0.002037181
1.024838,0.007974323,0.009173075
1.023701,0.01130223,0.01111233
1.027266,0.01168182,-0.0001530362
1.025873,0.01411832,-0.006628886
1.024051,0.01087309,0.006010432
1.022867,0.0001474477,0.02043899
1.021051,-0.002918119,0.01540981
1.022913,-0.002110948,0.01107231
1.022979,-0.003500144,0.01221238
1.025768,-0.006339901,-0.002675164
1.032246,-0.006534731,-0.01355701
1.032694,-0.004163145,-0.009953088
1.030315,-0.004455985,-0.006101998
1.025686,0.003059461,0.002758375
1.020389,0.01201511,0.01374725
1.022058,0.008420816,0.01238288
1.027434,0.006960359,0.001368838
1.03293,0.01033836,-0.002538721
1.037075,0.009491481,-0.002747557
1.032521,0.00652567,-0.003448566
1.026291,0.0007634982,0.00153551
1.030405,-0.005963861,0.00247087
1.031498,-0.00656878,0.002800402
1.024614,-0.002834052,0.004358701
1.020062,0.0003624707,0.005017835
1.016495,0.003907817,0.01045238
1.018169,0.003099329,0.008213583
1.022138,-0.001256924,0.005029162
1.022578,-0.0009659059,0.005702652
1.026468,0.001171074,-6.812391e-05
1.028142,0.003292664,-0.000961781
1.025021,0.002666063,0.004632673
1.023534,0.0006721829,0.01040281
1.026562,0.005457456,0.00954708
1.03092,0.008093175,0.006011028
1.027145,0.004575144,0.008171099
1.023805,0.002626822,0.0003956691
1.026271,0.00166645,-0.009803591
1.027526,-0.0004553268,-0.01384889
1.030645,-0.004075268,-0.02296175
1.030242,-0.004548715,-0.02294789
1.026132,-0.004098913,-0.01661338
1.026406,-0.006673544,-0.01926781
1.027483,-0.005323067,-0.01796019
1.02892,-0.003796324,-0.01314153
1.029698,-0.003826927,-0.01552421
1.028995,-0.001884334,-0.01636948
1.030183,-0.002925302,-0.0149406
1.030688,-0.003204853,-0.01678109
1.029646,-0.00217211,-0.01608468
1.028833,-0.003230804,-0.01611478
1.029217,-0.002988264,-0.01768795
1.030381,-0.004423555,-0.01527182
1.029887,-0.006400844,-0.01258728
1.026926,-0.005466882,-0.007815736
1.023144,-0.005148013,-0.005426603
1.023869,-0.004663791,-0.01041745
1.027096,-0.002970599,-0.01392252
1.0264,-0.00234569,-0.01611073
1.026061,-0.003272117,-0.01687346
1.027334,-0.00469822,-0.01590407
1.028757,-0.005879257,-0.01624038
1.030773,-0.005923073,-0.01125519
1.026679,-0.004763285,-0.00585835
1.019496,-0.003876539,-0.00655244
1.019355,-0.002463285,-0.007774061
1.025004,-0.002203778,-0.01462375
1.031423,-0.003813651,-0.02355145
1.033034,-0.004312724,-0.01798222
1.029058,-0.005863834,-0.008873024
1.025351,-0.00589639,-0.01145689
1.022672,-0.002926337,-0.01362848
1.021607,-0.002610517,-0.01530421
1.024098,-0.002755784,-0.02102938
1.027635,-0.002672952,-0.01795335
1.030226,-0.003087473,-0.009438517
1.029971,-0.001713927,-0.004746117
1.027365,0.0007887191,-0.008387514
1.026044,0.004688472,-0.01544287
1.026049,0.004789137,-0.009686358
1.026816,0.001317807,-0.005546402
1.027438,0.0007511915,-0.009783108
1.027837,-0.001293928,-0.006113189
1.028736,-0.003728894,-0.004456366
1.027226,-0.002602582,-0.006659538
1.024932,-0.001606769,-0.007067004
1.025224,-0.001233807,-0.01040376
1.02806,-0.001354995,-0.01189906
1.031824,-0.001491399,-0.01226513
1.031699,-0.0007541237,-0.01086571
1.029353,0.001210494,-0.006782134
1.027858,0.002940385,-0.007760515
1.026176,-0.0004992524,-0.01343429
1.027709,-0.003978202,-0.01797773
1.030137,-0.0001551426,-0.01478078
1.028275,0.003078329,-0.01012727
1.026911,0.001562828,-0.01408884
1.028187,0.003544864,-0.01869316
1.027869,0.006143707,-0.02152008
1.027256,0.001064643,-0.02305238
1.02757,-0.003432903,-0.02032475
1.027752,-0.001312542,-0.01803818
1.029547,-0.0005552987,-0.01452003
1.029786,-0.002590155,-0.01374735
1.02878,-0.004330339,-0.0170709
1.031272,-0.007826594,-0.01461863
1.032655,-0.009620331,-0.01552871
1.031744,-0.006796329,-0.0213975
1.03191,-0.003716943,-0.02423752
1.031619,-0.0009508595,-0.02492226
1.03,-0.002090771,-0.01644907
1.027708,-0.006013258,-0.009347116
1.026546,-0.002700116,-0.009580836
1.0246,0.003018767,0.002914879
1.021035,0.006321023,0.01888815
1.022563,0.006624121,0.01304462
1.028254,0.001597227,-0.005189976
1.032644,-0.001125481,-0.01276978
1.034229,-0.00313436,-0.01108684
1.031136,-0.004099678,-0.008965088
1.028166,-0.000204049,-0.009779284
1.027626,0.002020934,-0.0115065
1.025786,0.006274086,-0.006537191
1.026234,0.005408473,-0.003733374
1.027772,-0.002247499,-0.003907667
1.026677,-0.004235172,-0.003801183
1.026142,-0.008760626,-0.008759023
1.025395,-0.005844013,-0.006226496
1.024345,0.006388233,-0.001851523
1.023322,0.006295236,-0.0009461311
1.02179,0.004925158,0.004865224
1.023143,0.006214385,0.003143245
1.026069,0.004787309,0.0002361709
1.029573,0.006205443,0.001405785
1.032548,0.005483707,-0.004758461
1.028886,0.006558396,-0.009520492
1.024287,0.009606031,-0.008740402
1.026469,0.009705757,-0.00798477
1.027224,0.01018241,-0.009204735
1.024548,0.00771695,-0.01081962
1.025744,0.001662389,-0.01111339
1.028966,-0.004800024,-0.01340137
1.032151,-0.004331894,-0.01477362
1.033041,-0.0004491982,-0.01200563
1.030642,-0.003836794,-0.0008105498
1.029785,-0.003344172,0.01218334
1.026462,-0.001155467,0.003991793
1.023751,-0.002501682,-0.006439164
1.028679,0.003030703,0.004623575
1.032072,0.005476962,0.008756012
1.030716,0.002653122,0.003026935
1.02497,0.002504674,0.004448417
1.018791,0.001652429,0.002611806
1.023857,0.0009080855,-0.0006046313
1.032268,-0.001494577,-0.008479129
1.034377,-0.003991867,-0.02400787
1.033938,-0.004520335,-0.02407859
1.028585,-0.005611809,-0.01508056
1.02263,-0.003944103,-0.01433236
1.024638,-0.001973542,-0.01242453
1.026377,-0.001976879,-0.009329538
1.024077,0.0004164143,-0.009483066
1.025027,0.003488675,-0.009778252
1.025575,0.0005298694,-0.009554111
1.02434,-0.004096123,-0.007737238
1.025365,-0.001281395,-0.006239777
1.02504,0.002235126,-0.006014986
1.024673,0.002916979,-0.004547963
1.025575,0.003401005,-0.0009701442
1.025621,0.002150505,0.001771349
1.026538,0.00271961,-0.002552106
1.025746,0.002278877,-0.006493094
1.024275,0.0006885443,0.001575344
1.025223,0.002650723,0.007844852
1.025126,0.003112647,5.045644e-05
1.02477,0.00241691,-0.005835919
1.025179,0.002012502,-0.002198131
1.02492,0.0009590017,-0.002351516
1.024286,0.002691564,-0.006565441
1.021469,0.007940929,-0.006019962
1.019017,0.01377449,-0.0008303687
1.022986,0.01363034,0.004779982
1.028867,0.01053247,0.001578358
1.029242,0.01039047,-0.009757254
1.028656,0.006984163,-0.01598596
1.030262,0.002224611,-0.01403443
1.031609,-0.00137309,-0.0107309
1.033105,-0.004663561,-0.01296877
1.029563,-0.002388674,-0.01548286
1.024042,-0.001879242,-0.01448049
1.026333,-0.004015682,-0.01572361
1.02797,-0.001821458,-0.0134587
1.027093,-0.001900659,-0.01116534
1.030069,-0.001343704,-0.01302162
1.028967,0.001645971,-0.0103542
1.024595,0.002921458,-0.009076133
1.023216,0.005385293,-0.009781056
1.023069,0.00513309,-0.008272188
1.024284,0.004844996,-0.006618921
1.024581,0.005467649,-0.004710018
1.024923,0.002304369,-0.006977388
1.026573,0.002469097,-0.009457418
1.026533,0.003514098,-0.009901495
1.028266,0.003121203,-0.01114242
1.029581,0.004815655,-0.009948798
1.026788,0.003800925,-0.006923439
1.024059,0.002035874,-0.002847923
1.023065,0.002311193,-0.003243206
1.024651,0.006256849,-0.005719371
1.025956,0.01188143,-0.002033328
1.02661,0.01020153,0.00221604
1.029333,0.008256409,0.005065895
1.028973,0.01055252,-0.000854525
1.025166,0.008739912,-0.01084827
1.022857,0.006075032,-0.004313084
1.024098,0.001764329,0.001301574
1.026035,-0.005159869,-0.004851678
1.02474,-0.003739133,-0.00726084
1.024618,-0.0008413751,-0.01045913
1.025568,-0.00299364,-0.0111044
1.024794,0.001726157,-0.007610282
1.026132,0.007315953,-0.008789279
1.027935,0.004912923,-0.006692617
1.028571,0.002386454,-0.004148787
1.027975,0.001541074,-0.0003171957
1.023839,0.003728879,0.007862837
1.021435,0.007914556,0.001477953
1.025222,0.007270374,-0.009822163
1.029584,0.005017988,-0.0112766
1.029465,0.000982136,-0.0142781
1.027824,-0.00568138,-0.0123879
1.027705,-0.005181277,-0.007065629
1.027694,-0.001663904,-0.008704005
1.027658,-0.002672353,-0.004528998
1.026959,-0.0001467408,0.003091401
1.026123,0.003551506,0.002279207
1.027338,0.001322912,-0.002736768
1.028195,-0.001789892,-0.007255405
1.027724,-0.003303023,-0.006594776
1.027669,-0.001639262,-0.006055648
1.027846,0.002228668,-0.01118942
1.027634,0.003255699,-0.01297905
1.026617,0.003088891,-0.01224174
1.025291,0.003452693,-0.007861427
1.025334,0.003679899,-0.0002435239
1.028609,0.0009896968,-0.004679434
1.032202,-0.002471782,-0.008435791
1.032376,0.001474048,0.002421078
1.032246,0.006339848,0.006426102
1.031993,0.005822965,-0.004623027
1.029656,0.006256721,-0.01429179
1.028719,0.007355321,-0.01102119
1.029253,0.005709716,-0.005773219
1.029174,0.0005506204,-0.00765993
1.029205,-0.003915009,-0.00669059
1.029114,0.0001019993,-0.01133667
1.029165,0.005227575,-0.01908673
1.029246,0.002549881,-0.009468414
1.02905,0.001666566,-0.002088382
1.029258,0.003932385,-0.009099934
1.028791,0.002136703,-0.01147477
1.027321,0.00124076,-0.009363303
1.026306,-0.0005263448,-0.01177763
1.02786,-0.005351713,-0.0162921
1.030184,-0.005200087,-0.01559018
1.029006,-0.000979014,-0.007547266
1.027355,0.002740762,-8.756746e-06
1.026243,0.002451191,-0.001863421
1.024152,0.00219335,-0.005880367
1.025043,0.007256695,-0.003295592
1.027568,0.007867011,-0.003501467
1.031508,0.005266205,-0.002945485
1.035557,0.003442737,0.00297666
1.029781,-0.002552034,0.003235577
1.022579,-0.004213831,0.00250487
1.026264,-0.001163478,0.003252166
1.029604,0.0006066972,0.003223845
1.02823,0.003664035,0.004725588
1.02688,0.00348661,0.003125067
1.024106,0.002109627,0.002213403
1.024757,0.005049485,0.003327945
1.027842,0.006268685,0.003432734
1.027506,0.005274714,0.002645499
1.026881,0.005573756,-0.005634924
1.025311,0.00560793,-0.01436414
1.024059,0.005324094,-0.01112331
1.024654,0.004715076,-0.004548206
1.023191,0.003836541,-0.003838306
1.023307,0.004109031,-0.004088749
1.025083,0.004176218,-0.004349889
1.027619,0.003150167,-0.006459621
1.032079,0.002517908,-0.007018054
1.0305,0.00272246,-0.007246825
1.025483,0.002931952,-0.007243186
1.023639,0.00269632,-0.00798725
1.022217,0.002927353,-0.009427918
1.023381,0.003761479,-0.007983046
1.025964,0.004354686,-0.009646095
1.026649,0.004310264,-0.0105848
1.027048,0.003797575,-0.006296246
1.027804,0.003146694,-0.004084666
1.029774,0.001707139,-0.00207425
1.029657,0.0005024384,-0.001513203
1.028342,0.0003437745,-0.0001985255
1.029491,0.0008405969,0.003821826
1.028128,0.004055773,-0.0004249693
1.025657,0.008347172,-0.005114577
1.023837,0.01106882,-0.002235789
1.021167,0.01104742,-0.002192903
1.022951,0.005262641,-0.0040664
1.027549,0.0007953921,-0.005064379
1.03069,0.003240364,-0.00772996
1.030117,0.005410595,-0.007534846
1.025409,0.006657167,-0.00604511
1.023767,0.008431448,-0.007207839
1.023629,0.008440462,-0.005138772
1.021558,0.008279449,0.001281736
1.022392,0.008352926,0.007631141
1.024973,0.007419338,0.007383217
1.027949,0.003899676,-0.005686121
1.030071,0.0001678648,-0.01598328
1.028078,0.001774595,-0.007900303
1.025922,0.00407992,-1.760095e-05
1.025551,0.002901402,-0.003700053
1.025259,0.00506282,0.0005300047
1.02769,0.007884802,0.008442771
1.031192,0.003963589,0.0004271945
1.030779,0.0004783816,-0.007956315
1.029129,0.0005041548,-0.008691256
1.02862,-0.002842171,-0.0122609
1.02642,-0.006707579,-0.01152829
1.024193,-0.004306391,-0.0092139
1.024947,-0.0005854994,-0.0111765
1.026384,-0.0002623104,-0.01109312
1.026272,0.002628947,-0.01058452
1.025468,0.005135054,-0.008414586
1.024801,0.003402254,-0.004747265
1.024613,0.004362862,-0.004367179
1.024196,0.004586235,-0.003906717
1.02237,0.003627662,-0.00034179
1.021701,0.005660311,0.007919851
1.022913,0.005615276,0.01510115
1.02394,0.005278945,0.009482295
1.025611,0.004913285,-0.002612849
1.026291,0.003346451,-0.007619148
1.026081,0.003491932,-0.006129621
1.026792,0.002584838,-0.003388688
1.026261,0.002450447,-7.161667e-05
1.026191,0.003594586,0.005557164
1.026737,0.004607394,0.00669633
1.02611,0.007968792,-0.0003731008
1.026829,0.009020032,-0.002748768
1.02829,0.007043992,-0.0008536795
1.029491,0.006647551,-0.001617606
1.029236,0.007005461,-0.001159755
1.026671,0.007390818,-0.001535908
1.025144,0.008644823,-0.001673253
1.024705,0.01027358,-0.001899295
1.02493,0.00911357,-0.003909486
1.025328,0.00456361,-0.004283211
1.025229,0.0004445748,-0.005994604
1.027775,-0.001149249,-0.006086358
1.030123,-0.001434119,-0.004762196
1.029222,-0.002544126,-0.006079293
1.028789,-0.001997798,-0.007245026
1.029534,0.002776626,-0.01425701
1.029966,0.007060006,-0.02163828
1.029742,0.006245325,-0.01573955
1.029118,0.004372773,-0.009214004
1.028712,0.004762629,-0.0126357
1.028428,-0.0002703105,-0.01151628
1.027796,-0.005642099,-0.004978677
1.028309,0.002491304,-0.005202991
1.029847,0.01149734,-0.005963349
1.028616,0.009659931,-0.005627313
1.026082,0.006207294,-0.009433227
1.024635,0.005153543,-0.01377448
1.024426,0.005301537,-0.01673627
1.025254,0.005350028,-0.01569711
1.023115,0.002812265,-0.01610414
1.021638,0.0004013922,-0.01847889
1.024888,0.001448659,-0.01107307
1.028259,0.002831296,-0.000331249
1.02968,0.002658672,0.002920326
1.027103,0.002930886,-0.001182251
1.02348,0.002772195,-0.004779463
1.024437,0.001370455,-0.002722103
1.028996,-0.003262944,-0.004910707
1.033286,-0.007926866,-0.00795127
1.030828,-0.001963304,-0.003033613
1.026865,0.006371279,-0.0003917326
1.027973,0.004663381,-0.005062983
1.0262,0.003861397,-0.0113878
1.024385,0.006611378,-0.01379754
1.025782,0.004477127,-0.01146637
1.024729,0.003216759,-0.007644361
1.026096,0.003810851,-0.00501675
1.028671,0.002294773,-0.007874473
1.027415,0.002636503,-0.01285134
1.026184,0.003155313,-0.01400505
1.025916,0.002467653,-0.01536827
1.027062,0.002194428,-0.01581035
1.028011,-0.0007691784,-0.01272685
1.027398,-0.003974958,-0.01203752
1.026369,-0.002557554,-0.01277285
1.02469,0.0006594094,-0.01317996
1.025155,0.001822531,-0.01696778
1.02537,0.001559627,-0.01984586
1.025363,0.0003013116,-0.01733012
1.027592,-0.003140729,-0.01266348
1.02799,-0.006149131,-0.01004859
1.029201,-0.003603004,-0.01029038
1.029037,0.0004817871,-0.01166245
1.027134,-0.0008805705,-0.0134399
1.030813,0.0002262038,-0.01551422
1.032366,0.004659765,-0.01810427
1.027752,0.002676291,-0.01880502
1.023391,0.0009786415,-0.01679688
1.02341,-0.0007075059,-0.01455064
1.027905,-0.006058644,-0.01167463
1.030298,-0.003825209,-0.01190494
1.030161,0.001720066,-0.01535451
1.030487,0.003152054,-0.01816002
1.030688,0.003462855,-0.02080038
1.03065,0.001652728,-0.01552939
1.030125,-0.0003452919,-0.00895866
1.029853,-0.003393431,-0.01738853
1.028915,-0.005675245,-0.02443234
1.028833,-0.003447881,-0.02003117
1.029324,-0.003753077,-0.02009881
1.027048,-0.004018956,-0.0228496
1.025856,-0.001962106,-0.02070064
1.026599,-0.003916114,-0.01598338
1.027538,-0.004739594,-0.01115742
1.029008,-0.003596513,-0.01324534
1.029361,-0.003490111,-0.0174943
1.029225,-0.002396348,-0.01401296
1.028509,-0.00269163,-0.01089272
1.026845,-0.003055671,-0.01000687
1.02612,-0.002530148,-0.009580015
1.027966,-0.002910674,-0.01353949
1.029667,-0.002573998,-0.01511067
1.028512,-0.001842327,-0.01664426
1.028175,-0.001365829,-0.0206042
1.026838,-0.002100933,-0.02188427
1.024508,-0.003320219,-0.02565828
1.025627,-0.002029991,-0.02441078
1.026723,0.001034945,-0.01839212
1.02827,0.00363174,-0.01863229
1.029323,0.003662347,-0.01637107
1.028594,0.003766869,-0.01540392
1.029881,0.006411716,-0.01812438
1.029994,0.005667913,-0.01505498
1.030059,0.002847951,-0.0132605
1.028767,0.002831813,-0.01482384
1.022986,0.002553933,-0.01733136
1.021685,0.002768736,-0.01674447
1.025317,0.003102616,-0.01329153
1.028036,0.001811975,-0.01789716
1.027835,0.0001927319,-0.01997206
1.027014,-0.003081745,-0.01768706
1.029035,-0.003641593,-0.02023369
1.0279,-0.001183356,-0.01917338
1.025815,0.0004164824,-0.0229244
1.027311,0.003548578,-0.02746604
1.027888,0.002383575,-0.02017313
1.029194,-0.00212045,-0.01601078
1.028063,-0.002442145,-0.01411983
1.024939,-0.003807469,-0.01261869
1.026473,-0.003970898,-0.01466438
1.026021,0.0008090168,-0.0116821
1.024037,0.00392781,-0.01026786
1.02534,0.001838789,-0.01158918
1.025124,-0.005198385,-0.01137043
1.024704,-0.01026084,-0.01399625
1.02526,-0.008426335,-0.01651527
1.024507,-0.00553986,-0.01895585
1.023227,-0.005371935,-0.02340806
1.021743,-0.005347869,-0.02643504
1.023163,-0.003596946,-0.02447198
1.028975,-0.002353656,-0.02041775
1.033062,-0.002594729,-0.01916701
1.029589,-0.003003932,-0.01835393
1.023963,-0.002823865,-0.01764799
1.02515,-0.00251675,-0.01691043
1.028485,-0.002849225,-0.01654368
1.029144,-0.001825777,-0.01603652
1.028491,-0.0005949998,-0.01330236
1.025259,0.0005748743,-0.01202841
1.024244,0.003947738,-0.005690059
1.026076,0.00563592,0.0003478151
1.027398,0.004698048,-0.005778055
1.029863,0.003525062,-0.01050791
1.028735,0.00221334,-0.01291957
1.026247,0.00114436,-0.0140397
1.026855,0.0006431758,-0.01083424
1.026355,-7.565592e-06,-0.01433248
1.027711,-0.002151553,-0.01934957
1.028792,-0.002775726,-0.02294508
1.026585,-0.002264872,-0.02403504
1.026139,-0.002616113,-0.02010177
1.024873,0.0009340012,-0.02258436
1.024378,0.003464424,-0.02486437
1.027067,-0.0008693937,-0.02494709
1.02818,-0.004307717,-0.02659055
1.029517,-0.003085554,-0.02339013
1.029739,-0.00284265,-0.02422644
1.027842,-0.003744573,-0.02266719
1.026905,0.001917789,-0.0130417
1.024833,0.00709341,-0.009004741
1.026889,0.0003077173,-0.01245824
1.031125,-0.00564044,-0.0206453
1.028872,-0.002858112,-0.02170199
1.028242,-0.003468075,-0.0189746
1.028999,-0.007099322,-0.02024252
1.026082,-0.005535897,-0.01230747
1.026407,-0.004706763,-0.007552863
1.028572,-0.006048431,-0.01255149
1.029426,-0.003418867,-0.0149067
1.028997,-0.002030096,-0.01604758
1.026038,-0.002900581,-0.01470914
1.024511,-0.001790735,-0.01425763
1.025757,-0.001540526,-0.01378572
1.026767,-0.003023529,-0.01202906
1.025578,-0.004879494,-0.01490459
1.024295,-0.00424991,-0.01720802
1.025254,-0.002604317,-0.0171431
1.025144,-0.003009346,-0.01528557
1.024682,-0.002574707,-0.01523951
1.02529,-0.002909175,-0.01869705
1.024855,-0.003967926,-0.01967285
1.024979,-0.004065482,-0.01977616
1.025497,-0.004352412,-0.01837835
1.026964,-0.003028753,-0.01804445
1.030254,-0.002439859,-0.01856281
1.031254,-0.002980668,-0.01569844
1.030146,-0.002627177,-0.01647892
1.029008,-0.002900658,-0.01715929
1.026391,-0.002726807,-0.01497146
1.024547,-0.002718799,-0.01446988
1.027503,-0.003109878,-0.01556383
1.030623,-0.003843737,-0.0246044
1.028698,-0.006363291,-0.03306788
1.026753,-0.007380353,-0.02611259
1.026466,-0.005990199,-0.01798703
1.026283,-0.005102947,-0.02022267
1.028288,-0.005553193,-0.01701334
1.028922,-0.005646924,-0.0112475
1.027355,-0.004409321,-0.01827218
1.027794,-0.004683698,-0.0252664
1.028922,-0.00773977,-0.0295455
1.029338,-0.01082192,-0.03403167
1.028706,-0.01022875,-0.02947023
1.026693,-0.008583056,-0.0268708
1.025887,-0.008972033,-0.02849083
1.027095,-0.00626705,-0.02724441
1.026913,-0.003445872,-0.02767054
1.025437,-0.004435213,-0.02570097
1.025738,-0.003945756,-0.02236247
1.025082,-0.003127508,-0.0218585
1.024306,-0.002778601,-0.02209304
1.025981,-0.002559678,-0.02348802
1.02664,-0.004249037,-0.0264354
1.027997,-0.005200245,-0.03049495
1.028527,-0.005772424,-0.02997677
1.026923,-0.005418323,-0.02795562
1.028134,-0.003364272,-0.03082613
1.027835,-0.003061092,-0.03097003
1.026134,-0.005202986,-0.02978285
1.025779,-0.007995326,-0.03019039
1.024333,-0.007162603,-0.02752958
1.025582,-0.004571503,-0.02333697
1.028093,-0.00324598,-0.01786795
1.029099,-0.0004317951,-0.01730592
1.028071,-0.001020406,-0.0238133
1.025128,-0.003365965,-0.026146
1.026323,-0.002311996,-0.02492795
1.027398,-0.002955653,-0.02497345
1.026447,-0.002837813,-0.02583664
1.028085,-0.001379172,-0.02678891
1.025857,-0.001603297,-0.02531778
1.022029,-0.001219898,-0.02456542
1.022217,-0.00241524,-0.02521598
1.023235,-0.002182263,-0.02346949
1.02492,0.002882767,-0.01793129
1.025542,0.005768953,-0.01166255
1.025636,1.935124e-05,-0.01282239
1.027151,-0.008001186,-0.01478281
1.028235,-0.008021959,-0.01230476
1.029309,-0.008004069,-0.01757624
1.02848,-0.007294987,-0.0233576
1.026135,2.574653e-05,-0.01962942
1.0262,-0.001130097,-0.01845012
1.026606,-0.003566764,-0.02111101
1.026241,-0.0005039968,-0.02079702
1.026809,-0.004677025,-0.01979692
1.028184,-0.005129334,-0.01962244
1.029658,-0.002967655,-0.0210662
1.029448,-0.006144238,-0.02247017
1.028343,-0.005039433,-0.0194714
1.027423,-0.003106788,-0.0153362
1.024694,0.0001770805,-0.01373612
1.022454,0.003944446,-0.01216332
1.022768,0.002228296,-0.01152943
1.024596,0.001460268,-0.01135819
1.027367,-0.0003618715,-0.009557727
1.026866,-0.002448386,-0.01205778
1.02542,-0.00101938,-0.01665906
1.027353,-0.0007766883,-0.01624224
1.028206,0.001088425,-0.01583724
1.028696,0.003765463,-0.01463526
1.027269,0.00298653,-0.01065666
1.02341,0.001519698,-0.009602186
1.024906,-0.0009088712,-0.009614
1.026138,-0.005490485,-0.01378177
1.024812,-0.005452386,-0.02164569
1.026148,0.002472282,-0.01950716
1.02499,0.007183327,-0.01312025
1.023878,0.003166412,-0.01228833
1.02398,-0.000248167,-0.01070879
1.021352,0.002378216,-0.00652385
1.022754,0.003299552,-0.002503256
1.027508,-0.001622213,-0.008067151
1.029928,-0.003802499,-0.01950218
1.029837,-0.002873608,-0.01918532
1.028366,-0.00352525,-0.01819716
1.029304,-0.003996369,-0.02188461
1.029489,-0.002768702,-0.0219581
1.027767,-0.0004159211,-0.02553026
1.028828,-0.001243069,-0.0230573
1.029344,-0.002492664,-0.01595705
1.029116,-0.002464132,-0.0193985
1.029338,-0.004669349,-0.02191184
1.028693,-0.002723712,-0.01960357
1.028525,-1.67455e-05,-0.0154535
1.027095,-0.00183659,-0.01082298
1.025706,-0.001577997,-0.01402406
1.025156,-0.0006672429,-0.01979042
1.025456,0.0003099202,-0.02254197
1.028264,0.002929558,-0.02237284
1.029001,0.003276281,-0.01859542
1.028959,0.001705215,-0.01536879
1.029689,-0.0007612259,-0.01361522
1.028015,-0.003161131,-0.0127748
1.0257,-0.0005388995,-0.01245369
1.022743,0.00401774,-0.01313791
1.023511,0.003010809,-0.01757999
1.028364,0.001961167,-0.02288718
1.02968,0.003480864,-0.02495838
1.029207,0.00180495,-0.02457493
1.028103,-0.001333018,-0.0233539
1.027264,-0.005414789,-0.02208343
1.028338,-0.007834313,-0.02356162
1.028671,-0.006190759,-0.02494987
1.030285,-0.006141498,-0.01867533
1.030638,-0.005642352,-0.01275638
1.027453,-0.004007291,-0.01483636
1.025735,-0.001735736,-0.01461509
1.026276,0.003000332,-0.01295204
1.027762,0.002302371,-0.02143864
1.027934,0.0007859249,-0.03086139
1.027585,0.004009935,-0.02809919
1.027675,0.002136115,-0.02251176
1.025763,-0.001612561,-0.01759942
1.024538,-0.003021189,-0.01054775
1.024895,-0.00364493,-0.01475509
1.02517,-0.00199679,-0.02185965
1.025061,-0.002812341,-0.01789388
1.02457,-0.003387478,-0.01869868
1.02435,-0.002186301,-0.02104468
1.023268,-0.004150992,-0.01714521
1.023365,-0.00443915,-0.01958648
1.024085,-0.003882587,-0.02564765
1.023253,-0.00413396,-0.03005312
1.023702,-0.002068818,-0.02807586
1.024297,-0.001202433,-0.02210939
1.026023,-0.002097623,-0.025103
1.028309,-0.003245873,-0.02456816
1.025284,-0.002987941,-0.02007752
1.022697,-0.002224829,-0.02421254
1.026395,-0.003229164,-0.02526585
1.029183,-0.002494748,-0.0251811
1.027759,-0.001826323,-0.02624072
1.028159,-0.00223771,-0.02218223
1.029805,-0.001862515,-0.02072642
1.027802,-0.002679771,-0.02103313
1.025393,-0.003578906,-0.02149361
1.02474,-0.004415407,-0.02285866
1.024766,-0.003503052,-0.02344083
1.025861,-0.001924736,-0.02929738
1.027571,-0.003328604,-0.03551197
1.029838,-0.003763362,-0.03097647
1.029753,-0.004089274,-0.01942708
1.027968,-0.003771482,-0.01263076
1.027758,0.001137306,-0.01455951
1.026049,0.005742219,-0.01677643
1.026014,0.005608746,-0.01527793
1.029065,0.0002222303,-0.01740402
1.029308,-0.00493848,-0.02188779
1.029187,-0.005366555,-0.02279897
1.029111,-0.004790071,-0.0253483
1.02777,-0.004494447,-0.02562696
1.026965,-0.004083896,-0.02002636
1.025834,-0.003471152,-0.01882728
1.026759,-0.003841801,-0.01969439
1.028214,-0.003968447,-0.02020622
1.027622,0.0006529734,-0.02153406
1.027259,0.004306605,-0.02042899
1.027391,0.00195937,-0.020717
1.028301,-0.002298802,-0.0201739
1.027399,-0.005200704,-0.01893779
1.025331,-0.004597,-0.02101101
1.024171,-0.003425757,-0.0228258
1.02348,-0.00411249,-0.02277216
1.027439,-0.002570737,-0.01661517
1.030645,-0.0004639428,-0.01034209
1.028923,-0.001435615,-0.01513192
1.028879,-0.001794139,-0.02253555
1.029401,-0.001888791,-0.02834454
1.029124,-0.006013132,-0.03412377
1.029136,-0.009951151,-0.0269377
1.029493,-0.009567217,-0.013171
1.03108,-0.009139464,-0.01457924
1.031794,-0.009354874,-0.01981381
1.029579,-0.005239881,-0.01714923
1.02692,-0.001562128,-0.01074142
1.029314,-0.005358974,0.001026893
1.031283,-0.008070949,0.005439339
1.02596,-0.003241273,0.003332522
1.020964,0.002124945,0.002354293
1.020648,0.004698864,-0.006138173
1.023605,0.008152699,-0.006393356
1.026203,0.01271788,0.006488575
1.023657,0.01486134,0.02272292
1.017389,0.01910983,0.03798791
1.009346,0.02717308,0.03255752
1.006934,0.02607891,0.02466993
1.01545,0.01597293,0.0275755
1.026231,0.008254904,0.01600148
1.032389,0.0009471066,0.008550949
1.031163,-0.005329181,0.01149721
1.027008,-0.001880754,0.007055678
1.027227,0.006371399,0.005778569
1.027909,0.00679476,0.001450162
1.031146,0.005701797,-0.004420795
1.036267,0.0084684,-0.005731596
1.033668,0.005991004,-0.01024005
1.027925,0.004550526,-0.005524964
1.021955,0.004904071,-0.004330253
1.018614,0.002786651,-0.01935231
1.023191,0.004703954,-0.02980905
1.028391,0.002512665,-0.03407085
1.033122,-0.0001198396,-0.0386505
1.032964,0.001832194,-0.04019605
1.025797,-0.002058091,-0.02817911
1.023291,-0.005440069,-0.01411141
1.021766,-0.006015547,-0.01786651
1.021305,-0.005736229,-0.01944793
1.023582,-0.004876058,-0.0157442
1.021761,-0.006245598,-0.01792368
1.024079,-0.005598688,-0.02002953
1.027253,-0.007523594,-0.02416255
1.02588,-0.01118959,-0.02271681
1.026763,-0.01126753,-0.01630017
1.026263,-0.01133433,-0.015993
1.026181,-0.01061418,-0.02244335
1.027212,-0.01030179,-0.03197375
1.027654,-0.009688983,-0.03205524
1.030073,-0.009185475,-0.02876547
1.028418,-0.01015178,-0.03146284
1.024068,-0.008531325,-0.03045246
1.021805,-0.007952651,-0.02849507
1.023884,-0.008786517,-0.02689799
1.030171,-0.009002214,-0.02366984
1.031342,-0.01036289,-0.02527985
1.029237,-0.01062021,-0.02843658
1.029042,-0.01042926,-0.03229211
1.028932,-0.007906561,-0.03726152
1.029498,-0.00407904,-0.03558494
1.029037,-0.005479588,-0.03248548
1.028289,-0.007340095,-0.0336476
0.9635576,-0.156738,-0.3255774
0.9580648,-0.1548098,-0.3241654
0.9625342,-0.1536745,-0.3263361
0.9682092,-0.1513906,-0.3276338
0.9632062,-0.1485196,-0.3255439
0.9616503,-0.1464808,-0.3263126
0.9616562,-0.1487915,-0.32793
0.9584119,-0.1553831,-0.3304083
0.9610604,-0.1587175,-0.3359802
0.9631613,-0.1581873,-0.3366679
0.9639368,-0.1561282,-0.3349655
0.9664421,-0.1566076,-0.3364208
0.9660681,-0.1577147,-0.3338896
0.966584,-0.1550757,-0.3327109
0.9668008,-0.153342,-0.3346861
0.9635614,-0.1470411,-0.3308217
0.9590286,-0.137467,-0.3272266
0.9554525,-0.1373712,-0.3269238
0.957,-0.1451352,-0.3292226
0.9597218,-0.1538766,-0.3368629
0.9592468,-0.1553694,-0.3432378
0.9581636,-0.1506099,-0.3481487
0.9564135,-0.1496998,-0.3533505
0.9567967,-0.1554065,-0.3546606
0.9595043,-0.1686973,-0.3633419
0.959863,-0.1788622,-0.3771993
0.9582011,-0.1726761,-0.373893
0.9517299,-0.1619878,-0.3684167
0.9457451,-0.1597566,-0.373079
0.9535536,-0.1585547,-0.3652914
0.9641296,-0.1532403,-0.35713
0.963337,-0.1464381,-0.362169
0.9604803,-0.1430094,-0.3609071
0.9586473,-0.1486118,-0.3552373
0.9559684,-0.1540078,-0.3521005
0.9637665,-0.1539307,-0.3535867
0.9745376,-0.1561699,-0.364466
0.9690795,-0.1580094,-0.3692643
0.9570451,-0.158807,-0.358639
0.9511941,-0.160867,-0.3475666
0.953421,-0.1599914,-0.3473593
0.9607801,-0.1544865,-0.3441524
0.9602302,-0.1465044,-0.3302107
0.9560943,-0.140457,-0.3194805
0.9521268,-0.1325227,-0.3045976
0.9448756,-0.1198483,-0.2909214
0.9510155,-0.1151354,-0.2992764
0.9656309,-0.1210549,-0.3076503
0.974805,-0.1280052,-0.3109309
0.9812488,-0.1387593,-0.3212341
0.9800721,-0.1461655,-0.3207949
0.976654,-0.1408699,-0.3155602
0.9659399,-0.1406152,-0.311999
0.9467635,-0.1443125,-0.3034966
0.94702,-0.1450167,-0.3098642
0.9541277,-0.1535784,-0.3226586
0.9529958,-0.1616523,-0.3297753
0.9653016,-0.1741661,-0.3575949
0.9786398,-0.1886787,-0.3884922
0.9753983,-0.1822474,-0.3869977
0.9674698,-0.1712194,-0.3741657
0.9625746,-0.1636024,-0.3705626
0.9668033,-0.1537388,-0.3642414
0.9743008,-0.1531508,-0.3543689
0.9730317,-0.1535351,-0.3515786
0.9712993,-0.1528426,-0.3467682
0.9694963,-0.1571554,-0.3290783
0.9641733,-0.1570344,-0.3133587
0.9638413,-0.1543584,-0.3112857
0.963251,-0.1517029,-0.3128933
0.9628394,-0.1472623,-0.3125483
0.9665535,-0.1432021,-0.310318
0.9634289,-0.1338391,-0.30168
0.9599474,-0.1221769,-0.2927076
0.9622871,-0.119183,-0.2944908
0.9637301,-0.1227147,-0.2986031
0.9672234,-0.1281266,-0.2980009
0.969418,-0.1364432,-0.3056242
0.9690351,-0.144466,-0.3139625
0.9693712,-0.148994,-0.310404
0.9652118,-0.1541022,-0.3097096
0.9608033,-0.1608164,-0.3091303
0.9613678,-0.1721386,-0.3058905
0.965697,-0.186578,-0.3146702
0.973008,-0.1908556,-0.3265225
0.9777863,-0.1899749,-0.3312458
0.9780302,-0.1901507,-0.3286046
0.9758498,-0.1861161,-0.3233988
0.9741995,-0.1822695,-0.3225687
0.9743971,-0.1757487,-0.3176994
0.969895,-0.1661538,-0.3090166
0.9591614,-0.1633301,-0.3005261
0.9526969,-0.1660544,-0.2954986
0.9572859,-0.1688384,-0.3027176
0.9643798,-0.1742156,-0.3120388
0.9667555,-0.1835343,-0.3180519
0.9677822,-0.1836839,-0.316249
0.9681531,-0.1725052,-0.3024351
0.96956,-0.1641675,-0.2977713
0.9704003,-0.1591359,-0.3013157
0.9692174,-0.1524844,-0.3016445
0.9737902,-0.1477934,-0.3019659
0.9792571,-0.1507365,-0.3008538
0.9796092,-0.1530605,-0.3032304
0.9789454,-0.1490307,-0.3026221
0.9769618,-0.1491612,-0.2952366
0.9765948,-0.1496939,-0.2888987
0.9793956,-0.1484315,-0.2845324
0.9831126,-0.1489856,-0.2907887
0.9844695,-0.1461293,-0.3004139
0.9825905,-0.1467919,-0.3020328
0.9833911,-0.1538752,-0.3001426
0.9837735,-0.161373,-0.2971307
0.9827356,-0.1632506,-0.2987288
0.9834347,-0.1585837,-0.2978839
0.9813869,-0.1567987,-0.2894913
0.978621,-0.153802,-0.2843413
0.9744147,-0.1524928,-0.2845308
0.9695239,-0.1578957,-0.2850834
0.972977,-0.1598053,-0.2815162
0.9780298,-0.1641515,-0.2816859
0.9763823,-0.165889,-0.2845944
0.9755924,-0.1618139,-0.2821091
0.9782227,-0.1645952,-0.2834987
0.9814789,-0.1629139,-0.2831825
0.9862857,-0.1583208,-0.2803644
0.9865999,-0.1590095,-0.2822438
0.9823443,-0.1594764,-0.2774513
0.9782234,-0.1635979,-0.2712481
0.972376,-0.1660676,-0.2701449
0.9772086,-0.1672723,-0.2700812
0.9880908,-0.1695455,-0.2699402
0.9862944,-0.1669829,-0.2667382
0.9848586,-0.1665594,-0.2663442
0.9853977,-0.1641095,-0.2645662
0.9822594,-0.158871,-0.2595163
0.9853386,-0.1598789,-0.2603165
0.9871736,-0.1611321,-0.2599575
0.9856149,-0.1625862,-0.2584571
0.9862584,-0.1623558,-0.2564768
0.9856796,-0.1566561,-0.248146
0.9844048,-0.1541918,-0.2435711
0.9834731,-0.155892,-0.2459738
0.986604,-0.1569265,-0.2466633
0.9904205,-0.1563043,-0.2443394
0.9876194,-0.1538066,-0.2404354
0.9847062,-0.1494132,-0.233176
0.984665,-0.1471882,-0.2281192
0.9845811,-0.1493373,-0.232022
0.9857222,-0.1497672,-0.2379414
0.9892224,-0.1495032,-0.2426609
0.992912,-0.1495413,-0.2454349
0.9917655,-0.1470175,-0.2439672
0.9879256,-0.146871,-0.2444107
0.9871429,-0.1481558,-0.2446864
0.9869252,-0.1497793,-0.2433563
0.9846373,-0.1532654,-0.2458823
0.98182,-0.1533473,-0.2509607
0.9819961,-0.1521676,-0.255836
0.9870315,-0.153214,-0.2550225
0.9902657,-0.1537372,-0.2530064
0.9885863,-0.1542388,-0.2564063
0.9869747,-0.1539038,-0.2553392
0.9872007,-0.1508674,-0.2500641
0.9877601,-0.1474533,-0.2487444
0.9866674,-0.1468383,-0.2525154
0.9863133,-0.1497728,-0.2576263
0.9880467,-0.1538088,-0.2563267
0.9899841,-0.1566541,-0.2565663
0.9926141,-0.1582824,-0.2630436
0.9917923,-0.160541,-0.2628659
0.988534,-0.1642643,-0.2610161
0.9871993,-0.1638203,-0.2645781
0.9855279,-0.1574503,-0.2647449
0.98692,-0.1528613,-0.2628306
0.9894498,-0.1515154,-0.2628562
0.9880717,-0.1494267,-0.2607644
0.9863042,-0.1469598,-0.2586349
0.9845922,-0.1467426,-0.2611744
0.9870975,-0.1486338,-0.2665709
0.9924819,-0.1514804,-0.2717064
0.9916461,-0.1559101,-0.2716415
0.9884564,-0.1582869,-0.2666241
0.9843039,-0.1606039,-0.2645122
0.980475,-0.1652334,-0.2625299
0.9838601,-0.1641132,-0.2613575
0.987253,-0.1623308,-0.2654376
0.9867297,-0.1616992,-0.2665191
0.9873162,-0.1555276,-0.2675083
0.9855225,-0.153414,-0.2700086
0.9810835,-0.1547417,-0.2688788
0.9797165,-0.1546196,-0.2722466
0.9810731,-0.1588688,-0.2773467
0.9825589,-0.1624792,-0.2783618
0.9840335,-0.1610866,-0.2751164
0.9853668,-0.1584019,-0.2683491
0.9859777,-0.1571373,-0.2709311
0.9846325,-0.1568161,-0.2742601
0.9826799,-0.1563161,-0.2678838
0.9840177,-0.1550093,-0.2675463
0.9849077,-0.1507714,-0.2696149
0.9808195,-0.1488049,-0.2690325
0.9778896,-0.1510145,-0.2696517
0.9800213,-0.1527142,-0.2658295
0.9841503,-0.1547931,-0.2627243
0.9873481,-0.1560827,-0.2626456
0.9885434,-0.1605736,-0.2655781
0.9923499,-0.167854,-0.2717853
0.9969887,-0.1656533,-0.2726901
0.9913224,-0.1595499,-0.2683853
0.9823597,-0.1560743,-0.2589201
0.9832126,-0.1516924,-0.2515854
0.986732,-0.1559299,-0.2577004
0.9872945,-0.1643483,-0.2656972
0.9853929,-0.1640081,-0.2696185
0.9820365,-0.1628995,-0.2734545
0.9840594,-0.1593559,-0.2671407
0.9860092,-0.1514069,-0.2563722
0.983012,-0.1486983,-0.2591248
0.9803989,-0.147201,-0.2613929
0.978175,-0.1476654,-0.2587051
0.9838869,-0.1523017,-0.267153
0.9921703,-0.154993,-0.2709361
0.987255,-0.1549568,-0.264188
0.9836444,-0.1532332,-0.2612595
0.987512,-0.1546466,-0.261674
0.9857304,-0.1575326,-0.2625919
0.9835615,-0.161008,-0.2595202
0.983626,-0.1660995,-0.2587384
0.982656,-0.1630823,-0.2609833
0.9837347,-0.1579123,-0.2598877
0.9834728,-0.1558247,-0.2653068
0.9831808,-0.1526958,-0.2685253
0.9856516,-0.1520131,-0.2598378
0.9863806,-0.1493692,-0.2535564
0.9859021,-0.1489007,-0.259189
0.9840453,-0.1515256,-0.2660051
0.9817203,-0.1487741,-0.2617977
0.9828783,-0.1481001,-0.2618307
0.9878552,-0.148016,-0.2679642
0.994665,-0.1487361,-0.2668415
0.9948291,-0.1530811,-0.2627582
0.987314,-0.1505008,-0.255259
0.9809266,-0.1488456,-0.2534743
0.9782974,-0.1519056,-0.2596568
0.979746,-0.1516174,-0.2654303
0.9824759,-0.1531799,-0.2743155
0.9843369,-0.1548729,-0.2694508
0.98473,-0.1540741,-0.2577097
0.9825563,-0.1531959,-0.2625511
0.9834271,-0.1496698,-0.2666584
0.985887,-0.1468877,-0.2658412
0.985996,-0.1513982,-0.2600465
0.9865547,-0.1585201,-0.2489506
0.9858988,-0.1585583,-0.255939
0.9858794,-0.1575366,-0.2665997
0.9864368,-0.160185,-0.2674953
0.984757,-0.159629,-0.2740001
0.9844561,-0.1591774,-0.2716551
0.9842188,-0.1583872,-0.2617064
0.9843482,-0.1555152,-0.2608952
0.984677,-0.1553022,-0.2614143
0.9811489,-0.1539944,-0.2630718
0.9801251,-0.1533136,-0.2644073
0.9845645,-0.1541929,-0.2674997
0.9870263,-0.1530569,-0.2734905
0.9840493,-0.1542314,-0.2647527
0.9803537,-0.1548281,-0.2552396
0.9802605,-0.1540359,-0.2616433
0.980731,-0.1574739,-0.2680701
0.9801225,-0.1612519,-0.2731552
0.9788318,-0.1623572,-0.2755961
0.9771664,-0.1612391,-0.2707231
0.9777825,-0.1580177,-0.2704453
0.9799908,-0.1560961,-0.2724367
0.9838193,-0.1568245,-0.2717771
0.9886517,-0.1574118,-0.2750251
0.9891603,-0.1566853,-0.2750243
0.9874365,-0.157029,-0.2712823
0.9858579,-0.1581333,-0.273316
0.9827853,-0.1583381,-0.2769082
0.9851547,-0.1585313,-0.2804107
0.989656,-0.1582286,-0.2805955
0.9855228,-0.1582224,-0.2739148
0.9786233,-0.1584008,-0.2694905
0.9737918,-0.1572191,-0.2711828
0.9751745,-0.1579969,-0.278394
0.9830495,-0.1633611,-0.284021
0.9840949,-0.1700146,-0.2820543
0.9818621,-0.1720369,-0.2806494
0.9821881,-0.1724183,-0.2822899
0.9813282,-0.1741225,-0.2845396
0.9819008,-0.1693721,-0.2858646
0.9791062,-0.1633198,-0.2862664
0.9753592,-0.162031,-0.2861182
0.9754558,-0.1578602,-0.2837745
0.97379,-0.1523481,-0.2830807
0.9739962,-0.150667,-0.2832818
0.9773375,-0.1547525,-0.2819898
0.9801355,-0.1607604,-0.2774513
0.9798002,-0.1617649,-0.2733965
0.9780817,-0.1618532,-0.2843597
0.9797544,-0.1644837,-0.2977929
0.9793288,-0.1676924,-0.2940095
0.9772709,-0.1674485,-0.2844177
0.9736085,-0.1654281,-0.2777591
0.9683786,-0.1672863,-0.2746941
0.9758374,-0.1662094,-0.2784645
0.9873273,-0.1623029,-0.2807156
0.9868766,-0.1608177,-0.2782612
0.9843748,-0.1599113,-0.2790217
0.9853185,-0.1593619,-0.2788193
0.9873085,-0.1542502,-0.2768102
0.988532,-0.1512909,-0.2774481
0.9829692,-0.1570362,-0.2742968
0.9765447,-0.1614253,-0.271149
0.978828,-0.1634031,-0.2743256
0.9808693,-0.1639158,-0.2783991
0.978982,-0.1671273,-0.2818403
0.9801947,-0.1744265,-0.2868931
0.9777257,-0.174766,-0.2910193
0.9729251,-0.1735392,-0.2906903
0.9751348,-0.1731265,-0.290549
0.9758865,-0.1675152,-0.2891805
0.9749943,-0.1660622,-0.284292
0.9798844,-0.1674479,-0.2856577
0.9832079,-0.1660725,-0.2875224
0.9812382,-0.1677004,-0.284474
0.9796045,-0.1714063,-0.2835251
0.9805695,-0.1729188,-0.2804824
0.9795641,-0.1664744,-0.2778336
0.9756485,-0.1569488,-0.2760449
0.9750877,-0.1578642,-0.2675149
0.9787237,-0.1582948,-0.2632399
0.9827123,-0.1543062,-0.2674944
0.9826897,-0.1583595,-0.2691624
0.9814998,-0.1611138,-0.2677604
0.9850892,-0.1603713,-0.267724
0.9871068,-0.159885,-0.268468
0.9856995,-0.1552504,-0.2670272
0.9849757,-0.1548889,-0.263403
0.9835641,-0.1573845,-0.2606261
0.9830363,-0.1602888,-0.2629689
0.9837375,-0.1659157,-0.267942
0.9851571,-0.1640918,-0.2687818
0.9866962,-0.160098,-0.2706612
0.9861905,-0.1589153,-0.2715158
0.9858413,-0.1557237,-0.2685092
0.9858961,-0.1566349,-0.2731502
0.9834548,-0.1577423,-0.2765442
0.9782431,-0.1552825,-0.2715124
0.9757327,-0.1565477,-0.2699637
0.9807875,-0.1610965,-0.2726443
0.9854401,-0.1649104,-0.2800398
0.9829896,-0.1621086,-0.2863444
0.980343,-0.1546991,-0.2801205
0.9795931,-0.1531954,-0.2731166
0.9767524,-0.1542598,-0.2775399
0.9759073,-0.153398,-0.2834156
0.9780162,-0.1539213,-0.2848504
0.9796765,-0.1562484,-0.2853896
0.9810541,-0.1602253,-0.2825457
0.9797598,-0.1633411,-0.2812604
0.9783953,-0.166044,-0.2823605
0.9795228,-0.1670914,-0.2807977
0.979176,-0.1620307,-0.284528
0.9789836,-0.1568333,-0.2864963
0.9799091,-0.1544248,-0.2825259
0.9816921,-0.1536052,-0.2816418
0.983874,-0.154658,-0.2787993
0.981859,-0.154979,-0.2797682
0.9798763,-0.155758,-0.2836637
0.983404,-0.1567212,-0.2795832
0.9852878,-0.159603,-0.2780504
0.980977,-0.163979,-0.2798767
0.9778254,-0.1620742,-0.2799754
0.9804172,-0.1596727,-0.2845254
0.9832962,-0.1606643,-0.2890711
0.9822195,-0.1559584,-0.2853244
0.977135,-0.1511183,-0.2754228
0.9732849,-0.1552653,-0.2681333
0.9807995,-0.1588881,-0.2683162
0.9901776,-0.1564786,-0.2707099
0.9859097,-0.1565474,-0.271672
0.9821278,-0.1593159,-0.2776126
0.9851924,-0.1630177,-0.28547
0.9853038,-0.1712873,-0.2848202
0.9873087,-0.1755442,-0.2842246
0.9852222,-0.1700472,-0.28618
0.9792227,-0.1649676,-0.2840457
0.9818101,-0.1640269,-0.2864311
0.9803467,-0.1636676,-0.2889656
0.9756054,-0.1638857,-0.2866476
0.9783123,-0.1647526,-0.2869946
0.9782617,-0.1673221,-0.2841642
0.9770681,-0.1702186,-0.2803957
0.9786247,-0.1681441,-0.2819881
0.9793932,-0.1651893,-0.282452
0.9810436,-0.1667603,-0.2807377
0.9805648,-0.1663389,-0.2774396
0.9782051,-0.1642925,-0.2738349
0.977714,-0.1655677,-0.2739871
0.9790296,-0.1648061,-0.2741908
0.9823113,-0.1612753,-0.2713667
0.9842703,-0.1586218,-0.2712303
0.9836296,-0.157186,-0.271542
0.9847834,-0.156105,-0.26823
0.987281,-0.153938,-0.2691489
0.9880724,-0.1538471,-0.2699529
0.9878248,-0.1544819,-0.2654626
0.9835624,-0.1528492,-0.2630619
0.9758269,-0.1528618,-0.2632594
0.9759534,-0.1536797,-0.2695112
0.9830474,-0.1545059,-0.2762993
0.9852601,-0.1556003,-0.2723492
0.9814229,-0.1562354,-0.2679151
0.9780153,-0.1573983,-0.2675666
0.9815128,-0.1556872,-0.2651362
0.9854127,-0.1534102,-0.2645954
0.9826982,-0.1549711,-0.2708499
0.982463,-0.1584546,-0.2775792
0.9822717,-0.1609045,-0.2753408
0.978236,-0.1585403,-0.2714233
0.9780324,-0.1555596,-0.2725584
0.977995,-0.1528934,-0.2714443
0.9774373,-0.1492295,-0.2707993
0.9800105,-0.1539478,-0.2725478
0.9837288,-0.1601478,-0.2718165
0.9874942,-0.1587256,-0.2721724
0.9863157,-0.157959,-0.2716731
0.982606,-0.1556399,-0.2699542
0.9808217,-0.1522707,-0.2712286
0.9787198,-0.1543573,-0.2708973
0.9814018,-0.1525148,-0.2704914
0.9851611,-0.1471079,-0.27125
0.9829431,-0.1481488,-0.2705099
0.9833153,-0.1536814,-0.2706085
0.9867575,-0.1597122,-0.2694762
0.9873146,-0.1594243,-0.2680104
0.9852143,-0.1555348,-0.2664176
0.9822828,-0.1565764,-0.263443
0.9839007,-0.1555269,-0.2667726
0.9858161,-0.1546664,-0.2716807
0.9831733,-0.156258,-0.2692909
0.9833507,-0.1531656,-0.2684357
0.9854966,-0.1525262,-0.2704433
0.9863341,-0.1549117,-0.2687118
0.9853001,-0.155455,-0.2672185
0.9788241,-0.1542935,-0.2658013
0.9724712,-0.1523005,-0.2653483
0.9739519,-0.1563617,-0.2711665
0.9800483,-0.1599621,-0.2746482
0.9820851,-0.1570718,-0.2701708
0.9813614,-0.1557657,-0.2662619
0.9826131,-0.1541916,-0.2682791
0.9819434,-0.1502371,-0.2707503
0.9824319,-0.1498849,-0.2696191
0.9841127,-0.1550743,-0.2694962
0.9819899,-0.1598014,-0.2694582
0.9818108,-0.1602246,-0.2696427
0.9830744,-0.1602314,-0.2724627
0.9833759,-0.1595356,-0.2731575
0.9836956,-0.1573128,-0.2719374
0.9829151,-0.1555731,-0.2700299
0.9840419,-0.1542263,-0.2687464
0.9861612,-0.1541816,-0.268772
0.9870717,-0.1551258,-0.2680013
0.983723,-0.1558028,-0.270542
0.9785245,-0.1555134,-0.2755554
0.981405,-0.154422,-0.2791638
0.9844554,-0.1540141,-0.2796486
0.9822293,-0.1535722,-0.2766132
0.9817804,-0.1515527,-0.2750536
0.9802631,-0.1495703,-0.2747687
0.9803776,-0.1513649,-0.2749184
0.9842867,-0.1540383,-0.2753375
0.9860073,-0.152661,-0.273934
0.986214,-0.1521871,-0.2707045
0.9837414,-0.1535989,-0.2639611
0.9797224,-0.1535471,-0.260635
0.9786293,-0.1559495,-0.2647007
0.9795075,-0.1598453,-0.2679763
0.9824048,-0.1613894,-0.2693035
0.9849506,-0.1594969,-0.2690771
0.985055,-0.15531,-0.2667175
0.9844352,-0.1546154,-0.2619426
0.9836293,-0.1543437,-0.2553531
0.9833297,-0.1518648,-0.2575149
0.9832993,-0.1528681,-0.2676473
0.9843053,-0.154179,-0.2726894
0.9851708,-0.153999,-0.2716206
0.9843398,-0.1539274,-0.26897
0.9838673,-0.1513087,-0.2673835
0.9825818,-0.1495045,-0.2650176
0.9804238,-0.1518272,-0.26438
0.9787189,-0.1546327,-0.2692771
0.9791224,-0.1546586,-0.2701027
0.9825272,-0.1553174,-0.2709903
0.9839562,-0.159679,-0.2808089
0.9829853,-0.1615832,-0.2881018
0.9814436,-0.1573938,-0.2836946
0.9800925,-0.15309,-0.2743511
0.9816455,-0.1539071,-0.272071
0.9833562,-0.1558963,-0.2696057
0.9834871,-0.1555068,-0.2669491
0.9837089,-0.156521,-0.2716204
0.985869,-0.1574065,-0.2691094
0.991265,-0.1563378,-0.2680549
0.9933297,-0.1547365,-0.2707742
0.9868699,-0.1509175,-0.2634324
0.9807102,-0.1489013,-0.2596257
0.9830453,-0.152024,-0.2610589
0.9850376,-0.1595363,-0.2677766
0.9838195,-0.1681463,-0.2733584
0.988679,-0.1672805,-0.269564
0.9915948,-0.159338,-0.2744611
0.9869773,-0.1559592,-0.2759605
0.9845675,-0.1543479,-0.2668203
0.983516,-0.1508927,-0.2652248
0.9816211,-0.1481668,-0.2689978
0.9827136,-0.1471381,-0.2747507
0.9858594,-0.1478214,-0.2739928
0.9864266,-0.1495582,-0.2693581
0.9839454,-0.1539825,-0.2676091
0.982867,-0.1572237,-0.264724
0.983415,-0.1553949,-0.2733687
0.9842456,-0.1561326,-0.280867
0.9843088,-0.1589218,-0.2724583
0.9839892,-0.1593984,-0.2681466
0.985853,-0.1608559,-0.2687212
0.9859654,-0.1604634,-0.2673075
0.982274,-0.1555687,-0.2675883
0.9792844,-0.1511537,-0.2682528
0.9793112,-0.1521575,-0.2663489
0.9796958,-0.1540379,-0.2641336
0.9784441,-0.1521251,-0.2665568
0.9783521,-0.1525561,-0.2705182
0.9780513,-0.1531332,-0.2757225
0.9784112,-0.1503218,-0.2777663
0.9826697,-0.1500926,-0.2722598
0.9869302,-0.1519102,-0.2694139
0.9889061,-0.154205,-0.2680289
0.9842197,-0.1543588,-0.2652349
0.9777313,-0.1508308,-0.2634882
0.9812557,-0.1499509,-0.2616695
0.9859281,-0.1525484,-0.2635422
0.9876747,-0.1544758,-0.2648252
0.9901506,-0.1510195,-0.2638864
0.9875233,-0.1467187,-0.2643647
0.9852885,-0.1497227,-0.2643665
0.9849096,-0.1514834,-0.2679522
0.982966,-0.1505986,-0.2711973
0.9868677,-0.1518169,-0.2686225
0.9906449,-0.1497998,-0.2670119
0.9886214,-0.1495973,-0.266073
0.9882564,-0.1535964,-0.2651196
0.987876,-0.15468,-0.266352
0.9844412,-0.1536868,-0.2653698
0.9822946,-0.1513516,-0.2651986
0.9833572,-0.1487563,-0.2695242
0.9838262,-0.1481163,-0.271243
0.983073,-0.1474606,-0.2682555
0.9843564,-0.1485284,-0.2651608
0.9847894,-0.1509612,-0.2649454
0.9827718,-0.1501571,-0.266379
0.9812417,-0.1493606,-0.2681767
0.9806637,-0.1501279,-0.270065
0.9798067,-0.1481374,-0.2666767
0.9789495,-0.1469618,-0.2626669
0.9811105,-0.1507475,-0.2649119
0.983964,-0.1561404,-0.2676101
0.9843016,-0.1590769,-0.2708934
0.9848653,-0.1581121,-0.274391
0.9849203,-0.1557884,-0.2775958
0.9844369,-0.153525,-0.2804694
0.9847291,-0.1519328,-0.2761584
0.9837964,-0.1528905,-0.2718871
0.98298,-0.1531537,-0.2686834
0.983349,-0.1525216,-0.26268
0.9837947,-0.1538968,-0.2681291
0.9850703,-0.1544725,-0.2758847
0.9866165,-0.153541,-0.2708341
0.9855116,-0.1506101,-0.2656713
0.9811757,-0.1446739,-0.2618115
0.9780024,-0.1414352,-0.2574749
0.9805523,-0.1436411,-0.2609462
0.988842,-0.1464504,-0.2652426
0.9944468,-0.1476522,-0.2665704
0.9884899,-0.149028,-0.2670007
0.9814738,-0.1512761,-0.2653209
0.9846226,-0.1537686,-0.2712851
0.9854756,-0.1541543,-0.278078
0.98191,-0.153589,-0.2745805
0.9856235,-0.1552397,-0.2742416
0.9883446,-0.1568275,-0.2768786
0.9866958,-0.1586915,-0.2761711
0.9870571,-0.1599581,-0.2754549
0.9857146,-0.1600212,-0.271008
0.9857604,-0.1600934,-0.2668606
0.9864409,-0.1528952,-0.2702523
0.9837374,-0.1484807,-0.273771
0.983212,-0.1552219,-0.2697253
0.984132,-0.1567583,-0.2647559
0.9847001,-0.156024,-0.2625627
0.9832391,-0.1563003,-0.2606702
0.9813568,-0.1526982,-0.2645582
0.9848332,-0.1541732,-0.2685989
0.9871107,-0.1550434,-0.266108
0.9850605,-0.1531738,-0.2649351
0.9843379,-0.1549579,-0.2637778
0.9858749,-0.1547933,-0.2617421
0.9879134,-0.1544374,-0.2634008
0.9893585,-0.1535969,-0.2645833
0.9902938,-0.1506922,-0.2636539
0.987127,-0.14784,-0.2637441
0.9811743,-0.1433362,-0.2639642
0.9800677,-0.1451228,-0.2628396
0.9835516,-0.1500045,-0.2622162
0.9867534,-0.1492505,-0.2621709
0.9864718,-0.1515477,-0.2604002
0.9853601,-0.1522537,-0.257575
0.9855682,-0.1473109,-0.2570248
0.984605,-0.1472439,-0.2595628
0.9853012,-0.1493198,-0.2622427
0.9868649,-0.1511723,-0.2642291
0.9859152,-0.1530439,-0.2632389
0.9861028,-0.1542357,-0.25889
0.9872898,-0.1583516,-0.2584754
0.9875732,-0.1584768,-0.2614051
0.986774,-0.1562597,-0.2664844
0.9828742,-0.1577126,-0.2767213
0.979202,-0.1565784,-0.2809789
0.9801415,-0.1564831,-0.2725029
0.9818,-0.1564029,-0.2637306
0.9822821,-0.1524342,-0.2639157
0.9854575,-0.1506997,-0.2697189
0.9873785,-0.148645,-0.2721061
0.9851409,-0.145215,-0.2632338
0.9842081,-0.1423732,-0.2517707
0.9836424,-0.1416151,-0.2518099
0.9844056,-0.1424736,-0.2517016
0.9864492,-0.1394273,-0.2475465
0.9816741,-0.1394538,-0.2539665
0.9781442,-0.1421987,-0.2594729
0.9850836,-0.1420231,-0.2623515
0.991612,-0.1453501,-0.2718959
0.9908749,-0.1455384,-0.2716724
0.9897325,-0.1438793,-0.2693922
0.9924681,-0.1463426,-0.2737861
0.992896,-0.1415651,-0.2697624
0.9874206,-0.1348371,-0.2661632
0.9803073,-0.1340875,-0.2637234
0.9778326,-0.1345743,-0.2605746
0.9824917,-0.1355857,-0.2656315
0.9856473,-0.1362182,-0.2659364
0.9848352,-0.1380842,-0.2639831
0.9866748,-0.1390476,-0.2644805
0.989021,-0.1379224,-0.2611877
0.9892695,-0.1373189,-0.2634647
0.9887047,-0.133683,-0.2676542
0.9884003,-0.1330753,-0.2695727
0.9873864,-0.1385929,-0.2681656
0.9853377,-0.1413919,-0.2606513
0.9859476,-0.1406637,-0.2574061
0.9862999,-0.1395725,-0.2557546
0.983896,-0.140449,-0.2552818
0.9829114,-0.1410714,-0.2602339
0.9836038,-0.1414115,-0.2628456
0.9853097,-0.144038,-0.2639576
0.986641,-0.1430826,-0.263234
0.9859815,-0.1415602,-0.260028
0.9850097,-0.1437151,-0.2573736
0.9845389,-0.1464753,-0.2556666
0.9846686,-0.1488506,-0.255486
0.9846593,-0.142827,-0.2522468
0.9837625,-0.1330077,-0.2495085
0.9830677,-0.1335977,-0.2522629
0.9843153,-0.1412411,-0.2609903
0.9888876,-0.147513,-0.272915
0.9932013,-0.1464649,-0.2728706
0.9901329,-0.1425111,-0.2683862
0.9798087,-0.1432394,-0.2719262
0.9727751,-0.1436591,-0.2711713
0.9779306,-0.1456934,-0.2699713
0.9880755,-0.1503694,-0.2735809
0.9891704,-0.149762,-0.2765209
0.981784,-0.1460721,-0.2789086
0.9754498,-0.1435074,-0.2719156
0.9765843,-0.1442888,-0.2643795
0.9851123,-0.1471539,-0.2746073
0.9912413,-0.1469215,-0.2830157
0.9904794,-0.1455019,-0.2744321
0.9870854,-0.1441966,-0.2653657
0.9850783,-0.1453186,-0.2620228
0.98635,-0.1495697,-0.2623297
0.9863729,-0.1500023,-0.2681918
0.9855243,-0.1467296,-0.2722835
0.9850352,-0.1423313,-0.2702684
0.9815626,-0.140341,-0.2661608
0.980021,-0.142272,-0.2643415
0.9823528,-0.1426633,-0.2674001
0.9841761,-0.1458656,-0.2690366
0.9834425,-0.1513249,-0.2681456
0.9827291,-0.1507056,-0.2702442
0.9838464,-0.1494785,-0.2704713
0.98339,-0.1494128,-0.2674206
0.9839744,-0.1462482,-0.2668864
0.9857764,-0.1445727,-0.2667207
0.9862495,-0.1445363,-0.26286
0.9879958,-0.1419498,-0.2612215
0.9877155,-0.1400802,-0.263691
0.9856357,-0.1393599,-0.2641763
0.984418,-0.1390594,-0.2654072
0.9830209,-0.143039,-0.2660881
0.9852666,-0.1474267,-0.2647476
0.9890008,-0.1478943,-0.2670884
0.9888892,-0.1465821,-0.2666711
0.986963,-0.1451996,-0.2625994
0.985551,-0.1437826,-0.2633165
0.9859141,-0.1412949,-0.2697368
0.9869208,-0.1398219,-0.2742905
0.9872737,-0.1402281,-0.2652818
0.9872475,-0.1415318,-0.2551403
0.9842359,-0.1429994,-0.2593717
0.9820799,-0.1434345,-0.2640672
0.9849447,-0.145526,-0.2680941
0.9862131,-0.1489894,-0.2768275
0.9858245,-0.1508804,-0.2755759
0.9865371,-0.1505709,-0.2693922
0.9856681,-0.1510746,-0.2696112
0.9849978,-0.1529434,-0.2680818
0.9838387,-0.1483375,-0.2649777
0.9826092,-0.1422209,-0.2616104
0.9836699,-0.1418692,-0.2608843
0.9837556,-0.1409961,-0.2660687
0.9848384,-0.1415101,-0.267461
0.9869589,-0.1446479,-0.268742
0.986131,-0.1467302,-0.2721522
0.9855578,-0.1496158,-0.2720568
0.9855102,-0.1507681,-0.2707473
0.9840231,-0.1496436,-0.2647798
0.9829208,-0.1494455,-0.2606568
0.9826166,-0.1473277,-0.2637505
0.9832306,-0.1439356,-0.2682242
0.9839776,-0.1439536,-0.2723584
0.9841675,-0.1451357,-0.2709177
0.9857511,-0.1451726,-0.268001
0.986639,-0.1457925,-0.2674702
0.9848572,-0.1451014,-0.2641673
0.9845679,-0.1429126,-0.2617682
0.9858115,-0.1429719,-0.2632146
0.9866258,-0.1441887,-0.2661868
0.9880893,-0.1449316,-0.2681817
0.9884725,-0.1460327,-0.2698293
0.9855985,-0.1457953,-0.2701719
0.98233,-0.1437864,-0.2686047
0.9846433,-0.1419794,-0.2698951
0.9877864,-0.1406622,-0.2706946
0.9856063,-0.140512,-0.2693821
0.9856557,-0.144011,-0.2657726
0.9868898,-0.1481635,-0.2586716
0.9855242,-0.1476076,-0.2584589
0.9862867,-0.146382,-0.261917
0.9863058,-0.1465424,-0.262208
0.9857316,-0.1446365,-0.2648382
0.9864701,-0.1438747,-0.2647398
0.9855568,-0.144776,-0.2648787
0.9843192,-0.1443988,-0.270259
0.9829501,-0.1445156,-0.2714269
0.9837865,-0.145465,-0.2703552
0.9884081,-0.1460311,-0.269238
0.9908065,-0.1459514,-0.2663847
0.9876756,-0.1458326,-0.2646682
0.9827997,-0.1467924,-0.2617067
0.9826423,-0.1475581,-0.2618054
0.9835955,-0.1472131,-0.2667446
0.9801994,-0.1471001,-0.2742652
0.978369,-0.1473103,-0.2836019
0.9791423,-0.1456094,-0.2779679
0.9793847,-0.1391381,-0.258869
0.9795369,-0.1339208,-0.2491476
0.9810659,-0.1417781,-0.2522001
0.9845347,-0.150472,-0.2595522
0.9854034,-0.1419264,-0.2606419
0.9845489,-0.135518,-0.2593844
0.9869381,-0.1438011,-0.265193
0.9926572,-0.1495813,-0.2741998
0.996577,-0.153173,-0.2832927
0.9901491,-0.1568118,-0.2820549
0.9827879,-0.1551129,-0.2777518
0.9862146,-0.1551916,-0.2825143
0.9872874,-0.1551976,-0.2814307
0.9820628,-0.1522548,-0.2796988
0.9787156,-0.1490601,-0.2772254
0.9761768,-0.1448863,-0.268269
0.9799366,-0.1479185,-0.2723101
0.9861382,-0.154324,-0.2806736
0.9831234,-0.1540912,-0.2816815
0.9815097,-0.1556298,-0.2793336
0.9820204,-0.1569838,-0.2732855
0.9782257,-0.1502974,-0.2742417
0.9813813,-0.1450751,-0.2756323
0.9850431,-0.1470798,-0.2724072
0.9808829,-0.1488931,-0.2766638
0.980037,-0.1470286,-0.2824498
0.982736,-0.1483852,-0.286762
0.9838624,-0.1539157,-0.288041
0.9832974,-0.1561547,-0.2813363
0.9818489,-0.1553311,-0.2774024
0.9808738,-0.154524,-0.2791449
0.9792919,-0.1541542,-0.2792445
0.9798492,-0.1553631,-0.2762322
0.9847873,-0.1573282,-0.2739182
0.9883151,-0.1570398,-0.2747832
0.9843891,-0.1535191,-0.2733739
0.9786018,-0.1507185,-0.2702364
0.9796528,-0.1497868,-0.2696683
0.9812198,-0.1495362,-0.2694206
0.9818939,-0.1504245,-0.2694845
0.9863469,-0.1501725,-0.2704382
0.9864511,-0.1505521,-0.2711041
0.9836057,-0.1520718,-0.2712552
0.983293,-0.1516158,-0.2731384
0.9828931,-0.1531215,-0.2785899
0.9838768,-0.1566438,-0.2840101
0.9842828,-0.1593787,-0.2848771
0.9843873,-0.1619748,-0.2797928
0.9844625,-0.1617697,-0.2742025
0.9825084,-0.1612247,-0.2741331
0.9833528,-0.1624184,-0.2737613
0.9838435,-0.1591902,-0.2677282
0.9827244,-0.1550645,-0.2640803
0.9835536,-0.1560587,-0.2687365
0.982365,-0.1558868,-0.272124
0.9816541,-0.1538868,-0.2670743
0.9834124,-0.154112,-0.2635223
0.9853017,-0.1527452,-0.2665617
0.986293,-0.1496288,-0.2684012
0.9833945,-0.1481551,-0.2705567
0.980976,-0.1491665,-0.2745663
0.9828507,-0.1510269,-0.2716349
0.9840635,-0.1507709,-0.2673348
0.983129,-0.1506997,-0.2692845
0.983458,-0.1493589,-0.2671779
0.9854567,-0.14587,-0.261739
0.9862925,-0.146642,-0.2624741
0.9846762,-0.1458248,-0.2647811
0.98066,-0.1404544,-0.2654957
0.9784823,-0.1407292,-0.2656373
0.9820281,-0.1468622,-0.2650295
0.9855385,-0.1518862,-0.2663003
0.9849571,-0.1507437,-0.2674963
0.9837139,-0.1481185,-0.2682109
0.9822926,-0.1490252,-0.2700667
0.979805,-0.1474614,-0.2696686
0.9803376,-0.148999,-0.2680709
0.9835714,-0.1543557,-0.2652866
0.9852516,-0.1529714,-0.2619957
0.9866805,-0.152895,-0.2662888
0.9862599,-0.1552984,-0.271307
0.9845038,-0.1537284,-0.2657917
0.9854999,-0.1537129,-0.2624491
0.987245,-0.1534356,-0.2690802
0.9895694,-0.1533418,-0.2724745
0.9894203,-0.1545021,-0.2697019
0.9869496,-0.151041,-0.2686536
0.9875941,-0.1500613,-0.2695638
0.9866628,-0.1535775,-0.268764
0.9850779,-0.153406,-0.2688356
0.9847632,-0.1548709,-0.2753201
0.9818736,-0.1580655,-0.2812387
0.9795386,-0.1551057,-0.277366
0.977283,-0.1529436,-0.2711899
0.9772209,-0.1544591,-0.2692824
0.980415,-0.153352,-0.2672029
0.9798525,-0.1524422,-0.2656123
0.9787603,-0.1537456,-0.2665138
0.9801934,-0.1545696,-0.2695036
0.9835061,-0.1536542,-0.275516
0.9876412,-0.1512294,-0.2749114
0.9865413,-0.1494161,-0.264742
0.9850256,-0.1496056,-0.2570559
0.9868108,-0.150534,-0.2552475
0.9862573,-0.1491557,-0.2575412
0.9866015,-0.1461345,-0.257489
0.9884164,-0.1437947,-0.2548487
0.9878796,-0.1437147,-0.2564548
0.9871576,-0.1453001,-0.2573836
0.9859761,-0.1442554,-0.2593422
0.9858394,-0.1446718,-0.2622409
0.9884706,-0.149101,-0.2649394
0.9888024,-0.1525485,-0.2716819
0.9861038,-0.1547044,-0.2703715
0.9839311,-0.1536261,-0.2663622
0.9843099,-0.1500024,-0.2692247
0.9854603,-0.1444137,-0.2681676
0.9843753,-0.1401473,-0.2692551
0.9845204,-0.1462203,-0.2723126
0.9852304,-0.1522445,-0.2701087
0.9839005,-0.1534851,-0.2698113
0.9831209,-0.1589691,-0.2695727
0.9817133,-0.1595687,-0.2685819
0.9822856,-0.1539831,-0.2681338
0.9843781,-0.1500559,-0.2659128
0.9830183,-0.1458839,-0.2670914
0.9835877,-0.1465632,-0.270897
0.9865172,-0.1505725,-0.2728488
0.9873679,-0.1503452,-0.271847
0.9853174,-0.1528968,-0.2669333
0.9826651,-0.1573002,-0.2628051
0.9866883,-0.157157,-0.2616484
0.9904243,-0.1565923,-0.2615263
0.9856382,-0.1550727,-0.2636027
0.9824124,-0.1535432,-0.266195
0.9838052,-0.153704,-0.2663933
0.985451,-0.1515483,-0.268093
0.9874332,-0.149388,-0.2722767
0.9879867,-0.1513842,-0.2712937
0.9874386,-0.1567619,-0.2685967
0.9883297,-0.1590858,-0.2700271
0.9886358,-0.1538563,-0.2684662
0.9852878,-0.1440257,-0.2645389
0.9827533,-0.1373924,-0.2618118
0.9866811,-0.1401345,-0.2614273
0.9912598,-0.1427661,-0.2637035
0.9915567,-0.1408154,-0.2613236
0.9929691,-0.1429513,-0.2573706
0.9941577,-0.1479478,-0.2539788
0.9925985,-0.1538782,-0.2479898
0.9949975,-0.156985,-0.2442503
0.997916,-0.1540645,-0.2405009
0.9969725,-0.149928,-0.2380913
0.9989163,-0.1379791,-0.2377708
1.006234,-0.1203509,-0.2334599
1.016394,-0.1114044,-0.2278905
1.016471,-0.1073745,-0.2188239
1.000756,-0.1059436,-0.2006313
0.9923952,-0.1095365,-0.1864535
1.005848,-0.1157466,-0.2002652
1.020992,-0.1270197,-0.2266514
1.016942,-0.1330088,-0.2324367
1.005949,-0.1230967,-0.221938
0.9928026,-0.1092277,-0.2028252
0.9710179,-0.1004657,-0.1895082
0.970288,-0.09626708,-0.1912558
0.9899747,-0.09472815,-0.1974987
0.9975262,-0.08868296,-0.2143093
0.9946725,-0.0809962,-0.2252779
0.9822349,-0.08164301,-0.2220212
0.973097,-0.0836025,-0.2265684
0.9837034,-0.0827208,-0.2359087
0.9966438,-0.08450556,-0.249823
1.000196,-0.08067844,-0.2617067
0.9940303,-0.07275489,-0.2618105
0.9891073,-0.07102599,-0.2655209
0.9923172,-0.06994541,-0.2703324
0.9923482,-0.07211465,-0.2719399
0.9931607,-0.08073535,-0.2861085
1.001868,-0.09284161,-0.3027726
1.014602,-0.1135781,-0.2998786
1.026149,-0.06505207,-0.1555456
1.025979,-0.0590187,-0.1458094
1.018488,-0.05110701,-0.1229681
1.007558,-0.04681263,-0.1097434
1.002698,-0.05412237,-0.105071
1.008477,-0.06162909,-0.1165582
1.013453,-0.06200506,-0.1384392
1.018499,-0.06559508,-0.1447048
1.022229,-0.07553327,-0.1574794
1.022026,-0.08655208,-0.185681
1.022442,-0.09040618,-0.1953485
1.021225,-0.09269058,-0.1902024
1.019741,-0.1009177,-0.1843687
1.018127,-0.103348,-0.1764874
1.013785,-0.09700976,-0.1757083
1.011528,-0.09028581,-0.1772053
1.009401,-0.08870031,-0.1698686
1.003774,-0.08958103,-0.1674602
1.001006,-0.08718155,-0.1759457
1.001855,-0.08729339,-0.1807376
1.002671,-0.08842133,-0.1772208
1.005244,-0.08857047,-0.1727492
1.007262,-0.09154439,-0.1747738
1.007614,-0.09125971,-0.1746098
1.010346,-0.09120651,-0.1725812
1.010668,-0.09255314,-0.1860347
1.009793,-0.09241148,-0.2020496
1.016469,-0.1000629,-0.2125437
1.021675,-0.1105969,-0.2290077
1.017305,-0.1123922,-0.2354967
1.007403,-0.1064386,-0.217369
0.9970976,-0.1003922,-0.1982018
0.9957165,-0.09697374,-0.1998998
0.9987863,-0.09031136,-0.2029658
0.9961904,-0.08135633,-0.1974215
0.9940117,-0.07478435,-0.1974434
0.99349,-0.07639393,-0.2025612
0.9956804,-0.08642757,-0.2144786
1.006015,-0.09457123,-0.2280895
1.012191,-0.09876816,-0.2306508
1.00705,-0.09980698,-0.2253867
1.003767,-0.1043896,-0.2233626
1.006848,-0.1140542,-0.2329007
1.007036,-0.1131238,-0.2403238
1.001765,-0.1082127,-0.2339711
0.9987275,-0.1094546,-0.2299217
1.001462,-0.1129162,-0.2367891
1.008903,-0.1205368,-0.2467276
1.016596,-0.1219992,-0.254795
1.016532,-0.1156341,-0.2573548
1.013955,-0.1127521,-0.2530188
1.013338,-0.1092827,-0.2451277
1.004073,-0.1001336,-0.2215788
0.9923474,-0.08789841,-0.1895425
0.992616,-0.08144551,-0.1830473
0.9947524,-0.07589435,-0.1787846
0.9967383,-0.06530834,-0.162704
1.006135,-0.0652307,-0.1718601
1.007593,-0.0706043,-0.1948385
1.006337,-0.07253179,-0.2196651
1.012191,-0.07376208,-0.2331663
1.007121,-0.07127037,-0.2181626
1.002021,-0.07576301,-0.2207881
1.004823,-0.08267921,-0.2319388
1.005927,-0.08489939,-0.2296826
1.011632,-0.08781878,-0.2381355
1.009026,-0.08386538,-0.2265715
0.9983033,-0.08293147,-0.2114253
0.9940041,-0.0839182,-0.2202081
0.9938504,-0.08019709,-0.2267362
1.002898,-0.08985088,-0.2434529
1.010951,-0.1002891,-0.2562778
1.011585,-0.09848392,-0.2510622
1.011003,-0.09688269,-0.2472894
1.005477,-0.09470044,-0.2430214
1.002952,-0.09151234,-0.24532
1.002345,-0.09596238,-0.250091
1.000553,-0.1023824,-0.2490429
1.000386,-0.09566124,-0.2431761
0.995759,-0.08649587,-0.2265685
0.9906781,-0.08371613,-0.2135701
0.9873638,-0.07640266,-0.2134803
0.9876413,-0.07147233,-0.2137909
0.99023,-0.07200121,-0.2137126
0.9926004,-0.07309248,-0.2244604
1.001459,-0.07763816,-0.2368946
1.004531,-0.08274455,-0.2373123
0.9990647,-0.08610843,-0.2359309
0.9988097,-0.08927478,-0.2401143
1.002922,-0.09578093,-0.2511682
1.007018,-0.09917878,-0.2603681
1.002728,-0.09749022,-0.2530142
0.9937144,-0.1008501,-0.2400274
0.9909215,-0.1024145,-0.2326852
0.9935778,-0.1031705,-0.2300171
0.997569,-0.105788,-0.2314476
0.9943179,-0.1028086,-0.2323966
0.9892794,-0.1023574,-0.2378355
0.9895534,-0.1016626,-0.2506508
0.9909469,-0.1009844,-0.2570923
0.9952227,-0.1070961,-0.256711
0.9955548,-0.1079762,-0.2574485
0.9944821,-0.1020538,-0.2557042
0.9997381,-0.09547067,-0.2542459
1.000581,-0.09439556,-0.251015
0.9981861,-0.09495914,-0.2403863
0.9959214,-0.09088313,-0.2358636
0.9949773,-0.09752936,-0.2434371
1.003583,-0.104998,-0.2517313
1.010726,-0.1001478,-0.2535192
1.004646,-0.09925748,-0.2532918
0.9963579,-0.1004518,-0.251613
0.996584,-0.09935115,-0.2435094
0.9980491,-0.09850552,-0.23891
0.9965539,-0.09604233,-0.2403389
0.9977329,-0.09609263,-0.2396282
0.9985551,-0.09757052,-0.2369109
1.000248,-0.09884367,-0.2324678
1.002416,-0.09774625,-0.229679
0.9998852,-0.09348493,-0.2263085
0.9984947,-0.09216121,-0.223054
0.9977473,-0.09131602,-0.2248183
0.9959272,-0.08975452,-0.2236131
0.9939319,-0.08951521,-0.2222232
0.9907011,-0.086832,-0.2218731
0.9920655,-0.0838214,-0.2188048
0.9937507,-0.08705817,-0.2243105
0.9899191,-0.09708082,-0.2367335
0.9892767,-0.1032762,-0.2476146
0.9961682,-0.0975595,-0.2525055
1.002305,-0.09187217,-0.247351
0.9991795,-0.09674843,-0.2428411
0.9940122,-0.101017,-0.2446091
0.9952003,-0.09935658,-0.2498706
0.9980629,-0.1012902,-0.2555936
1.000775,-0.1057112,-0.2507582
0.9993097,-0.1092509,-0.24381
0.9907465,-0.1096567,-0.2478218
0.9876656,-0.106598,-0.2488643
0.9976722,-0.1075301,-0.2474192
1.007547,-0.1047498,-0.2501744
0.9993984,-0.09705325,-0.2431342
0.9855528,-0.09329243,-0.2327909
0.9857925,-0.09042752,-0.2326034
0.988753,-0.09390378,-0.2373686
0.9928502,-0.09923714,-0.2457709
1.001221,-0.1001211,-0.2526385
1.002847,-0.1021789,-0.2507202
0.9988056,-0.0994996,-0.2472655
0.992856,-0.09665036,-0.2450613
0.993587,-0.09557797,-0.2386715
0.9975009,-0.09080605,-0.2372303
0.9959038,-0.09132124,-0.2434069
1.000007,-0.09487824,-0.243156
1.002848,-0.09719903,-0.2401477
1.00145,-0.0982566,-0.2375992
1.00304,-0.0915305,-0.2333205
1.002525,-0.08438839,-0.2340056
1.004955,-0.08565974,-0.2342273
1.006211,-0.08808098,-0.2360675
1.00349,-0.08968295,-0.2408814
1.001205,-0.09445539,-0.2384443
0.9960299,-0.09650965,-0.2373241
0.9949678,-0.09696972,-0.2430158
0.9966767,-0.09927605,-0.2516929
0.9973693,-0.09817874,-0.2571636
0.9986747,-0.09866001,-0.2534628
0.9950257,-0.1001958,-0.2517801
0.9914796,-0.09942009,-0.2518883
0.9922117,-0.09994355,-0.2475904
0.992744,-0.0962127,-0.2475034
0.992216,-0.09333748,-0.2484607
0.992363,-0.09723686,-0.2477532
0.9935841,-0.1020335,-0.2502329
0.9939476,-0.106676,-0.2518815
0.9946048,-0.1073759,-0.2516573
0.9943243,-0.1045043,-0.2497474
0.992305,-0.1018452,-0.2440562
0.9915567,-0.1011301,-0.2385194
0.9926203,-0.1044146,-0.2387329
0.9954558,-0.1058939,-0.2401875
0.9964506,-0.102592,-0.2374689
0.9955678,-0.09790266,-0.2421007
0.9958957,-0.09568822,-0.2503839
0.9958149,-0.09696076,-0.2487982
0.995305,-0.09885623,-0.2480372
0.9931895,-0.09856243,-0.2442805
0.990929,-0.09350981,-0.2353651
0.9925521,-0.09016164,-0.2375042
0.9947286,-0.09200976,-0.2405024
0.9945676,-0.09359074,-0.242122
0.995145,-0.09707275,-0.2500116
0.9990557,-0.1019285,-0.2509625
1.002174,-0.1048891,-0.2523125
0.9991802,-0.1087239,-0.2614713
0.9953133,-0.1120016,-0.2628041
0.9946108,-0.107409,-0.2593888
0.9875224,-0.0968552,-0.2540272
0.9798486,-0.09218384,-0.2467428
0.990131,-0.09321711,-0.2508402
1.002748,-0.09271061,-0.2563673
1.000401,-0.09101414,-0.2566145
0.9984154,-0.09205931,-0.2591881
0.9991534,-0.09598936,-0.2578915
0.9963412,-0.09781041,-0.2579703
0.9966794,-0.09759168,-0.2593497
0.9967524,-0.09779741,-0.2572502
0.9932374,-0.1014638,-0.2589227
0.9928404,-0.1054008,-0.25846
0.9954478,-0.100454,-0.2571138
0.9981334,-0.09549425,-0.2554409
0.9993602,-0.09631412,-0.246992
0.9980435,-0.09413192,-0.2412103
0.996621,-0.08931678,-0.2373951
0.9952428,-0.08698579,-0.2338101
0.9936226,-0.0909317,-0.237532
0.9935048,-0.09638837,-0.2431713
0.9954037,-0.09734835,-0.2430542
0.998235,-0.09883876,-0.237977
0.9976902,-0.1005459,-0.2348748
0.9957169,-0.1002954,-0.2358134
0.9951424,-0.1005511,-0.2367519
0.9922873,-0.0983108,-0.2359656
0.9925866,-0.09626952,-0.2357098
0.9960502,-0.09943288,-0.2371983
0.9964299,-0.1006929,-0.238495
0.9995053,-0.09871276,-0.240971
1.002504,-0.09841444,-0.2403282
1.00009,-0.09852666,-0.2353932
0.9974153,-0.09895447,-0.2331951
0.9958493,-0.09947728,-0.2320196
0.9957938,-0.1001099,-0.2335776
0.9970037,-0.1009018,-0.2391776
0.9983425,-0.102079,-0.2451606
0.9990722,-0.1042616,-0.2490756
0.9982163,-0.1024304,-0.246607
0.9975187,-0.0988653,-0.2437055
0.9962049,-0.09773538,-0.2418245
0.9952738,-0.09647395,-0.2373108
0.9960813,-0.09679829,-0.2381184
0.9958604,-0.09503197,-0.2436267
0.9953333,-0.09158251,-0.2445929
0.9941864,-0.09314869,-0.2409768
0.9924239,-0.09367424,-0.2385117
0.9928725,-0.09242374,-0.2357223
0.9941914,-0.09390584,-0.2354247
0.9964007,-0.0957493,-0.2420956
0.9996467,-0.09837389,-0.2441626
0.9992472,-0.1004558,-0.242998
0.9975925,-0.1014219,-0.2451825
0.9987223,-0.1024287,-0.2467872
0.997066,-0.1027092,-0.2512586
0.994677,-0.1040547,-0.2565801
0.9961583,-0.1022154,-0.2617609
0.9955224,-0.09789896,-0.2647443
0.9924092,-0.09831212,-0.2593384
0.9893771,-0.09770213,-0.253102
0.9887545,-0.09771369,-0.2532168
0.9937781,-0.1033271,-0.2574056
0.9973953,-0.1050475,-0.2558607
0.9959047,-0.1028404,-0.2510557
0.9951872,-0.1015615,-0.2515671
0.9960084,-0.1009601,-0.2505323
0.9950704,-0.1022039,-0.2509358
0.9939792,-0.1040272,-0.2525199
0.9958772,-0.1062105,-0.251197
0.9980696,-0.1061474,-0.2548574
0.9985954,-0.1046727,-0.256946
0.9967361,-0.1051184,-0.2541503
0.9930693,-0.1012191,-0.2519916
0.9930387,-0.09747453,-0.2491689
0.9960527,-0.1021551,-0.249542
0.9977611,-0.1060184,-0.2519585
0.9966748,-0.1037073,-0.2521923
0.9950999,-0.1015791,-0.2529421
0.9969258,-0.1011699,-0.2536657
0.9969759,-0.09874383,-0.2550188
0.9923286,-0.0954242,-0.2563432
0.9899608,-0.0940863,-0.249358
0.9949644,-0.09643214,-0.2415923
1.003052,-0.1011263,-0.2467473
1.002822,-0.1020753,-0.2509664
0.9955539,-0.1011093,-0.2457755
0.9916694,-0.101483,-0.2448231
0.9933041,-0.1009205,-0.2466384
0.9958647,-0.09901193,-0.2445904
0.994162,-0.09445642,-0.2413467
0.993892,-0.09164071,-0.2379297
0.9963454,-0.09397825,-0.2400439
0.9954785,-0.09720522,-0.2473351
0.9953906,-0.1002368,-0.2506568
0.9934715,-0.1007833,-0.2499171
0.990435,-0.0992091,-0.2469896
0.9927982,-0.09935545,-0.2449887
0.9940472,-0.0995304,-0.2469114
0.9945196,-0.1001798,-0.2477221
0.9964525,-0.1022667,-0.2470636
0.9965536,-0.103068,-0.247546
0.9981793,-0.1030464,-0.2490176
1.00038,-0.1035947,-0.2500971
0.9977779,-0.1043422,-0.2470537
0.99421,-0.1044538,-0.2428769
0.9958749,-0.1038505,-0.2424409
0.9966987,-0.103691,-0.2434079
0.9949593,-0.1013338,-0.2425644
0.9958558,-0.09673786,-0.2401315
0.9940352,-0.09477952,-0.2382921
0.9911322,-0.09446798,-0.2395631
0.9916813,-0.09507673,-0.2447945
0.992749,-0.09749923,-0.2494282
0.9970469,-0.1011633,-0.2511572
1.000945,-0.1055178,-0.2530484
0.9969581,-0.1051007,-0.2531775
0.9922756,-0.1027784,-0.2507688
0.9942932,-0.1049385,-0.251189
0.9947133,-0.1052386,-0.2535604
0.9917003,-0.1034115,-0.2513878
0.9931044,-0.1003886,-0.2440389
0.9925998,-0.09342494,-0.2374537
0.9896454,-0.09283447,-0.239206
0.9913921,-0.1001564,-0.2461081
0.9947115,-0.1043113,-0.2482905
0.9984093,-0.1024971,-0.2482327
0.9979224,-0.09971587,-0.2464668
0.9949121,-0.1007007,-0.2428846
0.9963298,-0.09951097,-0.2445215
0.9958856,-0.09684629,-0.2452189
0.9956611,-0.09816266,-0.2434145
0.9982999,-0.09800668,-0.2443924
0.9979627,-0.100336,-0.2443646
0.9953463,-0.1034826,-0.2450799
0.9916326,-0.1028251,-0.2450051
0.9914982,-0.105033,-0.2434814
0.9934248,-0.1044485,-0.2458657
0.9942854,-0.1027963,-0.2490448
0.9979857,-0.1034015,-0.251131
0.99549,-0.1003351,-0.2466051
0.9905889,-0.1008587,-0.2368484
0.9939619,-0.1015004,-0.2345174
0.9945459,-0.09882903,-0.2317477
0.9938694,-0.1008314,-0.2277186
0.9962324,-0.1030023,-0.234049
0.9956166,-0.1044497,-0.2397466
0.9958711,-0.1051161,-0.2427181
0.9960749,-0.1040278,-0.2490159
0.9954093,-0.105246,-0.2488817
0.9962283,-0.1039198,-0.2471957
0.9958218,-0.1015045,-0.2502006
0.9964805,-0.1018252,-0.245322
0.996856,-0.1021531,-0.23954
0.9951861,-0.1053563,-0.2466017
0.994844,-0.1079402,-0.2522512
0.994421,-0.106385,-0.2504481
0.9941825,-0.1044533,-0.2512984
0.9946812,-0.1033803,-0.2519529
0.9945469,-0.1037462,-0.2505825
0.9954623,-0.100912,-0.2493735
0.9972707,-0.09692544,-0.2456749
0.9984329,-0.09829971,-0.241151
0.9989726,-0.09717615,-0.2386008
0.9995279,-0.09286663,-0.2383952
1.000182,-0.09307482,-0.240516
0.9990745,-0.0965578,-0.2444415
0.9944675,-0.1016097,-0.2470361
0.9906019,-0.1068863,-0.2447719
0.9941464,-0.1089318,-0.24492
0.9995773,-0.1058866,-0.2501998
0.9985589,-0.1015858,-0.2504632
0.9958367,-0.09833365,-0.24777
0.9940098,-0.09224811,-0.242673
0.9928086,-0.08987303,-0.2361205
0.9967285,-0.0951487,-0.2446601
1.000194,-0.09789012,-0.2547252
0.9981021,-0.09868013,-0.2484926
0.9959574,-0.09996529,-0.2438706
0.9937611,-0.1008429,-0.2443031
0.9911121,-0.105211,-0.2462825
0.9905811,-0.10455,-0.2521184
0.9906288,-0.09842052,-0.2498583
0.9918065,-0.09804117,-0.2436706
0.9938145,-0.0988662,-0.2442489
0.9937891,-0.09905811,-0.2486475
0.9953551,-0.1014504,-0.2540532
0.9991322,-0.1033379,-0.2495781
0.9983038,-0.102798,-0.2419329
0.995457,-0.09974909,-0.2458004
0.9939584,-0.09941534,-0.2454148
0.990994,-0.1002015,-0.2425298
0.9919019,-0.09828763,-0.2466138
0.9955372,-0.09832881,-0.2476407
0.9952084,-0.09988354,-0.2496215
0.9959413,-0.1000835,-0.2469753
0.9973547,-0.09884079,-0.2408508
0.99669,-0.09737542,-0.2481914
0.9966878,-0.09735144,-0.2544548
0.9955215,-0.09930958,-0.2524028
0.9954226,-0.1025342,-0.2518517
0.9964784,-0.103574,-0.2483963
0.995231,-0.1032682,-0.2443996
0.994963,-0.1034984,-0.2455633
0.9944711,-0.1021569,-0.2483568
0.9941044,-0.09977996,-0.2506988
0.9958623,-0.09858359,-0.2532958
0.9953645,-0.100953,-0.2518413
0.9931076,-0.1039006,-0.2489599
0.9909985,-0.1020395,-0.2538869
0.991271,-0.1008649,-0.258483
0.9934255,-0.104545,-0.2592371
0.9929111,-0.106523,-0.2591193
0.9929724,-0.1052539,-0.2504205
0.9933933,-0.1040747,-0.2452951
0.9926226,-0.1024426,-0.2516871
0.9935406,-0.1014697,-0.2544236
0.9939039,-0.1020549,-0.2553736
0.9946895,-0.101591,-0.2568365
0.9957774,-0.1012216,-0.2536745
0.9955988,-0.1034211,-0.2511074
0.9958327,-0.1045183,-0.2480054
0.9939214,-0.1022331,-0.2466126
0.9923125,-0.1007083,-0.2475329
0.993395,-0.1013354,-0.2454534
0.9940326,-0.102243,-0.2554049
0.9946482,-0.1039093,-0.2696736
0.9947379,-0.1062692,-0.2648518
0.9951222,-0.1052262,-0.2574234
0.9962675,-0.1002692,-0.2560819
0.9949841,-0.09830393,-0.2542796
0.9911452,-0.1018994,-0.256326
0.9876832,-0.105745,-0.2569943
0.988861,-0.1045655,-0.2572595
0.9927375,-0.1029502,-0.259799
0.9944851,-0.1050012,-0.2588709
0.9955383,-0.1041795,-0.2566802
0.9948845,-0.1027941,-0.2523931
0.99213,-0.1014006,-0.2488787
0.9913529,-0.09700697,-0.2490247
0.9928821,-0.09856515,-0.2467115
0.9949687,-0.1016199,-0.2483511
0.9948121,-0.1009612,-0.2518452
0.9932714,-0.1019071,-0.2492414
0.9944063,-0.1010609,-0.249228
0.995251,-0.1000057,-0.2487678
0.9948773,-0.09919796,-0.2469488
0.995965,-0.09687431,-0.2481449
0.9952959,-0.09723554,-0.2440759
0.9935047,-0.09751851,-0.2419674
0.9936818,-0.09804864,-0.2442248
0.9930783,-0.1002603,-0.2426499
0.9925743,-0.1010308,-0.2458378
0.9934817,-0.1016444,-0.247273
0.992422,-0.101304,-0.2403942
0.9901697,-0.1002229,-0.2402546
0.9883965,-0.1005142,-0.2447519
0.9888491,-0.10263,-0.2483152
0.9922701,-0.1060639,-0.2517653
0.9940215,-0.105631,-0.2534439
0.9948441,-0.1018116,-0.2596673
0.9962926,-0.09911696,-0.2634147
0.9959429,-0.09835195,-0.2603762
0.9956375,-0.1015905,-0.2565725
0.9955395,-0.1048898,-0.2489749
0.9940762,-0.1042743,-0.2494538
0.9933918,-0.1037289,-0.2583054
0.9972449,-0.103422,-0.2604382
1.001354,-0.1024759,-0.2586969
0.9975635,-0.1021198,-0.2531809
0.9937209,-0.09977419,-0.2477775
0.9954438,-0.0950312,-0.247152
0.9948485,-0.09377309,-0.2491149
0.9945283,-0.09826509,-0.2550886
0.9965384,-0.1035968,-0.2575338
0.9949504,-0.1071022,-0.2560327
0.9936568,-0.1084943,-0.2536846
0.995037,-0.1073432,-0.2498787
0.9954884,-0.1039555,-0.2521354
0.9968103,-0.1000479,-0.2567283
0.9978386,-0.1007091,-0.2589303
0.9973045,-0.1020814,-0.2588469
0.9989674,-0.09806557,-0.2555536
1.000727,-0.0965725,-0.2551031
1.000039,-0.0998924,-0.2549155
0.9996814,-0.1031994,-0.2535459
0.9998355,-0.1044747,-0.2542676
0.998073,-0.1003174,-0.2523382
0.995616,-0.09616431,-0.2477529
0.9954943,-0.09756838,-0.2434944
0.9961063,-0.1003547,-0.2428909
0.9957577,-0.1019935,-0.2448864
0.9956047,-0.1016416,-0.24506
0.9950154,-0.1009392,-0.2465543
0.9948421,-0.1005218,-0.247456
0.9979145,-0.09611434,-0.2465004
1.000423,-0.0921061,-0.2479386
0.995846,-0.09756501,-0.2502376
0.9908161,-0.1052757,-0.2508181
0.9932384,-0.1048156,-0.2484848
0.9955754,-0.1026016,-0.2476549
0.9964565,-0.1011076,-0.2476082
0.9987146,-0.09670479,-0.2432968
0.9937144,-0.09424252,-0.238392
0.9880861,-0.09220584,-0.232608
0.9934475,-0.0908303,-0.2328166
0.9985561,-0.0953937,-0.2397074
0.9988265,-0.09871992,-0.2391674
1.00013,-0.09849755,-0.237909
0.9985848,-0.09785158,-0.2379141
0.9960781,-0.09567237,-0.2339311
0.9975322,-0.09557319,-0.2327073
0.9987356,-0.09597805,-0.2320751
1.000026,-0.09463528,-0.2335597
1.004154,-0.09439435,-0.2358785
1.006623,-0.09426023,-0.2357246
1.005657,-0.09509997,-0.2374923
1.005965,-0.09722988,-0.236097
1.010265,-0.09861588,-0.2379511
1.012729,-0.0965393,-0.2417281
1.00597,-0.09285332,-0.233169
0.9973517,-0.09474024,-0.2219177
0.9973653,-0.09628933,-0.2136291
0.9989076,-0.09239178,-0.2117378
0.9957709,-0.08914903,-0.2140705
0.9933039,-0.0866459,-0.2049803
0.9915116,-0.08235919,-0.1965579
0.9928137,-0.07754781,-0.1996068
1.000538,-0.07947603,-0.2064639
1.003748,-0.0857003,-0.2111459
0.9982748,-0.08916246,-0.2065267
0.9939175,-0.09512852,-0.2034848
0.9962332,-0.09705585,-0.2139568
1.000848,-0.0975667,-0.2270548
1.002341,-0.103696,-0.2298178
1.002518,-0.09928422,-0.2245964
1.000956,-0.09385686,-0.2213919
0.9997296,-0.0967569,-0.2194199
1.001239,-0.09513491,-0.2151462
1.002983,-0.09432407,-0.2113346
1.009434,-0.09402398,-0.211631
1.012685,-0.09228744,-0.2129629
1.006643,-0.09189057,-0.2085422
1.004305,-0.0907306,-0.2053862
1.005488,-0.09181127,-0.2071446
1.004993,-0.08909116,-0.2062847
1.003627,-0.08591039,-0.2049905
1.002858,-0.08813047,-0.2056023
1.003899,-0.08730658,-0.2060731
1.005824,-0.08601786,-0.2072642
1.008862,-0.0843671,-0.2087969
1.004989,-0.08233871,-0.2079927
0.9975776,-0.08364215,-0.2042304
0.9991876,-0.0839717,-0.2029565
1.003551,-0.08580917,-0.2079109
1.006327,-0.08848927,-0.2130039
1.005541,-0.08733393,-0.2107862
1.003142,-0.08520122,-0.2082775
1.007351,-0.08438923,-0.2123592
1.008922,-0.08486346,-0.2138919
1.004197,-0.08569849,-0.2137526
1.002491,-0.08639823,-0.2149009
1.006512,-0.08598527,-0.2128433
1.012862,-0.08411173,-0.2149445
1.01219,-0.07947245,-0.2150928
1.003461,-0.07262634,-0.2014638
0.9912773,-0.07133693,-0.1837187
0.9827998,-0.07585618,-0.1759104
0.9866591,-0.08110831,-0.1885427
0.9914312,-0.09037193,-0.2103593
0.9914472,-0.1031626,-0.2204207
0.9943295,-0.1118696,-0.2247099
1.000102,-0.1179123,-0.2392707
1.01587,-0.1234487,-0.2623483
1.033253,-0.1208137,-0.2705719
1.031569,-0.1092338,-0.2589256
1.015464,-0.08919525,-0.2378227
0.9964204,-0.06667638,-0.2010504
0.9886584,-0.05855528,-0.1762865
0.9967735,-0.05969334,-0.1829553
0.9994345,-0.06639768,-0.1874772
0.9947868,-0.0841232,-0.18978
0.9964878,-0.09689815,-0.2003868
1.000809,-0.101263,-0.2088945
1.006379,-0.1018023,-0.2155854
1.010681,-0.09601029,-0.2137749
1.008664,-0.09158827,-0.2110244
1.007948,-0.08581903,-0.2139959
1.007349,-0.07681285,-0.209756
1.004349,-0.07422569,-0.2050197
1.006508,-0.07685293,-0.2022597
1.007794,-0.08119061,-0.2013033
1.005326,-0.08618927,-0.2054445
1.005521,-0.08707185,-0.2046341
1.00541,-0.08840118,-0.2082705
1.00455,-0.09520379,-0.2183013
1.004111,-0.09339949,-0.2199738
1.003816,-0.08515197,-0.2162491
1.004536,-0.08465614,-0.2120358
1.004051,-0.08381852,-0.213908
1.004,-0.08288941,-0.2175746
1.004835,-0.08341063,-0.2179411
1.005676,-0.08583061,-0.2225193
1.007256,-0.09207418,-0.222622
1.005072,-0.08539696,-0.2194874
1.001238,-0.07817876,-0.2197237
1.000864,-0.08271067,-0.2187324
1.000633,-0.079689,-0.2197446
1.000103,-0.07619183,-0.2185044
1.002016,-0.08017536,-0.2162461
1.005275,-0.08540792,-0.2170666
1.005583,-0.09062288,-0.2162319
1.001132,-0.0904862,-0.2168647
0.9961533,-0.08898811,-0.2168444
0.9957013,-0.0913965,-0.2170945
1.000629,-0.09185327,-0.2216559
1.003894,-0.08760687,-0.2242644
1.000186,-0.08490056,-0.222422
0.9979083,-0.08669308,-0.2201719
1.003824,-0.0891536,-0.2252349
1.010211,-0.09089832,-0.2329223
1.009199,-0.09036516,-0.2323427
1.002962,-0.08889169,-0.2243642
0.9985405,-0.08835813,-0.2154156
1.001161,-0.08646191,-0.2167516
1.004644,-0.08574887,-0.220276
1.001977,-0.08794882,-0.21575
0.9999402,-0.08929684,-0.2153944
0.998651,-0.08944542,-0.2131906
0.9958517,-0.09084892,-0.2076895
0.9985086,-0.09151059,-0.2133842
1.003234,-0.09133026,-0.2229696
1.005613,-0.09181369,-0.2291017
1.003196,-0.08968762,-0.2310476
0.9977537,-0.08810297,-0.2301204
1.000941,-0.08897456,-0.2278675
1.004125,-0.08799085,-0.2215768
1.001631,-0.0871806,-0.2229856
1.003139,-0.0874513,-0.2295891
1.002102,-0.0876097,-0.2287876
1.000563,-0.08754148,-0.2309221
1.003345,-0.08731076,-0.2366836
1.004526,-0.0877068,-0.2396735
1.005452,-0.08722754,-0.2328911
1.002283,-0.08653739,-0.2196878
0.9981901,-0.08620795,-0.2234917
1.00018,-0.08703708,-0.2310423
1.0006,-0.08991485,-0.2293028
0.9994492,-0.09026892,-0.2306608
0.9998336,-0.08746671,-0.2267503
0.9983041,-0.0859714,-0.2246328
0.9965135,-0.08970636,-0.227769
0.9978034,-0.09526444,-0.2274848
1.001249,-0.0946549,-0.232644
1.003382,-0.09193467,-0.233173
1.002139,-0.09154591,-0.2291464
0.9997849,-0.0913732,-0.2299066
1.00048,-0.09193839,-0.2257663
1.001563,-0.09203706,-0.2229111
1.001063,-0.09319017,-0.2250889
1.002448,-0.09531106,-0.229628
1.002461,-0.09428172,-0.2346387
1.000936,-0.09295496,-0.2285243
0.9999983,-0.09225951,-0.2190926
0.9979306,-0.09150075,-0.2186619
0.9992108,-0.09385691,-0.220983
1.001265,-0.09702213,-0.2221864
1.000358,-0.09717836,-0.2236984
1.001607,-0.09429497,-0.2256705
1.001522,-0.09079754,-0.2269266
0.9989726,-0.08928248,-0.2252446
0.9986123,-0.08758228,-0.2197991
0.9994647,-0.08502758,-0.2156697
1.001333,-0.08439884,-0.2195359
1.001879,-0.0849023,-0.2249307
1.000801,-0.08638288,-0.2239165
1.000686,-0.0900035,-0.2243327
0.9997516,-0.0927482,-0.2269324
0.9993659,-0.09197367,-0.2268438
0.9986414,-0.09094234,-0.2298195
0.9963967,-0.09184736,-0.2303331
0.9979344,-0.09094443,-0.2278067
1.002261,-0.08955477,-0.2308639
1.004923,-0.0905589,-0.2308573
1.003016,-0.09036982,-0.2283674
0.99715,-0.09000708,-0.2269557
0.9946451,-0.09019947,-0.2237826
0.996769,-0.08831224,-0.2267324
1.000619,-0.08699368,-0.2319692
1.003493,-0.08772628,-0.233935
1.000307,-0.08955172,-0.2341416
0.9960589,-0.09077049,-0.2323687
0.997257,-0.09031064,-0.2330645
0.9988977,-0.09011226,-0.2307813
0.9993151,-0.09051261,-0.2257557
1.000834,-0.0912246,-0.2268744
1.001882,-0.09187869,-0.2301809
1.002926,-0.0917637,-0.2334248
1.002448,-0.09154315,-0.2348687
0.9977861,-0.0920185,-0.2340863
0.9949001,-0.09356238,-0.2337248
0.9975966,-0.09452428,-0.2325613
1.000635,-0.09289741,-0.2335401
0.9999189,-0.09059921,-0.233837
0.9974986,-0.09063759,-0.2320081
0.9961412,-0.09061773,-0.2308636
0.9953393,-0.09021964,-0.226489
0.997113,-0.09361291,-0.2251434
1.002462,-0.09720054,-0.2277344
1.005939,-0.09730845,-0.2278014
1.001194,-0.0954352,-0.2295756
0.994546,-0.0936008,-0.2297797
0.9987886,-0.0942983,-0.2279687
1.002445,-0.09379209,-0.2278765
0.9988832,-0.09091766,-0.2258327
1.001898,-0.08883093,-0.227103
1.003763,-0.08733477,-0.2336404
1.000171,-0.09015082,-0.2384197
0.9997834,-0.09496147,-0.2374593
0.9995927,-0.09474286,-0.2309285
0.9993421,-0.09291376,-0.2269446
0.9984297,-0.09209299,-0.2283905
0.9980959,-0.09129123,-0.2306688
0.9989548,-0.09166861,-0.2337971
0.9963997,-0.09187476,-0.2366189
0.9954439,-0.09182179,-0.2351688
0.9972418,-0.09353313,-0.2318404
0.9992098,-0.09503604,-0.2332436
1.000822,-0.09543883,-0.2343805
0.9997948,-0.09860013,-0.2323149
0.999439,-0.1014791,-0.2324628
0.9985358,-0.09484609,-0.227412
0.99641,-0.08688178,-0.2209725
0.9978695,-0.09042287,-0.2242746
1.001185,-0.09392478,-0.2307878
1.003598,-0.09210171,-0.2419566
1.002887,-0.09358858,-0.2520934
0.9991871,-0.09275868,-0.2447512
0.994406,-0.08960341,-0.2356843
0.9901789,-0.08886152,-0.2397019
0.9928191,-0.08906408,-0.2408391
0.9991666,-0.0942156,-0.2390168
1.000682,-0.09916285,-0.2414274
0.9998247,-0.09900186,-0.2392138
0.9978198,-0.09851559,-0.236184
0.9957787,-0.0981545,-0.2351441
0.9970385,-0.09801142,-0.2360932
0.9992403,-0.09675469,-0.2407528
1.000505,-0.09574493,-0.2373864
0.9992167,-0.09478194,-0.2319042
0.9979698,-0.09146685,-0.2304306
1.000247,-0.09247701,-0.2276213
1.002103,-0.09658688,-0.2308482
1.00315,-0.09825125,-0.2360718
1.003108,-0.09878771,-0.238619
1.001334,-0.09899631,-0.2351959
0.9986491,-0.1004252,-0.2271022
0.9944886,-0.1018331,-0.2307613
0.9955524,-0.1018286,-0.2346529
0.9999059,-0.1016073,-0.2326951
1.000231,-0.1007139,-0.2355787
1.000902,-0.09701707,-0.232089
0.9999306,-0.09334168,-0.2286555
0.994972,-0.09453473,-0.2315337
0.9924018,-0.09508814,-0.2303348
0.9955798,-0.09508666,-0.2310795
1.001115,-0.09834247,-0.2344996
1.002301,-0.09911676,-0.236429
1.001633,-0.09793521,-0.2338634
0.9991493,-0.0957604,-0.2254824
0.9939817,-0.09264071,-0.2231782
0.9962624,-0.09336526,-0.2302008
0.9990051,-0.09786313,-0.2375595
0.996146,-0.1041202,-0.2372803
0.9978527,-0.1070477,-0.2346681
1.000444,-0.1044638,-0.2387086
1.001334,-0.1031071,-0.2424765
1.001129,-0.1031832,-0.2450382
0.9978863,-0.09991799,-0.2455133
0.9974894,-0.09751297,-0.2422709
0.9978409,-0.09969366,-0.2442032
0.9983579,-0.1007091,-0.2451499
1.00056,-0.09962757,-0.2435022
0.997384,-0.1000215,-0.243658
0.9943518,-0.1001399,-0.2394127
0.9961595,-0.09985841,-0.2352104
0.9957904,-0.1002534,-0.2314025
0.9936866,-0.1007038,-0.2275568
0.9930153,-0.1007479,-0.2293303
0.9952033,-0.09967813,-0.2314188
0.9993786,-0.0987803,-0.2339303
1.000696,-0.0986511,-0.2375796
0.9989598,-0.09844198,-0.2373491
0.9980756,-0.09848948,-0.2374589
0.9987551,-0.09799992,-0.2409168
0.9980524,-0.09750058,-0.2436742
0.9946403,-0.09816581,-0.2450694
0.9911975,-0.09817009,-0.2459508
0.9920397,-0.09871693,-0.2441406
0.9976648,-0.1009063,-0.2422122
1.000288,-0.09990829,-0.243073
0.9935213,-0.09234222,-0.2426717
0.9848708,-0.08382425,-0.2392502
0.9868658,-0.08625615,-0.2374796
0.9973078,-0.09633437,-0.243284
1.003635,-0.1001054,-0.2512179
1.00142,-0.09886812,-0.2500444
0.9981057,-0.09675821,-0.2455144
1.000225,-0.09534074,-0.2470089
0.9996903,-0.09651494,-0.2482002
0.9952817,-0.09797616,-0.2468579
0.9967881,-0.09953954,-0.2485753
1.000445,-0.0979816,-0.2487686
1.002959,-0.0957514,-0.2467048
0.9998728,-0.09813771,-0.2468295
0.9918532,-0.1029937,-0.2444708
0.9926802,-0.1074674,-0.243138
0.9954628,-0.1037543,-0.2466041
0.9964812,-0.09972904,-0.2470174
1.000147,-0.1019395,-0.2468118
0.9985384,-0.09819517,-0.2481643
0.998043,-0.09494349,-0.2472314
1.000165,-0.09498786,-0.2469136
0.9986705,-0.09295563,-0.2438786
0.9966189,-0.09309593,-0.2378088
0.9914321,-0.09305977,-0.2360055
0.9876968,-0.0948937,-0.239731
0.9917209,-0.09959133,-0.2473941
0.996454,-0.1034875,-0.2506024
0.9963295,-0.1047201,-0.2494109
0.9952002,-0.1030009,-0.2497086
0.9962018,-0.1020759,-0.2447682
0.9956523,-0.09754627,-0.2387267
0.9946618,-0.09397536,-0.2386919
0.9947299,-0.09762737,-0.2420238
0.9954661,-0.09864431,-0.2461106
0.9992799,-0.09839086,-0.2467753
1.001816,-0.09903848,-0.2481929
1.000428,-0.09820609,-0.2496041
0.9959864,-0.09882677,-0.2428011
0.9918182,-0.0980899,-0.2353668
0.9952762,-0.09538875,-0.2367632
0.9990355,-0.09209292,-0.2400311
0.9959454,-0.09093721,-0.2383777
0.9948925,-0.09398336,-0.2391641
0.9965184,-0.09509932,-0.2427112
0.9954997,-0.09423247,-0.2448552
0.9947012,-0.09443652,-0.2470978
0.9947157,-0.0949798,-0.2439685
0.9949638,-0.09718419,-0.2371315
0.9963774,-0.09936617,-0.2318578
0.9959614,-0.09893492,-0.230402
0.9953679,-0.09805951,-0.2291245
0.9967835,-0.09862607,-0.2214831
0.9983564,-0.09758507,-0.2236569
1.000709,-0.09477143,-0.2300279
1.000581,-0.09407058,-0.224637
0.9994701,-0.09387956,-0.2272248
1.00225,-0.09187524,-0.2342911
1.003082,-0.0895076,-0.2357537
1.000567,-0.0901127,-0.2344786
0.9982586,-0.09307796,-0.2260552
0.9966514,-0.09392323,-0.2253361
0.9979678,-0.09383006,-0.2298497
1.001626,-0.09302207,-0.2303681
1.003604,-0.09242694,-0.2360689
1.001017,-0.09368132,-0.2379191
0.9985571,-0.09287075,-0.2319008
0.9995471,-0.09276477,-0.2209935
0.9985736,-0.09358305,-0.2128517
0.9978348,-0.09259356,-0.2187395
0.9986998,-0.09324865,-0.2270441
0.9984441,-0.09334887,-0.2313973
1.000354,-0.09362779,-0.2285942
1.000731,-0.09525491,-0.2191626
0.9991472,-0.09484231,-0.2185646
1.000376,-0.09452086,-0.2211607
0.9998071,-0.0946363,-0.2205585
0.9977663,-0.0957633,-0.2212877
0.9972754,-0.09686326,-0.2208616
0.998238,-0.09699195,-0.22402
1.001925,-0.1019558,-0.2316601
1.00336,-0.1061091,-0.2364626
1.000774,-0.1028752,-0.2346287
0.9993283,-0.09782262,-0.2318542
0.9999013,-0.09281462,-0.2357599
0.9998701,-0.09078457,-0.236734
0.9967292,-0.09336976,-0.2321529
0.9931353,-0.09694906,-0.2298139
0.9932067,-0.1014191,-0.2295135
0.9967396,-0.1025977,-0.2360629
0.99923,-0.1027549,-0.2440582
0.9952139,-0.1065737,-0.243852
0.9911777,-0.1027726,-0.242972
0.993564,-0.09543698,-0.2466538
0.9955827,-0.0967094,-0.2533118
0.9949846,-0.102012,-0.2588842
0.9926754,-0.1096814,-0.2630883
0.9902351,-0.1108404,-0.2710504
0.9959497,-0.1048209,-0.279751
1.00254,-0.1071864,-0.2825978
0.9966799,-0.1109244,-0.2793292
0.9895136,-0.1097624,-0.2697677
0.9877037,-0.104347,-0.2517604
0.9832117,-0.08961829,-0.235456
0.9808682,-0.08026667,-0.2288356
0.9843335,-0.08472291,-0.229479
0.9914834,-0.09158175,-0.2417639
1.002072,-0.0955114,-0.2541859
1.006512,-0.09355516,-0.2530667
0.9994648,-0.09003841,-0.2463258
0.987412,-0.09345609,-0.238088
0.9800705,-0.0979947,-0.2340644
0.9888343,-0.09987322,-0.2379058
1.005755,-0.1016495,-0.2453007
1.009375,-0.09912897,-0.2533618
1.002371,-0.09319979,-0.2540812
0.9945626,-0.08881908,-0.2498021
0.9882049,-0.08920905,-0.2502289
0.9928211,-0.09078037,-0.2539596
1.000818,-0.08379873,-0.2557699
0.9999986,-0.0770113,-0.2516584
0.9981821,-0.07750749,-0.2441332
0.9950659,-0.07879895,-0.2404672
0.9916328,-0.08415068,-0.2408559
0.9940911,-0.09154204,-0.2447522
0.9952822,-0.09494754,-0.2535037
0.9936606,-0.09468187,-0.2579299
0.9924818,-0.09392681,-0.2545723
0.9898601,-0.09494721,-0.2522621
0.9869847,-0.09474712,-0.2513839
0.9866836,-0.09697672,-0.2526282
0.9912249,-0.09951529,-0.2580273
0.9959048,-0.09662726,-0.260555
0.9923219,-0.0955586,-0.25714
0.9887429,-0.09854342,-0.254997
0.9943904,-0.1009513,-0.2600752
0.9976693,-0.09927092,-0.2643942
0.9948502,-0.09754669,-0.2614872
0.9933347,-0.09953376,-0.260353
0.9902071,-0.1004041,-0.2637116
0.9883016,-0.1015894,-0.265334
0.9930273,-0.10202,-0.2654086
0.9977225,-0.1004885,-0.2649748
0.9977929,-0.1008186,-0.2633182
0.9956617,-0.1004019,-0.2608406
0.9919685,-0.1021749,-0.2560222
0.9877944,-0.1055885,-0.251185
0.9899377,-0.104348,-0.2523169
0.9950902,-0.1045622,-0.2560224
0.9955531,-0.1073196,-0.2568788
0.9970459,-0.1071205,-0.2587879
0.9962464,-0.1065237,-0.2587795
0.9905552,-0.1053324,-0.2491934
0.9893523,-0.1007354,-0.2394806
0.9882573,-0.09803328,-0.24069
0.9878239,-0.1031584,-0.2453502
0.9934728,-0.1095772,-0.246258
0.9983166,-0.1092699,-0.2506631
1.000059,-0.1091806,-0.2575566
0.9951926,-0.1116865,-0.2576228
0.988523,-0.1082566,-0.2558525
0.9905032,-0.1032371,-0.2545387
0.9923024,-0.1021335,-0.2518191
0.9924678,-0.1010564,-0.2525531
0.9942409,-0.1012817,-0.253187
0.9922891,-0.1028978,-0.2513319
0.9918397,-0.1036981,-0.2502718
0.9925809,-0.1041731,-0.2492116
0.9925968,-0.1022747,-0.2472985
0.9953081,-0.09965693,-0.2451521
0.9933459,-0.1002954,-0.245058
0.9891294,-0.1029197,-0.2446871
0.9893358,-0.1050722,-0.2422315
0.9911514,-0.1053619,-0.2426961
0.9947062,-0.1043638,-0.2439872
0.9962206,-0.1014691,-0.2434755
0.9970787,-0.09716766,-0.2447001
0.9992833,-0.0978427,-0.2449063
0.9977481,-0.09998789,-0.2440074
0.9964516,-0.0978793,-0.2456734
0.9940753,-0.09912041,-0.2461679
0.9924108,-0.1029449,-0.2461449
0.9982747,-0.1041472,-0.2488598
1.001315,-0.1031639,-0.2515772
0.9984639,-0.09942776,-0.2520442
0.9953309,-0.09684191,-0.2512743
0.9937449,-0.0922636,-0.2533124
0.9955232,-0.0891787,-0.256008
0.996635,-0.09820772,-0.2561328
0.9971363,-0.1046473,-0.257449
0.9973578,-0.1027757,-0.2571942
0.9954496,-0.1040184,-0.2540342
0.9953566,-0.1047098,-0.2534727
0.9962913,-0.102528,-0.2521476
0.995773,-0.1006215,-0.2475938
0.9956056,-0.09981055,-0.2456761
0.9957134,-0.1009164,-0.2418334
0.9939941,-0.1025842,-0.2352085
0.9921818,-0.1021131,-0.2386389
0.9921873,-0.09989694,-0.2424351
0.9918067,-0.09991704,-0.237246
0.9928143,-0.1010822,-0.236795
0.9962584,-0.1015433,-0.2389076
0.9984238,-0.1017844,-0.2409055
0.9990734,-0.1021474,-0.2464401
1.000461,-0.1046381,-0.2477749
1.002302,-0.106764,-0.2476509
1.002026,-0.1057788,-0.2492591
0.9984995,-0.1018621,-0.2482092
0.9942234,-0.09808237,-0.2465707
0.9942198,-0.09593151,-0.2455281
0.9953223,-0.09262303,-0.2462417
0.9927495,-0.09604933,-0.2497855
0.9927539,-0.1039941,-0.2523543
0.9939931,-0.1028714,-0.2515104
0.9942354,-0.09983266,-0.2491656
0.9960369,-0.09748598,-0.2453489
0.9924791,-0.09155374,-0.2369883
0.9893255,-0.0903,-0.228531
0.9957146,-0.09620563,-0.2279343
1.002678,-0.1042276,-0.2350306
1.003205,-0.1055369,-0.2407864
0.9985634,-0.1011473,-0.2350197
0.9950174,-0.1011156,-0.2259927
0.9961406,-0.1015952,-0.2282392
0.9990479,-0.1018527,-0.2392611
1.001626,-0.1053056,-0.2493905
1.001295,-0.1066395,-0.2472977
0.9983788,-0.1021687,-0.2408289
0.9964453,-0.09622612,-0.2440641
0.9970186,-0.0979243,-0.2432037
0.9977435,-0.09947028,-0.2397266
0.9967417,-0.09561325,-0.2411379
0.9962796,-0.09753485,-0.2387352
0.9958242,-0.09898945,-0.2401963
0.9950969,-0.09779495,-0.2409611
0.9943969,-0.09942891,-0.236595
0.9933204,-0.09793132,-0.2387844
0.9971352,-0.09655334,-0.24442
1.002053,-0.09573379,-0.2510613
0.9997634,-0.09410513,-0.2493955
0.9971473,-0.0949329,-0.2383453
0.9975122,-0.09379872,-0.2345675
0.9968429,-0.09229523,-0.2342892
0.997283,-0.09077453,-0.2343084
0.9973406,-0.09009803,-0.2394599
0.9959112,-0.09556307,-0.2449296
0.9967283,-0.09987772,-0.2441109
1.000185,-0.1010455,-0.2412438
1.003954,-0.1034123,-0.243918
1.002083,-0.1048041,-0.2422616
0.9967646,-0.1032921,-0.2355996
0.9952121,-0.09826712,-0.2334481
0.9948744,-0.09522805,-0.2370865
0.9984815,-0.09888721,-0.2455313
1.003384,-0.1032918,-0.2456424
0.9997384,-0.1023851,-0.2417212
0.9949918,-0.1036235,-0.2433124
0.9932605,-0.1090934,-0.239085
0.9925568,-0.1070428,-0.2364384
0.9953347,-0.1040407,-0.2397055
0.9961338,-0.1037634,-0.2407229
0.9936064,-0.09904027,-0.24069
0.9916821,-0.09932467,-0.2396181
0.9914963,-0.1011568,-0.2401889
0.9938015,-0.09911029,-0.2388124
0.9955341,-0.1003308,-0.2362594
0.9976131,-0.09999881,-0.237966
1.002006,-0.09864982,-0.2375716
1.003919,-0.09881782,-0.2370131
1.001334,-0.09836677,-0.2357253
0.9960979,-0.09979078,-0.2292519
0.9919508,-0.09958605,-0.2242528
0.9944961,-0.09625051,-0.2239653
1.000327,-0.09350439,-0.2247197
1.000461,-0.09421561,-0.2247844
0.998468,-0.09753276,-0.2278343
0.9993325,-0.09913711,-0.2296944
1.001163,-0.1004871,-0.2292731
1.004602,-0.1004361,-0.231343
1.004984,-0.09939517,-0.2293154
1.003207,-0.101407,-0.2284568
1.00468,-0.1009581,-0.2295963
1.00332,-0.09749573,-0.2273056
0.9985618,-0.09562164,-0.2304661
0.992807,-0.09796995,-0.2301535
0.9905515,-0.1025002,-0.2269146
0.9970466,-0.1009366,-0.2300337
1.001317,-0.09986636,-0.2305261
0.9995561,-0.1033171,-0.2328854
0.9979889,-0.1027754,-0.2342305
0.9406458,-0.1714497,-0.4093859
0.939957,-0.1703029,-0.4182579
0.9395825,-0.1690565,-0.413166
0.9370917,-0.1611621,-0.4000178
0.9305513,-0.1531431,-0.3914652
0.927657,-0.1592639,-0.3997132
0.9303995,-0.1673463,-0.4095818
0.9312187,-0.1652364,-0.4065583
0.9301153,-0.1663838,-0.4081789
0.9295078,-0.1700755,-0.4165845
0.9295283,-0.168475,-0.4228923
0.9308789,-0.1679592,-0.4196043
0.9335206,-0.1664621,-0.4090484
0.9334033,-0.1656674,-0.4044475
0.9300669,-0.168012,-0.402189
0.9285946,-0.1670314,-0.3992302
0.9289475,-0.1680368,-0.3995197
0.9296698,-0.1684291,-0.4016769
0.9300681,-0.1643421,-0.4063662
0.9297941,-0.1639936,-0.4110386
0.9274636,-0.165612,-0.4096946
0.9240497,-0.1681791,-0.4057589
0.9279801,-0.1674939,-0.406587
0.9347209,-0.1599662,-0.4059548
0.9352794,-0.1552707,-0.4023057
0.9325386,-0.1557917,-0.4011167
0.923165,-0.1563457,-0.3932977
0.911157,-0.1534101,-0.3856156
0.9114511,-0.1547593,-0.3961209
0.9214246,-0.1637241,-0.4241027
0.9311555,-0.1677014,-0.4518864
0.9368859,-0.1648049,-0.4504485
0.9327048,-0.1612428,-0.4350891
0.9240589,-0.1647128,-0.4340256
0.9241183,-0.1688343,-0.4280534
0.930141,-0.1637481,-0.430266
0.9359728,-0.1630641,-0.4456631
0.9351726,-0.1647418,-0.4361973
0.9274517,-0.1631389,-0.4187317
0.9254976,-0.1640975,-0.408837
0.9260303,-0.1616761,-0.4065691
0.9241298,-0.1586354,-0.4155329
0.9218864,-0.1552386,-0.4081993
0.9198597,-0.1516604,-0.4040735
0.9242675,-0.1554159,-0.4106425
0.9271719,-0.1584112,-0.4042378
0.9259638,-0.1573574,-0.407488
0.9273864,-0.1590711,-0.4109992
0.9286577,-0.162698,-0.4182429
0.9315047,-0.1632902,-0.4397529
0.9305982,-0.1633744,-0.4355349
0.9265274,-0.1645276,-0.4122434
0.9255789,-0.1615775,-0.3945258
0.9244924,-0.1603131,-0.3975043
0.92701,-0.1620051,-0.4181505
0.9288018,-0.1625556,-0.4240517
0.9266719,-0.1655083,-0.4233727
0.9253217,-0.1685875,-0.4259604
0.9227679,-0.1715539,-0.4322255
0.9231753,-0.171217,-0.4393068
0.9244607,-0.1655971,-0.4291184
0.923026,-0.1628842,-0.4194058
0.9237304,-0.1619443,-0.4174426
0.9250804,-0.1624529,-0.4175648
0.929536,-0.1641234,-0.4253495
0.9349599,-0.1631528,-0.4256218
0.9311264,-0.1624073,-0.418336
0.9259548,-0.160999,-0.4117017
0.9280194,-0.1622425,-0.4134716
0.9282873,-0.1653976,-0.423969
0.9263989,-0.1635314,-0.4251159
0.9283819,-0.1630674,-0.4213836
0.9299915,-0.162808,-0.4137933
0.9309851,-0.1602118,-0.4068361
0.9319143,-0.1625207,-0.4116523
0.9293161,-0.1659795,-0.4143972
0.9276929,-0.1671054,-0.4168294
0.9319775,-0.1669972,-0.416453
0.9367264,-0.1658143,-0.4103342
0.934967,-0.164552,-0.4091633
0.9336398,-0.1608084,-0.4036309
0.9366148,-0.158014,-0.4011481
0.9352904,-0.1583077,-0.4019408
0.9312783,-0.1565343,-0.3964658
0.9290277,-0.1555513,-0.4043948
0.931753,-0.1570571,-0.414628
0.936001,-0.1581214,-0.4109053
0.9293541,-0.1601334,-0.4115491
0.9234164,-0.1598965,-0.4131493
0.9274577,-0.156637,-0.4061625
0.929166,-0.1567536,-0.403308
0.9308524,-0.1591942,-0.4087478
0.9340479,-0.1597791,-0.4133255
0.9330068,-0.1580539,-0.4131503
0.9312735,-0.1563047,-0.413841
0.9306207,-0.1581079,-0.4175354
0.9320017,-0.1615968,-0.4185202
0.9334036,-0.1649548,-0.4168792
0.9289432,-0.1678345,-0.4124931
0.9253489,-0.1662452,-0.4058352
0.9307878,-0.1622526,-0.4050896
0.935634,-0.1602186,-0.4063377
0.9324343,-0.1587166,-0.4042547
0.928829,-0.1573453,-0.4021341
0.92773,-0.1564907,-0.3991116
0.9283408,-0.1568344,-0.3985196
0.9324873,-0.1573958,-0.3975421
0.9362498,-0.155679,-0.3928124
0.9375285,-0.1525258,-0.3943654
0.9354871,-0.1492579,-0.3985388
0.9316883,-0.1512162,-0.3991844
0.9332395,-0.1566343,-0.4016936
0.9343895,-0.157859,-0.4010845
0.9323198,-0.1629202,-0.3971333
0.9337442,-0.1691482,-0.3968993
0.9337479,-0.1656427,-0.3946885
0.933447,-0.1620412,-0.3902243
0.934704,-0.1599631,-0.3908712
0.9328297,-0.1560099,-0.3911442
0.9335396,-0.1597839,-0.3866562
0.9366131,-0.1677069,-0.3868536
0.937684,-0.1685307,-0.3926226
0.9370957,-0.1650772,-0.3947287
0.9354666,-0.1628534,-0.3945349
0.9370097,-0.162317,-0.3945866
0.9379498,-0.1609796,-0.3944572
0.9352324,-0.1576237,-0.3963259
0.9342819,-0.1569815,-0.3968616
0.9348295,-0.1573984,-0.3955343
0.9357909,-0.1566541,-0.3958289
0.9367572,-0.1590903,-0.3977723
0.9377903,-0.1600256,-0.4020089
0.9387667,-0.1576912,-0.4053139
0.9354972,-0.1570382,-0.4036802
0.9319988,-0.1592859,-0.4014513
0.9340726,-0.1624517,-0.4016255
0.935972,-0.1612378,-0.3983784
0.9351963,-0.1598843,-0.3934768
0.9361496,-0.1604762,-0.3948512
0.936527,-0.1594399,-0.3964947
0.9346479,-0.1623431,-0.3941203
0.9342583,-0.1647304,-0.3932189
0.9330697,-0.1635677,-0.3931845
0.9317191,-0.1659552,-0.3939784
0.9346572,-0.1673986,-0.3983872
0.9371848,-0.1664246,-0.4014311
0.9363996,-0.1666909,-0.4006114
0.9364611,-0.1664713,-0.4006097
0.9378984,-0.1652752,-0.3977104
0.9366541,-0.1623227,-0.3930129
0.9343741,-0.160117,-0.3932287
0.9354843,-0.1611198,-0.3945706
0.9383378,-0.1613368,-0.3991768
0.9412091,-0.1599284,-0.4028151
0.9397074,-0.1591075,-0.3974214
0.9329512,-0.1579866,-0.3915387
0.9295396,-0.1564477,-0.389958
0.9319716,-0.1572133,-0.3956094
0.9359558,-0.1600699,-0.4050128
0.9369005,-0.1620668,-0.407878
0.9371374,-0.163502,-0.4057962
0.9384475,-0.1658254,-0.4003053
0.9369001,-0.1662743,-0.3965283
0.9368097,-0.1600648,-0.4023954
0.9355357,-0.1527373,-0.4100488
0.9317178,-0.1538717,-0.4068165
0.9334706,-0.1579723,-0.3952735
0.9340079,-0.1586295,-0.3876334
0.9325681,-0.1585272,-0.3897762
0.9334553,-0.1579645,-0.3968031
0.9314246,-0.1573625,-0.3980632
0.9302273,-0.1578355,-0.3966714
0.932388,-0.1612247,-0.3986755
0.9343938,-0.166979,-0.4011941
0.9353093,-0.1687662,-0.4056622
0.936085,-0.1692509,-0.4038242
0.9365571,-0.1711077,-0.396155
0.9351317,-0.168976,-0.3944773
0.9358007,-0.165481,-0.3970913
0.9366158,-0.1629855,-0.4018721
0.9339107,-0.162226,-0.4012481
0.9333703,-0.1632806,-0.4007391
0.9336984,-0.161982,-0.4065506
0.9329149,-0.1623245,-0.4035693
0.9334983,-0.1626574,-0.4001339
0.9332538,-0.1590813,-0.400737
0.9322332,-0.157898,-0.3992455
0.9321885,-0.1584797,-0.4027392
0.9339373,-0.1609823,-0.4023101
0.9372082,-0.1654927,-0.4014199
0.9375336,-0.1672659,-0.4096899
0.9336163,-0.165871,-0.411786
0.9307726,-0.1623103,-0.4025569
0.9319131,-0.1609978,-0.3956163
0.9335036,-0.1601741,-0.3993409
0.9332438,-0.1571599,-0.4015911
0.9333262,-0.1540163,-0.396075
0.9334978,-0.150088,-0.3923167
0.9336426,-0.1527245,-0.3902284
0.9361557,-0.1597891,-0.3941974
0.9383379,-0.1619027,-0.4017202
0.9373088,-0.1618513,-0.4003877
0.9351064,-0.1615303,-0.3986121
0.9330989,-0.1636364,-0.39905
0.931202,-0.1649108,-0.3972299
0.9300644,-0.1628495,-0.4013653
0.9313909,-0.1633118,-0.4062922
0.9352917,-0.1628147,-0.4036071
0.9386639,-0.1636316,-0.400574
0.9375458,-0.166596,-0.3999064
0.9334865,-0.1650458,-0.3997317
0.931144,-0.1648444,-0.4015505
0.9301489,-0.1658458,-0.4039211
0.9314238,-0.1647068,-0.4062359
0.9337272,-0.1645196,-0.4074656
0.9332339,-0.163684,-0.4042552
0.9332896,-0.1636125,-0.399718
0.9337283,-0.1637411,-0.3977623
0.9340824,-0.1609759,-0.3983037
0.9361714,-0.1592779,-0.3994538
0.9360183,-0.16167,-0.398826
0.9341337,-0.1653001,-0.398834
0.9329181,-0.1660145,-0.3994041
0.9329967,-0.1658171,-0.3992012
0.93386,-0.1668629,-0.4009973
0.9330733,-0.1653894,-0.405681
0.9332189,-0.1620144,-0.4099095
0.9336771,-0.1603978,-0.4060424
0.9329837,-0.1609529,-0.4016976
0.9335231,-0.1615633,-0.4048335
0.9333552,-0.1608647,-0.4027436
0.9331523,-0.1608503,-0.3998101
0.9332107,-0.1604898,-0.4019954
0.9313638,-0.1593713,-0.4003728
0.9306151,-0.1606145,-0.4007476
0.9330708,-0.1616582,-0.406862
0.935651,-0.1609444,-0.4129075
0.9333756,-0.1610383,-0.4118335
0.9283174,-0.1612271,-0.4030988
0.9253696,-0.1610489,-0.392302
0.9241887,-0.1614719,-0.3816393
0.9271173,-0.1632732,-0.3878211
0.9354432,-0.166212,-0.4078064
0.9439475,-0.1674153,-0.4138446
0.9452483,-0.1664857,-0.4104676
0.9422938,-0.1657259,-0.4073926
0.9425969,-0.1633796,-0.4031256
0.938914,-0.1589987,-0.3983343
0.9332819,-0.1559776,-0.3927626
0.9322817,-0.153088,-0.3918442
0.9314948,-0.1524699,-0.3925258
0.9342699,-0.1572497,-0.3971677
0.9341253,-0.1618394,-0.4064939
0.931296,-0.1663921,-0.4095099
0.9327509,-0.1685461,-0.4106407
0.9287539,-0.1650844,-0.4118529
0.9278208,-0.1647963,-0.4142558
0.9298174,-0.1643224,-0.4133966
0.9265453,-0.163284,-0.404933
0.9289452,-0.1685085,-0.4035916
0.9299955,-0.1689529,-0.4055733
0.9282031,-0.1618955,-0.408257
0.9294062,-0.1553938,-0.4111967
0.9298259,-0.1556429,-0.4065679
0.9329165,-0.1601679,-0.4044074
0.9337329,-0.1595903,-0.401941
0.9335747,-0.1611507,-0.3992872
0.9368643,-0.163188,-0.4006255
0.9370926,-0.1631449,-0.4001075
0.9369109,-0.168518,-0.4038911
0.9351206,-0.1678979,-0.4067966
0.9311234,-0.1675514,-0.406851
0.9315923,-0.173141,-0.4125906
0.9325197,-0.1706202,-0.4184965
0.9314286,-0.1693017,-0.4150696
0.9305458,-0.1693101,-0.4032017
0.9277542,-0.1651333,-0.398044
0.9256478,-0.1670247,-0.402952
0.9283326,-0.1702385,-0.4111891
0.9311409,-0.1709193,-0.416019
0.9306114,-0.1713986,-0.4117676
0.9303311,-0.1703605,-0.4098259
0.9302088,-0.1712027,-0.4116994
0.9277876,-0.1729682,-0.4110421
0.9255668,-0.1733884,-0.4110928
0.9261243,-0.1710215,-0.4110212
0.9269479,-0.163642,-0.4110713
0.9263043,-0.1589875,-0.4101808
0.9275031,-0.1614626,-0.4092985
0.9301707,-0.1635818,-0.4099163
0.9311088,-0.1629576,-0.4083607
0.9315311,-0.1622494,-0.4035642
0.9318492,-0.1609187,-0.3982353
0.9311807,-0.1582157,-0.4000602
0.9305961,-0.1573603,-0.4038544
0.932121,-0.1629572,-0.4032131
0.9338969,-0.1687908,-0.4058874
0.9315712,-0.1653381,-0.4058425
0.9295018,-0.1617605,-0.4025047
0.9308168,-0.1647405,-0.4050413
0.9307832,-0.1646506,-0.406433
0.930253,-0.1647434,-0.4060917
0.9307216,-0.1679799,-0.4051623
0.9305435,-0.1666223,-0.4016741
0.9304892,-0.1660136,-0.4042351
0.9306217,-0.1664771,-0.4068986
0.9307076,-0.1618065,-0.4030115
0.931616,-0.1589167,-0.4032009
0.9333139,-0.1624524,-0.4084299
0.9349488,-0.1672298,-0.4121134
0.936674,-0.1672592,-0.4091804
0.9378913,-0.1657694,-0.4056213
0.9363744,-0.1662109,-0.4118169
0.9336764,-0.1642338,-0.4157698
0.9325615,-0.1609988,-0.4109709
0.9315536,-0.1574239,-0.4071691
0.9297943,-0.1555457,-0.4040742
0.928492,-0.1576769,-0.4007973
0.9283078,-0.157646,-0.3993934
0.9315665,-0.1598523,-0.3994238
0.9373771,-0.1670549,-0.398705
0.9384047,-0.1688735,-0.3962208
0.9349822,-0.1648656,-0.3955122
0.9343645,-0.1608825,-0.3930484
0.9357901,-0.1604868,-0.3875544
0.9363808,-0.1614803,-0.3871887
0.9364205,-0.1597969,-0.3913402
0.9367244,-0.1576282,-0.3958052
0.9379298,-0.1536925,-0.3978598
0.9371346,-0.1504088,-0.3963122
0.9343962,-0.1541947,-0.3968367
0.9328492,-0.1589735,-0.3972021
0.9336361,-0.1587233,-0.3922223
0.9374013,-0.157856,-0.3888669
0.9397253,-0.1589423,-0.3898081
0.9379159,-0.1601309,-0.3889001
0.9359483,-0.1600444,-0.3857856
0.9355042,-0.1544058,-0.3854622
0.9349374,-0.1477809,-0.3869422
0.9348214,-0.1522338,-0.386776
0.9383392,-0.1582582,-0.387929
0.9411504,-0.1576143,-0.3898019
0.939931,-0.1598698,-0.3900771
0.9402226,-0.159852,-0.389848
0.9405906,-0.1556874,-0.3883339
0.9399057,-0.1561846,-0.3889788
0.9405374,-0.1557321,-0.3922322
0.939857,-0.1553073,-0.3968445
0.9383766,-0.1590012,-0.4039168
0.9375202,-0.1605739,-0.4036463
0.938872,-0.1611113,-0.3935001
0.941356,-0.1602287,-0.386587
0.9402831,-0.1575356,-0.3905708
0.9396899,-0.1580085,-0.3959159
0.9412033,-0.1586426,-0.3936909
0.9418269,-0.1570992,-0.3981143
0.9427838,-0.1556566,-0.4056122
0.9399814,-0.1551604,-0.3989507
0.9357137,-0.1547364,-0.3946661
0.9372472,-0.1549423,-0.3979318
0.9375357,-0.1594607,-0.3955505
0.9347089,-0.1642985,-0.39412
0.9344208,-0.1623296,-0.3981627
0.9332702,-0.1576984,-0.4014045
0.9329306,-0.156477,-0.3991032
0.9358268,-0.1567669,-0.3936025
0.9364798,-0.1570609,-0.3894384
0.9361857,-0.1568055,-0.387458
0.9376285,-0.1547949,-0.3883204
0.9408132,-0.1538289,-0.3900092
0.9454476,-0.1540478,-0.3922176
0.9467077,-0.1535381,-0.3923596
0.9451708,-0.150761,-0.3886137
0.9439808,-0.1472152,-0.3850651
0.9419055,-0.1485732,-0.3798777
0.9392522,-0.1501865,-0.3772957
0.9369584,-0.1490732,-0.3778984
0.9379633,-0.1507647,-0.3759394
0.9408493,-0.1548563,-0.3785277
0.9403804,-0.1613366,-0.3832515
0.9399099,-0.1668662,-0.3866314
0.9408317,-0.1672579,-0.3870665
0.941315,-0.1687329,-0.3799316
0.944078,-0.1712064,-0.3776323
0.9470524,-0.1663665,-0.3785684
0.9475536,-0.1583346,-0.377784
0.947284,-0.1533516,-0.3811865
0.9470085,-0.1475987,-0.3809261
0.9471443,-0.1459774,-0.380859
0.9464159,-0.1487052,-0.3818842
0.9462579,-0.1478843,-0.3760586
0.9503686,-0.1529639,-0.3726245
0.9535687,-0.1597404,-0.3759946
0.9483316,-0.1558902,-0.3804036
0.9389292,-0.1541397,-0.3798909
0.9363669,-0.1563045,-0.380039
0.9413458,-0.1544832,-0.3850662
0.9442862,-0.1538192,-0.3870305
0.9412954,-0.1563322,-0.3888428
0.9392834,-0.1615961,-0.3873188
0.9426453,-0.1673033,-0.3825514
0.944705,-0.1675222,-0.3850449
0.943221,-0.1643424,-0.3855799
0.941853,-0.1619368,-0.3829467
0.9403037,-0.1577557,-0.3818056
0.9402445,-0.1543844,-0.3790456
0.9415191,-0.1543825,-0.3837986
0.9424944,-0.1514114,-0.3893363
0.9426902,-0.1486706,-0.3820207
0.9412096,-0.1502788,-0.3762666
0.9421403,-0.1511879,-0.379654
0.9457246,-0.1541239,-0.3793712
0.9479539,-0.1584732,-0.3749648
0.9472146,-0.157476,-0.3746883
0.9438237,-0.1563824,-0.3769108
0.9426193,-0.1603515,-0.3785433
0.9443345,-0.1630355,-0.3812169
0.9465668,-0.1624856,-0.384425
0.9474381,-0.1614362,-0.3834367
0.9443583,-0.1565505,-0.378846
0.9420303,-0.1498488,-0.3753013
0.9434094,-0.1513311,-0.3756771
0.9453968,-0.1653898,-0.3902453
0.9470736,-0.1813484,-0.410063
0.9476104,-0.1834631,-0.4084644
0.946255,-0.1770672,-0.3959622
0.942056,-0.1719691,-0.3872708
0.9369358,-0.1632664,-0.3758069
0.9374202,-0.1575088,-0.37265
0.9420404,-0.1598892,-0.3787872
0.9426838,-0.1614786,-0.3812595
0.9423322,-0.1641335,-0.3841644
0.9440454,-0.1630851,-0.3849689
0.9432393,-0.1560759,-0.3788944
0.9452992,-0.157538,-0.3729241
0.9488541,-0.1620933,-0.3708433
0.9470584,-0.1638103,-0.3730364
0.9475033,-0.1617069,-0.3754863
0.9485932,-0.1529286,-0.376284
0.9460844,-0.1518669,-0.3762266
0.9444087,-0.1554351,-0.3720173
0.9425792,-0.1547733,-0.3641023
0.942872,-0.1523347,-0.3562015
0.9460449,-0.1464332,-0.3602109
0.9487932,-0.1465409,-0.3753977
0.9507029,-0.1492674,-0.3808976
0.9491541,-0.1480297,-0.3772071
0.9467796,-0.1485597,-0.3709624
0.9472903,-0.1456114,-0.3656036
0.9480329,-0.142468,-0.3688598
0.9505922,-0.1429841,-0.3715936
0.9537267,-0.1433962,-0.3720909
0.9512946,-0.1452548,-0.3720616
0.948607,-0.147186,-0.3660486
0.9490771,-0.1488661,-0.3628252
0.9441583,-0.1501681,-0.3653991
0.9387191,-0.1527228,-0.3667521
0.9442844,-0.1554091,-0.360583
0.9500814,-0.1536359,-0.3512831
0.9471599,-0.1519742,-0.3514851
0.9479283,-0.1513049,-0.3581171
0.9526327,-0.1503632,-0.3646512
0.9541512,-0.149201,-0.3705836
0.9576775,-0.1462478,-0.3780083
0.9588378,-0.1452958,-0.3802639
0.958068,-0.1410284,-0.3679781
0.9625041,-0.1333408,-0.3601532
0.9612039,-0.1368556,-0.3644348
0.954684,-0.14622,-0.3647326
0.9488112,-0.1490624,-0.3619808
0.9406445,-0.14524,-0.3576964
0.9412172,-0.1377913,-0.3533895
0.9480991,-0.1376814,-0.3581008
0.9508243,-0.1423136,-0.3673712
0.9523782,-0.1412138,-0.3735032
0.9498266,-0.1447192,-0.3799836
0.9460689,-0.1541517,-0.3843282
0.9413023,-0.1596721,-0.3838391
0.9352066,-0.1600432,-0.3857235
0.9400839,-0.1610151,-0.3853017
0.9479544,-0.1720787,-0.3851716
0.9500153,-0.1850505,-0.3895186
0.9507596,-0.1947029,-0.3866594
0.9477974,-0.204511,-0.3847335
0.944581,-0.2032139,-0.3833886
0.9434486,-0.1956769,-0.3746928
0.9467659,-0.1889805,-0.3688247
0.9533479,-0.177144,-0.3647747
0.9516587,-0.1693649,-0.3629681
0.9491043,-0.1642475,-0.3603801
0.9508756,-0.1467604,-0.3565489
0.949494,-0.1279538,-0.3602084
0.9499194,-0.1289316,-0.3647301
0.9519514,-0.1378286,-0.3701276
0.9565178,-0.1369683,-0.3718569
0.9626458,-0.1337994,-0.3648677
0.9565352,-0.1295331,-0.3544745
0.9494143,-0.1250048,-0.3397525
0.954417,-0.1225873,-0.3354712
0.9565641,-0.1180719,-0.3405808
0.9540283,-0.1199564,-0.3437723
0.9533802,-0.1245403,-0.3510005
0.9508733,-0.1269207,-0.3507455
0.9514447,-0.1313437,-0.3472957
0.9542118,-0.1304531,-0.3513445
0.9533688,-0.1310363,-0.3500143
0.9582815,-0.1358682,-0.3481688
0.9661789,-0.1357942,-0.3488985
0.9654037,-0.1279051,-0.3465858
0.9606478,-0.117752,-0.3463991
0.9570052,-0.1258095,-0.3446783
0.9564821,-0.135925,-0.339614
0.9591887,-0.1288286,-0.3367987
0.960107,-0.1299656,-0.3371839
0.9586177,-0.135285,-0.3431609
0.9569809,-0.1341679,-0.3509767
0.9568506,-0.1364526,-0.3514859
