accx,accy,accz
0.9951205,-0.1586884,0.214071
0.9978499,-0.1609325,0.2128458
0.9982275,-0.1632168,0.2099063
0.9996505,-0.1668003,0.209367
1.000645,-0.1666641,0.2082911
0.9990834,-0.1643807,0.2064374
0.9973727,-0.1622207,0.2039295
0.9951865,-0.158878,0.2004078
0.9957934,-0.1570865,0.1989236
0.9997113,-0.1563932,0.2014862
1.002191,-0.1570584,0.2047429
1.003499,-0.1573341,0.2038166
1.002475,-0.1567389,0.2047116
1.000424,-0.1596421,0.2084599
0.9996571,-0.1629356,0.2099832
0.9977821,-0.1640784,0.209346
0.9969258,-0.1615527,0.2027879
0.9975468,-0.1575909,0.1987837
0.998964,-0.157249,0.2046034
1.000774,-0.1562525,0.2088135
0.9999575,-0.1589765,0.2072398
0.9996783,-0.1647293,0.2070444
1.000341,-0.1608999,0.2138589
0.9997915,-0.154816,0.2186691
1.000062,-0.1527773,0.2149304
1.000043,-0.1509533,0.2104865
1.000258,-0.1515752,0.2070719
1.001902,-0.1513968,0.2074831
1.003044,-0.150015,0.2135619
1.001984,-0.1502128,0.2178043
0.9996117,-0.1502013,0.2138361
0.9985452,-0.1527743,0.2085136
0.9967978,-0.1550532,0.2114724
0.9949822,-0.1529903,0.2116951
0.9964799,-0.1508071,0.2070898
0.9988094,-0.148524,0.2068842
1.000143,-0.1464765,0.2077054
0.9986919,-0.1466141,0.2123899
0.9962389,-0.1459084,0.2158541
0.998292,-0.1441032,0.2081631
1.000418,-0.1459795,0.2023011
0.9997673,-0.149601,0.2098596
1.000487,-0.1493932,0.2195682
1.001837,-0.1487733,0.2196092
1.003116,-0.1480214,0.218211
1.002881,-0.1468514,0.2174399
1.000233,-0.1505483,0.2129978
0.9984272,-0.1544471,0.2131833
0.9963535,-0.1554151,0.2142445
0.9943008,-0.1554958,0.2133425
0.9943123,-0.1532227,0.2159805
0.994255,-0.1504926,0.2154317
0.993644,-0.1493178,0.2126855
0.9927563,-0.1507565,0.2124416
0.992849,-0.1541443,0.2127781
0.9941549,-0.1576481,0.2157228
0.9963689,-0.160528,0.2193369
0.9993617,-0.1612745,0.220071
0.9974325,-0.1613872,0.2180271
0.9942053,-0.1610274,0.2127863
0.9962245,-0.1611737,0.2072152
0.996346,-0.163879,0.2089583
0.9956372,-0.1671871,0.2185535
0.9989821,-0.1704775,0.2242621
1.000402,-0.1692772,0.2205845
0.9977537,-0.1638622,0.2158829
0.9937143,-0.1609819,0.2163675
0.992432,-0.1583699,0.2173108
0.9953194,-0.1550893,0.2161292
0.9974302,-0.1532794,0.21683
0.9967334,-0.1530137,0.21744
0.9935191,-0.1527706,0.2183498
0.9908648,-0.1504949,0.219399
0.9933755,-0.1501497,0.2159764
0.9967501,-0.1527263,0.2157963
0.9970174,-0.1549361,0.2191686
0.997992,-0.1546694,0.2195574
0.999312,-0.1533297,0.221101
0.9980625,-0.15385,0.2201794
0.9965949,-0.1506398,0.2165254
0.9961895,-0.1462165,0.2165114
0.9982135,-0.1483345,0.2165199
1.002185,-0.1514954,0.2162252
1.001907,-0.1536895,0.2173635
0.9998575,-0.1558918,0.2170429
0.998342,-0.1566256,0.2140755
0.9944926,-0.1562558,0.2116856
0.9942444,-0.1525246,0.212498
0.9955664,-0.1486898,0.2113149
0.9945194,-0.1504435,0.2103303
0.9962634,-0.1524957,0.2134292
0.9967333,-0.1500939,0.2128993
0.9969518,-0.1498387,0.2116689
1.000432,-0.1532763,0.2136447
0.9991845,-0.1545301,0.2149992
0.9958921,-0.1535421,0.217327
0.995664,-0.1523335,0.2160421
0.9954667,-0.1535324,0.2095086
0.9951751,-0.1550282,0.2055073
0.9943287,-0.1532007,0.2073579
0.9953756,-0.1514519,0.2133466
0.9984037,-0.1495055,0.2166136
0.998579,-0.1492797,0.2154218
0.9968396,-0.1516416,0.2140876
0.9952104,-0.1531511,0.2118093
0.99573,-0.155372,0.2090666
0.997345,-0.1506484,0.2098934
0.9969066,-0.1413447,0.2115751
0.9964399,-0.1413973,0.207426
0.99619,-0.1436037,0.2041295
0.9981267,-0.1467158,0.2082733
1.00133,-0.1547281,0.2119591
0.9998751,-0.1549877,0.2130029
0.9984011,-0.1491166,0.2131057
0.9989628,-0.1472058,0.213744
0.9982754,-0.1484239,0.216369
0.9986911,-0.152651,0.2163674
0.9989754,-0.155562,0.2162656
0.9988495,-0.1543633,0.2176845
0.9987223,-0.1555088,0.2180581
0.9967074,-0.1587908,0.219958
0.9970744,-0.1614947,0.2203352
0.999698,-0.1643872,0.2209828
1.000037,-0.1621092,0.2253466
0.9992159,-0.1548564,0.224441
0.9982585,-0.1516333,0.2189772
0.9983927,-0.1510612,0.2173066
0.9988642,-0.1498262,0.2165713
0.9974396,-0.1520152,0.214616
0.9971125,-0.1556134,0.2149813
0.9982462,-0.1569776,0.2158607
0.9988016,-0.1570938,0.2145978
0.9993411,-0.1577492,0.2126988
1.001022,-0.161442,0.2087066
1.003329,-0.1634693,0.2053131
1.001269,-0.1554598,0.2072621
0.9976842,-0.146294,0.2087122
0.9986508,-0.1498964,0.2093258
0.9991412,-0.1550433,0.2132677
0.9990852,-0.1531598,0.2157841
1.00021,-0.153502,0.2161585
0.9982247,-0.151858,0.2152738
0.9967446,-0.1489595,0.2113949
0.9990754,-0.1500279,0.2085203
1.000642,-0.1488604,0.2098524
0.9991163,-0.1499479,0.2122349
0.9979186,-0.1515247,0.2126372
0.9990268,-0.1516056,0.212765
0.999835,-0.1555363,0.2137777
1.000875,-0.1546106,0.2159125
1.001639,-0.1531291,0.2184583
0.9994243,-0.1560713,0.2182333
0.9978985,-0.1549171,0.2170283
0.9984959,-0.1527687,0.2147663
0.9979287,-0.1508815,0.2112284
0.9964498,-0.1506543,0.2130073
0.9953074,-0.1532568,0.2186012
0.9942199,-0.155389,0.223799
0.9940343,-0.1593276,0.2264669
0.9953646,-0.1585544,0.2229392
0.9971068,-0.1550464,0.2181726
0.9989621,-0.1576647,0.2160189
0.9983862,-0.1573928,0.2168315
0.9961357,-0.1559712,0.2219559
0.997555,-0.1574248,0.2243076
0.9988471,-0.1548236,0.2204075
0.999063,-0.1528962,0.2156156
1.000645,-0.1523054,0.21403
0.99899,-0.1517625,0.215055
0.9977319,-0.1547688,0.2146352
0.9981967,-0.1550118,0.2150101
0.996738,-0.1532433,0.2160259
0.9974757,-0.1544758,0.2145468
0.9993555,-0.1544222,0.2139062
1.00023,-0.1537242,0.2112908
1.00003,-0.1544603,0.208302
0.9977649,-0.1541504,0.2103392
0.9971794,-0.1534372,0.2115632
0.9991541,-0.1517321,0.2111214
1.001525,-0.1495634,0.211105
1.001414,-0.1525364,0.2105798
0.9982082,-0.156633,0.209925
0.9965643,-0.1554851,0.2099749
0.9972363,-0.1541584,0.2149538
0.9984335,-0.1543003,0.2214088
0.9988526,-0.1540994,0.2230333
0.9989979,-0.1558987,0.222424
1.001395,-0.1589382,0.2217813
1.002832,-0.1594406,0.2219532
0.9994841,-0.1565226,0.2209251
0.9961738,-0.1558162,0.2181083
0.9996125,-0.1579835,0.2152634
1.002582,-0.1560806,0.2126118
0.9973389,-0.1527683,0.2187176
0.9941931,-0.1510924,0.2262589
0.9965667,-0.1508311,0.2182791
0.9980945,-0.1539915,0.2119442
0.9997449,-0.1547137,0.2172047
1.000909,-0.1535026,0.2176345
1.00158,-0.1535328,0.2162243
1.002861,-0.151312,0.2196206
1.001386,-0.1512191,0.2207957
0.9984238,-0.1526457,0.2190406
0.9972518,-0.1523631,0.2180866
0.9956458,-0.151009,0.2181686
0.9953223,-0.1471427,0.2181291
0.9983905,-0.1454529,0.2188738
0.9992579,-0.1451161,0.2199226
0.9990221,-0.1438735,0.2193704
0.9994592,-0.1458616,0.2198133
0.9973326,-0.1507944,0.2228711
0.9967173,-0.1553491,0.22643
0.9977204,-0.1520656,0.2257464
0.9981695,-0.1457961,0.2194909
0.9998185,-0.1471565,0.2161172
1.00036,-0.1482586,0.2173041
0.9998952,-0.1484439,0.2184438
0.9999434,-0.1522612,0.2206712
0.9995119,-0.1535942,0.221203
0.9973612,-0.1541496,0.2212434
0.9947312,-0.1542289,0.224516
0.9947167,-0.1509305,0.2243095
0.9945893,-0.1496926,0.2220166
0.9934359,-0.1518794,0.2214917
0.9947684,-0.1546173,0.2187307
0.9967558,-0.1555695,0.2188082
0.9977694,-0.1549162,0.2216444
0.9986725,-0.1541287,0.2214347
0.9978687,-0.1523019,0.2222508
0.9957371,-0.1532423,0.2214771
0.995131,-0.1543467,0.2180595
0.9943388,-0.149275,0.2192824
0.9922131,-0.1453289,0.225192
0.9920897,-0.1446368,0.2307766
0.9930067,-0.1409433,0.2273869
0.994487,-0.1372954,0.2211233
0.9986126,-0.1386771,0.2231846
1.000568,-0.1399292,0.2227644
0.9969915,-0.1373956,0.2201934
0.9928066,-0.1350163,0.2197372
0.9927748,-0.1302707,0.2163142
0.9955108,-0.1253133,0.2219144
0.9975179,-0.1249991,0.231804
0.999858,-0.1255865,0.2311828
1.003188,-0.1305225,0.2295526
1.00409,-0.1346937,0.2285647
0.9998636,-0.1293011,0.2240599
0.9953144,-0.123698,0.2208681
0.9970137,-0.1218414,0.2203242
0.9983491,-0.1210701,0.2205265
0.9961722,-0.1239823,0.2182189
0.9964939,-0.1306179,0.2156531
0.9959595,-0.1337545,0.2165317
0.9956844,-0.1319569,0.2171852
0.9994947,-0.1357063,0.2165507
1.002401,-0.1448054,0.217137
1.003068,-0.1502261,0.2169768
1.000473,-0.1492702,0.2149815
0.9961046,-0.1473812,0.2144126
0.9944107,-0.149237,0.2147648
0.9942442,-0.1488313,0.2151496
0.9956773,-0.1479023,0.2161544
0.9971775,-0.1493044,0.2167374
0.9970702,-0.1482769,0.2188492
0.9965284,-0.1494005,0.2201182
0.9957113,-0.1534784,0.2190886
0.9975394,-0.1564541,0.2195919
0.9995387,-0.1562362,0.2194594
0.9982775,-0.1530056,0.2192682
0.9974776,-0.1514004,0.2206243
0.9971979,-0.1486639,0.2236239
0.9970104,-0.1479037,0.2270267
0.9974185,-0.1523891,0.2222992
0.9971635,-0.1532599,0.2159589
0.9975217,-0.1525194,0.2180257
0.9991037,-0.1514814,0.219324
1.000477,-0.1486018,0.2194192
1.000055,-0.1497714,0.2235886
0.9988848,-0.1536402,0.225832
0.999411,-0.1554619,0.2261199
1.000263,-0.1525281,0.227252
1.000085,-0.1473406,0.2275435
0.9998792,-0.1443384,0.2300633
1.000186,-0.1475367,0.2321879
1.000972,-0.1535447,0.2306388
1.001051,-0.1479093,0.2320333
0.9988268,-0.1418575,0.2328157
0.9962519,-0.1456097,0.2299149
0.9972768,-0.144457,0.2270291
0.9997387,-0.1439178,0.2228731
1.000107,-0.1462435,0.2259705
0.9998005,-0.1453815,0.2313925
0.9981734,-0.1460944,0.2250588
0.996481,-0.1448197,0.2214333
0.9972981,-0.1438852,0.2245788
0.9972757,-0.1452284,0.2244925
0.9960993,-0.145921,0.2277319
0.9953235,-0.1483085,0.2317116
0.9939115,-0.1492083,0.2282173
0.9930612,-0.1508566,0.2246102
0.9945506,-0.1551701,0.2256692
0.996725,-0.1575007,0.2227437
0.9956379,-0.1567554,0.2172227
0.9934023,-0.1548494,0.2192426
0.9933798,-0.1573273,0.2209117
0.9945189,-0.1599928,0.2187299
0.9970887,-0.1598739,0.2194573
0.998901,-0.1634199,0.2195077
0.999126,-0.1648171,0.2203937
0.9963964,-0.1616705,0.2194886
0.9913973,-0.1587483,0.2125601
0.9942384,-0.1555486,0.2112211
0.9980414,-0.1550978,0.2175816
0.9953637,-0.1562788,0.2235253
0.9982821,-0.1576412,0.2221012
1.000957,-0.1620251,0.2150124
0.9959065,-0.1646281,0.2100559
0.9931807,-0.1616651,0.2017803
0.9950538,-0.1564632,0.1978904
0.9993424,-0.1550748,0.2058428
1.004353,-0.1599461,0.2075958
1.006155,-0.1651423,0.2020787
1.001538,-0.1661891,0.1996468
0.9953703,-0.1638903,0.2047095
0.9960176,-0.159661,0.2106652
0.9998034,-0.1557372,0.2045329
1.00226,-0.1570977,0.2003077
1.00181,-0.1642714,0.2041791
0.9991541,-0.1700788,0.2055352
0.9984281,-0.1707974,0.2099219
0.9967857,-0.1646558,0.2137512
0.9960439,-0.1584983,0.2118489
0.9960242,-0.1622056,0.212756
0.9941725,-0.1649868,0.2149064
0.9969601,-0.1625362,0.2127661
0.9977171,-0.1610173,0.2113302
0.9949478,-0.1563573,0.212739
0.9961357,-0.1540111,0.216501
0.9939988,-0.1573507,0.2247539
0.991921,-0.1609755,0.2276061
0.993851,-0.1642385,0.2264931
0.9937604,-0.1602465,0.2353762
0.9944536,-0.1532722,0.2425779
0.9939105,-0.1556986,0.2397726
0.9924294,-0.1586449,0.2357655
0.9944124,-0.1581072,0.2328023
0.9955186,-0.1607098,0.2320315
0.9949148,-0.1615702,0.23219
0.9933948,-0.1606936,0.2326385
0.9920646,-0.1604612,0.2337912
0.9914069,-0.1591762,0.2335108
0.9885081,-0.1601375,0.2340456
0.9867682,-0.162487,0.2351373
0.9880606,-0.1667876,0.2346033
0.9903302,-0.1723427,0.2330829
0.9928249,-0.1727272,0.2304782
0.9927797,-0.1709933,0.2283172
0.9903386,-0.1705921,0.2288907
0.9881183,-0.1707471,0.2298176
0.9891418,-0.1710953,0.2293342
0.9932374,-0.170622,0.2317459
0.9949944,-0.1703398,0.2347259
0.9935998,-0.1682738,0.2345019
0.9915677,-0.1656508,0.2359964
0.9912311,-0.1661641,0.2365632
0.992475,-0.1654196,0.2328038
0.9934063,-0.163014,0.2303318
0.9958155,-0.1636506,0.2288875
0.9964261,-0.1638165,0.2269232
0.994289,-0.1597224,0.2273071
0.9944081,-0.1561531,0.2265999
0.9944762,-0.1553121,0.223944
0.9943195,-0.1533243,0.2249009
0.9946777,-0.1492667,0.2253114
0.9941959,-0.1466552,0.2229609
0.9947714,-0.147163,0.2238828
0.9955285,-0.1478119,0.2263524
0.9968458,-0.1491506,0.2266098
0.9978177,-0.1521093,0.2242326
0.9969375,-0.1517093,0.2215456
0.9972002,-0.1492122,0.2201924
0.9972222,-0.1509165,0.2178763
0.9961316,-0.1570288,0.2166444
0.9960544,-0.162252,0.2167871
0.9974615,-0.1618122,0.216774
0.9991638,-0.1584964,0.2189835
0.9978967,-0.155571,0.2219614
0.9964122,-0.150747,0.2240777
0.9976793,-0.1485111,0.226561
0.9982719,-0.1520125,0.2311468
0.9985797,-0.1536978,0.2332548
0.9985921,-0.1544359,0.2245209
0.9965448,-0.1568152,0.2161444
0.9953259,-0.1577751,0.2208852
0.9957858,-0.1589343,0.2247152
0.996023,-0.1582145,0.2212634
0.9957816,-0.156863,0.2227418
0.9964435,-0.1573189,0.2249451
0.9995474,-0.1568456,0.2213985
1.002413,-0.1588646,0.2165336
1.001773,-0.1598433,0.2107456
1.000136,-0.1549488,0.2115934
0.9990016,-0.1486581,0.2174777
0.9966306,-0.1450824,0.2173926
0.9964516,-0.1458717,0.2174773
0.9980026,-0.145534,0.2152065
0.9963332,-0.1450282,0.2103534
0.9966507,-0.1468207,0.2133368
0.9982889,-0.1452727,0.21595
0.99694,-0.1440704,0.2160088
0.9985997,-0.1421928,0.214922
0.9992706,-0.1399773,0.210884
0.9959538,-0.146683,0.2123225
0.995512,-0.1525667,0.2135741
0.9968253,-0.1505469,0.2115165
1.000225,-0.1516358,0.2129055
1.003936,-0.1547868,0.2126687
1.001176,-0.1499001,0.2118488
0.997613,-0.1438267,0.2120758
0.9988481,-0.1461796,0.2103964
1.000247,-0.1490604,0.2097601
1.001635,-0.1513233,0.2080544
1.003649,-0.1560042,0.2071889
1.002647,-0.1560764,0.2133509
1.001356,-0.154285,0.2187425
1.001607,-0.1523504,0.2159602
1.001096,-0.1487402,0.2128355
1.001476,-0.1495784,0.2139078
1.001391,-0.1509411,0.2123407
0.9998256,-0.1494238,0.2103605
0.9982007,-0.1496411,0.2133644
0.9966616,-0.1485688,0.2153814
0.9981891,-0.1462983,0.214496
1.000479,-0.1468347,0.2136035
1.000815,-0.1459056,0.2139923
1.001719,-0.1440291,0.2164255
1.001341,-0.1477515,0.2189807
0.9996239,-0.1535374,0.2210051
0.9973291,-0.1549737,0.2210044
0.99516,-0.1530014,0.2195424
0.9974442,-0.1512443,0.2194194
0.9994737,-0.1511218,0.2187644
0.9965381,-0.1507667,0.2164759
0.9953104,-0.1507058,0.2131558
0.9978487,-0.1525319,0.2128093
0.9993295,-0.1533226,0.2152155
0.9986082,-0.1525563,0.2148654
0.9984582,-0.1523419,0.216622
0.999757,-0.1511676,0.2189703
1.000612,-0.1495171,0.2167513
1.001735,-0.1508623,0.2155199
1.002416,-0.1530458,0.2135801
0.9985167,-0.1528633,0.2135155
0.9940846,-0.1528237,0.2186508
0.9954869,-0.1538037,0.2199353
0.9969362,-0.1543296,0.2183718
0.9951383,-0.1543298,0.2169082
0.9957784,-0.1534375,0.2157749
0.9963743,-0.151517,0.2163359
0.9952577,-0.1493176,0.2150241
0.9961165,-0.1498434,0.2158161
0.9962825,-0.1527223,0.2179885
0.9969184,-0.1540734,0.2170886
0.9979333,-0.1553305,0.2160767
0.9961534,-0.1552939,0.2142761
0.9972374,-0.1514826,0.2161983
0.9999173,-0.1481472,0.2188908
0.9999445,-0.147779,0.2172097
0.9997038,-0.1479114,0.2199038
0.9972648,-0.1451825,0.2208339
0.9948018,-0.1433459,0.2186423
0.9958326,-0.1449337,0.2208338
0.9967695,-0.1445174,0.2185572
0.9982289,-0.1442718,0.2168389
1.000846,-0.1457171,0.2205814
1.000451,-0.1458491,0.2220033
0.9992397,-0.1460196,0.2241173
1.000357,-0.1455279,0.2223414
1.000169,-0.1450422,0.2154732
0.9993823,-0.1453033,0.2128654
0.9993102,-0.1459154,0.2137619
0.9973194,-0.1471988,0.2163678
0.9966987,-0.1475454,0.2175227
0.9979712,-0.1490374,0.2180797
0.9988404,-0.1506911,0.2203155
1.000537,-0.1501116,0.2192571
1.000328,-0.1507287,0.2181405
0.9994278,-0.151605,0.2182271
1.000169,-0.1505692,0.2180054
0.9991009,-0.1495273,0.2201711
0.9981213,-0.1501349,0.2218407
0.998403,-0.1508586,0.2235572
0.9968723,-0.1495876,0.2249771
0.9952073,-0.1482563,0.2216882
0.9956619,-0.1484888,0.2179539
0.9964226,-0.1501558,0.2190987
0.9965165,-0.1522773,0.2204833
0.9975868,-0.1538495,0.2186073
0.9984713,-0.153142,0.2184722
0.9979172,-0.1482525,0.218373
0.9962192,-0.1445142,0.2171148
0.9938952,-0.1456202,0.217555
0.9957271,-0.1472161,0.2156298
0.9987009,-0.1466518,0.2155585
0.9970682,-0.1460208,0.218517
0.9976263,-0.1470687,0.2175572
0.999573,-0.1474423,0.2152662
0.9986208,-0.1482128,0.2144698
1.000268,-0.1500439,0.2196123
1.002074,-0.149873,0.2256602
1.000244,-0.1486469,0.2192387
0.9983937,-0.1456399,0.2100685
0.9977072,-0.1437197,0.210065
0.9981241,-0.1463969,0.2159675
0.9996595,-0.1480372,0.2214956
1.000191,-0.1461142,0.2192161
0.9980713,-0.1415345,0.2161004
0.9968232,-0.1388994,0.2189874
0.9991026,-0.1458172,0.2176514
1.000946,-0.155131,0.2135266
1.00037,-0.1545488,0.212828
0.9991647,-0.1515476,0.2147376
0.9990768,-0.1527461,0.2195469
0.9999137,-0.1511136,0.2184858
0.9989117,-0.1516069,0.2133612
0.9975391,-0.1532693,0.2117411
0.9982874,-0.1474321,0.2076024
0.9981552,-0.1435077,0.2054477
0.9981597,-0.1445616,0.2075935
0.9990114,-0.147181,0.2119393
0.9964874,-0.1519108,0.2189928
0.9951942,-0.1550295,0.216883
0.9976627,-0.1545201,0.2127551
0.9995066,-0.1509126,0.2172636
0.9998078,-0.150633,0.2191088
0.9973473,-0.1527006,0.220831
0.9969335,-0.1525817,0.2218047
0.9982853,-0.1547872,0.2167921
0.9964027,-0.1534653,0.2161378
0.9974138,-0.1469891,0.2168766
0.9991156,-0.1431874,0.2154925
0.9998679,-0.1442595,0.216761
1.002378,-0.1492199,0.2182933
1.000105,-0.1504387,0.2202745
0.9967362,-0.1478077,0.2197178
0.9946479,-0.1461251,0.2183902
0.9921373,-0.1459554,0.2186284
0.9948718,-0.1480499,0.2139119
0.9970305,-0.1473289,0.2110649
0.9957423,-0.1460125,0.2130137
0.9975293,-0.1452661,0.213554
0.9997539,-0.1428932,0.2147667
1.000448,-0.1480871,0.2176801
1.001561,-0.1539854,0.2213281
1.001655,-0.1507285,0.221646
1.000134,-0.1473551,0.2198
0.999697,-0.1454202,0.2202808
0.9996741,-0.1436214,0.2193304
0.9971951,-0.1455753,0.2180547
0.9950544,-0.1475409,0.2155408
0.9957491,-0.147242,0.2108623
0.9973929,-0.1483658,0.2124327
0.9982389,-0.1498843,0.2159539
0.9985765,-0.1501274,0.2143678
0.9979866,-0.1501559,0.2135676
0.996431,-0.1497703,0.2147365
0.9963405,-0.1500808,0.2152167
0.9959328,-0.1499517,0.216944
0.9953043,-0.148673,0.2215284
0.9968212,-0.1473252,0.2251689
0.998413,-0.1449496,0.223212
1.000407,-0.143942,0.2206275
0.999628,-0.1452269,0.2219447
0.9965034,-0.1480839,0.2239813
0.9970999,-0.1511083,0.2242966
0.9964529,-0.1503222,0.2225172
0.9940349,-0.1497942,0.2208479
0.9937466,-0.1530979,0.2197065
0.9937663,-0.1548554,0.2212415
0.995553,-0.1531172,0.225116
0.9966883,-0.1512605,0.2227126
0.9966731,-0.1512244,0.2195354
0.9993577,-0.1513461,0.2199343
1.000778,-0.1504267,0.2173591
0.9996453,-0.1497446,0.2159529
0.9989382,-0.1497323,0.2147211
0.9981552,-0.1491,0.2143102
0.9966876,-0.1473804,0.2180534
0.9952292,-0.1471331,0.2192075
0.9945545,-0.149588,0.2211505
0.993604,-0.152349,0.2209305
0.9934437,-0.1534051,0.2151782
0.9975317,-0.1527081,0.2170094
1.001103,-0.1524943,0.2230532
0.997423,-0.1528886,0.2235001
0.9931517,-0.1517817,0.2218817
0.9944682,-0.1513814,0.2247742
0.9951706,-0.153255,0.2288959
0.9947926,-0.1547556,0.2272195
0.9963573,-0.1547045,0.2274891
0.9960094,-0.1551759,0.2267574
0.9955475,-0.1562748,0.2182148
0.9970992,-0.155365,0.2142876
0.9973786,-0.1551479,0.2161351
0.9975726,-0.1566862,0.2179989
0.9990212,-0.157698,0.2200781
1.000449,-0.1603075,0.219707
1.000353,-0.1619708,0.2177936
0.9987724,-0.1620073,0.2170239
0.9964554,-0.1611029,0.2167701
0.9926325,-0.1564684,0.217417
0.9921684,-0.1543483,0.2195548
0.9949916,-0.1543941,0.2197708
0.9943985,-0.1534607,0.2181997
0.9941823,-0.1554634,0.2161468
0.9950711,-0.1576633,0.215454
0.9949106,-0.1602225,0.2202596
0.9965011,-0.1598789,0.2211854
0.9968976,-0.1567199,0.2179978
0.9970097,-0.1588242,0.2219512
0.9975934,-0.1588661,0.2243164
0.9957328,-0.1573822,0.2229943
0.9947256,-0.1589391,0.2228723
0.9943163,-0.1571374,0.2171678
0.9943555,-0.1561264,0.2121437
0.9955569,-0.1555322,0.215719
0.9954972,-0.1534984,0.220907
0.9971313,-0.156497,0.2242012
1.000216,-0.1632978,0.2272812
0.9999171,-0.1679658,0.2258657
0.9958744,-0.1636872,0.2179074
0.9925177,-0.1577168,0.2127367
0.99415,-0.1606006,0.2143594
0.9980192,-0.161774,0.2174632
1.000248,-0.1597923,0.2190737
1.000336,-0.1603947,0.2205776
0.9997009,-0.1570388,0.2234979
1.00008,-0.154534,0.2237551
1.00009,-0.1561725,0.2212145
0.9993193,-0.1544428,0.2160278
0.9970769,-0.153894,0.2110159
0.9931824,-0.156455,0.2166264
0.9925306,-0.1575681,0.2222543
0.9954809,-0.159884,0.2185102
0.9975046,-0.1644639,0.2172479
0.9983128,-0.1674839,0.2184399
0.9988242,-0.1635414,0.2179592
0.9988156,-0.1588033,0.2180545
0.9997535,-0.1614893,0.217358
1.00213,-0.1617893,0.2142861
1.003423,-0.1591756,0.2098251
1.002576,-0.1602212,0.2071674
1.001423,-0.1604973,0.2082486
1.000277,-0.1612106,0.2148461
0.9986895,-0.1615982,0.2214631
0.9984984,-0.1605124,0.2165453
0.9996655,-0.1614394,0.2099033
1.000231,-0.1611612,0.2126137
0.9995531,-0.1611533,0.2112529
0.9971552,-0.1632727,0.2061889
0.9950662,-0.1641753,0.2074818
0.9956008,-0.1632719,0.2104633
0.9963115,-0.1591237,0.2152642
0.9958104,-0.1562883,0.2184232
0.9969467,-0.1602676,0.2155957
0.9999131,-0.1635696,0.2120518
1.002246,-0.1590484,0.2041952
1.002623,-0.155371,0.1980843
0.9992533,-0.1599834,0.2069329
0.9959415,-0.1625051,0.2177319
0.9979978,-0.1596318,0.2175873
0.9994701,-0.159494,0.216566
0.9972606,-0.1608487,0.2205827
0.9970003,-0.1613436,0.2233155
0.9983774,-0.1612095,0.2212349
0.9987953,-0.1608653,0.2153363
0.9987003,-0.1616574,0.2108453
0.998465,-0.1628552,0.211632
0.9986484,-0.1643451,0.211723
0.9986972,-0.1642544,0.2087813
0.9984806,-0.1633337,0.2091959
0.998342,-0.1632787,0.2105301
0.9968219,-0.1591471,0.2082574
0.9952176,-0.1538601,0.2079477
0.9957159,-0.1553393,0.2086181
0.996177,-0.1601374,0.207036
0.9956472,-0.164053,0.2076065
0.9957861,-0.1679059,0.2106237
0.9963559,-0.1683537,0.2144345
0.9974824,-0.1660217,0.2146641
0.9993633,-0.1659843,0.211932
0.9997948,-0.1652133,0.2133807
0.9997353,-0.1646159,0.2162159
1.000052,-0.1658651,0.2173053
0.9980589,-0.1640425,0.2118355
0.9959698,-0.1633983,0.203933
0.9946564,-0.1643544,0.2088891
0.9929229,-0.1635125,0.2149888
0.9952834,-0.1641043,0.2132724
0.9987025,-0.1638985,0.2145735
0.9970678,-0.1636644,0.2158575
0.9955805,-0.1636946,0.215555
0.9961863,-0.1608942,0.2121668
0.9955874,-0.1590715,0.2064323
1.006306,-0.146073,0.1497184
1.011583,-0.1464427,0.1509049
1.013118,-0.1462248,0.154676
1.012845,-0.1483716,0.1545533
1.011768,-0.1509736,0.1580128
1.010531,-0.1502251,0.1604008
1.009841,-0.1494547,0.1601966
1.008792,-0.1500267,0.1640258
1.010862,-0.1489873,0.1602028
1.011262,-0.1459484,0.155897
1.011728,-0.1440544,0.1556786
1.012806,-0.1414739,0.1519407
1.011589,-0.1394137,0.1528674
1.013212,-0.1404584,0.1542027
1.011842,-0.141082,0.1532186
1.008191,-0.1402082,0.1521936
1.006785,-0.1391012,0.1493517
1.006236,-0.1389818,0.1538896
1.00966,-0.1370916,0.160455
1.010255,-0.1330028,0.1608367
1.009134,-0.131969,0.1590962
1.0107,-0.1321927,0.1531834
1.011018,-0.1325662,0.1484406
1.013203,-0.1340541,0.1522628
1.012601,-0.1344049,0.1562081
1.009773,-0.1357807,0.1541961
1.009944,-0.1378478,0.1550885
1.009225,-0.1384279,0.158699
1.00995,-0.1382504,0.1575394
1.009977,-0.1345754,0.1567869
1.009154,-0.130638,0.1529708
1.010278,-0.1337534,0.1463073
1.009617,-0.1380832,0.1502476
1.010722,-0.1376159,0.1554224
1.012615,-0.1369044,0.1535448
1.012103,-0.1354308,0.1526971
1.010753,-0.1312964,0.150193
1.008066,-0.1297852,0.1484825
1.008065,-0.132311,0.1550577
1.009883,-0.1360628,0.1607125
1.01061,-0.1384698,0.158569
1.011384,-0.137726,0.1574773
1.010183,-0.1372768,0.1608821
1.009573,-0.1395816,0.1612088
1.011677,-0.140391,0.158038
1.012724,-0.1369816,0.1568447
1.010324,-0.1324332,0.1592683
1.006108,-0.1314988,0.1619271
1.005626,-0.1350609,0.15845
1.010197,-0.1386398,0.1542793
1.014029,-0.1398607,0.1557607
1.012894,-0.1389433,0.1551542
1.011273,-0.1344723,0.1511814
1.012041,-0.1315987,0.1478398
1.010068,-0.1338448,0.148739
1.008762,-0.1334915,0.1556423
1.010413,-0.1307554,0.1582923
1.009906,-0.1305038,0.1547227
1.011616,-0.1317556,0.1542333
1.01527,-0.1377822,0.1587305
1.014934,-0.1440676,0.1619255
1.011692,-0.142869,0.1568729
1.008999,-0.1438494,0.1510751
1.012049,-0.1485631,0.1507969
1.015478,-0.1451047,0.1488204
1.01267,-0.1407764,0.1496161
1.011654,-0.1433505,0.1560905
1.013079,-0.1418851,0.1580449
1.012353,-0.1382041,0.1572568
1.012364,-0.1378975,0.1572855
1.012716,-0.1346826,0.1559623
1.012345,-0.1326998,0.1554375
1.012546,-0.1308593,0.1533424
1.012544,-0.1243181,0.1505226
1.012062,-0.1245693,0.149051
1.010603,-0.1307627,0.146883
1.008256,-0.1335256,0.149017
1.008187,-0.1358197,0.1537712
1.010473,-0.1379164,0.1553076
1.011792,-0.1363757,0.150532
1.012063,-0.1314487,0.1421377
1.012543,-0.1275196,0.1437146
1.012707,-0.1274176,0.1482359
1.01237,-0.1282715,0.147043
1.012451,-0.1296243,0.1512839
1.012647,-0.1319482,0.1581979
1.012381,-0.1356976,0.161906
1.012517,-0.1412798,0.1590972
1.012402,-0.1429201,0.1513025
1.011487,-0.1401556,0.1495383
1.010931,-0.1397587,0.1501014
1.010979,-0.1409047,0.1546588
1.011275,-0.1410017,0.1624448
1.011093,-0.1418544,0.1564805
1.011165,-0.1414536,0.1472834
1.011812,-0.1385717,0.1470774
1.011241,-0.1368874,0.1477107
1.010708,-0.1372481,0.1492021
1.011287,-0.1380629,0.1493109
1.011753,-0.138161,0.1495524
1.013235,-0.1381757,0.1526498
1.014775,-0.1387527,0.1526386
1.013213,-0.1399106,0.1569294
1.010734,-0.1426921,0.1632512
1.009478,-0.1436849,0.1574992
1.009488,-0.1420093,0.1484298
1.011998,-0.1396103,0.1459937
1.013129,-0.1376383,0.1477163
1.011835,-0.1432534,0.1519761
1.010853,-0.1501212,0.1566416
1.009485,-0.1473632,0.1597519
1.011231,-0.1454069,0.1598187
1.013292,-0.1463756,0.1576439
1.010292,-0.1428298,0.1564727
1.007997,-0.1413258,0.1560877
1.008203,-0.1406583,0.1536544
1.008441,-0.1368968,0.1502202
1.008549,-0.1385262,0.1509816
1.009091,-0.1403642,0.1537092
1.010133,-0.1377534,0.1542783
1.009763,-0.1397995,0.155313
1.010018,-0.1433873,0.1526033
1.01261,-0.1465031,0.1479971
1.014619,-0.1480817,0.1506225
1.014017,-0.1428752,0.1536071
1.012433,-0.1406728,0.15352
1.012473,-0.143855,0.1522389
1.012555,-0.1451917,0.1495369
1.012346,-0.1455433,0.1540764
1.012702,-0.1454379,0.1587438
1.012363,-0.1451073,0.1524672
1.012321,-0.1430796,0.1467986
1.011378,-0.1416016,0.1475716
1.008691,-0.143061,0.1509064
1.007113,-0.1438863,0.1541739
1.007508,-0.1445451,0.153953
1.009116,-0.14263,0.153821
1.010668,-0.1396852,0.1556566
1.012856,-0.1406852,0.1558337
1.014035,-0.1421244,0.1561226
1.011996,-0.1440315,0.1558095
1.011839,-0.1457628,0.1516386
1.01215,-0.1456192,0.1488388
1.009525,-0.1440902,0.1508494
1.009324,-0.1405434,0.1524474
1.010492,-0.1381419,0.1519872
1.01125,-0.13725,0.1533407
1.012775,-0.1397207,0.1559798
1.010977,-0.1451387,0.157286
1.008633,-0.1465655,0.1568347
1.009854,-0.1457347,0.1540643
1.010119,-0.1445265,0.152781
1.00932,-0.1421246,0.1550611
1.009697,-0.1377009,0.157167
1.008919,-0.1327839,0.1582564
1.007865,-0.134345,0.1561096
1.008743,-0.1367065,0.1527658
1.010281,-0.1373727,0.1535405
1.011314,-0.141533,0.1522577
1.010507,-0.1411037,0.1490976
1.009222,-0.1385314,0.1528487
1.010839,-0.1392941,0.1576557
1.012444,-0.1370197,0.1569485
1.011441,-0.1366742,0.1555902
1.010013,-0.1387592,0.1546028
1.009296,-0.1381834,0.1536511
1.01013,-0.1408254,0.1543304
1.011205,-0.1426988,0.1542837
1.010448,-0.140179,0.1539487
1.00966,-0.1400334,0.1547046
1.010949,-0.1404346,0.1562277
1.012186,-0.1401583,0.1592608
1.011354,-0.1404331,0.1602035
1.011082,-0.1401054,0.1576369
1.008919,-0.1403948,0.1562637
1.005269,-0.1400957,0.1566265
1.007775,-0.1387371,0.1554156
1.011373,-0.1361121,0.1537841
1.012272,-0.1341688,0.15592
1.011669,-0.1375553,0.1587549
1.008376,-0.1416717,0.1575713
1.009674,-0.1434621,0.1561779
1.012085,-0.146478,0.1561956
1.011928,-0.1474287,0.1553829
1.014102,-0.1444458,0.1555018
1.012459,-0.141711,0.1565362
1.011441,-0.1389915,0.1560465
1.013093,-0.1381036,0.1544325
1.009091,-0.1417546,0.1537049
1.006488,-0.1441209,0.1549917
1.006914,-0.1432923,0.1579041
1.007725,-0.1386665,0.159885
1.011723,-0.1330006,0.1566867
1.014947,-0.137874,0.1526283
1.014348,-0.1443665,0.1559996
1.011929,-0.1429243,0.1595022
1.011352,-0.1442358,0.157699
1.010366,-0.1446164,0.1570105
1.00896,-0.1419529,0.1552727
1.011298,-0.1442082,0.153063
1.012161,-0.1451886,0.1555382
1.011709,-0.1440713,0.1597767
1.011836,-0.1455731,0.1635546
1.010539,-0.1459447,0.1625539
1.010651,-0.1448869,0.1587501
1.010951,-0.1438049,0.1580174
1.011339,-0.1424967,0.1546795
1.010924,-0.1414424,0.1529394
1.008819,-0.1414301,0.1564266
1.008282,-0.142778,0.1569892
1.00865,-0.1418782,0.1554167
1.012116,-0.1385177,0.1481649
1.015055,-0.1371016,0.1405979
1.012871,-0.1392311,0.1471294
1.011542,-0.1420794,0.1540298
1.010828,-0.1410109,0.1537684
1.009184,-0.1395128,0.1572416
1.008481,-0.1404068,0.1569396
1.008387,-0.1394128,0.150932
1.008462,-0.13791,0.1528379
1.009264,-0.1362914,0.1586093
1.011136,-0.134676,0.1600233
1.011332,-0.1379592,0.1604868
1.010777,-0.1419333,0.1571648
1.009823,-0.1404726,0.1522414
1.006606,-0.1393002,0.1538544
1.005308,-0.1404453,0.1553048
1.008075,-0.1375637,0.1534231
1.010981,-0.1348259,0.1541581
1.010054,-0.1363632,0.1546564
1.010313,-0.137103,0.1532944
1.014765,-0.1393674,0.1526048
1.016021,-0.1427474,0.1511505
1.014387,-0.1409832,0.1522602
1.011676,-0.1382687,0.1564914
1.008566,-0.1387511,0.15713
1.00947,-0.1382574,0.1549631
1.010404,-0.1370624,0.1526555
1.009321,-0.1386885,0.1523442
1.009708,-0.1402611,0.1546165
1.009956,-0.1401856,0.1559928
1.009514,-0.1395064,0.1574512
1.009777,-0.1384243,0.1573184
1.00999,-0.1388786,0.156071
1.010295,-0.1393341,0.1563498
1.010589,-0.139153,0.1541634
1.009552,-0.1392659,0.1525937
1.009325,-0.1381346,0.1532095
1.010151,-0.1367295,0.1533364
1.009566,-0.1344951,0.1546248
1.00924,-0.1336044,0.1538067
1.008191,-0.1359763,0.1511993
1.006358,-0.1368716,0.1502972
1.007889,-0.1393313,0.1502872
1.009969,-0.1426957,0.1500255
1.00994,-0.1408138,0.1476206
1.01093,-0.1387612,0.1459326
1.013211,-0.1372302,0.146663
1.014489,-0.1366068,0.1476735
1.013768,-0.1388218,0.1506205
1.012653,-0.1393369,0.1564925
1.012292,-0.1421992,0.161805
1.011851,-0.144571,0.1602169
1.012312,-0.1425618,0.1569894
1.012452,-0.1448831,0.1582169
1.009412,-0.1459578,0.1566362
1.006135,-0.1409719,0.1561974
1.00593,-0.1382855,0.1573094
1.008914,-0.1419504,0.1526494
1.012433,-0.1463864,0.1503681
1.011749,-0.1435044,0.1510801
1.010944,-0.1416363,0.149744
1.013405,-0.1442833,0.1482152
1.012701,-0.1431154,0.1487282
1.011727,-0.1417292,0.1529175
1.012845,-0.1401399,0.1550297
1.010447,-0.1395878,0.1535093
1.008984,-0.1432402,0.1504332
1.009958,-0.1442446,0.1473559
1.009697,-0.1430396,0.1485567
1.009757,-0.1377358,0.1493578
1.010021,-0.1305678,0.1493983
1.011513,-0.13319,0.1522448
1.013142,-0.1371801,0.1536158
1.012542,-0.1372676,0.1541415
1.01154,-0.1408443,0.1568691
1.008862,-0.1442854,0.1589197
1.005197,-0.1461305,0.1548967
1.005637,-0.1447275,0.1481565
1.008165,-0.1397856,0.1461323
1.007807,-0.1383786,0.1471634
1.007998,-0.1375477,0.147356
1.009445,-0.1385119,0.1452004
1.009614,-0.1415514,0.1444247
1.011631,-0.1377521,0.1482106
1.011943,-0.1345681,0.1511726
1.011224,-0.1352702,0.1504856
1.014053,-0.136485,0.1503275
1.013235,-0.1414077,0.1528935
1.010765,-0.1434921,0.1530398
1.011374,-0.1427151,0.1503578
1.011859,-0.1417042,0.1497902
1.013063,-0.1378492,0.1503488
1.013003,-0.1369355,0.152804
1.011079,-0.1391968,0.1551584
1.009374,-0.1403408,0.1539355
1.009204,-0.1417446,0.1529808
1.011837,-0.144491,0.1527096
1.013972,-0.1434685,0.152633
1.015756,-0.1393811,0.1531393
1.015996,-0.1384172,0.1535528
1.013998,-0.1350782,0.1537638
1.013873,-0.1321103,0.150721
1.012243,-0.1323027,0.1476138
1.011453,-0.129518,0.1504997
1.012628,-0.1303377,0.1547038
1.010541,-0.1318091,0.1555246
1.01169,-0.1319731,0.1562539
1.013605,-0.1370636,0.1562827
1.011859,-0.1381681,0.1532781
1.012082,-0.1352536,0.153096
1.010053,-0.1339084,0.1583779
1.007143,-0.1330369,0.162821
1.008708,-0.1337099,0.1612936
1.010545,-0.1359824,0.1570195
1.011377,-0.1415475,0.1530892
1.011494,-0.1451809,0.1483655
1.011926,-0.1404436,0.1494041
1.013571,-0.1352686,0.1537072
1.013443,-0.1371952,0.1539282
1.012027,-0.1389531,0.1580528
1.012328,-0.1364296,0.1602025
1.012885,-0.136657,0.1525055
1.012078,-0.1337981,0.1462381
1.011596,-0.1283945,0.14655
1.010851,-0.1317264,0.1503389
1.009883,-0.1341107,0.1524541
1.010517,-0.1332653,0.1546143
1.013073,-0.1363927,0.1595833
1.015901,-0.1378633,0.1613171
1.013189,-0.1355519,0.1577396
1.009544,-0.1319972,0.1492993
1.013379,-0.1317998,0.1452095
1.01607,-0.1351075,0.1501454
1.014517,-0.136729,0.1536061
1.013315,-0.1362517,0.1538065
1.010189,-0.1347149,0.1498957
1.009144,-0.1345809,0.1460335
1.012307,-0.1349127,0.1507216
1.014844,-0.1346376,0.1543668
1.015662,-0.1363953,0.1508182
1.014185,-0.1389631,0.1484928
1.01242,-0.1411065,0.149592
1.012419,-0.140455,0.149702
1.012481,-0.1385911,0.1532711
1.012365,-0.139146,0.1592598
1.011441,-0.1376946,0.1573392
1.010048,-0.1333659,0.1547693
1.010151,-0.1292951,0.1544458
1.01053,-0.129712,0.1499292
1.009668,-0.1328975,0.1499544
1.009307,-0.1320061,0.1526396
1.010043,-0.1340678,0.1509346
1.009732,-0.139804,0.1517598
1.009827,-0.1415647,0.1541577
1.01179,-0.1411993,0.1545022
1.012903,-0.1382412,0.1540705
1.012845,-0.1355861,0.1521889
1.013155,-0.1349791,0.1492162
1.014165,-0.1360532,0.1464095
1.01403,-0.1405843,0.1484753
1.012185,-0.1409449,0.1522141
1.010658,-0.1393568,0.1523449
1.009361,-0.1397679,0.1554402
1.010294,-0.1372581,0.1562121
1.012015,-0.1362121,0.1504896
1.010808,-0.1363803,0.1471001
1.010719,-0.1371545,0.1448196
1.010285,-0.1408683,0.1445835
1.007297,-0.1423688,0.1485396
1.006816,-0.1412076,0.15179
1.008769,-0.138694,0.152181
1.0104,-0.1367395,0.1515865
1.009728,-0.1377715,0.1557209
1.008284,-0.1395734,0.1594812
1.008814,-0.1412691,0.1572868
1.009967,-0.1430606,0.1569622
1.011808,-0.144981,0.1575001
1.012264,-0.1449569,0.1564022
1.011358,-0.1437724,0.1570893
1.01223,-0.1447133,0.1571463
1.01253,-0.1444476,0.156825
1.012361,-0.1431588,0.1580207
1.011753,-0.1431172,0.1568234
1.010538,-0.1428222,0.1493769
1.011263,-0.1428213,0.1420176
1.01126,-0.1413702,0.145534
1.010487,-0.1396669,0.1516686
1.009929,-0.141901,0.1496985
1.009248,-0.1460087,0.148851
1.010569,-0.1488701,0.1483068
1.01017,-0.1481143,0.1444127
1.008841,-0.1454858,0.1466279
1.010206,-0.1448945,0.1490002
1.010013,-0.142567,0.1485134
1.010158,-0.1391475,0.1503404
1.01165,-0.1411821,0.1495546
1.010127,-0.1445964,0.1509057
1.009512,-0.1447582,0.1524813
1.011764,-0.145294,0.1476297
1.013025,-0.1460028,0.1465296
1.01265,-0.1449001,0.1487949
1.012149,-0.1441062,0.1496709
1.012656,-0.1443892,0.1514549
1.012622,-0.1444491,0.1511508
1.012234,-0.1434719,0.1494908
1.012549,-0.1428858,0.149133
1.011536,-0.1443494,0.152631
1.010566,-0.146952,0.1564602
1.010299,-0.1495767,0.1504641
1.009477,-0.1507677,0.1443627
1.009609,-0.1507846,0.1478887
1.010261,-0.1518523,0.1500474
1.01142,-0.1527342,0.1491883
1.01268,-0.1512403,0.1487644
1.010969,-0.1495752,0.1465233
1.009097,-0.1513769,0.1463668
1.011485,-0.1533911,0.1463
1.01322,-0.1518461,0.1446317
1.01029,-0.1496779,0.1504305
1.00816,-0.1464644,0.1569362
1.008965,-0.1440919,0.1542076
1.009528,-0.1445436,0.1529187
1.010157,-0.1420012,0.1554926
1.012175,-0.1415682,0.1557765
1.013324,-0.1453743,0.1569092
1.011806,-0.1459334,0.1560787
1.010477,-0.1484073,0.150985
1.009302,-0.1510318,0.1489924
1.007347,-0.1479391,0.1501042
1.007613,-0.1463564,0.1494976
1.010289,-0.1473754,0.1463563
1.013606,-0.1476317,0.1435899
1.013411,-0.1486451,0.1459517
1.012151,-0.1524147,0.1485738
1.014638,-0.1552175,0.1469007
1.012962,-0.152383,0.1480877
1.009472,-0.1502051,0.1539903
1.009952,-0.1513419,0.1582037
1.009352,-0.1497037,0.1559107
1.010012,-0.1469841,0.152338
1.010917,-0.1479701,0.1539379
1.011015,-0.1501573,0.1521272
1.012249,-0.1494871,0.1470909
1.010744,-0.1462897,0.1478537
1.009974,-0.1434056,0.1482774
1.010651,-0.1439899,0.1476063
1.010621,-0.1453087,0.1496157
1.012183,-0.1445405,0.1511199
1.012895,-0.1471437,0.1528816
1.012132,-0.150815,0.1521723
1.010553,-0.1501336,0.1478996
1.009236,-0.1496738,0.1452129
1.009823,-0.1502124,0.1468711
1.010786,-0.1499277,0.1508756
1.01138,-0.1500028,0.1521338
1.011091,-0.1500072,0.1544785
1.011005,-0.1500006,0.1565483
1.011422,-0.1500027,0.1541005
1.011887,-0.1499793,0.1541496
1.012856,-0.1500406,0.1527841
1.011862,-0.1499525,0.1511594
1.008689,-0.1500349,0.1523149
1.006397,-0.1498141,0.1490933
1.00859,-0.1490839,0.1502931
1.01287,-0.1483814,0.1530105
1.01272,-0.1481016,0.1498254
1.011195,-0.1468853,0.1489276
1.01112,-0.1442856,0.1469707
1.010868,-0.1438983,0.1473189
1.011319,-0.1445472,0.151362
1.011116,-0.142523,0.1520456
1.010734,-0.1409953,0.1558079
1.010474,-0.1416737,0.1580921
1.009453,-0.1419096,0.1545466
1.010887,-0.1415198,0.1528449
1.013495,-0.1419908,0.1506711
1.013723,-0.1437579,0.1475107
1.011331,-0.1457812,0.14721
1.008813,-0.1463333,0.148381
1.010588,-0.1454151,0.1505035
1.013006,-0.1448354,0.1537204
1.012174,-0.1444335,0.1534488
1.011573,-0.144128,0.1501529
1.010834,-0.1447001,0.1494618
1.009884,-0.1440919,0.1495399
1.009831,-0.1424378,0.1525082
1.009816,-0.1408564,0.1564135
1.011608,-0.1386052,0.1547833
1.013373,-0.137632,0.1547324
1.013511,-0.1399737,0.1548533
1.014862,-0.1439039,0.1549105
1.015624,-0.1451582,0.1584452
1.014079,-0.1464935,0.1568511
1.012584,-0.1492925,0.1543372
1.011926,-0.1452608,0.1490235
1.010763,-0.1407796,0.1401772
1.009399,-0.1429716,0.1448293
1.010361,-0.1433477,0.151125
1.011451,-0.1427951,0.1499272
1.009235,-0.1435192,0.1551201
1.007854,-0.143323,0.1582343
1.010224,-0.1434387,0.1563929
1.012115,-0.142684,0.1589377
1.011947,-0.1429613,0.1574589
1.012447,-0.1435197,0.1547947
1.012884,-0.1418615,0.1564899
1.011882,-0.1395129,0.1542073
1.010689,-0.1356496,0.1568651
1.009392,-0.1352345,0.1630613
1.009285,-0.1380998,0.1599493
1.009883,-0.137714,0.1585819
1.007601,-0.1391152,0.1596059
1.005279,-0.1412323,0.1576239
1.005452,-0.1398586,0.1573143
1.005932,-0.1390826,0.15322
1.007407,-0.1379044,0.148092
1.008848,-0.1366306,0.1495509
1.008124,-0.1355504,0.1513157
1.006268,-0.1324179,0.1503331
1.005617,-0.13146,0.1517576
1.008522,-0.1339837,0.1539542
1.012549,-0.1354635,0.1539534
1.013254,-0.1346602,0.1546044
1.012069,-0.1347819,0.1544521
1.012457,-0.1371469,0.1555356
1.012442,-0.1397352,0.1586437
1.01042,-0.1409639,0.1593995
1.009305,-0.1402229,0.1603039
1.00957,-0.1399385,0.15572
1.009956,-0.1400887,0.1482496
1.009715,-0.1374615,0.1502546
1.009871,-0.1357416,0.151334
1.011755,-0.138672,0.1489979
1.012568,-0.1415324,0.1522626
1.010686,-0.1403822,0.1538867
1.008061,-0.1397301,0.1531492
1.007835,-0.1417285,0.1545927
1.009041,-0.1415171,0.1543328
1.008989,-0.1394794,0.153798
1.009729,-0.1376818,0.1540982
1.009222,-0.136821,0.1520937
1.007544,-0.1378861,0.1499019
1.0087,-0.1377536,0.1496426
1.009636,-0.1376693,0.1501742
1.010717,-0.138127,0.1500939
1.012469,-0.1374138,0.1492528
1.011677,-0.1398895,0.1474807
1.01062,-0.1414867,0.1460624
1.010165,-0.1389994,0.1507689
1.009557,-0.1376093,0.1565859
1.009629,-0.1366239,0.154549
1.009809,-0.1397662,0.1537351
1.010103,-0.1453182,0.1568348
1.011066,-0.1425793,0.1551464
1.011139,-0.1381081,0.1537874
1.008517,-0.1378878,0.1565615
1.007343,-0.1385759,0.1588291
1.008952,-0.1412219,0.1585646
1.008887,-0.1406066,0.1549863
1.010775,-0.1386133,0.1534424
1.014667,-0.1410653,0.1555691
1.014239,-0.1410768,0.1571947
1.012804,-0.1394131,0.159996
1.011532,-0.1376911,0.161008
1.009219,-0.1349174,0.1566917
1.011065,-0.1353621,0.1523786
1.013464,-0.1370396,0.1529381
1.010525,-0.1421445,0.1555356
1.008654,-0.1477104,0.1580689
1.010098,-0.1435499,0.1629843
1.009864,-0.1390725,0.1626262
1.009424,-0.1399438,0.1565763
1.010124,-0.136299,0.1542913
1.010719,-0.1334958,0.1536503
1.012056,-0.139076,0.1538756
1.011905,-0.1425737,0.1531656
1.009752,-0.1408087,0.1549725
1.009291,-0.1409663,0.1616991
1.010314,-0.1429559,0.1612831
1.011516,-0.1445506,0.157981
1.012926,-0.1445298,0.1552275
1.012109,-0.14359,0.1526379
1.008472,-0.1409027,0.1564952
1.006564,-0.1366914,0.1565466
1.009519,-0.1369095,0.1557177
1.013369,-0.1391706,0.1607529
1.013267,-0.142288,0.1619972
1.013548,-0.1493503,0.1618659
1.015923,-0.1515153,0.1614346
1.013533,-0.1473579,0.1561416
1.010307,-0.1457633,0.1501712
1.011064,-0.1438833,0.1510729
1.010341,-0.1396002,0.1564172
1.009248,-0.1395014,0.1611909
1.009813,-0.1412957,0.1676524
1.01014,-0.1410484,0.1634743
1.011477,-0.142631,0.1536159
1.01248,-0.1436551,0.1580321
1.010076,-0.1415751,0.157797
1.007992,-0.1404778,0.149959
1.012625,-0.140696,0.1501977
1.01726,-0.1427757,0.1503134
1.014125,-0.1453525,0.1544353
1.011609,-0.1437251,0.1588209
1.012054,-0.1419399,0.1541471
1.01087,-0.1423531,0.1516169
1.011756,-0.1408235,0.1505346
1.013084,-0.1404541,0.1484974
1.011369,-0.1430158,0.1469699
1.010862,-0.1453788,0.1477534
1.012178,-0.1485852,0.1542473
1.012413,-0.1515615,0.1548686
1.010428,-0.1520627,0.1487918
1.007199,-0.1490221,0.1498937
1.006285,-0.1440043,0.1585437
1.007376,-0.1449081,0.1634685
1.008086,-0.146607,0.1609476
1.009881,-0.1431041,0.1568137
1.012875,-0.1446466,0.1500939
1.014597,-0.1476436,0.1454981
1.01389,-0.1484506,0.148435
1.012191,-0.1509768,0.1521109
1.010132,-0.1473987,0.1550218
1.006124,-0.1417805,0.1563997
1.002689,-0.1383096,0.1618605
1.002446,-0.1342357,0.1759101
1.004655,-0.1340531,0.1808468
1.011772,-0.1314196,0.173803
1.016856,-0.1248886,0.1725552
1.021848,-0.1638644,0.06945717
1.025287,-0.1645142,0.07047916
1.028801,-0.1645305,0.06693401
1.025565,-0.1655668,0.066556
1.019034,-0.1642375,0.0653072
1.017122,-0.1640283,0.06684731
1.019196,-0.1656987,0.07368488
1.020934,-0.1699191,0.0754436
1.019979,-0.1769372,0.07806502
1.015274,-0.1842537,0.07916726
1.010954,-0.1851692,0.07439999
1.011889,-0.1814302,0.07105613
1.01399,-0.1824557,0.07175418
1.013808,-0.1806915,0.075294
1.015661,-0.177326,0.07503476
1.017097,-0.1799927,0.07541415
1.015972,-0.1793415,0.0792282
1.016547,-0.1784539,0.08124295
1.014178,-0.1802871,0.08325365
1.011407,-0.1801095,0.08164297
1.014804,-0.1806173,0.07632102
1.017185,-0.1781828,0.07102301
1.017628,-0.176467,0.0731964
1.018514,-0.1785009,0.07961681
1.0187,-0.1762077,0.07637395
1.01904,-0.1730329,0.07863824
1.018361,-0.1716786,0.08430002
1.016943,-0.1711642,0.07629476
1.013013,-0.1726401,0.06945381
1.009927,-0.1720348,0.06667565
1.013912,-0.1704567,0.06550867
1.016836,-0.1707604,0.06720931
1.014898,-0.1719028,0.06950236
1.014892,-0.1720965,0.0762241
1.015951,-0.1690052,0.07739357
1.015759,-0.1654259,0.07656139
1.015973,-0.1647438,0.08085912
1.015349,-0.1663782,0.08042608
1.014917,-0.1677576,0.08152817
1.01658,-0.1692195,0.0801886
1.016747,-0.17275,0.07349039
1.015581,-0.1738632,0.0740306
1.01517,-0.172608,0.07375193
1.015038,-0.1713354,0.07133635
1.015537,-0.1685359,0.07048105
1.015235,-0.1687353,0.06843969
1.01509,-0.1696862,0.07124868
1.01556,-0.1677467,0.07125205
1.01524,-0.1677922,0.06577811
1.016225,-0.1665086,0.0641121
1.017048,-0.1638693,0.06510464
1.016575,-0.1646421,0.07034433
1.016828,-0.1663062,0.07517077
1.017379,-0.1687744,0.0748369
1.017467,-0.1690046,0.07631867
1.016488,-0.1678221,0.0769218
1.017024,-0.1704643,0.07401994
1.020641,-0.1704809,0.07214122
1.023153,-0.1693032,0.06947814
1.022556,-0.1693875,0.06576011
1.021606,-0.1646782,0.06532151
1.022439,-0.1602485,0.06610476
1.022473,-0.1594499,0.06649804
1.02143,-0.1622233,0.06880241
1.020386,-0.1654766,0.06852176
1.01655,-0.1637361,0.06714848
1.013008,-0.164285,0.06868861
1.012735,-0.1660682,0.06726554
1.01518,-0.1639913,0.06410417
1.019688,-0.1635843,0.06320066
1.020249,-0.1638059,0.06790132
1.018735,-0.1629931,0.0751107
1.019403,-0.162461,0.07216246
1.017868,-0.1631466,0.06743042
1.01679,-0.1645327,0.06767916
1.018556,-0.163613,0.06484119
1.019279,-0.1625597,0.06524661
1.019022,-0.1616627,0.06837197
1.017823,-0.1599768,0.07087248
1.016255,-0.1585891,0.07511857
1.017255,-0.1559474,0.07369124
1.018861,-0.1545604,0.07053766
1.017918,-0.1544479,0.06983673
1.017701,-0.1535797,0.06750654
1.018511,-0.1544099,0.06869208
1.017788,-0.154414,0.07129201
1.017685,-0.1536796,0.071023
1.016671,-0.1545581,0.07162013
1.015341,-0.1544244,0.07257692
1.017111,-0.1557641,0.0723045
1.018207,-0.1572869,0.0711027
1.018715,-0.1541842,0.06842023
1.019844,-0.1516737,0.06663541
1.018189,-0.1537935,0.06957089
1.015678,-0.1586521,0.07079903
1.01511,-0.1618935,0.06731137
1.016408,-0.1582857,0.0678842
1.01896,-0.1514407,0.06927429
1.020378,-0.1493981,0.07049719
1.021126,-0.1502805,0.07637973
1.022455,-0.1505472,0.07930151
1.02167,-0.153615,0.08183145
1.01993,-0.1565842,0.08445052
1.02001,-0.1548597,0.07522359
1.019498,-0.1532969,0.06543859
1.018991,-0.154517,0.06891328
1.01998,-0.1554077,0.07117269
1.020304,-0.1554194,0.06528895
1.01981,-0.156174,0.06472423
1.01587,-0.1578219,0.06787211
1.010832,-0.1613426,0.06801388
1.014817,-0.1631459,0.06873378
1.022622,-0.1582463,0.068617
1.023638,-0.1536562,0.07058936
1.019199,-0.1537786,0.07553061
1.013982,-0.1547487,0.07818091
1.014635,-0.1560508,0.07674686
1.017531,-0.1576226,0.07153777
1.016156,-0.1590793,0.07152517
1.017036,-0.1598992,0.07280117
1.018928,-0.1601298,0.0684069
1.019319,-0.1605023,0.06696121
1.020166,-0.1612135,0.06696209
1.018903,-0.1609804,0.06768955
1.019393,-0.157674,0.06839769
1.019992,-0.1542265,0.06621694
1.019127,-0.1526815,0.06546093
1.021673,-0.1532194,0.06557969
1.022729,-0.1566621,0.07084688
1.021941,-0.1590547,0.07534313
1.02139,-0.1576864,0.07055981
1.01964,-0.1551263,0.06849234
1.017424,-0.1554995,0.07176058
1.014237,-0.1578353,0.07492764
1.014684,-0.161226,0.07556056
1.016864,-0.1655647,0.07457163
1.017515,-0.1637961,0.07526409
1.021136,-0.1599225,0.0736432
1.021858,-0.1598575,0.06867662
1.019646,-0.1592181,0.06396395
1.020339,-0.1600946,0.06616438
1.019546,-0.1609511,0.07160618
1.01975,-0.1611203,0.07084692
1.021215,-0.1626348,0.07212637
1.017782,-0.1599448,0.07309955
1.014639,-0.1574815,0.06920635
1.015668,-0.1599542,0.0692196
1.018163,-0.1619051,0.06864352
1.020596,-0.1631907,0.06744303
1.021092,-0.1667906,0.06848597
1.020628,-0.1686055,0.0679596
1.020141,-0.1657771,0.0688632
1.019603,-0.1652759,0.06911943
1.01969,-0.1657216,0.06831988
1.019392,-0.1629131,0.06813197
1.020246,-0.1604096,0.06437399
1.02126,-0.1581891,0.06324982
1.019729,-0.1620776,0.07305871
1.018715,-0.1673747,0.08265508
1.017787,-0.1623531,0.07732624
1.016101,-0.1595802,0.07137352
1.016308,-0.1636884,0.07514837
1.016132,-0.1645424,0.07184468
1.015369,-0.1636924,0.0668733
1.017977,-0.1634218,0.0687669
1.021506,-0.1620472,0.06771602
1.021053,-0.159679,0.06822126
1.019369,-0.1591142,0.07116551
1.0193,-0.1601779,0.07353993
1.018467,-0.1596379,0.07422167
1.01777,-0.1600655,0.06791439
1.018272,-0.1626777,0.06578838
1.018964,-0.1645056,0.06804092
1.019746,-0.1628419,0.06513668
1.019322,-0.1560066,0.06648149
1.018357,-0.1498804,0.06886394
1.018828,-0.151753,0.06673367
1.022362,-0.1587915,0.06576666
1.025834,-0.1627019,0.06343026
1.021739,-0.1608557,0.06462043
1.016322,-0.157667,0.07031886
1.01802,-0.156616,0.0719513
1.018873,-0.1588072,0.07303314
1.017301,-0.1641971,0.07340841
1.018707,-0.1670754,0.0717257
1.020003,-0.160437,0.07272944
1.020273,-0.1512912,0.07224358
1.017842,-0.1490308,0.06886033
1.013593,-0.1482802,0.06744359
1.015364,-0.1511894,0.06850498
1.018363,-0.1581244,0.07118901
1.018608,-0.1552564,0.07399092
1.019788,-0.1527484,0.07485327
1.017697,-0.1601011,0.07382139
1.016275,-0.1614744,0.07255414
1.020646,-0.1558064,0.07187542
1.02268,-0.1501508,0.07180826
1.018825,-0.1491492,0.0701769
1.015873,-0.1548161,0.06599365
1.020959,-0.1572587,0.0644583
1.02533,-0.1563271,0.06658533
1.01952,-0.1566248,0.0682224
1.015398,-0.1588495,0.06945611
1.017963,-0.1628176,0.07217764
1.019511,-0.1625773,0.07642005
1.0199,-0.1607559,0.0785563
1.021214,-0.1587207,0.07607508
1.022554,-0.1565067,0.07353479
1.021407,-0.1589559,0.07335671
1.019213,-0.1598175,0.07213934
1.019306,-0.1592168,0.0720445
1.019596,-0.1604773,0.0755234
1.019693,-0.1603318,0.07694581
1.021297,-0.1613068,0.07490216
1.022387,-0.1609768,0.07175433
1.020636,-0.157729,0.06881215
1.01852,-0.1557136,0.06848533
1.019215,-0.1556775,0.06952445
1.019081,-0.1568181,0.07228477
1.017336,-0.1564275,0.07570342
1.018237,-0.1574029,0.07527807
1.019345,-0.1623547,0.07452255
1.019133,-0.1657495,0.07600981
1.018852,-0.1653879,0.07852481
1.017621,-0.1618053,0.08047078
1.018036,-0.1581472,0.07575867
1.018877,-0.1571065,0.06966987
1.017216,-0.1566363,0.07199948
1.016796,-0.1577472,0.07385829
1.017741,-0.1608486,0.07197888
1.018115,-0.1649189,0.07586312
1.020331,-0.1684216,0.0832149
1.022931,-0.1696814,0.08922396
1.021657,-0.168965,0.0876235
1.018892,-0.1636875,0.07731309
1.01694,-0.1592485,0.07280962
1.015559,-0.1610934,0.07394378
1.016204,-0.1616201,0.07552741
1.015317,-0.1594188,0.07889093
1.014994,-0.1576749,0.07752901
1.018967,-0.1566626,0.07440842
1.021021,-0.1584124,0.07382705
1.022035,-0.1624574,0.0757593
1.022074,-0.1649946,0.07925405
1.019132,-0.1641721,0.07676196
1.017582,-0.1642248,0.07158599
1.017585,-0.1652081,0.06895105
1.018205,-0.1616151,0.0702378
1.016297,-0.1573341,0.07394053
1.014207,-0.158117,0.07087581
1.016065,-0.1606208,0.06498721
1.017097,-0.1632094,0.06169338
1.018526,-0.1664131,0.06241953
1.019487,-0.1665137,0.07012397
1.018998,-0.1678155,0.07394302
1.019435,-0.1721709,0.07189178
1.016386,-0.1693822,0.07108431
1.013182,-0.1652543,0.07068184
1.012836,-0.1666249,0.07209742
1.013045,-0.164329,0.07376003
1.016259,-0.1620751,0.07554208
1.020055,-0.1643555,0.07631264
1.020137,-0.163779,0.07168182
1.018759,-0.1603596,0.06869535
1.019552,-0.1571179,0.07357462
1.019839,-0.1549275,0.08139803
1.018915,-0.1540845,0.08215357
1.019594,-0.1542955,0.07468702
1.018387,-0.1570492,0.06891203
1.016597,-0.1605776,0.07011687
1.017211,-0.1645688,0.0741772
1.019152,-0.1699212,0.07373595
1.021668,-0.1689553,0.07286251
1.020239,-0.1603611,0.0738622
1.018192,-0.1542983,0.07277717
1.018671,-0.1535945,0.07340655
1.016449,-0.1534472,0.06982224
1.016236,-0.1532543,0.06391171
1.019819,-0.1568415,0.06623342
1.02008,-0.16106,0.0689534
1.01888,-0.1620991,0.06840044
1.019768,-0.1629386,0.06794591
1.020699,-0.1613735,0.07030268
1.021729,-0.1587147,0.07461629
1.022771,-0.1562873,0.07488384
1.022123,-0.1518236,0.07196797
1.021985,-0.1530878,0.06692515
1.022536,-0.1582119,0.06450537
1.022028,-0.1604003,0.06612979
1.022232,-0.1606489,0.06729807
1.022356,-0.1597375,0.07079104
1.021325,-0.1615549,0.070437
1.018792,-0.1617638,0.06497021
1.015704,-0.1600982,0.06437921
1.017265,-0.1619715,0.06583892
1.02016,-0.1617612,0.06529585
1.019121,-0.1616123,0.06534248
1.018362,-0.1622999,0.06746108
1.018125,-0.1610524,0.06933531
1.018001,-0.16145,0.06899779
1.020186,-0.1608743,0.06881308
1.0208,-0.1607343,0.07051045
1.018141,-0.1607593,0.07267317
1.016108,-0.1590719,0.0731517
1.018285,-0.1609646,0.07370549
1.021459,-0.1625872,0.07363916
1.020189,-0.1620383,0.07206113
1.019271,-0.160667,0.07374379
1.019677,-0.1570798,0.07592854
1.017183,-0.1555906,0.07555744
1.015777,-0.1536909,0.07692648
1.015386,-0.1502391,0.07878918
1.015281,-0.1509569,0.07607269
1.018493,-0.1521941,0.06878086
1.021197,-0.1513814,0.06169872
1.020943,-0.1531759,0.06073527
1.019744,-0.1560201,0.06570394
1.019113,-0.1557358,0.07145249
1.019521,-0.1554512,0.07786355
1.019519,-0.156665,0.07776213
1.018985,-0.1576305,0.0720591
1.017552,-0.1597662,0.07568215
1.015018,-0.1610475,0.07535401
1.013896,-0.157689,0.06747803
1.014304,-0.1531031,0.06711319
1.015898,-0.1535591,0.06843555
1.019052,-0.1551691,0.07218905
1.020449,-0.1534131,0.07285888
1.019837,-0.1528568,0.07038142
1.020089,-0.1512011,0.07389753
1.019558,-0.1495092,0.07229061
1.018918,-0.1539078,0.07406523
1.019994,-0.1569403,0.07783845
1.020167,-0.1556738,0.07085451
1.020107,-0.1559977,0.06811853
1.020324,-0.1571113,0.06979644
1.019706,-0.1553858,0.07135236
1.019578,-0.1531108,0.07206446
1.019233,-0.1544545,0.07008076
1.019563,-0.1560571,0.07195255
1.020653,-0.157979,0.07535965
1.020944,-0.160948,0.07854373
1.021987,-0.1594692,0.07655038
1.022389,-0.1572168,0.07118823
1.021799,-0.1561204,0.072335
1.020565,-0.151702,0.07319366
1.018708,-0.1471147,0.07531596
1.01937,-0.1467709,0.07887344
1.019512,-0.1507534,0.07511193
1.01729,-0.1542306,0.07212038
1.016275,-0.1542857,0.07380905
1.016486,-0.1533018,0.07375478
1.016779,-0.1519651,0.07138169
1.015523,-0.1509549,0.07050841
1.013938,-0.1497931,0.07198564
1.014315,-0.1494375,0.07325005
1.01665,-0.1509434,0.07258101
1.019731,-0.1519874,0.06911235
1.018581,-0.1548285,0.06702799
1.01447,-0.1564241,0.06871475
1.013961,-0.1531966,0.07049278
1.017425,-0.1526694,0.07013457
1.020798,-0.1556773,0.06721205
1.019778,-0.1577375,0.06543743
1.018469,-0.1567838,0.06717835
1.019561,-0.1528133,0.07290765
1.016759,-0.1491413,0.07992385
1.014364,-0.1473738,0.07692195
1.017459,-0.1484853,0.07019471
1.019796,-0.1479007,0.07173752
1.019802,-0.1458004,0.07081363
1.020155,-0.1483399,0.06767953
1.021117,-0.1493131,0.06775225
1.020363,-0.1506594,0.06643663
1.016877,-0.1565121,0.07022859
1.014936,-0.1582243,0.07517337
1.017572,-0.1545345,0.07596138
1.020523,-0.1494538,0.07609335
1.017813,-0.1503885,0.06891863
1.015534,-0.1520763,0.06522161
1.019028,-0.1465866,0.07142768
1.020045,-0.1478897,0.07355486
1.018193,-0.1544339,0.07613069
1.018588,-0.1578793,0.07876108
1.021488,-0.1580216,0.07490198
1.024767,-0.1526196,0.07096794
1.021261,-0.1495537,0.06753436
1.012062,-0.1465729,0.07054879
1.006352,-0.1456199,0.0777515
1.009337,-0.1497453,0.07717779
1.017368,-0.1493544,0.0804002
1.020951,-0.1534889,0.08645627
1.021223,-0.1564012,0.08297681
1.020306,-0.1525433,0.07896942
1.016646,-0.1558964,0.0765866
1.01505,-0.1571288,0.07485304
1.01659,-0.1557894,0.07518602
1.019027,-0.1552034,0.07497055
1.018634,-0.1511866,0.07708175
1.0179,-0.1529021,0.07746033
1.020523,-0.1549308,0.07317273
1.019261,-0.1553012,0.07043286
1.017467,-0.1577669,0.07511886
1.016879,-0.1550875,0.08307179
1.014039,-0.153613,0.0818165
1.015909,-0.1572209,0.07641451
1.018594,-0.1583428,0.07440436
1.019484,-0.1536693,0.07414718
1.019758,-0.1476679,0.07560078
1.015996,-0.1480679,0.07286026
1.015125,-0.1503851,0.06998474
1.018104,-0.1496635,0.07054444
1.01984,-0.1488132,0.07078227
1.018199,-0.1469899,0.07648897
1.015037,-0.1471363,0.08059262
1.016012,-0.1529095,0.07549854
1.015643,-0.161301,0.07233151
1.015036,-0.1666358,0.07633514
1.019627,-0.1600366,0.0785982
1.021536,-0.1462334,0.07287571
1.019339,-0.1426986,0.06895148
1.015325,-0.1493489,0.07142976
1.013321,-0.156228,0.0736613
1.017639,-0.1592824,0.07644347
1.020867,-0.1593047,0.07811532
1.019557,-0.1634321,0.07430771
1.018752,-0.1684457,0.07054945
1.01983,-0.1650974,0.07181032
1.019617,-0.1569172,0.07116163
1.018593,-0.1477757,0.06722645
1.018099,-0.1420575,0.06742421
1.015988,-0.1471254,0.06777127
1.016424,-0.1560527,0.06939959
1.018557,-0.1598688,0.07718684
1.018633,-0.1614869,0.07824282
1.01994,-0.1611943,0.06871814
1.019623,-0.1606192,0.06302726
1.01943,-0.1608193,0.06675528
1.022646,-0.1563035,0.06994103
1.023823,-0.1537734,0.06802088
1.021903,-0.1594496,0.07015594
1.019041,-0.1646189,0.07394721
1.018769,-0.1630174,0.07197538
1.018856,-0.1608018,0.07213226
1.01558,-0.1625548,0.0756334
1.01538,-0.1609951,0.07679872
1.019103,-0.1595436,0.07529419
1.021861,-0.1596594,0.06886587
1.021329,-0.1552791,0.0639828
1.01972,-0.1556042,0.06923761
1.020063,-0.1571461,0.07483206
1.017577,-0.1569703,0.07092519
1.0156,-0.1614032,0.06463774
1.019027,-0.1610407,0.06249574
1.022833,-0.1595829,0.06502485
1.025411,-0.1596022,0.07007529
1.022145,-0.1564122,0.06862297
1.017492,-0.1609734,0.06626987
1.021467,-0.1664475,0.06928335
1.023204,-0.1625977,0.06654917
1.018714,-0.1579287,0.06383153
1.017315,-0.1522937,0.06442725
1.018049,-0.1467501,0.06400573
1.018316,-0.1475939,0.06987895
1.017973,-0.1527357,0.07341533
1.018597,-0.1618262,0.06948598
1.021901,-0.169234,0.06705119
1.024337,-0.1638023,0.06896117
1.022795,-0.1491413,0.07252942
1.019303,-0.1381856,0.07218833
1.018276,-0.1425787,0.0715965
1.019001,-0.1547075,0.06976857
1.019405,-0.156165,0.06571994
1.01986,-0.1558616,0.06785879
1.019164,-0.1587903,0.07325906
1.019349,-0.1590563,0.07776849
1.019823,-0.1639401,0.07655855
1.019036,-0.1638184,0.07300461
1.019305,-0.1547034,0.07578664
1.018071,-0.1478089,0.07546189
1.017642,-0.1460016,0.07307017
1.020103,-0.1534871,0.07144254
1.019836,-0.1606123,0.06666252
1.018709,-0.1616495,0.06914034
1.018428,-0.1621506,0.07292173
1.016095,-0.161904,0.06963731
1.015302,-0.1641187,0.06841315
1.019871,-0.1602504,0.06681035
1.023388,-0.1523186,0.0662209
1.019699,-0.152181,0.07191131
1.016013,-0.1517517,0.07446325
1.017062,-0.1502737,0.07338766
1.017858,-0.1494626,0.07481007
1.018658,-0.147847,0.07621504
1.019501,-0.1485417,0.07644724
1.018237,-0.1529986,0.07519814
1.018832,-0.1601955,0.07271651
1.01999,-0.1589661,0.07086737
1.018254,-0.1536907,0.06769997
1.015091,-0.1545488,0.0655704
1.012087,-0.1541806,0.07179146
1.016216,-0.1559672,0.07933639
1.022144,-0.1590483,0.07603022
1.019214,-0.1573271,0.07288124
1.0183,-0.1549326,0.07722224
1.020622,-0.1516907,0.07623917
1.018918,-0.1521166,0.07263005
1.019295,-0.1539996,0.07139447
1.019948,-0.1525213,0.06992267
1.018773,-0.1556877,0.07222145
1.018629,-0.1589638,0.07318184
1.016736,-0.1572232,0.07241851
1.015359,-0.1557107,0.07252958
1.016257,-0.1558671,0.07147182
1.017292,-0.159285,0.07709875
1.019566,-0.1617858,0.08012627
1.021489,-0.1582431,0.07336511
1.020737,-0.1528623,0.07002057
1.018107,-0.1489305,0.06753575
1.015452,-0.1455338,0.06691683
1.015224,-0.1458563,0.07135241
1.01653,-0.1527607,0.07361537
1.016643,-0.1593358,0.07736221
1.017599,-0.1601471,0.0772098
1.01921,-0.1558714,0.07222518
1.017437,-0.1517245,0.07374716
1.016453,-0.1534049,0.07376447
1.016621,-0.1541431,0.07089865
1.015301,-0.1520443,0.06971067
1.018153,-0.1527735,0.06767905
1.01995,-0.152698,0.07090951
1.018923,-0.1505899,0.07577843
1.020973,-0.1482919,0.07714209
1.020898,-0.1463281,0.07818226
1.02029,-0.147922,0.07711172
1.019434,-0.1580975,0.07403911
1.017027,-0.1721697,0.07122101
1.018387,-0.1719602,0.0712366
1.019279,-0.159873,0.07041092
1.019296,-0.1537759,0.0667352
1.01987,-0.1532432,0.06769099
1.019067,-0.1553272,0.06995012
1.019586,-0.1592103,0.07180698
1.019723,-0.1616631,0.07611328
1.0201,-0.1626253,0.07356134
1.02082,-0.1628926,0.06748783
1.018093,-0.165866,0.06748957
1.015509,-0.1651904,0.06688552
1.015614,-0.1593411,0.06618057
1.015552,-0.1568133,0.06876562
1.015407,-0.1534345,0.06895622
1.018236,-0.1547285,0.07014121
1.021396,-0.1590087,0.07337291
1.020892,-0.15426,0.07252896
1.019653,-0.1531099,0.07180576
1.01928,-0.1551162,0.07446365
1.019176,-0.1529715,0.07524763
1.018731,-0.1518363,0.07217432
1.017661,-0.1498633,0.06714111
1.018141,-0.1535391,0.06502598
1.019405,-0.1607265,0.07137657
1.020584,-0.1620193,0.07759105
1.022154,-0.1616264,0.07422248
1.022464,-0.157426,0.07248482
1.021585,-0.1519488,0.0772592
1.019371,-0.15288,0.0779163
1.016535,-0.1537181,0.07284285
1.016787,-0.1521345,0.06577992
1.018304,-0.1539382,0.06236594
1.017654,-0.1558421,0.06750334
1.017311,-0.1549491,0.07345693
1.017962,-0.1538293,0.0750754
1.019278,-0.1511442,0.075407
1.019909,-0.1493967,0.07458346
1.016263,-0.1486364,0.07400573
1.014994,-0.1467973,0.07310987
1.020225,-0.150872,0.07052726
1.023029,-0.1585794,0.06932823
1.019905,-0.1628333,0.07121972
1.016617,-0.1631878,0.07495416
1.019244,-0.1598641,0.07488322
1.022542,-0.1555224,0.06996439
1.02135,-0.1516405,0.06742929
1.019896,-0.1530542,0.07028943
1.017795,-0.1577277,0.07365579
1.019957,-0.156892,0.07141116
1.024117,-0.1567865,0.06953142
1.02088,-0.1584437,0.07203871
1.019899,-0.1572806,0.07232984
1.021668,-0.1552076,0.07282808
1.020197,-0.1520685,0.07278738
1.019507,-0.1556501,0.07120707
1.016628,-0.1635902,0.07282005
1.014638,-0.162709,0.07215483
1.018102,-0.1540329,0.07072482
1.020594,-0.1452733,0.07213513
1.019501,-0.1465957,0.07530849
1.018835,-0.1514352,0.08205254
1.020076,-0.1516854,0.08207119
1.020502,-0.1567938,0.07252754
1.021671,-0.1559438,0.06437834
1.022834,-0.1496356,0.06382812
1.020608,-0.1525507,0.07003703
1.018685,-0.1532947,0.07202136
1.018095,-0.1537859,0.07384556
1.019663,-0.1547168,0.0799134
1.022803,-0.1483533,0.07434153
1.021898,-0.1465037,0.06505768
1.019143,-0.1484347,0.06284557
1.017738,-0.1510311,0.06179482
1.018464,-0.1543161,0.0645055
1.020713,-0.1539764,0.06558012
1.02076,-0.1542228,0.06644398
1.020342,-0.1525893,0.07142231
1.01879,-0.1526296,0.07221814
1.016812,-0.156984,0.0736678
1.018754,-0.1572707,0.07417274
1.019279,-0.1557875,0.07258281
1.019155,-0.1538794,0.07460658
1.020906,-0.1520276,0.07265187
1.019947,-0.1511891,0.070584
1.019552,-0.150514,0.06934406
1.018585,-0.1500505,0.06671651
1.015716,-0.1469228,0.06634308
1.016426,-0.1468617,0.06280373
1.017924,-0.1500167,0.06494317
1.019943,-0.1511029,0.07163901
1.023484,-0.1530489,0.07236242
1.023678,-0.1538512,0.07299168
1.022428,-0.1532897,0.07170741
1.020893,-0.1501214,0.07099205
1.015992,-0.1453618,0.06872352
1.014233,-0.146943,0.06399266
1.018899,-0.1494139,0.07060447
1.021287,-0.1517535,0.0764494
1.020842,-0.1573497,0.0729103
1.020724,-0.1565336,0.07204504
1.019724,-0.1538416,0.07258118
1.019378,-0.1561212,0.07200502
1.019651,-0.1536141,0.07269203
1.021283,-0.1495885,0.07510426
1.022939,-0.1500837,0.0760166
1.022139,-0.1498221,0.07127628
1.022048,-0.1500421,0.06637799
1.021836,-0.1498742,0.07033108
1.019122,-0.1478072,0.07824883
1.015482,-0.1479333,0.07990941
1.015074,-0.1520431,0.07730752
1.019514,-0.1593986,0.0719296
1.022867,-0.1598438,0.06731308
1.022601,-0.1506464,0.06862845
1.021642,-0.1452675,0.06851361
1.020642,-0.1489491,0.06786318
1.017257,-0.1546205,0.07116852
1.013772,-0.1546246,0.07352846
1.015198,-0.1535596,0.0750532
1.01645,-0.1551098,0.07624108
1.016378,-0.1557492,0.0742227
1.018266,-0.1591252,0.07111118
1.015806,-0.1627164,0.07330072
1.013167,-0.1634482,0.07760909
1.018547,-0.1606629,0.07721983
1.022076,-0.1533403,0.07440897
1.017183,-0.151623,0.07107278
1.013758,-0.1533591,0.07220943
1.017253,-0.1519161,0.07889701
1.01883,-0.1507216,0.08702112
1.014842,-0.1499817,0.09364683
1.01308,-0.1548915,0.08726076
1.015439,-0.160781,0.07902692
1.01867,-0.1595724,0.08349288
1.021086,-0.1576492,0.08249026
1.02118,-0.1568587,0.07777077
1.020572,-0.1590122,0.07732123
1.021213,-0.1634785,0.07273733
1.02273,-0.1636216,0.0700948
1.022988,-0.1590892,0.06853777
1.018299,-0.1535121,0.06906333
1.012396,-0.1539224,0.07468807
1.013272,-0.1587215,0.07320057
1.016238,-0.1596933,0.07132531
1.015809,-0.1564358,0.0698944
1.016667,-0.1526463,0.06357447
1.016334,-0.1537679,0.06973801
1.014629,-0.1553613,0.07958356
1.017551,-0.1533029,0.07940701
1.019766,-0.1546164,0.08019374
1.019596,-0.1573597,0.08043452
1.020301,-0.161264,0.08084172
1.019994,-0.1647022,0.08187516
1.019061,-0.1573009,0.07475505
1.017378,-0.1493851,0.0678623
1.016596,-0.1512819,0.06959152
1.018429,-0.1533107,0.07330804
1.019877,-0.1534417,0.07368671
1.01884,-0.1545442,0.07563909
1.017583,-0.1543372,0.08163217
1.020002,-0.154702,0.08338421
1.02158,-0.1588453,0.0791814
1.019441,-0.1621585,0.07453889
1.01823,-0.1591142,0.07380223
1.017819,-0.1542889,0.07172257
1.01821,-0.1537168,0.06492376
1.019155,-0.155318,0.06689681
1.019124,-0.1559989,0.07110092
1.017741,-0.1568542,0.06870624
1.015171,-0.1588548,0.07155913
1.01588,-0.1597034,0.07319464
1.018508,-0.1559026,0.07157325
1.01907,-0.1506317,0.07194859
1.019626,-0.1498803,0.0683562
1.019586,-0.1506749,0.06584008
1.018667,-0.1521558,0.06819406
1.016927,-0.1570613,0.07325397
1.014966,-0.159332,0.07559978
1.017571,-0.1563826,0.07037522
1.020803,-0.1545632,0.06631334
1.018495,-0.1555517,0.0687007
1.017057,-0.1550176,0.07349382
1.018623,-0.1534932,0.07512465
1.018045,-0.1540485,0.07064026
1.017918,-0.1533974,0.06266058
1.019488,-0.1512766,0.05944693
1.020394,-0.1510072,0.0653073
1.021229,-0.1507897,0.07107727
1.020335,-0.1509461,0.07308368
1.018209,-0.1533587,0.07273608
1.017939,-0.1549931,0.07127506
1.019525,-0.1542882,0.07291865
1.020241,-0.1546838,0.07327456
1.018883,-0.1561793,0.07327845
1.019165,-0.1553882,0.07437156
1.019105,-0.154308,0.07301637
1.017218,-0.1542419,0.07371738
1.018374,-0.1539071,0.07395631
1.019305,-0.1543166,0.07413755
1.019212,-0.154244,0.07943229
1.019934,-0.1539382,0.08284596
1.018567,-0.1543946,0.07981576
1.016761,-0.154057,0.07599687
1.014753,-0.1541252,0.07667027
1.015103,-0.1543143,0.07353023
1.018873,-0.1539963,0.06672825
1.019868,-0.1542835,0.06920129
1.019528,-0.1546775,0.07138648
1.018864,-0.1567849,0.06988136
1.01653,-0.1592597,0.07446489
1.014836,-0.1587288,0.07904063
1.015229,-0.158662,0.08237859
1.018933,-0.1597674,0.08119071
1.021996,-0.1568663,0.07410496
1.022254,-0.1524665,0.07348943
1.020475,-0.1522551,0.07404336
1.017678,-0.1540534,0.07180878
1.018783,-0.1573092,0.07264505
1.02011,-0.1619415,0.07125223
1.019328,-0.1616341,0.06882762
1.020423,-0.1583361,0.06773448
1.02109,-0.1570552,0.06822478
1.020379,-0.1528656,0.07046431
1.017855,-0.147191,0.07110815
1.014908,-0.1469735,0.07546513
1.015073,-0.1488382,0.07796111
1.016448,-0.1520926,0.07405945
1.016794,-0.1599623,0.07283701
1.015692,-0.1628541,0.06994716
1.015461,-0.1571774,0.06737075
1.01817,-0.1539795,0.0694006
1.021052,-0.1541165,0.07217896
1.019628,-0.1537699,0.07648449
1.014122,-0.1535625,0.07516042
1.01156,-0.1529224,0.07090801
1.014708,-0.155764,0.07094862
1.019068,-0.1609206,0.07094982
1.020227,-0.1622414,0.07364416
1.019154,-0.1626875,0.07561799
1.019405,-0.1621277,0.07153898
1.019577,-0.1535477,0.0671657
1.01932,-0.1439072,0.06623936
1.019368,-0.1477604,0.06957698
1.01847,-0.1533202,0.07145887
1.017832,-0.1495408,0.06799495
1.017949,-0.1540814,0.0667809
1.018387,-0.1617661,0.0728679
1.018939,-0.158705,0.07833985
1.019579,-0.1557694,0.0735198
1.019198,-0.1540089,0.06723493
1.016442,-0.1549685,0.06815996
1.014734,-0.1585585,0.06932773
1.016358,-0.1551285,0.07175417
1.019085,-0.1519658,0.07868757
1.020368,-0.1517433,0.0834122
1.021036,-0.1523972,0.08099203
1.022369,-0.1556147,0.07666736
1.020761,-0.1552999,0.07679859
1.018375,-0.1560817,0.07496235
1.019703,-0.1594073,0.07239993
1.020773,-0.1598762,0.07392261
1.021052,-0.1612347,0.07270343
1.02287,-0.1598462,0.07410609
1.023513,-0.1564356,0.07625248
1.021055,-0.1557811,0.07213949
1.018396,-0.1528412,0.07183664
1.019181,-0.1518244,0.07258208
1.01965,-0.1547229,0.07212437
1.016297,-0.1551484,0.07453532
1.014421,-0.1555924,0.0746064
1.015334,-0.1563119,0.07263103
1.015314,-0.1570616,0.07002492
1.01429,-0.1601731,0.07114295
1.014435,-0.1611833,0.07367864
1.018361,-0.1600885,0.07149633
1.022375,-0.1579298,0.07157429
1.021007,-0.1540972,0.07015791
1.018994,-0.1541391,0.06654042
1.019158,-0.1549994,0.06873697
1.016782,-0.1537286,0.07124997
1.014728,-0.1561479,0.07252854
1.017958,-0.1575122,0.07243354
1.020895,-0.1546007,0.06925992
1.020293,-0.1523923,0.06644662
1.020581,-0.1509691,0.06568703
1.021168,-0.1517757,0.07196943
1.0197,-0.1555614,0.08120178
1.019037,-0.1591171,0.08154663
1.020008,-0.1598595,0.07776128
1.021194,-0.1569691,0.07726525
1.022347,-0.1543722,0.07642947
1.020763,-0.1544926,0.07346127
1.018364,-0.1544739,0.07114361
1.019876,-0.1537425,0.07112684
1.021712,-0.154432,0.07117076
1.021923,-0.1553285,0.07070761
1.020866,-0.1554541,0.07295108
1.018012,-0.1558838,0.0752849
1.016542,-0.1561039,0.07526768
1.01535,-0.1589808,0.07587865
1.015653,-0.1625489,0.07643147
1.019472,-0.1605025,0.0756072
1.019501,-0.1566537,0.07407733
1.016261,-0.1540929,0.07234009
1.014796,-0.1533607,0.07129168
1.014977,-0.1550743,0.07244231
1.017121,-0.1559762,0.07564039
1.018967,-0.1563869,0.07654013
1.021495,-0.1539974,0.07462914
1.022815,-0.1498569,0.07356368
1.018854,-0.1530764,0.07591638
1.016231,-0.1595432,0.07852853
1.016693,-0.1610817,0.07404712
1.017607,-0.1569052,0.0694029
1.01853,-0.1502585,0.07095564
1.017875,-0.1507358,0.07119506
1.018188,-0.1551067,0.07085249
1.019117,-0.1565815,0.07242686
1.019686,-0.1582836,0.07233266
1.020632,-0.1534637,0.07050168
1.020784,-0.1473923,0.07072637
1.020877,-0.1511488,0.07415689
1.019858,-0.1523353,0.07569025
1.019014,-0.1486971,0.07497405
1.019628,-0.1481079,0.07452172
1.019047,-0.1478928,0.07352777
1.01764,-0.149027,0.07328325
1.016356,-0.1544744,0.07411637
1.017964,-0.1602177,0.07533417
1.022436,-0.1582598,0.07587108
1.024501,-0.1511915,0.07533088
1.023264,-0.1474434,0.07622427
1.019738,-0.1448839,0.07798726
1.014867,-0.1431019,0.0762866
1.011266,-0.1421542,0.06943488
1.012173,-0.1407165,0.06349688
1.015901,-0.1467193,0.06597356
1.018614,-0.1568724,0.07033723
1.022449,-0.1596081,0.06730377
1.023602,-0.1594438,0.06516936
1.021067,-0.1603119,0.0677399
1.022237,-0.1595787,0.07233972
1.022095,-0.1604796,0.0804801
1.020465,-0.1608988,0.07883249
1.021862,-0.1561968,0.07217441
1.019909,-0.1520223,0.07457653
1.018609,-0.1536199,0.07464078
1.021163,-0.1578256,0.07907795
1.021864,-0.1585649,0.08534971
1.022399,-0.1541751,0.07522094
1.021362,-0.1468689,0.06355346
1.015789,-0.1413975,0.06191079
1.008946,-0.142789,0.06873372
1.007423,-0.1457605,0.07523425
1.014767,-0.1475702,0.07142761
1.023296,-0.1512511,0.06857091
1.026261,-0.1511641,0.06869555
1.023544,-0.1514381,0.06628567
1.02023,-0.1552371,0.06449819
1.017577,-0.1646108,0.06982982
1.020386,-0.1592428,0.07722777
1.023335,-0.1612226,0.06827205
1.020594,-0.1618747,0.05883895
1.017865,-0.1617015,0.06380871
1.020161,-0.1641387,0.06670317
1.019563,-0.1662038,0.06278172
1.018363,-0.1658401,0.05955648
1.017348,-0.1613353,0.05481437
1.014082,-0.1555716,0.05852988
1.015403,-0.1560335,0.06605338
1.017845,-0.1582811,0.06194515
1.017649,-0.1566703,0.06054799
1.016648,-0.158129,0.06156353
1.015189,-0.1588414,0.05650387
1.01858,-0.1541564,0.05803058
1.022615,-0.1536364,0.0594561
1.020769,-0.1565088,0.05608777
1.019888,-0.1580731,0.05628222
1.020612,-0.1608466,0.05587514
1.018984,-0.1643133,0.05780273
1.019111,-0.1656784,0.06084634
1.020025,-0.1645322,0.05759331
1.018534,-0.1630285,0.05518175
1.016783,-0.1594096,0.05664864
1.014706,-0.1559369,0.0581893
1.015172,-0.1579932,0.05869003
1.018806,-0.1616917,0.05818606
1.019907,-0.1648224,0.05829661
1.019176,-0.1648033,0.05897143
1.017925,-0.1626379,0.06092578
1.017383,-0.164229,0.06336343
1.018658,-0.1633609,0.0624551
1.018319,-0.1617668,0.06007749
1.019315,-0.1649049,0.06003811
1.021506,-0.1655618,0.0622935
1.021196,-0.1639529,0.06461221
1.021456,-0.1618507,0.06287088
1.020094,-0.1602773,0.05874267
1.01876,-0.1615727,0.05783978
1.021759,-0.1619183,0.05835759
1.022504,-0.1614767,0.05784057
1.020197,-0.160273,0.0559533
1.018961,-0.159324,0.05402246
1.019161,-0.1619886,0.05600608
1.019945,-0.1640638,0.05811754
1.019214,-0.1640654,0.05815462
1.019285,-0.1642159,0.05985458
1.020189,-0.1655322,0.06348866
1.020866,-0.1673905,0.06810757
1.022573,-0.1655428,0.06701378
1.020734,-0.1599547,0.06147239
1.018408,-0.155913,0.06113744
1.02097,-0.1588002,0.06282363
1.023201,-0.1639763,0.06431017
1.023324,-0.1644698,0.0640395
1.020991,-0.1667141,0.06025703
1.017394,-0.1678954,0.05918824
1.01779,-0.1634968,0.0587472
1.019547,-0.1637515,0.05817314
1.019599,-0.1653574,0.06005781
1.020394,-0.1641345,0.06237506
1.020954,-0.1623857,0.0642825
1.019923,-0.1582216,0.06031339
1.019105,-0.1600525,0.05551911
1.019367,-0.165592,0.05789914
1.019487,-0.1665871,0.06181396
1.018613,-0.1657015,0.06348392
1.018978,-0.162712,0.05742475
1.021551,-0.1634702,0.05041952
1.022586,-0.1647854,0.05691119
1.020387,-0.1610112,0.0627425
1.018599,-0.1612874,0.05747478
1.019476,-0.1632421,0.05432229
1.019842,-0.1647837,0.05340538
1.019079,-0.1657709,0.05079025
1.019561,-0.1646126,0.05203235
1.019563,-0.1676419,0.05435221
1.018331,-0.1696055,0.05513344
1.015165,-0.1706191,0.05280216
1.011063,-0.1737228,0.04804931
1.012452,-0.1710368,0.04995109
1.016701,-0.1671486,0.05238542
1.018805,-0.1645881,0.05173522
1.021263,-0.1636035,0.05555615
1.022155,-0.1662519,0.05701285
1.021934,-0.1648337,0.05557788
1.022704,-0.1621056,0.05487042
1.021955,-0.1615364,0.05354125
1.022111,-0.1611418,0.05548571
1.022599,-0.164059,0.05682432
1.021642,-0.1661118,0.05591055
1.021373,-0.1653511,0.05564309
1.019523,-0.1650115,0.05530001
1.017758,-0.1650888,0.05674819
1.017293,-0.1646651,0.05764142
1.015983,-0.1631384,0.05848107
1.015807,-0.1629808,0.06047529
1.015806,-0.1627881,0.05959899
1.017533,-0.1632033,0.05810863
1.020145,-0.1664385,0.0565642
1.016931,-0.1669935,0.05532937
1.013718,-0.1652228,0.058748
1.016231,-0.1631024,0.06358817
1.019367,-0.1608524,0.06438736
1.021202,-0.1609784,0.06148926
1.020576,-0.1615711,0.05840652
1.018466,-0.162849,0.05696056
1.019294,-0.1644942,0.05743615
1.019152,-0.1640052,0.06061251
1.017144,-0.163223,0.06361367
1.018232,-0.1622396,0.06286652
1.018409,-0.1606435,0.0606452
1.017726,-0.1612739,0.05752774
1.019322,-0.1651941,0.05234426
1.019606,-0.1703882,0.05180627
1.019244,-0.17352,0.05554244
1.018781,-0.1712572,0.0584363
1.018521,-0.1673953,0.06601329
1.019807,-0.1663134,0.07303081
1.019629,-0.1647455,0.07055356
1.01913,-0.165544,0.06127989
1.019636,-0.1696724,0.05216578
1.019413,-0.1713558,0.05437822
1.019388,-0.1714884,0.05801291
1.019509,-0.1712763,0.0530806
1.019411,-0.1734365,0.0539424
1.018912,-0.1782741,0.05634857
1.016771,-0.1808409,0.05543175
1.014462,-0.1781751,0.0570485
1.015652,-0.170963,0.05521113
1.019681,-0.1694475,0.0551838
1.022489,-0.17207,0.05908311
1.022447,-0.1708456,0.06175768
1.020072,-0.1709427,0.06495823
1.018769,-0.1702044,0.06246712
1.019628,-0.170173,0.05938234
1.01953,-0.1719773,0.06115513
1.019307,-0.1699444,0.05766033
1.019909,-0.1698969,0.05429546
1.021157,-0.1695901,0.05743385
1.021569,-0.1678864,0.05869755
1.01616,-0.1693993,0.05461051
1.010519,-0.1693818,0.05123898
1.013791,-0.1694907,0.05335009
1.017831,-0.1696632,0.0557907
1.017284,-0.1691834,0.05536482
1.01919,-0.1707646,0.05414427
1.018035,-0.1709083,0.05365577
1.013164,-0.1708365,0.05585493
1.015369,-0.1709481,0.05776483
1.016756,-0.1694924,0.05739748
1.016384,-0.1655957,0.05346934
1.02191,-0.1592627,0.04946553
1.023166,-0.1569431,0.05749087
1.020671,-0.1544505,0.06688421
1.020801,-0.1491559,0.06379274
1.020132,-0.1498171,0.06227321
1.018354,-0.1517453,0.06318343
1.016169,-0.1526821,0.05874262
1.017955,-0.1579312,0.05764232
1.020913,-0.1645097,0.05800149
1.01908,-0.1710158,0.0544646
1.019031,-0.1756568,0.05248673
1.020052,-0.1771331,0.05508672
1.018855,-0.1776374,0.05938153
1.018649,-0.177499,0.05881057
1.018281,-0.1764474,0.05731448
1.019681,-0.1683938,0.05965419
1.022675,-0.1551073,0.06081447
1.02234,-0.1503715,0.06243802
1.020957,-0.1524285,0.06039344
1.020764,-0.1516496,0.05366377
1.020705,-0.1511498,0.05079211
1.020958,-0.1552503,0.05000439
1.020834,-0.1600431,0.05822488
1.020724,-0.1620668,0.06872572
1.020965,-0.1617288,0.05840293
1.020757,-0.1621765,0.04460806
1.020825,-0.1648415,0.04628872
1.020907,-0.1642567,0.05161229
1.020741,-0.162955,0.05553357
1.020721,-0.1642591,0.05405085
1.019924,-0.1619354,0.0472474
1.019139,-0.1602294,0.04514771
1.019397,-0.1614554,0.04837026
1.019239,-0.161585,0.05761827
1.017587,-0.1637939,0.06536321
1.016082,-0.166106,0.06014385
1.016539,-0.1657147,0.05581821
1.017024,-0.1656833,0.05845491
1.016458,-0.1670699,0.05474381
1.017354,-0.1666894,0.04814965
1.020402,-0.1642644,0.04891458
1.022799,-0.1633432,0.05455381
1.02093,-0.1617838,0.05767695
1.018101,-0.1597028,0.05394654
1.019548,-0.1594778,0.04903891
1.019761,-0.1598417,0.05033157
1.016939,-0.1608735,0.0500421
1.016797,-0.1612019,0.04831172
1.018384,-0.161165,0.05540285
1.019993,-0.1611633,0.06103235
1.019514,-0.1605392,0.0594635
1.016933,-0.1595782,0.05755944
1.016533,-0.1583679,0.05316913
1.017082,-0.1619856,0.05004791
1.019321,-0.1674075,0.05322166
1.02176,-0.1671636,0.05481751
1.019706,-0.165447,0.04995745
1.017884,-0.1632745,0.04645161
1.018024,-0.1602593,0.04841823
1.018188,-0.1619919,0.05091183
1.019237,-0.1666968,0.05159267
1.020506,-0.1690057,0.04957589
1.021263,-0.169851,0.04884023
1.020578,-0.1694959,0.05408074
1.019749,-0.1678805,0.05827749
1.019428,-0.1671936,0.05417676
1.019164,-0.1667085,0.04842188
1.01969,-0.1685716,0.04993664
1.019418,-0.1724497,0.0533254
1.019272,-0.1734961,0.05602738
1.019862,-0.1746401,0.06186199
1.020164,-0.1782011,0.06501064
1.020969,-0.1805636,0.06432005
1.019952,-0.1758203,0.06127376
1.018101,-0.1681685,0.05631061
1.018811,-0.1685967,0.05594016
1.02014,-0.1690343,0.05636195
1.021324,-0.1668168,0.05398638
1.022405,-0.1698699,0.05304534
1.021239,-0.1708274,0.05011113
1.018631,-0.170403,0.0493516
1.018179,-0.1713888,0.05538908
1.018991,-0.16939,0.05999987
1.01798,-0.169429,0.06083994
1.017786,-0.1705887,0.0552751
1.019698,-0.1707658,0.0489655
1.021415,-0.1712939,0.05424847
1.02236,-0.1704024,0.05869228
1.020668,-0.1705747,0.05554045
1.018258,-0.1693054,0.05332582
1.018778,-0.1668949,0.05083519
1.018969,-0.1669737,0.05185405
1.018436,-0.1648584,0.05587906
1.018815,-0.1629433,0.05574646
1.017968,-0.1642428,0.0548141
1.018049,-0.1652025,0.05328077
1.019837,-0.1662116,0.05106555
1.019287,-0.1676218,0.05178702
1.016398,-0.169358,0.05043534
1.014492,-0.1714102,0.04628425
1.015513,-0.1711737,0.04581348
1.017673,-0.1689403,0.04926605
1.019223,-0.1671951,0.05448296
1.019934,-0.1645443,0.05647456
1.019292,-0.162676,0.05251608
1.019274,-0.1635969,0.05108186
1.019893,-0.1632818,0.05676348
1.020334,-0.1636232,0.06359587
1.022022,-0.1642564,0.06451341
1.022706,-0.1615734,0.05937943
1.021973,-0.160617,0.05528862
1.02223,-0.1612332,0.05502702
1.022329,-0.1617808,0.05653738
1.02211,-0.1651753,0.05924786
1.021752,-0.1693665,0.0622792
1.019173,-0.1705165,0.06352772
1.015607,-0.1687002,0.06340783
1.015339,-0.167828,0.06311835
1.0175,-0.1656929,0.06021344
1.01797,-0.1620679,0.05776215
1.018682,-0.1621967,0.05876889
1.020187,-0.1612488,0.05913007
1.018786,-0.1601649,0.05952536
1.01643,-0.1624483,0.05833891
1.01525,-0.1644924,0.05584266
1.016655,-0.1702112,0.05725277
1.020132,-0.1742886,0.05825884
1.019806,-0.1704418,0.05776364
1.018586,-0.1681885,0.05641314
1.019085,-0.1674649,0.0520585
1.017599,-0.1640355,0.0508995
1.017974,-0.1615675,0.05436091
1.019496,-0.1602711,0.05653656
1.01981,-0.1564323,0.05763701
1.022391,-0.1499025,0.06480812
1.024328,-0.1490336,0.0724392
1.023785,-0.1552108,0.06166572
1.022923,-0.1619117,0.04447465
1.021327,-0.1680605,0.04495383
1.017677,-0.169728,0.052134
1.014446,-0.169185,0.05527499
1.015765,-0.1678959,0.05670525
1.018373,-0.1614773,0.05495259
1.020001,-0.1610149,0.05604237
1.020933,-0.162829,0.05984294
1.020254,-0.1593219,0.06149832
1.020217,-0.1622209,0.06152753
1.019318,-0.164558,0.05859218
1.018873,-0.1644962,0.05742911
1.020129,-0.1657471,0.05609208
1.018936,-0.1609141,0.05015124
1.018586,-0.1585025,0.0476802
1.019129,-0.1576588,0.0518233
1.019123,-0.1594636,0.06059918
1.020054,-0.1683817,0.06581841
1.019124,-0.1704454,0.0608527
1.019278,-0.1722783,0.0551598
1.019576,-0.1756769,0.05517739
1.017155,-0.1732742,0.05690506
1.017106,-0.1744425,0.05687453
1.02007,-0.1740268,0.05552278
1.023088,-0.1725155,0.05265817
1.021022,-0.1738363,0.05081129
1.017703,-0.1695058,0.05418476
1.019974,-0.1658547,0.05623394
1.019911,-0.1664881,0.05279038
1.018452,-0.1665132,0.05015532
1.019185,-0.1646349,0.05099379
1.017563,-0.1612493,0.05028278
1.017783,-0.1611329,0.04874163
1.018815,-0.1639757,0.05476716
1.018474,-0.1664527,0.06023771
1.019901,-0.1675933,0.05485208
1.019643,-0.1689321,0.05032289
1.018994,-0.1714441,0.05229308
1.019797,-0.1721133,0.05190614
1.019328,-0.1739746,0.05003692
1.01918,-0.1759116,0.05051871
1.018372,-0.1732128,0.05052768
1.015835,-0.1702997,0.05381508
1.015065,-0.1680019,0.05796216
1.017064,-0.1673351,0.05585479
1.01885,-0.1686606,0.05398495
1.018283,-0.1678812,0.05160646
1.018505,-0.1683961,0.04919024
1.020076,-0.1712642,0.05206383
1.019479,-0.1736314,0.05359095
1.018892,-0.1747026,0.05647331
1.018898,-0.1750913,0.05961059
1.017647,-0.1776012,0.0560177
1.018407,-0.1765263,0.05097919
1.021132,-0.1691112,0.04641081
1.022758,-0.1648908,0.04713708
1.022062,-0.1670512,0.05128846
1.017973,-0.1711809,0.05334946
1.011997,-0.1718486,0.05867096
1.009103,-0.1667711,0.0595031
1.015025,-0.1610095,0.0553612
1.022683,-0.1600808,0.05411815
1.020203,-0.1591609,0.05172195
1.014332,-0.1537008,0.05285019
1.011742,-0.154137,0.05565367
1.013003,-0.16093,0.05508874
1.020852,-0.1643224,0.05615164
1.026702,-0.1648446,0.05579943
1.026361,-0.1632088,0.05685833
1.02512,-0.1627501,0.05945279
1.022052,-0.1599541,0.05582138
1.018325,-0.152908,0.05014581
1.018579,-0.1534686,0.04606999
1.020595,-0.1556013,0.04871824
1.019135,-0.1551827,0.05575823
1.01867,-0.1578073,0.0554948
1.019484,-0.1572003,0.05260361
1.017314,-0.1566394,0.05176734
1.018886,-0.1596021,0.05510623
1.020421,-0.1618666,0.06071141
1.018731,-0.1631962,0.05876875
1.019775,-0.1624574,0.05879151
1.018387,-0.1621512,0.06254271
1.013821,-0.1628567,0.05902897
1.010577,-0.162339,0.05679581
1.01367,-0.1629928,0.05713681
1.019601,-0.1653277,0.0547428
1.018228,-0.167877,0.05433411
1.018759,-0.1697403,0.05407867
1.02103,-0.1710337,0.05163303
1.01831,-0.171406,0.04922705
1.019572,-0.1691471,0.04830157
1.020295,-0.1637858,0.05039245
1.019421,-0.1560632,0.05158815
1.021764,-0.153465,0.04771832
1.020602,-0.1581771,0.04420672
1.01944,-0.1601609,0.04505329
1.019257,-0.1602906,0.04789482
1.016756,-0.1586233,0.0562311
1.017484,-0.1537071,0.06610818
1.01997,-0.1561561,0.06377249
1.019894,-0.1591922,0.06007969
1.018017,-0.1584412,0.06585121
1.017325,-0.1622123,0.06614208
1.01653,-0.1613056,0.06333038
1.013516,-0.1567591,0.0627272
1.013476,-0.1552497,0.05818449
1.015107,-0.1545494,0.05908153
1.01711,-0.1613416,0.06122659
1.020694,-0.1679672,0.05818555
1.019704,-0.164459,0.05829592
1.017587,-0.1623866,0.05747957
1.018563,-0.1649879,0.0595892
1.01882,-0.1658564,0.06467194
1.02012,-0.1664443,0.06218495
1.022507,-0.1664468,0.0606811
1.023444,-0.1643367,0.06176921
1.021448,-0.16386,0.06057075
1.018107,-0.1626875,0.06089745
1.019521,-0.1607303,0.0595428
1.022228,-0.1633461,0.0572487
1.022002,-0.1649165,0.0571534
1.022567,-0.1638455,0.05520574
1.022029,-0.1607086,0.05322652
1.020771,-0.1560771,0.05442987
1.020183,-0.1624392,0.05544551
1.018723,-0.170361,0.05545691
1.019552,-0.1660323,0.05667502
1.019483,-0.1644107,0.05993259
1.017282,-0.1664353,0.06303379
1.017243,-0.1643742,0.0595003
1.017291,-0.164556,0.05374769
1.018172,-0.1650338,0.05540529
1.020817,-0.164825,0.05693983
1.023053,-0.166144,0.0563977
1.022342,-0.1660327,0.059263
1.019539,-0.1676179,0.05873906
1.019574,-0.1693174,0.05740598
1.020281,-0.1692476,0.0586946
1.020749,-0.1714899,0.05616207
1.020477,-0.170771,0.05387695
1.018883,-0.1669685,0.05412024
1.021418,-0.1644467,0.05444232
1.023164,-0.1618578,0.05632439
1.021829,-0.1614757,0.05823522
1.02194,-0.161415,0.05881842
1.020443,-0.1614616,0.05817215
1.018873,-0.1630919,0.05687017
1.019306,-0.1615598,0.05243616
1.019893,-0.1606026,0.04769802
1.020318,-0.162926,0.05414422
1.02069,-0.1653467,0.06187242
1.020341,-0.1671851,0.05810532
1.018815,-0.1651072,0.05697941
1.019362,-0.1628707,0.06067555
1.019942,-0.1652098,0.05968574
1.018762,-0.1667912,0.0603068
1.018981,-0.1657273,0.06250668
1.018913,-0.1623157,0.06335823
1.020232,-0.1589947,0.06577521
1.021569,-0.1629196,0.06331487
1.019498,-0.1683913,0.05690519
1.019457,-0.1672983,0.05372858
1.02147,-0.1684579,0.05245173
1.021902,-0.1724521,0.05260589
1.018976,-0.1708557,0.05135041
1.015269,-0.1700143,0.04916783
1.017339,-0.1710514,0.04902954
1.019492,-0.1676803,0.04850435
1.018477,-0.1646358,0.05091693
1.020555,-0.1641419,0.05336556
1.021644,-0.1636296,0.053111
1.019758,-0.1629497,0.05677893
1.018274,-0.1622352,0.05827289
1.016018,-0.1626266,0.05748236
1.016079,-0.1635488,0.05812623
1.017682,-0.1640487,0.05169709
1.017344,-0.1638567,0.04627755
1.019061,-0.1627946,0.04994905
1.020285,-0.1624871,0.05559418
1.018735,-0.1633469,0.05980183
1.018633,-0.1642369,0.05865486
1.018016,-0.1640135,0.05537921
1.017967,-0.1639415,0.05538198
1.020497,-0.1651626,0.05392783
1.022062,-0.1643557,0.04949113
1.021898,-0.1634767,0.04477915
1.018614,-0.1663809,0.04583596
1.015294,-0.1674307,0.0536382
1.017294,-0.1669226,0.05614837
1.020888,-0.1703545,0.05315096
1.022503,-0.170992,0.05424976
1.020553,-0.1676824,0.05568083
1.016492,-0.1660408,0.05524797
1.016441,-0.1640613,0.05502354
1.018922,-0.1681194,0.05025484
1.019789,-0.1770115,0.04349475
1.019644,-0.1785004,0.04265626
1.018985,-0.1809082,0.04820236
1.018414,-0.1860133,0.05358219
1.017094,-0.1806586,0.05297062
1.016189,-0.1708623,0.05019139
1.01783,-0.166812,0.04901388
1.018274,-0.1661737,0.04922974
1.016957,-0.1665924,0.05131358
1.016833,-0.1670411,0.0519151
1.018486,-0.167126,0.05068191
1.020922,-0.1703716,0.04950233
1.020361,-0.1742995,0.04744552
1.018736,-0.172584,0.04784266
1.019735,-0.1686997,0.05108663
1.020544,-0.167561,0.05164855
1.020697,-0.1694323,0.04940334
1.019988,-0.1731015,0.04852725
1.018062,-0.1760883,0.05154423
1.017732,-0.176689,0.05575979
1.018779,-0.1744526,0.05619202
1.020706,-0.1724619,0.05510122
1.022993,-0.171927,0.05459535
1.022599,-0.1705387,0.04976547
1.021566,-0.1703815,0.04327968
1.022177,-0.1713256,0.0449282
1.020574,-0.170687,0.05178561
1.018888,-0.1706513,0.05323133
1.021694,-0.1713069,0.05099217
1.024865,-0.1729503,0.04964296
1.025081,-0.1796646,0.04777185
1.022629,-0.1857485,0.04747998
1.018796,-0.1838033,0.04846831
1.017396,-0.1819005,0.05110116
1.019705,-0.18167,0.05565983
1.023625,-0.1693632,0.05340244
1.025419,-0.1506138,0.04837424
1.022526,-0.144527,0.04861948
1.018764,-0.1487678,0.04901567
1.017183,-0.1593848,0.05190777
1.014959,-0.1779511,0.05756365
1.01547,-0.1856282,0.05802613
1.02248,-0.1782567,0.05180653
1.026818,-0.1768125,0.04442642
1.024407,-0.176765,0.0447766
1.020407,-0.1712154,0.04799144
1.016818,-0.1705319,0.04865668
1.016289,-0.1706007,0.05237464
1.018708,-0.1689879,0.05260709
1.020144,-0.1662335,0.05078938
1.019454,-0.1623846,0.05367039
1.01906,-0.1678818,0.052139
1.019793,-0.1790806,0.05089047
1.019341,-0.1866518,0.05573672
1.019662,-0.185761,0.05659875
1.021493,-0.1781992,0.0508782
1.022348,-0.1752518,0.04490434
1.021487,-0.1720731,0.04649426
1.01874,-0.1679664,0.04888656
1.016455,-0.1673475,0.0451317
1.015176,-0.1675056,0.0455317
1.01665,-0.1734982,0.0462679
1.020245,-0.1751732,0.04319309
1.019653,-0.171034,0.04377228
1.018862,-0.1686556,0.04670783
1.020343,-0.1607583,0.05189686
1.020947,-0.159546,0.05469092
1.022752,-0.1646743,0.05440029
1.021954,-0.1635878,0.05651393
1.017929,-0.1642598,0.05494641
1.016023,-0.165244,0.0518951
1.016755,-0.1668973,0.04871473
1.019899,-0.1691206,0.04322834
1.021415,-0.1666835,0.04335841
1.019675,-0.1657416,0.04576976
1.017819,-0.1640725,0.04598752
1.015892,-0.1600824,0.04735867
1.015272,-0.1580012,0.05013935
1.017274,-0.1566608,0.05358727
1.020581,-0.1585922,0.05608164
1.021633,-0.164368,0.05595982
1.020214,-0.1682932,0.05190972
1.019974,-0.1669699,0.04898468
1.019372,-0.166049,0.04813181
1.018538,-0.169055,0.04748763
1.017186,-0.1702092,0.05167469
1.014252,-0.1701167,0.05266754
1.014903,-0.1714992,0.05067541
1.016479,-0.1727115,0.05373531
1.01651,-0.1741501,0.05202094
1.019354,-0.1748243,0.04709492
1.022157,-0.1737755,0.04795754
1.023722,-0.1699195,0.04998469
1.023235,-0.1649312,0.0502827
1.018854,-0.1658916,0.05272578
1.016145,-0.1681504,0.05574482
1.015383,-0.1658743,0.05537467
1.016545,-0.1664526,0.05569407
1.020261,-0.1674639,0.05577902
1.019721,-0.1660731,0.05430177
1.018741,-0.1684346,0.05252805
1.020106,-0.1711774,0.04865929
1.019095,-0.1723003,0.04923838
1.019415,-0.1710704,0.0503914
1.020114,-0.1677047,0.04705689
1.020819,-0.1678026,0.04689955
1.02274,-0.1673274,0.04590602
1.019982,-0.1683212,0.04542146
1.015721,-0.1725668,0.04940048
1.014857,-0.1708969,0.04980194
1.016441,-0.1698371,0.04647316
1.019111,-0.1717922,0.04452333
1.019842,-0.1700492,0.05009749
1.019427,-0.1685663,0.05724525
1.019709,-0.1654403,0.05352283
1.021221,-0.1604979,0.04811798
1.022714,-0.1592783,0.04532398
1.021223,-0.1609077,0.04426988
1.019314,-0.1644515,0.05164672
1.019319,-0.1656365,0.05367803
1.019502,-0.1623822,0.04837132
1.019632,-0.1600103,0.05084606
1.020136,-0.1601824,0.05331869
1.020222,-0.1609339,0.05358363
1.019288,-0.1616959,0.05357823
1.019109,-0.1648283,0.05004758
1.019777,-0.1675226,0.0523316
1.019367,-0.1649842,0.05524536
1.018937,-0.1629771,0.05426124
1.017879,-0.1649126,0.05670456
1.016154,-0.1654142,0.05742615
1.017356,-0.1623511,0.05770402
1.019202,-0.1601269,0.05660163
1.019606,-0.1611114,0.05244297
1.021191,-0.1614993,0.05415933
1.021,-0.1608404,0.05527555
1.018417,-0.1611324,0.05501614
1.018295,-0.1612321,0.06075913
1.020692,-0.1609998,0.06401715
1.023088,-0.1616655,0.06247613
1.022474,-0.1638566,0.06160339
1.020509,-0.166006,0.06100209
1.021005,-0.1654733,0.05826484
1.020858,-0.162881,0.0537621
1.020554,-0.1593886,0.05047702
1.021224,-0.1555067,0.05030974
1.020372,-0.1553096,0.05146938
1.019801,-0.1565465,0.04964982
1.018476,-0.1558919,0.05025434
1.017541,-0.1612196,0.05697152
1.019503,-0.1679776,0.06208068
1.020594,-0.167084,0.06289402
1.020831,-0.16553,0.05707789
1.020105,-0.1640719,0.04966639
1.018853,-0.1609746,0.04868256
1.019583,-0.1618859,0.04997423
1.019595,-0.1659502,0.05394682
1.019225,-0.1675901,0.05645177
1.019607,-0.1661011,0.05262653
1.019194,-0.1643242,0.05119238
1.01855,-0.1618025,0.05575573
1.017826,-0.1602087,0.05992704
1.01807,-0.1618919,0.056036
1.019209,-0.1641888,0.05021951
1.019577,-0.1666757,0.04971797
1.019529,-0.1670898,0.04879989
1.018818,-0.1639851,0.04580594
1.016748,-0.1615785,0.04308818
1.014562,-0.1604893,0.04828723
1.015561,-0.1598864,0.05606262
1.019527,-0.1585982,0.05132288
1.021461,-0.1559092,0.04722177
1.019817,-0.1550874,0.05080117
1.016976,-0.1560292,0.05234902
1.016431,-0.1577156,0.05355296
1.018893,-0.1606817,0.05272733
1.020702,-0.1621732,0.05247636
1.020133,-0.1627226,0.05539643
1.017941,-0.1640871,0.05542524
1.016641,-0.1633985,0.05483553
1.017306,-0.1622994,0.05411936
1.019136,-0.165195,0.05456299
1.021748,-0.1678929,0.05637848
1.021266,-0.1665898,0.05360198
1.019959,-0.166536,0.0500787
1.021384,-0.1690784,0.04794254
1.02084,-0.1709068,0.04787657
1.020615,-0.1721131,0.04964267
1.022204,-0.1723875,0.04813738
1.022009,-0.1712694,0.04978221
1.021476,-0.1676155,0.05643816
1.020534,-0.1629682,0.06123608
1.020553,-0.1631233,0.060745
1.020961,-0.165182,0.05686757
1.01854,-0.1656747,0.05602577
1.016643,-0.1687688,0.05210119
1.016576,-0.170677,0.0476413
1.017745,-0.1686956,0.0508148
1.01946,-0.1678956,0.05060047
1.020093,-0.1653757,0.04997324
1.02214,-0.1611078,0.05249729
1.023869,-0.1596393,0.05104275
1.020651,-0.1574421,0.05084322
1.016003,-0.1548009,0.0503643
1.016446,-0.1532178,0.05052483
1.01861,-0.1524419,0.05771351
1.01694,-0.1557444,0.06365727
1.016379,-0.1577636,0.06321699
1.015992,-0.1543411,0.06189843
1.014322,-0.1507499,0.06092374
1.01758,-0.1501,0.05699822
1.019125,-0.1544325,0.05456319
1.017272,-0.1578727,0.05398781
1.01895,-0.1526148,0.04865104
1.020771,-0.1477172,0.04223262
1.02236,-0.150107,0.03803328
1.021199,-0.1510087,0.04078551
1.017901,-0.1496464,0.05177461
1.019528,-0.1546763,0.05759414
1.019344,-0.1644781,0.05430902
1.017689,-0.1728332,0.04929716
1.018895,-0.1777421,0.04759724
1.016203,-0.1800836,0.04589178
1.014085,-0.1776711,0.04427942
1.015707,-0.169863,0.04852302
1.015422,-0.1665026,0.05350516
1.015514,-0.1643128,0.06091106
1.018325,-0.1613838,0.06505429
1.021493,-0.1655965,0.05998655
1.023131,-0.1642127,0.06018573
1.023727,-0.1606593,0.05862677
1.024607,-0.1587073,0.05683158
1.02696,-0.1495565,0.06300895
1.029688,-0.1518454,0.06201192
1.02695,-0.1565525,0.05954
1.022242,-0.1521485,0.05828162
1.023335,-0.1544524,0.05640212
1.022575,-0.151962,0.05682049
1.016762,-0.1493696,0.05094058
1.014142,-0.1600677,0.05038721
1.015042,-0.1729685,0.05475739
1.015862,-0.1796573,0.05363453
1.015114,-0.1739464,0.05472803
1.015474,-0.1683416,0.05404452
1.018472,-0.1693319,0.05370289
1.019935,-0.1666229,0.05515074
1.020096,-0.1640561,0.05485008
1.020748,-0.1559757,0.05887695
1.021944,-0.1424677,0.06004045
1.02192,-0.1357311,0.05561863
1.020653,-0.1305363,0.0520633
1.021236,-0.1278602,0.0510785
1.021035,-0.1380015,0.05220392
1.022266,-0.1586009,0.05184788
1.024274,-0.1743525,0.05293904
1.02042,-0.1776656,0.05361858
1.017467,-0.1789919,0.05317183
1.017949,-0.1804221,0.05673459
1.017947,-0.1754428,0.05780475
1.017162,-0.1659563,0.05740228
1.015206,-0.157142,0.05886292
1.015269,-0.1509227,0.05825744
1.017023,-0.1470861,0.0582292
1.020371,-0.1460606,0.05845871
1.023428,-0.1448575,0.05821539
1.021365,-0.1450641,0.05845689
1.020107,-0.14898,0.05821017
1.02211,-0.151857,0.05806671
1.022591,-0.1547631,0.05652488
1.022255,-0.1571341,0.05423837
1.02342,-0.1594382,0.05170569
1.026148,-0.1613148,0.04830468
1.028739,-0.1547423,0.04940024
1.028842,-0.1493168,0.05780993
1.024295,-0.1560667,0.06622452
1.017033,-0.1675734,0.06490162
1.009679,-0.1757726,0.05517667
1.00357,-0.1784475,0.04899881
1.005739,-0.1826383,0.05174815
1.015243,-0.1881127,0.05468664
1.02193,-0.1826395,0.05269287
1.024444,-0.16919,0.05214466
