accx,accy,accz
0.9713168,-0.1783644,-0.2230989
0.990553,-0.1864927,-0.2424162
0.9941755,-0.1941821,-0.2531869
0.9944562,-0.1866227,-0.2477501
0.991143,-0.1722808,-0.2445772
0.9808535,-0.1788016,-0.2472688
0.9819491,-0.1817326,-0.2501806
0.9861384,-0.1806772,-0.2495606
0.9808944,-0.1877021,-0.2508363
0.9831906,-0.181522,-0.2518716
0.9824286,-0.1753604,-0.2525977
0.9807465,-0.1759066,-0.2539454
0.9864883,-0.1755577,-0.2511704
0.9854546,-0.1816255,-0.2499937
0.9846939,-0.1831529,-0.2466199
0.9829931,-0.1826185,-0.2439198
0.9822104,-0.1850292,-0.2478791
0.9851226,-0.1838999,-0.2498258
0.9831192,-0.1859663,-0.2555162
0.9851457,-0.1852567,-0.2593687
0.9855215,-0.1830553,-0.2555409
0.9836137,-0.1847239,-0.255358
0.9866706,-0.1808764,-0.2522993
0.9863071,-0.1794753,-0.2477764
0.9877937,-0.181396,-0.2482751
0.9896716,-0.1797199,-0.2459799
0.9874247,-0.1787635,-0.2434121
0.9864722,-0.176412,-0.2459876
0.9858272,-0.175651,-0.252574
0.9871278,-0.1770315,-0.2577032
0.9879833,-0.1766251,-0.2552472
0.9870446,-0.1790598,-0.2513469
0.9869496,-0.1810232,-0.2538512
0.9867901,-0.1779664,-0.259723
0.9886152,-0.1756678,-0.264665
0.9888135,-0.1794895,-0.2661709
0.9849526,-0.1851719,-0.2642899
0.9823104,-0.1870458,-0.2616374
0.983156,-0.1878354,-0.2587832
0.9847951,-0.1873763,-0.2589552
0.983566,-0.1856031,-0.2598245
0.982081,-0.1862994,-0.2580443
0.9818484,-0.1877807,-0.2608128
0.9817039,-0.1874076,-0.2640261
0.9822665,-0.1844773,-0.2630673
0.9814521,-0.1824135,-0.266621
0.9800279,-0.1834137,-0.2706858
0.9792764,-0.1835783,-0.2665591
0.9809778,-0.1827949,-0.2607381
0.9852083,-0.181944,-0.2614648
0.9842899,-0.181815,-0.2660197
0.9805922,-0.1838507,-0.2689815
0.9807698,-0.1848052,-0.2676399
0.9809187,-0.1847901,-0.2644653
0.9803404,-0.1867183,-0.2652875
0.9815211,-0.1881104,-0.2656031
0.9824136,-0.1874692,-0.2644299
0.98182,-0.1867658,-0.2678487
0.9818193,-0.1849751,-0.2712276
0.9821496,-0.1830095,-0.2712878
0.9817833,-0.1856619,-0.2688639
0.9818257,-0.188807,-0.2653341
0.9809166,-0.1862388,-0.2634657
0.9792785,-0.1829525,-0.2640905
0.9790908,-0.1815495,-0.2663502
0.9800701,-0.1801856,-0.266154
0.980606,-0.1821832,-0.2689713
0.978767,-0.1844769,-0.2748455
0.9772005,-0.1830463,-0.2736825
0.9786596,-0.1834098,-0.2722845
0.9797669,-0.1855336,-0.2711354
0.979044,-0.187085,-0.2678234
0.97914,-0.1899855,-0.2699308
0.9803065,-0.1924056,-0.2711811
0.9801853,-0.1921688,-0.271461
0.977745,-0.1910408,-0.2749693
0.9746232,-0.1914111,-0.275355
0.9748949,-0.1902684,-0.2748216
0.9783126,-0.1876574,-0.2751469
0.9797903,-0.1887799,-0.2744439
0.9794526,-0.1912835,-0.2734037
0.979816,-0.193505,-0.2715955
0.980831,-0.1941785,-0.2721156
0.9808855,-0.1931626,-0.2738939
0.9799258,-0.1959898,-0.274368
0.9794956,-0.1976275,-0.2750743
0.9769036,-0.196624,-0.272437
0.9736009,-0.1977695,-0.266806
0.9737424,-0.1970647,-0.2649559
0.9753542,-0.1971167,-0.2701973
0.9768482,-0.1986366,-0.277908
0.9757684,-0.1984111,-0.2792018
0.9739203,-0.1980452,-0.2773338
0.9744446,-0.1940218,-0.2769391
0.9734958,-0.1904619,-0.2737515
0.9731358,-0.1933135,-0.2706262
0.973617,-0.1947682,-0.2692998
0.9706587,-0.1894948,-0.2693467
0.968756,-0.1836242,-0.274344
0.970617,-0.1832795,-0.2797542
0.9736077,-0.1844755,-0.2821974
0.9760866,-0.1867793,-0.2848794
0.977865,-0.191836,-0.2891687
0.979638,-0.1917923,-0.291794
0.9822442,-0.1891558,-0.2882599
0.9859935,-0.1904251,-0.2841594
0.9861002,-0.1906822,-0.2824287
0.981099,-0.1894788,-0.2815324
0.9778732,-0.1886943,-0.2835217
0.979203,-0.1868351,-0.2829157
0.9817184,-0.1861943,-0.2824887
0.9816364,-0.1864444,-0.2834935
0.9792081,-0.1857136,-0.2772959
0.977078,-0.1867352,-0.2731898
0.9772557,-0.1895721,-0.2752945
0.9785502,-0.193404,-0.2762956
0.9771347,-0.1962045,-0.2765687
0.9751412,-0.1958935,-0.2763972
0.9723828,-0.1972752,-0.2773905
0.9700107,-0.1981371,-0.2777399
0.9746543,-0.1963533,-0.2758708
0.9781175,-0.197479,-0.2745709
0.975642,-0.197566,-0.2755047
0.9742915,-0.1971489,-0.2809199
0.973398,-0.2004086,-0.2875612
0.9732928,-0.2020174,-0.2896534
0.9734383,-0.2010336,-0.2828069
0.9706023,-0.1984228,-0.2715564
0.9676879,-0.1960039,-0.2673776
0.9679318,-0.1952756,-0.2696062
0.9704609,-0.1932627,-0.2725632
0.9723621,-0.1927751,-0.2757319
0.9737614,-0.196045,-0.283399
0.975644,-0.2008826,-0.2905431
0.9768415,-0.204196,-0.2874735
0.9767969,-0.2029944,-0.2852747
0.9774095,-0.2015998,-0.287929
0.9810855,-0.2015084,-0.2873597
0.9839013,-0.1980658,-0.2867322
0.9827001,-0.1920808,-0.2841841
0.9792555,-0.1866139,-0.2805173
0.9749457,-0.1854687,-0.2817685
0.9743988,-0.1862006,-0.2827022
0.9774101,-0.1827389,-0.2809078
0.9780932,-0.1839179,-0.2792745
0.9768164,-0.1885418,-0.2770846
0.9756561,-0.1859597,-0.2765936
0.9745371,-0.1858509,-0.2788571
0.9733409,-0.1876423,-0.2804343
0.9731867,-0.1854231,-0.28182
0.9744104,-0.1842408,-0.2830755
0.9753197,-0.1821939,-0.2851594
0.9764976,-0.1833302,-0.2885931
0.9760682,-0.1847267,-0.2870727
0.9744355,-0.1835032,-0.2847877
0.9770702,-0.1859575,-0.2867037
0.979687,-0.1845306,-0.286253
0.9787149,-0.1833084,-0.285447
0.9772442,-0.1836904,-0.2858489
0.9747588,-0.1798465,-0.2853008
0.9737309,-0.1805649,-0.2871413
0.9750494,-0.1796266,-0.2877357
0.9771337,-0.1785417,-0.2840476
0.980726,-0.1822685,-0.2807267
0.9829548,-0.180298,-0.2795532
0.9835721,-0.1808185,-0.278771
0.9830669,-0.1834539,-0.2765682
0.9802701,-0.1820551,-0.2757588
0.9785178,-0.1837872,-0.2781264
0.9789568,-0.1836856,-0.2800485
0.9791661,-0.1826768,-0.281747
0.977325,-0.1838855,-0.2826051
0.9752455,-0.1832468,-0.2815331
0.9750493,-0.1847406,-0.2828449
0.9747612,-0.1880603,-0.2870342
0.9748298,-0.1904417,-0.2913519
0.9747445,-0.1905265,-0.2908302
0.9744097,-0.187604,-0.2851458
0.9754215,-0.1849516,-0.2830146
0.9740777,-0.1823742,-0.2833623
0.9730365,-0.181447,-0.2826893
0.9751695,-0.183286,-0.2810861
0.9760312,-0.1845205,-0.2749288
0.9766207,-0.1848086,-0.2712246
0.9769447,-0.1831205,-0.2766237
0.9777636,-0.1793057,-0.2852594
0.9798727,-0.1765981,-0.289972
0.9783842,-0.17709,-0.2896224
0.9773084,-0.179526,-0.2883712
0.9799345,-0.1808951,-0.2828928
0.9809469,-0.180929,-0.2754884
0.9796944,-0.1802777,-0.2775592
0.9788197,-0.1804092,-0.2838839
0.9800785,-0.1809576,-0.2855408
0.9809486,-0.1802238,-0.2838419
0.9792794,-0.1797163,-0.2807462
0.9781115,-0.1761371,-0.2793524
0.97845,-0.1710015,-0.2810733
0.9794076,-0.1717022,-0.2809882
0.9790908,-0.1732394,-0.2804474
0.977017,-0.1734094,-0.284334
0.9761768,-0.1773963,-0.2854251
0.9771585,-0.1806451,-0.282725
0.9780718,-0.1788004,-0.2818598
0.9769834,-0.1766993,-0.2783438
0.9757399,-0.1764025,-0.2742964
0.9767561,-0.1760637,-0.2785554
0.9770894,-0.1763719,-0.2847311
0.9758055,-0.175482,-0.2803535
0.9738872,-0.1734895,-0.2723003
0.9737249,-0.1735173,-0.268551
0.9784465,-0.1736386,-0.2678766
0.9822573,-0.1732139,-0.2709003
0.9820949,-0.1719425,-0.2703916
0.984588,-0.1701239,-0.2725905
0.9891942,-0.1712821,-0.2793001
0.9896474,-0.1740824,-0.2751849
0.9878915,-0.1764208,-0.270685
0.9869384,-0.176696,-0.2697571
0.9839639,-0.1730974,-0.2688135
0.9820493,-0.1676856,-0.2725874
0.9825825,-0.163908,-0.2716468
0.9799745,-0.1659823,-0.2716381
0.9781556,-0.1699329,-0.2745264
0.9795082,-0.1694298,-0.2724398
0.9792898,-0.1692781,-0.2720232
0.9791116,-0.1694453,-0.2686006
0.9805619,-0.1672461,-0.2639237
0.9829458,-0.1663822,-0.2659512
0.9857356,-0.1664602,-0.2704714
0.9866981,-0.1668389,-0.2738754
0.9860086,-0.1662655,-0.2731046
0.9859153,-0.163634,-0.2736838
0.9856,-0.1620081,-0.274364
0.9824762,-0.1620715,-0.2717691
0.9793897,-0.1627956,-0.2708202
0.9802579,-0.1616077,-0.2669564
0.9811091,-0.1605866,-0.2665672
0.9792788,-0.1624156,-0.2679204
0.9787736,-0.1628748,-0.2626341
0.9794432,-0.1633226,-0.2635028
0.9792208,-0.1642636,-0.2651487
0.9800553,-0.1641453,-0.2642382
0.9814627,-0.1657071,-0.2696129
0.982666,-0.1677034,-0.2739907
0.983488,-0.1699343,-0.2767833
0.9838592,-0.173622,-0.2771066
0.987159,-0.1772153,-0.2767375
0.9889364,-0.1784406,-0.28318
0.9856801,-0.1774581,-0.2874468
0.9843764,-0.176453,-0.2838522
0.9806043,-0.1743928,-0.279768
0.9738999,-0.1725718,-0.2796482
0.9761797,-0.1718729,-0.2770235
0.9794929,-0.1704979,-0.2728914
0.9767676,-0.1703139,-0.2763864
0.9761924,-0.1703168,-0.2807675
0.9767067,-0.1690815,-0.2848444
0.9780409,-0.1697219,-0.2877533
0.9800753,-0.1725273,-0.282497
0.9790073,-0.1738876,-0.2799758
0.9787293,-0.1720379,-0.2791545
0.9787876,-0.1699302,-0.2745582
0.9781564,-0.1706892,-0.2736132
0.9796197,-0.1714559,-0.2710658
0.9803783,-0.1703718,-0.2690035
0.9799066,-0.1701458,-0.2705505
0.9781524,-0.1675871,-0.2645936
0.9766628,-0.1642972,-0.2596323
0.9822815,-0.1679902,-0.264744
0.9884364,-0.171964,-0.2667973
0.9846337,-0.1702802,-0.2662386
0.9808926,-0.1677713,-0.2697804
0.9824455,-0.165802,-0.2712052
0.9805021,-0.1644853,-0.2717062
0.9805649,-0.1638576,-0.2704739
0.9842536,-0.1635252,-0.2661727
0.9832392,-0.1639126,-0.2660895
0.9829614,-0.1634759,-0.2701444
0.9835401,-0.1633725,-0.2754652
0.981058,-0.1646752,-0.2745302
0.9804188,-0.1646912,-0.2704641
0.981485,-0.1649728,-0.2723294
0.9832408,-0.1653712,-0.2702164
0.9838525,-0.1645376,-0.2680289
0.9828954,-0.1657219,-0.2691191
0.9835397,-0.1662762,-0.2677368
0.9842606,-0.1679351,-0.2703014
0.9875907,-0.1718673,-0.2700973
0.991023,-0.1701082,-0.2691292
0.9852296,-0.1686248,-0.2726087
0.9765597,-0.1686815,-0.2723503
0.9752291,-0.1653296,-0.2748656
0.9780195,-0.1661683,-0.2771335
0.979613,-0.1658387,-0.2756126
0.9818712,-0.1629364,-0.2767728
0.9843119,-0.1671567,-0.2753904
0.9829399,-0.1719022,-0.2740438
0.9801004,-0.1746149,-0.2736416
0.9785356,-0.1774855,-0.2714046
0.9777627,-0.1759088,-0.2717946
0.9770258,-0.1721564,-0.2708452
0.9762806,-0.1701323,-0.2699944
0.9784143,-0.170436,-0.2765104
0.9819007,-0.1714051,-0.2831598
0.9825684,-0.1708397,-0.2797341
0.9826845,-0.1714924,-0.2716835
0.9835752,-0.1728585,-0.2683222
0.9831118,-0.1724567,-0.2692379
0.9813761,-0.174149,-0.2730994
0.9800477,-0.1776245,-0.2754267
0.9805921,-0.1781657,-0.2755033
0.9817819,-0.1765398,-0.2795885
0.981677,-0.1752805,-0.2843056
0.9802326,-0.1760128,-0.2832409
0.9782055,-0.178527,-0.2758801
0.9771281,-0.1805465,-0.2725717
0.9763601,-0.1827267,-0.2761405
0.9762375,-0.1854971,-0.2740091
0.9785385,-0.1852264,-0.2715629
0.9797749,-0.1829691,-0.2728211
0.9790243,-0.183848,-0.272608
0.9794725,-0.1862789,-0.2775936
0.9811762,-0.1879266,-0.284294
0.983373,-0.1879575,-0.2850115
0.9838425,-0.1860783,-0.2801196
0.9824262,-0.1875834,-0.2766734
0.9805571,-0.1916754,-0.2823799
0.977398,-0.1938186,-0.2860007
0.9761061,-0.1936269,-0.2800144
0.9767785,-0.191867,-0.2767716
0.9761218,-0.1915366,-0.2831983
0.9765309,-0.1901445,-0.2887261
0.9775527,-0.1889783,-0.2860853
0.9777439,-0.1894933,-0.2859335
0.9777019,-0.1865878,-0.2884444
0.9758008,-0.1867491,-0.2854394
0.9745743,-0.1881328,-0.2837439
0.9759217,-0.186538,-0.2854561
0.9759275,-0.18869,-0.2865521
0.9719579,-0.1879916,-0.2878868
0.9683639,-0.1862381,-0.2878224
0.972115,-0.1884609,-0.2868762
0.9772943,-0.187285,-0.2867965
0.9763744,-0.1865601,-0.2859401
0.9747307,-0.1851029,-0.2861245
0.9733011,-0.1802158,-0.2883009
0.9720733,-0.1804199,-0.2894521
0.9758332,-0.183766,-0.2902366
0.9792683,-0.1853451,-0.2921778
0.9778133,-0.1844985,-0.2931508
0.9765786,-0.1814795,-0.2905529
0.9753854,-0.1794729,-0.2874098
0.9720729,-0.1776836,-0.2879667
0.9722205,-0.1763836,-0.2879162
0.974727,-0.1794727,-0.2869564
0.9734704,-0.1854929,-0.2893417
0.9731028,-0.1883832,-0.2919153
0.9745916,-0.1877038,-0.2926985
0.975206,-0.1883967,-0.2885885
0.9778349,-0.1875046,-0.2813067
0.9785274,-0.1836394,-0.2809266
0.9769411,-0.1839824,-0.282876
0.9771462,-0.1861208,-0.2819009
0.9762135,-0.1857373,-0.2842266
0.9760018,-0.1863428,-0.2883755
0.9768808,-0.1867347,-0.2905506
0.9759358,-0.1869984,-0.2906256
0.9754809,-0.1884054,-0.2897368
0.9743977,-0.1871969,-0.2884515
0.9719686,-0.1865002,-0.2833411
0.9707453,-0.1856127,-0.2795096
0.9721583,-0.1824696,-0.28477
0.9746699,-0.1857669,-0.2892056
0.973756,-0.1888014,-0.2837899
0.9732118,-0.1842353,-0.2795918
0.9765848,-0.1826154,-0.2816213
0.9794273,-0.1852744,-0.2808283
0.9809766,-0.1867589,-0.2798446
0.979129,-0.1847287,-0.2828423
0.976245,-0.1810472,-0.2858339
0.9772187,-0.1794242,-0.2894611
0.9765201,-0.1798522,-0.2905569
0.9753162,-0.182865,-0.2890436
0.9752487,-0.1836612,-0.2905009
0.9728325,-0.1802088,-0.2905618
0.9734023,-0.1789626,-0.2892005
0.9752992,-0.1818046,-0.2903444
0.9747123,-0.1855105,-0.2904747
0.9755665,-0.184635,-0.2891572
0.9770082,-0.1812644,-0.2885711
0.9787717,-0.180273,-0.2889362
0.9790811,-0.1801336,-0.2890205
0.9768103,-0.1812861,-0.2883593
0.9767902,-0.1824291,-0.2872239
0.9766565,-0.183421,-0.2855344
0.975417,-0.183869,-0.2858412
0.9750343,-0.1817671,-0.2861029
0.9730408,-0.1817924,-0.2832853
0.9731017,-0.1820763,-0.2820217
0.9742363,-0.1806319,-0.2834928
0.9720632,-0.1801235,-0.2845382
0.9710308,-0.1781357,-0.2865365
0.9715348,-0.1779991,-0.2899454
0.9742538,-0.1794686,-0.2894444
0.9787543,-0.1777825,-0.2859629
0.9783036,-0.1777093,-0.2832891
0.9771342,-0.1817968,-0.2797128
0.9791439,-0.1845874,-0.2816682
0.9794219,-0.1831319,-0.287604
0.9786623,-0.1815673,-0.2878432
0.9776403,-0.1803241,-0.2889677
0.9764914,-0.1783614,-0.2894578
0.9769937,-0.1789094,-0.2860322
0.9766278,-0.1787475,-0.2859325
0.9756559,-0.177651,-0.285154
0.9756095,-0.180468,-0.2842487
0.9741199,-0.1828954,-0.2843951
0.9741562,-0.1810918,-0.2808191
0.977985,-0.1804597,-0.2777397
0.9811196,-0.1844154,-0.276081
0.9825175,-0.1870253,-0.2754823
0.9817078,-0.1831654,-0.2782065
0.9786989,-0.1759442,-0.2819582
0.9772631,-0.171852,-0.282194
0.9773744,-0.1736834,-0.2809048
0.9773457,-0.1763673,-0.2825498
0.9770484,-0.1769275,-0.2811301
0.9776432,-0.1791504,-0.2789592
0.9782232,-0.1814522,-0.279242
0.9764612,-0.1802888,-0.2777177
0.9762267,-0.1781788,-0.2800169
0.9776083,-0.1765944,-0.2798006
0.9775934,-0.1758985,-0.2748406
0.9771632,-0.1769248,-0.2748653
0.9759059,-0.1782996,-0.2739831
0.9765736,-0.1791315,-0.2734745
0.9786868,-0.1777478,-0.276948
0.979252,-0.1750476,-0.2818648
0.9793877,-0.1741578,-0.2868232
0.9779689,-0.1718888,-0.2846223
0.9775946,-0.1700902,-0.2801723
0.9789613,-0.1742163,-0.2751838
0.979211,-0.1780122,-0.2672101
0.9792328,-0.177663,-0.2682108
0.9782472,-0.1760031,-0.2707116
0.9787089,-0.1742807,-0.2678039
0.9815711,-0.1750691,-0.2723193
0.9833654,-0.1765578,-0.2783214
0.9837267,-0.1771518,-0.2795175
0.9825383,-0.1781034,-0.2802644
0.9806343,-0.1769061,-0.2802404
0.978576,-0.175778,-0.2823153
0.9785616,-0.1766306,-0.2818911
0.9799932,-0.1764245,-0.2790907
0.9788127,-0.1758953,-0.2811236
0.978939,-0.1747269,-0.2801607
0.9798838,-0.1733501,-0.2762164
0.979565,-0.1752067,-0.2746413
0.9810469,-0.1773596,-0.2741855
0.9809412,-0.1765524,-0.2754369
0.9809322,-0.1768104,-0.2731567
0.9823062,-0.1779294,-0.2714072
0.9800777,-0.1750994,-0.2746277
0.9783399,-0.172592,-0.2754021
0.9792818,-0.1756313,-0.2752429
0.979378,-0.1810921,-0.2757829
0.9786539,-0.18381,-0.2765152
0.9773573,-0.1790214,-0.2766926
0.9759755,-0.1722319,-0.2749045
0.9765936,-0.1730031,-0.2750075
0.9796843,-0.1748484,-0.275041
0.982142,-0.1738303,-0.2747725
0.9821494,-0.1755224,-0.2753708
0.9808732,-0.1763608,-0.274663
0.9801395,-0.1759725,-0.2751386
0.9805265,-0.1767589,-0.2756479
0.9797266,-0.1752523,-0.2773875
0.9787332,-0.1752671,-0.2804925
0.9792243,-0.178887,-0.2797983
0.9794437,-0.181449,-0.2777485
0.980342,-0.1809015,-0.2742027
0.9826251,-0.1786684,-0.2700694
0.9840002,-0.1775722,-0.2695097
0.9831695,-0.1734616,-0.2675411
0.9815457,-0.166665,-0.2643507
0.9792989,-0.1639685,-0.2661774
0.9769559,-0.1650865,-0.2751674
0.9786042,-0.1723196,-0.2855462
0.9814284,-0.1809264,-0.2836909
0.9821972,-0.1803014,-0.2787513
0.9833001,-0.1773875,-0.2835599
0.9810568,-0.1778725,-0.2823748
0.9780441,-0.1760673,-0.2791906
0.9812036,-0.1743954,-0.2820258
0.9840328,-0.1747159,-0.2797285
0.9826702,-0.1730275,-0.2788842
0.9805745,-0.1732597,-0.2744838
0.9784777,-0.1744221,-0.2659953
0.9787349,-0.172944,-0.2697841
0.9802138,-0.1746823,-0.2729775
0.9813415,-0.1783887,-0.2724455
0.9859211,-0.1813534,-0.2755622
0.9886548,-0.1816111,-0.2743699
0.9839541,-0.1794358,-0.2711229
0.979333,-0.1818911,-0.2692301
0.9786267,-0.1827403,-0.2735646
0.9791659,-0.1810725,-0.2861367
0.9792754,-0.182379,-0.2923535
0.978059,-0.1808637,-0.2853664
0.9775005,-0.1800522,-0.2786663
0.9778436,-0.180937,-0.2819846
0.9777783,-0.1804288,-0.2826509
0.9779822,-0.1816804,-0.278685
0.9786262,-0.1815874,-0.2813933
0.9794579,-0.1792835,-0.2830178
0.9793087,-0.1775286,-0.2827827
0.9788815,-0.1801192,-0.2838617
0.9793511,-0.1845584,-0.2796119
0.9791599,-0.1834142,-0.2764748
0.9790455,-0.1827161,-0.2762031
0.9786073,-0.1835875,-0.2759808
0.9754852,-0.1812017,-0.2777507
0.9729049,-0.1800521,-0.2792104
0.975013,-0.1805114,-0.2818773
0.9776886,-0.1807231,-0.2827405
0.9762672,-0.1802075,-0.2827454
0.9755861,-0.1785724,-0.2845116
0.9761685,-0.1785371,-0.2822871
0.974788,-0.1828016,-0.2816833
0.9765401,-0.1877581,-0.2824847
0.9785659,-0.1847621,-0.2823571
0.9757113,-0.1803504,-0.2851799
0.97474,-0.1824543,-0.2847976
0.9779971,-0.182623,-0.2847331
0.9810656,-0.183201,-0.2868757
0.9808338,-0.1868084,-0.2865749
0.9787424,-0.1859335,-0.2862608
0.9773667,-0.1839313,-0.2842902
0.976179,-0.1831318,-0.2831443
0.9778917,-0.182721,-0.2835384
0.9803078,-0.1827703,-0.2845258
0.978443,-0.1805892,-0.2858385
0.9760972,-0.1808914,-0.283715
0.9748253,-0.1854883,-0.2832534
0.9754906,-0.1888164,-0.2814912
0.9783699,-0.1884031,-0.2787325
0.9787093,-0.1855653,-0.2808561
0.9781433,-0.184174,-0.2773249
0.9779777,-0.1832962,-0.273725
0.9772658,-0.1813399,-0.2764936
0.9780775,-0.1797929,-0.2765226
0.9773516,-0.1784088,-0.2789926
0.9747127,-0.1777294,-0.2839961
0.9739053,-0.178141,-0.2850861
0.9766592,-0.181474,-0.286003
0.9808274,-0.1847063,-0.2862854
0.9791747,-0.1836568,-0.2830675
0.9761287,-0.1847827,-0.2809081
0.9766361,-0.1879701,-0.2815809
0.9750846,-0.1878454,-0.2795303
0.9746849,-0.187148,-0.2766623
0.9757491,-0.1872198,-0.2776287
0.9765406,-0.1853258,-0.2781741
0.9795282,-0.1813019,-0.2765546
0.9792349,-0.1799725,-0.2765828
0.9768628,-0.1824988,-0.2792415
0.976565,-0.1841292,-0.2813477
0.9777913,-0.1833398,-0.2802806
0.9801333,-0.1829163,-0.2780673
0.979288,-0.183856,-0.2789912
0.9784942,-0.1839995,-0.2811169
0.9797807,-0.1840704,-0.2784326
0.9790963,-0.1848954,-0.273586
0.979942,-0.1871396,-0.2724556
0.9806104,-0.1896415,-0.2762508
0.9773061,-0.1863699,-0.2810018
0.9737637,-0.1832069,-0.2793683
0.9735447,-0.1860485,-0.2763004
0.9775203,-0.1867763,-0.2787217
0.9804191,-0.1858327,-0.2806362
0.978868,-0.1871524,-0.2816131
0.9768467,-0.1874484,-0.2825286
0.976339,-0.1857396,-0.2815129
0.9771297,-0.1840301,-0.2826175
0.9783847,-0.1845789,-0.284792
0.9786114,-0.1850192,-0.2860257
0.9780399,-0.1831331,-0.2837889
0.9769203,-0.1813133,-0.2784639
0.97584,-0.1802652,-0.278627
0.9767477,-0.1812026,-0.2800754
0.9785356,-0.1828698,-0.2796904
0.9793479,-0.1828513,-0.2819843
0.979338,-0.1842385,-0.2823327
0.9778032,-0.1852891,-0.2816412
0.9765464,-0.1834886,-0.2823022
0.9767051,-0.1829905,-0.2827251
0.9779202,-0.1834941,-0.2829651
0.9796224,-0.1832831,-0.279844
0.9775468,-0.1833646,-0.2764387
0.9752288,-0.183301,-0.2777256
0.9766924,-0.1829879,-0.2801416
0.9766344,-0.1815753,-0.2825838
0.9760311,-0.1799474,-0.2856334
0.9766192,-0.1804114,-0.2844623
0.9761494,-0.1812825,-0.2819508
0.9754495,-0.1821418,-0.283984
0.9751598,-0.1843659,-0.2848105
0.9768016,-0.1865837,-0.2851203
0.9794499,-0.1886408,-0.2871097
0.9791906,-0.1895524,-0.2858112
0.9768479,-0.1870934,-0.2857872
0.9750634,-0.1841151,-0.2867023
0.975135,-0.182048,-0.2855998
0.9778306,-0.1809663,-0.2854501
0.979573,-0.1815488,-0.2817213
0.9765927,-0.1803716,-0.2778766
0.9738739,-0.1799671,-0.2816432
0.976063,-0.1816392,-0.2877552
0.9780103,-0.1823177,-0.2887825
0.97693,-0.1855719,-0.2826317
0.9771722,-0.1869309,-0.2771769
0.9789897,-0.1836455,-0.2804844
0.9795461,-0.1828875,-0.2839602
0.9789368,-0.1830062,-0.2805664
0.9781009,-0.1816225,-0.2777912
0.9776679,-0.1800819,-0.2775613
0.9774732,-0.1801154,-0.2814906
0.9769745,-0.1806778,-0.2889672
0.9761791,-0.1775549,-0.2863289
0.9757693,-0.1757813,-0.2811741
0.9749376,-0.1788199,-0.2828325
0.9729469,-0.1825837,-0.2809434
0.9737929,-0.1839285,-0.280139
0.9769775,-0.1813678,-0.2804434
0.9776232,-0.179701,-0.2797118
0.9752426,-0.1810804,-0.2826346
0.9715868,-0.1825291,-0.2818138
0.9719065,-0.183712,-0.2815021
0.9752675,-0.1833791,-0.2824398
0.9768369,-0.1819369,-0.2794845
0.9790135,-0.1810816,-0.2799718
0.9806874,-0.1809695,-0.2808925
0.9816886,-0.1814586,-0.2814293
0.9807436,-0.1816535,-0.2824996
0.9760054,-0.1826661,-0.2809967
0.9760761,-0.1836597,-0.2802316
0.9789455,-0.1814833,-0.2797886
0.9791515,-0.1796433,-0.2801282
0.9796252,-0.1807461,-0.2767161
0.978466,-0.1807953,-0.2714396
0.9772853,-0.179359,-0.2728762
0.9763046,-0.1762682,-0.2732507
0.9759942,-0.1722224,-0.2746921
0.9789266,-0.173356,-0.279031
0.9793252,-0.177441,-0.277499
0.9781255,-0.1807969,-0.271556
0.9778984,-0.184573,-0.2651792
0.9785876,-0.1829619,-0.2725483
0.9817312,-0.1793969,-0.2891288
0.9818704,-0.180993,-0.2912756
0.9785235,-0.1814819,-0.2846638
0.9744225,-0.1836887,-0.2787421
0.9722698,-0.188918,-0.2745382
0.9746542,-0.1887388,-0.2704501
0.9768795,-0.1880306,-0.2677344
0.9798542,-0.1874142,-0.2751465
0.9818886,-0.1833789,-0.2784903
0.9799117,-0.1822416,-0.2756431
0.9804342,-0.1819759,-0.2798478
0.9810637,-0.1799332,-0.2821366
0.980054,-0.1804385,-0.2824412
0.9811819,-0.1821257,-0.2829172
0.9823445,-0.1828826,-0.282987
0.9827995,-0.1823588,-0.2840631
0.9793216,-0.1772399,-0.2817026
0.9744258,-0.1713893,-0.2817748
0.9757711,-0.1734007,-0.2820119
0.975591,-0.1769049,-0.2795303
0.971315,-0.1760038,-0.2792429
0.9720331,-0.177082,-0.2785925
0.9749259,-0.1793354,-0.2798979
0.9786843,-0.1815584,-0.2815038
0.9835013,-0.1849132,-0.2836319
0.980406,-0.1862391,-0.2860223
0.9751764,-0.1854214,-0.2831903
0.9756957,-0.1826799,-0.2828401
0.9754486,-0.1824247,-0.2842604
0.9775101,-0.1846696,-0.284625
0.9824358,-0.183364,-0.2869949
0.9824141,-0.1823839,-0.2856711
0.981169,-0.1797348,-0.2829026
0.9803606,-0.1763768,-0.2808995
0.9785502,-0.1789011,-0.2777968
0.9782632,-0.1799091,-0.2768477
0.9760051,-0.1811582,-0.2805705
0.9728287,-0.1822913,-0.2870609
0.9760135,-0.1757367,-0.2865338
0.9806571,-0.1721194,-0.2811559
0.9799333,-0.1746946,-0.2808897
0.9794564,-0.1766146,-0.2838013
0.9803538,-0.1767002,-0.287431
0.9796834,-0.1757505,-0.287519
0.98101,-0.1758097,-0.2882628
0.982436,-0.1747305,-0.2933247
0.9819596,-0.1740515,-0.2903252
0.9815499,-0.1729702,-0.286253
0.9800432,-0.1699067,-0.2873011
0.9787797,-0.172744,-0.2835304
0.9781993,-0.1768201,-0.2820297
0.9758712,-0.1764226,-0.2827148
0.9725656,-0.176444,-0.2805862
0.9730466,-0.1763258,-0.2806067
0.9758519,-0.1763455,-0.278888
0.9756151,-0.1767212,-0.2777526
0.9764831,-0.177271,-0.2775274
0.9772287,-0.1796191,-0.2738648
0.9766316,-0.1823632,-0.2755683
0.9797703,-0.1852447,-0.2789466
0.9814101,-0.187111,-0.2781385
0.9811879,-0.1870174,-0.2795477
0.9790779,-0.1851382,-0.2799007
0.9746001,-0.1822921,-0.2802851
0.9761919,-0.1827618,-0.2835404
0.977501,-0.1833365,-0.2846821
0.9754283,-0.181097,-0.2863381
0.9776279,-0.1816469,-0.2869802
0.9810651,-0.1823957,-0.2843527
0.9838728,-0.1834371,-0.2818959
0.9819736,-0.1882424,-0.2781415
0.9760734,-0.1883507,-0.2780597
0.9758504,-0.1849025,-0.2799379
0.9768657,-0.1834938,-0.274951
0.9760124,-0.1803023,-0.2730371
0.9766666,-0.1798268,-0.278908
0.9762731,-0.1825289,-0.283376
0.9763042,-0.1827436,-0.2821803
0.9768077,-0.1835386,-0.2774451
0.9769999,-0.1831493,-0.2773998
0.9782519,-0.1801171,-0.2805039
0.9774827,-0.178887,-0.2815141
0.9756723,-0.1797031,-0.2823972
0.9747599,-0.1812232,-0.2808842
0.9746246,-0.1806835,-0.2806747
0.9756026,-0.1799636,-0.2845603
0.9757817,-0.1811011,-0.2855348
0.9764508,-0.1803682,-0.27946
0.9768389,-0.1800009,-0.2720755
0.9760916,-0.1788222,-0.2743443
0.9774634,-0.1750548,-0.2770873
0.978198,-0.1758675,-0.2743934
0.9772065,-0.1823943,-0.280891
0.9764377,-0.1879169,-0.2905762
0.9763817,-0.1851856,-0.293708
0.9795322,-0.1810419,-0.2927355
0.9828106,-0.1845922,-0.2895125
0.9829958,-0.1866895,-0.2896917
0.9808247,-0.1866186,-0.2879624
0.9771707,-0.1859958,-0.2836893
0.9769292,-0.1813366,-0.2841391
0.9777376,-0.1811548,-0.2829236
0.9756809,-0.1813928,-0.2822786
0.9758394,-0.1793165,-0.2865185
0.9752141,-0.1828261,-0.2880659
0.9721736,-0.1848582,-0.2872204
0.9719953,-0.1853127,-0.2886356
0.9717227,-0.1849741,-0.2903557
0.9717672,-0.1808281,-0.2902809
0.9731516,-0.1805052,-0.2901739
0.9731119,-0.1816334,-0.2893988
0.9754911,-0.1828403,-0.2884398
0.9775184,-0.184477,-0.289038
0.9755994,-0.1837204,-0.2883724
0.9744708,-0.1860275,-0.2861261
0.9730608,-0.1861336,-0.2841971
0.9712948,-0.1818251,-0.2853381
0.9715822,-0.1795745,-0.2885651
0.97416,-0.1781756,-0.2901717
0.9786067,-0.1777775,-0.291904
0.9786443,-0.1765565,-0.2899899
0.9768252,-0.1760106,-0.2845662
0.9792383,-0.1768313,-0.282729
0.9795754,-0.1757949,-0.2806122
0.9781851,-0.1757151,-0.2776294
0.9768549,-0.1748151,-0.2764888
0.9741455,-0.1745371,-0.2745475
0.975588,-0.1754859,-0.2753244
0.9774507,-0.1734716,-0.2801081
0.9762859,-0.1725181,-0.2831022
0.9784406,-0.17264,-0.2822772
0.9818209,-0.174584,-0.2812393
0.9824222,-0.1775117,-0.2813451
0.9816862,-0.1754761,-0.2776914
0.980688,-0.1743307,-0.2741032
0.979576,-0.1764839,-0.2792434
0.978736,-0.1775538,-0.2843078
0.9791883,-0.1776448,-0.2817735
0.9795833,-0.1758286,-0.2811542
0.9796334,-0.17344,-0.2840794
0.9800429,-0.1732177,-0.2851421
0.9788742,-0.1742522,-0.2868091
0.9774578,-0.1753839,-0.2884177
0.976174,-0.176767,-0.2885649
0.9742067,-0.1769769,-0.2885348
0.9748302,-0.1769329,-0.2871439
0.9754263,-0.1791395,-0.2880536
0.97345,-0.1791955,-0.2902399
0.9725516,-0.1760203,-0.2902352
0.9725912,-0.1750966,-0.2924592
0.9746679,-0.1782909,-0.2940796
0.9775754,-0.1820903,-0.2941272
0.9759473,-0.1810679,-0.2944417
0.9730652,-0.1805106,-0.2901187
0.9719205,-0.1839307,-0.2858436
0.9719421,-0.1834324,-0.2860289
0.9735765,-0.1818711,-0.288865
0.9741968,-0.1822066,-0.2949011
0.9751866,-0.1813489,-0.2999634
0.977128,-0.1812821,-0.2990964
0.9764685,-0.1805682,-0.2940019
0.9756368,-0.181523,-0.2926789
0.9749071,-0.1854966,-0.29362
0.97298,-0.1866932,-0.288969
0.9733204,-0.1860125,-0.2850102
0.9741554,-0.1849998,-0.2844726
0.9731328,-0.1838893,-0.2828259
0.9726664,-0.1825647,-0.2830208
0.9723812,-0.1814183,-0.2867957
0.9731191,-0.1836088,-0.2894717
0.9763399,-0.1842124,-0.2887678
0.978784,-0.1824713,-0.2890505
0.9795208,-0.1837792,-0.2899526
0.9789845,-0.184503,-0.2902236
0.9770211,-0.1843366,-0.2914625
0.9756825,-0.184121,-0.292702
0.9744619,-0.1818606,-0.2939637
0.9734124,-0.1815288,-0.2920695
0.9745188,-0.1823325,-0.2906366
0.9761901,-0.1819003,-0.2903985
0.9753348,-0.1827088,-0.2863344
0.9718129,-0.1827953,-0.2873198
0.9704519,-0.1816285,-0.288078
0.9737287,-0.1824909,-0.2833431
0.9770382,-0.1857376,-0.2824157
0.9765978,-0.1883604,-0.2813622
0.974934,-0.1869403,-0.2819658
0.9755397,-0.1853014,-0.2840172
0.9776595,-0.1874451,-0.284796
0.9798904,-0.1889822,-0.2891159
0.9796962,-0.1880992,-0.2893106
0.9779768,-0.1847686,-0.2873392
0.9777796,-0.1782225,-0.287805
0.976035,-0.1744038,-0.2867906
0.9756421,-0.1752117,-0.2869897
0.9773187,-0.1766482,-0.2862116
0.9759427,-0.1801484,-0.2873961
0.9758594,-0.1838174,-0.2901985
0.9751514,-0.1854091,-0.2878311
0.9724987,-0.1898659,-0.2850357
0.97407,-0.1926378,-0.282875
0.9760156,-0.1867899,-0.2834331
0.9773397,-0.1811647,-0.2860238
0.977664,-0.180469,-0.2850873
0.9729379,-0.1780823,-0.2875105
0.9692007,-0.177199,-0.2906126
0.969733,-0.1820296,-0.2888625
0.9698946,-0.187257,-0.2913254
0.9698809,-0.1901129,-0.2958493
0.9739256,-0.1892936,-0.2959784
0.9779236,-0.1878961,-0.2958821
0.9756373,-0.1894871,-0.2959099
0.9738581,-0.1891654,-0.295208
0.975527,-0.1890455,-0.2941556
0.9749276,-0.1898986,-0.2914993
0.9737373,-0.1866185,-0.291068
0.973638,-0.1853689,-0.2913453
0.9732384,-0.1877922,-0.2867616
0.9728315,-0.1895096,-0.2822412
0.9718316,-0.1912102,-0.2818553
0.9710578,-0.1921393,-0.2823522
0.9712706,-0.1925278,-0.2817099
0.9725448,-0.1898153,-0.2817894
0.9751534,-0.1849941,-0.2823237
0.9756206,-0.185918,-0.2825245
0.974439,-0.1888276,-0.286467
0.975016,-0.1888907,-0.2908129
0.9742535,-0.1892761,-0.290528
0.9730279,-0.1897141,-0.2892999
0.9739667,-0.1903653,-0.2866507
0.9747542,-0.1906862,-0.2823626
0.9760276,-0.1898508,-0.281359
0.9768847,-0.1900469,-0.2836103
0.9760354,-0.1886885,-0.2872734
0.9750724,-0.1866073,-0.2927279
0.9730722,-0.1875725,-0.296032
0.9714829,-0.1878219,-0.293703
0.9725919,-0.1871856,-0.2910593
0.9745238,-0.1876473,-0.2919391
0.9761654,-0.1876799,-0.2921959
0.9769188,-0.1883243,-0.2886549
0.9762199,-0.1892307,-0.2872149
0.9761982,-0.1887771,-0.2900999
0.9763347,-0.1878014,-0.2890289
0.9744107,-0.1873278,-0.2878459
0.9730601,-0.1874357,-0.2886954
0.9737341,-0.1875885,-0.2816651
0.9754327,-0.1875012,-0.2742755
0.9787818,-0.1874294,-0.2750675
0.9812876,-0.1875665,-0.2804011
0.9789634,-0.1873125,-0.286637
0.9751815,-0.1865539,-0.2883798
0.9745115,-0.185919,-0.2873575
0.9740997,-0.1859403,-0.2867486
0.9755739,-0.1863366,-0.2871673
0.9794544,-0.1853284,-0.2879184
0.9788274,-0.1824314,-0.2852759
0.9781145,-0.1805394,-0.2845663
0.9783519,-0.1844513,-0.2877166
0.9753164,-0.189198,-0.2888548
0.9760654,-0.1846573,-0.2855603
0.9771502,-0.1793953,-0.2808503
0.9745382,-0.1809659,-0.2822123
0.9740949,-0.1815935,-0.2831967
0.9738077,-0.1818717,-0.2783232
0.9750465,-0.1824486,-0.2768693
0.9769222,-0.1816176,-0.2780153
0.9735673,-0.1833968,-0.2785913
0.9712112,-0.1855372,-0.2818404
0.9733923,-0.1864172,-0.2869837
0.9758804,-0.1862848,-0.2887587
0.9786739,-0.1845309,-0.2857985
0.9809824,-0.1837943,-0.2846983
0.9784219,-0.1830872,-0.2851561
0.9746662,-0.1832539,-0.2851696
0.9766479,-0.1848693,-0.2858101
0.9779833,-0.1855557,-0.2813792
0.9766103,-0.1865329,-0.2759154
0.9784082,-0.1858659,-0.2780817
0.9795595,-0.1838998,-0.2835239
0.9784945,-0.1831957,-0.2869241
0.9756077,-0.1829367,-0.2872939
0.9724698,-0.1833155,-0.2840851
0.9745462,-0.1815864,-0.2805232
0.9768596,-0.1796561,-0.2819709
0.9762505,-0.1814676,-0.2847538
0.9764155,-0.184308,-0.2845545
0.9764262,-0.1866095,-0.2846236
0.9763243,-0.1845561,-0.2829773
0.9764491,-0.1800874,-0.2810211
0.976348,-0.1802405,-0.282377
0.9762345,-0.1812724,-0.2829707
0.9754805,-0.1820715,-0.2833713
0.9749168,-0.1836862,-0.2832899
0.9757807,-0.18171,-0.2811914
0.9768657,-0.1795406,-0.2801985
0.9765883,-0.1806656,-0.2800044
0.9770067,-0.1812824,-0.2788477
0.9782972,-0.1819927,-0.2763303
0.9776261,-0.1839794,-0.2760262
0.9765985,-0.183848,-0.2796715
0.9763701,-0.183609,-0.2840043
0.9763682,-0.1849868,-0.2869515
0.9772561,-0.1829249,-0.2839171
0.9773556,-0.1799798,-0.2799703
0.9769684,-0.1805052,-0.2820075
0.977897,-0.1812674,-0.2809836
0.9782913,-0.1830875,-0.2786499
0.9785563,-0.1854621,-0.2813212
0.9803761,-0.1837314,-0.2819248
0.9805475,-0.1803196,-0.2807952
0.9775941,-0.1784329,-0.2788936
0.9755577,-0.1773099,-0.2750722
0.9765954,-0.1775871,-0.275833
0.9789785,-0.1787333,-0.2780669
0.9812864,-0.1803969,-0.279808
0.9822324,-0.183589,-0.28847
0.9802215,-0.1840136,-0.2934481
0.9776723,-0.181294,-0.2847126
0.9765855,-0.1801166,-0.2771984
0.9747636,-0.1793256,-0.2788662
0.9751374,-0.1813551,-0.2800893
0.9774959,-0.1845042,-0.2786027
0.9762343,-0.1814814,-0.2787824
0.9760356,-0.179655,-0.2775962
0.9777748,-0.1828395,-0.2747127
0.97693,-0.1839704,-0.2757803
0.9771279,-0.1830894,-0.277947
0.9780201,-0.1822325,-0.2777167
0.9778177,-0.181987,-0.2768871
0.9781482,-0.1827848,-0.2762033
0.9794214,-0.1838131,-0.2783068
0.9810798,-0.1844066,-0.2836528
0.9796586,-0.1841358,-0.2862092
0.9772873,-0.1823182,-0.2794928
0.9771027,-0.1797794,-0.2722309
0.9771719,-0.1811823,-0.2777473
0.9788028,-0.1840096,-0.2843822
0.9798613,-0.1831658,-0.2847187
0.9786393,-0.183185,-0.2875611
0.9782495,-0.1836803,-0.2868612
0.9773553,-0.1826044,-0.2844956
0.975678,-0.1817798,-0.2868103
0.9747715,-0.1803511,-0.2846848
0.9750389,-0.1819558,-0.2832689
0.9772759,-0.1843741,-0.2852282
0.9792047,-0.1820483,-0.2833169
0.9792396,-0.1803821,-0.2833432
0.9782416,-0.1806518,-0.2826072
0.977178,-0.1803939,-0.2805949
0.9769205,-0.1806702,-0.2836903
0.9759513,-0.1800209,-0.2836731
0.9742807,-0.1777811,-0.2816509
0.9739293,-0.1762274,-0.2819732
0.9761506,-0.178661,-0.2797696
0.9797839,-0.1820221,-0.2786955
0.9797802,-0.1800672,-0.2792536
0.9783758,-0.1768853,-0.2792763
0.9795741,-0.1753952,-0.2802574
0.9792366,-0.1743661,-0.2806063
0.9788043,-0.1765245,-0.2807474
0.9795624,-0.1787901,-0.2804684
0.9789302,-0.179227,-0.2803907
0.9791772,-0.1796151,-0.2799846
0.9793353,-0.1787658,-0.2758082
0.9785718,-0.1791711,-0.2725168
0.9775758,-0.1791702,-0.2740977
0.9761171,-0.1767314,-0.2769395
0.977921,-0.175267,-0.2793335
0.9804325,-0.1748387,-0.2827286
0.9797442,-0.1768714,-0.2831692
0.9793648,-0.1784894,-0.2805666
0.9785115,-0.1764408,-0.2823131
0.9768502,-0.1751298,-0.2826182
0.9773664,-0.1751522,-0.2808541
0.9780585,-0.176742,-0.2827634
0.9784717,-0.1783603,-0.2810568
0.978875,-0.1768672,-0.2779291
0.9781252,-0.1758353,-0.2764038
0.9786726,-0.1764859,-0.2770732
0.9794601,-0.1763922,-0.2808705
0.9790555,-0.1754976,-0.2794276
0.9792663,-0.1754636,-0.2799549
0.9790821,-0.1759632,-0.2836781
0.9791553,-0.1759454,-0.2810743
0.9793065,-0.1772475,-0.2792603
0.9789534,-0.1782496,-0.2766168
0.979351,-0.1767377,-0.2733806
0.979098,-0.1760725,-0.2755912
0.9789157,-0.1776311,-0.2778841
0.9789814,-0.1795611,-0.2841449
0.9799934,-0.1820648,-0.2918111
0.982786,-0.183812,-0.2895568
0.9824509,-0.1817327,-0.2870206
0.9809571,-0.1794814,-0.2898256
0.9812818,-0.1806587,-0.2877833
0.9793098,-0.181005,-0.2838205
0.97753,-0.1802868,-0.2814006
0.9779389,-0.1817869,-0.2771488
0.9778257,-0.1830584,-0.2765022
0.978651,-0.1827427,-0.2771595
0.9796109,-0.182321,-0.277003
0.9790594,-0.1813538,-0.279291
0.9790945,-0.1795067,-0.279163
0.9792715,-0.1786224,-0.2805458
0.9789093,-0.1802699,-0.2812544
0.9783225,-0.1807803,-0.2766159
0.9774779,-0.1782307,-0.2764025
0.9778566,-0.1764196,-0.2782666
0.9790725,-0.1763843,-0.2794324
0.9800166,-0.1784391,-0.2797592
0.9798683,-0.1808259,-0.2772917
0.9779746,-0.1807271,-0.277968
0.977212,-0.1800884,-0.2781092
0.9778838,-0.1789553,-0.2781444
0.9769237,-0.1779463,-0.2799356
0.9759224,-0.1782109,-0.2778811
0.9768164,-0.1761408,-0.2779405
0.9783127,-0.1712205,-0.2807447
0.9795696,-0.1683527,-0.2823128
0.9796199,-0.1701293,-0.2809469
0.9796585,-0.1717923,-0.2758529
0.9808083,-0.1712694,-0.2748998
0.9795351,-0.1741228,-0.2787752
0.9766503,-0.177898,-0.2826553
0.9762167,-0.177118,-0.2826223
0.9772635,-0.1782005,-0.2792429
0.9779841,-0.1821723,-0.277223
0.9770015,-0.1817107,-0.274026
0.97577,-0.1812423,-0.2742861
0.9765406,-0.1833356,-0.2773188
0.9765696,-0.1837295,-0.2758162
0.9761174,-0.1836596,-0.2769621
0.9764069,-0.1800253,-0.2802831
0.9754342,-0.1762914,-0.2842072
0.974851,-0.1782514,-0.288476
0.9759005,-0.1771228,-0.2874977
0.9765781,-0.1758687,-0.2886952
0.9753927,-0.1797667,-0.2886809
0.9735708,-0.1811547,-0.2806508
0.9739503,-0.1806996,-0.2755971
0.9763929,-0.1803326,-0.2754817
0.9785586,-0.1804339,-0.2754438
0.9781344,-0.1809732,-0.274565
0.9778211,-0.1804897,-0.2744532
0.9816918,-0.1825126,-0.2738555
0.984373,-0.1829667,-0.2710966
0.9819426,-0.1776281,-0.2723233
0.9785254,-0.1724589,-0.2738848
0.9771092,-0.17283,-0.2737825
0.9779185,-0.17574,-0.2777491
0.9786133,-0.1748329,-0.2802309
0.977457,-0.1750157,-0.280244
0.9759609,-0.1777956,-0.2803303
0.9748098,-0.1796775,-0.2793187
0.970566,-0.1824833,-0.2773408
0.9649823,-0.1821644,-0.276114
0.9680596,-0.1815676,-0.2801408
0.9747855,-0.1832533,-0.2834528
0.9754893,-0.1824916,-0.2817867
0.976594,-0.1825763,-0.2810066
0.9771166,-0.1826144,-0.2791839
0.9754542,-0.1817036,-0.2751951
0.9768926,-0.1826607,-0.2743274
0.9766895,-0.1854438,-0.2778255
0.9767274,-0.1878679,-0.2811864
0.9786797,-0.1833423,-0.2824482
0.9774892,-0.1786639,-0.2823205
0.97742,-0.1824402,-0.2809949
0.977271,-0.184442,-0.2802166
0.9757356,-0.1809949,-0.2781475
0.9765287,-0.1801056,-0.2780366
0.9765308,-0.182652,-0.2827038
0.9761922,-0.1834154,-0.285275
0.9765382,-0.1806693,-0.2843499
0.9764781,-0.1786343,-0.2797144
0.9775077,-0.1816466,-0.2767863
0.9789259,-0.184866,-0.2785923
0.978824,-0.1829809,-0.2759482
0.9755282,-0.1814671,-0.2752472
0.9728929,-0.1809045,-0.2783468
0.9760695,-0.1798097,-0.2777714
0.9793056,-0.1816976,-0.2785681
0.9778717,-0.181815,-0.2766051
0.9779636,-0.18025,-0.2748075
0.979745,-0.1810176,-0.2787367
0.9772893,-0.1799775,-0.2777975
0.9757447,-0.1785268,-0.2772764
0.9785016,-0.1775765,-0.2797837
0.9796375,-0.1762079,-0.279776
0.9782805,-0.1772293,-0.2820738
0.9774159,-0.1789299,-0.2818478
0.9787,-0.1809517,-0.2785116
0.9797535,-0.1802978,-0.2765912
0.9789316,-0.1769336,-0.275821
0.9789417,-0.1778639,-0.2787434
0.978439,-0.1787124,-0.2801851
0.9771589,-0.1798309,-0.2803942
0.9768913,-0.1833172,-0.2820276
0.9762797,-0.1818308,-0.2810096
0.9763412,-0.1803208,-0.2803584
0.9775077,-0.1809587,-0.278208
0.9779889,-0.18049,-0.2751646
0.9776306,-0.1821678,-0.2773111
0.9767859,-0.1821977,-0.2788681
0.9761595,-0.1799514,-0.2782236
0.9763076,-0.1805569,-0.2788509
0.9765445,-0.182803,-0.2768729
0.9763237,-0.1837689,-0.2737362
0.9765207,-0.1831543,-0.275202
0.9773799,-0.182315,-0.277732
0.9779725,-0.1811932,-0.2789755
0.9779055,-0.1791716,-0.281561
0.9776042,-0.1771544,-0.2824484
0.9779971,-0.1773205,-0.281934
0.9787679,-0.1784325,-0.2830828
0.9792966,-0.1775215,-0.2846084
0.9793684,-0.1775686,-0.285872
0.9791341,-0.1785617,-0.2846939
0.980088,-0.1792106,-0.2807686
0.9809728,-0.181214,-0.2777053
0.9802886,-0.1809014,-0.2774091
0.9792235,-0.179517,-0.2786215
0.9772082,-0.1790497,-0.2799327
0.9758527,-0.1762863,-0.2813294
0.9773037,-0.1756512,-0.2805376
0.9783537,-0.1770394,-0.2797905
0.9776426,-0.176144,-0.2797865
0.9777849,-0.1768087,-0.2759039
0.9785336,-0.1793536,-0.2746334
0.9779044,-0.1807508,-0.279104
0.9778788,-0.1790491,-0.282561
0.980302,-0.1753679,-0.2825979
0.9814445,-0.1746673,-0.2808526
0.9801384,-0.1754291,-0.2803546
0.9803735,-0.1766203,-0.2791581
0.9808248,-0.1789717,-0.2792505
0.9791376,-0.1792018,-0.2811833
0.9778846,-0.1792388,-0.2776362
0.9766992,-0.1793329,-0.2757939
0.9755626,-0.1787763,-0.2803722
0.9748352,-0.1791742,-0.282213
0.97306,-0.1772658,-0.2777786
0.9743399,-0.1756567,-0.2728551
0.9797401,-0.1767215,-0.2748483
0.9841143,-0.1775216,-0.2757488
0.983901,-0.1789215,-0.2717358
0.9804468,-0.179512,-0.2730502
0.9792594,-0.178891,-0.2758489
0.9792017,-0.1782542,-0.2752757
0.9787884,-0.17749,-0.2746505
0.9795865,-0.17704,-0.2747481
0.978646,-0.1743183,-0.2744833
0.9772099,-0.1710632,-0.2733628
0.9763988,-0.1718092,-0.2762272
0.9768752,-0.1737611,-0.2816905
0.9793761,-0.1755958,-0.2835131
0.9788482,-0.1795445,-0.2820809
0.9788811,-0.180377,-0.2808241
0.9823004,-0.1778454,-0.2809128
0.9851639,-0.1783974,-0.27672
0.987342,-0.1770952,-0.272224
0.9829773,-0.1752125,-0.2737998
0.9764274,-0.1771109,-0.2746416
0.9789661,-0.1757821,-0.2767814
0.9810554,-0.1733045,-0.2805778
0.9797384,-0.171978,-0.2793986
0.9827212,-0.1714356,-0.2784067
0.9823667,-0.1734007,-0.2792574
0.9789365,-0.1745055,-0.2772455
0.9793751,-0.1787093,-0.2746477
0.9794961,-0.1825447,-0.2747696
0.9817003,-0.179832,-0.2752675
0.9842899,-0.1792249,-0.275199
0.9811335,-0.1795769,-0.2768393
0.9788038,-0.1785773,-0.2783413
0.9790539,-0.1795374,-0.2775742
0.979053,-0.1791462,-0.2747649
0.9783932,-0.1789342,-0.2701108
0.9772793,-0.1791128,-0.2671557
0.9780365,-0.1771575,-0.2707201
0.9788357,-0.17574,-0.2767371
0.9795759,-0.17534,-0.2797252
0.9812369,-0.1751921,-0.2834934
0.9818232,-0.1758904,-0.2852853
0.9805024,-0.1775993,-0.2802918
0.9782798,-0.1783016,-0.2732882
0.9786078,-0.1774722,-0.2709787
0.9780769,-0.1776113,-0.2781809
0.9751068,-0.177062,-0.2835883
0.9761312,-0.1758899,-0.2809687
0.9787761,-0.17609,-0.2810015
0.9800478,-0.1745814,-0.2801841
0.9795962,-0.172011,-0.2794864
0.9773311,-0.1721738,-0.2818308
0.9781624,-0.1743078,-0.2793191
0.979906,-0.1758846,-0.276632
0.9803757,-0.1768371,-0.2752507
0.9803303,-0.1780852,-0.2765062
0.9783423,-0.1781179,-0.2802814
0.9786944,-0.1768635,-0.2738124
0.9780866,-0.175194,-0.2652082
0.975287,-0.1729514,-0.2658607
0.9779748,-0.1734178,-0.2717857
0.9812406,-0.1761615,-0.2791007
0.9820656,-0.1766342,-0.2789383
0.9814031,-0.1763644,-0.2762492
0.9787456,-0.1764588,-0.2784024
0.9790225,-0.1762019,-0.2764291
0.9795063,-0.1765762,-0.2731866
0.9784349,-0.1761569,-0.2737512
0.9776671,-0.1753775,-0.2750284
0.9759053,-0.1758404,-0.2754195
0.9770017,-0.1791538,-0.2726879
0.9784821,-0.1830746,-0.271528
0.9763824,-0.1795696,-0.2729788
0.975099,-0.1748248,-0.2741548
0.9752565,-0.1771474,-0.2774199
0.9772033,-0.1795556,-0.2787668
0.9811903,-0.1804043,-0.2782783
0.9825106,-0.1793006,-0.2794928
0.9798737,-0.1756445,-0.2793298
0.9775766,-0.1760415,-0.2794483
0.978473,-0.1770767,-0.2821562
0.9797026,-0.1758389,-0.2850397
0.9791266,-0.1765912,-0.2849243
0.9789723,-0.1765208,-0.2815306
0.9789827,-0.1760715,-0.2779621
0.9773287,-0.177066,-0.2780661
0.9757962,-0.1781667,-0.2829007
0.9762521,-0.1806103,-0.2835389
0.977468,-0.1811855,-0.2800524
0.9797618,-0.1800401,-0.281353
0.9828043,-0.1801941,-0.2792128
0.9809606,-0.1776192,-0.2731644
0.9756942,-0.1735692,-0.2726889
0.9748197,-0.1732933,-0.2761095
0.977676,-0.1757108,-0.2804288
0.9801281,-0.1775749,-0.2769585
0.9801012,-0.1792025,-0.270548
0.98097,-0.1820267,-0.2729868
0.9837757,-0.1827411,-0.2755934
0.9793027,-0.1806623,-0.2810327
0.9738588,-0.1782298,-0.2864325
0.9767451,-0.1748986,-0.2782304
0.9772381,-0.1753667,-0.2726755
0.9754694,-0.1802593,-0.2789257
0.9768292,-0.1813095,-0.282623
0.9766214,-0.180399,-0.2801821
0.9769748,-0.1813783,-0.2797648
0.9787135,-0.1812508,-0.2807722
0.9798688,-0.1804437,-0.2765598
0.9826735,-0.1802632,-0.2733532
0.9843038,-0.1802091,-0.273357
0.982691,-0.177991,-0.2722816
0.9814742,-0.1752631,-0.273711
0.9811085,-0.1770547,-0.2758215
0.9806988,-0.1805116,-0.2749967
0.9799158,-0.1815111,-0.2735992
0.9785318,-0.1771605,-0.27359
0.9790922,-0.171235,-0.2738421
0.9794992,-0.1731995,-0.2748561
0.9777859,-0.175171,-0.2781942
0.97768,-0.1728242,-0.2786982
0.9780172,-0.1757287,-0.2729767
0.9785225,-0.1784308,-0.2675932
0.9794964,-0.1774628,-0.2709031
0.9781719,-0.178176,-0.2762333
0.9773659,-0.1787826,-0.2752738
0.977876,-0.180375,-0.2775287
0.9776327,-0.1819321,-0.281734
0.9768895,-0.1807493,-0.2813592
0.9762204,-0.1795696,-0.281907
0.9772578,-0.1783662,-0.2812931
0.9775241,-0.1773515,-0.2801056
0.9741435,-0.1762063,-0.2816355
0.9710054,-0.175959,-0.2822605
0.9724243,-0.1784389,-0.2821598
0.9759241,-0.1807494,-0.2826618
0.9776146,-0.1834548,-0.2836865
0.9784498,-0.1842247,-0.2831778
0.978793,-0.1821584,-0.2809528
0.9799647,-0.1818142,-0.2794202
0.9813869,-0.1806308,-0.2788027
0.9802229,-0.1821441,-0.28057
0.9803614,-0.1874431,-0.2828639
0.9808356,-0.1873933,-0.2825207
0.9792346,-0.1836817,-0.2782659
0.9787454,-0.1803973,-0.2735289
0.9773265,-0.1787045,-0.2771304
0.9758139,-0.1787012,-0.281633
0.9767173,-0.1808276,-0.2804789
0.9783374,-0.1866782,-0.2855966
0.979335,-0.1870291,-0.291382
0.9774863,-0.1829484,-0.2876345
0.9755263,-0.1840046,-0.2852842
0.9763922,-0.1859154,-0.2865073
0.9771156,-0.1877587,-0.2850212
0.9779122,-0.1865386,-0.2839288
0.9793495,-0.1824626,-0.2835144
0.9776016,-0.1824595,-0.282765
0.97452,-0.1806759,-0.2828953
0.975862,-0.1811193,-0.2802987
0.9780215,-0.1853706,-0.2777079
0.9777661,-0.1840708,-0.2799251
0.9776746,-0.1851698,-0.2814305
0.9771796,-0.1872798,-0.2826611
0.9776819,-0.1844642,-0.2870899
0.9788578,-0.1846698,-0.2899787
0.9773945,-0.1859106,-0.2898745
0.9754853,-0.1860856,-0.2880177
0.9749904,-0.1863015,-0.285631
0.97569,-0.1846685,-0.2832162
0.9768406,-0.1836792,-0.2813746
0.9761605,-0.1831069,-0.2838359
0.9742462,-0.1831334,-0.2866844
0.9732959,-0.1835402,-0.2861374
0.973419,-0.1819791,-0.2859912
0.9740071,-0.1808201,-0.2861681
0.9745194,-0.1801695,-0.2855689
0.9750757,-0.1793224,-0.2834454
0.9751281,-0.1785035,-0.2816066
0.9738353,-0.1782356,-0.284389
0.9733433,-0.180458,-0.2874751
0.9737321,-0.1803093,-0.2856242
0.9735344,-0.1756082,-0.2827071
0.973681,-0.1727664,-0.2806412
0.9735848,-0.1749442,-0.2761668
0.9740929,-0.1784968,-0.2722886
0.9765931,-0.1798539,-0.2730979
0.9793488,-0.1822897,-0.2744371
0.979855,-0.1831946,-0.2742755
0.978818,-0.1800078,-0.277715
0.9800854,-0.1786406,-0.2824261
0.9808191,-0.1764728,-0.2811964
0.9784524,-0.177845,-0.2815263
0.9774593,-0.1836368,-0.2865618
0.9785612,-0.1810855,-0.2866855
0.979691,-0.1788649,-0.2849892
0.9788749,-0.1798611,-0.2837987
0.9773282,-0.1768714,-0.2809738
0.9780128,-0.1786304,-0.2812573
0.9793616,-0.1811347,-0.2808948
0.9796685,-0.1801947,-0.2781572
0.9786435,-0.1808356,-0.2791518
0.9779487,-0.1811535,-0.2818047
0.9767158,-0.1840459,-0.2865879
0.9738009,-0.1874266,-0.2942732
0.9729433,-0.1864577,-0.2934228
0.9722634,-0.1869012,-0.2865718
0.9719734,-0.1907911,-0.2881868
0.9741659,-0.1918133,-0.2907452
0.9739981,-0.1866234,-0.2888946
0.9730998,-0.181307,-0.2914602
0.9736507,-0.1811893,-0.2932569
0.9729578,-0.1827673,-0.29276
0.9726929,-0.1827664,-0.2935839
0.9740364,-0.1832612,-0.2904013
0.97485,-0.1843845,-0.2877635
0.9748706,-0.1856005,-0.2825838
0.9752416,-0.1883431,-0.2720953
0.9749467,-0.1877781,-0.274698
0.9748141,-0.1837762,-0.2813419
0.9752821,-0.1803104,-0.2787582
0.9748002,-0.1761023,-0.2827148
0.9750193,-0.1767642,-0.2867515
0.97497,-0.1802417,-0.2835755
0.9740605,-0.1802937,-0.2829587
0.9742446,-0.1814969,-0.2827162
0.9743687,-0.1822479,-0.2867855
0.9743251,-0.1833293,-0.2922848
0.9740932,-0.1845275,-0.2884672
0.9735614,-0.1832478,-0.284743
0.9734634,-0.1856124,-0.2855369
0.9736273,-0.1871065,-0.2848594
0.9737594,-0.1869914,-0.2851181
0.9734466,-0.1881785,-0.2871926
0.9736519,-0.185059,-0.2875644
0.9737271,-0.1838805,-0.2871795
0.9735872,-0.1839615,-0.286262
0.9748604,-0.1812191,-0.2859702
0.9760987,-0.1823778,-0.2902185
0.976526,-0.1855208,-0.2922127
0.9755491,-0.1867002,-0.2878821
0.9742735,-0.1842214,-0.2848361
0.9746136,-0.1821967,-0.2861444
0.9755972,-0.1838458,-0.2887641
0.9784247,-0.1833407,-0.2889912
0.9797498,-0.1832419,-0.2888588
0.9755697,-0.1845687,-0.2891226
0.9712601,-0.1846959,-0.2884892
0.9704877,-0.185018,-0.288854
0.9726182,-0.1842883,-0.2870609
0.974535,-0.1838439,-0.2853023
0.9738788,-0.1834588,-0.2863216
0.9750128,-0.1838019,-0.2865081
0.9773288,-0.1854605,-0.288215
0.9764379,-0.1848083,-0.2912322
0.9759005,-0.1854676,-0.2923744
0.9767867,-0.1876869,-0.2908842
0.9762909,-0.1874288,-0.2876977
0.9762424,-0.186572,-0.2852868
0.9766162,-0.1860092,-0.2847599
0.9762254,-0.1868685,-0.2873295
0.9760678,-0.1878877,-0.2924167
0.9746779,-0.1865047,-0.2970279
0.9732984,-0.1856661,-0.2940954
0.9752889,-0.1863854,-0.2882918
0.9771289,-0.1871068,-0.2914641
0.9754803,-0.1874894,-0.2928881
0.9742965,-0.1865552,-0.2901333
0.975255,-0.1847896,-0.2900327
0.9753166,-0.1843749,-0.2855743
0.9754372,-0.1849038,-0.2838336
0.9761565,-0.1847215,-0.2886511
0.9753173,-0.1849902,-0.2922422
0.9744747,-0.1866062,-0.2935756
0.9736331,-0.1879834,-0.2898455
0.972994,-0.1877295,-0.2858265
0.9743943,-0.1869271,-0.2858368
0.9754688,-0.1864138,-0.2861281
0.9765234,-0.1841761,-0.2863111
0.9766734,-0.18242,-0.2866471
0.9739839,-0.1835398,-0.2889745
0.9731884,-0.1835901,-0.2893556
0.9737499,-0.1835243,-0.2852032
0.9736785,-0.1862248,-0.2850457
0.9745071,-0.1882862,-0.287289
0.9743966,-0.18773,-0.285791
0.9745409,-0.1868256,-0.2854671
0.9759962,-0.1868145,-0.2860935
0.9768357,-0.186004,-0.284916
0.9766276,-0.1856683,-0.2862406
0.9769166,-0.1864022,-0.286814
0.9783612,-0.1848845,-0.2847923
0.9776637,-0.1833682,-0.2838009
0.9762768,-0.1836654,-0.2814388
0.975482,-0.184916,-0.2826032
0.9734993,-0.1863437,-0.2875731
0.9734099,-0.1834139,-0.2890682
0.9736436,-0.1793136,-0.2915
0.9730492,-0.1789843,-0.2944919
0.9748107,-0.1794067,-0.293357
0.9769897,-0.1806371,-0.2894525
0.9769196,-0.1819445,-0.2873649
0.9757651,-0.1835802,-0.2896034
0.9764948,-0.1872422,-0.2892047
0.97678,-0.1868856,-0.2880484
0.9758525,-0.1836161,-0.2882205
0.976726,-0.180493,-0.2814326
0.9767589,-0.1752221,-0.275946
0.9778753,-0.1779813,-0.28009
0.9797545,-0.1852947,-0.2839142
0.9772924,-0.1828151,-0.2814053
0.9755157,-0.1807147,-0.2795307
0.9768644,-0.1811397,-0.2817873
0.9780616,-0.1794867,-0.2836986
0.977927,-0.1812467,-0.2853507
0.9767332,-0.180647,-0.2841758
0.9767041,-0.1796693,-0.2822605
0.9766841,-0.1808817,-0.2854735
0.9759865,-0.1793869,-0.2876889
0.9764884,-0.1794283,-0.2892772
0.9765858,-0.178765,-0.2888177
0.9761196,-0.1798418,-0.2829912
0.9765298,-0.182939,-0.2797043
0.9767958,-0.1821253,-0.2796858
0.9780008,-0.1847662,-0.2808789
0.9798914,-0.1829535,-0.2794658
0.9791164,-0.1752475,-0.2771216
0.9772827,-0.1761822,-0.2776729
0.9751596,-0.1769298,-0.2744206
0.9727983,-0.1762511,-0.2756663
0.9742584,-0.1797181,-0.2805863
0.9759859,-0.1809477,-0.2795635
0.9746217,-0.1805894,-0.2822272
0.9749997,-0.1784164,-0.281968
0.9768244,-0.1774339,-0.2773024
0.979028,-0.180098,-0.2801059
0.9806847,-0.1819841,-0.2829634
0.9763046,-0.1834217,-0.2831956
0.9725989,-0.1831561,-0.2804552
0.9789609,-0.1821632,-0.2749684
0.984549,-0.1808868,-0.27439
0.9810855,-0.1788995,-0.2761137
0.9769304,-0.1794601,-0.2794577
0.9742765,-0.1801917,-0.2833784
0.9717019,-0.1815767,-0.2822861
0.9734311,-0.1826512,-0.2811156
0.9761495,-0.1807662,-0.2823574
0.9764815,-0.1784951,-0.2817236
0.9770837,-0.1754401,-0.2797784
0.9778862,-0.17657,-0.278898
0.9796489,-0.1819857,-0.2789436
0.9797503,-0.1840746,-0.2791892
0.9783205,-0.1834202,-0.2783479
0.9796217,-0.181035,-0.2779525
0.9792843,-0.1799574,-0.2814834
0.9783096,-0.1808665,-0.2840446
0.9779337,-0.180398,-0.2802911
0.9758626,-0.1804385,-0.2750529
0.9779755,-0.1793664,-0.2741616
0.9800264,-0.1769205,-0.2751006
0.9768425,-0.1759848,-0.2731691
0.9747636,-0.1763548,-0.272222
0.974986,-0.1780325,-0.2759785
0.9762084,-0.1800198,-0.2798217
0.9775864,-0.18249,-0.2788664
0.9780134,-0.1824357,-0.2765118
0.9778347,-0.1795919,-0.2766058
0.9773984,-0.1799589,-0.2738241
0.9770314,-0.1792492,-0.2707205
0.9761156,-0.1758642,-0.2737632
0.9763361,-0.1760122,-0.2789112
0.9778355,-0.1770293,-0.2829588
0.978895,-0.1770574,-0.2801466
0.9804341,-0.1782055,-0.2717625
0.9808965,-0.1789247,-0.2695799
0.9803499,-0.178738,-0.2712299
0.9800972,-0.1776401,-0.2718512
0.978229,-0.1758959,-0.2729013
0.9773202,-0.1771421,-0.2738828
0.9794522,-0.1795893,-0.2755298
0.9797591,-0.1793288,-0.2753357
0.9774253,-0.1799248,-0.2752845
0.9766685,-0.1810542,-0.2798688
0.9767863,-0.1804259,-0.2832619
0.9777773,-0.1803222,-0.2819024
0.9800745,-0.1795719,-0.2788878
0.9793213,-0.177928,-0.276218
0.9785051,-0.1774598,-0.274619
0.9793867,-0.1781773,-0.2770703
0.9775309,-0.1793608,-0.282685
0.9774753,-0.1791504,-0.284229
0.97984,-0.1775037,-0.2831657
0.9794688,-0.1772117,-0.2830757
0.9787241,-0.1786249,-0.2822057
0.979298,-0.1793875,-0.2808007
0.9791529,-0.1798297,-0.279116
0.9780395,-0.1795307,-0.2789806
0.9777897,-0.1786203,-0.2793719
0.9786442,-0.1807348,-0.2784053
0.9792718,-0.1828902,-0.2766876
0.9784708,-0.1828566,-0.2751602
0.9771661,-0.1811724,-0.2803306
0.9780216,-0.1783998,-0.2875769
0.9793223,-0.1815681,-0.2856822
0.9808693,-0.1851654,-0.2797695
0.9824606,-0.1820859,-0.2766409
0.9801405,-0.1794106,-0.2766589
0.9774633,-0.1770869,-0.2760109
0.9758176,-0.1760411,-0.2724818
0.9729192,-0.1771003,-0.2736522
0.973817,-0.1766311,-0.2791215
0.9763923,-0.1798748,-0.2831087
0.9756273,-0.1833474,-0.2861502
0.9761974,-0.1804109,-0.2842398
0.9774811,-0.1770567,-0.2800211
0.9776041,-0.1759222,-0.2790506
0.979782,-0.1761526,-0.2781179
0.9793792,-0.1767928,-0.2777871
0.9762942,-0.1762085,-0.2765363
0.9755008,-0.1762944,-0.277155
0.9750711,-0.1766129,-0.2808575
0.9775569,-0.1763804,-0.2791041
0.9805159,-0.1776995,-0.2794393
0.9785919,-0.1798994,-0.2827937
0.9770058,-0.1805508,-0.2824605
0.9767986,-0.1776335,-0.2865035
0.9786214,-0.1734217,-0.2897404
0.9816626,-0.1736836,-0.2847155
0.9796436,-0.1778077,-0.2782754
0.9770514,-0.1814086,-0.277154
0.9770968,-0.1829378,-0.2794222
0.9764542,-0.1833001,-0.2785056
0.97793,-0.1832966,-0.2787494
0.9799438,-0.1815996,-0.2800365
0.978232,-0.180713,-0.2785539
0.9770858,-0.1823316,-0.2792626
0.9780634,-0.1822381,-0.2798284
0.978021,-0.1813579,-0.2805134
0.9782994,-0.1812643,-0.2824756
0.9788802,-0.1804686,-0.2802403
0.9784497,-0.1812231,-0.2784898
0.9790951,-0.1825424,-0.2811351
0.9796515,-0.1818915,-0.2827845
0.9786584,-0.1815135,-0.2815018
0.9780696,-0.1811252,-0.2800034
0.9766966,-0.1791184,-0.2794771
0.9750169,-0.1778237,-0.2790858
0.9756724,-0.1777531,-0.2797898
0.9758238,-0.1776501,-0.2826347
0.9747228,-0.1786018,-0.2857991
0.9750218,-0.1810081,-0.2875961
0.9760702,-0.1825153,-0.2883563
0.9766416,-0.1805861,-0.2851196
0.976407,-0.1794148,-0.27985
0.9762598,-0.1813857,-0.2815484
0.976497,-0.180233,-0.2834239
0.9763443,-0.1781135,-0.2811505
0.9767384,-0.1779648,-0.283967
0.97821,-0.1770027,-0.2863355
0.9796703,-0.1772054,-0.2857328
0.9792408,-0.177236,-0.2843778
0.9780061,-0.1801625,-0.2783597
0.9784414,-0.1854711,-0.2783716
0.9786991,-0.1831584,-0.2853163
0.9777547,-0.1801413,-0.2869355
0.9763867,-0.1801625,-0.2857916
0.9763818,-0.1784983,-0.2834493
0.9796136,-0.1801291,-0.2790729
0.9804234,-0.1813329,-0.2770127
0.9780618,-0.1800368,-0.2787163
0.9796421,-0.1811021,-0.282256
0.9816119,-0.1823963,-0.2841024
0.9815069,-0.1829808,-0.2843007
0.981525,-0.1801858,-0.2815748
0.9792403,-0.1764644,-0.2778358
0.9792475,-0.1794141,-0.2808025
0.9806486,-0.1815032,-0.2831391
0.9785388,-0.1773576,-0.2795074
0.9785769,-0.1753049,-0.2790292
0.9779453,-0.1764009,-0.2820689
0.9757123,-0.175762,-0.28454
0.9782008,-0.1753791,-0.2845294
0.9799569,-0.1793947,-0.2818393
0.9779384,-0.1836292,-0.2802445
0.976332,-0.1817141,-0.2815711
0.9762592,-0.1780515,-0.2830497
0.9766529,-0.1765655,-0.2815017
0.9772128,-0.1745484,-0.2818263
0.9781182,-0.1730017,-0.284605
0.9776702,-0.1721606,-0.2846321
0.9766503,-0.1727854,-0.2848204
0.9763061,-0.175358,-0.2833305
0.9762098,-0.1752062,-0.2799258
0.9767499,-0.1747983,-0.2793794
0.9774295,-0.1764533,-0.2818711
0.9786521,-0.1773018,-0.2873511
0.9789965,-0.1783842,-0.2882992
0.9778185,-0.1787185,-0.2848797
0.9774702,-0.1788952,-0.284538
0.9763588,-0.1784202,-0.2846764
0.9760446,-0.1752889,-0.2858202
0.9787353,-0.1746114,-0.2865024
0.9796784,-0.1766618,-0.2858071
0.9788298,-0.1787447,-0.2863703
0.9777729,-0.1790387,-0.2859326
0.9747711,-0.1764983,-0.2861318
0.9729214,-0.1779581,-0.2855612
0.9743959,-0.182485,-0.2822507
0.9757069,-0.1837809,-0.2795778
0.9754272,-0.1834743,-0.279589
0.9773515,-0.1821549,-0.2820597
0.9801941,-0.1815442,-0.2819935
0.9782351,-0.1817051,-0.2794341
0.9760786,-0.1789357,-0.2767165
0.9772888,-0.1762379,-0.2746017
0.9772917,-0.1771869,-0.2775954
0.9772051,-0.1801484,-0.2821492
0.9788022,-0.181109,-0.2837135
0.9796858,-0.1791844,-0.2839874
0.9787466,-0.1779507,-0.2844226
0.977114,-0.1775886,-0.2870153
0.9761339,-0.1778649,-0.2880254
0.97642,-0.1790877,-0.2851957
0.9784944,-0.1801341,-0.2833149
0.9797211,-0.1811704,-0.2816269
0.979097,-0.1814348,-0.2810249
0.9790775,-0.1817666,-0.2825467
0.9792046,-0.1814643,-0.2799539
0.9791874,-0.1799057,-0.2780522
0.9791615,-0.1805377,-0.2799995
0.9787536,-0.1809502,-0.2798432
0.9774819,-0.1799735,-0.2807253
0.9757511,-0.1798635,-0.2809823
0.9762064,-0.1789257,-0.2799325
0.9768524,-0.1787018,-0.2812018
0.9760808,-0.1786887,-0.2813006
0.9769529,-0.1776184,-0.2809885
0.9792294,-0.1794509,-0.277031
0.9811761,-0.181306,-0.2724771
0.9808228,-0.1795645,-0.2793914
0.9790203,-0.1789297,-0.2883803
0.9791393,-0.1811455,-0.2883929
0.9792721,-0.1824274,-0.2858546
0.9789592,-0.1810783,-0.2830741
0.9792138,-0.1799673,-0.2784675
0.9779717,-0.1806731,-0.2782346
0.9765741,-0.1803976,-0.2812358
0.9761748,-0.1783489,-0.2804352
0.9762897,-0.1764571,-0.2808241
0.9766338,-0.1759329,-0.2837263
0.9765776,-0.1771168,-0.2841845
0.9781653,-0.1791905,-0.2804481
0.9796921,-0.1811265,-0.2737194
0.9782839,-0.1810588,-0.2721467
0.9772337,-0.1799021,-0.2731584
0.9780239,-0.1805796,-0.2725592
0.9788831,-0.1797666,-0.2769414
0.9792424,-0.1775249,-0.2818147
0.9787697,-0.1781042,-0.2836507
0.9764,-0.1803209,-0.2822437
0.9742912,-0.1843936,-0.2781914
0.9757297,-0.1867052,-0.2813703
0.9771634,-0.1840841,-0.2887612
0.9760202,-0.1832158,-0.2914729
0.975264,-0.1837725,-0.2848255
0.9755644,-0.1825682,-0.2754422
0.9774298,-0.1816383,-0.2806862
0.980138,-0.1802066,-0.2859987
0.9791947,-0.1802335,-0.2816059
0.9765569,-0.1820574,-0.2834835
0.9763334,-0.1819903,-0.2832272
0.9762387,-0.1818542,-0.2804531
0.9763795,-0.1821285,-0.2831807
0.9766451,-0.1815483,-0.2835584
0.9760567,-0.1815437,-0.2849213
0.976583,-0.1815511,-0.2848092
0.9762568,-0.1812962,-0.2801732
0.9752545,-0.1804053,-0.278446
0.9750256,-0.1800599,-0.2778738
0.9746812,-0.1807496,-0.2784445
0.9750734,-0.1789515,-0.280474
0.9741248,-0.1789387,-0.282415
0.9734412,-0.1820774,-0.2824009
0.9756138,-0.1817262,-0.2799126
0.97692,-0.1799168,-0.2817862
0.9763572,-0.1780547,-0.2828171
0.9751753,-0.1754808,-0.2799197
0.9750031,-0.1761593,-0.2818601
0.975972,-0.1782322,-0.2839874
0.9765636,-0.1785716,-0.2829384
0.9766195,-0.1807871,-0.2831494
0.9757505,-0.1866935,-0.2827304
0.9746675,-0.1919409,-0.2813849
0.9737832,-0.1908603,-0.2831586
0.9757827,-0.1856918,-0.2887459
0.9792471,-0.1839572,-0.2941025
0.9776498,-0.1830108,-0.2933434
0.9760646,-0.1817003,-0.2873241
0.9768743,-0.1825687,-0.285016
0.9759853,-0.1819977,-0.2862284
0.9764433,-0.1845026,-0.286215
0.9766673,-0.1875946,-0.2862116
0.9761635,-0.1856346,-0.2858849
0.9777672,-0.1854503,-0.2856807
0.9788563,-0.183751,-0.2835805
0.9788875,-0.1807926,-0.2807852
0.9760874,-0.1820977,-0.2819727
0.9711687,-0.183236,-0.2823891
0.9699644,-0.184125,-0.2821052
0.9710678,-0.1869235,-0.2853025
0.9717393,-0.1895923,-0.289801
0.9741958,-0.1872191,-0.2922636
0.9771479,-0.1828522,-0.2921851
0.9749943,-0.1831223,-0.2941513
0.9711569,-0.1835709,-0.2977606
0.9724275,-0.1834934,-0.3004683
0.9736151,-0.1856477,-0.3023329
0.9732961,-0.1883151,-0.2966653
0.9740961,-0.1897035,-0.2864167
0.9737032,-0.1885363,-0.2850085
0.9754691,-0.187693,-0.2880271
0.9781948,-0.1876278,-0.2890481
0.9773321,-0.1869735,-0.2926576
0.9750204,-0.1868275,-0.2928577
0.9728002,-0.1860642,-0.29107
0.973269,-0.1866598,-0.2941352
0.9743264,-0.1884197,-0.2940354
0.9731622,-0.188073,-0.2956435
0.9736144,-0.1880037,-0.3004711
0.9739084,-0.1876913,-0.2976948
0.972724,-0.1873037,-0.2959948
0.9711519,-0.1896491,-0.2976649
0.9689578,-0.1908579,-0.2952396
0.970782,-0.1905329,-0.2951478
0.9735788,-0.1920049,-0.3016543
0.9716205,-0.1936001,-0.3072356
0.9695998,-0.1926285,-0.3025375
0.9677,-0.1890067,-0.2959202
0.9659456,-0.1867726,-0.2971284
0.9686317,-0.1881462,-0.296721
0.9713345,-0.1894603,-0.2972093
0.9735634,-0.1879807,-0.3018653
0.977475,-0.186778,-0.299938
0.9762543,-0.1881771,-0.2967035
0.9735173,-0.1893839,-0.2931904
0.9753012,-0.1905029,-0.2876435
0.974516,-0.1908209,-0.2944148
0.9726291,-0.1896709,-0.302797
0.9740055,-0.1904836,-0.2998059
0.9740911,-0.1915837,-0.3022462
0.9750354,-0.1951873,-0.3110691
0.9769252,-0.2004593,-0.3142076
0.9740952,-0.1978479,-0.309341
0.9699619,-0.1938081,-0.3018333
0.9437346,-0.1825121,-0.3690691
0.9435447,-0.1792663,-0.3685937
0.9427369,-0.180389,-0.3585724
0.9462365,-0.1812015,-0.3490959
0.9481226,-0.1798386,-0.3519309
0.9474131,-0.1783201,-0.3594964
0.9489335,-0.1757749,-0.3674196
0.9505261,-0.1741396,-0.3695691
0.9503314,-0.17616,-0.3660902
0.9495103,-0.1770211,-0.3596507
0.9499558,-0.1756065,-0.354468
0.9493891,-0.1745678,-0.360078
0.9478785,-0.1722347,-0.3669756
0.9490275,-0.1715639,-0.3639996
0.949653,-0.172726,-0.3618122
0.9499507,-0.1720753,-0.3631593
0.95007,-0.1719242,-0.3580295
0.9476181,-0.1719031,-0.3537083
0.9459404,-0.1721654,-0.3529385
0.9458308,-0.1743127,-0.3513338
0.9478193,-0.1749377,-0.3587855
0.9501629,-0.1746839,-0.3652797
0.949417,-0.1753541,-0.3613365
0.9496584,-0.1747506,-0.3616353
0.952875,-0.1742552,-0.369597
0.9545608,-0.1750605,-0.375045
0.9506767,-0.1746791,-0.3679346
0.9470272,-0.172588,-0.3598609
0.9496338,-0.171551,-0.3628963
0.9509824,-0.1741024,-0.3633673
0.9496134,-0.1778,-0.361044
0.9511107,-0.1799954,-0.3617301
0.9527964,-0.1806315,-0.3605673
0.9525434,-0.1801107,-0.3610073
0.9506615,-0.1806313,-0.3622707
0.947578,-0.1798951,-0.3631306
0.9470441,-0.1790686,-0.366391
0.9503092,-0.1831048,-0.3659511
0.9532461,-0.1858861,-0.3650731
0.9527842,-0.1846323,-0.3670206
0.9506041,-0.1834014,-0.3630596
0.9495624,-0.1831673,-0.3594169
0.9499171,-0.1834976,-0.3617387
0.9495016,-0.1831753,-0.3632975
0.9463484,-0.1834031,-0.364082
0.94363,-0.1825294,-0.3641723
0.9461116,-0.1784617,-0.3632269
0.9494212,-0.1743954,-0.3622034
0.9486639,-0.1740136,-0.3606354
0.948049,-0.1764867,-0.3606078
0.9480826,-0.178053,-0.3606909
0.9469564,-0.1815889,-0.3597956
0.9479678,-0.1820182,-0.3623401
0.9490852,-0.174846,-0.366077
0.9475336,-0.1734258,-0.3657514
0.9471731,-0.1751839,-0.3656319
0.9491122,-0.1729135,-0.3671125
0.9506121,-0.1736442,-0.3654547
0.9501484,-0.1753124,-0.3625242
0.9495795,-0.1766886,-0.3603575
0.9502588,-0.1787722,-0.359058
0.9498529,-0.17868,-0.3597718
0.9488851,-0.1790483,-0.3598362
0.948934,-0.1792424,-0.3576582
0.9503419,-0.1770874,-0.3536884
0.9528359,-0.1758396,-0.3512444
0.9522188,-0.1765529,-0.3571684
0.949716,-0.1782003,-0.3642523
0.9502006,-0.1816918,-0.3627041
0.952123,-0.1853906,-0.3636762
0.9539337,-0.1849559,-0.3679859
0.9534814,-0.1822413,-0.3636036
0.9503468,-0.180933,-0.3578194
0.9493784,-0.1781778,-0.3552326
0.9501871,-0.1744413,-0.3549937
0.9500753,-0.174383,-0.35852
0.9502657,-0.1755818,-0.3564806
0.9517938,-0.1754178,-0.353031
0.9535545,-0.177272,-0.3545614
0.9536587,-0.1793787,-0.3580226
0.9531291,-0.1776904,-0.3646597
0.9525112,-0.1768058,-0.3626779
0.950687,-0.1775794,-0.3574331
0.9497659,-0.1768556,-0.3610268
0.9508085,-0.1804368,-0.3597112
0.9520009,-0.1851897,-0.3598099
0.9527411,-0.1825467,-0.3651323
0.9541481,-0.1797548,-0.3626517
0.9546459,-0.1781762,-0.3582458
0.9520783,-0.1731373,-0.3583666
0.9506183,-0.1713656,-0.3613415
0.9493389,-0.1718274,-0.3606747
0.9462698,-0.1715955,-0.3600531
0.9486778,-0.1743404,-0.3623682
0.9515996,-0.1730487,-0.3583864
0.9493786,-0.1689037,-0.3575381
0.9497865,-0.1696352,-0.3592689
0.9507333,-0.1695818,-0.3575846
0.9507573,-0.1704049,-0.359894
0.9536862,-0.1734438,-0.3594782
0.9543106,-0.1724803,-0.3565728
0.951298,-0.1676156,-0.3515955
0.9494607,-0.1621496,-0.3469638
0.9515356,-0.1647635,-0.3541063
0.9536253,-0.1698304,-0.3606658
0.950448,-0.1692656,-0.3583662
0.9471928,-0.1728542,-0.3545862
0.9470305,-0.1735693,-0.3531357
0.9469361,-0.1689935,-0.3531523
0.9467007,-0.1685378,-0.3513026
0.9463986,-0.165159,-0.3499231
0.9474404,-0.1646449,-0.3480567
0.9488233,-0.1702235,-0.3495423
0.9492904,-0.171279,-0.3553015
0.9513897,-0.1707315,-0.3569295
0.9545939,-0.1688859,-0.3594411
0.9573016,-0.1675427,-0.3636834
0.9545159,-0.1704344,-0.3658971
0.947181,-0.1719847,-0.3641412
0.946204,-0.1719211,-0.359114
0.9479052,-0.1713542,-0.3590498
0.9472443,-0.1720886,-0.3582031
0.9491415,-0.1731929,-0.3577949
0.9507427,-0.1727861,-0.3614225
0.9505918,-0.1758311,-0.3609379
0.9497103,-0.1773884,-0.3624484
0.9481249,-0.1752825,-0.3637864
0.9487848,-0.1738861,-0.3627126
0.9506794,-0.1716243,-0.3639691
0.9518383,-0.1730033,-0.363371
0.9513682,-0.1768484,-0.3637769
0.9501432,-0.1784984,-0.3612153
0.9504895,-0.1806433,-0.3572594
0.952554,-0.1810074,-0.3586318
0.9547143,-0.1801543,-0.358277
0.9525783,-0.1807363,-0.3595005
0.949166,-0.1802139,-0.3648428
0.9496289,-0.1784725,-0.3695565
0.9485584,-0.1764681,-0.3687058
0.9463151,-0.175463,-0.3636159
0.9472242,-0.1749298,-0.363844
0.947607,-0.1731012,-0.3640562
0.9469114,-0.1731574,-0.3633409
0.9467623,-0.1742674,-0.3643076
0.9446443,-0.1732936,-0.3614974
0.9429817,-0.1740261,-0.3606975
0.9472927,-0.1768354,-0.361266
0.9519864,-0.1791386,-0.3608777
0.9501648,-0.1799216,-0.3615191
0.9492682,-0.1781774,-0.3608841
0.9526018,-0.1763744,-0.3621784
0.9532226,-0.174645,-0.3632858
0.9525523,-0.1740368,-0.3639872
0.9529291,-0.1749475,-0.3660765
0.9526274,-0.1734773,-0.3643869
0.9525174,-0.1754065,-0.3604902
0.9508367,-0.1805029,-0.3581495
0.9485948,-0.1811391,-0.3621069
0.9492147,-0.1812705,-0.3677516
0.9504264,-0.1816195,-0.3652653
0.9503368,-0.181667,-0.364047
0.9505697,-0.1821132,-0.3667436
0.9514528,-0.179859,-0.366701
0.9498163,-0.1781975,-0.3679304
0.9472517,-0.178184,-0.3670742
0.9465785,-0.1791458,-0.3638413
0.9438794,-0.1812066,-0.3654213
0.9418911,-0.1799061,-0.3659366
0.9438194,-0.1787812,-0.3641621
0.9452405,-0.1821824,-0.3639115
0.9468556,-0.1843279,-0.3619717
0.9480036,-0.1832909,-0.3617897
0.946847,-0.1833399,-0.3624181
0.9471087,-0.1850057,-0.3603507
0.9477557,-0.1850532,-0.3601087
0.9476188,-0.1832101,-0.358087
0.9482924,-0.1823578,-0.3567502
0.9478536,-0.1827558,-0.3621758
0.9474767,-0.1835647,-0.362755
0.9475645,-0.1845743,-0.3593082
0.9467375,-0.184379,-0.3604397
0.9470089,-0.1833487,-0.3554722
0.9456936,-0.1830784,-0.3494883
0.943828,-0.1848575,-0.3569498
0.9465182,-0.1885212,-0.3635773
0.9490112,-0.1921079,-0.3608788
0.9487158,-0.1941339,-0.3603377
0.9485125,-0.1930312,-0.3625174
0.9485834,-0.1927681,-0.3645027
0.9488859,-0.1954987,-0.3676998
0.9492545,-0.1957563,-0.3681625
0.9491935,-0.1940809,-0.3663877
0.9474567,-0.192891,-0.3665361
0.9456267,-0.1952818,-0.3649232
0.9458557,-0.2015947,-0.3629545
0.945842,-0.2032177,-0.3638165
0.9457463,-0.19922,-0.362216
0.9461659,-0.1957687,-0.3606694
0.9467563,-0.1968526,-0.3634772
0.9484608,-0.1985456,-0.3673276
0.9488417,-0.1973019,-0.3686393
0.9471551,-0.1987412,-0.3660862
0.9450028,-0.198407,-0.3639131
0.942954,-0.1958037,-0.363265
0.9427244,-0.196852,-0.3626516
0.9434687,-0.1955344,-0.3631028
0.9442559,-0.1943201,-0.3621224
0.9464439,-0.1949284,-0.3627116
0.9479523,-0.1938718,-0.3686726
0.9468287,-0.1947035,-0.3715335
0.9449422,-0.1946041,-0.3660817
0.9432786,-0.1940237,-0.3601386
0.9430422,-0.194877,-0.3603462
0.9459283,-0.1940151,-0.3618492
0.9482172,-0.1935527,-0.3598706
0.946703,-0.1929789,-0.3593745
0.9437681,-0.192674,-0.361038
0.9407442,-0.1934935,-0.3611536
0.9397473,-0.1930259,-0.3612482
0.9428611,-0.1940515,-0.3615794
0.9465467,-0.1958615,-0.3638325
0.9478626,-0.195945,-0.3670884
0.9473507,-0.1960748,-0.3652188
0.9466468,-0.1966051,-0.3601197
0.9467118,-0.1975336,-0.3574159
0.9465542,-0.1974123,-0.3610357
0.9471213,-0.1968616,-0.3687965
0.9475929,-0.1978188,-0.3724214
0.9457648,-0.1989914,-0.3702126
0.9446339,-0.1996804,-0.3651953
0.94441,-0.1968431,-0.3608967
0.9443291,-0.1931456,-0.3594373
0.945489,-0.1960508,-0.3595275
0.9449179,-0.1987401,-0.359216
0.9432395,-0.196504,-0.3588932
0.9429405,-0.196238,-0.3610581
0.9438776,-0.1969937,-0.3625223
0.9453505,-0.1969887,-0.3612477
0.9461299,-0.1971076,-0.3601579
0.9475525,-0.1943688,-0.359798
0.9475608,-0.1918847,-0.3625671
0.9456858,-0.1918369,-0.3657667
0.9460252,-0.1899363,-0.363885
0.9469371,-0.1887337,-0.3597275
0.9482238,-0.1926328,-0.3570902
0.9490697,-0.1970305,-0.3572429
0.9473929,-0.1971026,-0.3573461
0.9469273,-0.1962514,-0.3572805
0.9473399,-0.1950704,-0.3616324
0.946989,-0.1920321,-0.3647161
0.9464113,-0.1923819,-0.3603077
0.9458182,-0.1931514,-0.3557878
0.947571,-0.1914817,-0.3580873
0.9492097,-0.1951331,-0.3621149
0.9477316,-0.1987789,-0.3623142
0.9466176,-0.1959548,-0.3594476
0.9480517,-0.1941185,-0.3551954
0.951018,-0.1940329,-0.3557835
0.9527127,-0.1917089,-0.3606566
0.9488547,-0.189804,-0.359993
0.9438806,-0.191792,-0.3567096
0.9466091,-0.1949015,-0.3550889
0.9499429,-0.196538,-0.3533932
0.9486392,-0.1993638,-0.354834
0.9496396,-0.2004626,-0.3587664
0.9497785,-0.1992178,-0.3633935
0.9493149,-0.2000565,-0.3670978
0.9505591,-0.1979089,-0.3659103
0.9477929,-0.1933751,-0.3619588
0.9464237,-0.1929552,-0.3586388
0.9476643,-0.1947164,-0.358763
0.9469949,-0.1962587,-0.3590993
0.9473419,-0.1942967,-0.3531245
0.9470417,-0.1915954,-0.3497193
0.9463664,-0.1923573,-0.3531011
0.9467034,-0.1907873,-0.3551165
0.9474804,-0.1894013,-0.3563944
0.9494985,-0.1909542,-0.3584153
0.9498568,-0.1911015,-0.3601838
0.9481827,-0.1917631,-0.3587069
0.9455582,-0.1916524,-0.3509674
0.9444117,-0.1894901,-0.3455497
0.9460749,-0.1885356,-0.34938
0.9479084,-0.1887088,-0.354837
0.9510685,-0.1891445,-0.3546469
0.9522573,-0.1893857,-0.3554191
0.9508381,-0.1913919,-0.3585823
0.9515608,-0.1941106,-0.3580453
0.951296,-0.1932312,-0.3582959
0.9499192,-0.1924221,-0.3577939
0.9481945,-0.1934945,-0.3559569
0.9467181,-0.1930101,-0.3580304
0.9491112,-0.1926518,-0.3595862
0.951406,-0.1922586,-0.3615716
0.9525374,-0.19034,-0.3616192
0.9544029,-0.1898953,-0.3580234
0.9525365,-0.1904995,-0.3571186
0.9484253,-0.1902329,-0.3548176
0.9480338,-0.1904154,-0.3531339
0.9492472,-0.1912271,-0.3539289
0.9495023,-0.1918971,-0.3528337
0.9511197,-0.1916209,-0.3525939
0.9521224,-0.1907297,-0.3510678
0.951621,-0.1908281,-0.3497612
0.9514842,-0.190626,-0.3510144
0.950198,-0.1882286,-0.3524595
0.9491367,-0.1859396,-0.3562683
0.9479161,-0.1867367,-0.357878
0.9466447,-0.1881119,-0.3563433
0.9496075,-0.1877791,-0.356338
0.9525468,-0.1890699,-0.3551268
0.9520582,-0.1910637,-0.3518292
0.9511218,-0.1903651,-0.3479938
0.9501459,-0.1898595,-0.3478713
0.9501484,-0.1905636,-0.3507566
0.9508837,-0.1899067,-0.3505473
0.9511805,-0.1877916,-0.3511224
0.9497556,-0.1844563,-0.3529863
0.9467866,-0.18168,-0.3541356
0.9468541,-0.1807134,-0.3549575
0.9477254,-0.1797719,-0.3524041
0.9475876,-0.1828054,-0.3514725
0.9509125,-0.1882716,-0.352305
0.9535902,-0.1861382,-0.3533329
0.9510535,-0.1830277,-0.3565755
0.94793,-0.1846358,-0.3535055
0.9489271,-0.1838507,-0.3490283
0.9518138,-0.1839433,-0.3513893
0.9531771,-0.1856165,-0.35418
0.9528641,-0.1859103,-0.35503
0.9505333,-0.1860107,-0.3537289
0.9494444,-0.182597,-0.3535121
0.950563,-0.1804671,-0.353976
0.9517056,-0.1818734,-0.3545095
0.9533867,-0.1812066,-0.3588099
0.9528069,-0.1819485,-0.3576694
0.9513635,-0.1840189,-0.35367
0.9515212,-0.1858013,-0.3537409
0.9509736,-0.1885015,-0.3510419
0.9505997,-0.1882026,-0.3531299
0.9498398,-0.1880975,-0.3571219
0.9496437,-0.1894058,-0.351223
0.9506313,-0.1862648,-0.3473903
0.9506606,-0.1853738,-0.3501156
0.9516009,-0.1897463,-0.3549122
0.9515673,-0.1896697,-0.3596922
0.9500118,-0.1839223,-0.356354
0.9503597,-0.178989,-0.3522676
0.9517001,-0.1814595,-0.3564255
0.9533097,-0.1861049,-0.3582465
0.9526183,-0.1855295,-0.3565605
0.9494619,-0.1884728,-0.3588069
0.9485089,-0.1907132,-0.3589664
0.9504978,-0.1867494,-0.35045
0.9540053,-0.1856273,-0.3392388
0.9548112,-0.182884,-0.338048
0.9527335,-0.1825993,-0.348136
0.9526348,-0.1885654,-0.3541164
0.9524737,-0.188904,-0.3517658
0.9509153,-0.1866041,-0.3521118
0.9496188,-0.1830695,-0.3553568
0.9495872,-0.1812198,-0.3543329
0.9501915,-0.18719,-0.3523168
0.9480102,-0.1902872,-0.3535119
0.9464637,-0.1889278,-0.3548281
0.9474333,-0.1886405,-0.3575778
0.947624,-0.1898092,-0.3592618
0.9485919,-0.1909827,-0.3557366
0.9489616,-0.1896793,-0.3541967
0.9477516,-0.1894243,-0.3554454
0.9486865,-0.1888918,-0.3573522
0.9510192,-0.1881663,-0.3591855
0.9516943,-0.1886142,-0.3568272
0.9510048,-0.1868968,-0.3545772
0.9496148,-0.1873291,-0.3548882
0.9479874,-0.1880612,-0.358246
0.9482814,-0.1871371,-0.3633136
0.9485295,-0.1886848,-0.3628677
0.9485679,-0.1891601,-0.3618244
0.9514193,-0.1893266,-0.3632476
0.9522106,-0.1916402,-0.3627663
0.9500472,-0.1935614,-0.3617915
0.9479594,-0.1922907,-0.3571823
0.9449506,-0.1885143,-0.3503892
0.9452779,-0.1867581,-0.3500749
0.9475911,-0.1859708,-0.356512
0.9463258,-0.1871256,-0.3619987
0.9463076,-0.1910785,-0.3593959
0.9477818,-0.1922402,-0.3547162
0.9467684,-0.1913458,-0.3546059
0.9453365,-0.1897331,-0.3563559
0.9443862,-0.1888013,-0.3593771
0.9458989,-0.1916308,-0.3589924
0.9482881,-0.1940211,-0.3576099
0.9473306,-0.193258,-0.3619997
0.9474694,-0.1921281,-0.3642357
0.9481025,-0.1920709,-0.363301
0.9450635,-0.1924223,-0.361489
0.9435258,-0.193729,-0.3593642
0.9447326,-0.1935213,-0.3641693
0.9446163,-0.1898792,-0.3683156
0.9441734,-0.1882,-0.3647876
0.9449488,-0.1875015,-0.363517
0.9462508,-0.1880514,-0.3686455
0.9469346,-0.1919829,-0.3726369
0.9439873,-0.1928355,-0.3704624
0.9402743,-0.1930652,-0.3678819
0.9432133,-0.1935246,-0.3656911
0.9487834,-0.192409,-0.3607469
0.9502045,-0.1934963,-0.3588227
0.9475712,-0.1930242,-0.3607181
0.9435621,-0.1927136,-0.3618691
0.9440737,-0.1937469,-0.3622816
0.9462884,-0.1938635,-0.3646348
0.9454754,-0.1967049,-0.3676723
0.9458188,-0.1979583,-0.3665161
0.9449475,-0.1965796,-0.3636449
0.9428365,-0.1954766,-0.3634501
0.9436601,-0.1938719,-0.3648744
0.9456038,-0.1941207,-0.3671655
0.9475451,-0.1939168,-0.3685253
0.9450137,-0.1930789,-0.365831
0.9413251,-0.1956749,-0.3609597
0.9435027,-0.1983075,-0.3583433
0.9445533,-0.1966667,-0.3583783
0.9440135,-0.1928172,-0.3598926
0.9452894,-0.1901325,-0.3606776
0.9463749,-0.1901056,-0.3597421
0.9494359,-0.193726,-0.3584875
0.9501667,-0.1968689,-0.357597
0.9450478,-0.1961581,-0.359759
0.9416192,-0.1953509,-0.3614091
0.9428371,-0.1955361,-0.3605794
0.9441653,-0.1946582,-0.3621976
0.9444599,-0.1938884,-0.3638305
0.946201,-0.1956181,-0.3667786
0.945975,-0.1964702,-0.3688427
0.9423521,-0.1953064,-0.367191
0.9415065,-0.1962409,-0.3685257
0.9434054,-0.1968301,-0.3682463
0.9450533,-0.1971514,-0.3673677
0.9446611,-0.1977372,-0.3684836
0.9428251,-0.1967218,-0.3657607
0.9431889,-0.197214,-0.3647863
0.9436132,-0.1958159,-0.3661254
0.945447,-0.191575,-0.3687269
0.9482965,-0.1901953,-0.3718477
0.945948,-0.19341,-0.3691423
0.9432309,-0.197279,-0.3657975
0.9429132,-0.1942335,-0.3629554
0.9428064,-0.1918751,-0.3589171
0.9437308,-0.1965394,-0.3623484
0.9447099,-0.1977747,-0.3695747
0.9459256,-0.1952266,-0.3672637
0.9444875,-0.1941751,-0.3601675
0.9424035,-0.1961818,-0.3604678
0.9458575,-0.1992507,-0.3638154
0.9481753,-0.1986941,-0.3641987
0.9452295,-0.1972252,-0.3638662
0.9433475,-0.1935777,-0.363779
0.9436948,-0.1896556,-0.3639699
0.9432851,-0.1959894,-0.3635301
0.9435075,-0.2030119,-0.3620447
0.945033,-0.1984021,-0.360645
0.944567,-0.1932153,-0.3606477
0.9446926,-0.192791,-0.3606797
0.9484124,-0.1911382,-0.3592313
0.9509722,-0.191485,-0.3596927
0.9499284,-0.1930755,-0.3610985
0.9476454,-0.192101,-0.3610247
0.9466772,-0.1921505,-0.3605789
0.9460233,-0.1914611,-0.3580256
0.9437723,-0.1894041,-0.3564651
0.9426406,-0.1888812,-0.3580209
0.9440641,-0.1894835,-0.3569685
0.9457205,-0.1908409,-0.3554079
0.9455509,-0.1903801,-0.3574773
0.9453776,-0.1894639,-0.3603023
0.9461858,-0.1889102,-0.3620844
0.9451831,-0.1867877,-0.3611963
0.9456616,-0.1871903,-0.3598165
0.948446,-0.1881594,-0.3592898
0.9487884,-0.1872275,-0.356871
0.9484401,-0.1886341,-0.3579031
0.9477904,-0.1906345,-0.360034
0.9465605,-0.1917866,-0.3587594
0.9464438,-0.1915649,-0.3599919
0.9456757,-0.1872954,-0.3586095
0.945543,-0.1827994,-0.3568514
0.9467309,-0.1822358,-0.3597637
0.9483266,-0.1863046,-0.3592919
0.9507856,-0.1915882,-0.3611953
0.9501317,-0.1900904,-0.3640984
0.9474032,-0.1846252,-0.3612061
0.9471021,-0.1826367,-0.3590673
0.9472912,-0.183057,-0.3537026
0.948122,-0.1848975,-0.3472312
0.9492603,-0.1859679,-0.3471024
0.9491616,-0.1866716,-0.3492892
0.9495158,-0.1901325,-0.3525685
0.9494689,-0.1919012,-0.3535294
0.9498114,-0.1893596,-0.3524816
0.9505379,-0.1862284,-0.3540111
0.9496636,-0.1871224,-0.3553607
0.949946,-0.1884208,-0.3568867
0.9501395,-0.1858089,-0.3609666
0.9487619,-0.1860672,-0.3636686
0.9485284,-0.187467,-0.3567394
0.9487032,-0.1873904,-0.348105
0.9495373,-0.1889527,-0.353677
0.9505679,-0.1887892,-0.3586479
0.9509774,-0.188927,-0.3539008
0.9525088,-0.1889474,-0.3544037
0.9528665,-0.1875369,-0.3550089
0.9504792,-0.1867809,-0.3529895
0.9476135,-0.1827166,-0.3548916
0.9465525,-0.1800055,-0.3541698
0.947395,-0.1840174,-0.3539802
0.9470453,-0.188683,-0.3566438
0.9450154,-0.1872122,-0.3571806
0.9431392,-0.1819141,-0.3585251
0.9436391,-0.1804133,-0.3603781
0.9486481,-0.1829384,-0.3622848
0.9525766,-0.1868685,-0.3619879
0.9491202,-0.1869253,-0.3584029
0.9453445,-0.185079,-0.3577368
0.9474602,-0.1877503,-0.3577947
0.9480257,-0.1877992,-0.358175
0.9465222,-0.1869792,-0.3622488
0.948494,-0.1881084,-0.3643631
0.9490738,-0.1868213,-0.3603974
0.9482147,-0.1868135,-0.355595
0.9488874,-0.1859889,-0.3566376
0.9484778,-0.1857658,-0.3587568
0.9485831,-0.1877025,-0.3606698
0.9487775,-0.1873081,-0.3654848
0.9483795,-0.1876755,-0.3644769
0.9489909,-0.1875593,-0.3614961
0.9494089,-0.187181,-0.3629893
0.9498801,-0.1875637,-0.3609444
0.948458,-0.1855726,-0.3583006
0.9468295,-0.1851599,-0.3593119
0.9499312,-0.1864939,-0.3613311
0.9520712,-0.1879548,-0.3615765
0.9484962,-0.1912253,-0.3576266
0.9450058,-0.1935536,-0.3566126
0.9458035,-0.1908938,-0.3603698
0.9475786,-0.1869594,-0.363533
0.9489381,-0.1877469,-0.3654155
0.9507131,-0.1863391,-0.3652452
0.9499831,-0.1832775,-0.3645066
0.948384,-0.1860878,-0.3624743
0.9478709,-0.1864538,-0.3626952
0.9471016,-0.1836956,-0.3657248
0.9492867,-0.1840551,-0.3635365
0.9527245,-0.187461,-0.3649679
0.9528089,-0.1919895,-0.3682521
0.9509439,-0.1911516,-0.3639348
0.9493239,-0.1907162,-0.3632886
0.9500334,-0.1941765,-0.3643432
0.9513852,-0.1906752,-0.3640027
0.9512947,-0.1852179,-0.3670159
0.9510199,-0.184306,-0.3681639
0.9486872,-0.1850448,-0.3661571
0.9458843,-0.1887752,-0.3614514
0.9457063,-0.1913131,-0.3590768
0.9461446,-0.1901569,-0.3601177
0.9472647,-0.1890534,-0.3595648
0.947489,-0.188876,-0.3607882
0.9449839,-0.1898541,-0.3614794
0.9442246,-0.1901914,-0.3608816
0.94637,-0.1885446,-0.361332
0.9478222,-0.1868544,-0.3594496
0.9479192,-0.1876113,-0.354121
0.949319,-0.1894946,-0.3492583
0.9516902,-0.1886829,-0.3560979
0.9508785,-0.1871312,-0.3656081
0.9499287,-0.1871876,-0.3626667
0.9509598,-0.1879287,-0.3631059
0.9487831,-0.1885027,-0.3685784
0.9470471,-0.1888338,-0.3676054
0.9482034,-0.1889053,-0.3663825
0.9479432,-0.1866906,-0.3622964
0.9474699,-0.1845605,-0.3571842
0.9462085,-0.1845948,-0.3582433
0.9445089,-0.1850185,-0.3572931
0.9453885,-0.1866926,-0.3568176
0.9472339,-0.1877582,-0.3594716
0.9485015,-0.1867465,-0.3581813
0.9487721,-0.1860028,-0.3578541
0.9484165,-0.1877433,-0.3585671
0.9477001,-0.1900601,-0.3561797
0.9470977,-0.1900217,-0.3559588
0.9482598,-0.1924709,-0.3599758
0.9499205,-0.196857,-0.3638592
0.9502907,-0.19705,-0.3621278
0.9497264,-0.1935211,-0.3596363
0.9490331,-0.1894336,-0.3620752
0.948462,-0.1896531,-0.363205
0.9484177,-0.1911734,-0.3628207
0.9486588,-0.1897953,-0.3602506
0.9476548,-0.1902241,-0.3549417
0.9468421,-0.1906581,-0.3567941
0.9472921,-0.1903966,-0.3604343
0.9476513,-0.193204,-0.3598405
0.9489416,-0.195072,-0.3607457
0.9505659,-0.1937073,-0.3584148
0.9498622,-0.1920282,-0.3553828
0.9476186,-0.1912901,-0.3560659
0.94615,-0.1901347,-0.3559696
0.946348,-0.1896545,-0.3573686
0.9475544,-0.1912025,-0.358085
0.9475344,-0.191999,-0.3597303
0.9471384,-0.1932174,-0.364912
0.9491989,-0.1934308,-0.3659931
0.9504963,-0.1905073,-0.3662463
0.9488411,-0.189609,-0.3658903
0.9472997,-0.1886059,-0.3630445
0.946942,-0.1873124,-0.3642139
0.9473234,-0.190442,-0.3649028
0.9478312,-0.1938804,-0.3669169
0.9497528,-0.1953118,-0.3721408
0.9516272,-0.1961143,-0.3708378
0.9475373,-0.1969618,-0.3669348
0.9414192,-0.197412,-0.3619263
0.941165,-0.1958721,-0.3550588
0.9439876,-0.1910844,-0.3534525
0.9451156,-0.1858549,-0.3527785
0.945707,-0.18852,-0.3560422
0.9478754,-0.1927934,-0.3641835
0.9502488,-0.1913289,-0.3618983
0.9503478,-0.1930924,-0.3589335
0.9489416,-0.1938619,-0.3637248
0.946557,-0.1901364,-0.3616495
0.9434328,-0.1901383,-0.3571966
0.9438304,-0.1902147,-0.3556343
0.9454536,-0.1891225,-0.3572555
0.943768,-0.1888251,-0.3663848
0.9433635,-0.1875614,-0.3698506
0.94353,-0.1875365,-0.3662538
0.9433048,-0.1878048,-0.364585
0.9453388,-0.1887823,-0.3631734
0.945278,-0.1893599,-0.3633593
0.9446272,-0.186856,-0.360197
0.9448603,-0.1869954,-0.3550057
0.9438408,-0.1882379,-0.3554055
0.9450526,-0.1867373,-0.3578145
0.9464631,-0.1860595,-0.3600458
0.9474407,-0.1863885,-0.3619556
0.9486181,-0.1886394,-0.3665012
0.9468302,-0.1908337,-0.3713564
0.9444836,-0.1896698,-0.3692119
0.9423102,-0.1884318,-0.3662479
0.9424669,-0.1872646,-0.367236
0.9440599,-0.1871036,-0.3671439
0.9430044,-0.1890238,-0.3640702
0.9459933,-0.1887942,-0.3627565
0.9504061,-0.1874652,-0.3648514
0.950025,-0.1857191,-0.3658479
0.9491099,-0.1837845,-0.3671945
0.9469549,-0.1845121,-0.369308
0.9422799,-0.1834794,-0.3675376
0.9382539,-0.1814715,-0.3639888
0.9422018,-0.1819077,-0.3619476
0.9488886,-0.1804694,-0.3618398
0.9458268,-0.1798031,-0.3661396
0.9452133,-0.1812034,-0.3735008
0.9492622,-0.1806064,-0.3744027
0.9473085,-0.1818734,-0.3692193
0.9477334,-0.1861837,-0.3697605
0.9490206,-0.1884581,-0.3705071
0.9486786,-0.1877177,-0.3665509
0.9508746,-0.1869495,-0.36791
0.9488582,-0.1875506,-0.3697645
0.9467937,-0.1868007,-0.3706757
0.9478364,-0.1849272,-0.3751358
0.9476821,-0.1834179,-0.373807
0.949069,-0.1802413,-0.3701785
0.9485169,-0.1787642,-0.368871
0.946228,-0.1794792,-0.3641093
0.946339,-0.1779628,-0.3610746
0.9480853,-0.1778023,-0.3610301
0.9511341,-0.1805132,-0.360472
0.9500521,-0.1846679,-0.3595014
0.9470056,-0.1882679,-0.3569413
0.9465434,-0.1864896,-0.3580845
0.9452096,-0.1829233,-0.3637051
0.9459479,-0.1804454,-0.3664527
0.9472875,-0.1782014,-0.3659132
0.9468753,-0.1790587,-0.3663763
0.9480264,-0.1797501,-0.3688713
0.9484881,-0.1785277,-0.3683752
0.9485335,-0.1785586,-0.3662132
0.9471636,-0.1785739,-0.3671819
0.9452794,-0.1790667,-0.3674676
0.9463766,-0.1796724,-0.3680533
0.9456846,-0.1782771,-0.3691963
0.9454509,-0.1764648,-0.3700812
0.9464902,-0.1744779,-0.373143
0.9454669,-0.1750557,-0.3714753
0.9469004,-0.179565,-0.3676777
0.9477191,-0.182434,-0.3680214
0.9468717,-0.1834117,-0.3669937
0.9474673,-0.1843471,-0.3665356
0.9465324,-0.184303,-0.3684648
0.9445697,-0.1819916,-0.3717036
0.9423573,-0.1774334,-0.375012
0.9425062,-0.1760834,-0.3740705
0.943928,-0.1771267,-0.3746305
0.942577,-0.1785081,-0.3766727
0.9429659,-0.1834686,-0.371948
0.9435071,-0.1861075,-0.3667792
0.9422066,-0.1844695,-0.366555
0.941561,-0.1843952,-0.3672651
0.9413261,-0.1848317,-0.3694337
0.9478988,-0.1834491,-0.3713067
0.9548637,-0.1811168,-0.3712616
0.9474102,-0.1800581,-0.3742061
0.9382652,-0.180877,-0.3741219
0.9409166,-0.1825493,-0.3685568
0.9456956,-0.1838023,-0.3688323
0.9477784,-0.1839791,-0.3743115
0.9480828,-0.1857671,-0.3793309
0.9454328,-0.1878847,-0.3779893
0.942863,-0.1851968,-0.37335
0.9397144,-0.1814344,-0.3759715
0.9401702,-0.1815744,-0.3749317
0.945102,-0.1802687,-0.3720318
0.9442423,-0.176911,-0.3762061
0.9448134,-0.1771417,-0.3750265
0.9487982,-0.1814468,-0.3707015
0.9470371,-0.1892425,-0.3643771
0.946227,-0.191447,-0.3566838
0.9450576,-0.1838952,-0.3597707
0.9418829,-0.1803039,-0.3647291
0.9429255,-0.183285,-0.3665354
0.9439626,-0.1859379,-0.3710603
0.9445189,-0.1865242,-0.371728
0.9463511,-0.1855091,-0.369651
0.9462378,-0.1844523,-0.3694002
0.9451116,-0.182767,-0.368519
0.9451023,-0.1833631,-0.3719249
0.9444301,-0.1857647,-0.3771755
0.9433769,-0.1858367,-0.3747567
0.9422755,-0.1842769,-0.3720584
0.9393327,-0.1807943,-0.3726481
0.9396823,-0.1796621,-0.3715379
0.9411885,-0.1818508,-0.3712832
0.9386837,-0.184137,-0.3697886
0.9391768,-0.1879918,-0.3676853
0.9419341,-0.1884261,-0.3682626
0.943474,-0.1860046,-0.3681263
0.9437058,-0.1850156,-0.3688559
0.942457,-0.1818151,-0.3698042
0.9441922,-0.1810801,-0.3683601
0.9450714,-0.1837459,-0.3675819
0.9439181,-0.1833441,-0.3673321
0.9447626,-0.1831423,-0.3679202
0.9438291,-0.1838165,-0.3709002
0.9416251,-0.1837499,-0.3737692
0.9400969,-0.184801,-0.3761434
0.9414415,-0.1862315,-0.3819045
0.9444344,-0.1896093,-0.3871311
0.9429128,-0.1907961,-0.3842229
0.9424068,-0.1851605,-0.3798434
0.9438139,-0.1819397,-0.3762632
0.9426211,-0.1844853,-0.3704936
0.9430637,-0.1862021,-0.3707475
0.9433457,-0.1847747,-0.3706721
0.9428583,-0.1815744,-0.3634217
0.944229,-0.1801557,-0.3598799
0.9444431,-0.1821793,-0.3618862
0.9432207,-0.1844879,-0.365656
0.9409706,-0.1846284,-0.3677081
0.9402508,-0.186182,-0.3684763
0.9440117,-0.1878029,-0.372115
0.9470949,-0.1828765,-0.3753776
0.9457004,-0.179021,-0.3753881
0.9434968,-0.1829822,-0.3706054
0.9434493,-0.187223,-0.3690679
0.943025,-0.1880334,-0.3734771
0.9421044,-0.1874481,-0.3702675
0.9432759,-0.1873272,-0.3626232
0.9445326,-0.1876392,-0.35828
0.9453235,-0.1872861,-0.3643733
0.9464014,-0.1867598,-0.3748807
0.9467708,-0.1867607,-0.3665183
0.9467274,-0.1876568,-0.3599537
0.9448108,-0.1878131,-0.3688534
0.9420315,-0.1871829,-0.3715559
0.9427219,-0.1875858,-0.3737394
0.9445582,-0.1876213,-0.3732764
0.9457975,-0.1873129,-0.3685007
0.947851,-0.1874476,-0.3708421
0.9461331,-0.1867708,-0.3678502
0.9445163,-0.1866574,-0.3630943
0.9477903,-0.1877679,-0.3664778
0.9471471,-0.1873864,-0.3692788
0.9447377,-0.1854151,-0.3726555
0.9446435,-0.184815,-0.3777728
0.9435915,-0.187457,-0.3805406
0.9439845,-0.1908569,-0.3762944
0.942943,-0.1907774,-0.3693149
0.9419792,-0.1893097,-0.3697379
0.9421539,-0.1887524,-0.3633779
0.9392389,-0.187075,-0.3518248
0.9403403,-0.1862619,-0.3599772
0.9429856,-0.1846223,-0.3687024
0.942776,-0.1808922,-0.3622443
0.943633,-0.1833285,-0.364369
0.9427533,-0.1874095,-0.3728382
0.9426801,-0.1863266,-0.3753161
0.9426933,-0.1885015,-0.372997
0.9410306,-0.1914475,-0.3661264
0.9432808,-0.1890661,-0.3657262
0.9464387,-0.1873136,-0.3688775
0.9486384,-0.1874823,-0.3679485
0.9489826,-0.187135,-0.3707621
0.9462278,-0.1855658,-0.3713696
0.9454364,-0.1834292,-0.3682906
0.9460285,-0.1837674,-0.3671932
0.9467607,-0.1852857,-0.3641629
0.9472509,-0.1848362,-0.3613932
0.945325,-0.1839879,-0.361507
0.9442246,-0.183374,-0.3659555
0.9462697,-0.1822878,-0.3715363
0.948811,-0.1835627,-0.3715164
0.9482734,-0.1858718,-0.3698999
0.9473631,-0.1857437,-0.3689466
0.94906,-0.1842056,-0.3666661
0.94873,-0.1809698,-0.3648926
0.9472275,-0.179524,-0.3644376
0.9472625,-0.1813171,-0.3638705
0.9470677,-0.181417,-0.3644495
0.9469425,-0.1820891,-0.3653054
0.9455102,-0.1833369,-0.3610345
0.9439097,-0.1836401,-0.3556396
0.9452803,-0.186331,-0.3558258
0.9464515,-0.1882226,-0.3610923
0.9458841,-0.1876241,-0.3662072
0.946888,-0.1872227,-0.3659501
0.9495111,-0.1871543,-0.3664257
0.9502023,-0.1859486,-0.3687624
0.9481586,-0.1840994,-0.3659023
0.9465015,-0.185486,-0.3626431
0.9473101,-0.1862196,-0.3627229
0.948546,-0.1821772,-0.3625654
0.9485839,-0.1796009,-0.3610218
0.9487182,-0.1812363,-0.358994
0.9486212,-0.1833749,-0.3582821
0.9484557,-0.1844474,-0.3599118
0.9484469,-0.1865183,-0.3618066
0.9467168,-0.1866216,-0.3603529
0.945792,-0.1833795,-0.3588295
0.9484391,-0.1830678,-0.3601263
0.9507095,-0.1835311,-0.3598088
0.9479107,-0.1830412,-0.3595644
0.943268,-0.1836903,-0.3609597
0.9433862,-0.1830872,-0.3611805
0.9476572,-0.183153,-0.3624873
0.9513868,-0.1823302,-0.3674583
0.9505933,-0.1795221,-0.3735509
0.9488111,-0.1788214,-0.3718499
0.9502788,-0.1793924,-0.362617
0.9484186,-0.1811803,-0.3578884
0.9459653,-0.18248,-0.3597156
0.9480676,-0.1820987,-0.3633684
0.9490962,-0.182748,-0.3645482
0.9500315,-0.1835854,-0.3637555
0.9496788,-0.1831868,-0.3649508
0.9476581,-0.1812764,-0.3654761
0.9488332,-0.1800549,-0.3647631
0.9492749,-0.1805443,-0.3626492
0.9499394,-0.1806739,-0.3600615
0.9522715,-0.1805638,-0.3610857
0.9514887,-0.1804468,-0.3615616
0.9507167,-0.1806352,-0.3607482
0.9508743,-0.1802365,-0.3610673
0.9496383,-0.1784433,-0.3602334
0.9497654,-0.1765166,-0.3585075
0.9503936,-0.1757857,-0.355173
0.9496009,-0.1767008,-0.3523336
0.948716,-0.1764977,-0.35626
0.9467438,-0.1760434,-0.3630628
0.9455155,-0.1763678,-0.3627029
0.9489649,-0.1742628,-0.3578607
0.9529479,-0.1721207,-0.3553992
0.9529217,-0.1721126,-0.3548634
0.9505734,-0.1731918,-0.3559834
0.9486698,-0.1744094,-0.3559208
0.9491909,-0.1752752,-0.3558725
0.9504775,-0.177023,-0.3577692
0.95009,-0.1774749,-0.3566475
0.9497136,-0.1766013,-0.3549623
0.9501752,-0.1765171,-0.3522329
0.9500214,-0.1761244,-0.3489326
1.013845,-0.2564298,-0.02828576
1.014532,-0.2505595,-0.0307548
1.011765,-0.247737,-0.02723864
0.9933498,-0.2526863,-0.02212881
0.9750913,-0.2586069,-0.02538305
0.9963323,-0.2671936,-0.02926537
1.010719,-0.2724256,-0.03633285
0.9892485,-0.2621634,-0.03959211
0.9739253,-0.2595385,-0.03215435
0.9924178,-0.2648859,-0.02274325
1.004284,-0.2655877,-0.02181807
0.9951258,-0.2663319,-0.02271469
0.9977533,-0.2658146,-0.01747733
0.9998899,-0.2671128,-0.01857717
0.9989448,-0.2654375,-0.0240856
1.003147,-0.2636897,-0.0242435
1.001079,-0.2668058,-0.02346854
1.00085,-0.2647055,-0.0243325
1.001716,-0.2648246,-0.02561822
0.999149,-0.2664756,-0.02509952
0.9982361,-0.2651732,-0.02557872
0.998399,-0.2674942,-0.02708725
0.9989782,-0.2669724,-0.02635939
0.9984385,-0.267421,-0.02717467
0.9983344,-0.2717491,-0.02790242
0.997979,-0.2726574,-0.02519479
0.996682,-0.2722852,-0.02080359
0.9976327,-0.2702731,-0.01763888
0.999913,-0.2666344,-0.01680512
1.003921,-0.2622943,-0.01500957
1.006963,-0.2592888,-0.01413452
1.004842,-0.2586007,-0.01512943
1.001321,-0.2547264,-0.01537141
0.9994378,-0.25122,-0.01666607
0.9996641,-0.2502623,-0.01670249
1.001468,-0.2494975,-0.01726149
1.001593,-0.2503196,-0.01959464
1.000587,-0.249968,-0.01689862
0.9978898,-0.2506821,-0.01473637
0.9909093,-0.2555074,-0.01396511
0.987246,-0.2615825,-0.01113591
0.9919173,-0.2642861,-0.01286132
0.9993514,-0.2622633,-0.0131772
1.006635,-0.2638002,-0.01285645
1.009912,-0.2668484,-0.01800983
1.006073,-0.266305,-0.02387688
1.001984,-0.2700604,-0.03267727
1.000118,-0.2765115,-0.03841611
0.99503,-0.2827696,-0.03884655
0.9914879,-0.2954202,-0.04049638
0.9944533,-0.3141187,-0.0426651
0.9971114,-0.3282814,-0.05081449
0.99699,-0.3289136,-0.05977927
0.9954098,-0.3222513,-0.06570486
0.9928322,-0.3167458,-0.0722404
0.9926063,-0.3150855,-0.07079921
0.9916672,-0.3214958,-0.06930686
0.9827542,-0.3260785,-0.07306881
0.9700846,-0.3118797,-0.07385261
0.9721647,-0.2746423,-0.07597623
0.9994347,-0.2219732,-0.07110629
1.026917,-0.1882017,-0.0555193
1.02565,-0.1995786,-0.04025498
1.012432,-0.2254679,-0.02556484
0.9969874,-0.2508044,-0.02319475
0.9662848,-0.2833847,-0.032264
0.9623112,-0.2907541,-0.03668271
0.9994392,-0.2822826,-0.04852736
1.023274,-0.2891307,-0.06562823
1.027487,-0.2891598,-0.07322257
1.016508,-0.2883295,-0.07587489
0.9938514,-0.2917492,-0.07398567
0.9857707,-0.282137,-0.07170608
0.9848233,-0.2710133,-0.06492928
0.990183,-0.2609447,-0.05109217
0.9948718,-0.2604779,-0.04857786
0.9917143,-0.2675749,-0.05444899
0.9989391,-0.2678322,-0.05914562
1.000784,-0.2781025,-0.06153258
0.9983136,-0.289189,-0.05863547
0.9986221,-0.2901506,-0.05389571
0.9917175,-0.2943332,-0.05159831
0.9891623,-0.2964616,-0.06322735
0.9855776,-0.2984106,-0.07682018
0.9861794,-0.3064613,-0.0719258
0.9919176,-0.3138129,-0.06861817
0.9886208,-0.3111739,-0.07361885
0.9896378,-0.3023794,-0.07284142
0.9888265,-0.2970733,-0.07117039
0.984315,-0.292981,-0.07214325
0.9883855,-0.2964659,-0.06982266
0.9899196,-0.3013903,-0.06662054
0.9889821,-0.2973545,-0.06820319
0.9915675,-0.2978086,-0.06827357
0.9939554,-0.2970038,-0.06561291
0.9930589,-0.2926736,-0.065488
0.9903054,-0.29572,-0.06712899
0.9893217,-0.2966153,-0.07064756
0.9884438,-0.2952673,-0.07164894
0.9887948,-0.2960935,-0.07011854
0.98936,-0.2957382,-0.07012817
0.9884083,-0.2955207,-0.06795458
0.9892909,-0.2940254,-0.06241299
0.9898769,-0.2919517,-0.05551041
0.9907796,-0.2895345,-0.0537277
0.9935835,-0.2847774,-0.05765698
0.9957251,-0.2818586,-0.06017631
0.9963869,-0.2833506,-0.06385397
0.9945937,-0.2844656,-0.06425485
0.9937634,-0.2844445,-0.05906794
0.9936138,-0.2867944,-0.05932905
0.9902182,-0.2866785,-0.06058301
0.9868117,-0.2851542,-0.05993431
0.9845262,-0.2863714,-0.06237575
0.9847385,-0.2842975,-0.0641596
0.9879181,-0.2834378,-0.06742299
0.9894843,-0.2895695,-0.06982564
0.9893128,-0.2963499,-0.06904746
0.9894014,-0.2989912,-0.07156652
0.9907761,-0.2981256,-0.07239648
0.99175,-0.2978451,-0.07118431
0.9922377,-0.2971919,-0.07110962
0.9937691,-0.2966288,-0.06921083
0.9933837,-0.2980462,-0.07219193
0.9943782,-0.2978568,-0.07800636
0.9967548,-0.2986679,-0.07776231
0.9948183,-0.2992189,-0.07488153
0.993763,-0.2975491,-0.07369224
0.9947938,-0.2971946,-0.07791145
0.9942098,-0.2957262,-0.08354727
0.9936728,-0.2970095,-0.08106108
0.9935509,-0.3002197,-0.07470174
0.9936936,-0.2990091,-0.07243383
0.992579,-0.2989575,-0.07849792
0.9899237,-0.299038,-0.08596598
0.9885737,-0.2978912,-0.08030608
0.9894586,-0.2986803,-0.07409202
0.9909502,-0.2963354,-0.07672413
0.9903343,-0.292605,-0.07234923
0.9898033,-0.2928237,-0.06849162
0.991428,-0.2948452,-0.07290984
0.9937115,-0.2950888,-0.07530508
0.996225,-0.2930877,-0.07904193
0.9938955,-0.2909614,-0.08171236
0.9897374,-0.2882004,-0.08124319
0.9920531,-0.2879244,-0.08291657
0.993771,-0.2893446,-0.08166772
0.9937989,-0.2849087,-0.08120705
0.9946562,-0.2816202,-0.08125983
0.9899083,-0.2828495,-0.07599912
0.9876497,-0.2818161,-0.07308419
0.9925735,-0.2821793,-0.07065691
0.994843,-0.2849368,-0.06682003
0.9945632,-0.2867497,-0.06796768
0.9943798,-0.2866878,-0.07057811
0.9943103,-0.2863433,-0.07114196
0.9946753,-0.2880991,-0.07062305
0.9944511,-0.2872086,-0.07058723
0.9953594,-0.284023,-0.07192488
0.9962282,-0.2817783,-0.07143559
0.996107,-0.2790306,-0.06707184
0.9975766,-0.2772085,-0.06434966
0.9991852,-0.2765517,-0.06474924
0.998834,-0.2796431,-0.06298709
0.9974735,-0.2833601,-0.06387785
0.9952144,-0.2801108,-0.06587793
0.9924693,-0.2778113,-0.06404996
0.9942863,-0.2795321,-0.06442792
0.9983561,-0.2785654,-0.06373464
0.9970535,-0.2780713,-0.06425409
0.9957318,-0.2801051,-0.06665554
0.9958903,-0.2819235,-0.06441888
0.9936852,-0.2828834,-0.06499516
0.993486,-0.2821469,-0.06408037
0.9937662,-0.2813173,-0.06106103
0.9928741,-0.2818794,-0.06342391
0.9929838,-0.2803596,-0.06398021
0.9930317,-0.2781867,-0.06405038
0.9932038,-0.2796411,-0.06421215
0.9929342,-0.281325,-0.06406532
0.9930227,-0.2820631,-0.06547202
0.9930703,-0.2829432,-0.06352019
0.9919079,-0.284534,-0.06161744
0.9919375,-0.2886204,-0.0594581
0.9933118,-0.2891233,-0.05900746
0.9948971,-0.2860738,-0.06398417
0.9935202,-0.2857833,-0.06616586
0.9903287,-0.284646,-0.06681524
0.9900693,-0.2840022,-0.06643301
0.9906107,-0.2847002,-0.06454836
0.9920715,-0.2809351,-0.06506657
0.9937557,-0.2781898,-0.06358174
0.9931933,-0.2814917,-0.06422552
0.9937379,-0.2856592,-0.06689943
0.9948755,-0.2855948,-0.06607359
0.9945111,-0.2797121,-0.06675184
0.9949355,-0.2742931,-0.06366287
0.9981187,-0.2758396,-0.05511001
1.000993,-0.277765,-0.04990137
0.9990094,-0.2758279,-0.05094537
0.9954903,-0.2774084,-0.05503428
0.9937926,-0.2806072,-0.05439449
0.9929249,-0.2805066,-0.05522976
0.9946303,-0.2809874,-0.05904677
0.9968289,-0.2810252,-0.05782297
0.9957884,-0.2801521,-0.05948293
0.9953578,-0.2791976,-0.06053591
0.9961219,-0.2783581,-0.05911909
0.9942208,-0.28015,-0.06228982
0.991383,-0.280987,-0.06272997
0.9896144,-0.2820904,-0.06264642
0.9897372,-0.28376,-0.06434603
0.9900335,-0.2829174,-0.06718902
0.9886464,-0.2845566,-0.07125307
0.9904311,-0.2850428,-0.06949094
0.9928291,-0.2832986,-0.06845628
0.991383,-0.2836998,-0.06665298
0.99157,-0.283857,-0.06041822
0.992956,-0.2855344,-0.06230093
0.9930616,-0.286981,-0.06673234
0.9932424,-0.288272,-0.06603733
0.9929032,-0.2899611,-0.064266
0.9932252,-0.2883422,-0.06164533
0.9940934,-0.2887439,-0.06137271
0.9945377,-0.2890997,-0.06079611
0.994672,-0.2864908,-0.05755213
0.994217,-0.286296,-0.06051042
0.9943,-0.2876502,-0.0639872
0.9937011,-0.2896069,-0.05927866
0.9925707,-0.2892634,-0.05682313
0.9932759,-0.2877122,-0.05792095
0.9941339,-0.2877033,-0.05672532
0.9943458,-0.285469,-0.05776427
0.9937595,-0.2859209,-0.06256182
0.9925673,-0.2888173,-0.06682838
0.9930048,-0.2884639,-0.06517398
0.9933628,-0.2873928,-0.06048748
0.9926153,-0.2854853,-0.06088563
0.9924211,-0.2858058,-0.06749618
0.9921916,-0.2878701,-0.07524797
0.9921758,-0.2873819,-0.07480064
0.9916583,-0.2885234,-0.07144964
0.9903047,-0.2893509,-0.07228654
0.9906031,-0.2883975,-0.0674153
0.9920878,-0.2880273,-0.06381448
0.9934701,-0.2862235,-0.06857275
0.9932913,-0.2857095,-0.0698382
0.9914194,-0.2870795,-0.06680464
0.9907148,-0.2895646,-0.06447052
0.9902866,-0.2928178,-0.06677057
0.9908504,-0.2917115,-0.06962371
0.9925829,-0.2890278,-0.0674135
0.9923999,-0.2888279,-0.06786583
0.9932419,-0.2887276,-0.0682894
0.9944557,-0.2893083,-0.06566236
0.9940193,-0.2908109,-0.06512487
0.9933457,-0.2919928,-0.06496069
0.990002,-0.2920293,-0.06519159
0.9879476,-0.2908919,-0.06357324
0.9900146,-0.2899646,-0.06174735
0.9907775,-0.2885842,-0.06505369
0.9903262,-0.2879753,-0.07145038
0.991223,-0.2880966,-0.0770791
0.9929668,-0.2871487,-0.07580734
0.9934326,-0.2889508,-0.07225687
0.9922974,-0.2896481,-0.07040623
0.9904258,-0.2860837,-0.06429387
0.9882972,-0.2861703,-0.06336984
0.9895541,-0.2881558,-0.06688806
0.9921569,-0.2890958,-0.0649519
0.9922023,-0.2896622,-0.06615737
0.9941632,-0.2891111,-0.06738931
0.9972464,-0.2905769,-0.06682101
0.9973938,-0.2896442,-0.06969831
0.996286,-0.2869141,-0.06757569
0.9931757,-0.2875649,-0.06788372
0.9898628,-0.2865436,-0.07311155
0.9904956,-0.2856779,-0.07302013
0.9917555,-0.2867002,-0.07127752
0.9929329,-0.2877331,-0.06569305
0.9940616,-0.2895808,-0.06108363
0.9924339,-0.2890248,-0.06165102
0.9928359,-0.2884254,-0.06205056
0.9938094,-0.2896201,-0.06550015
0.9923337,-0.2905345,-0.06540057
0.9928062,-0.2919854,-0.06367816
0.990601,-0.2911188,-0.06460808
0.9875319,-0.2894622,-0.06293291
0.9894707,-0.2902765,-0.06421023
0.9909958,-0.2896477,-0.06327651
0.9918721,-0.2886295,-0.0625969
0.9920599,-0.2907567,-0.0696483
0.9911916,-0.2924398,-0.07368111
0.9918978,-0.2921619,-0.07240881
0.9917142,-0.2940559,-0.06850172
0.9914645,-0.2963442,-0.06680718
0.9922356,-0.2929104,-0.06591279
0.9933214,-0.2874319,-0.06255461
0.9946631,-0.2871565,-0.0643274
0.9929177,-0.2898303,-0.06712008
0.9906271,-0.2914797,-0.07138358
0.9919067,-0.2912157,-0.07747401
0.9931963,-0.2893799,-0.07678193
0.9937917,-0.2883522,-0.07527627
0.9951406,-0.2872082,-0.07403419
0.9953745,-0.2860428,-0.07131137
0.9957454,-0.2863582,-0.07137786
0.9957561,-0.2866303,-0.06995218
0.9926239,-0.2895915,-0.06628747
0.9899711,-0.2927247,-0.0667815
0.9902997,-0.289792,-0.06919117
0.9922495,-0.2867787,-0.06748568
0.9937211,-0.2873195,-0.06579639
0.9933783,-0.2868413,-0.06539328
0.9945842,-0.2858248,-0.0647825
0.9964381,-0.2871226,-0.0666846
0.99505,-0.2889511,-0.06677627
0.9937473,-0.2890471,-0.06542373
0.9949562,-0.2884711,-0.06608663
0.9964649,-0.2871089,-0.06845857
0.997292,-0.2853636,-0.07186985
0.9963292,-0.2847008,-0.06932319
0.9930577,-0.2830254,-0.06527954
0.9906421,-0.2818196,-0.06612213
0.9899926,-0.2854581,-0.06552844
0.9907615,-0.2887179,-0.06656332
0.9942067,-0.285758,-0.06919827
0.9967903,-0.2834024,-0.06792688
0.9957461,-0.2851277,-0.06835886
0.9935258,-0.2846585,-0.07294939
0.9926508,-0.2824587,-0.0789699
0.9931021,-0.2822411,-0.08213689
0.9931057,-0.2843742,-0.07879672
0.9930394,-0.2871886,-0.07455077
0.9928841,-0.2864369,-0.07297783
0.9921095,-0.2852563,-0.07225373
0.9914976,-0.2866869,-0.0724469
0.9914522,-0.2860934,-0.07120702
0.9919268,-0.2857215,-0.06756219
0.9915989,-0.2865898,-0.06428957
0.991696,-0.2858085,-0.0644481
0.9928087,-0.286132,-0.06671837
0.9933038,-0.2864992,-0.06675863
0.9941209,-0.2867051,-0.0680718
0.9945907,-0.2881931,-0.07001232
0.9941267,-0.288407,-0.07149609
0.9926649,-0.2883516,-0.07593416
0.9911795,-0.2865898,-0.07155645
0.9926748,-0.2837255,-0.06199589
0.9945673,-0.2854121,-0.06229833
0.9945616,-0.2871205,-0.06469574
0.9944145,-0.2860525,-0.06636966
0.9944012,-0.287751,-0.06697954
0.9941351,-0.2896263,-0.06600255
0.9926462,-0.2877378,-0.06884601
0.991093,-0.2859991,-0.06843564
0.9915032,-0.2864014,-0.06582839
0.9916771,-0.2878909,-0.06494008
0.9897043,-0.2894666,-0.0612778
0.9884372,-0.2891041,-0.0617522
0.9899572,-0.2884311,-0.06911388
0.9918696,-0.2889701,-0.0763704
0.9927686,-0.2880412,-0.07872916
0.9932403,-0.286821,-0.07960505
0.993135,-0.2867272,-0.08152949
0.9929153,-0.2859427,-0.07352177
0.9931051,-0.2858575,-0.0638138
0.9938258,-0.2860592,-0.06712111
0.9965332,-0.2841903,-0.06827305
0.9990492,-0.2830902,-0.06429965
0.9949396,-0.2852329,-0.06369733
0.988385,-0.2878312,-0.06043624
0.9890276,-0.2880191,-0.060196
0.9939779,-0.2880243,-0.06547889
0.9969489,-0.2893191,-0.06917263
0.9963501,-0.288697,-0.07242943
0.9947473,-0.286723,-0.06692537
0.9954881,-0.2858366,-0.05784605
0.9953719,-0.285314,-0.06164114
0.995375,-0.2837209,-0.06537636
0.9966508,-0.2818201,-0.0645458
0.9953924,-0.2849733,-0.06631743
0.9956575,-0.2891371,-0.0644537
0.9964128,-0.285496,-0.06313467
0.9950579,-0.2822995,-0.06261988
0.9952507,-0.2835975,-0.06041004
0.9940669,-0.2832906,-0.06092427
0.9930854,-0.2857495,-0.06069403
0.9934307,-0.2895516,-0.0635997
0.9927023,-0.2875467,-0.06710363
0.9942079,-0.2851081,-0.06447104
0.9946895,-0.2845893,-0.064101
0.9932395,-0.2818755,-0.06352679
0.9930102,-0.2812735,-0.05893756
0.9933357,-0.2835949,-0.05418733
0.9956204,-0.2831868,-0.05128728
0.9964263,-0.282293,-0.05424862
0.9947044,-0.2824875,-0.05699662
0.9948719,-0.2841918,-0.05687177
0.9958363,-0.2873563,-0.05904421
0.99666,-0.2859636,-0.06191068
0.9974263,-0.28293,-0.0642234
0.9964807,-0.2804684,-0.06079158
0.9952086,-0.2764693,-0.05517082
0.9959207,-0.2775284,-0.05711483
0.996129,-0.2806706,-0.0586521
0.9954579,-0.2808354,-0.05868082
0.9960626,-0.2825124,-0.06244102
0.9958313,-0.2842371,-0.06143733
0.995653,-0.2844074,-0.05464816
0.9960832,-0.2831204,-0.05215616
0.9954526,-0.2802485,-0.0550377
0.9950205,-0.2803784,-0.05448864
0.9942253,-0.2828948,-0.0520343
0.9943699,-0.2836474,-0.0525701
0.9960715,-0.2829159,-0.05197814
0.9976652,-0.2805003,-0.05373351
0.9985509,-0.278307,-0.05626512
0.9952024,-0.2786835,-0.05537739
0.9914507,-0.2778174,-0.05759467
0.9931951,-0.2759474,-0.0590503
0.9950643,-0.2782928,-0.05715705
0.995911,-0.2820818,-0.05401339
0.9979803,-0.2823577,-0.0498618
0.9974899,-0.2816906,-0.0509779
0.9963805,-0.2816767,-0.05298862
0.9967883,-0.2801396,-0.0535337
0.995707,-0.2782527,-0.05807506
0.9966821,-0.2772062,-0.06142563
0.9998696,-0.2761934,-0.06179123
0.999584,-0.2760429,-0.05790683
0.9964211,-0.2766723,-0.04891377
0.9931397,-0.2762442,-0.04580276
0.9930209,-0.2756049,-0.04814325
0.9938271,-0.2769271,-0.04832715
0.9925284,-0.2790439,-0.05043573
0.9944038,-0.2793854,-0.05313651
0.997146,-0.2766458,-0.05481128
0.9982999,-0.2734702,-0.05860636
1.000231,-0.2742411,-0.05787774
0.9994676,-0.2774271,-0.052523
0.9970079,-0.2788921,-0.04947282
0.9942357,-0.2789233,-0.04828795
0.99278,-0.2795157,-0.05015032
0.9942732,-0.2792119,-0.05254244
0.9937494,-0.2787558,-0.05138587
0.993596,-0.2796086,-0.05292186
0.9948964,-0.2791717,-0.05891995
0.9943563,-0.2797046,-0.06222736
0.9942633,-0.279798,-0.05937577
0.9935567,-0.2755689,-0.05524503
0.992733,-0.2722844,-0.05592631
0.9934381,-0.2720796,-0.05698763
0.9948617,-0.2742767,-0.05588216
0.9964436,-0.2767184,-0.05727639
0.9955795,-0.276511,-0.05812772
0.9935093,-0.2762979,-0.05738
0.9915221,-0.276398,-0.05792287
0.9893203,-0.2763783,-0.05831749
0.9889577,-0.2771735,-0.05821472
0.9907246,-0.2798411,-0.05647205
0.9932825,-0.282794,-0.05518697
0.9935469,-0.2805335,-0.057599
0.9923958,-0.2772177,-0.0597956
0.9925413,-0.2767877,-0.0593184
0.9923614,-0.2753507,-0.05977598
0.9930028,-0.2787476,-0.06525502
0.9935898,-0.2882841,-0.06999848
0.9927983,-0.2921317,-0.06729221
0.9940145,-0.2898433,-0.06531963
0.9949617,-0.2883453,-0.06717243
0.9942121,-0.2885881,-0.06588981
0.9944718,-0.2891887,-0.06413847
0.9945063,-0.2878464,-0.06384124
0.9943562,-0.2866226,-0.06271231
0.9947114,-0.2860289,-0.06615905
0.9952649,-0.2840618,-0.07248637
0.9959699,-0.2844699,-0.07311971
0.994867,-0.2854657,-0.07235488
0.9930331,-0.2857431,-0.07465422
0.9928387,-0.2891661,-0.07328395
0.9931377,-0.2915113,-0.06910447
0.9930837,-0.2910695,-0.07152143
0.9930081,-0.2912376,-0.07443479
0.9930708,-0.2898968,-0.07098461
0.9930767,-0.286346,-0.07182062
0.993019,-0.2854521,-0.0723169
0.9934412,-0.28762,-0.06473201
0.9948341,-0.2886802,-0.06139892
0.9965445,-0.288666,-0.06484313
0.9964306,-0.2872652,-0.07084411
0.9943721,-0.2856572,-0.07395289
0.9918549,-0.287851,-0.07035856
0.9890277,-0.2896798,-0.06583965
0.9874364,-0.2875047,-0.06153014
0.9896991,-0.2851253,-0.06398906
0.9929974,-0.2850862,-0.06914669
0.9921433,-0.2882073,-0.06511785
0.991395,-0.2912153,-0.06399087
0.9933131,-0.2888438,-0.06569865
0.9921896,-0.2860441,-0.06385287
0.9912673,-0.2878271,-0.06555667
0.9906495,-0.287824,-0.06585919
0.9872086,-0.2859203,-0.06455553
0.9870652,-0.2862526,-0.06498301
0.9864366,-0.2865321,-0.06167086
0.9856812,-0.2887108,-0.05913203
0.9907691,-0.2911863,-0.06402501
0.9935075,-0.2890417,-0.07149055
0.9932327,-0.2863882,-0.07346648
0.993098,-0.2857824,-0.07075491
0.9924906,-0.2864026,-0.06885477
0.9926091,-0.2882886,-0.06674775
0.9908357,-0.29019,-0.06475672
0.989617,-0.2909475,-0.06680502
0.9889617,-0.2911211,-0.06938727
0.9886612,-0.2927341,-0.06883455
0.9922234,-0.2936833,-0.06956331
0.9937707,-0.2918538,-0.0718745
0.9927927,-0.2885534,-0.07126727
0.9919593,-0.2849584,-0.06705456
0.9901649,-0.2853605,-0.06218926
0.9894519,-0.2872745,-0.06321439
0.9899718,-0.285768,-0.06636708
0.993177,-0.2867254,-0.06470103
0.9951568,-0.28899,-0.065853
0.9913414,-0.2896957,-0.06990739
0.9880829,-0.2923037,-0.0727259
0.9877398,-0.2912179,-0.07524372
0.9879481,-0.2881039,-0.07618405
0.9890734,-0.2892881,-0.07895251
0.9906843,-0.2898953,-0.07703373
0.9897776,-0.2902347,-0.0713624
0.9879443,-0.290741,-0.07103311
0.9896826,-0.2901781,-0.06703242
0.9918818,-0.2918753,-0.06653467
0.9933586,-0.2919598,-0.06959761
0.9932423,-0.2892779,-0.06310228
0.9896145,-0.2881523,-0.0620628
0.9882612,-0.2874321,-0.06731969
0.9894861,-0.2869511,-0.0712262
0.9915815,-0.2868676,-0.07406825
0.9940349,-0.2858767,-0.07113653
0.9931298,-0.2861471,-0.07108571
0.9925679,-0.2884689,-0.07150193
0.992909,-0.2903693,-0.07004264
0.9902395,-0.2915062,-0.07350874
0.9880238,-0.2919125,-0.07321686
0.9886745,-0.2911904,-0.0698397
0.9896075,-0.2899094,-0.06729465
0.9898718,-0.2881952,-0.06712426
0.9922013,-0.2875244,-0.06865519
0.9935282,-0.2868572,-0.06313184
0.9900629,-0.2854295,-0.05754355
0.9882302,-0.2861771,-0.0575429
0.9908853,-0.2862928,-0.06270869
0.9934587,-0.2846108,-0.06931872
0.9933434,-0.2838038,-0.06598459
0.9926544,-0.2829563,-0.06357253
0.9936494,-0.2832511,-0.06744201
0.9944853,-0.2840318,-0.06650441
0.9944142,-0.284445,-0.06544214
0.9929622,-0.2849989,-0.06632536
0.9922403,-0.2830784,-0.06927171
0.9937425,-0.2832183,-0.07238889
0.9931707,-0.288091,-0.06460376
0.9931375,-0.2915182,-0.05623252
0.9933412,-0.2923364,-0.06046816
0.9899574,-0.2921032,-0.06213601
0.9896026,-0.2939417,-0.05445964
0.9911441,-0.2971282,-0.0518421
0.9908268,-0.2959394,-0.05652997
0.9919474,-0.2950823,-0.05978083
0.9921325,-0.2959459,-0.05860596
0.9921345,-0.2925732,-0.05770489
0.9935884,-0.2889022,-0.0607574
0.99314,-0.2883562,-0.06210734
0.9918214,-0.2890004,-0.06303477
0.9888579,-0.2891422,-0.0673742
0.9855731,-0.2880507,-0.06892567
0.9899452,-0.2863363,-0.06796995
0.9956126,-0.2850673,-0.06780907
0.9927909,-0.2897165,-0.06814835
0.9911117,-0.2962511,-0.0682433
0.9932641,-0.2940442,-0.06774033
0.9915719,-0.2907788,-0.06774025
0.989591,-0.2900811,-0.06538236
0.9885908,-0.2856078,-0.0621379
0.9883722,-0.2850528,-0.06030363
0.9895895,-0.2884363,-0.05761824
0.9889175,-0.2883836,-0.05732654
0.990665,-0.2905597,-0.05770772
0.993796,-0.2948676,-0.05616343
0.9939177,-0.2974297,-0.0569965
0.9941479,-0.2987889,-0.05748251
0.9917402,-0.2972637,-0.05580796
0.9882451,-0.2954971,-0.05469701
0.9887626,-0.2931483,-0.05267502
0.9903188,-0.2904502,-0.05225894
0.99136,-0.2919642,-0.05483702
0.9920915,-0.2932101,-0.05952316
0.9926203,-0.2938824,-0.06500055
0.9922833,-0.2963747,-0.05938187
0.9887439,-0.2977367,-0.04996811
0.9846391,-0.2990497,-0.05262845
0.9858655,-0.2989312,-0.0531233
0.9891114,-0.2980651,-0.0498203
0.988961,-0.2984117,-0.05199998
0.9899811,-0.2955701,-0.05192219
0.9917241,-0.2919752,-0.05317276
0.9915662,-0.2930322,-0.05845965
0.9917861,-0.296298,-0.06118941
0.9907452,-0.2975319,-0.06060436
0.9906393,-0.2978334,-0.05701899
0.9910932,-0.2991235,-0.05486929
0.989031,-0.2987316,-0.0545649
0.9884571,-0.2981629,-0.05428102
0.9890358,-0.2990061,-0.05623884
0.9889457,-0.2981207,-0.05590305
0.9888395,-0.2966931,-0.05473854
0.9888236,-0.2960934,-0.05637427
0.9890405,-0.2980459,-0.05612948
0.9887487,-0.3013623,-0.05600799
0.9889322,-0.300144,-0.0557257
0.9889674,-0.2989714,-0.05391962
0.9887283,-0.2998259,-0.05436845
0.9892347,-0.2990125,-0.05411941
0.9896788,-0.3027406,-0.05391594
0.9905539,-0.3075482,-0.05514161
0.9901158,-0.304922,-0.05645853
0.9879692,-0.3010387,-0.05947547
0.9862901,-0.3001561,-0.05933154
0.9859506,-0.3023198,-0.0570761
0.98809,-0.3063899,-0.05627118
0.9896023,-0.3057889,-0.05493959
0.9889689,-0.302498,-0.05724894
0.9896054,-0.3011665,-0.06129819
0.9906947,-0.2999741,-0.06304372
0.9905417,-0.3007409,-0.06295826
0.9909132,-0.3014293,-0.06084689
0.9917261,-0.3007424,-0.06064972
0.9900378,-0.3019902,-0.06002372
0.9879674,-0.3011764,-0.05910017
0.9889365,-0.300171,-0.06201276
0.9892854,-0.3012902,-0.06250956
0.9886914,-0.3011032,-0.06197084
0.9899288,-0.3017474,-0.06292548
0.9900833,-0.3013965,-0.06133174
0.9875391,-0.3009727,-0.0610865
0.9855895,-0.3024853,-0.06328723
0.9876119,-0.3036784,-0.06522417
0.9900837,-0.3064172,-0.06493831
0.9885673,-0.3061581,-0.06046257
0.9874837,-0.3044919,-0.05696403
0.98833,-0.3060727,-0.05803235
0.9898035,-0.3044237,-0.05857086
0.9926143,-0.3025878,-0.05530232
0.9921697,-0.3029541,-0.05366759
0.9901684,-0.302287,-0.0578912
0.9895794,-0.3021236,-0.06388367
0.986709,-0.3011023,-0.06670373
0.9861895,-0.3010797,-0.06458589
0.9859755,-0.3018928,-0.06096746
0.982059,-0.3010418,-0.05942115
0.9837989,-0.301625,-0.06005607
0.9862013,-0.3024602,-0.06194382
0.9845995,-0.3024226,-0.06139956
0.9883342,-0.3013233,-0.06132104
0.9918221,-0.2993263,-0.06325036
0.9903297,-0.3007444,-0.06146478
0.9907148,-0.3022473,-0.06096068
0.9918994,-0.3006687,-0.06425097
0.9900056,-0.2986304,-0.06535575
0.9884673,-0.2938636,-0.06294188
0.9916219,-0.2900329,-0.06030062
0.9939727,-0.2932605,-0.0637886
0.9911217,-0.2977604,-0.06810109
0.9893217,-0.2991176,-0.06717265
0.9904372,-0.2987829,-0.06698551
0.9905876,-0.2971195,-0.06580629
0.9897927,-0.296079,-0.06332139
0.989452,-0.2957784,-0.06183469
0.9893059,-0.2955538,-0.05598755
0.9915888,-0.2961251,-0.05207104
0.9960261,-0.2957738,-0.06010483
0.9962287,-0.2956415,-0.06993093
0.9934759,-0.2961347,-0.06835223
0.992693,-0.2959545,-0.06297052
0.9927439,-0.2976817,-0.06223495
0.9925839,-0.2992736,-0.06213786
0.9925895,-0.2986075,-0.06271731
0.9948431,-0.2980476,-0.0625966
0.9964078,-0.2963794,-0.06121431
0.9928783,-0.2921427,-0.06256321
0.9905191,-0.2878376,-0.06434201
0.9920008,-0.2878933,-0.0651524
0.9928711,-0.2930251,-0.06208118
0.9930764,-0.2973866,-0.05820581
0.9930012,-0.2951603,-0.06163993
0.9922673,-0.2914498,-0.06347291
0.9922585,-0.2931407,-0.06012635
0.9932901,-0.293238,-0.05915423
0.9933373,-0.289999,-0.05955792
0.9928929,-0.2896787,-0.05907415
0.9940811,-0.2897958,-0.05790652
0.9946316,-0.2893747,-0.05815926
0.9932823,-0.2894453,-0.05876508
0.9916714,-0.288918,-0.05781573
0.9904317,-0.28934,-0.05770739
0.9901046,-0.2927094,-0.05770163
0.9906213,-0.2966077,-0.05825777
0.9921255,-0.2962959,-0.05850844
0.9936004,-0.2946716,-0.05612601
0.993383,-0.2932857,-0.05559164
0.9937873,-0.2899768,-0.05828451
0.995781,-0.2896825,-0.05971112
0.9962698,-0.2918606,-0.05543715
0.9953894,-0.2917553,-0.0497703
0.9947866,-0.2915475,-0.05187999
0.9933985,-0.2918067,-0.05781614
0.9923488,-0.2917194,-0.06303353
0.9921821,-0.292438,-0.06554937
0.9905903,-0.2924705,-0.06122933
0.9897017,-0.2912226,-0.05824201
0.990538,-0.2905645,-0.05723261
0.9903225,-0.2904353,-0.05434062
0.9901041,-0.2909909,-0.0574932
0.9907878,-0.2920602,-0.05961456
0.9923555,-0.2917986,-0.05653082
0.9953696,-0.291351,-0.05692272
0.9964768,-0.2920388,-0.05687573
0.9941393,-0.2929396,-0.05581554
0.9911372,-0.2949492,-0.05563523
0.9887469,-0.2963059,-0.05545497
0.9890411,-0.2939647,-0.05775458
0.9928841,-0.292166,-0.05968739
0.9955017,-0.2933786,-0.06311429
0.9944547,-0.293848,-0.06843104
0.9933603,-0.2928537,-0.06844482
0.9944635,-0.2918476,-0.06371369
0.9946307,-0.2908266,-0.05765928
0.9926169,-0.288465,-0.05450158
0.9929043,-0.287144,-0.05846976
0.9954145,-0.2911918,-0.06416395
0.9960173,-0.2946698,-0.06435032
0.9947952,-0.2929112,-0.06195006
0.9929869,-0.2926466,-0.05982062
0.9914231,-0.2946725,-0.05732973
0.98928,-0.2954268,-0.05813406
0.9855515,-0.2953712,-0.0590645
0.9843256,-0.2924025,-0.05791015
0.9875219,-0.2892519,-0.05959606
0.9900007,-0.2918329,-0.06106493
0.9894913,-0.2947802,-0.06114199
0.9909856,-0.2945167,-0.06150952
0.9939411,-0.2959611,-0.06172763
0.9913947,-0.2966104,-0.06291162
0.9879304,-0.2951026,-0.06248717
0.9890504,-0.2954768,-0.06120338
0.9894813,-0.2934852,-0.06169493
0.9903132,-0.2905095,-0.06358102
0.992335,-0.2931519,-0.06621264
0.9908469,-0.296736,-0.06550226
0.9895567,-0.2985317,-0.06354648
0.9905249,-0.2988464,-0.06484713
0.9903878,-0.29647,-0.06737797
0.9904346,-0.295252,-0.07017978
0.9921807,-0.2955306,-0.0693166
0.9936062,-0.2941827,-0.06664949
0.9926581,-0.2928113,-0.0679394
0.9900341,-0.294558,-0.06566712
0.98825,-0.2969058,-0.06137985
0.9886197,-0.2961428,-0.06251105
0.9895223,-0.2970853,-0.06356981
0.9896196,-0.2995179,-0.06572478
0.9903853,-0.2977007,-0.0693715
0.9906738,-0.2960755,-0.06873658
0.9900476,-0.2958177,-0.06902335
0.9912886,-0.2942638,-0.07112359
0.9921209,-0.2960143,-0.06719542
0.9914642,-0.299073,-0.06161927
0.9917023,-0.2977354,-0.06223094
0.9917019,-0.2954837,-0.0640092
0.9915989,-0.2948391,-0.06324936
0.9917542,-0.2943795,-0.061409
0.9913985,-0.2952435,-0.05950982
0.9908386,-0.2963304,-0.06325292
0.9901658,-0.2959573,-0.06917178
0.9910283,-0.2965455,-0.06938896
0.9923994,-0.2971423,-0.06910447
0.9924839,-0.2945733,-0.06990331
0.9931351,-0.2925386,-0.06953449
0.9931901,-0.2955881,-0.07122127
0.9918621,-0.2986454,-0.07224379
0.991295,-0.2971427,-0.06864726
0.9907845,-0.2969445,-0.06528669
0.9896736,-0.299603,-0.06715325
0.9884058,-0.3001721,-0.07124788
0.9871091,-0.2987845,-0.07367551
0.9873977,-0.2964732,-0.07427106
0.9887801,-0.2952883,-0.07205266
0.9890208,-0.2968979,-0.06711286
0.9888721,-0.2974852,-0.06265171
0.9890886,-0.2958494,-0.06367049
0.9900717,-0.2940702,-0.06704371
0.9924091,-0.2944281,-0.06456719
0.9936839,-0.2972786,-0.06297869
0.9930213,-0.2979656,-0.06459139
0.9924643,-0.2967092,-0.06395123
0.99144,-0.2970842,-0.06705838
0.9897345,-0.2964062,-0.07128526
0.9899481,-0.294562,-0.07329015
0.9909904,-0.2950954,-0.07379814
0.9909229,-0.2962489,-0.06542275
0.9918127,-0.295896,-0.05634676
0.9920996,-0.2956359,-0.0593891
0.9908101,-0.295573,-0.06560622
0.9904473,-0.294085,-0.06526785
0.9899096,-0.2922376,-0.06527992
0.9898786,-0.2921886,-0.06681652
0.9892958,-0.2927131,-0.06557489
0.988426,-0.2931288,-0.06458357
0.9920703,-0.2942591,-0.0616241
0.9941663,-0.2945922,-0.06176473
0.9926335,-0.2942263,-0.06492007
0.9931019,-0.2934375,-0.06313137
0.9931127,-0.2917834,-0.06336261
0.9929607,-0.2911873,-0.06188547
0.9930273,-0.2908826,-0.06187359
0.9921443,-0.2898371,-0.06962214
0.9922918,-0.2890862,-0.06901817
0.9924104,-0.2879052,-0.06459416
0.9923927,-0.2881282,-0.06516022
0.9923379,-0.2929063,-0.06305354
0.9922956,-0.2976591,-0.06005225
0.9925117,-0.2959403,-0.05972386
0.9923769,-0.2926559,-0.06241442
0.9931656,-0.2923281,-0.06462951
0.9933358,-0.2912849,-0.06218043
0.9924237,-0.2913778,-0.06018152
0.991197,-0.2922733,-0.06254125
0.9888694,-0.2912024,-0.06497158
0.9879696,-0.2921042,-0.06545662
0.9874687,-0.2937244,-0.06550573
0.9862589,-0.2945692,-0.06503869
0.9892916,-0.2948239,-0.06438312
0.9933562,-0.2930093,-0.06103465
0.9918213,-0.2927006,-0.05705094
0.9910503,-0.2925724,-0.0597491
0.9942194,-0.2919907,-0.06235814
0.9948414,-0.2936763,-0.05886147
0.9939464,-0.2941307,-0.05720054
0.9925819,-0.294336,-0.05802812
0.9902366,-0.2950241,-0.05796213
0.9906748,-0.2950054,-0.06008164
0.9912968,-0.2961972,-0.06214469
0.9898427,-0.2960624,-0.06165573
0.9890826,-0.2954119,-0.06431264
0.9894497,-0.2961213,-0.06818222
0.9914303,-0.2957836,-0.06707285
0.9935438,-0.2957064,-0.06720583
0.991696,-0.2960141,-0.07161873
0.9893368,-0.2957008,-0.07239883
0.9925562,-0.2958733,-0.06768655
0.9960027,-0.295875,-0.06190453
0.9955401,-0.2957524,-0.06024007
0.9941951,-0.2959074,-0.06506843
0.9923806,-0.2957962,-0.07095462
0.9925875,-0.295827,-0.07280658
0.9923034,-0.2962269,-0.06979108
0.988215,-0.2975752,-0.06649375
0.986845,-0.2988322,-0.06779672
0.9885289,-0.2970294,-0.06684924
0.9893036,-0.2950362,-0.06323818
0.9889547,-0.2969229,-0.06516732
0.9885519,-0.2992175,-0.0690418
0.9893446,-0.300356,-0.07139069
0.9897444,-0.3017748,-0.07024858
0.9905402,-0.300579,-0.06284182
0.9913831,-0.2982997,-0.05730367
0.9904315,-0.2987443,-0.05828972
0.9892218,-0.2996148,-0.06082346
0.9875286,-0.300132,-0.06274354
0.9874921,-0.3000738,-0.06461287
0.9897979,-0.2987961,-0.06576735
0.9913269,-0.2984638,-0.06551746
0.9914978,-0.2982466,-0.06591471
0.990498,-0.296811,-0.06621615
0.9909287,-0.2953911,-0.0622937
0.9914246,-0.2958394,-0.05807128
0.9902928,-0.2981175,-0.05901724
0.9905063,-0.2991518,-0.05897949
0.9903,-0.2993492,-0.05700698
0.9909774,-0.2991522,-0.06291634
0.9922091,-0.2974558,-0.06950679
0.9902836,-0.2968065,-0.06649663
0.9890618,-0.2974998,-0.06448804
0.9887664,-0.2982191,-0.06605217
0.9888551,-0.2982564,-0.06510589
0.9903165,-0.2960158,-0.06599435
0.991185,-0.2938868,-0.06740073
0.9920851,-0.2960761,-0.06653577
0.9917305,-0.2993703,-0.06840649
0.9911199,-0.2987248,-0.07300995
0.9911516,-0.2981649,-0.07624201
0.9899918,-0.2990436,-0.07476362
0.991023,-0.2987371,-0.06991162
0.9921734,-0.3003834,-0.06617497
0.9899956,-0.3015937,-0.06422639
0.9872568,-0.2984888,-0.06431128
0.9855259,-0.2949394,-0.06157143
0.9869448,-0.2939351,-0.0573449
0.9892453,-0.2948476,-0.06371064
0.9890885,-0.2959679,-0.07144325
0.9898437,-0.2962875,-0.06920792
0.9917713,-0.2953842,-0.06689129
0.9926285,-0.2949413,-0.06653673
0.9922262,-0.2953139,-0.06572239
0.9905108,-0.2949368,-0.0671099
0.989764,-0.2950843,-0.06919015
0.990495,-0.2941271,-0.07184152
0.9903457,-0.2925271,-0.07371877
0.9902808,-0.29299,-0.07048821
0.9913074,-0.2932023,-0.06596368
0.9919005,-0.2928653,-0.06603118
0.9913734,-0.2921053,-0.06547866
0.9897485,-0.2913881,-0.06244979
0.9883834,-0.2916792,-0.06318082
0.9887389,-0.2916947,-0.06613672
0.9892064,-0.2917045,-0.06883696
0.9887455,-0.2919586,-0.06858614
0.9889908,-0.2934643,-0.06491494
0.9903116,-0.2947139,-0.0642834
0.992208,-0.2925501,-0.06366354
0.9937247,-0.2897695,-0.062417
0.9929655,-0.2892165,-0.06299851
0.991907,-0.2900462,-0.06228288
0.9924462,-0.2912198,-0.06425553
0.9924484,-0.291956,-0.06531801
0.99243,-0.290801,-0.0629808
0.9931589,-0.2898354,-0.06305437
0.992895,-0.291583,-0.06294846
0.9911573,-0.293277,-0.0648705
0.9896613,-0.2949925,-0.06751841
0.9905643,-0.2965036,-0.06491942
0.9924038,-0.2956228,-0.06284068
0.993347,-0.2946969,-0.06471168
0.9933264,-0.294367,-0.06789583
0.9927265,-0.2942877,-0.07013046
0.9927742,-0.2946095,-0.06995007
0.9914464,-0.2943912,-0.06938146
0.9894679,-0.2945755,-0.07218048
0.9904256,-0.2945278,-0.07485892
0.9917429,-0.2919349,-0.07341108
0.9925108,-0.28944,-0.07324499
0.9935279,-0.2914775,-0.07315138
0.9930425,-0.2931863,-0.0686943
0.992803,-0.2913237,-0.0646768
0.9933059,-0.2916048,-0.06557731
0.9924189,-0.2914926,-0.06884873
0.9903215,-0.291454,-0.06967339
0.9887398,-0.2962151,-0.07188175
0.9911239,-0.2979346,-0.07522639
0.9940202,-0.2956253,-0.07344055
0.9900527,-0.292948,-0.07115443
0.9854635,-0.2910301,-0.07187915
0.986161,-0.294518,-0.07527078
0.9873575,-0.2970937,-0.07672263
0.9885371,-0.2955861,-0.07346026
0.989032,-0.2957941,-0.07408872
0.9868854,-0.2968826,-0.07457258
0.9857161,-0.297542,-0.07372463
0.987105,-0.2972006,-0.07898596
0.9889435,-0.2970587,-0.0810212
0.9891545,-0.2972564,-0.07984325
0.9886722,-0.2959756,-0.07893684
0.9893583,-0.2947592,-0.07493301
0.990658,-0.2940704,-0.07375842
0.9917973,-0.2944549,-0.07250574
0.9901974,-0.2946896,-0.07096609
0.9879972,-0.2941619,-0.07321629
0.9898467,-0.2947897,-0.07387778
0.991035,-0.2953338,-0.07634287
0.9899034,-0.2958055,-0.07899011
0.9900916,-0.2952183,-0.07627056
0.9892143,-0.2936407,-0.07354539
0.9866439,-0.2936163,-0.06923589
0.9859113,-0.2932261,-0.06582455
0.9878933,-0.2940798,-0.06801045
0.9896884,-0.297768,-0.06702254
0.9887486,-0.2990739,-0.06693798
0.9873872,-0.2960854,-0.07212125
0.9866812,-0.2914253,-0.07271114
0.9863755,-0.290212,-0.07327249
0.9896277,-0.2956876,-0.07869534
0.9927361,-0.3005149,-0.08346305
0.9900031,-0.2980155,-0.08293399
0.9879709,-0.2957395,-0.07973163
0.9911517,-0.2982607,-0.08268578
0.9934815,-0.2992637,-0.08442805
0.9930593,-0.2996638,-0.08231061
0.9929846,-0.2999289,-0.08243754
0.9931172,-0.2971777,-0.07882099
0.9930018,-0.2956497,-0.07663657
0.992923,-0.293626,-0.07817194
0.9919577,-0.2922581,-0.07842731
0.9904962,-0.2943556,-0.0814318
