accx,accy,accz
1.01067,-0.1620609,-0.1433815
1.011663,-0.1627761,-0.1465984
1.010282,-0.1615257,-0.146225
1.009466,-0.161289,-0.1442152
1.010161,-0.16371,-0.1467754
1.007389,-0.1662255,-0.1447257
1.006073,-0.1644414,-0.1413351
1.00668,-0.1634257,-0.1421588
1.006237,-0.1659853,-0.1412469
1.00906,-0.1673368,-0.1434313
1.010606,-0.1666271,-0.1475211
1.009407,-0.1669395,-0.1497553
1.009162,-0.1690293,-0.1504469
1.00746,-0.169287,-0.1488846
1.006184,-0.1678588,-0.1528735
1.006721,-0.1693577,-0.1559808
1.005851,-0.1713943,-0.1527468
1.005235,-0.1708755,-0.151911
1.008594,-0.1725085,-0.1511325
1.010897,-0.1746135,-0.1518419
1.009005,-0.1724532,-0.1537664
1.007815,-0.1689401,-0.1551875
1.006479,-0.1661861,-0.1603913
1.005768,-0.1685152,-0.1593959
1.007148,-0.173215,-0.1533888
1.008559,-0.1724051,-0.1536601
1.010544,-0.172163,-0.1541137
1.009916,-0.169511,-0.1513071
1.009019,-0.1624994,-0.1500723
1.010332,-0.1638799,-0.1541646
1.009511,-0.1659461,-0.1589681
1.00883,-0.1652593,-0.1571017
1.006528,-0.1708149,-0.155828
1.002895,-0.1731858,-0.1578192
1.004823,-0.1721055,-0.1562354
1.006677,-0.1703374,-0.1535289
1.005083,-0.1646148,-0.1507138
1.005046,-0.1662751,-0.1503685
1.004161,-0.1704944,-0.1585135
1.002473,-0.1698601,-0.1645439
1.005302,-0.1731889,-0.159264
1.008317,-0.1736128,-0.1548421
1.006855,-0.1711676,-0.1592432
1.006385,-0.1719408,-0.1625503
1.007458,-0.1686158,-0.1622745
1.006601,-0.1653936,-0.1643704
1.005908,-0.1670686,-0.1628262
1.005543,-0.1698559,-0.1577004
1.005427,-0.1711464,-0.1567652
1.00707,-0.1687228,-0.1589491
1.008619,-0.1653388,-0.163312
1.008411,-0.1638876,-0.1653711
1.006641,-0.1645521,-0.1650899
1.006616,-0.1644089,-0.1673287
1.009409,-0.1617635,-0.1662945
1.009243,-0.1609819,-0.1615553
1.0051,-0.1639368,-0.1560138
1.002065,-0.1676937,-0.1522366
1.004766,-0.1690099,-0.154542
1.008924,-0.1706366,-0.1567787
1.006585,-0.1735026,-0.1596176
1.005064,-0.1737678,-0.1652284
1.0064,-0.1740191,-0.1649894
1.004872,-0.1750667,-0.1644442
1.005655,-0.1745773,-0.1679294
1.006373,-0.1717869,-0.1670806
1.006118,-0.1694548,-0.1661175
1.006743,-0.1712497,-0.1658707
1.003389,-0.1711217,-0.1599074
1.003221,-0.1684501,-0.1554503
1.005431,-0.1659916,-0.1528004
1.003499,-0.1616647,-0.1496301
1.004081,-0.1622808,-0.1559347
1.005769,-0.1664312,-0.1641261
1.008959,-0.1675535,-0.1630915
1.01357,-0.1676243,-0.1629553
1.008667,-0.1651725,-0.1638556
1.002722,-0.163443,-0.1598169
1.006106,-0.1635832,-0.158867
1.007875,-0.1626973,-0.160028
1.007865,-0.1642013,-0.1576209
1.010851,-0.1644064,-0.156412
1.009419,-0.1628154,-0.1569232
1.006148,-0.1625476,-0.156902
1.005695,-0.1608895,-0.1559174
1.006038,-0.1624115,-0.1543535
1.008502,-0.165221,-0.1550737
1.008892,-0.1639704,-0.1567567
1.007479,-0.1652795,-0.1567747
1.007905,-0.1673686,-0.1542527
1.006918,-0.1646115,-0.1524172
1.008405,-0.162064,-0.156304
1.011053,-0.1623668,-0.1594033
1.010345,-0.1630592,-0.154076
1.011139,-0.1641861,-0.1445696
1.011377,-0.1656333,-0.1394285
1.009609,-0.1643149,-0.1420254
1.008386,-0.1616913,-0.1466358
1.006207,-0.1624974,-0.1485509
1.005324,-0.1645072,-0.1491009
1.007544,-0.1637979,-0.1496132
1.009979,-0.161686,-0.1536227
1.01008,-0.160879,-0.1589772
1.009198,-0.161946,-0.1570897
1.008603,-0.1631206,-0.1530162
1.006339,-0.1634438,-0.1504819
1.004748,-0.1638937,-0.1445593
1.006228,-0.1632889,-0.1433923
1.008657,-0.1592261,-0.1472626
1.011354,-0.1560641,-0.1477867
1.0127,-0.1593032,-0.1488647
1.012302,-0.1627659,-0.149646
1.011707,-0.1613484,-0.1483588
1.008134,-0.1625038,-0.1485913
1.004148,-0.166763,-0.1496414
1.006104,-0.1663082,-0.1505175
1.008206,-0.1643659,-0.1506776
1.006266,-0.164531,-0.150795
1.005628,-0.1637401,-0.1512843
1.004922,-0.1636386,-0.1529749
1.003382,-0.1641822,-0.1555602
1.004362,-0.1637399,-0.1559171
1.004449,-0.1642436,-0.1563909
1.003736,-0.1657543,-0.1550694
1.004474,-0.1671294,-0.1525075
1.004635,-0.1669312,-0.1588479
1.006705,-0.1662336,-0.1645064
1.008853,-0.1665126,-0.1573982
1.005589,-0.1649691,-0.1503282
1.001927,-0.1631069,-0.1522562
1.002524,-0.1642378,-0.1586978
1.003475,-0.1656636,-0.165418
1.003192,-0.1651528,-0.1661575
1.003515,-0.1632604,-0.1606972
1.002857,-0.1615696,-0.1585564
1.002552,-0.1610513,-0.1591199
1.005556,-0.1610361,-0.1553642
1.008743,-0.161926,-0.1513224
1.010268,-0.1622314,-0.152771
1.009141,-0.1615564,-0.156514
1.007364,-0.1626356,-0.1573083
1.008657,-0.1631245,-0.1574642
1.008424,-0.1629281,-0.1597153
1.006571,-0.1643467,-0.1614851
1.005134,-0.1644519,-0.1607918
1.002453,-0.1652308,-0.1589646
1.002756,-0.1678869,-0.1605961
1.005033,-0.1684293,-0.1620759
1.005247,-0.1687162,-0.1608113
1.003205,-0.1693057,-0.1630733
1.000565,-0.1691169,-0.1646632
1.003086,-0.1696049,-0.1636581
1.00702,-0.1683987,-0.1639189
1.008051,-0.1665462,-0.1634589
1.010009,-0.1672101,-0.163109
1.008202,-0.1692563,-0.165702
1.003712,-0.1714974,-0.1726757
1.003697,-0.170031,-0.1758808
1.003577,-0.1665361,-0.172897
1.002281,-0.1665209,-0.1751603
1.003182,-0.166355,-0.1777734
1.005411,-0.1647663,-0.1758441
1.009557,-0.1635839,-0.1763047
1.011395,-0.1637688,-0.1767
1.005755,-0.1662372,-0.1761143
1.000517,-0.1670475,-0.1765337
1.002793,-0.1673191,-0.1751133
1.004872,-0.1704777,-0.1700937
1.003553,-0.1740235,-0.164822
1.004534,-0.1739852,-0.1656804
1.005367,-0.1701192,-0.1672726
1.005286,-0.1687277,-0.1642648
1.00574,-0.1699836,-0.164529
1.003443,-0.1711816,-0.1645243
1.002133,-0.172723,-0.1616517
1.003153,-0.1713916,-0.1651883
1.003632,-0.170167,-0.1682559
1.004501,-0.1710956,-0.1663425
1.004208,-0.1708416,-0.167738
1.003942,-0.1707607,-0.1704416
1.004401,-0.1710539,-0.1709139
1.00383,-0.1717085,-0.1691323
1.003333,-0.1725285,-0.1675384
1.002357,-0.1724395,-0.1698835
1.001684,-0.1729937,-0.1722795
1.00198,-0.1739189,-0.1726866
1.00393,-0.1734192,-0.172649
1.007497,-0.1715428,-0.1719958
1.007192,-0.1704084,-0.1722987
1.004266,-0.170182,-0.1714545
1.003061,-0.1679971,-0.1683256
1.00237,-0.164048,-0.1649888
1.002793,-0.1639392,-0.1605387
1.003246,-0.1700061,-0.1641823
1.003345,-0.1748056,-0.1761273
1.004601,-0.1737539,-0.1780255
1.004327,-0.1711151,-0.1749069
1.003764,-0.170469,-0.1742218
1.004306,-0.1709331,-0.1708676
1.003182,-0.1708157,-0.1711648
1.002396,-0.1715651,-0.1713564
1.002871,-0.1744212,-0.1702922
1.002808,-0.1770383,-0.1733067
1.002761,-0.1751666,-0.1739426
1.003113,-0.1717521,-0.174499
1.004768,-0.1715327,-0.1781128
1.007004,-0.1680661,-0.1807718
1.007204,-0.1639386,-0.1764769
1.005629,-0.1657544,-0.1682123
1.004336,-0.1670106,-0.1692216
1.003984,-0.1691056,-0.1734046
1.004107,-0.1721979,-0.1746964
1.004305,-0.1705493,-0.1768229
1.004112,-0.1693976,-0.1749735
1.003921,-0.1697071,-0.1692954
1.003225,-0.1689259,-0.1616038
1.001505,-0.1687052,-0.159465
1.00175,-0.1678681,-0.1660862
1.005121,-0.1677356,-0.1670854
1.007857,-0.1686358,-0.1626045
1.006437,-0.1694765,-0.1605669
1.004291,-0.173213,-0.1624568
1.004794,-0.1758857,-0.166706
1.003365,-0.1723277,-0.1670891
1.001821,-0.1695599,-0.1679669
1.003633,-0.1718961,-0.1690477
1.005148,-0.173042,-0.167443
1.008412,-0.1712621,-0.1701918
1.010273,-0.1694957,-0.1717028
1.004726,-0.1680608,-0.1698238
1.000135,-0.1701345,-0.1683898
1.001118,-0.1729009,-0.1662538
1.002347,-0.1678133,-0.1690473
1.003101,-0.1630139,-0.1720401
1.005793,-0.1657422,-0.1682826
1.008176,-0.1672853,-0.1643579
1.008317,-0.1683306,-0.1645601
1.007853,-0.172167,-0.1701089
1.00471,-0.172918,-0.1754393
1.001441,-0.1710942,-0.1723973
1.003434,-0.1687247,-0.1688242
1.007108,-0.1656801,-0.1714405
1.009732,-0.1660983,-0.1718084
1.009769,-0.1675976,-0.1712576
1.008015,-0.1664017,-0.1730515
1.008331,-0.1679087,-0.1704307
1.007747,-0.1709898,-0.170307
1.006813,-0.1703599,-0.1747518
1.00729,-0.1691365,-0.1745002
1.005698,-0.1697729,-0.1714141
1.005132,-0.1698733,-0.1674434
1.006126,-0.1680323,-0.1670169
1.006173,-0.1680162,-0.1701819
1.007128,-0.1706752,-0.1719462
1.006273,-0.1728141,-0.1761447
1.004821,-0.1731965,-0.175692
1.00582,-0.1673755,-0.1698489
1.005639,-0.1620929,-0.167363
1.005162,-0.167364,-0.1640827
1.004864,-0.1716676,-0.1647348
1.003944,-0.1694128,-0.1676655
1.005001,-0.1705035,-0.1658607
1.006053,-0.1737099,-0.1669304
1.005501,-0.1731001,-0.1668949
1.005382,-0.173168,-0.1649737
1.005704,-0.1744312,-0.1659321
1.005185,-0.172933,-0.1664188
1.003672,-0.1724676,-0.1707742
1.002354,-0.1715398,-0.1746832
1.002672,-0.1693574,-0.1731442
1.004076,-0.1686052,-0.1708305
1.00431,-0.1659362,-0.1658493
1.004629,-0.1659388,-0.1630367
1.007122,-0.1682852,-0.1679388
1.009921,-0.1687271,-0.1738789
1.010396,-0.1716072,-0.1737766
1.009224,-0.1714558,-0.1693708
1.009708,-0.1687601,-0.1671793
1.009564,-0.1698346,-0.1681113
1.006618,-0.1695865,-0.1703837
1.004961,-0.1700042,-0.1712696
1.005466,-0.1714291,-0.1699651
1.006463,-0.1694683,-0.1673644
1.005781,-0.168376,-0.1640692
1.005007,-0.1691833,-0.1650724
1.006561,-0.1715079,-0.1669323
1.00583,-0.1740699,-0.1652205
1.004409,-0.173671,-0.1643149
1.004289,-0.1732586,-0.1636022
1.00221,-0.1728909,-0.1643936
1.002616,-0.1710939,-0.1679083
1.005329,-0.1686353,-0.1701805
1.005698,-0.1664668,-0.1699676
1.005685,-0.1696763,-0.1689383
1.005508,-0.1738276,-0.1704828
1.005392,-0.1702972,-0.1709747
1.005458,-0.166979,-0.1676772
1.003593,-0.1684491,-0.1660254
1.002228,-0.1686748,-0.1664346
1.002725,-0.1703892,-0.1666761
1.003335,-0.1734166,-0.164872
1.004518,-0.1723142,-0.1629987
1.005626,-0.1716104,-0.1642715
1.00413,-0.1725158,-0.1665842
1.001765,-0.1706814,-0.1733027
1.003582,-0.1677265,-0.1803873
1.007902,-0.1659682,-0.1773353
1.01032,-0.1664022,-0.1729483
1.009554,-0.1672156,-0.1729467
1.006506,-0.1663851,-0.1699235
1.004773,-0.1667406,-0.1685316
1.002459,-0.1678763,-0.1716399
1.001673,-0.1680402,-0.1731929
1.005105,-0.168271,-0.1744378
1.005068,-0.1682917,-0.1746171
1.00524,-0.169924,-0.1745308
1.006335,-0.172686,-0.1755234
1.003767,-0.1733851,-0.1712646
1.004216,-0.1738339,-0.1643611
1.004389,-0.1745095,-0.1599377
1.00366,-0.1738186,-0.1627518
1.004774,-0.1717561,-0.1691045
1.00373,-0.1698143,-0.1674326
1.004606,-0.1701291,-0.1690836
1.006407,-0.1705136,-0.1757087
1.007725,-0.1705734,-0.1762709
1.008213,-0.171484,-0.1749397
1.005025,-0.1713471,-0.170636
1.003734,-0.1712454,-0.168822
1.001743,-0.1701482,-0.1703264
0.99864,-0.1685382,-0.1686065
1.00014,-0.1693969,-0.1696201
1.000472,-0.1679235,-0.1688217
0.9995299,-0.1656166,-0.1670835
1.000926,-0.1670437,-0.1683532
1.003592,-0.1678324,-0.1658079
1.006533,-0.1683535,-0.1637956
1.006077,-0.1701474,-0.1645809
1.004693,-0.17112,-0.1682578
1.005946,-0.1711142,-0.1729385
1.005751,-0.1705179,-0.1727399
1.005081,-0.1708718,-0.1733226
1.005944,-0.1708737,-0.1744285
1.005456,-0.1692937,-0.1737959
1.005375,-0.1675681,-0.1773714
1.005869,-0.1660126,-0.1812806
1.005466,-0.1668709,-0.1802235
1.006554,-0.1689679,-0.1793771
1.007296,-0.1695867,-0.1818786
1.006496,-0.169212,-0.1817451
1.004452,-0.1663503,-0.1769911
1.000008,-0.1634859,-0.1737402
0.9975488,-0.164676,-0.1737332
0.9994633,-0.1698102,-0.171338
1.000857,-0.1756815,-0.1663521
1.000433,-0.1758708,-0.1672588
1.003314,-0.1731422,-0.1699892
1.006731,-0.1736011,-0.1687347
1.003894,-0.173802,-0.1712527
1.001428,-0.173355,-0.1737784
1.003176,-0.173466,-0.1720458
1.00307,-0.1717356,-0.1704238
1.002157,-0.1698858,-0.1695547
1.002311,-0.1689616,-0.1717667
1.002026,-0.1681472,-0.1708615
1.002768,-0.169504,-0.1677581
1.003812,-0.1711767,-0.1690947
1.00506,-0.1683302,-0.1695384
1.007612,-0.1654141,-0.1727543
1.006465,-0.1682061,-0.1734019
1.003422,-0.171795,-0.1688136
1.004307,-0.1732559,-0.1702895
1.004393,-0.1733497,-0.1697664
1.00357,-0.1716526,-0.168274
1.003673,-0.1719534,-0.1695044
1.002294,-0.1728265,-0.1679859
1.002634,-0.1715925,-0.1724144
1.003212,-0.1714189,-0.1797395
1.002564,-0.1702443,-0.1817454
1.003853,-0.1677033,-0.1797557
1.004478,-0.1663369,-0.1753376
1.003919,-0.1661339,-0.1728332
1.003271,-0.1675369,-0.1721302
1.002814,-0.1684441,-0.1706831
1.004552,-0.1697438,-0.1694442
1.006232,-0.1710692,-0.1720399
1.005317,-0.1707456,-0.172032
1.003381,-0.1728965,-0.1660255
1.002443,-0.1734365,-0.1664406
1.002643,-0.1688507,-0.1674142
1.00295,-0.1654094,-0.1655565
1.002972,-0.1660761,-0.1676466
1.003515,-0.1676963,-0.1671885
1.004583,-0.166275,-0.1707544
1.004252,-0.1662468,-0.1747864
1.003672,-0.1674727,-0.1678537
1.003543,-0.1660165,-0.1631705
1.002414,-0.1673706,-0.1651347
1.00259,-0.169668,-0.1673312
1.003156,-0.1712461,-0.1701425
1.00251,-0.1724138,-0.1748878
1.002831,-0.1706991,-0.1752738
1.002892,-0.1709132,-0.1725227
1.002961,-0.1709655,-0.1755721
1.004703,-0.1700229,-0.1730242
1.006046,-0.1696231,-0.1684253
1.005743,-0.1671163,-0.1710045
1.005391,-0.1684,-0.166458
1.006576,-0.1714795,-0.1625509
1.00735,-0.1723403,-0.1677363
1.006808,-0.1725347,-0.1705929
1.006738,-0.1696676,-0.1678739
1.005948,-0.1678484,-0.1652975
1.003962,-0.1669783,-0.1682262
1.002056,-0.1651821,-0.1695159
1.001441,-0.1658643,-0.1678897
1.003978,-0.1678114,-0.1675116
1.006297,-0.1701194,-0.1658836
1.003928,-0.1688741,-0.16676
1.001584,-0.1659433,-0.1671381
1.002995,-0.1668927,-0.1656538
1.003209,-0.166757,-0.1653776
1.002254,-0.1663495,-0.1647844
1.003049,-0.1675919,-0.1715544
1.003005,-0.1690513,-0.1794338
1.003243,-0.1715709,-0.1751723
1.003823,-0.1703651,-0.1690795
1.002444,-0.1683187,-0.1675705
1.002651,-0.1698858,-0.1655838
1.004101,-0.1696193,-0.1646392
1.004384,-0.1695561,-0.1640859
1.005155,-0.1724793,-0.1630933
1.00595,-0.1739324,-0.1647372
1.006499,-0.1720822,-0.1662082
1.006422,-0.1692975,-0.168545
1.003469,-0.1680798,-0.1717393
1.000351,-0.1668394,-0.1700713
1.001876,-0.1675764,-0.16772
1.003948,-0.1704158,-0.1654973
1.002579,-0.1677828,-0.1641174
1.003322,-0.1651955,-0.1665059
1.004865,-0.1673294,-0.1676538
1.002945,-0.1667376,-0.1716805
1.002912,-0.1667739,-0.1752775
1.005683,-0.1698044,-0.1712745
1.007296,-0.1718863,-0.1698548
1.005558,-0.1739209,-0.1714665
1.003117,-0.1751082,-0.171142
1.005337,-0.1741873,-0.1694102
1.007329,-0.1712505,-0.165544
1.006473,-0.1700016,-0.1644509
1.006297,-0.1711224,-0.1671707
1.00523,-0.1703842,-0.1692046
1.00528,-0.1720549,-0.1692762
1.00605,-0.1763788,-0.1688728
1.005018,-0.1761197,-0.1708026
1.004561,-0.1707017,-0.1717879
1.003164,-0.166223,-0.1690308
1.002132,-0.1679436,-0.167927
1.003464,-0.1703707,-0.1671515
1.004565,-0.1711554,-0.1643904
1.005925,-0.1746899,-0.1653522
1.005437,-0.1754244,-0.1676909
1.00232,-0.1717622,-0.1686962
1.001181,-0.1699097,-0.1707274
1.002965,-0.169465,-0.1707364
1.004856,-0.1677526,-0.1680151
1.00346,-0.1662355,-0.1657517
1.001841,-0.1684603,-0.1676832
1.003173,-0.1714815,-0.1732473
1.002923,-0.17088,-0.1763757
1.002194,-0.1707369,-0.1753129
1.002265,-0.1720172,-0.1744522
1.001107,-0.1722912,-0.1774394
1.002139,-0.1725822,-0.1792746
1.003806,-0.1729573,-0.1782828
1.004339,-0.1740325,-0.1765585
1.005307,-0.174984,-0.1687257
1.002361,-0.1755486,-0.1618589
0.9983726,-0.1759421,-0.1675345
0.9998224,-0.1737769,-0.1742561
1.000921,-0.1730609,-0.1710202
0.9993356,-0.1750298,-0.1688225
1.000055,-0.1745867,-0.1688876
1.000748,-0.172293,-0.1658723
1.001305,-0.1700619,-0.1713968
1.003607,-0.1707381,-0.1784189
1.003009,-0.1730597,-0.1779898
1.002115,-0.1719361,-0.180753
1.003299,-0.1703989,-0.1821322
1.002809,-0.1706369,-0.181551
1.003497,-0.1710063,-0.1819844
1.004573,-0.170946,-0.1787942
1.002753,-0.1705585,-0.1769539
1.000635,-0.1710336,-0.17671
0.999483,-0.1708477,-0.1765638
1.000254,-0.1713362,-0.1772656
1.002327,-0.1750431,-0.1771301
1.003951,-0.1792409,-0.1744793
1.004517,-0.1810757,-0.1697759
1.003092,-0.1796148,-0.1702314
1.002325,-0.1766948,-0.1723979
1.002981,-0.173381,-0.1733467
1.002943,-0.172157,-0.1786553
1.003428,-0.1727641,-0.1805667
1.003447,-0.1701419,-0.177902
1.001651,-0.1707973,-0.1760002
1.000848,-0.1755802,-0.1717519
1.001571,-0.1767357,-0.1690944
1.001708,-0.1764831,-0.1698195
1.002051,-0.1742915,-0.1696193
1.003187,-0.1727908,-0.170677
1.002903,-0.1740627,-0.1717353
1.00262,-0.1734229,-0.1702445
1.003923,-0.1736113,-0.1710875
1.00421,-0.1737839,-0.1731802
1.003266,-0.1733089,-0.1735843
1.003186,-0.1739395,-0.1740822
1.006208,-0.1733813,-0.1733287
1.009367,-0.1736573,-0.1736069
1.006795,-0.1737543,-0.1751793
1.004145,-0.17335,-0.1756853
1.005753,-0.1738787,-0.1769742
1.005043,-0.1727258,-0.1764254
1.003521,-0.1700599,-0.1759134
1.005282,-0.167439,-0.1765798
1.005675,-0.1692179,-0.1742678
1.003558,-0.1724051,-0.1730797
1.002244,-0.171051,-0.1748928
1.002972,-0.1729474,-0.1799274
1.004762,-0.1763904,-0.1847991
1.0052,-0.1734341,-0.1806515
1.004908,-0.1700667,-0.1734979
1.005551,-0.1687437,-0.16956
1.005678,-0.1678411,-0.1640897
1.004333,-0.1687055,-0.1604995
1.003085,-0.1686338,-0.1617097
1.003843,-0.1663852,-0.163587
1.006205,-0.1658338,-0.1677511
1.007497,-0.1672932,-0.1709817
1.005699,-0.1667452,-0.1682321
1.003094,-0.1661263,-0.1684828
1.002482,-0.1671889,-0.1748859
1.002682,-0.1661337,-0.1793068
1.002931,-0.165203,-0.1775909
1.002798,-0.1662683,-0.1751517
1.002595,-0.1679128,-0.1788259
1.003341,-0.1694525,-0.1812102
1.004467,-0.1681161,-0.1800552
1.005687,-0.1663409,-0.1804194
1.00415,-0.1662771,-0.1772132
1.00163,-0.1667938,-0.1726846
1.003066,-0.1670222,-0.1725767
1.00434,-0.1665276,-0.177457
1.004804,-0.1686839,-0.1827564
1.005841,-0.1701825,-0.1802459
1.003704,-0.1691712,-0.1762582
1.002094,-0.1697105,-0.1747737
1.00383,-0.17045,-0.1723279
1.004641,-0.1720173,-0.1731314
1.004071,-0.1719923,-0.1740354
1.0042,-0.1683169,-0.1730958
1.005211,-0.1657452,-0.1730223
1.005797,-0.1668946,-0.1712396
1.004867,-0.1710409,-0.1697387
1.001895,-0.1728369,-0.1694943
0.9992855,-0.1714252,-0.1709718
1.001763,-0.1710764,-0.1733189
1.00589,-0.1743643,-0.1722253
1.005913,-0.1789065,-0.1726823
1.005232,-0.1774175,-0.1744616
1.005742,-0.1725165,-0.1733089
1.005488,-0.1672736,-0.173704
1.00553,-0.1632641,-0.1747394
1.005287,-0.1658292,-0.1750404
1.00366,-0.1690343,-0.1756299
1.002318,-0.1730025,-0.1768497
1.002532,-0.1777986,-0.1798667
1.003167,-0.1722539,-0.1794404
1.002997,-0.1666172,-0.1746845
1.004407,-0.1700409,-0.1696353
1.005672,-0.1700765,-0.165246
1.00198,-0.1675485,-0.1657656
0.998535,-0.1682937,-0.1701426
1.000078,-0.1687337,-0.1768745
1.00161,-0.1714345,-0.1861824
1.001189,-0.175371,-0.1843697
1.001464,-0.1755697,-0.1748454
1.001535,-0.1760037,-0.1749032
1.001307,-0.1758691,-0.1760764
1.002475,-0.1724759,-0.1759826
1.003214,-0.1713389,-0.1768362
1.003446,-0.1718801,-0.1717793
1.00356,-0.1712052,-0.1699691
1.002363,-0.1715976,-0.1715961
1.001658,-0.1717064,-0.1732398
1.001573,-0.171435,-0.1761949
1.002052,-0.1727968,-0.1738661
1.002875,-0.1738667,-0.1729062
1.001078,-0.1738621,-0.1744945
0.9995034,-0.173255,-0.1750397
1.0018,-0.1724269,-0.1772031
1.003703,-0.1713304,-0.1760817
1.002681,-0.170421,-0.17418
1.002775,-0.1718418,-0.1734734
1.004918,-0.172772,-0.1733165
1.005976,-0.1721195,-0.1748661
1.005674,-0.1731693,-0.1743186
1.005331,-0.1730601,-0.1742268
1.005957,-0.1691305,-0.1752745
1.007664,-0.165763,-0.1750858
1.009403,-0.1693361,-0.1749421
1.008886,-0.1756587,-0.1754356
1.005102,-0.1764,-0.1778465
1.003109,-0.1761972,-0.1793583
1.004032,-0.1768189,-0.176395
1.002615,-0.1756145,-0.1719455
1.000588,-0.1744308,-0.1716387
1.00163,-0.1710241,-0.1737865
1.003624,-0.1679941,-0.17327
1.004084,-0.1683899,-0.1712771
1.002543,-0.1699907,-0.168255
1.000855,-0.1733197,-0.1679078
1.002029,-0.1742704,-0.1718125
1.003825,-0.1722495,-0.1737035
1.00324,-0.1720289,-0.1767242
1.003095,-0.1720584,-0.1788398
1.002175,-0.1713687,-0.1735167
1.000992,-0.1707738,-0.1705079
1.004367,-0.1714957,-0.1717973
1.006481,-0.1730274,-0.1707099
1.004465,-0.1730315,-0.1706545
1.003511,-0.1736251,-0.1726114
1.0035,-0.1733182,-0.1753884
1.003616,-0.1696375,-0.1792477
1.004148,-0.1672733,-0.1806368
1.004474,-0.1686532,-0.1791926
1.004037,-0.1699444,-0.1768187
1.003818,-0.1675644,-0.1736051
1.003762,-0.1661997,-0.1711938
1.003173,-0.1696528,-0.1708341
1.004522,-0.1718258,-0.1732421
1.005565,-0.1708399,-0.1776071
1.005242,-0.1708112,-0.1785786
1.005591,-0.1728195,-0.1757796
1.00364,-0.17391,-0.1757104
1.002036,-0.1717762,-0.1771694
1.003283,-0.1700694,-0.1768542
1.004667,-0.170812,-0.1793389
1.006019,-0.1709942,-0.1816969
1.005774,-0.1699085,-0.1787403
1.005151,-0.1700112,-0.1777911
1.005793,-0.1712107,-0.1785908
1.005554,-0.1702434,-0.1764103
1.00542,-0.1670006,-0.1775002
1.005523,-0.1647077,-0.1781793
1.004405,-0.1671426,-0.1733408
1.003178,-0.1724232,-0.1712676
1.00334,-0.1745101,-0.1726135
1.004486,-0.1743568,-0.1741913
1.004589,-0.1736097,-0.1754152
1.00453,-0.1730662,-0.1737116
1.00509,-0.1740601,-0.1706433
1.004085,-0.173581,-0.1667997
1.00347,-0.1729289,-0.1645918
1.00376,-0.1722489,-0.1682713
1.002383,-0.170364,-0.1727799
1.002452,-0.1724317,-0.1736026
1.00369,-0.1747669,-0.1738403
1.004201,-0.1733337,-0.1756115
1.006122,-0.1733497,-0.1768425
1.005833,-0.1737736,-0.1770407
1.004102,-0.1725362,-0.1788582
1.005227,-0.1719518,-0.180507
1.005741,-0.1722035,-0.1761937
1.005182,-0.1723471,-0.1691491
1.00367,-0.1719701,-0.1674178
1.001329,-0.1713116,-0.1674359
1.001984,-0.1706319,-0.1692978
1.003469,-0.1708343,-0.1771449
1.003693,-0.1721477,-0.1809273
1.00406,-0.1732933,-0.1784733
1.003299,-0.1735586,-0.1764987
1.00147,-0.1718777,-0.1757091
1.001149,-0.1700556,-0.1767625
1.002524,-0.1711579,-0.1763507
1.003046,-0.1730127,-0.1746773
1.002386,-0.1736607,-0.1732332
1.000958,-0.1730083,-0.170251
0.9994352,-0.1711143,-0.1697904
1.000035,-0.1694616,-0.1708993
1.001251,-0.1676579,-0.1724094
1.001629,-0.1680793,-0.1746583
1.002559,-0.1723679,-0.1735189
1.004041,-0.1741699,-0.1731118
1.005424,-0.1711669,-0.1741787
1.005453,-0.1664456,-0.1732903
1.003689,-0.1647013,-0.1736211
1.002203,-0.169236,-0.1738127
1.002608,-0.1732298,-0.1740636
1.003177,-0.1724609,-0.1775596
1.002566,-0.1715593,-0.1808992
1.003065,-0.1715249,-0.1803191
1.004794,-0.1706999,-0.1782808
1.005531,-0.170457,-0.1787836
1.004067,-0.1713989,-0.1774038
1.001877,-0.1721742,-0.1726131
1.002622,-0.1749568,-0.1717673
1.003425,-0.1767651,-0.1742474
1.002257,-0.1717734,-0.1745472
1.002537,-0.1677978,-0.1698033
1.001054,-0.1702904,-0.1656147
0.9981789,-0.1719096,-0.1717054
0.9986066,-0.1704102,-0.1779147
0.9997119,-0.1705699,-0.1749152
1.000173,-0.1713579,-0.1747388
1.000144,-0.1699248,-0.1774046
0.9999355,-0.16801,-0.1739954
1.001046,-0.1652108,-0.1702073
1.001837,-0.1650326,-0.1680953
1.002641,-0.1696517,-0.1663446
1.004766,-0.1717377,-0.1701323
1.006207,-0.1709206,-0.1725276
1.005641,-0.1705432,-0.1649547
1.00515,-0.1708128,-0.1597061
1.006199,-0.1706142,-0.1679603
1.007342,-0.1678166,-0.1759371
1.008306,-0.1659662,-0.1722367
1.007023,-0.1665073,-0.1717549
1.004074,-0.1669589,-0.1772645
1.003763,-0.1672164,-0.1761708
1.003038,-0.1687029,-0.1741052
1.003018,-0.1701637,-0.1736931
1.005839,-0.1677409,-0.173219
1.004764,-0.1672251,-0.1760675
1.002322,-0.170176,-0.1764614
1.001954,-0.1702236,-0.1740346
1.000972,-0.1712837,-0.1715099
1.001919,-0.1731212,-0.170838
1.004332,-0.1735212,-0.1769977
1.006071,-0.174199,-0.1824072
1.005901,-0.1730339,-0.1801428
1.003983,-0.1726157,-0.1745023
1.00413,-0.1722434,-0.1718591
1.004323,-0.1701705,-0.1722908
1.003705,-0.1680176,-0.1708467
1.003394,-0.1638947,-0.1720037
1.001443,-0.162897,-0.1745469
1.00151,-0.1650387,-0.1716558
1.004373,-0.1660806,-0.1705404
1.006217,-0.1708671,-0.1746913
1.005934,-0.1747323,-0.1765864
1.004941,-0.173198,-0.1706884
1.0058,-0.1715422,-0.1629836
1.00578,-0.1701379,-0.162923
1.005097,-0.1687948,-0.1664434
1.005944,-0.167873,-0.1715734
1.005424,-0.167677,-0.178691
1.005058,-0.167879,-0.177711
1.004068,-0.1653246,-0.1743918
1.001935,-0.1630459,-0.1783198
1.002732,-0.1647209,-0.1784917
1.00338,-0.1660237,-0.1761331
1.003494,-0.1652446,-0.1750846
1.00546,-0.1659665,-0.1680272
1.005991,-0.1672375,-0.1646868
1.005332,-0.1669649,-0.1682894
1.005547,-0.1683997,-0.1712272
1.005664,-0.1711322,-0.1746983
1.005467,-0.1712009,-0.174493
1.005217,-0.1703198,-0.1733986
1.003813,-0.1700466,-0.1753097
1.002165,-0.1692405,-0.1725264
1.002971,-0.1688581,-0.1681072
1.004971,-0.1679499,-0.1647829
1.005865,-0.1660064,-0.1609409
1.005739,-0.1665461,-0.1668243
1.005144,-0.1683331,-0.1779683
1.005226,-0.1690476,-0.1774438
1.006551,-0.1706799,-0.1737454
1.007962,-0.1709393,-0.1738618
1.006763,-0.1687297,-0.1686613
1.003463,-0.1677997,-0.1644072
1.002315,-0.1687821,-0.1642013
1.002901,-0.1694626,-0.162971
1.004088,-0.166821,-0.1665715
1.006367,-0.1640529,-0.1726209
1.00702,-0.1655133,-0.1733103
1.005267,-0.1666671,-0.1726507
1.003407,-0.1664962,-0.1715222
1.003955,-0.1669272,-0.1647426
1.004978,-0.1663678,-0.1610879
1.004595,-0.1657006,-0.1674254
1.005873,-0.1653592,-0.171393
1.00597,-0.166441,-0.1689323
1.004919,-0.1700736,-0.167342
1.005622,-0.1725789,-0.1685617
1.003721,-0.1717674,-0.1707413
1.001799,-0.1684365,-0.1711337
1.002039,-0.1659238,-0.1698288
1.001234,-0.1681661,-0.168966
1.001553,-0.1706958,-0.1688393
1.003727,-0.1692753,-0.1660656
1.006437,-0.1687569,-0.1626778
1.007318,-0.1691063,-0.164939
1.004808,-0.1679049,-0.1677499
1.002534,-0.1699705,-0.1667628
1.002521,-0.173684,-0.1667463
1.00335,-0.1743353,-0.1692153
1.004525,-0.1749279,-0.1703266
1.00619,-0.1751074,-0.1690105
1.006789,-0.1731108,-0.1682174
1.00671,-0.1721663,-0.1645217
1.006924,-0.1724542,-0.159464
1.00489,-0.1722468,-0.1623682
1.00253,-0.173019,-0.1658194
1.002603,-0.1743084,-0.1637659
1.003218,-0.1745943,-0.1661333
1.004602,-0.1759756,-0.1696744
1.005699,-0.1766682,-0.1676261
1.003779,-0.173785,-0.1662918
1.001016,-0.1703311,-0.1651837
1.001,-0.1688001,-0.1629472
1.002198,-0.1702271,-0.1649304
1.002961,-0.1716465,-0.1697604
1.004474,-0.1705284,-0.1735764
1.003713,-0.1706821,-0.1739218
1.001846,-0.1711653,-0.1731005
1.002844,-0.1705563,-0.1753563
1.002349,-0.1709455,-0.1743088
1.001563,-0.1710595,-0.1700559
1.003446,-0.1717677,-0.1704288
1.004075,-0.1735321,-0.1713512
1.004731,-0.1735437,-0.1705809
1.005489,-0.1717382,-0.1708563
1.004476,-0.170408,-0.1712456
1.005137,-0.1719365,-0.1725872
1.006824,-0.1743373,-0.1736158
1.006781,-0.1736057,-0.1711552
1.00524,-0.1716703,-0.1684082
1.003098,-0.1715272,-0.1705213
1.002567,-0.1708907,-0.1736735
1.002812,-0.1684147,-0.1733111
1.00302,-0.1672458,-0.1719214
1.004583,-0.1668379,-0.1701151
1.005078,-0.1664153,-0.1696983
1.004062,-0.1689561,-0.1705992
1.004026,-0.1710762,-0.1702224
1.005226,-0.171002,-0.172288
1.006327,-0.1720422,-0.1752923
1.007172,-0.1730516,-0.1754182
1.008491,-0.1732914,-0.1751713
1.006906,-0.1730888,-0.1766081
1.004409,-0.1742988,-0.1773583
1.005525,-0.1754219,-0.1714362
1.005085,-0.171603,-0.1647122
1.003431,-0.168338,-0.1666691
1.00447,-0.1695034,-0.1710403
1.004928,-0.1713236,-0.1737158
1.003786,-0.1715391,-0.176197
1.002459,-0.1710637,-0.1759067
1.002024,-0.1725192,-0.1752012
1.001415,-0.1713935,-0.1768106
0.9993747,-0.1680171,-0.1789925
1.000273,-0.1674136,-0.1810614
1.004295,-0.1652767,-0.1792966
1.00626,-0.1636198,-0.1748238
1.005884,-0.1668245,-0.1709884
1.004942,-0.170928,-0.1655557
1.004667,-0.1716873,-0.1676879
1.004083,-0.1702128,-0.1739005
1.002936,-0.1709281,-0.1703532
1.003777,-0.1711424,-0.1705494
1.00437,-0.1703827,-0.1748648
1.004104,-0.1710084,-0.1748087
1.00431,-0.1698157,-0.1788149
1.00377,-0.16906,-0.1785496
1.003601,-0.1695968,-0.1741349
1.003789,-0.1695517,-0.1743955
1.005907,-0.1707806,-0.1722122
1.007555,-0.1729881,-0.1717686
1.003946,-0.175177,-0.1740222
1.001669,-0.1753524,-0.1744064
1.002926,-0.1744707,-0.1764953
1.003051,-0.1739406,-0.175966
1.002956,-0.1715237,-0.1719306
1.004503,-0.1700976,-0.1674044
1.006288,-0.1706035,-0.1656876
1.005633,-0.1692327,-0.169977
1.004768,-0.1678834,-0.1726431
1.004125,-0.1705314,-0.1733351
1.002116,-0.1730197,-0.173342
1.002475,-0.1693779,-0.167541
1.00355,-0.1658447,-0.1655049
1.003308,-0.1682758,-0.1720246
1.004438,-0.1722375,-0.1753078
1.00433,-0.1741626,-0.1733451
1.002804,-0.1721614,-0.1731487
1.00275,-0.1695835,-0.1740514
1.002726,-0.170985,-0.1734801
1.002747,-0.1713737,-0.1738501
1.002923,-0.1702335,-0.1759448
1.002607,-0.1711151,-0.1787724
1.003048,-0.1709224,-0.1808403
1.003883,-0.1703506,-0.180147
1.005203,-0.1698939,-0.1771592
1.006267,-0.1672171,-0.1728433
1.006066,-0.1659956,-0.1699553
1.006231,-0.1673519,-0.1696016
1.005605,-0.1694638,-0.1676513
1.005049,-0.170838,-0.1667937
1.00596,-0.167391,-0.1721933
1.005504,-0.1627438,-0.1776484
1.00532,-0.1634419,-0.1788667
1.005516,-0.1652592,-0.1802179
1.003553,-0.1660938,-0.1794732
1.002268,-0.1682841,-0.174196
1.002683,-0.1660798,-0.1714114
1.00301,-0.1622175,-0.1718075
1.003085,-0.1658703,-0.1745236
1.004416,-0.170817,-0.1795375
1.006123,-0.1726209,-0.1759052
1.004593,-0.1719411,-0.1664138
1.002539,-0.1687791,-0.1632677
1.003115,-0.1688878,-0.1670381
1.004575,-0.16828,-0.1739976
1.006081,-0.1658206,-0.1733915
1.005474,-0.1688061,-0.1705954
1.003264,-0.1713042,-0.1748984
1.002515,-0.1707905,-0.1739018
1.002789,-0.170889,-0.1715791
1.003841,-0.1705245,-0.1732687
1.004667,-0.1698804,-0.1734627
1.004956,-0.1682587,-0.1751579
1.005824,-0.1679308,-0.1727938
1.005518,-0.1704779,-0.1691183
1.004408,-0.1730974,-0.171357
1.004057,-0.1734342,-0.1727034
1.004036,-0.1688444,-0.175002
1.004306,-0.164295,-0.1790194
1.004692,-0.165721,-0.1771403
1.006739,-0.1682078,-0.1704083
1.008934,-0.169146,-0.1652347
1.006779,-0.1712735,-0.1648748
1.00421,-0.1714477,-0.1684475
1.005181,-0.1690825,-0.1740948
1.005593,-0.169042,-0.1778004
1.00422,-0.1679519,-0.1758682
1.002406,-0.1658685,-0.1735359
1.001322,-0.1677096,-0.1743734
1.002545,-0.1686219,-0.1730009
1.003065,-0.167623,-0.1724156
1.002715,-0.1672043,-0.1762561
1.003896,-0.1663898,-0.1768982
1.004308,-0.1669504,-0.1750706
1.004052,-0.1686247,-0.1743824
1.003274,-0.1698762,-0.1721302
1.002514,-0.16934,-0.1704204
1.003809,-0.1672342,-0.1713583
1.004127,-0.1665176,-0.1722367
1.00237,-0.1674055,-0.1687275
1.000954,-0.1685271,-0.1650044
1.002213,-0.1676392,-0.1667828
1.004504,-0.1649713,-0.1678456
1.004007,-0.1633951,-0.1681986
1.003155,-0.1636775,-0.1685137
1.002876,-0.1663155,-0.1626604
1.003699,-0.1708603,-0.1602953
1.00625,-0.1750199,-0.1689523
1.005649,-0.1746524,-0.1744203
1.003518,-0.1731077,-0.1691645
1.003729,-0.1758916,-0.1643188
1.00349,-0.1753216,-0.1652387
1.001699,-0.1727987,-0.165632
1.001701,-0.1733578,-0.1649234
1.00342,-0.1715901,-0.1656463
1.003039,-0.1717598,-0.1665432
1.003244,-0.1721376,-0.1685655
1.004832,-0.1697799,-0.1704706
1.00428,-0.1711064,-0.1702143
1.004795,-0.1711497,-0.1702711
1.006658,-0.1701023,-0.1685954
1.008174,-0.1702573,-0.1654706
1.010177,-0.1680048,-0.1664347
1.009322,-0.1676894,-0.1678087
1.007024,-0.1687014,-0.1680751
1.006528,-0.1696688,-0.1709461
1.00416,-0.1716682,-0.171617
1.001404,-0.17169,-0.1697893
1.001586,-0.1713865,-0.1692783
1.002128,-0.1719846,-0.1676858
1.003023,-0.1730599,-0.1674837
1.002977,-0.1741885,-0.1689637
1.001516,-0.1735525,-0.168608
1.002308,-0.1735044,-0.1695759
1.003385,-0.1748121,-0.1701461
1.004705,-0.1747842,-0.1684723
1.007079,-0.1732533,-0.1664073
1.007249,-0.1718205,-0.1656566
1.006977,-0.172843,-0.1714336
1.007276,-0.1735196,-0.172994
1.005788,-0.1689654,-0.1657748
1.002614,-0.1650116,-0.1661903
1.001841,-0.1665424,-0.1677043
1.003894,-0.1686904,-0.165847
1.004445,-0.1724367,-0.1694542
1.005707,-0.1777131,-0.1709216
1.006318,-0.1744589,-0.1715126
1.004754,-0.1674679,-0.1716189
1.005483,-0.1679744,-0.1672106
1.003688,-0.1689197,-0.1660827
0.9998899,-0.1697067,-0.1666051
1.000092,-0.1723495,-0.1668049
1.001775,-0.1693625,-0.1663242
1.003432,-0.165881,-0.1635004
1.003014,-0.1633652,-0.1621687
1.002523,-0.1615566,-0.1630392
1.005032,-0.1636452,-0.1683216
1.005998,-0.1624531,-0.1720608
1.00556,-0.163868,-0.1678264
1.005477,-0.1678512,-0.1636699
1.005478,-0.1667047,-0.1639906
1.00576,-0.1693997,-0.165391
1.005374,-0.172158,-0.1643126
1.00524,-0.1718276,-0.1644101
1.003886,-0.1742567,-0.1666624
1.002027,-0.1755654,-0.1682034
1.002753,-0.174656,-0.1689215
1.003104,-0.1719114,-0.1614813
1.002538,-0.1701363,-0.1545493
1.003002,-0.1706188,-0.1613257
1.004459,-0.1704257,-0.1666858
1.007931,-0.1712426,-0.1633943
1.010944,-0.173303,-0.1634883
1.009978,-0.1741074,-0.1675736
1.008577,-0.1714946,-0.1676514
1.008424,-0.1699487,-0.1635465
1.006455,-0.1712744,-0.1597879
1.006142,-0.170718,-0.160356
1.006547,-0.1707715,-0.1618807
1.003069,-0.1710095,-0.1581745
1.002341,-0.1705828,-0.1575575
1.005046,-0.1710923,-0.1608505
1.005914,-0.1713633,-0.1602585
1.005792,-0.1744514,-0.1623818
1.005209,-0.1772276,-0.1669812
1.005272,-0.1742898,-0.1682584
1.004013,-0.1697739,-0.1680227
1.001857,-0.1688472,-0.1681326
1.002846,-0.1708143,-0.1693301
1.003493,-0.1718542,-0.1704306
1.004375,-0.1715743,-0.1712475
1.007189,-0.1705931,-0.1706993
1.007231,-0.1705051,-0.1692192
1.005667,-0.1709231,-0.167778
1.005378,-0.168812,-0.1667003
1.005555,-0.1676321,-0.1710796
1.005618,-0.1689828,-0.1755263
1.005524,-0.1698543,-0.1734261
1.005367,-0.1697068,-0.1717547
1.004329,-0.170016,-0.1716257
1.002097,-0.1711629,-0.1704109
1.000908,-0.1695138,-0.1706355
1.002289,-0.1659027,-0.1712553
1.00336,-0.1638269,-0.1703947
1.002628,-0.1637123,-0.1690082
1.002624,-0.1669051,-0.1649576
1.003525,-0.1717452,-0.161997
1.00534,-0.1748615,-0.1685806
1.007755,-0.1737168,-0.1751017
1.006994,-0.1708069,-0.1718851
1.004437,-0.1708512,-0.169105
1.003807,-0.1709586,-0.1697611
1.003182,-0.171536,-0.1680096
1.003602,-0.1730782,-0.1667795
1.008188,-0.1728457,-0.1667572
1.012012,-0.1732723,-0.1666454
1.008038,-0.1713073,-0.1689388
1.002313,-0.1681045,-0.1708866
1.004204,-0.1696444,-0.1706708
1.006143,-0.1714427,-0.1691252
1.004817,-0.1733035,-0.1672367
1.006067,-0.1758943,-0.1680613
1.005407,-0.1739745,-0.1688254
1.003987,-0.1712004,-0.1694266
1.00364,-0.1724344,-0.1717748
1.001772,-0.1741529,-0.1719372
1.002243,-0.1732863,-0.1717659
1.002559,-0.17062,-0.1718181
1.003254,-0.1686895,-0.1701098
1.005054,-0.1692775,-0.1687111
1.002875,-0.1700645,-0.1642602
1.002432,-0.1700941,-0.1608134
1.004837,-0.1714219,-0.1696766
1.007705,-0.1729164,-0.1784943
1.010188,-0.1734203,-0.1719717
1.005465,-0.1722035,-0.1652791
1.00092,-0.1699582,-0.1676609
1.00468,-0.1707893,-0.170104
1.006991,-0.1724133,-0.1747659
1.004669,-0.17181,-0.1778817
1.003494,-0.1714998,-0.1727023
1.003129,-0.1710024,-0.1691909
1.003982,-0.172212,-0.1693545
1.006553,-0.1746907,-0.1694359
1.005437,-0.1733737,-0.171194
1.002954,-0.1720284,-0.1730542
1.002903,-0.1715998,-0.172484
1.002203,-0.170168,-0.1667997
1.002032,-0.1707444,-0.1637548
1.001743,-0.1702477,-0.1696153
1.002931,-0.1687808,-0.1724023
1.007119,-0.1695921,-0.1703746
1.006763,-0.1692482,-0.1699414
1.002942,-0.1674396,-0.1674899
1.001104,-0.1662627,-0.1641358
1.003469,-0.166411,-0.1647711
1.00729,-0.1677725,-0.1661842
1.006205,-0.1700812,-0.1650632
1.008207,-0.1731911,-0.1659005
1.012455,-0.1729056,-0.1675349
1.007143,-0.1706411,-0.1659255
1.002091,-0.170022,-0.1646261
1.004644,-0.1676574,-0.1627847
1.007268,-0.1680068,-0.1610968
1.007296,-0.1707212,-0.1600427
1.006446,-0.1681342,-0.1556492
1.006113,-0.1671136,-0.1551179
1.005431,-0.1678882,-0.1603008
1.00577,-0.1659503,-0.164136
1.008601,-0.1666642,-0.166983
1.009681,-0.1670564,-0.1696025
1.006368,-0.1665805,-0.1707111
1.00286,-0.1687567,-0.1658546
1.004727,-0.1698853,-0.1572855
1.007063,-0.1694143,-0.1555118
1.005829,-0.1683,-0.1582277
1.00703,-0.1681587,-0.1606195
1.007477,-0.1703173,-0.1633493
1.005268,-0.1730777,-0.1651642
1.005658,-0.1744521,-0.1724506
1.005569,-0.1732015,-0.1809578
1.005514,-0.1713745,-0.1717299
1.006806,-0.1670138,-0.1596329
1.006898,-0.1618436,-0.1646706
1.007007,-0.1637038,-0.1624623
1.005757,-0.1667732,-0.1534026
1.004243,-0.168241,-0.1609668
1.004464,-0.1721067,-0.1655673
1.00575,-0.171361,-0.1621407
1.007733,-0.1686205,-0.1658707
1.006911,-0.1705038,-0.1661455
1.005483,-0.1720744,-0.1636379
1.005763,-0.1736508,-0.1663903
1.00528,-0.1722191,-0.170265
1.005467,-0.1661742,-0.1738921
1.004818,-0.1646079,-0.175435
1.003608,-0.1655984,-0.1736239
1.004489,-0.1666448,-0.1701735
1.005341,-0.1675966,-0.1705898
1.006381,-0.1658656,-0.1763632
1.006556,-0.1667649,-0.178837
1.005114,-0.1673886,-0.1768037
1.005363,-0.1666115,-0.1758192
1.005918,-0.168358,-0.1755158
1.005171,-0.1678,-0.1724094
1.004644,-0.1676018,-0.1687237
1.004041,-0.1671529,-0.170567
1.003915,-0.1654966,-0.1722018
1.004257,-0.1677482,-0.1701968
1.003206,-0.1685728,-0.172681
1.00273,-0.1692868,-0.1744368
1.004662,-0.1700819,-0.1712489
1.006163,-0.1667857,-0.1698258
1.005689,-0.1664964,-0.1677711
1.005188,-0.1683304,-0.1642005
1.005202,-0.1707027,-0.163971
1.002973,-0.1728142,-0.1690387
1.000862,-0.1684717,-0.1752817
1.003956,-0.1656361,-0.1756964
1.006941,-0.1694839,-0.1735816
1.005292,-0.1721259,-0.1733939
1.003916,-0.1706619,-0.1732757
1.003492,-0.1692436,-0.1719531
1.00247,-0.1699451,-0.1701545
1.004271,-0.1701221,-0.1706598
1.008427,-0.17098,-0.1713202
1.01022,-0.1708072,-0.1704898
1.008237,-0.1675142,-0.1712465
1.005833,-0.166181,-0.1727705
1.00691,-0.1671606,-0.1730606
1.007634,-0.1708208,-0.1694974
1.006473,-0.1752464,-0.1648558
1.008057,-0.1751984,-0.1662805
1.008833,-0.1728021,-0.1684167
1.007986,-0.1703039,-0.1685262
1.008537,-0.1687325,-0.1715006
1.007891,-0.1681782,-0.1704352
1.006511,-0.169435,-0.1661284
1.005155,-0.1718739,-0.1670515
1.005317,-0.1710358,-0.1685828
1.006872,-0.1709603,-0.1691152
1.005841,-0.1725297,-0.1674345
1.004397,-0.1721965,-0.1636805
1.003926,-0.1737718,-0.1654439
1.004186,-0.1742123,-0.1659886
1.005237,-0.1717912,-0.1617548
1.00432,-0.1707377,-0.1622446
1.002227,-0.1685791,-0.1666249
1.00091,-0.1681816,-0.1697885
1.002094,-0.1717643,-0.1723671
1.004163,-0.1715676,-0.1747229
1.005131,-0.1699908,-0.1703005
1.007427,-0.1720094,-0.1610307
1.006574,-0.171075,-0.1574246
1.003587,-0.1665922,-0.1600428
1.005176,-0.1644859,-0.1650182
1.006063,-0.1658983,-0.1656959
1.005266,-0.1675811,-0.1671976
1.006071,-0.1664876,-0.173101
1.007249,-0.1662453,-0.1728793
1.008544,-0.1672316,-0.1726214
1.006647,-0.166506,-0.1688526
1.003566,-0.1677217,-0.1604587
1.004215,-0.1696872,-0.1623326
1.005523,-0.1703514,-0.1639075
1.006516,-0.1712682,-0.164849
1.007403,-0.1707704,-0.1708
1.006856,-0.1706423,-0.1707144
1.006789,-0.1710934,-0.1661642
1.007313,-0.1700986,-0.1625284
1.007738,-0.1680583,-0.1643543
1.008595,-0.1649851,-0.1667677
1.00834,-0.1645787,-0.1644804
1.007149,-0.1666378,-0.1659684
1.00682,-0.1686475,-0.1693426
1.006705,-0.1717466,-0.1713685
1.005925,-0.1717612,-0.1701979
1.004439,-0.1706421,-0.1627548
1.003854,-0.1724517,-0.1578435
1.00525,-0.1698898,-0.1601223
1.005923,-0.1664109,-0.1652057
1.005095,-0.168208,-0.1677233
1.003736,-0.1676222,-0.1663643
1.002625,-0.1658061,-0.1645668
1.004351,-0.1672714,-0.1641364
1.006505,-0.1687819,-0.1675535
1.005558,-0.17064,-0.1717338
1.005269,-0.1714816,-0.1712807
1.007019,-0.1702999,-0.1705716
1.008022,-0.1695526,-0.1728457
1.008545,-0.1676145,-0.1734312
1.008127,-0.1654397,-0.1683462
1.006266,-0.1647858,-0.1606053
1.005181,-0.162808,-0.1552525
1.005904,-0.1616511,-0.1540224
1.007947,-0.1627747,-0.1580496
1.007849,-0.1618669,-0.1643447
1.00486,-0.1613584,-0.1663907
1.005015,-0.1633846,-0.1650748
1.007283,-0.1644391,-0.1650905
1.007136,-0.1652675,-0.1654361
1.007306,-0.1646918,-0.1655856
1.00707,-0.1622366,-0.1667246
1.004564,-0.1622484,-0.16641
1.003394,-0.1628078,-0.1628738
1.003393,-0.1624569,-0.1598491
1.004898,-0.1638455,-0.1609933
1.00778,-0.1663277,-0.1624957
1.005372,-0.1686494,-0.163464
1.001371,-0.1683286,-0.1650037
1.001561,-0.1659331,-0.1647531
1.001485,-0.1663107,-0.1692419
1.002693,-0.1672869,-0.1753317
1.004135,-0.1658094,-0.1733162
1.003752,-0.1639129,-0.172938
1.00585,-0.1623252,-0.1746523
1.004112,-0.1636992,-0.1728128
0.999012,-0.1667319,-0.1741774
0.9984674,-0.1657899,-0.1757608
0.9765692,-0.1883446,-0.2605469
0.9759369,-0.1883697,-0.2639839
0.9772372,-0.1895789,-0.2618799
0.9811569,-0.1895449,-0.2623435
0.9839642,-0.1932461,-0.2638392
0.9809454,-0.1986235,-0.2655144
0.9766818,-0.1975892,-0.2705984
0.9779271,-0.1960765,-0.2681387
0.98155,-0.1953678,-0.2596635
0.9833266,-0.1911879,-0.2539201
0.9858451,-0.1892217,-0.2584415
0.9854277,-0.1914661,-0.2696716
0.9804977,-0.1922879,-0.2724654
0.9764214,-0.192219,-0.2700164
0.9770281,-0.1961433,-0.2679847
0.9802441,-0.1999625,-0.2661406
0.9798135,-0.1973524,-0.2684491
0.9803836,-0.1924511,-0.2706971
0.9815213,-0.1916742,-0.2707812
0.9793911,-0.1951742,-0.2710808
0.980072,-0.1980119,-0.2703411
0.9788364,-0.1945944,-0.2691764
0.9765247,-0.1896204,-0.2685396
0.97683,-0.190891,-0.2690342
0.9756129,-0.1926654,-0.2685787
0.9767609,-0.1923555,-0.2667978
0.9766899,-0.1946524,-0.2670788
0.9756467,-0.1966898,-0.2678374
0.9771352,-0.1976922,-0.2701026
0.9763497,-0.1980519,-0.2741761
0.9784571,-0.1962945,-0.2749182
0.9815793,-0.1938512,-0.273158
0.9800027,-0.1921385,-0.2698535
0.9770659,-0.1927603,-0.2686066
0.9752581,-0.1917952,-0.2720049
0.9771067,-0.1891515,-0.2719715
0.9785583,-0.1903454,-0.2680598
0.9790346,-0.1904272,-0.2643725
0.979928,-0.1879578,-0.2652819
0.978554,-0.187233,-0.2725757
0.9792161,-0.1872904,-0.275115
0.979256,-0.1877393,-0.2726452
0.9767664,-0.187507,-0.270478
0.9762949,-0.1872687,-0.2668902
0.9764163,-0.1877805,-0.2659285
0.9783878,-0.187335,-0.2669211
0.9798824,-0.1873055,-0.2664267
0.9789385,-0.1867654,-0.2647414
0.9797204,-0.1868823,-0.2631293
0.9818538,-0.1924121,-0.2629718
0.9835928,-0.197545,-0.2627948
0.9810621,-0.1942794,-0.2649535
0.9775647,-0.189166,-0.2704983
0.9793313,-0.189514,-0.2733652
0.9794395,-0.1898002,-0.2696488
0.97673,-0.1891459,-0.2636251
0.9764893,-0.1904228,-0.2622265
0.9780373,-0.1914712,-0.2659166
0.9795171,-0.1947648,-0.2688932
0.9776256,-0.1970047,-0.2646065
0.9750592,-0.194889,-0.259409
0.9756867,-0.1931011,-0.2612238
0.9751362,-0.190508,-0.2626503
0.9745834,-0.188813,-0.2648695
0.9765423,-0.1889379,-0.269292
0.9780044,-0.1885854,-0.2658681
0.9807816,-0.189754,-0.2619959
0.9838947,-0.1914638,-0.2652722
0.9835757,-0.194577,-0.2657843
0.9824809,-0.1978573,-0.2628153
0.9811493,-0.1976986,-0.2621655
0.979795,-0.1928892,-0.2629766
0.9806723,-0.1871015,-0.2647621
0.9809295,-0.1919654,-0.2652025
0.9797712,-0.19853,-0.2636172
0.9789474,-0.1960456,-0.2650408
0.976995,-0.1969537,-0.2663826
0.9762093,-0.1973856,-0.2651137
0.978345,-0.1917841,-0.2680441
0.9795132,-0.1891598,-0.2724499
0.9784616,-0.189168,-0.2737136
0.9773482,-0.1909826,-0.2730892
0.9786257,-0.195059,-0.2675644
0.9798925,-0.1991116,-0.2637191
0.9788301,-0.1983052,-0.2668882
0.9793014,-0.1930438,-0.2675643
0.9803177,-0.1925194,-0.2677877
0.9805265,-0.1934325,-0.2699678
0.9803508,-0.1926876,-0.2667597
0.9775838,-0.1934439,-0.2639511
0.9756159,-0.1927965,-0.265643
0.9766186,-0.1928646,-0.2665286
0.9785064,-0.1924506,-0.2666445
0.9796423,-0.1909673,-0.2666163
0.9788136,-0.1922862,-0.265726
0.9772382,-0.1935007,-0.2649492
0.976275,-0.194794,-0.265601
0.9779574,-0.1952553,-0.2676185
0.9801341,-0.1955955,-0.2698611
0.9791263,-0.1977668,-0.2704021
0.9783892,-0.1953251,-0.2691385
0.9777576,-0.1914072,-0.267335
0.9757246,-0.1916306,-0.2614712
0.9760722,-0.1926132,-0.2573998
0.9773418,-0.1931882,-0.2630567
0.9778434,-0.1920967,-0.2674545
0.9801839,-0.190209,-0.2676358
0.9823647,-0.1908275,-0.2665001
0.982892,-0.1939142,-0.2602352
0.9809686,-0.1965677,-0.2574715
0.9760753,-0.1944845,-0.2587665
0.9757638,-0.1916376,-0.2583428
0.9796628,-0.1934768,-0.2605499
0.9819461,-0.1946857,-0.2626986
0.9842845,-0.1949266,-0.2640021
0.9836456,-0.1965802,-0.266041
0.9824408,-0.1952461,-0.2669257
0.9840525,-0.1927248,-0.2667166
0.9826054,-0.1913623,-0.2649401
0.9803645,-0.1910353,-0.2657653
0.9793947,-0.1923045,-0.2671955
0.981075,-0.1915744,-0.2637115
0.9848097,-0.1914248,-0.2583844
0.9823367,-0.1931436,-0.255066
0.9797771,-0.1922186,-0.259592
0.9813164,-0.1896298,-0.2668405
0.9811381,-0.1870073,-0.2667721
0.9818009,-0.1894498,-0.2682566
0.9806081,-0.1935189,-0.272511
0.9779924,-0.190428,-0.2692195
0.9795333,-0.1894121,-0.2666837
0.9804421,-0.1922182,-0.2681726
0.980729,-0.1924478,-0.2643547
0.9827178,-0.1933912,-0.2608695
0.9834487,-0.1923489,-0.2599933
0.982657,-0.1881463,-0.2604103
0.9816134,-0.1851424,-0.264015
0.9828936,-0.1855755,-0.2626341
0.984758,-0.188351,-0.2617144
0.9838472,-0.1894211,-0.2654727
0.9828719,-0.1915708,-0.2652266
0.9822099,-0.1941147,-0.2653586
0.9808591,-0.1952409,-0.2654904
0.9804039,-0.1977694,-0.2643877
0.9814061,-0.1943074,-0.2639082
0.9826249,-0.1875565,-0.2605267
0.982604,-0.1872833,-0.2596966
0.9821286,-0.1896478,-0.2611984
0.9802598,-0.192772,-0.2644747
0.9786841,-0.1938772,-0.2695895
0.9819519,-0.1925335,-0.2654099
0.9840731,-0.1932206,-0.2594303
0.9804705,-0.1931298,-0.262093
0.978154,-0.1926794,-0.2640149
0.9804469,-0.192037,-0.2618143
0.983142,-0.1894125,-0.2592871
0.9830369,-0.1888794,-0.2580611
0.9805135,-0.1915631,-0.2600434
0.9775832,-0.1946292,-0.2656501
0.9781731,-0.1959548,-0.2689011
0.9811934,-0.1969518,-0.2636297
0.9814293,-0.1962849,-0.2579236
0.9813495,-0.1932128,-0.260045
0.9821459,-0.1942399,-0.2637133
0.9815565,-0.1953864,-0.2657895
0.9804202,-0.1936079,-0.2671029
0.9790569,-0.1950885,-0.2635712
0.9791799,-0.1964916,-0.2593132
0.9793427,-0.1972288,-0.2594935
0.9787997,-0.1979344,-0.2600186
0.9795218,-0.1965622,-0.2609476
0.9790348,-0.1970099,-0.263418
0.9790093,-0.1957938,-0.2652863
0.9795159,-0.1933323,-0.2655396
0.9788084,-0.1950376,-0.2639136
0.9793711,-0.1965026,-0.2623677
0.9791875,-0.1970393,-0.2605411
0.9791355,-0.1959139,-0.2593723
0.9803486,-0.1931883,-0.262299
0.9807647,-0.1937234,-0.2673842
0.9816637,-0.1949498,-0.2721758
0.9820576,-0.1976593,-0.2749355
0.9816339,-0.2009006,-0.272745
0.9801906,-0.196104,-0.262536
0.9784513,-0.1896623,-0.2515924
0.9791579,-0.1901728,-0.2550024
0.9798304,-0.1929614,-0.2630241
0.9807008,-0.1961345,-0.2622661
0.9825807,-0.1983021,-0.262597
0.9811132,-0.1965677,-0.2642819
0.9761091,-0.1941296,-0.2677952
0.9734694,-0.1931896,-0.2747407
0.9792923,-0.1952435,-0.2719051
0.9862595,-0.1985968,-0.2686266
0.98331,-0.1970589,-0.2722558
0.9797863,-0.1945242,-0.2699019
0.9809799,-0.1949869,-0.2666451
0.9787458,-0.1958537,-0.2650512
0.978872,-0.1978629,-0.2647257
0.982737,-0.1973736,-0.2690421
0.9830158,-0.1945547,-0.2687359
0.9833792,-0.1944485,-0.2629906
0.9832301,-0.1942558,-0.2583978
0.9810155,-0.1944127,-0.2607463
0.9795859,-0.1946096,-0.2666362
0.9792498,-0.1927459,-0.265915
0.9802266,-0.1911044,-0.2681815
0.9791521,-0.1887477,-0.2720111
0.9784544,-0.1888652,-0.2659807
0.9796887,-0.1925171,-0.2620106
0.9781824,-0.1953168,-0.2641785
0.9785752,-0.1962029,-0.2662827
0.9817123,-0.1929391,-0.2696873
0.9833039,-0.1909739,-0.2727588
0.9837163,-0.1946277,-0.2685909
0.9825707,-0.1963233,-0.2595968
0.9806233,-0.1932382,-0.2576314
0.978552,-0.1906853,-0.2589371
0.9786057,-0.1934252,-0.2595139
0.9795997,-0.1957511,-0.2643244
0.9770335,-0.1943068,-0.268597
0.9756428,-0.1960695,-0.2713949
0.9768421,-0.1974591,-0.2721759
0.9774333,-0.1935139,-0.2680153
0.9789253,-0.1903315,-0.2628714
0.9795658,-0.1914401,-0.2620645
0.9790162,-0.1926629,-0.2675999
0.9791575,-0.1920434,-0.2710121
0.9797267,-0.1932638,-0.2693407
0.9818645,-0.1934381,-0.2684891
0.9835767,-0.1916403,-0.2669594
0.9809911,-0.1926527,-0.2646131
0.9777557,-0.1933106,-0.2648746
0.9792601,-0.192624,-0.2667229
0.980888,-0.1913929,-0.2658817
0.9799419,-0.1898795,-0.2646823
0.9799542,-0.1920301,-0.2656063
0.9789766,-0.1939852,-0.2651472
0.978853,-0.1925675,-0.2652418
0.9807056,-0.1911881,-0.2658255
0.9804689,-0.1908412,-0.2667753
0.9807799,-0.1917117,-0.2687037
0.9812435,-0.1918884,-0.2672134
0.9801077,-0.1904819,-0.2657841
0.979057,-0.1903574,-0.2662255
0.9785747,-0.1925039,-0.2657561
0.9798092,-0.1950563,-0.2654754
0.9803044,-0.1951155,-0.2632218
0.9812393,-0.1937754,-0.2597738
0.9828709,-0.1944981,-0.2591961
0.9813619,-0.1948726,-0.2601537
0.9807115,-0.1937834,-0.2611612
0.9800434,-0.1941153,-0.2641192
0.9793689,-0.1947125,-0.2672211
0.9822927,-0.1962735,-0.2669772
0.9833054,-0.1980345,-0.2660867
0.9829772,-0.1970343,-0.2654167
0.9824643,-0.1965051,-0.2623678
0.9795661,-0.194838,-0.2605865
0.9786128,-0.1919675,-0.2637835
0.9792782,-0.1929126,-0.2665966
0.9792522,-0.1938017,-0.2653787
0.9791374,-0.1935771,-0.2661463
0.9790783,-0.1949239,-0.2695914
0.9793004,-0.1956122,-0.2689292
0.9796202,-0.1957369,-0.265796
0.9818272,-0.1957276,-0.2662816
0.9842566,-0.1939539,-0.2683268
0.9833436,-0.1925598,-0.2678965
0.9817337,-0.1939526,-0.2668158
0.9808844,-0.1949915,-0.2657552
0.9789997,-0.1945083,-0.2646878
0.9769523,-0.1951969,-0.2654346
0.9760563,-0.1962505,-0.2651419
0.9765487,-0.1959103,-0.2631364
0.9784516,-0.1955579,-0.2622237
0.9796615,-0.1960218,-0.2627454
0.9792023,-0.195838,-0.2654883
0.9789932,-0.1956831,-0.2674863
0.9797648,-0.1961942,-0.2667065
0.981902,-0.1966118,-0.2665636
0.9840788,-0.1974989,-0.2676697
0.9831293,-0.1974197,-0.2684203
0.9800913,-0.1968835,-0.2680275
0.9785665,-0.1974349,-0.2678828
0.9790287,-0.197215,-0.2682556
0.9794479,-0.1970836,-0.2693572
0.9790998,-0.1973976,-0.2752243
0.9795665,-0.1970997,-0.2806975
0.9820115,-0.1972532,-0.2763441
0.9835613,-0.1970937,-0.2695303
0.9807158,-0.1962386,-0.266789
0.9766222,-0.1958241,-0.2622139
0.9757609,-0.1965719,-0.2640806
0.976023,-0.197347,-0.2724829
0.9762403,-0.1954763,-0.270468
0.9784807,-0.1939545,-0.2692996
0.9815302,-0.1962807,-0.2731922
0.9841882,-0.1979225,-0.2714488
0.9840449,-0.1960735,-0.2738807
0.9815688,-0.1943304,-0.2739629
0.980206,-0.1945412,-0.2699024
0.977021,-0.1959109,-0.2716007
0.9771322,-0.1982226,-0.2697135
0.9819678,-0.1982925,-0.2688522
0.9820816,-0.1950802,-0.2683311
0.9819085,-0.195184,-0.2622133
0.9822707,-0.1977313,-0.2637289
0.9813274,-0.1971322,-0.2718999
0.9823509,-0.1968431,-0.2783367
0.9806409,-0.1965293,-0.2755648
0.9789897,-0.1941378,-0.2677886
0.978426,-0.1933221,-0.2684843
0.9768571,-0.1935134,-0.2675409
0.9775978,-0.1958351,-0.265927
0.9784802,-0.2001648,-0.271341
0.9819805,-0.2001393,-0.2725679
0.9847929,-0.1968818,-0.2703838
0.9815488,-0.1950955,-0.2677088
0.9795959,-0.195787,-0.26633
0.9792254,-0.1972534,-0.2677133
0.9796586,-0.19757,-0.2681648
0.9812876,-0.1990251,-0.2715584
0.9802857,-0.2002861,-0.2710976
0.9791798,-0.1982368,-0.2649217
0.9783543,-0.196967,-0.2628977
0.9775571,-0.1998363,-0.2617016
0.979672,-0.2022731,-0.2606083
0.9811428,-0.1994644,-0.2596442
0.9794179,-0.1959786,-0.2593611
0.9777445,-0.1944341,-0.2622369
0.9776073,-0.1915111,-0.2627997
0.9778461,-0.1912127,-0.2624468
0.9777897,-0.1945025,-0.2635026
0.978283,-0.1965851,-0.2666908
0.9804767,-0.1977603,-0.2707677
0.9825783,-0.1973875,-0.2674822
0.9810162,-0.1967317,-0.262342
0.9776923,-0.1975923,-0.2620544
0.9765408,-0.1969911,-0.2614138
0.9764139,-0.1961152,-0.2600217
0.9773139,-0.1958664,-0.2593903
0.9792193,-0.1956769,-0.2607307
0.9793681,-0.1973528,-0.2650024
0.9790473,-0.1989209,-0.2676743
0.9792351,-0.1986399,-0.2654274
0.9787394,-0.1969762,-0.2644582
0.9774485,-0.1966707,-0.2688169
0.9763473,-0.1989886,-0.2704413
0.9788261,-0.199839,-0.2689416
0.981692,-0.2008638,-0.2690816
0.9796824,-0.2017816,-0.2662262
0.9780778,-0.1992068,-0.2614759
0.979047,-0.1982294,-0.2593083
0.9793823,-0.1999299,-0.2614505
0.980859,-0.2017599,-0.2699599
0.9823186,-0.2015349,-0.2773605
0.9824973,-0.1983822,-0.2731674
0.9834458,-0.1979675,-0.2633337
0.9818028,-0.1986205,-0.2612063
0.9797815,-0.1955723,-0.2634067
0.9825784,-0.1928282,-0.2648746
0.9833205,-0.193693,-0.2670209
0.9784462,-0.1961975,-0.2663349
0.9740253,-0.1970327,-0.2679775
0.9751999,-0.1971943,-0.2709567
0.9805788,-0.1978555,-0.2693148
0.9838276,-0.1987622,-0.2709514
0.9836999,-0.2005937,-0.2724107
0.9820765,-0.2001772,-0.2675293
0.981486,-0.1984716,-0.2637161
0.9823253,-0.1985384,-0.2649287
0.9819431,-0.1971004,-0.2661247
0.9827834,-0.1941854,-0.2637759
0.983489,-0.192717,-0.2634901
0.9813464,-0.1946678,-0.2643814
0.9800418,-0.1979164,-0.2634698
0.9803647,-0.1968664,-0.2648244
0.9816303,-0.1940622,-0.2682069
0.9840225,-0.1926743,-0.2738689
0.9860944,-0.1930474,-0.2761314
0.9824331,-0.1963395,-0.2707505
0.976514,-0.1982813,-0.2680484
0.9782055,-0.1989611,-0.2696515
0.9790559,-0.2002803,-0.2696125
0.9773003,-0.198717,-0.2683061
0.9801153,-0.1952363,-0.2678994
0.9791223,-0.1923705,-0.2696172
0.9764419,-0.1912525,-0.2724052
0.9768755,-0.1920977,-0.27428
0.9766972,-0.1940944,-0.2729406
0.978499,-0.1956821,-0.2713135
0.9792095,-0.195495,-0.2725499
0.9795498,-0.1957408,-0.2724089
0.9810472,-0.1946462,-0.2720141
0.9775655,-0.1940774,-0.273434
0.9757732,-0.1989719,-0.273401
0.9793538,-0.2020113,-0.2718725
0.9809439,-0.2009206,-0.2705986
0.9779392,-0.1987316,-0.2723396
0.9740143,-0.1961604,-0.2745429
0.9747715,-0.1978661,-0.272234
0.9758505,-0.201378,-0.2697122
0.9753056,-0.2033456,-0.2701766
0.9771047,-0.2027252,-0.2736646
0.9774577,-0.1984047,-0.277488
0.9773862,-0.1967245,-0.2738491
0.9774174,-0.1989396,-0.2683868
0.9758929,-0.2007733,-0.2691761
0.9772405,-0.2002744,-0.26881
0.9786524,-0.1992869,-0.266437
0.9781819,-0.1999393,-0.2665879
0.9787189,-0.1973596,-0.266506
0.9782839,-0.1951133,-0.2664823
0.9773825,-0.1987225,-0.2684729
0.9772344,-0.201099,-0.27114
0.9777186,-0.2000418,-0.2717398
0.9791343,-0.1994973,-0.271645
0.9794816,-0.1999319,-0.272105
0.9799163,-0.1983471,-0.2676142
0.9810083,-0.1957512,-0.2637415
0.9805115,-0.1946873,-0.2674493
0.9803842,-0.192531,-0.270064
0.9807582,-0.1930917,-0.2694012
0.9802377,-0.197491,-0.2693483
0.9797139,-0.1993045,-0.2694677
0.9787402,-0.1988961,-0.269532
0.9782713,-0.1983843,-0.2687796
0.9783399,-0.1995086,-0.2668428
0.9777231,-0.2006348,-0.2644873
0.977947,-0.199683,-0.2650098
0.9793026,-0.1998281,-0.2673174
0.9795438,-0.1994713,-0.2682873
0.9777181,-0.1988005,-0.2705525
0.9765015,-0.199308,-0.2725336
0.9764187,-0.1972962,-0.2727938
0.9764763,-0.194726,-0.2694176
0.9783902,-0.1945362,-0.2619758
0.9795622,-0.1964787,-0.2609479
0.9782431,-0.2001004,-0.2639473
0.9777459,-0.2024867,-0.265662
0.9794708,-0.2030374,-0.271188
0.9812153,-0.2025589,-0.2725842
0.9797064,-0.2007667,-0.2710659
0.9776898,-0.1988134,-0.2742327
0.9759367,-0.1963133,-0.2736003
0.973268,-0.1943182,-0.2720554
0.9765536,-0.1974973,-0.2711476
0.9812954,-0.2018365,-0.263515
0.979057,-0.1998083,-0.2579309
0.9782069,-0.1965901,-0.2611308
0.980605,-0.1948596,-0.2671964
0.9815437,-0.1918685,-0.2710676
0.9838861,-0.1932551,-0.2730991
0.9834507,-0.197309,-0.2687892
0.9785393,-0.1998931,-0.2611502
0.9762408,-0.2011127,-0.2677599
0.9759525,-0.193425,-0.2764664
0.9764718,-0.1860353,-0.2744271
0.9767781,-0.1920767,-0.2737093
0.9758644,-0.1980197,-0.2671634
0.9768631,-0.1967067,-0.2593169
0.9780809,-0.1944293,-0.2628043
0.9812462,-0.1925566,-0.2658549
0.984266,-0.1938486,-0.2668377
0.9796785,-0.197199,-0.2687997
0.9765322,-0.1975912,-0.268258
0.980683,-0.1970139,-0.2673713
0.9829625,-0.1969933,-0.2673957
0.979648,-0.195158,-0.2672905
0.9762593,-0.1930409,-0.2699086
0.976208,-0.1926347,-0.2749201
0.9764001,-0.193573,-0.2750464
0.9760361,-0.195009,-0.2742771
0.9750698,-0.1959133,-0.2745559
0.9751896,-0.1951636,-0.2683618
0.9795733,-0.1928747,-0.2635979
0.9814172,-0.1926992,-0.2669337
0.9774839,-0.1933002,-0.2704828
0.9752509,-0.1918573,-0.2695021
0.9765052,-0.1915002,-0.26881
0.9766341,-0.1914758,-0.2704445
0.975109,-0.1907544,-0.2709585
0.9753574,-0.1901547,-0.2725886
0.9780913,-0.1897758,-0.2729025
0.9817278,-0.18975,-0.2713193
0.9823606,-0.1885021,-0.2727105
0.9787645,-0.1882484,-0.2717827
0.9768875,-0.1876375,-0.2690498
0.9778264,-0.1860645,-0.2681621
0.9782184,-0.1906258,-0.2691455
0.9785406,-0.1962703,-0.2715343
0.9793525,-0.1965321,-0.2682657
0.9792681,-0.1968327,-0.2656804
0.9779624,-0.1966039,-0.2707906
0.9775715,-0.1937802,-0.2724673
0.9778548,-0.1946069,-0.266847
0.9778867,-0.1994257,-0.2624765
0.9789455,-0.2012057,-0.2674254
0.9806215,-0.2006307,-0.2737591
0.9827057,-0.2009024,-0.2721638
0.9838826,-0.1990611,-0.2709788
0.9831192,-0.1961496,-0.2690962
0.9817469,-0.1963447,-0.2642316
0.9790867,-0.1953643,-0.2652805
0.976868,-0.1924562,-0.269669
0.9781459,-0.1962353,-0.2742764
0.9804622,-0.2009511,-0.2777257
0.9797764,-0.1991474,-0.2731378
0.9770201,-0.1995635,-0.2640542
0.9762433,-0.2009281,-0.2597277
0.9769492,-0.1991866,-0.2638399
0.9772595,-0.1991875,-0.2711427
0.9787954,-0.198661,-0.2726354
0.9796916,-0.1980762,-0.2718372
0.9779353,-0.1991117,-0.2728432
0.9772283,-0.1984475,-0.272818
0.9769376,-0.1986164,-0.2735145
0.9750963,-0.1998351,-0.2722346
0.9745046,-0.1998093,-0.2701948
0.9742149,-0.1991512,-0.2737277
0.9744297,-0.1974819,-0.2761826
0.9788596,-0.1978373,-0.2748475
0.9830102,-0.2006459,-0.2745178
0.9790097,-0.2029299,-0.2741285
0.9739414,-0.2046748,-0.2725137
0.9768596,-0.2032546,-0.2719849
0.9783484,-0.2004447,-0.2744521
0.9766754,-0.200955,-0.2763703
0.977579,-0.2010409,-0.2756742
0.9760509,-0.1996421,-0.2740069
0.9761501,-0.2003519,-0.2711551
0.9794226,-0.2004798,-0.2687286
0.9808913,-0.1984543,-0.269234
0.982257,-0.1989126,-0.2719072
0.9788731,-0.2016526,-0.2728501
0.9735444,-0.203795,-0.2732412
0.9735523,-0.2059384,-0.275833
0.9757239,-0.2066833,-0.2772734
0.9787413,-0.2035646,-0.2781956
0.9790102,-0.1963917,-0.2797161
0.9761803,-0.1929723,-0.2795625
0.9733358,-0.1991533,-0.2775762
0.9697077,-0.2054852,-0.2766521
0.9702725,-0.2071939,-0.2795538
0.9730398,-0.2072401,-0.2799124
0.9728494,-0.2064211,-0.276357
0.9738002,-0.20585,-0.2764256
0.974065,-0.2035648,-0.2784008
0.9733749,-0.2019129,-0.2796865
0.9757175,-0.2024759,-0.2804633
0.9770009,-0.2000656,-0.279595
0.9759257,-0.1967003,-0.2772633
0.9745358,-0.1976219,-0.2739249
0.9730707,-0.202914,-0.2744463
0.9734654,-0.2089788,-0.2774518
0.9739765,-0.2105921,-0.2778283
0.9737289,-0.2067627,-0.279434
0.9754296,-0.203833,-0.2789817
0.9770326,-0.2040859,-0.2761339
0.9764836,-0.2025993,-0.2764727
0.9760447,-0.2024236,-0.2742019
0.9765829,-0.2052894,-0.2714512
0.9764441,-0.205843,-0.2710519
0.9758344,-0.2052049,-0.2710478
0.9747855,-0.2034145,-0.2768902
0.9729994,-0.2002924,-0.2819063
0.973511,-0.1996464,-0.2807649
0.9750624,-0.2009405,-0.2799574
0.9749276,-0.2018686,-0.2797049
0.9751016,-0.2017147,-0.2791398
0.9748545,-0.2029092,-0.2777735
0.9739283,-0.205008,-0.2739878
0.9735517,-0.2042307,-0.2698963
0.9737328,-0.2040707,-0.272482
0.9755959,-0.2063219,-0.2770696
0.9769542,-0.2070245,-0.2726124
0.9764013,-0.205272,-0.2699383
0.9762098,-0.203377,-0.272579
0.9764558,-0.204027,-0.2719678
0.9766344,-0.2047074,-0.2724006
0.977188,-0.2041207,-0.2723515
0.9775404,-0.2060066,-0.2717845
0.9752719,-0.2077123,-0.2727542
0.9728262,-0.2068571,-0.2718508
0.9752751,-0.2070903,-0.2722855
0.9775736,-0.2089044,-0.2731676
0.97595,-0.210232,-0.2754072
0.974977,-0.2095308,-0.2792327
0.9744342,-0.2075663,-0.2776509
0.9739212,-0.206605,-0.2746029
0.9754996,-0.2062345,-0.2729165
0.9762984,-0.2043205,-0.2725549
0.9759462,-0.2010421,-0.276571
0.9758628,-0.2009822,-0.277702
0.9746118,-0.203903,-0.2747752
0.9746979,-0.2048575,-0.2739096
0.9755455,-0.2057297,-0.2726126
0.9746329,-0.2066239,-0.2747902
0.9748452,-0.2050004,-0.2792219
0.9747135,-0.2032473,-0.2739416
0.9747866,-0.2018386,-0.2684336
0.9772555,-0.2018935,-0.2714481
0.977638,-0.2043371,-0.2732718
0.977421,-0.2055611,-0.2745034
0.9784358,-0.2056777,-0.2780886
0.9784578,-0.2065987,-0.2794412
0.9786127,-0.207143,-0.2757435
0.9759776,-0.2066358,-0.2718285
0.9724264,-0.2049008,-0.2745866
0.9751641,-0.2027266,-0.2788979
0.9776947,-0.2018165,-0.2818234
0.974855,-0.2007107,-0.2841291
0.9734977,-0.1995859,-0.281614
0.9737956,-0.201472,-0.2769779
0.9733329,-0.2021834,-0.2740031
0.9744899,-0.1997174,-0.2728277
0.9772262,-0.1994254,-0.2717063
0.9795297,-0.1984253,-0.2719989
0.9771325,-0.1953933,-0.27606
0.9732157,-0.1961109,-0.2759102
0.9756276,-0.199729,-0.2737137
0.9782189,-0.2050689,-0.275124
0.9778087,-0.2087403,-0.2722537
0.978723,-0.2068162,-0.2685807
0.9780062,-0.205659,-0.2694002
0.9757881,-0.2049643,-0.2696682
0.9740523,-0.2017245,-0.2693318
0.9733044,-0.2022752,-0.2694373
0.9740917,-0.2039255,-0.2698391
0.9752606,-0.2034504,-0.2710555
0.9774035,-0.2061833,-0.2718167
0.9784286,-0.2075029,-0.2704997
0.9790702,-0.2037899,-0.2684606
0.9799021,-0.2019019,-0.268116
0.9782265,-0.2027463,-0.2691087
0.977415,-0.2031137,-0.2715791
0.9760994,-0.2026441,-0.2730569
0.9746988,-0.2026159,-0.2715781
0.9755623,-0.2030605,-0.2703154
0.9745928,-0.202589,-0.2691629
0.9750967,-0.2024073,-0.2689968
0.9765678,-0.2011791,-0.2707055
0.9769629,-0.1990293,-0.2727917
0.9785363,-0.199073,-0.2755882
0.9776544,-0.1987153,-0.2739819
0.9775661,-0.1981976,-0.2705288
0.9790535,-0.1989184,-0.2729225
0.9781178,-0.1987422,-0.2746385
0.9777556,-0.1993623,-0.2746961
0.9777754,-0.2004579,-0.2748558
0.9786848,-0.2001681,-0.2695301
0.9793313,-0.2008781,-0.2639065
0.9771275,-0.2027179,-0.2635822
0.9766063,-0.2027609,-0.2667315
0.9798221,-0.2002939,-0.2692955
0.9829462,-0.1967608,-0.2679018
0.9802049,-0.1948826,-0.2674056
0.9757583,-0.1960387,-0.2676941
0.9763629,-0.1975297,-0.2668093
0.976559,-0.1988992,-0.2701576
0.9762876,-0.2003819,-0.2734977
0.9777956,-0.198384,-0.2712664
0.9788536,-0.1964717,-0.2684271
0.9805376,-0.1992184,-0.2668281
0.9808236,-0.2008929,-0.2646201
0.9801515,-0.1996103,-0.2650516
0.9798455,-0.1989223,-0.2682621
0.9787556,-0.1985479,-0.2700167
0.9791179,-0.1977225,-0.2711854
0.9794218,-0.1946533,-0.2697559
0.9789295,-0.1892741,-0.2657754
0.9792918,-0.1882648,-0.2644927
0.9791523,-0.1941443,-0.2613966
0.9791123,-0.2010701,-0.2522726
0.9794241,-0.2039798,-0.2459544
0.9803448,-0.2010363,-0.2555412
0.982664,-0.1975949,-0.2689563
0.9832518,-0.1992992,-0.2651367
0.9797596,-0.2016535,-0.2595351
0.9762207,-0.2025304,-0.2624332
0.9766667,-0.2008253,-0.2684322
0.9771297,-0.1968624,-0.2768294
0.9767867,-0.1977343,-0.268332
0.9791671,-0.1987196,-0.2543267
0.9798109,-0.1974548,-0.2576526
0.9787752,-0.2001319,-0.2569842
0.98067,-0.2011335,-0.2571018
0.9826765,-0.1995844,-0.2686798
0.9837335,-0.1989639,-0.2706487
0.9836252,-0.1984896,-0.2661664
0.9826476,-0.1996437,-0.2647071
0.9827292,-0.2002479,-0.2656882
0.9808417,-0.2000171,-0.2675419
0.977069,-0.2001668,-0.2644022
0.9745396,-0.2007542,-0.2630181
0.9761196,-0.2017147,-0.2644168
0.9802283,-0.2004273,-0.2637793
0.9786939,-0.1993496,-0.2647603
0.9747551,-0.1985542,-0.264636
0.9736788,-0.1947579,-0.2635835
0.9745914,-0.192402,-0.2645548
0.9778246,-0.1961849,-0.2676541
0.9775405,-0.2023788,-0.2721133
0.9769499,-0.2041193,-0.2740103
0.9787268,-0.204049,-0.2737603
0.9762825,-0.2051681,-0.2684684
0.9759334,-0.2041697,-0.2605783
0.9771793,-0.2036646,-0.2617456
0.9766939,-0.2045394,-0.2669015
0.9786151,-0.2041223,-0.2689276
0.9787154,-0.2045374,-0.2687524
0.9789786,-0.2071993,-0.2650784
0.9798103,-0.2099829,-0.2637127
0.9785771,-0.2102585,-0.2642236
0.9795791,-0.2089568,-0.2619193
0.980025,-0.2079539,-0.2608454
0.9795709,-0.2066337,-0.2596041
0.9792045,-0.2064838,-0.2612323
0.9775339,-0.2074595,-0.2658543
0.977149,-0.206813,-0.2653603
0.9771429,-0.206692,-0.2652699
0.979032,-0.207336,-0.2668508
0.9818638,-0.2068483,-0.2682774
0.9816231,-0.2078683,-0.2705229
0.9803593,-0.2079014,-0.2692248
0.9785486,-0.2036937,-0.2687094
0.9782099,-0.2004042,-0.2680354
0.9772694,-0.2026549,-0.2647856
0.9738512,-0.2055478,-0.2649965
0.975577,-0.2030303,-0.2656155
0.9773098,-0.201793,-0.2645586
0.9739131,-0.2035561,-0.262658
0.9736139,-0.2024887,-0.2608071
0.9766285,-0.2026241,-0.2643931
0.9792953,-0.2031779,-0.2704347
0.9787646,-0.2027131,-0.2700445
0.9755893,-0.20448,-0.2653875
0.9744487,-0.204264,-0.2666758
0.9735503,-0.2023007,-0.2723898
0.9741685,-0.2027523,-0.2740868
0.976795,-0.2051263,-0.2717124
0.9768407,-0.2068347,-0.2684777
0.9779384,-0.206213,-0.2687038
0.9799821,-0.2053079,-0.2710412
0.9789781,-0.2053302,-0.2720415
0.9777916,-0.2057978,-0.2757381
0.9768388,-0.2053915,-0.277375
0.9759643,-0.2044144,-0.2750151
0.9766028,-0.2036542,-0.2759643
0.9774576,-0.2012179,-0.2751788
0.9778932,-0.1995211,-0.2729116
0.977741,-0.2008598,-0.2706103
0.9763894,-0.2028791,-0.2648651
0.9743335,-0.2029743,-0.2669348
0.9730585,-0.2015129,-0.2724324
0.9736765,-0.2012965,-0.2719888
0.9746811,-0.2018716,-0.2740638
0.9741727,-0.2040491,-0.273053
0.973037,-0.2065492,-0.2686237
0.971718,-0.2056337,-0.2678679
0.9707539,-0.2049174,-0.2666423
0.9724253,-0.2049745,-0.2706521
0.9744773,-0.2038519,-0.2777162
0.9736895,-0.2046638,-0.278379
0.97277,-0.2080539,-0.2767843
0.9721755,-0.2106882,-0.2758478
0.9708045,-0.2100584,-0.2744681
0.9730737,-0.2090711,-0.2667431
0.9765045,-0.2100045,-0.256775
0.9751441,-0.2098886,-0.2597881
0.97516,-0.2081194,-0.2701277
0.9773595,-0.2037243,-0.2800358
0.9762247,-0.198605,-0.2875052
0.9758528,-0.2017529,-0.281686
0.9761343,-0.207043,-0.274695
0.9756863,-0.2053845,-0.2788377
0.9783879,-0.2067794,-0.2785882
0.9798058,-0.2092882,-0.2773066
0.976727,-0.2074144,-0.2806206
0.9738614,-0.2085232,-0.2782555
0.9731492,-0.2077995,-0.2760156
0.9736476,-0.2058845,-0.2750059
0.9739935,-0.2079321,-0.2739477
0.9743255,-0.2086025,-0.2759991
0.9751307,-0.2100156,-0.27491
0.9739408,-0.2101991,-0.2754237
0.9715801,-0.2079803,-0.2772925
0.9721518,-0.2085362,-0.2745559
0.974181,-0.2080905,-0.2726601
0.9739754,-0.2072492,-0.2704017
0.9731199,-0.2068742,-0.2702754
0.9739394,-0.2053829,-0.2736018
0.9750562,-0.2046309,-0.2741597
0.9765723,-0.202819,-0.2748205
0.9777346,-0.2021675,-0.2747022
0.9761301,-0.2022892,-0.2726649
0.975796,-0.2008456,-0.2730665
0.9772418,-0.2015609,-0.2739727
0.9769933,-0.2025585,-0.2741647
0.9779036,-0.2034714,-0.2737076
0.9780878,-0.2066468,-0.2722073
0.9763121,-0.2091505,-0.2721058
0.9762205,-0.2088359,-0.2727364
0.9754711,-0.2077997,-0.2738011
0.9746247,-0.2092485,-0.2753571
0.9747687,-0.2092708,-0.273397
0.9729996,-0.2067253,-0.2711342
0.9706312,-0.2070964,-0.2729595
0.9694503,-0.2088967,-0.2752166
0.9701424,-0.2101498,-0.2763062
0.9731985,-0.2097081,-0.2740369
0.9768869,-0.2073811,-0.2698918
0.9770832,-0.2067009,-0.2704448
0.9746285,-0.2068054,-0.2719328
0.9754873,-0.2070396,-0.2728372
0.9779496,-0.2074468,-0.277803
0.9785178,-0.2077253,-0.2801756
0.9744811,-0.2071107,-0.2759884
0.9691339,-0.2041387,-0.2725395
0.9739715,-0.2048248,-0.2720263
0.9789573,-0.2071453,-0.272596
0.9744608,-0.2060294,-0.2746589
0.9734546,-0.2088218,-0.2754969
0.9749156,-0.2111303,-0.2728723
0.9737876,-0.2086154,-0.2714296
0.9737462,-0.2079851,-0.2724878
0.9733491,-0.2064026,-0.2722949
0.9738199,-0.2048372,-0.2711611
0.9747622,-0.2059985,-0.2679018
0.9754391,-0.206211,-0.2643555
0.9780521,-0.206666,-0.2687143
0.9795537,-0.2069096,-0.2775616
0.9780028,-0.2064227,-0.2808379
0.9744957,-0.2045026,-0.2791587
0.9730136,-0.2024875,-0.2785188
0.9756107,-0.2071607,-0.2786659
0.9771145,-0.2117506,-0.2746113
0.9762048,-0.2091294,-0.2696209
0.9752099,-0.2058878,-0.2704915
0.9748767,-0.2035454,-0.272603
0.9742881,-0.202225,-0.2720312
0.971386,-0.2048282,-0.2720882
0.9684546,-0.2074515,-0.2712938
0.9698283,-0.2069702,-0.2694215
0.9747297,-0.2067758,-0.2690935
0.9774567,-0.206959,-0.2689373
0.9766028,-0.2057076,-0.2690671
0.9759312,-0.2044828,-0.2687821
0.9764676,-0.2048624,-0.2667308
0.97666,-0.2095333,-0.2661521
0.9760868,-0.2133128,-0.2678973
0.9764669,-0.2075093,-0.2707327
0.9769356,-0.2019583,-0.2733893
0.9778517,-0.2068487,-0.2724584
0.9799798,-0.2104999,-0.2713322
0.978768,-0.2071645,-0.2727077
0.9759363,-0.2057975,-0.2712769
0.9746522,-0.2040667,-0.269934
0.9744931,-0.2013531,-0.2707809
0.9757305,-0.2040807,-0.2704137
0.9761467,-0.2076691,-0.2709899
0.9781159,-0.210372,-0.270448
0.979589,-0.2108101,-0.270966
0.9752545,-0.2084915,-0.2769538
0.9722701,-0.2100856,-0.2823785
0.9736187,-0.2097279,-0.2821102
0.9748179,-0.2061226,-0.2707079
0.9769116,-0.2054573,-0.258298
0.9801363,-0.2050323,-0.2627846
0.9799162,-0.2060553,-0.2725857
0.9780819,-0.20671,-0.2787948
0.9792493,-0.2065599,-0.2827768
0.977728,-0.207679,-0.272271
0.9751065,-0.2064737,-0.2581355
0.9767992,-0.2068598,-0.2597931
0.9767801,-0.2078306,-0.2670636
0.9768372,-0.2080868,-0.2708707
0.9781031,-0.2103485,-0.2702856
0.9756731,-0.2080832,-0.2680322
0.97341,-0.2057073,-0.2708054
0.9736822,-0.2073839,-0.2730381
0.9755621,-0.2072099,-0.2733707
0.9770193,-0.2076183,-0.272958
0.9760188,-0.2087569,-0.2701058
0.9747521,-0.2085573,-0.2687315
0.9751537,-0.2090457,-0.2632431
0.9776288,-0.2100584,-0.2593849
0.9782586,-0.2099269,-0.263624
0.9754978,-0.20935,-0.2646398
0.9744239,-0.2095791,-0.2671196
0.9756398,-0.2078059,-0.2692616
0.9777854,-0.2049171,-0.265272
0.9795559,-0.2035433,-0.2655197
0.9776781,-0.2023811,-0.2685882
0.9752867,-0.2027508,-0.2731299
0.976615,-0.2040276,-0.2765647
0.9779946,-0.2042437,-0.2747249
0.9784376,-0.2046158,-0.2752651
0.9797139,-0.2058712,-0.2775887
0.9788734,-0.2074719,-0.2778674
0.9767808,-0.2072512,-0.2750443
0.9751821,-0.2062519,-0.2722846
0.9734451,-0.2063059,-0.2742676
0.9739139,-0.205555,-0.2753462
0.9755443,-0.2060578,-0.2745307
0.9768756,-0.2076879,-0.2727248
0.977561,-0.2070213,-0.2711337
0.9766064,-0.2076981,-0.2727893
0.9763947,-0.209891,-0.2723554
0.976508,-0.2098659,-0.2716878
0.9771384,-0.209459,-0.2727688
0.9780065,-0.2090477,-0.2710301
0.9756404,-0.2085413,-0.2677436
0.973428,-0.2080024,-0.2650434
0.9733891,-0.2053944,-0.2689009
0.9736609,-0.2029945,-0.274866
0.9737839,-0.2026388,-0.272153
0.9735609,-0.2026473,-0.270915
0.9751567,-0.2030522,-0.2731163
0.9780137,-0.2040956,-0.2692439
0.979896,-0.2060663,-0.2650373
0.9791497,-0.2077196,-0.2650284
0.9767027,-0.2071183,-0.2722151
0.9762199,-0.2076099,-0.2812187
0.9757425,-0.2096973,-0.2768547
0.9737144,-0.2092584,-0.2696472
0.9718101,-0.2087405,-0.2686267
0.9728313,-0.2100082,-0.2654477
0.9766795,-0.2099819,-0.2668811
0.9774698,-0.2090668,-0.271577
0.9768186,-0.2078419,-0.2729225
0.9765535,-0.2057907,-0.2758276
0.9761419,-0.2056276,-0.2747152
0.9786282,-0.2070735,-0.2699335
0.979723,-0.2070309,-0.267655
0.9789714,-0.2073774,-0.2643038
0.9792821,-0.2075042,-0.2616103
0.9788192,-0.2062066,-0.2631181
0.9780687,-0.2073346,-0.2658811
0.9757016,-0.2080377,-0.2653729
0.9741891,-0.2070939,-0.2647694
0.9752619,-0.2072384,-0.266962
0.9750613,-0.2067214,-0.2702375
0.9748809,-0.2078857,-0.2743619
0.9752544,-0.2086147,-0.2701436
0.9758457,-0.2061261,-0.2645988
0.97672,-0.2051827,-0.2729113
0.976418,-0.205208,-0.279701
0.9762528,-0.2048702,-0.2785321
0.9762828,-0.2046868,-0.2782547
0.975506,-0.2072974,-0.2748067
0.9746939,-0.2117429,-0.2697757
0.9752497,-0.2109434,-0.2707483
0.9772209,-0.2088622,-0.27542
0.9790449,-0.208677,-0.2774832
0.9794845,-0.2091396,-0.2782574
0.9778975,-0.2107871,-0.2795217
0.9764619,-0.2093699,-0.2787571
0.9763013,-0.209184,-0.2763524
0.9762669,-0.2102835,-0.2741725
0.9765448,-0.2070698,-0.275271
0.975998,-0.205277,-0.2776133
0.9744923,-0.204031,-0.2766843
0.973243,-0.2036995,-0.2759339
0.9734314,-0.206603,-0.2767493
0.9751458,-0.2064961,-0.2749143
0.976019,-0.2059362,-0.2709173
0.9763863,-0.206693,-0.2695788
0.9755727,-0.2067611,-0.2694104
0.973448,-0.2073272,-0.2689981
0.9741627,-0.2074759,-0.2699975
0.9773417,-0.2103926,-0.269047
0.9801097,-0.213893,-0.268292
0.9792081,-0.212465,-0.2683464
0.9755391,-0.210374,-0.2682922
0.974628,-0.2086081,-0.2729973
0.9749025,-0.2060288,-0.2760116
0.9750343,-0.2065454,-0.2727822
0.9752379,-0.2077518,-0.2685421
0.9746453,-0.2059539,-0.2670888
0.9753987,-0.2041619,-0.2681331
0.9759429,-0.2024117,-0.2673673
0.9760269,-0.2019939,-0.2691155
0.9750577,-0.2036284,-0.2717895
0.9726095,-0.2027254,-0.26774
0.9739044,-0.203617,-0.267047
0.9760046,-0.206905,-0.2731721
0.9761754,-0.2070685,-0.2753434
0.9758008,-0.2072701,-0.2734312
0.9734724,-0.2077648,-0.2708561
0.9735484,-0.2082289,-0.2679665
0.9760329,-0.2075767,-0.2673785
0.9775161,-0.2037883,-0.2659741
0.9783772,-0.2012527,-0.2642767
0.9775367,-0.2002377,-0.2671051
0.9777713,-0.2014091,-0.268552
0.9790622,-0.2032045,-0.2678674
0.9790977,-0.2023135,-0.2674791
0.9794124,-0.2028119,-0.2667282
0.9786845,-0.2024691,-0.2676886
0.9772612,-0.2027398,-0.2662808
0.9764803,-0.2068963,-0.2645408
0.9776901,-0.2071351,-0.2651625
0.9802566,-0.2036875,-0.2637599
0.979231,-0.2011467,-0.2634497
0.9783025,-0.2015227,-0.2641945
0.9789292,-0.2056822,-0.2642128
0.9774081,-0.2087652,-0.2661502
0.9784374,-0.2093867,-0.2702286
0.9801797,-0.2106212,-0.2734252
0.9797045,-0.2121616,-0.2712337
0.9806093,-0.2076799,-0.2653151
0.9799816,-0.200631,-0.2609422
0.9779382,-0.2015934,-0.2619562
0.9766138,-0.2004396,-0.2646704
0.9754627,-0.194167,-0.2635636
0.9797917,-0.1957533,-0.2638969
0.985181,-0.1987375,-0.2652986
0.9806505,-0.1983151,-0.2646535
0.9750931,-0.1990709,-0.2638879
0.9771146,-0.1994942,-0.2641163
0.9793814,-0.2041204,-0.2737025
0.9803312,-0.2111445,-0.2842087
1.015622,0.08713499,-0.1123485
1.014521,0.08545055,-0.1141936
1.016035,0.08443426,-0.1128475
1.015934,0.0855057,-0.1096815
1.017032,0.08644883,-0.1114055
1.017426,0.08418877,-0.1139346
1.014915,0.07856826,-0.1127828
1.012644,0.07404741,-0.1114631
1.011652,0.07458747,-0.1059342
1.012919,0.07766639,-0.1040007
1.012919,0.07830977,-0.1066847
1.0128,0.07826317,-0.1049331
1.014331,0.07893486,-0.1043951
1.012017,0.07796702,-0.1033917
1.010186,0.07756991,-0.1019176
1.011921,0.07728187,-0.1032798
1.013861,0.07730861,-0.1026696
1.015996,0.0786914,-0.1031629
1.015627,0.07836446,-0.106254
1.015548,0.08043378,-0.1105392
1.020442,0.08607511,-0.1151169
1.025407,0.08903415,-0.1185162
1.024239,0.08225743,-0.1195711
1.016176,0.06529718,-0.1089795
1.009162,0.0550246,-0.09637629
1.010413,0.05643681,-0.1010932
1.014287,0.05755236,-0.1071036
1.016694,0.05671603,-0.1041578
1.020513,0.05577527,-0.1050272
1.020206,0.05672513,-0.1056498
1.016133,0.06215419,-0.10841
1.016944,0.06885446,-0.1163494
1.017964,0.0697812,-0.1151995
1.018633,0.0676539,-0.1136944
1.020511,0.07185831,-0.1186667
1.018562,0.07633679,-0.1197193
1.01698,0.07800922,-0.1195356
1.014024,0.07826899,-0.1171037
1.011155,0.07311086,-0.1138963
1.014836,0.07121617,-0.1149945
1.016154,0.07244441,-0.1188036
1.014673,0.07034163,-0.1235176
1.014332,0.06732749,-0.1191754
1.012653,0.06400597,-0.1125932
1.012212,0.06591528,-0.1142075
1.012536,0.06873986,-0.1132004
1.012575,0.06973372,-0.1120517
1.012497,0.0754602,-0.1124829
1.012374,0.07733995,-0.1100644
1.012693,0.07645502,-0.1109845
1.012348,0.07858405,-0.1108414
1.012534,0.07779476,-0.1090753
1.012951,0.0771505,-0.1118338
1.014114,0.0773348,-0.1132401
1.015638,0.07589095,-0.1126756
1.013602,0.07626594,-0.1142139
1.011362,0.07728492,-0.1158597
1.011683,0.07898142,-0.115381
1.011387,0.08231656,-0.1140494
1.011756,0.08283508,-0.1151062
1.01411,0.08215179,-0.1173746
1.01522,0.08399864,-0.1185575
1.015189,0.08454534,-0.1182871
1.01553,0.08405072,-0.1179248
1.01512,0.08326488,-0.1197554
1.015217,0.08024844,-0.1187999
1.015502,0.07994541,-0.1129114
1.015036,0.08140122,-0.1100139
1.015232,0.08109876,-0.1136855
1.014231,0.08220417,-0.116974
1.012573,0.08229846,-0.1149881
1.012311,0.08143318,-0.1147893
1.012456,0.08226427,-0.1173506
1.012831,0.08174192,-0.1182672
1.013304,0.0808588,-0.1200667
1.014117,0.08089752,-0.1201743
1.01414,0.08204255,-0.121002
1.013524,0.08415034,-0.126013
1.014441,0.08368287,-0.1264107
1.015722,0.08363933,-0.1215634
1.016829,0.08580562,-0.1182624
1.016213,0.0865137,-0.1198365
1.014094,0.08657997,-0.1218388
1.013599,0.08274685,-0.1185551
1.01252,0.07728952,-0.1174872
1.012703,0.08046882,-0.1203722
1.014862,0.08435835,-0.1222633
1.013781,0.08290793,-0.1264004
1.013584,0.08438342,-0.1299659
1.015552,0.08308639,-0.1271581
1.016087,0.07863887,-0.1232036
1.016886,0.08067175,-0.1245596
1.015731,0.08110374,-0.1241697
1.013685,0.07781037,-0.1197509
1.0139,0.0784205,-0.1206447
1.014007,0.08121453,-0.1214008
1.0148,0.08389267,-0.1189822
1.015646,0.0809789,-0.1187641
1.015564,0.07517531,-0.1181375
1.017029,0.07531836,-0.1205622
1.018616,0.07525646,-0.1230556
1.018106,0.07435507,-0.1193073
1.016567,0.07540588,-0.1165603
1.015664,0.07386764,-0.1168111
1.015058,0.0735596,-0.1186092
1.014713,0.07565008,-0.123319
1.01384,0.07658853,-0.1270793
1.011759,0.07583818,-0.1267591
1.012224,0.07460214,-0.1260975
1.012806,0.07685241,-0.1226611
1.010232,0.07856178,-0.1154533
1.009798,0.0764151,-0.1171286
1.01242,0.0749344,-0.1190478
1.014599,0.07391735,-0.1102417
1.013384,0.07331164,-0.1071262
1.01142,0.0740259,-0.1113419
1.012862,0.07561095,-0.1142813
1.013157,0.07782539,-0.1135503
1.013722,0.07821803,-0.1103268
1.01628,0.07751545,-0.1112552
1.014976,0.07777498,-0.1112269
1.012939,0.07754741,-0.1092715
1.012817,0.07589006,-0.1082973
1.013854,0.07446435,-0.1065912
1.016185,0.07485033,-0.1112694
1.01566,0.0753358,-0.1177819
1.015473,0.0748388,-0.1188414
1.017318,0.07528828,-0.117959
1.015739,0.07660377,-0.1166225
1.014757,0.07640205,-0.1165975
1.016528,0.07451213,-0.115718
1.01672,0.07355416,-0.1146327
1.015765,0.074024,-0.1150221
1.014942,0.07435862,-0.1157765
1.015164,0.07514976,-0.1198429
1.015939,0.0753923,-0.1210738
1.01684,0.07455958,-0.1150838
1.018812,0.07531806,-0.1115421
1.019113,0.07609292,-0.1166242
1.01822,0.07629866,-0.1217563
1.017349,0.07679895,-0.1178821
1.013304,0.07608078,-0.1139196
1.009783,0.0765506,-0.1141297
1.010995,0.07757446,-0.1138512
1.012897,0.07732401,-0.1157622
1.01354,0.07634887,-0.1144965
1.014961,0.07439181,-0.1114025
1.015848,0.0756165,-0.1159717
1.015012,0.07702472,-0.118861
1.015202,0.07379541,-0.1171011
1.015363,0.07138696,-0.118301
1.01358,0.07129544,-0.1168001
1.011083,0.07235799,-0.1120758
1.009172,0.07274952,-0.1103304
1.011607,0.07150406,-0.1100464
1.015547,0.07149778,-0.1109351
1.015534,0.07077267,-0.112233
1.015129,0.07016155,-0.1124407
1.015355,0.07047473,-0.1119056
1.015181,0.06894298,-0.1104778
1.015399,0.06938727,-0.1110952
1.015365,0.07052375,-0.1113864
1.016186,0.06888338,-0.108981
1.017006,0.06775785,-0.106192
1.01666,0.06829945,-0.1038547
1.016566,0.07099015,-0.1081661
1.016532,0.07383595,-0.1132016
1.015629,0.07579038,-0.1091084
1.014056,0.07820627,-0.106835
1.013707,0.07660857,-0.109582
1.015097,0.07344411,-0.1110727
1.016658,0.07422444,-0.1125823
1.017683,0.07377961,-0.1106372
1.017737,0.07233843,-0.1048834
1.017643,0.0741857,-0.1030744
1.017656,0.07549629,-0.1051587
1.01707,0.07413654,-0.1078967
1.016766,0.07043329,-0.110647
1.015516,0.06700337,-0.1101886
1.014258,0.06943924,-0.1089228
1.01576,0.07216546,-0.1101181
1.015638,0.06958472,-0.110024
1.014519,0.06870828,-0.1102238
1.016209,0.06995491,-0.1117378
1.016989,0.0694919,-0.1110799
1.018218,0.07020457,-0.1106363
1.018837,0.07132622,-0.1098196
1.017195,0.07077101,-0.1057106
1.018391,0.07068122,-0.1029605
1.018511,0.07062877,-0.1031739
1.01833,0.06898237,-0.09921783
1.019596,0.06713943,-0.08925269
1.015679,0.06485203,-0.08199791
1.0127,0.05885635,-0.08059071
1.014796,0.05449181,-0.08232128
1.016004,0.06139816,-0.08869162
1.015178,0.06794635,-0.09417601
1.015251,0.06110085,-0.09328913
1.017497,0.05539626,-0.09251532
1.018258,0.0575498,-0.09395767
1.017209,0.05919926,-0.09529608
1.016343,0.06450751,-0.09631573
1.015875,0.07009241,-0.09493018
1.014457,0.06655427,-0.09371642
1.012289,0.06380296,-0.09551015
1.016583,0.06770759,-0.09807223
1.021764,0.06829023,-0.09955614
1.019277,0.06396013,-0.09448629
1.018541,0.06148538,-0.08734794
1.019741,0.06294917,-0.09012377
1.01577,0.06686308,-0.09329602
1.010693,0.0701563,-0.09233146
1.009564,0.07169438,-0.09628815
1.014481,0.07248188,-0.09951481
1.020391,0.07125181,-0.1011798
1.019405,0.06566578,-0.1005175
1.015037,0.0569134,-0.09413024
1.013552,0.05366642,-0.09352807
1.016213,0.05794807,-0.09558326
1.022189,0.05999145,-0.09479907
1.024745,0.06044367,-0.09752976
1.021431,0.06330442,-0.09855147
1.019003,0.06309313,-0.09839758
1.019297,0.06180666,-0.09913636
1.019856,0.06379615,-0.09810656
1.020426,0.06397754,-0.09883349
1.021914,0.06174368,-0.09855355
1.022424,0.06041044,-0.09718463
1.020177,0.0590677,-0.09592374
1.018848,0.05882461,-0.09249043
1.019439,0.06184039,-0.09138187
1.019288,0.0660283,-0.09389766
1.017943,0.0661188,-0.09790788
1.017625,0.06425412,-0.09966161
1.019046,0.06569855,-0.09824002
1.018146,0.06554726,-0.09868597
1.016211,0.06464664,-0.1001032
1.015977,0.06674817,-0.1020364
1.014945,0.06984937,-0.1044442
1.015005,0.07542315,-0.1043887
1.015415,0.07717521,-0.1039718
1.013159,0.07451697,-0.1044072
1.013402,0.07432447,-0.1050742
1.019658,0.07057282,-0.1061693
1.02591,0.06599288,-0.1074313
1.024297,0.06621849,-0.1087144
1.01985,0.06539021,-0.108253
1.01754,0.06449006,-0.1054683
1.012453,0.06439795,-0.1022655
1.012422,0.06188272,-0.1016899
1.016378,0.060544,-0.1035564
1.014778,0.06328674,-0.1029689
1.01809,0.06562249,-0.1005994
1.02158,0.06536427,-0.09697344
1.019085,0.06520659,-0.0922387
1.017418,0.06527484,-0.09384558
1.010515,0.06528723,-0.0943395
1.007865,0.06549482,-0.08959051
1.012953,0.06662049,-0.09225812
1.012635,0.06971094,-0.09470772
1.012774,0.07170833,-0.09501466
1.014479,0.07075276,-0.1001363
1.015952,0.06966703,-0.1012157
1.018678,0.07014309,-0.1014904
1.019459,0.07018788,-0.1015155
1.020076,0.06867668,-0.09965623
1.019102,0.06659389,-0.1027073
1.019127,0.06518756,-0.1039706
1.02018,0.06776169,-0.1021166
1.018587,0.07173147,-0.1021114
1.018821,0.07081877,-0.1031177
1.018001,0.06839994,-0.1022001
1.017413,0.06809371,-0.1008209
1.018478,0.06924218,-0.1049908
1.015449,0.07258815,-0.1083015
1.012939,0.07478364,-0.1085543
1.012467,0.07436901,-0.1092354
1.014705,0.0742718,-0.1103524
1.020007,0.07180219,-0.1137716
1.021152,0.06841403,-0.1128534
1.017692,0.07085396,-0.1101534
1.012826,0.07373117,-0.1072029
1.011421,0.07132103,-0.1006564
1.013456,0.0690615,-0.1029277
1.014189,0.06790805,-0.1072897
1.015653,0.06733689,-0.1044993
1.016278,0.06902926,-0.1044594
1.017313,0.06982955,-0.1036073
1.019733,0.07089051,-0.1016919
1.015317,0.07182161,-0.1029567
1.010252,0.07095981,-0.1010608
1.012574,0.07266642,-0.0990421
1.014183,0.07274716,-0.1007649
1.015251,0.07170729,-0.1028353
1.019331,0.07463504,-0.1047907
1.018468,0.07542899,-0.1045877
1.014755,0.0748834,-0.1035199
1.01459,0.07529067,-0.1044758
1.013528,0.07564312,-0.104277
1.013696,0.07677203,-0.1043748
1.01551,0.07544783,-0.1071446
1.014975,0.07444636,-0.1090276
1.01552,0.07561469,-0.1085925
1.015364,0.07671491,-0.10859
1.015231,0.07833975,-0.1127595
1.017557,0.07781465,-0.1187701
1.017919,0.07642961,-0.1195507
1.016505,0.07641279,-0.1139031
1.014569,0.07623743,-0.1087021
1.014887,0.07701721,-0.1092383
1.015754,0.07928771,-0.1098926
1.012895,0.08196051,-0.1090931
1.012022,0.08123998,-0.1112126
1.012663,0.07683541,-0.1111208
1.012373,0.0746676,-0.1088157
1.013259,0.07489428,-0.1082532
1.014947,0.07593194,-0.1080519
1.017403,0.07974508,-0.1101228
1.016203,0.08407103,-0.1134809
1.014293,0.08365784,-0.1186385
1.016668,0.07959762,-0.1247433
1.017075,0.07763696,-0.1251676
1.01599,0.07761003,-0.1215008
1.01454,0.07770076,-0.1161705
1.010554,0.07804743,-0.1125329
1.008734,0.07756468,-0.1119523
1.009838,0.07705719,-0.1085483
1.010069,0.07442071,-0.1053925
1.009967,0.07084048,-0.1045362
1.01242,0.07235986,-0.1037056
1.015083,0.07480852,-0.1043166
1.014866,0.07499557,-0.1048093
1.015413,0.07635078,-0.1068227
1.018044,0.08019499,-0.1103964
1.021047,0.08469746,-0.1111186
1.023188,0.08314999,-0.1112325
1.021815,0.07948623,-0.1140397
1.018748,0.0817669,-0.1188564
1.0168,0.08298833,-0.1219058
1.015851,0.08310041,-0.1190036
1.016018,0.08566541,-0.1146037
1.015076,0.0846639,-0.1136518
1.013653,0.08304727,-0.1110669
1.013425,0.08236509,-0.1075893
1.013063,0.07915743,-0.1085467
1.015426,0.07690459,-0.1104473
1.01888,0.07594555,-0.1114227
1.019489,0.07655203,-0.1112566
1.018773,0.07865277,-0.1097656
1.016561,0.07935761,-0.1098357
1.016168,0.07925761,-0.1107878
1.017232,0.07805476,-0.1120331
1.015753,0.0775942,-0.1125067
1.014072,0.07923867,-0.11199
1.011869,0.08111341,-0.1125274
1.012194,0.08227957,-0.1109885
1.015248,0.08020812,-0.1092741
1.015315,0.0788974,-0.1100025
1.015196,0.08293231,-0.108662
1.014478,0.08606317,-0.1085276
1.013273,0.08451215,-0.1122621
1.013831,0.08222871,-0.1148053
1.012069,0.08182967,-0.1143291
1.010253,0.08146212,-0.1131762
1.01022,0.08016247,-0.1141058
1.01,0.07864594,-0.1142403
1.011713,0.07833613,-0.1129587
1.014906,0.0803739,-0.1125074
1.016285,0.08073969,-0.1108854
1.015862,0.07884234,-0.1125691
1.016755,0.07852653,-0.1161745
1.016974,0.0786042,-0.1152111
1.015256,0.07760132,-0.1157231
1.01522,0.07735113,-0.1188448
1.015118,0.07821161,-0.1198384
1.014276,0.07771215,-0.1170493
1.013649,0.07747686,-0.1114243
1.012674,0.07874354,-0.108128
1.012544,0.0801601,-0.1089453
1.012691,0.08296409,-0.1131206
1.014292,0.08321194,-0.1148008
1.016033,0.08191659,-0.111481
1.015205,0.08345889,-0.1118426
1.014695,0.08417667,-0.117455
1.013695,0.08535132,-0.1225647
1.012226,0.08686842,-0.1201367
1.014079,0.08742089,-0.1131333
1.015535,0.08816299,-0.1095455
1.011719,0.08631362,-0.104412
1.008297,0.08366064,-0.1017527
1.011694,0.08048317,-0.1046754
1.017486,0.0796133,-0.1081875
1.020558,0.08395698,-0.1157782
1.019872,0.08637717,-0.1189634
1.017254,0.08740692,-0.1165083
1.016137,0.08540251,-0.1159317
1.014115,0.08039049,-0.1117326
1.012946,0.08100735,-0.1096287
1.014405,0.08044527,-0.1109459
1.012878,0.07700034,-0.1115215
1.012227,0.07628567,-0.1151004
1.014714,0.07653882,-0.11448
1.015611,0.08037676,-0.1126006
1.015175,0.08228586,-0.1143061
1.013174,0.07733977,-0.1110073
1.012145,0.07341226,-0.1083035
1.013836,0.07419113,-0.1091708
1.015967,0.07381794,-0.1083305
1.017377,0.06838163,-0.1090121
1.016581,0.06677574,-0.1100387
1.016191,0.06946178,-0.108308
1.016308,0.07040079,-0.1051805
1.015492,0.07316273,-0.1033383
1.015992,0.07390518,-0.1041346
1.01505,0.0737694,-0.1045181
1.012918,0.07603217,-0.1039479
1.012736,0.07517757,-0.1037934
1.014022,0.07634172,-0.1025154
1.016014,0.07875738,-0.1014525
1.015574,0.07666506,-0.1049256
1.014599,0.07582066,-0.1094347
1.01573,0.07680977,-0.1087199
1.015267,0.07694638,-0.1074068
1.014965,0.07635722,-0.107715
1.015664,0.07548114,-0.105759
1.015032,0.07628667,-0.1049232
1.015297,0.07694232,-0.1059478
1.015625,0.07605963,-0.1062068
1.015929,0.07630612,-0.1089861
1.017493,0.07741742,-0.111859
1.018485,0.07968447,-0.1087255
1.019191,0.08221923,-0.1060411
1.017223,0.07768069,-0.1106577
1.013927,0.07078424,-0.11429
1.015153,0.07246375,-0.1120601
1.016063,0.07671641,-0.1110136
1.014826,0.07823563,-0.1114583
1.016674,0.07836612,-0.1105754
1.018979,0.07713332,-0.110312
1.019711,0.07787308,-0.10945
1.01973,0.07873456,-0.1078987
1.018533,0.07935071,-0.105628
1.01688,0.0804491,-0.1021927
1.014646,0.07727469,-0.102606
1.014635,0.07618361,-0.1063431
1.016159,0.07660901,-0.111061
1.014899,0.07038929,-0.1144875
1.015037,0.06919188,-0.107773
1.015847,0.07735418,-0.09909919
1.014584,0.08270331,-0.101015
1.014598,0.08099659,-0.102422
1.013566,0.07822885,-0.0997719
1.012722,0.0799231,-0.1012097
1.0137,0.08125525,-0.1041605
1.013895,0.08083841,-0.1072453
1.015084,0.07841359,-0.1092286
1.01551,0.07292809,-0.1065828
1.015101,0.0746157,-0.103079
1.015484,0.07776874,-0.1023775
1.015078,0.07638717,-0.1043051
1.01537,0.07940557,-0.1050835
1.015171,0.08021289,-0.1032562
1.01418,0.07988049,-0.1032943
1.014035,0.08229953,-0.1028459
1.014683,0.07982973,-0.1015234
1.016689,0.07814119,-0.1034494
1.016506,0.07803826,-0.1045554
1.013667,0.07670984,-0.1040318
1.011871,0.07650074,-0.1032767
1.012466,0.07514327,-0.1035377
1.014706,0.07818648,-0.1092098
1.014719,0.08340752,-0.1142946
1.013399,0.08194989,-0.1119798
1.012937,0.07959792,-0.1080102
1.012625,0.07781957,-0.1061142
1.014262,0.07577512,-0.1019541
1.015748,0.07747142,-0.09782039
1.014504,0.07800397,-0.09784027
1.013102,0.07747807,-0.09945179
1.013019,0.07861122,-0.1032772
1.012576,0.07638194,-0.103205
1.012397,0.07584348,-0.0978185
1.014622,0.07814502,-0.0970313
1.015848,0.07746338,-0.09822377
1.015182,0.07796733,-0.1007044
1.015233,0.0779597,-0.1025505
1.015433,0.07726082,-0.1002681
1.016251,0.07871524,-0.09983889
1.017081,0.07921482,-0.09846167
1.0176,0.08089359,-0.09896012
1.017915,0.07969862,-0.1023414
1.01614,0.0753025,-0.1020215
1.013762,0.07504538,-0.103193
1.013407,0.07658967,-0.1046007
1.014586,0.07814681,-0.1066568
1.015323,0.07636487,-0.1106688
1.014999,0.07360618,-0.1099001
1.012953,0.07578606,-0.1084932
1.011428,0.07707642,-0.1058662
1.013002,0.07778723,-0.09928644
1.012743,0.0784368,-0.09783642
1.011872,0.07714743,-0.1026622
1.013241,0.07797225,-0.1041509
1.013531,0.0780144,-0.09695939
1.015791,0.07681098,-0.09099904
1.01699,0.07493147,-0.09679944
1.012701,0.06995803,-0.1039422
1.010481,0.06858879,-0.1022922
1.013599,0.07264154,-0.09792793
1.016715,0.077318,-0.09309375
1.015859,0.0802862,-0.09142417
1.017104,0.07859031,-0.100693
1.021048,0.07662821,-0.1099243
1.019328,0.07820157,-0.1081487
1.017126,0.07822206,-0.1020039
1.015934,0.07814814,-0.09858713
1.012795,0.07982824,-0.1002471
1.014538,0.07883467,-0.1038407
1.016278,0.07698752,-0.1059799
1.013761,0.07606178,-0.1059361
1.013795,0.07508282,-0.1035554
1.015194,0.07511564,-0.1035554
1.016277,0.0745052,-0.1051653
1.016988,0.07366836,-0.1043502
1.015607,0.07463251,-0.1040198
1.014897,0.07688224,-0.1035288
1.015379,0.07815464,-0.102537
1.015316,0.07782942,-0.102377
1.015246,0.0805703,-0.1007788
1.015439,0.08261974,-0.1019891
1.016207,0.07862151,-0.1066214
1.016926,0.0749789,-0.1090513
1.016748,0.07440858,-0.1090479
1.016512,0.0752005,-0.1075834
1.016717,0.07525118,-0.1076012
1.016733,0.07457613,-0.1052689
1.016383,0.07531002,-0.09963119
1.015835,0.07459369,-0.09932526
1.015021,0.07301743,-0.09964477
1.015452,0.07270731,-0.101568
1.017363,0.07529686,-0.1074895
1.018439,0.07942527,-0.1059085
1.018234,0.07786174,-0.1026963
1.017442,0.07596916,-0.1046706
1.016304,0.07805996,-0.1057211
1.014733,0.07861107,-0.1072628
1.013942,0.07961759,-0.1087647
1.014158,0.08055504,-0.1066174
1.013969,0.0811613,-0.1051024
1.015648,0.08273264,-0.108339
1.017699,0.08177474,-0.1111334
1.01759,0.08142998,-0.1104963
1.019001,0.08155033,-0.1109573
1.019729,0.07991478,-0.1103474
1.017214,0.08072802,-0.1045487
1.015363,0.08215812,-0.09982436
1.015651,0.08327404,-0.1026333
1.016248,0.08380298,-0.1057863
1.01515,0.08084545,-0.1026694
1.014609,0.07862512,-0.1009669
1.015051,0.07778483,-0.1018955
1.014355,0.07672156,-0.1018676
1.015273,0.07647659,-0.1059257
1.015544,0.07472812,-0.1099725
1.012931,0.07554595,-0.1091583
1.012102,0.0793651,-0.1112002
1.01252,0.07920956,-0.1143224
1.012533,0.07772755,-0.1090215
1.012592,0.07596533,-0.1026071
1.012866,0.07439962,-0.1050203
1.015297,0.0771972,-0.1070851
1.016788,0.07947921,-0.1064742
1.013275,0.07925023,-0.1095573
1.009935,0.07952779,-0.110149
1.012644,0.08081227,-0.1095228
1.015421,0.08264802,-0.1110411
1.013597,0.0821005,-0.1113505
1.014372,0.08180412,-0.1131812
1.016251,0.08375578,-0.1139989
1.014514,0.08319903,-0.1111593
1.013234,0.08042488,-0.1061488
1.011551,0.07895613,-0.1027418
1.011192,0.07924908,-0.106606
1.013296,0.07939074,-0.1111006
1.012546,0.08004904,-0.1121152
1.012398,0.08230278,-0.1121221
1.014719,0.08398625,-0.1102236
1.015628,0.08494958,-0.1094999
1.01545,0.08410551,-0.110044
1.014853,0.08258414,-0.1110677
1.014592,0.08367699,-0.111513
1.014695,0.08465613,-0.1087847
1.0152,0.08571259,-0.1084493
1.015385,0.08762424,-0.1121655
1.01319,0.08761607,-0.1148781
1.01206,0.08758864,-0.1147415
1.013511,0.08937299,-0.1158862
1.014233,0.09352424,-0.1229297
1.013603,0.09721655,-0.125362
1.011872,0.09505121,-0.1153139
1.01068,0.09212892,-0.1058962
1.011165,0.09224163,-0.1065391
1.012564,0.09042019,-0.1095929
1.014554,0.08869392,-0.1097798
1.015768,0.08886087,-0.1127488
1.015451,0.08746546,-0.1154735
1.014922,0.08547556,-0.1145735
1.015418,0.08421767,-0.1149759
1.01543,0.08483408,-0.1138998
1.015342,0.08701825,-0.1150329
1.017297,0.08773792,-0.1182196
1.017838,0.08730835,-0.1161671
1.01456,0.08559463,-0.1151018
1.011225,0.08404613,-0.1110682
1.012065,0.08496857,-0.1049561
1.013518,0.08633894,-0.1095973
1.011891,0.08889494,-0.1151138
1.012402,0.09056776,-0.112778
1.013603,0.08679174,-0.1081463
1.014564,0.08312788,-0.1050263
1.017645,0.08497563,-0.108304
1.015962,0.08736427,-0.1133792
1.012974,0.08704552,-0.1111573
1.013346,0.08598689,-0.1096087
1.012317,0.08432991,-0.1116309
1.013139,0.08510513,-0.1099348
1.014656,0.08720191,-0.1112028
1.013967,0.08558613,-0.114058
1.015239,0.08489664,-0.1133698
1.015628,0.08558275,-0.1125333
1.013388,0.08679231,-0.1039575
1.013338,0.09011827,-0.09583051
1.014865,0.08922074,-0.102486
1.015516,0.08755404,-0.1105158
1.017296,0.08804712,-0.1099326
1.018543,0.08607168,-0.1073431
1.016627,0.08586562,-0.1063771
1.014882,0.08414165,-0.1052674
1.014655,0.08021854,-0.1063179
1.014701,0.08201856,-0.1109887
1.013802,0.08351745,-0.1134793
1.013305,0.08464149,-0.110702
1.0143,0.08898361,-0.1067454
1.012852,0.08806002,-0.1048138
1.011895,0.08624186,-0.1022761
1.013122,0.08833976,-0.1035726
1.013154,0.08743105,-0.1101774
1.0142,0.08701775,-0.1114899
1.014499,0.08864511,-0.1080724
1.015198,0.08978404,-0.1042276
1.017603,0.09253341,-0.1039521
1.016724,0.09204548,-0.1095267
1.016174,0.08979814,-0.111849
1.016913,0.09095817,-0.1090201
1.01525,0.09196354,-0.1052024
1.013169,0.09357065,-0.1057506
1.011984,0.09438005,-0.1106653
1.012557,0.09304566,-0.1129783
1.013758,0.0925424,-0.1160222
1.013386,0.08914944,-0.1177176
1.01132,0.08499799,-0.117417
1.009207,0.0838552,-0.1191456
1.011117,0.08221761,-0.1121445
1.013448,0.08125141,-0.1029376
1.010517,0.08156714,-0.106231
1.008652,0.08235974,-0.1116499
1.009236,0.08524224,-0.1134094
1.005348,0.08900485,-0.1185577
1.002764,0.09016967,-0.1234854
1.011026,0.08606124,-0.1246428
1.021893,0.0811503,-0.1328586
1.023397,0.08116385,-0.1470277
1.021464,0.0771225,-0.1520134
1.018506,0.05758536,-0.1502743
1.011569,0.03448281,-0.1512222
1.011771,0.02648245,-0.1525104
1.011244,0.02356226,-0.1476718
1.001447,0.01511186,-0.1403827
1.001355,0.01657353,-0.1390163
1.007474,0.02236223,-0.1416256
1.016766,0.0225408,-0.156491
1.034115,0.03046048,-0.1786725
1.033848,0.03252756,-0.1770165
1.019456,0.02999967,-0.1687089
1.013823,0.04018889,-0.1759691
1.010963,0.03890751,-0.1745157
1.012357,0.02593228,-0.1723255
1.016121,0.01064883,-0.1789017
1.019239,-0.00828521,-0.1785101
1.02697,-0.008808326,-0.1797297
1.026314,-0.0002104302,-0.1758472
1.0224,0.008393769,-0.1617554
1.023963,0.02525103,-0.1510966
1.016882,0.03383986,-0.1383771
1.008104,0.03574399,-0.1326983
1.002455,0.03891959,-0.135052
0.9989369,0.03719508,-0.1334381
1.008056,0.0300947,-0.138125
1.017499,0.0223371,-0.1388831
1.018437,0.0247465,-0.1323992
1.019619,0.03165904,-0.1291087
1.020616,0.03966961,-0.1062745
1.022652,0.05622962,-0.07341003
1.027169,0.06110703,-0.06994148
1.030998,0.05948648,-0.07071442
1.030394,0.07782815,-0.04759911
1.01651,0.09048167,-0.04107811
0.9991981,0.0867029,-0.05177124
1.004934,0.0897962,-0.04606878
1.01858,0.09841763,-0.04576163
1.016001,0.106911,-0.04791024
1.009779,0.1036765,-0.03587151
1.000274,0.08850153,-0.02968825
0.998458,0.08088121,-0.03075956
1.014807,0.07574064,-0.03889976
1.019936,0.07338215,-0.04764141
1.013547,0.08713288,-0.04950045
1.009439,0.1125244,-0.05862511
1.01007,0.129034,-0.0684641
1.014744,0.1255844,-0.07240759
1.013238,0.1183787,-0.07858747
1.016377,0.1085298,-0.08565902
1.017363,0.09976508,-0.08379503
1.009734,0.1050644,-0.07733393
1.006827,0.1047774,-0.07807373
0.9998473,0.09831655,-0.07486062
1.000759,0.09472822,-0.07575966
1.010084,0.0866318,-0.08713464
1.013637,0.08304303,-0.09106491
1.020476,0.08507464,-0.09542321
1.02232,0.08717069,-0.0995269
1.02339,0.08942146,-0.1027783
1.02749,0.09159386,-0.1098401
1.026607,0.09397166,-0.1079855
1.030064,0.0914636,-0.1025377
1.028315,0.08616875,-0.09467398
1.01819,0.07854143,-0.0885948
1.010782,0.06754111,-0.08477601
1.008016,0.06350398,-0.07363461
1.010879,0.06900208,-0.07755762
1.010201,0.07768033,-0.08699877
1.011654,0.08467822,-0.0867253
1.02058,0.0882872,-0.09556071
1.023229,0.08652857,-0.1019816
1.020736,0.08124959,-0.1043644
1.018304,0.07916447,-0.1066734
1.019159,0.07659641,-0.1036619
1.020589,0.07221539,-0.1047573
1.018044,0.07181185,-0.102399
1.017816,0.07422742,-0.1021283
1.015659,0.07585346,-0.1082261
1.014468,0.07484229,-0.108161
1.019087,0.07449096,-0.1089336
1.019838,0.07492203,-0.108264
1.019501,0.07479163,-0.1057817
1.019481,0.07710914,-0.100053
1.018878,0.07781714,-0.08772659
1.019127,0.07693243,-0.08651816
1.017346,0.0759873,-0.08738635
1.017663,0.07158155,-0.08320421
1.015712,0.06980257,-0.08777607
1.008759,0.0721738,-0.08971685
1.006598,0.07279111,-0.08468333
1.013552,0.07313306,-0.08277563
1.025851,0.07474091,-0.08575001
1.029419,0.07492196,-0.08996224
1.021425,0.0721958,-0.09238715
1.01549,0.06986861,-0.09774987
1.016749,0.0708994,-0.1002005
1.021143,0.07223249,-0.09485569
1.021864,0.07163863,-0.09305827
1.01704,0.06962947,-0.09266911
1.012184,0.06761382,-0.08824881
1.014011,0.06992884,-0.08741081
1.017202,0.07482242,-0.09208347
1.014603,0.07566395,-0.09577232
1.016118,0.07473733,-0.0929678
1.0198,0.07521723,-0.09090058
1.018204,0.0760457,-0.09670241
1.015436,0.0774275,-0.1003376
1.01101,0.0770669,-0.09702633
1.011598,0.07435007,-0.09095457
1.014381,0.07106235,-0.08691679
1.012811,0.06865087,-0.09293926
1.017087,0.07054466,-0.1005374
1.020593,0.07483675,-0.09736541
1.018888,0.07752847,-0.09559198
1.019528,0.07923157,-0.09960216
1.018511,0.07946632,-0.09858584
1.016907,0.07873485,-0.09765274
1.014679,0.07837016,-0.09747877
1.011642,0.07719562,-0.09393791
1.014353,0.07575785,-0.09537831
1.01833,0.07496947,-0.09850266
1.01842,0.07568233,-0.09870281
1.017798,0.07828278,-0.09897205
1.018115,0.08027845,-0.09837665
1.018131,0.0825109,-0.09962052
1.017925,0.0843284,-0.1005134
1.017996,0.08325556,-0.09985169
1.017104,0.08391384,-0.1019715
1.016196,0.08546803,-0.1060461
1.01575,0.08449747,-0.1092392
1.015104,0.08441482,-0.1057644
1.01516,0.08406387,-0.100413
1.015048,0.08287359,-0.1012801
1.013483,0.08313711,-0.1012332
1.012237,0.08264372,-0.0986938
1.014138,0.0815246,-0.09773788
1.016244,0.08132105,-0.09707035
1.015037,0.07953553,-0.09596437
1.013442,0.07679087,-0.09301989
1.011313,0.07707713,-0.08694433
1.010102,0.07676682,-0.08339078
1.016651,0.07451974,-0.09050476
1.022836,0.07742511,-0.09824575
1.016731,0.0807746,-0.09813906
1.011061,0.07958762,-0.1021503
1.015562,0.08225655,-0.1065538
1.017791,0.08602289,-0.1048684
1.017616,0.08271954,-0.1040983
1.020507,0.07875345,-0.1009041
1.019137,0.07901715,-0.09840106
1.015752,0.0796819,-0.09999041
1.01429,0.08117129,-0.09664284
1.013032,0.08439887,-0.09258071
1.014401,0.08487858,-0.09359662
1.015275,0.0818209,-0.09455257
1.016001,0.07980028,-0.09827224
1.018278,0.0812916,-0.1060244
1.017164,0.08278527,-0.1071668
1.016208,0.08115646,-0.1036952
1.016884,0.07901773,-0.1028606
1.0167,0.07736524,-0.09921415
1.017696,0.0771696,-0.09687497
1.018252,0.07846076,-0.09829165
1.017582,0.0776043,-0.09512059
1.015155,0.07743858,-0.0939893
1.012241,0.07866571,-0.09863624
1.013015,0.079357,-0.1002826
1.014502,0.0820637,-0.09668391
1.014109,0.08193796,-0.09364442
1.014648,0.0777074,-0.09870494
1.016644,0.07577979,-0.1042184
1.017095,0.07708184,-0.1022667
1.016704,0.07952446,-0.1012032
1.018572,0.0797794,-0.1003109
1.020034,0.08048722,-0.09900115
1.019522,0.08219886,-0.1016587
1.018119,0.07838086,-0.1008753
1.014162,0.07481277,-0.09633882
1.010329,0.07768459,-0.09414006
1.014007,0.08323442,-0.0963205
1.020026,0.08760797,-0.1004176
1.017818,0.0863097,-0.09817972
1.015132,0.08225018,-0.09437268
1.015831,0.0815843,-0.09300474
1.01458,0.08215557,-0.08979676
1.0155,0.08279249,-0.08910447
1.015673,0.08376769,-0.08751616
1.01456,0.08310457,-0.08737527
1.015895,0.08225158,-0.09504604
1.015048,0.08191408,-0.09823952
1.015254,0.08202211,-0.09471011
1.016823,0.0839888,-0.09267796
1.017335,0.08523118,-0.09778693
1.018747,0.08476025,-0.1061776
1.017569,0.08456283,-0.1062913
1.015944,0.08384092,-0.1047738
1.015219,0.08003122,-0.104717
1.014674,0.07448879,-0.1010424
1.015497,0.07430521,-0.09726238
1.013363,0.07807458,-0.09374437
1.011999,0.08019465,-0.09444815
1.01457,0.08284378,-0.09812437
1.015839,0.08393661,-0.09975436
1.015605,0.0821129,-0.100753
1.015979,0.08164042,-0.09965064
1.017983,0.08199917,-0.1008446
1.018253,0.08200601,-0.1059071
1.01564,0.08192416,-0.1089166
1.014035,0.08187964,-0.1065471
1.013444,0.08204817,-0.1021669
1.014005,0.08187078,-0.1032789
1.013954,0.08194721,-0.1007419
1.012619,0.08183033,-0.09370401
1.012503,0.08042175,-0.09559639
1.012517,0.07750267,-0.09771406
1.013449,0.07453983,-0.09838009
1.014851,0.07476895,-0.1029309
1.01658,0.07672687,-0.1019071
1.019792,0.0784161,-0.1003507
1.020065,0.08065189,-0.1029286
1.018511,0.08084824,-0.1020497
1.017673,0.07927593,-0.1002968
1.015342,0.07883768,-0.09835648
1.014578,0.07807757,-0.09372643
1.015737,0.07664546,-0.09205384
1.01525,0.07658932,-0.09429073
1.015033,0.07924486,-0.09499228
1.015197,0.08246358,-0.09381276
1.013349,0.08272794,-0.09352058
1.012815,0.08323647,-0.09575751
1.016902,0.08458316,-0.09960553
1.020877,0.08054131,-0.09926966
1.018988,0.07580345,-0.09560712
1.01665,0.07814802,-0.0956384
1.01844,0.08152276,-0.09649485
1.017487,0.08197236,-0.09685052
1.0155,0.08164756,-0.09684801
1.015901,0.07816733,-0.09071632
1.013056,0.07488987,-0.08549035
1.010645,0.07569902,-0.08588112
1.011211,0.07610266,-0.08551205
1.011212,0.07673295,-0.08856838
1.012255,0.07963039,-0.09412679
1.013482,0.08366449,-0.09473365
1.013287,0.09089006,-0.09541793
1.012278,0.09834763,-0.09695418
1.013206,0.09724004,-0.09595072
1.018306,0.08852483,-0.09913259
1.022286,0.08309761,-0.1025296
1.020457,0.08301918,-0.09739025
1.015411,0.08194849,-0.09251644
1.012867,0.08015607,-0.09121729
1.013907,0.08196925,-0.08992852
1.015172,0.0845954,-0.09180149
1.015485,0.08318591,-0.09440188
1.015164,0.08255245,-0.09716025
1.015296,0.08316091,-0.1014066
1.015356,0.08126523,-0.100455
1.015127,0.08180559,-0.09557386
1.015796,0.08232722,-0.09111095
1.016968,0.08103552,-0.08620473
1.018587,0.08289893,-0.08900339
1.018031,0.08365716,-0.09523363
1.016217,0.08117016,-0.09373799
1.017768,0.07843658,-0.09382146
1.020058,0.07651591,-0.09249898
1.019924,0.07611114,-0.08928411
1.018922,0.0778368,-0.09322974
1.018755,0.08107445,-0.09219328
1.016263,0.0825305,-0.09185401
1.012704,0.08230256,-0.09589856
1.015459,0.08272657,-0.09275285
1.017983,0.08465347,-0.09380671
1.015063,0.08630734,-0.09768225
1.013888,0.08540718,-0.1010917
1.01397,0.08321001,-0.106909
1.013832,0.07941711,-0.1043956
1.015165,0.07853838,-0.1030652
1.016561,0.08297471,-0.1074904
1.01787,0.08580998,-0.1072387
1.018353,0.0866564,-0.1039086
1.017775,0.08563629,-0.1006564
1.017139,0.08240651,-0.1013476
1.016442,0.07894382,-0.09990657
1.016532,0.07642243,-0.09536733
1.016881,0.07813699,-0.09417538
1.016564,0.08004176,-0.09071736
1.016451,0.08257167,-0.09168165
1.015703,0.08816466,-0.09438501
1.013661,0.08685294,-0.08879828
1.011755,0.07948007,-0.08524722
1.011055,0.07487855,-0.08349904
1.013081,0.07651519,-0.08378743
1.016554,0.08044564,-0.08852982
1.017089,0.07915176,-0.09247937
1.015493,0.07941853,-0.09761664
1.015352,0.08194628,-0.0971019
1.017068,0.08068993,-0.08844107
1.018721,0.08125616,-0.07895673
1.018378,0.07979494,-0.07422614
1.018497,0.07429817,-0.08019758
1.020022,0.07133483,-0.08385978
1.019544,0.07136054,-0.07829815
1.018856,0.07372354,-0.07688617
1.018895,0.07517166,-0.08010883
1.017679,0.07826362,-0.0852204
1.017834,0.08097702,-0.09094532
1.018298,0.07817891,-0.09120275
1.016699,0.07937877,-0.08912677
1.015536,0.08181499,-0.08862972
1.015587,0.08098719,-0.08906337
1.018205,0.08008279,-0.09582653
1.022309,0.07666279,-0.1038228
1.022724,0.07815872,-0.09769897
1.020932,0.0807456,-0.08887459
1.020759,0.0782093,-0.08965042
1.021772,0.07947543,-0.08755536
1.022211,0.08068029,-0.08851744
1.020478,0.08108517,-0.09647224
1.018338,0.08284453,-0.0974032
1.017411,0.08106784,-0.09471853
1.015633,0.07839152,-0.08884529
1.014857,0.07378381,-0.08163862
1.017396,0.07113403,-0.081953
1.019132,0.07622818,-0.08403917
1.019665,0.07935066,-0.08709685
1.02127,0.07720632,-0.08857169
1.021,0.07569973,-0.08634268
1.019463,0.07574891,-0.08606349
1.019031,0.07676434,-0.08406024
1.017628,0.07846823,-0.08343559
1.016472,0.07956948,-0.0855717
1.018318,0.07944854,-0.08782027
1.019948,0.07967903,-0.09148387
1.017549,0.07947183,-0.08761115
1.014737,0.07637215,-0.07930619
1.015168,0.07379331,-0.07574776
1.01554,0.07590093,-0.07583993
1.015244,0.08007501,-0.07920186
1.016273,0.08277257,-0.08056797
1.01712,0.0824427,-0.08040446
1.017777,0.08022544,-0.08014013
1.018926,0.0804383,-0.07490112
1.018959,0.08093679,-0.06883862
1.017759,0.08027268,-0.06682139
1.017733,0.08157445,-0.06930013
1.018651,0.08132167,-0.071716
1.01843,0.07993761,-0.07322676
1.018153,0.07973756,-0.08014638
1.017941,0.07889011,-0.08568158
1.017893,0.07946325,-0.08436271
1.018912,0.08112348,-0.08081889
1.020341,0.08233728,-0.07837687
1.022463,0.08209175,-0.08078818
1.022041,0.080555,-0.08189435
1.018985,0.08053409,-0.07543568
1.017689,0.08053188,-0.06999626
1.017423,0.08047637,-0.07182452
1.017571,0.08093162,-0.07356643
1.016509,0.0812339,-0.07139122
1.017273,0.08233626,-0.07247528
1.023699,0.08207884,-0.07578449
1.027392,0.08159032,-0.08016143
1.023381,0.08152027,-0.08448935
1.016031,0.0782672,-0.07776247
1.013901,0.07594698,-0.06903386
1.017614,0.07968368,-0.06967337
1.020793,0.08372174,-0.06978184
1.024985,0.08204979,-0.06891292
1.026095,0.08039761,-0.06947299
1.022889,0.0800958,-0.06753358
1.019067,0.07678691,-0.06604214
1.013654,0.0775974,-0.06661329
1.015819,0.08168019,-0.06676579
1.022316,0.0818283,-0.0652791
1.021906,0.08118778,-0.06313797
1.01942,0.07913013,-0.06185974
1.015904,0.07753786,-0.06073064
1.013015,0.07816799,-0.05726047
1.013189,0.07753814,-0.05240443
1.014674,0.07879466,-0.05208523
1.01855,0.07898401,-0.05497802
1.01805,0.07504411,-0.05632184
1.014843,0.07203573,-0.0569401
1.015476,0.07302932,-0.05632757
1.013568,0.07831217,-0.05780204
1.013033,0.08124034,-0.06134275
1.01495,0.08052778,-0.06079758
1.013307,0.080579,-0.05960019
1.013297,0.08075348,-0.05985762
1.011694,0.08249401,-0.06136264
1.008328,0.0831766,-0.06354379
1.010152,0.07976904,-0.06280164
1.012221,0.07728562,-0.06518813
1.013453,0.08087713,-0.06982689
1.014568,0.08649887,-0.07108725
1.013628,0.08857953,-0.07569768
1.013753,0.0922757,-0.0819
1.01524,0.0933761,-0.08291087
1.019041,0.08920326,-0.08658752
1.023908,0.08857639,-0.097854
1.02348,0.08577642,-0.1012704
1.023527,0.08443508,-0.094015
1.027738,0.08683403,-0.08998657
1.025509,0.08007848,-0.08657325
1.020499,0.07521524,-0.08493798
1.019659,0.07638011,-0.08282146
1.01712,0.07371535,-0.07341994
1.015998,0.07299306,-0.07145204
1.017442,0.07496199,-0.07267457
1.018185,0.07916811,-0.0715149
1.020143,0.08443957,-0.07683386
1.019312,0.08413434,-0.07574395
1.016871,0.08259868,-0.07307859
1.015739,0.08443156,-0.07659609
1.014402,0.0853928,-0.07483617
1.014621,0.08431472,-0.07627646
1.014209,0.08438825,-0.07935159
1.015126,0.08302352,-0.07775184
1.01744,0.08013467,-0.08141589
1.014834,0.0800026,-0.08453919
1.012992,0.07916351,-0.08245263
1.015106,0.07783047,-0.08069204
1.015886,0.07858341,-0.07929902
1.01604,0.07901583,-0.07814713
1.016845,0.07990684,-0.081779
1.016721,0.08163457,-0.09148015
1.01517,0.08330109,-0.09493982
1.013259,0.08479615,-0.08990563
1.012533,0.08356184,-0.08570967
1.015147,0.0807574,-0.08306005
1.018823,0.0818007,-0.08416943
1.018226,0.08262537,-0.08727732
1.016566,0.07956373,-0.08769753
1.016778,0.07695628,-0.08578124
1.016675,0.07462787,-0.08111108
1.017785,0.07689471,-0.07803659
1.019351,0.08051906,-0.07977958
1.019606,0.07503832,-0.08156504
1.019524,0.0708716,-0.08052032
1.019278,0.07286562,-0.08170873
1.019522,0.07463847,-0.08639866
1.019511,0.07830992,-0.08835295
1.018753,0.08182473,-0.08801823
1.016737,0.08447375,-0.08855368
1.013495,0.08820759,-0.08906344
1.013265,0.09004217,-0.0875063
1.014511,0.0895133,-0.08627729
1.013488,0.08622253,-0.08743459
1.012857,0.08002075,-0.08582309
1.012513,0.07744809,-0.08553098
1.012517,0.07946154,-0.08802761
1.014577,0.07770079,-0.08679879
1.015782,0.07516392,-0.08579012
1.015316,0.07688779,-0.08396168
1.015105,0.07752874,-0.07999977
1.015138,0.07749997,-0.07444678
1.01449,0.07689314,-0.06884895
1.014021,0.07438072,-0.07552097
1.016689,0.0750109,-0.08639269
1.020214,0.07810492,-0.08877601
1.020704,0.07928797,-0.08907304
1.020663,0.07939578,-0.08926749
1.020751,0.08102006,-0.09146333
1.018928,0.08258232,-0.09439586
1.017612,0.08196741,-0.09451738
1.018898,0.08114988,-0.08982258
1.019478,0.07943963,-0.08162994
1.016323,0.07747458,-0.08378792
1.012461,0.08043054,-0.08692259
1.01275,0.08558725,-0.08158977
1.017295,0.08706122,-0.08402854
1.020853,0.08747559,-0.08625074
1.019425,0.08799654,-0.08444936
1.016417,0.08708853,-0.08970131
1.014811,0.08788012,-0.0939615
1.013451,0.08959744,-0.09648009
1.014503,0.09095426,-0.1006519
1.016198,0.09343821,-0.1023569
1.014946,0.09482461,-0.1010244
1.015244,0.09406757,-0.09884612
1.016623,0.09042834,-0.09699721
1.016186,0.08657173,-0.09302044
1.015161,0.08543471,-0.08972527
1.012315,0.08138295,-0.08653131
1.009078,0.0755988,-0.07984037
1.006307,0.0745875,-0.07661004
1.00661,0.07549397,-0.0786694
1.011636,0.07497094,-0.08224984
1.012993,0.07570872,-0.08797122
1.010541,0.07704035,-0.09510029
1.010123,0.0770936,-0.09845789
1.013947,0.08068903,-0.09564859
1.019586,0.08500416,-0.093158
1.01787,0.08377196,-0.09456494
1.013282,0.08332932,-0.09540599
1.012303,0.08551963,-0.09564832
1.012363,0.08525972,-0.09790478
1.015721,0.08661697,-0.09827678
1.017598,0.0920711,-0.09900219
1.016359,0.09413573,-0.1025971
1.016561,0.09188463,-0.1008287
1.0157,0.09115625,-0.09865206
1.0147,0.09178801,-0.100773
1.013449,0.09183505,-0.09885794
1.011957,0.09148802,-0.09392116
1.012631,0.09114896,-0.08871329
1.013557,0.08913256,-0.08770914
1.014311,0.08647877,-0.0922041
1.014815,0.08731753,-0.09385759
1.015387,0.0881188,-0.09368749
1.015555,0.08707355,-0.09058161
1.014949,0.08755378,-0.08594228
1.015433,0.08716035,-0.09016277
1.014978,0.08458126,-0.09459245
1.013658,0.08283185,-0.09264439
1.01395,0.08390414,-0.09354919
1.015647,0.08552974,-0.09703307
1.016838,0.08462814,-0.09938549
1.016196,0.08468203,-0.09935241
1.015716,0.08696251,-0.09869254
1.014508,0.08782685,-0.09969074
1.013994,0.08781679,-0.09573264
1.015985,0.08823509,-0.09023734
1.01541,0.08891725,-0.09299194
1.014564,0.08815927,-0.09776433
1.014706,0.08537038,-0.09741637
1.012307,0.08321647,-0.09002511
1.011181,0.08156672,-0.08147513
1.011701,0.08281815,-0.08469294
1.013524,0.08707754,-0.09278103
1.016351,0.08823566,-0.09819656
1.01551,0.08832265,-0.1055077
1.014386,0.0891367,-0.1055368
1.014876,0.08904469,-0.1022321
1.013922,0.08981186,-0.1052996
1.015671,0.09012139,-0.1036779
1.019519,0.08863128,-0.1004267
1.019918,0.08610446,-0.09901462
1.018663,0.08329428,-0.09531554
1.016629,0.07970578,-0.09504848
1.01358,0.0775809,-0.09408163
1.013295,0.0792637,-0.09278761
1.014576,0.07943171,-0.09245587
1.01503,0.07949915,-0.0888025
1.01715,0.08124445,-0.08930729
1.018604,0.08173802,-0.09274039
1.01613,0.08380158,-0.09532058
1.01405,0.08210949,-0.09571798
1.014,0.07903292,-0.09273494
1.013987,0.08264321,-0.09416321
1.015888,0.08532201,-0.09649235
1.018684,0.08726083,-0.09581892
1.019513,0.08854458,-0.09418396
1.018893,0.08615542,-0.09095997
1.017544,0.08484015,-0.09154784
1.017811,0.08158778,-0.09476074
1.018621,0.07919362,-0.09604364
1.018196,0.08051254,-0.09573308
1.020746,0.08028087,-0.09568777
1.022451,0.0804516,-0.09586335
1.017683,0.07890284,-0.09365285
1.013561,0.07676197,-0.09230101
1.015543,0.07771729,-0.09106906
1.018959,0.07542083,-0.08721917
1.019664,0.07060888,-0.08096546
1.019454,0.06945166,-0.07675227
1.018338,0.07480896,-0.085394
1.016613,0.08101409,-0.0961131
1.016662,0.07994352,-0.095209
1.016572,0.07999352,-0.09260509
1.016487,0.08433523,-0.09022856
1.015786,0.08443266,-0.08529004
1.013813,0.08360809,-0.08666153
1.014466,0.08452271,-0.09529206
1.017502,0.08457064,-0.09981346
1.019964,0.0849799,-0.09471485
1.017138,0.08435416,-0.08946881
1.012362,0.08267651,-0.09333157
1.012983,0.08173028,-0.09543943
1.013561,0.08153597,-0.08800045
1.015506,0.08268606,-0.08505288
1.020425,0.08373553,-0.0898937
1.01877,0.08492502,-0.09290695
1.015024,0.08535198,-0.09112205
1.01522,0.08442159,-0.08981483
1.015222,0.08667944,-0.09586522
1.015112,0.08802402,-0.1024909
1.014504,0.08537321,-0.1063821
1.013424,0.08402372,-0.1085076
1.01411,0.08332983,-0.1010684
1.014957,0.0815908,-0.09031913
1.015543,0.07982755,-0.08665268
1.016379,0.08049255,-0.08738324
1.016722,0.0823113,-0.08742474
1.016831,0.08258848,-0.08814267
1.01656,0.0837908,-0.09126066
1.016605,0.08354679,-0.09111408
1.017012,0.08293452,-0.09187334
1.017409,0.08474949,-0.09828482
1.018021,0.08478306,-0.1025383
1.01626,0.08469677,-0.1029658
1.013325,0.08486042,-0.100151
1.012734,0.08463294,-0.0944372
1.012515,0.0858947,-0.09052834
1.012265,0.08623138,-0.08978753
1.012699,0.08510882,-0.09071684
1.012461,0.08073879,-0.09181664
1.012407,0.07706224,-0.092074
1.012988,0.08273454,-0.09141442
1.0142,0.08898782,-0.0918846
1.015833,0.08706889,-0.0943404
1.015544,0.08603776,-0.09774709
1.014787,0.08692759,-0.101112
1.015539,0.08379804,-0.1002437
1.015522,0.08419233,-0.09757199
1.016272,0.0868933,-0.09877696
1.018976,0.08551435,-0.09994991
1.019092,0.08557878,-0.09829955
1.014577,0.08289578,-0.09165383
1.009189,0.07878389,-0.0822188
1.009792,0.08093588,-0.08242804
1.015982,0.08235232,-0.08983704
1.018916,0.08345429,-0.09316477
1.015531,0.08529398,-0.09443885
1.011427,0.08289566,-0.09479974
1.013755,0.08157119,-0.09403422
1.021406,0.0847074,-0.09471402
1.026089,0.08728153,-0.09443042
1.022333,0.08559299,-0.09421986
1.015927,0.08283852,-0.09477727
1.017749,0.08199554,-0.09416926
1.019937,0.08325632,-0.0950791
1.018443,0.08573274,-0.09740309
1.021533,0.08491471,-0.1008016
1.019341,0.08412323,-0.1044242
1.014343,0.08644547,-0.1050629
1.015655,0.08745175,-0.1009365
1.015077,0.08941462,-0.09316821
1.014811,0.09009623,-0.09099735
1.013576,0.08464778,-0.09134567
1.009934,0.08037007,-0.08411246
1.01123,0.08258756,-0.08029289
1.013064,0.08593994,-0.08565249
1.012954,0.0863637,-0.09145408
1.013424,0.08766089,-0.09527341
1.016413,0.08795205,-0.0992776
1.020414,0.08484788,-0.1027324
1.02138,0.08447433,-0.1017562
1.021954,0.08502597,-0.100081
1.021874,0.085545,-0.09967309
1.020279,0.08766242,-0.09502309
1.018204,0.08683837,-0.09141677
1.017033,0.0839064,-0.09255279
1.017586,0.08095805,-0.0932767
1.015454,0.08073554,-0.09265672
1.014495,0.08022458,-0.09007131
1.015937,0.07543338,-0.08711274
1.014959,0.07620009,-0.08710679
1.014908,0.08039266,-0.08747333
1.013374,0.08148014,-0.08567644
1.009841,0.08272072,-0.08438824
1.009782,0.08154562,-0.08679454
1.012452,0.07976336,-0.09021706
1.014734,0.07646971,-0.0903948
1.013165,0.07162852,-0.0883303
1.012269,0.07414638,-0.08777736
1.016483,0.07940333,-0.09220592
1.019417,0.08465975,-0.09852608
1.019074,0.09110875,-0.1007264
1.019507,0.09383347,-0.1017217
1.021633,0.09725744,-0.1037918
1.022518,0.09541635,-0.1033856
1.020749,0.08467583,-0.09895301
1.01781,0.08044072,-0.09103485
1.015573,0.07789348,-0.08547593
1.015696,0.07315176,-0.08326976
1.015525,0.07596662,-0.07973226
1.014752,0.07733545,-0.08159463
1.015592,0.07441346,-0.0864027
1.015326,0.0731518,-0.08550051
1.014992,0.0716513,-0.08662132
1.015588,0.07205646,-0.08791387
1.015102,0.0728496,-0.08674033
1.015091,0.07277373,-0.09137108
1.014707,0.07416855,-0.09384865
1.014323,0.07468332,-0.08773385
1.015583,0.07493037,-0.08167123
1.01537,0.07549554,-0.08132848
1.014025,0.0758573,-0.0847325
1.014139,0.07753918,-0.08701066
1.015618,0.07850235,-0.08792947
1.017271,0.07857821,-0.08769254
1.016905,0.08029807,-0.08703822
1.016347,0.08112516,-0.08782509
1.01784,0.08026556,-0.08801823
1.018387,0.08054488,-0.08994596
1.01772,0.08089543,-0.09297833
1.01686,0.08127876,-0.09229284
1.01459,0.08231786,-0.09079903
1.013225,0.08150149,-0.08935762
1.013931,0.07900745,-0.08794488
1.014306,0.0776722,-0.08860504
1.01461,0.08011151,-0.08978977
1.015722,0.0833081,-0.09299348
1.016401,0.08241454,-0.09595658
1.016612,0.08292269,-0.09404205
1.016913,0.08592589,-0.09327845
1.016378,0.08479418,-0.09477166
1.015654,0.08365162,-0.09357035
1.015243,0.08359215,-0.09298726
1.01516,0.08114826,-0.09468082
1.016418,0.08175522,-0.09612939
1.016772,0.08379418,-0.09653267
1.01565,0.08395144,-0.09626251
1.015079,0.08519421,-0.09471347
1.015099,0.08488219,-0.09219688
1.015523,0.08423856,-0.0931129
1.015213,0.08479437,-0.09515522
1.015126,0.08312695,-0.09448199
1.015709,0.08307923,-0.09514994
1.016324,0.085668,-0.09894932
1.018784,0.08688392,-0.1031768
1.020192,0.08756626,-0.1036896
1.01873,0.0876643,-0.1035636
1.016632,0.08638449,-0.1050924
1.014603,0.08577033,-0.1027041
1.015452,0.08640465,-0.09867424
1.018551,0.08704216,-0.09559157
1.020163,0.08732022,-0.09500098
1.020195,0.08556046,-0.09519242
1.018625,0.08211453,-0.09084189
1.015901,0.08130885,-0.09084497
1.013964,0.08239378,-0.09303039
1.01265,0.08287047,-0.09064151
1.011221,0.08349245,-0.09246424
1.013098,0.08368031,-0.09479884
1.01682,0.08402763,-0.09583977
1.014744,0.08452424,-0.09725542
1.010677,0.08221163,-0.09662258
1.009509,0.07978493,-0.09920009
1.009046,0.08218376,-0.09687992
1.010218,0.08455471,-0.08759803
1.010263,0.08288527,-0.08310405
1.010845,0.08206773,-0.08377416
1.013883,0.08180032,-0.08604376
1.013332,0.07959997,-0.08448755
1.013367,0.07757248,-0.08383579
1.013459,0.07558748,-0.08614115
1.00978,0.07468443,-0.0862401
1.009616,0.0759355,-0.09353055
1.012642,0.07677368,-0.1001867
1.01737,0.07732916,-0.09765895
1.021194,0.08170189,-0.1001279
1.019378,0.09018565,-0.1053921
1.018717,0.09353876,-0.1046307
1.020248,0.08876889,-0.1021242
1.020154,0.08456237,-0.1007371
1.020942,0.08104955,-0.09510539
1.021207,0.07551235,-0.08915796
1.020274,0.07217284,-0.08981607
1.01952,0.07177664,-0.08389133
1.016635,0.07305641,-0.07465534
1.014466,0.07651051,-0.08036135
1.017129,0.08131278,-0.08919165
1.018918,0.08312727,-0.09018871
1.016917,0.08058392,-0.090702
1.016138,0.07974768,-0.08489211
1.016339,0.07928246,-0.07413615
1.014053,0.07421409,-0.07351279
1.012249,0.07087846,-0.07503904
1.016196,0.07316975,-0.07417259
1.02157,0.0758437,-0.07754914
1.020531,0.07659361,-0.07694008
1.015705,0.07719248,-0.07675583
1.013186,0.0766437,-0.08235508
1.015188,0.07636813,-0.08661844
1.018031,0.08038424,-0.09120991
1.016053,0.08283335,-0.09195972
1.01325,0.07916919,-0.08657045
1.012815,0.07384087,-0.08378912
1.014166,0.07100048,-0.08652133
1.019311,0.07321557,-0.09064747
1.022423,0.07551475,-0.09068198
1.021548,0.07550112,-0.08961647
1.019932,0.07880168,-0.08976662
1.016945,0.08263238,-0.08841735
1.017857,0.08158152,-0.08822742
1.019947,0.07691662,-0.08590409
1.01894,0.07374284,-0.07994761
1.019576,0.07474157,-0.077952
1.018284,0.0756745,-0.07972916
1.015582,0.07469515,-0.08257644
1.015295,0.07483152,-0.08840797
1.015838,0.07536141,-0.09380883
1.017301,0.07457485,-0.09152754
1.01655,0.07409916,-0.08636326
1.015456,0.07373051,-0.08510254
1.016423,0.07412879,-0.08445585
1.017265,0.07565612,-0.08751825
1.020525,0.07570982,-0.09407836
1.022897,0.07818375,-0.09639378
1.020609,0.08242755,-0.09374997
1.01864,0.0823588,-0.09067833
1.020412,0.08214042,-0.09508467
1.022645,0.0815919,-0.09901319
1.021388,0.07687615,-0.09307616
1.018401,0.07377449,-0.08792499
1.014945,0.0747772,-0.08505931
1.014228,0.07683749,-0.08462816
1.016095,0.08139032,-0.08982865
1.013758,0.08820182,-0.09288284
1.011414,0.08791359,-0.09111739
1.011161,0.07977169,-0.08649006
1.01107,0.07668332,-0.08427184
1.014305,0.08041851,-0.08906182
1.01603,0.08322967,-0.09623513
1.01505,0.08219364,-0.09894407
1.014483,0.08098891,-0.09598043
1.014572,0.0820761,-0.09324794
1.016945,0.07931104,-0.09125236
1.018867,0.07635472,-0.09073446
1.018493,0.07818299,-0.09213598
1.013507,0.07849109,-0.08869629
1.007871,0.08067484,-0.08713002
1.011916,0.08678288,-0.09472319
1.01604,0.09241551,-0.1074371
1.01233,0.09572963,-0.1162911
1.011979,0.09381515,-0.1113394
1.015097,0.09211791,-0.1049623
1.01548,0.09434456,-0.1064041
1.015386,0.09407253,-0.1069124
1.015206,0.08965014,-0.1076565
1.014425,0.08636381,-0.1029801
1.01197,0.08799304,-0.09271173
1.008959,0.09037537,-0.09274656
1.012178,0.09057402,-0.099657
1.016592,0.09267389,-0.1045365
1.015216,0.09378671,-0.1053635
1.014802,0.09008726,-0.1015573
1.015765,0.0869848,-0.09629506
1.015026,0.08578842,-0.09009085
1.015634,0.08651446,-0.09245719
1.017216,0.08851997,-0.1009834
1.018069,0.08760865,-0.1000643
1.016239,0.08923148,-0.09850779
1.012507,0.09325924,-0.09919167
1.011897,0.09295683,-0.0982027
1.013219,0.09122448,-0.1023237
1.014202,0.09005454,-0.1053616
1.015765,0.09177213,-0.1056659
1.015589,0.09405775,-0.1038209
1.014597,0.0917391,-0.09634818
1.014648,0.0901586,-0.09011901
1.013672,0.09034712,-0.08799346
1.013188,0.08973811,-0.08920442
1.012544,0.08919751,-0.0900115
1.01053,0.0895741,-0.09165415
1.012074,0.09221221,-0.09622875
1.015217,0.09217292,-0.09465803
1.015484,0.0885671,-0.09275618
1.016573,0.08686084,-0.09245944
1.021477,0.08569369,-0.08720204
0.9993538,0.09646365,-0.191345
0.9986764,0.095557,-0.1893134
0.9970063,0.09560139,-0.1902448
0.9995703,0.09620547,-0.1895302
1.002902,0.0957983,-0.1849005
1.001269,0.09723307,-0.1844484
1.000753,0.1003671,-0.1834433
1.002205,0.1019163,-0.1836238
1.002014,0.1002117,-0.1856963
1.002944,0.09579549,-0.187945
1.003002,0.09088573,-0.1888041
1.001395,0.08563528,-0.1811765
1.002252,0.08426177,-0.1760602
