accx,accy,accz
1.027352,0.02989051,0.05734116
1.028211,0.03267951,0.05749196
1.029562,0.03102512,0.05879823
1.028278,0.02763089,0.05971499
1.027287,0.02659711,0.0642217
1.027875,0.02189982,0.07093804
1.0282,0.0277775,0.07235388
1.029561,0.03695747,0.07308016
1.031176,0.02734655,0.07605064
1.03179,0.02264811,0.07826735
1.031752,0.03212829,0.08321114
1.031468,0.03723721,0.0835515
1.027519,0.03830421,0.0798411
1.018207,0.03812864,0.08303033
1.006388,0.03838725,0.08339685
1.000821,0.04049104,0.08101241
1.015019,0.04598128,0.07734633
1.031169,0.05003949,0.06561484
1.025955,0.03792413,0.06252006
1.023581,0.02150893,0.06409861
1.031591,0.02149574,0.05331863
1.023729,0.02589948,0.04776151
1.002703,0.02382749,0.0606197
0.9892052,0.02434785,0.07327221
1.005128,0.02416706,0.06689605
1.034087,0.01980878,0.0613236
1.031796,0.01954822,0.06770713
1.025465,0.0161981,0.06525611
1.036034,0.0110169,0.06442631
1.032414,0.01731976,0.07195185
1.022583,0.02519238,0.07719853
1.014703,0.02678935,0.08389542
1.017386,0.02731491,0.08143756
1.033891,0.02473138,0.0727913
1.034671,0.02259312,0.07056845
1.025504,0.0318439,0.07166293
1.013133,0.04256464,0.07707805
1.005942,0.03827242,0.07626289
1.019206,0.02923763,0.06956947
1.027212,0.02249065,0.06762589
1.028177,0.01662236,0.06638946
1.027442,0.01921546,0.06631839
1.021632,0.02023948,0.06329119
1.022573,0.01601405,0.06328094
1.022329,0.01654393,0.07031108
1.023645,0.0117218,0.07114511
1.026366,0.007285822,0.07200192
1.023145,0.01927228,0.07561141
1.02354,0.03476933,0.07901606
1.021827,0.04355294,0.08035655
1.017206,0.05236495,0.075859
1.014747,0.06335989,0.07620731
1.016223,0.06627606,0.0775528
1.021309,0.05884572,0.07980708
1.021559,0.04986414,0.08262644
1.02478,0.03672527,0.07390684
1.028252,0.02755881,0.07109521
1.024545,0.02848886,0.0728066
1.024703,0.02257073,0.06791978
1.025405,0.01420102,0.06644361
1.024615,0.01222776,0.06361578
1.025345,0.01116319,0.06225654
1.024739,0.01617132,0.0600704
1.025118,0.02395803,0.05555335
1.024695,0.02645247,0.05956191
1.02302,0.02730761,0.06363189
1.021932,0.02989279,0.06658724
1.022142,0.0330135,0.06699137
1.024542,0.03241986,0.06520939
1.025356,0.03105296,0.06809352
1.025008,0.03171493,0.0662256
1.025167,0.02845663,0.06581668
1.025742,0.02489278,0.06704783
1.026716,0.02635411,0.06453992
1.025272,0.02704709,0.06931899
1.023601,0.02590713,0.07212391
1.023519,0.02715371,0.06937194
1.02351,0.03074206,0.06828232
1.023787,0.03542691,0.06753503
1.023515,0.03715181,0.06845485
1.023746,0.0338445,0.0682998
1.024474,0.03206324,0.06910453
1.024388,0.03197636,0.06911914
1.024455,0.03033962,0.06542587
1.025113,0.03233889,0.06534898
1.026069,0.03643172,0.06577578
1.02561,0.03742362,0.06493197
1.024672,0.03721244,0.06654373
1.025008,0.03545912,0.06811507
1.023985,0.03259664,0.06895622
1.019629,0.03305648,0.06883467
1.015384,0.03547682,0.06780235
1.018131,0.03455175,0.06779
1.023115,0.03139884,0.0683735
1.022262,0.03024465,0.06797049
1.022015,0.03122571,0.06843156
1.023789,0.03179575,0.07099218
1.024374,0.02848197,0.07231438
1.025547,0.02465883,0.06918557
1.024995,0.02562012,0.06350803
1.0248,0.02639053,0.06299708
1.026341,0.02610024,0.06631028
1.02674,0.02776741,0.06558797
1.028306,0.02830143,0.06460707
1.029508,0.0294002,0.0656703
1.028324,0.03058518,0.0654544
1.026641,0.02700856,0.06614098
1.023905,0.02394351,0.06821061
1.020598,0.02678352,0.06925799
1.020428,0.02980688,0.06937989
1.024386,0.02846993,0.06866569
1.026754,0.02800604,0.06763105
1.026066,0.02975047,0.06763522
1.024695,0.02943298,0.06655751
1.023222,0.0302584,0.06485223
1.025475,0.03378247,0.06691271
1.028158,0.03571557,0.06964566
1.026726,0.03606311,0.07058631
1.025123,0.03773028,0.07267251
1.024493,0.03945045,0.07292994
1.024179,0.03663693,0.0709079
1.023498,0.03229835,0.06976977
1.023447,0.03125685,0.06719378
1.024889,0.03098181,0.06543508
1.02476,0.03034292,0.06572574
1.023215,0.02950773,0.06576607
1.021718,0.02891124,0.07071905
1.021869,0.02905273,0.07571554
1.02281,0.02826232,0.07324448
1.021912,0.0275123,0.07153803
1.021948,0.02804864,0.0734022
1.021856,0.0297007,0.07459483
1.020915,0.0314611,0.07370456
1.021687,0.03242205,0.07199609
1.020906,0.0336135,0.07248932
1.021291,0.03351202,0.07336653
1.026707,0.03168756,0.07451766
1.030496,0.0300036,0.07569077
1.028361,0.02864862,0.07327938
1.024783,0.02894775,0.06755788
1.024727,0.02961964,0.06114026
1.024597,0.0290895,0.06229844
1.021125,0.03000574,0.0708494
1.018743,0.03124881,0.07530279
1.020413,0.03131549,0.07590834
1.024462,0.03211575,0.07483044
1.025777,0.03220824,0.07146318
1.024708,0.03162076,0.06803509
1.024878,0.03174,0.06736572
1.024096,0.03020306,0.07250335
1.022777,0.02918237,0.07481525
1.020931,0.03285477,0.07210568
1.019186,0.03704383,0.07248866
1.021892,0.03624416,0.07388859
1.024723,0.03340046,0.075624
1.022828,0.03225212,0.07540546
1.021237,0.03139851,0.07521718
1.022612,0.03098752,0.08103366
1.02281,0.03134764,0.08407303
1.023507,0.03368901,0.07904462
1.025603,0.03787865,0.07043273
1.023299,0.03835715,0.06677063
1.020921,0.03864642,0.07011617
1.02182,0.04167222,0.07332928
1.021821,0.04173033,0.07528241
1.023013,0.04162096,0.07154657
1.023982,0.04175523,0.06591284
1.021617,0.03998296,0.06800842
1.020448,0.03839838,0.06996301
1.022873,0.03586743,0.06943292
1.025131,0.0356212,0.07100437
1.024536,0.03669765,0.07161113
1.023631,0.03518259,0.07127732
1.023633,0.03353957,0.07244171
1.022764,0.03215966,0.07235979
1.022369,0.03580831,0.06985125
1.022598,0.04116708,0.06947876
1.022213,0.03821346,0.07123156
1.024333,0.03400729,0.07290855
1.027696,0.03231818,0.07354092
1.027783,0.03095556,0.0732026
1.025611,0.03237984,0.07316575
1.022388,0.0322435,0.06892642
1.020736,0.03147688,0.06401977
1.021821,0.03336274,0.06537059
1.022391,0.0336395,0.06761759
1.02237,0.0350006,0.06834181
1.021382,0.03965981,0.06822747
1.018575,0.04252315,0.0690115
1.015805,0.04040735,0.07484332
1.016719,0.03700589,0.08145231
1.02118,0.03730995,0.08141938
1.023142,0.03630869,0.07673041
1.023377,0.03462707,0.0733448
1.024791,0.03508166,0.07123128
1.02596,0.03173138,0.0711341
1.025992,0.03092534,0.07004547
1.024495,0.03322623,0.06643003
1.024794,0.03241151,0.06903704
1.025519,0.0343111,0.06944859
1.024557,0.03447192,0.06105523
1.024818,0.0314913,0.05882445
1.022957,0.03243625,0.06841202
1.019624,0.03488368,0.0790726
1.019332,0.03791422,0.07516264
1.021236,0.03912549,0.06909109
1.023029,0.03774502,0.0732297
1.022235,0.0356961,0.06779576
1.021788,0.03216551,0.06331871
1.02263,0.03250309,0.07140927
1.022587,0.03380071,0.07518895
1.024842,0.03187457,0.07519876
1.027386,0.03378912,0.07186122
1.025996,0.03598714,0.06880951
1.023187,0.03538552,0.0704827
1.022059,0.03475811,0.07063936
1.024288,0.03166052,0.07306056
1.028051,0.03115552,0.0758173
1.02709,0.0324803,0.07539568
1.022108,0.0296658,0.07462433
1.021178,0.02860179,0.07478139
1.023269,0.02933205,0.07579183
1.023939,0.02910123,0.07537892
1.025253,0.02967358,0.07672682
1.025184,0.03076229,0.07690665
1.022629,0.03259029,0.07553295
1.022219,0.03222826,0.07704865
1.024011,0.03131359,0.07566994
1.025585,0.03276184,0.07324624
1.025474,0.03363394,0.07105845
1.025149,0.03506791,0.06969512
1.025891,0.03578909,0.07150267
1.023874,0.03671948,0.06981335
1.021941,0.03896248,0.06995894
1.02377,0.03378803,0.07626627
1.025713,0.02703245,0.07985679
1.027638,0.02928174,0.07554923
1.026938,0.03292395,0.06949388
1.022717,0.03616911,0.07235752
1.020818,0.04060516,0.07453966
1.021419,0.03934278,0.07126006
1.022998,0.03759828,0.07160175
1.023921,0.03977756,0.06990128
1.023587,0.03812203,0.06971952
1.023865,0.03475384,0.07399127
1.023991,0.03312236,0.07499601
1.023753,0.03353131,0.07708433
1.022411,0.03675386,0.07849434
1.021608,0.03674176,0.07676584
1.021903,0.03719716,0.07379977
1.021563,0.03978643,0.06833345
1.024191,0.03656232,0.06688671
1.025899,0.0335032,0.06879062
1.023663,0.03405666,0.06933134
1.023122,0.03494795,0.07165422
1.022819,0.03610429,0.0751281
1.021785,0.03647903,0.07737919
1.021248,0.0391355,0.07776006
1.021009,0.04208268,0.07591898
1.022568,0.04138773,0.07317529
1.023675,0.03884943,0.07226783
1.021169,0.03674176,0.07259699
1.018161,0.03826394,0.07296558
1.019682,0.03954166,0.07547551
1.022021,0.03766966,0.07816695
1.022102,0.03749729,0.0795996
1.022443,0.03957818,0.07913498
1.02116,0.0417655,0.07585168
1.020511,0.04227334,0.07367489
1.022067,0.04224195,0.07137832
1.02232,0.04321704,0.06884671
1.022533,0.04236975,0.07124612
1.022839,0.04104617,0.07514419
1.022894,0.04157537,0.0755393
1.022311,0.04100454,0.0746375
1.021644,0.03975134,0.07505728
1.022667,0.0402823,0.07515294
1.02221,0.04053255,0.07477697
1.021875,0.04022159,0.07517444
1.022673,0.04107831,0.07494157
1.021913,0.04127955,0.07493544
1.022449,0.04070695,0.07532282
1.023836,0.04065857,0.0759153
1.026267,0.03948299,0.07766092
1.028612,0.03786503,0.07813618
1.025794,0.03702762,0.07725962
1.023007,0.03479672,0.07599337
1.023806,0.03316339,0.07448959
1.024625,0.03443355,0.07424539
1.025007,0.03495762,0.07271133
1.024057,0.03481924,0.06983531
1.022253,0.03571314,0.07060872
1.021928,0.03641924,0.07290933
1.02236,0.03721648,0.07381743
1.02224,0.03775341,0.07609025
1.022143,0.03847316,0.07812771
1.02247,0.03917759,0.07904438
1.023265,0.03883583,0.0790552
1.024589,0.03869174,0.07692431
1.024698,0.03801258,0.07721633
1.023737,0.03701845,0.07626795
1.023299,0.03656875,0.07119282
1.022129,0.03630492,0.07099038
1.021433,0.03813252,0.07298875
1.021636,0.04153229,0.07472302
1.019664,0.04329618,0.08185598
1.018709,0.04271778,0.08750984
1.020305,0.04102917,0.08150447
1.021134,0.03893282,0.07302681
1.022556,0.03757718,0.07456606
1.022942,0.03570794,0.07416299
1.022432,0.03241143,0.06981025
1.024195,0.03354756,0.07297118
1.023866,0.03631134,0.07407349
1.022816,0.03511411,0.07175732
1.02322,0.03639393,0.07202705
1.021787,0.03869141,0.07217464
1.022315,0.03867381,0.07243772
1.024179,0.0393905,0.07077914
1.023356,0.03796669,0.06985512
1.022011,0.03505347,0.07018443
1.021719,0.03276403,0.06881816
1.022603,0.03298942,0.06540995
1.022318,0.03700436,0.06087837
1.021438,0.03824931,0.06498378
1.020862,0.03819492,0.07265099
1.019438,0.03935733,0.07315024
1.022673,0.03869254,0.06888658
1.026652,0.03893199,0.0647425
1.023819,0.03897307,0.07460297
1.021718,0.03868036,0.08920019
1.022857,0.03898934,0.08695541
1.024069,0.03721434,0.07650274
1.026393,0.03466103,0.06692074
1.026835,0.03318254,0.06435193
1.025058,0.03659246,0.06956877
1.02478,0.04075405,0.07107165
1.024924,0.03876777,0.07221227
1.023879,0.03812457,0.07313193
1.02267,0.03960922,0.07030329
1.022883,0.03772825,0.07102277
1.024867,0.03428328,0.07206513
1.025365,0.03142112,0.07194481
1.023783,0.03384319,0.07284103
1.023369,0.0380507,0.0712304
1.023825,0.03599184,0.06955252
1.024536,0.0351363,0.06762317
1.024935,0.03712521,0.06774147
1.023242,0.03549609,0.07175942
1.021908,0.03500735,0.07261988
1.023867,0.0355599,0.07260186
1.025965,0.03672696,0.07407393
1.024978,0.04003334,0.07556215
1.024336,0.03826566,0.077078
1.024564,0.03660965,0.07550915
1.02318,0.03999058,0.07301804
1.023011,0.04129579,0.07182545
1.02231,0.0428531,0.07375717
1.020118,0.04453435,0.07653538
1.02158,0.04093193,0.07543962
1.023073,0.03646389,0.07707996
1.021519,0.03693217,0.08068738
1.0207,0.03859024,0.08118144
1.020947,0.0379217,0.07708002
1.022337,0.03902717,0.06938256
1.022935,0.03949809,0.06971052
1.021638,0.03816574,0.07212125
1.022429,0.03925936,0.06803416
1.023519,0.03898576,0.06761027
1.023402,0.03848069,0.06838635
1.023986,0.03827942,0.06862755
1.023625,0.03216018,0.07268934
1.024337,0.02342259,0.07520179
1.025638,0.01905311,0.0732361
1.024772,0.01998641,0.06903223
1.024928,0.02013933,0.06740195
1.024488,0.02014845,0.06802338
1.021034,0.02647214,0.06844206
1.01762,0.03391518,0.07007113
1.017458,0.03772197,0.07107595
1.020376,0.03655465,0.07026254
1.023171,0.03382833,0.06721288
1.025634,0.03560766,0.06752412
1.024862,0.03658923,0.07288485
1.022246,0.03849194,0.07183944
1.023109,0.04474412,0.06960742
1.019627,0.05153903,0.07436167
1.014497,0.05824738,0.07611488
1.016748,0.06018676,0.07573056
1.016998,0.06120772,0.08220923
1.013053,0.06314516,0.09122853
1.011219,0.06168464,0.09414009
1.012096,0.06236235,0.09357361
1.016226,0.05855592,0.09534723
1.020367,0.04808532,0.09232306
1.022037,0.04089007,0.08546024
1.023183,0.03719502,0.08702803
1.023673,0.03412218,0.08893594
1.022253,0.02953715,0.08634883
1.021392,0.03324962,0.0876674
1.022392,0.04205986,0.08608853
1.020578,0.04334687,0.08066635
1.018346,0.0489888,0.07814713
1.01975,0.05438225,0.0776453
1.019676,0.05272828,0.07801327
1.01905,0.05146193,0.07477073
1.019763,0.0458818,0.07059346
1.019295,0.04418709,0.07144885
1.020499,0.04569754,0.07489964
1.024932,0.04306146,0.07584574
1.028531,0.04340455,0.0737415
1.024816,0.03684533,0.07535366
1.018906,0.02811304,0.07579347
1.02075,0.03017783,0.07372468
1.022408,0.0301755,0.07592069
1.022513,0.02881273,0.07489707
1.025902,0.03142296,0.07345347
1.023694,0.03083041,0.07152162
1.020545,0.02984433,0.06587225
1.022842,0.0308643,0.06783428
1.022991,0.02964639,0.06881416
1.024355,0.02891808,0.06423047
1.027481,0.03160115,0.06410034
1.025271,0.034441,0.06634679
1.022262,0.03604958,0.06874122
1.022062,0.03531733,0.06670142
1.022503,0.03308438,0.06370973
1.024097,0.03225203,0.06580998
1.025043,0.03154037,0.0659213
1.022414,0.03079393,0.06613404
1.02042,0.02961909,0.0676313
1.024266,0.02857552,0.06654909
1.027948,0.02973025,0.06808181
1.025127,0.03196167,0.0703413
1.022105,0.03725636,0.07075916
1.022287,0.04334264,0.07235601
1.022036,0.04390263,0.07004632
1.022253,0.04288595,0.06689078
1.022426,0.04488403,0.07095908
1.02192,0.04657648,0.07334306
1.022616,0.04603571,0.06999704
1.023094,0.04637465,0.06868724
1.023726,0.0472225,0.06901441
1.023777,0.04444122,0.06683853
1.022311,0.04046205,0.06336334
1.022666,0.03830931,0.06362754
1.024893,0.03535599,0.06710933
1.026793,0.03363294,0.07045735
1.024912,0.03526937,0.07342192
1.021353,0.03607618,0.07168654
1.022154,0.03678727,0.0667777
1.022684,0.03821347,0.06460487
1.021732,0.03664438,0.06467373
1.022884,0.03362831,0.06591236
1.023958,0.03127044,0.06530341
1.025567,0.03176895,0.06469906
1.02636,0.03550789,0.06593306
1.025481,0.03701855,0.0649544
1.024143,0.03782883,0.06549771
1.021289,0.03928795,0.06770044
1.021658,0.03802318,0.07005442
1.022714,0.03739543,0.07561443
1.018915,0.03929857,0.07907967
1.017745,0.04080433,0.07800271
1.020893,0.03936621,0.07599882
1.023106,0.03718507,0.07533209
1.022583,0.03770404,0.07475463
1.02127,0.03843792,0.07286681
1.021752,0.03938503,0.07299495
1.020891,0.04098808,0.07420772
1.0211,0.04180387,0.07640946
1.023232,0.04227229,0.0787297
1.021961,0.04220341,0.07772332
1.021715,0.04382434,0.0774997
1.021519,0.046202,0.07854344
1.018322,0.04741675,0.08033927
1.017777,0.04734846,0.08230551
1.01937,0.04398727,0.07949602
1.021575,0.04219312,0.07713392
1.022733,0.0436187,0.08130758
1.021159,0.04485855,0.08386458
1.020452,0.04640766,0.07698915
1.020863,0.04598809,0.07088803
1.020789,0.04539618,0.07381935
1.019869,0.045118,0.07603423
1.019637,0.04015103,0.07613937
1.022176,0.03493248,0.07929282
1.024494,0.03532933,0.08177224
1.02388,0.0381754,0.08322873
1.023006,0.04117864,0.08215292
1.023547,0.04602545,0.07776121
1.021983,0.04754011,0.07845136
1.020067,0.0460504,0.08016344
1.02186,0.04739136,0.07636949
1.0228,0.04325527,0.07457561
1.02216,0.03676494,0.07350327
1.02311,0.03642902,0.07181418
1.023945,0.03630912,0.07269011
1.023521,0.0393008,0.07201334
1.022131,0.04435294,0.07182316
1.020282,0.04591357,0.07181434
1.018855,0.0462653,0.07064199
1.019617,0.04544789,0.07361086
1.022079,0.04554916,0.07594037
1.0244,0.04429978,0.07385747
1.026478,0.04226413,0.07210065
1.025634,0.04412248,0.07241126
1.023242,0.04512064,0.0745255
1.022625,0.04500352,0.07724266
1.021616,0.04535084,0.0778244
1.020324,0.04554452,0.07354877
1.019178,0.04767172,0.06811171
1.019346,0.04941906,0.06721614
1.021394,0.04867203,0.07014
1.02117,0.04795547,0.07715928
1.020696,0.04789361,0.08441188
1.022861,0.04605995,0.08186591
1.024547,0.04498275,0.07388007
1.024924,0.04540438,0.07204936
1.024317,0.04404771,0.07369247
1.023401,0.04419552,0.07416099
1.02431,0.04438707,0.07451381
1.025644,0.04139819,0.07488853
1.024564,0.03976099,0.075107
1.022729,0.04093887,0.07263006
1.021153,0.04236974,0.06965387
1.020139,0.04165787,0.06956448
1.021479,0.04174967,0.07167722
1.022811,0.0448253,0.07671152
1.023734,0.04643503,0.07793135
1.024192,0.04605423,0.07214017
1.023054,0.04514964,0.06872752
1.023178,0.04439545,0.07497035
1.021264,0.04461148,0.08465909
1.01831,0.04580565,0.08614317
1.020384,0.04663146,0.08520981
1.021468,0.04531161,0.08376315
1.019554,0.04567079,0.07502505
1.01952,0.04556692,0.0702566
1.021634,0.04073809,0.0739677
1.024296,0.03798301,0.07606065
1.023704,0.03976321,0.07247043
1.020587,0.04328343,0.06882307
1.020385,0.04565075,0.06998809
1.022579,0.04676412,0.0708135
1.024214,0.04782055,0.07149888
1.025233,0.0456259,0.07538275
1.024414,0.04356147,0.07901061
1.022855,0.04259726,0.08060376
1.02355,0.0410592,0.08159508
1.022878,0.04196688,0.08155898
1.020623,0.0422791,0.07725492
1.020899,0.04174961,0.0744026
1.021812,0.0414853,0.07929391
1.022423,0.04148424,0.08394694
1.022432,0.04266782,0.08132988
1.021893,0.04394086,0.07711275
1.022415,0.04565671,0.079337
1.022246,0.04108549,0.08458685
1.022046,0.03475134,0.08577822
1.022789,0.03777939,0.08190618
1.023689,0.03957549,0.07809893
1.024679,0.03862282,0.07771961
1.023627,0.04242058,0.07695798
1.022783,0.04637236,0.07624734
1.023428,0.04993975,0.07566008
1.022936,0.05209533,0.07855272
1.024572,0.04970102,0.08437345
1.02686,0.04720396,0.08185408
1.025314,0.04726502,0.07895584
1.021913,0.04718798,0.07768946
1.018465,0.04723675,0.07139134
1.019501,0.0487428,0.0722249
1.022393,0.05031891,0.07777097
1.020523,0.05146461,0.07932531
1.021217,0.05138172,0.07720233
1.023739,0.05120807,0.07329196
1.023439,0.05172565,0.07526841
1.02498,0.05111669,0.07787357
1.022922,0.0514125,0.07727936
1.019305,0.05109282,0.07842106
1.02196,0.04834625,0.07757942
1.02272,0.04687882,0.07741181
1.019909,0.04805497,0.0784212
1.019003,0.0511689,0.07724492
1.019534,0.05235941,0.07795351
1.020779,0.05277599,0.07833542
1.022229,0.05421097,0.07914577
1.024313,0.05001815,0.08080173
1.02563,0.0434683,0.07678345
1.024942,0.04192976,0.07276579
1.024437,0.04311351,0.07386367
1.023386,0.04239211,0.07435749
1.022174,0.04002722,0.07338406
1.024632,0.04079655,0.07530023
1.027515,0.0441013,0.07783883
1.025583,0.04669776,0.07752587
1.023819,0.04661213,0.07799634
1.02441,0.04580891,0.07779148
1.022354,0.04770572,0.0749311
1.020755,0.04635611,0.0709113
1.021917,0.04241044,0.07029017
1.022315,0.03983648,0.07987391
1.021827,0.03503848,0.08437165
1.019475,0.03272859,0.07970041
1.017472,0.03431387,0.08334714
1.020283,0.03708186,0.08646852
1.024502,0.04222569,0.08619971
1.025048,0.04444942,0.08480641
1.021316,0.04440128,0.07515117
1.018277,0.04611583,0.07379792
1.020336,0.04765631,0.08024886
1.022574,0.04864637,0.0817312
1.021052,0.04515035,0.08287994
1.019526,0.0376649,0.08196579
1.019682,0.0347271,0.08431247
1.021104,0.03697832,0.08781627
1.022957,0.03844066,0.08336185
1.022376,0.0372064,0.07528376
1.021517,0.03717226,0.06690812
1.021734,0.03909089,0.06952607
1.020297,0.04288496,0.07492585
1.019652,0.04925046,0.06735655
1.020018,0.05007006,0.06479484
1.021154,0.04686801,0.06823621
1.024447,0.04656012,0.06795266
1.024224,0.04104362,0.07002929
1.022082,0.0326847,0.06935068
1.023937,0.02966224,0.0659918
1.025155,0.02807729,0.06502588
1.024683,0.02682512,0.06496154
1.024906,0.02683725,0.06700336
1.023035,0.03175974,0.0690718
1.02057,0.04096148,0.07148214
1.020594,0.04549973,0.07417235
1.021193,0.04650419,0.07626844
1.021693,0.04695809,0.07983261
1.022816,0.04436222,0.07744622
1.024143,0.04030421,0.072739
1.025346,0.03897297,0.07541269
1.025289,0.03893493,0.07582423
1.024643,0.0360196,0.07395841
1.024919,0.03598087,0.07560286
1.023725,0.04045322,0.07499081
1.020785,0.04332848,0.07407103
1.020451,0.04645747,0.07262938
1.023015,0.04947453,0.06861139
1.024628,0.0488513,0.06802705
1.024391,0.04563327,0.06845875
1.022635,0.04189947,0.06758273
1.020473,0.03757166,0.06827751
1.022959,0.03350347,0.0686738
1.026769,0.03093635,0.07119673
1.024834,0.0278887,0.07703732
1.02401,0.03206587,0.07996049
1.024828,0.04193606,0.07975516
1.02199,0.04304554,0.08154779
1.02176,0.04356688,0.08309014
1.022571,0.04405178,0.07687795
1.021306,0.03765495,0.06826059
1.022522,0.03629425,0.06868379
1.024067,0.03571769,0.07242799
1.02388,0.0333172,0.07229164
1.023124,0.0355287,0.07135085
1.022695,0.03508527,0.06871349
1.022074,0.03611325,0.0681764
1.021064,0.03967264,0.07453179
1.021818,0.03883398,0.07993054
1.022556,0.03857219,0.08224895
1.023305,0.03782193,0.08264723
1.025048,0.03523104,0.07802431
1.026054,0.03482101,0.07494288
1.026404,0.03847151,0.07526275
1.024206,0.04635328,0.07540718
1.021064,0.05063359,0.07708029
1.020541,0.04863439,0.07704706
1.022072,0.04758673,0.07842061
1.024382,0.04753163,0.08099069
1.024549,0.04348793,0.07514777
1.023328,0.03998563,0.06989966
1.023219,0.04152495,0.07298499
1.02327,0.04013389,0.07668732
1.023419,0.03588968,0.0775516
1.0231,0.03569002,0.07457715
1.020305,0.0363341,0.07075623
1.017249,0.03609205,0.07177449
1.018375,0.03680146,0.07244951
1.020528,0.03965475,0.06709491
1.022045,0.04266163,0.06483952
1.02502,0.04111707,0.07077302
1.025971,0.0399215,0.07541602
1.025486,0.04418622,0.07318334
1.02413,0.04668026,0.07115891
1.023247,0.04310755,0.07553522
1.026773,0.040494,0.07714096
1.027951,0.04264601,0.07304938
1.023917,0.04372303,0.0717711
1.02012,0.0417671,0.07320776
1.019912,0.04111436,0.07609063
1.02123,0.04081942,0.07685841
1.020929,0.03903003,0.07398289
1.024184,0.03904462,0.069642
1.026233,0.04171747,0.06497219
1.022318,0.04390288,0.06707405
1.02171,0.04331641,0.07024671
1.022858,0.04226383,0.07020133
1.023462,0.04197067,0.07479896
1.023984,0.03861775,0.07676267
1.021672,0.03534259,0.07579191
1.021698,0.03606344,0.078558
1.022913,0.03690248,0.07792513
1.021886,0.0385917,0.07513236
1.022168,0.04065263,0.07462178
1.023177,0.03754311,0.07299188
1.025583,0.03233485,0.07122393
1.028588,0.03011332,0.06951128
1.026114,0.02886265,0.06681101
1.021549,0.02880684,0.06560677
1.021244,0.03063747,0.06627712
1.021801,0.03088328,0.06830238
1.02209,0.03177228,0.06892795
1.022733,0.03533744,0.06751528
1.02186,0.03770883,0.06914594
1.022189,0.03885088,0.07147203
1.022388,0.04165972,0.07260192
1.020917,0.04589683,0.0752445
1.021175,0.04622337,0.07546388
1.022507,0.04471335,0.07431639
1.02416,0.04607538,0.07494327
1.024014,0.04323972,0.07542059
1.02327,0.04011369,0.07551492
1.02582,0.04218117,0.07262863
1.026258,0.041819,0.07070811
1.022665,0.04076509,0.07312791
1.020296,0.03932739,0.07180535
1.023003,0.03644355,0.06879801
1.026244,0.03908717,0.06960788
1.022163,0.04722294,0.07540234
1.019166,0.0546171,0.08352303
1.021454,0.05379306,0.08128625
1.020978,0.0477648,0.07592776
1.020445,0.04295513,0.07703312
1.021507,0.03705555,0.07426297
1.022467,0.03739972,0.074062
1.024001,0.04149712,0.07637509
1.022975,0.03924846,0.07282292
1.021471,0.039933,0.0728013
1.022736,0.03992145,0.07318215
1.024251,0.03733745,0.07248923
1.025246,0.04220371,0.07510023
1.025002,0.04435145,0.07655234
1.022665,0.04494397,0.07855016
1.020833,0.04724103,0.07698908
1.020937,0.04507444,0.07436855
1.022629,0.04684417,0.07668394
1.02433,0.04843157,0.07722578
1.023675,0.04786856,0.07750265
1.023198,0.04878915,0.07549902
1.023776,0.04394884,0.07259351
1.022259,0.04152901,0.07658424
1.020058,0.04514174,0.07972159
1.019341,0.05021873,0.08132755
1.021061,0.05632727,0.08504346
1.023157,0.05583893,0.08523212
1.022208,0.05329138,0.08197702
1.02176,0.05477723,0.07935523
1.021939,0.05433233,0.07763893
1.01849,0.05456047,0.07548997
1.01619,0.05677904,0.07483137
1.02003,0.05714251,0.07585646
1.023955,0.0585639,0.07670131
1.022322,0.05904068,0.07663455
1.021614,0.05699926,0.07595057
1.024783,0.05580196,0.07663458
1.025231,0.0526765,0.07666027
1.023926,0.05148038,0.07694106
1.023484,0.05272813,0.07789891
1.023136,0.04986861,0.07478882
1.022901,0.04951495,0.07133878
1.020761,0.05194367,0.06996449
1.019373,0.05301147,0.06827468
1.019626,0.05458599,0.06903067
1.019485,0.05215667,0.0752705
1.021427,0.04812429,0.08158137
1.022826,0.04658192,0.079241
1.022175,0.04527371,0.07470012
1.021759,0.04539395,0.07444484
1.020788,0.0442387,0.07486863
1.020802,0.04131201,0.07955061
1.022448,0.04127873,0.08405251
1.022848,0.0424062,0.08168701
1.021726,0.04349423,0.0812093
1.022344,0.04581259,0.08199352
1.023574,0.04628904,0.07802868
1.023226,0.0445202,0.07540176
1.02303,0.04490459,0.07749177
1.021529,0.04815171,0.08040006
1.020059,0.05084025,0.08093452
1.019716,0.04959406,0.08040811
1.019856,0.04800402,0.08077909
1.022466,0.05158268,0.08194698
1.022688,0.05403298,0.08491578
1.021606,0.05279855,0.08653853
1.022707,0.05438165,0.08344752
1.022015,0.05653759,0.08071981
1.02213,0.05669049,0.08207007
1.022526,0.05810003,0.08348022
1.02186,0.06069524,0.08311237
1.022495,0.06146922,0.08366599
1.022129,0.05954789,0.08432418
1.022129,0.05669378,0.08470139
1.022616,0.0545513,0.08459012
1.022878,0.05412568,0.08098954
1.023697,0.05267832,0.07618202
1.021525,0.05069678,0.07404031
1.017867,0.05337954,0.07571986
1.015756,0.05615619,0.07744919
1.015535,0.05370891,0.07502426
1.018841,0.04654897,0.07173839
1.024085,0.03546736,0.06682379
1.03096,0.02262771,0.05946407
1.03702,0.01115484,0.05449334
1.031531,0.01509819,0.05632687
1.022102,0.0344669,0.06479158
1.024706,0.04982046,0.07180272
1.022636,0.06512303,0.07850741
1.011565,0.07460867,0.08494524
1.011843,0.07032766,0.090895
1.014314,0.07153561,0.1027094
1.013668,0.06942894,0.1033391
1.016494,0.06328086,0.09808813
1.016618,0.06440527,0.1039186
1.017444,0.05752887,0.1031135
1.01999,0.0471962,0.1018934
1.023755,0.03481927,0.1001693
1.026886,0.02703539,0.09049234
1.023828,0.03406486,0.09315756
1.022932,0.03294297,0.09360059
1.022527,0.03180439,0.08605699
1.02132,0.03710646,0.08554619
1.02388,0.03482774,0.08084817
1.022715,0.03933993,0.07631802
1.021671,0.04657276,0.07551568
1.022622,0.0465383,0.07312865
1.022592,0.04636138,0.06975147
1.026068,0.04541519,0.05949515
1.028406,0.0416101,0.05380073
1.02577,0.03791964,0.05880777
1.020516,0.04368596,0.06349688
1.016299,0.05286207,0.0687757
1.015236,0.05548814,0.07107715
1.018475,0.05734769,0.06738009
1.026549,0.05408663,0.06569463
1.030412,0.04357501,0.0653817
1.028513,0.03423455,0.06487819
1.026346,0.0312843,0.06641094
1.024337,0.03509433,0.06645088
1.025728,0.03655787,0.06756463
1.027195,0.03562784,0.07410216
1.025555,0.03791658,0.07741285
1.023638,0.04013748,0.07202614
1.021564,0.04457279,0.06788157
1.022171,0.04920015,0.07376453
1.024635,0.04886394,0.08082821
1.024906,0.04875192,0.08030113
1.023133,0.05118668,0.07689138
1.020303,0.05599755,0.07423993
1.018538,0.06102007,0.07658004
1.018125,0.06074818,0.0814185
1.018799,0.05500093,0.0815115
1.021051,0.04832067,0.08195877
1.021971,0.04784399,0.08224729
1.021058,0.05221957,0.08008769
1.01994,0.05328531,0.07888208
1.018889,0.05075071,0.07709961
1.019487,0.04560988,0.0778589
1.019786,0.04133348,0.08026616
1.019398,0.04365181,0.08089002
1.021451,0.04850294,0.08272954
1.022807,0.05095089,0.08311849
1.022032,0.05137068,0.08070354
1.020651,0.0515882,0.07942527
1.017715,0.05587754,0.08400142
1.014976,0.06510666,0.08878055
1.015468,0.07315384,0.08072756
1.019477,0.07347955,0.07084209
1.022597,0.06790836,0.0698148
1.021925,0.05935202,0.06307784
1.02198,0.04534049,0.05085129
1.027015,0.03059029,0.0489566
1.03271,0.01356757,0.05301938
1.034401,-0.0055225,0.05189588
1.036175,-0.009526068,0.05419212
1.036107,-0.007954968,0.06238542
1.032555,-0.007121803,0.06358407
1.0328,0.0140514,0.06040889
1.031987,0.04031538,0.06071844
1.027393,0.04940525,0.06288973
1.023712,0.05160584,0.06462829
1.019309,0.05495726,0.06562708
1.019017,0.05668681,0.06680324
1.020642,0.05896138,0.06741847
1.01929,0.05991627,0.06840117
1.023034,0.04941753,0.06839331
1.026724,0.04073275,0.06741275
1.024663,0.04284125,0.06852483
1.024629,0.04251216,0.06801161
1.02541,0.0414423,0.06770877
1.024806,0.0424252,0.06857128
1.02501,0.04752493,0.0681639
1.025052,0.05380364,0.07090232
1.02497,0.05233506,0.0724511
1.024279,0.04705136,0.06740009
1.021443,0.0399716,0.05905802
1.018539,0.03659508,0.05484006
1.020048,0.03678581,0.05811145
1.022893,0.03461253,0.05942246
1.022317,0.03683487,0.05763335
1.022869,0.0389405,0.05843854
1.024264,0.03167882,0.05857065
1.023402,0.0239044,0.05823583
1.023525,0.02686904,0.05919116
1.023803,0.03356561,0.05928938
1.02361,0.03611155,0.05950581
1.024619,0.03646128,0.06244439
1.024877,0.03198205,0.06402826
1.023295,0.02907344,0.05854396
1.022072,0.03123038,0.05330745
1.02471,0.03146779,0.05524389
1.027553,0.03191016,0.055804
1.025105,0.03129174,0.05429918
1.022328,0.03025973,0.06057902
1.022116,0.0325596,0.06754189
1.022045,0.03373389,0.06651609
1.022736,0.03255941,0.06588322
1.024046,0.0313395,0.06777693
1.025357,0.03196262,0.06824931
1.025413,0.03250618,0.06971158
1.02431,0.03258379,0.07008411
1.024094,0.0347338,0.06875153
1.022658,0.03549141,0.06948386
1.021467,0.03618106,0.06829054
1.022795,0.03804431,0.0646191
1.023148,0.03675297,0.06316317
1.023599,0.03470377,0.06296359
1.024222,0.03269169,0.06364576
1.024082,0.02984571,0.06491311
1.025239,0.03113741,0.06557267
1.024361,0.0352833,0.06527925
1.023012,0.03682932,0.06401
1.024772,0.03754921,0.06330372
1.025391,0.03656853,0.05992778
1.025032,0.0323626,0.05255918
1.025898,0.03037519,0.04925534
1.026306,0.03074146,0.05623869
1.024569,0.03228242,0.06449908
1.021912,0.03417904,0.06214617
1.022217,0.03324121,0.05942114
1.024745,0.03337869,0.06296839
1.027151,0.03547445,0.06549437
1.027994,0.037143,0.0678851
1.024824,0.03997549,0.06382862
1.021569,0.04201614,0.05732104
1.02235,0.04042371,0.06331984
1.024357,0.03769959,0.06793105
1.025391,0.03786571,0.06425369
1.025171,0.03527196,0.06408635
1.024526,0.02981994,0.06156453
1.024225,0.03164024,0.05763675
1.023606,0.03293011,0.06423963
1.024222,0.02908178,0.07114145
1.025253,0.02838083,0.0680229
1.023198,0.02662997,0.06661784
1.021352,0.02416931,0.06908514
1.022338,0.02585467,0.06689612
1.022494,0.02702294,0.06587375
1.021956,0.02612473,0.06840202
1.022319,0.02470768,0.07169605
1.023163,0.02228026,0.07608568
1.02659,0.02006648,0.07322633
1.029886,0.02197081,0.06840841
1.025763,0.02593941,0.07035168
1.019655,0.02697874,0.06621788
1.020778,0.02740052,0.06015438
1.023417,0.02807887,0.064328
1.023577,0.02866637,0.06698412
1.023996,0.02989688,0.06452345
1.023368,0.03141588,0.06475031
1.023483,0.03508377,0.06402361
1.024177,0.03763703,0.06172065
1.024118,0.03801851,0.06345147
1.025452,0.04091936,0.06582454
1.02466,0.04310411,0.06607284
1.02166,0.04296518,0.06731755
1.019532,0.0438055,0.06863683
1.018688,0.04323853,0.07015865
1.020234,0.04141743,0.07260984
1.021361,0.04264389,0.0741283
1.022296,0.04623544,0.07563104
1.022551,0.04931299,0.07938201
1.019789,0.04734576,0.08613892
1.019035,0.04227645,0.08912252
1.019589,0.04274363,0.08477056
1.019308,0.04408121,0.08194471
1.020022,0.0441622,0.08118304
1.02103,0.04681312,0.07809066
1.022817,0.04563852,0.07562233
1.022581,0.04244101,0.07530554
1.021717,0.03872197,0.07423609
1.023582,0.03418751,0.07054537
1.02329,0.03597406,0.07142595
1.020778,0.03810001,0.07736503
1.019324,0.04071716,0.07937776
1.021616,0.050075,0.07854671
1.025739,0.05256339,0.07452365
1.026262,0.04390916,0.06976066
1.02705,0.0376175,0.07122991
1.02535,0.03827281,0.07153852
1.019792,0.04078228,0.06672615
1.020001,0.04396967,0.06551113
1.019192,0.0484215,0.07331343
1.015503,0.04742747,0.08091895
1.017792,0.04345033,0.07816916
1.020854,0.04370664,0.07583456
1.024607,0.04168053,0.07756219
1.027558,0.04168025,0.07301813
1.025655,0.04743784,0.06879207
1.026102,0.04749264,0.0710359
1.025121,0.04555579,0.07682186
1.022497,0.04444552,0.08450601
1.024868,0.04276474,0.08389045
1.02516,0.04524973,0.07600625
1.022879,0.04610054,0.07279415
1.021857,0.04746439,0.07135691
1.021698,0.05187383,0.07099632
1.021856,0.05237353,0.07408546
1.020483,0.05252015,0.07734287
1.021491,0.05402605,0.07924439
1.023076,0.05588007,0.07838734
1.022019,0.05587869,0.07809994
1.023087,0.05182163,0.07877108
1.023754,0.04989795,0.07931506
1.021681,0.04982251,0.07952592
1.02008,0.04985438,0.07682372
1.019751,0.05058491,0.07685098
1.019618,0.05035119,0.07560266
1.01962,0.0506844,0.07162801
1.022263,0.04914359,0.07271814
1.024425,0.04765866,0.07229734
1.02271,0.04914968,0.0736724
1.021593,0.04859791,0.07571079
1.022349,0.04829334,0.07067645
1.022073,0.04918519,0.06886087
1.020216,0.04921836,0.07107061
1.019126,0.05018984,0.07326329
1.020248,0.04875889,0.07368005
1.021335,0.04526765,0.07373294
1.021403,0.04345919,0.07536007
1.023211,0.04263071,0.07020902
1.025874,0.04246043,0.0670421
1.02424,0.04327122,0.07291453
1.021819,0.04522517,0.07642344
1.0231,0.04645824,0.07448968
1.02306,0.04633534,0.07169503
1.021825,0.04565409,0.07196613
1.022543,0.04381298,0.07161536
1.024118,0.04317544,0.07261568
1.025536,0.04366547,0.07532327
1.024793,0.04448048,0.07330172
1.02284,0.04652248,0.07369961
1.021917,0.04581783,0.07405201
1.021988,0.043192,0.07215898
1.022521,0.04204331,0.07238133
1.022154,0.04117978,0.07087694
1.022418,0.04150466,0.0738732
1.024247,0.04112199,0.0752813
1.025205,0.0396103,0.07130988
1.024339,0.04036877,0.07168484
1.022848,0.0416191,0.07149188
1.022664,0.04529818,0.0806391
1.022363,0.05046819,0.09378254
1.021734,0.04885274,0.08596151
1.022737,0.04547628,0.07637835
1.023147,0.04642295,0.07814527
1.023752,0.04750638,0.07664981
1.024976,0.04877624,0.07615956
1.024843,0.04798604,0.07877132
1.024851,0.04403313,0.07890376
1.030982,-0.01525143,0.03386929
1.029086,-0.01251948,0.03147752
1.02857,-0.008178214,0.0277539
1.027593,-0.006502461,0.0288301
1.024466,-0.008272249,0.02983652
1.025281,-0.01102707,0.02660976
1.026929,-0.009479003,0.02636785
1.028191,-0.008074199,0.02863217
1.028343,-0.009084532,0.03160701
1.028037,-0.008853509,0.03377634
1.029668,-0.01101831,0.03281956
1.028179,-0.01147162,0.0315863
1.025599,-0.008657349,0.03117908
1.023796,-0.007451376,0.03548856
1.021443,-0.004498603,0.04082191
1.022891,-0.001715497,0.03737999
1.024535,-0.001583374,0.03425672
1.023988,-0.00209111,0.03685028
1.027204,-0.004144143,0.03639871
1.031471,-0.007095195,0.03543739
1.030858,-0.007657467,0.03751855
1.028786,-0.005183412,0.04044877
1.028321,-0.004223675,0.04385925
1.027507,-0.003416406,0.0421422
1.027561,-0.0023149,0.03770364
1.027809,-0.004967501,0.0370986
1.025383,-0.006165416,0.03470053
1.022669,-0.00540229,0.03509475
1.02183,-0.005230011,0.03951085
1.023257,-0.003636378,0.03759801
1.025152,-0.002792535,0.0383227
1.025598,-0.004220579,0.04167662
1.027639,-0.005400935,0.03795724
1.029163,-0.0004174386,0.03677101
1.024897,0.005191613,0.03886276
1.020368,0.002766564,0.03935217
1.021917,0.001713651,0.04068946
1.023374,0.003480815,0.04103687
1.021988,0.001109692,0.04034484
1.024879,-0.001999092,0.04058188
1.027963,-0.004198295,0.04398714
1.026946,-0.004812869,0.04666022
1.027968,-0.003722656,0.0431337
1.02914,-0.00416542,0.04051359
1.028455,-0.004462143,0.04262795
1.026619,-0.003664539,0.04404174
1.023107,-0.003433296,0.04365756
1.022978,-0.002379376,0.04359307
1.024499,-0.001582522,0.04051616
1.024546,-0.001539944,0.03561297
1.026972,-0.001047102,0.03729102
1.028891,-0.001559332,0.0398561
1.027884,-0.001508808,0.03982551
1.02709,-0.001269372,0.04385978
1.026729,-0.002922081,0.04475247
1.0266,-0.005245944,0.04127924
1.025246,-0.008824098,0.0406052
1.023874,-0.01038224,0.03610639
1.025586,-0.007548363,0.0299169
1.025337,-0.004915004,0.03450848
1.024885,-0.003529868,0.04249376
1.028554,-0.002453417,0.04455081
1.028428,-0.002526741,0.04397354
1.026502,-0.003077623,0.03612733
1.028422,-0.00273928,0.02745663
1.028553,-0.002931702,0.02979998
1.026657,-0.004822054,0.03637096
1.026013,-0.00542714,0.04367382
1.025157,-0.003044239,0.04146707
1.025157,-0.0006929008,0.03247911
1.027032,-0.002848387,0.03559169
1.025697,-0.005558467,0.03748249
1.023932,-0.003825266,0.03733053
1.025638,-0.00373179,0.04097636
1.02493,-0.004808797,0.03771586
1.024645,-0.003547259,0.03872752
1.025709,-0.003369774,0.039679
1.02561,-0.002690503,0.03549784
1.027603,-0.002898032,0.03571261
1.027676,-0.006651082,0.03394293
1.027175,-0.01109722,0.03459038
1.028421,-0.01295946,0.0355991
1.027551,-0.008083903,0.0336432
1.027245,-0.003396335,0.03548289
1.026502,-0.005723381,0.03454994
1.024376,-0.006392978,0.03433678
1.023671,-0.004781517,0.03488181
1.023551,-0.005631901,0.03135947
1.025254,-0.004682464,0.03015156
1.027319,-0.002634584,0.03037557
1.028614,-0.002672857,0.03160708
1.031694,-0.002811615,0.03146805
1.031548,-0.002947552,0.02984259
1.028022,-0.003539966,0.03190553
1.025995,-0.003641799,0.03662459
1.023983,-0.00429155,0.04394819
1.024899,-0.007676362,0.04570854
1.026059,-0.01083448,0.03941345
1.024983,-0.008171572,0.03638545
1.027065,-0.005434021,0.03711092
1.026897,-0.007621815,0.03751519
1.02609,-0.00817277,0.03503307
1.027215,-0.008165894,0.03252722
1.02491,-0.0098033,0.03380148
1.025245,-0.008573396,0.03369403
1.025598,-0.004425075,0.03487773
1.023119,0.0001263892,0.03935485
1.023829,-0.0006410619,0.04385112
1.023825,-0.004180041,0.04906314
1.024198,-0.004073715,0.04909709
1.026234,-0.0059077,0.04652112
1.027453,-0.006463657,0.04439671
1.029886,-0.004382733,0.03393908
1.029178,-0.005115623,0.02907966
1.025645,-0.0003346601,0.04200331
1.024634,0.005076431,0.05146026
1.024749,0.001957283,0.04667955
1.025252,-0.001575751,0.04165918
1.025073,-0.003288131,0.04191783
1.024325,-0.003290233,0.04133085
1.023528,-0.001971319,0.04235616
1.021556,-0.002106058,0.04573711
1.02243,-0.001467512,0.04413654
1.025752,-0.001864112,0.04028918
1.027464,-0.003654923,0.04056374
1.027531,-0.003996237,0.04345421
1.025676,-0.00587391,0.04431374
1.024958,-0.00795535,0.04564404
1.024351,-0.005553512,0.04711572
1.021849,-0.0002925672,0.04381618
1.022464,0.004226621,0.04358315
1.024844,0.003768127,0.04305951
1.02786,0.001345798,0.03997977
1.029969,0.003300382,0.04310914
1.026077,0.003472187,0.04217975
1.022623,0.00288328,0.04132794
1.022733,0.006081063,0.04820733
1.022099,0.005408464,0.04992465
1.022419,0.00310894,0.04418724
1.024173,0.001520258,0.03803299
1.025493,-0.001304238,0.04170144
1.02519,-0.001450901,0.04749145
1.024608,-0.0007836586,0.04540165
1.025224,0.002112825,0.04710526
1.025383,0.005425035,0.04764516
1.02661,0.003260474,0.04650451
1.028152,0.001961215,0.05389353
1.026106,0.003083652,0.05761643
1.024032,0.002169829,0.05377631
1.025069,-0.000979425,0.05118106
1.025406,-0.00382224,0.04922808
1.024447,-0.002381226,0.04558002
1.024214,0.001464803,0.04240329
1.023653,0.003375412,0.0405504
1.024346,0.001646199,0.03878488
1.026551,-0.002076312,0.04048985
1.026619,-0.003519742,0.04379919
1.025457,-0.002544175,0.04207139
1.023142,-0.001646086,0.03938397
1.020554,-0.001287795,0.04054868
1.022263,-0.00145702,0.04051142
1.024278,-0.002925472,0.03866882
1.024072,-0.005730884,0.03893647
1.025947,-0.007604982,0.03807609
1.028198,-0.006261684,0.03787
1.030262,-0.004710799,0.03956543
1.031035,-0.005247506,0.03872226
1.027326,-0.003150939,0.03787871
1.025391,-0.0003317211,0.03608782
1.026494,-0.002414778,0.03745192
1.025541,-0.00471779,0.04495219
1.025383,-0.00496632,0.04461638
1.028481,-0.005837035,0.04000038
1.031639,-0.005904229,0.04124384
1.030095,-0.006137189,0.03778309
1.027867,-0.007409384,0.03235677
1.029714,-0.007056416,0.03491561
1.029401,-0.005884537,0.0363805
1.02856,-0.003631124,0.03731516
1.029542,-0.000785864,0.04202852
1.027839,-0.003514996,0.04165341
1.026359,-0.007748198,0.04001957
1.025403,-0.007116394,0.03904163
1.024678,-0.007766213,0.03467651
1.0263,-0.007417843,0.03612708
1.027737,-0.003303058,0.0415965
1.028751,-0.003956477,0.04457241
1.028598,-0.005851581,0.04654704
1.027374,-0.00518486,0.04322466
1.027689,-0.005556361,0.04013215
1.027993,-0.00369275,0.04311154
1.02731,-0.001983967,0.0434429
1.025974,-0.003327167,0.04170026
1.024521,-0.004996852,0.04147049
1.024749,-0.007807896,0.04038025
1.025574,-0.008764836,0.03933241
1.025748,-0.006315905,0.03846755
1.026879,-0.00487069,0.0388311
1.028179,-0.005700102,0.03889742
1.027537,-0.007525003,0.0367312
1.025997,-0.01052144,0.03574121
1.025035,-0.01370621,0.03613789
1.02505,-0.01256004,0.03719948
1.025011,-0.008840625,0.03603721
1.024822,-0.005328806,0.02841403
1.025231,-0.001227611,0.02309531
1.024887,-0.002188857,0.03341444
1.024916,-0.004155835,0.04648884
1.02523,-0.001858679,0.04266287
1.02493,-0.002628727,0.04067711
1.026037,-0.002507748,0.04820264
1.02668,-0.0005195896,0.04494366
1.026696,-0.00267979,0.04000998
1.02818,-0.003199841,0.03911419
1.029283,-0.002824028,0.03733366
1.027529,-0.005856829,0.03972746
1.024107,-0.01128512,0.03714941
1.022903,-0.01566829,0.03448765
1.022369,-0.01322407,0.03759157
1.022694,-0.01106284,0.03744366
1.025512,-0.01328305,0.03912249
1.026155,-0.01235886,0.03874341
1.026259,-0.01094035,0.03595205
1.027035,-0.01045197,0.03780688
1.026499,-0.009076744,0.03872035
1.026399,-0.009266763,0.04163815
1.024734,-0.00735487,0.04388586
1.024243,-0.004173206,0.04264785
1.02583,-0.004217087,0.04539462
1.025035,-0.002721091,0.04759349
1.027091,-0.0004526305,0.0481258
1.030975,-0.002537747,0.04908059
1.030197,-0.004630013,0.04805748
1.028319,-0.004935117,0.04646076
1.027759,-0.005919654,0.04308182
1.026363,-0.006038603,0.03910166
1.024805,-0.007000155,0.03663662
1.026174,-0.009685186,0.03535215
1.027841,-0.01151544,0.036446
1.027631,-0.01457481,0.03712309
1.028099,-0.01654331,0.03649022
1.02761,-0.01442812,0.03617829
1.027255,-0.01303936,0.03578559
1.026407,-0.01163306,0.03627465
1.024027,-0.009289585,0.03624077
1.025006,-0.00707314,0.03581493
1.025671,-0.002800393,0.0363708
1.025736,-0.002246011,0.03673637
1.028749,-0.004007355,0.03958653
1.029763,-0.001946894,0.0431405
1.029057,-0.002701614,0.0427899
1.02922,-0.003523807,0.04259947
1.030127,-0.002282049,0.04377087
1.030737,-0.00505355,0.04379101
1.029417,-0.006322091,0.04378861
1.027578,-0.006748493,0.04077653
1.025861,-0.01005597,0.03416551
1.025225,-0.01199364,0.03106378
1.025876,-0.01196707,0.031368
1.025957,-0.01076261,0.03176782
1.026437,-0.01163131,0.03227464
1.027431,-0.01470356,0.03083148
1.026862,-0.01565866,0.03005498
1.025187,-0.01357092,0.0310874
1.02464,-0.01141295,0.03127422
1.025431,-0.01216966,0.03133262
1.026893,-0.009889771,0.02771738
1.028048,-0.005134268,0.02428573
1.026918,-0.005291995,0.03084884
1.024885,-0.006741777,0.0395017
1.024743,-0.007166422,0.0401718
1.025212,-0.006855232,0.0391435
1.024736,-0.005795025,0.04161036
1.024261,-0.005513503,0.0421285
1.024321,-0.005349949,0.0397685
1.025599,-0.005718228,0.03729531
1.028066,-0.006128388,0.03437916
1.029659,-0.00803113,0.03468532
1.029332,-0.01024519,0.03799652
1.027876,-0.007033584,0.03945396
1.027525,-0.003047175,0.03877255
1.027973,-0.003105229,0.03672145
1.027817,-0.003509997,0.03564178
1.028729,-0.005049485,0.03613848
1.02878,-0.007981419,0.0361905
1.025551,-0.008060231,0.03647243
1.022847,-0.009638589,0.03818524
1.024946,-0.01377512,0.04090467
1.027654,-0.01064925,0.03979191
1.025264,-0.00522399,0.03356085
1.023927,-0.005431197,0.03152375
1.024777,-0.005527432,0.03830495
1.023456,-0.005496601,0.0442379
1.025348,-0.005820197,0.04152957
1.028347,-0.005024179,0.03935528
1.027835,-0.005086985,0.04332566
1.027822,-0.004766758,0.04472154
1.028732,-0.005529015,0.04354034
1.02907,-0.006518836,0.0447541
1.027509,-0.007138846,0.04628541
1.025579,-0.01083459,0.04543314
1.026709,-0.01172901,0.04219255
1.028575,-0.008728058,0.04003441
1.029226,-0.0079194,0.03906452
1.028545,-0.008613621,0.03865409
1.027215,-0.01032398,0.04147885
1.027889,-0.01162442,0.04264806
1.028879,-0.01115001,0.0398275
1.02822,-0.01094341,0.03928152
1.027693,-0.01132646,0.03975548
1.027426,-0.01209588,0.03916136
1.026963,-0.01267279,0.03825408
1.026237,-0.01261896,0.03402936
1.02607,-0.01238149,0.03134056
1.026563,-0.01246634,0.03587127
1.025401,-0.01264816,0.04181956
1.024545,-0.01217943,0.04272755
1.025197,-0.0116477,0.04023049
1.025147,-0.01091744,0.03817688
1.025855,-0.01014151,0.03699073
1.026734,-0.007886047,0.04322714
1.0264,-0.005008072,0.05101319
1.026638,-0.008632792,0.04281191
1.028204,-0.0134287,0.03513854
1.029953,-0.01179855,0.04162223
1.030198,-0.01190032,0.04261117
1.030429,-0.01349102,0.03651032
1.030394,-0.01157919,0.03340262
1.027464,-0.01063725,0.03173762
1.024646,-0.01054678,0.03218164
1.024609,-0.01346826,0.03486677
1.025305,-0.01835557,0.03947461
1.025009,-0.01454581,0.04358798
1.024795,-0.00837429,0.04267211
1.025378,-0.008633557,0.04235607
1.025827,-0.01078107,0.04359996
1.026582,-0.01347736,0.04069212
1.026653,-0.01249853,0.03826959
1.026038,-0.008552668,0.03715101
1.026377,-0.007347981,0.03556353
1.02521,-0.006327058,0.0370034
1.022728,-0.007305726,0.03810915
1.022497,-0.009293173,0.03764785
1.025856,-0.009758465,0.03976669
1.030414,-0.01105467,0.04360332
1.031523,-0.01011752,0.04526255
1.031117,-0.008831138,0.04343025
1.029565,-0.00731644,0.04186209
1.024816,-0.004439196,0.04065968
1.023984,-0.005484192,0.03812685
1.026403,-0.006474267,0.03802626
1.02735,-0.006855576,0.03858896
1.02949,-0.008920356,0.03896011
1.027892,-0.007652964,0.04327981
1.023961,-0.006331674,0.04441029
1.025031,-0.008053148,0.0408691
1.025422,-0.008802349,0.04163741
1.024869,-0.008172016,0.04218373
1.026756,-0.008244183,0.04081081
1.026805,-0.008683902,0.04127386
1.025989,-0.009095666,0.03988346
1.026468,-0.01003324,0.03991954
1.027063,-0.009877582,0.04165108
1.028569,-0.009060447,0.04332639
1.029606,-0.00795843,0.04709957
1.027299,-0.005483076,0.04606951
1.025727,-0.005320934,0.04196519
1.028481,-0.008147128,0.03863717
1.029933,-0.01057003,0.03358152
1.028447,-0.01171359,0.03442755
1.026397,-0.01113233,0.03868345
1.024245,-0.01057215,0.03895281
1.025071,-0.01052882,0.03920246
1.027352,-0.00937692,0.03841809
1.02801,-0.009650055,0.03680779
1.028142,-0.01105086,0.0367805
1.028461,-0.01110638,0.03908465
1.029454,-0.01140428,0.04217475
1.028893,-0.01198641,0.03676696
1.02609,-0.01263312,0.03039464
1.024929,-0.01317289,0.03384763
1.027407,-0.01392691,0.03547451
1.030403,-0.01594422,0.03479038
1.029393,-0.01564195,0.03750283
1.02795,-0.01439703,0.03935962
1.028018,-0.01466029,0.04270961
1.025772,-0.01270643,0.04254573
1.025795,-0.01181815,0.03443711
1.027495,-0.01298331,0.03144855
1.026548,-0.01234508,0.03517077
1.026951,-0.01205045,0.03649857
1.025769,-0.0112763,0.03774031
1.023883,-0.01076129,0.03879483
1.026089,-0.0131348,0.03429509
1.027773,-0.01400004,0.02927587
1.029521,-0.01347933,0.03023653
1.029989,-0.01422237,0.03340946
1.028233,-0.01371692,0.0372987
1.029159,-0.01272307,0.04261923
1.027856,-0.01253289,0.04137714
1.026121,-0.01206567,0.03587307
1.028378,-0.01193295,0.03652581
1.028257,-0.01147112,0.0398971
1.027953,-0.01062462,0.04228798
1.028554,-0.009731661,0.04105396
1.025731,-0.009103172,0.03617618
1.024052,-0.009941719,0.03513913
1.025238,-0.009150879,0.0342105
1.025247,-0.008454078,0.03351144
1.024682,-0.01037448,0.0382518
1.025141,-0.009303634,0.0429941
1.02507,-0.00622503,0.04632644
1.024818,-0.003383687,0.04433616
1.025704,-0.001681148,0.03943798
1.02761,-0.003912669,0.04234138
1.029584,-0.006957159,0.04547119
1.02782,-0.01068356,0.04529388
1.024911,-0.0123478,0.04543168
1.025673,-0.009245029,0.04196016
1.025258,-0.008461038,0.04071766
1.024282,-0.008386863,0.04220113
1.025702,-0.007082256,0.04061534
1.026014,-0.008188911,0.040896
1.027068,-0.009640137,0.04207944
1.027499,-0.01187604,0.04215991
1.024481,-0.01321906,0.04417744
1.022777,-0.01188222,0.04565061
1.022256,-0.01069965,0.04444734
1.022685,-0.009451651,0.04260389
1.024712,-0.0102929,0.04247318
1.025347,-0.01173595,0.04312779
1.026547,-0.009471952,0.04640136
1.027044,-0.006563046,0.05045004
1.025724,-0.004940183,0.04851179
1.026592,-0.00541197,0.04773035
1.026649,-0.007024631,0.04953723
1.025931,-0.006926877,0.04760678
1.027471,-0.007125576,0.04588231
1.029843,-0.007952287,0.04399935
1.032548,-0.008049648,0.04332619
1.030855,-0.006823929,0.04359493
1.027526,-0.004751625,0.04000016
1.029509,-0.005718235,0.03783884
1.029758,-0.007958948,0.03688613
1.028363,-0.008405782,0.03714899
1.029496,-0.008823322,0.04182732
1.028218,-0.009383068,0.04484314
1.027043,-0.0116546,0.04553535
1.026996,-0.01331621,0.04196207
1.025126,-0.0112928,0.03653326
1.024623,-0.01064558,0.03910522
1.025151,-0.0111839,0.04131552
1.025017,-0.01013619,0.04118215
1.024966,-0.009834109,0.04405122
1.025332,-0.01138056,0.04230289
1.026858,-0.0129004,0.04057753
1.028259,-0.01050479,0.0426941
1.028005,-0.007210958,0.04329959
1.027409,-0.008565258,0.04498588
1.027543,-0.01127206,0.04585167
1.026153,-0.01163258,0.0454309
1.024181,-0.01061071,0.0468216
1.02498,-0.01068305,0.04855071
1.025401,-0.01153033,0.05221989
1.024473,-0.009860026,0.05573755
1.024233,-0.006212684,0.05633331
1.023583,-0.005589056,0.05501378
1.02425,-0.007343746,0.05011746
1.025611,-0.006272911,0.04432071
1.024942,-0.007240656,0.04001256
1.024744,-0.009834827,0.03978793
1.025266,-0.007651013,0.04558855
1.024885,-0.008039627,0.04637741
1.024955,-0.00918321,0.04329635
1.025128,-0.007663606,0.04592059
1.02488,-0.009673227,0.04587326
1.025055,-0.009356597,0.04467831
1.025021,-0.005790232,0.04648086
1.02493,-0.003636438,0.04243211
1.025078,-0.004280991,0.0387272
1.02495,-0.007397882,0.03983183
1.025007,-0.007962334,0.0409225
1.024675,-0.009922262,0.0443126
1.022983,-0.01096144,0.0470235
1.020832,-0.008419674,0.04783846
1.021211,-0.01020622,0.04885775
1.02561,-0.0101368,0.04888344
1.029165,-0.008839786,0.0495053
1.028098,-0.01053519,0.05012825
1.026953,-0.009337162,0.05021346
1.028191,-0.009602642,0.04987266
1.027947,-0.01054606,0.04966264
1.027318,-0.01113709,0.0487424
1.027979,-0.01433313,0.04427579
1.026971,-0.01408529,0.04105507
1.026465,-0.01216817,0.04134268
1.026474,-0.01058107,0.04160291
1.024504,-0.008030311,0.0399661
1.024573,-0.007899475,0.03907473
1.025567,-0.007696593,0.04434129
1.024745,-0.007615557,0.04902628
1.024919,-0.01223126,0.04603905
1.02523,-0.01711665,0.04188142
1.024814,-0.01547393,0.04182325
1.025052,-0.01164299,0.0444161
1.025066,-0.01001994,0.04660796
1.025422,-0.007457806,0.04627821
1.027766,-0.007727011,0.04563716
1.029787,-0.009455375,0.0482601
1.028374,-0.007436454,0.04879123
1.02588,-0.007243155,0.04618722
1.025362,-0.006348534,0.0461812
1.024977,-0.00464725,0.04256345
1.024667,-0.007380967,0.03723421
1.025325,-0.009038972,0.03877941
1.024921,-0.009945127,0.04062709
1.024649,-0.01025612,0.0428156
1.02421,-0.009020416,0.04812678
1.022221,-0.01027661,0.04647828
1.022086,-0.01088145,0.0388554
1.024028,-0.01187244,0.03428927
1.027372,-0.01298828,0.03334213
1.03005,-0.01012413,0.03544311
1.027393,-0.008413138,0.03582888
1.024225,-0.009050464,0.03587113
1.024997,-0.01030673,0.04036782
1.02547,-0.01186698,0.04319327
1.025612,-0.01257081,0.04666521
1.026969,-0.01276063,0.04693311
1.027426,-0.01129938,0.04107027
1.02753,-0.01054851,0.04158467
1.027234,-0.01052022,0.04106012
1.025873,-0.009240265,0.0392994
1.026257,-0.009706736,0.04222558
1.026819,-0.009627183,0.0412967
1.026035,-0.008011099,0.04180041
1.026312,-0.00855199,0.04201884
1.025628,-0.01105678,0.04089323
1.024488,-0.01269814,0.04251595
1.025279,-0.01145798,0.04094973
1.02601,-0.01038909,0.04078758
1.026521,-0.009346172,0.04118682
1.026579,-0.006754379,0.04303637
1.026333,-0.007090824,0.047413
1.027562,-0.01010542,0.04404479
1.028814,-0.01253789,0.04192542
1.028352,-0.0120246,0.04553723
1.026622,-0.009434212,0.04634819
1.025853,-0.009456253,0.04584224
1.026975,-0.009677121,0.0455732
1.027727,-0.007721454,0.04582182
1.026991,-0.006674308,0.04446798
1.025474,-0.007624454,0.04089767
1.026391,-0.008957579,0.03819211
1.029963,-0.008504999,0.03916784
1.031042,-0.009209148,0.0447256
1.029811,-0.0123467,0.04678521
1.027004,-0.01387296,0.04259156
1.023732,-0.01427152,0.03983852
1.025313,-0.01479824,0.04147133
1.028456,-0.01535587,0.0450051
1.029424,-0.0155909,0.04586545
1.029422,-0.01479844,0.04175702
1.027858,-0.01443656,0.03620946
1.027159,-0.01362412,0.0353548
1.026216,-0.01190077,0.03941207
1.024257,-0.008886195,0.04390426
1.025104,-0.004705678,0.04707722
1.026282,-0.005272844,0.04684581
1.026362,-0.008266085,0.0474693
1.026764,-0.008361545,0.05036194
1.027137,-0.008521325,0.04505387
1.028047,-0.007931153,0.03939348
1.028179,-0.006324608,0.04477471
1.02797,-0.005361505,0.04878455
1.02766,-0.005074715,0.04769589
1.025093,-0.006022129,0.0483759
1.024314,-0.006226355,0.04725128
1.026482,-0.00877841,0.04484883
1.026436,-0.01249355,0.0457786
1.025285,-0.01033317,0.04654768
1.024904,-0.008638521,0.04574755
1.024764,-0.009723035,0.04527731
1.025254,-0.006717949,0.04396112
1.024771,-0.00266597,0.04358812
1.023944,-0.002163017,0.04278676
1.024125,-0.003095377,0.04042846
1.025992,-0.002838019,0.04238907
1.028494,-0.002731756,0.04505628
1.026307,-0.003858965,0.04697168
1.023612,-0.004378479,0.05297001
1.025377,-0.004395862,0.05686269
1.025527,-0.004963774,0.05613807
1.025539,-0.005650171,0.05483197
1.027732,-0.004862447,0.05476965
1.026836,-0.003932305,0.05268684
1.024088,-0.006182864,0.04802465
1.023245,-0.008657139,0.04889368
1.024652,-0.008519233,0.04953844
1.026292,-0.00799897,0.04775579
1.025649,-0.006745707,0.05107948
1.024636,-0.003149715,0.05200992
1.024942,-0.0001531256,0.05100209
1.025161,-0.001154768,0.0516944
1.024941,-0.002353443,0.05162522
1.025119,-0.001769515,0.0542817
1.025989,-0.003033811,0.05635119
1.025897,-0.00325931,0.05533089
1.022899,-0.00214879,0.05346212
1.019789,-0.003290729,0.05223078
1.021675,-0.003740888,0.05233095
1.025382,-0.004105437,0.05017231
1.02638,-0.004821705,0.04808451
1.028343,-0.004628232,0.05013247
1.029466,-0.005938978,0.05246636
1.02624,-0.005870615,0.0521427
1.023891,-0.004815719,0.05429465
1.023991,-0.004884772,0.05793454
1.024331,-0.002923616,0.0530836
1.025977,-0.002203445,0.04652439
1.02828,-0.003363523,0.04739953
1.026558,-0.003520523,0.05015672
1.023697,-0.004940567,0.05178287
1.026145,-0.007077868,0.04995314
1.02728,-0.008089253,0.04735992
1.025514,-0.005293429,0.04846919
1.025788,-0.001047187,0.04726324
1.02479,-0.00254045,0.04583461
1.024796,-0.003882497,0.05125599
1.026432,-0.001915815,0.05624081
1.02666,-0.003303908,0.05458317
1.028351,-0.004961986,0.05394324
1.029666,-0.00551661,0.05566508
1.029049,-0.004053889,0.05105331
1.028121,0.005683601,0.04579342
1.02748,0.01258372,0.04779573
1.028024,0.003050176,0.04905357
1.028711,-0.007476033,0.04832191
1.029195,-0.003500016,0.05107562
1.028277,-0.002846658,0.05424013
1.026322,-0.009768379,0.05506006
1.026008,-0.005021751,0.0517133
1.025417,0.00103937,0.04703736
1.023993,0.001847885,0.04985259
1.024141,0.003550996,0.0534237
1.025329,-0.002995242,0.05024983
1.02527,-0.008734965,0.04918616
1.024611,-0.008390647,0.04863717
1.025709,-0.008508135,0.04618239
1.027779,-0.005647187,0.04778761
1.029559,-0.004079798,0.04929499
1.028824,-0.002202278,0.050459
1.026779,-0.0009376292,0.05132909
1.027753,-0.004650293,0.04765029
1.027362,-0.006669035,0.04472718
1.025324,-0.008529929,0.04546156
1.025939,-0.01017103,0.04655362
1.025824,-0.009942145,0.04561576
1.026354,-0.0096482,0.04490238
1.027923,-0.009387629,0.04379623
1.027223,-0.01021283,0.04075207
1.025966,-0.009447959,0.0431601
1.023646,-0.009589709,0.04597729
1.023011,-0.009653271,0.0438198
1.025137,-0.006488034,0.04433992
1.025805,-0.005652501,0.04554847
1.028474,-0.007859209,0.0471196
1.031278,-0.01037192,0.04915752
1.028081,-0.006950515,0.04824003
1.024926,-0.0008973271,0.05052052
1.026411,-0.001677591,0.05256565
1.027102,-0.004195982,0.04724285
1.025789,-0.006410352,0.04241983
1.026311,-0.006888812,0.04172059
1.025825,-0.005133678,0.04470633
1.024261,-0.004926793,0.05179786
1.025036,-0.002734067,0.05394883
1.024274,-0.002187905,0.05047789
1.023561,-0.004340946,0.04884095
1.026466,-0.006762051,0.04726527
1.028467,-0.01142669,0.04518371
1.026942,-0.01112927,0.0437346
1.024651,-0.009087447,0.04105583
1.024896,-0.01010734,0.03811994
1.025267,-0.007377047,0.04086941
1.024699,-0.00529921,0.04790204
1.024862,-0.006186988,0.04740677
1.023157,-0.007966983,0.03776582
1.022278,-0.01082999,0.02988835
1.025796,-0.009937186,0.03686485
1.028892,-0.008957192,0.04772546
1.027236,-0.01032746,0.04506919
1.025375,-0.009550109,0.04805569
1.027715,-0.00953434,0.05424936
1.028197,-0.01005319,0.04650614
1.02635,-0.009447207,0.04412825
1.026605,-0.009838185,0.04683291
1.027113,-0.009766653,0.04537689
1.028117,-0.009403712,0.04607819
1.027681,-0.008802946,0.04570772
1.025126,-0.007066661,0.04578586
1.023053,-0.006586849,0.0464424
1.021375,-0.007448289,0.04723223
1.022598,-0.008400312,0.04882079
1.024534,-0.008411537,0.0443159
1.025153,-0.006647197,0.03796637
1.026223,-0.006325835,0.03657977
1.025404,-0.007891506,0.03945386
1.024755,-0.008807908,0.04411066
1.02528,-0.01084919,0.04712689
1.025918,-0.01201151,0.04834903
1.027756,-0.01037862,0.04924455
1.027854,-0.01019108,0.04963312
1.02674,-0.009860432,0.04386676
1.026031,-0.009145731,0.03488976
1.025632,-0.01020818,0.03355318
1.027021,-0.009444459,0.03697758
1.028938,-0.008563391,0.04104107
1.029259,-0.008480744,0.04499539
1.026306,-0.007884068,0.04694265
1.023882,-0.008665215,0.04899641
1.025141,-0.008338271,0.04934284
1.024962,-0.007863071,0.04706871
1.022912,-0.007821289,0.04419122
1.022157,-0.006398953,0.04122861
1.023803,-0.006897288,0.04339206
1.025922,-0.007294225,0.04785158
1.025023,-0.006949979,0.0450755
1.024513,-0.008926299,0.04111636
1.025784,-0.01007273,0.03999854
1.026827,-0.008936444,0.03810474
1.029098,-0.007972849,0.04019707
1.029875,-0.009196996,0.04257202
1.028679,-0.01053245,0.04152809
1.029224,-0.01020693,0.0416848
1.029403,-0.010397,0.04153415
1.02851,-0.009599533,0.04195665
1.027569,-0.00795638,0.0430064
1.025828,-0.006693733,0.04515663
1.026053,-0.00483262,0.04867337
1.026978,-0.005329306,0.04869435
1.026047,-0.006181568,0.04748306
1.026178,-0.005086849,0.04574076
1.025591,-0.006173287,0.04330028
1.023531,-0.008471351,0.04201826
1.023407,-0.01019285,0.04155831
1.023714,-0.01030693,0.04495862
1.023759,-0.008661689,0.04828226
1.02454,-0.007966777,0.0474281
1.025388,-0.005645714,0.04618772
1.026241,-0.003279932,0.04802736
1.027321,-0.002831657,0.05340181
1.028055,7.583857e-05,0.05708502
1.026712,0.002577167,0.05690923
1.024927,0.003503714,0.05464748
1.025274,0.0006100632,0.05366736
1.02677,-0.0058508,0.0538962
1.028168,-0.003773615,0.04958449
1.027153,0.0005025109,0.04791014
1.026113,0.0006615471,0.05103952
1.029289,0.004679561,0.04997839
1.029824,0.005121752,0.05127166
1.021574,0.002297441,0.05485068
1.014472,0.0009167781,0.05488549
1.020299,-0.004328556,0.05750016
1.026914,-0.005512537,0.05757239
1.022039,-0.002857893,0.05424285
1.02137,-0.003666577,0.05536141
1.027341,-0.002717407,0.05419428
1.027795,-0.002561561,0.05170981
1.026245,-0.005182484,0.05294989
1.024328,-0.006696134,0.0533602
1.024069,-0.01052159,0.05472936
1.024278,-0.01551904,0.05792471
1.022374,-0.01680138,0.05734743
1.029188,-0.01738194,0.0491955
1.036301,-0.01959125,0.0416041
1.031093,-0.0173987,0.04539618
1.025483,-0.01218134,0.05079884
1.026283,-0.01189453,0.04690095
1.028544,-0.01143615,0.03869735
1.027279,-0.01008949,0.03165003
1.027793,-0.01189537,0.02890742
1.031276,-0.01173218,0.03024313
1.028529,-0.01454421,0.03340026
1.02816,-0.02024125,0.03748977
1.030772,-0.01972635,0.03727289
1.028075,-0.01699127,0.03718032
1.029233,-0.01211593,0.04397798
1.029604,-0.00524276,0.04664444
1.026284,-0.004324572,0.04406838
1.026841,-0.0063367,0.04270912
1.027031,-0.006108273,0.04084022
1.028802,-0.00778689,0.04163279
1.029161,-0.01042169,0.04274824
1.026271,-0.007240343,0.04375383
1.026048,-0.003933427,0.0470027
1.022833,-0.005689149,0.04612018
1.021354,-0.005131916,0.04517872
1.024736,-0.003698353,0.04716578
1.025172,-0.006299342,0.04663007
1.02422,-0.00879677,0.04529104
1.024016,-0.0101424,0.04176794
1.02797,-0.01357267,0.03566662
1.032206,-0.0174012,0.03488677
1.029734,-0.01686421,0.0380635
1.028082,-0.01417618,0.03752506
1.029804,-0.01363813,0.03575367
1.030228,-0.01381633,0.03452542
1.030084,-0.01378531,0.03244639
1.029125,-0.01307855,0.03325787
1.027046,-0.0120479,0.03393553
1.027444,-0.01253137,0.03292597
1.028494,-0.01216318,0.03449158
1.027306,-0.009603898,0.03508595
1.027421,-0.007816562,0.03487612
1.026347,-0.00889342,0.03664105
1.024184,-0.01037696,0.03774672
1.026163,-0.008363265,0.03690474
1.02792,-0.006219571,0.03577723
1.027419,-0.007184684,0.03825938
1.026094,-0.008961414,0.04219889
1.024857,-0.01025064,0.04462509
1.027539,-0.009816467,0.0465148
1.030417,-0.009553393,0.04475093
1.028844,-0.01071825,0.04178364
1.026776,-0.01092723,0.04130285
1.026481,-0.01199938,0.04100581
1.027023,-0.0139913,0.0419431
1.028021,-0.01361768,0.04386831
1.02712,-0.01047229,0.04598236
1.02563,-0.006449106,0.05089066
1.026422,-0.005208939,0.05618214
1.025542,-0.006501742,0.05641199
1.023455,-0.00491188,0.05506491
1.023532,-0.000319736,0.05761634
1.02378,0.002271929,0.05913526
1.024534,0.001843347,0.05699832
1.025317,0.0002684447,0.05294623
1.024981,-0.001260369,0.049154
1.02494,-0.00314748,0.05376891
1.024827,-0.003427319,0.06170518
1.024153,-0.0005116372,0.06001844
1.023304,0.001430592,0.05540843
1.023481,0.003516636,0.05650628
1.02372,0.005447022,0.05928645
1.022519,0.005050765,0.06368286
1.021974,0.006170021,0.06912282
1.022047,0.005879148,0.0649453
1.021382,0.006736952,0.05770059
1.020757,0.009707497,0.06110103
1.021535,0.007978828,0.06074574
1.023145,0.007608589,0.05403582
1.024165,0.007178807,0.05197903
1.025964,0.004092842,0.0480457
1.026116,0.003870288,0.05026608
1.023194,0.002973748,0.05834641
1.022302,0.003950427,0.05579662
1.022385,0.006745002,0.05008913
1.02222,0.005495813,0.04645461
1.024271,0.003976179,0.04772593
1.025529,0.0004820078,0.05384446
1.025026,-0.005454185,0.05382798
1.025014,-0.005393337,0.05526495
1.026275,-0.003685642,0.0561051
1.028573,-0.00586088,0.05141469
1.02896,-0.003320495,0.05297202
1.025651,0.000407012,0.05321437
1.022459,-0.002180152,0.05090197
1.024707,-0.003624248,0.05198735
1.028897,-0.004232358,0.05103731
1.029301,-0.005737061,0.05237775
1.027653,-0.005257906,0.05345054
1.023868,-0.005419094,0.05186659
1.02138,-0.0038543,0.05137084
1.024999,-0.001888116,0.04928963
1.027702,-0.002418416,0.0497097
1.026096,-0.0002801821,0.05122955
1.025018,0.002417588,0.05210823
1.025466,0.001593329,0.05521491
1.026666,0.001337226,0.05421667
1.027915,0.004366824,0.05149475
1.02622,0.005438907,0.05143452
1.022962,-2.366584e-05,0.05163341
1.023375,-0.00580519,0.05421154
1.024118,-0.005745303,0.0565141
1.023178,-0.004358981,0.05469026
1.023634,-0.003647519,0.05071038
1.022942,0.001799678,0.0481958
1.022807,0.007320078,0.05167107
1.025111,0.005931986,0.05614078
1.026282,0.0004816376,0.05368301
1.026531,-0.005570683,0.05041679
1.026229,-0.005372125,0.04992684
1.025402,-0.002490087,0.04854643
1.024995,-0.00515037,0.04930415
1.024841,-0.08362535,0.004666814
1.024475,-0.08723154,0.002112153
1.024506,-0.09192194,-0.001491481
1.024549,-0.09103654,-0.002096514
1.026084,-0.08805049,-0.002972633
1.029015,-0.08763297,-0.004838897
1.028961,-0.08365611,-0.004237996
1.026169,-0.08257134,-0.003886086
1.023596,-0.08093687,-0.003426514
1.023908,-0.07408965,0.0002909314
1.026826,-0.07718225,0.003662918
1.026669,-0.08367161,0.0006301257
1.025901,-0.08289473,-0.003677895
1.026658,-0.08287215,-0.002882591
1.025237,-0.08204585,-0.003942975
1.024383,-0.08339563,-0.004040052
1.023303,-0.08822882,0.003341778
1.021587,-0.08851566,0.009095592
1.022531,-0.08877713,0.009516629
1.024778,-0.08841536,0.009547375
1.028116,-0.08696255,0.01058517
1.030165,-0.08984025,0.007457235
1.028776,-0.09213561,0.001888507
1.026611,-0.09364351,0.004103913
1.024356,-0.09467587,0.006498585
1.023043,-0.0924068,0.004586793
1.024482,-0.08978596,0.00606775
1.025895,-0.0880248,0.005718623
1.025623,-0.08730617,0.004924987
1.026516,-0.08727779,0.006252067
1.026645,-0.08729484,0.005665056
1.02482,-0.08585195,0.008256991
1.023887,-0.0838534,0.01120647
1.022428,-0.08460697,0.01067297
1.021767,-0.08418135,0.009928995
1.022696,-0.08286397,0.009791579
1.023182,-0.08487158,0.0127914
1.024757,-0.08801757,0.01118615
1.02548,-0.09071357,-0.002046377
1.024407,-0.09163118,-0.01175521
1.023233,-0.09152759,-0.006443169
1.021921,-0.09189517,0.0006091095
1.023016,-0.09138313,0.0002653184
1.025231,-0.09070684,0.002100806
1.025155,-0.09016098,0.0007024239
1.024834,-0.09074711,-0.007507206
1.025107,-0.09411443,-0.007080117
1.025134,-0.09631617,-0.004629082
1.025884,-0.09328605,-0.002863683
1.026528,-0.0889548,0.00475573
1.025548,-0.08798954,0.003763016
1.02438,-0.08677311,0.0008830685
1.024093,-0.08566585,0.004138815
1.023567,-0.08916715,0.002428622
1.023501,-0.09136671,0.002319116
1.02456,-0.09021631,0.002853825
1.024377,-0.0910124,-0.002013505
1.023269,-0.09226981,-0.006216463
1.023677,-0.09245252,-0.006717276
1.024889,-0.09132135,0.0005921185
1.026072,-0.08693707,0.00782853
1.026919,-0.08209167,0.004855783
1.027251,-0.08190672,-0.0009102698
1.027903,-0.08342271,-0.003083916
1.028197,-0.08247769,0.0002405127
1.02843,-0.08374441,0.003966167
1.028953,-0.08633325,-0.0006194482
1.026714,-0.08648565,-0.00501462
1.024166,-0.08736029,-0.002308347
1.026667,-0.08940728,-0.001898193
1.028821,-0.0910152,-0.002788437
1.026404,-0.08967503,0.0002849395
1.02454,-0.08577876,0.00320336
1.023636,-0.08235742,0.005980925
1.023312,-0.08115186,0.004682004
1.025433,-0.08417763,-0.0003298193
1.026011,-0.08563671,-0.0004167091
1.026047,-0.08421283,-0.001171124
1.028221,-0.08488477,-0.002116792
1.026444,-0.08511794,0.001350239
1.024131,-0.0863518,0.00168002
1.028013,-0.08826702,0.001362496
1.030042,-0.0867766,0.002583823
1.027106,-0.08366714,0.002476232
1.025612,-0.08101817,0.002305953
1.026231,-0.08222968,-5.390721e-05
1.026218,-0.08646372,-0.003286248
1.025873,-0.08909455,-0.005945265
1.02625,-0.08930979,-0.004343688
1.024036,-0.08762164,0.001746065
1.021427,-0.08729405,0.001300749
1.022957,-0.08866867,-0.0030104
1.024106,-0.08903168,-0.005595613
1.025081,-0.08882156,-0.006651304
1.025397,-0.08787634,-0.004337966
1.022462,-0.08719687,-0.003633062
1.022064,-0.08755425,-0.001086188
1.023435,-0.08752988,0.004406076
1.024581,-0.08784402,0.005845048
1.025863,-0.08928251,0.004586621
1.025704,-0.09116528,0.0005088715
1.027518,-0.09232914,0.0007638993
1.028474,-0.09311416,0.00582392
1.026922,-0.09281769,0.004529302
1.026188,-0.08913311,0.003231269
1.024494,-0.08634938,0.004753294
1.025145,-0.08742194,0.003901939
1.028318,-0.08814515,0.002923895
1.029409,-0.08815368,0.001772287
1.028626,-0.08907632,0.000977903
1.027098,-0.08903593,0.001600297
1.027345,-0.08764769,0.00246046
1.026515,-0.0873009,0.002905394
1.023772,-0.08759,0.002875744
1.024093,-0.08723952,0.002710364
1.023887,-0.08670021,0.002708645
1.022977,-0.08471917,0.002921253
1.023878,-0.0802435,0.002676807
1.023029,-0.07469084,0.002763572
1.023655,-0.07444806,0.002900011
1.027033,-0.08128337,0.002614399
1.028633,-0.08678062,0.001831783
1.029349,-0.08849638,-0.002615722
1.029452,-0.08766536,-0.007253966
1.028862,-0.08653155,-0.006077216
1.029246,-0.08740345,-0.004428478
1.029291,-0.08667471,-0.004847521
1.028983,-0.08776785,0.0004464713
1.029282,-0.0910964,0.00653513
1.028988,-0.09137687,0.003503288
1.028187,-0.09036421,0.001163661
1.027613,-0.08827779,0.0034858
1.027422,-0.08926112,0.001925451
1.027099,-0.09142452,0.0005833683
1.025885,-0.08855531,0.002346121
1.025273,-0.08760901,0.004031947
1.025471,-0.08787461,0.006204727
1.026449,-0.08784273,0.006080395
1.028153,-0.08970259,0.004795344
1.0263,-0.08947063,0.005898556
1.023767,-0.0921225,0.00572535
1.025251,-0.0953035,0.004588323
1.025388,-0.09091938,0.002722317
1.024495,-0.08713136,-0.002251041
1.025128,-0.08873805,-0.003854626
1.024071,-0.08880969,-0.0007813653
1.023186,-0.08657627,0.001619817
1.024247,-0.0874567,0.003413002
1.026344,-0.088121,0.003311818
1.028369,-0.08650317,0.003049168
1.027205,-0.0860156,0.004594317
1.025336,-0.08535235,0.003450845
1.026047,-0.08949818,0.002351189
1.027,-0.09552007,0.004858138
1.028702,-0.09269116,0.006031996
1.030088,-0.08818783,0.004612427
1.028247,-0.08443991,0.003699517
1.026246,-0.07914418,0.004172301
1.024886,-0.08052132,0.004424577
1.025141,-0.08441925,0.00322212
1.027414,-0.08581004,0.001357626
1.026361,-0.09049577,0.001037428
1.025549,-0.0939667,0.003740941
1.026252,-0.09021124,0.003210391
1.024312,-0.08430258,-0.002200845
1.024839,-0.08181994,-0.003467987
1.025603,-0.08132112,-0.002381679
1.024411,-0.08153859,-0.002801809
1.025308,-0.08605272,-0.004185491
1.025026,-0.08996916,-0.007652067
1.024741,-0.08886655,-0.007357234
1.025154,-0.08825856,-0.005211349
1.02349,-0.08730508,-0.003565401
1.021658,-0.0854807,0.0002445732
1.020592,-0.0857612,-0.0006667859
1.022453,-0.08557508,0.0004328302
1.024659,-0.08431889,0.006543777
1.023437,-0.08483951,0.005582279
1.023282,-0.08747272,0.003106534
1.023985,-0.09049908,0.002796699
1.023424,-0.09207202,0.002209532
1.023955,-0.08918994,0.003676516
1.025516,-0.08595409,0.004433058
1.027173,-0.08772853,0.005812671
1.02845,-0.08788217,0.006249656
1.029301,-0.08595425,0.003842254
1.029542,-0.08655643,0.001456028
1.028701,-0.08777823,-0.002566934
1.028221,-0.08961131,-0.00207397
1.027432,-0.09033491,0.002124124
1.025605,-0.09079464,0.002039908
1.025303,-0.09225885,0.001962226
1.027461,-0.09069238,-0.002239206
1.029966,-0.08960042,-0.008921435
1.028714,-0.09084083,-0.007253362
1.026591,-0.09108829,-0.005899419
1.028037,-0.09184052,-0.007892786
1.026823,-0.09140579,-0.007622197
1.02371,-0.08862107,-0.0077134
1.02349,-0.08688663,-0.00445148
1.023572,-0.08736816,0.002312705
1.025227,-0.08886797,0.004124108
1.028041,-0.08885109,0.002642705
1.029589,-0.08786301,0.00434684
1.028748,-0.08739183,0.006505369
1.026954,-0.08759794,0.005525345
1.028885,-0.08955319,0.00513856
1.029519,-0.09096948,0.005921407
1.026668,-0.09100355,0.005450756
1.025382,-0.09109538,0.004367856
1.025579,-0.09136375,0.0003893675
1.027876,-0.09352191,-0.004553141
1.029125,-0.09495408,-0.003216233
1.028023,-0.09205599,-0.0002047958
1.027668,-0.08791259,-5.868052e-05
1.026424,-0.08569899,0.001528151
1.025333,-0.08498649,0.0002749427
1.025345,-0.0849696,-0.002893597
1.027422,-0.08641796,-0.0007232441
1.030404,-0.08743385,0.001643157
1.028875,-0.08411765,0.00476349
1.02618,-0.08075732,0.00822424
1.023743,-0.08372682,0.003982331
1.020977,-0.08706901,0.0002250487
1.023097,-0.0864648,0.001828947
1.027367,-0.0885553,0.002406979
1.029548,-0.09147126,0.002144202
1.027965,-0.09082749,-0.0005558618
1.024058,-0.09317404,-0.004137975
1.024705,-0.09920248,-0.002547952
1.025796,-0.100825,0.002017683
1.024304,-0.096612,0.007940023
1.02527,-0.09270007,0.0129192
1.025178,-0.09086472,0.009515084
1.024561,-0.08710641,0.003890329
1.025444,-0.08242327,0.003322031
1.02457,-0.0796223,0.001709374
1.024094,-0.07634322,0.002149171
1.02374,-0.07416623,0.004130648
1.024092,-0.07619776,0.00188882
1.025733,-0.08014972,0.002745912
1.025075,-0.08818264,0.004928043
1.025589,-0.09489833,0.009041439
1.027585,-0.09178276,0.01664624
1.028914,-0.09147303,0.01432689
1.0307,-0.09377733,0.0100546
1.028385,-0.08904216,0.01125157
1.025364,-0.08929474,0.006084655
1.02909,-0.09182538,-0.001179161
1.031777,-0.08898236,-0.003611814
1.028235,-0.08852768,-0.0003957883
1.025728,-0.08698334,0.004257351
1.025028,-0.08356522,0.002694859
1.022063,-0.08158547,0.002092574
1.02024,-0.07959532,0.0041353
1.022722,-0.08154596,0.004926221
1.02552,-0.0825504,0.007492158
1.025194,-0.07944387,0.005759925
1.024819,-0.07886843,0.002553545
1.02615,-0.07929161,0.004647038
1.026415,-0.08027033,0.004521274
1.025154,-0.0819162,0.003563236
1.0229,-0.0814517,0.004967546
1.022054,-0.0792575,0.00580873
1.025017,-0.07590582,0.006853954
1.02706,-0.07665087,0.004689117
1.024698,-0.0817885,0.001349838
1.023259,-0.08536275,0.002764551
1.027289,-0.08641594,0.003485353
1.030202,-0.08554146,0.001452653
1.026058,-0.08494105,-0.0006230647
1.021762,-0.08336089,-0.0036579
1.022251,-0.08291488,-0.003561614
1.024283,-0.08742186,-0.001671165
1.025831,-0.08853459,-0.003443864
1.026586,-0.08588567,-0.004122839
1.02585,-0.08291215,-0.004665122
1.023035,-0.0774779,-0.006530849
1.021484,-0.07651403,-0.003618189
1.024762,-0.07949439,0.002761028
1.028668,-0.08113113,0.00884196
1.029652,-0.08407809,0.008229801
1.028983,-0.08353235,0.003937114
1.027052,-0.07862207,0.006324912
1.025922,-0.07712031,0.006982319
1.026387,-0.07787765,0.004980336
1.026313,-0.07879826,0.002755201
1.025494,-0.07942281,-0.003313026
1.024653,-0.0780525,-0.0002571301
1.024936,-0.07858859,0.004879901
1.025258,-0.08317883,0.001724234
1.024774,-0.08771776,0.002106352
1.025086,-0.0868833,-0.0001638197
1.025055,-0.08468281,-0.003815165
1.024865,-0.0866593,0.001910965
1.025321,-0.08549848,0.005214578
1.0258,-0.08358509,-0.0003109139
1.027039,-0.08509039,-0.004967285
1.028329,-0.08276689,-0.002759911
1.02942,-0.080594,-0.001635846
1.029034,-0.07953495,-0.003296697
1.025874,-0.077267,0.0002534028
1.023394,-0.07931443,0.001645125
1.023582,-0.08126703,-0.003764155
1.025779,-0.07870923,-0.008576272
1.027947,-0.07679274,-0.008472162
1.027473,-0.07790524,-0.005814194
1.024963,-0.07873783,-0.005887055
1.022978,-0.08015241,-0.002091781
1.024207,-0.08389403,0.004855074
1.025912,-0.08381698,0.004172329
1.024924,-0.08147514,0.003257952
1.025793,-0.0811824,0.004865057
1.027991,-0.07984216,0.002961453
1.027857,-0.07860158,0.0022867
1.027376,-0.07817244,0.003102352
1.026029,-0.07991138,0.002647528
1.024913,-0.08364686,0.002774821
1.027571,-0.08358677,0.002852404
1.029959,-0.08203881,0.002682871
1.027523,-0.07965998,0.002852968
1.025176,-0.07615109,0.002745895
1.026454,-0.07832348,0.003119722
1.025918,-0.0814282,0.004611409
1.024544,-0.08248499,0.00604631
1.026983,-0.08645299,0.004917423
1.028192,-0.08887431,0.000481536
1.025868,-0.08826499,-0.003455318
1.024279,-0.08594781,-0.003471933
1.024916,-0.08347556,-0.0008604874
1.025437,-0.08398386,0.00339853
1.02469,-0.08565373,0.007219344
1.024999,-0.08840124,0.001542921
1.025416,-0.08800273,-0.008158733
1.025604,-0.08539633,-0.004261608
1.026665,-0.08661174,0.006112001
1.025596,-0.08601668,0.01037793
1.024381,-0.08570751,0.00685626
1.025191,-0.08679054,-0.0003849701
1.02509,-0.08497677,0.002459838
1.025023,-0.08368226,0.005438076
1.025639,-0.0812868,0.002394404
1.025201,-0.08153616,0.006546804
1.025129,-0.08485757,0.004641319
1.02742,-0.08443258,0.0003578129
1.028781,-0.08346695,0.004524354
1.027118,-0.08012865,0.004342661
1.02651,-0.0760323,0.00534689
1.02557,-0.0765981,0.005775445
1.023278,-0.07904595,0.002480869
1.024297,-0.08425772,0.004029088
1.027347,-0.08756561,0.003813248
1.02964,-0.08511221,0.004589459
1.027548,-0.08407806,0.006791366
1.022153,-0.08607865,0.004931174
1.022324,-0.08749089,0.0055258
1.026202,-0.08753816,0.005954112
1.028244,-0.08632065,0.005099692
1.026636,-0.08122734,0.005866881
1.023318,-0.07629675,0.004920537
1.02445,-0.08006439,0.002798923
1.024647,-0.08497734,0.0009170796
1.02333,-0.08376036,0.001789905
1.026842,-0.08531586,0.003610675
1.0291,-0.08887772,0.001650099
1.02776,-0.08624173,0.0002130394
1.024976,-0.08328162,-0.0008727938
1.022673,-0.08341068,-0.00372836
1.022441,-0.08303046,-0.003165479
1.023509,-0.08315569,-0.001992837
1.026407,-0.08166128,-0.002360482
1.026973,-0.07968874,0.001680397
1.027436,-0.08066868,0.004771849
1.02886,-0.08080448,-0.00100198
1.026959,-0.08083948,-0.00665744
1.028015,-0.08335772,-0.003030144
1.029088,-0.08516664,0.003388042
1.027368,-0.08323613,0.00591429
1.026262,-0.08096582,0.003769818
1.022894,-0.08293221,-0.0008809029
1.022461,-0.0841477,-0.001619242
1.023775,-0.08286763,-0.002208253
1.02419,-0.08338595,-0.004441471
1.026999,-0.08370166,-0.00277033
1.027381,-0.08433943,-0.004184843
1.027704,-0.08695629,-0.005325452
1.027994,-0.08773573,-0.003023197
1.025182,-0.0855006,-0.005744789
1.023892,-0.0828852,-0.005657274
1.023552,-0.08228057,-0.003077177
1.025706,-0.08326206,-0.002062317
1.029155,-0.08532004,0.002430147
1.029786,-0.08800283,0.004776972
1.030677,-0.08870423,0.003776988
1.030345,-0.0887768,0.002400524
1.027597,-0.08905229,0.004203999
1.025473,-0.08685466,0.007079561
1.025562,-0.08186733,0.004589163
1.026761,-0.07428725,0.003898985
1.026624,-0.06880407,0.004509176
1.027131,-0.06830956,0.004276802
1.027793,-0.06846068,0.005011629
1.026039,-0.07072053,0.003305165
1.024311,-0.07498793,0.004298898
1.025348,-0.07804827,0.004778821
1.027838,-0.08302475,0.003263406
1.027876,-0.0874777,0.003604325
1.026118,-0.08781725,-0.002270445
1.025858,-0.08767764,-0.007952092
1.026766,-0.08832719,-0.00662086
1.026512,-0.08839845,-0.004708798
1.026145,-0.08521057,0.0007609158
1.027641,-0.07976137,0.008831612
1.028167,-0.07792861,0.008625693
1.028539,-0.07796839,0.004793895
1.029608,-0.07732465,0.007697723
1.02871,-0.0780365,0.007728824
1.027316,-0.07752238,0.00494797
1.025954,-0.07530272,0.0054177
1.026049,-0.07299586,0.0009566079
1.026582,-0.07184518,-0.001680127
1.02428,-0.07504143,-0.002239801
1.023404,-0.0783391,-0.004433447
1.025432,-0.07976651,-0.001616802
1.027055,-0.08270572,-0.002709674
1.026599,-0.08269598,-0.003814655
1.025662,-0.0809964,-0.001502535
1.025852,-0.08230614,-0.003626324
1.024752,-0.08219871,-0.00265926
1.024767,-0.08143726,-0.001544596
1.026464,-0.082687,-1.876167e-05
1.026329,-0.08364847,0.004052148
1.026295,-0.08507938,0.0001730197
1.025562,-0.08523716,-0.003302819
1.024494,-0.08370671,-0.001783654
1.025166,-0.08286476,-0.002779546
1.025041,-0.08013903,-0.002532098
1.024709,-0.07977417,0.001297907
1.024226,-0.08362076,0.004775948
1.023235,-0.08504941,0.003760467
1.023935,-0.08704214,-0.0008382755
1.025575,-0.08869745,-0.003243395
1.026813,-0.08663303,0.0003744634
1.026623,-0.08635082,0.004710799
1.026007,-0.08512273,0.00174385
1.026565,-0.08199891,-0.003621779
1.026467,-0.08214575,-0.006273482
1.026545,-0.08366818,-0.006115044
1.028349,-0.08509076,-0.002830269
1.02876,-0.08405305,-0.002299325
1.024861,-0.08146696,-0.003427934
1.020909,-0.08269084,-0.003247899
1.023755,-0.08585921,-0.004341449
1.027612,-0.08919658,-0.002503176
1.026144,-0.0900756,0.0001792672
1.026198,-0.08885037,0.001001957
1.027861,-0.09042687,0.002934991
1.026888,-0.08900122,0.0004382716
1.024455,-0.08645431,-0.003860624
1.021434,-0.08967898,-0.00298254
1.023543,-0.09041662,-0.002203912
1.027448,-0.08640334,-0.003159481
1.025278,-0.08325877,-0.001495607
1.024349,-0.08289753,0.00421509
1.025475,-0.08407082,0.01075498
1.02509,-0.0847342,0.009593353
1.026531,-0.08611638,0.002341023
1.026573,-0.08664348,0.00158377
1.024527,-0.08776598,0.003852406
1.024738,-0.09124643,0.002289197
1.026702,-0.0931746,0.002903161
1.028418,-0.09460319,0.004044644
1.029512,-0.09287614,0.003990652
1.029518,-0.0885107,0.002823834
1.028531,-0.08874962,-0.005098341
1.0284,-0.0900677,-0.01189763
1.027757,-0.09016702,-0.007672717
1.027433,-0.08966364,-0.002124302
1.0292,-0.08809439,-0.004497268
1.029267,-0.08751678,-0.006083026
1.028519,-0.08447615,-0.004662449
1.026704,-0.07957272,-0.006068499
1.023898,-0.0765309,-0.004638617
1.025609,-0.07543008,-0.003295291
1.02916,-0.08080353,-0.004880069
1.03065,-0.087566,-0.002885233
1.028267,-0.08743092,0.0002812293
1.023939,-0.09245945,0.003841093
1.024649,-0.1033163,0.003785241
1.025806,-0.1019001,0.000751309
1.024573,-0.09479946,0.0008718863
1.025878,-0.09309537,-0.002531007
1.025797,-0.09101731,-0.004853041
1.023583,-0.08963976,-0.003096316
1.023143,-0.08717631,-0.003359622
1.022803,-0.08279176,-0.002063782
1.02203,-0.08203757,-0.002769687
1.022568,-0.08335427,-0.00441568
1.0251,-0.08652228,-0.005401139
1.027022,-0.08672529,-0.006324244
1.025481,-0.08397693,0.002680913
1.023393,-0.08389078,0.008527134
1.023271,-0.08110336,0.004092169
1.023077,-0.08035571,0.005487453
1.023096,-0.08489549,0.006460708
1.025749,-0.08795892,0.004212618
1.028213,-0.08904034,0.004358742
1.027674,-0.08759798,0.002164504
1.026717,-0.08713212,0.002244945
1.026426,-0.08688797,0.002761019
1.027103,-0.08594501,-0.002267692
1.028105,-0.08910252,-0.004558572
1.026898,-0.0909342,5.661162e-05
1.025839,-0.08928906,0.004061581
1.026536,-0.08708962,-0.0006479038
1.026326,-0.08494634,-0.006641943
1.025332,-0.08283365,-0.006548338
1.024819,-0.0810849,-0.008173355
1.025248,-0.08359514,-0.007143083
1.026946,-0.08672139,-0.001159248
1.028095,-0.08742546,-0.001155605
1.027031,-0.08630639,-0.003597576
1.025988,-0.08386405,-0.00460185
1.027305,-0.08647705,-0.005700472
1.028169,-0.08881408,-0.006483869
1.026709,-0.08655313,-0.009352158
1.026354,-0.08535504,-0.01037635
1.028275,-0.08264839,-0.009185729
1.029592,-0.08125916,-0.008462042
1.028251,-0.08538824,-0.005120475
1.026199,-0.09233691,-0.002346429
1.026066,-0.1000565,-0.003745598
1.025658,-0.1025051,-0.009261297
1.02459,-0.1007873,-0.01375134
1.024991,-0.1012424,-0.009436669
1.024994,-0.1006367,-0.003900435
1.023968,-0.09846326,-0.003604568
1.023744,-0.09861735,-0.001297596
1.025483,-0.09962299,4.379212e-05
1.028006,-0.09966725,-0.002748226
1.02818,-0.09731618,-0.002549401
1.027424,-0.09367154,-0.004043405
1.027532,-0.09291132,-0.007199844
1.025714,-0.09247358,-0.004974117
1.022523,-0.0908207,-0.00519077
1.022107,-0.09065823,-0.006351064
1.025432,-0.08924998,-0.004463634
1.029166,-0.08725833,-0.00343521
1.029815,-0.08751677,0.002190308
1.028847,-0.08805389,0.008904128
1.02911,-0.09044869,0.009561172
1.029196,-0.0944175,0.004291747
1.027932,-0.0953532,-0.002749399
1.026651,-0.09516631,-0.002378159
1.025895,-0.09710413,-0.001062549
1.025494,-0.09872248,-0.003784546
1.024913,-0.09845122,-0.002805287
1.024368,-0.09736241,-0.002220356
1.023468,-0.09503012,-0.003334777
1.022003,-0.09190576,-0.002320966
1.02363,-0.08840811,-0.001325012
1.026359,-0.08492115,0.001360215
1.02612,-0.0862006,0.003930976
1.027951,-0.09094171,0.002748068
1.029834,-0.09329722,0.002275893
1.026216,-0.09445116,0.00320283
1.023824,-0.09458276,0.001958289
1.025163,-0.09421137,-0.0009499887
1.025329,-0.09472106,-0.003632875
1.02508,-0.09462029,-0.00336933
1.026815,-0.09639213,-0.001382256
1.028113,-0.09868635,-6.49847e-05
1.026045,-0.09756821,0.003697332
1.024098,-0.09507134,0.004534635
1.025052,-0.09372448,-0.002054067
1.025371,-0.0950586,-0.005979558
1.02468,-0.09834269,-0.005335472
1.02525,-0.1035269,-0.006469238
1.026026,-0.1072612,-0.008967868
1.026293,-0.1045832,-0.008312226
1.025544,-0.103007,-0.004274114
1.023625,-0.1045339,-0.003374274
1.023062,-0.1019397,-0.003718366
1.022983,-0.09873854,0.0003870285
1.022209,-0.09878359,0.003656277
1.024234,-0.1012398,0.0005855101
1.02763,-0.1033134,-0.003225182
1.027971,-0.09882631,-0.001409
1.025477,-0.08998711,-0.001736986
1.022888,-0.08566238,-0.00582482
1.023427,-0.08880023,-0.005199022
1.026393,-0.0942165,-0.002738755
1.028944,-0.09679746,-0.001317564
1.030342,-0.09815723,-0.003424326
1.027669,-0.09896479,-0.007316534
1.0234,-0.09909076,-0.005406414
1.025538,-0.09902035,-0.004743102
1.027938,-0.09800996,-0.006993437
1.025544,-0.09873016,-0.007747994
1.026657,-0.09886046,-0.009811565
1.028831,-0.09709159,-0.006813901
1.028282,-0.09648381,-0.002030239
1.026221,-0.09262663,-0.00345358
1.022825,-0.08878541,-0.0005664896
1.026631,-0.09012397,0.004820633
1.031617,-0.09017537,0.002078734
1.028602,-0.08644433,-8.96107e-05
1.028503,-0.08363841,0.001658618
1.029897,-0.0854883,-0.001225165
1.027704,-0.08708403,-0.004141866
1.027251,-0.08567417,-0.00254816
1.026101,-0.08603907,-0.002414382
1.023992,-0.08657341,-0.003165171
1.023135,-0.08693178,-0.002605788
1.022319,-0.08878383,-0.003109771
1.023663,-0.0892704,-0.004670168
1.026248,-0.08908496,-0.006547942
1.026592,-0.09063045,-0.008481695
1.02558,-0.09232198,-0.00942333
1.023308,-0.09163545,-0.00629168
1.021027,-0.09016709,-0.0007612563
1.02234,-0.08938501,-0.0008530636
1.023234,-0.08833389,-0.004640133
1.023441,-0.08791467,-0.007709653
1.026798,-0.0875343,-0.01279909
1.027012,-0.08714119,-0.01369694
1.025267,-0.08830416,-0.005448872
1.025089,-0.09018947,0.001295942
1.022961,-0.09243879,-0.0002205981
1.023381,-0.09314533,-0.0004042649
1.025788,-0.09237116,0.004498806
1.027796,-0.09256454,0.002710383
1.031973,-0.0914513,-0.002433357
1.032646,-0.09023907,-0.001745498
1.0297,-0.08753369,0.001230821
1.026899,-0.08121338,0.006944406
1.023561,-0.0807532,0.008743241
1.023308,-0.08284194,0.006993094
1.024915,-0.07958894,0.009573549
1.024843,-0.07885572,0.008098949
1.024648,-0.08194077,0.006288772
1.024646,-0.08598006,0.003313008
1.025308,-0.08835284,-0.003737331
1.024989,-0.0836588,0.001729658
1.023625,-0.07658018,0.009923452
1.023929,-0.07518958,0.009879327
1.024318,-0.08281738,0.0103294
1.025217,-0.09079921,0.01022053
1.02561,-0.08830446,0.01131507
1.025288,-0.08732416,0.01205597
1.027006,-0.09221494,0.01210831
1.026389,-0.08967215,0.01456163
1.024907,-0.08457498,0.01052755
1.025286,-0.08037333,0.0008559666
1.0248,-0.07547279,-0.005394335
1.026044,-0.07782675,-0.005498509
1.02684,-0.07927258,-0.004328579
1.026116,-0.07748084,-0.006569953
1.02655,-0.08097121,-0.004560819
1.026299,-0.08185393,0.0009226459
1.026392,-0.08384283,0.004782352
1.026486,-0.09090747,0.008313769
1.026041,-0.09297982,0.007454268
1.025317,-0.09305449,0.004643304
1.022822,-0.09318045,0.0003995106
1.021588,-0.09181198,-0.00463912
1.022296,-0.09159959,-0.005499899
1.0224,-0.09082381,-0.006066182
1.022111,-0.08801839,-0.003463012
1.022529,-0.08417497,-0.001535899
1.024149,-0.08384729,-0.003769985
1.025789,-0.08564612,-0.001716538
1.027014,-0.08475123,0.0001047005
1.027815,-0.08625131,0.002412003
1.026993,-0.08838066,0.003419143
1.024999,-0.08639294,0.001330899
1.024374,-0.08557695,0.006085206
1.024457,-0.08650769,0.006601039
1.023234,-0.08720074,-0.003088482
1.023568,-0.08895708,-0.01123358
1.02494,-0.09106798,-0.01138058
1.024595,-0.09179466,-0.006426336
1.023397,-0.08994244,-0.003127139
1.021602,-0.08825791,0.002794391
1.02224,-0.08973741,0.003749712
1.024671,-0.09150412,-0.0004301035
1.025297,-0.09275532,0.004183064
1.025939,-0.09382918,0.003093853
1.025823,-0.08880116,-0.001850249
1.025566,-0.08164891,-0.0005064494
1.026677,-0.08249988,-0.00237732
1.02635,-0.08418009,-0.001197851
1.025122,-0.08585354,-7.106519e-05
1.023743,-0.09229199,-0.0001433957
1.022337,-0.09050451,0.003740169
1.022221,-0.08639597,0.001080826
1.023448,-0.09020853,-0.000440091
1.025781,-0.08890008,-0.0008268265
1.02698,-0.08690098,-0.005752267
1.026004,-0.08786721,-0.001765632
1.024387,-0.08386408,0.005191611
1.02321,-0.08181657,0.007913647
1.023598,-0.08195544,0.0093613
1.0248,-0.08279054,0.007884409
1.025175,-0.0848832,0.007941923
1.025,-0.08368155,0.007951113
1.02496,-0.08314179,0.006235645
1.024649,-0.08388913,0.007364922
1.023588,-0.08586958,0.009028862
1.023457,-0.08864434,0.008333016
1.025311,-0.08747259,0.002073435
1.025845,-0.08704781,-0.005645559
1.025065,-0.08790334,-0.004011354
1.026071,-0.08731424,-0.002464021
1.025893,-0.08734465,-0.006819991
1.024971,-0.08664159,-0.003234315
1.02546,-0.08580672,0.0008685014
1.024608,-0.08567006,-0.002878834
1.025457,-0.0844987,-0.004245931
1.02816,-0.08274369,-0.005678836
1.029439,-0.08282555,-0.006573344
1.029432,-0.08303684,-0.004513062
1.026463,-0.08133729,-0.005935287
1.024021,-0.08194476,-0.005876768
1.023398,-0.0839152,-0.004883415
1.023339,-0.08635803,-0.005095739
1.025632,-0.09127032,9.115621e-05
1.027713,-0.09254456,0.00396345
1.029316,-0.08958168,0.0002277605
1.026776,-0.0858873,-0.003960583
1.021355,-0.08101447,-0.003032037
1.021965,-0.08027885,-0.001934231
1.023609,-0.08547835,-0.003466032
1.02622,-0.08868072,-0.002965291
1.030882,-0.08553227,-0.004240766
1.029164,-0.08157263,-0.005584728
1.026329,-0.08169892,6.941437e-05
1.026884,-0.08238192,0.004450545
1.027915,-0.08281479,0.002207243
1.029784,-0.08463234,0.0001114407
1.02919,-0.08506157,0.0008678686
1.026536,-0.08474088,-0.002568427
1.025137,-0.08581336,-0.007713402
1.023703,-0.0872886,-0.005571601
1.023827,-0.08788807,-0.004516552
1.026544,-0.08737898,-0.006493811
1.028455,-0.08739773,-0.005187322
1.027758,-0.08767199,-0.005231093
1.025109,-0.08755184,-0.004867316
1.02281,-0.08843073,-0.002642999
1.021745,-0.0881316,-0.002765677
1.022169,-0.08355596,-0.003945536
1.023616,-0.07932474,-0.005323959
1.023774,-0.08300351,-0.005938176
1.024336,-0.08862851,-0.005418372
1.024895,-0.0876567,-0.005330354
1.025118,-0.08636868,-0.003685244
1.027771,-0.08577158,0.001880552
1.028499,-0.0839558,0.007333472
1.027268,-0.08688879,0.00575799
1.027893,-0.09005,0.0003887438
1.027728,-0.09091937,-0.001816385
1.026712,-0.09298398,-0.002531752
1.026396,-0.09324857,-0.0007040962
1.027161,-0.09412618,0.004303922
1.028227,-0.09360079,0.008665796
1.027455,-0.08985677,0.01339192
1.025739,-0.08974607,0.01239415
1.025008,-0.0882641,0.005628768
1.026539,-0.08629424,0.001149817
1.028824,-0.0895507,-0.008454812
1.028808,-0.09097893,-0.01291931
1.028861,-0.09174555,-0.00386341
1.029533,-0.09270668,-0.004010226
1.028006,-0.09269596,-0.01072837
1.027004,-0.09495604,-0.01316471
1.026085,-0.09271481,-0.01199312
1.023421,-0.08841098,-0.001797288
1.023158,-0.08884204,0.005615511
1.024163,-0.08889462,0.004525389
1.024191,-0.08884537,0.00189672
1.024354,-0.08905871,0.0007507296
1.023519,-0.08863484,0.00384426
1.02324,-0.08946832,0.003678707
1.023949,-0.09058261,-0.0004524181
1.023538,-0.0921482,-0.004054511
1.023645,-0.09152063,-0.004697107
1.025062,-0.08836941,-0.002889682
1.026761,-0.087031,-0.004669145
1.027708,-0.08722079,-0.002015329
1.027116,-0.08836573,0.002286199
1.027686,-0.09020114,-0.0005608526
1.029133,-0.0921605,-0.004254184
1.028018,-0.09199677,-0.007145085
1.026414,-0.0888969,-0.004002773
1.025141,-0.08767981,0.002630452
1.023643,-0.08793058,0.005378406
1.023725,-0.08985273,0.001844915
1.024624,-0.09297611,-0.005027496
1.02618,-0.09168733,0.002153231
1.027246,-0.09027287,0.008729022
1.027874,-0.08945769,-0.0005096241
1.029771,-0.0877579,-0.001715946
1.029307,-0.08959567,0.00641799
1.026969,-0.08784296,0.01003987
1.024304,-0.08386035,0.001779203
1.021713,-0.08524841,-0.008003957
1.025368,-0.08511847,0.0007445155
1.029855,-0.08587947,0.008248454
1.027231,-0.08885073,0.004440031
1.025138,-0.0866747,0.004526333
1.025309,-0.08437981,0.0007085138
1.024631,-0.08317922,-0.005039624
1.0263,-0.08231338,-0.001894518
1.027608,-0.08327513,0.003654217
1.026974,-0.08181696,0.005439142
1.027123,-0.08320882,0.0007922049
1.027003,-0.08580363,-0.006431471
1.026949,-0.08249263,-0.009526721
1.026265,-0.08113101,-0.01184984
1.025236,-0.08223874,-0.00904082
1.025794,-0.08193222,0.002108989
1.026315,-0.08213744,0.005170426
1.028256,-0.08291905,0.002933034
1.030778,-0.08443167,0.00544018
1.029392,-0.08400081,0.004659489
1.025898,-0.08144186,0.005401701
1.02421,-0.0789492,0.006600222
1.024934,-0.07703332,0.004409319
1.025395,-0.07758472,0.006175369
1.024751,-0.07896954,0.005304851
1.024978,-0.08126001,0.002942261
1.02518,-0.08528211,0.002151783
1.024652,-0.08561852,0.0002896311
1.024342,-0.08382312,0.001901045
1.024829,-0.08497455,0.001606745
1.027727,-0.0847029,0.0007256504
1.030222,-0.08238982,0.001561362
1.028073,-0.08178749,-0.001735241
1.025828,-0.08167079,-0.004072283
1.025846,-0.08248771,-0.005511138
1.025899,-0.08387836,-0.007383702
1.028281,-0.08489477,-0.005399236
1.030199,-0.08527998,0.000361848
1.02888,-0.08418619,0.007362501
1.028572,-0.08478335,0.008526733
1.027204,-0.08529049,0.001866895
1.022936,-0.08507366,-0.003747757
1.021582,-0.08676342,-0.0003590147
1.024381,-0.08616437,0.007264693
1.026723,-0.08565643,0.01085367
1.026582,-0.08678199,0.009197993
1.02634,-0.08670198,0.001598526
1.027569,-0.08728367,-0.002707697
1.028952,-0.08508468,0.003089408
1.029476,-0.0820559,0.007614099
1.028963,-0.08352407,0.005902227
1.028299,-0.08476067,0.00532214
1.028194,-0.08457787,0.007410528
1.027135,-0.08490269,0.003994236
1.024146,-0.08450644,-0.002231189
1.021923,-0.08407741,-0.003771042
1.0232,-0.0849905,-0.00372142
1.025075,-0.08647616,-0.0008820029
1.025457,-0.08596817,-0.00089922
1.026816,-0.08300944,-0.006365309
1.02773,-0.08119179,-0.007409055
1.025287,-0.08186732,-0.007087554
1.023207,-0.08261715,-0.006377288
1.027107,-0.08340668,-0.003339394
1.031942,-0.08430524,0.0001150277
1.030016,-0.08341837,0.002616205
1.026238,-0.08255109,-0.001281757
1.024346,-0.08300144,-0.005276108
1.023459,-0.0824694,-0.005623758
1.023864,-0.08240869,-0.005790242
1.022493,-0.08342144,-0.003186251
1.021719,-0.08394403,-0.002321443
1.02298,-0.08542644,-0.003519575
1.023772,-0.08620355,-0.005238219
1.025763,-0.08753349,-0.007883871
1.026437,-0.08990012,-0.006127957
1.026869,-0.08786038,-0.004338545
1.028632,-0.08665344,-0.002213383
1.027598,-0.08810281,0.007616111
1.027261,-0.08725821,0.0149347
1.027197,-0.08745835,0.008355182
1.025045,-0.08717285,0.0006928832
1.025795,-0.08455659,0.004702777
1.027775,-0.08274262,0.007167935
1.028034,-0.08288207,0.004537034
1.027395,-0.08396842,0.006220531
1.025835,-0.08311817,0.007534045
1.02462,-0.08341707,0.007725222
1.024728,-0.08579531,0.005442052
1.02535,-0.08714594,0.0002233629
1.024932,-0.08811161,-0.0009051017
1.024964,-0.08735051,-0.003025093
1.026196,-0.08717798,-0.004995116
1.026468,-0.08799549,-0.003279949
1.026492,-0.08713543,-0.003253824
1.02617,-0.08811293,0.001904606
1.025372,-0.08965809,0.009072242
1.024942,-0.08876199,0.006827296
1.02508,-0.08653669,0.003117738
1.026671,-0.08656108,0.00250471
1.026899,-0.08908341,0.001152788
1.025874,-0.08877482,-3.420153e-05
1.026366,-0.08930207,-8.794753e-06
1.026005,-0.08982486,0.002519952
1.026265,-0.08747293,0.003875596
1.028744,-0.0885132,0.002098098
1.029065,-0.08747635,0.002731028
1.026394,-0.08535707,0.002754469
1.024167,-0.086053,-0.0004590492
1.02467,-0.08383429,-0.000839892
1.025646,-0.08494862,0.00370042
1.024529,-0.08732975,0.00855066
1.024456,-0.08640479,0.005851847
1.026624,-0.08471584,0.002352194
1.029028,-0.08039101,0.006762492
1.030064,-0.08132816,0.007972124
1.028538,-0.08344624,0.005776269
1.028026,-0.08079091,0.005601056
1.028124,-0.08312623,0.003499806
1.027135,-0.08686646,0.004001696
1.027441,-0.08894323,0.005587198
1.024324,-0.08687325,0.004396797
1.021007,-0.07987958,0.004178073
1.024117,-0.07983837,0.002729893
1.026059,-0.08088436,-0.00204715
1.024792,-0.07719315,-0.007263918
1.024703,-0.07595667,-0.006622861
1.025099,-0.07619589,-0.002595469
1.024103,-0.07784893,8.640306e-05
1.023645,-0.07902617,0.007096727
1.026458,-0.07940407,0.01030158
1.028659,-0.08142361,0.008423409
1.027765,-0.08206723,0.01182475
1.026068,-0.08205559,0.01104408
1.024507,-0.08092959,0.007800053
1.023155,-0.08054636,0.006274466
1.023967,-0.08379972,0.003255822
1.027746,-0.0862408,0.008791677
1.029827,-0.0861606,0.01222261
1.028524,-0.08310586,0.004133099
1.026385,-0.08092605,-0.0007092098
1.024106,-0.08213889,0.001151365
1.022575,-0.08209372,0.003545767
1.025787,-0.08146168,0.002436266
1.030914,-0.0801973,0.003356929
1.026909,-0.07804997,0.008042535
1.022686,-0.07726257,0.01028279
1.027467,-0.07927658,0.0106325
1.029102,-0.08469045,0.008168727
1.02772,-0.08560207,0.006040418
1.02565,-0.0801602,0.00399664
1.023418,-0.07801111,0.002488332
1.025879,-0.07974787,0.004710998
1.02522,-0.08117039,0.002207856
1.022242,-0.08406222,-0.008193932
1.022023,-0.09160467,-0.008791493
1.023384,-0.1029078,-0.006365089
1.023579,-0.1063059,-0.01181075
1.022687,-0.1057973,-0.009876237
1.020858,-0.1118483,-0.008186807
1.020687,-0.113086,-0.01179314
1.022658,-0.1089854,-0.01046011
1.025975,-0.1123271,-0.01332386
1.028997,-0.1134227,-0.01408926
1.02766,-0.1128223,-0.01187021
1.025212,-0.1133168,-0.01303146
1.025154,-0.1083344,-0.009706263
1.025657,-0.1067712,-0.007382713
1.026231,-0.1035375,-0.006787783
1.023792,-0.09673489,-0.006326519
1.020022,-0.09596096,-0.007608878
1.020732,-0.09365392,-0.005555189
1.022256,-0.09220611,-0.00521382
1.022318,-0.09399621,-0.006308351
1.024023,-0.09536662,-0.006921416
1.027353,-0.1013729,-0.009235569
1.029048,-0.1056602,-0.008911297
1.023314,-0.1036387,-0.01052252
1.017162,-0.1017406,-0.01344101
1.021916,-0.1026377,-0.01076926
1.025963,-0.1025663,-0.008596034
1.022741,-0.1004189,-0.009199531
1.023379,-0.1015068,-0.006539671
1.025363,-0.1019134,-0.002660471
1.024629,-0.1001438,-0.003866555
1.025275,-0.09921652,-0.005173314
1.025026,-0.09628331,-0.003444891
1.024701,-0.09666098,-0.004257239
1.024485,-0.09828099,-0.004729765
1.02028,-0.09649531,-0.004546234
1.017613,-0.09769762,-0.006180985
1.022157,-0.09953411,-0.00630641
1.026612,-0.1012897,-0.008748942
1.022563,-0.1040592,-0.01258322
1.019383,-0.1042483,-0.01133924
1.025138,-0.1042958,-0.01027273
1.027586,-0.1039785,-0.01166087
1.024142,-0.1030481,-0.01056733
1.023288,-0.1035501,-0.008093965
1.025531,-0.1060043,-0.006311845
1.028228,-0.1096617,-0.0057363
1.028,-0.1088305,-0.006914373
1.027212,-0.1068352,-0.008799834
1.027219,-0.107126,-0.01304379
1.025926,-0.1042565,-0.01690577
1.026305,-0.1044482,-0.01537994
1.026357,-0.1085298,-0.01357955
1.024307,-0.1085875,-0.01142003
1.023395,-0.1078603,-0.007383213
1.024459,-0.1066455,-0.01078517
1.026506,-0.1048243,-0.0173521
1.026667,-0.1059256,-0.01726982
1.026116,-0.1076028,-0.01707911
1.026749,-0.1086803,-0.01922469
1.027205,-0.1089594,-0.02063151
1.027852,-0.1097277,-0.0225127
1.027084,-0.1116614,-0.02044898
1.025787,-0.110321,-0.01541585
1.02631,-0.1079444,-0.01465029
1.025694,-0.1086944,-0.01530271
1.024496,-0.1102246,-0.01440528
1.024837,-0.1113241,-0.01308749
1.024317,-0.1100464,-0.01100814
1.023163,-0.1062651,-0.009937162
1.02372,-0.1048333,-0.01336271
1.024964,-0.1066719,-0.0190438
1.026139,-0.1114592,-0.01793922
1.027686,-0.1172447,-0.01288413
1.027531,-0.117044,-0.01162248
1.024766,-0.112192,-0.01000394
1.021939,-0.1101725,-0.0112763
1.021641,-0.1112373,-0.01522591
1.023063,-0.1123731,-0.01129043
1.024134,-0.1124259,-0.007975072
1.026163,-0.1116034,-0.01203286
1.027224,-0.1112079,-0.01485199
1.025692,-0.1127459,-0.01567484
1.025305,-0.1136083,-0.01492376
1.024376,-0.1084698,-0.01477786
1.023879,-0.1021616,-0.01797454
1.026529,-0.1018464,-0.01843037
1.026858,-0.1019326,-0.01772766
1.025962,-0.100381,-0.0176974
1.026618,-0.1008486,-0.01434653
1.026155,-0.0999781,-0.01225127
1.025443,-0.09988617,-0.0131452
1.024831,-0.1033339,-0.01428355
1.024782,-0.1047545,-0.01681429
1.025296,-0.1042595,-0.02069675
1.024672,-0.1043591,-0.02083768
1.024065,-0.1058521,-0.01476979
1.023494,-0.1074277,-0.01089233
1.023164,-0.1051232,-0.012313
1.023019,-0.1032344,-0.01352309
1.022202,-0.1047139,-0.01478913
1.023794,-0.106146,-0.01907165
1.02596,-0.1073046,-0.02207629
1.024938,-0.1068374,-0.01739872
1.024961,-0.1044478,-0.0123869
1.027163,-0.102341,-0.01387915
1.028181,-0.102481,-0.02033944
1.027739,-0.1047677,-0.02738642
1.026637,-0.1046952,-0.02325545
1.025822,-0.1038084,-0.01504825
1.024453,-0.1062511,-0.01505686
1.022183,-0.1073139,-0.01518248
1.022111,-0.1049683,-0.01464228
1.024289,-0.1035353,-0.01288835
1.026439,-0.1040646,-0.008812401
1.029543,-0.1043474,-0.01002653
1.031941,-0.102734,-0.01295368
1.027296,-0.1009701,-0.01477666
1.020965,-0.1015763,-0.0169666
1.023505,-0.1039821,-0.01729869
1.026472,-0.1050348,-0.01622838
1.025791,-0.1037167,-0.01263615
1.028131,-0.1039948,-0.01002742
1.02572,-0.105565,-0.01095417
1.021585,-0.1081775,-0.010502
1.024357,-0.1122817,-0.009335587
1.02496,-0.1094818,-0.00918452
1.024512,-0.1037201,-0.008226872
1.025872,-0.1039932,-0.006338111
1.025627,-0.1035611,-0.007413524
1.027581,-0.1004157,-0.01214055
1.028453,-0.0978262,-0.01429647
1.027097,-0.09786509,-0.01113249
1.026553,-0.09961952,-0.005603088
1.023465,-0.09734884,-0.004451156
1.021145,-0.09358619,-0.006006464
1.022645,-0.08943551,-0.003307587
1.02457,-0.08509876,-0.0003099049
1.025981,-0.08370338,0.003194019
1.025977,-0.08111898,0.007021632
1.024431,-0.07805083,0.004364656
1.023801,-0.07300631,-0.002356644
1.023803,-0.06754162,-0.007298158
1.023285,-0.07088679,-0.006549345
1.023708,-0.07644601,-0.005052207
1.024344,-0.08458641,-0.009617274
1.025968,-0.1047195,-0.01649683
1.028654,-0.1286492,-0.02347381
1.026464,-0.137498,-0.0239397
1.02175,-0.1318604,-0.01778668
1.020202,-0.1353714,-0.01667325
1.019627,-0.1410188,-0.01548806
1.016836,-0.1405007,-0.01508169
1.013512,-0.1442822,-0.02052885
1.018576,-0.135414,-0.0217788
1.026947,-0.1201077,-0.02483042
1.028554,-0.1130384,-0.03108836
1.035158,-0.107686,-0.03070457
1.041207,-0.1074708,-0.02445218
1.030819,-0.1024031,-0.01547795
1.019717,-0.09758706,-0.01590327
1.019705,-0.09985127,-0.01714237
1.026543,-0.09936805,-0.009337679
1.033016,-0.1021853,-0.01072465
1.028697,-0.1000562,-0.01291376
1.022748,-0.09557554,-0.01168615
1.024068,-0.09416225,-0.01757012
1.024615,-0.08674132,-0.01818947
1.025711,-0.08812171,-0.01508466
1.026218,-0.09331752,-0.01295186
1.023247,-0.09121518,-0.01024489
1.023517,-0.0919323,-0.009213368
1.024873,-0.09455223,-0.004435003
1.025132,-0.1007307,-0.002165057
1.026582,-0.1102143,-0.006274519
1.027783,-0.1141589,-0.01222695
1.027922,-0.1099822,-0.01868013
1.02514,-0.1062883,-0.0205703
1.024249,-0.1089227,-0.02102522
1.027612,-0.1088866,-0.02074369
1.028351,-0.1069198,-0.01888671
1.028516,-0.1053683,-0.01941845
1.029558,-0.09839076,-0.01896048
1.028368,-0.09315555,-0.01628865
1.025584,-0.0925841,-0.01175924
1.022177,-0.09043515,-0.009989454
1.02154,-0.08689542,-0.01263577
1.022101,-0.08359272,-0.01274386
1.021742,-0.08310634,-0.0123667
1.023238,-0.08403643,-0.01168125
1.024893,-0.08360756,-0.007903177
1.026435,-0.08872316,-0.00439858
1.025435,-0.1003256,-0.004809563
1.022137,-0.1063886,-0.006716594
1.024394,-0.1011237,-0.005960214
1.028006,-0.09580242,-0.009658478
1.028987,-0.1003602,-0.01555588
1.028117,-0.1060439,-0.01715828
1.024177,-0.1087728,-0.0218152
1.024491,-0.1105828,-0.02403284
1.026174,-0.1105944,-0.0214522
1.025068,-0.115458,-0.02440028
1.026973,-0.1183529,-0.02794382
1.026716,-0.118263,-0.02752131
1.025643,-0.1248026,-0.02612151
1.02741,-0.1249758,-0.0237668
1.02769,-0.1183399,-0.02209318
1.028736,-0.1100219,-0.02025104
1.027703,-0.1009488,-0.01830275
1.025062,-0.1006239,-0.01818544
1.02517,-0.09883949,-0.01777399
1.024657,-0.09794162,-0.01855599
1.025059,-0.102917,-0.02111132
1.025323,-0.1021073,-0.02170924
1.024514,-0.1064428,-0.01794101
1.025363,-0.1131607,-0.01160392
1.024925,-0.1111408,-0.01192699
1.02462,-0.1115679,-0.01650989
1.024447,-0.1168284,-0.0167968
1.023032,-0.1210865,-0.01690048
1.023831,-0.1185318,-0.01751256
1.024757,-0.1110623,-0.02077452
1.025341,-0.1069347,-0.02482491
1.027084,-0.1074643,-0.02014242
1.027874,-0.1089719,-0.01653442
1.026988,-0.1054029,-0.02110239
1.024933,-0.1026749,-0.02307737
1.024437,-0.1040896,-0.01911519
1.024466,-0.1006058,-0.01550402
1.023139,-0.09720942,-0.01482035
1.023885,-0.09891817,-0.01330865
1.026074,-0.1010903,-0.01178922
1.028087,-0.102607,-0.01201994
1.028616,-0.1032457,-0.01232312
1.027456,-0.1037161,-0.012369
1.029178,-0.1033348,-0.009704391
1.029313,-0.0999196,-0.007260747
1.023843,-0.09593249,-0.008594293
1.020986,-0.09742694,-0.009205925
1.022686,-0.1002204,-0.008470811
1.025325,-0.09708141,-0.008721967
1.027088,-0.09375867,-0.009237118
1.026306,-0.09116875,-0.007803202
1.02517,-0.09072859,-0.005580523
1.024911,-0.09480829,-0.006886154
1.025251,-0.09535801,-0.01039651
1.026564,-0.09791725,-0.01171755
1.026478,-0.1037219,-0.01169018
1.024644,-0.1040162,-0.01561926
1.024438,-0.1039469,-0.01848436
1.025552,-0.1035142,-0.01446398
1.024924,-0.1020075,-0.0149666
1.024669,-0.1020711,-0.01862049
1.025428,-0.1011312,-0.01922698
1.024752,-0.1012282,-0.02348631
1.024608,-0.1018313,-0.02277669
1.023464,-0.1020973,-0.01755456
1.021726,-0.1031312,-0.01765166
1.024009,-0.1028656,-0.017328
1.0261,-0.1023878,-0.0198091
1.025602,-0.1018232,-0.02097718
1.025298,-0.100054,-0.0127836
1.024184,-0.09866367,-0.008363283
1.023186,-0.0986544,-0.0130486
1.024553,-0.1000623,-0.0181186
1.025951,-0.1027725,-0.01637143
1.026558,-0.1049482,-0.01474851
1.028235,-0.1061425,-0.01882202
1.027863,-0.1088094,-0.01800742
1.025181,-0.1086492,-0.0155528
1.024063,-0.1032096,-0.01548047
1.023922,-0.09921799,-0.01435605
1.024543,-0.09786942,-0.01444059
1.025035,-0.09858319,-0.01091079
1.026373,-0.1001898,-0.009014298
1.028923,-0.09976826,-0.01441238
1.027967,-0.09994371,-0.0190327
1.027966,-0.09929075,-0.0201566
1.030168,-0.0979284,-0.01734213
1.028932,-0.09889764,-0.0155439
1.028314,-0.09865179,-0.01674332
1.0268,-0.09838835,-0.01761301
1.022908,-0.09924516,-0.02044449
1.023342,-0.1001654,-0.02186972
1.025099,-0.1020556,-0.02065618
1.024967,-0.1016163,-0.0162478
1.024747,-0.1008467,-0.008840289
1.022803,-0.101596,-0.01005634
1.019846,-0.1005917,-0.01471409
1.019141,-0.1004813,-0.01202392
1.021703,-0.1017604,-0.01139164
1.024799,-0.101553,-0.01209845
1.025492,-0.1011271,-0.01032695
1.024899,-0.101487,-0.0128715
1.02504,-0.1007582,-0.0138894
1.026027,-0.09694926,-0.01312904
1.026287,-0.09127523,-0.0163378
1.024631,-0.08875396,-0.01570044
1.023313,-0.09095736,-0.01425939
1.02541,-0.09313643,-0.01535651
1.028275,-0.09561787,-0.01148434
1.028001,-0.09947207,-0.008533063
1.027418,-0.1020461,-0.01067815
1.02802,-0.106547,-0.01179741
1.027715,-0.1094956,-0.01188166
1.027701,-0.1093756,-0.015278
1.027917,-0.1135303,-0.01974978
1.027652,-0.1126892,-0.01849065
1.028022,-0.1043175,-0.01720698
1.028677,-0.09809346,-0.02065318
1.028667,-0.09376027,-0.02061515
1.025422,-0.09552974,-0.01698647
1.020461,-0.09797518,-0.01472834
1.02017,-0.09798878,-0.01645993
1.022399,-0.1058905,-0.02044837
1.021987,-0.1100701,-0.02232671
1.020324,-0.1076757,-0.02493421
1.019358,-0.110038,-0.02248236
1.020922,-0.1127019,-0.01483507
1.023244,-0.1140663,-0.01512762
1.022412,-0.1114713,-0.01550245
1.023091,-0.1065984,-0.01314859
1.027088,-0.105684,-0.01473378
1.028688,-0.1032283,-0.01124711
1.028291,-0.1000257,-0.008125906
1.027252,-0.09614626,-0.01127209
1.025132,-0.09083303,-0.01171435
1.024441,-0.09207801,-0.01170538
1.025562,-0.09703861,-0.01288852
1.02695,-0.1005343,-0.01273681
1.027881,-0.1024047,-0.01431852
1.026699,-0.1038797,-0.01989946
1.022547,-0.1083181,-0.02585282
1.018632,-0.1097229,-0.025865
1.018291,-0.1082429,-0.02338517
1.022756,-0.1101426,-0.02245676
1.028589,-0.108649,-0.02141053
1.0279,-0.1042888,-0.02081209
1.022906,-0.1020541,-0.01543844
1.019785,-0.1010434,-0.009746427
1.019438,-0.1053058,-0.01507726
1.024716,-0.1121473,-0.01905691
1.030802,-0.1149188,-0.01604105
1.030968,-0.1103707,-0.01317281
1.028274,-0.09882172,-0.007391178
1.026175,-0.09205302,-0.008025343
1.026171,-0.09680999,-0.01414546
1.026606,-0.1035664,-0.01443251
1.026256,-0.1051608,-0.01830183
1.026099,-0.1074178,-0.02115712
1.024583,-0.1106563,-0.01903524
1.023041,-0.1116903,-0.02234347
1.02346,-0.1147407,-0.02392042
1.023766,-0.1117662,-0.01997313
1.02259,-0.1036094,-0.01781738
1.021823,-0.10251,-0.02297476
1.022345,-0.1044518,-0.02879067
1.022806,-0.1086306,-0.02378471
1.024623,-0.1112452,-0.01821989
1.026586,-0.1103526,-0.01797215
1.025696,-0.110922,-0.01682711
1.02525,-0.1080864,-0.01491787
1.026068,-0.1076825,-0.01144852
1.025437,-0.1099697,-0.01163654
1.024458,-0.1111053,-0.01385226
1.023197,-0.115039,-0.0114113
1.02167,-0.1124153,-0.01055825
1.022254,-0.1076757,-0.01024058
1.023659,-0.106684,-0.01072897
1.024543,-0.1028536,-0.01458189
1.0254,-0.1024474,-0.01350058
1.025015,-0.1029308,-0.01235492
1.024754,-0.1010359,-0.01492991
1.025768,-0.1026344,-0.0147372
1.027232,-0.1038656,-0.01485674
1.028146,-0.1057822,-0.01360581
1.025934,-0.1092144,-0.009542531
1.023463,-0.1076709,-0.008268906
1.022962,-0.104056,-0.009202263
1.021479,-0.1013822,-0.01272395
1.021155,-0.100337,-0.01693028
1.021528,-0.1022945,-0.01663257
1.022146,-0.1025358,-0.01609341
1.025429,-0.10312,-0.01820263
1.02543,-0.1038361,-0.01775658
1.023325,-0.09933249,-0.01467427
1.023667,-0.09715319,-0.01161354
1.022869,-0.09727096,-0.01024175
1.023714,-0.09486621,-0.01237503
1.025714,-0.09365955,-0.01274956
1.025041,-0.09182218,-0.01020288
1.024417,-0.08990271,-0.00909338
1.023296,-0.08943589,-0.007694182
1.022453,-0.08927137,-0.006469423
1.025513,-0.09255614,-0.005900365
1.029257,-0.09666336,-0.005359458
1.028131,-0.09602303,-0.005629222
1.025988,-0.09332936,-0.005648854
1.024949,-0.09279297,-0.006524636
1.021281,-0.09302874,-0.007591032
1.023068,-0.09414024,-0.009944769
1.029831,-0.09854567,-0.01652762
1.03047,-0.1031897,-0.02094748
1.027205,-0.1048227,-0.01721256
1.023696,-0.107971,-0.01315755
1.024312,-0.1131346,-0.01533226
1.026416,-0.1109693,-0.01415643
1.023551,-0.1056819,-0.009963059
1.022283,-0.1048054,-0.01144114
1.020942,-0.1035007,-0.01394951
1.020486,-0.1050361,-0.02030411
1.023732,-0.1064873,-0.02748042
1.021579,-0.1033918,-0.02192277
1.019727,-0.1024958,-0.01379578
1.020834,-0.1012745,-0.01334992
1.023087,-0.1025945,-0.01395451
1.029304,-0.1056994,-0.01358103
1.028304,-0.1024,-0.01219874
1.024047,-0.09730427,-0.01054861
1.023774,-0.09113214,-0.01228073
1.021225,-0.08894573,-0.01499998
1.021981,-0.09176438,-0.01556823
1.023139,-0.09065951,-0.01413982
1.021707,-0.09156048,-0.008293468
1.024414,-0.0926145,-0.0002866077
1.025482,-0.09069267,0.003604306
1.023524,-0.09211595,0.003259301
1.021626,-0.09219206,-0.0008105566
1.020596,-0.09290483,-0.006213257
1.023658,-0.0950384,-0.005691945
1.026056,-0.09162589,-0.003311225
1.02501,-0.08853092,-0.003999701
1.024237,-0.08719024,0.0003739874
1.023434,-0.0827888,0.004761381
1.021784,-0.07966854,0.002626058
1.022269,-0.08053307,0.003928176
1.02589,-0.08188712,0.0084973
1.029123,-0.08460067,0.009590389
1.031576,-0.08866206,0.004668918
1.031305,-0.08603268,-0.001896322
1.025396,-0.08103818,-0.003252108
1.020718,-0.0819989,-0.005076494
1.023345,-0.08220023,-0.003919474
1.026489,-0.08099848,0.003401469
1.022714,-0.07967521,0.003602684
1.01992,-0.07759448,0.0008018624
1.022697,-0.08194937,0.002497644
1.026786,-0.08688657,0.004691906
1.031826,-0.08450124,0.008008236
1.028526,-0.08272196,0.007342575
1.020885,-0.08238101,0.003877859
1.02239,-0.07875031,0.004907859
1.023593,-0.07761654,0.006884174
1.023553,-0.0824744,0.00983293
1.026168,-0.08630489,0.01083024
1.026497,-0.08500271,0.008321919
1.027457,-0.08380191,0.008652758
1.026178,-0.08559207,0.008516155
1.021401,-0.08666742,0.009370608
1.019242,-0.08750373,0.01098643
1.023213,-0.0882096,0.009322061
1.028867,-0.08637785,0.01245238
1.026479,-0.08465907,0.01448057
1.025101,-0.08209475,0.008338869
1.028849,-0.08110086,0.003411386
1.028391,-0.08571328,0.003946852
1.029239,-0.09068762,0.007025251
1.029481,-0.0952666,0.006390117
1.026515,-0.09533777,0.004581265
1.026229,-0.0909815,0.002319064
1.025219,-0.09087338,-0.004882021
1.025326,-0.08996506,-0.006801124
1.027893,-0.08879108,-0.004904775
1.029311,-0.09038079,-0.005936907
1.028031,-0.09262802,-0.005259667
1.025046,-0.09678455,-0.006211659
1.026227,-0.0929035,-0.008403447
1.026323,-0.08659715,-0.009047285
1.024173,-0.0895305,-0.005180075
1.027172,-0.09036715,0.001045281
1.028583,-0.08970613,-0.002012419
1.027633,-0.09029142,-0.005006928
1.028753,-0.08626106,-0.003310028
1.029364,-0.08453422,-0.006341912
1.029022,-0.08924415,-0.006235865
1.027469,-0.09436135,-0.004102967
1.02768,-0.09374474,-0.005020818
1.029702,-0.0915027,-0.004812832
1.029121,-0.09213252,-0.007556963
1.026836,-0.09071212,-0.009590994
1.024996,-0.09184507,-0.007304061
1.024894,-0.09642828,-0.005510953
1.026174,-0.09750316,0.0003580288
1.027419,-0.09714203,0.006146809
1.02705,-0.09428355,0.00242297
1.025078,-0.09226966,-0.002342193
1.024613,-0.09554588,-0.002375383
1.025165,-0.09787792,-0.002720123
1.025035,-0.09740993,-0.003542069
1.025099,-0.09509371,-0.004233217
1.025913,-0.09431542,-0.006298753
1.026714,-0.09525008,-0.006913555
1.026239,-0.09473657,-0.005230555
1.025335,-0.09658686,-0.001198651
1.024843,-0.09827309,0.00479131
1.025046,-0.09926148,0.002968341
1.025894,-0.1010577,-0.00401917
1.025879,-0.09957077,-0.006204841
1.025496,-0.1000779,-0.008543459
1.025737,-0.1024271,-0.01070938
1.025775,-0.1021961,-0.01260623
1.025418,-0.1004152,-0.01356991
1.024838,-0.09620599,-0.009094167
1.02407,-0.09507666,-0.007530735
1.024479,-0.09685248,-0.007066625
1.026188,-0.09783262,-0.006462464
1.02679,-0.09993646,-0.01069576
1.026282,-0.1004035,-0.01167543
1.025934,-0.10226,-0.01125063
1.024713,-0.1038863,-0.01031976
1.023047,-0.1004917,-0.009870336
1.02351,-0.09850643,-0.01522609
1.025364,-0.09735774,-0.01451798
1.026453,-0.0990783,-0.009634481
1.026361,-0.1029004,-0.0100298
1.023871,-0.09941735,-0.01185654
1.022525,-0.09723345,-0.0152481
1.024467,-0.09917444,-0.01486004
1.024188,-0.09758433,-0.008946095
1.023154,-0.09695754,-0.006001977
1.023249,-0.09895935,-0.006005587
1.023669,-0.1024729,-0.007819142
1.026902,-0.1044912,-0.01086093
1.028141,-0.09982086,-0.01009429
1.025858,-0.09578668,-0.008784678
1.024657,-0.1004625,-0.01123765
1.025719,-0.1086295,-0.01543678
1.028137,-0.1165213,-0.02382895
1.027388,-0.1217869,-0.02760199
1.024744,-0.1133216,-0.01663565
1.023215,-0.1010257,-0.008135045
1.023135,-0.1035941,-0.0127262
1.025783,-0.1060011,-0.01856833
1.027953,-0.1026767,-0.01901058
1.03056,-0.1034445,-0.01361304
1.030732,-0.09806979,-0.005227587
1.024959,-0.09017608,-0.00200401
1.021648,-0.08916577,-0.003869312
1.022117,-0.08775094,-0.005220876
1.02464,-0.09009239,-0.007710457
1.027627,-0.1005296,-0.008877103
1.027404,-0.1070472,-0.008352946
1.025357,-0.1043856,-0.01099962
1.022885,-0.102764,-0.01131147
1.025373,-0.1050798,-0.009871953
1.029732,-0.1042096,-0.007607438
1.028601,-0.1031718,-0.005236654
1.026479,-0.1030391,-0.01381845
1.024308,-0.1001876,-0.0195313
1.024211,-0.09926034,-0.007970584
1.025089,-0.0988688,0.001338321
1.022938,-0.09779327,-0.003170896
1.024884,-0.09916632,-0.008545168
1.028643,-0.09865896,-0.00791397
1.029419,-0.09811775,-0.009045138
1.029259,-0.09882555,-0.01048139
1.026906,-0.09648416,-0.01072108
1.026252,-0.0951021,-0.01221687
1.028322,-0.09465134,-0.009839941
1.029275,-0.09242294,-0.008255375
1.027557,-0.09252993,-0.007030788
1.02422,-0.09898105,-0.005564215
1.024023,-0.1071929,-0.008946539
1.024577,-0.1065551,-0.01020089
1.023639,-0.1028889,-0.01290765
1.02299,-0.1035976,-0.01408533
1.021908,-0.1016815,-0.01067331
1.023971,-0.1005319,-0.01332088
1.026076,-0.1017003,-0.01291249
1.024631,-0.099337,-0.00938564
1.025432,-0.09832808,-0.003852383
1.027937,-0.1004809,0.00430838
1.029217,-0.101671,-0.006748117
1.026426,-0.09964853,-0.01947352
1.0208,-0.09590854,-0.01060299
1.020371,-0.09350356,-0.006573513
1.023266,-0.09147497,-0.01164577
1.02494,-0.09376227,-0.01066324
1.025455,-0.09857749,-0.0141535
1.024732,-0.09683049,-0.02019312
1.024974,-0.09376778,-0.01530524
1.025389,-0.09367805,-0.01082377
1.025481,-0.09667649,-0.01340345
1.025555,-0.1038366,-0.0144589
1.023035,-0.1053352,-0.01521731
1.021271,-0.1011381,-0.01335691
1.022452,-0.09922098,-0.004987784
1.022822,-0.0984252,0.0004380453
1.023698,-0.1004722,-0.004032973
1.026054,-0.1034614,-0.01048149
1.027035,-0.1037367,-0.0101704
1.027061,-0.1041298,-0.009435186
1.024569,-0.1034554,-0.01222136
1.019854,-0.1017182,-0.01384512
1.020966,-0.1001446,-0.01522675
1.026394,-0.09744156,-0.01481501
1.02784,-0.09509213,-0.01143391
1.024651,-0.09196831,-0.008720126
1.020776,-0.08786702,-0.008393446
1.023185,-0.08743087,-0.00963032
1.027921,-0.09034929,-0.00838251
1.02736,-0.09249744,-0.005807636
1.026195,-0.09199154,-0.003874212
1.024567,-0.09100994,-0.003178455
1.024097,-0.0921511,-0.004680541
1.024966,-0.09346502,-0.002705694
1.022041,-0.09644576,-0.001952153
1.023144,-0.09913382,-0.005701852
1.027301,-0.09334459,-0.005526715
1.027711,-0.08792653,-0.004535804
1.026269,-0.09148498,-0.004169142
1.023048,-0.09399821,-0.003646152
1.023357,-0.09333114,-0.004566873
1.025246,-0.09335163,-0.003020261
1.02483,-0.09043879,-0.002341291
1.026285,-0.08763389,-0.00345584
1.026531,-0.09047848,-0.005217925
1.02627,-0.09400501,-0.01073025
1.026625,-0.09597128,-0.01349661
1.026063,-0.09831321,-0.009844745
1.026657,-0.09882259,-0.006878271
1.026492,-0.09847636,-0.007493105
1.026959,-0.09756533,-0.004622806
1.027266,-0.09567622,-0.0005510777
1.025036,-0.0948157,-0.007877271
1.024592,-0.09466884,-0.01753894
1.02573,-0.09742122,-0.01815167
1.027686,-0.1014969,-0.01757569
1.029048,-0.1016139,-0.01603891
1.024288,-0.09934051,-0.01134256
1.016748,-0.09815647,-0.009218455
1.015787,-0.1001872,-0.01128808
1.021198,-0.1041846,-0.01464515
1.027018,-0.1062919,-0.01523593
1.030358,-0.1040756,-0.01449846
1.027293,-0.09859756,-0.01384659
1.02198,-0.09498862,-0.01032853
1.021942,-0.09450742,-0.007528655
1.022723,-0.09441085,-0.005833559
1.024187,-0.09274512,-0.003662032
1.027265,-0.08910058,-0.004731913
1.026284,-0.08651311,-0.006083136
1.023492,-0.08714179,-0.007055678
1.023,-0.08873452,-0.007490745
1.024135,-0.09026026,-0.004771974
1.024645,-0.09400835,-0.002815653
1.025399,-0.09652998,-0.001536199
1.028149,-0.09722328,-0.004215712
1.029664,-0.1010419,-0.009099694
1.028899,-0.1006488,-0.006811038
1.026033,-0.09672412,-0.005414585
1.023186,-0.09749016,-0.005312019
1.023397,-0.0967875,-0.001429652
1.023955,-0.09511163,-0.003835249
1.0245,-0.09450474,-0.01094991
1.025245,-0.09366798,-0.01529974
1.025409,-0.09528436,-0.01475864
1.026722,-0.09528063,-0.01123294
1.02827,-0.09542595,-0.01049261
1.027933,-0.09574751,-0.008277887
1.026216,-0.093447,-0.006981052
1.025565,-0.09527474,-0.01018784
1.025561,-0.09870734,-0.007829774
1.025465,-0.1014759,-0.004310227
1.025262,-0.1034894,-0.003602785
1.023924,-0.1021591,-0.002574289
1.023077,-0.1027546,-0.007752528
1.023126,-0.1022813,-0.01245912
1.02588,-0.1004427,-0.01109243
1.028051,-0.1014919,-0.01048579
1.025228,-0.09924877,-0.009409155
1.025128,-0.09580868,-0.007867812
1.024951,-0.09457102,-0.008240074
1.023138,-0.09529048,-0.009914735
1.025891,-0.1009786,-0.01196506
1.025316,-0.1056466,-0.01373874
1.02374,-0.1023102,-0.01434344
1.02406,-0.09583892,-0.01226481
1.021254,-0.09413919,-0.01037574
1.022305,-0.09459625,-0.009435781
1.024817,-0.09518171,-0.009297082
1.024853,-0.1001702,-0.01065724
1.025506,-0.1046249,-0.010175
1.024669,-0.1050316,-0.008233649
1.024914,-0.1043564,-0.006037145
1.025392,-0.1009741,-0.006450817
1.024564,-0.0942722,-0.00914239
1.02526,-0.0912001,-0.01081465
1.024998,-0.09425312,-0.01401786
1.024977,-0.0958566,-0.01284052
1.026528,-0.09664494,-0.01075008
1.028225,-0.09704242,-0.01327798
1.029908,-0.0949913,-0.01103684
1.028692,-0.09613771,-0.01154569
1.026023,-0.09726558,-0.01414559
1.024777,-0.0978458,-0.0130478
1.025416,-0.09947261,-0.01583965
1.026837,-0.09841812,-0.01463544
1.024617,-0.09940537,-0.0110468
1.023066,-0.1009896,-0.009639632
1.026814,-0.1018441,-0.008927847
1.029647,-0.1052027,-0.01363478
1.028743,-0.1057591,-0.01452263
1.025314,-0.1015908,-0.01318581
1.02251,-0.09505788,-0.01362996
1.023765,-0.09145115,-0.01155585
1.025988,-0.09392486,-0.01262965
1.026629,-0.09586226,-0.01187384
1.026156,-0.0954385,-0.009515305
1.024457,-0.09611087,-0.008100187
1.02289,-0.09638043,-0.004014158
1.022599,-0.09750847,-0.004277024
1.023174,-0.1016624,-0.006486609
1.026385,-0.1033814,-0.01138795
1.03018,-0.1017041,-0.01898351
1.026898,-0.09943096,-0.01502362
1.022042,-0.0960759,-0.009841745
1.023733,-0.09459115,-0.01520916
1.024245,-0.0958683,-0.01593393
1.022706,-0.09753973,-0.0102128
1.023135,-0.09853637,-0.007319501
1.021943,-0.1004044,-0.006103483
1.022008,-0.1022448,-0.007078468
1.023695,-0.09987647,-0.0074881
1.023687,-0.09796301,-0.006219192
1.024651,-0.09890932,-0.007391251
1.025283,-0.1000743,-0.007324501
1.024723,-0.1007428,-0.008325487
1.02418,-0.09939747,-0.01062835
1.023237,-0.09998054,-0.008629644
1.02376,-0.1007186,-0.007775417
1.0249,-0.09968848,-0.00859247
1.025958,-0.09941266,-0.008280998
1.027061,-0.09648611,-0.008716918
1.026986,-0.09690306,-0.01004493
1.027002,-0.1011064,-0.0115688
1.026444,-0.1013569,-0.01003734
1.025388,-0.1004023,-0.006834398
1.024058,-0.09784098,-0.004665537
1.021568,-0.09645666,-0.002649201
1.022555,-0.09861327,-0.002484493
1.024978,-0.0987931,-0.003018573
1.024128,-0.09910811,-0.002683485
1.02494,-0.1013284,-0.002768195
1.025696,-0.1034481,-0.002825514
1.024346,-0.1035043,-0.002736991
1.025224,-0.1028521,-0.002795038
1.024858,-0.104811,-0.002780102
1.022781,-0.1044895,-0.003124805
1.022065,-0.1034126,-0.004571013
1.021834,-0.1051417,-0.006815334
1.022569,-0.1057571,-0.01022874
1.022607,-0.1065649,-0.01625911
1.02366,-0.1036507,-0.01897934
1.025962,-0.098052,-0.01247633
1.024789,-0.0994863,-0.007588122
1.023669,-0.1012257,-0.01173886
1.023783,-0.0992874,-0.01308436
1.023271,-0.09960848,-0.007379327
1.02383,-0.09901025,-0.004053573
1.023631,-0.0971565,-0.005465209
1.023592,-0.09636832,-0.006249255
1.024743,-0.09388005,-0.006202953
1.025289,-0.09406754,-0.01083387
1.026036,-0.09839961,-0.01608113
1.026528,-0.09991732,-0.01507025
1.026471,-0.1002101,-0.0144268
1.026518,-0.1002495,-0.01594741
1.027204,-0.09927131,-0.0141594
1.028371,-0.0995545,-0.01327053
1.02868,-0.09844488,-0.01342295
1.028866,-0.09908413,-0.009267774
1.027694,-0.100804,-0.005874905
1.025538,-0.09868011,-0.00837991
1.026086,-0.09826425,-0.01021569
1.02603,-0.09884583,-0.005091726
1.024318,-0.09842885,-0.001119693
1.024976,-0.09933541,-0.005458583
1.025383,-0.1013044,-0.01059298
1.024644,-0.1045612,-0.01243149
1.025137,-0.1041081,-0.01214856
1.025259,-0.09972411,-0.01027177
