accx,accy,accz
1.03854,-0.0442108,0.05086479
1.044067,-0.04133595,0.04818037
1.038105,-0.04183064,0.0502122
1.029793,-0.04168975,0.0622426
1.026687,-0.04379382,0.07242099
1.026039,-0.04499118,0.07028022
1.024203,-0.04552049,0.06332225
1.024126,-0.04622578,0.06227437
1.023744,-0.04859966,0.05950539
1.024142,-0.05421092,0.05502462
1.025701,-0.05960205,0.05556461
1.024836,-0.06034973,0.05495936
1.024843,-0.05536141,0.05210754
1.024516,-0.04854993,0.04729971
1.02125,-0.04218304,0.04432444
1.019169,-0.04007925,0.04819699
1.022543,-0.04241373,0.04956098
1.027291,-0.04163709,0.04775256
1.026825,-0.03932288,0.04679248
1.027275,-0.03605859,0.0443638
1.028584,-0.03160957,0.04487047
1.025253,-0.03314934,0.04940307
1.024391,-0.03538613,0.05357655
1.025402,-0.03417543,0.05479493
1.024725,-0.0352911,0.05829324
1.025188,-0.03671128,0.06636427
1.024946,-0.03744029,0.06908151
1.024889,-0.03719783,0.07046478
1.025233,-0.03527504,0.07413559
1.024748,-0.03592581,0.07129488
1.025164,-0.03576251,0.06847859
1.024984,-0.03457174,0.06739531
1.025056,-0.03849561,0.06457245
1.025554,-0.04163363,0.06663503
1.023798,-0.04029785,0.06835312
1.021614,-0.0408322,0.06963438
1.021699,-0.04592281,0.07574324
1.023211,-0.05035517,0.07830401
1.024415,-0.04895631,0.07324774
1.027328,-0.04864989,0.06378826
1.029104,-0.05459058,0.06033141
1.027156,-0.06005357,0.06313345
1.022965,-0.06430674,0.06383915
1.008433,-0.06779694,0.07294226
0.9943749,-0.06007416,0.08223763
1.00127,-0.04532212,0.07331826
1.023952,-0.04351304,0.05900654
1.046238,-0.04856598,0.05235694
1.040877,-0.04591925,0.06198611
1.021712,-0.04153089,0.0775267
1.024662,-0.0381842,0.07169983
1.023568,-0.04090047,0.06414294
1.019416,-0.05167212,0.0665829
1.02714,-0.05807997,0.05960174
1.023791,-0.05904618,0.05855255
1.02379,-0.05567124,0.05851309
1.025208,-0.04931109,0.05384724
1.022443,-0.04615229,0.06603172
1.029115,-0.04482818,0.07234331
1.027727,-0.04666223,0.06580283
1.02661,-0.04905569,0.06519516
1.027104,-0.0497555,0.06867828
1.021048,-0.04991658,0.07441442
1.02332,-0.04667781,0.07210698
1.025747,-0.04678486,0.06741212
1.028423,-0.04807429,0.06565783
1.029129,-0.04640246,0.06059051
1.025326,-0.04767908,0.06227404
1.026146,-0.04725596,0.0630997
1.021822,-0.04661138,0.05880487
1.020787,-0.04656651,0.05802873
1.024292,-0.04327867,0.05847915
1.023633,-0.04297771,0.06181962
1.029339,-0.0449369,0.06504572
1.032318,-0.04582697,0.06650115
1.029989,-0.04352069,0.06826291
1.031512,-0.04015663,0.06744576
1.032316,-0.04179969,0.06333152
1.031663,-0.04318153,0.06000161
1.029934,-0.04547293,0.06062824
1.028691,-0.05031388,0.05812066
1.028233,-0.04986557,0.05639904
1.024626,-0.05093882,0.05766175
1.020041,-0.056005,0.05172277
1.020537,-0.05446862,0.0498061
1.025677,-0.05172105,0.05478417
1.028078,-0.05258024,0.06146612
1.027636,-0.05038337,0.0692835
1.026055,-0.0480556,0.05892289
1.024064,-0.04636571,0.04510085
1.025185,-0.0449567,0.05239519
1.025477,-0.04827103,0.05671075
1.025278,-0.0493851,0.05400698
1.026125,-0.04823779,0.05767997
1.024476,-0.04986195,0.05723747
1.023786,-0.04972577,0.05515312
1.024154,-0.04830953,0.05346893
1.025191,-0.04668251,0.04875447
1.028083,-0.04695119,0.05301716
1.027896,-0.04907825,0.05768039
1.025523,-0.04926786,0.05208086
1.024647,-0.05038679,0.05060927
1.024841,-0.05028516,0.05457738
1.025256,-0.04991598,0.05642249
1.025107,-0.05339032,0.05520929
1.025769,-0.05549928,0.05241463
1.026671,-0.05475023,0.05191176
1.025127,-0.05159087,0.05343156
1.022727,-0.0486745,0.05675811
1.022308,-0.04905917,0.05932334
1.024812,-0.05140521,0.05845235
1.027487,-0.05560115,0.0579509
1.026559,-0.05648081,0.05846382
1.025702,-0.05411724,0.05917377
1.026883,-0.05224995,0.06174287
1.026517,-0.0490004,0.06393286
1.027003,-0.05019675,0.0591
1.028408,-0.05558448,0.05287254
1.0273,-0.05769531,0.05547872
1.025801,-0.05668061,0.05767017
1.024708,-0.05282943,0.05792046
1.024613,-0.05011543,0.06256244
1.02547,-0.0503634,0.06210151
1.024835,-0.04894879,0.0604919
1.025368,-0.04718802,0.06301528
1.027999,-0.04682847,0.05847288
1.029722,-0.04641359,0.05234478
1.029042,-0.04562716,0.05381177
1.025948,-0.04576757,0.06000832
1.024307,-0.04723296,0.06531087
1.02498,-0.04859775,0.06022176
1.025179,-0.05069302,0.05413358
1.02499,-0.05151887,0.05963227
1.024863,-0.04859755,0.06320053
1.02494,-0.04624853,0.06171174
1.024123,-0.04704802,0.06175882
1.023189,-0.04761949,0.05929244
1.023696,-0.0460075,0.05916856
1.023868,-0.04545114,0.06231907
1.024764,-0.04609141,0.06212977
1.026952,-0.04569689,0.06225083
1.027483,-0.04550886,0.06387184
1.02617,-0.04411382,0.06631908
1.025396,-0.04236809,0.06901897
1.024174,-0.04282539,0.06683577
1.021295,-0.04246053,0.06486323
1.02167,-0.04121891,0.06626429
1.023205,-0.04171777,0.06496673
1.021828,-0.04305808,0.06535759
1.023228,-0.04404165,0.06611343
1.025263,-0.04476781,0.06233243
1.02484,-0.04454777,0.06217171
1.025213,-0.04413682,0.06423492
1.0249,-0.04485394,0.06831694
1.024893,-0.04567552,0.07555802
1.025259,-0.0477263,0.07353809
1.024727,-0.04949722,0.06739748
1.025695,-0.04826243,0.06507795
1.02769,-0.04727198,0.06180275
1.029833,-0.04638606,0.05889882
1.029698,-0.04526177,0.0560849
1.028365,-0.04596055,0.05710491
1.028662,-0.04619467,0.05991042
1.0245,-0.04648006,0.05729196
1.018608,-0.04764567,0.05626809
1.01881,-0.04731281,0.05579074
1.020417,-0.04783057,0.05405257
1.021066,-0.05189058,0.05367944
1.02261,-0.05514554,0.05024352
1.023004,-0.05228184,0.04900852
1.023507,-0.04724843,0.04747011
1.025681,-0.04662627,0.04310532
1.025447,-0.04734556,0.04857027
1.024222,-0.0458691,0.05628874
1.025449,-0.04381695,0.05769718
1.025608,-0.04275364,0.05840637
1.027257,-0.04478268,0.05566557
1.030455,-0.04609129,0.05382073
1.029215,-0.04209925,0.05878053
1.028171,-0.03906935,0.06299869
1.02775,-0.04124957,0.06154604
1.024754,-0.04350783,0.05836966
1.024416,-0.04301041,0.05731493
1.025168,-0.04270866,0.05680026
1.023035,-0.0422508,0.05536953
1.021927,-0.03992178,0.05388849
1.024539,-0.03818027,0.05600231
1.028488,-0.03715845,0.06100839
1.029847,-0.03754143,0.06187023
1.02817,-0.03958617,0.06173364
1.027024,-0.03986383,0.06294938
1.026876,-0.03946395,0.0623704
1.025365,-0.0397719,0.06305447
1.024407,-0.04027545,0.065387
1.025582,-0.04060655,0.06845052
1.026897,-0.04039691,0.07009263
1.02809,-0.04169255,0.07075989
1.02817,-0.04201021,0.0717164
1.027313,-0.03936847,0.06526718
1.027919,-0.03869963,0.05820522
1.027617,-0.04080163,0.06106687
1.02566,-0.04244885,0.06343017
1.024703,-0.04201361,0.0612751
1.024734,-0.03897553,0.059937
1.025109,-0.03495672,0.05790639
1.024116,-0.03397844,0.05748201
1.023783,-0.03697301,0.05927276
1.027392,-0.03815128,0.05806859
1.0303,-0.03606901,0.05842832
1.02944,-0.03493248,0.06192377
1.028149,-0.03451552,0.06383137
1.027656,-0.03498497,0.06550148
1.026254,-0.03694272,0.06407923
1.02661,-0.03871937,0.05872104
1.028808,-0.03944633,0.05502053
1.027284,-0.03866373,0.05884112
1.025459,-0.03871296,0.06548636
1.02515,-0.03924613,0.06213059
1.024332,-0.03859645,0.05879965
1.025648,-0.03880059,0.06005225
1.025792,-0.03775356,0.05704988
1.025439,-0.03449909,0.05797917
1.026679,-0.03143029,0.05858892
1.027764,-0.03134447,0.05916212
1.029959,-0.03479323,0.06611782
1.028157,-0.03419449,0.0641098
1.024826,-0.03203158,0.05821166
1.025164,-0.03494944,0.05745212
1.024316,-0.03528707,0.05534271
1.023319,-0.03417738,0.05633434
1.021948,-0.03615356,0.05783404
1.021155,-0.03620538,0.05720728
1.0213,-0.03550609,0.05792872
1.018504,-0.03360638,0.05604407
1.019561,-0.03120024,0.05256233
1.023289,-0.0338517,0.04905189
1.024534,-0.03667692,0.04734411
1.025842,-0.0361961,0.04940073
1.02473,-0.03556137,0.04970663
1.024788,-0.0342239,0.05002658
1.026577,-0.03213092,0.05207886
1.02611,-0.03170042,0.05146394
1.025959,-0.03131649,0.0512618
1.022811,-0.02846403,0.05286678
1.019608,-0.02818589,0.05526954
1.022283,-0.02931658,0.05856639
1.025839,-0.02704787,0.05910103
1.028784,-0.02743525,0.05837379
1.03281,-0.02876011,0.06094955
1.036711,-0.02784637,0.06366117
1.036254,-0.02873794,0.06309425
1.031663,-0.02730827,0.06473785
1.029362,-0.02416876,0.06889779
1.028294,-0.02224674,0.06743866
1.025586,-0.01994687,0.06198497
1.02332,-0.02135583,0.05851735
1.023279,-0.02502919,0.05938314
1.024022,-0.02698468,0.06257196
1.023399,-0.02662497,0.06266761
1.024267,-0.0242356,0.06230868
1.027432,-0.02503257,0.06299506
1.029971,-0.02745424,0.06304507
1.029784,-0.02804467,0.06399809
1.027774,-0.02933,0.06191768
1.026771,-0.03098825,0.05847142
1.024728,-0.03253876,0.05890933
1.024919,-0.03205917,0.05999906
1.027262,-0.03042023,0.06068367
1.02338,-0.03070693,0.06304491
1.020825,-0.03061414,0.0666953
1.022972,-0.0313547,0.06776548
1.023072,-0.03214692,0.06727365
1.023939,-0.02995268,0.06689013
1.024756,-0.02805051,0.06082363
1.025266,-0.02640878,0.05665628
1.026814,-0.0248013,0.06133011
1.026205,-0.02638963,0.06336969
1.024578,-0.02878498,0.05959236
1.023622,-0.02847087,0.05779292
1.023703,-0.02993167,0.06196234
1.024327,-0.03437655,0.06525673
1.026959,-0.03476141,0.06190462
1.030578,-0.03412605,0.05997347
1.029214,-0.03541416,0.06165292
1.027047,-0.03439408,0.06219781
1.026374,-0.03386925,0.06248035
1.024196,-0.03104186,0.06361872
1.024763,-0.02494954,0.06577106
1.025665,-0.02401141,0.06537667
1.024494,-0.02551417,0.06018444
1.025116,-0.02500808,0.05982674
1.025203,-0.02481093,0.06574596
1.024686,-0.02546562,0.06650525
1.025415,-0.02682779,0.06538437
1.025825,-0.02819804,0.0658177
1.026395,-0.02809787,0.06462772
1.025768,-0.02716351,0.06675086
1.024367,-0.02683854,0.06813211
1.025071,-0.02542634,0.06748448
1.025268,-0.02427928,0.06784735
1.024517,-0.02535485,0.06569847
1.024273,-0.02559589,0.06499059
1.023341,-0.02738462,0.06189276
1.023391,-0.03012591,0.05687997
1.023958,-0.02821808,0.05870486
1.023411,-0.02601163,0.06081257
1.023598,-0.0266137,0.06205686
1.023761,-0.02732336,0.06327843
1.02362,-0.02797258,0.06207755
1.024605,-0.02795942,0.06268529
1.025269,-0.02789057,0.06379603
1.025037,-0.02965427,0.06515304
1.024886,-0.03100653,0.06833478
1.025209,-0.02936236,0.07200745
1.025781,-0.02716322,0.07443327
1.025674,-0.02717982,0.07204244
1.024708,-0.02702783,0.06951785
1.023809,-0.02459867,0.0713264
1.023759,-0.02447744,0.07247468
1.024415,-0.02761853,0.07374866
1.025274,-0.02836582,0.0747096
1.025225,-0.02860925,0.06876125
1.024654,-0.03034103,0.06283725
1.024801,-0.03041654,0.06538714
1.022958,-0.03153834,0.06833099
1.019639,-0.03401696,0.06811667
1.01892,-0.03363778,0.07058619
1.019724,-0.03184705,0.07419072
1.020846,-0.03179307,0.07440534
1.022952,-0.03285951,0.06882294
1.025122,-0.03532197,0.06194285
1.025428,-0.038692,0.0631014
1.02464,-0.03798114,0.06597161
1.025104,-0.03648383,0.06563287
1.024941,-0.03830806,0.06884563
1.023888,-0.03930192,0.06939689
1.023534,-0.04317715,0.0684543
1.02341,-0.04800654,0.07143167
1.023974,-0.04673296,0.06758181
1.024511,-0.04657613,0.06309368
1.025095,-0.04667385,0.06581156
1.025866,-0.03893649,0.06573575
1.027327,-0.03022883,0.06465593
1.030095,-0.02902232,0.06564294
1.029285,-0.0314169,0.06521535
1.026117,-0.03071659,0.06392109
1.024607,-0.02990694,0.05915646
1.023057,-0.03145312,0.05481978
1.024294,-0.03238569,0.06106948
1.026137,-0.03452867,0.06866931
1.025606,-0.03525858,0.06493054
1.027863,-0.03193682,0.06174079
1.030281,-0.02990314,0.06351423
1.030266,-0.02942069,0.06182648
1.028234,-0.02987275,0.06236184
1.022434,-0.03045323,0.06345174
1.01946,-0.0302773,0.06251541
1.021864,-0.03192192,0.06538198
1.023163,-0.03220401,0.06761981
1.023226,-0.03161818,0.06965982
1.025448,-0.03229826,0.06971494
1.027381,-0.03168476,0.06615571
1.026042,-0.03199339,0.06678229
1.024931,-0.03176708,0.06611286
1.024315,-0.02966467,0.06501002
1.023132,-0.02731727,0.0677047
1.024606,-0.02355156,0.06905973
1.025577,-0.02124078,0.0726061
1.024706,-0.02161451,0.07313277
1.02506,-0.02382866,0.06986027
1.025051,-0.02729754,0.07056676
1.024915,-0.03006734,0.07053587
1.025802,-0.0310174,0.0734805
1.028495,-0.02841079,0.07765919
1.030989,-0.02563446,0.07609462
1.027388,-0.02512819,0.07531508
1.023061,-0.02539737,0.07335061
1.025206,-0.02661743,0.0734313
1.026835,-0.02413835,0.08094331
1.025833,-0.01886086,0.08371806
1.02654,-0.01777887,0.0843531
1.025607,-0.02061812,0.09011533
1.024127,-0.02342944,0.08644935
1.023548,-0.02171683,0.07544452
1.018504,-0.01724833,0.07473268
1.013232,-0.01286316,0.08298494
1.014507,-0.005771487,0.09925635
1.021729,0.003098781,0.112407
1.030855,0.01060717,0.1043257
1.033861,0.01150957,0.09435131
1.030174,0.008911267,0.09440584
1.027512,0.007216358,0.09283837
1.025935,-0.003287472,0.09322706
1.021635,-0.0129782,0.09451754
1.014293,-0.0120778,0.09549169
1.004551,-0.0154829,0.09945439
1.000214,-0.02507427,0.1005303
1.002147,-0.03715591,0.09856199
1.000347,-0.04725484,0.09229928
1.003274,-0.05083771,0.08381827
1.013801,-0.05245546,0.08427313
1.020164,-0.05390367,0.09066661
1.026859,-0.0622763,0.09619432
1.034141,-0.07044584,0.103195
1.039523,-0.07413936,0.1070589
1.042905,-0.08672298,0.09584149
1.040989,-0.09793311,0.07583918
1.048059,-0.1092727,0.0671373
1.069657,-0.1201383,0.06268203
1.085787,-0.1151947,0.04961254
1.072432,-0.1136673,0.04361699
1.041016,-0.111386,0.04801448
1.02579,-0.09313999,0.04630315
1.012203,-0.07545852,0.03922825
1.00061,-0.05968246,0.03349182
1.007867,-0.04875656,0.02673646
1.003926,-0.04762013,0.01927265
1.001539,-0.0509904,0.01117316
1.015502,-0.05968139,0.002096272
1.02694,-0.06715867,-0.005248832
1.043548,-0.06795586,-0.01345042
1.058142,-0.06247855,-0.02462207
1.069844,-0.050816,-0.04223236
1.065207,-0.03671181,-0.062221
1.022261,-0.03330821,-0.05998544
0.9769441,-0.04584503,-0.04053665
0.9563047,-0.05448327,-0.02948733
0.9612657,-0.05531052,-0.0209836
0.9778165,-0.05073114,-0.01536807
1.000983,-0.0361554,-0.01423218
1.035139,-0.02624804,-0.01270941
1.051679,-0.02178028,-0.02464655
1.056852,-0.0207642,-0.03448841
1.049441,-0.02387258,-0.02444562
1.025766,-0.02140901,-0.0104574
1.027591,-0.0219644,0.001573931
1.031929,-0.0242773,0.003898013
1.02612,-0.02645066,-0.006187724
1.029334,-0.03296368,-0.01260199
1.025758,-0.03032187,-0.01076088
1.029327,-0.02354584,-0.01163822
1.034758,-0.01630268,-0.01750233
1.030577,-0.007510392,-0.01753943
1.031393,-0.008451212,-0.02264187
1.027606,-0.002110067,-0.03517027
1.0233,0.01320506,-0.03586855
1.024585,0.01063926,-0.03625466
1.023696,-0.0005570597,-0.038891
1.021682,-0.0112067,-0.03444224
1.021476,-0.02512482,-0.03584925
1.022894,-0.02615218,-0.03712434
1.019446,-0.02538949,-0.03262361
1.015151,-0.03283795,-0.03160937
1.011542,-0.02793969,-0.03020709
1.007844,-0.02458694,-0.03090867
1.010197,-0.02723431,-0.03392186
1.010236,-0.02498291,-0.03488504
1.008905,-0.0311589,-0.03852497
1.011633,-0.03338176,-0.04306799
1.017077,-0.0332259,-0.05983055
1.029924,-0.04407173,-0.08421768
1.044073,-0.05165618,-0.08195933
1.059184,-0.06030049,-0.07525998
1.07267,-0.06683459,-0.08824157
1.066132,-0.06478994,-0.08617618
1.047089,-0.06265309,-0.0731573
1.034241,-0.05543994,-0.07045322
1.029717,-0.04488765,-0.07085802
1.027368,-0.03682844,-0.07554268
1.017489,-0.03579402,-0.07359601
1.011602,-0.03751996,-0.06772358
1.017478,-0.03479191,-0.06859714
1.018293,-0.03642695,-0.06412353
1.019091,-0.03682001,-0.06319036
1.022769,-0.03511916,-0.06497981
1.023581,-0.0381591,-0.06339978
1.029929,-0.03864515,-0.0659403
1.031676,-0.04114694,-0.06414014
1.030029,-0.0451029,-0.06520221
1.033405,-0.04705436,-0.069072
1.031606,-0.05020734,-0.06943671
1.031401,-0.05051636,-0.07226746
1.03267,-0.05222053,-0.06817091
1.030254,-0.05340132,-0.06377932
1.0307,-0.04884149,-0.06101925
1.030286,-0.04502246,-0.05568635
1.028999,-0.04273811,-0.05870689
1.026573,-0.04265408,-0.05791893
1.023638,-0.04376063,-0.05255014
1.025743,-0.04414508,-0.05287451
1.02812,-0.04870797,-0.05255611
1.029477,-0.05612434,-0.05439727
1.029783,-0.06117752,-0.05774896
1.028481,-0.06151386,-0.06010308
1.029397,-0.06151739,-0.06001465
1.029403,-0.06535521,-0.05398289
1.028551,-0.0675708,-0.0501241
1.028628,-0.07034665,-0.04859104
1.027384,-0.07514483,-0.04570595
1.027385,-0.07334926,-0.04379887
1.026787,-0.06821984,-0.04049333
1.022757,-0.06637369,-0.03681917
1.019587,-0.06649545,-0.0335135
1.018914,-0.06795903,-0.03201249
1.019542,-0.07406143,-0.03224327
1.019331,-0.08821546,-0.0291395
1.01737,-0.1001717,-0.02683082
1.016967,-0.09986627,-0.02661429
1.020086,-0.09682985,-0.02759526
1.024444,-0.0963387,-0.02986238
1.027097,-0.0940754,-0.02644533
1.029506,-0.09452215,-0.02258263
1.029456,-0.09672582,-0.02030919
1.023699,-0.093783,-0.01325743
1.021576,-0.09217906,-0.01077889
1.026222,-0.09445572,-0.01437468
1.029713,-0.09590433,-0.01527557
1.02895,-0.100837,-0.0152871
1.026689,-0.1073183,-0.01641747
1.027899,-0.1086415,-0.01577511
1.028219,-0.1094842,-0.01130695
1.026268,-0.1120306,-0.006686292
1.027336,-0.1104875,-0.007828003
1.02649,-0.1085138,-0.01052629
1.023379,-0.1105319,-0.009380615
1.021521,-0.1108898,-0.009513104
1.021728,-0.1117264,-0.009421819
1.022731,-0.1129634,-0.004129375
1.019969,-0.108977,0.001357004
1.018728,-0.1056505,0.005087011
1.019831,-0.1049293,0.008008958
1.019394,-0.1045878,0.01007378
1.020507,-0.1043459,0.008229427
1.021398,-0.1038036,0.002616232
1.022804,-0.1059509,0.002165856
1.025093,-0.108764,0.003294505
1.025286,-0.1114836,0.002691112
1.024961,-0.11359,0.004938964
1.024814,-0.1128147,0.005014248
1.024821,-0.1126066,0.001047259
1.023214,-0.1124903,-0.004452267
1.021486,-0.1132621,-0.00738333
1.022281,-0.1145939,-0.008052914
1.022426,-0.1137189,-0.008730536
1.022431,-0.1153211,-0.004129758
1.024036,-0.1186363,-0.0006379268
1.025386,-0.120937,0.001338011
1.024336,-0.121338,0.008254365
1.02303,-0.1188176,0.007808391
1.024691,-0.1159231,-0.0007010048
1.026046,-0.111032,-0.006755951
1.027436,-0.1080943,-0.01132622
1.03002,-0.1101777,-0.01340582
1.028817,-0.1104054,-0.01365308
1.02492,-0.1110242,-0.02009974
1.022866,-0.1120959,-0.02480414
1.022915,-0.1044389,-0.01898717
1.022346,-0.09053956,-0.01652086
1.02015,-0.08407176,-0.01758157
1.020905,-0.0883225,-0.01748784
1.024292,-0.09154288,-0.02073342
1.025399,-0.09181496,-0.02008024
1.025208,-0.09566091,-0.02174043
1.024819,-0.1000914,-0.02811774
1.024855,-0.1023862,-0.02829005
1.025348,-0.1016204,-0.02846678
1.024721,-0.09956989,-0.03225151
1.025209,-0.1009818,-0.03545874
1.025755,-0.103962,-0.03284098
1.024544,-0.1080459,-0.02872023
1.023443,-0.1098355,-0.03277072
1.023454,-0.1068052,-0.03361029
1.02599,-0.1056874,-0.02658162
1.02843,-0.1039976,-0.02095397
1.030501,-0.1030308,-0.01964634
1.032232,-0.1049862,-0.02241365
1.028252,-0.1017945,-0.02239552
1.023892,-0.09970523,-0.01980228
1.024737,-0.1010699,-0.01900412
1.025731,-0.1003224,-0.01798598
1.025648,-0.1001762,-0.01999643
1.026708,-0.1001742,-0.02319072
1.027864,-0.1027221,-0.02229938
1.02852,-0.1053619,-0.01985477
1.029658,-0.1048212,-0.01914925
1.029105,-0.1084287,-0.02101314
1.027624,-0.1126972,-0.02381278
1.027227,-0.1109869,-0.02512655
1.026562,-0.1074661,-0.0211288
1.02658,-0.1063726,-0.01499991
1.023972,-0.1056817,-0.01415819
1.02062,-0.1032893,-0.0144848
1.02283,-0.1014306,-0.01473727
1.024594,-0.1012623,-0.01809476
1.024311,-0.1034037,-0.01910359
1.022933,-0.104169,-0.01825831
1.019753,-0.09987304,-0.02248087
1.021391,-0.09425633,-0.02702328
1.023305,-0.09057553,-0.02542393
1.020692,-0.09100618,-0.0220361
1.020323,-0.0955989,-0.01683648
1.020446,-0.09884499,-0.01157263
1.019998,-0.09157964,-0.01372177
1.022042,-0.08020024,-0.01505819
1.022592,-0.08134217,-0.01153338
1.021061,-0.08632678,-0.009269004
1.021259,-0.08670661,-0.002383931
1.024776,-0.08687062,0.004283686
1.030461,-0.08205298,0.001771703
1.037364,-0.07615132,0.003120232
1.048352,-0.07329933,0.0127134
1.0563,-0.06979331,0.02043874
1.049959,-0.06687471,0.02654642
1.03714,-0.06763081,0.03556139
1.025038,-0.07608342,0.04935146
1.012859,-0.08500623,0.0622455
1.005517,-0.08748782,0.06713334
1.000038,-0.08676249,0.07817238
0.9973183,-0.07917161,0.1006032
1.001933,-0.06594899,0.1160587
1.004033,-0.05560923,0.1313344
1.004445,-0.05070099,0.1479059
1.011912,-0.04446845,0.1509229
1.025963,-0.03542503,0.1565162
1.039881,-0.03587592,0.1528829
1.046227,-0.04372973,0.1260224
1.04798,-0.05407823,0.1159805
1.037502,-0.07386653,0.1245596
1.010694,-0.09571729,0.1285429
0.998166,-0.1022345,0.1257877
1.018452,-0.0876279,0.1101218
1.049113,-0.06571574,0.08507793
1.060963,-0.04445209,0.06026746
1.053327,-0.02818264,0.05314561
1.037546,-0.03308592,0.06658152
1.008223,-0.05024545,0.08651574
0.979034,-0.07042626,0.1130977
0.9827038,-0.09226415,0.1293947
1.010546,-0.0975993,0.1274814
1.035752,-0.09733306,0.1253719
1.050239,-0.09955607,0.121213
1.046141,-0.08871758,0.1097725
1.04103,-0.06602814,0.103139
1.045986,-0.03567878,0.1009595
1.038397,-0.01833875,0.08570464
1.03077,-0.02055893,0.07327289
1.025704,-0.02600014,0.07875353
1.012806,-0.04984576,0.07578377
1.013652,-0.08587765,0.06735334
1.019052,-0.1081115,0.07044108
1.022288,-0.1148948,0.06998536
1.027418,-0.1061518,0.0626219
1.026585,-0.09295155,0.06048537
1.030481,-0.07840384,0.05873702
1.032533,-0.06266535,0.05139252
1.033713,-0.05803209,0.04203147
1.040013,-0.05444943,0.03044063
1.03649,-0.05362661,0.02648833
1.031791,-0.06520892,0.02781243
1.028003,-0.07400795,0.0189635
1.020865,-0.07945809,0.0155102
1.014378,-0.0853944,0.0183005
0.9961657,-0.08535797,0.008235615
0.9713625,-0.08554778,-0.006227358
0.963871,-0.09071114,-0.01301592
0.9683589,-0.1023684,-0.009137984
0.9619271,-0.1252631,-0.005902093
0.9589947,-0.1414546,-0.01047766
0.9737349,-0.1388904,-0.01736141
1.010975,-0.1517648,-0.04624049
1.088888,-0.1791548,-0.0828485
1.13406,-0.1788453,-0.08150616
1.104419,-0.1591062,-0.06485408
1.097389,-0.1224268,-0.05092253
1.10282,-0.07697578,-0.02148127
1.054473,-0.07109536,-0.00232845
0.9981407,-0.0698767,0.007547811
0.9681869,-0.05378421,0.0227392
0.9663349,-0.07164761,0.01677378
0.9795625,-0.08408074,0.01450435
0.9910899,-0.08227524,0.01659147
1.011202,-0.1006158,-0.003103547
1.020481,-0.1121562,-0.00612367
1.018227,-0.1308151,-0.00696861
1.028908,-0.1511498,-0.01955515
1.036654,-0.1554615,-0.01896758
1.038921,-0.1602195,-0.0213059
1.04223,-0.1437027,-0.02027091
1.040501,-0.1266125,-0.01627495
1.036631,-0.1113112,-0.01142654
1.031215,-0.08643589,0.001031197
1.023558,-0.09134793,0.007076417
1.017671,-0.093351,0.01705892
1.019568,-0.08711885,0.02163445
1.020304,-0.09506955,0.02031927
1.016593,-0.09162946,0.02460811
1.016125,-0.09214306,0.01799084
1.013322,-0.09301751,0.01399308
1.015818,-0.08788658,0.006299397
1.020636,-0.09182866,-0.006744327
1.017946,-0.09334677,0.004607939
1.019402,-0.09668769,0.01422893
1.019329,-0.09964698,0.004125388
1.016832,-0.09752703,-0.002062434
1.011156,-0.1696273,-0.07383061
1.016432,-0.1728391,-0.07805668
1.022509,-0.1762764,-0.08416814
1.025209,-0.1866502,-0.08202112
1.020484,-0.193269,-0.07775671
1.013806,-0.1906026,-0.07751825
1.01644,-0.1909868,-0.07569178
1.018413,-0.1942311,-0.07451043
1.015175,-0.1932638,-0.07593825
1.016901,-0.1911817,-0.07953122
1.016338,-0.1927283,-0.08330408
1.014034,-0.1954061,-0.08208188
1.016317,-0.1996889,-0.07770759
1.016995,-0.2054501,-0.0716638
1.017542,-0.2111032,-0.06259217
1.0152,-0.2163371,-0.05660531
1.010915,-0.2121014,-0.05606992
1.014288,-0.2016775,-0.06421138
1.016762,-0.1936226,-0.07737246
1.014635,-0.1914279,-0.07591082
1.014836,-0.2007452,-0.07342198
1.013843,-0.2039611,-0.07974408
1.011681,-0.1929333,-0.07033407
1.012364,-0.1812776,-0.06250257
1.013168,-0.1741706,-0.06829514
1.013072,-0.178463,-0.06570197
1.014151,-0.1884997,-0.06058313
1.014056,-0.1958913,-0.05797912
1.012518,-0.1975372,-0.0603196
1.012478,-0.1955103,-0.06764346
1.012457,-0.2021861,-0.06700425
1.012442,-0.2049781,-0.0660725
1.012328,-0.2047962,-0.0674773
1.010504,-0.211202,-0.06700273
1.009114,-0.2069828,-0.06921573
1.008646,-0.2045729,-0.07078042
1.008506,-0.2050714,-0.07262048
1.0091,-0.1943598,-0.07283987
1.010163,-0.1902286,-0.07036965
1.011246,-0.1887182,-0.07063887
1.012781,-0.1826827,-0.06929869
1.014883,-0.1799309,-0.0679141
1.014928,-0.1765552,-0.06901403
1.015101,-0.1728774,-0.06764543
1.016818,-0.1707859,-0.0658317
1.016746,-0.1701014,-0.06509693
1.01757,-0.1684873,-0.06622477
1.018539,-0.1663688,-0.0718385
1.017807,-0.1653065,-0.07559675
1.018155,-0.1640868,-0.06845891
1.018588,-0.1653341,-0.05728434
1.020649,-0.1649792,-0.05414153
1.022665,-0.1663829,-0.0517531
1.019325,-0.1699296,-0.04663033
1.014962,-0.1678593,-0.04811995
1.014679,-0.1705634,-0.04934749
1.015747,-0.1755464,-0.04881265
1.015352,-0.176878,-0.05692767
1.016,-0.1804602,-0.06523828
1.017029,-0.1807011,-0.06616589
1.01567,-0.1807879,-0.06465056
1.01487,-0.1829422,-0.06276102
1.015341,-0.1817199,-0.06325157
1.015196,-0.1820066,-0.0658207
1.014329,-0.1843026,-0.06593884
1.013212,-0.1861112,-0.0648328
1.012098,-0.1876838,-0.06637425
1.010695,-0.1882902,-0.06825981
1.010975,-0.1882534,-0.06797333
1.012632,-0.1871812,-0.06777931
1.013467,-0.1862363,-0.06632675
1.013999,-0.1858439,-0.06451011
1.013123,-0.1841419,-0.06533829
1.011927,-0.1819201,-0.06587239
1.012961,-0.1788118,-0.06685598
1.014479,-0.1752344,-0.06868933
1.015582,-0.1764731,-0.06825589
1.015454,-0.1809653,-0.06764198
1.013602,-0.1824167,-0.06824359
1.011954,-0.1812496,-0.06815604
1.011182,-0.1792743,-0.0671162
1.013833,-0.1768475,-0.0637511
1.018425,-0.1744048,-0.05694224
1.018632,-0.1736468,-0.05451559
1.017553,-0.1732023,-0.06050829
1.018281,-0.1698576,-0.06435901
1.017684,-0.1699857,-0.06327307
1.016181,-0.1727263,-0.0662697
1.015203,-0.1727348,-0.07099208
1.016752,-0.1756938,-0.06816383
1.01926,-0.176419,-0.06491808
1.018935,-0.1755018,-0.06896137
1.019203,-0.1803905,-0.07233474
1.020033,-0.1822664,-0.07394327
1.018703,-0.1850084,-0.07452031
1.017465,-0.1893106,-0.07283329
1.015344,-0.1851686,-0.07456564
1.013381,-0.1825454,-0.07415488
1.013228,-0.1835823,-0.06908598
1.01249,-0.1821896,-0.06850491
1.014039,-0.1817754,-0.07402949
1.016331,-0.1820446,-0.07982871
1.015462,-0.1829215,-0.07667694
1.01691,-0.1836685,-0.07257326
1.019889,-0.1834288,-0.07608795
1.019703,-0.1842255,-0.07532669
1.018276,-0.1849792,-0.07397198
1.015064,-0.1844994,-0.0745521
1.0112,-0.1827328,-0.06736345
1.011865,-0.1816204,-0.06234661
1.013591,-0.1831171,-0.06723644
1.012191,-0.1856049,-0.07237196
1.013291,-0.1861667,-0.06896554
1.015714,-0.1829842,-0.06173704
1.014928,-0.178973,-0.05977845
1.014443,-0.1776108,-0.06427243
1.013926,-0.1781694,-0.07113951
1.014376,-0.1795689,-0.07086551
1.016089,-0.1810309,-0.06878769
1.015076,-0.1808738,-0.07115252
1.015027,-0.1804248,-0.06876636
1.015684,-0.1825397,-0.06828703
1.014765,-0.1838652,-0.06993329
1.014539,-0.1823095,-0.06730053
1.013646,-0.1815455,-0.06702142
1.013628,-0.1819512,-0.0665619
1.014468,-0.1819388,-0.06646961
1.014345,-0.1809523,-0.06669595
1.014868,-0.1802169,-0.06442581
1.01475,-0.18062,-0.06372553
1.015048,-0.1800695,-0.06349758
1.016198,-0.1778292,-0.06439041
1.016737,-0.1755974,-0.06490187
1.01834,-0.1765702,-0.06504236
1.017714,-0.1797478,-0.06526572
1.015639,-0.1810032,-0.0611222
1.016745,-0.1807955,-0.05980577
1.015768,-0.1806364,-0.06555938
1.0125,-0.1828337,-0.07260872
1.011342,-0.1868576,-0.07379208
1.011276,-0.1876894,-0.07124916
1.014368,-0.1848444,-0.07436931
1.019022,-0.1822082,-0.07602595
1.020261,-0.1831467,-0.07312708
1.018641,-0.184105,-0.06904482
1.015527,-0.1827424,-0.06326702
1.013276,-0.1834251,-0.06429288
1.014331,-0.1825856,-0.06515488
1.016168,-0.1775084,-0.05813234
1.015259,-0.1744254,-0.05601325
1.01436,-0.177833,-0.06010738
1.014071,-0.1831122,-0.0643071
1.012085,-0.1826037,-0.06918293
1.014422,-0.1834269,-0.07353904
1.019523,-0.1864723,-0.07219103
1.020753,-0.1837808,-0.06639037
1.020423,-0.1832696,-0.06640499
1.017234,-0.1831579,-0.0693035
1.013915,-0.1800918,-0.06785824
1.015044,-0.179457,-0.06693433
1.014954,-0.1757707,-0.06548809
1.013788,-0.1755983,-0.06330807
1.01645,-0.1812217,-0.06508304
1.018936,-0.180997,-0.06584543
1.015956,-0.1797125,-0.06441126
1.012292,-0.1790936,-0.06341613
1.012299,-0.1768536,-0.06054052
1.012902,-0.1764345,-0.06120544
1.013944,-0.1745196,-0.06716381
1.014448,-0.171471,-0.06931845
1.013823,-0.1698216,-0.0678362
1.01533,-0.1672324,-0.06754054
1.015868,-0.1649006,-0.06725333
1.013812,-0.1649544,-0.06500265
1.01326,-0.1646514,-0.06125583
1.012383,-0.1632199,-0.05617273
1.010899,-0.1631586,-0.05059455
1.013648,-0.163375,-0.05201021
1.016761,-0.1638104,-0.0589977
1.016125,-0.1646844,-0.0595411
1.0164,-0.1657204,-0.05632088
1.01722,-0.1691655,-0.05700888
1.016363,-0.1717053,-0.05983674
1.016951,-0.1723956,-0.06466794
1.018734,-0.1744078,-0.06551144
1.019733,-0.1746189,-0.05638126
1.019215,-0.1741343,-0.05353925
1.016253,-0.1756372,-0.05848874
1.013596,-0.176574,-0.05630399
1.013715,-0.176696,-0.05795024
1.015178,-0.1758419,-0.06009809
1.016509,-0.1744516,-0.05454369
1.016863,-0.1734089,-0.05658374
1.016676,-0.1731191,-0.06126663
1.016602,-0.1740785,-0.06634924
1.016303,-0.1739379,-0.07086689
1.014965,-0.1762822,-0.06670101
1.013249,-0.1836597,-0.06773724
1.01371,-0.186687,-0.06933273
1.014355,-0.1798312,-0.06596486
1.013578,-0.1716958,-0.06534906
1.014628,-0.1727654,-0.06128038
1.017635,-0.1751911,-0.06175571
1.019962,-0.1725983,-0.06502413
1.018228,-0.1736719,-0.06408021
1.015085,-0.1742471,-0.06961322
1.015544,-0.1727815,-0.07285798
1.013906,-0.1741986,-0.06597254
1.011088,-0.173472,-0.06036941
1.013216,-0.17334,-0.0640922
1.014711,-0.1740942,-0.06937052
1.015352,-0.1733328,-0.06764296
1.016849,-0.1752937,-0.06761917
1.0164,-0.1779628,-0.06825514
1.016812,-0.1795129,-0.06735334
1.016843,-0.1778052,-0.07076703
1.015903,-0.1750514,-0.0714436
1.015093,-0.1764802,-0.07094966
1.012277,-0.1757684,-0.07118511
1.011912,-0.1732298,-0.06784561
1.013277,-0.1736218,-0.06603974
1.013076,-0.1736364,-0.06465335
1.014186,-0.1735585,-0.06412134
1.014159,-0.1737117,-0.06566253
1.013634,-0.1734843,-0.06685161
1.015073,-0.1740736,-0.06986521
1.015493,-0.1753522,-0.06980841
1.015448,-0.177445,-0.06777709
1.016316,-0.1793582,-0.06835419
1.017797,-0.1803324,-0.06829878
1.018535,-0.1784699,-0.0707665
1.017857,-0.1750037,-0.07278539
1.017453,-0.1761223,-0.0694304
1.015376,-0.1772153,-0.06643961
1.01202,-0.174354,-0.0657601
1.011978,-0.1730935,-0.06727848
1.013212,-0.1721303,-0.07263846
1.01358,-0.1727139,-0.07719231
1.015802,-0.1755255,-0.07433591
1.017392,-0.1748334,-0.07011067
1.015606,-0.1738602,-0.06938477
1.014711,-0.1737027,-0.06775839
1.015344,-0.1735103,-0.06867392
1.014589,-0.175815,-0.07109258
1.014566,-0.1771847,-0.07232733
1.016437,-0.1781736,-0.07303732
1.017036,-0.1796701,-0.07026359
1.015564,-0.1789,-0.069004
1.014882,-0.1771916,-0.06622276
1.015411,-0.1764181,-0.06208575
1.015318,-0.1794632,-0.06515826
1.015195,-0.1844179,-0.06613064
1.01534,-0.1859632,-0.0649635
1.015247,-0.1862593,-0.06742255
1.015289,-0.1878155,-0.06845353
1.014921,-0.1880162,-0.06829735
1.013483,-0.1867811,-0.06698645
1.012149,-0.1860093,-0.06454441
1.013157,-0.1829066,-0.06169292
1.01478,-0.1803702,-0.06198917
1.014847,-0.1825117,-0.06689861
1.016156,-0.1828986,-0.0724515
1.016858,-0.1834827,-0.07739816
1.013701,-0.1860831,-0.07153061
1.011552,-0.1844075,-0.06065476
1.012659,-0.1839448,-0.06201302
1.013765,-0.1848768,-0.06353847
1.013949,-0.1837347,-0.06155745
1.013755,-0.1867308,-0.06344764
1.013346,-0.1878341,-0.06465944
1.013958,-0.1824198,-0.06882955
1.015774,-0.1788787,-0.07357994
1.015877,-0.1784673,-0.07317921
1.015768,-0.1783532,-0.07023269
1.018085,-0.1793978,-0.06737942
1.018571,-0.1829993,-0.07125218
1.017626,-0.1844756,-0.07560435
1.017883,-0.1824156,-0.07235452
1.015943,-0.1825458,-0.07000431
1.012795,-0.1820277,-0.06646812
1.011912,-0.1813134,-0.05917934
1.012581,-0.1827593,-0.05812373
1.012929,-0.1823785,-0.06065154
1.013322,-0.1825781,-0.06440239
1.015123,-0.1816391,-0.07359053
1.015773,-0.1785203,-0.07592406
1.014625,-0.1782619,-0.07035172
1.013899,-0.1809223,-0.06961286
1.01348,-0.1843774,-0.06807603
1.01404,-0.1821472,-0.06772152
1.015023,-0.178668,-0.07088081
1.017604,-0.1816013,-0.06808328
1.020488,-0.1823653,-0.06760023
1.016813,-0.1812678,-0.07069535
1.013465,-0.1809357,-0.0709508
1.016264,-0.1796118,-0.07218817
1.017345,-0.1814335,-0.07218376
1.018002,-0.1825768,-0.07218355
1.01841,-0.1831604,-0.07163382
1.015629,-0.1842641,-0.06692696
1.014899,-0.1825662,-0.06251942
1.015344,-0.1825335,-0.06148214
1.015584,-0.1793861,-0.06402492
1.017242,-0.1742851,-0.06445429
1.018197,-0.1764062,-0.06354676
1.017507,-0.1774682,-0.06655942
1.016021,-0.1765098,-0.06881845
1.016574,-0.1783192,-0.07001682
1.016661,-0.1783696,-0.06984805
1.013476,-0.1790963,-0.0696641
1.01207,-0.180857,-0.07170095
1.013384,-0.1780825,-0.069847
1.01534,-0.1748052,-0.06576186
1.015702,-0.1753819,-0.06219508
1.0152,-0.1735751,-0.06127284
1.017493,-0.1681685,-0.0639458
1.019315,-0.1661533,-0.06407693
1.018831,-0.1690679,-0.06526636
1.017418,-0.1722307,-0.06595368
1.015898,-0.1704623,-0.06247371
1.01489,-0.1672097,-0.0623085
1.012852,-0.1666303,-0.06299253
1.011351,-0.165461,-0.06399639
1.011141,-0.1628039,-0.06590135
1.013102,-0.1576296,-0.06332853
1.016315,-0.15439,-0.06201979
1.015266,-0.154025,-0.06552347
1.013202,-0.1485937,-0.07131333
1.013897,-0.1469062,-0.07451077
1.015084,-0.1495096,-0.06926498
1.015535,-0.1461487,-0.06513691
1.015676,-0.1468828,-0.07085481
1.018372,-0.1523526,-0.07734144
1.022067,-0.1548826,-0.07859704
1.023341,-0.1574965,-0.07933185
1.023767,-0.1590409,-0.07960303
1.025268,-0.1638215,-0.07774019
1.025284,-0.1765327,-0.07475899
1.022366,-0.1850785,-0.06921662
1.020769,-0.185114,-0.06322391
1.019445,-0.1865105,-0.05382752
1.017137,-0.1876677,-0.04385692
1.015912,-0.1876189,-0.04736544
1.013683,-0.1916791,-0.0513065
1.011986,-0.1934602,-0.04674443
1.011324,-0.1895488,-0.04639339
1.008126,-0.1826706,-0.04076687
1.003423,-0.1765781,-0.03423549
1.003147,-0.1768172,-0.04427987
1.006866,-0.1817559,-0.05340449
1.00797,-0.186564,-0.05222026
1.009199,-0.1848541,-0.05333068
1.00911,-0.1795796,-0.0544656
1.006968,-0.1762948,-0.05268064
1.008919,-0.1719307,-0.05409044
1.007667,-0.1729523,-0.0573676
1.005951,-0.1752607,-0.06191511
1.008706,-0.1727283,-0.06750549
1.008252,-0.17652,-0.06782836
1.008307,-0.1829187,-0.06816609
1.0093,-0.1884238,-0.07200358
1.012164,-0.1926967,-0.07642236
1.019388,-0.1905995,-0.0870503
1.022815,-0.1914468,-0.09595358
1.023786,-0.193141,-0.0956093
1.023823,-0.1897221,-0.0928623
1.021473,-0.1884905,-0.08764813
1.020063,-0.1887905,-0.08430608
1.016568,-0.1901611,-0.08412946
1.012469,-0.1918474,-0.07990061
1.014273,-0.1924375,-0.0767033
1.016735,-0.1936677,-0.07838156
1.01473,-0.1927451,-0.07949295
1.014878,-0.1918893,-0.0764854
1.016085,-0.1918287,-0.07360183
1.014274,-0.1906579,-0.07524497
1.013673,-0.1891793,-0.07546396
1.012231,-0.1859279,-0.07440888
1.012838,-0.1866823,-0.07591979
1.018941,-0.191712,-0.0777648
1.023262,-0.1945052,-0.08145823
1.024799,-0.1971358,-0.0849652
1.024905,-0.1966603,-0.08644536
1.024888,-0.1918643,-0.08679717
1.024392,-0.1887128,-0.0849234
1.022843,-0.1870584,-0.08294159
1.023691,-0.186978,-0.07820975
1.021853,-0.1873299,-0.07228449
1.015601,-0.1836656,-0.07001887
1.009394,-0.1794876,-0.06509617
1.005498,-0.1793163,-0.05769476
1.005959,-0.1794548,-0.05368087
1.007356,-0.1784143,-0.05378109
1.010002,-0.1775606,-0.05568451
1.012463,-0.1762855,-0.05592151
1.012555,-0.1777386,-0.05747791
1.014978,-0.1801527,-0.05978413
1.016559,-0.1781955,-0.05989771
1.016611,-0.1767884,-0.06249848
1.01611,-0.1769734,-0.06642251
1.014627,-0.1741164,-0.06645453
1.016448,-0.1715161,-0.06599055
1.016979,-0.1687815,-0.06887386
1.015232,-0.1609132,-0.06845971
1.014194,-0.1539222,-0.06485254
1.011715,-0.1542323,-0.06386802
1.008835,-0.1535066,-0.05991488
1.006274,-0.1496488,-0.05596998
1.00835,-0.1517686,-0.05426253
1.012221,-0.1546221,-0.051567
1.011302,-0.1553442,-0.05908466
1.012746,-0.1591202,-0.07208791
1.015807,-0.1623367,-0.07434839
1.015378,-0.1688031,-0.07128759
1.015145,-0.1737552,-0.07195382
1.015311,-0.1701128,-0.07344195
1.015468,-0.172221,-0.07478314
1.016545,-0.1762792,-0.07903546
1.018658,-0.1742813,-0.08051282
1.019833,-0.173504,-0.07977179
1.017591,-0.1699401,-0.08370668
1.016539,-0.1658027,-0.08588958
1.020315,-0.163924,-0.08551076
1.023616,-0.1582807,-0.08988603
1.021684,-0.1550913,-0.0931043
1.01767,-0.1584317,-0.08421515
1.015231,-0.1629043,-0.07239686
1.015283,-0.1663655,-0.07383349
1.019208,-0.1692536,-0.07682353
1.02215,-0.1766128,-0.07290869
1.020932,-0.1852551,-0.07569412
1.021293,-0.1770398,-0.08584064
1.022833,-0.1654706,-0.09455005
1.022079,-0.1734218,-0.0929788
1.021029,-0.1761581,-0.08580011
1.021299,-0.1690845,-0.08604087
1.023601,-0.1690419,-0.0843967
1.026758,-0.1619812,-0.0814765
1.026154,-0.1542544,-0.08305007
1.021298,-0.1557665,-0.08004951
1.017882,-0.1535851,-0.07752499
1.017203,-0.1482485,-0.07421835
1.015863,-0.1428518,-0.07117836
1.014573,-0.1387091,-0.07280964
1.015325,-0.1387278,-0.06943424
1.0157,-0.1418527,-0.06950623
1.014847,-0.1445246,-0.06945917
1.015408,-0.1448255,-0.06148262
1.01548,-0.1469836,-0.05888167
1.014732,-0.148948,-0.05936922
1.015053,-0.1511427,-0.06149459
1.014761,-0.1547577,-0.06071567
1.014836,-0.1503747,-0.05540943
1.015947,-0.1449718,-0.05617617
1.021543,-0.1505651,-0.0577646
1.029833,-0.1588674,-0.06565398
1.026302,-0.1610008,-0.07396588
1.009503,-0.1540044,-0.06125549
0.9975591,-0.1430002,-0.05020538
1.011767,-0.1411161,-0.06301977
1.03373,-0.1410713,-0.07361406
1.027793,-0.1358038,-0.06475164
1.018582,-0.1391969,-0.05550243
1.021444,-0.1443684,-0.05155867
1.020288,-0.1431782,-0.05482353
1.027644,-0.143929,-0.06776058
1.031861,-0.1406997,-0.0688967
1.026303,-0.1332735,-0.06786067
1.028349,-0.1279192,-0.07291836
1.027047,-0.1257777,-0.0657146
1.023132,-0.126564,-0.0601304
1.019042,-0.1260333,-0.05781013
1.012769,-0.1318772,-0.05366823
1.009662,-0.1427531,-0.05726471
1.003547,-0.1475217,-0.05844732
1.004116,-0.1519039,-0.05854568
1.005961,-0.1575671,-0.06159936
0.9969107,-0.1625047,-0.06467919
0.9950426,-0.1658341,-0.07463924
1.002475,-0.1693081,-0.09044748
1.017983,-0.1759507,-0.1056045
1.03897,-0.1770339,-0.1107088
1.048721,-0.177914,-0.104667
1.04714,-0.180399,-0.0944183
1.034964,-0.1745631,-0.0832808
1.015171,-0.171574,-0.07467418
1.003239,-0.1706439,-0.0632211
1.003121,-0.1704137,-0.05510064
1.010042,-0.1873775,-0.06260696
1.017686,-0.2071435,-0.07317634
1.018708,-0.2055258,-0.08124523
1.019403,-0.1966134,-0.09256216
1.024199,-0.1949688,-0.09598594
1.02106,-0.1856965,-0.09046098
1.013177,-0.1742978,-0.08710852
1.008086,-0.1704497,-0.07867729
1.003469,-0.165802,-0.07164524
1.003537,-0.1718933,-0.07851906
1.003263,-0.1771967,-0.08367236
1.00554,-0.1734499,-0.09042158
1.014435,-0.1795633,-0.1027609
1.01714,-0.1809346,-0.09994633
1.018786,-0.1803391,-0.09356265
1.021805,-0.1854392,-0.09702167
1.020568,-0.1831947,-0.09618813
1.018923,-0.1847028,-0.09560124
1.017295,-0.1873487,-0.09870739
1.017449,-0.1885207,-0.09637137
1.014828,-0.2005093,-0.09483634
1.009994,-0.2120275,-0.09298188
1.008086,-0.2072125,-0.0872992
1.004736,-0.1979282,-0.08580729
1.004811,-0.2011756,-0.087828
1.008264,-0.2011212,-0.09196458
1.010371,-0.1980685,-0.09446974
1.014169,-0.2040141,-0.09405462
1.01695,-0.2045814,-0.09460939
1.018982,-0.2047842,-0.09102727
1.020091,-0.2033029,-0.08743898
1.016101,-0.1972831,-0.08731993
1.012991,-0.1998614,-0.08699028
1.012459,-0.1967331,-0.08661706
1.008609,-0.1894198,-0.08285366
1.006065,-0.190035,-0.08051923
1.009023,-0.1903037,-0.0808954
1.012899,-0.1904719,-0.08231882
1.014824,-0.1901719,-0.0923169
1.015461,-0.1913617,-0.101684
1.015587,-0.1969284,-0.09978982
1.015502,-0.2016387,-0.0988353
1.01795,-0.2019469,-0.1047088
1.02057,-0.2001557,-0.1045839
1.018846,-0.2020147,-0.09927939
1.015658,-0.2014536,-0.09830394
1.011221,-0.1981975,-0.09760053
1.008546,-0.1968872,-0.09605314
1.011683,-0.1927287,-0.09272649
1.013621,-0.1904512,-0.08952854
1.012343,-0.186041,-0.08882666
1.012966,-0.1764993,-0.08424514
1.013109,-0.1712929,-0.08063758
1.008917,-0.1647633,-0.0748526
1.004121,-0.1570776,-0.0659219
1.001748,-0.1542277,-0.06812192
1.001769,-0.1533938,-0.07458243
1.00645,-0.1539184,-0.0818098
1.012955,-0.1554513,-0.08927209
1.015941,-0.1614318,-0.08640423
1.018069,-0.168902,-0.08505531
1.021285,-0.1719955,-0.0910216
1.020893,-0.1760953,-0.09253801
1.017479,-0.1791935,-0.09148341
1.016141,-0.1793618,-0.09092123
1.016473,-0.1828315,-0.08802245
1.016938,-0.1845691,-0.08535133
1.016522,-0.1820701,-0.08684595
1.015123,-0.1805398,-0.09068608
1.013526,-0.1778097,-0.09248651
1.011732,-0.1763673,-0.09307309
1.011832,-0.1764825,-0.09262539
1.010411,-0.1722936,-0.09067473
1.007174,-0.1698651,-0.09083001
1.00926,-0.1695264,-0.09049027
1.011858,-0.1675371,-0.08957393
1.012087,-0.1697007,-0.09086039
1.0152,-0.1723263,-0.08997257
1.019033,-0.1723292,-0.08907896
1.021877,-0.1739311,-0.08911623
1.022253,-0.1737667,-0.08782154
1.018184,-0.1712617,-0.08623838
1.014027,-0.1708321,-0.08211229
1.012154,-0.1725798,-0.080754
1.010652,-0.1744467,-0.08208052
1.009741,-0.1749052,-0.07814682
1.010587,-0.1758214,-0.07489263
1.013375,-0.1785003,-0.07546205
1.017138,-0.1806981,-0.07486688
1.017623,-0.1810317,-0.07321853
1.015745,-0.1753648,-0.07334163
1.016705,-0.1677313,-0.07466649
1.016199,-0.1686392,-0.07351353
1.014352,-0.1675497,-0.07210236
1.016353,-0.1613179,-0.07274911
1.018978,-0.1645131,-0.07493003
1.02155,-0.1689758,-0.0808875
1.021656,-0.1690832,-0.08534244
1.019382,-0.1704721,-0.08373735
1.01881,-0.1697924,-0.08381492
1.014212,-0.1737322,-0.0855833
1.010518,-0.1795609,-0.08203594
1.013474,-0.1779037,-0.07748396
1.014987,-0.1780975,-0.07434914
1.017004,-0.1790841,-0.07212269
1.019257,-0.1745021,-0.07428298
1.017695,-0.1712995,-0.0750906
1.01814,-0.1744604,-0.07427833
1.020823,-0.1778892,-0.07617887
1.023755,-0.1743752,-0.0764725
1.02521,-0.1722246,-0.07745731
1.020542,-0.1747319,-0.07583473
1.016113,-0.1754691,-0.07082486
1.017494,-0.1775642,-0.07214144
1.016274,-0.1786287,-0.07241372
1.012373,-0.176636,-0.06877413
1.013851,-0.1752529,-0.06665749
1.01575,-0.1733201,-0.06224511
1.014796,-0.1747932,-0.05854864
1.015535,-0.1776128,-0.05926202
1.016131,-0.1751172,-0.06142822
1.018441,-0.1732777,-0.06132452
1.022158,-0.1735185,-0.06078613
1.019991,-0.1707047,-0.0625171
1.017367,-0.1658729,-0.06253285
1.018002,-0.1622771,-0.06245909
1.015867,-0.1615689,-0.06344078
1.012793,-0.1578996,-0.06568545
1.011974,-0.1519388,-0.06950385
1.013046,-0.1547592,-0.0683458
1.015471,-0.1584024,-0.06707606
1.01723,-0.1567775,-0.06935035
1.01686,-0.1606289,-0.0714088
1.015281,-0.1639304,-0.07729614
1.014936,-0.161291,-0.08122416
1.01455,-0.1607466,-0.07876948
1.014329,-0.1621463,-0.07910378
1.018387,-0.1623845,-0.0828706
1.0222,-0.1596164,-0.085671
1.019736,-0.1563627,-0.08683882
1.015585,-0.1564844,-0.08601793
1.015355,-0.1558419,-0.08663595
1.018383,-0.15251,-0.09115879
1.022058,-0.1505624,-0.09515183
1.022991,-0.1524418,-0.0949541
1.020272,-0.1542837,-0.09164154
1.017798,-0.1532118,-0.08657823
1.016175,-0.1523434,-0.08210128
1.016639,-0.1518355,-0.0848004
1.019572,-0.151015,-0.09217397
1.018839,-0.1500774,-0.09429447
1.016814,-0.1480072,-0.09537443
1.01793,-0.1471355,-0.09659487
1.018599,-0.1498137,-0.09333873
1.017872,-0.152927,-0.08989327
1.017807,-0.1536379,-0.08723542
1.018772,-0.1559889,-0.09105015
1.01933,-0.1591465,-0.09731454
1.019085,-0.1582882,-0.09357951
1.016105,-0.1578056,-0.09041723
1.012873,-0.1577115,-0.0900582
1.014357,-0.1549176,-0.08901572
1.015052,-0.1520523,-0.09374359
1.014978,-0.148119,-0.09536421
1.015586,-0.1471924,-0.09110996
1.012982,-0.1538735,-0.08681312
1.01202,-0.1591088,-0.08284262
1.013339,-0.1572776,-0.08287842
1.015983,-0.1562863,-0.08308725
1.019532,-0.1603039,-0.08157828
1.018962,-0.1617501,-0.08074704
1.018102,-0.1589766,-0.07648244
1.018396,-0.1584966,-0.0735978
1.017647,-0.1619556,-0.07526085
1.018197,-0.1667337,-0.07529322
1.018024,-0.1685688,-0.07435324
1.016897,-0.1693112,-0.07331492
1.016956,-0.1703308,-0.0717042
1.018286,-0.1682857,-0.07214476
1.019416,-0.166679,-0.07370442
1.016107,-0.1648958,-0.07461884
1.012772,-0.1637252,-0.07543077
1.016501,-0.1664255,-0.07602994
1.019537,-0.1670125,-0.07657299
1.016452,-0.1678419,-0.07753152
1.014123,-0.1704277,-0.077904
1.014011,-0.1706201,-0.07779525
1.01448,-0.1694729,-0.07762355
1.015807,-0.1671056,-0.07678262
1.015393,-0.1685244,-0.07603682
1.014847,-0.1726784,-0.07466216
1.015641,-0.1748002,-0.07127045
1.015173,-0.1760237,-0.06829152
1.014782,-0.1744605,-0.06994756
1.013741,-0.1747081,-0.07480786
1.01174,-0.1759709,-0.07724129
1.01273,-0.1751338,-0.07519779
1.014756,-0.1770062,-0.06782374
1.015475,-0.1766564,-0.0619571
1.01521,-0.1754985,-0.06606579
1.013202,-0.1759888,-0.0702579
1.012333,-0.1734898,-0.06763491
1.014459,-0.1733703,-0.06726241
1.017053,-0.1750957,-0.06915564
1.017993,-0.1760502,-0.06963934
1.017949,-0.1778364,-0.07483548
1.018077,-0.1778874,-0.07936851
1.017105,-0.1777365,-0.07414381
1.016611,-0.1778368,-0.07051924
1.018575,-0.1776456,-0.07441038
1.019848,-0.1779471,-0.07559153
1.018513,-0.1772924,-0.0717346
1.016542,-0.1760205,-0.06872291
1.016253,-0.1747096,-0.06801078
1.016009,-0.1755381,-0.06625295
1.014667,-0.1768637,-0.06452029
1.014338,-0.1744158,-0.06560937
1.014044,-0.172783,-0.06742479
1.014455,-0.1739737,-0.0683442
1.01586,-0.1746586,-0.06809529
1.01529,-0.1749343,-0.06691301
1.014961,-0.1742536,-0.06695481
1.015932,-0.1731787,-0.07011057
1.016942,-0.1735502,-0.07454409
1.018194,-0.1740492,-0.07436763
1.016618,-0.1745053,-0.06940145
1.014368,-0.1761642,-0.06721398
1.016223,-0.176897,-0.06859551
1.017273,-0.1761421,-0.07023327
1.015382,-0.1760029,-0.07159965
1.015344,-0.1744096,-0.07186241
1.01718,-0.1711137,-0.07361786
1.018757,-0.1701655,-0.07354422
1.018834,-0.1710327,-0.06918991
1.017463,-0.1711625,-0.06843
1.016296,-0.171344,-0.07210161
1.015434,-0.1718605,-0.0766432
1.015245,-0.1718018,-0.07555051
1.015282,-0.1732989,-0.07138843
1.015158,-0.1761981,-0.07355665
1.015461,-0.1767374,-0.07565873
1.014988,-0.1764735,-0.07790906
1.014342,-0.1773174,-0.07747008
1.013789,-0.1779571,-0.07215356
1.013752,-0.1778205,-0.07288389
1.015131,-0.1766273,-0.07090479
1.015434,-0.1761604,-0.06907586
1.015237,-0.1759259,-0.07208772
1.015353,-0.1736538,-0.06738434
1.015126,-0.1716693,-0.06653433
1.015432,-0.1727243,-0.07276758
1.015215,-0.1743242,-0.07545112
1.015212,-0.1726107,-0.07241462
1.015259,-0.1720132,-0.06729303
1.014031,-0.1753664,-0.0713209
1.012836,-0.1771024,-0.07419813
1.012644,-0.1761985,-0.07068332
1.015556,-0.1737142,-0.07175394
1.019509,-0.1704344,-0.07103065
1.020044,-0.1683358,-0.07098
1.019178,-0.1680985,-0.07335166
1.018819,-0.1701443,-0.07144167
1.016961,-0.1722269,-0.07030154
1.014892,-0.1726848,-0.06928249
1.017589,-0.1716808,-0.06937685
1.021029,-0.1705874,-0.07280439
1.019318,-0.1707073,-0.07376566
1.018759,-0.1708413,-0.07202568
1.019958,-0.1708143,-0.07019808
1.017907,-0.1698146,-0.07146462
1.015868,-0.1691034,-0.07323265
1.014606,-0.1695895,-0.07106207
1.01317,-0.1688239,-0.06852027
1.01242,-0.1668343,-0.06599987
1.012254,-0.1646321,-0.06527877
1.01422,-0.1657478,-0.06505905
1.017307,-0.168112,-0.0614449
1.020391,-0.1682283,-0.06380479
1.021322,-0.1708542,-0.0708534
1.017699,-0.1726715,-0.07322407
1.015844,-0.1717899,-0.07366026
1.017731,-0.1723291,-0.07289901
1.018146,-0.1713404,-0.07151386
1.016271,-0.1704853,-0.06930708
1.014834,-0.1719386,-0.06844737
1.017222,-0.1723075,-0.07198535
1.019939,-0.1713729,-0.07112572
1.01951,-0.1704255,-0.06827004
1.018601,-0.1705835,-0.06741017
1.015577,-0.1698893,-0.06404462
1.010994,-0.1671274,-0.06472515
1.010694,-0.165374,-0.06546291
1.014898,-0.1631855,-0.06254704
1.018843,-0.1605151,-0.06337224
1.020168,-0.1625536,-0.06356036
1.019531,-0.1663075,-0.06363642
1.018986,-0.1663477,-0.06552126
1.019569,-0.166387,-0.06563876
1.018427,-0.1670599,-0.0680219
1.016222,-0.1654101,-0.07043342
1.014841,-0.1647797,-0.06979152
1.013619,-0.1649823,-0.07109109
1.015525,-0.1652114,-0.07383542
1.017698,-0.167238,-0.07414641
1.01631,-0.1670631,-0.07156212
1.015657,-0.1660464,-0.06617201
1.01622,-0.166662,-0.06157646
1.016691,-0.1648859,-0.06480144
1.017132,-0.1631254,-0.06805885
1.01699,-0.1640927,-0.06548129
1.016708,-0.1659523,-0.06804092
1.015902,-0.1698224,-0.06787629
1.016335,-0.1729733,-0.06409778
1.017383,-0.1691095,-0.07223564
1.01632,-0.1650371,-0.07730443
1.016115,-0.1695239,-0.07261948
1.015362,-0.1726225,-0.0709949
1.013107,-0.1699806,-0.07010348
1.015055,-0.1699065,-0.06760202
1.017924,-0.1704016,-0.06537306
1.018172,-0.1696948,-0.06621406
1.018287,-0.1689355,-0.06734536
1.017825,-0.1656823,-0.06670303
1.018049,-0.1638065,-0.06698985
1.017928,-0.1653319,-0.06429093
1.015975,-0.1660432,-0.06358299
1.01493,-0.1661797,-0.06638737
1.015576,-0.1687811,-0.06745459
1.018243,-0.1711787,-0.06798803
1.019902,-0.1704659,-0.06602428
1.017721,-0.1713185,-0.06628884
1.015811,-0.1727804,-0.06754605
1.016583,-0.1700559,-0.06588015
1.01717,-0.1673402,-0.06736632
1.016494,-0.1667204,-0.06860543
1.017533,-0.1671418,-0.06933253
1.018637,-0.1686078,-0.06931378
1.017628,-0.1687996,-0.06786533
1.017156,-0.1702107,-0.0727396
1.016884,-0.1734025,-0.07555355
1.018174,-0.1721834,-0.06863421
1.020354,-0.1695358,-0.06282449
1.019276,-0.169547,-0.06539187
1.017762,-0.1689634,-0.07004907
1.016369,-0.1686187,-0.07191881
1.014503,-0.1684182,-0.07414279
1.015009,-0.1693045,-0.07146862
1.015212,-0.171547,-0.06771268
1.015042,-0.1691113,-0.07188309
1.017164,-0.1668411,-0.07268504
1.017267,-0.1686757,-0.06889926
1.016261,-0.1690562,-0.06719271
1.018777,-0.1694399,-0.0661588
1.019819,-0.1695973,-0.06718674
1.01725,-0.1678729,-0.06832628
1.015205,-0.1661285,-0.06927489
1.014842,-0.1650337,-0.06968825
1.016097,-0.167097,-0.06861112
1.017994,-0.169762,-0.06709214
1.020007,-0.1687203,-0.06425953
1.020053,-0.1675114,-0.06525597
1.018473,-0.1675793,-0.06799342
1.019029,-0.1660844,-0.06824249
1.018952,-0.1654217,-0.07025612
1.019054,-0.1676871,-0.07102614
1.020235,-0.1670532,-0.06991815
1.018426,-0.1637445,-0.06905816
1.016496,-0.1641532,-0.06802739
1.014069,-0.1658296,-0.06737807
1.012902,-0.167244,-0.066048
1.015648,-0.1704757,-0.06592041
1.015444,-0.1764975,-0.06358397
1.014885,-0.1822082,-0.05946762
1.015762,-0.1769011,-0.06188829
1.014874,-0.170192,-0.06661589
1.01563,-0.1735497,-0.06997082
1.016272,-0.1701646,-0.07189449
1.01646,-0.1638357,-0.07057243
1.016232,-0.1670915,-0.07090917
1.014721,-0.167546,-0.07266317
1.016238,-0.1655296,-0.07245795
1.016767,-0.1664118,-0.07147465
1.013649,-0.1655862,-0.06947681
1.011772,-0.1651105,-0.06745342
1.012206,-0.1657239,-0.06758757
1.013773,-0.1670949,-0.06864245
1.015488,-0.1700106,-0.06722554
1.017684,-0.1716531,-0.06395434
1.018275,-0.1725648,-0.0610045
1.018843,-0.1733086,-0.06010862
1.020901,-0.1727818,-0.06234443
1.019625,-0.172502,-0.06424089
1.019688,-0.1710925,-0.06723486
1.019975,-0.1685569,-0.06891006
1.016481,-0.168182,-0.0637112
1.016487,-0.1679589,-0.06119604
1.015903,-0.1663389,-0.06284095
1.014525,-0.1663825,-0.06254744
1.015861,-0.1680127,-0.06269997
1.01494,-0.1684482,-0.06325787
1.0153,-0.1687904,-0.0644277
1.015568,-0.1691227,-0.06480109
1.015333,-0.1659095,-0.06418851
1.018429,-0.1627557,-0.06413458
1.019986,-0.1645503,-0.06287074
1.019402,-0.1661145,-0.0614212
1.017291,-0.164073,-0.05875803
1.016228,-0.1636639,-0.05714939
1.017813,-0.1665941,-0.05817685
1.018392,-0.1697952,-0.05979105
1.019133,-0.1721069,-0.06379794
1.019516,-0.1727375,-0.06300746
1.019332,-0.1728221,-0.05896835
1.018638,-0.1707558,-0.0592794
1.017328,-0.1662639,-0.05784468
1.017358,-0.1666941,-0.05845291
1.016461,-0.1676943,-0.06192165
1.016179,-0.1654295,-0.06251789
1.016225,-0.1661311,-0.06384051
1.014692,-0.1653932,-0.06568642
1.015252,-0.1644292,-0.06852791
1.015776,-0.166298,-0.06652116
1.015862,-0.1658246,-0.05871991
1.016922,-0.166546,-0.05768034
1.015867,-0.166067,-0.05942659
1.014727,-0.1624617,-0.05986429
1.015539,-0.1615466,-0.06021943
1.016713,-0.1591512,-0.05918413
1.018539,-0.156683,-0.06120889
1.019795,-0.1591027,-0.06257192
1.017738,-0.1625581,-0.06323662
1.015679,-0.1645733,-0.06471024
1.01662,-0.1642269,-0.06325712
1.016132,-0.1634024,-0.06319958
1.014619,-0.1640343,-0.06269529
1.015526,-0.1640554,-0.0602311
1.016066,-0.1636572,-0.05884552
1.015246,-0.1639893,-0.06009463
1.015355,-0.1646756,-0.06610039
1.016821,-0.1676541,-0.06904346
1.017295,-0.1726382,-0.0660061
1.015826,-0.1740586,-0.06295132
1.014845,-0.1731797,-0.06310883
1.013922,-0.1726123,-0.06498506
1.014326,-0.167382,-0.06348185
1.017046,-0.1617669,-0.06310786
1.016948,-0.1637369,-0.06329403
1.016193,-0.1671707,-0.06181897
1.017092,-0.1675661,-0.06572291
1.016797,-0.1694293,-0.06731981
1.018428,-0.1709796,-0.06325377
1.020215,-0.1707727,-0.0611498
1.019357,-0.1720227,-0.06118394
1.019271,-0.1724161,-0.06199922
1.019198,-0.172111,-0.0590351
1.01678,-0.1727488,-0.05628163
1.011603,-0.1739685,-0.05858957
1.008321,-0.1765894,-0.06045473
1.010934,-0.1765331,-0.06252269
1.014247,-0.1741122,-0.06308977
1.01582,-0.1738565,-0.06300775
1.017232,-0.1764028,-0.06869672
1.016876,-0.1808698,-0.07513211
1.015991,-0.1820915,-0.07574108
1.015724,-0.1805037,-0.07165638
1.013621,-0.1793638,-0.06941601
1.012989,-0.1768798,-0.07030036
1.014703,-0.1758271,-0.07167273
1.014638,-0.1767114,-0.07439006
1.017583,-0.1773105,-0.0734783
1.021332,-0.177874,-0.07140776
1.018937,-0.1769341,-0.07302677
1.017995,-0.1752412,-0.07239264
1.019394,-0.1728317,-0.07349876
1.018061,-0.170437,-0.07579702
1.017143,-0.1733382,-0.07071551
1.01638,-0.1784161,-0.063438
1.01638,-0.1783297,-0.05942642
1.017198,-0.1767617,-0.06071794
1.016475,-0.1763622,-0.06461192
1.017575,-0.1744333,-0.0682157
1.01826,-0.1745623,-0.07410523
1.015979,-0.1753623,-0.07405232
1.014824,-0.1727756,-0.07273282
1.015082,-0.1718515,-0.07805803
1.015246,-0.1735691,-0.07336561
1.013427,-0.1757073,-0.06236623
1.012252,-0.1770911,-0.05991829
1.015318,-0.176085,-0.06655021
1.017475,-0.1754633,-0.07579157
1.015915,-0.1758769,-0.06942426
1.014836,-0.1763948,-0.057019
1.01722,-0.1767505,-0.05623664
1.019146,-0.1762849,-0.06059534
1.018497,-0.1772844,-0.068021
1.018515,-0.1779122,-0.06625782
1.017053,-0.1756526,-0.05976006
1.014819,-0.1733423,-0.06128107
1.014424,-0.1723234,-0.05894088
1.013969,-0.1721834,-0.06349206
1.015869,-0.1723452,-0.0717327
1.019323,-0.173287,-0.07096008
1.019615,-0.174883,-0.07214315
1.017325,-0.1759608,-0.06786568
1.014933,-0.1785425,-0.06586652
1.013864,-0.1806803,-0.06980488
1.012991,-0.1765505,-0.06912573
1.012416,-0.1716465,-0.0735382
1.014665,-0.1742791,-0.07336216
1.017829,-0.1760245,-0.07087749
1.018421,-0.1714331,-0.07087795
1.017042,-0.1706695,-0.06354307
1.016237,-0.1747241,-0.06306776
1.016369,-0.1770456,-0.0642512
1.015047,-0.1751226,-0.06676455
1.013167,-0.1721228,-0.07667555
1.013744,-0.1740097,-0.07524879
1.014172,-0.1752074,-0.07107054
1.013045,-0.1741968,-0.07117282
1.014025,-0.174767,-0.0708379
1.015905,-0.1731022,-0.07333427
1.015481,-0.1735824,-0.07207202
1.01488,-0.1761761,-0.07183318
1.015455,-0.1768289,-0.0742597
1.015546,-0.1795094,-0.07506473
1.015968,-0.180965,-0.07799352
1.017089,-0.1797695,-0.0795472
1.01658,-0.178776,-0.07971146
1.015109,-0.1785203,-0.07747185
1.013103,-0.1779419,-0.07363391
1.010001,-0.1754921,-0.07273636
1.009788,-0.1761056,-0.06801155
1.013556,-0.177029,-0.06305477
1.016405,-0.1748042,-0.06348629
1.015412,-0.1749721,-0.06239728
1.013625,-0.1752602,-0.06103036
1.02857,-0.06259624,0.07106746
1.031888,-0.06605773,0.07110441
1.031857,-0.06706563,0.07401362
1.02884,-0.0695966,0.07534225
1.026027,-0.0694478,0.0789291
1.024773,-0.06577434,0.07935818
1.025337,-0.06187732,0.07633352
1.024988,-0.06054496,0.07389256
1.025547,-0.06304246,0.06976197
1.026385,-0.06590244,0.07322353
1.024742,-0.06527187,0.08051279
1.024431,-0.06469707,0.08082829
1.024404,-0.06289338,0.08151709
1.025404,-0.05721994,0.0830351
1.025654,-0.05325304,0.08748077
1.022138,-0.05094411,0.09197406
1.021911,-0.04797803,0.07882595
1.022592,-0.04801979,0.062184
1.021772,-0.05128191,0.05992484
1.022627,-0.05155958,0.05497979
1.022398,-0.04914877,0.04611492
1.025139,-0.04840355,0.04461155
1.032317,-0.04824954,0.04150068
1.037351,-0.04892254,0.03925983
1.0368,-0.04872111,0.04167429
1.034028,-0.04814831,0.03808363
1.034526,-0.04911792,0.03777586
1.033256,-0.04745834,0.04221127
1.030249,-0.0433323,0.04382282
1.029263,-0.03656947,0.05484516
1.025166,-0.03046167,0.06565706
1.022876,-0.02688337,0.06909876
1.023568,-0.01909225,0.08027782
1.01979,-0.01319091,0.08968067
1.01415,-0.01181817,0.08839675
1.011542,-0.01036256,0.0873684
1.015018,-0.0117071,0.0880804
1.018423,-0.01360945,0.08458296
1.016252,-0.0178055,0.08320101
1.016352,-0.02501746,0.08448343
1.018232,-0.02944663,0.07891748
1.018104,-0.03246311,0.07586369
1.019447,-0.03400474,0.07705381
1.021506,-0.03344733,0.07619859
1.022889,-0.03248689,0.07909376
1.023522,-0.0298168,0.08023432
1.024841,-0.02323075,0.07958036
1.028333,-0.01485554,0.08196005
1.029049,-0.008997592,0.08215479
1.024639,-0.003670517,0.0801715
1.020675,-0.001107766,0.07664295
1.020687,-0.002442444,0.07391807
1.017991,-0.001473525,0.0751213
1.012689,-0.001754466,0.07703952
1.018433,-0.004135203,0.07592347
1.025776,-0.005480211,0.07141557
1.021587,-0.008950196,0.06521777
1.020847,-0.0131484,0.06069299
1.02243,-0.02139292,0.0613424
1.017257,-0.03760052,0.06012085
1.011321,-0.04858871,0.05583906
0.9992453,-0.04697814,0.06004644
0.9856453,-0.04572336,0.06476214
0.9741054,-0.04779067,0.06107987
0.9341246,-0.04211887,0.06528624
0.8750021,-0.03048839,0.09373479
0.870682,-0.01565966,0.1384687
0.9575198,0.007012409,0.1545615
1.088694,0.03244456,0.1193145
1.177236,0.04636859,0.08641933
1.184635,0.03761893,0.08534284
1.164527,0.02304209,0.08687995
1.140615,0.02326263,0.09414102
1.084222,0.02973258,0.1141596
1.039389,0.03583119,0.1216332
1.043502,0.03060646,0.1122173
1.049575,0.01974027,0.1046101
1.038708,0.02472588,0.1015685
1.022881,0.02017767,0.09492165
0.9995174,0.006851036,0.09686131
0.9910203,0.01024585,0.105395
0.9999744,0.01231404,0.09996249
0.9996005,0.01398928,0.09375524
1.004908,0.02061618,0.08848819
1.015001,0.02700941,0.07731344
1.013507,0.03855361,0.08030557
1.017921,0.0471068,0.09092961
1.019248,0.05229331,0.09884641
1.014513,0.05610421,0.105183
1.016602,0.05831254,0.1046119
1.018265,0.05773564,0.1046493
1.026094,0.04701,0.1019023
1.032231,0.03822454,0.09925351
1.029943,0.03690684,0.1035533
1.030715,0.04087529,0.1047226
1.028238,0.05027157,0.1066077
1.02218,0.05359576,0.1056332
1.016067,0.05344423,0.1030381
1.015141,0.05460382,0.1042917
1.019274,0.05631798,0.09863725
1.017319,0.05736296,0.09397449
1.015766,0.05401492,0.0913806
1.013909,0.05350975,0.09207106
1.008446,0.05225998,0.09890616
1.005426,0.04946473,0.09719367
1.003903,0.05062392,0.09719928
1.010245,0.04669852,0.09888581
1.018825,0.04120334,0.09404649
1.019625,0.03646262,0.09430731
1.020016,0.03496997,0.09416859
1.022068,0.04295898,0.0924256
1.024361,0.04628669,0.09162572
1.023977,0.04488792,0.09081776
1.021795,0.04649776,0.09257857
1.022146,0.04773261,0.091315
1.02036,0.05084571,0.09134289
1.01867,0.05401268,0.0923961
1.020009,0.05568765,0.09093275
1.021434,0.05323937,0.09155535
1.02382,0.04777204,0.08845514
1.025515,0.04805245,0.08364981
1.027799,0.04832931,0.08233794
1.030901,0.04645168,0.08141843
1.030084,0.04632967,0.08036268
1.026461,0.03968159,0.07852525
1.018863,0.02472395,0.07661557
1.007458,0.01304637,0.07422671
1.002057,0.01323944,0.07540772
1.002001,0.01693796,0.08163556
1.001243,0.01841919,0.08825234
1.002445,0.02306614,0.1016233
0.999125,0.02444284,0.1169032
0.997819,0.02536489,0.1172715
1.020592,0.03642895,0.108065
1.04781,0.04636284,0.1032312
1.052252,0.04746516,0.09885445
1.051551,0.04664212,0.09225411
1.057473,0.04745914,0.08955203
1.056399,0.04630585,0.08547013
1.048427,0.03896954,0.08517801
1.036443,0.0282731,0.09352745
1.022797,0.02049132,0.09458727
1.022506,0.01978978,0.08941202
1.025347,0.02076544,0.08438969
1.020812,0.02250213,0.08235804
1.020554,0.02939528,0.08542585
1.018312,0.03074333,0.08520302
1.016069,0.02918135,0.08814632
1.015733,0.03394225,0.09308518
1.010704,0.03769533,0.09268684
1.012461,0.04055501,0.09778451
1.016146,0.04184459,0.1029515
1.017374,0.04295049,0.09833083
1.020952,0.04734465,0.09025832
1.019112,0.04582746,0.08628886
1.016633,0.04191432,0.08610483
1.016066,0.04170274,0.08671799
1.014388,0.04193218,0.0897485
1.015536,0.04600607,0.09185125
1.015586,0.05120864,0.09333171
1.015303,0.05163075,0.09397235
1.018341,0.04859941,0.09271262
1.019796,0.0453488,0.0970456
1.017844,0.0436381,0.09970379
1.015566,0.0413578,0.09644872
1.015647,0.04158333,0.09541244
1.016539,0.04506938,0.09651626
1.020187,0.04664395,0.09729121
1.029254,0.04992324,0.09351797
1.031828,0.05136289,0.09031832
1.023981,0.04787832,0.09347827
1.018501,0.04853937,0.09725637
1.019061,0.04950798,0.09971315
1.020941,0.05057864,0.09976241
1.021015,0.05695785,0.09978431
1.020423,0.06026038,0.1010956
1.020529,0.06092613,0.0995943
1.020806,0.06292697,0.09809546
1.022665,0.06349493,0.09846581
1.022435,0.06480698,0.09885452
1.019689,0.06632984,0.09877492
1.019625,0.0619821,0.09930461
1.021119,0.05561919,0.1008669
1.022809,0.0572686,0.1017777
1.022616,0.05904689,0.1016304
1.021508,0.05643855,0.09612631
1.022656,0.058032,0.08891271
1.022444,0.05695799,0.09191309
1.022913,0.05149166,0.09709052
1.025225,0.04822569,0.09342426
1.024917,0.04685902,0.08582651
1.023675,0.04507962,0.08008293
1.021636,0.03705731,0.08022122
1.020043,0.03167787,0.08095934
1.020992,0.03310935,0.07915757
1.020669,0.03180806,0.08233448
1.018824,0.03399337,0.08243589
1.017802,0.0387864,0.07603935
1.019079,0.0401673,0.07418875
1.021894,0.0404801,0.07570988
1.02251,0.03813538,0.0800788
1.021255,0.03744413,0.08546099
1.020469,0.04031458,0.08617922
1.020769,0.04139918,0.08584472
1.021631,0.03655717,0.08493578
1.023499,0.03000749,0.0829717
1.0269,0.03144123,0.08279031
1.028013,0.03308597,0.08335948
1.027354,0.03045274,0.08206016
1.027751,0.032276,0.08151386
1.025454,0.03485072,0.0852757
1.021498,0.03695226,0.08739494
1.020326,0.04095317,0.08757844
1.021603,0.04189833,0.08949554
1.023279,0.04289431,0.0890614
1.023894,0.04994148,0.08849319
1.024855,0.05666552,0.08917147
1.023682,0.05474514,0.08877777
1.019925,0.05157461,0.08889684
1.01966,0.05197322,0.08873561
1.019767,0.0457808,0.08796447
1.018836,0.03953021,0.08833876
1.019882,0.04525329,0.09269454
1.019393,0.05090154,0.09667708
1.019173,0.05014256,0.09095272
1.019835,0.05096209,0.0847788
1.019676,0.05047196,0.08867791
1.022229,0.04827663,0.09121879
1.024526,0.05292162,0.08837408
1.023717,0.05758629,0.08796681
1.023031,0.05356936,0.08888509
1.022885,0.04860721,0.0941397
1.021915,0.04654076,0.1014043
1.020957,0.04623459,0.09915237
1.020582,0.04623711,0.09647988
1.018505,0.0436689,0.09805017
1.015707,0.04386458,0.09533971
1.01458,0.04545303,0.09622981
1.01429,0.04434218,0.1004911
1.015067,0.04712438,0.09924991
1.019967,0.04953688,0.09601687
1.029364,0.04585728,0.09127132
1.033024,0.04093561,0.08744997
1.028511,0.03654559,0.0863997
1.024684,0.03500173,0.08359081
1.020305,0.03516885,0.08372124
1.018406,0.0327982,0.08814852
1.020533,0.03108869,0.09152747
1.018874,0.03272767,0.09211879
1.018128,0.03588358,0.09171031
1.019138,0.03879241,0.09310744
1.019941,0.04032438,0.08987346
1.023482,0.04003056,0.08647632
1.022323,0.0388234,0.09329585
1.019264,0.03857587,0.09785322
1.019816,0.04000936,0.09446558
1.018984,0.04094725,0.09094657
1.019876,0.04053055,0.08643889
1.021628,0.03999836,0.07804746
1.022162,0.03773152,0.07345671
1.023088,0.03672177,0.08136873
1.022569,0.03903111,0.08825454
1.023693,0.03910799,0.08572339
1.023319,0.03863638,0.08558537
1.020754,0.03914876,0.08734316
1.021214,0.03848223,0.08801324
1.020883,0.03812258,0.08970217
1.022052,0.03831527,0.08857156
1.023711,0.04260812,0.0872054
1.023082,0.04734536,0.08902927
1.025715,0.04351884,0.08857612
1.024983,0.03928201,0.08475761
1.020299,0.04014257,0.08431201
1.019272,0.03792909,0.08985613
1.020195,0.03528817,0.09284017
1.023112,0.03727733,0.08852872
1.023732,0.03969353,0.08535027
1.022066,0.04199177,0.08670429
1.023165,0.04048682,0.08995032
1.022087,0.03500032,0.09235333
1.020693,0.03383899,0.09013062
1.021162,0.03233674,0.08773755
1.020644,0.0299223,0.0898738
1.02186,0.03104559,0.0938511
1.022646,0.03103359,0.09621433
1.021668,0.03449398,0.09270354
1.020153,0.04036552,0.08468579
1.017074,0.04098454,0.08172626
1.016279,0.04028811,0.08553089
1.018863,0.0409309,0.09017971
1.021196,0.04055247,0.09521191
1.022028,0.03377696,0.09909541
1.021891,0.02622524,0.09946094
1.020073,0.03024397,0.09586474
1.016079,0.03892331,0.09030355
1.015126,0.04412651,0.09085624
1.020332,0.04793996,0.09302552
1.025633,0.05047479,0.09085358
1.025608,0.05406671,0.0916498
1.02339,0.0654884,0.09349048
1.023499,0.07966489,0.09724167
1.023252,0.0774712,0.1019404
1.020729,0.06690792,0.09209326
1.018796,0.06099597,0.07768397
1.018874,0.04625222,0.078286
1.019123,0.0373824,0.08450408
1.017618,0.03584538,0.08713941
1.018021,0.02602308,0.08823665
1.020687,0.03249967,0.08787836
1.021667,0.03704204,0.08983342
1.021988,0.02738079,0.09294176
1.021487,0.03111602,0.09066272
1.021945,0.02912718,0.08563746
1.023035,0.02729145,0.08243896
1.022007,0.03163468,0.08376676
1.024,0.02671686,0.08876705
1.026016,0.0303573,0.0930041
1.024622,0.0303754,0.09926066
1.02516,0.02366779,0.1044254
1.026221,0.02304375,0.1063175
1.027568,0.01868353,0.1139598
1.029209,0.01513168,0.1189565
1.029018,0.01022186,0.1135441
1.027663,0.008122179,0.1072874
1.023836,0.01006515,0.1014111
1.021002,0.00462178,0.09650222
1.022143,0.001885879,0.09350167
1.022593,0.00555596,0.08818663
1.020833,0.01376074,0.08665007
1.019584,0.02231235,0.09270464
1.019363,0.0251867,0.09811677
1.019295,0.02778884,0.1029613
1.019599,0.03494163,0.1068924
1.019452,0.05082458,0.1013614
1.019278,0.06175001,0.09885203
1.019657,0.0596196,0.1063766
1.01931,0.06164371,0.1061461
1.019439,0.06623632,0.1034048
1.019217,0.06693484,0.1043596
1.017476,0.07137435,0.1005557
1.016628,0.07635936,0.1012176
1.01818,0.07529463,0.1053872
1.020363,0.0742113,0.1052483
1.019568,0.07538726,0.1072511
1.018812,0.07325613,0.1107745
1.018911,0.06939511,0.1089291
1.014463,0.06432394,0.09860427
1.011781,0.05517218,0.08508206
1.01509,0.04452024,0.07749959
1.016138,0.03951046,0.07911196
1.016291,0.03803261,0.08088494
1.020472,0.0320591,0.07674995
1.023116,0.03410314,0.07493551
1.024313,0.0438967,0.07183302
1.024882,0.04483748,0.07044765
1.018155,0.04716231,0.07644929
1.012036,0.0514835,0.07975999
1.013883,0.05128406,0.08725043
1.01634,0.05412408,0.09341054
1.019708,0.05585265,0.09327653
1.023776,0.0579071,0.09893394
1.023466,0.05916463,0.09859243
1.021641,0.05446627,0.09503872
1.020674,0.05266479,0.09515609
1.018918,0.05244849,0.09556986
1.018883,0.05151725,0.1024486
1.020287,0.05036782,0.1029752
1.019032,0.04732308,0.09646185
1.019226,0.04684488,0.0926376
1.020063,0.04579688,0.08879447
1.01882,0.04277945,0.08762155
1.019939,0.0410516,0.08742099
1.020969,0.04152504,0.09275576
1.023381,0.04422866,0.09935265
1.026242,0.04535793,0.09788793
1.023675,0.04798308,0.0953109
1.02203,0.05144899,0.0917411
1.022526,0.05095783,0.09258872
1.022905,0.05117912,0.0954544
1.023723,0.05142161,0.09367217
1.021657,0.04939556,0.09583935
1.01899,0.04806518,0.09629839
1.018445,0.04846647,0.09574966
1.018897,0.04864959,0.09988004
1.019788,0.04656945,0.1038841
1.020683,0.04545438,0.1053788
1.02221,0.0467181,0.09659001
1.024366,0.04730328,0.0885238
1.024505,0.04551024,0.0953746
1.018744,0.04374772,0.1035463
1.010301,0.04537766,0.1045182
1.007941,0.04650377,0.101539
1.011437,0.04590458,0.09884844
1.016521,0.04758957,0.09945245
1.024395,0.04983185,0.09893474
1.029075,0.05228623,0.09712415
1.025786,0.05840123,0.1017356
1.025101,0.06554894,0.1081802
1.02565,0.06813048,0.1066609
1.021485,0.06806775,0.1021065
1.021501,0.06828898,0.09791599
1.020592,0.06853553,0.09510962
1.011862,0.07165881,0.0972653
1.006737,0.07506214,0.09952396
1.011448,0.0741325,0.09954319
1.017852,0.07142211,0.09658864
1.018583,0.06691801,0.0919879
1.021719,0.06037241,0.0925725
1.025966,0.05438474,0.09497076
1.022423,0.04764041,0.09843356
1.021247,0.0423979,0.1057452
1.021281,0.04317383,0.10675
1.018727,0.04223785,0.1016184
1.019468,0.03739975,0.1007685
1.016648,0.04006982,0.1019551
1.014368,0.04553577,0.1031114
1.018396,0.05044884,0.1046539
1.023025,0.06314756,0.1031583
1.026368,0.07377111,0.1010856
1.024103,0.08399515,0.1000392
1.021113,0.1038326,0.09793911
1.020176,0.1188028,0.0966427
1.015133,0.1251187,0.09626628
1.012502,0.1259286,0.09199585
1.013789,0.1239361,0.08319061
1.012422,0.1285845,0.07882691
1.010117,0.1297802,0.07838903
1.009994,0.125269,0.06704553
1.010068,0.1215959,0.049093
1.009387,0.1138358,0.04391261
1.011694,0.1080993,0.04708703
1.016085,0.1025226,0.05109317
1.018547,0.08681784,0.0729529
1.016074,0.06326754,0.09820803
1.013617,0.04618848,0.09054065
1.022018,0.0456635,0.07712507
1.029856,0.04068802,0.08287925
1.024489,0.0190422,0.08504516
1.016272,0.002268034,0.09433598
1.011752,-0.002635106,0.1054996
1.015198,-0.008674206,0.08997847
1.027819,-0.008403565,0.07165489
1.037451,0.005369226,0.05866764
1.036327,0.0106252,0.05084006
1.027159,0.008185692,0.06123651
1.018938,0.007425291,0.06937137
1.01479,0.002056235,0.07744406
1.011474,0.003843843,0.08025327
1.014768,0.004967198,0.06935152
1.025042,-0.002042779,0.07329275
1.031155,-0.001211216,0.07169764
1.027396,0.008137339,0.06557823
1.022242,0.0247178,0.07654556
1.024517,0.03361581,0.07522485
1.024888,0.03145293,0.07364083
1.024535,0.03539553,0.07661473
1.031507,0.03651162,0.07391063
1.033109,0.03321973,0.08040413
1.030069,0.02967546,0.08122164
1.028522,0.02675324,0.08435978
1.022171,0.03327197,0.09558264
1.016423,0.04016485,0.09652705
1.015494,0.04424201,0.09130081
1.015641,0.04983834,0.08427729
1.015161,0.05494324,0.09263927
1.015938,0.06287625,0.1052146
1.017526,0.0675845,0.09949915
1.015926,0.06504888,0.09533642
1.014744,0.06178303,0.09369868
1.014531,0.05628869,0.09664569
1.017413,0.04888703,0.1059024
1.02509,0.05270674,0.1056387
1.028541,0.06774392,0.1087212
1.033124,0.07772555,0.1151132
1.038899,0.07608579,0.1180414
1.031889,0.06320032,0.1257422
1.019548,0.05341929,0.1247713
1.009986,0.05882615,0.1153419
0.9985858,0.06853611,0.1108897
0.9950959,0.07726964,0.108657
1.005053,0.07977548,0.1033296
1.010228,0.07980103,0.09491582
1.006787,0.09218287,0.09944443
1.005613,0.1058622,0.1098997
1.006961,0.1088257,0.1055545
1.013622,0.1046297,0.1025211
1.020694,0.1007535,0.101923
1.017996,0.09947618,0.09923615
1.012192,0.0899344,0.1019687
1.008597,0.07618271,0.09623023
1.005765,0.07009635,0.08560075
1.006501,0.06967631,0.08028571
1.009082,0.07859195,0.08603395
1.011659,0.09332286,0.09853807
1.0173,0.09461075,0.0931594
1.019304,0.08983048,0.0900717
1.018073,0.09423594,0.0994699
1.019001,0.09325747,0.1019726
1.013038,0.08647746,0.111627
1.008767,0.08082302,0.1159686
1.012116,0.07146796,0.1104141
1.011061,0.0715689,0.1161182
1.012004,0.07850853,0.1175693
1.018367,0.080416,0.1129864
1.024965,0.08127337,0.1078368
1.026937,0.07707914,0.09946784
1.023478,0.07101518,0.09813282
1.023124,0.06587562,0.09889689
1.018424,0.06342002,0.09818596
1.010376,0.06742539,0.09871426
1.010778,0.06696453,0.09951716
1.012117,0.06551479,0.1002218
1.01511,0.06506283,0.09529052
1.022219,0.0578648,0.09048892
1.025733,0.05080727,0.08774237
1.025193,0.04604086,0.08371921
1.022291,0.04683091,0.08900587
1.019558,0.0513327,0.09636236
1.016778,0.05137426,0.09457538
1.013154,0.05184874,0.09448413
1.013905,0.05210623,0.09592626
1.022194,0.0504671,0.09278013
1.030522,0.04523983,0.08830779
1.025363,0.03684337,0.08283443
1.015776,0.03619059,0.08279604
1.016265,0.03704443,0.08797071
1.016128,0.03549275,0.08652252
1.014412,0.04043216,0.08495118
1.01589,0.04717305,0.08802582
1.016393,0.05315311,0.08755782
1.02293,0.05694019,0.08698729
1.031585,0.05749784,0.08724218
1.030673,0.0609381,0.08705442
1.023389,0.06310297,0.09158836
1.014862,0.05938465,0.09597931
1.007577,0.05175958,0.09724579
1.004212,0.04581916,0.09799778
1.008892,0.04702066,0.09337086
1.019201,0.04919426,0.0863153
1.026203,0.05338557,0.08698707
1.026116,0.06253287,0.09143373
1.021405,0.06647478,0.09197807
1.016366,0.06762886,0.09080944
1.010959,0.06949268,0.08723856
1.011239,0.06389576,0.08220206
1.016971,0.05556106,0.08004885
1.01856,0.0491199,0.07729329
1.024759,0.03843525,0.07662051
1.032356,0.02999982,0.07946203
1.033615,0.02809839,0.08017734
1.039232,0.02121291,0.08243957
1.041004,0.01471032,0.0839146
1.033976,0.01729231,0.08299212
1.02609,0.01856267,0.08651261
1.018702,0.02017077,0.08994431
1.016047,0.02423457,0.09429669
1.014876,0.02379078,0.1001377
1.01456,0.02543741,0.09586924
1.015241,0.02991891,0.09030075
1.013232,0.0355135,0.09425043
1.014887,0.04463409,0.09724532
1.017044,0.0534557,0.09715146
1.016216,0.06511192,0.09800686
1.016072,0.07094411,0.09848486
1.015015,0.0653431,0.09997755
1.017079,0.063222,0.100343
1.022927,0.05933385,0.09936519
1.027233,0.05560929,0.09949393
1.026752,0.060142,0.09821255
1.022521,0.05755763,0.09866418
1.020792,0.05352081,0.1004783
1.020494,0.05326986,0.09838637
1.019756,0.05126276,0.09501091
1.01995,0.05345563,0.09332498
1.020784,0.05117018,0.09415674
1.023024,0.0490292,0.09233899
1.02258,0.05470697,0.0882987
1.02138,0.05745124,0.08956302
1.022688,0.06244686,0.09117219
1.021362,0.06868932,0.09038115
1.021514,0.06870374,0.0866576
1.024664,0.06542533,0.08114762
1.024728,0.0624888,0.08122498
1.021514,0.06204075,0.08467092
1.018076,0.05932841,0.0914762
1.018946,0.05651836,0.09422116
1.019367,0.05601561,0.08439306
1.015987,0.05603686,0.07718553
1.015505,0.05758337,0.07604813
1.015647,0.05576423,0.07714083
1.015664,0.05133325,0.08738173
1.017369,0.04775158,0.09808977
1.017006,0.04986088,0.09472231
1.018074,0.05617437,0.08700292
1.020759,0.05586688,0.08934028
1.021215,0.05509506,0.08967875
1.022355,0.05504531,0.08699873
1.022436,0.04963866,0.0883149
1.019905,0.04577019,0.08413775
1.019198,0.04565081,0.08374168
1.020893,0.04599995,0.0867295
1.023864,0.04304679,0.08654686
1.025942,0.04112075,0.09167823
1.024659,0.04292338,0.09058644
1.022772,0.04114559,0.08542409
1.022029,0.03917328,0.0866626
1.02193,0.03806361,0.08863244
1.022507,0.03644525,0.09131285
1.021851,0.03685747,0.09056461
1.020045,0.03466707,0.08976596
1.018262,0.03183784,0.09280422
1.017604,0.03010424,0.09329419
1.019235,0.02861241,0.09317463
1.019687,0.03197522,0.0929502
1.018297,0.03786154,0.09310515
1.017708,0.04342118,0.09426257
1.017047,0.04781836,0.09457772
1.017078,0.04916713,0.09560893
1.019421,0.04870089,0.09487188
1.022951,0.04697483,0.0904801
1.024707,0.04484902,0.08630584
1.024851,0.04229422,0.08932871
1.025255,0.04074955,0.09675546
1.023751,0.04197008,0.09808701
1.022211,0.04099289,0.096666
1.022291,0.03607931,0.09549026
1.021956,0.03011179,0.09366568
1.022424,0.02777423,0.09455263
1.022263,0.03202814,0.09486445
1.02196,0.03603487,0.09520496
1.022551,0.03846908,0.09725278
1.021996,0.04203272,0.09708844
1.022075,0.04336028,0.09520782
1.021304,0.04273418,0.09294785
1.019419,0.0396657,0.09258767
1.019293,0.03768825,0.09398461
1.019427,0.0404063,0.09576247
1.019173,0.04019798,0.09907043
1.017644,0.03712906,0.1007634
1.016379,0.03580862,0.1017671
1.0184,0.03669168,0.1018882
1.020627,0.0391152,0.09591089
1.02129,0.03837635,0.09219465
1.02214,0.03805459,0.09557258
1.021686,0.04127085,0.09671904
1.019256,0.04207585,0.0968792
1.019377,0.04053281,0.09859427
1.021711,0.038936,0.09937337
1.022467,0.03822867,0.1021128
1.022483,0.03714985,0.1018895
1.021976,0.03472542,0.09820553
1.022154,0.03481055,0.09781546
1.022552,0.03530626,0.09653764
1.021509,0.0352893,0.09561092
1.020253,0.03975982,0.09730124
1.017193,0.04374492,0.09861358
1.015641,0.04272907,0.09988921
1.017889,0.04445748,0.09981819
1.020246,0.04858715,0.102202
1.023056,0.0489749,0.1051162
1.022399,0.05008639,0.1046061
1.018336,0.05060577,0.1037551
1.016832,0.04739394,0.1004263
1.016614,0.04418502,0.1014356
1.018608,0.04044681,0.1041208
1.021465,0.04096509,0.0990652
1.021768,0.04419719,0.09755515
1.022396,0.04341099,0.09818735
1.022427,0.04449112,0.09678175
1.021894,0.04404438,0.09839543
1.022462,0.04077204,0.09876995
1.022155,0.04101089,0.09816088
1.02214,0.04041101,0.0959082
1.022379,0.04200608,0.0934079
1.022072,0.04604441,0.09451441
1.022134,0.04626806,0.09470953
1.020961,0.0466785,0.09428346
1.018719,0.04710542,0.09498096
1.01749,0.04439929,0.09715126
1.017967,0.03853765,0.09948825
1.01842,0.03447816,0.09860109
1.017802,0.03822266,0.0970829
1.018237,0.04269023,0.0962753
1.019309,0.04507379,0.0950009
1.02039,0.05018917,0.09305902
1.021351,0.05214655,0.09231326
1.020546,0.04752349,0.09768666
1.019736,0.04431028,0.1047226
1.019455,0.04589173,0.10368
1.019506,0.04683025,0.1009734
1.021471,0.04798725,0.1025932
1.022759,0.0537182,0.1004095
1.02225,0.05737162,0.09877828
1.022045,0.05481998,0.09989831
1.02227,0.05223268,0.09430357
1.022142,0.05117156,0.08978167
1.021024,0.05088741,0.09158982
1.019714,0.05183056,0.09234875
1.019128,0.05085491,0.09138883
1.019238,0.04836129,0.09104068
1.018779,0.04680022,0.09033733
1.017585,0.04669804,0.08809119
1.018526,0.04832059,0.0889149
1.021055,0.04983904,0.09148463
1.022757,0.05180677,0.09174914
1.022655,0.05223493,0.0931301
1.021296,0.05008511,0.09405616
1.020599,0.04988925,0.09367569
1.019169,0.04813211,0.0903859
1.019149,0.04586782,0.0866429
1.021969,0.04666409,0.09265116
1.022148,0.04736819,0.09857773
1.020383,0.05103973,0.09541475
1.019009,0.05265717,0.09446984
1.019158,0.04989019,0.09773181
1.021015,0.04888927,0.09912842
1.020617,0.04550204,0.09878133
1.019852,0.04351434,0.09838252
1.019819,0.04343037,0.09805144
1.02074,0.04071722,0.09613005
1.0229,0.04298036,0.09346309
1.020506,0.04658789,0.0941192
1.018418,0.04652064,0.09451589
1.020954,0.0456746,0.09035519
1.022451,0.04292784,0.08781011
1.024135,0.04009768,0.08898888
1.025467,0.03809385,0.09054086
1.023934,0.03846917,0.09220921
1.02221,0.03993996,0.09350319
1.021961,0.03940326,0.09389698
1.022394,0.04158352,0.0952679
1.021817,0.04342034,0.09766766
1.020216,0.04336128,0.09508309
1.018101,0.0471859,0.0913865
1.017636,0.05048859,0.09426435
1.019349,0.04994809,0.09519907
1.01968,0.04699323,0.09265958
1.019347,0.04484883,0.09234674
1.019852,0.04595776,0.09205993
1.021159,0.04627129,0.09249312
1.022847,0.0466574,0.09256107
1.022396,0.04851196,0.09126939
1.02178,0.0485892,0.08892237
1.022688,0.0467513,0.08454988
1.0231,0.04515329,0.08261793
1.022475,0.04523794,0.0792002
1.016401,0.0426362,0.0749308
1.005058,0.03483535,0.08703486
0.9998185,0.02686635,0.1073966
1.003458,0.02415752,0.1097306
1.011886,0.03216337,0.09576906
1.024363,0.04871352,0.08575586
1.030945,0.06058154,0.09060026
1.028406,0.06309373,0.1022078
1.027704,0.06704932,0.1066188
1.025683,0.07232244,0.1056975
1.020058,0.06980882,0.1059281
1.01893,0.06317444,0.1056487
1.021331,0.04799566,0.1043473
1.026679,0.03063042,0.1038889
1.029943,0.03451682,0.1042903
1.02385,0.04015569,0.103821
1.018448,0.03409728,0.1020984
1.020695,0.03528695,0.1000948
1.021874,0.03019398,0.09992388
1.019096,0.01882993,0.1030401
1.019125,0.01912805,0.1046754
1.020189,0.02078494,0.1020416
1.019981,0.02294077,0.09876123
1.022272,0.02565429,0.09797114
1.022333,0.02546062,0.09892942
1.019786,0.03034411,0.09881246
1.018536,0.03662415,0.09966311
1.018626,0.04076933,0.1022822
1.021827,0.04218022,0.102918
1.022672,0.03969609,0.1010482
1.020003,0.03831285,0.09918752
1.019036,0.03989522,0.09992199
1.019216,0.04614176,0.1006874
1.019828,0.05305758,0.1004605
1.019319,0.05386876,0.1017885
1.018877,0.05019804,0.1016467
1.018041,0.04542179,0.1009082
1.015793,0.04203082,0.1013687
1.016751,0.04178474,0.09900586
1.018089,0.04237287,0.09522994
1.017862,0.0406189,0.09328833
1.017822,0.04505244,0.09257029
1.015221,0.05345618,0.09160867
1.013353,0.0519156,0.09092845
1.015575,0.05112841,0.09118905
1.017076,0.05354356,0.09148521
1.014019,0.04965746,0.0969271
1.011681,0.04818036,0.1033037
1.015312,0.05223631,0.09747691
1.018019,0.05831966,0.09182141
1.016447,0.06100454,0.09780832
1.016985,0.0575853,0.1005666
1.020631,0.05621648,0.09860995
1.023197,0.05837634,0.09974882
1.02253,0.06064736,0.0978208
1.021757,0.06153421,0.09566242
1.023056,0.06020567,0.1020685
1.022069,0.05637995,0.1076019
1.018968,0.05171309,0.1027131
1.018135,0.05118393,0.09745716
1.018495,0.05196825,0.09867655
1.019633,0.05077117,0.09898989
1.021516,0.05053129,0.09794855
1.0207,0.04998955,0.09735621
1.018342,0.04958383,0.09327849
1.016768,0.05037305,0.0894324
1.015295,0.04992665,0.08725304
1.015441,0.049803,0.08383298
1.018108,0.05082075,0.08422179
1.022954,0.05284186,0.08664235
1.026644,0.05643436,0.08344941
1.024945,0.05508698,0.07991946
1.022659,0.04765457,0.08311037
1.021367,0.04403297,0.08953467
1.018396,0.04623566,0.09470218
1.018815,0.04799068,0.09590432
1.019546,0.04722148,0.09398908
1.017642,0.04724763,0.09275407
1.020681,0.04892286,0.08877613
1.023664,0.04868703,0.08445171
1.021902,0.04644857,0.08557118
1.021922,0.04565796,0.08473763
1.022228,0.04762916,0.08293643
1.020612,0.04865034,0.0839049
1.020692,0.04472964,0.08325581
1.022617,0.03980786,0.08508999
1.022807,0.04008347,0.0871144
1.021779,0.04359447,0.08644292
1.023265,0.04490939,0.08968886
1.024,0.04350098,0.0925297
1.022023,0.04140697,0.09014302
1.020263,0.04027823,0.08786853
1.018855,0.03958858,0.08998309
1.019109,0.04031648,0.09304471
1.019037,0.0460035,0.09580413
1.017581,0.05059605,0.100134
1.018932,0.04889236,0.09910273
1.020086,0.04876426,0.09629934
1.019186,0.0515987,0.09788828
1.019414,0.05035768,0.09669331
1.019928,0.0463628,0.09507407
1.021128,0.04413417,0.09452944
1.0221,0.04316051,0.09386145
1.018502,0.04334237,0.09598358
1.013363,0.04522931,0.09638344
1.013305,0.04842042,0.09711157
1.01602,0.05148246,0.09867601
1.018715,0.05342658,0.09573624
1.024131,0.05819917,0.09060026
1.028672,0.06478461,0.0833029
1.029752,0.06549725,0.08069542
1.030214,0.05834161,0.08826345
1.026554,0.04865892,0.09331254
1.018275,0.04496739,0.09170849
1.010142,0.04702757,0.09163248
1.005634,0.04799662,0.09468404
1.010311,0.04861634,0.09617341
1.01779,0.0502277,0.09267179
1.017519,0.05181888,0.08795399
1.018162,0.05638394,0.08750601
1.023502,0.06142732,0.08946999
1.025788,0.06037583,0.0893426
1.027764,0.05853574,0.08928018
1.029478,0.0595563,0.0913732
1.026597,0.05671941,0.09344986
1.023822,0.05395715,0.09661601
1.024468,0.05570464,0.09736615
1.023585,0.05421707,0.09135276
1.019411,0.05149563,0.08684759
1.018629,0.0528643,0.08753326
1.020441,0.05227853,0.08625215
1.020956,0.05058304,0.08430735
1.022744,0.05162735,0.08925576
1.022284,0.05153325,0.09674425
1.019215,0.05113278,0.0964998
1.016657,0.05158951,0.09189189
1.014201,0.05236582,0.09334865
1.014958,0.05728751,0.1006345
1.015123,0.06408556,0.1052949
1.013523,0.06493087,0.1035933
1.016655,0.0605139,0.09767327
1.019284,0.0569466,0.09158444
1.0179,0.05482427,0.09052497
1.017707,0.05443299,0.09139099
1.01835,0.05375586,0.08725826
1.01819,0.0494856,0.08302274
1.019175,0.04703388,0.08408317
1.022008,0.04527965,0.08393963
1.024607,0.043594,0.08094414
1.025316,0.04585074,0.08256316
1.024123,0.04370059,0.08471458
1.022887,0.04148799,0.08393601
1.022822,0.04474378,0.08676892
1.022146,0.04562328,0.08856479
1.021864,0.04867173,0.08790964
1.02258,0.05140335,0.09198335
1.02211,0.05175063,0.09579529
1.021734,0.05570327,0.09373853
1.020493,0.0554757,0.09078449
1.017634,0.05444841,0.09048516
1.016743,0.0554157,0.08837989
1.017121,0.0515448,0.08457814
1.018395,0.05058765,0.08171615
1.021216,0.05215696,0.07902429
1.022227,0.05177504,0.08372824
1.02152,0.05194108,0.09047041
1.019791,0.04944423,0.08704662
1.016777,0.04779915,0.08433913
1.01585,0.05016104,0.08599009
1.01556,0.05274558,0.08690748
1.015295,0.05695233,0.09071316
1.019383,0.06324025,0.09023337
1.023022,0.06657888,0.08377746
1.022404,0.06315739,0.08049337
1.021958,0.05815482,0.07948372
1.022085,0.0568617,0.07842737
1.021429,0.0557016,0.07742781
1.020493,0.0542661,0.07876531
1.020672,0.0539135,0.08191585
1.021369,0.05294215,0.08153025
1.02183,0.05052972,0.07931239
1.024307,0.04474123,0.07705775
1.025105,0.04078531,0.07764765
1.020837,0.04694082,0.08275276
1.016444,0.05495195,0.08845189
1.015869,0.05512873,0.09319304
1.017197,0.05488336,0.08959274
1.016678,0.05674817,0.08266734
1.016494,0.05632432,0.0805378
1.017943,0.05891711,0.07565042
1.018124,0.06231566,0.07825163
1.018132,0.06253562,0.08609254
1.018045,0.06377679,0.08476636
1.017738,0.06038721,0.08743012
1.01702,0.05465322,0.08919721
1.014799,0.05553475,0.0834493
1.015411,0.05780676,0.08317309
1.019277,0.05865767,0.08273267
1.021233,0.05858056,0.08259615
1.02082,0.0579326,0.08395628
1.021038,0.05855694,0.07833798
1.022809,0.05836016,0.07399636
1.023682,0.05743827,0.07308483
1.022029,0.05442419,0.07373298
1.02017,0.04852773,0.07715964
1.021556,0.04523904,0.07887113
1.023119,0.04407436,0.08257872
1.022211,0.04259833,0.08615098
1.024043,0.04464423,0.08557787
1.026822,0.04988345,0.08528765
1.025982,0.05357153,0.08563296
1.023579,0.05518336,0.08725011
1.021784,0.05830878,0.08724707
1.024059,0.06227419,0.08316369
1.025289,-0.07467371,0.05218272
1.025302,-0.07184927,0.05266063
1.022647,-0.07195755,0.04734948
1.022617,-0.07118881,0.04376659
1.023311,-0.0748347,0.04295757
1.023267,-0.07837538,0.04290011
1.026574,-0.08109583,0.04247631
1.028392,-0.08727952,0.04062114
1.026081,-0.09121461,0.03995175
1.023994,-0.09236032,0.03379791
1.025522,-0.09170506,0.02779147
1.027952,-0.09101073,0.02858187
1.027574,-0.09086778,0.02705951
1.026413,-0.08804718,0.02446922
1.025726,-0.08672964,0.02493295
1.02651,-0.08830133,0.02673928
1.025845,-0.09023067,0.03330087
1.024047,-0.0923818,0.04548535
1.025429,-0.09202857,0.05010417
1.02511,-0.09051764,0.04430632
1.024559,-0.08928337,0.04331179
1.025514,-0.08678423,0.04495746
1.024629,-0.08705841,0.04215024
1.024935,-0.08945203,0.04018724
1.02425,-0.08984601,0.03979221
1.022856,-0.09186765,0.03952492
1.022937,-0.09558153,0.03854493
1.021933,-0.09940477,0.0381935
1.02296,-0.1048136,0.04031881
1.026964,-0.1095062,0.0423662
1.030335,-0.1130622,0.04390082
1.029601,-0.1134003,0.04748283
1.027052,-0.111138,0.05239227
1.026744,-0.1101942,0.05235989
1.02392,-0.1039495,0.05028989
1.019343,-0.09465544,0.05286331
1.016384,-0.08951971,0.05242425
1.014198,-0.08350656,0.04768425
1.016197,-0.07784087,0.04407156
1.020528,-0.07671579,0.03971019
1.023673,-0.0790148,0.03402799
1.023647,-0.08515666,0.03001015
1.020197,-0.09921013,0.03276177
1.020988,-0.1172775,0.03500987
1.024262,-0.128839,0.03245749
1.025164,-0.1406981,0.03536814
1.025613,-0.1482345,0.03724043
1.024493,-0.1376923,0.03557307
1.024918,-0.1277077,0.03736584
1.02539,-0.1239454,0.03783681
1.023453,-0.1162681,0.03893541
1.023889,-0.1102104,0.04138185
1.024452,-0.1047827,0.04173638
1.024912,-0.1035796,0.04250108
1.024611,-0.1066029,0.04617173
1.022712,-0.1067402,0.04907197
1.024016,-0.109444,0.04504578
1.024805,-0.110723,0.04217124
1.02477,-0.1108212,0.04136372
1.025182,-0.11406,0.03693108
1.022792,-0.113558,0.03581422
1.021752,-0.112699,0.03581515
1.022249,-0.1099086,0.03607282
1.022261,-0.1039148,0.03673811
1.022338,-0.1013461,0.03581603
1.021998,-0.09834083,0.04001388
1.022399,-0.09495735,0.04475568
1.022208,-0.09332631,0.0466487
1.022067,-0.09333729,0.04677045
1.022819,-0.09270002,0.04650482
1.023801,-0.0904366,0.04968526
1.025635,-0.09209525,0.04801005
1.02491,-0.09227077,0.04584136
1.022998,-0.09169701,0.0481818
1.023854,-0.09358769,0.04530074
1.025453,-0.09010279,0.03862065
1.02634,-0.08773901,0.03096448
1.025934,-0.08987064,0.0299167
1.024296,-0.09342962,0.03451344
1.021793,-0.1009136,0.03344489
1.021944,-0.1065853,0.03357682
1.026348,-0.105447,0.03266429
1.027529,-0.1011932,0.03001509
1.026617,-0.1010974,0.0330368
1.028955,-0.1019078,0.03009505
1.030862,-0.1005193,0.02380239
1.028812,-0.1054228,0.02337588
1.019379,-0.1133535,0.02906065
1.012911,-0.1200658,0.0367024
1.022622,-0.1242998,0.0276211
1.030335,-0.1244376,0.01691416
1.026658,-0.12407,0.02414829
1.030625,-0.113998,0.02724051
1.035378,-0.1003775,0.0269125
1.023107,-0.09919152,0.02834073
1.013524,-0.09845463,0.02139512
1.025368,-0.09390236,0.01772201
1.035707,-0.09527274,0.01966037
1.028426,-0.1040692,0.02042442
1.020921,-0.1078375,0.02638791
1.016663,-0.09171304,0.04278794
1.01275,-0.07570136,0.05728281
1.014573,-0.08289336,0.05344172
1.008139,-0.09107398,0.05205922
1.002251,-0.08543938,0.05882128
1.021111,-0.08478819,0.0408029
1.038493,-0.08290816,0.01868809
1.031571,-0.0710563,0.02308887
1.022293,-0.06433647,0.02962641
1.022491,-0.06193947,0.02888044
1.022758,-0.0697585,0.02911825
1.023741,-0.08436907,0.0262721
1.025738,-0.08737275,0.02399076
1.025084,-0.08825904,0.02453374
1.027073,-0.08999731,0.02262909
1.02743,-0.09473073,0.02104799
1.027876,-0.1062357,0.02711611
1.031932,-0.1122678,0.03501484
1.027402,-0.1108871,0.03490096
1.022465,-0.1023389,0.03468993
1.02176,-0.09186818,0.03675035
1.017757,-0.08539329,0.03360228
1.015509,-0.08360807,0.03429687
1.012337,-0.08500781,0.03839785
1.007428,-0.08400134,0.0387603
1.001591,-0.09335387,0.04462414
0.9938434,-0.1115764,0.05020784
0.989209,-0.1220171,0.05101626
0.9879913,-0.1333756,0.05278906
0.9906374,-0.1551268,0.04943577
0.9959953,-0.1757982,0.04453901
1.0118,-0.1842455,0.02896948
1.048654,-0.1992429,0.002428528
1.086738,-0.211725,-0.00129818
1.098824,-0.1954465,0.005968819
1.088544,-0.1814783,0.004506418
1.071452,-0.1614484,0.01552465
1.045581,-0.1236877,0.02882685
1.026331,-0.1237662,0.02371206
1.027995,-0.1374495,0.01674809
1.021285,-0.1257963,0.01698069
1.014378,-0.1308446,0.01629809
1.019833,-0.153511,0.02409041
1.009948,-0.1786599,0.03694647
1.007482,-0.2067796,0.03586026
1.013384,-0.2109817,0.03239978
1.003864,-0.2026847,0.03177037
1.006451,-0.1963563,0.02549868
1.013442,-0.1746912,0.02236744
1.013489,-0.1561319,0.02147126
1.010841,-0.1498916,0.02135966
0.9998458,-0.1450461,0.0283412
1.004447,-0.1428126,0.03430228
1.00922,-0.135556,0.03170274
1.00182,-0.1224525,0.0269934
1.003535,-0.112829,0.02605488
0.996764,-0.1134138,0.02563578
0.9892515,-0.11232,0.02343475
0.9915151,-0.1070368,0.01776115
0.9950433,-0.1233125,0.007425045
1.020136,-0.1539871,-0.001601045
1.0621,-0.1756523,-0.007813958
1.093824,-0.1776063,-0.01412365
1.097497,-0.1659679,-0.01418158
1.077527,-0.1570101,-0.002567914
1.05343,-0.1353437,0.01148214
1.02832,-0.1154835,0.02432336
1.008735,-0.1213283,0.03601609
0.9976902,-0.1224919,0.03661232
0.9972895,-0.1209849,0.03251214
1.005295,-0.1300999,0.03029503
1.003596,-0.1364926,0.02951287
1.00516,-0.1419292,0.03433699
1.014269,-0.1453644,0.03377809
1.015506,-0.1487999,0.03117044
1.016675,-0.1518583,0.03286367
1.016873,-0.1529194,0.0302725
1.01983,-0.1598397,0.02751715
1.024578,-0.1601027,0.02281837
1.023928,-0.151486,0.02018544
1.029397,-0.1461299,0.02205394
1.030117,-0.1415611,0.01857154
1.024111,-0.1322691,0.0141619
1.021757,-0.1169083,0.007264306
1.016743,-0.1124085,0.005184356
1.014699,-0.1131922,0.01340247
1.011509,-0.1004504,0.01486944
1.009993,-0.1009406,0.01354034
1.018587,-0.1139531,0.01292016
1.022475,-0.1204323,0.007128089
1.022805,-0.1309493,0.004062816
1.023862,-0.1349385,0.009564964
1.02575,-0.1407901,0.01799689
1.029733,-0.153121,0.01430228
1.028575,-0.147585,0.003563688
1.029582,-0.1471339,-0.002257244
1.031585,-0.1535858,-0.005096538
1.027946,-0.1469282,-0.001772247
1.027358,-0.1444385,-0.000298271
1.027377,-0.1405225,0.003454474
1.024817,-0.1388774,0.01350208
1.02214,-0.1491058,0.009342846
1.021306,-0.1527247,0.005542118
1.022983,-0.1552079,0.01057605
1.021902,-0.1582205,0.008258764
1.020932,-0.1556035,0.006084323
1.020983,-0.152698,-0.000558287
1.019361,-0.1489822,-0.007328363
1.019541,-0.1521637,0.004269858
1.019566,-0.1561341,0.01443329
1.020168,-0.1520125,0.008765913
1.021111,-0.1493733,0.004032113
1.01879,-0.1469903,0.003809892
1.017663,-0.1442831,0.002497688
1.018905,-0.1430546,0.006286413
1.019917,-0.1421835,0.01120262
1.019364,-0.1432597,0.0122607
1.018311,-0.1417774,0.0162611
1.019222,-0.141293,0.01555893
1.020401,-0.1464319,0.009072266
1.021251,-0.1500194,0.006864995
1.02112,-0.1503052,0.006301488
1.021293,-0.1490922,0.007167072
1.022896,-0.1474477,0.00719494
1.022191,-0.1461642,0.005156196
1.022039,-0.1437614,0.004925402
1.023719,-0.1434602,0.003690547
1.024502,-0.1433874,0.004128607
1.02419,-0.1385322,0.006213356
1.018405,-0.1330223,0.007919292
1.011277,-0.1276807,0.01092063
1.011893,-0.1261543,0.01029463
1.015524,-0.1299921,0.01062882
1.016767,-0.1288437,0.01327221
1.018942,-0.1255604,0.009752217
1.022017,-0.124112,0.007104012
1.022637,-0.1230354,0.009514062
1.022542,-0.1277401,0.01031401
1.023902,-0.1335091,0.009504322
1.025553,-0.1365313,0.009590714
1.024811,-0.1368807,0.01013054
1.021733,-0.1342035,0.01048722
1.02031,-0.1344247,0.01063397
1.020819,-0.1330588,0.007795438
1.021967,-0.1299344,0.004089243
1.022568,-0.1315486,0.006221069
1.022019,-0.1349953,0.01090216
1.022302,-0.1395367,0.01342152
1.02279,-0.1419662,0.01399641
1.024946,-0.1436957,0.01290572
1.028292,-0.1454409,0.01143305
1.027842,-0.1408648,0.009136482
1.025378,-0.1378368,0.009102109
1.023698,-0.137465,0.01161937
1.023216,-0.1352113,0.01100599
1.023607,-0.1361633,0.01068404
1.022594,-0.1364998,0.01072843
1.020926,-0.135667,0.008937695
1.020539,-0.1364175,0.009872009
1.02075,-0.1358087,0.01002843
1.019824,-0.1351897,0.009252678
1.018178,-0.1345731,0.01011883
1.01774,-0.1344558,0.009707482
1.017967,-0.1350737,0.01040316
1.017242,-0.1345299,0.01033556
1.016644,-0.1347002,0.007504054
1.018391,-0.1352409,0.006485985
1.020229,-0.1366776,0.007824773
1.019486,-0.140494,0.008937339
1.019406,-0.1447568,0.007848217
1.021527,-0.1505481,0.006126001
1.02273,-0.1555071,0.004462024
1.022463,-0.1546608,0.004151605
1.02289,-0.1532284,0.008462326
1.024157,-0.1534213,0.01306536
1.023973,-0.1480128,0.01542514
1.022065,-0.1413831,0.01771438
1.021694,-0.1403653,0.01760268
1.022818,-0.1381869,0.01470665
1.021188,-0.1350829,0.01397535
1.019325,-0.1337459,0.01571275
1.020604,-0.1295241,0.0180209
1.019557,-0.1291917,0.02337553
1.01843,-0.1315669,0.02487064
1.020374,-0.1262777,0.02362449
1.019206,-0.1237748,0.02952874
1.018803,-0.1288777,0.0273317
1.019333,-0.1358869,0.01644187
1.017674,-0.1442599,0.01279797
1.020846,-0.1462379,0.01265452
1.024024,-0.1448375,0.01496033
1.024605,-0.1457182,0.01373736
1.026533,-0.1440789,0.009550825
1.024138,-0.1449649,0.007361692
1.02081,-0.1479188,-0.003608881
1.022148,-0.1512497,-0.00976554
1.02276,-0.1584648,0.0003929943
1.020828,-0.1598896,0.0103819
1.020353,-0.154954,0.01181226
1.020242,-0.1504416,0.01345869
1.018928,-0.1440845,0.01991136
1.019458,-0.1402885,0.01969216
1.020061,-0.1379543,0.01966298
1.020926,-0.1334003,0.02356668
1.023167,-0.1344458,0.02305928
1.02324,-0.1358151,0.02219347
1.023432,-0.1336684,0.01262788
1.024225,-0.1359033,0.008462409
1.024221,-0.1390515,0.01260969
1.025281,-0.1437454,0.004081293
1.025277,-0.1481879,0.004755279
1.023891,-0.1468187,0.008359908
1.021269,-0.1479597,0.003745705
1.016623,-0.1511805,0.01173735
1.015673,-0.1528868,0.01706706
1.018547,-0.1516332,0.01630109
1.019149,-0.1453119,0.0166694
1.019406,-0.1405197,0.01391125
1.019853,-0.1363385,0.01577525
1.019033,-0.1360314,0.01655361
1.019595,-0.1394334,0.01886001
1.020127,-0.1361354,0.02413925
1.021812,-0.1337588,0.02040098
1.024903,-0.1310927,0.01721998
1.024859,-0.1270412,0.01687912
1.025677,-0.1308872,0.01464048
1.02815,-0.1313686,0.0165269
1.026784,-0.1288013,0.01926726
1.022054,-0.1278002,0.0230509
1.017108,-0.1235208,0.02985412
1.017356,-0.1252199,0.028201
1.021396,-0.1298039,0.02014715
1.022788,-0.1307132,0.01864786
1.023582,-0.131791,0.01777916
1.022186,-0.132659,0.01403289
1.018634,-0.135486,0.0119535
1.019175,-0.1366726,0.01156333
1.019002,-0.1388087,0.01387665
1.017468,-0.1462716,0.01415439
1.019186,-0.1483107,0.01503717
1.019817,-0.1492512,0.01786683
1.019333,-0.1508243,0.02030923
1.01927,-0.1455012,0.0274071
1.018498,-0.142904,0.02726922
1.017908,-0.1398789,0.02445477
1.018,-0.1312783,0.0299885
1.019207,-0.1226242,0.02845147
1.019852,-0.1154062,0.02365281
1.020442,-0.1212023,0.02006285
1.022242,-0.1291624,0.0174381
1.023391,-0.1254535,0.02059554
1.023874,-0.1279655,0.01852674
1.023067,-0.1335462,0.01719258
1.020775,-0.1347962,0.02094682
1.018808,-0.1341335,0.02126517
1.019005,-0.1274061,0.02383312
1.020095,-0.1253111,0.02574637
1.019367,-0.1300401,0.02494644
1.02012,-0.1394419,0.02501932
1.022086,-0.1498294,0.02348482
1.023962,-0.146315,0.01786038
1.029305,-0.1415299,0.006931301
1.031316,-0.1422036,0.003471601
1.025651,-0.1307588,0.01077334
1.020989,-0.1127124,0.01623086
1.019092,-0.1022623,0.02118601
1.017367,-0.09963376,0.02415293
1.022169,-0.09923082,0.01820014
1.032361,-0.103849,0.009180509
1.036625,-0.1202379,0.001380819
1.03798,-0.1383937,-0.01106176
1.035062,-0.1489163,-0.0208024
1.022723,-0.1552476,-0.01588755
1.017707,-0.1586733,-0.008017101
1.016766,-0.1575311,-0.0008736081
1.025948,-0.1510781,0.001183578
1.090568,-0.1418426,-0.02947851
1.141188,-0.1327383,-0.05593897
1.047385,-0.1257287,-0.009174209
0.9407263,-0.1193354,0.04244851
0.9936133,-0.1130434,0.01948653
1.034781,-0.1184774,0.006400246
1.002025,-0.1300313,0.0213174
1.03537,-0.1329575,0.002020984
1.034287,-0.1360819,0.003113927
1.001114,-0.1387452,0.01614671
1.03146,-0.1374574,-0.0001299334
1.022309,-0.1371291,0.00326782
1.009667,-0.135151,0.004477138
1.018044,-0.128495,-0.008097868
0.9953692,-0.0987747,-0.01829718
1.000632,-0.06816636,-0.04079674
1.001474,-0.09043412,-0.03700803
0.9915763,-0.1283057,-0.01572327
0.9917777,-0.1539451,-0.0002922555
1.001577,-0.1950274,-0.02430018
1.107401,-0.1975314,-0.1998097
1.187143,-0.1597651,-0.3501119
1.042618,-0.132112,-0.155665
0.8866371,-0.08351993,0.0846724
0.9684012,-0.07851221,-0.001482898
1.047646,-0.1157479,-0.06113521
1.000539,-0.09410302,0.01556032
1.025885,-0.1035453,-0.02680207
1.027575,-0.1254883,-0.01158638
0.9955142,-0.09794796,0.02962683
1.028491,-0.114135,-0.01196569
1.008478,-0.1263951,0.02183432
1.012101,-0.1255461,0.01488071
1.0367,-0.1289508,-0.007848072
1.013786,-0.09381225,0.01860266
1.030865,-0.08654401,-0.00539384
1.025718,-0.08381947,0.01188789
1.018637,-0.07726907,0.02157803
1.028964,-0.09046442,0.01085366
1.007065,-0.06226579,0.0359113
1.012108,-0.04590993,0.01956639
1.012578,-0.05846817,0.01885638
1.010925,-0.06398293,0.0250775
1.018547,-0.07845109,0.02171663
1.009521,-0.08197969,0.04438876
1.022237,-0.08228421,0.04096032
1.025446,-0.08246644,0.04257804
1.01776,-0.078289,0.05393696
1.011281,-0.07315144,0.07146185
0.993322,-0.05889062,0.1122958
0.9989992,-0.05641991,0.1213501
1.013196,-0.05353656,0.1052325
1.044195,-0.05101424,0.08310276
1.090827,-0.06567356,0.05988339
1.080973,-0.07407461,0.06582432
1.045815,-0.08672171,0.08815056
1.04254,-0.0982112,0.09531878
1.034813,-0.07631643,0.09228363
1.02093,-0.04950676,0.0974065
1.018391,-0.05181927,0.09708739
1.010603,-0.05320822,0.08537177
1.017055,-0.04200351,0.07316316
1.03203,-0.05010792,0.06774176
1.030729,-0.05533279,0.07497884
1.023972,-0.05274091,0.08450103
1.011649,-0.06482392,0.09134509
1.01023,-0.06321741,0.09335272
1.017589,-0.05834544,0.09571421
1.017565,-0.06157008,0.1005246
1.024758,-0.0570035,0.09833943
1.028416,-0.05612663,0.09825879
1.026854,-0.05184885,0.0997134
1.026348,-0.05120192,0.1018024
1.020897,-0.05760129,0.1057368
1.020444,-0.0565516,0.1036885
1.021934,-0.06207209,0.1014505
1.022698,-0.06790821,0.09844893
1.02412,-0.06865837,0.09626145
1.023037,-0.06655083,0.09867719
1.022427,-0.05834541,0.1017399
1.021666,-0.05914004,0.1055657
1.023424,-0.05768631,0.1059498
1.024475,-0.05118063,0.1040512
1.02379,-0.05542622,0.104188
1.025965,-0.05761856,0.1036905
1.025659,-0.05798404,0.1030481
1.02517,-0.05898389,0.1058532
1.024507,-0.05522474,0.1091003
1.022024,-0.0558817,0.1110588
1.021362,-0.05749068,0.1117695
1.018808,-0.05454749,0.1082642
1.01881,-0.05138137,0.1099273
1.021455,-0.04878383,0.1139535
1.020323,-0.04664854,0.1130927
1.019612,-0.04224255,0.1149919
1.017144,-0.03492533,0.1135785
1.012884,-0.02966497,0.1131031
1.01205,-0.02958657,0.1159898
1.01235,-0.03010723,0.1167841
1.012773,-0.02934037,0.1236886
1.012484,-0.03192042,0.1252467
1.012948,-0.03247084,0.1230235
1.016602,-0.02914442,0.1296377
1.020173,-0.02793288,0.1345422
1.021927,-0.02651007,0.1339515
1.021348,-0.0260001,0.1293259
1.0179,-0.02676075,0.1292579
1.014694,-0.0234276,0.1324623
1.018021,-0.01151513,0.1300187
1.023268,0.006514068,0.133106
1.021897,0.01247535,0.1359326
1.028028,0.0107534,0.1312971
1.044499,0.01846463,0.1297988
1.051833,0.01549362,0.129547
1.054955,-0.003766972,0.124137
1.066643,-0.01688136,0.1091463
1.071901,-0.01985945,0.09291734
1.054153,-0.0183999,0.08705796
1.035952,-0.01973987,0.08402074
1.03369,-0.02093043,0.07778084
1.018109,-0.02084843,0.06819604
1.0017,-0.0282169,0.05624141
1.021689,-0.03714668,0.04342499
1.03921,-0.05014964,0.03297542
1.025526,-0.06046934,0.03350534
1.014496,-0.06034453,0.03768349
1.007036,-0.07211901,0.03998194
0.995857,-0.08332216,0.04440324
0.9961329,-0.08549186,0.03549088
0.9867037,-0.09917142,0.02120594
0.9671319,-0.1061674,0.02393085
0.9682482,-0.1043965,0.02517911
0.9821983,-0.111489,0.01614662
1.005751,-0.1155859,0.005592305
1.034786,-0.114245,-0.005550708
1.04562,-0.1143989,-5.24658e-05
1.044119,-0.1118732,0.01119781
1.044373,-0.1040553,0.005475312
1.042076,-0.09713792,0.009434757
1.028016,-0.09394429,0.02238786
1.016057,-0.08863871,0.0217435
1.020924,-0.08759084,0.02461696
1.021713,-0.09402454,0.02725149
1.017501,-0.1006016,0.019054
1.02169,-0.1096014,0.01496029
1.027764,-0.1172501,0.0149487
1.033842,-0.1275051,0.01139786
1.032977,-0.1388482,0.004808888
1.027919,-0.131741,0.005333204
1.028315,-0.1239647,0.008540497
1.025552,-0.1238062,0.003845795
1.021912,-0.1184157,0.005212533
1.022205,-0.1196975,0.007134756
1.020852,-0.1185429,0.003910442
1.019781,-0.1158575,0.006449994
1.02,-0.1215093,0.004572564
1.02305,-0.1238876,-0.000615087
1.028362,-0.1318135,-0.003375937
1.028469,-0.1357434,-0.00564223
1.02638,-0.132942,-0.00839162
1.024529,-0.1427142,-0.01697983
1.022178,-0.1508417,-0.01842886
1.027035,-0.1556102,-0.01676687
1.033346,-0.1499383,-0.01871068
1.027293,-0.1243976,-0.002837384
1.010487,-0.107439,0.01186806
0.9986069,-0.1027676,0.007233201
1.006682,-0.1028007,0.008429652
1.02022,-0.1014844,0.01393302
1.027338,-0.08890608,0.006611517
1.039364,-0.08344075,-0.0008679808
1.036967,-0.09061454,9.899455e-05
1.027694,-0.1075475,-0.01188939
1.044219,-0.1336889,-0.0282576
1.051129,-0.1445488,-0.02003935
1.039582,-0.1362083,-0.010725
1.033504,-0.1275153,-0.01444876
1.026399,-0.1214776,-0.009742521
1.030697,-0.1186754,-0.005345071
1.035697,-0.1229507,-0.009288462
1.030281,-0.1252412,-0.008847958
1.026575,-0.1247013,-0.005875436
1.014198,-0.1297105,-0.0006571081
1.007267,-0.1307938,0.007794331
1.011685,-0.1270562,0.008057737
1.011356,-0.12314,0.007483672
1.012883,-0.1179024,0.0171616
1.017228,-0.1133952,0.02367815
1.020263,-0.1054764,0.02125329
1.017386,-0.1039617,0.01554958
1.01313,-0.1061942,0.0106048
1.016388,-0.1010601,0.01199587
1.018863,-0.09918919,0.01359337
1.021206,-0.09428969,0.01084069
1.023678,-0.09184571,0.0107951
1.021462,-0.09823216,0.01278304
1.021071,-0.09977339,0.01702199
1.021701,-0.1053172,0.02290696
1.022904,-0.1065408,0.02143609
1.026212,-0.1017335,0.01831085
1.025334,-0.1083097,0.02010024
1.024064,-0.109609,0.0194731
1.025324,-0.107743,0.01870313
1.023104,-0.1129824,0.01869326
1.021698,-0.1144961,0.01469397
1.024268,-0.1163844,0.01277196
1.025267,-0.1208637,0.01358565
1.022943,-0.1269892,0.01372701
1.019546,-0.1295136,0.01302113
1.018856,-0.1287121,0.007815495
1.019766,-0.1356313,0.004443403
1.019372,-0.1386449,0.01008669
1.019408,-0.1370556,0.01475114
1.02058,-0.1404748,0.01230939
1.024733,-0.1430822,0.01049339
1.029132,-0.1446319,0.00804003
1.025854,-0.1396894,0.002413019
1.019669,-0.1322791,0.005021017
1.018939,-0.1315128,0.01245177
1.020705,-0.1283698,0.01520993
1.022178,-0.1223599,0.01929958
1.023549,-0.1193683,0.02303641
1.023861,-0.1208451,0.02325672
1.024547,-0.1226975,0.02055774
1.02564,-0.1217001,0.01644577
1.026764,-0.1225062,0.0187717
1.027581,-0.1220277,0.02140811
1.024405,-0.1199443,0.02118777
1.020385,-0.1181812,0.02444138
1.02023,-0.1119484,0.02337967
1.019737,-0.104296,0.02079317
1.018692,-0.1005972,0.02286624
1.019822,-0.1014264,0.02109644
1.020004,-0.1028918,0.01547885
1.021084,-0.1066701,0.010707
1.024972,-0.115022,0.009716179
1.025483,-0.1186815,0.01063283
1.023505,-0.1211993,0.008951743
1.022607,-0.1251644,0.01000675
1.021811,-0.1217409,0.01261795
1.022653,-0.11938,0.01488024
1.024187,-0.1202778,0.02093692
1.025289,-0.1138747,0.02352156
1.025062,-0.1053215,0.02271818
1.023062,-0.1041787,0.02619418
1.023289,-0.107351,0.03151498
1.02373,-0.1069579,0.03304951
1.021946,-0.1046488,0.02912207
1.021697,-0.1041674,0.02638177
1.02264,-0.1049008,0.0254947
1.02225,-0.1070358,0.02422478
1.021909,-0.107529,0.0254216
1.022511,-0.1079502,0.0250537
1.022159,-0.1115622,0.02461093
1.022051,-0.1135255,0.025488
1.022501,-0.1142952,0.02373748
1.022354,-0.118497,0.02066217
1.024076,-0.1242141,0.01681329
1.02547,-0.1274464,0.01670007
1.02358,-0.1294193,0.01673407
1.020448,-0.1302417,0.0123299
1.018783,-0.1283201,0.01289541
1.020483,-0.13049,0.01197025
1.022754,-0.1371292,0.005212961
1.024622,-0.1426437,0.005030136
1.028187,-0.1469315,0.00803117
1.030195,-0.1482116,0.008377694
1.028903,-0.1460963,0.007738579
1.027142,-0.1392572,0.006648847
1.024307,-0.1337,0.009444072
1.02094,-0.1319984,0.01426024
1.02183,-0.123773,0.01594298
1.023037,-0.11893,0.01411377
1.020329,-0.1237529,0.01032636
1.018765,-0.1259621,0.009080268
1.017866,-0.1224732,0.009983521
1.017507,-0.1161386,0.01068293
1.018696,-0.1134248,0.01143533
1.017983,-0.1139851,0.01106835
1.019092,-0.115669,0.0110081
1.022148,-0.1180476,0.01125167
1.023337,-0.1182331,0.01098109
1.024087,-0.1213239,0.01120768
1.023307,-0.1245522,0.01142249
1.022484,-0.1259241,0.01288198
1.022153,-0.1274103,0.01432635
1.020914,-0.1254427,0.01311024
1.020876,-0.1245237,0.01190282
1.021437,-0.1235963,0.01272384
1.024349,-0.123128,0.01350423
1.028085,-0.1260697,0.01333892
1.028312,-0.1258993,0.0138543
1.029049,-0.1254007,0.01419236
1.029287,-0.1258072,0.01423269
1.026038,-0.1247135,0.01620509
1.023465,-0.12423,0.01683844
1.021397,-0.1214963,0.012818
1.019034,-0.1183552,0.01006412
1.020622,-0.1190153,0.01365296
1.02355,-0.1202049,0.01822836
1.022193,-0.1197139,0.01883127
1.021502,-0.1219861,0.01770259
1.022749,-0.1258698,0.01749749
1.021065,-0.1252137,0.01701873
1.020541,-0.1248515,0.01539511
1.022053,-0.1271978,0.01421437
1.022308,-0.1281141,0.01208638
1.022405,-0.1278432,0.0124247
1.022224,-0.1265561,0.01945761
1.023093,-0.1261765,0.02763616
1.023561,-0.1256232,0.03118593
1.02077,-0.1210672,0.02245677
1.018597,-0.1146668,0.01019461
1.019926,-0.1135886,0.01257353
1.02355,-0.1219865,0.01844158
1.025869,-0.129425,0.01955998
1.025232,-0.1280165,0.01842984
1.024561,-0.1245764,0.01149155
1.024745,-0.1220734,0.00810806
1.023439,-0.1196932,0.01027773
1.021572,-0.1185625,0.01176137
1.023365,-0.1168935,0.01303091
1.026215,-0.1137284,0.01245333
1.026928,-0.1116941,0.01180182
1.0287,-0.1107924,0.009305071
1.031316,-0.1109187,0.003751792
1.032671,-0.1132488,0.003140152
1.031619,-0.1173788,0.01089843
1.029666,-0.1252958,0.01810273
1.028189,-0.1307191,0.01489856
1.023984,-0.1293424,0.0135405
1.019306,-0.1316989,0.02399036
1.01922,-0.1374242,0.03027655
1.023449,-0.1444434,0.0262085
1.026192,-0.1549963,0.02590269
1.023264,-0.1575564,0.03880502
1.0193,-0.1525882,0.05045999
1.017477,-0.1523114,0.0454411
1.018539,-0.1541217,0.04078717
1.02043,-0.1540837,0.04565529
1.019202,-0.153049,0.04662563
1.019628,-0.150191,0.04667548
1.022648,-0.1475981,0.04614443
1.024066,-0.1475036,0.03848839
1.023298,-0.1507071,0.03417113
1.019566,-0.1538285,0.03470683
1.01845,-0.1504985,0.02758921
1.025111,-0.1439478,0.01276964
1.031734,-0.1373234,0.005605792
1.029895,-0.1260034,0.01095686
1.026801,-0.1095398,0.01442207
1.027005,-0.09310086,0.01962564
1.021738,-0.08387546,0.02978911
1.01848,-0.07820693,0.02926261
1.021286,-0.07115072,0.0283536
1.019183,-0.07149992,0.03262644
1.01977,-0.073871,0.0306934
1.023101,-0.07380444,0.03359188
1.021982,-0.08044987,0.03927378
1.023597,-0.08542686,0.03713348
1.026561,-0.08933235,0.03612746
1.030218,-0.09652259,0.03744741
1.033488,-0.09211874,0.04101651
1.031026,-0.08082573,0.04659498
1.027338,-0.07567639,0.04590882
1.023135,-0.07550342,0.04469993
1.021086,-0.0770764,0.04681012
1.024521,-0.07608068,0.04404855
1.025865,-0.07409942,0.03730012
1.024649,-0.0735471,0.03156102
1.02478,-0.07572154,0.03264205
1.024262,-0.08674498,0.03881047
1.023237,-0.09875204,0.03935582
1.023335,-0.09754723,0.03853575
1.022974,-0.09343986,0.03922899
1.021793,-0.09675182,0.03740485
1.022101,-0.09488205,0.03756566
1.022912,-0.08453913,0.03751494
1.023772,-0.07201733,0.03808261
1.025039,-0.06409652,0.04375329
1.022664,-0.06947524,0.05156498
1.019425,-0.07368512,0.05681095
1.020835,-0.07054475,0.05387879
1.021344,-0.07036242,0.05169129
1.019154,-0.06047911,0.05287172
1.018464,-0.04571151,0.049474
1.018046,-0.04202032,0.04940821
1.018708,-0.03921398,0.04986451
1.020095,-0.03514692,0.04760452
1.020032,-0.03604332,0.04914162
1.022975,-0.03882488,0.049635
1.027283,-0.03810599,0.05062751
1.026889,-0.04019251,0.05317898
1.026422,-0.05002243,0.05078047
1.030242,-0.05935164,0.04310174
1.032814,-0.0726901,0.03684479
1.029569,-0.0848243,0.03722193
1.024263,-0.082875,0.03634175
1.020899,-0.08036574,0.03508943
1.017501,-0.08300501,0.03950504
1.014169,-0.08519938,0.04551345
1.014714,-0.09150795,0.05489028
1.016189,-0.09957565,0.05626891
1.014907,-0.1000317,0.04022461
1.016264,-0.09961813,0.0207333
1.022429,-0.1092413,0.00763198
1.028275,-0.1219768,0.006124267
1.028809,-0.135118,0.006526729
1.024244,-0.1516517,0.001861192
1.020837,-0.1715259,0.003266391
1.019282,-0.1966129,0.004403197
1.02073,-0.215223,0.005763425
1.025764,-0.2217048,0.0113941
1.026508,-0.2275779,0.01126275
1.026869,-0.2290961,0.01107146
1.02881,-0.2269611,0.009603342
1.026005,-0.2353805,0.001561278
1.020959,-0.2405679,-0.003372134
1.013871,-0.2327168,0.002854652
1.012149,-0.2197544,0.011864
1.018314,-0.1916812,0.00485531
1.022819,-0.1657133,-0.001923505
1.028862,-0.1602727,0.003219844
1.031168,-0.1494202,0.001176462
1.027386,-0.1337232,0.0004865571
1.027479,-0.1259882,0.003222212
1.025516,-0.1181225,0.003179045
1.023674,-0.1111917,0.007748642
1.025953,-0.1066371,0.006441951
1.024064,-0.1100606,-0.0004181074
1.020534,-0.1182679,-0.002797339
1.016795,-0.1182629,0.002572583
1.016934,-0.1201616,0.01392542
1.024744,-0.1292135,0.01362837
1.027594,-0.1390728,0.001897625
1.024124,-0.1490188,-0.003967534
1.018574,-0.1617564,0.003975066
1.012736,-0.1727974,0.01303785
1.018989,-0.1639799,0.002594448
1.027256,-0.1559123,-0.005692637
1.02148,-0.1641293,0.002980869
1.019076,-0.1588334,0.004293657
1.025075,-0.1486048,0.001621821
1.025526,-0.143494,0.003318747
1.024359,-0.1417858,0.003327919
1.02346,-0.1493116,0.006347169
1.021528,-0.1479666,0.009868794
1.023378,-0.1501943,0.01039208
1.025087,-0.1576232,0.01102967
1.024493,-0.1519176,0.0113492
1.021923,-0.1523387,0.01011234
1.017123,-0.155064,0.00950956
1.015673,-0.1551613,0.01306182
1.016964,-0.1583081,0.01929791
1.016327,-0.1551604,0.02412146
1.013738,-0.1532589,0.02305646
1.012635,-0.1527403,0.02157727
1.016773,-0.1531582,0.02340029
1.021243,-0.1595377,0.01666725
1.019794,-0.1648793,0.009313237
1.018465,-0.1657184,0.0119253
1.02126,-0.1593455,0.009580575
1.022059,-0.1545867,0.002219651
1.021999,-0.1557252,0.001731107
1.022783,-0.1519503,0.003619963
1.021411,-0.1475502,0.001862554
1.020501,-0.1497894,-0.001075503
1.019747,-0.1573485,-0.001830521
1.021433,-0.163136,0.004523273
1.024521,-0.1596475,0.01235827
1.020015,-0.1514943,0.006868055
1.015589,-0.1465285,0.001468951
1.015794,-0.1449845,0.01020656
1.013499,-0.1423289,0.01773238
1.013978,-0.1394142,0.01953892
1.019346,-0.1406476,0.0159506
1.022857,-0.1427816,0.01009996
1.022575,-0.1434521,0.0143414
1.020823,-0.1509247,0.01711564
1.020779,-0.1604774,0.01293584
1.022093,-0.1566809,0.01101269
1.023277,-0.1514352,0.002717414
1.023661,-0.1520021,-0.005605145
1.021776,-0.1456218,0.0002391806
1.020083,-0.1425559,0.005790526
1.0205,-0.1482844,0.002089266
1.019166,-0.1530784,0.0006788385
1.016376,-0.1596898,-0.001245907
1.017306,-0.1635384,-0.007332418
1.022417,-0.1622249,-0.003723145
1.025814,-0.1637147,0.002328995
1.021415,-0.1629434,0.001988694
1.014613,-0.1593835,0.006476962
1.014519,-0.1590341,0.006810536
1.015872,-0.1555816,0.001783984
1.013983,-0.1487856,0.003180176
1.014352,-0.1460609,0.002858591
1.018297,-0.1472679,0.00291444
1.024007,-0.1496501,0.007134423
1.026307,-0.1500221,0.009006321
1.022133,-0.1477142,0.009817737
1.01863,-0.1449867,0.009431121
1.018201,-0.1443023,0.009198871
1.020372,-0.1482447,0.007481139
1.023045,-0.1514008,0.005006141
1.019628,-0.1492383,0.01083594
1.016807,-0.1459284,0.01806421
1.020213,-0.1447732,0.01898595
1.021234,-0.1493619,0.0182223
1.017874,-0.15436,0.01996667
1.016216,-0.1494072,0.02399008
1.019792,-0.1438123,0.02087465
1.024872,-0.1460996,0.008100755
1.025577,-0.1461911,-0.0002090177
1.022038,-0.1431917,0.006486712
1.014328,-0.1437043,0.0142784
1.008641,-0.147148,0.01228414
1.017195,-0.1542154,0.01335398
1.028412,-0.1609395,0.008614263
1.024971,-0.1648814,-0.003026518
1.02032,-0.1686623,0.002661828
1.021406,-0.1666702,0.007653227
1.01924,-0.1605926,0.003321109
1.019173,-0.1579437,0.01221062
1.020034,-0.1563437,0.02108759
1.018742,-0.1518357,0.01802471
1.020299,-0.1498267,0.01010803
1.021159,-0.1591574,0.002754171
1.022954,-0.1675594,0.004802505
1.025685,-0.1635197,0.006911527
1.025385,-0.1602144,0.001736075
1.022696,-0.1588604,0.001046932
1.017268,-0.1504495,0.005589013
1.0165,-0.1398332,0.01299826
1.016131,-0.1330723,0.0232245
1.012577,-0.1293021,0.02845845
1.018177,-0.1267371,0.02828783
1.023258,-0.1311238,0.02847997
1.021893,-0.1411453,0.02548675
1.022155,-0.1416159,0.01511623
1.020231,-0.1367908,0.006530111
1.01921,-0.1377322,0.00857819
1.021335,-0.1374747,0.01402278
1.022377,-0.1369751,0.01857688
1.020826,-0.1372365,0.02724258
1.018596,-0.1352349,0.03090352
1.021355,-0.1366423,0.02207725
1.022992,-0.1386116,0.01733975
1.019945,-0.1402921,0.02359979
1.018927,-0.1413263,0.02676909
1.019368,-0.1387631,0.02447713
1.019715,-0.140109,0.02308452
1.01936,-0.1413347,0.02166614
1.019255,-0.1399,0.02130787
1.020129,-0.1434411,0.02494105
1.020964,-0.1469281,0.02663522
1.022488,-0.1486384,0.02484712
1.020778,-0.1505232,0.02740136
1.018233,-0.1493524,0.0307882
1.019685,-0.1478845,0.03160884
1.019797,-0.1481598,0.03119991
1.018115,-0.1453572,0.02909868
1.015222,-0.1388344,0.03506327
1.011122,-0.136275,0.04188007
1.012735,-0.1395075,0.03653061
1.018151,-0.1413166,0.03083654
1.020385,-0.1407677,0.0279479
1.02086,-0.1436909,0.02537963
1.021577,-0.1482192,0.02458392
1.022552,-0.1481186,0.02405545
1.022001,-0.148167,0.02809045
1.019029,-0.1504725,0.03052832
1.018216,-0.1475685,0.0275798
1.021617,-0.1451594,0.02677279
1.025827,-0.1507227,0.0253258
1.025796,-0.1555361,0.02562126
1.023588,-0.1544353,0.03114133
1.023701,-0.152747,0.03188037
1.021905,-0.1509841,0.02786505
1.021539,-0.1479541,0.02636484
1.024353,-0.1498082,0.02510432
1.024065,-0.1541617,0.02587123
1.024149,-0.1536197,0.02978337
1.022596,-0.153695,0.03046374
1.01839,-0.1537065,0.03076756
1.015092,-0.1500654,0.02789666
1.011274,-0.1504093,0.02067283
1.014085,-0.1547524,0.02190586
1.019192,-0.1586506,0.02207725
1.018504,-0.1608886,0.01719864
1.018804,-0.1634091,0.02045991
1.017992,-0.1664384,0.02383964
1.016409,-0.1626059,0.02787661
1.017826,-0.1591833,0.03381554
1.019857,-0.1612419,0.02956848
1.022259,-0.1565542,0.02149601
1.017454,-0.1485793,0.01457054
1.009877,-0.1457268,0.01141123
1.011625,-0.1470183,0.01417991
1.013675,-0.1480314,0.0124986
1.015369,-0.145621,0.01117968
1.02072,-0.1453855,0.01280128
1.02007,-0.1453779,0.01028263
1.017391,-0.1435197,0.01081347
1.015766,-0.1432587,0.01214149
1.011896,-0.1402109,0.01121956
1.01607,-0.1396562,0.01028453
1.022193,-0.1490784,-0.001591595
1.018184,-0.1581665,-0.01468198
1.01861,-0.156067,-0.01231725
1.030266,-0.1524198,-0.01379618
1.04274,-0.1557068,-0.02470185
1.048583,-0.1528777,-0.02068812
1.046998,-0.1454628,-0.0100736
1.043569,-0.1373961,-0.003920535
1.031703,-0.1171383,0.0151782
1.015624,-0.1071619,0.02679871
1.017411,-0.1344717,0.003658785
1.02038,-0.1699032,-0.0195321
1.012019,-0.1822664,-0.01213598
1.013937,-0.2003837,-0.009102556
1.014129,-0.217198,-0.01794014
1.002733,-0.1727297,0.01073351
0.9982921,-0.1270781,0.04111445
0.9993681,-0.160759,0.03029677
1.001494,-0.2221476,0.03951098
1.003863,-0.2628473,0.06557951
1.005532,-0.2439953,0.05743263
1.007401,-0.1518103,0.04049613
1.006185,-0.0735661,0.03618067
1.013568,-0.06649487,0.03309107
1.033869,-0.1101095,0.02445937
1.046875,-0.1383775,0.01211978
1.027487,-0.1256312,0.01642844
0.9993104,-0.1304533,0.03518749
1.013924,-0.141533,0.04825046
1.029635,-0.1381257,0.06392218
1.021731,-0.1452706,0.06362488
1.031536,-0.1513415,0.04934463
1.030656,-0.1625001,0.05809823
1.021454,-0.1664959,0.05886882
1.0231,-0.1594506,0.05580108
1.012694,-0.1606688,0.06678091
1.013111,-0.148924,0.06029029
1.015119,-0.143342,0.06128268
1.006996,-0.1497803,0.06895614
1.008882,-0.1467055,0.06837356
1.007041,-0.1499827,0.07898046
1.010023,-0.1526586,0.08249576
1.014867,-0.1513477,0.07698168
1.012324,-0.1537004,0.07076179
1.016366,-0.1564834,0.07059888
1.015573,-0.159662,0.07775377
1.01635,-0.1571741,0.07756379
1.020929,-0.1494535,0.08338446
1.018616,-0.132477,0.08612088
1.019795,-0.1147849,0.08509148
1.019967,-0.1162611,0.09155348
1.02098,-0.1254118,0.08250105
1.025896,-0.1357296,0.07522241
1.027217,-0.1486065,0.07769171
1.024932,-0.1452123,0.08171357
1.007255,-0.1239885,0.1062394
0.9774055,-0.09204485,0.1267427
0.9782586,-0.06136899,0.1095467
1.049323,-0.07225076,0.044561
1.11334,-0.09870223,-0.0100035
1.050929,-0.09291611,0.04861495
0.9714142,-0.09501641,0.1188638
0.998288,-0.1072671,0.07025893
1.017518,-0.1196541,0.04242886
1.012152,-0.142877,0.07399117
1.035296,-0.1364972,0.05635453
1.022158,-0.1239482,0.05265556
1.011831,-0.1217372,0.06750975
1.028103,-0.1072288,0.05856341
1.019495,-0.1132735,0.07038266
1.02196,-0.1214003,0.06265896
1.024801,-0.1197191,0.04746386
1.018685,-0.1253791,0.05960566
1.025203,-0.1187242,0.05594798
1.021034,-0.1114071,0.05856311
1.022608,-0.1041832,0.06599532
1.026123,-0.1007839,0.05996497
1.023362,-0.1103184,0.05750535
1.029439,-0.108231,0.05245146
1.027644,-0.1070227,0.05296589
1.026691,-0.108923,0.05300882
1.027158,-0.1031458,0.04794663
1.023054,-0.1031961,0.05009529
1.024639,-0.09751299,0.04965788
1.022299,-0.0890154,0.04853492
1.020534,-0.08865967,0.05226853
1.021237,-0.08771836,0.05548343
1.020063,-0.0864615,0.05288569
1.020306,-0.08474242,0.04511148
1.017634,-0.08612968,0.04052519
1.015134,-0.0907114,0.04321417
1.011392,-0.09411145,0.04818054
1.007018,-0.09571267,0.04685915
1.007403,-0.09278419,0.04971927
1.010253,-0.08990373,0.05613902
1.023017,-0.08662624,0.04780025
1.038912,-0.08507934,0.04315787
1.035878,-0.0867381,0.05685012
1.024869,-0.08511506,0.06954279
1.024424,-0.08869553,0.06956407
1.023745,-0.09470127,0.06331867
1.020072,-0.1022851,0.05671386
1.018925,-0.1190555,0.04307056
1.016635,-0.1235278,0.03243284
1.018443,-0.1165997,0.03451168
