accx,accy,accz
0.976664,-0.1444351,0.3040898
0.9765181,-0.1440013,0.3057096
0.9740209,-0.1405554,0.3047994
0.9732902,-0.1328778,0.3031985
0.9737578,-0.1292283,0.3004021
0.9745347,-0.1331143,0.3009485
0.9757663,-0.1424547,0.302539
0.9766696,-0.1467937,0.3017528
0.9780897,-0.1481332,0.3040967
0.9759666,-0.1506427,0.3043041
0.9693201,-0.1492355,0.3009225
0.9656794,-0.144249,0.2991006
0.9697094,-0.1389587,0.2989389
0.9739184,-0.1391183,0.3021811
0.9694546,-0.1386871,0.3050512
0.9667951,-0.1358374,0.303029
0.9724505,-0.143615,0.3011732
0.9748898,-0.1557489,0.3016308
0.9734283,-0.1597415,0.2996099
0.9740515,-0.1592058,0.2980798
0.9778483,-0.1606202,0.300105
0.9830899,-0.1583506,0.3017749
0.9832494,-0.1482034,0.3040839
0.9776085,-0.1415223,0.3008751
0.9730395,-0.1412155,0.2942919
0.9736992,-0.1434103,0.2979652
0.9743432,-0.1484598,0.3004001
0.971877,-0.1530371,0.2971073
0.9720897,-0.1586202,0.2983322
0.9740297,-0.1670931,0.2998337
0.9788978,-0.1712022,0.2993653
0.984621,-0.1655143,0.2978648
0.9771331,-0.1596651,0.3000718
0.9662782,-0.1595174,0.3049058
0.9677328,-0.1511346,0.3056276
0.9708782,-0.1367492,0.3062457
0.9698437,-0.1348307,0.3044924
0.9667256,-0.1441857,0.3015011
0.9637257,-0.1487778,0.2999207
0.9704063,-0.1405083,0.2988389
0.9785393,-0.1329447,0.3020528
0.9746702,-0.1362723,0.3030411
0.9714826,-0.1393468,0.3076736
0.9733357,-0.138861,0.3148802
0.9724973,-0.1410114,0.3075457
0.9737821,-0.1436815,0.3000321
0.9743686,-0.1447534,0.3007744
0.9726708,-0.1463399,0.2989358
0.9743053,-0.1494032,0.29639
0.9747727,-0.1551836,0.2969193
0.9756527,-0.1601497,0.2989105
0.9773684,-0.1628234,0.2985347
0.9755378,-0.1672325,0.2984626
0.9741934,-0.1646269,0.3000729
0.9720237,-0.1577472,0.303508
0.9714009,-0.1596568,0.3083506
0.9750444,-0.1595066,0.3038262
0.9758993,-0.1587111,0.2950838
0.9771899,-0.1646693,0.2943946
0.9795747,-0.1645517,0.2987895
0.9779147,-0.1623757,0.3031646
0.9765209,-0.1620147,0.3009629
0.976288,-0.1584934,0.2955457
0.9754658,-0.1583073,0.2947704
0.9731157,-0.1549758,0.2973947
0.9695849,-0.1471911,0.3015435
0.9707021,-0.14697,0.3006813
0.9736603,-0.1460762,0.2979121
0.9735231,-0.1404916,0.2983874
0.9737899,-0.1403253,0.2953239
0.9742004,-0.1401461,0.2967256
0.9759748,-0.1360957,0.3016557
0.9789682,-0.1379346,0.2994964
0.9777148,-0.1440298,0.2996941
0.9762064,-0.1501395,0.3001883
0.976677,-0.1569936,0.2965724
0.9766354,-0.1585032,0.2954958
0.9791409,-0.1588966,0.2945284
0.9815364,-0.1621021,0.2917429
0.979898,-0.1600914,0.2885358
0.9763922,-0.1567603,0.2928209
0.9730732,-0.1561212,0.3015146
0.9722491,-0.1565362,0.2996189
0.9733708,-0.1600029,0.2945386
0.9737305,-0.1616531,0.2930776
0.9736445,-0.1583249,0.2947229
0.9736099,-0.1557599,0.2988023
0.9735409,-0.1569179,0.2947609
0.9740434,-0.1575548,0.2891111
0.97574,-0.1564435,0.2897354
0.9786639,-0.1568645,0.2927265
0.9794812,-0.1555771,0.2976847
0.9755015,-0.1504644,0.2964997
0.9704094,-0.1444152,0.2943312
0.9683671,-0.1406939,0.2986818
0.9703037,-0.1432591,0.3008449
0.9748393,-0.1490171,0.3024725
0.9791015,-0.1539656,0.2985521
0.9801031,-0.1577859,0.2882054
0.9775483,-0.1591969,0.2858964
0.9756386,-0.1592512,0.2874114
0.9730726,-0.1574175,0.2909381
0.9696913,-0.156494,0.2962866
0.9725881,-0.1575257,0.292819
0.9761836,-0.1537748,0.2889203
0.9756053,-0.148107,0.2909131
0.9760387,-0.1425521,0.2913204
0.973884,-0.1379016,0.2913711
0.9700469,-0.1392214,0.2912085
0.9712317,-0.1413113,0.2911029
0.9749017,-0.146244,0.2973458
0.9772292,-0.1526232,0.3036302
0.9764299,-0.1497848,0.2995607
0.9739358,-0.1469011,0.2938294
0.9733311,-0.1480847,0.2943681
0.9736018,-0.149038,0.2956894
0.9738047,-0.1533566,0.2995132
0.9745968,-0.1554506,0.3045687
0.975145,-0.1531386,0.3023126
0.9749837,-0.1511854,0.2989674
0.9739582,-0.1484224,0.2972772
0.9734841,-0.1468999,0.291474
0.9751051,-0.1482356,0.2899937
0.9779856,-0.150838,0.2931913
0.9796991,-0.1546328,0.2924467
0.9771652,-0.1551549,0.2936833
0.9731368,-0.1514032,0.2956175
0.9714704,-0.1455184,0.2936084
0.9711593,-0.1397087,0.2930164
0.9743577,-0.1478574,0.2905293
0.9787956,-0.1612649,0.2883292
0.9782265,-0.1570335,0.2936117
0.9768523,-0.1526676,0.2972668
0.9763963,-0.1549014,0.293188
0.9716913,-0.1487008,0.2872783
0.9676823,-0.1459232,0.2857322
0.9699435,-0.1492661,0.2905522
0.9736454,-0.1525045,0.297613
0.9773941,-0.1563358,0.2998734
0.9806569,-0.1543207,0.2964082
0.9790953,-0.1503228,0.2950424
0.9773711,-0.1477738,0.2970988
0.9782558,-0.1458817,0.2975633
0.9775025,-0.1455464,0.2971523
0.9771114,-0.1421718,0.2976532
0.9755191,-0.1409294,0.2999914
0.9723604,-0.1445644,0.3024081
0.9738592,-0.1483248,0.302306
0.9764598,-0.1532213,0.3014931
0.9781245,-0.1560586,0.3001977
0.9801348,-0.1539502,0.2977401
0.9790906,-0.1478738,0.2964421
0.9781486,-0.1395872,0.2960889
0.9763023,-0.1355757,0.2939298
0.9703398,-0.1385532,0.2923983
0.9681716,-0.1416295,0.294222
0.9709416,-0.1434243,0.2966259
0.9722711,-0.1496977,0.2994993
0.9722246,-0.153827,0.3030041
0.9719307,-0.1529518,0.3041164
0.9700385,-0.1560811,0.3037572
0.9670883,-0.1579716,0.3024521
0.9665001,-0.1545643,0.2993952
0.9696859,-0.153133,0.2980669
0.9727545,-0.1522151,0.2984426
0.9725681,-0.1491535,0.2977597
0.9718031,-0.148099,0.297046
0.9727419,-0.1511401,0.2971603
0.9740975,-0.1556189,0.2974506
0.9751732,-0.1597826,0.2944552
0.9744776,-0.1617646,0.2901451
0.9728733,-0.1577761,0.2919329
0.9741896,-0.1517295,0.296419
0.9766896,-0.149602,0.2984782
0.9779824,-0.1498186,0.299051
0.977063,-0.1501891,0.3002057
0.9737607,-0.1500074,0.3035995
0.9726825,-0.1498458,0.3036202
0.9721922,-0.1501661,0.2999366
0.9706339,-0.1502808,0.2979705
0.9735497,-0.151748,0.2950725
0.9775217,-0.1539709,0.2949852
0.9784278,-0.1555532,0.2982636
0.978231,-0.1565232,0.2979616
0.9740057,-0.15158,0.2995345
0.9679922,-0.1408845,0.3008783
0.9690594,-0.1368697,0.2982725
0.9734967,-0.1420097,0.2991886
0.9732519,-0.144819,0.3013799
0.9709822,-0.1438473,0.304006
0.9687594,-0.1461295,0.307131
0.9694459,-0.147518,0.3067716
0.9740562,-0.1424871,0.3012285
0.9756078,-0.1394307,0.2927665
0.9749709,-0.1456003,0.2946037
0.9740057,-0.1538132,0.2985822
0.9733938,-0.1549972,0.2945662
0.975799,-0.1502815,0.2992626
0.9767988,-0.1454021,0.3056355
0.976101,-0.143409,0.3048978
0.9745378,-0.1447722,0.3036796
0.9728651,-0.1467687,0.2999181
0.9737708,-0.1477083,0.2997485
0.9744411,-0.1492704,0.2964927
0.977021,-0.1503686,0.2885146
0.980055,-0.1501073,0.2921565
0.9774753,-0.1496888,0.2971241
0.9740853,-0.1490627,0.2975929
0.973932,-0.1484907,0.2987225
0.973821,-0.1483952,0.2956455
0.9731353,-0.1489741,0.2950287
0.9733455,-0.1495422,0.2967134
0.9710512,-0.1500593,0.2965673
0.9682385,-0.1503357,0.3024965
0.969702,-0.1493297,0.3095323
0.9709413,-0.1482528,0.3092344
0.9721524,-0.1469003,0.306326
0.9754384,-0.1466891,0.3029832
0.9771181,-0.1489419,0.2973505
0.9763642,-0.1523318,0.2944766
0.9748729,-0.1571518,0.2950513
0.9740647,-0.1571991,0.2946955
0.9733371,-0.1537583,0.2988479
0.9737692,-0.1545318,0.3034697
0.9757873,-0.1542552,0.3003775
0.9766651,-0.1546138,0.2966726
0.9766178,-0.156402,0.2927321
0.9758111,-0.154156,0.2902144
0.9745394,-0.1538475,0.2935293
0.9737087,-0.1542995,0.2957494
0.9748882,-0.1531218,0.297676
0.9772999,-0.1533665,0.2996352
0.9754163,-0.151973,0.2983315
0.9730986,-0.1492093,0.2983693
0.9739224,-0.1468377,0.2989729
0.9734355,-0.147617,0.2976681
0.9739144,-0.151533,0.2950758
0.975658,-0.154651,0.2920546
0.9766032,-0.1568297,0.2923293
0.9770288,-0.1569144,0.2930723
0.9767956,-0.1559266,0.2915089
0.9776123,-0.1518277,0.2940332
0.9755011,-0.1470366,0.2973824
0.9721355,-0.1510577,0.2956029
0.9735527,-0.1547466,0.2962021
0.9729455,-0.1518728,0.3008992
0.9695712,-0.1493275,0.3036387
0.9694256,-0.1437747,0.3020722
0.9716175,-0.1380645,0.2984703
0.9746732,-0.14111,0.2977156
0.9758894,-0.1454094,0.296999
0.9756137,-0.144987,0.2970627
0.9765904,-0.1455535,0.3024196
0.9763146,-0.143685,0.3053476
0.9742737,-0.140221,0.30555
0.9731937,-0.1434911,0.3080106
0.9734754,-0.1475024,0.3086039
0.9738624,-0.1490894,0.3082771
0.9742478,-0.1487487,0.3084485
0.9770732,-0.1450959,0.3081122
0.9795358,-0.1439271,0.3085292
0.9743128,-0.1447893,0.308825
0.9664355,-0.1462495,0.3108835
0.966448,-0.1479847,0.3117578
0.9719683,-0.1478156,0.3036877
0.9757965,-0.150598,0.2953473
0.9754248,-0.1537506,0.2980728
0.9733828,-0.1508864,0.3022859
0.9735459,-0.1469417,0.3026296
0.9737994,-0.1468214,0.3060011
0.9729915,-0.1468784,0.3038261
0.9720483,-0.1434409,0.2969744
0.9702121,-0.1415042,0.2990223
0.9705198,-0.1459953,0.3011161
0.9714614,-0.1515011,0.3009638
0.9702361,-0.1505999,0.3023994
0.9699772,-0.1493111,0.2997328
0.9699542,-0.1534547,0.2969709
0.9716879,-0.1546346,0.2945667
0.9748756,-0.1521334,0.2975381
0.9737645,-0.1509141,0.3044454
0.9723165,-0.1510264,0.3020929
0.9715318,-0.151988,0.3045421
0.968835,-0.1509397,0.3122046
0.9712273,-0.1502811,0.3095084
0.9764156,-0.1502408,0.3076481
0.9768575,-0.1493928,0.3082999
0.9760625,-0.1499179,0.3070009
0.9755195,-0.1474806,0.3086911
0.9751733,-0.1455401,0.3088072
0.9777227,-0.147684,0.3069901
0.9799059,-0.1475634,0.3050998
0.9784844,-0.1468242,0.3015414
0.9764247,-0.1473596,0.3019144
0.9748907,-0.1472891,0.3050809
0.9713672,-0.1471303,0.3037982
0.9698669,-0.1472196,0.300754
0.9732748,-0.1476806,0.3006171
0.9743223,-0.1490609,0.3022097
0.973231,-0.1515059,0.3023915
0.9734075,-0.1517315,0.302627
0.9721188,-0.1500666,0.3043274
0.9720742,-0.1498713,0.3040983
0.9742012,-0.1499689,0.3042462
0.9749835,-0.1500458,0.3054142
0.9750009,-0.150041,0.3053767
0.975822,-0.1491694,0.3061378
0.976079,-0.1469059,0.3062542
0.9751137,-0.1450776,0.3070181
0.9750882,-0.1473183,0.3060937
0.9749506,-0.148355,0.2991188
0.9746212,-0.14629,0.2950651
0.974456,-0.1478763,0.3004529
0.9723599,-0.1507825,0.3070348
0.9703093,-0.1529646,0.3039517
0.9690016,-0.1534754,0.299567
0.9705123,-0.1495485,0.3007997
0.9745713,-0.1490757,0.2999989
0.9753885,-0.1510635,0.303821
0.9751009,-0.1494298,0.3093357
0.9747591,-0.150498,0.3081923
0.9738632,-0.1531221,0.3080663
0.9737623,-0.1544456,0.3060016
0.9730002,-0.154335,0.3020966
0.9727828,-0.1512908,0.3008263
0.9712139,-0.1514855,0.3009636
0.9700056,-0.1525751,0.3025071
0.971761,-0.1502072,0.3027627
0.9724721,-0.1487458,0.3045361
0.973957,-0.1442701,0.304619
0.9745583,-0.1388835,0.3013036
0.9746097,-0.1439335,0.3018166
0.9770149,-0.1505412,0.3030228
0.974864,-0.1476734,0.3038663
0.9717419,-0.1473895,0.3012782
0.9713598,-0.1490051,0.2970711
0.969365,-0.1441659,0.3017936
0.9714321,-0.1440932,0.3066452
0.9758437,-0.1477508,0.307253
0.9762375,-0.1499582,0.3087867
0.9772498,-0.150914,0.3073722
0.9761746,-0.1460821,0.305028
0.971918,-0.1451912,0.3033348
0.9733647,-0.1454255,0.3004503
0.9748064,-0.1401855,0.3005452
0.9725825,-0.1437673,0.3064011
0.973925,-0.1482699,0.3118622
0.9739757,-0.1443817,0.3091332
0.9738224,-0.1403318,0.3026497
0.9786731,-0.1291153,0.2987708
0.9816608,-0.1197815,0.2980609
0.9774067,-0.1383581,0.3023987
0.962006,-0.1724737,0.3076053
0.949221,-0.1858429,0.3090205
0.9650362,-0.1694055,0.3070002
0.9979504,-0.1526098,0.298889
1.011307,-0.1586108,0.2899455
0.9946779,-0.1700409,0.2917002
0.9629491,-0.1715463,0.3014282
0.9323489,-0.1558815,0.3091005
0.922262,-0.1213748,0.316281
0.9412081,-0.1037032,0.3198156
0.9692654,-0.1107644,0.3105649
0.9898584,-0.1262861,0.3029637
0.9957634,-0.158508,0.3037264
0.9821465,-0.1761534,0.3023998
0.9674744,-0.1634064,0.3052523
0.9614409,-0.1560376,0.3112358
0.959058,-0.1481102,0.3165429
0.9643469,-0.1271618,0.3231112
0.9704718,-0.1141203,0.3242037
0.9751735,-0.119061,0.3212848
0.9753439,-0.1325577,0.3117169
0.9705749,-0.1428395,0.2998056
0.9730381,-0.1495001,0.3021003
0.9699986,-0.1551426,0.3085188
0.9670077,-0.1554366,0.3086039
0.9723648,-0.1446031,0.3100526
0.9709501,-0.1274765,0.3136253
0.9735881,-0.1212723,0.3154774
0.9724314,-0.1343019,0.312224
0.9654616,-0.1553624,0.3081488
0.9693452,-0.1688015,0.3114063
0.9700992,-0.1690365,0.3145384
0.9710086,-0.1548975,0.3135058
0.9749702,-0.136268,0.3153315
0.975444,-0.1346033,0.3137645
0.9776119,-0.1467118,0.3070082
0.9759985,-0.1528256,0.3015898
0.9746023,-0.1501075,0.2988353
0.9711302,-0.1471009,0.3076381
0.964231,-0.1465377,0.3184889
0.9686458,-0.1433782,0.3139391
0.9742665,-0.1414795,0.3107854
0.9730576,-0.14162,0.3150231
0.9718633,-0.1399564,0.3145556
0.9695277,-0.1451947,0.3178623
0.970026,-0.1512029,0.324115
0.9734829,-0.1492938,0.3245843
0.9744076,-0.1463027,0.321619
0.9752822,-0.1432069,0.3110285
0.976887,-0.1430546,0.3052205
0.9762673,-0.1438278,0.3160889
0.9736992,-0.1422188,0.3210548
0.9705241,-0.1426758,0.3164971
0.9686985,-0.1397175,0.3161839
0.9702358,-0.136583,0.3148574
0.9714802,-0.1413359,0.3126986
0.9696526,-0.1461431,0.3116929
0.9696879,-0.1470264,0.3106879
0.9732848,-0.1469916,0.3133302
0.9758387,-0.1459762,0.3159294
0.9743246,-0.1449022,0.3171137
0.9715104,-0.1451169,0.3182815
0.9712714,-0.143397,0.3163591
0.9709042,-0.1411643,0.314409
0.970141,-0.1419731,0.3152816
0.9704192,-0.1423082,0.315309
0.9690407,-0.1449859,0.3128432
0.9694608,-0.1487764,0.3101784
0.9714943,-0.1472202,0.3095159
0.9705211,-0.1465803,0.3114819
0.969219,-0.1477457,0.3133787
0.9695569,-0.146876,0.3135284
0.972751,-0.1455338,0.3174507
0.9764055,-0.1421262,0.3226923
0.9764318,-0.1397187,0.3197049
0.9744139,-0.1436244,0.314092
0.9719627,-0.1475175,0.3126192
0.9718447,-0.1443621,0.3120536
0.9728361,-0.1405795,0.312893
0.9728334,-0.1401946,0.3146588
0.974327,-0.1404199,0.3153791
0.975583,-0.1439398,0.3155315
0.9765488,-0.1489816,0.3140657
0.976014,-0.150978,0.3133343
0.9708567,-0.1498717,0.3132995
0.9655561,-0.1475023,0.3120168
0.9641402,-0.1437134,0.3131874
0.9661627,-0.1301499,0.3165383
0.9683683,-0.1155916,0.3197294
0.969644,-0.1203371,0.3203522
0.9706708,-0.13286,0.3184733
0.9715324,-0.1417348,0.3183412
0.9744085,-0.1529012,0.3162168
0.9739222,-0.154959,0.3131565
0.9696837,-0.1500152,0.3147368
0.9692909,-0.1464064,0.3179353
0.9691176,-0.1326804,0.3217273
0.9681069,-0.122981,0.3211447
0.9664532,-0.1177823,0.315382
0.9642416,-0.1070701,0.3145197
0.9668497,-0.1173162,0.3166689
0.9698276,-0.1335182,0.3171994
0.9731964,-0.1352216,0.3185167
0.9775368,-0.1364633,0.3198176
0.976528,-0.1334304,0.3192185
0.9758374,-0.1353126,0.3164009
0.9768488,-0.1392545,0.314508
0.975456,-0.1394926,0.3153836
0.9717703,-0.1469298,0.3175393
0.9637398,-0.1433162,0.3221882
0.9567697,-0.1337962,0.3246781
0.9577295,-0.1287874,0.3148701
0.9656937,-0.1226685,0.3008717
0.9737774,-0.1306487,0.3000997
0.9740525,-0.1409703,0.3060179
0.9733664,-0.1432124,0.3119465
0.977724,-0.1439492,0.3210284
0.9771965,-0.1322414,0.3198196
0.9734686,-0.1158388,0.3155299
0.9691131,-0.1116349,0.3218869
0.9577555,-0.1230395,0.3205075
0.9562343,-0.1432131,0.3143924
0.9727731,-0.1573843,0.3133127
0.9873968,-0.1580355,0.3091159
0.991186,-0.1523864,0.308882
0.9847689,-0.149744,0.3114508
0.9709304,-0.1333907,0.3126784
0.9577666,-0.1091785,0.3165214
0.9601937,-0.1156477,0.3158628
0.9766738,-0.1361328,0.3138065
0.9812242,-0.1406302,0.3141731
0.976996,-0.1321321,0.3119296
0.9747665,-0.1195426,0.3126189
0.9686404,-0.1211559,0.3169126
0.9633556,-0.1239271,0.3187174
0.9604762,-0.119651,0.3181977
0.9636379,-0.1342795,0.3162091
0.9681219,-0.150118,0.3137191
0.9707781,-0.1505604,0.3119215
0.9766131,-0.1455435,0.3127193
0.9738784,-0.1348239,0.3167519
0.9719857,-0.1316342,0.3189286
0.9711065,-0.1347089,0.3171004
0.9637684,-0.1348833,0.312405
0.9688477,-0.13543,0.3080838
0.9725116,-0.1347979,0.309145
0.9692117,-0.1370024,0.3098591
0.9709002,-0.1372045,0.3092315
0.9691998,-0.1358265,0.3174914
0.9708753,-0.137027,0.3269735
0.9732318,-0.135717,0.3238101
0.9698492,-0.1390627,0.3170701
0.9689782,-0.1408951,0.3169297
0.9691419,-0.1351761,0.3173443
0.9690356,-0.1283717,0.3189706
0.9684164,-0.1204687,0.3234717
0.9686506,-0.1192048,0.3239936
0.9704851,-0.1265761,0.3230928
0.9742872,-0.1387225,0.3222201
0.9783394,-0.1493575,0.3203144
0.9701507,-0.1522249,0.3202388
0.9600648,-0.1505583,0.3198448
0.9626306,-0.1376903,0.322947
0.9620155,-0.120083,0.3285793
0.9584521,-0.1157808,0.3280873
0.9638601,-0.1166276,0.3261375
0.9684924,-0.1167191,0.3255349
0.9698682,-0.1216672,0.324174
0.9750024,-0.1274079,0.3232968
0.9773191,-0.137622,0.3218289
0.9723223,-0.153198,0.3214585
0.9679943,-0.1548918,0.3209797
0.9666098,-0.1426116,0.3190067
0.9621809,-0.1317652,0.321456
0.9579775,-0.1237326,0.3261344
0.9606921,-0.1153604,0.3269734
0.9640331,-0.1064996,0.3254171
0.9657902,-0.1073523,0.3217882
0.9702886,-0.1180903,0.3181307
0.972027,-0.1303476,0.3190015
0.973538,-0.1401466,0.3203483
0.977757,-0.1377653,0.3190026
0.974279,-0.1356894,0.3198123
0.968206,-0.136919,0.3231237
0.9691809,-0.1276399,0.3267241
0.9756684,-0.1240524,0.3286622
0.9851405,-0.1348655,0.3235402
0.9866522,-0.1582299,0.3120459
0.98018,-0.1848442,0.3029799
0.9713393,-0.1868768,0.3055847
0.9538955,-0.1545736,0.3164191
0.9447607,-0.1101908,0.32307
0.952745,-0.09214412,0.3278425
0.9568957,-0.09752592,0.3343549
0.9641911,-0.09925926,0.3382218
0.978061,-0.1029663,0.337783
0.9776639,-0.1093728,0.3302136
0.9738885,-0.124488,0.3175826
0.9762393,-0.1555293,0.3085945
0.9707815,-0.1702357,0.3155425
0.964259,-0.1531384,0.3263534
0.9600331,-0.1264692,0.32071
0.9513538,-0.1056786,0.3206998
0.9512515,-0.09647126,0.3273447
0.963956,-0.1015891,0.3249589
0.9793413,-0.1102807,0.3270086
0.9863341,-0.1258384,0.3250607
0.9760087,-0.1543458,0.3210895
0.9652048,-0.1581214,0.3237395
0.9664027,-0.1382857,0.321134
0.9670463,-0.1289594,0.3221746
0.9665208,-0.1173405,0.3236445
0.9680564,-0.1157237,0.3225937
0.9689488,-0.1249836,0.3265954
0.9697835,-0.1222931,0.3249321
0.9684956,-0.1306961,0.3241128
0.9685528,-0.1371097,0.3252081
0.9737,-0.1352911,0.3197328
0.9779652,-0.1494182,0.3169845
0.9768061,-0.1531201,0.3173409
0.9741555,-0.1475653,0.3166694
0.974347,-0.1479804,0.3136665
0.9735792,-0.1409919,0.3119165
0.9724031,-0.1354658,0.3139825
0.9713246,-0.1346072,0.3157249
0.9665113,-0.1330668,0.3199844
0.9655893,-0.1329507,0.3207152
0.968518,-0.1343649,0.3177996
0.9710379,-0.1383205,0.3189365
0.9767432,-0.1420132,0.3148874
0.9774166,-0.1422335,0.3076711
0.9728517,-0.1378291,0.3051504
0.9706191,-0.1347194,0.3081668
0.9677759,-0.1354465,0.3140544
0.9677151,-0.1383172,0.31433
0.9705856,-0.1453126,0.3173408
0.9712006,-0.1496749,0.3217002
0.9716977,-0.1528604,0.3161338
0.9709564,-0.1553498,0.3123701
0.9678666,-0.1495848,0.3099892
0.9661645,-0.1422813,0.3070923
0.9682001,-0.1369546,0.3128286
0.9706303,-0.1360112,0.3199601
0.9693013,-0.1378981,0.3228172
0.9689078,-0.1359105,0.3185133
0.9702469,-0.1383472,0.3115647
0.9701826,-0.142552,0.3110909
0.9719586,-0.1428928,0.3082009
0.9728951,-0.1468633,0.3064554
0.9717727,-0.1493036,0.309866
0.9719989,-0.1470985,0.3063148
0.9705251,-0.1459413,0.3019735
0.9687114,-0.144754,0.2996017
0.9694161,-0.144189,0.2978472
0.9697376,-0.1455115,0.3047051
0.9698136,-0.1459655,0.3117504
0.9724349,-0.1449276,0.312911
0.9763666,-0.1447818,0.309863
0.9771428,-0.1483227,0.3045815
0.975799,-0.1531167,0.3045738
0.9751325,-0.1535788,0.3053318
0.9729549,-0.1521653,0.30551
0.9705068,-0.1528928,0.3081043
0.971327,-0.1531757,0.3083535
0.974652,-0.1533832,0.3080144
0.9773661,-0.1546126,0.3056726
0.9764489,-0.1542675,0.3038585
0.9738442,-0.1538452,0.3088431
0.9733988,-0.1544143,0.3116521
0.9739611,-0.1539285,0.3060206
0.9753521,-0.152822,0.2997198
0.976388,-0.1506914,0.2998799
0.9726783,-0.1481573,0.300225
0.9684818,-0.1476573,0.3014721
0.9690583,-0.1480868,0.3080387
0.9702298,-0.1488371,0.308115
0.9700869,-0.1501874,0.3087292
0.970964,-0.1517907,0.3121258
0.9710655,-0.15344,0.3034003
0.9695108,-0.1528013,0.2989547
0.9696512,-0.1513322,0.2997729
0.9714997,-0.1509685,0.2939596
0.9735323,-0.1487538,0.2974302
0.9742633,-0.1472544,0.302778
0.9731854,-0.1489629,0.3005755
0.9734241,-0.1499785,0.3015706
0.9724979,-0.1495444,0.3005092
0.9688879,-0.1483307,0.2982355
0.9680925,-0.1470456,0.2998
0.9714868,-0.1486851,0.3027348
0.9747073,-0.1512353,0.3069095
0.9721511,-0.15072,0.3051494
0.9701194,-0.1503629,0.3015978
0.9758549,-0.1512794,0.3033176
0.9792929,-0.1515061,0.3028183
0.9760541,-0.1534291,0.302691
0.9720208,-0.15479,0.3051141
0.9703168,-0.1540071,0.3055334
0.9724889,-0.1541593,0.3046206
0.9745848,-0.1541697,0.3018509
0.9736058,-0.1543376,0.300648
0.9731392,-0.1553076,0.3017425
0.9739805,-0.1565811,0.3013179
0.97377,-0.1574837,0.3011619
0.9742481,-0.1567395,0.3005905
0.9755866,-0.1563024,0.2992495
0.974929,-0.1543337,0.2982345
0.9747587,-0.1508335,0.2969612
0.9753004,-0.1509243,0.2980197
0.9747954,-0.152258,0.3003628
0.9748821,-0.1529872,0.3016278
0.974168,-0.1544367,0.3041692
0.9732111,-0.1533225,0.3063719
0.9736375,-0.1501764,0.3047901
0.973726,-0.1497305,0.3033124
0.9735397,-0.1512433,0.3035799
0.9741335,-0.152522,0.2995228
0.976341,-0.152826,0.2935402
0.978747,-0.1508622,0.292204
0.9789709,-0.1493375,0.2908549
0.9785154,-0.1498218,0.2893774
0.9773782,-0.1493434,0.2965789
0.9740033,-0.1485649,0.3043514
0.9726167,-0.1506021,0.2996597
0.974116,-0.1540509,0.2943752
0.9736605,-0.1542123,0.2966023
0.97327,-0.1512167,0.296818
0.9739695,-0.1493717,0.2965729
0.9734052,-0.1509942,0.2962067
0.9736186,-0.1540278,0.2934502
0.9737551,-0.1545292,0.2956066
0.9737651,-0.1540313,0.2986554
0.9755684,-0.1537005,0.2983316
0.9763194,-0.1506689,0.2979101
0.9738996,-0.1457111,0.2958145
0.9716215,-0.1433651,0.2953516
0.9750189,-0.146521,0.2961229
0.979802,-0.149166,0.2946405
0.9789125,-0.1478713,0.2951593
0.9759602,-0.1486944,0.2992467
0.9733465,-0.1506123,0.3041898
0.9719916,-0.1505565,0.3028712
0.9726998,-0.1516375,0.2962319
0.9729206,-0.1546357,0.2949814
0.973801,-0.1566313,0.2972542
0.9743742,-0.1569403,0.2984234
0.9748674,-0.157262,0.2989592
0.9772111,-0.1567963,0.2980691
0.9766801,-0.1569284,0.2968356
0.9753048,-0.1582217,0.2953956
0.9755059,-0.158113,0.2954565
0.9747281,-0.1574418,0.2967619
0.9764939,-0.1557498,0.2973181
0.977383,-0.1549634,0.2990856
0.9758272,-0.1558086,0.2984125
0.978417,-0.1545116,0.2943016
0.9793782,-0.1538048,0.2927111
0.9750149,-0.1542891,0.2944954
0.9716764,-0.1535834,0.296128
0.9717803,-0.1521062,0.292454
0.9737306,-0.1514015,0.2894588
0.9738001,-0.1532841,0.2958669
0.9733357,-0.1536271,0.300937
0.9739149,-0.1534251,0.2983357
0.9733872,-0.1553283,0.2966491
0.9740129,-0.1549655,0.2967156
0.9759039,-0.1562197,0.2957917
0.9784566,-0.1581158,0.2981994
0.9801807,-0.1559283,0.3032793
0.978114,-0.1549439,0.3023387
0.9760695,-0.1530495,0.2964183
0.9758293,-0.1507951,0.2934609
0.9762438,-0.1518332,0.2928174
0.9753706,-0.1515632,0.2916294
0.9738763,-0.1529838,0.2908718
0.9763373,-0.155162,0.2904195
0.9784985,-0.1539182,0.2890221
0.9793713,-0.1543671,0.2867786
0.9799057,-0.1561855,0.2854034
0.978091,-0.1573151,0.287434
0.9786081,-0.1572699,0.2930532
0.9779045,-0.1564546,0.2991433
0.9763092,-0.1568369,0.3010113
0.9760771,-0.1552355,0.3018549
0.9725207,-0.1533453,0.3070242
0.973964,-0.154597,0.3068421
0.9763889,-0.1562052,0.3039344
0.9729845,-0.1569289,0.3085982
0.9725986,-0.1550559,0.3098173
0.9722236,-0.1513039,0.307011
0.972111,-0.1498733,0.3026351
0.9745992,-0.1500228,0.2959457
0.9749672,-0.1492067,0.2983968
0.9744024,-0.1463028,0.3006957
0.9731132,-0.1424873,0.2954649
0.973743,-0.1428013,0.2919885
0.9761691,-0.1469087,0.2890517
0.9771392,-0.1502975,0.2909045
0.9775475,-0.1543269,0.2968413
0.9759722,-0.1574428,0.2989513
0.975924,-0.1560983,0.2976806
0.9771321,-0.1537165,0.2946355
0.9758948,-0.1519384,0.2964521
0.9762581,-0.149734,0.2981775
0.9756256,-0.147772,0.293353
0.9733989,-0.1471968,0.2915297
0.9735718,-0.149115,0.2915527
0.9735901,-0.1516115,0.291962
0.9736176,-0.1518229,0.2943578
0.9738803,-0.1517284,0.2936329
0.9748644,-0.1552179,0.2922614
0.9781332,-0.1590983,0.292579
0.9805238,-0.1582477,0.2952406
0.9819476,-0.1545707,0.3011936
0.9823121,-0.1508411,0.3067946
0.9765267,-0.1486644,0.3042082
0.968659,-0.1482659,0.2966048
0.9698823,-0.1471334,0.2984155
0.9736648,-0.1467906,0.300374
0.9711128,-0.1487819,0.2988057
0.9702829,-0.1497779,0.3027295
0.9702494,-0.1500096,0.3005089
0.9713415,-0.1503181,0.2978283
0.9771768,-0.1498635,0.3005951
0.9770859,-0.1513155,0.3004575
0.9750401,-0.1532938,0.3020032
0.975385,-0.1525309,0.3015773
0.9726852,-0.1502161,0.3006549
0.9730059,-0.14912,0.3022026
0.9725786,-0.1504431,0.3010449
0.9699804,-0.1498411,0.3027172
0.9727183,-0.1476661,0.3051436
0.9746049,-0.1471777,0.3057102
0.9737404,-0.146809,0.3060276
0.9751818,-0.1474965,0.3049721
0.9769777,-0.1470149,0.3052789
0.9756867,-0.1449804,0.3030437
0.9741613,-0.1447178,0.2997796
0.9752861,-0.1457963,0.2997292
0.9755451,-0.148086,0.2984281
0.9760629,-0.1472021,0.2980913
0.9766572,-0.1445559,0.2991129
0.9734801,-0.1440668,0.2981012
0.9717551,-0.1413693,0.2966878
0.9726245,-0.1404661,0.2955044
0.9723878,-0.144747,0.295312
0.9739107,-0.1486588,0.2953476
0.9758132,-0.1487971,0.2946008
0.9758587,-0.1507395,0.2982562
0.9791486,-0.1579818,0.3070658
0.9834031,-0.1586803,0.3119442
0.9813262,-0.1570262,0.30937
0.9773839,-0.1597929,0.3059536
0.9749561,-0.1524452,0.3053862
0.9710784,-0.143204,0.3055597
0.9710518,-0.1435044,0.3070057
0.9729535,-0.1427322,0.3097822
0.970963,-0.1419652,0.310308
0.9734868,-0.1454955,0.3094538
0.9777555,-0.1486099,0.3083708
0.9765104,-0.1515694,0.3040107
0.9729337,-0.1543878,0.2994789
0.9679989,-0.149374,0.3010134
0.9701781,-0.1420071,0.3029271
0.9745624,-0.1436867,0.3020324
0.9703218,-0.1430923,0.3069982
0.9704428,-0.1383316,0.3118534
0.9740375,-0.1408789,0.3102741
0.9750855,-0.1440367,0.3102108
0.9770181,-0.1452739,0.3103974
0.9734039,-0.1464554,0.3095841
0.9698856,-0.143642,0.3096427
0.9710509,-0.1425994,0.3096273
0.970786,-0.1452078,0.3100083
0.9715919,-0.1461332,0.3094586
0.9744046,-0.1445752,0.3097656
0.9773751,-0.1407967,0.3097637
0.9766682,-0.137672,0.3084583
0.9729969,-0.1372112,0.3084001
0.9709657,-0.1385572,0.3080672
0.9685415,-0.1407233,0.3079339
0.969328,-0.1423664,0.3059787
0.9720723,-0.1445838,0.3038946
0.9711485,-0.1459281,0.3065718
0.970867,-0.1454772,0.3098558
0.97091,-0.1451737,0.3123516
0.9717209,-0.1440963,0.3114484
0.9736417,-0.1441941,0.3048464
0.9728644,-0.1449183,0.301404
0.9727181,-0.1437469,0.3046923
0.9731193,-0.1425403,0.3077273
0.9727552,-0.1404024,0.3069763
0.9730549,-0.1398775,0.3060228
0.9726285,-0.1427776,0.3046471
0.9722495,-0.1442225,0.302142
0.9723694,-0.1439886,0.3048897
0.9736714,-0.1436927,0.3098045
0.9743425,-0.1443636,0.3090126
0.973017,-0.1444898,0.3077137
0.9736694,-0.1413319,0.3100537
0.9739713,-0.1399944,0.3105683
0.9731552,-0.1435117,0.3084111
0.9738968,-0.1481524,0.3073233
0.9732358,-0.1497005,0.3059164
0.9716348,-0.1478213,0.3059385
0.9705489,-0.146655,0.3086899
0.9700619,-0.1448021,0.3081721
0.9695313,-0.1408035,0.306207
0.967904,-0.1377426,0.3057458
0.9702975,-0.1363975,0.3068032
0.9738355,-0.1363678,0.3094599
0.9716865,-0.1366934,0.308753
0.9696274,-0.1411592,0.3093797
0.968682,-0.1484907,0.3124142
0.9683104,-0.1493921,0.3102258
0.9738555,-0.1458425,0.3063523
0.9791804,-0.14251,0.3014476
0.9775216,-0.1409761,0.2981379
0.9732314,-0.1426755,0.3010206
0.9707291,-0.1437521,0.3033799
0.9712407,-0.1438366,0.3056726
0.9728094,-0.1445806,0.3092766
0.9724045,-0.1444954,0.3094557
0.9717467,-0.1433643,0.307217
0.9727023,-0.1427451,0.3041097
0.9731552,-0.1435016,0.3023548
0.9736027,-0.1448617,0.3015423
0.9738526,-0.1456179,0.3012246
0.9719829,-0.1425349,0.3054727
0.9702294,-0.1386931,0.3082846
0.9695612,-0.1401348,0.3073636
0.9717647,-0.1414971,0.3105393
0.9750169,-0.1410661,0.3144577
0.9737878,-0.1422631,0.3131003
0.9737903,-0.1422229,0.3088783
0.9754132,-0.1434635,0.3080255
0.9721468,-0.1457942,0.3113297
0.9698783,-0.143836,0.3118662
0.9719908,-0.1430487,0.3056305
0.9737587,-0.14364,0.2982959
0.974084,-0.142498,0.3003528
0.9752761,-0.1442731,0.3064756
0.976672,-0.1446048,0.3067576
0.9747665,-0.1421715,0.3044379
0.9726369,-0.1414952,0.3030646
0.9736726,-0.1417977,0.3064645
0.9740135,-0.1447221,0.3083371
0.9732533,-0.1470454,0.3059426
0.9737024,-0.1475244,0.3090808
0.9737479,-0.1490503,0.3123901
0.9726881,-0.1487989,0.3136284
0.9699998,-0.1472576,0.311424
0.9660616,-0.1433823,0.3058731
0.9655096,-0.1386327,0.3086909
0.9657453,-0.1399903,0.3104382
0.9637483,-0.1438022,0.3086014
0.967903,-0.145743,0.3106662
0.9762471,-0.1475993,0.309414
0.9793758,-0.1454824,0.308669
0.9791048,-0.1402794,0.3073708
0.9773199,-0.1397155,0.304739
0.9756405,-0.1411247,0.3076617
0.9760834,-0.1430994,0.307956
0.9745109,-0.1472812,0.3073347
0.9708713,-0.1475528,0.3095169
0.9692526,-0.1450358,0.3077751
0.9701312,-0.144872,0.3064377
0.9730528,-0.1490733,0.3053229
0.9753325,-0.154977,0.303418
0.9717353,-0.1549744,0.3056035
0.9665797,-0.153304,0.3056293
0.9683071,-0.1545273,0.305077
0.9720259,-0.1537244,0.3069274
0.9740872,-0.1508497,0.3047514
0.9762545,-0.1472711,0.3051859
0.9753783,-0.14431,0.3066803
0.9743136,-0.1430045,0.3048296
0.9738902,-0.1410026,0.307442
0.9731103,-0.1401589,0.3077416
0.9759218,-0.1432153,0.3058845
0.9762033,-0.1463531,0.3074483
0.9715044,-0.1460634,0.3062589
0.9683291,-0.144491,0.3073546
0.9693006,-0.145009,0.312765
0.9731716,-0.148083,0.3174592
0.9738943,-0.1510303,0.3178137
0.9722072,-0.1505055,0.3095347
0.9703904,-0.149294,0.3031062
0.9691409,-0.1521796,0.307003
0.9733028,-0.1563767,0.3099574
0.976037,-0.1592288,0.3059254
0.9725636,-0.1589741,0.3044091
0.9686499,-0.1563425,0.3063116
0.9671775,-0.1561426,0.3053503
0.9688335,-0.152846,0.3053572
0.9711008,-0.1479981,0.3061206
0.9736259,-0.1500275,0.3060721
0.9739303,-0.1508338,0.3074459
0.9702543,-0.1498104,0.307026
0.9694927,-0.152957,0.306764
0.973143,-0.1554184,0.3081817
0.9771881,-0.1560698,0.3068141
0.976408,-0.1568507,0.300415
0.9716455,-0.1563278,0.2939863
0.9695244,-0.154092,0.2983996
0.9699506,-0.1536673,0.3045263
0.9723874,-0.1550068,0.3006982
0.9738354,-0.1565988,0.300302
0.9732064,-0.1619305,0.3030291
0.9740289,-0.1653321,0.3030267
0.9733257,-0.1615769,0.3110834
0.9724451,-0.1583447,0.3177405
0.9720687,-0.1589818,0.310632
0.9704437,-0.1601012,0.3020065
0.9717855,-0.1596547,0.3002058
0.9735068,-0.1585854,0.3020846
0.9730574,-0.1582032,0.3044212
0.9721536,-0.1585797,0.3058929
0.970368,-0.1602561,0.3050556
0.9689224,-0.1616285,0.3033503
0.9691061,-0.1603536,0.3042649
0.9699954,-0.1561664,0.3050831
0.9692399,-0.1520315,0.3064008
0.9695396,-0.1520684,0.3090367
0.9719165,-0.1540592,0.3068868
0.9732293,-0.1556416,0.3041948
0.9742358,-0.1594136,0.3056946
0.9733115,-0.1619191,0.3048767
0.972149,-0.1610761,0.3024738
0.9716327,-0.1630405,0.3025175
0.9698541,-0.1655125,0.3012826
0.9701255,-0.1642437,0.2981511
0.9700495,-0.1618171,0.2977763
0.971827,-0.1576256,0.3002119
0.9768743,-0.1544438,0.3011711
0.976611,-0.1561444,0.3022827
0.974055,-0.1579378,0.3039544
0.973352,-0.1567558,0.3000932
0.9734838,-0.1565036,0.2942574
0.9749209,-0.1574856,0.2911226
0.9749231,-0.1566969,0.2920912
0.9740799,-0.1571602,0.2969765
0.9734298,-0.1592927,0.2971435
0.9731487,-0.1605955,0.2988946
0.9729244,-0.1609057,0.3040951
0.9706941,-0.1584775,0.3010024
0.9694687,-0.1554369,0.2978895
0.969893,-0.1519905,0.2996891
0.9716733,-0.1507771,0.3067709
0.9765554,-0.1566032,0.3137682
0.9785334,-0.1590422,0.30694
0.9749426,-0.1536319,0.2976661
0.9718629,-0.1500814,0.2948714
0.9709251,-0.152799,0.2968527
0.9692387,-0.1556818,0.3005232
0.968621,-0.1527949,0.29846
0.9703274,-0.1522844,0.3002925
0.9706627,-0.1553954,0.3050979
0.9723811,-0.1554387,0.3040234
0.9748839,-0.1549432,0.3057495
0.9732646,-0.1537418,0.3118181
0.973244,-0.1538418,0.3139128
0.9742183,-0.1548506,0.3091065
0.9731324,-0.1530735,0.3070478
0.9737949,-0.1516487,0.3100612
0.9733563,-0.1497737,0.308549
0.9713735,-0.1510149,0.3033681
0.9698708,-0.1543811,0.2988205
0.9701798,-0.1520874,0.3021403
0.9741551,-0.1504354,0.3091268
0.9760067,-0.1502288,0.3070821
0.974054,-0.1492571,0.3062233
0.9712636,-0.1505468,0.309363
0.9688585,-0.1501624,0.30836
0.9708047,-0.1504838,0.3080254
0.9733361,-0.1528978,0.3088665
0.9711912,-0.1547169,0.310091
0.9700082,-0.1575256,0.3113151
0.9712944,-0.1557119,0.3087343
0.9708317,-0.1517973,0.3046619
0.9705667,-0.1532187,0.3049444
0.9711349,-0.1520291,0.3088098
0.970478,-0.1473229,0.308482
0.9699418,-0.1454764,0.3071992
0.9698405,-0.1447171,0.3092436
0.9720138,-0.146585,0.3082578
0.9760319,-0.1506761,0.3077474
0.9772244,-0.1523984,0.3090641
0.9771857,-0.1540147,0.3075368
0.9756348,-0.1534739,0.3065387
0.9718472,-0.1509866,0.3048239
0.9702669,-0.1565879,0.3022108
0.967755,-0.1624255,0.3013137
0.9651419,-0.1593682,0.3007788
0.967518,-0.1577674,0.3017841
0.9689186,-0.1551005,0.3014079
0.9691827,-0.1484487,0.2999038
0.9704277,-0.1493644,0.3010086
0.9697964,-0.1532383,0.3032372
0.9708485,-0.1526232,0.306498
0.970593,-0.1524319,0.3054269
0.9688728,-0.1505235,0.3034511
0.9724906,-0.1454944,0.309331
0.9743398,-0.1443253,0.3123825
0.9715978,-0.1488557,0.3091013
0.9708774,-0.1528232,0.3071234
0.9742394,-0.1499561,0.3069959
0.978001,-0.1468348,0.3082787
0.9761312,-0.1492607,0.310227
0.9736917,-0.1488125,0.3122552
0.9738572,-0.1469242,0.3120621
0.9731273,-0.147606,0.3097516
0.973828,-0.1468676,0.3078161
0.9732809,-0.1472733,0.3075968
0.9704835,-0.1475074,0.3092048
0.9690354,-0.1467806,0.3084765
0.9694818,-0.1490134,0.309608
0.9726591,-0.1542373,0.3124815
0.9743835,-0.159502,0.3105079
0.9738795,-0.1548263,0.3097769
0.9753069,-0.1469864,0.3087401
0.9769075,-0.1494949,0.3049328
0.9763643,-0.1504649,0.3018758
0.974123,-0.14881,0.299771
0.9731907,-0.1510256,0.3050908
0.9736751,-0.1497607,0.3107441
0.9734099,-0.1493088,0.3062509
0.9728294,-0.1499301,0.3000993
0.9720077,-0.1483985,0.2970135
0.9733734,-0.1524655,0.2972262
0.9760218,-0.1565956,0.299585
0.9767089,-0.1547754,0.2985506
0.9761994,-0.1507981,0.2970149
0.9743234,-0.1474773,0.298278
0.9731409,-0.1491204,0.3007037
0.9735759,-0.1513434,0.3046961
0.9735522,-0.1504841,0.3052316
0.9727518,-0.151415,0.3028404
0.9717966,-0.1519434,0.3038935
0.9729544,-0.1514259,0.3042474
0.9760119,-0.1541879,0.3063134
0.9771948,-0.1555224,0.3097505
0.9712183,-0.1501849,0.3062639
0.9636144,-0.1451879,0.3043342
0.9670483,-0.1474012,0.3056589
0.9730871,-0.1513013,0.3027509
0.9735585,-0.1523547,0.3004661
0.9739635,-0.1529042,0.3017489
0.9715396,-0.1507616,0.3045712
0.9698127,-0.147117,0.3061635
0.9718248,-0.1469743,0.3056728
0.9723865,-0.1472748,0.3056926
0.9740635,-0.1470071,0.3073262
0.9741482,-0.1465,0.3090761
0.9727816,-0.1452984,0.3085556
0.9741594,-0.1461111,0.3086288
0.9730087,-0.1467248,0.3094852
0.9706173,-0.1463393,0.308004
0.9690863,-0.1458956,0.3088578
0.9685645,-0.1457381,0.3132851
0.9697014,-0.1481391,0.316389
0.9693227,-0.1504095,0.3154333
0.9712856,-0.1518136,0.3119061
0.9736561,-0.1526541,0.308727
0.9731253,-0.1518015,0.306459
0.9741766,-0.1515006,0.3090506
0.9731912,-0.149442,0.3122817
0.9713355,-0.1456281,0.3072644
0.9711596,-0.1444531,0.3036924
0.9711965,-0.1444223,0.3062352
0.9737054,-0.1448516,0.3067587
0.9730199,-0.1474461,0.3073272
0.9703844,-0.1500977,0.3092386
0.971364,-0.1494633,0.3081315
0.9724663,-0.1470303,0.304825
0.9741765,-0.1466869,0.3045823
0.9740174,-0.1464905,0.3065977
0.9730327,-0.1445126,0.3047912
0.9748668,-0.1443941,0.3023525
0.9742762,-0.1464674,0.3018626
0.9726502,-0.1475426,0.303248
0.9708472,-0.1463203,0.3070299
0.9676961,-0.1443096,0.3059254
0.9680954,-0.1442264,0.3043084
0.9711427,-0.1450119,0.306599
0.9729704,-0.146088,0.3052476
0.9729441,-0.1480142,0.3060583
0.9744081,-0.1485168,0.3111025
0.977326,-0.1498221,0.3146465
0.9756602,-0.1533716,0.3139837
0.9728147,-0.1548693,0.3067542
0.9728741,-0.1533096,0.3044173
0.9720543,-0.1492511,0.3098661
0.9720381,-0.1450758,0.3118535
0.9735857,-0.1453136,0.3095427
0.9734593,-0.1478246,0.3071277
0.9724065,-0.1491006,0.3084018
0.9702152,-0.1503571,0.3090485
0.9686131,-0.1500667,0.307159
0.9698196,-0.1476554,0.306098
0.9710808,-0.1468937,0.2998922
0.973497,-0.1472009,0.2930342
0.9762952,-0.1472424,0.2936195
0.9755935,-0.1469968,0.2996922
0.9743096,-0.1452412,0.3068213
0.973609,-0.1448955,0.3064414
0.9731098,-0.1491167,0.3033203
0.9743007,-0.155296,0.3041828
0.9754807,-0.1582998,0.3020382
0.9765887,-0.1602453,0.2987425
0.9767542,-0.1640967,0.2980823
0.9751338,-0.1636381,0.2978011
0.9753615,-0.1585614,0.2981343
0.9750881,-0.1514123,0.2994999
0.9729232,-0.1467317,0.3033262
0.9733976,-0.1522888,0.3068338
0.9740614,-0.1566885,0.3044934
0.9733425,-0.1544532,0.2976404
0.9743477,-0.1569087,0.2942012
0.9772904,-0.1606563,0.3018226
0.9792611,-0.1599591,0.3103034
0.97499,-0.1542875,0.3052225
0.9691496,-0.1474547,0.2996255
0.9709358,-0.1492002,0.3022663
0.9748094,-0.1518957,0.301424
0.9763095,-0.1490481,0.3006437
0.9788389,-0.15183,0.3023283
0.9787344,-0.1579468,0.300767
0.9742828,-0.1597888,0.301444
0.9699547,-0.1559821,0.3018289
0.968994,-0.1467186,0.3007382
0.9703265,-0.1443991,0.301571
0.9703862,-0.1494629,0.2997449
0.9722201,-0.1506648,0.2989912
0.972786,-0.1499756,0.2992507
0.9679344,-0.1489123,0.2985101
0.9680499,-0.1490845,0.3019096
0.9732303,-0.1500269,0.3035978
0.9760305,-0.1498768,0.3017878
0.9754336,-0.1520884,0.3020867
0.9732974,-0.1529155,0.3015217
0.9746273,-0.153086,0.3006996
0.9755234,-0.1537266,0.3017548
0.974398,-0.1505291,0.3002849
0.9744339,-0.1491034,0.2984286
0.9731661,-0.1494569,0.2998276
0.9732793,-0.1452378,0.3037374
0.9731747,-0.1401048,0.3083267
0.9715046,-0.1412309,0.3059493
0.9725423,-0.1455441,0.3016814
0.9733154,-0.1463513,0.3033006
0.9737846,-0.1490174,0.3022188
0.9750021,-0.1529165,0.3018864
0.9758486,-0.1501914,0.3040656
0.9767156,-0.1470811,0.3019099
0.9754695,-0.147649,0.3017198
0.9744414,-0.1489783,0.3025329
0.9752126,-0.1516996,0.3041106
0.9752113,-0.1529091,0.3086592
0.9757847,-0.1521278,0.3067635
0.9762134,-0.1511243,0.3030291
0.9737743,-0.1481262,0.3029523
0.9712063,-0.1459711,0.3023449
0.9718259,-0.1448346,0.3039827
0.9723514,-0.1426427,0.3046963
0.9719231,-0.1415503,0.3033165
0.9740237,-0.1385512,0.3027227
0.9736469,-0.1348737,0.301615
0.9691558,-0.1371749,0.3055277
0.9675063,-0.1446551,0.3102115
0.9691013,-0.1530677,0.3072819
0.9718152,-0.155817,0.304512
0.9731106,-0.1520997,0.3042671
0.9727626,-0.1485058,0.3031126
0.9739244,-0.1465441,0.3040276
0.973678,-0.1467846,0.3049234
0.9722936,-0.1478686,0.303632
0.9724462,-0.1464386,0.3041491
0.9736137,-0.1443449,0.3045866
0.9775909,-0.1426192,0.3036882
0.9800777,-0.1424471,0.3044237
0.9766649,-0.1428459,0.3029767
0.9717788,-0.1384268,0.2976211
0.9701974,-0.1354661,0.2943134
0.9730071,-0.1414657,0.300599
0.9765127,-0.1467582,0.3092422
0.9775712,-0.1446082,0.3056546
0.9769912,-0.1432386,0.3024638
0.975961,-0.1454572,0.306301
0.9751501,-0.1453638,0.3067506
0.9738741,-0.1454797,0.3113523
0.9722808,-0.146637,0.3147267
0.9719538,-0.1452691,0.3110026
0.9725357,-0.1458281,0.3117633
0.9731092,-0.1463094,0.3103717
0.9738252,-0.14486,0.3042728
0.9737925,-0.1444771,0.2993293
0.973165,-0.1429703,0.2967685
0.9728478,-0.1452658,0.2995718
0.9721791,-0.1488805,0.3001652
0.9730306,-0.1467712,0.3002654
0.975141,-0.1458226,0.3041248
0.9746618,-0.1463164,0.3047448
0.9721623,-0.146316,0.3050048
0.9704667,-0.148074,0.3037238
0.9722369,-0.149151,0.3034245
0.9748185,-0.1494368,0.3082982
0.9731574,-0.1469354,0.3086782
0.9712495,-0.1428761,0.3089434
0.9712593,-0.1439211,0.3132781
0.97212,-0.1446442,0.3156731
0.9739482,-0.1425529,0.3135849
0.97125,-0.1458644,0.3062113
0.9678048,-0.1497867,0.3032505
0.9702802,-0.1494091,0.3045402
0.9726319,-0.1500835,0.3039914
0.9738075,-0.1501251,0.3054206
0.9742895,-0.148579,0.3056707
0.9736659,-0.1478247,0.3047654
0.9776779,-0.1478874,0.3018796
0.9825672,-0.1503277,0.2970553
0.9841956,-0.1543565,0.2982532
0.9878154,-0.1601786,0.3004657
0.9906028,-0.165552,0.2998394
0.9854249,-0.165402,0.2996322
0.9794709,-0.1666875,0.2947258
0.9826634,-0.1766077,0.2777049
0.9851299,-0.1926558,0.2587191
0.9624824,-0.1218669,0.3375041
0.9630069,-0.1163359,0.3428018
0.9646575,-0.1119554,0.3467137
0.9647724,-0.1095653,0.347184
0.9653276,-0.1078441,0.3469371
0.9657212,-0.1104072,0.3435852
0.9661357,-0.116275,0.3389125
0.9678488,-0.1221699,0.3358844
0.9678445,-0.1179875,0.3332534
0.9642482,-0.107325,0.3388323
0.961534,-0.107589,0.346351
0.9631525,-0.1092955,0.342994
0.9642902,-0.1073927,0.341495
0.9609743,-0.109781,0.3446556
0.9589265,-0.1119617,0.3439989
0.9618299,-0.1165446,0.3470225
0.9641285,-0.1175422,0.3502805
0.9627691,-0.1113972,0.3481003
0.9602642,-0.1078572,0.34797
0.9591274,-0.1031246,0.3473269
0.9597666,-0.1000126,0.3454548
0.9599533,-0.1006314,0.3491459
0.9595237,-0.09715393,0.3548601
0.9597704,-0.09360104,0.35609
0.9597898,-0.09691065,0.3527318
0.9596269,-0.1033398,0.3501928
0.9597782,-0.1034424,0.3505303
0.9597251,-0.1018092,0.3474541
0.9596802,-0.102526,0.3426426
0.959769,-0.1007541,0.3452336
0.9596981,-0.1000417,0.3519554
0.9597149,-0.09565415,0.3552679
0.9597524,-0.08917618,0.3543632
0.9604005,-0.09363644,0.3502445
0.9633197,-0.1046229,0.3474668
0.9663642,-0.1123997,0.3470029
0.9655142,-0.1109575,0.3465039
0.9630386,-0.1064199,0.3457474
0.9613257,-0.1078515,0.3430258
0.9593308,-0.1058318,0.3437148
0.9612872,-0.1013653,0.3482297
0.9657545,-0.101566,0.3490825
0.9652068,-0.1006023,0.348529
0.9624086,-0.09964416,0.3475522
0.9587245,-0.09857639,0.3468276
0.9553727,-0.09908223,0.347675
0.9575898,-0.1067032,0.3473917
0.9603113,-0.112179,0.3468184
0.9615884,-0.1133193,0.3459527
0.9635429,-0.116551,0.3451096
0.9635129,-0.1193055,0.3404886
0.9623561,-0.1180011,0.3355869
0.9603754,-0.1139832,0.3422129
0.9596895,-0.1092004,0.3470147
0.9602842,-0.1040422,0.342562
0.9591507,-0.1073623,0.3440912
0.9596457,-0.1139195,0.351692
0.9592171,-0.1121301,0.3576589
0.9574782,-0.1131616,0.3571984
0.9591976,-0.1117057,0.3563285
0.9618379,-0.1059038,0.3603728
0.9665583,-0.1101238,0.3540411
0.9691132,-0.1136343,0.3424544
0.9640327,-0.113657,0.3413939
0.9609702,-0.1145482,0.3426172
0.9626798,-0.1123079,0.3441174
0.9627944,-0.1121685,0.3479658
0.9612365,-0.1115289,0.3496333
0.9608305,-0.1086823,0.3456112
0.961633,-0.1083906,0.3393321
0.9628193,-0.1099074,0.3429796
0.9644474,-0.1123225,0.3469317
0.9639813,-0.1130505,0.3436027
0.9624633,-0.113609,0.3476602
0.9625661,-0.113772,0.3529483
0.9620221,-0.1110808,0.3516722
0.9601742,-0.1097576,0.3463512
0.956659,-0.1081466,0.3379982
0.9550149,-0.1077117,0.3380023
0.9593831,-0.1112583,0.3429811
0.9625946,-0.1121231,0.3432674
0.9608748,-0.1107544,0.3434295
0.9600046,-0.1064335,0.3441495
0.9612989,-0.10034,0.3460047
0.9611418,-0.101042,0.3464505
0.9593341,-0.1034063,0.3435514
0.9594496,-0.1046985,0.3440767
0.961258,-0.108156,0.3459014
0.9625423,-0.1089469,0.3470018
0.9640987,-0.1080764,0.3489987
0.9642028,-0.1083253,0.3481789
0.9617535,-0.1078485,0.3484764
0.9610653,-0.1051354,0.3493495
0.961734,-0.1005944,0.3448466
0.9615894,-0.09946344,0.3422128
0.9628162,-0.103688,0.3419447
0.9629038,-0.1088172,0.3410982
0.9618988,-0.111333,0.344415
0.9628547,-0.1123441,0.3472732
0.962356,-0.1142649,0.3487287
0.9612938,-0.1140246,0.3501973
0.9613907,-0.1105479,0.3503759
0.9618293,-0.1095547,0.35369
0.9639092,-0.1124324,0.3515787
0.9643161,-0.1145113,0.3405961
0.963688,-0.1120274,0.3351518
0.9650036,-0.1082439,0.3420003
0.9653089,-0.1088654,0.3510473
0.9638926,-0.1110373,0.3460719
0.9608697,-0.1133457,0.3392587
0.9592744,-0.1171996,0.3421269
0.9624538,-0.1169027,0.3430164
0.9645286,-0.1126745,0.3461252
0.9612519,-0.1092673,0.344648
0.9581478,-0.1073733,0.3378392
0.9590972,-0.1083015,0.3418851
0.9595911,-0.1092524,0.3426509
0.9601537,-0.1099889,0.3407555
0.9647437,-0.1135701,0.3443665
0.9678713,-0.1148445,0.3440035
0.9667383,-0.1133678,0.3455475
0.9652079,-0.1135635,0.3470724
0.9651492,-0.1119687,0.3445184
0.9651148,-0.1078122,0.3403881
0.963291,-0.1041581,0.3357173
0.9622301,-0.1022146,0.3372098
0.9632524,-0.1051751,0.3388601
0.9641892,-0.1112197,0.3391141
0.9631369,-0.1137192,0.3436772
0.9621412,-0.1123604,0.3454533
0.9645158,-0.1110937,0.3421765
0.9656501,-0.1114904,0.3371145
0.9633488,-0.1128789,0.3335405
0.9618546,-0.1143518,0.3361149
0.9623346,-0.114246,0.3427445
0.9635079,-0.1133717,0.3445725
0.9649023,-0.1137313,0.3378817
0.967398,-0.1122863,0.3305747
0.967325,-0.1102,0.3311638
0.965681,-0.1117295,0.3355097
0.9671731,-0.1144842,0.3365169
0.9668224,-0.1175376,0.3383533
0.9661059,-0.1190955,0.340352
0.9672463,-0.1176413,0.3388212
0.9663517,-0.1169665,0.3371993
0.9666318,-0.1140207,0.3348925
0.9669614,-0.109409,0.3344882
0.966291,-0.1103225,0.3350548
0.9669522,-0.1104718,0.3347148
0.966569,-0.1072512,0.3377443
0.9665736,-0.1091634,0.3386278
0.9668791,-0.1118043,0.3363876
0.9662599,-0.110749,0.3328856
0.9655717,-0.1111958,0.3291005
0.9631817,-0.1113109,0.3305759
0.961773,-0.1107512,0.3321264
0.9628115,-0.1112612,0.3319476
0.9637448,-0.1098896,0.3337525
0.9648995,-0.108488,0.3373988
0.9656748,-0.1087099,0.3419318
0.9650776,-0.1108599,0.3418966
0.9641973,-0.1128868,0.3384262
0.963778,-0.1087081,0.3368018
0.9632255,-0.1023547,0.3374954
0.9607787,-0.09814183,0.338859
0.9567985,-0.09346089,0.3389051
0.9571389,-0.09192174,0.3392869
0.9625718,-0.09501809,0.3407207
0.9655702,-0.09992526,0.3418857
0.9669063,-0.10545,0.3411534
0.9682705,-0.1081141,0.3394954
0.966928,-0.1104408,0.3400026
0.966812,-0.1123005,0.3388834
0.9657522,-0.107648,0.336314
0.9619256,-0.105217,0.3364705
0.9625248,-0.106243,0.3355609
0.9657289,-0.1041147,0.3349947
0.9670666,-0.1055956,0.3375568
0.9657278,-0.1062435,0.3380373
0.9630415,-0.1037306,0.3369127
0.9638835,-0.1047639,0.3367317
0.966123,-0.1058361,0.3357391
0.9663689,-0.1070053,0.3349609
0.9665822,-0.10572,0.3347771
0.9668762,-0.1027938,0.3350025
0.966616,-0.1044542,0.3375463
0.9665445,-0.1047669,0.3401357
0.9668218,-0.1048391,0.340262
0.9664302,-0.1080057,0.3392644
0.9653419,-0.1086957,0.3380389
0.9637287,-0.1071683,0.3384736
0.9636713,-0.1056507,0.3403391
0.9667686,-0.1056115,0.3418384
0.9673353,-0.1075029,0.3434595
0.9650975,-0.1088418,0.3413455
0.9653482,-0.1078165,0.3366837
0.9666458,-0.1043755,0.3360648
0.9685893,-0.10257,0.336775
0.9702426,-0.107291,0.3377168
0.9693459,-0.1162462,0.3372054
0.9691523,-0.120205,0.3327803
0.9697528,-0.1170257,0.3322496
0.9689468,-0.113805,0.3352274
0.9676269,-0.1122471,0.3358207
0.9664187,-0.1127499,0.336017
0.9674077,-0.1146507,0.3377906
0.9696989,-0.1128063,0.3372949
0.9694449,-0.1107553,0.3312439
0.9681417,-0.1122267,0.3280743
0.9670738,-0.1154109,0.3308648
0.9658298,-0.1192243,0.3328778
0.9648064,-0.1175495,0.3318451
0.9626326,-0.1122122,0.3293413
0.9617549,-0.1082424,0.3291675
0.9629855,-0.1026442,0.3288792
0.9630034,-0.1033491,0.3285965
0.9652691,-0.1095711,0.3310854
0.9695975,-0.1096345,0.3340623
0.9706396,-0.1102815,0.3369333
0.9717394,-0.1121183,0.3360683
0.9742601,-0.1098448,0.3362608
0.9730161,-0.1076018,0.3405049
0.9695938,-0.1054356,0.3408557
0.966845,-0.1090377,0.3358626
0.962699,-0.1169377,0.3285989
0.9610109,-0.1161683,0.3300632
0.9617299,-0.1080595,0.3366153
0.9572502,-0.09855494,0.3379862
0.9543694,-0.09349343,0.3420588
0.9595208,-0.09388986,0.3439348
0.9653685,-0.09444711,0.3400878
0.9689792,-0.1034242,0.3314159
0.9721621,-0.1196658,0.3215901
0.9755309,-0.1258449,0.3292405
0.974422,-0.123133,0.3390437
0.970338,-0.1206823,0.3359751
0.9723447,-0.1141346,0.3369927
0.9727372,-0.1020754,0.3385247
0.9669398,-0.09589031,0.3382628
0.9606854,-0.09481031,0.3385593
0.9545841,-0.0904138,0.3311118
0.9564448,-0.09188277,0.3266855
0.9607905,-0.09950216,0.3338637
0.9603048,-0.1018967,0.3403352
0.9676879,-0.09915071,0.3376678
0.9761867,-0.09479301,0.3348442
0.975552,-0.09891293,0.3358808
0.972718,-0.1179855,0.3289697
0.9687182,-0.1414404,0.3202297
0.9652464,-0.1517934,0.3221481
0.9638198,-0.1436556,0.3321883
0.9614147,-0.1251551,0.3442483
0.9589411,-0.09486436,0.3489921
0.9619624,-0.07730767,0.3497739
0.9695152,-0.09445754,0.34597
0.9747227,-0.1133978,0.3346747
0.9769596,-0.1309951,0.3350065
0.9722767,-0.1439859,0.3386558
0.9667989,-0.1336397,0.3343052
0.9699704,-0.1268923,0.3377948
0.9702297,-0.1156346,0.3410262
0.967712,-0.1028641,0.3421353
0.9661654,-0.1099748,0.3460876
0.9608502,-0.1084052,0.3413704
0.9601307,-0.1139692,0.3350035
0.9629443,-0.1276643,0.3297868
0.9628449,-0.1241143,0.3254435
0.9645562,-0.1245016,0.3289399
0.9677366,-0.1196609,0.3310814
0.968335,-0.108107,0.3326843
0.9657846,-0.1022351,0.3374411
0.9627268,-0.09776013,0.3392024
0.961807,-0.1055255,0.3387033
0.9617149,-0.1159216,0.3366336
0.9620576,-0.1230722,0.3368733
0.9663878,-0.1245437,0.3355785
0.9724009,-0.1187195,0.3277849
0.9727823,-0.1215239,0.3239473
0.9721038,-0.121509,0.3244396
0.9736945,-0.1186431,0.3238775
0.9692773,-0.1182015,0.3248315
0.9640045,-0.1097668,0.3311449
0.9641837,-0.1050339,0.3376644
0.9624267,-0.1016847,0.3347564
0.9614787,-0.09633879,0.3334864
0.9633857,-0.09471638,0.3379936
0.9623077,-0.09088662,0.3371287
0.9621184,-0.09164551,0.3355773
0.9630512,-0.09536479,0.3363495
0.9621285,-0.09580248,0.3428928
0.9625523,-0.09688653,0.3522195
0.9627069,-0.09710372,0.3493013
0.9623768,-0.101012,0.3461048
0.963806,-0.1092583,0.3495428
0.9651568,-0.1154132,0.3474547
0.9666483,-0.113204,0.3470605
0.9680817,-0.1045945,0.3483226
0.9690503,-0.1039165,0.3461352
0.9695056,-0.1057297,0.3463034
0.9675803,-0.1067011,0.3405434
0.9663206,-0.1126327,0.3294022
0.9684515,-0.1119985,0.3246594
0.9702591,-0.1115807,0.3234764
0.9691398,-0.1150802,0.3258358
0.967202,-0.1106415,0.3293496
0.9666509,-0.1070317,0.3275067
0.9673107,-0.105734,0.3262054
0.9685246,-0.1033211,0.3256838
0.9682501,-0.1042165,0.3206981
0.9675669,-0.1057606,0.3171881
0.9680604,-0.107503,0.3213627
0.9662297,-0.108334,0.3274676
0.9644937,-0.1054411,0.3304339
0.9648689,-0.1010762,0.3359094
0.9627545,-0.09969914,0.339893
0.9606983,-0.1003533,0.3363543
0.9636753,-0.09897139,0.3357727
0.9678094,-0.09543706,0.3385421
0.9678576,-0.08800436,0.3385337
0.9674467,-0.08245733,0.337977
0.9674433,-0.08316712,0.3366364
0.9642642,-0.08340425,0.3386819
0.9631292,-0.08825887,0.3446601
0.9630417,-0.09614212,0.3518477
0.9575096,-0.09603302,0.3575795
0.9526245,-0.1013693,0.3563111
0.9559575,-0.1172981,0.3570059
0.9624379,-0.1248812,0.3558469
0.9637427,-0.1266749,0.3483664
0.9647746,-0.1341883,0.3503303
0.967584,-0.1410251,0.3478944
0.9658525,-0.1396622,0.3362436
0.9648529,-0.127267,0.3336175
0.967548,-0.1129058,0.3319511
0.9693477,-0.1062481,0.3292697
0.9685898,-0.100453,0.3304127
0.9648048,-0.09373296,0.3339749
0.9602128,-0.09078016,0.3395369
0.9585329,-0.09101088,0.3381753
0.9650359,-0.09196584,0.3363909
0.9722604,-0.09284976,0.3412945
0.9679337,-0.09444879,0.3418441
0.9643661,-0.09568748,0.337979
0.9677878,-0.09758995,0.3336198
0.9668679,-0.1002348,0.3321254
0.9656444,-0.1032291,0.335647
0.9663701,-0.1081216,0.3354081
0.9639718,-0.1121121,0.3336491
0.9647754,-0.1105768,0.3349935
0.9687646,-0.1041076,0.3332964
0.96933,-0.1004657,0.3331333
0.9655391,-0.09994733,0.3387422
0.9596954,-0.1002393,0.3455309
0.9587971,-0.1021084,0.3498766
0.9615328,-0.09943521,0.3461375
0.9620916,-0.09745382,0.3395447
0.9648626,-0.1007089,0.3398119
0.9733878,-0.1055068,0.3408681
0.9815653,-0.1129534,0.3403624
0.976091,-0.1163295,0.3431816
0.9610264,-0.1192933,0.3451054
0.9540116,-0.1258366,0.3436642
0.9535195,-0.1285703,0.3431477
0.9563103,-0.1311178,0.3467918
0.9603732,-0.1267797,0.3511796
0.9605888,-0.1137759,0.3512221
0.9624095,-0.1054816,0.3495952
0.9645153,-0.09879468,0.3431501
0.9691663,-0.09187186,0.329777
0.977216,-0.08797812,0.3249611
0.974815,-0.08596575,0.3315762
0.9672573,-0.08505511,0.3344541
0.962464,-0.08542676,0.3326451
0.9594901,-0.09288912,0.3315791
0.9632257,-0.1051902,0.3274412
0.9688996,-0.113302,0.3230613
0.9746028,-0.113816,0.323972
0.9794989,-0.1122608,0.3244204
0.9769806,-0.1148118,0.3242792
0.9730478,-0.115453,0.3289458
0.9689701,-0.1168749,0.3353254
0.9617506,-0.1212603,0.3426273
0.9583938,-0.1202798,0.348259
0.9597116,-0.1155086,0.3461357
0.962148,-0.1058026,0.3445899
0.9628341,-0.09691582,0.3477445
0.9612967,-0.09960483,0.3477604
0.9610127,-0.107557,0.3481794
0.9604382,-0.1127836,0.3492698
0.9584918,-0.1093474,0.3465561
0.9570246,-0.1016729,0.3466395
0.9598483,-0.1007676,0.3484094
0.9648787,-0.1037545,0.3480218
0.9644911,-0.1097808,0.3480153
0.9659575,-0.1184294,0.346431
0.9700236,-0.1231767,0.3464258
0.968136,-0.1242674,0.346921
0.964132,-0.1181959,0.3394554
0.9597659,-0.1080208,0.3326653
0.9604723,-0.1088505,0.3343384
0.9657253,-0.1142053,0.3374657
0.9661259,-0.1137977,0.3432067
0.9678189,-0.1121114,0.3500969
0.9716447,-0.1041689,0.3434907
0.9740635,-0.0951581,0.3300211
0.9743354,-0.09921419,0.3300908
0.9681096,-0.1068532,0.3376034
0.9607217,-0.1090481,0.3425944
0.9553971,-0.108987,0.346351
0.9579155,-0.1073528,0.3502491
0.9663986,-0.1055696,0.3565891
0.9663368,-0.1009574,0.3516567
0.9662005,-0.09556304,0.3398486
0.9664716,-0.09666654,0.342107
0.9614402,-0.0960457,0.3428615
0.9599306,-0.09161747,0.3402529
0.9575499,-0.09267417,0.3447631
0.9574248,-0.0939303,0.3455179
0.9588083,-0.09289086,0.3488071
0.955603,-0.09558768,0.3539806
0.9571425,-0.100711,0.3513109
0.9579322,-0.1053379,0.3469875
0.9581779,-0.1091367,0.3434832
0.96297,-0.1162548,0.3424451
0.9640008,-0.1255816,0.3425912
0.9649376,-0.1262144,0.3428991
0.9667207,-0.120573,0.3446237
0.9666578,-0.1176279,0.3437935
0.9667117,-0.1125475,0.3417703
0.9655141,-0.1052693,0.3396843
0.9651131,-0.1018936,0.3395817
0.9649132,-0.1004153,0.3417732
0.9631022,-0.09956084,0.3428648
0.9603255,-0.09847459,0.3468343
0.958928,-0.09907279,0.3486902
0.9611437,-0.1070664,0.3455068
0.9624846,-0.1209328,0.3438398
0.9624573,-0.1303909,0.3407924
0.9634645,-0.1256737,0.3386823
0.9658197,-0.1193661,0.3359466
0.969236,-0.121558,0.3292498
0.9680506,-0.1192748,0.3294595
0.9643285,-0.1157443,0.3308638
0.9636926,-0.1154992,0.3293725
0.963969,-0.1146336,0.3329414
0.9661907,-0.1181636,0.3315702
0.969199,-0.1204867,0.3281
0.9698024,-0.120606,0.330994
0.968673,-0.1201884,0.3317103
0.9646996,-0.1156392,0.3333869
0.9612358,-0.1150415,0.3368594
0.9621256,-0.1172823,0.3376826
0.9636033,-0.1190923,0.3377328
0.9645522,-0.1218884,0.3351729
0.9682283,-0.1220673,0.3341583
0.9705833,-0.1209569,0.3359295
0.9672772,-0.1189287,0.3389323
0.9656545,-0.1184587,0.3430901
0.9669687,-0.1185163,0.341195
0.9657193,-0.118427,0.338684
0.9648846,-0.1220924,0.3399042
0.9651427,-0.1218291,0.337426
0.9644564,-0.1191767,0.3349104
0.9636294,-0.116768,0.3346838
0.9638335,-0.1122649,0.3344163
0.9649657,-0.1135167,0.335514
0.9644758,-0.1149476,0.3374053
0.9634603,-0.113132,0.3394987
0.9629377,-0.1140819,0.3392736
0.9622676,-0.1137177,0.3372369
0.9624864,-0.1116448,0.3375161
0.9629171,-0.1098602,0.3383573
0.9651525,-0.1090025,0.3414976
0.9703067,-0.10911,0.3480183
0.9732174,-0.1081035,0.3487312
0.9693854,-0.1082113,0.3415309
0.9641762,-0.109423,0.3353557
0.962903,-0.108587,0.3367339
0.9602212,-0.106116,0.3396643
0.9568257,-0.1038244,0.3370579
0.9578872,-0.1027539,0.3366324
0.9626003,-0.1020819,0.3390949
0.9687482,-0.102003,0.3392886
0.969177,-0.1039425,0.3405785
0.9653572,-0.1048261,0.3391822
0.9637793,-0.1037816,0.3378533
0.9601446,-0.1048956,0.3417235
0.9587409,-0.1079502,0.3423026
0.9629095,-0.1105586,0.3422822
0.965594,-0.1097881,0.3444945
0.9673281,-0.1059862,0.3437428
0.9667356,-0.1043673,0.3435447
0.9640655,-0.1049317,0.3437379
0.963696,-0.1066553,0.3423783
0.962774,-0.1077058,0.3402524
0.9622583,-0.1055778,0.3387899
0.9626784,-0.1024881,0.3430183
0.9626411,-0.09932096,0.3495609
0.9644904,-0.1010017,0.3505217
0.9657448,-0.1059298,0.3460579
0.9653898,-0.1058381,0.3426642
0.9652761,-0.1066629,0.3427213
0.9661192,-0.1069274,0.3413195
0.9671853,-0.1033813,0.3399337
0.9665321,-0.1050299,0.3426002
0.9663519,-0.109429,0.3461717
0.965833,-0.1136767,0.3457769
0.9638932,-0.1147457,0.3407564
0.9636421,-0.1092592,0.3374898
0.9639654,-0.1072677,0.3391555
0.9637452,-0.1086057,0.3412726
0.9628017,-0.1086694,0.3418733
0.9612736,-0.1099027,0.3414494
0.9608421,-0.1094593,0.3397419
0.9612925,-0.1072416,0.3390398
0.9626795,-0.1061325,0.3423641
0.9653532,-0.1071727,0.345855
0.9675682,-0.1073685,0.3443201
0.9669018,-0.1057614,0.3425247
0.9660026,-0.1046875,0.3445332
0.9671029,-0.102328,0.3447192
0.9666766,-0.1038622,0.3413928
0.9663403,-0.107064,0.3395971
0.9666953,-0.1041701,0.339139
0.9646437,-0.1038337,0.3386289
0.9637093,-0.1070997,0.3408226
0.9659907,-0.1098119,0.3420776
0.9691756,-0.1120906,0.3384736
0.9694772,-0.1096294,0.3356649
0.9655109,-0.1062061,0.3358316
0.9622358,-0.1044903,0.3361426
0.9609923,-0.1015942,0.3353084
0.9598708,-0.09921524,0.3341899
0.9609201,-0.09853995,0.335353
0.9634665,-0.1001887,0.3381387
0.962647,-0.1047301,0.3421014
0.9607491,-0.10999,0.3437031
0.9614348,-0.1095268,0.3383733
0.9609944,-0.1065468,0.3324789
0.9610437,-0.1094389,0.3318786
0.9624805,-0.1106595,0.3371471
0.9623445,-0.1104709,0.3443329
0.9627677,-0.1118068,0.34564
0.9624495,-0.1076676,0.3435421
0.9622369,-0.1056113,0.3425875
0.9634614,-0.1056878,0.3413807
0.9648274,-0.1027261,0.3409398
0.9677746,-0.1015784,0.3397466
0.9680379,-0.1007031,0.335569
0.9673781,-0.1055934,0.3345765
0.9686283,-0.1123837,0.3404376
0.9661557,-0.1090229,0.3440666
0.962411,-0.1057453,0.338818
0.9595249,-0.1047944,0.33376
0.9591219,-0.1004676,0.3372236
0.9623529,-0.1020344,0.3426431
0.9628631,-0.106124,0.344497
0.9619564,-0.1028032,0.3426921
0.9612656,-0.101671,0.3386278
0.9608863,-0.1038511,0.3398702
0.9641102,-0.1025807,0.3422409
0.9658253,-0.1045175,0.3417806
0.9657741,-0.1063932,0.3455403
0.9670514,-0.1042745,0.3447981
0.9658367,-0.1039377,0.3401961
0.964633,-0.1041039,0.3416288
0.9655063,-0.1043093,0.3451347
0.964819,-0.1041783,0.3494072
0.9622538,-0.1037715,0.3453497
0.9595151,-0.1035852,0.3383917
0.9592804,-0.1024386,0.3434646
0.9614533,-0.1039855,0.345356
0.9633034,-0.1067435,0.3432702
0.965173,-0.1086701,0.345367
0.9655105,-0.1115098,0.3441274
0.9629376,-0.1119943,0.3447105
0.9612482,-0.1074131,0.3471742
0.9615759,-0.1021265,0.3461725
0.9619041,-0.1034116,0.3442867
0.9609513,-0.1042733,0.3434704
0.9596983,-0.09935044,0.3453371
0.9603719,-0.1001917,0.3454781
0.9623181,-0.1034717,0.3460616
0.9645771,-0.1020189,0.3499626
0.9646804,-0.1026526,0.3500853
0.9638884,-0.1042777,0.3475657
0.9659504,-0.1041204,0.343118
0.9656285,-0.1042276,0.3377458
0.9642898,-0.1030943,0.3371325
0.9650469,-0.09875857,0.3406182
0.9634124,-0.09495617,0.3451015
0.9642526,-0.09911067,0.3463551
0.9681461,-0.1058551,0.3455131
0.9698054,-0.10633,0.3444518
0.9688198,-0.1062691,0.3435997
0.9653061,-0.1056792,0.3451358
0.9643481,-0.1012138,0.3442385
0.963987,-0.1006293,0.3430035
0.9619516,-0.1020745,0.3435059
0.9642647,-0.1011848,0.3424433
0.9662565,-0.1023667,0.3433536
0.9650767,-0.1035475,0.3432447
0.9652673,-0.1051232,0.3425322
0.9663301,-0.1097366,0.3434346
0.9669572,-0.1119789,0.3418289
0.9666495,-0.1094211,0.3413957
0.9663759,-0.107134,0.3411215
0.9655361,-0.1085424,0.3379067
0.9625995,-0.1082929,0.336148
0.9592145,-0.1046709,0.3399482
0.9574937,-0.1022809,0.3453196
0.9588465,-0.102499,0.3434617
0.9614359,-0.105734,0.3425168
0.9629798,-0.1065118,0.3459432
0.9621805,-0.1046494,0.3443596
0.9584334,-0.1059038,0.3447158
0.9572224,-0.105582,0.3482173
0.9630194,-0.1041699,0.3515857
0.9688601,-0.1040131,0.3574115
0.966003,-0.1020162,0.3557525
0.961576,-0.101035,0.3483542
0.9628622,-0.1012921,0.343777
0.9627894,-0.1018304,0.3399468
0.9628493,-0.103676,0.340777
0.9650111,-0.106217,0.3409115
0.9642751,-0.1079227,0.3382294
0.9642798,-0.1065435,0.3424153
0.96312,-0.1054814,0.343154
0.960718,-0.1045962,0.3398736
0.962062,-0.1019719,0.3428908
0.9618665,-0.1031563,0.343882
0.9607222,-0.1065911,0.344982
0.9611629,-0.1074778,0.3476027
0.9610749,-0.1058211,0.3466223
0.9612369,-0.103259,0.3489408
0.9613354,-0.1006347,0.3510012
0.9629226,-0.0974939,0.3507998
0.9645568,-0.09809198,0.3508239
0.963887,-0.09984385,0.3488029
0.9633223,-0.09884159,0.3505018
0.9625576,-0.1000875,0.3514144
0.9620487,-0.0996853,0.3491099
0.9623393,-0.09703086,0.3479933
0.9612224,-0.09593031,0.3443554
0.9605275,-0.09204606,0.3446371
0.9629489,-0.09036456,0.3469429
0.9656746,-0.09281877,0.3477046
0.9665009,-0.09372888,0.3526154
0.9645521,-0.09696359,0.3529035
0.9607166,-0.1010874,0.3513071
0.9601082,-0.1017304,0.3512079
0.9584675,-0.1010185,0.3469829
0.9557917,-0.09848475,0.3475149
0.9601151,-0.09674002,0.3490348
0.9626518,-0.09893317,0.3477599
0.961934,-0.101424,0.3493225
0.9655596,-0.1027323,0.347955
0.967646,-0.1037789,0.3454968
0.9666945,-0.1009242,0.3442793
0.9657293,-0.09510037,0.3436104
0.9641648,-0.09543158,0.3459555
0.961882,-0.09958972,0.3478766
0.9617826,-0.1006285,0.3506059
0.9634447,-0.1022162,0.3507864
0.9621246,-0.1040483,0.3466719
0.9623595,-0.1044364,0.3459625
0.9640793,-0.104147,0.3439823
0.9635436,-0.1028622,0.3420804
0.9640773,-0.1028077,0.34492
0.9629394,-0.1026866,0.3467412
0.9620868,-0.1026784,0.3491036
0.9637909,-0.1032671,0.3480575
0.9639471,-0.1033218,0.3408319
0.9640492,-0.1046295,0.3371537
0.9637816,-0.1043358,0.3394413
0.963772,-0.1035115,0.3433755
0.9638336,-0.1035341,0.3449932
0.9616016,-0.1013998,0.3446981
0.9598549,-0.1011459,0.3438814
0.9592641,-0.1025977,0.3424516
0.9601839,-0.1036045,0.3411996
0.9617863,-0.1068796,0.3398906
0.9629921,-0.1115224,0.3407003
0.9647871,-0.1148478,0.340928
0.9653706,-0.114679,0.340018
0.9653286,-0.1109318,0.342548
0.9641666,-0.1063657,0.342437
0.9624388,-0.1049444,0.3389352
0.9618141,-0.1046798,0.3371063
0.9587667,-0.1033198,0.3357355
0.9566459,-0.1056283,0.3373814
0.9602226,-0.1072161,0.3398678
0.9643099,-0.1064045,0.3396119
0.9638847,-0.1075713,0.3418939
0.9640826,-0.107206,0.3427111
0.9673783,-0.109736,0.3399386
0.9668024,-0.1139558,0.3421199
0.9664349,-0.111817,0.3447242
0.9691483,-0.1071086,0.3454694
0.9691501,-0.1022702,0.3466533
0.9676088,-0.1007237,0.3437824
0.9641952,-0.1033788,0.3430705
0.9628595,-0.1053739,0.3438264
0.9644425,-0.107022,0.342186
0.9627322,-0.1086293,0.3428748
0.9631856,-0.1089659,0.3383717
0.9682609,-0.1078192,0.333631
0.9733647,-0.1084044,0.3362888
0.9742327,-0.1098049,0.3360498
0.9722035,-0.1090279,0.3377065
0.9720542,-0.1079648,0.340454
0.9687254,-0.1045647,0.3377241
0.966358,-0.1028665,0.3385577
0.9676088,-0.1034953,0.3403764
0.9635264,-0.0995913,0.3447045
0.961721,-0.09788764,0.3496357
0.9660361,-0.100638,0.3406455
0.9692684,-0.1020773,0.3324442
0.9698633,-0.1015323,0.3361834
0.9671028,-0.1012112,0.3373932
0.9651082,-0.1035664,0.3342167
0.9651804,-0.104705,0.3352416
0.9651908,-0.1037088,0.3398834
0.9655111,-0.1023829,0.3424589
0.9650821,-0.1007425,0.3418201
0.9653057,-0.1015109,0.3382492
0.9654283,-0.102615,0.3366274
0.9648562,-0.1027757,0.3379217
0.964424,-0.103002,0.337814
0.9627979,-0.102926,0.3393967
0.9629752,-0.1042648,0.3380953
0.9645864,-0.1045808,0.3333799
0.964637,-0.1028299,0.3347041
0.9646229,-0.1019777,0.3392707
0.9649205,-0.1006133,0.3402432
0.9663205,-0.09970762,0.335806
0.9681729,-0.1030171,0.3327604
0.9680387,-0.1062816,0.3387093
0.9670238,-0.1056372,0.3460581
0.966119,-0.1049406,0.3455169
0.9647443,-0.103964,0.3449281
0.9635334,-0.1023062,0.3477145
0.9636212,-0.1035032,0.3429116
0.9643897,-0.1048462,0.3374311
0.9647244,-0.1040449,0.3379847
0.9653693,-0.1035751,0.3358843
0.9652621,-0.1026386,0.3346626
0.9635162,-0.1005759,0.3342702
0.9636252,-0.100188,0.3309024
0.9650886,-0.1005005,0.3313478
0.9648574,-0.1004355,0.3324383
0.9650178,-0.1014711,0.3287201
0.9655166,-0.09990866,0.3285968
0.9642516,-0.09748028,0.3369383
0.9634473,-0.09916753,0.344491
0.9635042,-0.1007606,0.3414019
0.9612733,-0.1014831,0.3333433
0.9592966,-0.1020567,0.3306954
0.9622062,-0.1018169,0.3298854
0.9654494,-0.1035056,0.3295206
0.9649632,-0.1049141,0.333995
0.965758,-0.1053489,0.3409329
0.9670867,-0.1052499,0.3452963
0.9637689,-0.1034507,0.3429457
0.9614802,-0.1040287,0.3418505
0.9639749,-0.1053074,0.3443208
0.9662174,-0.1064618,0.3421193
0.9672169,-0.1102681,0.3396216
0.9676813,-0.1099248,0.333302
0.967848,-0.1059907,0.3268846
0.9672951,-0.1043011,0.3336899
0.9652702,-0.1035968,0.3388657
0.9650709,-0.1045483,0.3356226
0.9664581,-0.105323,0.3363448
0.9668217,-0.1048288,0.3385694
0.9665926,-0.1033412,0.3373118
0.9656276,-0.1002761,0.3375969
0.9643171,-0.1009951,0.3407314
0.9617023,-0.1027183,0.3421905
0.9586874,-0.1026517,0.3419194
0.9596552,-0.1057198,0.3413637
0.9628226,-0.1063943,0.3416019
0.9653599,-0.1045592,0.3416784
0.9673625,-0.1050426,0.3394988
0.9660852,-0.1043177,0.3384915
0.964074,-0.1055217,0.3404299
0.9645735,-0.1076992,0.3470057
0.9629768,-0.1048595,0.3532694
0.9617878,-0.102316,0.3479699
0.9640912,-0.1027214,0.3403926
0.965018,-0.1030639,0.3413476
0.9653809,-0.1036435,0.3425185
0.9651815,-0.1044028,0.3422079
0.9631153,-0.1043204,0.3453128
0.9621943,-0.1037631,0.3494133
0.9622826,-0.1033533,0.3518129
0.9632649,-0.1025942,0.3490818
0.96523,-0.1028624,0.3435639
0.9672005,-0.1050824,0.343444
0.9672976,-0.1070352,0.3421958
0.9658908,-0.1082227,0.3373913
0.9663707,-0.1088798,0.3388861
0.9643369,-0.1100205,0.3422051
0.9608965,-0.1106479,0.3414022
0.9619415,-0.1059252,0.3382042
0.9622304,-0.1014341,0.3345076
0.9623125,-0.1059752,0.3350859
0.9639954,-0.1106597,0.3387805
0.9638145,-0.1080027,0.3399737
0.96413,-0.1074133,0.3398852
0.9650485,-0.1093553,0.3406363
0.96622,-0.1078788,0.3391487
0.9671054,-0.1081397,0.3372838
0.9653609,-0.1088892,0.3376869
0.9639892,-0.1077874,0.3372825
0.9637859,-0.1086107,0.3375228
0.9637447,-0.1087493,0.3377473
0.964467,-0.1098202,0.3374648
0.9655558,-0.1120213,0.3396163
0.9671722,-0.1112378,0.3407114
0.9670317,-0.111665,0.3403545
0.9660819,-0.1129083,0.340518
0.9669777,-0.1115766,0.3419529
0.966562,-0.110981,0.3435289
0.9654667,-0.1129514,0.3410501
0.9653211,-0.114283,0.3384841
0.9650039,-0.1115745,0.3387683
0.9654613,-0.1073551,0.3380986
0.9649798,-0.1053094,0.334467
0.963252,-0.1051227,0.3304607
0.9622142,-0.1048841,0.331492
0.9626776,-0.1047453,0.333363
0.9655748,-0.108613,0.3332793
0.9674282,-0.113699,0.3368226
0.9668958,-0.1131268,0.3408124
0.9673082,-0.1117123,0.3428652
0.9683893,-0.1138578,0.3441599
0.9682994,-0.1144855,0.3434764
0.9678654,-0.1144308,0.3439398
0.96891,-0.1153995,0.3424972
0.9688017,-0.1135436,0.338705
0.9665102,-0.1118478,0.3404158
0.9650892,-0.1134397,0.3420507
0.9633407,-0.1139179,0.3410853
0.9618807,-0.1109236,0.3419815
0.9629988,-0.1078086,0.3406732
0.9654443,-0.1081445,0.339
0.9673452,-0.1102016,0.3377743
0.9667507,-0.1124875,0.3373888
0.965298,-0.1140447,0.3427673
0.9653887,-0.1105883,0.344753
0.9661733,-0.1065851,0.340981
0.9665572,-0.1083039,0.3414063
0.9650463,-0.1092046,0.3422442
0.9629106,-0.1076071,0.3395467
0.9630589,-0.1085019,0.3338657
0.9634501,-0.1086327,0.32714
0.9629556,-0.1080551,0.3307863
0.9633149,-0.1097342,0.3400338
0.9630546,-0.1106417,0.3410044
0.96232,-0.110611,0.3397995
0.9627958,-0.1099787,0.3386239
0.9643004,-0.1078965,0.3368868
0.9659071,-0.1049078,0.3397555
0.9650546,-0.1029545,0.3418823
0.963057,-0.1043007,0.3417911
0.9622851,-0.1037816,0.3420971
0.9625591,-0.1017564,0.3433395
0.964768,-0.1038689,0.3461943
0.966701,-0.1065391,0.3456493
0.9669119,-0.1087888,0.3418418
0.9666639,-0.1081345,0.3363119
0.9664722,-0.1046875,0.3314667
0.9672085,-0.1056061,0.3341961
0.9684194,-0.1059915,0.3403067
0.9695055,-0.1047627,0.3429151
0.9675409,-0.1047995,0.3422138
0.9626753,-0.1017412,0.3426867
0.9608426,-0.09952737,0.3453092
0.9614314,-0.09916999,0.3432709
0.9635537,-0.09817846,0.3391028
0.9681792,-0.09941765,0.3377234
0.970587,-0.1022867,0.3369491
0.9691488,-0.1051006,0.3378359
0.966757,-0.1047379,0.3385022
0.9646642,-0.1032269,0.3379891
0.9633994,-0.1048176,0.3389179
0.964637,-0.105035,0.3405723
0.9660907,-0.1042535,0.3417287
0.9653324,-0.1035907,0.337982
0.9670676,-0.1026793,0.3328597
0.9697065,-0.1064788,0.3347249
0.9686858,-0.1098385,0.3373375
0.9676397,-0.1083859,0.3376354
0.9676337,-0.1089346,0.3410393
0.96665,-0.1112579,0.3442679
0.9655627,-0.1110756,0.3422608
0.9665976,-0.109086,0.3395814
0.9674036,-0.1078229,0.3410284
0.9660933,-0.1082328,0.3431124
0.9665316,-0.1085945,0.3446834
0.9661589,-0.1076987,0.3442984
0.9645047,-0.10538,0.3420902
0.9655022,-0.1026148,0.3441268
0.9654493,-0.1013808,0.3452932
0.9649595,-0.09950946,0.3437725
0.9655602,-0.09508531,0.3445839
0.9654777,-0.09387418,0.3433913
0.9672599,-0.09689041,0.341281
0.9695835,-0.1019983,0.3401998
0.9692574,-0.109248,0.3395801
0.9662287,-0.1081428,0.3404664
0.9629456,-0.1022981,0.3388557
0.9632638,-0.1030936,0.3384996
0.9642981,-0.1010697,0.3423441
0.9622917,-0.1001728,0.3437246
0.9620037,-0.1029784,0.3410641
0.9650206,-0.1004569,0.3330842
0.9657486,-0.1013008,0.3247826
0.9646787,-0.1018852,0.3270946
0.9636437,-0.09853972,0.3347467
0.9618361,-0.09881885,0.345195
0.9628525,-0.09732939,0.3575753
0.9656971,-0.09419103,0.3508165
0.967077,-0.09076489,0.3371653
0.9669404,-0.09165074,0.3423868
0.9647188,-0.09957339,0.3426965
0.9624176,-0.1025671,0.3356027
0.9608701,-0.1017063,0.336998
0.9624953,-0.10049,0.3361523
0.9663518,-0.09836892,0.3377741
0.9662679,-0.09811443,0.3382881
0.9664128,-0.1012157,0.3340272
0.9673375,-0.1089553,0.3353932
0.9660999,-0.1093255,0.3343019
0.9671919,-0.1040191,0.3340416
0.968676,-0.1039239,0.3341134
0.9695715,-0.102322,0.3309525
0.9696851,-0.1025516,0.3332582
0.9670494,-0.1042542,0.3321396
0.9662885,-0.1032235,0.3308352
0.9663834,-0.1047695,0.3336117
0.9648065,-0.1061243,0.333987
0.9631858,-0.1072532,0.3366177
0.9618373,-0.1070059,0.3344915
0.9619854,-0.105076,0.3294702
0.9627899,-0.1061785,0.3317828
0.9646814,-0.1067096,0.3353479
0.9667898,-0.1065877,0.336843
0.9668024,-0.1086531,0.3354704
0.9667172,-0.1110144,0.3324426
0.9667161,-0.111072,0.3312852
0.9682863,-0.1098497,0.3320466
0.9720701,-0.1089071,0.3335024
0.9736502,-0.107797,0.3342966
0.9695852,-0.1094095,0.336009
0.9650428,-0.1103487,0.3364145
0.9691502,-0.1090561,0.3348024
0.9729703,-0.1091182,0.3346825
0.9691493,-0.1074456,0.3345868
0.966056,-0.1054192,0.3347844
0.963235,-0.1050875,0.3357547
0.9627731,-0.1096663,0.3389098
0.9653491,-0.1157441,0.3432901
0.9643378,-0.1098898,0.3413807
0.9656458,-0.1032681,0.3369669
0.9688939,-0.1050544,0.3357553
0.9693816,-0.1034789,0.3356398
0.9700842,-0.1049181,0.3356428
0.9690972,-0.1106786,0.3317073
0.9688028,-0.1086418,0.3273741
0.9683349,-0.1083949,0.3294365
0.9655035,-0.1138997,0.3321529
0.9665049,-0.1144023,0.3336503
0.9664068,-0.1136363,0.3354068
0.9644839,-0.114093,0.3338876
0.9668434,-0.1139616,0.3325186
0.9690524,-0.1161264,0.3337024
0.9704947,-0.1179974,0.3332248
0.9705084,-0.1178852,0.3321614
0.9684283,-0.1153551,0.3319387
0.9674721,-0.1125755,0.3320617
0.9655358,-0.1130579,0.333919
0.9648692,-0.1126505,0.3351079
0.9676716,-0.1120121,0.3338576
0.9693368,-0.1128646,0.3328618
0.9686004,-0.1124144,0.332946
0.9666548,-0.112562,0.3314719
0.9652809,-0.1135656,0.3280069
0.9654254,-0.1140393,0.3275594
0.9661067,-0.1145703,0.3310083
0.9669685,-0.1163835,0.3338277
0.9668374,-0.1185754,0.3346765
0.9663449,-0.1163078,0.3346164
0.9666782,-0.1120154,0.3348506
0.9654454,-0.1112505,0.3354767
0.9630409,-0.1109636,0.3380986
0.9625801,-0.1099304,0.3403325
0.9654173,-0.110461,0.3339991
0.9695781,-0.1130746,0.3259639
0.9698101,-0.1164745,0.3279586
0.9669666,-0.1158291,0.3334675
0.965356,-0.114187,0.3354296
0.9650902,-0.1159128,0.3348193
0.9662864,-0.1153702,0.3323855
0.9672727,-0.1147154,0.3316076
0.9672379,-0.1153501,0.3330412
0.9670487,-0.1122628,0.3333649
0.9647872,-0.1102576,0.3325597
0.9631463,-0.111277,0.3304427
0.9649221,-0.1122412,0.3264546
0.9660503,-0.1127499,0.3238152
0.9659412,-0.1122219,0.3297667
0.9668557,-0.1114536,0.3382498
0.9669636,-0.1099726,0.33512
0.9664992,-0.109429,0.332875
0.9676898,-0.1108601,0.339547
0.9684323,-0.1113454,0.3438785
0.9672372,-0.1113364,0.3468059
0.9644499,-0.1118843,0.3398192
0.9623468,-0.1129652,0.3284229
0.9665153,-0.1136208,0.3335336
0.9714781,-0.1143121,0.3372327
0.9686515,-0.1169095,0.3353652
0.9658953,-0.1181476,0.3401708
0.9653272,-0.1155997,0.3367977
0.9617781,-0.112731,0.332602
0.9633296,-0.1135908,0.3375801
0.9672391,-0.1147777,0.338536
0.9649388,-0.112921,0.3384758
0.965563,-0.111928,0.3392803
0.9677067,-0.1101295,0.336278
0.9652124,-0.108668,0.3334415
0.965124,-0.1105784,0.3321203
0.9668129,-0.1105852,0.3349178
0.9684959,-0.111124,0.3390849
0.9697573,-0.1125013,0.3368658
0.9666408,-0.1110846,0.3349006
0.9641664,-0.1102636,0.3377119
0.9658334,-0.1098798,0.3379081
0.9683807,-0.1123488,0.3371919
0.9699942,-0.1165183,0.3387655
0.9697063,-0.1171797,0.3386407
0.9688928,-0.1169845,0.3371463
0.9686344,-0.1123063,0.3357645
0.9679633,-0.1058567,0.3366147
0.9677218,-0.107843,0.3384391
0.9681783,-0.1098713,0.336865
0.967145,-0.1075337,0.3354366
0.965985,-0.1090148,0.3346637
0.9659571,-0.1097782,0.3342871
0.965042,-0.1074512,0.3361957
0.9652215,-0.1081751,0.3360751
0.9665221,-0.1077102,0.3346637
0.9667175,-0.1050997,0.3329343
0.9662704,-0.1045901,0.3310173
0.9638809,-0.104303,0.3322777
0.9618166,-0.1063333,0.3337086
0.9632314,-0.1106578,0.3367503
0.9646151,-0.1127853,0.3431732
0.9637829,-0.1125979,0.3453134
0.9633919,-0.1113389,0.3406188
0.9633505,-0.1108938,0.3335664
0.9626212,-0.1107798,0.3307158
0.9649645,-0.1091517,0.3348323
0.9679392,-0.1069506,0.3412458
0.9666557,-0.1065413,0.3432432
0.9661038,-0.1082121,0.3368182
0.9671413,-0.1086207,0.3297786
0.9665315,-0.1079924,0.3313527
0.9661745,-0.1075368,0.3335607
0.9650992,-0.1065971,0.3319636
0.9635499,-0.10723,0.3335362
0.9660208,-0.1089699,0.333939
0.9703841,-0.1100707,0.3315034
0.9713746,-0.1105507,0.3321474
0.9696601,-0.1120068,0.3321515
0.9678984,-0.1148416,0.3325094
0.9671056,-0.113476,0.3339155
0.9674164,-0.1088658,0.332146
0.9681962,-0.1077306,0.3315933
0.9685199,-0.1088878,0.3321124
0.9685111,-0.1088844,0.3318319
0.9688299,-0.107771,0.3320983
0.9680927,-0.108811,0.3317777
0.9678552,-0.1115537,0.3320375
0.9702857,-0.1125851,0.3319841
0.9713478,-0.111418,0.3317829
1.039869,-0.1810155,0.09008337
1.040053,-0.1804092,0.1051363
1.021258,-0.1614843,0.1078111
1.019076,-0.1524117,0.1072212
0.9946675,-0.1594258,0.1222732
1.010696,-0.1910553,0.102745
1.036731,-0.2207131,0.08463489
1.003903,-0.2029665,0.1238339
0.9944841,-0.1726711,0.1610575
1.01358,-0.151425,0.1582948
1.020595,-0.1357877,0.1394202
1.021293,-0.1533879,0.1229442
1.017168,-0.1740278,0.1178064
1.021024,-0.1606079,0.1223426
1.022683,-0.1492915,0.1305661
1.02283,-0.1439219,0.1345829
1.023698,-0.1354296,0.1341266
1.012057,-0.1585156,0.1323244
1.005791,-0.18464,0.1310757
1.010276,-0.1797708,0.1311706
1.020809,-0.170481,0.1299558
1.029213,-0.1626156,0.1337178
1.022211,-0.1598864,0.1275665
1.016875,-0.154632,0.09089323
1.021614,-0.1422093,0.05787181
1.022405,-0.1481616,0.07552667
1.013473,-0.161705,0.1057595
1.004067,-0.1661907,0.09562891
1.003783,-0.1644154,0.09331423
1.010021,-0.1614296,0.09898686
1.018315,-0.1595565,0.07954208
1.020585,-0.1474121,0.08644177
1.016376,-0.1389039,0.09638427
1.014204,-0.1456203,0.08714429
1.014947,-0.1506652,0.09516325
1.015131,-0.1534854,0.09363229
1.013791,-0.1554543,0.08949945
1.017321,-0.1536622,0.0885044
1.021613,-0.1537167,0.07399801
1.021085,-0.1511312,0.07332184
1.023414,-0.1387521,0.07788668
1.02545,-0.1300793,0.08227239
1.024382,-0.1423951,0.0943343
1.023359,-0.1553922,0.09249875
1.021661,-0.1455063,0.07401742
1.021944,-0.1395727,0.05900796
1.02236,-0.1506966,0.06915549
1.016966,-0.1533063,0.08173395
1.002761,-0.1505918,0.07526747
0.992574,-0.1526626,0.08380441
1.008825,-0.1533579,0.09661034
1.030749,-0.1557064,0.084818
1.025454,-0.1572567,0.07648112
1.016681,-0.1547356,0.07722433
1.018703,-0.1508183,0.07050232
1.015972,-0.1482103,0.06713544
1.017416,-0.1478315,0.06393066
1.018873,-0.1451534,0.05603867
1.016293,-0.1450603,0.06225447
1.019678,-0.1465911,0.07219984
1.017833,-0.143383,0.06982802
1.013751,-0.142884,0.07016105
1.010044,-0.1450549,0.06879238
1.006099,-0.1462524,0.0586196
1.012274,-0.1457055,0.05234046
1.013506,-0.1419802,0.05070232
1.008775,-0.1385064,0.05414707
1.006517,-0.136653,0.06516849
1.002691,-0.1384625,0.07834331
1.009745,-0.1413543,0.0783024
1.027278,-0.1426377,0.05995595
1.037664,-0.1436113,0.05233727
1.022623,-0.1359697,0.06743681
1.003276,-0.127751,0.08058411
1.018289,-0.1351701,0.07359714
1.029301,-0.1435181,0.05867085
1.018481,-0.1411164,0.05428442
1.022229,-0.1383469,0.05120876
1.026213,-0.1377154,0.04111638
1.029787,-0.1385806,0.02891354
1.039035,-0.1414516,0.03271978
1.02417,-0.1406415,0.05183508
1.008478,-0.1402632,0.05285885
1.018409,-0.1420505,0.0496123
1.022102,-0.1379054,0.05057433
1.011896,-0.1354486,0.0416
1.010485,-0.140805,0.04111839
1.018056,-0.144764,0.04088254
1.026869,-0.1429843,0.04232908
1.036059,-0.1402069,0.05703449
1.041683,-0.1412857,0.06832177
1.041549,-0.1448347,0.07093548
1.034162,-0.1490588,0.07188238
1.021803,-0.1492025,0.08867883
1.006398,-0.1462798,0.1025422
0.9890863,-0.1470832,0.100757
0.9859411,-0.1411838,0.1073602
0.9956766,-0.1324008,0.1107932
1.006938,-0.1347114,0.1136522
1.021035,-0.1366024,0.1149157
1.019874,-0.1369948,0.1076181
1.010055,-0.1437284,0.1133691
1.009932,-0.149191,0.1185321
1.001156,-0.1471324,0.1206314
1.000317,-0.141297,0.1229137
1.014514,-0.1395082,0.1157626
1.014097,-0.1402291,0.116629
1.013596,-0.140689,0.1187414
1.0151,-0.1423422,0.1188233
1.011979,-0.1426557,0.1224263
1.016043,-0.1407998,0.1175698
1.016091,-0.1376244,0.1135936
1.017505,-0.1374582,0.1126909
1.016976,-0.1382195,0.1144832
1.00904,-0.1355014,0.1206202
1.011457,-0.13522,0.1192499
1.012278,-0.1347892,0.1170463
1.012805,-0.1343774,0.1164748
1.018236,-0.1373091,0.1149518
1.016178,-0.1376217,0.118586
1.015555,-0.1372466,0.1217278
1.016319,-0.1350866,0.1214803
1.019128,-0.1302039,0.1201934
1.023239,-0.1290887,0.1197958
1.016883,-0.1327434,0.1171142
1.011725,-0.1384095,0.1114115
1.015908,-0.139363,0.1118601
1.019168,-0.1390479,0.1118913
1.017599,-0.1413027,0.1102693
1.016438,-0.1398558,0.1148413
1.015254,-0.1386653,0.1169907
1.012884,-0.1372409,0.1164562
1.014944,-0.1340684,0.1154922
1.016087,-0.1328958,0.1118999
1.015037,-0.1242536,0.1105262
1.016999,-0.1087235,0.1111081
1.016768,-0.1015862,0.1123114
1.014471,-0.09971994,0.1129693
1.013072,-0.08699725,0.1131543
1.012523,-0.07145305,0.1143723
1.013242,-0.07170677,0.1138651
1.014173,-0.0806874,0.1138395
1.014385,-0.09012644,0.1148836
1.014864,-0.1004974,0.1140813
1.01841,-0.1102907,0.1120492
1.020566,-0.1217021,0.1102491
1.018786,-0.1301287,0.109693
1.017519,-0.1373071,0.1044549
1.016306,-0.1477976,0.09732212
1.015821,-0.1519581,0.09918892
1.014269,-0.1506513,0.1008515
1.010348,-0.1521542,0.09708219
1.009627,-0.1560475,0.09737402
1.010476,-0.156798,0.09649362
1.011483,-0.1552915,0.09133613
1.015465,-0.1578226,0.08824891
1.018888,-0.1592306,0.08493582
1.019801,-0.1631026,0.08323259
1.019903,-0.1733357,0.08275076
1.019817,-0.1770521,0.07948669
1.019709,-0.1763675,0.08080943
1.01686,-0.1765168,0.08511481
1.014351,-0.1748066,0.08596187
1.018842,-0.1692396,0.08383717
1.024984,-0.1576214,0.07913218
1.028405,-0.1484772,0.07709273
1.02961,-0.1400489,0.07570187
1.025607,-0.1287286,0.07440755
1.020051,-0.129604,0.08065543
1.017421,-0.1381428,0.08938365
1.016823,-0.1395495,0.09531377
1.017182,-0.1371747,0.09575621
1.018352,-0.1322641,0.09088785
1.020977,-0.1270722,0.08420724
1.021302,-0.127339,0.07498737
1.019347,-0.1282101,0.07555754
1.0194,-0.1284821,0.08072802
1.019454,-0.1328287,0.07514919
1.019005,-0.1387359,0.07750743
1.017838,-0.1402829,0.08425662
1.016282,-0.1402916,0.08126088
1.018351,-0.1501692,0.08126013
1.020428,-0.1637305,0.08030647
1.019322,-0.166481,0.07936892
1.019115,-0.165934,0.08499214
1.019395,-0.1660114,0.08688849
1.017579,-0.1569176,0.08666592
1.016007,-0.1434129,0.08783697
1.016621,-0.1370196,0.08822058
1.017339,-0.1369933,0.08993429
1.018058,-0.138148,0.09142109
1.01929,-0.1393086,0.08686059
1.019006,-0.1402986,0.08078246
1.019064,-0.1388634,0.08332981
1.019496,-0.1364704,0.08567429
1.016369,-0.1374561,0.08412929
1.013337,-0.1379251,0.08734259
1.013719,-0.1349785,0.0899957
1.014801,-0.1306849,0.08886089
1.017421,-0.1265349,0.08191911
1.021562,-0.1296992,0.07120226
1.025254,-0.1377352,0.07186834
1.028267,-0.1427246,0.08094338
1.025718,-0.1485849,0.0836056
1.017173,-0.1516953,0.07667448
1.013309,-0.1495339,0.06901766
1.016071,-0.1497298,0.07225676
1.018471,-0.1503908,0.07736782
1.019845,-0.1494099,0.07742075
1.01984,-0.148279,0.08129656
1.018948,-0.1466924,0.0850115
1.019631,-0.1469813,0.08746824
1.019755,-0.1474778,0.08714372
1.019894,-0.1461044,0.08075301
1.020426,-0.1455135,0.08139503
1.019028,-0.1459079,0.08323767
1.017999,-0.1460661,0.08064778
1.017323,-0.1464857,0.08216177
1.015935,-0.1466273,0.07927571
1.015774,-0.1456738,0.07649963
1.015337,-0.1460338,0.07942256
1.015016,-0.1493789,0.08003901
1.016516,-0.1534223,0.08040189
1.016739,-0.1551574,0.08009499
1.015639,-0.1535427,0.07942937
1.015642,-0.1508519,0.07782723
1.018111,-0.1487273,0.07686666
1.022309,-0.1478896,0.08078557
1.022127,-0.1489561,0.08187883
1.017193,-0.1482742,0.08175712
1.014062,-0.1454688,0.08255611
1.015398,-0.1443606,0.08199924
1.018798,-0.146528,0.08584734
1.019375,-0.151784,0.08871827
1.016803,-0.1540924,0.08711379
1.01406,-0.1516731,0.08541096
1.013011,-0.1486883,0.08440137
1.012819,-0.1445979,0.08564164
1.012214,-0.1431325,0.08652999
1.014487,-0.14353,0.08643693
1.016219,-0.1391711,0.08779982
1.015367,-0.1366873,0.08924958
1.018391,-0.1413884,0.08835591
1.022181,-0.1455797,0.08662955
1.022132,-0.1441559,0.08786647
1.018341,-0.1411082,0.08874563
1.014337,-0.1398917,0.08864325
1.015201,-0.1402842,0.08937403
1.01667,-0.1427947,0.08839961
1.01664,-0.1453917,0.08794971
1.016658,-0.1464479,0.08754864
1.015612,-0.1470739,0.08753963
1.015243,-0.1479911,0.09100913
1.016107,-0.1479573,0.09412093
1.017048,-0.1423581,0.09530131
1.0166,-0.1367448,0.09457484
1.0158,-0.1394852,0.09173671
1.017229,-0.1426782,0.08799765
1.019684,-0.1440572,0.08751813
1.021812,-0.148723,0.09526186
1.022007,-0.1497928,0.09902087
1.019554,-0.1475994,0.08720204
1.017193,-0.1492951,0.07359317
1.018205,-0.1505204,0.07246581
1.021481,-0.1511588,0.07623131
1.02231,-0.1536831,0.07713894
1.020407,-0.1548277,0.08283327
1.017331,-0.1561694,0.09038888
1.014739,-0.1578075,0.09207443
1.013877,-0.1597225,0.09103669
1.014231,-0.1606636,0.08679337
1.015981,-0.1535394,0.0843586
1.015505,-0.1416212,0.08985785
1.014535,-0.1341615,0.09709451
1.015941,-0.1293017,0.09708618
1.015059,-0.1225576,0.09477076
1.015558,-0.1228882,0.1016772
1.018478,-0.1291975,0.1059149
1.019226,-0.1277727,0.1031143
1.017351,-0.1269605,0.1014813
1.013698,-0.1285409,0.09566417
1.014089,-0.1251139,0.09664339
1.014914,-0.1245607,0.1023584
1.013895,-0.1244049,0.09888629
1.016963,-0.1241233,0.09990382
1.017256,-0.1265662,0.1020884
1.015724,-0.126292,0.09978828
1.016358,-0.125535,0.09928897
1.014756,-0.12525,0.0945329
1.01526,-0.1274042,0.09380797
1.017231,-0.1298143,0.09651777
1.019139,-0.125103,0.09320266
1.021647,-0.1202698,0.09241978
1.01917,-0.1208526,0.09181781
1.016983,-0.1239142,0.09116563
1.019322,-0.1258391,0.0933476
1.019948,-0.1257287,0.09112571
1.019013,-0.1282792,0.08972877
1.018548,-0.1321502,0.09207424
1.017529,-0.1324716,0.09323062
1.016083,-0.1306025,0.0946536
1.015485,-0.1279962,0.09340729
1.017867,-0.1257225,0.08800469
1.021646,-0.1289298,0.08660974
1.022275,-0.1343786,0.08807046
1.021786,-0.1371022,0.0871149
1.022669,-0.1418432,0.08766102
1.022115,-0.1433327,0.08766759
1.021437,-0.1414718,0.08829161
1.019402,-0.1423541,0.09429239
1.014258,-0.1394289,0.09858779
1.01353,-0.138232,0.09603876
1.017924,-0.1393669,0.08903744
1.020401,-0.1372505,0.08618609
1.018796,-0.1402006,0.08867716
1.017765,-0.1414166,0.08927437
1.021944,-0.1387967,0.08882268
1.024484,-0.139119,0.08822335
1.02064,-0.1369127,0.08963188
1.01712,-0.1368954,0.09212697
1.016887,-0.1377645,0.09462705
1.016897,-0.1330624,0.1000059
1.016478,-0.1299379,0.09990923
1.017684,-0.1292346,0.09590855
1.018164,-0.1291673,0.09404793
1.016037,-0.1292509,0.08994571
1.015145,-0.1289122,0.09067002
1.016898,-0.1294632,0.09450228
1.018726,-0.1288329,0.09258433
1.017316,-0.1278411,0.09360673
1.015761,-0.125978,0.09568605
1.016897,-0.1240392,0.0939712
1.015863,-0.1252091,0.0960666
1.014303,-0.1258087,0.09598213
1.01374,-0.1276613,0.09133139
1.011949,-0.132029,0.08930213
1.012745,-0.1325465,0.08843603
1.016034,-0.1305963,0.08891433
1.018994,-0.1302795,0.08913301
1.019941,-0.1306689,0.08964621
1.017417,-0.130219,0.09450722
1.015848,-0.1287029,0.09871518
1.016313,-0.127114,0.09787442
1.014173,-0.1266331,0.09590191
1.011465,-0.1265458,0.09676439
1.012984,-0.1262635,0.09599795
1.01691,-0.1280957,0.09453415
1.019645,-0.1317901,0.09473462
1.020095,-0.1344276,0.09136106
1.018864,-0.1344793,0.09168665
1.018425,-0.1320857,0.09733371
1.018021,-0.1270594,0.1000516
1.016699,-0.1209264,0.09948753
1.016691,-0.1223977,0.09503465
1.016814,-0.1286649,0.09457491
1.017421,-0.1296825,0.1013453
1.018601,-0.1306738,0.1049184
1.017921,-0.1301818,0.1003121
1.017915,-0.1269796,0.09363259
1.018292,-0.1278671,0.09584051
1.017842,-0.1268223,0.09916683
1.018007,-0.1247816,0.09775912
1.017135,-0.1251978,0.09918725
1.016152,-0.1242806,0.09836528
1.015963,-0.1233101,0.0988056
1.016159,-0.1207979,0.09987352
1.017714,-0.1200429,0.09504859
1.018572,-0.121575,0.09643759
1.017935,-0.1204803,0.09828032
1.017882,-0.1207855,0.09460895
1.018085,-0.1213125,0.09531261
1.016731,-0.1211818,0.0949093
1.014527,-0.1220606,0.09528643
1.013573,-0.121802,0.09874675
1.014643,-0.1239147,0.09790615
1.015729,-0.1261277,0.1010323
1.013767,-0.1243918,0.1056526
1.011178,-0.1228942,0.1005854
1.012188,-0.1220781,0.09674832
1.016179,-0.1219856,0.1002185
1.017869,-0.1240313,0.1026751
1.015172,-0.1267022,0.1017303
1.015044,-0.1295327,0.09742201
1.017684,-0.1312815,0.09184486
1.018043,-0.1329257,0.09199784
1.017438,-0.1348644,0.09425175
1.016003,-0.1304768,0.09107268
1.015896,-0.1244071,0.08833434
1.017566,-0.1244348,0.08740946
1.019604,-0.1202624,0.08666883
1.023856,-0.1106843,0.08917054
1.025177,-0.1058999,0.09185404
1.020878,-0.1025395,0.09581012
1.014799,-0.09522605,0.09843625
1.010384,-0.08782497,0.0978071
1.009932,-0.08768908,0.09869333
1.012711,-0.09320736,0.09401479
1.018602,-0.09909537,0.08897619
1.021223,-0.1114893,0.09028794
1.01976,-0.1281605,0.08980208
1.022011,-0.1437843,0.08964536
1.022759,-0.1600579,0.08673206
1.02083,-0.1639192,0.08276776
1.021308,-0.1611574,0.08351619
1.023369,-0.1707564,0.07968583
1.025629,-0.181243,0.07670518
1.023513,-0.1890529,0.07584768
1.020901,-0.1932199,0.07067263
1.022558,-0.1870863,0.07266781
1.022191,-0.1837415,0.07728029
1.019981,-0.1788239,0.07598679
1.018985,-0.1711601,0.07631457
1.017965,-0.1717041,0.07575431
1.016276,-0.1663411,0.07477961
1.014575,-0.1552441,0.07819874
1.015107,-0.1480038,0.08087819
1.01617,-0.1444371,0.08096474
1.016687,-0.1446173,0.0800988
1.018264,-0.1405183,0.07955845
1.016736,-0.1388408,0.0794122
1.013463,-0.1410482,0.08035183
1.012791,-0.1369166,0.08471924
1.010784,-0.1358105,0.08786597
1.0102,-0.1390028,0.08870697
1.014748,-0.1393849,0.08877892
1.024377,-0.1325032,0.08097836
1.036582,-0.1225098,0.07144414
1.033886,-0.1247615,0.0757263
1.019251,-0.1304291,0.08842634
1.013,-0.1304235,0.1000086
1.011112,-0.131732,0.107923
1.012483,-0.1328839,0.1058715
1.01487,-0.1352794,0.1078165
1.01339,-0.133909,0.116496
1.018104,-0.124544,0.1070982
1.020918,-0.1187002,0.09799354
1.018732,-0.1198217,0.1043582
1.019306,-0.1211188,0.1036079
1.016292,-0.1181562,0.1022044
1.01365,-0.1186703,0.1045186
1.014268,-0.1259204,0.1020299
1.017601,-0.131786,0.1004706
1.02214,-0.140371,0.09486576
1.021586,-0.1475078,0.08385576
1.020713,-0.1455113,0.07953975
1.01813,-0.1443766,0.0842983
1.01438,-0.1437599,0.08990143
1.015236,-0.1393288,0.09261306
1.015524,-0.1359258,0.09335636
1.015135,-0.1325853,0.09207817
1.014953,-0.1288248,0.09149215
1.013468,-0.1293729,0.08959501
1.013291,-0.1297274,0.08650673
1.018749,-0.12632,0.08499656
1.026478,-0.1262155,0.08203723
1.025488,-0.1276898,0.08150762
1.020768,-0.1314747,0.08328597
1.019443,-0.138525,0.08629492
1.016994,-0.1407517,0.092762
1.015229,-0.1444752,0.09444687
1.014831,-0.1487534,0.09231517
1.014238,-0.1462426,0.08716853
1.016665,-0.1437225,0.07939003
1.020459,-0.1395749,0.08272903
1.020341,-0.1346095,0.08753342
1.018211,-0.1347676,0.08389615
1.018774,-0.1369025,0.08605065
1.018698,-0.1400299,0.08885401
1.018961,-0.1420301,0.08496104
1.022051,-0.1415464,0.08443475
1.020822,-0.1417223,0.08680186
1.019026,-0.1417077,0.08722539
1.020056,-0.141708,0.08371317
1.018576,-0.1429065,0.07763153
1.017549,-0.1439263,0.07680182
1.015608,-0.1432346,0.07842809
1.014567,-0.1382939,0.07759566
1.017852,-0.1316036,0.07824091
1.018426,-0.1299438,0.08094796
1.018116,-0.1345498,0.08568929
1.019079,-0.1400825,0.09191641
1.019092,-0.1424784,0.0955317
1.018072,-0.1450335,0.09333983
1.015915,-0.1468368,0.08996931
1.017579,-0.1436438,0.09136416
1.019745,-0.1394025,0.08980217
1.018293,-0.1365895,0.08570629
1.017415,-0.1362083,0.08697769
1.015273,-0.1358856,0.08465649
1.013808,-0.1330001,0.08002975
1.017312,-0.1371081,0.08215272
1.020881,-0.1430046,0.08347881
1.019793,-0.139539,0.08166448
1.018421,-0.1375137,0.08018683
1.019918,-0.1389512,0.07850386
1.018622,-0.1411762,0.07895018
1.01703,-0.1461973,0.08008289
1.0177,-0.1453408,0.08111079
1.015881,-0.14377,0.08535669
1.015165,-0.1471395,0.08847584
1.016008,-0.1458824,0.0882569
1.015538,-0.1448104,0.08939226
1.013834,-0.1458311,0.09043942
1.011879,-0.1431745,0.08861802
1.013961,-0.1415907,0.08443046
1.018033,-0.1399098,0.08284834
1.021636,-0.1382874,0.08906098
1.021296,-0.1386424,0.09387543
1.017554,-0.137037,0.09152394
1.019826,-0.1381004,0.09016667
1.020394,-0.1397622,0.08872483
1.018064,-0.1367031,0.08562404
1.020413,-0.1335205,0.08899944
1.019463,-0.1301593,0.09301043
1.019779,-0.1314226,0.08706984
1.021278,-0.1404638,0.08229814
1.0166,-0.1465801,0.08507073
1.014862,-0.1444402,0.08373315
1.017771,-0.1408395,0.0787236
1.020652,-0.141347,0.07894005
1.01982,-0.1384699,0.08739682
1.018318,-0.1337028,0.09655074
1.020337,-0.1355037,0.09349644
1.019086,-0.1369119,0.08860466
1.018079,-0.1392757,0.09368946
1.018541,-0.1420316,0.09803893
1.017307,-0.1401171,0.09786373
1.018355,-0.1412432,0.09189928
1.017024,-0.1413832,0.08489341
1.01504,-0.1401693,0.09032221
1.015493,-0.1417309,0.09600786
1.014935,-0.1404108,0.09259621
1.015518,-0.1401649,0.08824249
1.015308,-0.1401158,0.08436121
1.014996,-0.1380762,0.09014076
1.01566,-0.1374512,0.09963134
1.01533,-0.1367792,0.09579933
1.017353,-0.1370255,0.0913014
1.019593,-0.1361142,0.08995783
1.019694,-0.1363701,0.08356557
1.019396,-0.138596,0.08364809
1.019437,-0.1371286,0.08928795
1.020572,-0.1372404,0.09265865
1.020818,-0.1380545,0.096845
1.019975,-0.1369718,0.09384863
1.019164,-0.1378021,0.08726854
1.019219,-0.1378374,0.08903541
1.019657,-0.1394396,0.09018634
1.018319,-0.1429139,0.09163532
1.017741,-0.143541,0.09621192
1.01837,-0.1422923,0.09422906
1.018871,-0.1392692,0.09097344
1.019803,-0.1367548,0.08837868
1.019485,-0.1383485,0.08449392
1.018698,-0.1419503,0.08578672
1.016242,-0.1439204,0.08653284
1.010789,-0.1441526,0.08597926
1.00957,-0.1421341,0.09083707
1.016213,-0.1389979,0.0931717
1.021819,-0.140094,0.09031676
1.019718,-0.1413288,0.08796022
1.018124,-0.1402505,0.08544418
1.019816,-0.1412811,0.08586831
1.016739,-0.1401702,0.08922073
1.013882,-0.1386092,0.08878149
1.015799,-0.1393435,0.08886605
1.016791,-0.1385151,0.09242514
1.018545,-0.1390786,0.0920062
1.021209,-0.1404663,0.08809986
1.021054,-0.1418975,0.08683368
1.020414,-0.1433092,0.08761299
1.020038,-0.1390644,0.08849046
1.018833,-0.134146,0.09225337
1.017495,-0.1342716,0.09725472
1.016362,-0.1348777,0.09649732
1.016538,-0.1338317,0.09312154
1.017899,-0.1341335,0.09426657
1.018275,-0.1396199,0.09530234
1.017787,-0.1448162,0.09323195
1.017205,-0.1417918,0.09188283
1.016366,-0.1376813,0.08999685
1.016377,-0.1368573,0.09050298
1.016569,-0.1328183,0.09384428
1.017499,-0.1318492,0.09232592
1.020368,-0.1364346,0.08870404
1.020777,-0.1355044,0.08520957
1.018994,-0.1361679,0.08326627
1.017692,-0.1408443,0.08625013
1.015103,-0.1387507,0.08842638
1.015169,-0.1380123,0.08958772
1.018608,-0.1398519,0.08611071
1.019968,-0.1385265,0.07849984
1.019672,-0.1398183,0.07956043
1.018789,-0.140851,0.08140819
1.017618,-0.139986,0.08087922
1.016453,-0.1407346,0.08290577
1.016095,-0.1422175,0.07872945
1.017058,-0.1446669,0.07665683
1.015685,-0.1458644,0.08083198
1.014983,-0.1455404,0.08250065
1.0175,-0.145143,0.08427933
1.018425,-0.1444175,0.08429694
1.018046,-0.1460811,0.08434449
1.01695,-0.1482939,0.08592179
1.015971,-0.1479088,0.08585256
1.015093,-0.147604,0.08817224
1.013733,-0.1466785,0.08861318
1.016431,-0.143063,0.08864128
1.019149,-0.1397025,0.09051721
1.017122,-0.1389816,0.0868571
1.016262,-0.140485,0.08569512
1.019054,-0.1435187,0.08555909
1.021988,-0.147029,0.07831217
1.022649,-0.1477375,0.07699398
1.021671,-0.1442771,0.08350639
1.019379,-0.1400548,0.08775508
1.017312,-0.1370621,0.08832288
1.017647,-0.1368578,0.08697523
1.017613,-0.1385442,0.08740232
1.016219,-0.1390595,0.08797412
1.016422,-0.1407597,0.08721071
1.017118,-0.1420203,0.08859732
1.016421,-0.1422075,0.08909195
1.016588,-0.1446804,0.08708309
1.016775,-0.1446315,0.08448222
1.01566,-0.142693,0.08423083
1.016039,-0.1414206,0.08841149
1.017245,-0.1394049,0.08870441
1.018751,-0.1402465,0.08608509
1.020621,-0.1411685,0.08802631
1.019976,-0.1411638,0.08789874
1.017084,-0.1420941,0.08688071
1.01499,-0.1399707,0.08867638
1.015165,-0.1397798,0.08718428
1.015448,-0.1431401,0.08543365
1.015126,-0.144166,0.08613965
1.015392,-0.1446924,0.08569
1.015581,-0.1446209,0.08327475
1.017221,-0.1435068,0.08010481
1.019583,-0.1420846,0.08022664
1.019811,-0.139571,0.08255307
1.019238,-0.1408564,0.08462394
1.019393,-0.1437361,0.08701165
1.019611,-0.1428951,0.08587106
1.019147,-0.1429192,0.08271065
1.018546,-0.1435454,0.08196244
1.018073,-0.1437967,0.08355546
1.018698,-0.1459972,0.08740068
1.020026,-0.147086,0.09109538
1.018899,-0.1463608,0.09377568
1.016447,-0.1424352,0.09252797
1.014791,-0.135985,0.08487221
1.01479,-0.1354065,0.08055072
1.016415,-0.139926,0.08590439
1.017794,-0.1428304,0.09583024
1.019971,-0.1434016,0.1005868
1.020588,-0.1421049,0.09499201
1.020266,-0.1411316,0.08814063
1.022959,-0.141468,0.0866076
1.021325,-0.1400028,0.08761048
1.016804,-0.1381423,0.08884672
1.0167,-0.1391706,0.08977621
1.017665,-0.141063,0.09340682
1.020239,-0.1419471,0.09618186
1.021742,-0.1420733,0.09012652
1.020346,-0.1424717,0.08000441
1.020945,-0.1442608,0.0734802
1.020945,-0.1448088,0.07036798
1.020252,-0.1428872,0.07348266
1.019124,-0.1411794,0.08099553
1.016403,-0.1405143,0.08438114
1.017005,-0.1410148,0.08798322
1.020568,-0.141629,0.08970171
1.023008,-0.1426055,0.08628762
1.021043,-0.1456772,0.08880305
1.016176,-0.1473488,0.08915719
1.014499,-0.1468218,0.08687499
1.015191,-0.1451084,0.0914722
1.015922,-0.1404754,0.09191296
1.01668,-0.135889,0.08968921
1.016751,-0.1317997,0.08333168
1.01613,-0.1285838,0.07467593
1.016173,-0.1294619,0.08120921
1.017314,-0.1294836,0.09001767
1.016387,-0.1270825,0.0911142
1.015317,-0.1275593,0.0925068
1.015625,-0.1307134,0.09175588
1.015325,-0.1363258,0.08718665
1.018132,-0.1420457,0.08184006
1.019817,-0.1391426,0.08532679
1.015673,-0.1333161,0.09223543
1.013352,-0.135961,0.09127759
1.017511,-0.140651,0.09314873
1.023138,-0.1431023,0.09596237
1.022618,-0.140668,0.09338884
1.019743,-0.1332934,0.09280845
1.017604,-0.1320286,0.09223449
1.014069,-0.130104,0.09194105
1.015768,-0.1269863,0.09367476
1.018056,-0.1314805,0.09536169
1.015928,-0.1336379,0.09777938
1.016663,-0.1362339,0.09500515
1.016908,-0.1369042,0.09132417
1.015301,-0.1316069,0.09442241
1.016195,-0.1338158,0.09415328
1.019576,-0.1350196,0.0880891
1.023498,-0.1340697,0.08298988
1.021597,-0.1377192,0.08193469
1.017344,-0.1362836,0.08443139
1.016872,-0.1322367,0.08699542
1.014707,-0.1287442,0.09120478
1.013829,-0.1326346,0.09113437
1.018919,-0.1419782,0.08492405
1.022938,-0.1425058,0.08437927
1.021231,-0.1422405,0.08678063
1.016263,-0.1350801,0.09061627
1.014937,-0.1210441,0.09581557
1.019208,-0.1245042,0.09317326
1.022994,-0.1324129,0.08931741
1.022814,-0.1351394,0.08868551
1.021114,-0.1408745,0.08783945
1.020683,-0.1372066,0.08574358
1.019206,-0.1309487,0.07832924
1.018676,-0.1324144,0.07472109
1.020127,-0.1327803,0.0806157
1.017868,-0.1374213,0.08792966
1.015705,-0.1443341,0.0931953
1.015606,-0.1435682,0.09195352
1.01666,-0.1420366,0.08652892
1.020791,-0.1411785,0.08597534
1.023361,-0.1376301,0.0859295
1.025095,-0.1348572,0.08252996
1.024197,-0.1343762,0.08440022
1.019659,-0.1346459,0.08795215
1.017952,-0.1329484,0.08714527
1.014716,-0.1285771,0.09367264
1.014472,-0.1263651,0.1004983
1.020855,-0.1335109,0.09174594
1.023139,-0.1425012,0.08368495
1.02349,-0.141027,0.0877485
1.020857,-0.138075,0.08965735
1.015032,-0.13761,0.08873383
1.01484,-0.1336018,0.09192371
1.016181,-0.1337705,0.08763868
1.019086,-0.1368679,0.07906425
1.023965,-0.1375467,0.08021171
1.0237,-0.1411868,0.08128929
1.020224,-0.1416199,0.08025415
1.016791,-0.1395937,0.0829725
1.016324,-0.1430773,0.08438624
1.018828,-0.1431114,0.08356978
1.019944,-0.1408529,0.07939688
1.019576,-0.1417006,0.07715991
1.018748,-0.1425911,0.08249443
1.017641,-0.143868,0.0864575
1.015346,-0.140717,0.08490284
1.014683,-0.1379427,0.08397268
1.01711,-0.1387052,0.08600506
1.018603,-0.1366501,0.08562687
1.019856,-0.1375284,0.0837893
1.019827,-0.1397079,0.08392764
1.018826,-0.1447224,0.08221259
1.019814,-0.1529166,0.08136037
1.01983,-0.1496591,0.08301745
1.020922,-0.1450144,0.08556603
1.022957,-0.145749,0.08949113
1.021122,-0.1400837,0.08963766
1.018754,-0.1361268,0.08790339
1.016726,-0.1384241,0.08830384
1.014429,-0.1403003,0.08702612
1.015554,-0.142214,0.08491265
1.018552,-0.1425707,0.08267862
1.019937,-0.14272,0.08012325
1.019513,-0.1443988,0.08105705
1.018043,-0.1400407,0.08469344
1.016929,-0.1331236,0.08778551
1.01668,-0.1324458,0.08831772
1.017591,-0.1318225,0.08667502
1.019254,-0.1291185,0.08643291
1.018869,-0.1273348,0.08506231
1.017206,-0.1261056,0.08236316
1.016255,-0.1289926,0.08429835
1.014934,-0.1323077,0.08879517
1.014911,-0.1321324,0.09134962
1.016095,-0.1339755,0.08965935
1.017061,-0.1370543,0.08764686
1.01938,-0.1394748,0.08896012
1.019817,-0.1407727,0.08636563
1.017152,-0.1374329,0.08295386
1.01618,-0.1351574,0.08376609
1.016882,-0.1383561,0.08453254
1.017839,-0.1406367,0.08729211
1.019214,-0.1400324,0.08831592
1.01955,-0.1380211,0.08494831
1.018373,-0.1351572,0.0842078
1.016939,-0.1340587,0.08546603
1.017075,-0.1351847,0.08753496
1.017757,-0.136756,0.09080721
1.017566,-0.1374403,0.09172715
1.018862,-0.1359897,0.09161636
1.020005,-0.1338794,0.09279345
1.018348,-0.1345232,0.09328698
1.017552,-0.1353643,0.09266172
1.018288,-0.1342533,0.09125875
1.017883,-0.1338752,0.08971184
1.016874,-0.130551,0.08992052
1.015613,-0.1261954,0.08979345
1.01501,-0.1293041,0.0883731
1.016285,-0.1354357,0.08858664
1.017074,-0.1397663,0.08837825
1.016404,-0.142192,0.08747663
1.015684,-0.1400638,0.09012491
1.015096,-0.1360708,0.09282674
1.01568,-0.1339177,0.09187249
1.018141,-0.134292,0.09202801
1.020192,-0.1354241,0.09372725
1.019538,-0.1351761,0.09293609
1.018022,-0.1380234,0.09139378
1.018024,-0.1413384,0.08978067
1.018436,-0.137284,0.08635395
1.02028,-0.1323895,0.08244039
1.024204,-0.1313115,0.07891753
1.024323,-0.1318357,0.07973747
1.016863,-0.1383275,0.08569001
1.009728,-0.1457042,0.08894118
1.012319,-0.1420796,0.08879965
1.017596,-0.1347822,0.08726577
1.019058,-0.1331226,0.08533747
1.021616,-0.1308132,0.08760667
1.020605,-0.1271388,0.09036946
1.017691,-0.1232135,0.09011583
1.018982,-0.1201107,0.08960028
1.016157,-0.1262525,0.08915216
1.013884,-0.1334582,0.09041397
1.016089,-0.1342783,0.09390283
1.015086,-0.13732,0.09463821
1.015254,-0.1384383,0.09139421
1.016903,-0.1343289,0.09086913
1.017989,-0.1315107,0.09011758
1.018941,-0.1301924,0.08716799
1.017628,-0.131399,0.08941994
1.018685,-0.1349838,0.08836863
1.019561,-0.1370811,0.08508047
1.017473,-0.1387416,0.08690057
1.016497,-0.1394914,0.08586827
1.01524,-0.1381162,0.08684644
1.017449,-0.1375142,0.08843745
1.021123,-0.1374041,0.08640331
1.019233,-0.1381676,0.08615344
1.018791,-0.1390232,0.08443497
1.020189,-0.1383301,0.08606328
1.019043,-0.1390697,0.08820896
1.019791,-0.1380195,0.08342229
1.021149,-0.135738,0.08109
1.020114,-0.1372077,0.08433288
1.016663,-0.140427,0.08940217
1.013945,-0.1443626,0.09062921
1.016386,-0.143885,0.08645381
1.017605,-0.1414371,0.08352554
1.015813,-0.1426306,0.08435365
1.016331,-0.1397218,0.08560947
1.01714,-0.1373308,0.08425946
1.019231,-0.1387949,0.08432172
1.021343,-0.1377791,0.08464653
1.020344,-0.1412624,0.08315687
1.019471,-0.1474251,0.08427266
1.016709,-0.1480084,0.08351823
1.013808,-0.1459961,0.08177256
1.014407,-0.1426091,0.08051088
1.013304,-0.1400809,0.0783824
1.012925,-0.1444356,0.08697381
1.016273,-0.1515069,0.09661442
1.017428,-0.1516803,0.08983288
1.016942,-0.1475571,0.08435501
1.019236,-0.1374512,0.08974751
1.02184,-0.1218565,0.09075411
1.020528,-0.1224486,0.08898444
1.017139,-0.1306688,0.08930654
1.014468,-0.1275936,0.08671768
1.013234,-0.1301876,0.08692958
1.015059,-0.1377086,0.08856127
1.017419,-0.1430262,0.08620156
1.019232,-0.1487823,0.0847828
1.021593,-0.1460298,0.08200665
1.019733,-0.1447238,0.08074955
1.015519,-0.1476443,0.08296346
1.014008,-0.1480694,0.08181209
1.0138,-0.1543998,0.08250768
1.016141,-0.1582943,0.0845826
1.019267,-0.1571865,0.08450251
1.01945,-0.1533001,0.08652213
1.017547,-0.1408501,0.08841328
1.014992,-0.1307969,0.09059151
1.014713,-0.1256671,0.0911746
1.014817,-0.1239402,0.08837596
1.013368,-0.1281755,0.08880444
1.014353,-0.1322755,0.08877926
1.016891,-0.13626,0.08566685
1.018776,-0.1388289,0.08430557
1.019385,-0.142267,0.08465771
1.019118,-0.1498816,0.08693811
1.019588,-0.1524278,0.08862461
1.01838,-0.1500161,0.08994516
1.016589,-0.1466147,0.0927571
1.016647,-0.1412761,0.09300237
1.016921,-0.139518,0.09358396
1.018526,-0.1409164,0.09400918
1.020057,-0.140093,0.08782166
1.018585,-0.1399986,0.08185765
1.014752,-0.1393206,0.08424831
1.011243,-0.1327806,0.08971972
1.012371,-0.128297,0.09098639
1.015411,-0.1349466,0.08948629
1.016238,-0.1437449,0.08663279
1.016827,-0.1443283,0.08355236
1.015935,-0.1449521,0.08447753
1.015122,-0.1463808,0.08597805
1.01818,-0.1407862,0.08692699
1.019878,-0.1376691,0.09011231
1.016795,-0.135746,0.09121898
1.014435,-0.1309586,0.09079074
1.016947,-0.1312806,0.08965788
1.019311,-0.1322079,0.08638435
1.017563,-0.138811,0.08694611
1.016782,-0.1481787,0.08826361
1.017128,-0.1443955,0.08500327
1.017088,-0.1405852,0.08468846
1.018593,-0.1416337,0.08773449
1.018246,-0.1391545,0.08947555
1.017171,-0.1383037,0.08940442
1.016717,-0.1376043,0.08816902
1.014574,-0.1374533,0.08894846
1.014938,-0.1418325,0.08780368
1.01597,-0.1450165,0.0839249
1.015161,-0.1447432,0.08292136
1.017133,-0.1436585,0.08306021
1.018834,-0.1422447,0.0836428
1.017948,-0.1418161,0.08377078
1.017871,-0.1419381,0.08557858
1.018198,-0.139483,0.0916148
1.017872,-0.1378849,0.09436771
1.01709,-0.1417263,0.09292095
1.016273,-0.1453647,0.09041798
1.015673,-0.1460149,0.08531583
1.015151,-0.146678,0.080212
1.015322,-0.1473601,0.0805815
1.01665,-0.1499866,0.08164097
1.018734,-0.1509883,0.07699524
1.020003,-0.148569,0.07697971
1.019178,-0.1471116,0.08082776
1.01733,-0.1425905,0.08201638
1.016311,-0.1406602,0.08556409
1.016683,-0.1461229,0.08278819
1.017783,-0.1482989,0.0783427
1.018303,-0.1468555,0.08302487
1.018375,-0.1445726,0.08612824
1.019085,-0.1410975,0.08772427
1.017846,-0.1386538,0.08663849
1.014377,-0.1382947,0.08026681
1.014454,-0.1405227,0.07961448
1.016473,-0.1441165,0.08621876
1.016036,-0.1485642,0.09241046
1.017618,-0.1485312,0.08922933
1.020151,-0.1464546,0.08344722
1.02007,-0.1493019,0.08403286
1.020959,-0.1471223,0.08068085
1.019762,-0.1426465,0.07977712
1.015874,-0.1423307,0.08690744
1.01481,-0.139019,0.08970963
1.01525,-0.1377046,0.0897385
1.01699,-0.1371794,0.08914999
1.019131,-0.1348266,0.08883042
1.019076,-0.1371378,0.08776452
1.017631,-0.1394639,0.08319587
1.016773,-0.142365,0.08306522
1.018268,-0.1456176,0.08309011
1.019508,-0.1449114,0.08272514
1.019342,-0.1449544,0.08676972
1.016428,-0.1410174,0.08815189
1.012118,-0.1351294,0.09043209
1.013144,-0.1375037,0.08881533
1.017333,-0.1396067,0.08100323
1.021505,-0.1382437,0.08062074
1.021411,-0.1391703,0.08507688
1.016871,-0.1390476,0.08894781
1.016384,-0.1381429,0.08809464
1.016663,-0.1374423,0.08505225
1.016859,-0.1352672,0.08683011
1.018917,-0.1350732,0.0856796
1.0191,-0.1359904,0.08357161
1.018172,-0.1358569,0.08239506
1.015789,-0.1366224,0.07934164
1.015897,-0.1375,0.08165991
1.015892,-0.1403528,0.08628015
1.012695,-0.1438685,0.08921501
1.014988,-0.1430091,0.08845824
1.017544,-0.1417559,0.08405547
1.018008,-0.1422729,0.08279532
1.020031,-0.1440635,0.08174786
1.017689,-0.1467037,0.08230674
1.01579,-0.1446998,0.08393816
1.018019,-0.1405294,0.08014872
1.019387,-0.1389967,0.07930163
1.019627,-0.1386249,0.08467052
1.018856,-0.1399125,0.08888595
1.016736,-0.1407704,0.08587631
1.014511,-0.1400459,0.08053833
1.014903,-0.139941,0.08306245
1.016314,-0.1385757,0.08599816
1.016705,-0.1368403,0.08549532
1.01869,-0.1373866,0.08646198
1.019331,-0.1378541,0.08703172
1.018067,-0.1373086,0.08687169
1.018257,-0.1374482,0.08314396
1.018049,-0.1380311,0.07907586
1.018845,-0.1391447,0.08120824
1.020062,-0.1403127,0.08360671
1.019198,-0.1378979,0.08425918
1.019395,-0.1352803,0.08607111
1.019643,-0.1387771,0.08426297
1.019218,-0.1417769,0.08021877
1.01944,-0.1400075,0.08184969
1.018297,-0.1398281,0.08356241
1.016682,-0.1404183,0.08395917
1.015501,-0.138284,0.08910393
1.015327,-0.136866,0.08985567
1.017177,-0.1375089,0.08676398
1.018611,-0.1379074,0.08684934
1.018227,-0.1380709,0.08554865
1.017682,-0.1382492,0.08501315
1.017862,-0.1374406,0.0849514
1.016932,-0.1370944,0.08486376
1.016605,-0.1380071,0.08873891
1.017592,-0.1383822,0.09075619
1.015141,-0.1392841,0.08778053
1.014546,-0.1407023,0.0842996
1.019017,-0.1402451,0.08357036
1.020117,-0.1395223,0.08382872
1.019186,-0.1403018,0.08423615
1.019569,-0.1415928,0.08566459
1.019298,-0.1413012,0.08441083
1.019561,-0.1388309,0.0842106
1.018919,-0.1368326,0.08577411
1.01661,-0.1370972,0.08531702
1.015043,-0.1380768,0.0882813
1.016735,-0.1377145,0.08994774
1.020183,-0.1389614,0.08878106
1.0197,-0.1413107,0.0918127
1.018841,-0.1401718,0.09388358
1.019972,-0.1386062,0.09249558
1.019205,-0.1345145,0.08911659
1.019194,-0.1281654,0.08643951
1.018829,-0.1287936,0.08740897
1.017638,-0.1295834,0.08807814
1.019072,-0.1270072,0.08840428
1.01986,-0.1310015,0.09014102
1.019356,-0.1364188,0.09151336
1.019382,-0.1373105,0.09057665
1.01947,-0.1378416,0.08771538
1.01951,-0.1374579,0.08520866
1.019338,-0.1365231,0.08405065
1.019515,-0.1341148,0.08520802
1.018921,-0.1297044,0.08730755
1.016677,-0.1304228,0.09037097
1.014579,-0.1343136,0.09276113
1.01486,-0.135959,0.09062132
1.015939,-0.1363201,0.08948622
1.015179,-0.1341187,0.09073972
1.016326,-0.1327311,0.08984551
1.019343,-0.1351448,0.08835429
1.020439,-0.1388442,0.08713029
1.020521,-0.1422386,0.08716703
1.020173,-0.1415154,0.08813623
1.021648,-0.137442,0.08820207
1.022797,-0.1358253,0.08886517
1.019814,-0.1388315,0.0883668
1.017898,-0.1430765,0.08644128
1.017971,-0.1412537,0.08577986
1.017782,-0.1354897,0.08450563
1.017566,-0.1340768,0.08413169
1.016929,-0.1365498,0.08534528
1.017525,-0.1384166,0.08452894
1.017566,-0.1375086,0.08447837
1.017155,-0.1369602,0.0860447
1.01821,-0.1380071,0.08920235
1.017145,-0.1373338,0.09545534
1.015579,-0.1373185,0.09851965
1.017054,-0.1378542,0.09905059
1.019879,-0.1371823,0.09951724
1.020753,-0.1376431,0.09523527
1.01734,-0.1379164,0.09203385
1.014112,-0.1396238,0.09241523
1.015853,-0.1437327,0.09046319
1.01763,-0.1440655,0.08667795
1.01541,-0.1381378,0.08191169
1.014629,-0.132825,0.08094155
1.015984,-0.1363628,0.08468415
1.015758,-0.1413305,0.08518824
1.016527,-0.1400752,0.08442209
1.017689,-0.1393318,0.08617729
1.017844,-0.1371823,0.08955863
1.017001,-0.133151,0.09019071
1.015495,-0.134562,0.08359866
1.016265,-0.1355833,0.08235906
1.015513,-0.13441,0.08710626
1.015275,-0.1368563,0.08412442
1.017848,-0.1395088,0.08385872
1.016423,-0.1408316,0.08898877
1.016524,-0.1421382,0.09422038
1.019216,-0.1412857,0.1020798
1.019209,-0.1383074,0.0968972
1.018988,-0.1347032,0.08799381
1.017525,-0.1321151,0.09379878
1.017762,-0.1318382,0.09517276
1.018947,-0.1333925,0.09283272
1.018508,-0.1365222,0.09384321
1.020839,-0.1394966,0.09053581
1.020863,-0.1401133,0.09167444
1.017623,-0.1398262,0.09449329
1.016362,-0.138742,0.09369425
1.017113,-0.1371611,0.09277193
1.019081,-0.1392152,0.08775739
1.018917,-0.1422873,0.0844756
1.019171,-0.1416138,0.08393447
1.019832,-0.1402775,0.07989545
1.017081,-0.1393667,0.07799937
1.015675,-0.1382205,0.08432412
1.014113,-0.1382532,0.09468668
1.011949,-0.1385029,0.09552649
1.014337,-0.139871,0.08798927
1.017481,-0.1422682,0.08385575
1.018911,-0.1435146,0.08234141
1.020536,-0.1448529,0.08340206
1.020723,-0.1448401,0.08401142
1.017088,-0.1436765,0.08253417
1.013926,-0.143852,0.0837679
1.01525,-0.1428827,0.08252106
1.01621,-0.1418913,0.0784125
1.016645,-0.1400398,0.07557762
1.018665,-0.1364823,0.07635002
1.018429,-0.1396718,0.08200271
1.017104,-0.1464357,0.084891
1.016546,-0.1473336,0.08601187
1.01486,-0.1438112,0.08818956
1.015089,-0.1409061,0.08761896
1.01794,-0.1448503,0.0872752
1.01921,-0.1494738,0.08736935
1.019721,-0.1468258,0.08611123
1.019602,-0.1464491,0.08355284
1.019027,-0.1481669,0.08263674
1.019791,-0.1465133,0.0853793
1.019019,-0.1461561,0.0853065
1.024291,-0.1579884,0.04317559
1.023219,-0.1663627,0.0400584
1.020033,-0.1705392,0.04369799
1.020136,-0.1729845,0.05131276
1.015459,-0.182297,0.05739781
1.013821,-0.1808104,0.05464099
1.016342,-0.1793932,0.04097965
1.015023,-0.1853884,0.03292346
1.015822,-0.1817174,0.0360672
1.0203,-0.1787656,0.04034999
1.022975,-0.1825022,0.04293212
1.02148,-0.1816577,0.04773901
1.01678,-0.1788323,0.05445862
1.01438,-0.1773464,0.05543767
1.011794,-0.177224,0.05620128
1.009197,-0.1787971,0.05689987
1.014497,-0.179386,0.04943568
1.020483,-0.180585,0.046396
1.019966,-0.1797091,0.04883113
1.01793,-0.1744941,0.05033409
1.015147,-0.1730598,0.05192213
1.01155,-0.175487,0.04824532
1.012863,-0.1763385,0.04517227
1.017379,-0.173121,0.04583426
1.017913,-0.1692282,0.04581111
1.018793,-0.1717343,0.0460376
1.019839,-0.1732276,0.04630134
1.016202,-0.1700225,0.04950578
1.014885,-0.1680575,0.05260742
1.01706,-0.1661371,0.05080807
1.01874,-0.1671004,0.04730255
1.018391,-0.1694953,0.04494974
1.017298,-0.1696313,0.04558226
1.018567,-0.1724203,0.04636501
1.018076,-0.1751101,0.04557686
1.017603,-0.1755982,0.0463016
1.018282,-0.1748623,0.04923736
1.01585,-0.1684206,0.05302326
1.014828,-0.1627165,0.05349982
1.015278,-0.1646366,0.04993508
1.015666,-0.1670529,0.04682215
1.017232,-0.1691706,0.04383604
1.018123,-0.1731996,0.0418861
1.017613,-0.1736332,0.04451274
1.016126,-0.1730277,0.04633452
1.017468,-0.1733767,0.04626802
1.018749,-0.1683632,0.04793962
1.016477,-0.1623785,0.04739044
1.015589,-0.1618241,0.04869907
1.015276,-0.1640331,0.05501966
1.016484,-0.1662265,0.05918064
1.020031,-0.1669398,0.05697308
1.021424,-0.1666309,0.0467846
1.020879,-0.1656303,0.03849261
1.019177,-0.1649172,0.04289843
1.017486,-0.1648937,0.05362828
1.016099,-0.1625697,0.06093579
1.015536,-0.1602537,0.06045153
1.016513,-0.160886,0.05451647
1.016537,-0.1615991,0.04761985
1.016827,-0.1609392,0.04296383
1.016613,-0.160904,0.04642916
1.015394,-0.1614571,0.0550119
1.015396,-0.1612476,0.05820734
1.015529,-0.1628691,0.05645588
1.018411,-0.1644896,0.05341883
1.022264,-0.1627368,0.05186002
1.022695,-0.1611228,0.0551361
1.021087,-0.1609039,0.05637193
1.016624,-0.1615186,0.05539531
1.012639,-0.162993,0.05763548
1.014159,-0.1646418,0.0580176
1.01657,-0.1660128,0.05495713
1.015065,-0.1663871,0.05093575
1.014441,-0.1649142,0.04954493
1.015206,-0.1613098,0.04904566
1.013373,-0.1605734,0.04689929
1.015242,-0.1634756,0.0466053
1.019871,-0.1643031,0.04389806
1.02133,-0.1648232,0.04322632
1.021201,-0.1682299,0.04652063
1.019318,-0.1721378,0.04635103
1.018866,-0.1712472,0.04935758
1.018067,-0.1675769,0.05090856
1.015632,-0.1672413,0.04956642
1.01682,-0.1662878,0.05194766
1.017182,-0.1652848,0.04692497
1.017124,-0.1657587,0.03938454
1.018305,-0.1646578,0.03906356
1.016203,-0.165511,0.04295152
1.014371,-0.1655731,0.04704734
1.014359,-0.1652087,0.04125064
1.014102,-0.1690561,0.03434966
1.014697,-0.1726848,0.0366089
1.016897,-0.1744532,0.03829071
1.018993,-0.1726216,0.03848919
1.019619,-0.1697549,0.03669133
1.019737,-0.1681674,0.03335378
1.019179,-0.1636777,0.03465368
1.019038,-0.1620417,0.03596832
1.017437,-0.1629864,0.03682329
1.013084,-0.162424,0.03931736
1.012018,-0.1660918,0.03655295
1.014433,-0.173943,0.03207928
1.015825,-0.1791067,0.03450105
1.014503,-0.1729185,0.04020987
1.013272,-0.1639503,0.04438252
1.015796,-0.1656626,0.04442799
1.019456,-0.1675043,0.04344941
1.02257,-0.1712879,0.04558512
1.02304,-0.1839424,0.04037324
1.021075,-0.1901974,0.03224865
1.020666,-0.1902515,0.03363321
1.019192,-0.1877823,0.03413628
1.018722,-0.1732144,0.03828438
1.020452,-0.1582793,0.0479439
1.019987,-0.1586939,0.04383959
1.020366,-0.1622902,0.03754698
1.018769,-0.160443,0.03978558
1.014979,-0.1661649,0.0385384
1.01579,-0.1727378,0.03811984
1.015737,-0.1683944,0.03797682
1.015008,-0.1671957,0.03476755
1.018468,-0.1664202,0.03533004
1.020245,-0.1614207,0.03210567
1.018552,-0.161481,0.02613869
1.014744,-0.1597963,0.02765203
1.011551,-0.1595902,0.02985474
1.014621,-0.1636684,0.03070402
1.02041,-0.16328,0.03265879
1.022615,-0.1634599,0.03232323
1.022012,-0.1627166,0.03232669
1.019959,-0.1599251,0.03391384
1.017074,-0.1613973,0.03383648
1.016366,-0.1628323,0.03465818
1.018605,-0.1644213,0.03701035
1.019982,-0.1684938,0.0362695
1.018573,-0.1714911,0.03549156
1.017609,-0.1736626,0.03625995
1.019102,-0.1742121,0.03417562
1.019915,-0.1731696,0.03137456
1.019096,-0.1740137,0.02716569
1.018155,-0.1756366,0.02257445
1.016093,-0.176277,0.02634421
1.014554,-0.1750028,0.03167302
1.01566,-0.1738889,0.0293268
1.017374,-0.1797255,0.02996299
1.01835,-0.1853849,0.03438954
1.01831,-0.1797574,0.03301359
1.017939,-0.1716948,0.03371266
1.018819,-0.1699906,0.03771799
1.019174,-0.1717868,0.0368955
1.018565,-0.1740287,0.03587295
1.019515,-0.1747191,0.03431359
1.019903,-0.1749606,0.03017169
1.018851,-0.1751667,0.02822859
1.018477,-0.1734682,0.02734987
1.017057,-0.1710256,0.02698557
1.015848,-0.1677292,0.02879559
1.016065,-0.1653703,0.03248614
1.015067,-0.1657778,0.03627419
1.015297,-0.1643061,0.03630438
1.016959,-0.1621878,0.03390868
1.016239,-0.1627325,0.03292875
1.015918,-0.1641067,0.03335778
1.018516,-0.1676658,0.03520633
1.02025,-0.1704132,0.03851235
1.020764,-0.167746,0.04130186
1.022839,-0.165827,0.04056574
1.022806,-0.1688665,0.03707411
1.021305,-0.1712888,0.03190421
1.021471,-0.170837,0.02622943
1.016112,-0.1709222,0.02924484
1.010917,-0.1716372,0.03484922
1.016998,-0.1715197,0.03119175
1.022831,-0.1698447,0.03095848
1.020691,-0.1660108,0.03345359
1.019062,-0.1628357,0.03089385
1.019142,-0.1635098,0.0321437
1.015504,-0.1657849,0.03210566
1.011715,-0.1662042,0.02933562
1.012751,-0.1675649,0.02931845
1.01608,-0.1716102,0.02811165
1.020065,-0.1744972,0.0267743
1.021355,-0.1742781,0.02618382
1.017922,-0.1708552,0.03410747
1.015573,-0.1638632,0.04819118
1.016643,-0.1559112,0.04912834
1.017201,-0.1564327,0.04416246
1.016446,-0.1610201,0.04336655
1.018107,-0.1574915,0.04100886
1.021294,-0.1588222,0.04162238
1.021903,-0.165598,0.04518783
1.018086,-0.1688459,0.04515232
1.013391,-0.1751136,0.04069992
1.014378,-0.1737733,0.03579539
1.013895,-0.1693779,0.03770259
1.009866,-0.1710094,0.04068183
1.013973,-0.1673217,0.03775942
1.019894,-0.1688917,0.03637697
1.022392,-0.1728325,0.03469417
1.02507,-0.1675225,0.03159932
1.019411,-0.1619632,0.03311325
1.011767,-0.1566176,0.03390626
1.013476,-0.1568802,0.03731484
1.013461,-0.1594386,0.04353878
1.011025,-0.1559865,0.04189118
1.013574,-0.1585566,0.03938836
1.015112,-0.162356,0.03629409
1.018025,-0.1599794,0.02967479
1.023025,-0.1585612,0.03108771
1.02202,-0.1563574,0.03445701
1.019833,-0.1567319,0.03481488
1.018499,-0.1606689,0.04029003
1.017324,-0.1617287,0.04221494
1.019483,-0.1631083,0.03973939
1.019755,-0.1641637,0.0423193
1.018581,-0.1629396,0.04192276
1.017088,-0.1628088,0.03864157
1.01419,-0.1661736,0.03698626
1.015267,-0.1740804,0.03056559
1.016851,-0.1785299,0.02584889
1.016419,-0.1759308,0.02813893
1.017282,-0.1734768,0.03122302
1.01837,-0.1718064,0.03319048
1.019877,-0.1695765,0.03588862
1.019864,-0.1679868,0.04024173
1.018316,-0.1660323,0.04077422
1.017048,-0.1642063,0.03677702
1.014746,-0.1639172,0.03464822
1.01553,-0.1637102,0.0359644
1.017865,-0.1638006,0.04058927
1.016334,-0.1644137,0.04431524
1.016096,-0.1649831,0.04301556
1.016403,-0.1684935,0.03997267
1.014729,-0.1718321,0.03949014
1.016163,-0.1722721,0.04013292
1.01718,-0.1721131,0.03881128
1.015429,-0.1692542,0.03826843
1.015058,-0.1667603,0.03883363
1.015254,-0.1672423,0.03824692
1.015371,-0.169417,0.03554275
1.015278,-0.1736182,0.0311967
1.015158,-0.1749063,0.03017688
1.015443,-0.1747486,0.03092879
1.01516,-0.1770655,0.03228432
1.015293,-0.1768105,0.03560983
1.015361,-0.1762163,0.03696886
1.015144,-0.1794718,0.03952349
1.015935,-0.180165,0.04143015
1.017896,-0.17413,0.03933422
1.020248,-0.1677429,0.03853688
1.019841,-0.1694429,0.03720395
1.018721,-0.1753603,0.03712637
1.019656,-0.1768841,0.03911035
1.018638,-0.1746728,0.03840372
1.01742,-0.1691335,0.03719036
1.018486,-0.1650592,0.03600945
1.018989,-0.1690462,0.03742963
1.019556,-0.1730915,0.04032353
1.019357,-0.1721986,0.03959423
1.017342,-0.1704109,0.04043695
1.016619,-0.1703106,0.04273292
1.018302,-0.1716078,0.0430715
1.020232,-0.1717415,0.04410484
1.019624,-0.1729362,0.04643306
1.018677,-0.1735465,0.04831521
1.019158,-0.1715002,0.04277269
1.018457,-0.1721093,0.03404913
1.018628,-0.1728933,0.03516009
1.019171,-0.1730262,0.03727416
1.018333,-0.175872,0.03611883
1.019104,-0.1769045,0.04028806
1.019587,-0.1751439,0.04256756
1.019385,-0.1737153,0.04213398
1.019802,-0.1733501,0.04233608
1.020085,-0.1737099,0.04010076
1.020732,-0.1736347,0.04421588
1.0183,-0.1735502,0.048907
1.015598,-0.1736633,0.04217364
1.017626,-0.1734,0.03737504
1.018786,-0.1727346,0.03938033
1.017073,-0.1714096,0.03830484
1.014368,-0.1694286,0.03510564
1.011973,-0.1676413,0.03554433
1.013763,-0.168501,0.03831344
1.016597,-0.170325,0.04190784
1.015759,-0.1691652,0.04751863
1.017611,-0.1679412,0.04790484
1.022752,-0.1673868,0.04737502
1.022829,-0.166038,0.05273609
1.021593,-0.1663441,0.0486631
1.022584,-0.165254,0.04271193
1.02194,-0.1620172,0.04891476
1.021259,-0.1594531,0.05668137
1.020721,-0.1560163,0.06568997
1.020546,-0.1556341,0.06733482
1.020475,-0.1554956,0.05838088
1.016723,-0.1484941,0.05868282
1.012355,-0.1444029,0.06517254
1.011714,-0.1479509,0.06922383
1.01309,-0.1552608,0.06798884
1.013534,-0.1642056,0.06092965
1.013765,-0.1651616,0.05785798
1.014492,-0.1621907,0.05475422
1.014506,-0.1646827,0.05412339
1.015485,-0.1637117,0.05821488
1.015344,-0.1600612,0.0581189
1.012934,-0.1588856,0.06098415
1.01261,-0.1577548,0.05721478
1.014318,-0.1603998,0.04528547
1.016817,-0.1621312,0.04487292
1.017129,-0.1605251,0.04708801
1.014972,-0.1613182,0.04906037
1.01437,-0.1620475,0.05348509
1.013636,-0.1653637,0.05341573
1.013818,-0.1697246,0.05323122
1.015967,-0.1682943,0.05112401
1.018759,-0.1673795,0.04934338
1.022121,-0.1696224,0.05075795
1.021225,-0.170674,0.04961245
1.019798,-0.1699748,0.04984757
1.021389,-0.1661884,0.05119262
1.019662,-0.1607822,0.05256388
1.017896,-0.1601575,0.05420841
1.0182,-0.1602226,0.05085802
1.017784,-0.1556668,0.04911832
1.018253,-0.1559713,0.05173625
1.018068,-0.1584646,0.05314941
1.017499,-0.1568167,0.05629999
1.016533,-0.1605858,0.05583462
1.014537,-0.1651825,0.04962315
1.015292,-0.164019,0.04804339
1.017036,-0.1650077,0.04937288
1.01835,-0.1682806,0.05018769
1.020181,-0.1695743,0.04920972
1.019587,-0.1686283,0.04487669
1.018926,-0.1681609,0.04119411
1.019841,-0.168512,0.03780306
1.019366,-0.1675835,0.03899044
1.019267,-0.1675601,0.04150022
1.019882,-0.1657473,0.03675952
1.020154,-0.1625822,0.03507014
1.020966,-0.1638793,0.03786636
1.020136,-0.1646887,0.04230132
1.018816,-0.1642215,0.04883928
1.019567,-0.1657739,0.04791257
1.019282,-0.1659981,0.04408431
1.017412,-0.1671777,0.04180334
1.016087,-0.1691329,0.03783904
1.015544,-0.16835,0.04007016
1.015888,-0.1699214,0.0444696
1.018092,-0.1716836,0.04246451
1.022112,-0.1674641,0.04077618
1.022882,-0.1640084,0.04060501
1.019796,-0.1631417,0.04101336
1.01912,-0.162012,0.04547323
1.020455,-0.1641267,0.048605
1.02041,-0.164459,0.04877273
1.017056,-0.1606499,0.04870336
1.01208,-0.1581926,0.04730845
1.012785,-0.1576123,0.04713644
1.018714,-0.1638503,0.04745209
1.023135,-0.1719689,0.04793502
1.022851,-0.1700362,0.04917848
1.019875,-0.1671616,0.04845994
1.018111,-0.1668898,0.04848216
1.016162,-0.1627402,0.04885212
1.015918,-0.1625278,0.04783581
1.017623,-0.1636079,0.04610413
1.016628,-0.1597751,0.043911
1.018341,-0.1608845,0.04641109
1.021364,-0.1632026,0.0513677
1.01929,-0.1619478,0.0532102
1.016438,-0.163824,0.05475345
1.014671,-0.1642791,0.05570589
1.01584,-0.1634512,0.05296315
1.018068,-0.164315,0.04787212
1.017835,-0.1635855,0.04561809
1.018954,-0.1639611,0.04642845
1.018421,-0.1640659,0.04453074
1.017297,-0.1644456,0.0430346
1.019597,-0.168698,0.04511899
1.019677,-0.1718066,0.04553561
1.019139,-0.1704895,0.04496905
1.019759,-0.1686491,0.0443495
1.019201,-0.171386,0.04519778
1.019717,-0.1727016,0.04920487
1.020234,-0.1676913,0.04822324
