accx,accy,accz
0.9885424,0.02456399,0.2339501
0.9900083,0.02880656,0.2389557
0.9877458,0.02677405,0.2340663
0.9978473,0.03589975,0.2191046
0.9961708,0.03916003,0.221698
0.9921324,0.02164172,0.2202819
0.9901403,0.0002285588,0.2162158
0.9881325,0.00936307,0.2199367
0.9946928,0.04449568,0.2349742
0.992546,0.06116168,0.2547369
0.9963497,0.03577103,0.2401157
1.012597,-0.007009778,0.21822
1.026826,-0.01053419,0.2188214
1.029359,0.004810046,0.2151796
0.9892239,0.006936938,0.2298511
0.9521821,0.02285737,0.2581995
0.9739686,0.02277685,0.2536558
0.9990078,0.01063881,0.2456282
0.9982676,0.01646932,0.2528989
1.000494,0.01107972,0.2498562
1.000601,0.01110348,0.2507978
0.9934537,0.01752604,0.2570637
0.9927904,0.01675968,0.2539755
0.9937044,0.02600067,0.2512837
0.9961103,0.02657348,0.2470805
1.00048,0.02621741,0.2446005
0.9961816,0.03068899,0.2455382
0.994067,0.02534132,0.243032
0.9930733,0.02630257,0.2449486
0.988547,0.02559708,0.2450917
0.9903903,0.02310163,0.2431921
0.9911383,0.02676706,0.2464402
0.9916164,0.02354357,0.2484609
0.9940476,0.02034031,0.2522864
0.9943083,0.01492345,0.2517936
0.9963339,0.006815701,0.2480358
0.9978342,0.006662302,0.2518413
0.9972644,0.007454953,0.2514525
0.9954967,0.01112317,0.2472765
0.9939522,0.01738978,0.2445184
0.9926765,0.02149601,0.2414582
0.9925118,0.02876012,0.2439405
0.9938579,0.03781924,0.2463439
0.9926113,0.04420149,0.2473336
0.9932877,0.040555,0.24908
0.9955604,0.02965654,0.2482429
0.9966402,0.02373036,0.2497194
0.9981378,0.02595419,0.2505896
0.9966556,0.03820031,0.2491126
0.9951895,0.04852835,0.2485866
0.9916953,0.04625373,0.2458207
0.9873641,0.04133548,0.2433231
0.9919181,0.0357679,0.2418279
0.9966275,0.03046926,0.2433596
0.9954956,0.03401547,0.2481998
0.9939348,0.04034624,0.2485774
0.9925658,0.03912852,0.2497114
0.9930076,0.03681688,0.2513996
0.9943697,0.03453751,0.2481965
0.9943158,0.0284212,0.2465444
0.9936109,0.02831786,0.243323
0.9927626,0.02530742,0.2395243
0.9928865,0.01713564,0.239265
0.9931741,0.02635927,0.2379401
0.9920129,0.03961097,0.2392078
0.9913312,0.03960647,0.2393221
0.9917435,0.03771157,0.2369385
0.9917045,0.03711865,0.2380522
0.9928772,0.03528543,0.2372114
0.9979374,0.02717022,0.2372504
1.002387,0.01807455,0.2381813
0.9977071,0.0243434,0.2362178
0.9919341,0.03317482,0.2352689
0.9968041,0.03117429,0.2325361
1.000885,0.03278311,0.2322317
0.9993949,0.03416334,0.2327662
1.000365,0.02688932,0.2297388
1.000074,0.0185166,0.2331147
0.9991923,0.007539805,0.2365929
0.9982326,0.003992192,0.2350812
0.9936213,0.008009616,0.2361915
0.9924325,0.003608534,0.2374459
0.9962466,0.002370152,0.2400017
1.001783,0.002552464,0.2438304
1.00542,0.0004580227,0.2429074
1.001132,0.006400566,0.2420438
0.9951907,0.00617428,0.2439515
0.9935752,0.004298113,0.2433385
0.9932866,0.005504206,0.2447698
0.9955002,-0.004005455,0.2499842
0.9984127,-0.01461955,0.2515129
0.997369,-0.02048044,0.2518325
0.9968629,-0.023036,0.253325
1.00062,-0.02650088,0.2532767
1.005828,-0.02889291,0.2493783
1.009182,-0.02532627,0.2436316
1.005382,-0.03195059,0.2456294
1.000367,-0.03784747,0.2492697
1.003277,-0.03174932,0.24742
1.004668,-0.02682068,0.2463378
1.002935,-0.02017236,0.2438025
1.003082,-0.02190931,0.2449161
1.001252,-0.03188507,0.2529151
1.00345,-0.03718577,0.2570209
1.005444,-0.04277477,0.2560893
0.995182,-0.04264334,0.2537037
0.9858359,-0.04394782,0.2539322
0.9893944,-0.05757768,0.2559328
0.9979664,-0.07411793,0.2587855
1.005383,-0.08694227,0.2645047
1.010917,-0.08809319,0.2626044
1.01169,-0.08480763,0.2570907
1.012035,-0.08006013,0.2571478
1.015054,-0.06291517,0.2572018
1.012332,-0.05456481,0.2617851
1.0056,-0.06670142,0.2675473
0.9954836,-0.07758941,0.2703968
0.983208,-0.078922,0.2785361
0.9820024,-0.07581798,0.287546
0.9803668,-0.06868162,0.2928182
0.971738,-0.04892307,0.2958246
0.9675061,-0.01933981,0.3027814
0.9533281,-0.001907152,0.3142053
0.9341997,0.001336514,0.3194088
0.9343645,0.004533308,0.3290169
0.9408052,0.005160694,0.3441346
0.9402344,0.00217368,0.3424376
0.9393981,-0.001603927,0.3391003
0.9407751,-0.01425625,0.3540085
0.9519913,-0.02916643,0.3680543
0.972718,-0.03648043,0.3712104
0.9780587,-0.04051184,0.3714179
0.954591,-0.03850071,0.3730213
0.923528,-0.03725036,0.375672
0.9141902,-0.04641138,0.3743819
0.9296019,-0.0560715,0.3715419
0.9502514,-0.06178957,0.3680242
0.960716,-0.06779125,0.3608918
0.9549499,-0.07504864,0.3537398
0.9434147,-0.07941221,0.3473415
0.9399965,-0.0771403,0.3458888
0.9355194,-0.06632075,0.3443821
0.9285135,-0.04180253,0.3356381
0.9282182,-0.01726847,0.329828
0.9378825,-0.01148181,0.3244724
0.9658406,-0.01538909,0.3181678
0.9957036,-0.01475984,0.3123942
1.008036,-0.01100157,0.3008687
1.008037,-0.01216663,0.2972346
1.002923,-0.01412322,0.3005069
1.003555,-0.01732173,0.2980864
0.9955776,-0.03753108,0.2973206
0.9800975,-0.05867655,0.2931548
0.9833246,-0.05297771,0.2812797
0.9860364,-0.02725726,0.2736967
0.9909889,0.003721668,0.2742423
1.00623,0.01912734,0.2759659
1.002784,0.00293612,0.2746001
0.997958,-0.01716313,0.2730127
1.003162,-0.03625023,0.2653214
0.9914685,-0.07383393,0.2516663
0.9604697,-0.07874989,0.2486244
0.9368433,-0.04718631,0.251903
0.9601396,-0.03903367,0.2440576
1.007096,-0.03035861,0.2263512
1.021071,-0.0207521,0.2125769
1.018421,-0.02564175,0.2123557
1.0045,-0.01350799,0.2159458
0.9848206,-0.009321379,0.2116601
1.009659,-0.01306098,0.2061057
1.034531,-0.007472796,0.1984813
1.018883,-0.01171047,0.1834144
1.014422,-0.01141812,0.1704232
1.014039,-0.009239534,0.1679778
1.005257,-0.006250374,0.1691528
1.014621,0.004663092,0.1600762
1.027579,0.01064064,0.1500919
1.027004,0.02665537,0.1442583
1.011065,0.0488341,0.1340549
0.9904349,0.05550394,0.135129
0.9911447,0.04920049,0.1374406
1.00068,0.04000354,0.1343327
1.002402,0.02751464,0.1414432
1.010953,0.01702838,0.1362945
1.008716,0.04036065,0.122699
1.000791,0.06138912,0.1073781
1.030846,0.02229765,0.07236001
1.079155,-0.01896909,0.03578746
1.10504,-0.02818192,0.02079272
1.094044,-0.05830833,0.03570118
1.063422,-0.08328115,0.05510795
1.032765,-0.03903072,0.07684039
0.9979885,0.02829294,0.1117334
1.003866,0.06689429,0.1022817
1.034412,0.08567643,0.06847485
1.034643,0.07182198,0.05860595
1.053778,0.03877542,0.04892411
1.071545,0.007953162,0.05652715
1.06023,-0.01866678,0.06834864
1.061237,-0.01724012,0.07144967
1.034043,-0.01476222,0.09325992
0.9973687,-0.02343684,0.1069609
1.006713,-0.01947677,0.1121712
1.020298,-0.02569649,0.1098263
1.021071,-0.0289025,0.09961766
1.019629,-0.02263092,0.1145733
1.016536,-0.02514732,0.1261244
1.015861,-0.01830758,0.1287982
1.011846,-0.001744186,0.1436821
1.003474,0.03794818,0.1647752
0.9978783,0.08124019,0.1922955
1.003051,0.0739147,0.1901256
1.01326,0.0537657,0.1734969
1.019696,0.04757925,0.1762863
1.017911,0.02365026,0.1711696
1.001121,0.002979408,0.1813594
0.9804543,0.005820336,0.2068427
0.9747241,0.005058312,0.2103652
0.9876748,-0.0006797482,0.2064888
1.015161,-0.002646605,0.1920903
1.042014,-0.008625619,0.1728049
1.038764,-0.00584384,0.1773186
1.029251,0.007820675,0.1951057
1.057057,0.01608375,0.2055098
1.061932,0.01554724,0.2036031
0.9973928,0.0129742,0.2054111
0.9330598,0.01962709,0.2188717
0.9334225,0.03086767,0.2198045
0.9627328,0.05259049,0.2031748
0.9594309,0.08568663,0.1893599
0.9707697,0.08440764,0.1877594
1.01581,0.05179409,0.1929386
1.031001,0.03476244,0.1985943
1.019199,0.03257779,0.2123266
0.9902096,0.03536587,0.2244774
0.9691691,0.03607222,0.2142587
0.9768546,0.03237666,0.2038332
0.9887191,0.03284911,0.2044841
1.00872,0.02416644,0.1999844
1.01323,0.01248721,0.2010437
1.009825,0.01185497,0.2060064
1.019254,0.01215396,0.2059258
1.012237,0.01411848,0.2079175
1.004523,0.0138112,0.2068847
0.9993479,0.01135914,0.2062071
1.003003,0.0097596,0.206847
1.025714,0.00118692,0.2000148
1.026143,-0.002550252,0.1924621
0.9912746,0.007970274,0.1891212
0.9539517,0.02731754,0.1906694
0.9621867,0.05336239,0.1961205
0.9814451,0.07345557,0.2060617
0.9805676,0.04389075,0.2168776
1.01186,-0.01788223,0.2143816
1.01888,-0.0153838,0.2128003
0.9799482,0.031846,0.2240915
0.9741613,0.04699646,0.2266714
0.9912124,0.02055562,0.2157357
1.028453,-0.02917795,0.2013912
1.058138,-0.03319692,0.1965011
1.032228,-0.001416281,0.2040207
1.004641,0.01313839,0.209157
0.9957166,0.02897213,0.2131303
0.9949172,0.02523437,0.2108242
1.007808,0.019341,0.1978489
1.012605,0.02427054,0.1926557
1.005838,0.008133305,0.1933357
0.9981036,0.004063371,0.1930776
1.000407,-0.002197959,0.1929885
1.010073,-0.01878158,0.191553
1.019933,-0.01499638,0.195958
1.026811,-0.009172952,0.2045751
1.010107,0.0003591047,0.2093481
0.9867181,0.008365647,0.2068077
0.9848007,0.006524917,0.2011916
0.9968889,0.006836646,0.1921679
1.013728,0.00774212,0.1757888
1.020171,0.005328324,0.1736626
1.015168,-0.01294666,0.184334
1.014067,-0.0336839,0.1871454
1.015932,-0.03382354,0.1910636
1.01549,-0.0274606,0.1911626
1.014683,-0.02925345,0.1855669
1.0148,-0.0277676,0.1873282
1.010847,-0.02020316,0.1883438
1.005489,-0.01884918,0.1869322
1.002952,-0.002875743,0.1881477
0.999064,0.02513406,0.1902965
0.9988681,0.02876523,0.1927532
1.002381,0.01825217,0.1937292
1.004921,0.01145573,0.1944963
1.009566,0.007068748,0.195753
1.008789,-0.001238364,0.1993273
1.00212,-0.01726462,0.2063068
1.000714,-0.02675632,0.2069906
1.00387,-0.0222537,0.1965061
1.013857,-0.01778618,0.1864673
1.02502,-0.01971826,0.186415
1.021522,-0.01394808,0.1903798
1.015966,-0.008314045,0.1913007
1.01701,-0.009818544,0.1938472
1.012115,0.001167245,0.2016764
1.007622,0.01540435,0.2055129
1.007919,0.01887445,0.1988008
1.00775,0.01806665,0.1897144
1.010113,0.01244064,0.1854908
1.014002,-0.001370639,0.1848529
1.019464,-0.01209292,0.1882985
1.018958,-0.008167219,0.1939211
1.005378,-0.008008013,0.194696
0.9967328,-0.01717194,0.1935004
1.001545,-0.02343724,0.1928723
1.007696,-0.02654442,0.1880418
1.011438,-0.02080205,0.1813433
1.019907,-0.01639456,0.1723831
1.029178,-0.01884073,0.1629144
1.028024,-0.01686867,0.1600924
1.02513,-0.01341027,0.1616566
1.020765,-0.007477794,0.168548
1.007448,0.001661358,0.1819127
0.997979,0.01617739,0.1960796
0.9951458,0.03238101,0.2026528
0.9937758,0.03396386,0.1976185
0.9919895,0.02946194,0.1951857
0.9913503,0.02571749,0.1932836
0.9979699,0.01761376,0.1806092
1.008365,0.01362014,0.1723411
1.017273,0.009090945,0.1665758
1.016878,-0.006546129,0.1577505
1.013159,-0.02419655,0.158332
1.017533,-0.0285695,0.1615907
1.018114,-0.02480643,0.1655823
1.016371,-0.02804288,0.1760241
1.01455,-0.02776091,0.1819247
1.008037,-0.02015164,0.1773086
1.009407,-0.01748942,0.170618
1.012928,-0.01274053,0.1688376
1.011969,-0.005172421,0.1691619
1.013079,-0.0002513061,0.1715502
1.012308,0.0003694221,0.1762841
1.01221,-0.004231513,0.180642
1.013052,-0.002817756,0.1841598
1.011997,-0.001562101,0.1850558
1.012382,-0.004327642,0.1874422
1.010249,-0.001755455,0.1880314
1.006212,-0.003022978,0.1831996
1.004859,-0.004442377,0.1796628
1.005408,-0.003312758,0.1745986
1.00694,-0.005206039,0.1709377
1.010079,-0.003584793,0.1674817
1.015571,-0.004018934,0.1591418
1.016165,-0.008091402,0.1581239
1.011401,-0.01955089,0.16259
1.010597,-0.0356023,0.1674412
1.011759,-0.03330156,0.1743875
1.013716,-0.0330462,0.1735766
1.016326,-0.05370484,0.1701608
1.015309,-0.06338688,0.1730907
1.014104,-0.05379073,0.1729415
1.012075,-0.03830472,0.17194
1.008504,-0.02185005,0.1739124
1.008715,-0.01211854,0.168883
1.007967,-0.001890596,0.1633485
1.005157,0.006556407,0.1635855
1.009555,0.0002166807,0.1640546
1.014955,0.000132956,0.1710328
1.012502,0.004554162,0.1788401
1.012521,-0.007046148,0.1727758
1.016097,-0.01267008,0.1623332
1.014875,-0.01005294,0.1586886
1.013016,-0.01234316,0.1580561
1.011287,-0.01293625,0.1660617
1.009393,-0.01465996,0.1811797
1.010284,-0.01516381,0.1828205
1.011427,-0.01349613,0.1776512
1.012908,-0.01225273,0.1775583
1.01301,-0.01163174,0.1722122
1.012144,-0.0135696,0.1668941
1.015183,-0.0120367,0.1666962
1.018621,-0.0119485,0.1659583
1.01935,-0.01271009,0.1683155
1.015669,-0.01076461,0.1739224
1.009462,-0.01323574,0.1770715
1.008846,-0.013188,0.1795998
1.010519,-0.01364185,0.18298
1.010408,-0.01751023,0.1804708
1.011361,-0.01667667,0.1741047
1.011131,-0.01644726,0.1695828
1.00992,-0.01599221,0.170219
1.009627,-0.01200196,0.1777669
1.009057,-0.007128284,0.1828657
1.007184,-0.001678471,0.1866212
1.004891,0.003294654,0.1892389
1.006398,0.003916232,0.1855158
1.009753,-0.001179598,0.1831822
1.010155,-0.002329373,0.1797857
1.010342,-0.000235589,0.1790909
1.010205,-0.000170807,0.1833242
1.007467,0.001300531,0.1840773
1.005317,-0.002920532,0.1871553
1.005331,-0.009024986,0.1819468
1.006457,-0.009312353,0.1727288
1.00911,-0.01254109,0.1805084
1.012096,-0.01621245,0.1855547
1.011674,-0.01502445,0.1803842
1.010018,-0.01309379,0.1773536
1.010447,-0.01218886,0.1740639
1.008439,-0.01198215,0.1762028
1.005956,-0.01036052,0.1830702
1.00739,-0.006522059,0.1854546
1.008599,-0.003996551,0.1855162
1.008473,-0.003291981,0.1844086
1.007254,0.000915688,0.1804802
1.006636,0.003912611,0.1776652
1.008168,-0.001994236,0.1790782
1.008115,-0.009312015,0.1789081
1.006595,-0.01259371,0.1758128
1.005191,-0.01309845,0.1762535
1.006775,-0.01123238,0.176821
1.011479,-0.008040323,0.1758969
1.013277,-0.004578737,0.1765633
1.011789,-0.00585876,0.1754041
1.007678,-0.009114471,0.1750908
1.004725,-0.006929437,0.177901
1.008413,-0.004510159,0.1791516
1.013129,-0.00426737,0.1760061
1.014484,-0.004784452,0.1718533
1.016336,-0.007882845,0.1734403
1.018761,-0.01082996,0.1747136
1.016396,-0.01406662,0.1726624
1.012983,-0.01775201,0.1739084
1.014028,-0.01977266,0.1739132
1.014111,-0.02039501,0.1728601
1.013541,-0.01855492,0.1732181
1.014207,-0.0179935,0.1710116
1.013518,-0.01683592,0.1677502
1.01303,-0.01414565,0.1624856
1.012329,-0.01740235,0.1595318
1.012217,-0.01917492,0.1634819
1.012884,-0.01684509,0.1661612
1.012283,-0.0156564,0.1699474
1.012484,-0.01302509,0.1773965
1.012496,-0.01327792,0.1778102
1.011398,-0.01385118,0.1739175
1.011518,-0.01162738,0.1714383
1.013647,-0.0123549,0.1668659
1.015534,-0.01183743,0.1670422
1.012028,-0.009343553,0.1715954
1.007865,-0.008669625,0.1698041
1.009777,-0.008690902,0.1658587
1.010039,-0.01196908,0.1616312
1.006273,-0.01886854,0.157375
1.006942,-0.02304605,0.1571851
1.016007,-0.02279858,0.1559652
1.027608,-0.02418652,0.1551757
1.028331,-0.02633826,0.1552627
1.021968,-0.02638697,0.1574161
1.020923,-0.03077436,0.1635274
1.019195,-0.03757527,0.1616651
1.018312,-0.04481871,0.1602479
1.020751,-0.0568721,0.1636571
1.018868,-0.05933575,0.1583738
1.018046,-0.04610851,0.1553443
1.01477,-0.02913099,0.1580021
1.007722,-0.01051017,0.1599702
1.009258,-0.004804238,0.1639199
1.012018,-0.01256795,0.1655029
1.014195,-0.009861063,0.1650844
1.019944,-0.007873043,0.1644311
1.018901,-0.01186423,0.1629598
1.016457,-0.01009766,0.1610916
1.018406,-0.01396169,0.156995
1.015337,-0.01764933,0.1523519
1.011453,-0.01801507,0.1485215
1.012784,-0.02644961,0.147449
1.013984,-0.03306723,0.1477836
1.015306,-0.03496529,0.1467506
1.015762,-0.03616623,0.1482123
1.01321,-0.035941,0.1498589
1.013753,-0.03563797,0.1513475
1.016402,-0.03277031,0.1562463
1.01684,-0.03048705,0.1574912
1.016641,-0.03005069,0.1554255
1.015643,-0.02717293,0.1563512
1.014944,-0.02453612,0.1576491
1.015005,-0.02222486,0.1610528
1.013523,-0.01549933,0.164993
1.012272,-0.01061723,0.1605409
1.01445,-0.01377073,0.155098
1.018193,-0.01752046,0.1570861
1.019342,-0.02019119,0.1571212
1.017804,-0.02108525,0.1534902
1.014353,-0.01793241,0.1521874
1.011534,-0.01527116,0.1515968
1.014072,-0.007603279,0.1526705
1.016309,-0.0004244019,0.159569
1.012385,-0.00693682,0.1726739
1.008028,-0.01231818,0.18044
1.006544,-0.005816003,0.1746369
1.009074,0.002639372,0.1685619
1.014525,0.006082099,0.1662185
1.015546,-0.0001453157,0.1643441
1.011184,-0.01232795,0.1659813
1.006662,-0.01686487,0.1643496
1.006777,-0.01644331,0.1628044
1.0139,-0.01804554,0.1653725
1.026855,-0.01377609,0.1671819
1.037537,-0.009035273,0.1741186
1.031363,-0.01340812,0.1781655
1.014183,-0.02250421,0.1721762
1.006135,-0.02945268,0.1696451
1.011147,-0.02378949,0.1727864
1.018804,-0.01549108,0.1743288
1.014364,-0.01861196,0.1716522
1.006422,-0.01494017,0.1697834
1.006025,-0.005955221,0.17268
1.004646,-0.00832937,0.1780342
1.009018,-0.004430895,0.1840653
1.013483,0.004953295,0.1832301
1.011093,-0.00127285,0.1781726
1.011775,-0.009355484,0.177737
1.009153,-0.009480093,0.1776038
1.011053,-0.008674808,0.1786477
1.016523,-0.006949941,0.1796211
1.013632,-0.01222813,0.1768073
1.011274,-0.01984933,0.1765608
1.007425,-0.0183152,0.1790426
1.009071,-0.01654104,0.1808415
1.014584,-0.01509121,0.1784263
1.011611,-0.01027226,0.1745871
1.012381,-0.007578709,0.1769938
1.013251,-0.005885771,0.179272
1.011216,-0.008027346,0.1806002
1.01108,-0.01301116,0.1830697
1.006897,-0.0105427,0.1807868
1.005184,-0.00783139,0.1797814
1.006416,-0.009874853,0.1811516
1.008216,-0.007673552,0.1800954
1.012628,-0.005784871,0.1793289
1.013603,-0.006018515,0.1772426
1.013804,-0.004542661,0.1750028
1.015915,-0.005099958,0.1735303
1.014877,-0.00412527,0.1698133
1.011196,-0.003389307,0.1683621
1.008842,-0.005056849,0.1713631
1.009438,-0.005848536,0.1767385
1.010257,-0.01548199,0.1821553
1.009535,-0.02855121,0.180113
1.00953,-0.02960075,0.1735928
1.01039,-0.02624893,0.1723728
1.01133,-0.02514094,0.1703723
1.012997,-0.01875539,0.1669529
1.012568,-0.007021876,0.1698209
1.009528,-0.0004118027,0.1719704
1.00719,0.001043114,0.1719851
1.00606,0.004158963,0.1788357
1.007161,0.005255632,0.1896917
1.008188,0.003463166,0.192427
1.009422,0.004096383,0.1871204
1.012404,0.00469837,0.1848943
1.010241,0.003482677,0.1811978
1.008418,0.003439919,0.1728218
1.011084,0.002709758,0.1699497
1.01153,0.002269886,0.1684126
1.014554,0.002098488,0.1622858
1.016292,-0.003909601,0.1599514
1.012676,-0.01041841,0.1651528
1.012108,-0.01379379,0.168037
1.01291,-0.02398094,0.1644447
1.014466,-0.03749796,0.1629757
1.017236,-0.03853168,0.1638256
1.018642,-0.03351167,0.1622092
1.019239,-0.03478856,0.1607863
1.015447,-0.03229426,0.1630348
1.009774,-0.02588138,0.1671104
1.008927,-0.01671591,0.1692538
1.01102,-0.000934329,0.1715061
1.011758,0.003057002,0.1730995
1.011711,0.0003598783,0.1721263
1.012831,0.00143639,0.1729586
1.012352,-0.006621407,0.1746965
1.010336,-0.01013224,0.1761919
1.009619,-0.006991952,0.1779344
1.010341,-0.01012398,0.1746447
1.011703,-0.009338024,0.167681
1.011351,-0.006624406,0.1652404
1.011576,-0.005358882,0.1669323
1.013179,-0.005127127,0.1670444
1.012445,-0.00928405,0.1653997
1.013263,-0.01017869,0.1623077
1.01821,-0.01122463,0.1593616
1.021549,-0.01976341,0.163485
1.017035,-0.03314581,0.1691724
1.008572,-0.03957555,0.1666941
1.007193,-0.03044019,0.1660542
1.009887,-0.02188773,0.1717816
1.009877,-0.01719272,0.1754571
1.009394,-0.008841017,0.1803807
1.007835,-3.991682e-05,0.1880249
1.006568,0.01196499,0.1907496
1.008682,0.01385016,0.1839901
1.013252,0.005210631,0.1747283
1.016365,0.00490323,0.1754534
1.013703,0.003452351,0.1778493
1.010774,0.002667794,0.173812
1.011051,0.01154174,0.1685633
1.009561,0.01738658,0.1618098
1.008998,0.01489952,0.1622992
1.011114,0.001685754,0.166854
1.013142,-0.01029625,0.1653598
1.01659,-0.006268111,0.1684717
1.018849,-0.00308921,0.1700465
1.019118,-0.006963701,0.1679438
1.020203,-0.007558413,0.1722901
1.018662,-0.01379072,0.1695813
1.016304,-0.02484876,0.1604137
1.015228,-0.02365075,0.1542952
1.014039,-0.01970283,0.1490577
1.014184,-0.02266827,0.147155
1.012037,-0.02063537,0.1461676
1.011569,-0.01939193,0.1469614
1.0134,-0.02037011,0.14405
1.010014,-0.01761442,0.131742
1.00976,-0.02464181,0.1203152
1.013981,-0.04002634,0.1126471
1.016652,-0.05546496,0.1140766
1.016837,-0.07424137,0.1166449
1.013744,-0.09087034,0.1109468
1.013489,-0.09660388,0.1123894
1.012415,-0.09891556,0.1130568
1.00989,-0.1069511,0.1097027
1.013235,-0.1064963,0.1142694
1.019181,-0.1060485,0.1165918
1.026069,-0.1214343,0.1141452
1.026495,-0.1268528,0.1155547
1.02174,-0.1223842,0.1298701
1.018782,-0.1173534,0.1447869
1.012618,-0.1065275,0.1396644
1.016059,-0.1069274,0.1298214
1.025704,-0.1102074,0.1275898
1.025319,-0.1062513,0.131492
1.027635,-0.1037071,0.1383096
1.026488,-0.09608058,0.1387528
1.016319,-0.0879734,0.1425912
1.014346,-0.08328069,0.1479841
1.017634,-0.08294814,0.1354052
1.021488,-0.09075498,0.1211251
1.023495,-0.09598582,0.125816
1.020799,-0.09844386,0.1351534
1.018782,-0.1015172,0.1385851
1.016184,-0.0977949,0.1382216
1.017584,-0.0921181,0.1349013
1.021099,-0.09441707,0.1360436
1.016788,-0.09833331,0.1403023
1.011039,-0.09929712,0.145124
1.007307,-0.09929822,0.1523923
1.008065,-0.08328755,0.1512391
1.011579,-0.05561761,0.1483105
1.009188,-0.04520636,0.1539349
1.009218,-0.04649647,0.1545963
1.01174,-0.04065715,0.150102
1.010546,-0.03085923,0.1460257
1.011427,-0.02925169,0.1440375
1.009839,-0.04512884,0.1509513
1.003432,-0.06846067,0.1567421
0.9987823,-0.07814455,0.1541025
1.001435,-0.07507753,0.15319
1.010198,-0.07427578,0.1552055
1.014337,-0.06150868,0.1564992
1.015731,-0.02253108,0.1599105
1.017418,0.01204646,0.1634611
1.020483,0.03133741,0.1627274
1.028399,0.05208593,0.1643135
1.024341,0.0578057,0.1743443
1.005001,0.04211057,0.1894837
0.9848636,0.0281663,0.1989157
0.9742922,0.02134866,0.1944381
0.9792598,0.01454817,0.1904482
0.9840178,-0.0002924008,0.191143
0.9918637,-0.01962652,0.1859234
1.011507,-0.0208552,0.1856693
1.023285,-0.005752635,0.1850683
1.030757,0.004994385,0.1750074
1.034918,0.01059003,0.1737123
1.028076,0.01337768,0.1798596
1.023489,0.01473937,0.187664
1.022232,0.02443763,0.1983713
1.015776,0.04779632,0.2036878
0.9972696,0.06981194,0.2083527
0.9813701,0.07239191,0.2074317
0.9889048,0.06810081,0.1991299
0.9980014,0.06360327,0.2013859
0.9955683,0.05134664,0.2012393
0.9984109,0.04132903,0.1937521
1.004113,0.02886381,0.1953171
1.008362,0.01064921,0.1947943
1.015408,0.004848504,0.191385
1.015293,0.009811138,0.1863236
1.01055,0.01396999,0.1744167
1.010732,0.01736892,0.1759945
1.005825,0.02131477,0.1880071
1.002509,0.02468227,0.1953612
1.00802,0.028643,0.1998061
1.010034,0.03271541,0.1969866
1.009701,0.03019364,0.1957784
1.00882,0.01877703,0.1954733
1.008115,0.006130279,0.1878262
1.011188,0.004466324,0.1848545
1.015067,0.009805515,0.1831993
1.016907,0.008082069,0.1822262
1.010564,0.004713254,0.1851044
1.001361,0.001566166,0.1834178
1.001213,-0.004255457,0.1846214
1.0072,-0.005116281,0.1830099
1.011582,-0.006711065,0.1769541
1.010033,-0.008591063,0.1799434
1.008561,-0.005271067,0.1801006
1.010524,-0.005319732,0.1807088
1.010204,-0.004420395,0.1854471
1.011933,-0.002509052,0.1820309
1.015273,-0.003548842,0.1793494
1.013159,2.803527e-05,0.1762163
1.009694,0.002003594,0.1703451
1.008331,0.00121194,0.1685835
1.010926,-0.00127402,0.1720132
1.016892,-0.008068559,0.1789127
1.018713,-0.006293081,0.1749146
1.018372,-0.002401459,0.1689306
1.018442,-0.001798125,0.1720281
1.01382,0.004789373,0.1704634
1.009212,0.003900675,0.1710498
1.00967,-0.0007864559,0.1754172
1.011795,0.0006288243,0.1752422
1.013595,-0.003015171,0.1711076
1.015594,-0.00396854,0.163971
1.018969,-0.001419819,0.165465
1.019818,-0.004481136,0.1671782
1.01542,-0.007173676,0.1616151
1.012608,-0.01059793,0.164197
1.013717,-0.01005843,0.1654679
1.013143,-0.002938598,0.1617896
1.010108,0.001412327,0.1630777
1.009218,0.003368224,0.1643245
1.011037,-0.0004806847,0.1672109
1.012354,-0.005096282,0.1697884
1.012714,-0.001240689,0.1683497
1.012522,0.002205538,0.1643593
1.012167,0.003783704,0.1594478
1.011744,0.000716106,0.1627836
1.010797,-0.006353197,0.1678453
1.011129,-0.004346738,0.1675903
1.011958,-0.001869425,0.1714145
1.011145,-0.003701976,0.1779307
1.011258,-0.002404747,0.1803385
1.013637,-0.003625849,0.1724097
1.014569,-0.005110653,0.1625059
1.012617,-0.004567468,0.1656019
1.011834,-0.005487011,0.165461
1.011967,-0.003016039,0.1586787
1.010696,-0.0003631684,0.1642869
1.0106,-0.002297329,0.170604
1.009701,-0.00351293,0.1698684
1.007664,-0.001857619,0.171128
1.009475,0.00102047,0.1684209
1.012627,0.003550815,0.1633244
1.01457,0.003187569,0.1613654
1.015196,0.0004014941,0.1593629
1.011736,-0.00278988,0.1583655
1.008275,-0.007662033,0.1592373
1.009585,-0.00977684,0.1629352
1.010497,-0.006463305,0.1649579
1.009534,-0.005614192,0.1617611
1.011893,-0.005846348,0.1586316
1.015167,-0.004807115,0.1558337
1.015642,-0.005302318,0.1555041
1.015119,-0.005213342,0.1573769
1.014196,-0.008159429,0.1606946
1.013167,-0.01127584,0.1684256
1.011911,-0.009350311,0.1691458
1.012311,-0.009347827,0.1629478
1.015217,-0.01023544,0.1619158
1.014584,-0.009046533,0.1625961
1.012491,-0.007648668,0.1635318
1.013551,-0.004699249,0.1643432
1.012519,-0.003280036,0.1635741
1.011697,-0.004460912,0.1640595
1.01328,-0.004699918,0.1629837
1.011886,-0.005658791,0.1591013
1.010422,-0.007661025,0.1549299
1.010804,-0.007350702,0.1555738
1.014387,-0.007286685,0.1623574
1.01958,-0.008604381,0.1675348
1.014883,-0.006652391,0.1704597
1.008836,-0.004737418,0.1734882
1.012696,-0.006802056,0.1755395
1.017015,-0.008217337,0.1757083
1.020262,-0.007501547,0.1745736
1.020679,-0.006718562,0.176574
1.016217,-0.006577299,0.1773731
1.010632,-0.006119599,0.1768358
1.001588,-0.004307283,0.1838854
1.003027,-0.004940834,0.1844311
1.019731,-0.01122514,0.1583013
1.027799,-0.01916571,0.1259061
1.020619,-0.02308946,0.1288336
1.008639,-0.02297839,0.1551605
1.005447,-0.02047803,0.1650859
1.013246,-0.01318167,0.1645482
1.017009,0.0004988443,0.1624428
1.015489,0.01224016,0.1516147
1.01379,0.003717565,0.1375769
1.011876,-0.0137458,0.1347494
1.009769,-0.009120807,0.1474384
1.011278,0.002183053,0.1521223
1.016981,0.007739202,0.1487185
1.015546,0.01675209,0.1513243
1.013966,0.01523873,0.1507878
1.016484,0.01022387,0.1515521
1.013585,0.003897572,0.1503848
1.013614,-0.007469443,0.1483736
1.014418,-0.002984936,0.1529915
1.013031,-0.0001596068,0.1534473
1.013277,-0.004726609,0.1588247
1.010065,0.001601658,0.1666595
1.010129,0.005053257,0.1677543
1.015438,0.004874058,0.1689359
1.018756,0.001835616,0.1664554
1.015366,-0.003803598,0.1662652
1.00993,-0.002485534,0.1673716
1.01279,-0.006664078,0.1642578
1.01368,-0.01397316,0.159254
1.011119,-0.01125572,0.1521983
1.01328,-0.008163332,0.1579772
1.012505,-0.007768562,0.1703813
1.011598,-0.004847185,0.1718992
1.011403,-0.00597896,0.1721823
1.008673,-0.01028223,0.1767469
1.009845,-0.009860037,0.1823407
1.011197,-0.01043903,0.181874
1.010475,-0.01111378,0.1775894
1.009523,-0.007075805,0.1776412
1.006697,-0.005218936,0.1753531
1.006926,-0.008178096,0.1768026
1.010173,-0.01293656,0.1801778
1.011677,-0.01312822,0.1744637
1.011579,-0.01050756,0.1724318
1.011202,-0.01051175,0.171614
1.011107,-0.00961339,0.1717772
1.009516,-0.01130036,0.1784764
1.00894,-0.01382999,0.1765152
1.011025,-0.01300214,0.1750146
1.012217,-0.01371533,0.1779694
1.013798,-0.01244698,0.1755256
1.012117,-0.009955772,0.1774886
1.007842,-0.01063487,0.1794575
1.009808,-0.01139228,0.1814792
1.011228,-0.0117951,0.1861571
1.011365,-0.01109473,0.1822241
1.015232,-0.00972779,0.1792654
1.014114,-0.009695388,0.1836927
1.011544,-0.009725379,0.1845014
1.01129,-0.009658329,0.1774503
1.009188,-0.009819486,0.1709089
1.011232,-0.009667728,0.1736358
1.013838,-0.009694471,0.1765287
1.012067,-0.009988193,0.1744958
1.012287,-0.01052649,0.1751156
1.012725,-0.01142176,0.1768782
1.010951,-0.01160658,0.17677
1.008798,-0.01260808,0.1770467
1.005945,-0.01462605,0.1784023
1.005422,-0.01391046,0.179836
1.008978,-0.01210582,0.1791461
1.013333,-0.0111552,0.1728413
1.014858,-0.01154312,0.166052
1.013668,-0.01641098,0.1706044
1.013767,-0.01991943,0.1763253
1.015507,-0.01678274,0.1694519
1.017164,-0.01299405,0.1639324
1.018653,-0.0104824,0.1640622
1.017705,-0.01001499,0.1636215
1.014708,-0.01120982,0.1671626
1.012511,-0.009246147,0.1689778
1.011891,-0.009249568,0.1689432
1.013154,-0.01160516,0.1744941
1.014463,-0.01076131,0.1794859
1.015417,-0.01121119,0.1772385
1.01582,-0.01139385,0.169227
1.014248,-0.01111707,0.1649359
1.012636,-0.01428282,0.1664694
1.01084,-0.01587597,0.1679277
1.0112,-0.01512227,0.1702431
1.013712,-0.0128697,0.1723256
1.012107,-0.01006401,0.1703675
1.011031,-0.009727298,0.1664206
1.011639,-0.0113028,0.16771
1.01081,-0.0134084,0.169793
1.013383,-0.01242153,0.1688232
1.015339,-0.0109555,0.1726156
1.014183,-0.01146693,0.1725132
1.01294,-0.01089974,0.1673815
1.011819,-0.01210993,0.1660904
1.012944,-0.01301496,0.1645715
1.013404,-0.01128903,0.1654651
1.012842,-0.008202142,0.16667
1.012744,-0.004665766,0.1666379
1.012321,-0.007656433,0.1690849
1.014934,-0.01154424,0.1699146
1.017398,-0.008443245,0.1707313
1.016593,-0.007048894,0.1695135
1.014623,-0.007590631,0.1668945
1.012821,-0.006604373,0.1680519
1.012625,-0.008668497,0.1671465
1.012356,-0.009982109,0.164247
1.013917,-0.00788698,0.1632296
1.017251,-0.006402357,0.1635156
1.018283,-0.004189404,0.1648231
1.017402,-0.00429383,0.1653532
1.015035,-0.009301446,0.1637685
1.014896,-0.01206568,0.1621299
1.015474,-0.00895273,0.1627636
1.012488,-0.0007832747,0.1632795
1.009486,0.004327406,0.1656675
1.007932,-0.001698698,0.1696279
1.010785,-0.008545992,0.1678595
1.014665,-0.007352876,0.1651852
1.01464,-0.005966135,0.1645871
1.016164,-0.007410577,0.1631578
1.015546,-0.005674386,0.164019
1.012027,-0.003053889,0.164959
1.011149,-0.003210764,0.1669745
1.011203,-0.005105222,0.1708642
1.014678,-0.007904268,0.1691013
1.017519,-0.00640854,0.1643371
1.015444,-0.00482599,0.1613212
1.015369,-0.008895852,0.1607486
1.015057,-0.0102154,0.16306
1.014189,-0.007818166,0.161551
1.017208,-0.006640154,0.1595309
1.017053,-0.008477766,0.162181
1.013042,-0.01090539,0.1611628
1.011594,-0.008966564,0.1602589
1.010718,-0.006613404,0.1627967
1.009299,-0.005311444,0.1641395
1.010588,-0.004845447,0.1673335
1.015377,-0.006637007,0.1658341
1.019594,-0.007168711,0.1618536
1.017718,-0.008154182,0.1645588
1.012476,-0.007340573,0.1639946
1.01029,-0.00414929,0.1612068
1.010979,-0.006204288,0.1616688
1.012432,-0.008922963,0.162898
1.012787,-0.009750181,0.1672516
1.012235,-0.009963629,0.1683429
1.012849,-0.006400165,0.1651071
1.013379,-0.004930929,0.1628941
1.014015,-0.0068168,0.1590861
1.014054,-0.008092278,0.1568144
1.012576,-0.008461075,0.156497
1.012423,-0.006296054,0.1562944
1.012594,-0.06447432,0.1091106
1.016661,-0.08004738,0.09502604
1.034881,-0.08069293,0.07575509
1.04425,-0.07600506,0.06877009
1.029477,-0.07736456,0.0819549
1.015225,-0.07526835,0.09740306
1.02262,-0.07028716,0.1003676
1.036866,-0.06507817,0.09881627
1.039407,-0.05463516,0.1010839
1.030723,-0.05461618,0.1147804
1.012632,-0.06223588,0.1268533
1.008064,-0.06466739,0.1116606
1.017459,-0.06468129,0.09013073
1.018404,-0.05381855,0.0836092
1.025015,-0.03580289,0.07238511
1.025093,-0.02329575,0.061687
1.013751,-0.02118187,0.06795104
1.014746,-0.0346619,0.07060825
1.016856,-0.06309787,0.06696348
1.019792,-0.1026267,0.07408563
1.018512,-0.1329212,0.07777979
1.012429,-0.1397344,0.07081546
1.019619,-0.1343031,0.06518582
1.022684,-0.1159836,0.06393224
1.02147,-0.08563636,0.06531513
1.024151,-0.06568284,0.06436601
1.026126,-0.06634447,0.06414376
1.036482,-0.0711391,0.06553652
1.041435,-0.07502186,0.0673228
1.0347,-0.088046,0.07932905
1.026131,-0.09587039,0.09173511
1.015376,-0.09218407,0.09181592
1.010455,-0.09087861,0.09160972
1.011625,-0.08718318,0.09440299
1.014537,-0.08015419,0.09091885
1.019885,-0.07676362,0.08712785
1.023043,-0.07419161,0.08727016
1.022422,-0.07336785,0.08380448
1.0217,-0.07467935,0.08240026
1.02258,-0.07674047,0.08289181
1.021495,-0.08214064,0.08240386
1.01838,-0.08608152,0.08463003
1.017015,-0.08607215,0.07511937
1.021493,-0.09290338,0.05954171
1.028453,-0.1041869,0.05728412
1.027005,-0.1091646,0.06458312
1.025556,-0.1132133,0.06952113
1.031271,-0.1175426,0.05981604
1.033694,-0.1179797,0.05050893
1.033022,-0.117326,0.05462409
1.029408,-0.1154214,0.05642474
1.021551,-0.1142061,0.06123284
1.016787,-0.1117342,0.07510612
1.018107,-0.0982294,0.08081882
1.022607,-0.07938421,0.07447956
1.023678,-0.06862284,0.07242915
1.020028,-0.0649455,0.07932159
1.017414,-0.06430669,0.08323123
1.02016,-0.07108595,0.08443768
1.02396,-0.08249288,0.0876774
1.021107,-0.08558236,0.08966303
1.019642,-0.08142527,0.08825231
1.022366,-0.07770927,0.08646895
1.023083,-0.0731798,0.0884202
1.025347,-0.06976231,0.09045961
1.023628,-0.06604664,0.0911761
1.018738,-0.06188428,0.08841207
1.019384,-0.06321808,0.08147682
1.019452,-0.06109998,0.08126589
1.018302,-0.05397032,0.08611772
1.018077,-0.05322183,0.09190561
1.018576,-0.0531706,0.09690205
1.02288,-0.05186708,0.0885766
1.026267,-0.05346434,0.07722388
1.025358,-0.05766475,0.07947341
1.024447,-0.08168962,0.08567066
1.026135,-0.121305,0.08848373
1.026988,-0.1341103,0.08660862
1.026856,-0.117593,0.07491414
1.030994,-0.1015806,0.05496068
1.034637,-0.08648119,0.04322197
1.031096,-0.0721157,0.05980633
1.022881,-0.05239312,0.08800502
1.016853,-0.02711578,0.09751956
1.016949,-0.03936976,0.09919728
1.016555,-0.06269958,0.1062762
1.014117,-0.05620503,0.107167
1.015546,-0.06266038,0.09523233
1.017354,-0.06511714,0.08097498
1.019988,-0.05412294,0.07740079
1.027415,-0.06096376,0.07851724
1.030918,-0.05879792,0.0800187
1.027592,-0.06140151,0.08323648
1.025233,-0.07172631,0.0835952
1.024614,-0.0682023,0.09004867
1.023105,-0.07105296,0.1012434
1.019052,-0.06680702,0.1024853
1.015462,-0.06017688,0.09880202
1.019011,-0.06457433,0.09557546
1.025447,-0.06465949,0.08641535
1.027007,-0.06602677,0.07789472
1.024661,-0.06611754,0.07913537
1.022869,-0.06642731,0.07945153
1.024425,-0.0681794,0.0797586
1.025499,-0.06824769,0.08665645
1.021786,-0.0721616,0.08885678
1.016165,-0.06967189,0.09351806
1.014035,-0.06536911,0.09913872
1.022065,-0.06507526,0.08346814
1.033611,-0.0627834,0.06748257
1.032841,-0.06272357,0.07445915
1.027225,-0.06329622,0.08279272
1.025645,-0.06539798,0.08263344
1.022422,-0.06840061,0.08155575
1.021871,-0.07094659,0.07841097
1.024522,-0.07626388,0.08017707
1.025261,-0.07997082,0.08500857
1.025139,-0.08099416,0.08213882
1.023741,-0.07304323,0.07894037
1.023373,-0.05958226,0.07585217
1.023278,-0.05980917,0.07347358
1.020709,-0.0656129,0.07912599
1.019008,-0.06534585,0.08467863
1.020463,-0.06523353,0.08872332
1.024335,-0.06435508,0.08817675
1.025825,-0.06428119,0.08197273
1.02457,-0.0687903,0.08088729
1.023924,-0.0728334,0.0771285
1.022276,-0.07210637,0.07180183
1.020958,-0.06937169,0.07374509
1.020884,-0.06874848,0.07610963
1.02195,-0.06565843,0.07885529
1.024528,-0.05986537,0.08298743
1.02512,-0.05740458,0.08579887
1.023235,-0.05700751,0.08329817
1.021492,-0.06131883,0.08011459
1.022058,-0.06868343,0.08278462
1.022779,-0.0711327,0.08178202
1.022334,-0.07210177,0.07938263
1.024972,-0.07396683,0.07946987
1.027077,-0.07308916,0.07821216
1.024233,-0.06748589,0.07881801
1.020913,-0.06152579,0.07827128
1.020475,-0.06110042,0.08069212
1.021968,-0.06304346,0.08390787
1.02254,-0.06612841,0.07600558
1.02234,-0.06928943,0.07071894
1.022892,-0.06796762,0.07927852
1.022996,-0.06515832,0.0866248
1.022116,-0.06336016,0.08194276
1.021835,-0.06256284,0.07699982
1.022379,-0.06588959,0.07752314
1.021313,-0.06968542,0.07597505
1.020845,-0.06794741,0.08041727
1.02372,-0.06629162,0.09458947
1.025302,-0.0614331,0.1093624
1.022171,-0.03506503,0.1166794
1.016665,-7.902053e-05,0.1156774
1.012023,0.004745041,0.1184643
1.009768,-0.01374015,0.1178205
1.021127,-0.02931068,0.09920542
1.055747,-0.06355434,0.05935261
1.08095,-0.1050952,0.01431871
1.058952,-0.1066769,0.01584894
1.01883,-0.09517404,0.05272594
1.00242,-0.09375204,0.07173408
1.001483,-0.08463047,0.08051385
1.008455,-0.08516219,0.07726562
1.019253,-0.09425905,0.06056762
1.020752,-0.08985242,0.0547653
1.023689,-0.07410777,0.06913884
1.028927,-0.05129525,0.09609273
1.029522,-0.04145743,0.09710072
1.029495,-0.04770245,0.08091791
1.026386,-0.04306129,0.07060628
1.024276,-0.03988049,0.05232852
1.015803,-0.04376979,0.06652212
1.002033,-0.03415016,0.0975215
1.003382,-0.02885658,0.09474367
1.017164,-0.03177907,0.0908521
1.030683,-0.0271834,0.08581349
1.030642,-0.02467505,0.07835744
1.021894,-0.02691688,0.08537206
1.019002,-0.03376337,0.08907554
1.017829,-0.04394027,0.09174683
1.021616,-0.05256176,0.08837089
1.02649,-0.06060911,0.08049714
1.024288,-0.06320769,0.08323839
1.022008,-0.06500021,0.08127585
1.020686,-0.06521359,0.0755679
1.022126,-0.05503322,0.07302008
1.024315,-0.04761664,0.06707584
1.019908,-0.04855927,0.06323899
1.013661,-0.04456432,0.06713757
1.012043,-0.03428847,0.07963646
1.017915,-0.03074057,0.08873711
1.030144,-0.03448292,0.08060133
1.039047,-0.03614376,0.06658913
1.037529,-0.04526805,0.06366013
1.030386,-0.05917553,0.08137223
1.025013,-0.05641001,0.1118472
1.023069,-0.04819519,0.1147618
1.022732,-0.04961997,0.08117631
1.019448,-0.05375778,0.05926105
1.015322,-0.06203788,0.06909302
1.018069,-0.06990421,0.07813753
1.022376,-0.07193375,0.07039609
1.025145,-0.07574734,0.07207544
1.031955,-0.07767224,0.07780454
1.036833,-0.07767389,0.06435832
1.037611,-0.07855955,0.05241911
1.032442,-0.0706456,0.04763274
1.017324,-0.05653069,0.05280734
1.01142,-0.04537529,0.06739299
1.018156,-0.04159103,0.06533859
1.021743,-0.04652062,0.06229479
1.025646,-0.05063066,0.06465151
1.024791,-0.04639093,0.06868703
1.020118,-0.03511097,0.08737034
1.024782,-0.02061616,0.09621528
1.027302,-0.01530958,0.0920863
1.025407,-0.02703222,0.09231245
1.026093,-0.03970656,0.0933474
1.024516,-0.04969163,0.09230212
1.024704,-0.06960811,0.08792918
1.025641,-0.08741212,0.08563693
1.024447,-0.09186509,0.08421034
1.024884,-0.07987707,0.08654429
1.023116,-0.06143307,0.09266744
1.020684,-0.06634328,0.09390563
1.02155,-0.08385482,0.09664427
1.02259,-0.09091577,0.09728943
1.022035,-0.08805006,0.09794636
1.020122,-0.07662341,0.09978307
1.019392,-0.07307669,0.09271896
1.021488,-0.07286247,0.08728776
1.024718,-0.06520951,0.08384955
1.025606,-0.06396057,0.08493268
1.023549,-0.06173488,0.09635432
1.022402,-0.05743727,0.1039985
1.022095,-0.05760452,0.1057273
1.022058,-0.05463199,0.1024614
1.022494,-0.05260276,0.09899178
1.022045,-0.05529092,0.09654911
1.022222,-0.06167088,0.08881034
1.022367,-0.06650786,0.08768318
1.022025,-0.0720524,0.08931376
1.022376,-0.0785102,0.08539732
1.02181,-0.07115738,0.08340749
1.020388,-0.06465828,0.08241579
1.019013,-0.068873,0.08245477
1.019283,-0.06769618,0.08018044
1.020843,-0.06613308,0.07779027
1.020874,-0.0701845,0.07987866
1.021358,-0.07454991,0.07893666
1.023968,-0.07586023,0.07792446
1.027424,-0.0749327,0.07835341
1.028097,-0.07522694,0.07901741
1.023376,-0.07412995,0.08157646
1.019525,-0.07095405,0.08061916
1.020738,-0.06895247,0.07977261
1.022964,-0.06800452,0.08024539
1.022609,-0.06804578,0.07806724
1.021716,-0.07118439,0.07637032
1.023802,-0.07491552,0.07475552
1.025844,-0.07760099,0.07524648
1.026402,-0.08156442,0.07919052
1.025577,-0.07978306,0.08624566
1.022086,-0.06879181,0.09790608
1.01992,-0.05563107,0.1017
1.019161,-0.04774578,0.09596509
1.019264,-0.04928428,0.09384605
1.021424,-0.05047684,0.08410404
1.023484,-0.04745035,0.06963349
1.026013,-0.04874004,0.07315633
1.026374,-0.05020905,0.07551833
1.025724,-0.04957723,0.06598714
1.026932,-0.05041938,0.06715783
1.024912,-0.05061156,0.06941135
1.022615,-0.05333068,0.06386845
1.022163,-0.05757401,0.06411143
1.022424,-0.06121,0.06668232
1.026306,-0.07408761,0.06858719
1.029296,-0.08592414,0.06927599
1.030573,-0.07473219,0.06920539
1.031535,-0.0563341,0.0746194
1.027808,-0.05079233,0.07560624
1.024381,-0.05030391,0.06943774
1.029814,-0.05644617,0.06341942
1.03498,-0.06648517,0.06111387
1.025975,-0.06526447,0.07203391
1.014668,-0.05897563,0.08399203
1.013413,-0.05236325,0.08404712
1.014984,-0.0456433,0.08380764
1.019654,-0.04640283,0.07800371
1.02577,-0.05277936,0.06404826
1.025539,-0.0635966,0.06256373
1.022483,-0.07189799,0.06815552
1.022249,-0.06975204,0.06641345
1.025093,-0.06335963,0.06896744
1.027046,-0.0575201,0.07254886
1.025182,-0.05748304,0.07143494
1.021551,-0.05812332,0.07468698
1.020441,-0.05388874,0.074135
1.022911,-0.05658427,0.07213793
1.025189,-0.06325184,0.07351582
1.025573,-0.06686844,0.06823143
1.025589,-0.06820712,0.06144469
1.026658,-0.06502041,0.05857737
1.026562,-0.06345959,0.06599656
1.02463,-0.06027006,0.07705099
1.023231,-0.05303947,0.07326682
1.022329,-0.04872107,0.07138527
1.025504,-0.04459521,0.07610035
1.029167,-0.04782053,0.07481917
1.025938,-0.05366784,0.0810173
1.023525,-0.05037738,0.08724551
1.024558,-0.05018925,0.07880617
1.023535,-0.05099539,0.06826214
1.023322,-0.05231169,0.06309314
1.024563,-0.06221676,0.0642229
1.0234,-0.06733283,0.06512955
1.021594,-0.06371458,0.06120136
1.022777,-0.06092082,0.06424243
1.026156,-0.06267314,0.07168939
1.028331,-0.0634168,0.07455871
1.026374,-0.06143275,0.07537729
1.023765,-0.06300912,0.07708177
1.02509,-0.06273519,0.08163611
1.025593,-0.06087885,0.08008362
1.024216,-0.05846576,0.07431418
1.024172,-0.05228157,0.07507678
1.022053,-0.05403216,0.07517792
1.018819,-0.06017092,0.07990132
1.018548,-0.06116889,0.08587367
1.023767,-0.06225548,0.08202067
1.03483,-0.06397467,0.08468535
1.038837,-0.06869835,0.08247771
1.025674,-0.07239137,0.06110106
1.004627,-0.06356213,0.04716712
0.9967332,-0.05163123,0.057315
1.015194,-0.04685903,0.0766959
1.031673,-0.03334452,0.07842314
1.018894,-0.01701007,0.07161161
1.010657,-0.02570149,0.07274675
1.02562,-0.04022966,0.07116676
1.035767,-0.04058871,0.07183281
1.038327,-0.03701854,0.07215492
1.036701,-0.03011264,0.07222554
1.027784,-0.03722065,0.08069935
1.025978,-0.05917416,0.08555196
1.030961,-0.0755582,0.07997321
1.03344,-0.08591065,0.04860338
1.027,-0.07442584,0.01767536
1.014639,-0.05051058,0.0413286
1.014321,-0.03264762,0.07606439
1.019155,-0.01469334,0.07596053
1.019573,-0.01632655,0.07424983
1.021206,-0.01625427,0.07755196
1.024054,-0.0001899909,0.07170634
1.029588,-0.007325183,0.06603217
1.028559,-0.02019958,0.06199778
1.023899,-0.03483009,0.07113695
1.026348,-0.06090538,0.08727457
1.027391,-0.0643463,0.07993055
1.029174,-0.0565414,0.07518104
1.028453,-0.04984059,0.08354126
1.023427,-0.0391294,0.07803684
1.025278,-0.04188554,0.07176758
1.025545,-0.0505193,0.06719189
1.024301,-0.0567962,0.06608654
1.026491,-0.06057456,0.07348844
1.025546,-0.05767044,0.07154635
1.025511,-0.05778065,0.06887894
1.025639,-0.05899966,0.06941932
1.02377,-0.05691062,0.07085919
1.023355,-0.05674856,0.07705366
1.023126,-0.05722665,0.07154339
1.022124,-0.05778828,0.06552914
1.020308,-0.05793153,0.07013624
1.02211,-0.05483713,0.07269191
1.026807,-0.05148907,0.07776457
1.028423,-0.05245918,0.07947279
1.02812,-0.05524722,0.07599572
1.027116,-0.06154002,0.07650829
1.02693,-0.07393683,0.07470328
1.025625,-0.07471653,0.07419369
1.021284,-0.05557019,0.07561327
1.018626,-0.04146023,0.07270122
1.019348,-0.04746013,0.07198072
1.023009,-0.05666706,0.07454668
1.025149,-0.05625922,0.07731494
1.024076,-0.05265356,0.07823456
1.023547,-0.04948306,0.07497105
1.023236,-0.05169822,0.07074606
1.023718,-0.05906346,0.06950981
1.022828,-0.05984546,0.07454481
1.021508,-0.06062064,0.08014451
1.022256,-0.06095496,0.07796411
1.020359,-0.05347263,0.07629898
1.019104,-0.05265869,0.07771265
1.021479,-0.05757368,0.07504196
1.023768,-0.06060761,0.0741568
1.023948,-0.05958684,0.07610305
1.02224,-0.05459909,0.07645874
1.022103,-0.05572092,0.07823977
1.02229,-0.05633221,0.07795998
1.022434,-0.05643541,0.07503729
1.024248,-0.0593571,0.0738227
1.025315,-0.05520289,0.07226955
1.025317,-0.05316291,0.07190406
1.024658,-0.05546095,0.07234994
1.024994,-0.05591249,0.07109069
1.025152,-0.05745177,0.06997048
1.023516,-0.06029548,0.06717501
1.022697,-0.06400021,0.06513915
1.022217,-0.06281314,0.0694181
1.023867,-0.06116023,0.0736692
1.025979,-0.06242286,0.06986026
1.024455,-0.05958769,0.06596557
1.022963,-0.05891632,0.06844795
1.021985,-0.05984644,0.06776889
1.021817,-0.05958482,0.06616479
1.022704,-0.06297328,0.07078367
1.022382,-0.06503123,0.07339286
1.024072,-0.06451,0.07189033
1.026707,-0.06210382,0.07004064
1.026991,-0.05868353,0.06812657
1.027975,-0.06126926,0.065009
1.029208,-0.06498183,0.0626152
1.026587,-0.06300426,0.06911676
1.022812,-0.05998138,0.07681667
1.023226,-0.05825007,0.07337118
1.024438,-0.06184997,0.06900706
1.024107,-0.07228003,0.06862929
1.025473,-0.07750379,0.06594444
1.026237,-0.07456665,0.06629025
1.025798,-0.07144636,0.06917573
1.024659,-0.06773957,0.06797065
1.02107,-0.06382828,0.06765886
1.020497,-0.06469925,0.06866135
1.024026,-0.0668237,0.06974604
1.025726,-0.06645406,0.07517912
1.025357,-0.06834147,0.07954773
1.025825,-0.06903108,0.07685808
1.028601,-0.06675164,0.07033689
1.029128,-0.06710879,0.06595802
1.024174,-0.06402047,0.06675858
1.019736,-0.06062909,0.0690569
1.019339,-0.0626047,0.06819316
1.020261,-0.06293818,0.0672965
1.021307,-0.06478412,0.0685106
1.024403,-0.0669418,0.06706163
1.026181,-0.067421,0.06581548
1.024423,-0.07107736,0.06626263
1.024894,-0.07030109,0.06547369
1.025479,-0.06485445,0.06875168
1.024496,-0.06117623,0.07232544
1.025298,-0.06006144,0.07031502
1.024983,-0.06660646,0.0666911
1.024616,-0.07257193,0.06172088
1.024229,-0.06488154,0.05936089
1.022185,-0.05827496,0.06632071
1.022328,-0.06511338,0.07515091
1.024137,-0.06911446,0.07545226
1.025149,-0.06498811,0.07406414
1.023295,-0.06279649,0.07575034
1.020463,-0.06093953,0.07515106
1.021534,-0.06118074,0.0764959
1.02284,-0.06467928,0.07740983
1.022078,-0.06454426,0.07039922
1.022115,-0.06600937,0.06426971
1.022522,-0.06948821,0.06608434
1.023078,-0.06764045,0.06798955
1.023674,-0.06442186,0.06500686
1.022869,-0.05905056,0.06467278
1.021728,-0.05371128,0.06609683
1.022191,-0.05946869,0.06466794
1.022699,-0.07002195,0.06562336
1.02339,-0.07364549,0.06751752
1.02664,-0.07030206,0.07230768
1.028088,-0.0652331,0.07939832
1.02414,-0.06496801,0.07710399
1.020939,-0.06755797,0.0699279
1.023152,-0.06708252,0.06363515
1.025406,-0.06208931,0.05844638
1.023924,-0.05700828,0.06281892
1.023241,-0.06201861,0.07069208
1.023793,-0.06844611,0.06948786
1.023505,-0.06468297,0.06577813
1.02369,-0.06417567,0.06520208
1.024124,-0.06737861,0.06472188
1.026228,-0.0685907,0.06601039
1.028728,-0.07461558,0.06727112
1.027421,-0.07587084,0.0679784
1.024562,-0.06937745,0.0692412
1.023102,-0.06692867,0.06916444
1.023329,-0.0678735,0.07157384
1.024014,-0.06858196,0.07251765
1.023496,-0.06810295,0.07041768
1.023264,-0.06878295,0.06825314
1.02297,-0.07111712,0.06190994
1.021798,-0.07053144,0.06095714
1.021743,-0.06892836,0.06483534
1.02078,-0.06770631,0.06528839
1.018817,-0.06829996,0.06866698
1.020533,-0.07226966,0.06700463
1.023432,-0.07422013,0.0617202
1.024047,-0.07210691,0.06479391
1.024579,-0.06706999,0.06785869
1.025137,-0.06379201,0.06835235
1.025104,-0.06570275,0.06799194
1.024575,-0.06774617,0.06588834
1.023148,-0.06929973,0.06547548
1.022167,-0.07124755,0.06439184
1.023702,-0.07268638,0.06369149
1.026134,-0.0731009,0.06549328
1.025997,-0.0684316,0.06583526
1.026036,-0.06482666,0.06491193
1.026849,-0.07292878,0.06570052
1.02443,-0.08113831,0.06831509
1.021042,-0.07545656,0.06946887
1.019193,-0.06892202,0.06688541
1.021657,-0.06988262,0.06320392
1.026277,-0.07002735,0.06363078
1.025188,-0.0708288,0.06653191
1.024547,-0.07041836,0.06622228
1.027193,-0.06740874,0.06409742
1.02599,-0.06781725,0.06156225
1.023706,-0.0664533,0.06095705
1.023238,-0.06450194,0.06187769
1.024964,-0.0669669,0.0606221
1.027436,-0.06986962,0.06204761
1.027574,-0.07253175,0.06295816
1.02628,-0.07270498,0.06008148
1.024208,-0.07187989,0.06002709
1.024698,-0.07339219,0.06220077
1.026144,-0.07385501,0.06467281
1.025814,-0.07324304,0.0635091
1.026677,-0.07177823,0.0613353
1.024603,-0.06918252,0.06438358
1.022097,-0.06538266,0.06573519
1.023076,-0.06167663,0.06477337
1.02366,-0.0649436,0.06307716
1.02647,-0.07117624,0.0611317
1.027181,-0.07059267,0.06222551
1.02453,-0.06801288,0.06101403
1.024821,-0.06611157,0.06124601
1.023232,-0.06013172,0.06645782
1.021579,-0.05730009,0.06858768
1.023337,-0.06380269,0.06638432
1.024087,-0.07083711,0.06233543
1.024225,-0.07184376,0.0615615
1.023286,-0.06934332,0.06201386
1.021838,-0.06533282,0.05859635
1.022499,-0.06064426,0.0581008
1.025142,-0.05949319,0.06038185
1.02692,-0.06166779,0.06171421
1.024474,-0.06353676,0.06237634
1.021774,-0.06616336,0.06216961
1.021848,-0.06820009,0.06292089
1.021387,-0.06844477,0.06242407
1.019611,-0.06406968,0.06288405
1.018956,-0.05730116,0.06658046
1.019702,-0.06107722,0.06803833
1.01946,-0.06651062,0.0648356
1.019809,-0.06549643,0.05987578
1.022322,-0.06888059,0.06010302
1.02429,-0.06926615,0.06092356
1.024156,-0.06741881,0.05852939
1.023566,-0.07139497,0.06068097
1.024052,-0.07305585,0.06054941
1.023805,-0.07529213,0.05775904
1.025402,-0.07631954,0.05811386
1.029651,-0.07380144,0.05563002
1.030263,-0.07583779,0.05715715
1.026898,-0.07390536,0.06291755
1.021999,-0.06792965,0.06439538
1.021454,-0.06873239,0.06486119
1.026238,-0.07440737,0.06229677
1.027751,-0.07985204,0.05917935
1.027961,-0.07722863,0.06041474
1.028029,-0.06986666,0.0632282
1.027733,-0.06863167,0.06527259
1.030987,-0.07464036,0.05924306
1.032585,-0.08296165,0.05172448
1.030604,-0.07986942,0.05408143
1.024663,-0.06834934,0.05660969
1.018468,-0.06374235,0.05678027
1.021271,-0.06434328,0.05874294
1.026643,-0.06750677,0.05691463
1.028349,-0.06804564,0.0542684
1.028087,-0.06713754,0.05651181
1.026335,-0.07036801,0.05958146
1.026192,-0.07276597,0.06162426
1.026603,-0.07788176,0.06116005
1.026028,-0.07895742,0.05670824
1.025239,-0.07458559,0.05588068
1.02295,-0.07384033,0.06185611
1.021477,-0.06838692,0.06732785
1.022687,-0.0708088,0.0660933
1.024249,-0.07989644,0.06395702
1.024768,-0.07668765,0.06793199
1.022624,-0.07477349,0.06877651
1.020006,-0.07391053,0.06630587
1.022575,-0.07339492,0.0677116
1.025845,-0.07892745,0.06990063
1.024915,-0.07958684,0.07334811
1.024572,-0.07928281,0.07302128
1.024431,-0.07431494,0.07025517
1.023278,-0.06624736,0.07047873
1.024481,-0.07095859,0.06718592
1.025186,-0.07629616,0.06711106
1.023073,-0.07569867,0.06986997
1.021577,-0.074356,0.06891337
1.022133,-0.07098486,0.07144942
1.022591,-0.07143769,0.07089979
1.021992,-0.07133703,0.06608281
1.022187,-0.0674128,0.06478246
1.023144,-0.06892347,0.06402989
1.025579,-0.07222055,0.06511437
1.028796,-0.07268551,0.06650788
1.027171,-0.07419946,0.06663681
1.024254,-0.07501337,0.06745162
1.025186,-0.07337001,0.06801264
1.025341,-0.07187596,0.06957151
1.025907,-0.07371018,0.06724418
1.028776,-0.07638195,0.06357112
1.029475,-0.07570634,0.06558391
1.028243,-0.07475003,0.06544645
1.027371,-0.06959703,0.06284345
1.02699,-0.06073416,0.06234561
1.024171,-0.06158713,0.0622096
1.01908,-0.06671685,0.06261075
1.018701,-0.0689194,0.06176826
1.022174,-0.0739228,0.06149911
1.026242,-0.07576903,0.06332833
1.030012,-0.07418861,0.06457239
1.026168,-0.07548127,0.06661534
1.020418,-0.07504476,0.06840901
1.022971,-0.07456189,0.06887892
1.023913,-0.07499226,0.06958895
1.021126,-0.07197727,0.06869512
1.022695,-0.07022866,0.06799849
1.024443,-0.07234741,0.07084527
1.024855,-0.07635188,0.072344
1.02464,-0.0785984,0.06783433
1.023039,-0.07560766,0.0637808
1.024473,-0.07222199,0.06684069
1.025772,-0.07180284,0.06967286
1.024232,-0.07252729,0.06769725
1.023086,-0.07324149,0.06855839
1.020759,-0.07386937,0.06898944
1.019241,-0.07455981,0.06189938
1.020014,-0.07415746,0.05605276
1.021033,-0.07346683,0.0579827
1.022798,-0.07346203,0.06075025
1.022585,-0.07351411,0.06043008
1.021584,-0.07228549,0.0622129
1.022599,-0.06872336,0.06421359
1.022433,-0.06546944,0.06278446
1.022636,-0.06570942,0.06330334
1.023327,-0.07080027,0.06423936
1.021862,-0.07532263,0.06391419
1.022079,-0.0730146,0.06461135
1.023584,-0.07088761,0.06390318
1.023437,-0.07277538,0.06431576
1.022823,-0.07157913,0.06728259
1.02191,-0.06719278,0.06870273
1.022381,-0.06504572,0.06515903
1.024378,-0.06913497,0.05855295
1.025311,-0.07721425,0.05504331
1.025212,-0.07866497,0.05588875
1.024756,-0.07256855,0.06004014
1.024994,-0.0666715,0.0648405
1.025221,-0.06413089,0.06850873
1.024749,-0.06706204,0.06847223
1.024943,-0.06926254,0.06457941
1.024164,-0.06659315,0.06167398
1.023157,-0.06642829,0.05616928
1.023168,-0.06842659,0.05496036
1.021017,-0.07081635,0.05936867
1.018528,-0.073433,0.05689654
1.019893,-0.07317532,0.05872695
1.023796,-0.07353824,0.0636552
1.026516,-0.07484243,0.06423897
1.026053,-0.07318322,0.06645837
1.024364,-0.06894646,0.0629528
1.024258,-0.06522029,0.06231471
1.022873,-0.06674417,0.06901182
1.01964,-0.07043329,0.07166945
1.020853,-0.07084102,0.07179035
1.023564,-0.0701499,0.068894
1.023458,-0.0691158,0.06639002
1.02395,-0.06924753,0.06349775
1.023,-0.07111666,0.06279536
1.020631,-0.07165705,0.06934537
1.019456,-0.07286813,0.06997231
1.020904,-0.07430951,0.0693715
1.025439,-0.07445151,0.07193918
1.026366,-0.07206071,0.07310333
1.024382,-0.06505945,0.07938201
1.021718,-0.062695,0.08332598
1.018571,-0.067319,0.08078269
1.023351,-0.07045652,0.0728535
1.029815,-0.0727975,0.06381524
1.028976,-0.0760186,0.06350907
1.026113,-0.07822349,0.06456357
1.02312,-0.07787831,0.06486996
1.022114,-0.07669429,0.0674347
1.022572,-0.07443219,0.06805767
1.021846,-0.06999985,0.06559434
1.02271,-0.07028335,0.06269974
1.024159,-0.07270665,0.06482451
1.025613,-0.07194948,0.06623523
1.026898,-0.07198006,0.06555266
1.025832,-0.07037139,0.0688743
1.023755,-0.06772523,0.0684605
1.022043,-0.06822285,0.06352468
1.02243,-0.07032695,0.06439176
1.024651,-0.07335946,0.06878961
1.027036,-0.07502649,0.06809246
1.027988,-0.07382705,0.06747772
1.024045,-0.07116009,0.06854617
1.020706,-0.06800862,0.06561125
1.022351,-0.06575848,0.06450442
1.022889,-0.06517563,0.0640564
1.022719,-0.0671756,0.06344342
1.023964,-0.07014217,0.06640246
1.023844,-0.07151454,0.06732199
1.023441,-0.072822,0.06806886
1.024643,-0.07435442,0.06900593
1.02503,-0.07515198,0.06926037
1.023091,-0.07497046,0.07162702
1.022001,-0.07296248,0.07059307
1.024228,-0.07161479,0.06748379
1.027315,-0.07174482,0.06667432
1.026257,-0.06969964,0.06803726
1.02233,-0.06783454,0.07026854
1.022044,-0.07168606,0.06833239
1.025202,-0.07713479,0.06530629
1.027642,-0.07651279,0.06520113
1.027791,-0.07294043,0.06583135
1.026119,-0.07178584,0.0693011
1.022983,-0.07229936,0.07383341
1.021292,-0.07434284,0.07432916
1.024906,-0.07574268,0.07249635
1.028717,-0.0757757,0.06997076
1.02892,-0.07662454,0.0672282
1.02687,-0.07651309,0.06797661
1.023747,-0.07564357,0.07156577
1.02472,-0.0738574,0.07224282
1.025983,-0.07151515,0.06952085
1.023845,-0.07334406,0.06789421
1.023422,-0.07720353,0.0712218
1.021821,-0.07800251,0.074944
1.02056,-0.07585524,0.07098913
1.021451,-0.0727907,0.06864005
1.020318,-0.07054055,0.07581106
1.020688,-0.06901949,0.0813008
1.020356,-0.06933653,0.08027285
1.018959,-0.07211755,0.07795378
1.021715,-0.0744499,0.076753
1.02378,-0.07546251,0.07378205
1.02396,-0.07503002,0.07116401
1.024699,-0.07364469,0.07588277
1.025941,-0.07449599,0.08143166
1.026849,-0.07805785,0.08127805
1.024908,-0.0816208,0.07600322
1.022597,-0.07955096,0.07045785
1.021021,-0.07315771,0.07527558
1.020422,-0.07134265,0.08057063
1.022442,-0.07221006,0.07627275
1.024273,-0.07235053,0.073349
1.025426,-0.07258948,0.07146633
1.024759,-0.07325594,0.070343
1.021795,-0.07684838,0.07403893
1.020333,-0.07873508,0.07637263
1.020896,-0.07756114,0.07938069
1.022977,-0.07787332,0.07970033
1.024165,-0.07869336,0.07144547
1.023676,-0.07916513,0.0672667
1.024286,-0.07742274,0.06951421
1.024577,-0.07575279,0.07404503
1.02416,-0.07735943,0.07924652
1.02428,-0.07827982,0.07433056
1.024554,-0.07789751,0.06681655
1.025015,-0.07882722,0.0680622
1.025178,-0.08139658,0.06939008
1.024775,-0.08153585,0.06932096
1.023992,-0.07641984,0.06981533
1.023831,-0.07169928,0.0691271
1.025263,-0.07217808,0.06951918
1.026502,-0.07317446,0.06995617
1.023992,-0.07219684,0.07098132
1.020988,-0.07610962,0.07189714
1.023147,-0.08129871,0.06700793
1.024573,-0.08044504,0.06319921
1.023238,-0.07852883,0.071094
1.024562,-0.07733745,0.08016382
1.025319,-0.07746922,0.07840862
1.023758,-0.07746251,0.07628351
1.022427,-0.07291611,0.07874828
1.022063,-0.06969258,0.07628852
1.023394,-0.07232082,0.06970546
1.024857,-0.07766152,0.06340223
1.025249,-0.08039937,0.06328728
1.024639,-0.07864017,0.07235318
1.02307,-0.07606946,0.07897125
1.021989,-0.07439857,0.0786338
1.02286,-0.07474191,0.07217181
1.02425,-0.0754757,0.06557817
1.023429,-0.0747412,0.07127582
1.021986,-0.0749768,0.0778687
1.020538,-0.07535082,0.07622072
1.019532,-0.07572346,0.0755898
1.023813,-0.07692569,0.07662503
1.028296,-0.07739179,0.07856932
1.026276,-0.0777915,0.0787822
1.024424,-0.07804082,0.07453191
1.024501,-0.0772254,0.07095129
1.022965,-0.07508566,0.07228924
1.022496,-0.07014666,0.07689773
1.022807,-0.06684777,0.07806789
1.023543,-0.07068577,0.07601722
1.02615,-0.07356997,0.0744409
1.02712,-0.0696809,0.07433556
1.02756,-0.06645809,0.07471573
1.027997,-0.06581431,0.07206552
1.024082,-0.06647886,0.07160106
1.020003,-0.07077085,0.07331941
1.019005,-0.07483136,0.07347378
0.9976878,-0.01485396,0.2276091
1.003105,-0.03454515,0.2301827
0.9996505,-0.02742502,0.2281219
0.9962313,-0.02418679,0.2370355
1.009888,-0.02725333,0.2468019
1.000965,-0.004615187,0.2398718
1.014863,0.01704856,0.2234802
1.025514,-0.002802818,0.2092331
1.010968,-0.01931945,0.2118901
1.003624,-0.002898476,0.2224514
0.9967989,0.006335496,0.2233313
0.9989811,0.007758701,0.2175544
0.99306,0.01701241,0.2099111
0.991187,0.01499885,0.2068807
1.006633,0.00419554,0.204204
1.010583,-6.534128e-05,0.2012595
1.008218,0.0004717878,0.2066163
1.000629,0.004596001,0.2055931
0.9987388,0.009150044,0.2003169
1.006384,0.01529299,0.2043941
1.01071,0.01575716,0.2038642
1.022733,-0.003473593,0.2012467
1.027003,-0.01742244,0.1969772
1.012338,-0.00702307,0.1892069
0.9996193,0.002027475,0.2035874
0.9961339,-0.005365192,0.2194625
0.9965034,-0.01481652,0.2101532
0.9957715,-0.01492147,0.2058837
0.9998784,-0.001165273,0.2085786
1.018578,0.01916575,0.2007029
1.036706,0.01566562,0.1967336
1.029527,0.003851577,0.2005383
1.013448,0.00479802,0.2034931
1.006773,-0.007952032,0.2090909
0.9961807,-0.005308309,0.2096394
0.9985182,0.01098739,0.1975806
1.012958,0.0003250005,0.1890986
1.009243,-0.003478627,0.1912103
1.008373,-0.005444788,0.1921469
1.015507,-0.01307739,0.1857828
1.024445,-0.01141324,0.1778175
1.03685,-0.03290945,0.1788326
1.010867,-0.04882354,0.2036944
0.9791233,-0.02210083,0.2349867
0.9934873,0.0145619,0.2257369
0.9952866,0.03298768,0.2128844
0.9691735,0.03105278,0.2352072
0.9657581,0.01810203,0.2290451
0.994632,0.006211622,0.1846169
1.023754,0.02371755,0.1556258
1.016235,0.03912767,0.178789
1.008256,-0.004613132,0.2191212
1.032395,-0.03915865,0.1993421
1.03646,-0.01526369,0.1805302
1.020225,0.006284444,0.1945293
1.007485,0.02057618,0.1864497
0.9835449,0.05596525,0.2005323
0.9673355,0.05244719,0.2248667
0.9641151,-0.00271926,0.227102
0.9798703,-0.02390951,0.2187824
1.018753,-0.02171953,0.1906846
1.059961,-0.02412023,0.1868787
1.10169,-0.006606124,0.1906164
1.076221,0.001762981,0.1910761
0.9888341,0.0042798,0.2182494
0.9634528,0.0162006,0.2155599
0.9841044,0.02154958,0.2015186
1.001146,0.01243275,0.2041331
1.014072,-0.01389845,0.2004737
1.010152,-0.02326677,0.2128168
1.012615,-0.02095793,0.2170457
1.010836,-0.01566867,0.2054177
1.004223,0.004270539,0.201409
1.008925,-0.002644046,0.2016337
1.005926,-0.01432226,0.2087696
1.007972,-0.00965558,0.2086443
1.008886,-0.01173153,0.2075053
1.003114,0.007216212,0.2096614
1.003304,0.0276168,0.2057648
1.00143,0.02451519,0.2075515
1.004718,0.02067592,0.205983
1.004736,0.01723233,0.2044418
1.002626,0.01408559,0.206684
1.0049,0.01021809,0.2029926
1.001275,0.006572943,0.2021698
1.003396,0.00288524,0.2009867
1.005863,-0.00635245,0.20246
1.008056,-0.01909737,0.2045481
1.014632,-0.03152656,0.2007599
1.01353,-0.03300309,0.2016234
1.012086,-0.0302579,0.1999163
1.010988,-0.02635592,0.1988829
1.01121,-0.01960988,0.2024026
1.013927,-0.02416988,0.2007997
1.0111,-0.02611158,0.2016528
1.00884,-0.01969018,0.2032685
1.006417,-0.01494442,0.2053365
1.005119,-0.007097193,0.2114204
1.004733,-0.001447706,0.2153814
1.00037,-0.0002028828,0.2189646
1.004295,-0.001743301,0.2172267
1.00962,-0.00293656,0.2133782
1.006375,-0.006410149,0.2168055
1.008516,-0.01922102,0.2165865
1.015747,-0.02833315,0.2113794
1.017707,-0.03229405,0.2097335
1.00978,-0.0344085,0.2156934
1.00065,-0.0226439,0.2296194
1.005336,0.0002801945,0.2363775
1.007654,0.01505898,0.2302593
0.9937299,0.01202784,0.2263607
0.985674,0.00886371,0.2295471
0.9922818,0.0130876,0.2326143
1.00035,0.01365847,0.2314606
1.003652,0.01412755,0.2221688
1.004482,0.01022274,0.208345
1.004465,0.00336853,0.2055811
1.002683,0.00964535,0.2083241
1.001913,0.01538277,0.2052488
0.9995198,0.009233653,0.2084319
0.9955035,0.005785755,0.2122839
0.9962949,0.005467671,0.2124624
0.9975093,0.003859139,0.217865
1.001907,0.003517325,0.2128933
1.010971,0.001462481,0.2043022
1.01299,-0.001953848,0.2059449
1.011198,-0.004935667,0.1986561
1.010201,-0.005182267,0.1873866
1.006427,-0.002817179,0.1856602
1.005066,-0.003399884,0.1828309
1.006245,-0.001301587,0.1767277
1.006562,0.008123399,0.1745752
1.012592,0.02490912,0.174192
1.017382,0.04027953,0.1747444
1.006448,0.03075691,0.1870278
0.9934266,0.01277961,0.2030581
0.9966076,0.01562887,0.2044791
1.008404,0.03751342,0.1978334
1.01085,0.07761969,0.1933919
0.992907,0.09492353,0.1915388
0.9780333,0.0571135,0.1880265
1.006045,0.01343749,0.1772822
1.039554,-0.01497219,0.1575993
1.026614,-0.04299896,0.1445567
1.011829,-0.05327189,0.1571681
1.013886,-0.04036606,0.1707205
1.005187,-0.02345294,0.1681336
1.001154,0.0003460596,0.1686049
1.000268,0.02927591,0.1660385
1.006712,0.01667486,0.1563184
1.024523,-0.01172168,0.1487179
1.022979,0.000503181,0.1430533
1.020757,-0.008941095,0.1419829
1.02908,-0.03547472,0.1396171
1.028544,-0.0222416,0.1382065
1.026718,-0.01634444,0.1402027
1.021203,-0.0140247,0.1386146
1.01901,-0.005731973,0.1424841
1.022631,-0.01388568,0.1474508
1.021,-0.01411586,0.1501572
1.023506,-0.02469301,0.1597835
1.02361,-0.03842434,0.1635991
1.018203,-0.03516798,0.1602459
1.016018,-0.04346799,0.1607743
1.015756,-0.04408217,0.1602271
1.016826,-0.04052778,0.1525335
1.011982,-0.05439269,0.141358
1.007691,-0.06147969,0.1396277
1.014502,-0.05969487,0.1499476
1.031405,-0.05862018,0.1574418
1.048589,-0.05842659,0.1544869
1.039005,-0.04982649,0.1527385
1.014138,-0.03295266,0.1580921
1.004445,-0.02541664,0.162272
1.002732,-0.02147821,0.1669768
1.007296,-0.01693513,0.1716867
1.012579,-0.0140312,0.1743918
1.010491,-0.005172689,0.1802923
1.013293,0.004550347,0.1829996
1.013785,0.01206491,0.1849239
1.006822,0.02468372,0.1921575
0.9987103,0.04107896,0.1977658
0.9890118,0.04950545,0.2010022
0.986076,0.0479528,0.2006005
0.987997,0.04155554,0.2004935
0.9920287,0.02386099,0.20192
1.004052,-0.004717822,0.1955074
1.022295,-0.02977308,0.1884574
1.035001,-0.04010498,0.1833988
1.029491,-0.04017053,0.1753021
1.02592,-0.03695071,0.1706356
1.026517,-0.009638284,0.1768312
1.000405,0.04670632,0.2018577
0.9720825,0.08096948,0.2281952
0.9753488,0.07179211,0.2301326
0.990216,0.06154815,0.2276378
1.000861,0.05124692,0.2307692
1.011382,0.01490222,0.2104866
1.009428,-0.01330832,0.1829728
1.001344,-0.01682325,0.1811933
1.009791,-0.01409712,0.1823433
1.012447,0.000475529,0.1808919
1.008703,0.01474424,0.1926536
1.017708,0.02242046,0.2002211
1.017168,0.03168998,0.2001792
1.006724,0.03269646,0.2036239
0.9960366,0.03160123,0.2097919
0.9927819,0.03021852,0.2140005
1.001266,0.02671143,0.2105902
1.00029,0.02284209,0.2064533
1.000072,0.01266629,0.204647
1.006783,0.01139673,0.1963703
1.007876,0.02036304,0.1880522
1.006223,0.02736852,0.1942818
1.000272,0.03086677,0.2033844
1.001319,0.02390559,0.2001016
1.003482,0.01123772,0.1987961
1.000082,-0.001361874,0.1982652
1.004565,-0.007731596,0.1923189
1.005644,-0.009661417,0.1929574
1.008217,-0.02288364,0.1866219
1.013992,-0.03306201,0.1762288
1.01014,-0.03067846,0.1819254
1.011683,-0.02289203,0.1885865
1.017543,0.002780681,0.1907965
1.018858,0.02976334,0.1932082
1.012966,0.02839203,0.195541
0.9993103,0.0206861,0.2048605
0.9960681,0.02458542,0.2092378
0.9996691,0.02252923,0.2024444
0.9975863,0.01868966,0.1971109
0.9977819,0.01963736,0.1932396
1.004451,0.01552886,0.1849328
1.017325,0.01658484,0.1692087
1.028121,0.01985644,0.1585868
1.026962,0.01460726,0.166737
1.015942,0.01178974,0.1793145
1.004971,0.005389817,0.1875762
1.005595,-0.006273047,0.1898409
1.010712,-0.01450209,0.1806009
1.009028,-0.02225355,0.1732128
1.006724,-0.02221163,0.1701767
1.005869,-0.01558215,0.1689392
1.008962,-0.003570098,0.1739042
1.019458,0.01312354,0.1757592
1.02535,0.009773845,0.178002
1.024741,-0.004715657,0.1734527
1.026396,-0.006279604,0.1606471
1.02489,-0.007482932,0.1653568
1.013554,-0.004945768,0.1708757
1.001111,0.009018561,0.1712502
1.00106,0.01850703,0.1787031
1.006545,0.01809767,0.1715959
1.005584,0.01446446,0.1623275
1.005099,0.0161838,0.1655676
1.005795,0.01268525,0.1703271
1.003306,0.0008492351,0.1783453
1.003279,0.001035628,0.1786805
1.007188,0.005232009,0.1712921
1.01188,0.008354134,0.1685391
1.013955,0.01181865,0.1678856
1.015062,0.008152201,0.1692301
1.016439,0.008027241,0.1690741
1.014612,0.008039475,0.1681575
1.014598,0.01060979,0.1701298
1.014418,0.01955011,0.1694831
1.011988,0.01952295,0.1699342
1.017074,0.01890256,0.174001
1.020091,0.02071587,0.1752982
1.011607,0.02165251,0.1715696
1.003194,0.02572848,0.1694542
0.9997047,0.02547586,0.1796575
0.9940767,0.02274559,0.1921596
0.9891666,0.01734912,0.1897721
1.000105,0.007619252,0.1801847
1.015301,-0.0001155609,0.1732482
1.017324,-0.007166256,0.1642769
1.020941,-0.007901562,0.1579049
1.026534,-0.002850134,0.1615257
1.020147,-0.004080441,0.1662749
1.008183,-0.003636366,0.1721493
1.003498,0.0002575392,0.1774981
1.009379,0.001231915,0.1724973
1.016895,0.00695716,0.1668163
1.01929,0.005596693,0.1601154
1.017255,-0.003298033,0.1551392
1.012966,-0.002663165,0.1605198
1.010701,-0.002224047,0.1615659
1.013253,0.0003331464,0.1643177
1.015977,0.004981547,0.1703579
1.009852,0.001473045,0.1698715
1.0006,-0.0002563961,0.1749208
1.000872,-0.002525758,0.1767215
1.010838,-0.00385703,0.1685616
1.020177,-0.0007788803,0.1635502
1.016126,-0.001611199,0.1661639
1.008736,-0.002633781,0.1702094
1.010355,-0.007381864,0.1650619
1.010726,-0.01116015,0.1583685
1.011685,0.0002370412,0.1556353
1.012967,0.01037182,0.1585745
1.007122,0.00107706,0.167578
1.004322,-0.009295238,0.1653709
1.006436,-0.00501921,0.1607154
1.010261,-0.004166098,0.1611634
1.014206,-0.008593544,0.1561639
1.013435,-0.01066932,0.1568519
1.014083,-0.01696118,0.1611721
1.017138,-0.01402047,0.1618289
1.018332,-0.005042831,0.1617302
1.017575,-0.008362742,0.1568317
1.015473,-0.01968181,0.151814
1.014097,-0.03020024,0.153362
1.00928,-0.02120239,0.1619947
1.005037,-0.007009902,0.1684487
1.009652,-0.01680183,0.1650885
1.018319,-0.02730317,0.1588855
1.02711,-0.03612653,0.1571636
1.028203,-0.04625789,0.1662806
1.014562,-0.03214565,0.1770932
0.9972973,-0.01016014,0.1760074
0.9898501,0.009301462,0.1725961
0.9935991,0.02176345,0.1742154
0.9984711,0.01028774,0.1787576
1.002034,0.005964743,0.1915782
1.014715,0.01486716,0.2050371
1.027677,0.02067877,0.1994634
1.025393,0.03646634,0.1892735
1.01537,0.03853822,0.1912099
1.00621,0.01623124,0.1917412
0.99926,0.001626253,0.1926857
0.9993303,0.001873361,0.1912941
1.005064,0.004220519,0.1806272
1.011124,-0.002132357,0.1756952
1.016544,-0.01023845,0.1768936
1.01536,-0.009222217,0.1822253
1.008311,0.006529653,0.1889983
1.00606,0.02640239,0.1893346
1.006475,0.01729395,0.1922974
1.006312,0.005096124,0.1959297
1.006347,0.01602461,0.1939126
1.008837,0.01334502,0.1907515
1.015643,0.009396116,0.1869615
1.015144,0.01550619,0.1869809
1.007981,0.0101232,0.1950024
1.004807,0.007746272,0.2030167
1.007265,0.004760959,0.1999151
1.011187,-0.001162778,0.1962609
1.005709,0.0003779755,0.2037333
0.9999676,0.001721768,0.2147591
1.001905,0.008667525,0.2236224
1.001203,0.0142723,0.2150556
1.00165,0.01506159,0.2006241
1.003726,0.01312545,0.2102614
1.005257,-0.0001589518,0.2161826
1.007772,-0.003645619,0.2088328
1.008441,-0.0001766814,0.2100413
1.010327,-0.0004380284,0.2047123
1.010204,0.009474064,0.1959951
1.008822,0.01111011,0.193626
1.010394,0.004477122,0.195516
1.009025,0.00442648,0.2050508
1.006756,0.005083367,0.2031163
1.005766,0.00829685,0.1949758
1.007473,0.006631723,0.1930917
1.010677,0.003022066,0.1880211
1.006191,0.00330507,0.1911733
1.002112,0.001492162,0.193694
1.004674,0.001984724,0.1898711
1.004593,-0.001273856,0.1938225
1.003072,-0.004664597,0.1949461
1.001779,-0.00183901,0.1975579
0.9998971,-0.002175427,0.2016132
1.003107,0.0008080787,0.1966766
1.00794,0.006164193,0.1956601
1.007778,0.00604307,0.2004657
1.007038,0.005281089,0.2039793
1.006792,0.00558891,0.201541
1.006067,0.006747308,0.1975209
1.007279,0.003854426,0.198108
1.005319,-0.009150676,0.1954915
1.002829,-0.02195194,0.1956042
1.006015,-0.01524057,0.1985255
1.010487,-0.003047608,0.1926736
1.014821,-0.007922118,0.1828674
1.0116,-0.01028234,0.1757255
1.002566,-0.009274735,0.1805507
1.003056,-0.01782384,0.1898938
1.008601,-0.01930148,0.1855564
1.011504,-0.01231182,0.1813151
1.007697,-0.001336663,0.1839843
1.002083,0.007251928,0.1828282
1.009914,0.007574985,0.1804968
1.019303,0.007307498,0.1784895
1.01947,-0.002748788,0.1804541
1.016132,-0.01343353,0.1889651
1.008461,-0.009849295,0.1943352
1.005107,-0.007913412,0.1884406
1.007415,-0.00723019,0.1760575
1.007856,-0.001396443,0.170919
1.010525,0.003647744,0.1702738
1.014623,0.003961998,0.1673791
1.015413,-0.0008154825,0.1672147
1.014111,-0.005868961,0.1687987
1.014474,-0.005556869,0.1723306
1.014686,0.001688621,0.1743741
1.01233,0.005296911,0.1737931
1.011307,0.0006478676,0.1734215
1.01132,-0.003018615,0.1683432
1.01275,-0.001911913,0.167468
1.014387,-0.001064207,0.169634
1.012034,-0.002983276,0.1676447
1.010458,0.001662663,0.1689484
1.012048,0.007447546,0.1637441
1.013083,0.004931382,0.1567989
1.012404,0.00340306,0.1616563
1.01169,0.002645153,0.1659148
1.009988,0.00315194,0.1682402
1.006072,0.009494741,0.1734513
1.004889,0.01873247,0.175886
1.006483,0.02365124,0.1684652
1.009426,0.01378327,0.1582522
1.014433,0.002906789,0.1600818
1.016208,0.006617033,0.158986
1.01444,0.0138799,0.1511025
1.01154,0.01785554,0.1564504
1.00921,0.01679665,0.1624638
1.012097,0.01360797,0.1620222
1.015396,0.01491278,0.1651563
1.013118,0.01246053,0.1642168
1.009635,0.007602878,0.1637471
1.008368,0.009905241,0.1655843
1.010811,0.01060029,0.1594165
1.015675,0.008781102,0.1550561
1.015944,0.01020772,0.1569243
1.013544,0.01099924,0.1582848
1.013999,0.01563014,0.1602873
1.013702,0.02176244,0.1622057
1.012459,0.02097923,0.1566412
1.010767,0.02343065,0.1442679
1.010004,0.02879933,0.1405322
1.01612,0.0213718,0.1450965
1.02049,0.01296983,0.1485279
1.013454,0.0188042,0.1526627
1.007923,0.02169179,0.1495834
1.016049,0.01615312,0.1366452
1.023875,0.0108012,0.1271621
1.018925,0.003728114,0.1313802
1.011669,0.009226302,0.1447575
1.008696,0.0303222,0.1472004
1.014797,0.04058942,0.129504
1.025104,0.03074784,0.1119149
1.019376,0.02075673,0.1218012
1.008224,0.02938169,0.1398257
1.006318,0.03584495,0.1373586
1.01088,0.02641861,0.1367659
1.020268,0.02409584,0.1391774
1.017898,0.02554509,0.1355155
1.013132,0.02920693,0.138269
1.018336,0.03785763,0.1342659
1.014725,0.03123964,0.1286745
1.014702,0.0222437,0.1302414
1.017785,0.02506462,0.133079
1.007899,0.03566135,0.1466254
1.004378,0.04916595,0.1545257
1.009766,0.04263775,0.1461309
1.01635,0.02813043,0.1355487
1.019588,0.02793112,0.1310399
1.017869,0.03071784,0.1348862
1.019932,0.03737602,0.1366193
1.016986,0.04018028,0.1372579
1.010744,0.03125639,0.1402733
1.009911,0.02777056,0.1398753
1.012434,0.03134299,0.1389208
1.017409,0.03575943,0.1403386
1.015426,0.03663247,0.144801
1.013841,0.03266565,0.1484007
1.016729,0.03219177,0.1503072
1.014016,0.03524464,0.1482041
1.012306,0.03776734,0.1437738
1.010062,0.03191839,0.1472002
1.008874,0.02160129,0.148348
1.013493,0.02106661,0.1457074
1.014239,0.02177682,0.1463659
1.012918,0.01940454,0.1445621
1.012653,0.01926918,0.1467409
1.014065,0.01929058,0.152211
1.01733,0.02137274,0.1539516
1.015878,0.02729375,0.1504098
1.011317,0.03412134,0.1429456
1.006052,0.03235908,0.143904
1.004261,0.02781421,0.1477698
1.008228,0.03077546,0.1470252
1.009514,0.0285189,0.15004
1.010593,0.02327106,0.1532082
1.013552,0.02279251,0.154348
1.012676,0.02375761,0.1528044
1.011943,0.02690102,0.1491798
1.013022,0.02164031,0.1511142
1.013381,0.01475449,0.1531824
1.013998,0.0200393,0.1534482
1.014142,0.02516444,0.154833
1.013831,0.02851642,0.154652
1.014805,0.02894509,0.1568971
1.015527,0.02430671,0.1575442
1.014304,0.02500334,0.1531869
1.013323,0.02505309,0.1531257
1.013033,0.02249787,0.1553364
1.012696,0.02149931,0.1536768
1.014112,0.01696891,0.1527998
1.016001,0.01337684,0.1535571
1.01547,0.01418652,0.154048
1.014406,0.0186707,0.1557089
1.013804,0.0223531,0.1534039
1.012003,0.01983248,0.1505138
1.011999,0.01894149,0.1565228
1.013045,0.02200278,0.1619015
1.010887,0.02472067,0.1605391
1.008927,0.02637466,0.1591073
1.0081,0.02576689,0.1592484
1.008079,0.02540829,0.1583823
1.009766,0.02619662,0.1560841
1.009786,0.02785734,0.1567096
1.009812,0.03056925,0.1560532
1.011002,0.03110546,0.1483197
1.011997,0.02929799,0.1421749
1.012915,0.0296083,0.1441956
1.011466,0.03393747,0.1493596
1.010588,0.0366829,0.1524043
1.011753,0.03278218,0.1550358
1.012799,0.02774741,0.1550072
1.014438,0.02876154,0.1526842
1.014157,0.02933584,0.1541089
1.013551,0.02391784,0.1535192
1.015113,0.02080653,0.1521757
1.015339,0.02139693,0.1519574
1.014148,0.02204357,0.1490915
1.012722,0.0232573,0.1526227
1.011907,0.02437437,0.1553
1.011779,0.02648425,0.14976
1.010881,0.02814205,0.149005
1.011055,0.02689349,0.1556164
1.012324,0.02394685,0.1616567
1.012795,0.02289362,0.1567518
1.013457,0.0243722,0.1500934
1.014104,0.02530662,0.1535103
1.013956,0.02681012,0.152877
1.013428,0.02596286,0.148986
1.012115,0.02121791,0.1486925
1.011342,0.01886881,0.1479206
1.014405,0.02104679,0.1503393
1.018189,0.02529136,0.1550043
1.016932,0.02528727,0.1587379
1.015502,0.02125423,0.15476
1.016474,0.01590198,0.1454934
1.014592,0.01023594,0.146383
1.012959,0.01198908,0.1476959
1.012702,0.01501968,0.1445619
1.012193,0.01612647,0.1471911
1.014693,0.02244121,0.1477878
1.015607,0.02190651,0.1475824
1.012476,0.01636956,0.1542485
1.008499,0.01789694,0.1659619
1.005574,0.01647451,0.172977
1.00854,0.01133092,0.1613216
1.015716,0.007782189,0.1475369
1.020674,0.004236533,0.1492976
1.01712,0.005979801,0.15264
1.008233,0.01178736,0.1567517
1.007251,0.01678324,0.1652466
1.009293,0.02020886,0.1646009
1.008905,0.02055725,0.1576667
1.011011,0.02223407,0.1570945
1.01054,0.02289549,0.1613513
1.009134,0.01851875,0.1653729
1.010271,0.01737013,0.1646289
1.01144,0.01836541,0.1624524
1.013129,0.01746775,0.1646764
1.01265,0.01635547,0.1639515
1.012045,0.01312144,0.1624584
1.012871,0.01068723,0.1649298
1.012169,0.009831748,0.1652546
1.011042,0.01225187,0.1653902
1.008277,0.02093141,0.1644221
1.006245,0.02542738,0.163476
1.008719,0.02158144,0.1669454
1.010733,0.01761875,0.1698382
1.009604,0.01753495,0.1696756
1.009312,0.01746865,0.1648735
1.01014,0.01512234,0.1627726
1.009577,0.01466765,0.1662908
1.009586,0.01374836,0.1662542
1.009994,0.0126094,0.1680707
1.009485,0.01714714,0.1685067
1.010176,0.02197385,0.1626608
1.011568,0.02145095,0.161802
1.012885,0.0195844,0.1639248
1.01289,0.01937012,0.1650312
1.01161,0.01818728,0.1655254
1.010941,0.01902234,0.1639207
1.009681,0.02155906,0.1628453
1.011307,0.01644135,0.161963
1.015563,0.009511485,0.1615693
1.015696,0.00728662,0.1611519
1.014034,0.008248516,0.1602974
1.011028,0.01701317,0.1597412
1.006842,0.02414226,0.1576806
1.008029,0.01678521,0.158274
1.010299,0.008641325,0.1608847
1.009734,0.01286348,0.1600773
1.012083,0.01532023,0.1560178
1.015981,0.01175443,0.1515491
1.017345,0.01142433,0.1546288
1.016987,0.006630012,0.158849
1.016767,0.002935557,0.1536477
1.016762,0.005551483,0.1515518
1.014611,0.004482443,0.1553777
1.012744,0.009229411,0.1559682
1.012763,0.01642032,0.1545154
1.012024,0.01792459,0.1498515
1.012606,0.02209221,0.1446876
1.012864,0.02173295,0.1453186
1.012128,0.01915977,0.1482858
1.013781,0.02067685,0.1508592
1.014125,0.0182381,0.1532632
1.013711,0.01731995,0.1516982
1.013748,0.01968933,0.149187
1.012032,0.01942217,0.1538874
1.011638,0.01945844,0.1581672
1.012722,0.01899177,0.1554647
1.013936,0.01657266,0.1527254
1.014899,0.01431631,0.1497432
1.015438,0.01321762,0.1473757
1.015576,0.01346968,0.1478742
1.014879,0.01393373,0.1472236
1.015085,0.01502327,0.148483
1.013656,0.01561134,0.1555212
1.011586,0.01505477,0.1608882
1.012646,0.01593764,0.1543418
1.012737,0.01795093,0.1462987
1.012592,0.02013964,0.1501743
1.014445,0.01997496,0.1515816
1.014866,0.01861327,0.1474191
1.011046,0.01968808,0.1492969
1.006904,0.01869691,0.1507561
1.010136,0.01711605,0.1511844
1.014962,0.01719493,0.151969
1.015803,0.01455255,0.1484632
1.017977,0.01309411,0.1463914
1.01825,0.01463759,0.1462963
1.014789,0.01667404,0.148863
1.013444,0.0185889,0.1532607
1.0146,0.01747388,0.1515504
1.015884,0.01638442,0.1513462
1.015519,0.01949046,0.1539723
1.015711,0.02142559,0.1522648
1.017007,0.01811882,0.1516211
1.014321,0.01537097,0.1515595
1.010814,0.01692581,0.1507611
1.011806,0.01808857,0.1504921
1.014722,0.01786727,0.1476807
1.015721,0.01827328,0.1453509
1.01559,0.01749066,0.1448926
1.017056,0.01539252,0.1441975
1.016131,0.01417845,0.1441866
1.014225,0.01563566,0.143733
1.015416,0.01885581,0.1440964
1.01323,0.02093827,0.1508132
1.009725,0.02268714,0.1601922
1.009462,0.02514564,0.161501
1.010479,0.02626625,0.1574011
1.014658,0.02311399,0.1537674
1.018791,0.01820003,0.1467792
1.018731,0.01928453,0.1435833
1.017072,0.02229649,0.1479227
1.016266,0.02236751,0.148117
1.015206,0.02436593,0.1486584
1.014199,0.02548541,0.154121
1.014114,0.02486876,0.1565025
1.011924,0.02511473,0.1591838
1.012147,0.0244379,0.1622829
1.015355,0.02339341,0.1602086
1.015183,0.02166388,0.1552122
1.01491,0.02164073,0.1513844
1.012732,0.02204892,0.1529801
1.009819,0.0206173,0.157339
1.011345,0.02344759,0.1589489
1.01158,0.02668116,0.1585919
1.011662,0.02659329,0.1581452
1.012998,0.02797507,0.1592639
1.012486,0.0283026,0.1595324
1.01236,0.0274709,0.1559618
1.012567,0.0287757,0.1530064
1.012532,0.0296362,0.1539057
1.012807,0.02901734,0.1543164
1.014276,0.02908521,0.1511494
1.015735,0.02878722,0.1495596
1.01447,0.0263616,0.1531182
1.013301,0.02423289,0.1570678
1.013428,0.0243443,0.157756
1.011437,0.02376844,0.1574753
1.009044,0.02180808,0.1589174
1.011584,0.02360723,0.1604903
1.015585,0.02598055,0.1611935
1.015185,0.02292984,0.1606461
1.012939,0.02123665,0.1563247
1.010293,0.0222544,0.1518408
1.009204,0.02045936,0.1495189
1.011814,0.01911985,0.1474221
1.012674,0.02200629,0.1509904
1.009714,0.02760775,0.1582372
1.007881,0.03038652,0.1606378
1.011165,0.0279174,0.1621398
1.015765,0.02551308,0.1621308
1.01554,0.02614294,0.1574118
1.013763,0.0258511,0.1558393
1.013141,0.02061486,0.1544301
1.013308,0.01502344,0.1519699
1.016004,0.01589035,0.1532858
1.017342,0.02191955,0.1513332
1.015354,0.02612757,0.1514757
1.013953,0.02209228,0.1544647
1.013553,0.01717118,0.1546837
1.012988,0.02128919,0.1591993
1.012316,0.02580702,0.1594724
1.012678,0.02584759,0.1562035
1.014157,0.02445266,0.1520356
1.014132,0.02091724,0.1434895
1.012814,0.02167945,0.1470622
1.012771,0.02355751,0.1498526
1.012853,0.0212115,0.1459463
1.012443,0.02240567,0.1528179
1.01433,0.02275885,0.1567643
1.016119,0.02139802,0.1589886
1.015129,0.02306355,0.1625129
1.015047,0.02287719,0.1607953
1.015554,0.0243923,0.1626189
1.015111,0.02777057,0.1616459
1.015319,0.02971896,0.1602479
1.014607,0.03110125,0.1620224
1.011271,0.03087146,0.1616109
1.006922,0.03225043,0.1676952
1.00627,0.03100538,0.1725903
1.010094,0.02632621,0.168283
1.013846,0.02438417,0.1623291
1.016189,0.02297513,0.1598798
1.014999,0.02444903,0.162335
1.010856,0.02577502,0.1617889
1.009094,0.02310085,0.1559747
1.009246,0.02176164,0.1538277
1.008814,0.02033211,0.1661939
1.006356,0.02064909,0.1806573
1.005392,0.02243226,0.1740438
1.010582,0.02107191,0.1668266
1.014776,0.0179943,0.1687314
1.013362,0.01410617,0.1619197
1.011694,0.01570702,0.1612047
1.012671,0.02016328,0.1652271
1.013892,0.01927807,0.1612156
1.013165,0.0193359,0.1626896
1.011071,0.0201958,0.1624452
1.007157,0.02071045,0.1594546
1.006477,0.02280902,0.1634439
1.011321,0.02000738,0.1633917
1.013276,0.01561153,0.1636427
1.01169,0.01480974,0.16524
1.010516,0.0160011,0.1649021
1.011005,0.0201239,0.1696816
1.011833,0.02394817,0.1696868
1.011513,0.02530007,0.1659541
1.012546,0.02612259,0.1658154
1.010718,0.02514748,0.168103
1.006728,0.0227723,0.1727133
1.007053,0.02318967,0.1710717
1.009145,0.02429179,0.1695314
1.012067,0.02202555,0.1714988
1.013349,0.02059894,0.1679912
1.011729,0.01955441,0.1671048
1.010914,0.01881035,0.1679106
1.010044,0.02160194,0.1636844
1.010102,0.02136404,0.1611211
1.010107,0.02012446,0.1627806
1.009474,0.02230488,0.1644289
1.011778,0.02222485,0.1654848
1.013215,0.02118242,0.1687192
1.011964,0.0198205,0.1704598
1.01064,0.01608363,0.1713362
1.009255,0.01342407,0.1756346
1.009133,0.01603209,0.1791394
1.008347,0.02074262,0.1778109
1.006533,0.01974706,0.1691276
1.008662,0.01848219,0.1627258
1.011931,0.02009303,0.1659227
1.012115,0.01843178,0.167554
1.011745,0.01808934,0.1691238
1.00929,0.01815828,0.1712852
1.005895,0.01504752,0.1667794
1.008552,0.01527898,0.164181
1.012326,0.01943141,0.1647636
1.011842,0.02552797,0.1648544
1.012479,0.02877076,0.1676783
1.012666,0.02339542,0.1677905
1.01002,0.01872187,0.165476
1.008482,0.02185473,0.1655177
1.008161,0.0235063,0.1645148
1.009761,0.02105572,0.1634832
1.012967,0.02047119,0.1629668
1.014668,0.01990509,0.1643582
1.014869,0.02134828,0.1682631
1.013672,0.02501164,0.1668403
1.011171,0.02246001,0.1655594
1.009193,0.01921204,0.1670025
1.011104,0.0196748,0.1626403
1.01478,0.01908085,0.159832
1.01669,0.01941131,0.1617862
1.02028,0.018752,0.164199
1.02017,0.01737603,0.1669574
1.015061,0.01832323,0.1668649
1.014165,0.0186312,0.1649624
1.013562,0.02055399,0.1618351
1.012553,0.0230667,0.1575454
1.012968,0.02131049,0.1560319
1.01219,0.01912787,0.1568607
1.014587,0.01936935,0.1566357
1.016078,0.01942736,0.1556146
1.014879,0.01805054,0.1562972
1.015293,0.01606061,0.1558132
1.014451,0.01519739,0.1553344
1.014516,0.01801949,0.1587747
1.015941,0.02159462,0.1606884
1.017117,0.02092435,0.1605706
1.017683,0.01945438,0.1612329
1.013138,0.01983269,0.1612004
1.006832,0.02107213,0.1610886
1.006255,0.02215492,0.1596079
1.010863,0.01890368,0.1533179
1.014721,0.0150214,0.1442783
1.015857,0.01658452,0.143964
1.01498,0.01697605,0.154968
1.012049,0.01332517,0.1646492
1.010953,0.01251468,0.1657223
1.012886,0.01694792,0.1577585
1.015348,0.02381921,0.152404
1.015187,0.02675773,0.160558
1.013838,0.02455323,0.1670214
1.01574,0.02454029,0.1635721
1.015566,0.02562471,0.1627507
1.01346,0.02428921,0.1636476
1.01325,0.02321715,0.1574336
1.011993,0.02189441,0.1526892
1.012218,0.02174773,0.1585164
1.012069,0.02299088,0.163019
1.010725,0.02304862,0.1582106
1.013224,0.02515905,0.1551519
1.015548,0.02841506,0.1566175
1.014925,0.02903116,0.1528966
1.01233,0.02683301,0.148296
1.009308,0.02377426,0.1517064
1.010008,0.02471356,0.1541499
1.013699,0.0259436,0.1512986
1.016268,0.02428232,0.1503503
1.015227,0.02512207,0.1496294
1.012461,0.02537395,0.1489532
1.010509,0.02445231,0.1529038
1.00908,0.02541249,0.157817
1.010285,0.02541805,0.1599661
1.013817,0.0269794,0.1579113
1.01651,0.02762167,0.1511752
1.018436,0.02419904,0.1492195
1.018771,0.02297359,0.1550628
1.015387,0.01968854,0.1589539
1.01126,0.0137485,0.1593086
1.013553,0.01801302,0.1570621
1.017272,0.02458157,0.1496189
1.014695,0.02080063,0.1435616
1.014636,0.01867327,0.1479722
1.01599,0.02031355,0.153479
1.01234,0.01896622,0.1525457
1.010363,0.02047565,0.1560096
1.010027,0.02148003,0.1571501
1.012883,0.01978086,0.1526959
1.017137,0.01777824,0.1550907
1.014786,0.01213632,0.1564871
1.012743,0.009981869,0.1573972
1.012712,0.01369935,0.1597104
1.011913,0.01642431,0.1561161
1.01291,0.01734112,0.154911
1.012501,0.01795296,0.1554508
1.012191,0.02090216,0.1594905
1.012879,0.02296269,0.1668239
1.012249,0.02005067,0.1641404
1.012547,0.01667563,0.1622471
1.012622,0.017291,0.1647126
1.012484,0.0222319,0.160777
1.013561,0.02592522,0.1587483
1.013904,0.02181356,0.1618095
1.003072,0.03875885,0.1785856
1.006954,0.0412243,0.1729762
1.007633,0.03241033,0.1552107
1.007655,0.02994256,0.1402962
1.010243,0.006841558,0.1356417
1.016035,-0.02190114,0.1250057
1.017664,-0.03179122,0.1076799
1.023221,-0.03357362,0.090457
1.035382,-0.02696285,0.08182276
1.036428,-0.02980899,0.08235383
1.031503,-0.05319995,0.09836978
1.031601,-0.08385181,0.1209987
1.032042,-0.09514909,0.1147357
1.029889,-0.08373458,0.0993184
1.022025,-0.07332022,0.1025756
1.005402,-0.04055995,0.1100379
0.990632,0.004651089,0.1296772
0.9934892,0.02847047,0.1513211
1.008457,0.06193539,0.1588633
1.022207,0.07783565,0.1625379
1.028805,0.04643378,0.1511456
1.026158,0.02340105,0.1382961
1.025466,0.009851139,0.1344789
1.028557,-0.007310189,0.1213372
1.024892,-0.009726891,0.1145377
1.015227,-0.01669487,0.1147069
1.005004,-0.02093627,0.1089113
1.008824,-0.009936174,0.09979829
1.025194,-0.002293285,0.08602251
1.030937,0.004684227,0.08414834
1.025678,-0.001793863,0.09758679
1.017922,-0.0244894,0.1100163
1.016169,-0.04414081,0.1153353
1.02038,-0.06094089,0.1044265
1.019922,-0.06329236,0.08608573
1.022175,-0.05691075,0.08197162
1.019201,-0.04262336,0.08924027
1.006384,-0.0036626,0.1039818
1.00338,0.02754789,0.1284274
1.00905,0.03681346,0.1453962
1.018591,0.03689633,0.1446098
1.031092,0.0235955,0.136934
1.041277,0.0096791,0.1305214
1.031808,-0.00127277,0.1305828
1.006776,-0.005737086,0.1320695
1.007594,0.005606143,0.1233269
1.017952,0.01263747,0.1122652
1.018219,0.004234892,0.1095688
1.026204,-0.0123839,0.1102955
1.025366,-0.02771188,0.1082326
1.025105,-0.02944581,0.1025685
1.031826,-0.01943583,0.09605137
1.029381,-0.01096967,0.08846172
1.033561,-0.0117205,0.08922755
1.033992,-0.01863283,0.112062
1.020164,-0.02753713,0.1279972
1.00765,-0.03606926,0.1029498
1.00781,-0.04433823,0.06389321
1.02416,-0.0455779,0.05488923
1.032235,-0.03269968,0.07542049
1.023099,-0.01735613,0.09733362
1.011525,0.01461349,0.1094655
1.006076,0.06118134,0.1129792
1.010322,0.06562705,0.1061457
1.017615,0.04819217,0.0901424
1.030983,0.05075757,0.07246217
1.042937,0.02999517,0.06960663
1.04074,0.003424605,0.08278619
1.031005,0.01877802,0.09640616
1.012382,0.03358088,0.1055072
1.00033,0.03486836,0.104858
1.011723,0.03646936,0.09595484
1.027934,0.02487515,0.09356318
1.036478,0.01869071,0.09989576
1.035716,0.01267576,0.1137044
1.020785,-0.001903247,0.1276085
1.000689,-0.005613009,0.1206185
0.996211,-0.009786033,0.0920954
1.018965,0.001360133,0.06772533
1.052962,0.03877681,0.07260902
1.061418,0.07134469,0.09274496
1.030008,0.08520443,0.1084253
0.987566,0.07092309,0.1350172
0.9752161,0.04058919,0.1459504
1.003524,0.007613405,0.1248578
1.034942,-0.01387504,0.1147815
1.037162,-0.009260526,0.1080577
1.021967,-0.01223968,0.09589942
1.004215,-0.009175116,0.09304902
0.995299,0.01048448,0.09015718
1.008236,0.007414945,0.09181259
1.028692,0.01229002,0.08878552
1.034182,0.03035719,0.08509262
1.022565,0.03793099,0.101586
1.002838,0.04501837,0.124732
0.993708,0.03517855,0.139013
1.006415,0.01412281,0.1271549
1.023569,-0.003592439,0.1069184
1.028523,-0.008421966,0.1035885
1.02597,9.393158e-05,0.09941092
1.023725,-0.005559521,0.1008486
1.02261,-0.007009451,0.1038356
1.021435,-0.002495586,0.099776
1.020426,-0.008888486,0.1022544
1.019537,-0.007149734,0.09616885
1.020932,-0.009144665,0.09012983
1.02416,-0.009407087,0.09625641
1.023989,-0.002018471,0.09718432
1.023757,-0.00749177,0.09542329
1.027559,-0.009856056,0.09125549
1.029475,-0.009673837,0.08704754
1.025317,-0.008664218,0.08976286
1.019091,-0.001184383,0.09297149
1.017501,-0.005096492,0.09554874
1.018189,-0.007529503,0.096646
1.015961,-0.003861387,0.09709828
1.015987,-0.005806393,0.09778707
1.022107,-0.002929298,0.0968246
1.029652,-3.802705e-05,0.0972415
1.029021,-0.002232795,0.1008478
1.018211,-0.004765167,0.1148153
1.0092,-0.008936636,0.1334181
1.008709,-0.01079677,0.1334077
1.014455,-0.009556998,0.1209761
1.021352,-0.009343323,0.1096105
1.024914,-0.01149778,0.09555729
1.025671,-0.01701501,0.09568525
1.028656,-0.02366,0.1050112
1.033803,-0.02047047,0.1042612
1.025796,-0.00347336,0.104126
1.014925,0.01152865,0.07312893
1.024319,0.008133441,0.03130435
1.03283,-0.01380865,0.06080304
1.029237,-0.02809614,0.0985511
1.020423,-0.009689139,0.0913748
1.00358,0.02146352,0.1028808
0.9992513,0.03317255,0.1195591
1.008855,0.02733892,0.1158441
1.012971,0.02163591,0.1103926
1.016423,0.01368831,0.09537744
1.017272,0.0005304524,0.08357181
1.016462,-0.002741168,0.08554375
1.022913,-0.008469723,0.08411619
1.026297,-0.02404486,0.08008756
1.021547,-0.01735941,0.08396311
1.013226,-0.004835184,0.09398374
1.008589,-0.01155391,0.100704
1.016747,-0.006293277,0.1001328
1.025281,0.008007671,0.09699905
1.022245,0.01342265,0.09961634
1.019828,0.01334511,0.1009437
1.022032,0.003774522,0.09434836
1.023098,-0.003866385,0.09109818
1.027336,-0.01623471,0.08864
1.030591,-0.02732833,0.08791886
1.026014,-0.01713977,0.08883015
1.024166,-0.01690365,0.08002068
1.028154,-0.02266917,0.07223408
1.028109,-0.02418824,0.07246376
1.018947,-0.03542905,0.08100976
1.007658,-0.0294776,0.09120825
1.008396,-0.02016587,0.09313186
1.015041,-0.02267946,0.1012057
1.019975,-0.01167263,0.1106411
1.029248,-1.554081e-05,0.106431
1.031469,0.004310065,0.09911805
1.025667,0.002821744,0.09530648
1.024009,-0.006435653,0.09427669
1.019912,-0.009638932,0.09925977
1.018174,-0.006306464,0.1063361
1.023423,0.003659425,0.1062197
1.023981,0.01286225,0.1040917
1.021622,0.00641072,0.1009302
1.017669,-0.001132219,0.09017067
1.014184,-0.0001440725,0.08330439
1.019246,-0.000863325,0.08595514
1.024464,-0.0006233487,0.08897546
1.023753,0.002009606,0.08744741
1.022336,-0.002021103,0.08662809
1.022033,-0.006039312,0.08717473
1.022642,-0.002815076,0.08048596
1.023985,-0.001995283,0.0738568
1.025214,-0.003709157,0.07432638
1.02343,-0.004340955,0.07558674
1.0212,-0.006107164,0.07509803
1.022503,-0.006195969,0.07537629
1.023499,-0.008275058,0.08203985
1.023512,-0.01630753,0.0939936
1.023853,-0.02023533,0.1006284
1.023481,-0.01026651,0.0922419
1.023557,0.003977041,0.08433314
1.023766,0.00627556,0.09536101
1.024548,0.001132479,0.1025584
1.029012,-0.003843859,0.09737423
1.032206,-0.01126553,0.09807268
1.024095,-0.01341873,0.09897596
1.011228,-0.005549173,0.09540564
1.010542,-0.0009059374,0.09352163
1.020642,-0.005513322,0.09337796
1.027853,-0.01033923,0.09505726
1.026868,-0.01494419,0.10177
1.021978,-0.02310105,0.1105438
1.019018,-0.023751,0.1075259
1.017821,-0.01627519,0.09702999
1.019342,-0.01418413,0.09376874
1.022031,-0.01352093,0.0951653
1.019551,-0.01119057,0.1009608
1.017659,-0.01038413,0.1070539
1.018667,-0.007198989,0.1059429
1.01887,-0.004739395,0.1037382
1.021695,-0.003167276,0.1011021
1.0232,-0.003292737,0.1003656
1.022917,-0.006347238,0.1043747
1.02488,-0.007009123,0.1040237
1.024824,-0.009543469,0.1006465
1.022036,-0.005682571,0.09752674
1.019069,0.005850345,0.09420845
1.019231,0.006768413,0.09388062
1.021838,0.004856177,0.09111152
1.022505,0.004852294,0.08564124
1.022353,-0.0001740286,0.08388323
1.022068,-0.003851456,0.08599717
1.022164,-0.002747986,0.08989515
1.022459,0.0004103005,0.09170438
1.020368,0.001142167,0.09280643
1.014299,0.005464818,0.09621619
1.009291,0.01110336,0.09906435
1.018757,0.006301552,0.0955882
1.03187,0.0003148719,0.08620784
1.027726,-0.003717864,0.08336327
1.021773,-0.003272353,0.08980625
1.022986,0.007216192,0.09975197
1.021202,0.01717993,0.1073386
1.021416,0.02171951,0.1042965
1.021474,0.01221816,0.1001366
1.020596,-0.001865938,0.09983267
1.023408,0.001271642,0.09503738
1.022154,0.00554697,0.0931566
1.021482,0.006808972,0.09479704
1.023886,0.01090936,0.09250796
1.026736,0.005206291,0.09151329
1.037064,0.0003708213,0.09436001
1.040437,0.003323743,0.09758362
1.022883,0.003247884,0.09964389
1.002163,0.002271665,0.1017359
1.000263,0.003268211,0.1001849
1.011415,0.004731415,0.08982458
1.015595,0.006954364,0.08346846
1.018209,0.01120382,0.09386149
1.022844,0.01450673,0.1049423
1.016668,0.01094767,0.1012628
1.00954,0.005553644,0.09892783
1.015141,0.004462832,0.102717
1.025677,0.002011609,0.09645087
1.030515,-0.001574995,0.09249408
1.0273,-0.003943691,0.09827036
1.021615,-0.008307228,0.09926667
1.021368,-0.001927023,0.09844921
1.021727,0.01069884,0.09687069
1.019966,0.009223679,0.09314906
1.025618,0.009514516,0.09265335
1.035011,0.009327901,0.09888342
1.045509,-0.007455045,0.1055005
1.047071,-0.01632798,0.09162537
1.020338,-0.01017221,0.06927846
0.9949416,-0.001918696,0.06539259
1.004152,0.01528765,0.07200001
1.026337,0.04509633,0.08057115
1.032634,0.06040839,0.09401974
1.018765,0.04390805,0.1074557
1.005244,0.03048712,0.1055357
1.016851,0.02240493,0.09432112
1.032814,0.002432205,0.09403923
1.026611,0.003033999,0.09500259
1.023952,0.01064933,0.09569659
1.024905,0.002669191,0.09965775
1.013831,0.007268491,0.09685131
1.012551,0.0108387,0.09510473
1.019072,0.004137953,0.0947385
1.02571,0.007846696,0.09568623
1.025767,0.01763608,0.1033716
1.014272,0.03658884,0.1134911
1.012359,0.04827885,0.1242759
1.017838,0.03111669,0.118462
1.024356,0.01167991,0.09911414
1.024381,0.002650504,0.08876701
1.013654,0.0006425759,0.08562247
1.010805,0.006115084,0.09230842
1.011762,0.009217173,0.09757252
1.018764,0.01397236,0.09283353
1.028353,0.01834347,0.0945444
1.024537,0.01660398,0.09684046
1.017289,0.01637144,0.1014243
1.01137,0.01393985,0.1077756
1.018532,0.01126346,0.09353911
1.030554,0.01286121,0.0746047
1.026841,0.0129323,0.07495116
1.026763,0.01536726,0.08770306
1.027766,0.02224203,0.1110002
1.017532,0.02605657,0.1376905
1.00782,0.01855131,0.1390286
1.006545,0.001714863,0.1221067
1.018422,-0.01024627,0.1143334
1.030428,-0.01169564,0.1064708
1.029437,-0.007837801,0.1082243
1.022686,-0.004813666,0.122132
1.018273,-0.002486799,0.1209753
1.018531,-0.002851666,0.1203874
1.017459,-0.01127407,0.1231631
1.014288,-0.01694066,0.1202865
1.0158,-0.01474392,0.1217553
1.018148,-0.01042974,0.1166305
1.018073,-0.004064305,0.1123178
1.019692,-0.001735956,0.1123487
1.020194,-0.005336341,0.1127663
1.018825,-0.01014423,0.120195
1.020598,-0.01151236,0.1169342
1.021056,-0.007268438,0.1108982
1.018585,-0.004856567,0.1122441
1.017775,-0.007979244,0.1118803
1.017782,-0.01126075,0.1170382
1.018348,-0.009745318,0.1177169
1.01827,-0.008777455,0.1147915
1.018964,-0.01066067,0.1150866
1.021915,-0.009694499,0.1100377
1.022274,-0.01127196,0.1067859
1.020412,-0.01275895,0.1036716
1.019197,-0.007623699,0.1017696
1.021462,-0.004146845,0.1020133
1.026272,-0.005209367,0.09511972
1.027709,-0.006402705,0.09445095
1.026166,-0.005929642,0.09866492
1.021675,-0.0098406,0.09813096
1.018437,-0.01825762,0.1025904
1.023349,-0.01827733,0.1002263
1.028642,-0.005980854,0.07602828
1.025317,0.003338021,0.05306841
1.01296,-0.01065638,0.06061429
1.003212,-0.02567809,0.07380215
1.013207,-0.009163599,0.06986616
1.027061,0.01340023,0.08212939
1.020449,0.01993689,0.09589872
1.009771,0.01318768,0.08872276
1.006731,-0.002658318,0.08858875
1.009342,-0.00836744,0.0793504
1.026715,-0.009599449,0.06518219
1.042344,-0.01249164,0.07004571
1.041272,-0.005366358,0.06936018
1.029545,-0.0004946828,0.06893327
1.011724,0.00588935,0.07704384
1.006228,0.01493368,0.08157328
1.013184,0.007042653,0.08280527
1.019304,-0.001223977,0.08067176
1.025779,0.003221046,0.08251999
1.02588,0.00430861,0.0794502
1.022125,0.000838582,0.06548938
1.02249,-0.001602417,0.05497014
1.026732,-0.01235201,0.0567211
1.036252,-0.02640848,0.06676192
1.042828,-0.02490218,0.06831404
1.036709,-0.01470867,0.06913575
1.023561,-0.006195556,0.071292
1.016749,-0.003112303,0.06638954
1.019933,-0.007534479,0.06869593
1.028072,-0.009540995,0.06953804
1.035161,-0.01206982,0.07099292
1.035832,-0.01422409,0.0798472
1.028246,-0.01069216,0.08374148
1.020607,-0.00857261,0.09206558
1.02518,0.0005521809,0.09215732
1.029916,0.01428107,0.08179993
1.026209,0.01725572,0.08393459
1.025052,0.0150855,0.08833498
1.019739,0.01229352,0.09403511
1.013912,0.004059769,0.1002297
1.018223,-0.004124086,0.09735451
1.022792,0.005225639,0.0939511
1.024534,0.02017268,0.09288292
1.0198,0.01652553,0.1013643
1.012141,0.01482784,0.112318
1.015822,0.01593968,0.1042743
1.021636,0.006222968,0.09359136
1.022109,0.009191458,0.09313628
1.023034,0.01442857,0.08775493
1.021869,0.01053442,0.08085657
1.021755,0.01451695,0.08348936
1.022567,0.01772725,0.09439711
1.01886,0.02224562,0.1044404
1.017178,0.02554686,0.1032115
1.017267,0.01743703,0.1017676
1.016342,0.01535407,0.1075159
1.017712,0.01632193,0.1062281
1.021537,0.01132763,0.1025637
1.02772,0.006159235,0.1004317
1.028513,0.00495002,0.09278593
1.023217,0.01275876,0.0927837
1.021356,0.01696192,0.09674835
1.022231,0.01157863,0.09321604
1.023734,0.005988201,0.09442866
1.025209,0.002478266,0.09641208
1.027748,0.00355787,0.09529887
1.029464,0.007470146,0.09875709
1.024403,0.01256061,0.1007403
1.019344,0.01581794,0.1017266
1.0196,0.01443589,0.1015762
1.020571,0.00735942,0.09871962
1.022633,-0.004873094,0.09866542
1.02591,-0.005491802,0.09907719
1.024491,-0.002158581,0.1021525
1.020377,-0.01023014,0.1056873
1.021265,-0.01090267,0.1043609
1.023801,-0.007019199,0.1050072
1.025013,-0.007092292,0.1051652
1.023639,-0.003422588,0.1020401
1.019001,-0.002871695,0.1022288
1.019121,-0.003188087,0.1051981
1.020984,-0.002046488,0.1083918
1.020545,-0.003383511,0.1131596
1.021293,-0.002562606,0.1153359
1.020556,-0.002595172,0.1122645
1.020911,-0.003191185,0.1115992
1.022138,-0.001816522,0.1113721
1.021645,0.000167837,0.1086729
1.020885,0.004930725,0.1091987
1.018805,0.00648996,0.1071753
1.020026,0.003213088,0.1026273
1.022087,0.001264033,0.1030996
1.02136,-0.001616169,0.1047762
1.023213,-0.004074521,0.1043093
1.023041,0.00139888,0.103766
1.019702,0.008475174,0.1052871
1.01895,0.00559979,0.1087123
1.019474,0.001923986,0.1121895
1.01965,0.003631775,0.111591
1.019305,0.002357366,0.1068702
1.019758,0.002269601,0.1016617
1.021228,0.002710297,0.09544498
1.021864,0.0004948207,0.09681838
1.021773,0.002716124,0.1053586
1.021984,0.004513544,0.1063253
1.022461,0.004782793,0.1042861
1.021235,0.005766664,0.103917
1.020642,0.002592497,0.1028396
1.022913,0.0009910762,0.1027299
1.023573,0.004428528,0.1005884
1.020139,0.008429372,0.1007504
1.013937,0.008620149,0.1064335
1.011718,0.00500988,0.1114499
1.017625,0.003540918,0.1105617
1.023069,0.004205706,0.1075108
1.022263,0.005323098,0.1102174
1.018921,0.005869437,0.10975
1.017579,0.005332874,0.103633
1.019582,0.006248193,0.09973344
1.023724,0.008172916,0.09559858
1.027032,0.01028746,0.09550261
1.025674,0.008456927,0.09882638
1.020567,0.002723654,0.1013881
1.016982,0.0009499941,0.1040334
1.019594,0.004165892,0.1021284
1.024286,0.008661569,0.1000542
1.023852,0.0089596,0.1002515
1.022781,0.00663449,0.0992814
1.022283,0.006357988,0.09997716
1.019998,0.003309124,0.1028146
1.021021,0.000343862,0.1042983
1.023211,0.002172456,0.1019196
1.023311,0.003351123,0.1021096
1.022213,0.001800077,0.1031238
1.019975,0.0009254363,0.09917939
1.020768,0.00254195,0.09707303
1.022447,0.003536591,0.09383915
1.021935,0.003988083,0.09249231
1.022457,0.004600908,0.09486159
1.021722,0.003275841,0.09303447
1.019257,0.004001269,0.09873642
1.017948,0.006385776,0.1045929
1.019469,0.008044493,0.1001431
1.022913,0.01023602,0.1010528
1.022214,0.008228796,0.1028818
1.019753,0.004627288,0.1031987
1.019811,0.005755585,0.1063132
1.020807,0.007899613,0.1031292
1.023048,0.0121423,0.09974092
1.022215,0.01729723,0.1020423
1.019577,0.01567007,0.1036451
1.019565,0.01308761,0.1035123
1.019077,0.0111673,0.1002347
1.019736,0.004042916,0.09371234
1.020459,0.001410829,0.09251705
1.019877,0.003847186,0.0991053
1.020416,0.002405745,0.1032035
1.019772,0.002839092,0.1011492
1.0194,0.00536601,0.09826726
1.019618,0.006434574,0.09545588
1.020126,0.008035518,0.09180831
1.02129,0.009240654,0.0907285
1.019409,0.01350403,0.09314878
1.017201,0.01767305,0.09646565
1.01636,0.01717977,0.101399
1.016504,0.01832837,0.1029305
1.018085,0.0185486,0.1002397
1.017866,0.01640855,0.1006633
1.017183,0.01446171,0.09749784
1.016706,0.01075914,0.09247123
1.017706,0.01036381,0.09571401
1.021508,0.01039452,0.09881042
1.022537,0.009027141,0.09849209
1.020456,0.01326904,0.0992101
1.018883,0.01564421,0.1002623
1.020109,0.01433262,0.1017005
1.021763,0.01485253,0.1003415
1.020282,0.01508774,0.09700917
1.019771,0.01572917,0.09804297
1.019604,0.01533016,0.1024141
1.018923,0.01617497,0.1057785
1.019876,0.01896488,0.1069006
1.019707,0.01818317,0.1041547
1.021009,0.01733496,0.09865265
1.023306,0.01594756,0.09659801
1.023027,0.01197124,0.09810564
1.023593,0.009799846,0.09976714
1.023991,0.009826317,0.1008728
1.023114,0.01066292,0.09533815
1.022804,0.01105422,0.08744218
1.022402,0.01048228,0.09038309
1.023756,0.009237891,0.09661861
1.024956,0.01023112,0.09821699
1.020099,0.01403303,0.100861
1.013506,0.01678671,0.1012982
1.013453,0.01750369,0.09640786
1.017415,0.0159794,0.0921731
1.019673,0.01467069,0.09238056
1.020516,0.01120153,0.09369683
1.022772,0.006225526,0.09209497
1.025694,0.007912958,0.09196151
1.023496,0.008208971,0.09447165
1.018857,0.006830654,0.09656069
1.019171,0.01164657,0.09926722
1.020052,0.0121003,0.09719636
1.019944,0.009040811,0.08965805
1.021362,0.009915342,0.08597603
1.020884,0.01106383,0.08928251
1.020491,0.01570055,0.09903435
1.021179,0.0214698,0.1064688
1.020637,0.01913236,0.1011304
1.020853,0.0163111,0.09331043
1.020765,0.01810396,0.09302585
1.019779,0.01390103,0.09192903
1.019315,0.005794046,0.09085789
1.019257,0.00263546,0.09536721
1.019836,0.002500844,0.09609603
1.020292,0.005642451,0.09214758
1.020979,0.01355984,0.0885305
1.021138,0.0198202,0.08748106
1.020651,0.01473964,0.09542829
1.021872,0.004876583,0.1030622
1.022602,0.004713557,0.1019586
1.022088,0.006915972,0.1015067
1.022237,0.007581007,0.1060018
1.022223,0.01061806,0.1104131
1.022046,0.007608416,0.1106133
1.021346,0.002857443,0.1124919
1.020511,0.002524658,0.1127604
1.020796,0.002504772,0.1000329
1.020804,0.003155984,0.08891612
1.01986,0.002676839,0.09390398
1.019511,0.002358842,0.09919973
1.021184,0.00229809,0.09643062
1.022938,0.001113557,0.1010666
1.022323,0.003397707,0.1073324
1.021812,0.005901177,0.1032628
1.022493,0.005691324,0.1034065
1.022227,0.005843164,0.1054619
1.022037,0.007256768,0.10404
1.022422,0.009372517,0.1090387
1.02177,0.01026356,0.1121133
1.020397,0.01030215,0.1084492
1.019024,0.006842526,0.1056612
1.019453,0.0001708272,0.1060113
1.021728,-0.001402829,0.1043405
1.022563,-0.0008325978,0.100246
1.022643,-0.001538823,0.1046333
1.02392,0.002081239,0.1084732
1.02511,0.006538761,0.1017701
1.023614,0.007037466,0.09838053
1.021295,0.003132966,0.1015931
1.023464,-0.004740969,0.1049207
1.026308,-0.008729586,0.1064483
1.025517,-0.006077826,0.1073443
1.022022,-0.004120202,0.1087839
1.016996,-0.004150473,0.1088508
1.017319,-0.002554771,0.1093131
1.020216,-0.0009466889,0.1091031
1.019064,0.001831026,0.1063464
1.01889,0.007353187,0.1063534
1.017145,0.005184573,0.1086556
1.013945,-0.003473203,0.1086128
1.016053,-0.006654472,0.1087502
1.020094,-0.007150053,0.1085546
1.025006,-0.009315591,0.1031313
1.027582,-0.01363121,0.09789938
1.023161,-0.01397093,0.09842865
1.019415,-0.01055013,0.1021082
1.017366,-0.0133283,0.1090512
1.011542,-0.01291806,0.116565
1.008237,-0.01021415,0.1158754
1.012384,-0.01249448,0.1107716
1.017354,-0.0132793,0.1136817
1.017976,-0.01972457,0.1173914
1.013955,-0.02411926,0.1166925
1.007469,-0.01785714,0.1197855
1.005863,-0.01620241,0.1162209
1.0099,-0.02134799,0.1058856
1.013945,-0.0272779,0.09989779
1.019354,-0.03004594,0.09427054
1.024226,-0.0318742,0.09719339
1.022696,-0.03234846,0.1029701
1.015999,-0.02757542,0.09769707
1.010434,-0.02624673,0.09563045
1.01337,-0.02479,0.09516399
1.022053,-0.02181647,0.09018327
1.026332,-0.02263271,0.08828228
1.023909,-0.01983167,0.08406536
1.020791,-0.01875276,0.08075546
1.023108,-0.02005199,0.08451884
1.024563,-0.01816201,0.09014029
1.018603,-0.01629306,0.09585805
1.008619,-0.01340777,0.09599224
0.9986268,-0.01890534,0.0840849
0.9999471,-0.03492801,0.06981196
1.007033,-0.05743129,0.07632158
1.004624,-0.09318257,0.1090664
1.003475,-0.1108547,0.1407785
1.01384,-0.05981593,0.1369719
1.055777,0.0310395,0.09273209
1.110957,0.0747789,0.04508351
1.095178,0.06486296,0.03745636
1.024897,0.06024951,0.0827417
0.9892457,0.05625258,0.1248418
0.9984705,0.01575684,0.1144704
1.025051,-0.02614554,0.1038872
1.059336,-0.01258308,0.08872329
1.095644,0.0014804,0.04600784
1.069991,-0.03811383,0.06321143
0.9956404,-0.05738514,0.1074432
0.995162,-0.04230809,0.1026986
1.024524,-0.03586754,0.09385258
1.032874,-0.008717607,0.07694637
1.047745,0.02161411,0.06963083
1.022168,0.005766157,0.09441406
1.006174,-0.01770287,0.09890982
1.020064,-0.008297126,0.09795118
1.01379,-0.005205398,0.09545331
1.020724,-0.008431056,0.08345016
1.030299,0.006312857,0.08197731
1.034617,-0.01035561,0.07307218
1.027968,-0.03232646,0.07902663
1.011703,-0.01982697,0.09117687
1.022181,-0.01852056,0.08286708
1.025014,-0.01730465,0.08619011
1.02241,-0.01397933,0.08779934
1.026466,-0.01836677,0.08448017
1.019286,-0.009212355,0.08918729
1.023388,-0.003717057,0.08872471
1.027086,-0.001432478,0.09212167
1.026995,0.002392479,0.0966021
1.028347,0.001429489,0.09676339
1.018966,-0.002465455,0.09678908
1.015849,-0.01359141,0.09600598
1.020937,-0.01547936,0.09471195
1.02508,-0.00894707,0.0930358
1.021749,-0.00447002,0.09572007
1.013862,0.001764784,0.09650372
1.014809,0.003172018,0.09625772
1.020936,0.006219064,0.09477697
1.033606,0.008073666,0.08203913
1.040601,-0.008613817,0.07780784
1.028768,-0.02899212,0.09468284
1.017747,-0.02648002,0.1097504
1.015031,-0.01265599,0.1008385
1.016509,-0.009864433,0.08579734
1.017757,-0.008288968,0.08793096
1.016293,-0.004716818,0.08868336
1.022067,-0.002808692,0.08776463
1.034547,-0.000959584,0.08985984
1.039847,-0.004225873,0.08633454
1.022041,-0.002871745,0.09142068
1.002483,-0.002259712,0.09445699
1.017055,-0.0105925,0.08826707
1.030866,-0.01961549,0.08718174
1.022161,-0.03329106,0.08825922
1.02597,-0.0351383,0.09258577
1.030497,-0.01659728,0.0940102
1.021881,0.002245639,0.09231644
1.017902,0.006936956,0.09440921
1.014094,-0.007475527,0.09665783
1.014549,-0.01630717,0.1025667
1.019944,-0.01071664,0.1040988
1.018698,-0.00760308,0.1005873
1.017933,-0.005898779,0.1005379
1.017514,-0.01113826,0.0983239
1.020957,-0.01556426,0.0964519
1.026367,-0.001256505,0.09613732
1.016884,0.01454974,0.09802237
1.009871,0.01022143,0.1007855
1.02046,-0.006794201,0.09526779
1.03157,-0.02142116,0.08735828
1.033607,-0.02627941,0.08539325
1.03048,-0.01525764,0.09010808
1.026503,-0.002230929,0.09697395
1.020531,0.001433967,0.1000459
1.016781,0.002799277,0.1005847
1.016599,-0.005386627,0.09483632
1.013501,-0.0136482,0.08725661
1.015258,-0.01104134,0.09033377
1.022134,-0.009265615,0.09481774
1.022978,0.000776675,0.09395147
1.021554,0.01472682,0.09487462
1.020004,0.01135533,0.09457665
1.015739,0.005123225,0.09417621
1.0126,0.005265359,0.09691572
1.012705,-0.004567476,0.09706628
1.018162,-0.01295469,0.0951619
1.029182,-0.01236063,0.09216583
1.035581,-0.02037825,0.091827
1.028848,-0.02251249,0.09855086
1.020474,-0.01524766,0.1028847
1.022374,-0.01541361,0.1000259
1.024907,-0.0156508,0.09706481
1.024286,-0.0166162,0.09944694
1.023946,-0.01376195,0.1028983
1.021601,-0.005557207,0.1033779
1.023622,-0.002688399,0.1028326
1.026219,0.000973355,0.09887682
1.022199,0.00294204,0.09486926
1.019771,0.001998338,0.09318028
1.019341,-0.001189835,0.09218031
1.020044,-0.009060786,0.09358093
1.021649,-0.01063889,0.09225576
1.020718,-0.007306273,0.09178358
1.022307,-0.0044408,0.0941598
1.026567,-0.003564058,0.09399767
1.029558,-0.00597779,0.09766709
1.02843,-0.007004909,0.1044051
1.021338,-0.006997589,0.1074401
1.016775,-0.004366703,0.102175
1.021223,-0.002994562,0.093919
1.02663,-0.005626892,0.09349747
1.024166,-0.007289312,0.09197294
1.021272,-0.01244631,0.08995826
1.02268,-0.01457455,0.09338856
1.021304,-0.006963383,0.09288704
1.020992,-0.003059061,0.09263167
1.021897,-0.009309528,0.09327454
1.019063,-0.01433518,0.09267591
1.017256,-0.007695381,0.09750635
1.016537,-0.0009554484,0.09973674
1.017971,-0.002992516,0.09805088
1.022396,-0.001261342,0.09770153
1.024657,0.007615557,0.09530954
1.024774,0.01311548,0.09347868
1.024711,0.003504467,0.09313724
1.025306,-0.010724,0.09399492
1.025235,-0.006726437,0.09457935
1.025522,0.001945797,0.09421949
1.026536,0.002543148,0.0954515
1.023616,0.002559182,0.09429704
1.021103,-0.002244966,0.09572059
1.022485,-0.004775881,0.09886725
1.02344,-0.004270036,0.09649032
1.023148,-0.005574559,0.09709182
1.020989,0.007123197,0.09803392
1.018939,0.02066917,0.09736665
1.020909,0.01385703,0.0994449
1.023749,0.001767452,0.09850913
1.023601,-0.002699491,0.09896373
1.022783,-0.0005464742,0.1026838
1.020733,0.002499177,0.1046629
1.018375,-0.001084707,0.1035725
1.021471,-0.003750905,0.09986173
1.023464,0.003251696,0.09926417
1.02081,0.007365664,0.09841572
1.018791,0.003397531,0.09541009
1.016136,0.001822111,0.0960188
1.017857,0.002873016,0.09813508
1.021879,0.00265306,0.1008738
1.019962,-0.0002059732,0.1023966
1.019664,-0.002312447,0.1008842
1.022077,-0.0007393141,0.0976328
1.023422,0.001435499,0.09309205
1.025482,0.003898502,0.09345418
1.024569,0.004851033,0.09675832
1.022661,0.005459656,0.09831053
1.023815,0.006227344,0.1024012
1.023758,0.005019732,0.1027154
1.022299,0.006164623,0.09951987
1.021635,0.008545136,0.1011991
1.019478,0.0101045,0.1001903
1.017418,0.009302094,0.09794329
1.019457,0.003625893,0.09649604
1.02376,-3.095311e-05,0.09034083
1.025624,0.001251024,0.09053992
1.023157,0.002978868,0.09391068
1.02028,0.002690067,0.09362372
1.020818,0.001618461,0.09873427
1.022086,0.00196629,0.1011322
1.022259,0.003783488,0.09995087
1.022184,0.005982798,0.1012051
1.021235,0.003360499,0.09585536
1.020507,-0.0004190503,0.08999633
1.021053,0.001713882,0.09117232
1.021981,0.002007604,0.09153845
1.023324,0.0009637941,0.09002797
1.023836,0.003653813,0.09248082
1.022612,0.004642585,0.09778258
1.021852,0.003984133,0.09971962
1.022244,0.002991805,0.09964182
1.022368,0.001565996,0.1014361
1.022109,0.001202836,0.1039884
1.022228,0.001285154,0.1034201
1.022299,0.001761995,0.09821094
1.02213,0.002205721,0.09470023
1.022274,0.002949633,0.09561661
1.022052,0.002555796,0.1003473
1.021453,-0.0006586609,0.1054571
1.021701,-0.003806181,0.1004997
1.02341,-0.005123793,0.09411176
1.025107,-0.005261846,0.09914083
1.02509,-0.007243521,0.1055441
1.024918,-0.01053239,0.1093204
1.025096,-0.01362163,0.1116673
1.024897,-0.01935692,0.1134623
1.025066,-0.02235884,0.1215427
1.024292,-0.0234977,0.1262023
1.020996,-0.0300631,0.1267331
1.016672,-0.03354488,0.1324832
1.015963,-0.03179766,0.1336315
1.019285,-0.03162935,0.133373
1.021093,-0.03274686,0.1315055
1.021775,-0.03588025,0.1225685
1.022646,-0.0392842,0.1206321
1.020847,-0.03994825,0.1216843
1.015891,-0.04017119,0.1266933
1.010749,-0.04210039,0.1374487
1.01106,-0.04024174,0.1355395
1.009426,-0.0284569,0.1384108
0.9969225,-0.01403361,0.1523254
0.9897868,-0.009425085,0.1507603
0.9980203,-0.01658937,0.1418538
1.011862,-0.02421638,0.132101
1.021683,-0.02781676,0.1184284
1.020372,-0.03413993,0.1121922
1.019823,-0.04610436,0.1038312
1.028502,-0.05834864,0.09713951
1.030621,-0.05157885,0.1066186
1.029148,-0.03184408,0.1107937
1.024593,-0.01468089,0.1110663
1.007774,0.0143144,0.1174555
1.003633,0.03675597,0.1127913
1.01471,0.0365707,0.1009218
1.021,0.02674607,0.08254549
1.026894,0.0068349,0.06664774
1.023909,-0.003574087,0.07006244
1.016179,-0.003308263,0.06775874
1.017266,0.003341487,0.05771275
1.017145,0.02638258,0.05004118
1.021782,0.03706068,0.0311295
1.028397,0.039793,0.0168575
1.028015,0.04644205,0.0111031
1.031455,0.04082305,-0.009271249
1.033456,0.03875364,-0.03587939
1.033858,0.03123608,-0.04377417
1.040048,0.01091496,-0.03604004
1.041967,0.004334998,-0.02984745
1.035415,0.009378159,-0.0191101
1.029383,0.02037325,-0.005942946
1.030342,0.03616773,-0.004723991
1.02694,0.04302159,-0.001998866
1.017322,0.03699119,0.004003913
1.018322,0.03084293,0.0005992834
1.021683,0.02998768,-0.004279999
1.020234,0.03204191,-0.01500726
1.02431,0.04280183,-0.03692692
1.027926,0.05210715,-0.05179781
1.030176,0.05474196,-0.05468452
1.032905,0.05490593,-0.05792982
1.027783,0.04703457,-0.06956876
1.022756,0.04490464,-0.08561306
1.024101,0.0512038,-0.09657842
1.026362,0.06249736,-0.1033248
1.02648,0.08235989,-0.1081489
1.017015,0.09131921,-0.112974
1.005334,0.08890343,-0.1227107
1.007878,0.08720543,-0.1344692
1.015217,0.08608501,-0.1498475
