accx,accy,accz
1.007219,-0.1800543,-0.1661687
1.009422,-0.185623,-0.1792569
1.006344,-0.1946834,-0.1907638
1.004144,-0.2066367,-0.1833866
1.001644,-0.2096902,-0.1719459
1.004412,-0.2062316,-0.1768135
1.013664,-0.2047123,-0.1684913
1.009712,-0.1924118,-0.1511149
1.002759,-0.1785532,-0.1586754
1.000062,-0.1749291,-0.1691228
1.002882,-0.1728238,-0.1730823
1.011318,-0.172574,-0.1791406
1.009476,-0.1706755,-0.181126
1.011574,-0.166744,-0.1909359
1.028597,-0.1689469,-0.2136506
1.038778,-0.1724465,-0.2270737
1.028437,-0.1723426,-0.20556
1.006333,-0.170514,-0.1674412
0.9949836,-0.1643305,-0.1555613
0.9873147,-0.1606692,-0.1628213
0.9781651,-0.1786688,-0.1694374
0.9914579,-0.2056157,-0.1832421
1.010629,-0.2112771,-0.1996216
1.018539,-0.2061422,-0.2038631
1.02999,-0.2020185,-0.2084352
1.035644,-0.1930791,-0.2259369
1.025761,-0.1931331,-0.2289445
1.012863,-0.1945741,-0.2110734
1.003153,-0.1826578,-0.197462
0.9988416,-0.1780735,-0.1848658
1.003862,-0.1754307,-0.178455
1.004592,-0.1657883,-0.1889081
0.9998759,-0.1677454,-0.1965718
1.002757,-0.1715475,-0.1927262
1.001587,-0.1712254,-0.1882033
1.001515,-0.1741609,-0.187481
1.004873,-0.1739522,-0.1859986
0.9992254,-0.175149,-0.1880038
1.00035,-0.1780677,-0.192827
1.004553,-0.1797222,-0.1916249
1.005328,-0.182774,-0.1936918
1.007174,-0.1810365,-0.1951593
1.004117,-0.1767378,-0.1913035
1.005616,-0.1757265,-0.1920257
1.005623,-0.1752815,-0.1887993
1.00151,-0.173677,-0.1840257
1.000648,-0.1713606,-0.184748
0.9947044,-0.1706804,-0.185345
0.9945572,-0.1738802,-0.1884357
0.997099,-0.1813166,-0.1902701
0.9919703,-0.1890832,-0.1851913
0.9920063,-0.191363,-0.1806504
0.9980174,-0.1907293,-0.1876718
1.008837,-0.1919081,-0.2007871
1.015175,-0.1943917,-0.205291
1.007605,-0.2027661,-0.2046316
1.003885,-0.2106552,-0.2086824
1.01062,-0.1960326,-0.2230261
1.013292,-0.1749403,-0.2359064
1.005989,-0.1748317,-0.2268618
0.9999208,-0.1706674,-0.2147359
1.001923,-0.1514647,-0.2181581
1.002452,-0.1448664,-0.2183917
1.001622,-0.1565478,-0.2171651
1.005186,-0.177581,-0.2230196
1.00653,-0.1906732,-0.2212445
1.002848,-0.1849791,-0.2176465
0.9949241,-0.1770939,-0.2153151
0.9877858,-0.1752884,-0.2109833
0.9971303,-0.1806505,-0.2295657
1.00991,-0.1895753,-0.253276
1.00383,-0.1884585,-0.2478156
1.000081,-0.1857919,-0.2442978
1.003401,-0.1885453,-0.2534928
0.9983868,-0.1865724,-0.2476017
0.9987342,-0.1824055,-0.2324084
0.9975459,-0.1806411,-0.2165791
0.9853946,-0.1831658,-0.2044613
0.9827612,-0.1871605,-0.2058812
0.9923344,-0.1792217,-0.206569
1.003349,-0.1657344,-0.2126736
1.005032,-0.1630712,-0.2354088
1.001212,-0.1702602,-0.2414396
1.00519,-0.1783256,-0.2210854
1.00358,-0.1772804,-0.1915762
0.9895327,-0.1751837,-0.1767011
0.9817952,-0.181529,-0.200405
0.9994674,-0.1874375,-0.2286901
1.022076,-0.1906214,-0.2307836
1.010319,-0.185099,-0.2287986
0.990881,-0.1772704,-0.2333172
0.9853852,-0.1852196,-0.2385485
0.9824679,-0.1951894,-0.2460285
1.001361,-0.1984254,-0.2549158
1.019108,-0.1991705,-0.2538499
1.014161,-0.1964981,-0.2409694
1.011561,-0.1969149,-0.2327565
1.002679,-0.1949886,-0.2330029
0.9919995,-0.1893705,-0.2253858
0.9978593,-0.1833968,-0.2148516
1.00564,-0.1732591,-0.2299191
1.006267,-0.1727248,-0.2516695
1.004331,-0.1783138,-0.2447012
1.001451,-0.1775114,-0.2322441
0.9943119,-0.181118,-0.2272121
0.9912062,-0.1822536,-0.2210942
0.9948138,-0.1786144,-0.2222937
0.99487,-0.1814108,-0.2232168
0.9955603,-0.1813196,-0.2287048
0.9979276,-0.1812433,-0.2378322
1.000207,-0.1856428,-0.2295005
1.004278,-0.1866172,-0.2174513
1.005915,-0.1894108,-0.2090507
0.9981334,-0.1899415,-0.2084509
0.9849848,-0.1865544,-0.2188653
0.9819795,-0.1878775,-0.2184355
0.9817412,-0.1876624,-0.2208375
0.9860109,-0.1878212,-0.2324497
1.00225,-0.193701,-0.2358569
1.0032,-0.2007235,-0.231083
0.9987759,-0.2046636,-0.2171915
1.002712,-0.199962,-0.2156385
0.9912616,-0.1938281,-0.2232685
0.9833608,-0.1948217,-0.2213705
0.9914882,-0.2036655,-0.2258659
0.9949126,-0.2168204,-0.2268949
0.9947419,-0.218733,-0.2249014
0.9892987,-0.2140887,-0.227291
0.9817852,-0.2099169,-0.2212557
0.9846028,-0.1995166,-0.2203705
0.9883976,-0.2009341,-0.2205996
0.9878516,-0.2099166,-0.2099547
0.9889553,-0.2142927,-0.1965667
0.9875785,-0.2320854,-0.186383
0.9860061,-0.2418604,-0.1893252
0.9926768,-0.2279129,-0.2066098
0.9981836,-0.2058695,-0.2244982
0.9964458,-0.1744281,-0.2281855
0.9988127,-0.1649348,-0.2496188
1.007621,-0.1840878,-0.2914619
1.009412,-0.1893086,-0.2761183
0.9943656,-0.1943903,-0.2291561
0.9759687,-0.2074264,-0.2107695
0.9753032,-0.2012848,-0.2042565
0.9910493,-0.1911516,-0.2312626
1.007275,-0.1908107,-0.2687596
1.013076,-0.1938646,-0.2723945
1.006702,-0.1980058,-0.2666281
0.9899225,-0.1917164,-0.2488673
0.9607039,-0.1839207,-0.233536
0.9285264,-0.1912477,-0.2319673
0.926381,-0.2026871,-0.2136801
0.9653361,-0.2118918,-0.1977941
1.003809,-0.2148063,-0.2096053
1.004533,-0.207723,-0.2208694
0.9940608,-0.1957627,-0.1995838
1.003606,-0.1737345,-0.196746
1.01433,-0.1661157,-0.2631713
1.027343,-0.1947413,-0.315725
1.042702,-0.2189041,-0.2796975
1.039045,-0.2184516,-0.2365329
1.036578,-0.2100183,-0.2573654
1.025969,-0.2004103,-0.2582464
0.9792487,-0.1954671,-0.2409613
0.9442608,-0.1961411,-0.2613246
0.9751303,-0.1993878,-0.2403311
1.017807,-0.2006254,-0.2181584
1.003255,-0.1997142,-0.2372371
0.9988592,-0.1895016,-0.2289568
1.019516,-0.176376,-0.2290757
1.005485,-0.1997746,-0.2319607
0.993047,-0.2385129,-0.2191148
0.9725418,-0.2439049,-0.2184306
0.9472769,-0.2293093,-0.2120068
0.9578754,-0.2141406,-0.2019463
0.9603903,-0.2105789,-0.1916725
0.9718089,-0.2189489,-0.2260449
0.9936851,-0.2223919,-0.3036647
0.9818238,-0.2190026,-0.331928
0.9628009,-0.2115171,-0.3281421
0.944218,-0.2063965,-0.3502046
0.9497408,-0.2075558,-0.3841441
0.9693896,-0.2144324,-0.3835269
0.9522793,-0.2251749,-0.3604023
0.9494585,-0.2304477,-0.3599334
0.9661245,-0.2320271,-0.346871
0.9638796,-0.2325727,-0.3275329
0.9642022,-0.2326908,-0.3213645
0.961915,-0.2357397,-0.3002637
0.9697062,-0.2362881,-0.2835026
0.9855595,-0.2324446,-0.2604598
0.9784261,-0.2236195,-0.2420836
0.9756981,-0.2137624,-0.255125
0.9800887,-0.2084139,-0.257486
0.9791638,-0.2024324,-0.2506815
0.9848328,-0.1996314,-0.2424563
0.9890426,-0.2014184,-0.2346959
0.9889798,-0.2011222,-0.2435586
0.9901813,-0.2017286,-0.2479168
0.996229,-0.1977051,-0.2518429
0.9976795,-0.1898915,-0.2541457
0.9927482,-0.1945083,-0.2482462
0.9910131,-0.2039673,-0.2486607
0.9833102,-0.2079645,-0.2353042
0.981231,-0.2078628,-0.2203798
0.9875015,-0.2012558,-0.2291523
0.9865736,-0.1976422,-0.2339738
0.987975,-0.1969328,-0.2289176
0.9889407,-0.1938185,-0.2300285
0.9881838,-0.1923491,-0.230822
0.9900601,-0.1897944,-0.2280408
0.9894809,-0.1949578,-0.2287757
0.9925539,-0.2036941,-0.2281496
0.995081,-0.2022801,-0.2250011
0.9942192,-0.1991637,-0.226797
0.9956904,-0.1956404,-0.2277914
0.99537,-0.1930688,-0.2273624
0.9930439,-0.1900937,-0.2282116
0.9898192,-0.1850753,-0.2264857
0.9885495,-0.1891065,-0.2261252
0.9900026,-0.1951854,-0.2264087
0.9914656,-0.199544,-0.2261771
0.9953426,-0.2021856,-0.2297837
0.9950864,-0.1987723,-0.2349858
0.990532,-0.200965,-0.2373104
0.9905524,-0.2035138,-0.2369854
0.9905385,-0.2009757,-0.2368936
0.9897484,-0.2015979,-0.232741
0.990502,-0.2002797,-0.2280142
0.9890973,-0.1994985,-0.2307698
0.9877656,-0.2004977,-0.2323254
0.9887822,-0.1997213,-0.2331175
0.9917482,-0.201553,-0.2355222
0.9939924,-0.2041261,-0.234085
0.9919801,-0.2086867,-0.2346191
0.9899587,-0.2139039,-0.2343735
0.9901878,-0.2144291,-0.2326087
0.9893549,-0.2131344,-0.2359915
0.988385,-0.2095436,-0.238132
0.9881856,-0.2045138,-0.237642
0.9880293,-0.202161,-0.2367601
0.9884786,-0.2027017,-0.2371237
0.9889482,-0.2031941,-0.2395623
0.9888361,-0.2020111,-0.2402679
0.9883232,-0.2011587,-0.2436293
0.9889092,-0.1995861,-0.2457394
0.9913784,-0.1994564,-0.2421356
0.9929817,-0.200768,-0.2419645
0.993243,-0.2004696,-0.2412247
0.992992,-0.2043941,-0.2367108
0.9917273,-0.2087128,-0.2341129
0.9906499,-0.206303,-0.231249
0.9903197,-0.2029849,-0.2307053
0.992301,-0.2022,-0.2348651
0.9957314,-0.2028812,-0.2373157
0.9970325,-0.2033788,-0.2384805
0.9997869,-0.2041039,-0.2419154
1.005115,-0.2056966,-0.2444184
1.007185,-0.2070065,-0.2449229
1.006541,-0.2125443,-0.2458484
1.006586,-0.2191115,-0.2463669
1.003987,-0.2167648,-0.2465889
0.99829,-0.2120189,-0.251038
0.9941972,-0.2097753,-0.2558634
0.9886152,-0.2028854,-0.2526823
0.9809821,-0.1951451,-0.2498231
0.9771076,-0.1906592,-0.2534553
0.9759645,-0.1854149,-0.2562089
0.9759509,-0.1797983,-0.2581542
0.9758408,-0.170427,-0.2588002
0.9760434,-0.1576036,-0.2560298
0.9828443,-0.1545218,-0.254815
0.993448,-0.1614563,-0.2549785
0.9969123,-0.1670653,-0.2553585
0.9957023,-0.1756097,-0.2583928
0.9986922,-0.1876686,-0.259563
1.00093,-0.1907581,-0.2526231
0.9978446,-0.1908169,-0.2420109
0.9926034,-0.1919343,-0.2359729
0.9878017,-0.1873765,-0.2345389
0.9888649,-0.186001,-0.2368136
0.9934895,-0.1852963,-0.241353
0.9943378,-0.1788033,-0.2440467
0.9908083,-0.175548,-0.2491793
0.9856184,-0.1719174,-0.2540694
0.9856824,-0.1671579,-0.2514289
0.9897459,-0.1667157,-0.2480706
0.9907059,-0.1652112,-0.2452019
0.9916829,-0.1663912,-0.2437813
0.996356,-0.1757769,-0.2437774
1.001424,-0.1849153,-0.2394125
0.9987806,-0.188523,-0.2427799
0.9913209,-0.190884,-0.250178
0.9878421,-0.1870547,-0.2511288
0.9826089,-0.1750134,-0.2573349
0.9804221,-0.1728848,-0.2602083
0.985968,-0.1789638,-0.2580866
0.9867543,-0.1795274,-0.2610179
0.9861264,-0.1809466,-0.2582392
0.9882045,-0.1800933,-0.255162
0.9890247,-0.1740185,-0.2553454
0.9896619,-0.1693716,-0.2538215
0.9895735,-0.1631242,-0.2590361
0.9927288,-0.1554123,-0.2620383
0.996342,-0.1511399,-0.25576
0.9974853,-0.1564711,-0.2486378
0.9995644,-0.1639058,-0.2423417
0.997829,-0.1616003,-0.2372231
0.9945148,-0.1573882,-0.2324936
0.9929718,-0.1502356,-0.2300739
0.9948527,-0.1442828,-0.2322376
1.001813,-0.1495348,-0.2371205
1.002844,-0.1534624,-0.2424815
0.9961732,-0.1556757,-0.2443905
0.9914497,-0.1594485,-0.2402813
0.9940626,-0.1597237,-0.2331124
0.9976565,-0.1606551,-0.2347932
0.992854,-0.1631187,-0.2407858
0.9891002,-0.1688963,-0.2391394
0.9898089,-0.1730574,-0.2410437
0.9916194,-0.1695591,-0.2449918
0.9960262,-0.1659875,-0.2443202
0.9936222,-0.1614048,-0.2452619
0.9899169,-0.157705,-0.2437167
0.9928049,-0.1595054,-0.2393842
0.9940723,-0.156578,-0.2363877
0.9952639,-0.1499131,-0.235964
0.9974612,-0.14543,-0.2380412
1.002483,-0.1414456,-0.2418519
1.007904,-0.1493995,-0.2468137
1.004371,-0.169382,-0.2422182
1.001486,-0.1778849,-0.2323224
1.00157,-0.1724008,-0.2280221
0.9978045,-0.1704301,-0.2194766
0.9963114,-0.1733797,-0.2150287
0.9960918,-0.1738981,-0.2217854
0.9966662,-0.1764434,-0.2225039
1.00068,-0.1829365,-0.2214073
1.002037,-0.1837242,-0.2232206
1.000355,-0.1790815,-0.2215557
0.9990401,-0.1744764,-0.2233698
0.9971182,-0.1685166,-0.2285524
0.9943964,-0.1641974,-0.234216
0.993624,-0.1664038,-0.2376276
0.9949898,-0.1721786,-0.2374882
0.9944952,-0.1749795,-0.2407556
0.9941844,-0.1792678,-0.2420708
0.9963343,-0.1846475,-0.2463696
0.9983869,-0.1837065,-0.2551605
0.9999464,-0.1888152,-0.2494482
0.9980293,-0.1963902,-0.2420655
0.9939046,-0.1927603,-0.2411631
0.9918383,-0.1918243,-0.233952
0.9910245,-0.1926449,-0.2279923
0.9935723,-0.1825578,-0.2249294
0.9973078,-0.1677863,-0.2248378
0.9987417,-0.1597372,-0.2225907
0.9972184,-0.1614415,-0.2110157
0.9925029,-0.1631672,-0.2073451
0.9915308,-0.1657126,-0.2108361
0.9926938,-0.1733219,-0.2164912
0.9936495,-0.1738631,-0.2257606
0.9973084,-0.1712698,-0.2243187
0.997029,-0.1737401,-0.223499
0.9970112,-0.1721239,-0.2293945
1.000884,-0.1697066,-0.225653
1.001303,-0.1687579,-0.2189528
0.9998563,-0.1633545,-0.2166871
0.9979224,-0.1592792,-0.2209525
0.9983201,-0.1563474,-0.2285325
1.000423,-0.1551945,-0.2286192
0.9996364,-0.1566233,-0.2317162
1.000157,-0.1536034,-0.2375629
0.9996856,-0.1555652,-0.2331501
0.9968275,-0.1617192,-0.2319682
0.9955102,-0.1617951,-0.2347878
0.9948954,-0.1654307,-0.2332115
0.9946097,-0.1715459,-0.2369698
0.9925114,-0.1732178,-0.2404842
0.9926862,-0.1733153,-0.2377134
0.9959039,-0.1769452,-0.2341687
0.9955881,-0.1864757,-0.2314589
0.9948932,-0.1889951,-0.235212
0.9934385,-0.1826161,-0.2413105
0.9918403,-0.1788528,-0.2435339
0.9919081,-0.1771066,-0.2444735
0.990245,-0.1751809,-0.2365394
0.993612,-0.1728114,-0.2234332
0.9986693,-0.1732515,-0.2222822
0.9974459,-0.1749385,-0.2229241
0.9972388,-0.1725188,-0.2171328
0.9974872,-0.173149,-0.2192374
0.9952838,-0.1782505,-0.2210795
0.9953471,-0.1823703,-0.2178228
0.9973296,-0.1843225,-0.2217867
1.001368,-0.184219,-0.2284782
1.010143,-0.1838599,-0.2370598
1.014816,-0.17889,-0.2387587
1.008896,-0.1667352,-0.2263195
1.004076,-0.1536315,-0.2201553
1.002267,-0.144001,-0.2220538
0.9983587,-0.1398995,-0.2227051
0.9978276,-0.1439134,-0.2225852
0.9974806,-0.1556554,-0.2224137
0.9954346,-0.1708927,-0.2252137
0.9960751,-0.1835607,-0.2279191
0.9954806,-0.187971,-0.2338517
0.9937575,-0.1906323,-0.2406817
0.992553,-0.1951389,-0.2387513
0.9907708,-0.1929342,-0.2321947
0.9901924,-0.1910307,-0.2244928
0.9903902,-0.1896924,-0.2243372
0.9924845,-0.1824298,-0.2270347
0.9958187,-0.1802994,-0.2214665
0.9971119,-0.1794104,-0.2207434
0.9971728,-0.1769826,-0.219837
0.9953632,-0.1796542,-0.2171418
0.993898,-0.1805235,-0.2245356
0.9954082,-0.1818414,-0.2275082
0.9959391,-0.1826386,-0.2283299
0.9940185,-0.1785712,-0.2344389
0.9923151,-0.1791433,-0.2349591
0.993335,-0.1830753,-0.2361357
0.9953028,-0.1863993,-0.2387151
0.9959926,-0.1891314,-0.2367862
0.9961598,-0.1890425,-0.2353571
0.99555,-0.1901862,-0.2335933
0.9957961,-0.1899989,-0.2326193
0.9961293,-0.186968,-0.2341015
0.9954981,-0.1873477,-0.2351074
0.9960169,-0.187872,-0.2364505
0.9958698,-0.1858852,-0.2356535
0.9956306,-0.1812951,-0.2311095
0.9955482,-0.1745815,-0.227474
0.9929713,-0.1734579,-0.2261033
0.9916118,-0.1746145,-0.2249136
0.9949992,-0.1730657,-0.2247682
0.9987813,-0.1751567,-0.2271424
0.9971456,-0.1757315,-0.2284852
0.9943759,-0.1725019,-0.2275517
0.9953893,-0.1736533,-0.226287
0.9979013,-0.1751171,-0.220781
1.002291,-0.1747652,-0.2143421
1.004294,-0.174956,-0.216094
1.003473,-0.1730476,-0.2191725
1.004716,-0.1716233,-0.2182145
1.003153,-0.1720281,-0.2207547
1.001621,-0.1717058,-0.2217543
1.001666,-0.1712106,-0.2165965
0.9990842,-0.1713858,-0.2161532
0.9998016,-0.1706838,-0.2178272
1.000698,-0.1685357,-0.2167456
0.9993648,-0.1679253,-0.2211718
1.000667,-0.1698113,-0.2251473
1.00181,-0.1741904,-0.2217182
1.003089,-0.1780041,-0.2199923
1.003108,-0.176171,-0.2229083
1.000875,-0.1737407,-0.2237895
0.9996487,-0.173361,-0.2185833
0.9980554,-0.17148,-0.2104487
0.9982657,-0.170451,-0.2074166
0.9992736,-0.1709452,-0.2148211
0.9981693,-0.1718272,-0.2256115
0.9989994,-0.1714913,-0.2274714
1.000854,-0.1666129,-0.2214328
1.002463,-0.1612946,-0.2149635
1.003521,-0.1616734,-0.2124427
1.002409,-0.1637496,-0.2148429
1.002478,-0.1630368,-0.2179319
1.002096,-0.1643141,-0.219675
0.9998444,-0.1673442,-0.2181245
0.9998048,-0.1681808,-0.2144581
1.00015,-0.1687289,-0.2142966
0.9998986,-0.1686629,-0.2119932
1.000099,-0.1696352,-0.206307
1.000084,-0.1710392,-0.2072441
1.000772,-0.1703796,-0.2132296
1.000777,-0.1710169,-0.2175026
0.9997623,-0.1693109,-0.217344
0.9997881,-0.1651019,-0.2141226
1.000576,-0.163296,-0.2116608
1.00177,-0.1636343,-0.2089523
1.003357,-0.1664214,-0.2093949
1.004224,-0.1676137,-0.2142848
1.004854,-0.1690456,-0.2177802
1.006255,-0.1716381,-0.2201691
1.00657,-0.1690239,-0.2182348
1.005852,-0.1672361,-0.215251
1.002285,-0.1698667,-0.2194208
0.994023,-0.1741938,-0.2223657
0.988986,-0.1805344,-0.222857
0.9878951,-0.1862476,-0.223698
0.9867006,-0.1887631,-0.2220488
0.9885628,-0.1867971,-0.2221499
0.9913126,-0.1831398,-0.2218323
0.9934182,-0.1804646,-0.2215302
0.9930896,-0.1788236,-0.2215561
0.9908792,-0.176487,-0.2137683
0.9954384,-0.1712187,-0.2070143
1.002516,-0.1700668,-0.2095535
1.007838,-0.1718087,-0.2120973
1.013682,-0.1692667,-0.2137521
1.015504,-0.1690309,-0.223332
1.014875,-0.1702032,-0.2323328
1.011615,-0.168921,-0.2246256
1.002795,-0.1674608,-0.2121786
0.9917409,-0.1648115,-0.2097723
0.983277,-0.1651535,-0.2109086
0.9845627,-0.1649343,-0.2116639
0.9919608,-0.1621507,-0.2125019
0.9996844,-0.1646213,-0.217766
1.006668,-0.1648417,-0.2244585
1.006707,-0.1649478,-0.2199304
1.006823,-0.1709586,-0.214539
1.009584,-0.1709845,-0.2183961
1.005703,-0.167477,-0.2224098
1.002672,-0.1653501,-0.2256995
1.002972,-0.1644738,-0.2253558
1.002061,-0.1675239,-0.2218682
1.002137,-0.1694443,-0.2236263
1.000031,-0.1713349,-0.2225991
0.9979934,-0.1716399,-0.2188254
0.9971716,-0.1697148,-0.2202789
0.9948997,-0.1712651,-0.2214274
0.995781,-0.1700672,-0.2238124
0.996946,-0.1694336,-0.2250482
0.9981125,-0.1745264,-0.2220938
1.002012,-0.1774882,-0.2232063
1.001996,-0.1768971,-0.2234843
1.000653,-0.1755747,-0.222781
1.001762,-0.1764062,-0.2248558
1.001406,-0.1758171,-0.2236383
1.000988,-0.1727171,-0.2232248
1.000722,-0.1719761,-0.2225302
0.9987212,-0.1706954,-0.221034
0.9954115,-0.1721276,-0.2235207
0.992885,-0.1750026,-0.2235323
0.9967837,-0.1730383,-0.2226212
1.002421,-0.1722471,-0.2198948
0.9994295,-0.1715549,-0.2141694
0.9950238,-0.1700551,-0.2124135
0.9950875,-0.1713053,-0.209025
0.9963752,-0.171647,-0.2091371
1.000151,-0.1708155,-0.2159611
1.001275,-0.1682099,-0.2172444
1.001942,-0.1655931,-0.2166352
1.00693,-0.1675687,-0.215415
1.006841,-0.1685761,-0.2120128
1.00321,-0.1653157,-0.2089843
0.9986679,-0.1619887,-0.2060872
0.9945478,-0.1607213,-0.2107374
0.9975734,-0.1636273,-0.2175042
1.000572,-0.1694234,-0.2205902
1.001633,-0.1717191,-0.2240283
1.002133,-0.1691327,-0.2190196
1.000318,-0.1669572,-0.2124365
1.000882,-0.1679478,-0.2166843
1.000158,-0.1675407,-0.22055
1.000329,-0.164593,-0.2216279
1.003407,-0.1632943,-0.224566
1.00269,-0.162258,-0.2231446
1.0028,-0.1621794,-0.2196557
1.003993,-0.164007,-0.2162435
1.003874,-0.1638943,-0.2085932
1.00334,-0.1638354,-0.2064176
1.000549,-0.1644423,-0.2103879
1.000279,-0.1657415,-0.2115555
1.002089,-0.1692398,-0.2153159
1.002327,-0.170666,-0.2189256
1.0029,-0.1718057,-0.2210566
1.002196,-0.1744515,-0.2244679
0.999075,-0.1739851,-0.2205855
0.9965274,-0.172973,-0.2139375
0.998588,-0.173538,-0.2103414
1.001746,-0.1719604,-0.2112516
1.001539,-0.1699737,-0.2188018
1.002806,-0.1704913,-0.2234309
1.002914,-0.1696246,-0.2240569
0.9984396,-0.1678558,-0.2178981
0.9963156,-0.1685717,-0.2074927
0.9971333,-0.167312,-0.2094591
0.997885,-0.1646167,-0.2107628
0.9989859,-0.1644096,-0.2061504
1.000649,-0.1643271,-0.2090184
1.002282,-0.1662066,-0.208743
1.002808,-0.169294,-0.2063373
1.003065,-0.1683707,-0.2081351
1.00271,-0.1682213,-0.2101901
1.001968,-0.1702905,-0.217355
1.000494,-0.1692428,-0.2215903
0.9977329,-0.1675779,-0.2178316
0.9991282,-0.1653792,-0.2164103
1.000659,-0.1618497,-0.2168434
0.9967527,-0.1620695,-0.2165474
0.9949397,-0.1632989,-0.2166939
0.9959193,-0.1630284,-0.2166902
0.9960327,-0.1645458,-0.2166558
0.9963187,-0.165975,-0.2166365
0.998345,-0.1662256,-0.2176124
1.00105,-0.1642913,-0.2210956
1.000202,-0.1603738,-0.2231832
0.9993086,-0.1608941,-0.2152672
1.000515,-0.1640777,-0.205877
0.9998883,-0.165744,-0.2092283
0.9998038,-0.1670688,-0.2125252
1.00065,-0.164997,-0.2107662
1.001569,-0.1623878,-0.2148673
1.003034,-0.1622538,-0.2154911
1.001269,-0.1598959,-0.21389
0.9992685,-0.1590408,-0.2176965
1.001895,-0.1612013,-0.2143121
1.003583,-0.1609233,-0.2103842
1.001477,-0.1592154,-0.2137581
0.9999796,-0.1578723,-0.2143594
0.9999245,-0.1585582,-0.2144345
1.000489,-0.1611638,-0.2115503
1.002757,-0.1612773,-0.2060094
1.004782,-0.1594046,-0.2078032
1.003022,-0.1591746,-0.2106789
0.9992623,-0.1607024,-0.2123551
0.9984836,-0.1624484,-0.2161849
1.00131,-0.164326,-0.2171863
1.00415,-0.1642281,-0.2164074
1.004806,-0.1611702,-0.2157825
1.005395,-0.1591145,-0.2132842
1.00585,-0.1560924,-0.2072821
1.003415,-0.153111,-0.2006528
1.0024,-0.1559605,-0.2028723
1.004853,-0.1581004,-0.2086023
1.005892,-0.1566288,-0.2083975
1.004815,-0.1574435,-0.2097032
1.00358,-0.1607848,-0.2098566
1.003948,-0.1635091,-0.2070453
1.003712,-0.1633734,-0.2100452
1.002061,-0.164478,-0.2122304
1.003217,-0.1674837,-0.2117621
1.004889,-0.165307,-0.2105759
1.005688,-0.1623862,-0.2068635
1.006058,-0.164083,-0.2081342
1.004873,-0.1634605,-0.2093608
1.004244,-0.1613777,-0.2073858
1.001481,-0.1619226,-0.2089244
0.9986516,-0.1611969,-0.2095407
1.00022,-0.1620585,-0.2107947
1.000418,-0.1659878,-0.21376
0.9995266,-0.1669725,-0.2134867
1.000246,-0.1649334,-0.211382
1.000175,-0.1630768,-0.2087741
1.000946,-0.1639222,-0.2094642
1.002691,-0.1653846,-0.2113644
1.002723,-0.1654244,-0.2100556
1.000899,-0.1672705,-0.2104769
0.9992046,-0.1684535,-0.2123636
0.9991719,-0.1671071,-0.2154869
0.9996012,-0.1663139,-0.2194904
0.9999409,-0.1661908,-0.2188365
1.00029,-0.1649987,-0.2188729
0.9996882,-0.1621137,-0.2219354
0.9989912,-0.161207,-0.2209187
0.9987491,-0.1622997,-0.2191375
0.9992234,-0.1627626,-0.2197468
1.00068,-0.1645502,-0.2194525
1.001017,-0.1659242,-0.2202207
1.001058,-0.1661842,-0.221425
1.000781,-0.1673944,-0.2199191
0.998524,-0.1692147,-0.2173544
0.9983705,-0.170698,-0.2152843
0.999906,-0.169146,-0.2175534
1.000209,-0.1669184,-0.2248949
1.001066,-0.1666926,-0.2320954
1.001353,-0.1660167,-0.2342747
1.000544,-0.1650048,-0.2276565
0.9997327,-0.1640524,-0.2222198
0.9997576,-0.1663883,-0.2245986
1.000388,-0.1713333,-0.2240551
0.9992597,-0.1714335,-0.2226602
0.9972412,-0.1702099,-0.2244481
0.9952853,-0.171181,-0.2243767
0.9952209,-0.170761,-0.2252001
0.9966294,-0.1698317,-0.2263598
0.9955304,-0.1665522,-0.2261914
0.9960953,-0.163243,-0.2270409
0.9990708,-0.1679276,-0.2280716
1.000337,-0.1728617,-0.2292093
1.000502,-0.1690139,-0.2278604
0.9993391,-0.1667134,-0.22521
0.9987206,-0.1706309,-0.2264464
0.9970236,-0.1715486,-0.2266171
0.9946214,-0.1704225,-0.223997
0.996146,-0.1711742,-0.2233444
0.9962003,-0.1716742,-0.2229467
0.9952429,-0.1724846,-0.2210512
0.9968352,-0.1722277,-0.2187317
0.9983264,-0.170629,-0.219928
1.000376,-0.1693839,-0.2256719
0.9986089,-0.1691228,-0.2290268
0.9948723,-0.1714584,-0.2280096
0.996398,-0.1724244,-0.2262027
0.9988745,-0.1716711,-0.2265692
1.000053,-0.1726634,-0.2287111
0.9988045,-0.1720372,-0.2300676
0.9959739,-0.1704368,-0.2303085
0.9975964,-0.1681434,-0.2287134
0.9996997,-0.1645764,-0.2285367
0.9998474,-0.1652491,-0.2295756
1.000344,-0.168053,-0.2291285
0.9988103,-0.1701348,-0.2303696
0.9981799,-0.1729531,-0.2296462
0.9989551,-0.1742174,-0.2295232
0.9985617,-0.1748417,-0.2320873
0.9995936,-0.1735443,-0.2302658
0.9999813,-0.1693155,-0.2313159
0.9979545,-0.1660907,-0.2328138
0.9958034,-0.1639231,-0.2295831
0.9956316,-0.1674246,-0.2301973
0.9980272,-0.1734045,-0.2279425
0.999114,-0.1703668,-0.2247638
0.9985872,-0.1667317,-0.2266842
0.9985201,-0.1671429,-0.2246681
0.998576,-0.1658962,-0.2251088
0.9987615,-0.1669322,-0.2278889
0.9984763,-0.1670941,-0.2256428
0.9986241,-0.1655411,-0.2271987
0.9987342,-0.1655047,-0.2314444
0.9984194,-0.1631645,-0.2340112
0.9987747,-0.1633958,-0.2334458
0.9985481,-0.1642995,-0.2277082
0.9985559,-0.1605029,-0.2255184
0.9987488,-0.1592607,-0.227319
0.9984562,-0.1609322,-0.2281549
0.9988983,-0.163305,-0.2280931
0.9992996,-0.1655634,-0.2273558
0.9991459,-0.1680188,-0.2290208
0.9974786,-0.1721948,-0.2299316
0.9956316,-0.1715315,-0.230911
0.9958378,-0.1695756,-0.2342864
0.9962136,-0.171377,-0.233798
0.9975306,-0.1701701,-0.2332045
0.9994787,-0.1695476,-0.2359266
0.9995865,-0.171727,-0.2364255
0.9999138,-0.1721063,-0.2325754
1.00017,-0.1739413,-0.2281238
0.998523,-0.1752454,-0.2266605
0.9961778,-0.1711221,-0.2245085
0.9935646,-0.1671201,-0.2209252
0.9923319,-0.1677039,-0.220922
0.9932289,-0.1691828,-0.2244874
0.99398,-0.1706354,-0.22463
0.9968861,-0.1738342,-0.2235267
1.002534,-0.1744915,-0.230425
1.003858,-0.1726646,-0.2358028
1.001077,-0.1727249,-0.2335535
0.9999635,-0.1713672,-0.2302424
0.9987599,-0.1699688,-0.2230661
0.9963199,-0.1707579,-0.2171925
0.9962901,-0.1690636,-0.2208266
1.000243,-0.1696537,-0.2235758
1.004344,-0.1732222,-0.2179507
1.003244,-0.1706774,-0.2149599
1.001631,-0.1666377,-0.2175063
1.003284,-0.1664122,-0.217617
1.001442,-0.1647134,-0.2187338
0.9976709,-0.1626465,-0.2220592
0.9960205,-0.1614277,-0.2242257
0.9956709,-0.1596483,-0.2243326
0.998849,-0.1628575,-0.2227308
1.001205,-0.1673252,-0.2231579
1.000701,-0.1657714,-0.2204512
1.001154,-0.16468,-0.2164346
0.9998184,-0.1657765,-0.2190896
0.9975028,-0.1656905,-0.2209074
0.9966935,-0.1655216,-0.2216031
0.9956956,-0.164943,-0.2244965
0.9957791,-0.1654277,-0.2237107
0.9979199,-0.167056,-0.2209008
0.9990438,-0.1692396,-0.2197275
0.9976389,-0.1715656,-0.2191232
0.9966115,-0.169274,-0.2195418
0.9963787,-0.1666992,-0.2206414
0.9958624,-0.1684807,-0.2214108
0.9967296,-0.1683282,-0.223801
0.9985423,-0.1675671,-0.2266995
0.9988253,-0.1684251,-0.2270083
0.9974955,-0.1686373,-0.2269763
0.9969465,-0.1715588,-0.2280231
0.9972572,-0.1745153,-0.2264741
0.9974358,-0.1720832,-0.2193856
0.9983132,-0.1695596,-0.2134474
0.9997051,-0.1710078,-0.2173572
1.00044,-0.1713714,-0.2229234
0.9997269,-0.1702371,-0.2215951
0.9989227,-0.1710891,-0.2215921
0.9982374,-0.1709718,-0.223323
0.9963724,-0.1701167,-0.2217229
0.9946198,-0.1693954,-0.2230362
0.9944958,-0.1671591,-0.2245153
0.9972374,-0.1665433,-0.2233394
0.9996789,-0.1655869,-0.2252816
0.9987655,-0.1649266,-0.2256091
0.9990818,-0.1692685,-0.2243762
1.00061,-0.1714158,-0.2243852
0.9998466,-0.1694805,-0.2209049
0.9986234,-0.1693257,-0.2179986
0.9976786,-0.1696388,-0.2198725
0.9968155,-0.1704604,-0.2221126
0.9971942,-0.1728519,-0.223043
0.9978446,-0.1760228,-0.2243726
0.9987788,-0.1779538,-0.225108
1.000597,-0.1733091,-0.2274116
1.000333,-0.1668788,-0.2304728
0.9993932,-0.1674427,-0.2263704
1.000179,-0.1689479,-0.2178688
0.9991421,-0.167569,-0.2125662
0.9980436,-0.1680443,-0.2161367
0.9988353,-0.168538,-0.2225497
0.9986229,-0.1693264,-0.2192581
0.9986892,-0.1734826,-0.2193575
0.9996122,-0.1760206,-0.2255807
1.000185,-0.174185,-0.2249434
1.000167,-0.1727911,-0.2257203
0.9995847,-0.1736426,-0.2289057
0.9992042,-0.1728361,-0.2304378
0.9984149,-0.1708207,-0.2290092
0.9983343,-0.1717544,-0.224344
0.9987969,-0.1735363,-0.2260455
0.9975444,-0.1740367,-0.2258529
0.9972365,-0.1747085,-0.2216934
0.9991135,-0.1759683,-0.2248632
1.000542,-0.1771102,-0.2276498
1.000222,-0.1766352,-0.2294346
0.9995589,-0.1751299,-0.2304738
1.000213,-0.1732374,-0.2288712
0.9999362,-0.1733897,-0.2310586
0.9988087,-0.177053,-0.2294695
0.99879,-0.1784577,-0.224305
0.9992885,-0.1778376,-0.223222
1.000046,-0.1786703,-0.2224158
0.9982345,-0.1793243,-0.2212276
0.9951517,-0.1796193,-0.2198937
0.9947949,-0.179074,-0.2199744
0.9945952,-0.1770646,-0.2179737
0.9950545,-0.1734079,-0.2138143
0.9969458,-0.1723368,-0.215807
0.998476,-0.174856,-0.2174868
1.000573,-0.1746964,-0.2215382
1.000388,-0.1764699,-0.2272887
0.9983699,-0.1788978,-0.223609
0.9982712,-0.1754184,-0.2238246
0.9969226,-0.1740684,-0.2225321
0.9950713,-0.174277,-0.216221
0.9958564,-0.1721352,-0.221246
0.9961167,-0.1710677,-0.2244027
0.9955992,-0.170532,-0.2279463
0.9960856,-0.1708953,-0.2364185
0.996768,-0.1713208,-0.2354995
0.9974227,-0.1725863,-0.2309304
0.9975548,-0.175961,-0.2207265
0.9978981,-0.1782278,-0.2139878
0.9991513,-0.1779537,-0.2236736
0.9996679,-0.1753136,-0.2292793
0.9994091,-0.175798,-0.2254912
0.9976237,-0.1794829,-0.2222699
0.9948265,-0.1792451,-0.2194073
0.9954532,-0.178912,-0.2172053
0.9973897,-0.1792505,-0.2185817
0.9988877,-0.176938,-0.2207215
1.001906,-0.1760591,-0.2193751
0.9995511,-0.1768126,-0.2219042
0.9952846,-0.1786158,-0.2255078
0.9984694,-0.1788653,-0.2249519
0.9989808,-0.1753924,-0.2271232
0.9941342,-0.1747935,-0.2286918
0.9925254,-0.1761811,-0.2286917
0.9937837,-0.1773527,-0.2279866
0.9961034,-0.1809332,-0.2253513
0.9961763,-0.1817944,-0.2262701
0.9953148,-0.1814706,-0.2273993
0.9962622,-0.1841802,-0.2276162
0.9956603,-0.1837874,-0.2299067
0.995716,-0.1820909,-0.2291492
0.9965044,-0.1821298,-0.2267058
0.9972707,-0.1799784,-0.2262613
0.9993903,-0.1803201,-0.2265355
0.9987861,-0.1830664,-0.2283102
0.9982297,-0.1824492,-0.2296461
0.9999525,-0.1818603,-0.2282325
1.000122,-0.1816596,-0.2283632
0.9996544,-0.1809625,-0.2335619
0.9980276,-0.1805962,-0.2396843
0.9957068,-0.1795833,-0.239068
0.9954802,-0.1775078,-0.2319421
0.9960254,-0.1718404,-0.2237437
0.9958818,-0.1683617,-0.2191753
0.9958639,-0.1707005,-0.2240081
0.9968275,-0.171762,-0.2288941
0.9973254,-0.1733294,-0.223712
0.9963394,-0.1758956,-0.2186002
0.995471,-0.1752221,-0.2160854
0.9962859,-0.1750445,-0.2150935
0.9987705,-0.1778817,-0.2161715
1.000476,-0.1799453,-0.2130445
0.9994041,-0.1781577,-0.2128132
0.9978695,-0.1761366,-0.2144625
0.9984595,-0.1760121,-0.2126771
0.9979697,-0.1746256,-0.2196186
0.9956164,-0.1730468,-0.2266377
0.9961562,-0.1732515,-0.2234865
0.9987551,-0.1730889,-0.2225668
1.000434,-0.1716106,-0.2243478
0.9995786,-0.1714639,-0.2239424
0.9978239,-0.1731593,-0.2251933
0.9996733,-0.1758889,-0.2279879
1.000542,-0.1791553,-0.2275121
0.9984331,-0.1792622,-0.2264522
0.9974487,-0.1770662,-0.2282851
0.9960109,-0.1760246,-0.2280454
0.9954611,-0.1764422,-0.2272823
0.9960677,-0.1785857,-0.2277732
0.9958908,-0.1796106,-0.2251696
0.9969605,-0.1787768,-0.2208085
0.9983902,-0.1773548,-0.2189966
0.9989277,-0.1762905,-0.2230548
0.9986205,-0.1789949,-0.2275119
0.9983843,-0.1811937,-0.2251431
0.9984859,-0.1779084,-0.2211981
0.9967255,-0.1750545,-0.2196873
0.9952303,-0.1767644,-0.2205583
0.9957749,-0.1788342,-0.2249129
0.9962626,-0.1791411,-0.2277114
0.9966257,-0.1793293,-0.2263176
0.9972216,-0.1779499,-0.2262483
0.996245,-0.1762165,-0.228572
0.9934666,-0.1755204,-0.2298257
0.9926561,-0.1746869,-0.2302804
0.9942899,-0.1759551,-0.2315172
0.9956595,-0.1769221,-0.2324193
0.9961631,-0.1761409,-0.2318995
0.9957292,-0.1764447,-0.2311839
0.9957415,-0.1765861,-0.2296713
0.9961789,-0.1772327,-0.2277742
0.9965837,-0.1775943,-0.2302886
0.9973838,-0.1751001,-0.2363073
0.9964517,-0.1726906,-0.239967
0.9949206,-0.173321,-0.2386018
0.9941377,-0.1742883,-0.2344064
0.9930382,-0.1732391,-0.2311142
0.9949806,-0.1738529,-0.2267097
0.9995483,-0.1758104,-0.2244319
1.00086,-0.1765239,-0.2271794
0.9995671,-0.1764405,-0.2278259
0.9989766,-0.1744379,-0.2307703
0.9985175,-0.1739081,-0.2340457
0.9984272,-0.17561,-0.2310066
0.9984446,-0.1763474,-0.233021
0.9964127,-0.1782724,-0.2359986
0.9934335,-0.1798831,-0.2337383
0.9924052,-0.1790062,-0.2325493
0.9931805,-0.1779661,-0.2312669
0.9934612,-0.1776822,-0.2331458
0.993874,-0.1780985,-0.2350996
0.9957071,-0.179564,-0.2342431
0.9962835,-0.1804587,-0.2350661
0.995582,-0.1771258,-0.2335946
0.9960355,-0.1742024,-0.2337583
0.996822,-0.1784414,-0.2381959
0.9972041,-0.1820747,-0.2407644
0.9965098,-0.1784765,-0.2380266
0.9953307,-0.1755223,-0.2323864
0.9958099,-0.1768256,-0.2321368
0.9961217,-0.1773891,-0.2306627
0.9953973,-0.1772256,-0.2267833
0.9948478,-0.1755035,-0.2322298
0.9933534,-0.1724066,-0.2365968
0.9925277,-0.1733992,-0.2326874
0.993463,-0.1745911,-0.2308704
0.9940019,-0.1740619,-0.2331925
0.9945452,-0.1763125,-0.2339997
0.9947045,-0.1770059,-0.232869
0.9939882,-0.1760938,-0.2337952
0.9936391,-0.1774619,-0.2353006
0.9928884,-0.1781021,-0.2359878
0.9927599,-0.1770092,-0.2348265
0.993772,-0.174161,-0.2322151
0.9946923,-0.1718451,-0.2342035
0.9962814,-0.1754296,-0.2382724
0.996276,-0.1792733,-0.2400958
0.9952064,-0.1758572,-0.239107
0.9961321,-0.1725977,-0.2360149
0.9956012,-0.1739257,-0.2356449
0.9936824,-0.1739299,-0.2339962
0.9935749,-0.1741393,-0.2296936
0.996249,-0.1756357,-0.228602
1.00024,-0.1750852,-0.2289963
0.9999357,-0.1758492,-0.2300481
0.9991181,-0.1778363,-0.2318111
1.000557,-0.1777846,-0.2338167
0.9979301,-0.176138,-0.2344792
0.9962999,-0.1724714,-0.2341797
0.9971443,-0.1700465,-0.2353677
0.9944103,-0.172424,-0.2276089
0.9931065,-0.1747981,-0.2146382
0.9973109,-0.1734755,-0.214409
1.001282,-0.1730811,-0.2208263
0.9977418,-0.1740042,-0.2234737
0.9940484,-0.1722993,-0.2222737
0.9982291,-0.1709196,-0.2208743
0.9997246,-0.1708001,-0.2228799
0.9980858,-0.1709554,-0.2240679
0.9997479,-0.1728955,-0.2232793
1.0003,-0.1740513,-0.2212287
0.9999633,-0.1737108,-0.2167815
0.9999691,-0.1734408,-0.2122734
0.9999357,-0.1741116,-0.2110397
0.9998099,-0.1764997,-0.216443
0.9980366,-0.178209,-0.2222283
0.9967655,-0.1772704,-0.222243
0.997049,-0.1750668,-0.2231435
0.997496,-0.173694,-0.2236681
0.9971906,-0.1719436,-0.2203551
0.997367,-0.1713429,-0.2203248
0.9992813,-0.1730845,-0.2213968
1.000394,-0.1718828,-0.2196014
0.9999927,-0.1708209,-0.220525
0.9987044,-0.1711287,-0.2234008
0.9972406,-0.1696523,-0.2258399
0.9961914,-0.1714424,-0.2273701
0.9954008,-0.1737612,-0.2271771
0.9957614,-0.1737594,-0.2287945
0.9949217,-0.1737632,-0.2293354
0.9930199,-0.1736094,-0.2253744
0.9928894,-0.1756634,-0.2206703
0.9939569,-0.1765979,-0.2183387
0.9975895,-0.1741656,-0.2203569
1.001347,-0.1712662,-0.2217784
1.000102,-0.1699638,-0.2208534
0.9971226,-0.1712151,-0.2240532
0.9961865,-0.1709495,-0.2287772
0.9955905,-0.1706419,-0.2292804
0.9959639,-0.1721099,-0.2254802
0.9976766,-0.172252,-0.2221734
0.9974761,-0.1723769,-0.2242389
0.9972285,-0.1723137,-0.2279276
0.9988207,-0.1731832,-0.2296902
0.9987532,-0.1750323,-0.2295108
0.9964865,-0.1749447,-0.2276992
0.9951919,-0.1737819,-0.2277503
0.9959439,-0.1714819,-0.2289441
0.9961896,-0.1705146,-0.2291713
0.9966824,-0.1731065,-0.2290786
0.9985462,-0.1757232,-0.2270063
0.9990988,-0.1755983,-0.224884
0.9985044,-0.1743087,-0.2249641
0.9957651,-0.1749414,-0.2262617
0.9918458,-0.1748575,-0.2289675
0.9926921,-0.1749614,-0.2311064
0.9959039,-0.1796306,-0.2296317
0.9959922,-0.1833901,-0.2233168
0.9960456,-0.1834266,-0.2189595
0.9978547,-0.1806855,-0.223432
0.9985434,-0.1751567,-0.2283445
0.9971612,-0.1723673,-0.2278208
0.9949637,-0.1734637,-0.2261137
0.9961033,-0.1741813,-0.2254504
0.9992955,-0.1733933,-0.2250662
0.999852,-0.1733562,-0.22259
0.9984685,-0.173694,-0.2202875
0.9954911,-0.1715366,-0.2194866
0.9951371,-0.1706174,-0.219259
0.9970463,-0.172698,-0.2225548
0.9972943,-0.1750894,-0.2246572
1.000046,-0.1783556,-0.2232917
1.000526,-0.181366,-0.2239358
0.997371,-0.1813737,-0.2254899
0.9969139,-0.1798402,-0.2270191
0.9965026,-0.1813625,-0.2274472
0.9970919,-0.181952,-0.22657
0.9978058,-0.1795983,-0.2258762
0.9971142,-0.1808603,-0.2223223
0.9987787,-0.1818639,-0.2188898
0.9992579,-0.1814598,-0.2184941
0.9980816,-0.1810869,-0.2170775
0.9986791,-0.177187,-0.2145568
0.998856,-0.1755023,-0.2158854
0.9979914,-0.1767524,-0.2231129
0.9969123,-0.177544,-0.2301776
0.9953939,-0.1789602,-0.2318642
0.9954236,-0.1795613,-0.2289351
0.996226,-0.1797731,-0.226814
0.9712376,-0.1988288,-0.3172118
0.9729032,-0.1905935,-0.3155809
0.9708082,-0.1794384,-0.312795
0.9716685,-0.1682597,-0.3186612
0.9693694,-0.1704748,-0.3192877
0.9671758,-0.1818818,-0.3166148
0.9657825,-0.1869594,-0.32404
0.9590201,-0.1901147,-0.3272985
0.9568788,-0.1934629,-0.3297244
0.9590877,-0.1991643,-0.3384778
0.9562497,-0.2092662,-0.3438324
0.9556176,-0.214531,-0.3500049
0.9545281,-0.2155304,-0.3548905
0.9532933,-0.216603,-0.3479647
0.9593556,-0.2153372,-0.3395002
0.9628022,-0.2096725,-0.3435903
0.9648159,-0.202424,-0.3467042
0.9681186,-0.1984456,-0.3403078
0.9679772,-0.1944937,-0.3375546
0.9680789,-0.1921133,-0.3321702
0.9658719,-0.1955284,-0.3261939
0.9634386,-0.1997725,-0.3299628
0.963077,-0.2032561,-0.3299772
0.9619336,-0.2068355,-0.3290516
0.963272,-0.2096638,-0.3312419
0.9652555,-0.2110127,-0.3285217
0.9671958,-0.2135263,-0.3270257
0.9668282,-0.215742,-0.3278756
0.9628553,-0.2098532,-0.3291971
0.9612706,-0.2044934,-0.3339783
0.9610225,-0.2071514,-0.3392386
0.9632303,-0.2079767,-0.339066
0.9667019,-0.2071061,-0.3385045
0.9668494,-0.2087754,-0.3427064
0.9657274,-0.2085206,-0.3395672
0.9611385,-0.2068786,-0.3340948
0.9566459,-0.2064314,-0.3366048
0.9585092,-0.2042409,-0.3351282
0.962446,-0.2014968,-0.3314079
0.9656163,-0.2008829,-0.3289978
0.96701,-0.1998899,-0.324688
0.9641912,-0.1995301,-0.3245542
0.9610382,-0.2004018,-0.3260927
0.962565,-0.199939,-0.32851
0.9632419,-0.1992712,-0.3327168
0.9617352,-0.1975561,-0.3314417
0.9628463,-0.1950713,-0.3259162
0.9628055,-0.196377,-0.3218678
0.9631585,-0.197707,-0.3216636
0.9654991,-0.1942144,-0.3239784
0.9652002,-0.1921473,-0.3279274
0.9641408,-0.1940989,-0.332519
0.9627875,-0.1948205,-0.3313749
0.9616388,-0.192713,-0.3281543
0.9609847,-0.1890306,-0.3280424
0.9591344,-0.1870369,-0.3271819
0.9594255,-0.1902656,-0.3284147
0.9602622,-0.1952541,-0.3313453
0.9590442,-0.1966369,-0.3346831
0.9579373,-0.1964646,-0.3405556
0.9565905,-0.1969494,-0.3426216
0.9561654,-0.1969996,-0.3418371
0.9556839,-0.1977029,-0.3424422
0.9534286,-0.1983272,-0.342762
0.9543139,-0.1994187,-0.341435
0.9575994,-0.2007957,-0.3374527
0.9590352,-0.199686,-0.3364221
0.9604314,-0.1998064,-0.3359865
0.9613811,-0.2004538,-0.3323434
0.9610396,-0.1995684,-0.3351111
0.960182,-0.2005776,-0.3453414
0.9592945,-0.2020061,-0.351587
0.9598162,-0.2039811,-0.3427671
0.9598599,-0.2049537,-0.3333311
0.9598557,-0.2037989,-0.3406394
0.9617097,-0.2051506,-0.3444493
0.9625751,-0.2062521,-0.3399585
0.9609305,-0.2058423,-0.3413733
0.9593876,-0.2055016,-0.3394611
0.962251,-0.2031875,-0.3351264
0.9651642,-0.201045,-0.3375042
0.9624396,-0.1997482,-0.3412028
0.9599423,-0.1996153,-0.3440602
0.9596074,-0.2021247,-0.344523
0.9598146,-0.2051879,-0.339671
0.9617946,-0.2078082,-0.3332142
0.9620828,-0.2072156,-0.3327269
0.9581041,-0.2040215,-0.3436752
0.9547147,-0.2031447,-0.3538568
0.9586268,-0.2030966,-0.3486405
0.9635542,-0.2051443,-0.341979
0.9615734,-0.2083069,-0.3427703
0.9607419,-0.2061788,-0.3378908
0.9603794,-0.2025677,-0.3346871
0.9548985,-0.200035,-0.3415449
0.9520627,-0.1991637,-0.3444274
0.9518349,-0.2021355,-0.3411035
0.951066,-0.2043566,-0.336584
0.9517199,-0.2059553,-0.3354877
0.9522195,-0.2064588,-0.3453939
0.9530265,-0.2052041,-0.3552174
0.9535461,-0.2061399,-0.3521245
0.9552292,-0.2052657,-0.3480415
0.9594889,-0.2037622,-0.3512508
0.9615395,-0.2025513,-0.3511996
0.9621283,-0.1980462,-0.350448
0.9604777,-0.1966529,-0.3536053
0.9567181,-0.1974348,-0.3551193
0.9570624,-0.1988477,-0.3580392
0.9567207,-0.2039735,-0.3526593
0.9545927,-0.2076489,-0.3422202
0.9567359,-0.2087518,-0.3439695
0.9579843,-0.2089389,-0.3427879
0.9582101,-0.2095666,-0.3416143
0.9606798,-0.2079975,-0.3494773
0.9610253,-0.202741,-0.3482402
0.9616818,-0.2009193,-0.342301
0.9629629,-0.1995866,-0.3392855
0.9597875,-0.1983243,-0.338393
0.9553541,-0.2021023,-0.3410942
0.9539543,-0.2069775,-0.3412572
0.9574657,-0.2121308,-0.3434155
0.9613237,-0.2160775,-0.34588
0.9588639,-0.2174141,-0.3436374
0.9560609,-0.2168197,-0.3443699
0.9536735,-0.2160159,-0.3439333
0.948341,-0.2166677,-0.3425562
0.9484382,-0.2135355,-0.3452596
0.9490133,-0.2090333,-0.3457643
0.9450234,-0.2063328,-0.3432548
0.9499312,-0.2029303,-0.3406434
0.956523,-0.2027283,-0.3425519
0.9538222,-0.2056541,-0.349565
0.9533184,-0.2088995,-0.3554754
0.9535452,-0.2125727,-0.3556705
0.9484341,-0.2154897,-0.3510754
0.9433283,-0.2126561,-0.3521838
0.9410687,-0.2062797,-0.3541062
0.9453153,-0.2065032,-0.3494564
0.9513827,-0.2053804,-0.3492266
0.9526489,-0.2010115,-0.3505753
0.9556107,-0.2050548,-0.3515091
0.9592517,-0.2082117,-0.3532339
0.9583969,-0.2077736,-0.3483959
0.9579446,-0.209224,-0.3442019
0.9588431,-0.2086338,-0.3445063
0.9587358,-0.2112832,-0.347128
0.9581638,-0.2138377,-0.3497633
0.956462,-0.2100448,-0.347256
0.9553177,-0.2088919,-0.3451879
0.9551602,-0.2101653,-0.3430736
0.9541609,-0.2097926,-0.3396682
0.9542437,-0.2105812,-0.3400241
0.954466,-0.2114465,-0.340745
0.954338,-0.2109838,-0.3411025
0.9547649,-0.210057,-0.3420495
0.954006,-0.2095132,-0.3430647
0.9558447,-0.2096811,-0.3451611
0.9582738,-0.2098106,-0.3478461
0.9574065,-0.209704,-0.3503971
0.9584889,-0.2098563,-0.3516178
0.9586278,-0.2106636,-0.3502021
0.95684,-0.2111981,-0.345711
0.9575937,-0.2093956,-0.3428869
0.9594449,-0.2048294,-0.3424784
0.9619621,-0.2019064,-0.3395907
0.961616,-0.2058875,-0.3384697
0.960181,-0.212193,-0.3417966
0.9616894,-0.2130503,-0.3439438
0.9605818,-0.2100815,-0.3422133
0.958018,-0.2072869,-0.3411747
0.9562695,-0.2063078,-0.3438129
0.954507,-0.2074907,-0.3449286
0.9544816,-0.2088875,-0.3434349
0.9550655,-0.2098413,-0.3428474
0.9576369,-0.2090332,-0.3444316
0.9599005,-0.2067143,-0.3476751
0.9605173,-0.2067024,-0.3494987
0.9629542,-0.2072389,-0.3498109
0.9606042,-0.2067207,-0.3508048
0.9546249,-0.2070537,-0.3506468
0.9536302,-0.2064217,-0.345206
0.9552157,-0.2039803,-0.3393654
0.9569749,-0.2012103,-0.3412508
0.9572848,-0.2006732,-0.343775
0.9566102,-0.202677,-0.344859
0.9571609,-0.2048834,-0.3510139
0.9563496,-0.2077293,-0.3521309
0.9541759,-0.2074246,-0.3448794
0.9523199,-0.2040514,-0.3415483
0.9535126,-0.2044271,-0.343644
0.9573393,-0.206242,-0.3468742
0.9590476,-0.2079133,-0.3477142
0.9599001,-0.2083349,-0.3448772
0.9592073,-0.2060533,-0.3425732
0.9576318,-0.2068796,-0.3417649
0.9598343,-0.2072073,-0.3430113
0.9620403,-0.2046757,-0.3454093
0.9625299,-0.2048872,-0.3447786
0.9616146,-0.2061504,-0.3446971
0.9585949,-0.2084822,-0.3465848
0.9580348,-0.2101428,-0.3458767
0.9593865,-0.2079779,-0.3453675
0.9596042,-0.2063516,-0.3455614
0.9579351,-0.2078494,-0.3420869
0.9551885,-0.2100253,-0.3388996
0.9552402,-0.2098042,-0.3393947
0.9559363,-0.2096726,-0.3402739
0.9554978,-0.2103818,-0.3414036
0.9565228,-0.2087935,-0.343912
0.957256,-0.2077847,-0.3451042
0.9569584,-0.2083785,-0.3435663
0.9568372,-0.2085532,-0.3407221
0.9569684,-0.2073073,-0.3387266
0.9577399,-0.2037695,-0.3418866
0.9604021,-0.1999203,-0.3464161
0.9636592,-0.1991915,-0.3439604
0.9622325,-0.2006113,-0.3403296
0.9576468,-0.20025,-0.3389964
0.9545908,-0.201649,-0.338639
0.9536304,-0.2047027,-0.3441567
0.9561309,-0.2042612,-0.3495425
0.9582998,-0.2038123,-0.352097
0.9587179,-0.2027036,-0.3547285
0.9615957,-0.198433,-0.3495707
0.9617519,-0.1938606,-0.3430451
0.9587157,-0.1908567,-0.3437072
0.9594491,-0.1905835,-0.3417635
0.9605718,-0.1926342,-0.3362544
0.9600224,-0.1965752,-0.3341726
0.959775,-0.2002735,-0.334797
0.9557035,-0.2033685,-0.3348725
0.9498137,-0.2046628,-0.3361205
0.9500747,-0.2043598,-0.3430879
0.9549764,-0.2087731,-0.3503607
0.9585566,-0.2096445,-0.348519
0.9591779,-0.2052322,-0.3433514
0.9593442,-0.2046267,-0.3433107
0.9600128,-0.2012052,-0.3422455
0.9577646,-0.2000823,-0.3397113
0.9560067,-0.2033482,-0.3411284
0.9576849,-0.2033033,-0.3428782
0.9591061,-0.2064898,-0.3450106
0.9618511,-0.2074133,-0.3456058
0.9635138,-0.205782,-0.3451322
0.9618925,-0.2076113,-0.3481395
0.9615395,-0.2048635,-0.3467444
0.9610972,-0.2033658,-0.3446441
0.9609477,-0.2056272,-0.347722
0.9623442,-0.2055571,-0.3482611
0.9624554,-0.2057713,-0.3486492
0.9609387,-0.2055501,-0.3472352
0.9572155,-0.2063946,-0.3391387
0.9543125,-0.2071512,-0.332364
0.9545609,-0.2048913,-0.3342936
0.9517053,-0.2044,-0.3401952
0.9470254,-0.2079228,-0.3417142
0.9489461,-0.213266,-0.3457375
0.9516014,-0.2155655,-0.3525091
0.9493024,-0.2167438,-0.3526887
0.9497057,-0.2179191,-0.3543075
0.9511222,-0.2110056,-0.3581323
0.9516517,-0.2022797,-0.3564429
0.9562576,-0.2015904,-0.3544723
0.958159,-0.203081,-0.3546935
0.9565943,-0.2011082,-0.3496131
0.9580316,-0.199009,-0.340691
0.9596427,-0.2001085,-0.3413546
0.9599848,-0.2004105,-0.3453485
0.9593321,-0.1995421,-0.3404496
0.9577733,-0.2006005,-0.3390383
0.9564343,-0.2017988,-0.3432296
0.9556902,-0.2033225,-0.3431651
0.9557283,-0.2041062,-0.3443983
0.9553213,-0.2042155,-0.3456315
0.9550115,-0.2065051,-0.3429587
0.9531359,-0.2084731,-0.3438392
0.9502465,-0.2096645,-0.3461669
0.9517945,-0.211111,-0.3487907
0.9549006,-0.2126527,-0.3507064
0.9565739,-0.2155939,-0.3489071
0.9564298,-0.2167176,-0.3520357
0.9531286,-0.2132081,-0.3527103
0.9528675,-0.209839,-0.3486263
0.9576559,-0.2117076,-0.348986
0.9601347,-0.2137629,-0.3470096
0.9556897,-0.2119357,-0.3487963
0.9505024,-0.2124654,-0.350104
0.9526526,-0.2138154,-0.3469589
0.9546253,-0.212714,-0.3546074
0.9543355,-0.2125821,-0.3584095
0.9580615,-0.2122821,-0.3562797
0.9577082,-0.2124919,-0.359091
0.9555761,-0.2127939,-0.3569819
0.9578492,-0.2119276,-0.3535791
0.9563308,-0.2113356,-0.3482005
0.9537194,-0.2081479,-0.3447284
0.9526905,-0.2068706,-0.3566743
0.9522836,-0.2125122,-0.3678819
0.9553323,-0.2171665,-0.3605689
0.9556513,-0.215507,-0.3492867
0.9534557,-0.2130116,-0.3499208
0.9523739,-0.21322,-0.351056
0.9513485,-0.2114216,-0.3521878
0.9518976,-0.2102187,-0.3565607
0.9523806,-0.2118122,-0.353208
0.9546892,-0.2108717,-0.3535445
0.9563441,-0.2109097,-0.3554883
0.9532402,-0.2117438,-0.3517888
0.9522047,-0.2115381,-0.3533238
0.9528883,-0.2130584,-0.3527354
0.9527982,-0.2127638,-0.3527611
0.9528911,-0.212978,-0.3563864
0.9528894,-0.2145824,-0.3568658
0.9547877,-0.2135693,-0.3586572
0.9560424,-0.2128263,-0.3608384
0.9556269,-0.2124482,-0.363444
0.9550527,-0.212245,-0.3568586
0.9537046,-0.2127701,-0.3451513
0.9524693,-0.2123877,-0.3482132
0.9523423,-0.2128062,-0.3511736
0.9532463,-0.2145954,-0.3507913
0.9523635,-0.2165953,-0.3571454
0.9506451,-0.2172158,-0.3582329
0.9502907,-0.2163586,-0.3572041
0.9512464,-0.2166224,-0.3575443
0.9534103,-0.2169013,-0.3552422
0.9512422,-0.2167977,-0.3587353
0.9487703,-0.218552,-0.3633384
0.9514274,-0.2198541,-0.3610106
0.951821,-0.2184609,-0.3581365
0.951237,-0.2166023,-0.3549346
0.952483,-0.2160628,-0.3526345
0.9529126,-0.215594,-0.3548062
0.9529807,-0.2152494,-0.354525
0.9525363,-0.2150561,-0.3546175
0.9524748,-0.2122289,-0.3610744
0.9511515,-0.2107902,-0.3645204
0.9495487,-0.2118435,-0.3585151
0.9517936,-0.2089198,-0.3502316
0.9538339,-0.2078684,-0.3502286
0.9530781,-0.2099182,-0.3528172
0.9514241,-0.2101888,-0.3508047
0.9493713,-0.2139086,-0.3523922
0.9487507,-0.2161326,-0.3543855
0.9497747,-0.2160026,-0.3527327
0.9502874,-0.217904,-0.3520173
0.9512223,-0.2156977,-0.3500849
0.9533653,-0.2144882,-0.3478001
0.9537948,-0.2141748,-0.3457601
0.9523903,-0.2116279,-0.3485671
0.9515356,-0.2122068,-0.3574015
0.951405,-0.2107135,-0.3598208
0.9514911,-0.2104965,-0.3572423
0.9522369,-0.2121763,-0.354474
0.9531953,-0.2106206,-0.3507891
0.9527694,-0.2131479,-0.3501888
0.9529164,-0.2147842,-0.3481364
0.954802,-0.2134189,-0.343685
0.9559602,-0.2137835,-0.3442099
0.9559639,-0.2119258,-0.3479441
0.9561137,-0.2106429,-0.3492278
0.957296,-0.210986,-0.3485771
0.9570742,-0.2112733,-0.3483273
0.9557159,-0.2112354,-0.3473489
0.9563161,-0.2107559,-0.3452562
0.9562322,-0.2112763,-0.3433961
0.955335,-0.2100953,-0.3429212
0.9554642,-0.2092934,-0.3439356
0.9556002,-0.2097776,-0.3472178
0.9560119,-0.2090386,-0.3508783
0.9575584,-0.2104962,-0.3487382
0.9607162,-0.2143619,-0.3449292
0.961959,-0.2173465,-0.3442268
0.9596585,-0.2160192,-0.3436318
0.9557131,-0.2116336,-0.3430923
0.9518828,-0.2088277,-0.3415075
0.9546239,-0.2084797,-0.3440357
0.9591204,-0.207955,-0.3522212
0.9569777,-0.2050664,-0.3550145
0.9580169,-0.2073856,-0.3508486
0.9622082,-0.2121321,-0.3464392
0.9601725,-0.209729,-0.347286
0.9562287,-0.2090741,-0.3498118
0.9531252,-0.2098375,-0.3497401
0.9523768,-0.2088119,-0.3505952
0.9536763,-0.2109353,-0.3501334
0.9520648,-0.211368,-0.3517416
0.95185,-0.2124842,-0.3555208
0.9525439,-0.2135439,-0.3534964
0.951515,-0.2114553,-0.3497718
0.952835,-0.2130522,-0.345537
0.9536752,-0.2137525,-0.3420124
0.9541625,-0.2130575,-0.3415928
0.9537556,-0.2127252,-0.3412004
0.9517984,-0.2091266,-0.3420562
0.9529298,-0.209423,-0.3417096
0.9521447,-0.2117222,-0.3412478
0.9509195,-0.2127543,-0.3420092
0.9539625,-0.2158845,-0.3404183
0.9563974,-0.2163176,-0.3391713
0.9579678,-0.2154035,-0.3360923
0.9587235,-0.2144024,-0.332729
0.9592885,-0.2120362,-0.3357404
0.9577554,-0.2115709,-0.3410246
0.9545705,-0.2107846,-0.3435305
0.9581168,-0.209912,-0.3409782
0.9611104,-0.2098845,-0.3370761
0.9574188,-0.2093399,-0.3378876
0.9559194,-0.2111933,-0.3382105
0.956494,-0.2160603,-0.3378278
0.956123,-0.2205225,-0.3442975
0.9562306,-0.2174702,-0.3506921
0.9568743,-0.21104,-0.3504159
0.9586912,-0.2121565,-0.3496958
0.960505,-0.2122923,-0.3500573
0.9598637,-0.2088474,-0.349137
0.9589863,-0.2086433,-0.345906
0.9592352,-0.2059867,-0.3430378
0.9580437,-0.2028374,-0.3445142
0.9582889,-0.2029886,-0.344788
0.9607055,-0.2048251,-0.3419849
0.9609483,-0.2091478,-0.3422433
0.9595194,-0.2106253,-0.3464792
0.9576635,-0.209795,-0.3517838
0.9579593,-0.2114642,-0.3508059
0.9585562,-0.2130816,-0.3414336
0.9551518,-0.2124239,-0.3364256
0.9533516,-0.2105604,-0.3440055
0.9540486,-0.2108295,-0.3511618
0.9537655,-0.2112224,-0.3435435
0.9543279,-0.2088733,-0.3369997
0.9559738,-0.2062086,-0.3440707
0.957048,-0.2033503,-0.3458481
0.9566902,-0.2019085,-0.3414339
0.957039,-0.2029436,-0.34142
0.9566632,-0.2036354,-0.340586
0.9538159,-0.2051141,-0.3401415
0.95267,-0.2078534,-0.3406847
0.954361,-0.207432,-0.3427498
0.9573786,-0.2060546,-0.3484235
0.9575189,-0.2077961,-0.3503642
0.956159,-0.2088413,-0.3457618
0.9572718,-0.2101282,-0.3410106
0.9560051,-0.2122487,-0.3434939
0.9549461,-0.2119861,-0.3480025
0.9555886,-0.2110935,-0.3485794
0.9535599,-0.2094821,-0.3496604
0.9526662,-0.2114447,-0.3504178
0.9543991,-0.2166995,-0.3533255
0.9558192,-0.2165676,-0.3557484
0.9531122,-0.2138441,-0.353073
0.9500373,-0.2117881,-0.3527587
0.952699,-0.2117446,-0.3502326
0.954455,-0.2125662,-0.3460322
0.9543074,-0.2101228,-0.34741
0.9561892,-0.2099828,-0.3474384
0.9573453,-0.2102389,-0.347087
0.9571591,-0.208865,-0.3484083
0.9562827,-0.2106418,-0.3490101
0.9552112,-0.2115058,-0.3495797
0.9536514,-0.2126055,-0.347749
0.9529413,-0.2131144,-0.3486491
0.9541952,-0.2105835,-0.354743
0.9550012,-0.2102757,-0.3554433
0.9555633,-0.2095923,-0.3532465
0.9540068,-0.2092573,-0.3583123
0.9517067,-0.2103675,-0.3590434
0.9534999,-0.2093031,-0.3528436
0.9558136,-0.2104598,-0.3551771
0.9569486,-0.2135973,-0.3568688
0.9556038,-0.2152288,-0.3522842
0.9520184,-0.2124759,-0.3513468
0.9528707,-0.2076637,-0.3494872
0.9551634,-0.2096158,-0.3480979
0.955591,-0.2109566,-0.3510514
0.956,-0.2082242,-0.3537416
0.9553716,-0.208367,-0.3544923
0.9564235,-0.2068532,-0.3522186
0.9570297,-0.207166,-0.3509643
0.9539529,-0.2105153,-0.3532985
0.9520096,-0.2095923,-0.3548942
0.9527365,-0.2093116,-0.3542416
0.9541286,-0.2096095,-0.3537378
0.9544804,-0.2094203,-0.3544709
0.9550968,-0.2119942,-0.3543506
0.9570891,-0.2122186,-0.3551753
0.9582254,-0.2111843,-0.3582653
0.9594491,-0.2113848,-0.3602308
0.960282,-0.2107456,-0.3595273
0.9604443,-0.211218,-0.3556838
0.9612406,-0.2111274,-0.3526394
0.9594428,-0.2098946,-0.352773
0.9540331,-0.2096993,-0.3531901
0.9477117,-0.2095482,-0.3544203
0.9448706,-0.2101806,-0.353265
0.9472934,-0.2115992,-0.3506269
0.952297,-0.2128294,-0.3547137
0.9567912,-0.2129154,-0.3587952
0.9547419,-0.2120033,-0.3568198
0.9507092,-0.2126412,-0.3541937
0.9533977,-0.2127395,-0.3503989
0.9548518,-0.2121021,-0.3491666
0.9551013,-0.212805,-0.3486255
0.9589947,-0.2124276,-0.3425918
0.9605247,-0.2116335,-0.3442275
0.9625865,-0.2083027,-0.3478226
0.9627602,-0.2011419,-0.3415129
0.9586104,-0.1983297,-0.3395749
0.959732,-0.2003294,-0.3389231
0.9603847,-0.2006635,-0.3362151
0.9588529,-0.2005764,-0.3385848
0.9603734,-0.2026714,-0.3401787
0.9597037,-0.2033849,-0.3425348
0.9603651,-0.2023427,-0.3442181
0.9618905,-0.2028876,-0.3439207
0.9607117,-0.2027453,-0.3452911
0.9606698,-0.201092,-0.343853
0.9581622,-0.198667,-0.3433045
0.9541534,-0.1960017,-0.3434411
0.9535237,-0.1954831,-0.3433574
0.9547327,-0.1926313,-0.3489815
0.9565442,-0.1889283,-0.351179
0.9589297,-0.1919673,-0.3425391
0.9610197,-0.1939863,-0.3331839
0.961382,-0.1894831,-0.3349387
0.9622203,-0.1860438,-0.3383258
0.961502,-0.1857445,-0.33382
0.9584297,-0.1857997,-0.3342471
0.9596957,-0.1845177,-0.3358594
0.9604965,-0.1826036,-0.3339368
0.9591091,-0.1840444,-0.3367973
0.9611821,-0.188331,-0.3362986
0.9623529,-0.1916211,-0.3338073
0.9625124,-0.1924692,-0.3352322
0.9624595,-0.1918652,-0.3365079
0.9603285,-0.191499,-0.3374437
0.9593829,-0.1893867,-0.3340085
0.9599167,-0.1863558,-0.3309494
0.9616897,-0.1857496,-0.3346417
0.9631173,-0.1860156,-0.3374786
0.9622628,-0.1861541,-0.3359328
0.9614637,-0.1851922,-0.3343208
0.9607578,-0.184229,-0.3341569
0.9600914,-0.1849281,-0.3328755
0.9601982,-0.1845409,-0.3328663
0.962329,-0.1837265,-0.3331019
0.9660216,-0.1832136,-0.3311178
0.966889,-0.1830629,-0.3320044
0.9673677,-0.1840286,-0.3323845
0.9696262,-0.1849603,-0.3310322
0.9695061,-0.1869385,-0.3303758
0.9681223,-0.1890503,-0.3268892
0.966349,-0.1923491,-0.3235952
0.9626317,-0.1952155,-0.3220628
0.9601178,-0.1900522,-0.3236598
0.960676,-0.185538,-0.3290661
0.9608172,-0.1899558,-0.3330849
0.9591882,-0.1933776,-0.3373428
0.9594322,-0.192686,-0.3384214
0.9603131,-0.191353,-0.3336324
0.9593296,-0.189686,-0.3317137
0.9599023,-0.1900043,-0.3335112
0.9610942,-0.1908167,-0.3398019
0.9618969,-0.1903265,-0.346002
0.9634928,-0.1920114,-0.3385195
0.9643293,-0.1942354,-0.328472
0.9673389,-0.1945927,-0.3282123
0.9720229,-0.1952061,-0.3273004
0.9738247,-0.1946406,-0.3284584
0.9715624,-0.1940057,-0.3329417
0.9676893,-0.1958949,-0.3260431
0.9681637,-0.1970561,-0.3187174
0.9676686,-0.1972736,-0.3235372
0.9635033,-0.1974545,-0.3275786
0.9637524,-0.197139,-0.3319288
0.963609,-0.1982019,-0.3394046
0.9607959,-0.1988227,-0.3414002
0.9593812,-0.1976047,-0.3418141
0.9590611,-0.1969316,-0.3406303
0.9600446,-0.1973233,-0.3335979
0.9578619,-0.1983077,-0.3269376
0.9562397,-0.1989821,-0.327633
0.9594107,-0.2004181,-0.3353842
0.9610787,-0.2047046,-0.3402483
0.9611036,-0.2072999,-0.3387731
0.9592594,-0.2019979,-0.3362975
0.9575049,-0.195986,-0.3338228
0.9587269,-0.1983143,-0.3333649
0.9593129,-0.1991559,-0.3361756
0.9600506,-0.1964532,-0.3395693
0.9608122,-0.2009926,-0.3403549
0.9605531,-0.2045622,-0.3398511
0.9587525,-0.2024977,-0.3412571
0.9558414,-0.2032255,-0.3421402
0.957221,-0.2038891,-0.3414122
0.9605771,-0.2024512,-0.3385763
0.9622716,-0.2026505,-0.3374554
0.963179,-0.204006,-0.3405231
0.9622345,-0.2040386,-0.3405193
0.9622652,-0.202092,-0.3424679
0.9629433,-0.2000161,-0.3485125
0.9621643,-0.1994712,-0.3513889
0.9620365,-0.2006521,-0.3525756
0.9598083,-0.2018782,-0.349395
0.9558173,-0.2030029,-0.3435152
0.9538926,-0.2033061,-0.3385322
0.9522175,-0.2022179,-0.3382199
0.9515726,-0.203628,-0.3454248
0.9523937,-0.2064706,-0.346639
0.9522325,-0.2080521,-0.3442674
0.9533727,-0.2072965,-0.3422585
0.9567721,-0.2046462,-0.3362654
0.9595278,-0.2037766,-0.3382441
0.9605058,-0.2014256,-0.3428164
0.9615699,-0.1985168,-0.3445057
0.9636859,-0.1958067,-0.3439783
0.9634078,-0.1895266,-0.3359215
0.9609622,-0.1890723,-0.3333379
0.961103,-0.1921792,-0.3347631
0.9631916,-0.192758,-0.3327128
0.9645099,-0.1974166,-0.3322344
0.9646044,-0.1978835,-0.3329667
0.9632551,-0.1945336,-0.3355724
0.9613011,-0.197556,-0.3331983
0.9605291,-0.1983402,-0.3307909
0.9616568,-0.196166,-0.335572
0.9631159,-0.1977001,-0.336567
0.9635597,-0.1984699,-0.3350444
0.9614478,-0.1983242,-0.3334752
0.9576214,-0.1990865,-0.3327118
0.9577467,-0.1983839,-0.3344874
0.9595261,-0.1988128,-0.3356217
0.9598145,-0.2013159,-0.3376641
0.9625387,-0.2042587,-0.3343247
0.9633384,-0.2060177,-0.3288951
0.9617582,-0.2016382,-0.3314927
0.9627939,-0.1964315,-0.3356024
0.962622,-0.1967485,-0.3370841
0.9621621,-0.1970191,-0.3320245
0.9626628,-0.1970383,-0.3251831
0.9614027,-0.1981619,-0.3292302
0.960684,-0.1973717,-0.3337405
0.9602289,-0.1971775,-0.3339111
0.9592996,-0.2002013,-0.3386505
0.9589566,-0.2021763,-0.3389084
0.9590379,-0.2004468,-0.3356389
0.9602508,-0.199213,-0.3381922
0.9617582,-0.1994486,-0.3366084
0.9627795,-0.1995427,-0.332831
0.9628008,-0.2010827,-0.3327858
0.9619756,-0.2029032,-0.3312007
0.9616942,-0.2032825,-0.3323373
0.9608172,-0.204421,-0.3348236
0.9595189,-0.2063773,-0.3373839
0.9580283,-0.2069862,-0.3417097
0.9561747,-0.2090818,-0.3428211
0.9567964,-0.2133562,-0.3467894
0.9575158,-0.214511,-0.351275
0.9564893,-0.2126578,-0.3484004
0.9570434,-0.2108053,-0.3445825
0.9569769,-0.2089059,-0.3401681
0.9560772,-0.2066566,-0.3356524
0.9571519,-0.2043036,-0.3329467
0.9579702,-0.2022823,-0.3301032
0.9580785,-0.2015813,-0.3324574
0.9594163,-0.2035484,-0.3366014
0.9620744,-0.2060113,-0.334996
0.9631503,-0.2066193,-0.3355711
0.9622291,-0.2048037,-0.3391386
0.9623189,-0.2013587,-0.3384604
0.9615493,-0.2016444,-0.3393586
0.9597889,-0.2031094,-0.3414374
0.9593135,-0.2021479,-0.3386848
0.9588212,-0.2035396,-0.3347801
0.9578497,-0.2049146,-0.3311509
0.956156,-0.2063876,-0.3327707
0.9543001,-0.2080764,-0.3377015
0.9537132,-0.206474,-0.336137
0.954448,-0.2077471,-0.3366207
0.9552907,-0.2091992,-0.3405236
0.9557065,-0.2072183,-0.339734
0.9570594,-0.205888,-0.3375576
0.9588711,-0.2033973,-0.3344115
0.9598944,-0.2036043,-0.3338385
0.9580467,-0.204937,-0.336571
0.9549331,-0.2026742,-0.3387338
0.9555883,-0.2027263,-0.3429075
0.9570021,-0.2039117,-0.3426808
0.9577601,-0.2041986,-0.3400961
0.9589297,-0.2043128,-0.342522
0.9583561,-0.2029294,-0.3414586
0.9590382,-0.2026201,-0.338932
0.9604787,-0.2028141,-0.3382697
0.9604781,-0.2028858,-0.3361984
0.9612791,-0.2038222,-0.3359983
0.9611762,-0.2041004,-0.3358079
0.9601104,-0.2034574,-0.3413376
0.9602889,-0.2023439,-0.353581
0.9604226,-0.2026314,-0.3551642
0.9596573,-0.2031919,-0.3469605
0.9593875,-0.2024452,-0.3420565
0.9599743,-0.2026819,-0.3423075
0.9593835,-0.2022115,-0.3427358
0.9577292,-0.2017547,-0.3428159
0.9566183,-0.2035218,-0.3470715
0.9566276,-0.2051379,-0.3483113
0.9573172,-0.2075358,-0.3445745
0.9570558,-0.2089344,-0.3420415
0.9576076,-0.2063413,-0.3374681
0.9587478,-0.2046975,-0.3367565
0.957343,-0.2060855,-0.3426803
0.95646,-0.2075693,-0.3492286
0.9569365,-0.2086236,-0.3558126
0.9555313,-0.2077587,-0.357059
0.95256,-0.2034986,-0.3575819
0.9504754,-0.2008284,-0.3585851
0.9516354,-0.2051415,-0.3499111
0.9537151,-0.2114919,-0.3429081
0.9541352,-0.2118393,-0.3450473
0.9535449,-0.2093156,-0.3492867
0.9522851,-0.2087911,-0.3528278
0.953863,-0.2079175,-0.3528673
0.9594976,-0.2068789,-0.3567637
0.9640415,-0.2050946,-0.363686
0.9633292,-0.2021502,-0.3616842
0.9612171,-0.2016686,-0.3583898
0.9629401,-0.2014705,-0.3567879
0.9630133,-0.2009971,-0.351178
0.9610708,-0.2017472,-0.3505359
0.9604655,-0.2012704,-0.349231
0.9574344,-0.2014423,-0.3381567
0.9575883,-0.202531,-0.3358188
0.9592335,-0.2028201,-0.3437014
0.9557297,-0.2030023,-0.3467064
0.9552423,-0.2025873,-0.3480734
0.9567613,-0.202765,-0.3488122
0.9569258,-0.2029653,-0.3487769
0.9573749,-0.2025474,-0.3499055
0.9564881,-0.2025686,-0.3507417
0.9570955,-0.2006262,-0.3508776
0.9571659,-0.1973788,-0.3444446
0.9565049,-0.1957294,-0.3366834
0.9573669,-0.1950952,-0.3378036
0.9570799,-0.1931343,-0.3443826
0.958689,-0.1899074,-0.349222
0.9605141,-0.1894614,-0.3459352
0.9599739,-0.1901738,-0.3380192
0.9613479,-0.1894916,-0.3326985
0.9631465,-0.1913525,-0.3318914
0.9627354,-0.1939791,-0.3328993
0.9620269,-0.1955771,-0.3312435
0.9627031,-0.1978884,-0.3321043
0.9630267,-0.1967813,-0.3345688
0.9641018,-0.1945349,-0.3347788
0.9670252,-0.1949773,-0.3374485
0.9665247,-0.193001,-0.339278
0.9635388,-0.1921073,-0.3388614
0.9619517,-0.1945043,-0.3374583
0.962097,-0.1931726,-0.3364755
0.9630823,-0.1916246,-0.3384035
0.9622932,-0.1909094,-0.3373867
0.9620862,-0.1870327,-0.3374141
0.9620481,-0.1867792,-0.3412432
0.9604757,-0.1897054,-0.3425492
0.9609423,-0.1905499,-0.3432571
0.9603836,-0.1921419,-0.3424705
0.958176,-0.1921382,-0.3417019
0.9581835,-0.1907446,-0.3403167
0.9589341,-0.1912136,-0.3370361
0.9613666,-0.1902236,-0.3379041
0.9651292,-0.1906878,-0.3380099
0.9658932,-0.1927681,-0.3402976
0.964067,-0.1922827,-0.3471556
0.9629053,-0.1931054,-0.3495166
0.9614405,-0.1935701,-0.3527923
0.9587167,-0.192148,-0.3566677
0.9583959,-0.1915296,-0.3557399
0.9588267,-0.1898041,-0.3535999
0.9578071,-0.1897944,-0.3534697
0.9582916,-0.190983,-0.3545482
0.9576977,-0.189894,-0.3509651
0.9562646,-0.190219,-0.3479096
0.9571363,-0.1913248,-0.3487928
0.9570917,-0.1934928,-0.3491352
0.9566869,-0.1969482,-0.3523929
0.9571562,-0.1951978,-0.3552002
0.9573787,-0.1922812,-0.3544049
0.9596164,-0.193299,-0.3537089
0.9614737,-0.1935186,-0.3541853
0.9581142,-0.1947127,-0.3534987
0.9529057,-0.1975927,-0.3483465
0.9524402,-0.1969922,-0.3443834
0.9558802,-0.1935092,-0.3448462
0.9575917,-0.188816,-0.3439628
0.9561939,-0.1864297,-0.3419331
0.9550041,-0.1894405,-0.3470985
0.9569148,-0.1910371,-0.3542286
0.9597132,-0.1881421,-0.349171
0.9619113,-0.1870935,-0.3434559
0.9641684,-0.189606,-0.343944
0.9641187,-0.1920962,-0.3413744
0.963042,-0.1928514,-0.3413568
0.9614547,-0.192526,-0.3425654
0.9582435,-0.1905631,-0.3428769
0.9565373,-0.1886472,-0.3454125
0.954579,-0.1926526,-0.3445166
0.9534613,-0.1995153,-0.3445926
0.9564941,-0.2020821,-0.3485609
0.9578355,-0.2030288,-0.350805
0.957516,-0.2029111,-0.3504511
0.9584965,-0.2004284,-0.3493045
0.9570289,-0.1992819,-0.3498709
0.9537384,-0.1982206,-0.3485265
0.9522053,-0.1968724,-0.3466676
0.9536843,-0.1980164,-0.3501083
0.9560065,-0.1989435,-0.3535917
0.9565305,-0.1977252,-0.3564849
0.9574231,-0.1972353,-0.3601088
0.9590043,-0.2006811,-0.358217
0.9593835,-0.20602,-0.3534668
0.9574297,-0.2080755,-0.3521087
0.9543814,-0.2060054,-0.3519605
0.955054,-0.2021545,-0.3519094
0.9555886,-0.1999209,-0.3524016
0.953227,-0.2011133,-0.3522441
0.9539591,-0.2022601,-0.3538135
0.9540446,-0.2006434,-0.3561969
0.9533085,-0.1994865,-0.3572832
0.9573399,-0.1995578,-0.3588904
0.9596833,-0.1996197,-0.3573754
0.9589522,-0.2009176,-0.3509647
0.9197727,-0.2422568,-0.3975872
0.908361,-0.250445,-0.3959419
0.9066207,-0.2578152,-0.3974862
0.9126371,-0.2617465,-0.3972627
0.9151764,-0.2704314,-0.39855
0.9160867,-0.2721431,-0.3990204
0.9195688,-0.2628731,-0.3938045
0.9232271,-0.2577773,-0.3896264
0.9242991,-0.2561344,-0.3824128
0.9193449,-0.2516896,-0.3757643
0.9105926,-0.2496747,-0.3825049
0.8982953,-0.2565844,-0.3979161
0.889407,-0.2642698,-0.416104
0.8981479,-0.263082,-0.4344765
0.9161609,-0.259962,-0.4485792
0.9341388,-0.2544133,-0.4594522
0.9462014,-0.2404237,-0.4596602
0.9393443,-0.2316364,-0.4394415
0.9225928,-0.2362296,-0.4184547
0.9014439,-0.2497813,-0.4138598
0.8809715,-0.2687958,-0.4149713
0.8840397,-0.2772464,-0.4193651
0.8931352,-0.2783682,-0.4260034
0.895757,-0.2947036,-0.4273483
0.9119131,-0.3121498,-0.4278728
0.9155945,-0.317694,-0.4314694
0.9031325,-0.3205113,-0.4321991
0.9033685,-0.3116217,-0.4295402
0.8975549,-0.2837179,-0.4305189
0.8914225,-0.2558238,-0.4329828
0.8960019,-0.2596967,-0.4391265
0.8910182,-0.2771667,-0.4494053
0.88894,-0.2716532,-0.446109
0.8900022,-0.2716355,-0.4316737
0.8816416,-0.2746768,-0.4233524
0.8712389,-0.2639778,-0.4223086
0.8652444,-0.2650683,-0.4149179
0.8734083,-0.2602593,-0.3971365
0.8855362,-0.2563497,-0.3905586
0.8980375,-0.2676651,-0.3897949
0.9217942,-0.2701241,-0.3842398
0.9462034,-0.2768275,-0.390761
0.9676648,-0.2783236,-0.3936509
0.9789184,-0.2769145,-0.3926501
0.9770878,-0.2944597,-0.4050099
0.9765027,-0.305361,-0.4090366
0.9708913,-0.3115287,-0.4060243
0.9602606,-0.310375,-0.4036638
0.9575756,-0.2961229,-0.3977001
0.9562066,-0.2924036,-0.3950363
0.9416524,-0.291938,-0.3878375
0.923065,-0.2923584,-0.3813252
0.924205,-0.2922377,-0.3844264
0.9330926,-0.2867187,-0.3877279
0.9353463,-0.2826857,-0.3861976
0.946389,-0.2714742,-0.3839925
0.9567162,-0.2648606,-0.3872474
0.9537136,-0.2654975,-0.3900573
0.9498225,-0.2634179,-0.3936102
0.9449443,-0.2705613,-0.3959207
0.9386314,-0.2792204,-0.3960832
0.9362696,-0.2877683,-0.4055517
0.9342006,-0.2939473,-0.4073798
0.9329545,-0.2897272,-0.4031606
0.9301752,-0.2947116,-0.4060148
0.9244828,-0.3026906,-0.4000056
0.9235102,-0.2996573,-0.3958469
0.9177548,-0.2911688,-0.4046897
0.9044734,-0.2784007,-0.4155815
0.9047495,-0.2746766,-0.4209018
0.9099954,-0.2762405,-0.420535
0.9064208,-0.2654675,-0.4313124
0.9075659,-0.2549029,-0.4450125
0.9051111,-0.2554905,-0.4361481
0.8947864,-0.2544228,-0.4212553
0.8931782,-0.249711,-0.4197194
0.8965647,-0.2489661,-0.4201648
0.9041481,-0.245547,-0.4170807
0.9147667,-0.2447178,-0.4137524
0.9154741,-0.2490542,-0.4125547
0.9115711,-0.2423761,-0.4161817
0.9099496,-0.2322508,-0.420168
0.903496,-0.2249718,-0.4231924
0.8937845,-0.2202819,-0.4154648
0.8939504,-0.2232174,-0.393883
0.9035632,-0.2213353,-0.3857589
0.9140492,-0.2217711,-0.3907712
0.9251725,-0.2270096,-0.3884595
0.9335634,-0.2197076,-0.3806513
0.9404912,-0.2109144,-0.3723297
0.9454893,-0.2030216,-0.3674154
0.9425019,-0.1929265,-0.3612644
0.9400692,-0.1899831,-0.3483892
0.9400352,-0.1889979,-0.340269
0.9401084,-0.1893945,-0.3484758
0.9469803,-0.1943114,-0.3585496
0.9531415,-0.2041468,-0.3584711
0.9540816,-0.2153279,-0.3682943
0.9587056,-0.219305,-0.3766269
0.9634557,-0.2227889,-0.366186
0.9625113,-0.2279956,-0.3612181
0.9613633,-0.2290723,-0.3584395
0.959434,-0.2297497,-0.3515433
0.9560607,-0.2308012,-0.3501574
0.9592175,-0.2315365,-0.3452657
0.9628278,-0.231842,-0.3417106
0.9596003,-0.2324209,-0.3436406
0.9580422,-0.2346733,-0.3432104
0.9582826,-0.2367126,-0.3437067
0.95625,-0.2413622,-0.3449694
0.954785,-0.2452311,-0.3453119
0.9536174,-0.2430992,-0.348886
0.9521199,-0.2417933,-0.3538067
0.9498481,-0.2394092,-0.3535778
0.9448769,-0.2357065,-0.3515491
0.9393541,-0.2383104,-0.3521582
0.9376123,-0.241635,-0.3499036
0.939397,-0.2453249,-0.3463987
0.9459682,-0.2498804,-0.3459507
0.9570616,-0.2476014,-0.3475735
0.9588391,-0.2452894,-0.3513063
0.9503122,-0.2464065,-0.3522097
0.9441052,-0.2464208,-0.3507795
0.9388997,-0.2474017,-0.3512719
0.9372419,-0.2462407,-0.3491227
0.9391271,-0.2432619,-0.3451596
0.9406038,-0.2431531,-0.343684
0.9497618,-0.2447216,-0.3452168
0.9559968,-0.2465577,-0.3494272
0.9519933,-0.2457008,-0.3513258
0.9519702,-0.2427114,-0.3463637
0.9525171,-0.2388664,-0.3396163
0.9494292,-0.2334326,-0.339997
0.9477154,-0.2319138,-0.3421305
0.9458131,-0.2321998,-0.3423752
0.9444622,-0.2302313,-0.3485015
0.9445416,-0.2323319,-0.3521704
0.9453239,-0.2371997,-0.3510474
0.9463216,-0.2413108,-0.3537738
0.9469872,-0.2465466,-0.3550913
0.9482035,-0.2501411,-0.3567065
0.9479888,-0.2527086,-0.3593711
0.9430496,-0.2553915,-0.3582766
0.9371527,-0.2538954,-0.3580703
0.9364122,-0.251594,-0.3592166
0.9370142,-0.2517178,-0.361869
0.9373288,-0.2520446,-0.3642912
0.9405986,-0.25409,-0.360646
0.9410512,-0.2546436,-0.3562085
0.9392608,-0.2523305,-0.3563945
0.9397904,-0.2508161,-0.356401
0.9392406,-0.2478013,-0.3566968
0.941074,-0.2444656,-0.361152
0.9445007,-0.2425328,-0.3621775
0.9432041,-0.2423164,-0.3601503
0.9432887,-0.2433774,-0.3615844
0.9453285,-0.2399693,-0.3609689
0.9443117,-0.2367449,-0.3600062
0.9437774,-0.2377871,-0.3608555
0.9430172,-0.2385509,-0.3608612
0.9411113,-0.2400914,-0.3616055
0.9423344,-0.241042,-0.3610628
0.9438724,-0.2418146,-0.3617932
0.9428208,-0.2437281,-0.3637949
0.9428381,-0.2428406,-0.3641002
0.9439333,-0.2408797,-0.3642933
0.9456887,-0.2399747,-0.3619505
0.9489592,-0.2396841,-0.3613297
0.9489776,-0.2382833,-0.3618216
0.9461243,-0.2341445,-0.3582274
0.9455272,-0.232216,-0.3583131
0.9454433,-0.2336064,-0.3606162
0.9441076,-0.2330747,-0.360386
0.9422414,-0.2303094,-0.3580037
0.9408644,-0.2288558,-0.3532162
0.9403061,-0.2306952,-0.3543348
0.9400088,-0.2329473,-0.3570755
0.9415776,-0.2319984,-0.3547999
0.9430325,-0.2318834,-0.3549808
0.9429991,-0.2353156,-0.3537262
0.9436743,-0.2378745,-0.351782
0.9442898,-0.23876,-0.3563967
0.9441851,-0.2390132,-0.3629245
0.9412057,-0.2388046,-0.3673753
0.9387763,-0.239174,-0.363516
0.940899,-0.2396916,-0.3566329
0.9405593,-0.2409101,-0.3608314
0.9397651,-0.2422793,-0.3667571
0.9417832,-0.2432208,-0.3680843
0.9420295,-0.2435256,-0.3683885
0.9434595,-0.2426153,-0.3627986
0.9449311,-0.2429196,-0.3602875
0.9435056,-0.2424764,-0.3661473
0.9430062,-0.2415105,-0.3694061
0.9447713,-0.2445186,-0.3684892
0.9462993,-0.2462989,-0.3667998
0.9432041,-0.243178,-0.3663666
0.9375533,-0.2404698,-0.3643662
0.9351623,-0.2417069,-0.3619881
0.936707,-0.2433103,-0.3621713
0.9385189,-0.2427566,-0.3588173
0.9383148,-0.2432239,-0.3582255
0.9424452,-0.2432036,-0.3585779
0.9477295,-0.2426744,-0.354606
0.9442762,-0.2434367,-0.3598215
0.9411244,-0.2423401,-0.3650858
0.942828,-0.2401122,-0.36329
0.9416769,-0.2374531,-0.3691808
0.9406038,-0.2365886,-0.375654
0.940507,-0.2380576,-0.3706493
0.9381779,-0.2364635,-0.3652449
0.9393161,-0.2365594,-0.3682289
0.9441779,-0.2418885,-0.3672067
0.9459771,-0.2458856,-0.3625888
0.9427774,-0.2449371,-0.3654616
0.9383536,-0.2418568,-0.3677135
0.939186,-0.2405552,-0.3678479
0.9408446,-0.2383913,-0.3678178
0.9397779,-0.2377609,-0.3660492
0.9425339,-0.2391878,-0.3686342
0.9438697,-0.2372414,-0.3704127
0.9421391,-0.2399215,-0.3686793
0.9416313,-0.2442308,-0.3677297
0.9397375,-0.2420355,-0.3661346
0.9410722,-0.2415851,-0.3667901
0.9435382,-0.2406943,-0.3689216
0.9428271,-0.237138,-0.369492
0.9432225,-0.2374302,-0.3677731
0.9432005,-0.2411081,-0.361909
0.9438106,-0.2452609,-0.3571679
0.9449725,-0.2469892,-0.3585105
0.944109,-0.2475625,-0.362682
0.9431573,-0.248153,-0.364194
0.9410717,-0.245416,-0.3613509
0.9395609,-0.241665,-0.358722
0.9403352,-0.243266,-0.360568
0.940874,-0.2477813,-0.3634315
0.9422516,-0.2484734,-0.3648527
0.9453679,-0.2457119,-0.3697846
0.9467307,-0.240593,-0.3753472
0.9451479,-0.237933,-0.3763512
0.9431487,-0.2391325,-0.375853
0.9393057,-0.2372511,-0.3724651
0.9359091,-0.2373216,-0.3674003
0.9375779,-0.2406054,-0.3655632
0.9383963,-0.2401157,-0.3655063
0.9382537,-0.2374207,-0.3670911
0.942085,-0.2351791,-0.3707027
0.9441401,-0.2357775,-0.3752886
0.9428339,-0.2360187,-0.378673
0.9424586,-0.2351876,-0.3757893
0.94151,-0.2382406,-0.3691242
0.9396735,-0.239863,-0.3675412
0.9401576,-0.2385417,-0.3687577
0.9418785,-0.2387756,-0.3660743
0.9427529,-0.2391035,-0.3633888
0.9442184,-0.2387872,-0.3637354
0.9449251,-0.2390258,-0.3646728
0.9439885,-0.2398905,-0.3657612
0.9432327,-0.2406465,-0.3653913
0.9409363,-0.2411047,-0.3627945
0.9385552,-0.2407282,-0.3629768
0.938764,-0.2392209,-0.3642636
0.9390167,-0.2389582,-0.358666
0.938841,-0.2416299,-0.3532291
0.9394343,-0.2440892,-0.3549263
0.9420855,-0.2431557,-0.3591317
0.9467709,-0.2423127,-0.3649699
0.9492125,-0.2409757,-0.3685791
0.9482453,-0.2332866,-0.3686348
0.9457342,-0.2264142,-0.3657855
0.9408251,-0.2286652,-0.3604696
0.9363485,-0.2314891,-0.3614217
0.9375988,-0.2321507,-0.3610712
0.9410163,-0.2374368,-0.3545167
0.9421722,-0.2389335,-0.3554606
0.9432141,-0.2343036,-0.3592058
0.9448393,-0.2348473,-0.3598108
0.9464053,-0.2370618,-0.3603526
0.9463628,-0.2384367,-0.3593438
0.9460712,-0.2398812,-0.3606307
0.9480496,-0.2375629,-0.3618488
0.9483149,-0.2352845,-0.3604408
0.9482623,-0.2323964,-0.3602274
0.9490945,-0.2306489,-0.3586214
0.9469353,-0.2320285,-0.3577225
0.9449486,-0.2302156,-0.3585441
0.9432864,-0.2286489,-0.3571314
0.9423032,-0.2282872,-0.3552073
0.9434031,-0.2307366,-0.3526109
0.9420724,-0.2362894,-0.351426
0.9413167,-0.2349768,-0.3557649
0.943201,-0.233197,-0.3600919
0.9449965,-0.2329642,-0.3586676
0.9461702,-0.229257,-0.3572056
0.9440669,-0.2302377,-0.3590632
0.9424773,-0.2316783,-0.3583852
0.9453571,-0.2307125,-0.3573897
0.9484117,-0.2324478,-0.3570224
0.9484192,-0.2322255,-0.3537586
0.9448976,-0.2315858,-0.3536249
0.9420075,-0.2332105,-0.3553717
0.9440638,-0.2342477,-0.3562271
0.9472281,-0.2368642,-0.3583911
0.9474754,-0.2398045,-0.3560356
0.9465773,-0.238384,-0.35061
0.9442728,-0.2362777,-0.3481019
0.9406929,-0.2366939,-0.3501332
0.9412808,-0.2353063,-0.3562494
0.9445614,-0.2341834,-0.3603752
0.9459431,-0.2378097,-0.3642084
0.9474516,-0.242633,-0.3696751
0.9478964,-0.2452741,-0.3700787
0.946632,-0.2431522,-0.3637167
0.9472681,-0.2395657,-0.355356
0.9477776,-0.2387906,-0.355916
0.9474959,-0.2345892,-0.3620182
0.9480312,-0.2313774,-0.3627496
0.9458902,-0.2343418,-0.3636949
0.9429949,-0.2343083,-0.3606513
0.9423055,-0.2335365,-0.3542424
0.9425798,-0.234733,-0.355485
0.9463981,-0.2343658,-0.3561901
0.9502861,-0.2352519,-0.355578
0.9500444,-0.2352942,-0.3562512
0.9487121,-0.2340114,-0.3548217
0.9464732,-0.2325091,-0.3543502
0.9455523,-0.2311015,-0.3490761
0.9477284,-0.233441,-0.3442153
0.9492834,-0.2347996,-0.3513025
0.9489147,-0.2346127,-0.3573452
0.9490695,-0.236109,-0.3553802
0.9505407,-0.2356774,-0.3557854
0.9498086,-0.2344278,-0.3582993
0.9471885,-0.2329002,-0.3618647
0.9444017,-0.2327808,-0.3708507
0.941546,-0.2341348,-0.3733153
0.9412145,-0.2328996,-0.3640138
0.9406139,-0.2332234,-0.358384
0.940663,-0.2336332,-0.3589589
0.9449186,-0.2319038,-0.357967
0.9477399,-0.2320086,-0.3559338
0.9491547,-0.2321634,-0.3561993
0.9500979,-0.2337118,-0.3541412
0.9496873,-0.2347949,-0.3495115
0.9514962,-0.2310207,-0.3516031
0.9525859,-0.228638,-0.3546736
0.9520014,-0.2326261,-0.3557924
0.9496502,-0.2378439,-0.360307
0.945681,-0.2383896,-0.3620092
0.9469393,-0.2393859,-0.3611116
0.9477347,-0.2413382,-0.3559824
0.943534,-0.2381399,-0.3493871
0.9413961,-0.2347832,-0.3553312
0.9402696,-0.2331589,-0.3615127
0.9389862,-0.2342736,-0.3575939
0.9379,-0.2376905,-0.3576232
0.938191,-0.2359494,-0.3601978
0.9439965,-0.2353103,-0.3585122
0.948843,-0.2370785,-0.3580636
0.9459491,-0.2351748,-0.3578098
0.9425152,-0.2343507,-0.3545566
0.9442452,-0.2333545,-0.3518809
0.9453166,-0.2334851,-0.3517246
0.9453209,-0.2351098,-0.3512181
0.9469372,-0.2305388,-0.3493652
0.946331,-0.2258914,-0.3512227
0.9469326,-0.2263784,-0.3532014
0.9472495,-0.2283352,-0.3522023
0.9449947,-0.2298736,-0.3557154
0.9480489,-0.2300267,-0.3571557
0.9509149,-0.2333247,-0.3560248
0.9514827,-0.2365314,-0.3600934
0.9527641,-0.2298821,-0.3613256
0.9477288,-0.2220149,-0.3620949
0.941236,-0.2254049,-0.3628925
0.9400156,-0.2318672,-0.3597528
0.9418703,-0.2326124,-0.361052
0.9449263,-0.233188,-0.3607993
0.9473462,-0.2353322,-0.3575967
0.9478836,-0.2362435,-0.3587697
0.9461888,-0.2346559,-0.3592096
0.9445365,-0.2323859,-0.3599663
0.942639,-0.2344782,-0.3614383
0.9427707,-0.236827,-0.3627738
0.9466863,-0.2376199,-0.3657708
0.9478822,-0.2391676,-0.3653905
0.9480814,-0.2361451,-0.3633705
0.9489576,-0.2312145,-0.3611484
0.9485936,-0.2264392,-0.3571698
0.9502025,-0.2193328,-0.3547367
0.9528633,-0.2177153,-0.3512178
0.9550251,-0.2216303,-0.3488862
0.9539743,-0.2249854,-0.3521487
0.9506613,-0.2296507,-0.3526825
0.9494179,-0.2311061,-0.3470442
0.9476386,-0.2297085,-0.3448693
0.9460601,-0.2336302,-0.3547328
0.9455389,-0.2347625,-0.3642401
0.945271,-0.2332111,-0.3550235
0.9445379,-0.2374811,-0.3440926
0.9426683,-0.2377518,-0.3487786
0.9462605,-0.2341344,-0.3557768
0.9523398,-0.2330049,-0.3638193
0.9528199,-0.23272,-0.3689121
0.9491092,-0.2340228,-0.3595478
0.9446436,-0.2330148,-0.3539044
0.9438983,-0.2319844,-0.3578274
0.9424044,-0.2323866,-0.3587667
0.9387431,-0.2312686,-0.363522
0.941156,-0.2323271,-0.3696101
0.9455506,-0.231899,-0.364455
0.9472865,-0.2305319,-0.3578251
0.945397,-0.2308816,-0.3606784
0.9411359,-0.2298762,-0.3618182
0.9420141,-0.2301005,-0.3597034
0.9427307,-0.2310103,-0.3624591
0.9421065,-0.2358114,-0.36294
0.9474842,-0.242222,-0.3637297
0.9500204,-0.2405823,-0.3659171
0.9481313,-0.2386715,-0.3628042
0.9480611,-0.238043,-0.3604232
0.9460035,-0.2327561,-0.3585844
0.9436123,-0.2295665,-0.3625846
0.9441472,-0.2292937,-0.3677898
0.9447857,-0.229589,-0.3556554
0.9432425,-0.2315529,-0.3460538
0.9415912,-0.2324889,-0.3541565
0.941901,-0.2333307,-0.3604815
0.9429319,-0.2340129,-0.3595098
0.9464246,-0.2324328,-0.3587145
0.950089,-0.2315532,-0.3561106
0.9494672,-0.2304414,-0.3531791
0.9455043,-0.2298123,-0.3588245
0.942041,-0.2314705,-0.3633071
0.9453263,-0.2317941,-0.3595328
0.9491536,-0.2345292,-0.3596469
0.9464434,-0.2376481,-0.3628505
0.9448563,-0.2353732,-0.3641626
0.9446454,-0.2339609,-0.3625168
0.9438189,-0.233327,-0.3601795
0.9448482,-0.2327325,-0.3636641
0.944332,-0.2338997,-0.3675753
0.9431672,-0.2333432,-0.3679556
0.9431871,-0.2343678,-0.3656697
0.9434609,-0.2371662,-0.362556
0.9467778,-0.2374698,-0.3638352
0.9496557,-0.2358566,-0.3646154
0.9478421,-0.2341014,-0.3632488
0.9460397,-0.2354662,-0.3633954
0.9456267,-0.2369662,-0.360471
0.9440081,-0.2352137,-0.3569295
0.9429825,-0.2333401,-0.3585212
0.94352,-0.2314192,-0.3617492
0.943753,-0.2318843,-0.3654703
0.9444098,-0.2357488,-0.3687232
0.9440148,-0.2384095,-0.3666585
0.94171,-0.239178,-0.3644911
0.9402969,-0.2371646,-0.365965
0.9375848,-0.2354113,-0.3652861
0.9363754,-0.2381555,-0.3657571
0.9387346,-0.2393546,-0.3676085
0.9391182,-0.2369062,-0.3664423
0.9405906,-0.2357979,-0.3674606
0.9420014,-0.2377932,-0.3687113
0.9408692,-0.239867,-0.3677308
0.9412424,-0.2393488,-0.3683286
0.9400328,-0.2411225,-0.368964
0.9397113,-0.2443439,-0.3696395
0.941601,-0.2429741,-0.3695011
0.9424649,-0.2414877,-0.3681864
0.9445589,-0.2420917,-0.3682053
0.9415576,-0.242347,-0.3688043
0.9368631,-0.2433326,-0.3697985
0.9400323,-0.2435208,-0.3698216
0.9412102,-0.2436999,-0.3699193
0.9386006,-0.2458387,-0.3717692
0.9388293,-0.2459137,-0.3728505
0.939136,-0.2437083,-0.374684
0.9400537,-0.2422952,-0.3760104
0.9424539,-0.2410681,-0.3754256
0.9432357,-0.2395142,-0.376624
0.941344,-0.2373011,-0.3766479
0.9394171,-0.2362421,-0.3749381
0.9402554,-0.2394379,-0.3744847
0.9407385,-0.2431049,-0.3727999
0.9398775,-0.24168,-0.3724601
0.9405715,-0.2388593,-0.3747861
0.941668,-0.2395007,-0.3735464
0.9436612,-0.2421681,-0.3699993
0.9461857,-0.2472891,-0.3692319
0.9456886,-0.2504245,-0.3702424
0.9437777,-0.2474938,-0.3708507
0.9421475,-0.2455398,-0.3692503
0.9400962,-0.2443392,-0.3672863
0.9382989,-0.2435635,-0.368953
0.9373406,-0.2452857,-0.3700452
0.9369938,-0.244416,-0.3681631
0.9373149,-0.2449314,-0.369031
0.9410887,-0.2467635,-0.3744036
0.9446035,-0.2454173,-0.378771
0.9416655,-0.2457987,-0.3728734
0.9386952,-0.2459347,-0.3616516
0.9380941,-0.2438909,-0.3594799
0.9368826,-0.2408593,-0.3623801
0.9386855,-0.2382829,-0.3647567
0.9433276,-0.2425761,-0.3678384
0.9481348,-0.2481809,-0.3682849
0.94932,-0.2473963,-0.3690364
0.9476655,-0.2456275,-0.3700955
0.9488371,-0.2449492,-0.3670152
0.9480597,-0.2444096,-0.3645922
0.9462095,-0.2461976,-0.3639671
0.9477552,-0.2480183,-0.3634231
0.9472119,-0.2470425,-0.3654908
0.9465288,-0.2459681,-0.3675549
0.9424992,-0.2449674,-0.3663932
0.9263772,-0.2404714,-0.3584989
0.9121126,-0.2340556,-0.3453071
0.9175073,-0.2315868,-0.3417017
0.9317693,-0.2330769,-0.3477169
0.9403519,-0.2339181,-0.3564455
0.9524655,-0.238009,-0.3733827
0.9656369,-0.2459034,-0.3837456
0.9683026,-0.2466677,-0.3784202
0.9653436,-0.2404812,-0.3743066
0.9560963,-0.2310574,-0.3637602
0.9439324,-0.2195463,-0.3404939
0.9392837,-0.2172578,-0.3359072
0.9432677,-0.2224137,-0.3598877
0.9458595,-0.2246575,-0.3767014
0.9384381,-0.2269259,-0.3689566
0.9340197,-0.227272,-0.3630187
0.9350796,-0.2269523,-0.367785
0.9351051,-0.2348164,-0.3652952
0.9384814,-0.2427373,-0.364898
0.9429948,-0.2445672,-0.3743223
0.9473992,-0.2487572,-0.3777607
0.9399154,-0.254887,-0.3760439
0.925364,-0.2566917,-0.3716916
0.9271016,-0.2507017,-0.3625346
0.9320904,-0.2382692,-0.3484691
0.9347563,-0.232911,-0.3341064
0.9420708,-0.2370177,-0.3378895
0.9475838,-0.2368049,-0.3474388
0.9613475,-0.2357847,-0.3503432
0.9759659,-0.2413998,-0.3620782
0.9719695,-0.24803,-0.3692393
0.9658841,-0.2505217,-0.3654313
0.9638064,-0.2439627,-0.3540259
0.9521005,-0.2363271,-0.3368742
0.9418691,-0.2359614,-0.3418392
0.9344965,-0.2332744,-0.3535584
0.9292373,-0.2316157,-0.3490367
0.9425177,-0.235825,-0.3475613
0.9512684,-0.238505,-0.3412669
0.9444107,-0.2426821,-0.3356319
0.9408928,-0.245133,-0.3436723
0.9314346,-0.2459045,-0.3437959
0.927601,-0.2519112,-0.3432071
0.9427534,-0.2501738,-0.3506584
0.9618749,-0.2460529,-0.3583489
0.9726377,-0.2488989,-0.3622866
0.9633586,-0.2417896,-0.3496816
0.9531389,-0.2320336,-0.3361237
0.9532712,-0.2280121,-0.3366345
0.9469224,-0.2224285,-0.3395934
0.9453609,-0.2234266,-0.3452082
0.9489733,-0.2283506,-0.3562054
0.9464863,-0.2314792,-0.3667088
0.9475292,-0.239731,-0.3660738
0.9507844,-0.2523926,-0.3607362
0.9524319,-0.2604038,-0.356964
0.9531657,-0.258891,-0.3432224
0.9485678,-0.2524839,-0.3311496
0.9422233,-0.2408614,-0.3247255
0.9401509,-0.2290599,-0.3214524
0.947222,-0.230565,-0.3364573
0.9596883,-0.243932,-0.3517177
0.9635606,-0.258567,-0.352288
0.9604726,-0.2578206,-0.3523466
0.954172,-0.2419593,-0.3523317
0.943467,-0.2279708,-0.3511462
0.9377999,-0.2133097,-0.3522367
0.9368136,-0.2052868,-0.3540894
0.9417539,-0.2152143,-0.3532637
0.9579751,-0.2292363,-0.3494397
0.9661811,-0.2414028,-0.345161
0.9569242,-0.2506187,-0.3405245
0.9463606,-0.2522483,-0.3373538
0.9434366,-0.2549787,-0.3341572
0.9482756,-0.2642643,-0.3332849
0.9552203,-0.2707724,-0.3359467
0.9578065,-0.2700077,-0.3335647
0.9591779,-0.2626876,-0.3333606
0.9593308,-0.2501538,-0.3400448
0.9551365,-0.2439016,-0.3445387
0.9490226,-0.2416438,-0.3445691
0.938665,-0.2360587,-0.3382791
0.9295108,-0.2360056,-0.3326772
0.9336873,-0.2363533,-0.3316887
0.9402479,-0.2326221,-0.3279268
0.9412964,-0.2313452,-0.3239224
0.9454601,-0.2311349,-0.3194625
0.9508621,-0.2324009,-0.3158267
0.9565016,-0.2337767,-0.3207195
0.9594959,-0.23415,-0.3265715
0.9585389,-0.2371432,-0.3262772
0.9627932,-0.2416759,-0.3273631
0.9625684,-0.2441021,-0.3330964
0.953236,-0.247152,-0.3481699
0.9472954,-0.2532637,-0.3721677
0.9457184,-0.2526993,-0.3755027
0.9474538,-0.2471597,-0.358564
0.9460881,-0.2417444,-0.3501119
0.9427064,-0.2312334,-0.3413714
0.9451366,-0.2292596,-0.3370073
0.9450446,-0.2319486,-0.3399965
0.945504,-0.2268964,-0.335032
0.9488944,-0.2319439,-0.3403165
0.9497815,-0.2382725,-0.3454094
0.955618,-0.2378006,-0.3394385
0.9602494,-0.2409413,-0.3420935
0.9564382,-0.2377846,-0.3419355
0.9541628,-0.2371242,-0.3432851
0.9556001,-0.2391661,-0.3515512
0.9534861,-0.2354252,-0.3521631
0.947667,-0.2375688,-0.3513533
0.9443055,-0.2362123,-0.3510369
0.9430748,-0.2348501,-0.351133
0.9428088,-0.2387384,-0.3500053
0.9433175,-0.2377247,-0.3473373
0.9428428,-0.2430842,-0.3481792
0.9426171,-0.2485356,-0.3455102
0.9404352,-0.2481321,-0.3470616
0.9373443,-0.2505986,-0.3576878
0.9361273,-0.2499752,-0.3612581
0.9346995,-0.2476493,-0.3580617
0.9366553,-0.243782,-0.3622379
0.9421962,-0.2345965,-0.3753984
0.9442309,-0.2272163,-0.3846895
0.9424695,-0.2345876,-0.3810993
0.9409575,-0.2525912,-0.3752414
0.9404252,-0.2592348,-0.3839729
0.9417184,-0.2582311,-0.3952698
0.9428884,-0.2608366,-0.3960294
0.9371303,-0.262589,-0.3937372
0.9285365,-0.2610608,-0.3813609
0.9261382,-0.2558434,-0.3667285
0.9265549,-0.2542407,-0.3651801
0.9268936,-0.2604271,-0.3689437
0.9307648,-0.2670996,-0.3744005
0.9370388,-0.2660109,-0.3802224
0.9406546,-0.2602153,-0.3853836
0.9401802,-0.2542127,-0.3786174
0.9382579,-0.240497,-0.3646998
0.9374074,-0.2313298,-0.3658666
0.940148,-0.2342817,-0.3672065
0.9469041,-0.2362242,-0.3679401
0.9521028,-0.2434063,-0.3748635
0.9515003,-0.2520754,-0.3704418
0.9475883,-0.2519496,-0.3639677
0.9429262,-0.2493355,-0.36006
0.9377033,-0.2437533,-0.355318
0.9356434,-0.2356467,-0.3564715
0.9404958,-0.2307174,-0.3539359
0.9456339,-0.2307098,-0.3506203
0.9457918,-0.2278061,-0.3568407
0.94702,-0.2242957,-0.36186
0.9483505,-0.2356577,-0.3574914
0.946464,-0.2504272,-0.3497685
0.9466,-0.2553019,-0.3466699
0.9448427,-0.2584677,-0.3511711
0.9395823,-0.263149,-0.3574478
0.9384857,-0.2683971,-0.3568678
0.9373783,-0.2721151,-0.3575972
0.9356614,-0.2723006,-0.3633142
0.9389332,-0.2677735,-0.3630004
0.9413893,-0.2615237,-0.3676663
0.9402814,-0.257891,-0.3768636
0.9394633,-0.2478085,-0.3713774
0.9387734,-0.2304969,-0.3664569
0.9377528,-0.2231502,-0.370063
0.9417991,-0.2263798,-0.3648985
0.9511055,-0.2228233,-0.3555945
0.9548098,-0.2166623,-0.352627
0.952494,-0.2203582,-0.3545115
0.9513175,-0.2242199,-0.3576915
0.9487474,-0.2292947,-0.3586847
0.9443163,-0.2383686,-0.358475
0.9433762,-0.2404816,-0.357715
0.9419304,-0.2443736,-0.3554786
0.9369373,-0.2531271,-0.3541643
0.9373901,-0.2552618,-0.3563673
0.9390119,-0.255134,-0.359705
0.9372577,-0.2584996,-0.3585938
0.9404686,-0.2601817,-0.3573083
0.9415573,-0.2547922,-0.3593327
0.9411354,-0.2456267,-0.3595936
0.9452579,-0.2390265,-0.3624406
0.9445502,-0.2376635,-0.3668882
0.9429332,-0.2399793,-0.3678285
0.9442608,-0.2417351,-0.3689509
0.9470177,-0.242881,-0.3640104
0.9517308,-0.2408952,-0.3535725
0.9497837,-0.2351686,-0.3468186
0.9445847,-0.2305161,-0.3413336
0.9415901,-0.2247466,-0.3401145
0.9392437,-0.2223449,-0.3428736
0.9426995,-0.226206,-0.3415398
0.9477632,-0.2282726,-0.3413744
0.9509831,-0.232829,-0.3442351
0.9543619,-0.2389769,-0.3442054
0.9541508,-0.2399876,-0.3428033
0.9553474,-0.2395728,-0.3427234
0.958719,-0.2336473,-0.3492199
0.958489,-0.2263201,-0.3567078
0.9590088,-0.2272006,-0.3511013
0.9567009,-0.2287214,-0.3453634
0.9488441,-0.2296472,-0.3483524
0.9413677,-0.2355696,-0.3461647
0.9311287,-0.2410903,-0.3442856
0.9264451,-0.2390519,-0.3476141
0.9344923,-0.2359405,-0.3459752
0.9392501,-0.2397634,-0.344709
0.9392582,-0.2464031,-0.3474851
0.9420697,-0.2517113,-0.35149
0.9439819,-0.249133,-0.3637264
0.9468003,-0.242829,-0.3740024
0.9517008,-0.242024,-0.3701006
0.9554264,-0.2384792,-0.3699369
0.9540843,-0.239836,-0.3746968
0.948436,-0.2491475,-0.3659759
0.9458614,-0.2509844,-0.3547956
0.9442036,-0.2505767,-0.3508566
0.9402983,-0.2466381,-0.3455237
0.9350353,-0.2403521,-0.344029
0.9297259,-0.2432647,-0.3457161
0.9316157,-0.2439099,-0.3447438
0.940239,-0.2411197,-0.351177
0.949484,-0.241919,-0.3595816
0.9537291,-0.2409982,-0.3589608
0.9550127,-0.2389598,-0.3577064
0.960758,-0.2363165,-0.3583455
0.9580141,-0.2342667,-0.3564319
0.9470914,-0.2337013,-0.3512556
0.9444813,-0.2345521,-0.3468078
0.9434581,-0.237887,-0.3492019
0.9464242,-0.2372025,-0.3546599
0.9528789,-0.2346318,-0.3589338
0.9496724,-0.2344179,-0.3603516
0.9479295,-0.2311253,-0.3546013
0.9468966,-0.2292236,-0.3462769
0.9412549,-0.2302581,-0.3444159
0.9445614,-0.2288718,-0.3522047
0.948734,-0.2296936,-0.3596392
0.9467949,-0.2341229,-0.3538336
0.9482374,-0.2363051,-0.3478377
0.9501577,-0.2321859,-0.3510822
0.9496329,-0.2274557,-0.3497977
0.9477904,-0.231642,-0.3475631
0.9438885,-0.235511,-0.3499487
0.942745,-0.2329017,-0.3511196
0.9468139,-0.2347436,-0.3528196
0.9500013,-0.2374536,-0.3528578
0.9485513,-0.2364073,-0.3548462
0.9473419,-0.2394876,-0.3600484
0.9492381,-0.243117,-0.3608587
0.9504426,-0.2420132,-0.3595875
0.9498956,-0.2418232,-0.3546175
0.9484385,-0.2437617,-0.3515866
0.9456262,-0.2432566,-0.3544736
0.9436624,-0.2428056,-0.3557546
0.9442239,-0.245313,-0.3595891
0.9453061,-0.2461194,-0.3604239
0.9460118,-0.2447124,-0.3591858
0.9474204,-0.2423673,-0.3630093
0.9468948,-0.2381032,-0.3626296
0.9448704,-0.2360986,-0.3635119
0.9450868,-0.2409309,-0.364308
0.9418278,-0.2469318,-0.3609425
0.9379903,-0.2441214,-0.3627565
0.944104,-0.2391974,-0.3620933
0.9498606,-0.2390955,-0.3599789
0.9472831,-0.238233,-0.3613884
0.9471977,-0.239237,-0.3591762
0.9506789,-0.2403424,-0.3576284
0.9493476,-0.2400178,-0.3585911
0.9449699,-0.2428338,-0.3604158
0.9421941,-0.2434645,-0.3653686
0.942299,-0.2438379,-0.3689037
0.9441764,-0.2450268,-0.3649486
0.9439253,-0.2440438,-0.3592751
0.9450568,-0.2445063,-0.3609877
0.947022,-0.2435154,-0.3627098
0.9451908,-0.2429401,-0.3627656
0.9459288,-0.2454644,-0.3665536
0.9474748,-0.2481541,-0.3659461
0.9475327,-0.2506031,-0.3649972
0.9485616,-0.2508899,-0.367125
0.9462163,-0.2507681,-0.3624186
0.9440871,-0.2475066,-0.3561134
0.9428366,-0.2401002,-0.3524086
0.9412517,-0.2364183,-0.3482462
0.9429198,-0.2356758,-0.3461588
0.9453558,-0.2359751,-0.3466662
0.9498224,-0.2370392,-0.3510588
0.9515788,-0.2384927,-0.3560228
0.9486326,-0.2409865,-0.3539887
0.9491794,-0.2392881,-0.3487825
0.9479406,-0.2351207,-0.3455411
0.9467863,-0.2344446,-0.3433764
0.9515104,-0.2355478,-0.3442791
0.9535659,-0.2361941,-0.3442221
0.9511218,-0.2339152,-0.3383706
0.9462756,-0.2295329,-0.3347978
0.9429924,-0.2275423,-0.3378217
0.9444765,-0.2279221,-0.3437763
0.9458361,-0.2303993,-0.3476136
0.9487598,-0.2349376,-0.3467767
0.9536566,-0.2383014,-0.3475504
0.953725,-0.2391777,-0.3513548
0.9513973,-0.2405875,-0.3535942
0.9508958,-0.2433967,-0.3526328
0.9473977,-0.2437012,-0.3492559
0.9422219,-0.2433947,-0.3468196
0.9412119,-0.2453838,-0.3450428
0.9418067,-0.2466969,-0.344519
0.9436412,-0.248767,-0.3478945
0.9453866,-0.2491861,-0.3534137
0.9450597,-0.2450476,-0.3575389
0.9461098,-0.243125,-0.3581601
0.9460534,-0.2422142,-0.3577455
0.9454409,-0.2401164,-0.3556072
0.9467008,-0.24167,-0.3508921
0.9478025,-0.2448001,-0.3488648
0.9483278,-0.2463258,-0.3496327
0.9463453,-0.2451054,-0.3536489
0.9463649,-0.242462,-0.3585362
0.9479152,-0.2420997,-0.3557259
0.9440136,-0.2416447,-0.3522222
0.9415598,-0.2416027,-0.3556911
0.9413296,-0.2439149,-0.3591267
0.9379373,-0.2447891,-0.3616133
0.9371911,-0.2448965,-0.3620743
0.9408138,-0.2464836,-0.3583579
0.9444046,-0.2494424,-0.3560802
0.9451247,-0.2508404,-0.3536423
0.9444334,-0.2469025,-0.3538856
0.9462219,-0.2392311,-0.3600067
0.947959,-0.2328678,-0.3610735
0.9472437,-0.2361309,-0.3566833
0.9472671,-0.2415344,-0.353491
0.9492063,-0.2360284,-0.3568144
0.9500387,-0.2326649,-0.3611851
0.9466604,-0.2341878,-0.3528542
0.941171,-0.2326564,-0.3460472
0.9393888,-0.2356216,-0.3490871
0.9424482,-0.2407055,-0.3493479
0.9447396,-0.2440399,-0.3503929
0.943593,-0.2438734,-0.3545547
0.9426352,-0.2397338,-0.3584859
0.943064,-0.2403153,-0.3603316
0.9433842,-0.2413332,-0.3572516
0.9436815,-0.2431332,-0.3524973
0.9439715,-0.2475341,-0.3502182
0.9438805,-0.2448964,-0.3514743
0.9446744,-0.2432906,-0.3527732
0.9466709,-0.2455997,-0.3553659
0.947006,-0.2459337,-0.3599243
0.9446244,-0.2477363,-0.359256
0.9421502,-0.2472503,-0.3589071
0.9426542,-0.2446436,-0.3623627
0.9436724,-0.2430302,-0.3613913
0.9417432,-0.2407272,-0.3601752
0.9414172,-0.2398953,-0.3618341
0.942954,-0.2406042,-0.3609709
0.9426905,-0.2425431,-0.3607622
0.9411383,-0.245748,-0.3616298
0.9378022,-0.2486051,-0.360196
0.936812,-0.250894,-0.3585142
0.9388969,-0.2509679,-0.3563215
0.9390554,-0.2469753,-0.3559322
0.9394135,-0.2430084,-0.3560863
0.9415544,-0.2449359,-0.3531637
0.9441477,-0.2473963,-0.3545007
0.9453407,-0.2461346,-0.358693
0.9452125,-0.2467095,-0.3600633
0.9446677,-0.2452819,-0.3603609
0.9420681,-0.2414879,-0.3591541
0.9416688,-0.2430338,-0.3596571
0.9423757,-0.2438735,-0.3603012
0.9415898,-0.2422889,-0.3590675
0.9455181,-0.2435463,-0.3604295
0.9486362,-0.244261,-0.3615945
0.9464813,-0.2452499,-0.3626374
0.9442689,-0.2465605,-0.3628465
0.9424189,-0.2455487,-0.3601336
0.9427538,-0.2457147,-0.3603489
0.9436027,-0.2461283,-0.3614325
0.9427356,-0.2455665,-0.36144
0.9430678,-0.2459646,-0.3640667
0.9425033,-0.2458492,-0.3695681
0.9393072,-0.2457213,-0.3737376
0.9365085,-0.2463266,-0.3692124
0.9374141,-0.2475192,-0.3633219
0.9400876,-0.2488349,-0.3642906
0.9404486,-0.2470667,-0.3666137
0.9403115,-0.2453396,-0.3672127
0.9408558,-0.2485772,-0.360517
0.9427685,-0.2503753,-0.3529282
0.9452967,-0.2450727,-0.359048
0.9437801,-0.239424,-0.3659128
0.9420793,-0.2396269,-0.3627897
0.9438069,-0.2417082,-0.3598186
0.9449751,-0.2437744,-0.3579874
0.9456792,-0.2476501,-0.3571858
0.9441893,-0.2482553,-0.3577031
0.9401965,-0.2467733,-0.3528961
0.9396719,-0.2501744,-0.3505443
0.9414099,-0.2527566,-0.3566109
0.9438797,-0.2519943,-0.3607602
0.9478024,-0.2525237,-0.3601585
0.947474,-0.2507641,-0.3583753
0.9437137,-0.2462974,-0.3562773
0.9425278,-0.243851,-0.3534663
0.9429469,-0.243395,-0.3537163
0.9438044,-0.2430287,-0.358039
0.9457474,-0.2428108,-0.3587525
0.9471143,-0.2432623,-0.3581616
0.9441956,-0.2430476,-0.3580851
0.9404016,-0.2434274,-0.3552036
0.9441353,-0.2459475,-0.3537252
0.9479825,-0.2466499,-0.3544886
0.9459223,-0.2411262,-0.3580828
0.9458517,-0.2343493,-0.3602777
0.9445866,-0.236675,-0.3556435
0.9418492,-0.242061,-0.3506723
0.9443922,-0.2418438,-0.3488074
0.9462742,-0.2420396,-0.3486458
0.9462954,-0.2414051,-0.3495046
0.9465337,-0.2405808,-0.3538985
0.9433716,-0.2446852,-0.3587663
0.9403542,-0.2457465,-0.3561
0.9400268,-0.2444208,-0.3533381
0.9407353,-0.2463287,-0.3547116
0.9435058,-0.2462199,-0.3550296
0.9469655,-0.2443372,-0.3558459
0.948015,-0.2417053,-0.3563823
0.9469683,-0.2375659,-0.3556587
0.947156,-0.2380805,-0.3559769
0.948494,-0.240036,-0.3561364
0.9486608,-0.2373451,-0.3540407
0.9486946,-0.2371506,-0.3531435
0.9487797,-0.2390415,-0.354922
0.9493733,-0.2386664,-0.3542182
0.9502847,-0.2395412,-0.3535632
0.9490851,-0.2406056,-0.354086
0.9481279,-0.2419595,-0.3503082
0.9483712,-0.242849,-0.3473784
0.9011064,-0.2316632,-0.4541812
0.9020845,-0.2339382,-0.4544394
0.9027239,-0.2340228,-0.4516823
0.9025308,-0.2322229,-0.4514375
0.9025607,-0.2340999,-0.4536035
0.9009847,-0.233202,-0.4563766
0.8984157,-0.2329496,-0.4583126
0.8992329,-0.2339159,-0.4582798
0.9006155,-0.2330369,-0.4597871
0.900403,-0.2344199,-0.4585645
0.9025852,-0.2350954,-0.4550274
0.9050822,-0.2343651,-0.4545014
0.9044528,-0.2334022,-0.4524407
0.9035483,-0.2304439,-0.4522121
0.9044501,-0.2288753,-0.4555554
0.9039893,-0.2287278,-0.4557387
0.9023232,-0.2268926,-0.4556637
0.9029754,-0.2254888,-0.4566081
0.904583,-0.2266444,-0.4567623
0.9055251,-0.2265943,-0.4564139
0.9053302,-0.2242039,-0.4546239
0.9046147,-0.221511,-0.4545493
0.9043127,-0.2179214,-0.4570081
0.904664,-0.2171004,-0.4595146
0.9063511,-0.2172781,-0.4592176
0.906383,-0.2151643,-0.4575986
0.9057835,-0.2144151,-0.4615675
0.9057498,-0.2121878,-0.4648347
0.9035548,-0.2124987,-0.4632918
0.901974,-0.2167258,-0.4623116
0.9023718,-0.2170223,-0.4581219
0.9061252,-0.2198145,-0.4554477
0.9088195,-0.2242164,-0.4580633
0.9057959,-0.2252857,-0.4572533
0.9056393,-0.2268576,-0.4551879
0.9053052,-0.2271309,-0.4556466
0.9023305,-0.2289104,-0.4556527
0.9017065,-0.2300632,-0.4553582
0.8972246,-0.228003,-0.4562289
0.8939522,-0.2275874,-0.45826
0.895498,-0.2250509,-0.4603718
0.8966115,-0.2240623,-0.4602482
0.8997535,-0.2253308,-0.4593316
0.9001203,-0.2217228,-0.4621514
0.8991189,-0.2190791,-0.4651062
0.9007101,-0.2195465,-0.4644165
0.8988065,-0.2213265,-0.4601817
0.898541,-0.2229986,-0.454762
0.9018262,-0.2220661,-0.4551636
0.9030637,-0.222241,-0.4549696
0.902162,-0.2233165,-0.4518179
0.899677,-0.2235602,-0.456812
0.8996974,-0.222564,-0.4620791
0.9013932,-0.2198855,-0.4614747
0.9040118,-0.2191159,-0.4627958
0.9081899,-0.2205503,-0.4642936
0.905734,-0.2221476,-0.4631682
0.901425,-0.2225471,-0.4624479
0.900343,-0.2225559,-0.4651327
0.8962096,-0.2249648,-0.468081
0.8959994,-0.2270539,-0.4689211
0.8987811,-0.2257449,-0.4749727
0.8965544,-0.2241917,-0.4817392
0.8972241,-0.225119,-0.4778574
0.9000458,-0.225385,-0.4699651
0.9006913,-0.224359,-0.4625514
0.9025062,-0.2243414,-0.4531627
0.9032678,-0.2232313,-0.4497115
0.9052783,-0.2212652,-0.4506761
0.9076123,-0.2167458,-0.4504644
0.906453,-0.2100683,-0.4564701
0.9069224,-0.2100991,-0.4621038
0.905257,-0.2121262,-0.4603881
0.8993789,-0.2093066,-0.4624756
0.8961762,-0.2073647,-0.4669107
0.8977806,-0.2058632,-0.4658743
0.9017392,-0.2053615,-0.4652642
0.9017127,-0.2088452,-0.4682449
0.9008611,-0.2121442,-0.4679287
0.9019723,-0.216078,-0.4659749
0.9009593,-0.2231003,-0.4662413
0.9016644,-0.2280272,-0.4640217
0.9025422,-0.2276246,-0.463709
0.902397,-0.2265847,-0.4634903
0.9024571,-0.2256181,-0.455822
0.9011803,-0.221189,-0.4507854
0.9042203,-0.2185858,-0.4524136
0.9077788,-0.2188649,-0.4536953
0.9065963,-0.2198893,-0.4525283
0.9050145,-0.2236991,-0.4528146
0.9032979,-0.2236796,-0.4561724
0.90256,-0.2229002,-0.4573639
0.9030503,-0.2265191,-0.4567839
0.9043699,-0.2265215,-0.4548685
0.9057787,-0.2262088,-0.4524453
0.9061694,-0.2271526,-0.4527888
0.9111959,-0.2276245,-0.4527211
0.9194372,-0.2301438,-0.4527902
0.9222559,-0.2289248,-0.4529312
0.9180846,-0.226167,-0.4517609
0.9113124,-0.2238406,-0.4495233
0.904503,-0.2213526,-0.4464845
0.8963677,-0.2253716,-0.4508651
0.8927482,-0.2296484,-0.4604169
0.8970383,-0.2298486,-0.4642763
0.9021246,-0.2325407,-0.46337
0.9072424,-0.2376114,-0.4643441
0.911042,-0.2393192,-0.468681
0.908312,-0.2331826,-0.4671722
0.9044489,-0.2257605,-0.4598031
0.9024939,-0.2205551,-0.4527071
0.8974318,-0.2132672,-0.4421914
0.8964149,-0.2111239,-0.4370853
0.904582,-0.2119974,-0.4455792
0.9114307,-0.2070298,-0.4573943
0.9155955,-0.2070191,-0.4650765
0.9186395,-0.2090153,-0.4676499
0.91985,-0.2010533,-0.4625823
0.9213612,-0.1964559,-0.4460266
0.9140573,-0.1994395,-0.423919
0.9049906,-0.2021928,-0.4154105
0.910584,-0.2063169,-0.4275297
0.9150868,-0.2093241,-0.4389382
0.90937,-0.2111956,-0.4402563
0.9077571,-0.2131335,-0.447944
0.9102548,-0.2143527,-0.4542884
0.9147525,-0.2201981,-0.45179
0.9236975,-0.2272892,-0.4539681
0.9257056,-0.2253207,-0.4573347
0.9212156,-0.2206851,-0.4635861
0.9182067,-0.2215994,-0.473498
0.9079617,-0.2170957,-0.474209
0.8948079,-0.2088389,-0.4624562
0.8874886,-0.2064273,-0.4399655
0.8814621,-0.2067802,-0.4285244
0.8814202,-0.2140832,-0.4366291
0.8920132,-0.2227248,-0.4389177
0.9082496,-0.2285556,-0.4334492
0.9210173,-0.2374121,-0.4277368
0.9240375,-0.2401945,-0.4233767
0.9179114,-0.235516,-0.4277935
0.9089569,-0.222048,-0.4365459
0.9127862,-0.2016322,-0.4504313
0.9293789,-0.1920926,-0.4734659
0.9451532,-0.1930164,-0.4892699
0.9494792,-0.1893554,-0.4848796
0.9323103,-0.1699582,-0.4741444
0.9130031,-0.1440854,-0.4642402
0.9060686,-0.1370324,-0.4406434
0.900155,-0.1516046,-0.4254955
0.899477,-0.1689659,-0.436145
0.9029001,-0.180073,-0.441082
0.9092825,-0.1897063,-0.4512966
0.9145306,-0.2040195,-0.4680443
0.9016011,-0.2267479,-0.4506329
0.8885261,-0.2480485,-0.4262896
0.8923729,-0.2643947,-0.4223761
0.8965043,-0.273625,-0.4197484
0.8992195,-0.2598622,-0.4139138
0.9123605,-0.2424677,-0.4034017
0.9257157,-0.2331644,-0.3953771
0.9258504,-0.2229159,-0.3990004
0.9252602,-0.2237042,-0.4184361
0.9316867,-0.2179558,-0.4445949
0.9353028,-0.2017773,-0.4413574
0.9373578,-0.1930775,-0.4230109
0.9453809,-0.1806639,-0.4242924
0.9513473,-0.1747248,-0.4290357
0.9507086,-0.1760229,-0.4366769
0.9512145,-0.1677137,-0.4436547
0.9431219,-0.1663074,-0.438499
0.9266342,-0.1782479,-0.4401282
0.9158015,-0.1935354,-0.4391836
0.9013935,-0.2091788,-0.4249717
0.8902286,-0.2200602,-0.4023684
0.8947847,-0.2217029,-0.3799387
0.8975737,-0.2118703,-0.3874127
0.9000199,-0.1998354,-0.40499
0.9093623,-0.1957647,-0.4100036
0.9100391,-0.197096,-0.4220436
0.9155212,-0.2056021,-0.4374013
0.9385801,-0.2163199,-0.4534127
0.9486823,-0.2162888,-0.4511922
0.9417733,-0.2092904,-0.4333168
0.9407841,-0.2021597,-0.4357837
0.941661,-0.1931778,-0.4261316
0.9357487,-0.186395,-0.4095407
0.9295632,-0.1854395,-0.4159768
0.9271536,-0.182482,-0.4111868
0.9242595,-0.1772052,-0.4100437
0.922168,-0.1778717,-0.4121402
0.9199933,-0.1820675,-0.4007201
0.9148628,-0.186931,-0.4047532
0.9164391,-0.1942965,-0.4049027
0.9219155,-0.1996316,-0.3990955
0.9262425,-0.1936196,-0.3999709
0.9361484,-0.182297,-0.3938912
0.942156,-0.1834305,-0.3949597
0.9413887,-0.1933053,-0.3978669
0.9423227,-0.2036607,-0.4001811
0.9423505,-0.2134203,-0.4061935
0.9427218,-0.2170607,-0.412251
0.9420811,-0.2201131,-0.4252125
0.939576,-0.2218265,-0.4241436
0.940251,-0.2225157,-0.4196804
0.9372404,-0.2302237,-0.4295745
0.9265608,-0.2300931,-0.429014
0.9101366,-0.2235512,-0.4273767
0.8951539,-0.2235473,-0.4296399
0.8944802,-0.2218495,-0.4262421
0.8975085,-0.2199214,-0.4259382
0.8952436,-0.2166764,-0.4210305
0.8996028,-0.2093031,-0.4108034
0.9113403,-0.201347,-0.4035947
0.9265927,-0.1922684,-0.4027377
0.9386919,-0.192352,-0.4100197
0.9418733,-0.1982512,-0.4218161
0.9438147,-0.2001554,-0.4403557
0.9425496,-0.202614,-0.4477224
0.9364299,-0.2029261,-0.4358733
0.9329442,-0.2023178,-0.432084
0.9316434,-0.2011462,-0.4325889
0.930406,-0.1980459,-0.4272624
0.9269628,-0.1992688,-0.4256115
0.9255959,-0.2023789,-0.4252828
0.9245931,-0.2048351,-0.4259113
0.9168011,-0.2039867,-0.4257336
0.9143696,-0.2006825,-0.4230256
0.9111959,-0.199688,-0.4167203
0.8993031,-0.1968438,-0.4043968
0.8997873,-0.1985777,-0.4011929
0.9111557,-0.2068191,-0.4139235
0.9239335,-0.2133231,-0.4332198
0.9368755,-0.2235478,-0.4507623
0.941041,-0.2352167,-0.4584536
0.9402125,-0.2409534,-0.4601903
0.9371062,-0.2400047,-0.4597233
0.9291175,-0.2357443,-0.4514239
0.9187021,-0.2349475,-0.4324554
0.9091734,-0.2295949,-0.4058817
0.9074784,-0.2232907,-0.3947658
0.9117802,-0.2262168,-0.4116172
0.9171071,-0.2227811,-0.4248237
0.9224343,-0.2173653,-0.422124
0.9256548,-0.2224874,-0.4226619
0.9275779,-0.2246303,-0.4206524
0.9263101,-0.2205432,-0.4132737
0.9201855,-0.2179002,-0.4139102
0.9120328,-0.217027,-0.4194378
0.9103394,-0.2116959,-0.4251361
0.9149902,-0.200811,-0.4321667
0.9163018,-0.1918264,-0.4381674
0.9218165,-0.1884133,-0.4396195
0.9292287,-0.1937727,-0.4363603
0.9274793,-0.2072888,-0.4317272
0.921655,-0.2247237,-0.4237599
0.9142838,-0.2397473,-0.4168824
0.9159702,-0.2478531,-0.4188107
0.921206,-0.2547035,-0.4229835
0.9164385,-0.2540259,-0.4267386
0.9176839,-0.2430017,-0.4315113
0.9199764,-0.2342097,-0.4377396
0.9181958,-0.2271756,-0.4447365
0.9219545,-0.2224166,-0.4404343
0.9191101,-0.2198452,-0.42267
0.9150881,-0.2126688,-0.4000799
0.9156047,-0.2042189,-0.3890839
0.9129436,-0.1992827,-0.3996867
0.9137485,-0.1903059,-0.4091748
0.9145339,-0.1705637,-0.4143711
0.914333,-0.1640381,-0.4209934
0.9201491,-0.1745931,-0.4228022
0.9277034,-0.1761632,-0.4330099
0.9339947,-0.1809862,-0.4338156
0.9371041,-0.1869015,-0.4239183
0.9355917,-0.1825366,-0.4296854
0.9318969,-0.1909396,-0.4295792
0.9278539,-0.2070166,-0.4311439
0.9212112,-0.2180398,-0.4403202
0.9131133,-0.2250288,-0.4353077
0.9072377,-0.2283759,-0.436403
0.8996668,-0.2365664,-0.4365854
0.8946223,-0.2437809,-0.4304898
0.894558,-0.2471222,-0.4364715
0.8937303,-0.2477579,-0.4428447
0.8970501,-0.2450165,-0.4582852
0.9055741,-0.2477198,-0.4766763
0.9145177,-0.2494821,-0.478774
0.9146937,-0.2496654,-0.4809934
0.908763,-0.2481749,-0.4778825
0.912678,-0.2330009,-0.4630386
0.9170967,-0.2182901,-0.4535002
0.9203161,-0.2176117,-0.4535091
0.9248995,-0.2208912,-0.448752
0.9200812,-0.2154352,-0.429581
0.9199267,-0.2037006,-0.422916
0.921499,-0.1952059,-0.4330033
0.9149498,-0.1883018,-0.4339294
0.913272,-0.1817626,-0.4358772
0.9137976,-0.1756086,-0.4375929
0.9161632,-0.1794615,-0.4319408
0.9185681,-0.1904471,-0.4332
0.9177156,-0.1915093,-0.4349274
0.9195663,-0.1940142,-0.4374148
0.918832,-0.1983016,-0.4436209
0.9159873,-0.2002952,-0.4424195
0.9111272,-0.20484,-0.4405477
0.9067406,-0.2070565,-0.4427522
0.9088757,-0.2150014,-0.4419849
0.9084842,-0.2189464,-0.4391183
0.9078199,-0.2198682,-0.4368268
0.9091196,-0.2295994,-0.4340368
0.9087296,-0.2323279,-0.4350654
0.9104299,-0.2347586,-0.4394518
0.9107453,-0.2364518,-0.438432
0.910926,-0.236991,-0.4358577
0.911858,-0.2445627,-0.434838
0.9116849,-0.2390678,-0.4355861
0.9142036,-0.2305979,-0.4390305
0.9161874,-0.2266766,-0.4374379
0.9168118,-0.2199757,-0.4365809
0.9167169,-0.2227062,-0.4385831
0.9140669,-0.2221561,-0.4368352
0.9117192,-0.218943,-0.4375544
0.9103321,-0.2227294,-0.4398887
0.9101062,-0.2226971,-0.4467114
0.9099351,-0.2238487,-0.4545076
0.909211,-0.2233637,-0.4447894
0.9100264,-0.2207504,-0.4337901
0.9099861,-0.2232863,-0.439247
0.9109792,-0.2230122,-0.4415995
0.9163975,-0.2233855,-0.4395387
0.9230285,-0.2244689,-0.4437671
0.9269948,-0.2227519,-0.4405163
0.9260196,-0.2234971,-0.4345474
0.92667,-0.2210441,-0.4386905
0.932715,-0.21904,-0.4399978
0.9341938,-0.2241554,-0.4421266
0.9255948,-0.2279699,-0.4539221
0.9119669,-0.2262045,-0.4600933
0.9003522,-0.2201969,-0.4450084
0.8910757,-0.2083737,-0.4179447
0.888314,-0.1935111,-0.4099883
0.8942799,-0.1917643,-0.4148508
0.9007359,-0.2003066,-0.4117874
0.917384,-0.2020336,-0.4196278
0.9365484,-0.205588,-0.4361541
0.9379606,-0.2084734,-0.4412806
0.9372776,-0.2022229,-0.4394636
0.9347778,-0.1976189,-0.4344367
0.9285499,-0.1948593,-0.4262712
0.9266107,-0.1965915,-0.4201558
0.9208271,-0.2017331,-0.4211231
0.9211841,-0.2022352,-0.4259795
0.9228535,-0.2032862,-0.4278213
0.9181907,-0.2029301,-0.4239823
0.9205039,-0.2021018,-0.4176421
0.923209,-0.2038872,-0.416087
0.9253471,-0.2051931,-0.4162124
0.924565,-0.2119772,-0.4247072
0.9178959,-0.2188074,-0.4451007
0.9157065,-0.2173253,-0.4484606
0.9137576,-0.2109647,-0.4345117
0.9135357,-0.2029386,-0.4247286
0.9158991,-0.199238,-0.415006
0.9170309,-0.1996542,-0.4101662
0.9210054,-0.2045559,-0.4202534
0.9235997,-0.2153426,-0.4362488
0.9282652,-0.2183558,-0.4426967
0.933036,-0.2109189,-0.4372261
0.9245796,-0.2049514,-0.4259172
0.9119272,-0.2003271,-0.4085146
0.9103951,-0.197292,-0.3995501
0.9195777,-0.2057097,-0.4117195
0.9286374,-0.2197035,-0.4280058
0.9304953,-0.2218162,-0.43277
0.931217,-0.2175705,-0.430129
0.9328623,-0.2173548,-0.4288375
0.9266116,-0.2136038,-0.4246751
0.9181182,-0.209011,-0.4177055
0.9213276,-0.2097217,-0.4203107
0.9279108,-0.2099936,-0.4297592
0.9290488,-0.2104805,-0.4345547
0.9267892,-0.210507,-0.4293371
0.9208133,-0.2043996,-0.4214025
0.9197161,-0.19483,-0.4207898
0.9235296,-0.1911058,-0.418893
0.9257462,-0.1974455,-0.4152025
0.9298125,-0.2055295,-0.4198321
0.9293634,-0.2097607,-0.4235691
0.9231932,-0.2099771,-0.4226516
0.9169245,-0.2051309,-0.4222045
0.9124291,-0.1963635,-0.41328
0.9190883,-0.1838898,-0.3985147
0.9298581,-0.1810382,-0.3949776
0.9352329,-0.1948009,-0.405993
0.9437703,-0.2082733,-0.4240772
0.9486325,-0.2172078,-0.4386343
0.9400212,-0.2184898,-0.4384481
0.9289083,-0.2108505,-0.4295359
0.9254985,-0.2057765,-0.4195067
0.9231058,-0.1973485,-0.3955982
0.918176,-0.1909715,-0.3787877
0.9216463,-0.1961043,-0.4019611
0.929074,-0.2045538,-0.4399989
0.9325464,-0.2191422,-0.4635004
0.937209,-0.2329421,-0.4608045
0.934407,-0.2463871,-0.4469146
0.9246299,-0.2641635,-0.4515737
0.9191838,-0.2631253,-0.449477
0.9057656,-0.2407688,-0.4329721
0.8849916,-0.2033376,-0.416073
0.8805802,-0.1621871,-0.3900194
0.8917595,-0.1473484,-0.3804335
0.9054703,-0.1497719,-0.3862238
0.9232423,-0.1516513,-0.3966213
0.9349311,-0.1580576,-0.4189614
0.9350975,-0.1660955,-0.4196069
0.941266,-0.171191,-0.4061318
0.9450816,-0.1739769,-0.3939149
0.9411901,-0.1819065,-0.3707359
0.9449079,-0.1918349,-0.3697188
0.9491975,-0.1975657,-0.3949287
0.9573557,-0.2056879,-0.4158708
0.9638,-0.2116723,-0.4207423
0.9527884,-0.216025,-0.4111014
0.944747,-0.2164809,-0.404167
0.9387216,-0.2001777,-0.3951906
0.923931,-0.1797056,-0.3852248
0.9183012,-0.1720332,-0.3958514
0.9223555,-0.1782665,-0.4106579
0.9240068,-0.18777,-0.4141211
0.9227597,-0.1917654,-0.4138212
0.9148435,-0.1910618,-0.4059911
0.8989471,-0.1817236,-0.3937566
0.8959639,-0.1753039,-0.3898232
0.907136,-0.1827377,-0.401895
0.9127706,-0.2025425,-0.4204424
0.9231994,-0.2380517,-0.4304555
0.9466598,-0.2691837,-0.4419911
0.9689523,-0.2855853,-0.4536083
0.9686995,-0.2910466,-0.4538598
0.9476695,-0.2759629,-0.4424663
0.9302708,-0.2545202,-0.4165264
0.9067504,-0.2298645,-0.4027601
0.8851628,-0.2080745,-0.4067659
0.8917105,-0.2132894,-0.4105347
0.9002676,-0.2154108,-0.4262786
0.9068952,-0.2037291,-0.4363498
0.9264227,-0.2012422,-0.444189
0.929011,-0.192895,-0.4531613
0.9142494,-0.1808804,-0.4251678
0.9105274,-0.1736369,-0.4058107
0.9083755,-0.1722303,-0.4181517
0.9088362,-0.1828494,-0.4224268
0.9185925,-0.1868271,-0.4323408
0.9186379,-0.1889,-0.4430837
0.9164415,-0.1934999,-0.437457
0.9146701,-0.1895604,-0.4260973
0.9084933,-0.1923704,-0.4171613
0.913067,-0.191775,-0.4055667
0.9222489,-0.1881499,-0.3798848
0.9358886,-0.1953469,-0.3637243
0.947644,-0.1992106,-0.3727401
0.9448139,-0.2054629,-0.3881247
0.949174,-0.2069058,-0.4129626
0.9616461,-0.2019913,-0.4511144
0.9721513,-0.2046717,-0.4692089
0.977842,-0.2011541,-0.4589025
0.961923,-0.2000355,-0.4511709
0.9318011,-0.2019341,-0.4418625
0.9059717,-0.197484,-0.4280874
0.8882017,-0.2003063,-0.4214277
0.8803762,-0.2067252,-0.4184225
0.8804216,-0.2148382,-0.4276554
0.8856639,-0.216609,-0.4375646
0.891236,-0.2054754,-0.4396304
0.8940552,-0.1976949,-0.4361341
0.9047181,-0.1921036,-0.4243899
0.9234636,-0.1901371,-0.427272
0.9332838,-0.2000183,-0.4329749
0.9366388,-0.2155273,-0.4319133
0.9436031,-0.2246991,-0.4412541
0.9456984,-0.2203755,-0.4413782
0.9428474,-0.2160453,-0.435142
0.9350856,-0.2107536,-0.4284351
0.9156108,-0.1946738,-0.4119734
0.9035936,-0.1868593,-0.4035205
0.904096,-0.192697,-0.4012613
0.901034,-0.2027738,-0.4015847
0.9045868,-0.216765,-0.4147776
0.9153101,-0.2212597,-0.4275435
0.9287633,-0.2075527,-0.4244491
0.9506883,-0.1963373,-0.4169828
0.958409,-0.1997972,-0.4147156
0.9471254,-0.1994622,-0.4065089
0.9358532,-0.1880547,-0.4057957
0.9237967,-0.1803494,-0.4147949
0.9236936,-0.1851281,-0.4152679
0.9348457,-0.2005965,-0.4297257
0.9332057,-0.2172643,-0.4467461
0.929526,-0.2231119,-0.4357169
0.9266503,-0.2169341,-0.4243218
0.9172419,-0.2147678,-0.4249646
0.9143521,-0.2207259,-0.425761
0.9085233,-0.2230206,-0.4267877
0.9037105,-0.2279606,-0.4277907
0.9151114,-0.2340803,-0.4323319
0.9254907,-0.2319297,-0.4376064
0.9274909,-0.2267477,-0.43359
0.9224153,-0.2190487,-0.4244564
0.9167697,-0.2174538,-0.4186575
0.9188705,-0.2208924,-0.4138456
0.9213174,-0.2166142,-0.4153218
0.9260154,-0.2130969,-0.4217329
0.9306092,-0.209168,-0.4207193
0.9300673,-0.2026183,-0.4205033
0.9279094,-0.200745,-0.4214589
0.9234143,-0.1975435,-0.4187952
0.922391,-0.1937773,-0.4189459
0.9225988,-0.191341,-0.41742
0.9198907,-0.1875395,-0.4167752
0.921039,-0.1871437,-0.4178076
0.9237129,-0.1903815,-0.4187605
0.9264103,-0.1949426,-0.424415
0.9287592,-0.1996395,-0.42628
0.9268773,-0.200972,-0.4259748
0.925014,-0.2007453,-0.4265233
0.9240857,-0.2051413,-0.4221457
0.9214975,-0.2105088,-0.420604
0.9219582,-0.2096495,-0.4243171
0.9248903,-0.2094558,-0.4277483
0.9251497,-0.2145364,-0.4274409
0.924655,-0.218351,-0.4278254
0.9229542,-0.2207164,-0.4322006
0.9189204,-0.2233473,-0.431072
0.9153735,-0.225049,-0.4301669
0.9128995,-0.2263305,-0.4322725
0.9140922,-0.2263033,-0.4253727
0.9173744,-0.224926,-0.4163241
0.9185227,-0.2221392,-0.4125318
0.9194671,-0.2193947,-0.4146249
0.9203276,-0.219067,-0.4224521
0.9211009,-0.2174744,-0.425576
0.9211303,-0.2147051,-0.4232759
0.9208708,-0.2136636,-0.4240029
0.9238177,-0.2134373,-0.4258869
0.9253304,-0.2137095,-0.4252532
0.9221462,-0.2113021,-0.4263568
0.9190573,-0.208492,-0.4295426
0.9197963,-0.2098148,-0.4309469
0.9221398,-0.2101719,-0.4321521
0.922086,-0.209298,-0.4307639
0.9219782,-0.2098988,-0.427994
0.9206934,-0.2090467,-0.4273999
0.9180289,-0.205486,-0.4231797
0.9182267,-0.2010428,-0.4206457
0.9184178,-0.2019178,-0.424082
0.9207216,-0.2081734,-0.4280889
0.9244435,-0.2097156,-0.4344985
0.9228003,-0.20753,-0.4357478
0.918319,-0.2083687,-0.4289808
0.9128702,-0.2087098,-0.4270937
0.9120351,-0.2079281,-0.4314057
0.918723,-0.2087268,-0.4378884
0.9219459,-0.2095979,-0.4421426
0.918312,-0.2116157,-0.4413051
0.916005,-0.2133527,-0.4412615
0.9211383,-0.2123669,-0.4408784
0.9253307,-0.2122199,-0.4356334
0.9200904,-0.2131645,-0.4320617
0.9157098,-0.214142,-0.4368078
0.917287,-0.215799,-0.4411206
0.9189249,-0.2154228,-0.4380197
0.9190295,-0.2138622,-0.4364405
0.9188725,-0.2136949,-0.4362983
0.9185046,-0.212265,-0.4342503
0.9176802,-0.208586,-0.4340577
0.9199336,-0.2058965,-0.4330223
0.9215992,-0.2065847,-0.4329526
0.9183391,-0.2084349,-0.4336382
0.9166115,-0.2101321,-0.4310567
0.9164989,-0.2134079,-0.4301095
0.9165529,-0.213422,-0.4305942
0.9170287,-0.211224,-0.4305597
0.9162983,-0.2127128,-0.4307079
0.9168289,-0.2110311,-0.4308451
0.9171361,-0.2087337,-0.4328748
0.918679,-0.2120339,-0.4328673
0.9230189,-0.2131444,-0.4296988
0.92405,-0.2123392,-0.4284376
0.9212361,-0.2124845,-0.4269389
0.9173307,-0.2127693,-0.4241431
0.9159577,-0.2143228,-0.4253818
0.9181436,-0.2149017,-0.4276672
0.9202453,-0.2147856,-0.4268168
0.9209858,-0.2151511,-0.4306836
0.9187371,-0.2155512,-0.4363023
0.9152459,-0.2151224,-0.4349317
0.9138778,-0.2138874,-0.433822
0.9140821,-0.2130779,-0.4343264
0.9157385,-0.2119739,-0.4329374
0.9172338,-0.2122825,-0.4327702
0.9168321,-0.2118665,-0.431885
0.9162955,-0.2090996,-0.4305627
0.9168357,-0.2078274,-0.4338592
0.9167772,-0.2065361,-0.4370569
0.9162383,-0.2065632,-0.4326516
0.9165141,-0.2086396,-0.4285444
0.9181696,-0.2119018,-0.4312303
0.9227288,-0.2165852,-0.4331826
0.9247906,-0.2140311,-0.434052
0.9207116,-0.2082157,-0.4355243
0.9176869,-0.2078794,-0.4343348
0.9178231,-0.2058578,-0.4335257
0.9187485,-0.2046927,-0.4326236
0.9185505,-0.207252,-0.4284564
0.9172724,-0.2068039,-0.4266954
0.9181511,-0.2053699,-0.4330774
0.9171499,-0.2028678,-0.4398933
0.9139899,-0.2001472,-0.4354713
0.9140693,-0.2025822,-0.4304827
0.9162783,-0.207574,-0.4338409
0.9208497,-0.2126592,-0.4312814
0.9238795,-0.2139291,-0.4267034
0.9227932,-0.2114681,-0.4280924
0.9226562,-0.212565,-0.4261321
0.919653,-0.2123888,-0.425536
0.9150659,-0.2082119,-0.4273626
0.9171486,-0.2062693,-0.4255238
0.9200044,-0.2065257,-0.4245667
0.920698,-0.2074571,-0.4227168
0.9254223,-0.2069425,-0.4194049
0.9285406,-0.2064846,-0.418553
0.9279034,-0.2074885,-0.4218154
0.9321797,-0.2070174,-0.4270175
0.9323823,-0.2091677,-0.425536
0.91919,-0.2133252,-0.421457
0.9093717,-0.2132375,-0.4161414
0.9167101,-0.2063977,-0.4046213
0.9246375,-0.1946589,-0.4008619
0.9174806,-0.1917456,-0.4053733
0.914308,-0.2020765,-0.419598
0.9212923,-0.2124068,-0.4493428
0.9257119,-0.2151617,-0.4604161
0.9362972,-0.2127559,-0.4555301
0.9426253,-0.2088395,-0.4569026
0.9293286,-0.1998458,-0.4298178
0.9127346,-0.1878578,-0.3896128
0.9034861,-0.1847767,-0.3871903
0.905233,-0.1939516,-0.4090873
0.9167694,-0.2125358,-0.423895
0.9256173,-0.2292172,-0.4220488
0.9245857,-0.2277984,-0.4183117
0.9223055,-0.2104156,-0.4193206
0.9259722,-0.1928127,-0.4157055
0.9228905,-0.186116,-0.4158692
0.9183168,-0.1883053,-0.4191622
0.9239925,-0.1885891,-0.4242871
0.9325333,-0.1888252,-0.4437403
0.9472204,-0.1953652,-0.4706715
0.9516799,-0.1998641,-0.4834824
0.9298255,-0.2019991,-0.4681443
0.9076233,-0.2052237,-0.4470481
0.8992514,-0.2020073,-0.444221
0.8985989,-0.1971334,-0.4316712
0.8988455,-0.1962068,-0.4064866
0.8994502,-0.1985774,-0.4045542
0.9068829,-0.2102148,-0.4137082
0.9148988,-0.2240356,-0.4171328
0.9199417,-0.2271724,-0.4266259
0.9284752,-0.2250556,-0.4327842
0.9389289,-0.2245614,-0.4309097
0.9398592,-0.2207103,-0.4302836
0.9343359,-0.2172546,-0.4269824
0.9343357,-0.2175548,-0.4253258
0.9290878,-0.2118808,-0.4290836
0.9215402,-0.2074128,-0.4292258
0.9199782,-0.2094477,-0.4259098
0.91535,-0.2056648,-0.4198025
0.9155652,-0.2008432,-0.4151495
0.9152049,-0.2025621,-0.4219463
0.9122673,-0.2037666,-0.430976
0.9200102,-0.2041606,-0.4332835
0.9251223,-0.2149492,-0.4323823
0.930218,-0.2373584,-0.4270509
0.9383528,-0.2580341,-0.4217317
0.9347098,-0.2651894,-0.4271123
0.9276238,-0.2526888,-0.442757
0.9191896,-0.2311126,-0.4537339
0.9036228,-0.2099704,-0.4466662
0.8855693,-0.1812819,-0.4312435
0.8770515,-0.1587017,-0.4258614
0.8867629,-0.156626,-0.4277275
0.8969665,-0.1582658,-0.4307843
0.9076418,-0.1547945,-0.4413186
0.928734,-0.1530541,-0.4512264
0.9406028,-0.1593467,-0.4450628
0.9487098,-0.1717858,-0.4360893
0.9632469,-0.1874303,-0.4424461
0.969394,-0.2019594,-0.4454442
0.9577274,-0.1852247,-0.4322933
0.9293756,-0.1485646,-0.4068057
0.9180058,-0.1442275,-0.3692547
0.928675,-0.1537407,-0.3606181
0.9264308,-0.165202,-0.3883093
0.9213403,-0.2001811,-0.4069507
0.9222056,-0.2296188,-0.4222277
0.9273159,-0.2583958,-0.4370988
0.940833,-0.300514,-0.4526807
0.9393102,-0.3101483,-0.4665494
0.9152885,-0.2791495,-0.4360135
0.8905473,-0.2428174,-0.4018105
0.8903034,-0.2249308,-0.4048398
0.9048211,-0.2116087,-0.3967784
0.9112018,-0.1825768,-0.3823186
0.9229402,-0.1714287,-0.3908377
0.9315834,-0.1769827,-0.4172309
0.9441816,-0.1622001,-0.4511702
0.9695572,-0.1586807,-0.4645893
0.9549171,-0.1708442,-0.4399196
0.9289695,-0.1688708,-0.4041393
0.9350502,-0.1773289,-0.3912201
0.9332273,-0.1896891,-0.3965979
0.9337352,-0.1983577,-0.4027008
0.9370488,-0.2164883,-0.4042929
0.9204607,-0.2116747,-0.4073656
0.9073899,-0.2021057,-0.4121262
0.9048108,-0.2069167,-0.4097966
0.9201642,-0.2021872,-0.4115278
0.9409948,-0.2063019,-0.4124752
0.9411471,-0.2081467,-0.4100303
0.9351914,-0.1975148,-0.4174897
0.9285652,-0.190028,-0.4234947
0.9242057,-0.1787977,-0.4312088
0.9223849,-0.1797125,-0.4320186
0.9211085,-0.1863533,-0.4251965
0.9261055,-0.1882808,-0.4289942
0.925121,-0.19617,-0.4179837
0.9236701,-0.1976625,-0.4052421
0.9186208,-0.1994633,-0.4101904
0.9062993,-0.196897,-0.405044
0.9100268,-0.1803951,-0.3960557
0.9113331,-0.1731397,-0.3916075
0.9036907,-0.1777451,-0.3883154
0.9078168,-0.1874558,-0.3996204
0.9106071,-0.199061,-0.4261687
0.9143775,-0.2147685,-0.4494182
0.927607,-0.2390859,-0.4658809
0.9365175,-0.2485345,-0.4834195
0.940274,-0.2310411,-0.4884464
0.94229,-0.2096993,-0.4770364
0.9328652,-0.1995219,-0.4533664
0.9095823,-0.1914516,-0.4213815
0.8925738,-0.1858607,-0.4034641
0.8934589,-0.1916485,-0.3999486
0.8995554,-0.2077798,-0.3998448
0.9083235,-0.2317781,-0.4057763
0.9249258,-0.2387261,-0.4183137
0.9376318,-0.2214922,-0.4293312
0.9399523,-0.206776,-0.4267875
0.9501708,-0.1930212,-0.4258482
0.9652197,-0.1886061,-0.4343202
0.9561082,-0.1964502,-0.4311498
0.937049,-0.1924817,-0.4219052
0.9275388,-0.1919901,-0.4199428
0.9186095,-0.1988797,-0.4272288
0.9186178,-0.2028659,-0.443987
0.9163683,-0.2160545,-0.4506749
0.9056753,-0.2257393,-0.4436976
0.9063838,-0.2320675,-0.4364282
0.9030339,-0.2438068,-0.4279257
0.8996791,-0.2407335,-0.426089
0.9056738,-0.2263016,-0.42106
0.9018089,-0.2123151,-0.4057871
0.9018129,-0.2009289,-0.4107512
0.906646,-0.2045703,-0.4256125
0.9108953,-0.2108433,-0.4329051
0.924699,-0.2065608,-0.443033
0.9341466,-0.20486,-0.4398324
0.9431598,-0.1956351,-0.4343722
0.9468741,-0.1817952,-0.4398064
0.9345651,-0.1874391,-0.4339861
0.9285637,-0.1918618,-0.428645
0.9214388,-0.1900199,-0.4289383
0.9138192,-0.1998743,-0.4299651
0.9175049,-0.2078541,-0.438371
0.9126916,-0.2126222,-0.4371022
0.9102704,-0.215508,-0.4343152
0.9127988,-0.2137071,-0.4394815
0.9073649,-0.2168167,-0.4383442
0.9091933,-0.2179356,-0.4407686
0.9127913,-0.2179396,-0.447781
0.9156379,-0.2233554,-0.4522895
0.918914,-0.2244932,-0.4536174
0.9148347,-0.222862,-0.4509017
0.9142684,-0.2217325,-0.4488792
0.9105591,-0.2193283,-0.4420025
0.9047907,-0.2190805,-0.4375775
0.9082562,-0.2196488,-0.4414881
0.9099236,-0.2190887,-0.4404247
0.9124293,-0.2172454,-0.4398804
0.9152149,-0.213791,-0.4428152
0.9157383,-0.2100028,-0.44244
0.919777,-0.2059588,-0.4390819
0.920671,-0.2029025,-0.4322146
0.9230208,-0.2019171,-0.4285814
0.9265682,-0.2009649,-0.4297152
0.9225855,-0.1983455,-0.430948
0.9202195,-0.1959446,-0.4332945
0.9209514,-0.1944818,-0.4331852
0.9199369,-0.1918096,-0.4318685
0.9206732,-0.1893697,-0.4326514
0.9237174,-0.1891607,-0.4309575
0.9260213,-0.1928277,-0.4284362
0.9251357,-0.198626,-0.4274562
0.9239937,-0.1992526,-0.4258851
0.9237009,-0.1962533,-0.4260414
0.9212609,-0.1957066,-0.4271446
0.9195863,-0.1984654,-0.4267913
0.9179015,-0.203876,-0.4270836
0.9158068,-0.206285,-0.4265341
0.9186101,-0.2020255,-0.4257549
0.9200473,-0.1988078,-0.4273952
0.916257,-0.2026614,-0.4290508
0.9144568,-0.206582,-0.4310296
0.9153569,-0.2073248,-0.4311364
0.9170889,-0.2105086,-0.4289266
0.9194873,-0.2115405,-0.4304835
0.9215457,-0.2090635,-0.432822
0.9213062,-0.209114,-0.4335587
0.920052,-0.2083148,-0.4334297
0.9213829,-0.2086599,-0.4306236
0.9219322,-0.2104225,-0.4284291
0.9219535,-0.207567,-0.4272643
0.922846,-0.2065129,-0.4274856
0.9210659,-0.2092247,-0.4293323
0.918642,-0.2110811,-0.4317583
0.9161403,-0.2113013,-0.4352398
0.9166246,-0.2089477,-0.431132
0.9193514,-0.2079701,-0.4247017
0.9167702,-0.209476,-0.427609
0.9163741,-0.2107531,-0.4290187
0.9201387,-0.2106669,-0.4283707
0.9204572,-0.2086551,-0.4294896
0.9176859,-0.2064069,-0.4251555
0.9144823,-0.2022611,-0.422206
0.9187154,-0.1990092,-0.4238895
0.9250368,-0.2003778,-0.4238186
0.9234159,-0.2011172,-0.4236259
0.9220943,-0.2007741,-0.4245044
0.9210212,-0.1991004,-0.4255068
0.9179218,-0.1967795,-0.4265448
0.9188407,-0.2010913,-0.4284945
0.9214061,-0.2076861,-0.42958
0.9218788,-0.209774,-0.4290229
0.9215961,-0.2117994,-0.4339834
0.9223754,-0.2142158,-0.4387004
0.920862,-0.2138884,-0.4350753
0.9186827,-0.2124286,-0.4335174
0.9201189,-0.2105568,-0.433967
0.9191423,-0.2090446,-0.4332729
0.9178493,-0.209687,-0.4382636
0.9175266,-0.2100854,-0.4422519
0.9142259,-0.209609,-0.4420954
0.9125801,-0.211747,-0.4448214
0.9108005,-0.2174046,-0.4487198
0.9111545,-0.2236835,-0.4506741
0.913927,-0.2237459,-0.4484842
0.9121597,-0.2159666,-0.4418325
0.9130555,-0.2080259,-0.433407
0.9149067,-0.2020787,-0.4282515
0.9133016,-0.1949285,-0.4312778
0.9149361,-0.1862642,-0.4335975
0.9192008,-0.1793276,-0.4302783
0.9254976,-0.1792328,-0.4279565
0.9283112,-0.181288,-0.4241659
0.9257221,-0.1799372,-0.4219471
0.9270764,-0.1801654,-0.4245858
0.9290412,-0.1794011,-0.4236802
0.9291346,-0.1768585,-0.423075
0.9311061,-0.1816745,-0.4252867
0.9307796,-0.1929305,-0.4248331
0.928695,-0.2065441,-0.4243682
0.9274233,-0.2158993,-0.4217653
0.9252649,-0.2175565,-0.4188767
0.9232522,-0.2231532,-0.4224977
0.919838,-0.2313768,-0.4286992
0.9136245,-0.2330925,-0.4329339
0.9100596,-0.2302826,-0.4299539
0.9126861,-0.2252903,-0.4236804
0.9167725,-0.2206142,-0.4246947
0.9157746,-0.2165533,-0.4260592
0.9144581,-0.2138034,-0.4251024
0.9179726,-0.2112734,-0.427017
0.9206255,-0.2084816,-0.4266148
0.9243371,-0.2085007,-0.4259462
0.9279893,-0.2068417,-0.428189
0.9243545,-0.2083693,-0.4296054
0.9222595,-0.2145795,-0.4311056
0.9237632,-0.2159298,-0.4308652
0.9208964,-0.2170796,-0.4299139
0.9183544,-0.2162332,-0.4310136
0.9192315,-0.2111398,-0.4304867
0.9188356,-0.2080157,-0.4308405
0.9166068,-0.206385,-0.4339614
0.9160435,-0.2073584,-0.43739
0.916323,-0.2070684,-0.4399079
0.9157535,-0.2062971,-0.4376303
0.916773,-0.2077202,-0.4315095
0.9175128,-0.2059357,-0.4269012
0.917955,-0.2042291,-0.4264136
0.9201742,-0.2024261,-0.427209
0.919793,-0.2020028,-0.4274065
0.9187422,-0.2047997,-0.4297666
0.9199023,-0.2035898,-0.4310148
0.919417,-0.2022018,-0.4310286
0.9193451,-0.2015543,-0.4307766
0.9210412,-0.2016078,-0.4276911
