accx,accy,accz
0.9764394,-0.3365498,-0.2233354
0.9632557,-0.3196746,-0.2210769
0.9523079,-0.2856763,-0.2219043
0.9580264,-0.2869472,-0.2361991
0.9743606,-0.2919739,-0.2526622
0.9673423,-0.288786,-0.2474346
0.9541053,-0.2931761,-0.2341314
0.9480266,-0.2982649,-0.2329811
0.9566469,-0.3126845,-0.234214
0.9792388,-0.3206347,-0.2419919
0.9673822,-0.3139874,-0.2520064
0.9458738,-0.3051774,-0.246411
0.9429658,-0.2770025,-0.2296983
0.9443959,-0.25695,-0.213853
0.9719381,-0.2913434,-0.2168097
0.9917175,-0.3271271,-0.2243424
0.9829611,-0.3108213,-0.2173816
0.9802631,-0.3002052,-0.2221525
0.9822985,-0.3130878,-0.230588
0.9810308,-0.3057168,-0.228042
0.9670362,-0.3081298,-0.2305178
0.9441073,-0.3179653,-0.2308374
0.9319135,-0.3080547,-0.2330021
0.9438646,-0.3039705,-0.2416224
0.9612413,-0.2891385,-0.2491632
0.9559978,-0.2747525,-0.2587679
0.9606709,-0.2857959,-0.2619876
0.9707363,-0.2909688,-0.2609755
0.9579453,-0.2999035,-0.252543
0.9516505,-0.3176744,-0.2309033
0.9544063,-0.3211212,-0.2216143
0.9599762,-0.3112121,-0.2264692
0.9691248,-0.2931501,-0.2262207
0.9747803,-0.2812553,-0.2173984
0.9774279,-0.2850828,-0.206241
0.9774002,-0.3008267,-0.1994591
0.9834654,-0.3114314,-0.195297
0.9761329,-0.3003073,-0.1935367
0.9613019,-0.2892725,-0.1944976
0.9701293,-0.2957895,-0.1984133
0.9712682,-0.2995162,-0.1985432
0.9619758,-0.2955026,-0.1950625
0.9638027,-0.2989027,-0.1981532
0.9664874,-0.3016468,-0.1955165
0.9729105,-0.3010329,-0.1913905
0.9738966,-0.3052501,-0.1935647
0.9702352,-0.3057876,-0.1914664
0.9732303,-0.3049718,-0.1945975
0.9710336,-0.3032997,-0.1998704
0.9686422,-0.2997473,-0.2015422
0.9684056,-0.302224,-0.2011206
0.966343,-0.3036484,-0.1964422
0.9685593,-0.3049964,-0.1965814
0.9689102,-0.3066773,-0.1942672
0.968724,-0.3047515,-0.1933576
0.9703042,-0.3061646,-0.2006386
0.9684517,-0.3071928,-0.2027196
0.9693257,-0.3069936,-0.2050899
0.9723803,-0.3074984,-0.2038323
0.9729226,-0.3078899,-0.1964711
0.9729543,-0.3089589,-0.1920167
0.9711882,-0.3055397,-0.1884157
0.9698401,-0.3018222,-0.1925874
0.9704054,-0.3004359,-0.1957527
0.9691938,-0.2999785,-0.193577
0.9684742,-0.3022948,-0.1970827
0.9673461,-0.3014801,-0.1975872
0.9648468,-0.300882,-0.1969477
0.9684926,-0.302483,-0.1976722
0.9728374,-0.2995877,-0.19659
0.9706128,-0.2961265,-0.1976056
0.969924,-0.2963062,-0.1957499
0.9703065,-0.3021866,-0.1930253
0.9671129,-0.3074171,-0.1898981
0.9658636,-0.3030322,-0.1858552
0.9675221,-0.2994212,-0.1868732
0.9697575,-0.3018814,-0.1889096
0.9730877,-0.3019224,-0.1928897
0.9737166,-0.3010607,-0.197471
0.971491,-0.3040123,-0.19626
0.971989,-0.3075452,-0.1956342
0.9728061,-0.3089785,-0.199944
0.971629,-0.3085784,-0.2036536
0.9713911,-0.3077979,-0.2026258
0.9705904,-0.3080594,-0.1991204
0.969188,-0.305816,-0.1924313
0.9677965,-0.3027595,-0.1854895
0.9658681,-0.3033326,-0.1874909
0.9670572,-0.3029782,-0.1924907
0.9706545,-0.3024227,-0.1935444
0.9747308,-0.3044066,-0.1948076
0.9782952,-0.3061593,-0.1971554
0.9781675,-0.308336,-0.1992074
0.9788541,-0.3116239,-0.1982143
0.9796649,-0.3149757,-0.1961135
0.9750513,-0.3156025,-0.1968081
0.9705975,-0.314513,-0.1940553
0.9687727,-0.3157038,-0.1910015
0.9700374,-0.3154945,-0.1970611
0.9729426,-0.3146768,-0.2023817
0.9713407,-0.3158209,-0.1999865
0.9682391,-0.3150911,-0.1993361
0.9651731,-0.315073,-0.2025312
0.9642436,-0.3153459,-0.2033058
0.9672036,-0.3118388,-0.2025067
0.9667415,-0.3059007,-0.2028951
0.966237,-0.3014287,-0.2027379
0.9670868,-0.3070131,-0.2027329
0.9649038,-0.3177784,-0.2036267
0.9634377,-0.3220355,-0.2061697
0.9616224,-0.3229777,-0.2097515
0.9603271,-0.3221934,-0.2097847
0.9599283,-0.3216404,-0.2099831
0.9580605,-0.3228786,-0.211524
0.9550692,-0.3217227,-0.2083211
0.9479164,-0.3192485,-0.2051398
0.9454148,-0.3102515,-0.2044712
0.9525704,-0.2975306,-0.2023039
0.962624,-0.2978087,-0.2019324
0.9738896,-0.3070329,-0.2024508
0.9743803,-0.3125906,-0.1989209
0.9677722,-0.3133418,-0.1939919
0.970354,-0.3108192,-0.1907624
0.973042,-0.3087659,-0.1916978
0.9755004,-0.3083945,-0.1944884
0.9800411,-0.3092305,-0.1928044
0.9784708,-0.3122685,-0.1930472
0.9773135,-0.3138908,-0.1975904
0.975664,-0.3131563,-0.1989373
0.9714667,-0.3134309,-0.19813
0.9690168,-0.3151652,-0.1965984
0.9668286,-0.3182016,-0.1970783
0.969242,-0.3215703,-0.1989472
0.9706805,-0.3246845,-0.1983727
0.9696503,-0.3258823,-0.2001293
0.9735016,-0.32367,-0.2024008
0.9740472,-0.3204515,-0.2045013
0.9715786,-0.3165194,-0.2086291
0.9687077,-0.3144599,-0.2093377
0.965145,-0.314875,-0.2048217
0.9666988,-0.3157138,-0.1972389
0.9673302,-0.3184334,-0.1973437
0.966051,-0.3147618,-0.2036126
0.9655223,-0.3072717,-0.2015225
0.9591657,-0.3064189,-0.1979772
0.9514594,-0.2999166,-0.1944513
0.9522142,-0.2884132,-0.1901189
0.9593374,-0.2882378,-0.2002219
0.9674456,-0.2972774,-0.2125062
0.9761982,-0.3060486,-0.2109288
0.981416,-0.3079054,-0.2152364
0.9831925,-0.3011215,-0.226106
0.9836049,-0.2872436,-0.2243006
0.9788966,-0.2681789,-0.2226885
0.9790129,-0.2518708,-0.2258811
0.9851125,-0.2456155,-0.2223796
0.9875977,-0.2446723,-0.2213324
0.9898218,-0.2430599,-0.2217139
0.9909734,-0.2449232,-0.2214662
0.9944767,-0.2503528,-0.2237705
0.9954686,-0.2512637,-0.2170915
0.9832114,-0.2364204,-0.2092624
0.9744136,-0.2100807,-0.2114948
0.9784431,-0.2000921,-0.2168316
0.9852468,-0.2070414,-0.2245967
0.9900389,-0.2142224,-0.2297257
0.9952818,-0.2278985,-0.2252026
0.9978189,-0.2412601,-0.2203422
0.9978941,-0.2429845,-0.2217978
1.006761,-0.2417851,-0.2226197
1.01059,-0.2421625,-0.2242042
1.001762,-0.2455641,-0.2289781
0.9905698,-0.2563389,-0.2299256
0.9726564,-0.2771684,-0.2292842
0.9605059,-0.3048874,-0.2255128
0.9568457,-0.3299157,-0.2188986
0.9509635,-0.3443448,-0.2177702
0.9459927,-0.3468757,-0.2166349
0.9395133,-0.3508355,-0.2138282
0.9421189,-0.3608359,-0.2042092
0.9516477,-0.3632366,-0.1880842
0.9572579,-0.3553348,-0.1823981
0.9691896,-0.3338675,-0.1717316
0.9776458,-0.3070736,-0.1534965
0.9806208,-0.3005177,-0.1548677
0.9804129,-0.3076979,-0.1561564
0.9533003,-0.3100647,-0.1355366
0.9144495,-0.3125557,-0.1165921
0.9046066,-0.3172783,-0.1166029
0.9193739,-0.3200719,-0.1267336
0.9338774,-0.3364092,-0.1423083
0.9459266,-0.3599395,-0.1612717
0.9538082,-0.3622683,-0.1648238
0.9706469,-0.3814384,-0.1767893
1.003661,-0.4237632,-0.2198101
0.9951913,-0.4132858,-0.2274467
0.9578108,-0.3655079,-0.1967265
0.9496432,-0.3307037,-0.1801936
0.9455077,-0.3110246,-0.163444
0.9611056,-0.318634,-0.1633431
0.983959,-0.3125871,-0.1714107
0.9702946,-0.2883631,-0.1577908
0.9698513,-0.2944794,-0.1584942
0.975635,-0.2851516,-0.1523317
0.975601,-0.2669008,-0.134532
0.9900697,-0.2796263,-0.136874
0.9869266,-0.2823912,-0.1367635
0.9831507,-0.2889207,-0.1519862
0.9860114,-0.3082862,-0.1781839
0.9777987,-0.3233496,-0.1804122
0.9763577,-0.3372272,-0.1757422
0.9753624,-0.3232518,-0.1691829
0.972784,-0.3097964,-0.1653275
0.9737047,-0.3184632,-0.1706986
0.9745646,-0.3143496,-0.1808301
0.9754613,-0.3095817,-0.1973364
0.9736121,-0.3040091,-0.2099553
0.9735615,-0.2913887,-0.2133233
0.9736181,-0.2968931,-0.2111167
0.9734083,-0.3120896,-0.2097371
0.9740588,-0.3247286,-0.206648
0.973094,-0.3360134,-0.1999936
0.9721717,-0.3385523,-0.1963711
0.9643003,-0.3374841,-0.1859137
0.9549154,-0.3318988,-0.1696691
0.9573925,-0.313452,-0.1566582
0.9664319,-0.2978643,-0.1556403
0.9716904,-0.293602,-0.1658594
0.970542,-0.2907551,-0.1668926
0.9691695,-0.2907317,-0.1687186
0.9697537,-0.2986266,-0.1717173
0.9682767,-0.3120297,-0.167294
0.9639288,-0.3178954,-0.1704098
0.9620085,-0.3104642,-0.1725684
0.9719987,-0.3071409,-0.1848287
0.9838689,-0.3176244,-0.2129361
0.9756681,-0.3308659,-0.2207576
0.9537246,-0.3360661,-0.2077697
0.9414782,-0.3363668,-0.1989725
0.9533901,-0.3413273,-0.2001092
0.978387,-0.3471486,-0.1968838
0.9843386,-0.3377833,-0.1924492
0.977476,-0.3134753,-0.1946765
0.9769068,-0.294449,-0.1842466
0.9723243,-0.2898644,-0.1718289
0.9709505,-0.2915921,-0.1689251
0.9685522,-0.2917014,-0.1653913
0.9595,-0.2977798,-0.1717088
0.9663374,-0.3130833,-0.1864143
0.9749735,-0.3213947,-0.2023237
0.9732218,-0.321971,-0.2092774
0.9735628,-0.3166396,-0.1962008
0.9718943,-0.3016502,-0.179297
0.9709942,-0.2907398,-0.1655071
0.972667,-0.2893013,-0.1602419
0.9728799,-0.2952508,-0.1686322
0.9745768,-0.3041639,-0.1748254
0.9767953,-0.3068481,-0.1811887
0.9779123,-0.3058783,-0.1884415
0.9791081,-0.3048363,-0.1881999
0.979641,-0.3056925,-0.1888575
0.976221,-0.3048603,-0.1868718
0.9719619,-0.2985035,-0.1805201
0.9702608,-0.2960623,-0.17684
0.969841,-0.3031186,-0.1725993
0.9696657,-0.3116075,-0.1719561
0.9664339,-0.3083354,-0.1758739
0.9667498,-0.3039797,-0.179647
0.9731222,-0.3087766,-0.1818787
0.9762212,-0.306613,-0.1797982
0.9763037,-0.3034863,-0.178384
0.9748576,-0.3034256,-0.1782604
0.9737241,-0.2994093,-0.1788029
0.9726895,-0.3010246,-0.1817447
0.9705797,-0.3016245,-0.1797688
0.9726504,-0.3012008,-0.1761788
0.9760784,-0.3041809,-0.1769688
0.9784582,-0.3012956,-0.1783158
0.9773078,-0.3012708,-0.1770906
0.9730793,-0.3048423,-0.1752028
0.9736507,-0.3057195,-0.1787231
0.9737816,-0.3059161,-0.179744
0.9731539,-0.3027148,-0.174158
0.9742295,-0.3005336,-0.1716148
0.9739963,-0.2993992,-0.1720938
0.9782512,-0.2982013,-0.1760088
0.9814132,-0.3003207,-0.1778738
0.977058,-0.3024343,-0.1752478
0.973359,-0.3036947,-0.176768
0.9749413,-0.3025572,-0.1772228
0.9768064,-0.3029038,-0.1787558
0.9751517,-0.3072307,-0.1840308
0.9757407,-0.3086432,-0.1848263
0.9769625,-0.3073745,-0.1855566
0.9758419,-0.3034357,-0.1862755
0.9757536,-0.3007064,-0.1841223
0.9738959,-0.3017124,-0.1824818
0.970871,-0.3005931,-0.1811078
0.9670681,-0.2988184,-0.1788835
0.9652092,-0.2965623,-0.1748721
0.9675551,-0.2968614,-0.1746555
0.966673,-0.3002783,-0.1842745
0.966083,-0.3007993,-0.1966288
0.9678931,-0.3018172,-0.198359
0.9688942,-0.3014556,-0.1927797
0.9717369,-0.29964,-0.1907886
0.9711969,-0.2993117,-0.1866216
0.9689524,-0.29703,-0.1843376
0.9696315,-0.2969315,-0.1856191
0.9685667,-0.2974571,-0.1792581
0.9688875,-0.2959126,-0.1777864
0.9719268,-0.2962286,-0.1823927
0.9738043,-0.2979325,-0.1844238
0.9752204,-0.3022998,-0.1891826
0.9770235,-0.3061083,-0.1881769
0.9792874,-0.3074538,-0.1858861
0.9789316,-0.3088306,-0.1883962
0.9748058,-0.3067429,-0.1851647
0.9709104,-0.3023698,-0.182535
0.9702753,-0.2987714,-0.1817963
0.9734096,-0.2980104,-0.1796542
0.9761473,-0.3009252,-0.1806896
0.9766491,-0.3019977,-0.1809876
0.97642,-0.3012215,-0.1813299
0.9748089,-0.3013543,-0.183846
0.9728798,-0.3012217,-0.186294
0.9706657,-0.3005533,-0.1886093
0.9689848,-0.2996618,-0.1891461
0.9682275,-0.299722,-0.1883478
0.9678377,-0.2993822,-0.1865648
0.9710692,-0.2981276,-0.1855985
0.9740915,-0.298379,-0.1887421
0.9754515,-0.2980041,-0.1923837
0.9791218,-0.2967153,-0.1936161
0.9805531,-0.2970072,-0.1927472
0.9822368,-0.2960676,-0.1897487
0.9857156,-0.2926615,-0.1873617
0.9825765,-0.2907915,-0.1852937
0.976574,-0.291818,-0.1787387
0.9738598,-0.2929553,-0.1710663
0.972678,-0.2919948,-0.1722383
0.9719259,-0.2877837,-0.1776533
0.9716178,-0.2848573,-0.1819267
0.9765731,-0.2941676,-0.1929831
0.9872423,-0.3102122,-0.2015354
0.9951276,-0.3170684,-0.2030668
0.9984306,-0.3192409,-0.2063697
0.995732,-0.3167359,-0.1990521
0.9844221,-0.2961625,-0.1799808
0.9759933,-0.2722112,-0.1621027
0.978303,-0.2681653,-0.1601836
0.9781444,-0.2710639,-0.1706119
0.9630912,-0.2647542,-0.1652161
0.9457226,-0.2695159,-0.1645572
0.9418859,-0.2907229,-0.173604
0.9424688,-0.3067317,-0.171138
0.9433559,-0.319235,-0.1849096
0.9528682,-0.3254587,-0.2018919
0.9620276,-0.3238508,-0.2077837
0.9651111,-0.3262117,-0.2178167
0.9722667,-0.3223198,-0.2145731
0.9815403,-0.3130908,-0.207707
0.9849674,-0.3011259,-0.2074328
0.9866343,-0.2894642,-0.2035242
0.9848984,-0.2912348,-0.1933893
0.975272,-0.2885485,-0.1800696
0.968626,-0.2882007,-0.1792139
0.972827,-0.3020507,-0.179624
0.9810742,-0.305546,-0.1734781
0.9829878,-0.3052307,-0.1736533
0.9789243,-0.3053342,-0.1775537
0.9751162,-0.3007883,-0.1850609
0.9727091,-0.3015925,-0.1895069
0.9752594,-0.3006317,-0.1861126
0.9778136,-0.2969376,-0.1833594
0.9757763,-0.2927514,-0.1830888
0.9763242,-0.2900439,-0.1833143
0.9767542,-0.2944124,-0.1823
0.97582,-0.2955663,-0.1819372
0.9750684,-0.2950372,-0.1827824
0.9710065,-0.2954098,-0.183603
0.9682648,-0.2912102,-0.1836305
0.9698423,-0.290976,-0.1833755
0.9727118,-0.2941001,-0.1864973
0.9741349,-0.296581,-0.1892523
0.9732225,-0.2997292,-0.1886287
0.9707304,-0.2988588,-0.1852048
0.9687534,-0.2968528,-0.1792368
0.9705938,-0.2972333,-0.1764042
0.9731704,-0.2966889,-0.1776908
0.9732166,-0.2971403,-0.1786193
0.9734659,-0.2993129,-0.178302
0.9762257,-0.2988873,-0.1792634
0.9788592,-0.2978662,-0.1804811
0.9764062,-0.2978973,-0.1820893
0.9727146,-0.2960337,-0.185164
0.9717527,-0.295609,-0.1807435
0.9711972,-0.2981484,-0.1743566
0.971952,-0.3001678,-0.1773683
0.9733064,-0.301274,-0.1806962
0.9738781,-0.3014937,-0.185977
0.9734211,-0.3008597,-0.1942252
0.9712984,-0.2987176,-0.1907389
0.9696085,-0.2959785,-0.1842396
0.9691878,-0.2952005,-0.1863727
0.9705725,-0.2944818,-0.1859441
0.973365,-0.294428,-0.1843761
0.9775967,-0.2975012,-0.1870592
0.9821031,-0.2994792,-0.1867263
0.9795535,-0.2986033,-0.188693
0.9736007,-0.2988523,-0.1951729
0.9714651,-0.3014607,-0.1982018
0.9704599,-0.3034523,-0.1981661
0.9725344,-0.3011902,-0.1950047
0.974792,-0.2952131,-0.1922368
0.9731939,-0.2888325,-0.1900917
0.9736325,-0.287449,-0.1863499
0.9750557,-0.2956931,-0.1897847
0.9758297,-0.3028405,-0.1938152
0.9765998,-0.298453,-0.190932
0.9744733,-0.2950328,-0.1920054
0.9737625,-0.2971132,-0.1959949
0.9781517,-0.2921884,-0.1975399
0.9821223,-0.2867353,-0.196264
0.979892,-0.2909205,-0.1909111
0.9741128,-0.2941532,-0.1874191
0.9717643,-0.2921244,-0.1871822
0.9747245,-0.2902983,-0.1870285
0.9796614,-0.2887124,-0.186102
0.9791294,-0.2902694,-0.1840661
0.9737408,-0.2938503,-0.1857398
0.9718984,-0.2938008,-0.1888792
0.9751452,-0.2953635,-0.1889546
0.9813617,-0.2992213,-0.1889064
0.9816201,-0.2981262,-0.1875056
0.972212,-0.2963348,-0.1854994
0.9656572,-0.2972955,-0.1850967
0.9682733,-0.2964972,-0.1851654
0.9730432,-0.2953061,-0.1850355
0.9737725,-0.2953388,-0.1842066
0.974904,-0.2933525,-0.1852172
0.9746687,-0.2899631,-0.1870113
0.9717437,-0.2878021,-0.1884198
0.9750474,-0.2860915,-0.1897615
0.9770346,-0.2873938,-0.1883335
0.9780406,-0.2916559,-0.1875773
0.981326,-0.290573,-0.186726
0.9789134,-0.2876081,-0.1843063
0.9806225,-0.2894766,-0.1842613
0.9816596,-0.2910113,-0.1821352
0.9771797,-0.2919712,-0.1801874
0.9754472,-0.2930478,-0.1841612
0.9711901,-0.2928169,-0.1866387
0.9742571,-0.2931582,-0.1818829
0.98094,-0.2921288,-0.1769371
0.978256,-0.2909804,-0.1795092
0.9771104,-0.2910007,-0.182483
0.9754415,-0.2899718,-0.1832047
0.9738579,-0.2904711,-0.1865634
0.9758868,-0.2923674,-0.1883987
0.9746815,-0.2933895,-0.1905342
0.9749994,-0.2935071,-0.1915515
0.9763338,-0.2935827,-0.1884995
0.9758504,-0.2948332,-0.18844
0.974829,-0.2948881,-0.18786
0.9718861,-0.2948566,-0.186597
0.9719045,-0.2960632,-0.187108
0.9738601,-0.2936046,-0.1864708
0.9744453,-0.2892328,-0.188608
0.9754415,-0.2875159,-0.1884371
0.9750194,-0.2882472,-0.1872826
0.9747081,-0.2904687,-0.1893046
0.9754817,-0.2915653,-0.1871668
0.9759129,-0.2920071,-0.1861211
0.9775432,-0.2936672,-0.1845683
0.9784594,-0.2946248,-0.1818324
0.9784213,-0.2937861,-0.183951
0.9794384,-0.2926773,-0.1825752
0.9790315,-0.2938602,-0.1817215
0.9770577,-0.295146,-0.1813613
0.9752947,-0.2938259,-0.1743058
0.9726342,-0.2921894,-0.1718679
0.9707334,-0.2896041,-0.1791976
0.9739058,-0.287882,-0.186401
0.978174,-0.288865,-0.1837551
0.9762553,-0.2873157,-0.180086
0.9734739,-0.2851804,-0.1786643
0.9742943,-0.2872498,-0.1738618
0.9750503,-0.2918067,-0.1846524
0.9768814,-0.296325,-0.1994395
0.977054,-0.2978436,-0.1929699
0.9756089,-0.2984466,-0.1897838
0.9778019,-0.300135,-0.1937952
0.9780054,-0.2990717,-0.1902494
0.9764169,-0.2980732,-0.1955268
0.9767229,-0.2977088,-0.2024052
0.9768938,-0.2921919,-0.1933115
0.977949,-0.2869669,-0.1870543
0.9761848,-0.2890248,-0.1910953
0.9738748,-0.2936671,-0.1919887
0.9753304,-0.2950395,-0.1903691
0.9751637,-0.2946632,-0.1884608
0.974712,-0.2956191,-0.1850759
0.9752253,-0.2977622,-0.1855457
0.9748733,-0.2992823,-0.1881298
0.9748766,-0.2976709,-0.1867447
0.9740954,-0.2962922,-0.1842635
0.974031,-0.2971161,-0.181593
0.9771285,-0.2976286,-0.181316
0.9802136,-0.3006807,-0.1865022
0.9786783,-0.3017194,-0.1879921
0.9767472,-0.2963684,-0.186855
0.9791163,-0.2928193,-0.1888164
0.979729,-0.2933674,-0.1907883
0.978152,-0.29351,-0.1936751
0.9762139,-0.2922245,-0.1908441
0.9712745,-0.2912818,-0.1821845
0.9688675,-0.2901207,-0.1804197
0.9712759,-0.2896042,-0.186553
0.9746999,-0.2911098,-0.1926527
0.977481,-0.29123,-0.1893082
0.9768948,-0.2924323,-0.1829223
0.9764769,-0.2940312,-0.1826166
0.978361,-0.2923354,-0.1818875
0.9768549,-0.2921499,-0.1847244
0.9744611,-0.2919553,-0.1892561
0.974225,-0.2921469,-0.1863354
0.9732845,-0.2947915,-0.1820196
0.9732615,-0.2947766,-0.1802239
0.9731033,-0.2950835,-0.184713
0.9719999,-0.2963738,-0.1904682
0.9741695,-0.295526,-0.1898298
0.9767595,-0.2948819,-0.1918557
0.9763842,-0.2942478,-0.1937763
0.9748021,-0.2942856,-0.192413
0.9720635,-0.2947021,-0.1943848
0.9699742,-0.2942747,-0.1946761
0.9708417,-0.2948364,-0.1929832
0.9724261,-0.2962906,-0.1921861
0.9730954,-0.2974975,-0.1911272
0.9739082,-0.2966204,-0.1917697
0.9738109,-0.2951013,-0.1918998
0.9734019,-0.2964751,-0.1911607
0.9747546,-0.2988201,-0.1910049
0.9749338,-0.3004554,-0.1892348
0.9730956,-0.3006912,-0.1865011
0.9717458,-0.3002936,-0.1840103
0.9719253,-0.3014498,-0.184212
0.972526,-0.2994808,-0.1864926
0.9711277,-0.294716,-0.1860949
0.970569,-0.2940079,-0.1867671
0.9719875,-0.2954475,-0.1918655
0.9723777,-0.2961894,-0.1985282
0.9723506,-0.2959682,-0.2007965
0.9720755,-0.2954497,-0.1933508
0.9721967,-0.2964848,-0.1875594
0.9722392,-0.2975889,-0.1907259
0.971445,-0.298947,-0.1918938
0.9732126,-0.2985974,-0.1902584
0.9776279,-0.2949117,-0.1901376
0.9798242,-0.2921305,-0.1893044
0.9757025,-0.2911465,-0.1891326
0.971685,-0.2927227,-0.1915725
0.9738609,-0.2949202,-0.1945061
0.974318,-0.2950042,-0.1959951
0.9730291,-0.2956863,-0.1974092
0.9746828,-0.2962942,-0.1971864
0.9744497,-0.2981086,-0.1925588
0.9731484,-0.2993632,-0.1880671
0.9735945,-0.2962202,-0.1875711
0.9737607,-0.2951842,-0.1902748
0.9740814,-0.2961473,-0.1951539
0.9762495,-0.2951569,-0.2000535
0.9781342,-0.2934382,-0.2009794
0.975387,-0.2914949,-0.1967612
0.9721347,-0.2920907,-0.1933699
0.9740295,-0.2922567,-0.1933025
0.9760758,-0.2908517,-0.1929253
0.9757724,-0.2922033,-0.1898357
0.9741267,-0.2934812,-0.1850804
0.971355,-0.2964011,-0.1839974
0.9730029,-0.2999005,-0.1835673
0.9766654,-0.2965046,-0.1828389
0.9764039,-0.2926644,-0.1872455
0.9763829,-0.2930274,-0.1901647
0.9765508,-0.293374,-0.1919531
0.976066,-0.2948625,-0.1945996
0.9767113,-0.2964587,-0.1930623
0.9762378,-0.2958953,-0.1906177
0.9763049,-0.2952007,-0.1890271
0.9766458,-0.2938333,-0.189697
0.9759168,-0.2907726,-0.1892634
0.9751588,-0.2895606,-0.18774
0.9720149,-0.2920067,-0.1903902
0.9697847,-0.294832,-0.1920805
0.9711061,-0.296385,-0.1968843
0.9725873,-0.2962076,-0.2007756
0.9749378,-0.2952632,-0.1954644
0.9769526,-0.2960558,-0.1905169
0.9746849,-0.2960369,-0.1865659
0.9715206,-0.2952464,-0.1879965
0.9722757,-0.2952788,-0.1926748
0.973536,-0.2951368,-0.1897417
0.9734904,-0.2995626,-0.1908309
0.9739175,-0.3048888,-0.1949175
0.9734318,-0.302529,-0.1940045
0.9735218,-0.2987589,-0.1931403
0.9738948,-0.297481,-0.1886213
0.973666,-0.2957318,-0.1833289
0.9755663,-0.2956049,-0.1827721
0.9766011,-0.2955919,-0.1836919
0.9746408,-0.2929106,-0.1854535
0.9730567,-0.2918385,-0.1865947
0.9744941,-0.2958874,-0.1871638
0.9767322,-0.3005859,-0.1863989
0.9763845,-0.2999359,-0.1812201
0.9762754,-0.2988087,-0.1766651
0.976598,-0.3000687,-0.1804732
0.9761466,-0.298146,-0.1859488
0.9765657,-0.297609,-0.1838241
0.9763498,-0.2978308,-0.1856031
0.9762854,-0.2947927,-0.1914107
0.9762204,-0.2965675,-0.1888144
0.9744159,-0.2981878,-0.1890796
0.9731763,-0.2950528,-0.1935388
0.9741081,-0.293093,-0.1921318
0.9775113,-0.291618,-0.1886403
0.9798291,-0.2947951,-0.1850001
0.9774273,-0.2995235,-0.1861969
0.9744131,-0.2988642,-0.1891846
0.9747274,-0.2987087,-0.1867945
0.9754786,-0.2955732,-0.1875482
0.9747,-0.2897168,-0.1900778
0.9751748,-0.2930345,-0.1901083
0.9761284,-0.2975348,-0.1909907
0.9765404,-0.2950507,-0.1910404
0.9775965,-0.294644,-0.192666
0.9778083,-0.2950839,-0.1937486
0.9776819,-0.2945539,-0.1906711
0.9769268,-0.2964415,-0.1867139
0.9759102,-0.2947111,-0.1820431
0.9761689,-0.2917307,-0.1824709
0.9746772,-0.2923979,-0.1865269
0.9729182,-0.295057,-0.1854999
0.9735435,-0.299838,-0.1861948
0.9739145,-0.3011746,-0.1896731
0.9734693,-0.3004766,-0.1904876
0.9735235,-0.300105,-0.1906774
0.973438,-0.2958458,-0.1903317
0.9718824,-0.2948717,-0.1919344
0.9711614,-0.2962722,-0.1940359
0.9724172,-0.2938437,-0.1928438
0.9727563,-0.2934204,-0.1924596
0.9728142,-0.294893,-0.1915974
0.9742513,-0.2955676,-0.1895013
0.9756933,-0.2955902,-0.1908697
0.9765376,-0.2938564,-0.1942842
0.9767586,-0.291863,-0.196641
0.9759325,-0.2923184,-0.1959199
0.9752354,-0.2960157,-0.1933586
0.9741611,-0.2992335,-0.1927743
0.9729197,-0.3002947,-0.1926995
0.9738165,-0.2994898,-0.1918094
0.9738542,-0.2981144,-0.1921564
0.973011,-0.3005276,-0.1934805
0.9730584,-0.3019989,-0.1940713
0.9718317,-0.2992572,-0.1959555
0.9721832,-0.2980192,-0.1993928
0.9737497,-0.2981917,-0.1984269
0.9744168,-0.2965785,-0.195121
0.9749676,-0.2924928,-0.194299
0.9721332,-0.2904785,-0.1937446
0.9688124,-0.2924133,-0.1937162
0.9697309,-0.2941688,-0.1915833
0.9726243,-0.297517,-0.1879872
0.9755823,-0.3009538,-0.1875478
0.9772903,-0.3011587,-0.1881336
0.9777551,-0.3022269,-0.1903198
0.9766125,-0.3028644,-0.1909216
0.9731912,-0.299928,-0.1891966
0.9709543,-0.2976319,-0.1889686
0.970487,-0.2985229,-0.1877635
0.969235,-0.2991068,-0.1914705
0.9691478,-0.2986422,-0.1967042
0.9711418,-0.3003872,-0.1950313
0.9728183,-0.3021592,-0.1971496
0.9736698,-0.3011874,-0.2018537
0.9721426,-0.300012,-0.2000081
0.9701454,-0.2990813,-0.1973909
0.9726385,-0.2981761,-0.1954601
0.9747031,-0.2980896,-0.1916741
0.9732865,-0.2959798,-0.1914623
0.9734213,-0.2925159,-0.1926715
0.9739198,-0.292536,-0.1904653
0.9734092,-0.2934628,-0.1897813
0.9743747,-0.2921073,-0.188054
0.9772348,-0.2923533,-0.1869084
0.9801782,-0.2943792,-0.1919461
0.9789425,-0.2955229,-0.1940736
0.9747319,-0.2980721,-0.1929374
0.9729336,-0.3018999,-0.1929747
0.9733565,-0.3011421,-0.1928933
0.9741487,-0.2952549,-0.1934062
0.9745077,-0.2919347,-0.1924327
0.9749674,-0.2945554,-0.1908928
0.975251,-0.2973114,-0.1880741
0.9737835,-0.2966356,-0.1854142
0.9733047,-0.2971881,-0.1865675
0.9738243,-0.2997742,-0.1875278
0.9734453,-0.2999497,-0.1902316
0.9740811,-0.2988065,-0.1931293
0.9757432,-0.2966578,-0.1926811
0.9786115,-0.2948649,-0.1947981
0.9794018,-0.2961526,-0.1966546
0.9752044,-0.296026,-0.1946014
0.9722356,-0.2956133,-0.192975
0.9725913,-0.2970939,-0.1929624
0.9725168,-0.2972855,-0.1927515
0.9720153,-0.2975277,-0.1912193
0.9731573,-0.2980403,-0.1899718
0.9741685,-0.2982412,-0.1909178
0.972834,-0.2957462,-0.1918031
0.9708935,-0.2904948,-0.1884301
0.9689985,-0.2891858,-0.1841426
0.97014,-0.2899489,-0.1852929
0.9740578,-0.2893647,-0.1884308
0.9758424,-0.2897833,-0.1878766
0.9783842,-0.2909321,-0.1854479
0.9820008,-0.2927438,-0.1843132
0.9831813,-0.2933853,-0.1830126
0.9803849,-0.2910282,-0.182765
0.9759612,-0.2898859,-0.1840475
0.9771294,-0.2923655,-0.1835808
0.9772752,-0.2945324,-0.1859469
0.9732166,-0.2936257,-0.1897516
0.9741711,-0.2916873,-0.1889838
0.9741786,-0.2913026,-0.1891252
0.9729353,-0.2918702,-0.1919636
0.9761217,-0.2916665,-0.1950045
0.977188,-0.2915576,-0.1965513
0.9779942,-0.2917884,-0.1946721
0.9793305,-0.2917683,-0.1906951
0.9764661,-0.2925749,-0.1873921
0.9739976,-0.2933638,-0.1885294
0.9747858,-0.2929239,-0.1890137
0.9757931,-0.2920118,-0.1863763
0.9755876,-0.291461,-0.1876035
0.9766587,-0.2916062,-0.1884337
0.9778442,-0.2923147,-0.1887543
0.9774366,-0.2946683,-0.1919924
0.9775918,-0.2983965,-0.1913736
0.9750887,-0.2991792,-0.1905218
0.9719092,-0.2960329,-0.1934509
0.971621,-0.2935475,-0.1953021
0.971597,-0.2933908,-0.1955907
0.9738434,-0.2933575,-0.1933552
0.974664,-0.2914047,-0.1905486
0.973019,-0.2892489,-0.1912996
0.9756006,-0.2903047,-0.1914551
0.9777098,-0.2910352,-0.1895599
0.9777962,-0.2909405,-0.1899728
0.979504,-0.2941479,-0.1899226
0.978479,-0.2964868,-0.1881545
0.9760382,-0.2975412,-0.1887406
0.9759528,-0.2993039,-0.18838
0.9747509,-0.298138,-0.187869
0.972752,-0.2955594,-0.1929995
0.9725984,-0.2939294,-0.1971322
0.9723286,-0.2940163,-0.1935333
0.9720682,-0.2950256,-0.1897738
0.9733007,-0.2942329,-0.1911925
0.973946,-0.2942447,-0.1889348
0.9735206,-0.2950022,-0.1840815
0.9735754,-0.2953923,-0.1862854
0.9736635,-0.2979807,-0.1880257
0.9735779,-0.2993819,-0.1869913
0.9736308,-0.2978605,-0.1888928
0.973595,-0.2954608,-0.1896499
0.9736238,-0.2919911,-0.1913366
0.9737869,-0.2907362,-0.1934204
0.9744926,-0.2909957,-0.1893814
0.9752965,-0.286442,-0.1850279
0.9752591,-0.2820821,-0.185562
0.9757033,-0.2864987,-0.1855525
0.9767614,-0.2911971,-0.1823242
0.9765247,-0.2885769,-0.1811583
0.9757294,-0.2885112,-0.1821501
0.9747848,-0.2925673,-0.1810089
0.9732658,-0.2925419,-0.1801712
0.9743124,-0.2887283,-0.1807745
0.9767527,-0.2848198,-0.1817017
0.9764723,-0.286454,-0.1831068
0.9763668,-0.2904365,-0.183622
0.9775054,-0.2904301,-0.1838763
0.9771593,-0.2928336,-0.1858647
0.9743881,-0.2940588,-0.1884069
0.971677,-0.2907905,-0.1876931
0.9753455,-0.2896289,-0.1849425
0.9793547,-0.2866949,-0.1818277
0.9748924,-0.2849704,-0.1777521
0.9721049,-0.287519,-0.1784506
0.9754298,-0.2896835,-0.1810671
0.9776658,-0.2936717,-0.1801589
0.979754,-0.2947796,-0.179936
0.9814057,-0.2926012,-0.1778229
0.9798759,-0.2918981,-0.1783355
0.9775817,-0.2885644,-0.1838327
0.9757242,-0.2864265,-0.1833748
0.9752034,-0.288112,-0.182582
0.9761952,-0.2889037,-0.1825389
0.9767568,-0.2885175,-0.1800166
0.978225,-0.2876952,-0.1826767
0.9798108,-0.2875225,-0.1834882
0.9789885,-0.2855475,-0.1829159
0.9780295,-0.2830468,-0.1856828
0.9775171,-0.2843854,-0.1843559
0.9768923,-0.2835671,-0.1829291
0.9770248,-0.2833598,-0.1832055
0.9769764,-0.2901327,-0.1838664
0.976377,-0.2957549,-0.1859976
0.976089,-0.2968681,-0.1864183
0.9765497,-0.295619,-0.186573
0.9766782,-0.2952352,-0.1874448
0.9772057,-0.2965992,-0.188793
0.9791499,-0.2954514,-0.1882367
0.9791502,-0.2956598,-0.1867539
0.9769741,-0.2963882,-0.1882675
0.9750501,-0.2952288,-0.1897494
0.9746592,-0.2958411,-0.1927498
0.9762002,-0.2938703,-0.1928471
0.9761632,-0.290769,-0.1871423
0.9735681,-0.2887677,-0.1861519
0.9714645,-0.2857193,-0.186465
0.9718489,-0.2864048,-0.1838038
0.972888,-0.29009,-0.1829456
0.9724519,-0.2925968,-0.1809618
0.9754329,-0.2920907,-0.1779972
0.9814038,-0.2908632,-0.1778197
0.9838517,-0.2919161,-0.1746705
0.9835611,-0.2907063,-0.1707384
0.9828584,-0.2886854,-0.1812762
0.981766,-0.288757,-0.1938981
0.9783099,-0.2878809,-0.1891484
0.9752591,-0.2876503,-0.184425
0.9781441,-0.2894254,-0.1869861
0.9804408,-0.2915734,-0.1842426
0.9784115,-0.2915208,-0.1826835
0.9769634,-0.2907962,-0.1850019
0.9751557,-0.2937263,-0.1870202
0.9733981,-0.2951317,-0.1927429
0.9736461,-0.2919097,-0.192282
0.9736415,-0.289216,-0.1831431
0.973851,-0.2884053,-0.1808772
0.9755489,-0.2888896,-0.1799021
0.976836,-0.288449,-0.1749428
0.9765988,-0.2848874,-0.1769494
0.9769569,-0.2814295,-0.1823549
0.9811177,-0.2820355,-0.1868056
0.985759,-0.2860965,-0.1911428
0.9852846,-0.2885131,-0.1868223
0.9828639,-0.2879671,-0.180255
0.9796927,-0.2890292,-0.1836322
0.9749036,-0.2919072,-0.1847414
0.9753957,-0.2922777,-0.181615
0.9775539,-0.29112,-0.1822822
0.9739235,-0.2918036,-0.1774203
0.9728753,-0.2922483,-0.1729167
0.9751828,-0.2934491,-0.1764097
0.9749244,-0.2970502,-0.1771
0.9753302,-0.2972014,-0.1764922
0.9762438,-0.2931342,-0.18164
0.97821,-0.2897105,-0.1939375
0.9798397,-0.2896411,-0.2041384
0.9770681,-0.2907926,-0.200244
0.9756345,-0.2891733,-0.1941182
0.9769177,-0.2881792,-0.1925917
0.9782609,-0.2886942,-0.1872513
0.9793303,-0.2888702,-0.1866876
0.9771311,-0.2908946,-0.1930818
0.9736026,-0.2918708,-0.1962308
0.9719305,-0.2923389,-0.1972482
0.9714379,-0.2946469,-0.1929057
0.971863,-0.2945319,-0.1871596
0.9741092,-0.2932413,-0.1900537
0.975953,-0.2935485,-0.1924794
0.9753579,-0.2960536,-0.1931179
0.9773444,-0.3009175,-0.1951599
0.9804076,-0.3027021,-0.1935036
0.9792373,-0.3014522,-0.1924524
0.9785632,-0.3006298,-0.193255
0.9794332,-0.2971713,-0.1931165
0.9776781,-0.2938407,-0.1931612
0.9746163,-0.2939496,-0.1939106
0.9729385,-0.2943996,-0.1946671
0.9735454,-0.2975163,-0.1935324
0.9749937,-0.3003874,-0.193328
0.9750644,-0.297975,-0.1966973
0.9747689,-0.2977333,-0.1992658
0.9742304,-0.2972543,-0.1961209
0.9728242,-0.2918899,-0.1911465
0.9716308,-0.2913155,-0.1892092
0.969638,-0.2948076,-0.1856061
0.96889,-0.2964832,-0.1826791
0.9711374,-0.2962567,-0.1856999
0.9728926,-0.2954769,-0.190925
0.9741686,-0.2983022,-0.1948469
0.9748244,-0.3011688,-0.1931862
0.9742297,-0.3008867,-0.1902879
0.972519,-0.2981345,-0.1897803
0.9689882,-0.2944681,-0.1867445
0.9684838,-0.2964834,-0.188949
0.9692375,-0.2987,-0.1939984
0.966504,-0.2973861,-0.1917357
0.9670405,-0.2989246,-0.1874918
0.9716609,-0.298899,-0.1825097
0.9746551,-0.2969034,-0.1827866
0.9742318,-0.2962652,-0.1899927
0.9726629,-0.2945232,-0.1936212
0.9739401,-0.29425,-0.1939953
0.9741834,-0.2955977,-0.1875241
0.9737979,-0.2959877,-0.1810347
0.9756377,-0.2959618,-0.187898
0.9739163,-0.295484,-0.192598
0.9719497,-0.2951529,-0.1878873
0.972786,-0.2948237,-0.1859315
0.9739035,-0.2940384,-0.1860698
0.9766199,-0.2929535,-0.1834701
0.9769189,-0.2928616,-0.1820139
0.9756609,-0.2952497,-0.1822156
0.9758014,-0.2957353,-0.1801368
0.9746773,-0.2920674,-0.1808298
0.9747756,-0.2899041,-0.1831618
0.975568,-0.2934418,-0.1816591
0.9756264,-0.297197,-0.1836884
0.9761871,-0.2932372,-0.1896747
0.9739055,-0.2897373,-0.1936334
0.9715927,-0.2923419,-0.1918779
0.9751474,-0.2923328,-0.1837514
0.9796189,-0.2922709,-0.1787544
0.9788784,-0.2931871,-0.1799982
0.975206,-0.2912475,-0.1810848
0.972506,-0.2933312,-0.1790483
0.9731867,-0.2970027,-0.1789331
0.97699,-0.2962627,-0.1846017
0.9793862,-0.2930945,-0.1866613
0.9787381,-0.2888698,-0.1824161
0.9776037,-0.2892168,-0.1787686
0.9770018,-0.2908917,-0.1771933
0.9759487,-0.2878287,-0.1759499
0.9751568,-0.2892387,-0.1757887
0.9752087,-0.2935541,-0.1822754
0.97451,-0.2942012,-0.1857423
0.9741343,-0.2931015,-0.176621
0.9736425,-0.2887747,-0.1691944
0.9730857,-0.2882503,-0.1704023
0.9744488,-0.2925847,-0.1736706
0.9753058,-0.2960558,-0.1739272
0.9769883,-0.2994033,-0.1741311
0.9788688,-0.2945976,-0.1785075
0.9787251,-0.2892591,-0.1815806
0.9788286,-0.2942303,-0.181153
0.9774911,-0.2965909,-0.1797806
0.9782199,-0.2950665,-0.181488
0.9799133,-0.2942431,-0.1856877
0.9768656,-0.2928085,-0.1887474
0.9761142,-0.2949737,-0.1920715
0.9783986,-0.298616,-0.1928705
0.9794471,-0.298592,-0.1910959
0.9782831,-0.2953323,-0.1864184
0.9751046,-0.2918094,-0.1808332
0.9748491,-0.2907613,-0.1803448
0.976733,-0.2910551,-0.1807192
0.9801125,-0.2901829,-0.1834117
0.9833631,-0.2896568,-0.1861389
0.9812125,-0.2898206,-0.1863754
0.9777596,-0.2885005,-0.1927294
0.9758221,-0.2889342,-0.1968459
0.9752458,-0.2914037,-0.1902826
0.9744535,-0.2930852,-0.1821609
0.9717036,-0.2950193,-0.1827686
0.9742916,-0.294323,-0.1878
0.9785067,-0.2913346,-0.1892733
0.9770997,-0.2904802,-0.1911486
0.9782847,-0.290778,-0.1904788
0.980373,-0.2905008,-0.1886332
0.9785952,-0.2902356,-0.1876791
0.9790623,-0.2917892,-0.1829468
0.9790872,-0.2924395,-0.1831066
0.9758507,-0.2910022,-0.1835747
0.9735349,-0.2921231,-0.1804452
0.9733848,-0.2938174,-0.1822334
0.975725,-0.294145,-0.1814482
0.977078,-0.2931893,-0.1798974
0.9761935,-0.2906754,-0.183045
0.9763432,-0.2918103,-0.1846898
0.9764595,-0.2942437,-0.1857623
0.976523,-0.2943215,-0.1882197
0.9773309,-0.2952207,-0.1900908
0.9779737,-0.2960472,-0.1856603
0.9772618,-0.2973535,-0.1792387
0.9739306,-0.2968406,-0.1817746
0.9714203,-0.293657,-0.183465
0.9727842,-0.2935215,-0.1815588
0.975041,-0.2931235,-0.1874755
0.9754712,-0.292838,-0.1942778
0.9747339,-0.2958123,-0.1945976
0.9728837,-0.2978684,-0.1906725
0.9725796,-0.2987315,-0.1863993
0.9747433,-0.2959226,-0.1870325
0.9734641,-0.2919234,-0.1873268
0.9730137,-0.2921347,-0.185291
0.9760605,-0.2918906,-0.1863602
0.9773398,-0.2921691,-0.1873397
0.9800266,-0.2937074,-0.1874043
0.9797038,-0.2929789,-0.1881719
0.9768067,-0.2928326,-0.1890535
0.9775141,-0.2932854,-0.1908362
0.9755305,-0.2938425,-0.1906518
0.9741717,-0.2975119,-0.1898349
0.9739626,-0.301598,-0.191515
0.972961,-0.30139,-0.1928872
0.9761552,-0.300438,-0.1959412
0.9765332,-0.3011503,-0.1995412
0.9742462,-0.2996894,-0.1949851
0.9734311,-0.2992478,-0.1854408
0.9731938,-0.2998867,-0.181757
0.9753526,-0.2975498,-0.185175
0.9759649,-0.2966363,-0.1884267
0.9764227,-0.2961094,-0.1874924
0.9765623,-0.2959134,-0.1861443
0.9739347,-0.2981817,-0.1840618
0.9734542,-0.2972187,-0.1816377
0.9736278,-0.2966059,-0.184915
0.9747021,-0.2979214,-0.1870989
0.9764679,-0.296993,-0.1861214
0.9763045,-0.2981209,-0.1887972
0.9766409,-0.2991798,-0.188174
0.9753317,-0.2979639,-0.188174
0.9718257,-0.2969268,-0.1910131
0.969299,-0.2952734,-0.1881161
0.9731705,-0.2959348,-0.1913339
0.9799439,-0.2981306,-0.1963325
0.9775109,-0.2984636,-0.1941674
0.9737664,-0.2965502,-0.1982415
0.9739841,-0.2923405,-0.201514
0.9729835,-0.2911795,-0.1987215
0.9750936,-0.2946578,-0.1953665
0.9764518,-0.296804,-0.1906665
0.9753313,-0.2961041,-0.1910919
0.9734131,-0.2967495,-0.1928618
0.9693097,-0.3004951,-0.1931323
0.9704165,-0.3013038,-0.1961876
0.9720407,-0.2958378,-0.1972793
0.9698954,-0.2912057,-0.1974424
0.9709069,-0.292621,-0.198476
0.970264,-0.2947828,-0.1968807
0.9695047,-0.295252,-0.1932097
0.9744537,-0.2987396,-0.1912986
0.9788254,-0.299722,-0.1894967
0.9793088,-0.2963612,-0.1860835
0.9781687,-0.2964206,-0.187609
0.9765645,-0.2960496,-0.1903686
0.9734773,-0.2960509,-0.1898978
0.9725583,-0.29827,-0.1907676
0.9745335,-0.2969118,-0.1901984
0.9733887,-0.2969269,-0.1898659
0.9735539,-0.2974245,-0.1910704
0.9760694,-0.2949239,-0.190716
0.9763979,-0.2945336,-0.1909581
0.9762465,-0.2960194,-0.1866749
0.9734782,-0.297967,-0.181946
0.971746,-0.2975387,-0.188005
0.9754247,-0.2964532,-0.1945371
0.9791423,-0.2978039,-0.1931593
0.9794094,-0.2971101,-0.1909014
0.9760622,-0.2965695,-0.1891742
0.9740793,-0.2955427,-0.1860289
0.9752719,-0.2917278,-0.1844088
0.9760865,-0.2912433,-0.1835722
0.9765915,-0.2930261,-0.1833442
0.9763975,-0.2941906,-0.1856021
0.9762997,-0.2948076,-0.1849576
0.9764902,-0.2944826,-0.1842196
0.9759298,-0.2958461,-0.1876587
0.9746985,-0.2988756,-0.1895293
0.9728216,-0.3004773,-0.190803
0.9721539,-0.2983978,-0.190623
0.9706408,-0.2961067,-0.1895166
0.9693681,-0.2968445,-0.1908775
0.9739417,-0.2949711,-0.1888928
0.9782165,-0.2917558,-0.1837195
0.9761351,-0.2933253,-0.1798792
0.9737091,-0.2955162,-0.1829149
0.9736968,-0.2958596,-0.1888853
0.9733736,-0.2963214,-0.1857045
0.9734524,-0.2965372,-0.1838217
0.9729675,-0.2973894,-0.1860176
0.9718044,-0.2979678,-0.1837952
0.9735471,-0.2985543,-0.1848127
0.9759297,-0.299293,-0.1853541
0.97671,-0.2930419,-0.1838276
0.9766236,-0.285074,-0.1855851
0.9760126,-0.2870414,-0.1855832
0.9765528,-0.2901016,-0.1873751
0.9765153,-0.2891237,-0.1903721
0.9757409,-0.2906398,-0.1910874
0.974875,-0.2907756,-0.1920077
0.9725847,-0.2904251,-0.189338
0.9719119,-0.2952053,-0.1858904
0.9726712,-0.298057,-0.1840852
0.9735289,-0.2947266,-0.1832661
0.9743071,-0.2916317,-0.1870891
0.973539,-0.2927788,-0.1903733
0.974895,-0.2935684,-0.1897137
0.9758357,-0.2928296,-0.1890684
0.9735032,-0.2939691,-0.188306
0.9741306,-0.2918041,-0.1851635
0.9749185,-0.2905417,-0.1830558
0.973772,-0.2956856,-0.1876141
0.9746949,-0.2959519,-0.1922774
0.9751227,-0.2926615,-0.190765
0.9749836,-0.2913253,-0.191044
0.974767,-0.2912547,-0.194315
0.9733496,-0.2946777,-0.1932696
0.9738213,-0.2967358,-0.1921456
0.9761968,-0.2983715,-0.1938079
0.9771608,-0.2991621,-0.1928714
0.9760851,-0.2960346,-0.1927169
0.9761213,-0.2955934,-0.1936182
0.9768819,-0.2958354,-0.1918794
0.9756863,-0.2955256,-0.1896485
0.974979,-0.2953243,-0.1865582
0.9751155,-0.2935252,-0.1872621
0.9763509,-0.2940943,-0.1913781
0.9773049,-0.2942754,-0.1913041
0.9756809,-0.2933377,-0.1891768
0.9763922,-0.2924035,-0.1873827
0.9769481,-0.2915068,-0.1904093
0.9758797,-0.2937758,-0.195085
0.9777124,-0.2958954,-0.1910537
0.9780388,-0.2986451,-0.1859789
0.977374,-0.2992497,-0.1844796
0.9767845,-0.2948342,-0.1849095
0.9738796,-0.2936415,-0.1881934
0.9724289,-0.2930675,-0.1880725
0.9726469,-0.2934839,-0.1884498
0.9732092,-0.2987513,-0.1908057
0.9729999,-0.3008894,-0.1891236
0.9723563,-0.2982818,-0.1884363
0.9725926,-0.295708,-0.1858818
0.9719881,-0.2955508,-0.1823431
0.9731273,-0.2947115,-0.1881441
0.9740954,-0.2943672,-0.1940044
0.972315,-0.2971239,-0.1917027
0.9720739,-0.2965015,-0.1895332
0.9723834,-0.2959054,-0.1893601
0.973102,-0.2959812,-0.1872092
0.9740407,-0.2922879,-0.1858694
0.9734723,-0.2914179,-0.1852945
0.9737832,-0.2928454,-0.1834159
0.974732,-0.295276,-0.1865498
0.9760938,-0.2977165,-0.1905889
0.9768693,-0.2966689,-0.1889453
0.9761722,-0.2955387,-0.1871684
0.9756645,-0.2943242,-0.1840946
0.9729219,-0.29575,-0.1843091
0.9694544,-0.2985514,-0.1888212
0.9695889,-0.2969247,-0.1889811
0.9704986,-0.2968408,-0.192145
0.9721557,-0.2974081,-0.1931606
0.9771601,-0.2946947,-0.1888345
0.9787215,-0.2922458,-0.1908995
0.9743766,-0.2913294,-0.1905565
0.972696,-0.2934944,-0.189332
0.9737931,-0.2951878,-0.1910079
0.9739109,-0.2933645,-0.1877721
0.9750029,-0.2930944,-0.1879452
0.9778388,-0.2962364,-0.192211
0.9802302,-0.2997504,-0.1954938
0.9780025,-0.2998426,-0.1943666
0.97227,-0.2979637,-0.1876144
0.9688072,-0.2984598,-0.1857067
0.9720868,-0.2986881,-0.1885084
0.97774,-0.2965296,-0.1913545
0.9768248,-0.2947774,-0.1900765
0.9769024,-0.2931023,-0.1840696
0.9791912,-0.2912469,-0.1810927
0.9757547,-0.2925023,-0.1797067
0.9752471,-0.2956683,-0.1818143
0.9767928,-0.2963097,-0.1849438
0.9775143,-0.2954562,-0.1842368
0.9798239,-0.2947805,-0.1848352
0.9754658,-0.2933072,-0.181852
0.9717765,-0.2926433,-0.1801556
0.9748414,-0.2930181,-0.1855674
0.9773763,-0.2922181,-0.188341
0.9794508,-0.2914744,-0.1862905
0.976866,-0.2925065,-0.1828486
0.9724134,-0.2935362,-0.1830003
0.9734934,-0.2930372,-0.182394
0.974165,-0.2929994,-0.1805577
0.9733722,-0.2947082,-0.1846403
0.9747777,-0.2976743,-0.1898339
0.9763115,-0.3012584,-0.1960223
0.9765641,-0.3014691,-0.1950167
0.9764051,-0.2972053,-0.1873976
0.9763048,-0.2933061,-0.1891854
0.9764092,-0.2912906,-0.1895864
0.9766365,-0.2904922,-0.1893616
0.977179,-0.2927291,-0.1957034
0.9779379,-0.2967001,-0.1980683
0.9764678,-0.2971728,-0.1983089
0.9731474,-0.2957665,-0.1924777
0.9716853,-0.2957299,-0.1833083
0.973139,-0.2938453,-0.1825084
0.9750312,-0.2923834,-0.1854171
0.9742746,-0.2937714,-0.1909258
0.9731198,-0.2957474,-0.1952968
0.9736901,-0.2976623,-0.1938343
0.9738892,-0.2954279,-0.1912323
0.9744082,-0.2914031,-0.1903035
0.9751384,-0.2918967,-0.1893278
0.9741985,-0.2948742,-0.182729
0.9731468,-0.2983929,-0.1742745
0.9737592,-0.2986204,-0.1736069
0.9747772,-0.2936628,-0.1829194
0.9754065,-0.2902803,-0.1903005
0.9769333,-0.2914026,-0.1840396
0.9782362,-0.2924447,-0.1793592
0.9777371,-0.2912771,-0.1837303
0.976821,-0.2914843,-0.1841308
0.9768882,-0.2921416,-0.1836515
0.9769906,-0.2912667,-0.1889722
0.9752111,-0.2914202,-0.1923679
0.9736494,-0.2900611,-0.1866535
0.9742853,-0.2880168,-0.1806658
0.9743946,-0.2891429,-0.183278
0.9732418,-0.2904292,-0.1846915
0.9726371,-0.2924235,-0.1822238
0.9730892,-0.295253,-0.1835423
0.9737559,-0.2944254,-0.1838656
0.9737687,-0.2914721,-0.1825794
0.9738424,-0.2915732,-0.1838396
0.9753683,-0.295362,-0.1839948
0.9774097,-0.2994569,-0.1865737
0.9782984,-0.3017805,-0.1899306
0.9785797,-0.3013162,-0.1862468
0.9760992,-0.2990217,-0.1832107
0.9724307,-0.2970442,-0.1852961
0.9750174,-0.2944306,-0.1877145
0.9776946,-0.2913381,-0.1911657
0.9738625,-0.2900175,-0.1938978
0.9719941,-0.2928838,-0.1906383
0.9733011,-0.2968025,-0.187288
0.9736865,-0.2960311,-0.1901486
0.9742225,-0.2952451,-0.1902512
0.9753546,-0.2965043,-0.1847746
0.9778049,-0.2966987,-0.1804635
0.9785005,-0.2981457,-0.1805891
0.9766475,-0.2981369,-0.1867066
0.9752716,-0.2953603,-0.1917474
0.972982,-0.2933652,-0.191666
0.9729426,-0.2909249,-0.1920952
0.9747188,-0.2894886,-0.1916186
0.9745899,-0.2913312,-0.1861604
0.9777896,-0.2949813,-0.1817329
0.9806037,-0.2981367,-0.1861723
0.9784217,-0.2969727,-0.1913333
0.9771041,-0.2944026,-0.1894688
0.9762564,-0.2952068,-0.1859471
0.9759072,-0.2947012,-0.1812802
0.9768798,-0.2936192,-0.1789938
0.9762343,-0.295967,-0.1812775
0.9762168,-0.2988438,-0.1817823
0.9763383,-0.3023398,-0.185539
0.9743581,-0.302139,-0.1924579
0.9731468,-0.29797,-0.1936471
0.9736507,-0.2977729,-0.1938783
0.9749433,-0.2969814,-0.1945125
0.9761084,-0.2956824,-0.1922571
0.9762523,-0.2964203,-0.1915094
0.9747235,-0.2951894,-0.1876058
0.9728302,-0.2956621,-0.1807849
0.9742275,-0.2944259,-0.1830825
0.9776752,-0.2918268,-0.1868925
0.9796785,-0.2936271,-0.1854298
0.9788115,-0.2941091,-0.1864503
0.9766341,-0.2943547,-0.1865428
0.9765888,-0.2943744,-0.1867107
0.9745476,-0.2912911,-0.1901969
0.9705208,-0.2898814,-0.1902722
0.9711462,-0.2908795,-0.1880196
0.9740627,-0.2928834,-0.1852627
0.9774006,-0.2944186,-0.1841049
0.9788929,-0.296101,-0.1869817
0.9771483,-0.2967089,-0.1880796
0.9775802,-0.2946063,-0.1879465
0.9772947,-0.2942327,-0.1901104
0.9752848,-0.2931676,-0.1919049
0.974627,-0.2930023,-0.189487
0.972319,-0.2953266,-0.1853374
0.9714854,-0.2924264,-0.1846891
0.9723824,-0.2907439,-0.1824746
0.9703229,-0.2931512,-0.180836
0.9687439,-0.2929683,-0.1862562
0.9694517,-0.2918844,-0.1933282
0.9700677,-0.2895314,-0.1979865
0.9710632,-0.2890374,-0.1922827
0.9727319,-0.2937844,-0.1850512
0.9725943,-0.2981073,-0.195837
0.9716566,-0.2979777,-0.2043592
0.9726597,-0.2961313,-0.1986029
0.9732517,-0.2962502,-0.196013
0.9737136,-0.2941553,-0.1916309
0.9749299,-0.2919264,-0.1847717
0.9749338,-0.2944512,-0.1878401
0.9753071,-0.2943661,-0.1926792
0.975939,-0.2913848,-0.1930208
0.9766022,-0.289719,-0.1926602
0.9776701,-0.2899636,-0.1884338
0.9773257,-0.2922349,-0.1848927
0.9761662,-0.2934427,-0.1888595
0.974479,-0.2948479,-0.191927
0.9743527,-0.2949811,-0.1909408
0.9746671,-0.2936523,-0.1913228
0.9720398,-0.2950726,-0.1912704
0.9722782,-0.2954156,-0.1904709
0.9754399,-0.2956582,-0.1936166
0.9768327,-0.2964609,-0.1969018
0.9770318,-0.2952858,-0.1920079
0.9767286,-0.2959824,-0.1837196
0.9779684,-0.2964391,-0.1818695
0.9773651,-0.2971769,-0.1892947
0.9753667,-0.2995504,-0.19883
0.9762321,-0.2984649,-0.1957945
0.9737245,-0.2972361,-0.1821892
0.970048,-0.2973927,-0.1731537
0.9708615,-0.2960234,-0.1761042
0.9721734,-0.292938,-0.1851464
0.973299,-0.2889518,-0.1871613
0.9742945,-0.2890189,-0.1860163
0.9753552,-0.2888492,-0.1874928
0.9768549,-0.2846501,-0.1881182
0.9764585,-0.2861317,-0.1898814
0.9749562,-0.2906134,-0.1897131
0.9739463,-0.2931957,-0.1892019
0.97337,-0.2975177,-0.1877037
0.9729668,-0.2974165,-0.1834747
0.97115,-0.2937413,-0.1881168
0.9688847,-0.2918747,-0.1926116
0.9717188,-0.2881136,-0.1898779
0.9780462,-0.2859053,-0.1923383
0.9806264,-0.2904642,-0.1967654
0.9810067,-0.2995432,-0.1967026
0.9813558,-0.3032713,-0.1906028
0.9785508,-0.2971882,-0.1832122
0.9742142,-0.2914146,-0.182939
0.9736131,-0.2898731,-0.1855583
0.9731673,-0.2939941,-0.1905377
0.96873,-0.3032812,-0.199228
0.9694276,-0.306619,-0.2005132
0.9750935,-0.3000369,-0.1954644
0.9765384,-0.2890118,-0.1935028
0.9742375,-0.2814967,-0.1870499
0.971381,-0.2799024,-0.1793444
0.9744851,-0.2819574,-0.1812563
0.9784766,-0.2847334,-0.1827253
0.9756967,-0.2831407,-0.1815583
0.9758015,-0.2835212,-0.18197
0.976317,-0.2894127,-0.1808698
0.9747373,-0.295366,-0.1811385
0.9788056,-0.3010714,-0.1840064
0.9813567,-0.30046,-0.1874356
0.977736,-0.2920267,-0.1876036
0.9743454,-0.2851748,-0.1857238
0.975177,-0.28713,-0.1831304
0.9748791,-0.2913681,-0.1754653
0.9690989,-0.2880141,-0.1736091
0.9673242,-0.2880351,-0.1799094
0.9727238,-0.2904865,-0.1808785
0.9786927,-0.2874442,-0.177842
0.9811403,-0.2883432,-0.1757431
0.9792075,-0.2888503,-0.1792039
0.9769261,-0.2920895,-0.18784
0.9759673,-0.3004105,-0.1919779
0.9758478,-0.2992181,-0.1898805
0.9743001,-0.2972489,-0.1840982
0.9692254,-0.2984024,-0.1786741
0.9674582,-0.2953555,-0.1770625
0.9718247,-0.2936304,-0.1805828
0.9750727,-0.2928192,-0.1882218
0.9737234,-0.2930763,-0.1918055
0.9731625,-0.29547,-0.1899959
0.9761664,-0.2968529,-0.1869546
0.9777944,-0.2962643,-0.1850166
0.978056,-0.2923745,-0.1841444
0.9788415,-0.2887843,-0.1810283
0.979139,-0.2894003,-0.1806299
0.9794667,-0.2934673,-0.1853405
0.9784569,-0.2967685,-0.1888619
0.9761888,-0.2935656,-0.1880117
0.9736078,-0.2896531,-0.1871168
0.9727044,-0.2910382,-0.1916622
0.9742702,-0.2914438,-0.193998
0.9735899,-0.2929285,-0.1895677
0.9731522,-0.297509,-0.1824606
0.974895,-0.29647,-0.1773613
0.9768183,-0.2954288,-0.181474
0.9799305,-0.2984467,-0.1855706
0.9777053,-0.2971697,-0.1826517
0.97285,-0.2967243,-0.1840878
0.9735771,-0.2988895,-0.1903751
0.9738404,-0.2980758,-0.1935868
0.9732948,-0.2967669,-0.1890134
0.974114,-0.2941356,-0.1817695
0.9742754,-0.2918649,-0.182655
0.9756921,-0.2923212,-0.1853434
0.977175,-0.294085,-0.1860098
0.9788077,-0.2977896,-0.1901277
0.9794241,-0.2978021,-0.1895897
0.9760921,-0.2953744,-0.1864943
0.9738989,-0.2968034,-0.1877986
0.9737986,-0.299858,-0.1854285
0.9716418,-0.3049756,-0.1828371
0.9691517,-0.3062856,-0.1831904
0.9696185,-0.3000229,-0.1812791
0.9726795,-0.295808,-0.1805791
0.9751825,-0.2942408,-0.1826633
0.9753127,-0.2927905,-0.1867391
0.9738159,-0.2938416,-0.1877944
0.9735852,-0.2958781,-0.1825403
0.9757921,-0.296273,-0.1795029
0.9775895,-0.2958301,-0.1820638
0.9773235,-0.2978906,-0.1842972
0.9753884,-0.3002127,-0.1814471
0.9734554,-0.2998379,-0.1792704
0.9724529,-0.2981687,-0.1815195
0.9745891,-0.296552,-0.1818378
0.9796386,-0.297137,-0.1810083
0.9787194,-0.2976363,-0.1798929
0.9720485,-0.2970551,-0.1797593
0.9685601,-0.2991302,-0.1807472
0.9713212,-0.3034204,-0.1756955
0.9752737,-0.3063326,-0.1727115
0.9718041,-0.3033535,-0.1792544
0.9690521,-0.2995416,-0.1867438
0.9719002,-0.3009285,-0.1894733
0.9714008,-0.2985631,-0.188813
0.9739256,-0.2938983,-0.1903702
0.977822,-0.2963473,-0.1912016
0.974277,-0.2994531,-0.1893721
0.9715991,-0.3000001,-0.1905891
0.9725841,-0.3005786,-0.19021
0.9743432,-0.2996071,-0.1875576
0.976723,-0.2993475,-0.1842543
0.9785829,-0.2977833,-0.1765809
0.9793994,-0.2945529,-0.1719125
0.9781435,-0.2957145,-0.1762818
0.9764414,-0.2974657,-0.1847801
0.9757349,-0.2998519,-0.1904665
0.9747123,-0.3056029,-0.1907123
0.9727963,-0.3069144,-0.1864753
0.971437,-0.3055287,-0.1777011
0.9710311,-0.3034531,-0.1715908
0.9717857,-0.2961292,-0.1767903
0.9754635,-0.2921667,-0.186489
0.9774569,-0.2936976,-0.1890091
0.9760844,-0.293706,-0.1860738
0.975905,-0.2946505,-0.1820108
0.974794,-0.2948848,-0.1793864
0.9733071,-0.2940006,-0.1874982
0.9752364,-0.2957309,-0.1970371
0.956936,-0.3041689,-0.226117
0.9598786,-0.3054457,-0.2271148
0.9608712,-0.3037722,-0.2210113
0.9629448,-0.3077458,-0.2147315
0.9633456,-0.3122697,-0.2229927
0.9610658,-0.3174754,-0.228303
0.9612905,-0.3204404,-0.2198966
0.9592522,-0.3186445,-0.2134937
0.9591872,-0.323186,-0.2170054
0.9616148,-0.3266173,-0.2179427
0.9600639,-0.325405,-0.2162656
0.9576705,-0.3233667,-0.2216325
0.954819,-0.3179948,-0.2236746
0.9561632,-0.3180047,-0.2154095
0.9611316,-0.3194817,-0.2087792
0.9612178,-0.3196702,-0.2137715
0.9601563,-0.3240192,-0.2223625
0.9595901,-0.3248745,-0.2250175
0.9594669,-0.3271278,-0.2284632
0.9610058,-0.3309465,-0.2282515
0.9603777,-0.3278253,-0.2206693
0.9603327,-0.3265605,-0.2179286
0.961466,-0.3266971,-0.2170232
0.9612722,-0.3239699,-0.2160067
0.9619992,-0.3238705,-0.2174061
0.9628912,-0.32394,-0.2177769
0.9635477,-0.3229203,-0.2212107
0.9634702,-0.3229718,-0.2242779
0.96126,-0.3211553,-0.2236134
0.958932,-0.3173598,-0.2230342
0.9597854,-0.3143848,-0.2208442
0.9631884,-0.3147183,-0.2175051
0.9638166,-0.3170955,-0.2128344
0.9611208,-0.3168964,-0.2076133
0.9577632,-0.3171874,-0.2060174
0.9566451,-0.3188249,-0.2074163
0.958236,-0.3174527,-0.2083412
0.9601017,-0.3153853,-0.2070934
0.9629787,-0.3113471,-0.2062573
0.9607447,-0.3071604,-0.2071969
0.9560869,-0.3093439,-0.208113
0.9589758,-0.3148984,-0.2117111
0.9600146,-0.3214487,-0.2190055
0.9590796,-0.3241555,-0.2212296
0.9616433,-0.3213928,-0.2184749
0.9618991,-0.3219188,-0.2194425
0.9619762,-0.3229793,-0.2185307
0.9593604,-0.3216171,-0.2115542
0.955193,-0.3224097,-0.2056117
0.957523,-0.3224084,-0.2057398
0.960548,-0.3200845,-0.2099688
0.9625164,-0.3132378,-0.2149708
0.9651243,-0.3036906,-0.2230187
0.9650544,-0.3054805,-0.225307
0.9633912,-0.3169022,-0.2225004
0.9606962,-0.3259458,-0.2278282
0.9585016,-0.3294555,-0.2273775
0.9574281,-0.3241361,-0.222317
0.9563127,-0.3197297,-0.2258979
0.9570675,-0.3231546,-0.2294233
0.9578022,-0.3226098,-0.2347694
0.959179,-0.3207726,-0.2334101
0.9620375,-0.3203415,-0.2218016
0.9605247,-0.3168647,-0.2180708
0.9586174,-0.3176601,-0.2187392
0.9605672,-0.3190449,-0.2204293
0.9616185,-0.3173092,-0.2214074
0.9626664,-0.3179044,-0.2193009
0.9630614,-0.3164949,-0.2184902
0.9617419,-0.3143416,-0.2151821
0.9616052,-0.3153853,-0.2166154
0.9601698,-0.3162705,-0.219196
0.9585945,-0.3187818,-0.218153
0.9579877,-0.3228808,-0.2241045
0.9546279,-0.3231779,-0.2280323
0.9534992,-0.3221065,-0.2295587
0.9564611,-0.3232419,-0.2299279
0.9576795,-0.3223525,-0.225525
0.9581618,-0.3214058,-0.2252418
0.9602198,-0.3223677,-0.2246504
0.9616607,-0.3194067,-0.2256673
0.9599602,-0.317064,-0.2278741
0.9566418,-0.3193406,-0.2258379
0.9541631,-0.3206504,-0.2270818
0.9528034,-0.3201231,-0.2260653
0.9547372,-0.319122,-0.224818
0.9578293,-0.3192513,-0.2256674
0.9593323,-0.319805,-0.2228831
0.9604774,-0.3190185,-0.2224389
0.9595388,-0.3182357,-0.2199552
0.9593052,-0.3161167,-0.2184826
0.9608728,-0.314442,-0.2203502
0.9619926,-0.3154271,-0.2166796
0.9645496,-0.3158733,-0.217281
0.9636244,-0.3168063,-0.2212125
0.9611702,-0.3195988,-0.2219012
0.9635755,-0.3227757,-0.2234483
0.9653983,-0.3254927,-0.2206361
0.9663754,-0.323671,-0.2183148
0.9644864,-0.3187388,-0.2210487
0.9586417,-0.3180349,-0.2218303
0.9577059,-0.3184516,-0.2235351
0.9587744,-0.317469,-0.2228417
0.9588065,-0.3196686,-0.2183063
0.9596081,-0.3243625,-0.2204431
0.9577341,-0.3285894,-0.2233537
0.9546917,-0.3250663,-0.2252273
0.9518476,-0.317213,-0.2321895
0.9530595,-0.3172671,-0.2341054
0.9593721,-0.315453,-0.2289178
0.9619475,-0.3091803,-0.2237752
0.9604267,-0.3084651,-0.2217574
0.9580986,-0.311179,-0.2207341
0.9584863,-0.3176424,-0.2183168
0.9626616,-0.3217462,-0.2244495
0.963773,-0.3212689,-0.2319177
0.9605699,-0.3222293,-0.2256718
0.9559473,-0.3185828,-0.2210419
0.9567536,-0.3152966,-0.2255751
0.962086,-0.3183216,-0.2269129
0.9636356,-0.3213063,-0.2268804
0.9636677,-0.3224262,-0.229435
0.9593883,-0.3188922,-0.2299716
0.9550772,-0.3132561,-0.2314828
0.9587448,-0.3114417,-0.2323226
0.9617391,-0.3128871,-0.2227528
0.9625553,-0.3148245,-0.2136749
0.9611339,-0.3153541,-0.2202912
0.9585105,-0.3146956,-0.227388
0.959583,-0.3102835,-0.222759
0.9582987,-0.3050055,-0.2222766
0.9559624,-0.3057562,-0.2261189
0.9569855,-0.3117571,-0.2275886
0.9573064,-0.3201292,-0.2373121
0.9566849,-0.3242274,-0.2437567
0.957466,-0.3212305,-0.2387319
0.9598202,-0.3196389,-0.2370189
0.9615528,-0.3216284,-0.2361915
0.959538,-0.3222376,-0.2352289
0.9535504,-0.3237356,-0.2368789
0.9504875,-0.3268469,-0.2362514
0.9557196,-0.3284291,-0.2385339
0.9632093,-0.3309595,-0.2443287
0.9638796,-0.3307143,-0.2458303
0.9559659,-0.3280351,-0.2391021
0.9485199,-0.3312927,-0.2293319
0.9499283,-0.33238,-0.2269991
0.9556504,-0.3275061,-0.229411
0.9579415,-0.3240984,-0.230707
0.9570603,-0.3193565,-0.2299943
0.9565872,-0.3089211,-0.2238303
0.9570062,-0.2995067,-0.2194689
0.9573324,-0.306679,-0.2256706
0.9576201,-0.3237892,-0.2355335
0.958277,-0.3314132,-0.2394082
0.9559408,-0.3320253,-0.2361951
0.9500725,-0.329623,-0.2331634
0.9476827,-0.3289469,-0.2332058
0.9502994,-0.330672,-0.2323168
0.9523303,-0.3297891,-0.2316685
0.9504463,-0.3327969,-0.2325426
0.9494537,-0.3331995,-0.2354988
0.9523229,-0.3321206,-0.2416225
0.952572,-0.3357948,-0.2457576
0.9491142,-0.3301483,-0.2460688
0.9459484,-0.3224604,-0.2482061
0.9457837,-0.3209295,-0.2503781
0.946959,-0.3212429,-0.2456856
0.9483733,-0.3250843,-0.2408963
0.9565206,-0.3254357,-0.2440392
0.9633645,-0.3254951,-0.2484482
0.9602337,-0.3305917,-0.2505375
0.957664,-0.3366372,-0.2498973
0.9558078,-0.3403278,-0.2447316
0.9520266,-0.338303,-0.2410705
0.9546204,-0.3375815,-0.2394712
0.958636,-0.3374772,-0.2367859
0.9548221,-0.3338298,-0.2367634
0.9508243,-0.3321706,-0.2372852
0.9488916,-0.3304404,-0.2367025
0.9448654,-0.3272113,-0.2411484
0.9477227,-0.3226991,-0.2464325
0.9523374,-0.3229476,-0.2432083
0.9493462,-0.3314972,-0.2364345
0.9494199,-0.3370689,-0.2300846
0.9509239,-0.3397939,-0.2239395
0.9493487,-0.3391986,-0.2271055
0.9501766,-0.3338368,-0.2356436
0.9502001,-0.3331436,-0.2399746
0.9496443,-0.3341106,-0.2436496
0.9503083,-0.33489,-0.2450171
0.9498511,-0.3353651,-0.2467352
0.9499782,-0.334205,-0.2535384
0.9503119,-0.3371773,-0.2585117
0.9507323,-0.339075,-0.2569414
0.9503531,-0.3375173,-0.251943
0.9439502,-0.3321558,-0.2495556
0.936071,-0.3222993,-0.2455648
0.9369865,-0.3210856,-0.241292
0.9442755,-0.326831,-0.2406669
0.9526086,-0.328777,-0.2360623
0.9596539,-0.3279075,-0.2373911
0.9576204,-0.328077,-0.2420052
0.9527184,-0.3329758,-0.2419749
0.9538563,-0.338299,-0.2514666
0.9512974,-0.340169,-0.2578232
0.9480329,-0.3413059,-0.2564424
0.947652,-0.342005,-0.2578801
0.9453358,-0.3417674,-0.2507534
0.9476066,-0.3413595,-0.2423015
0.9474622,-0.3420413,-0.2448518
0.9421629,-0.3426183,-0.2498614
0.9405529,-0.3427149,-0.2488417
0.9394455,-0.3414901,-0.2456625
0.9410565,-0.3382775,-0.2476818
0.9435039,-0.3375977,-0.2536038
0.9441661,-0.3379308,-0.2595929
0.9446131,-0.3381112,-0.2544859
0.9419358,-0.3407348,-0.2458206
0.9425812,-0.342596,-0.2507109
0.9418764,-0.3441752,-0.2516214
0.9368663,-0.3442383,-0.2486649
0.9375514,-0.3395741,-0.254803
0.9386064,-0.336324,-0.2574538
0.9392144,-0.3386282,-0.2597157
0.9411969,-0.342783,-0.2640117
0.9415874,-0.3447212,-0.2637804
0.9422437,-0.3458362,-0.2672314
0.9412857,-0.3479805,-0.2723785
0.9417003,-0.3493797,-0.2698209
0.9436387,-0.3505717,-0.2662152
0.9455883,-0.3525467,-0.2694027
0.9493893,-0.3561072,-0.27145
0.9488425,-0.3595019,-0.272829
0.9462625,-0.3582421,-0.2772242
0.9425314,-0.3536213,-0.2714802
0.9330746,-0.3474097,-0.2639406
0.9282728,-0.3427774,-0.2669369
0.9322786,-0.345713,-0.2673402
0.9367236,-0.3489923,-0.2649336
0.9378613,-0.3453629,-0.2653667
0.9367721,-0.343194,-0.2648825
0.9363423,-0.3437364,-0.2634559
0.939504,-0.3448656,-0.2632916
0.9426837,-0.350902,-0.268457
0.9391266,-0.3558784,-0.2742249
0.9368451,-0.357793,-0.2709959
0.9438308,-0.3600718,-0.2673201
0.9505505,-0.3586655,-0.2702081
0.9500201,-0.3537112,-0.2699502
0.944738,-0.3467525,-0.2679253
0.9396987,-0.3426159,-0.2666212
0.9359072,-0.3427176,-0.2590924
0.9327567,-0.3416558,-0.2523982
0.9352407,-0.3416474,-0.2505438
0.9393588,-0.3385896,-0.2496324
0.9374777,-0.3344975,-0.2519872
0.9365123,-0.3390943,-0.2535578
0.9391233,-0.3429734,-0.2524228
0.9418765,-0.3453693,-0.2516108
0.9491543,-0.3519462,-0.2502832
0.9526442,-0.3524959,-0.2493126
0.9435536,-0.3483902,-0.2482312
0.9374103,-0.348302,-0.2468054
0.9409349,-0.3483392,-0.2478289
0.9441924,-0.3448339,-0.2522247
0.9454243,-0.3392952,-0.2563589
0.9467246,-0.3363297,-0.255977
0.948011,-0.3405239,-0.2539981
0.9505136,-0.3451773,-0.25406
0.9520051,-0.3439847,-0.2543074
0.9479015,-0.3412026,-0.2549302
0.9432502,-0.3371771,-0.2576311
0.9435027,-0.3328469,-0.257136
0.9480715,-0.3314334,-0.249268
0.9553063,-0.330658,-0.2395787
0.9561619,-0.3275844,-0.2328934
0.9500661,-0.3221943,-0.2330672
0.9462839,-0.3227031,-0.2375896
0.9459445,-0.3281188,-0.2361457
0.9471063,-0.3288177,-0.2351539
0.947266,-0.331978,-0.2383178
0.9471516,-0.3380261,-0.2379821
0.9478208,-0.3414479,-0.2418504
0.9495824,-0.3448514,-0.2464656
0.9552144,-0.3398019,-0.2441078
0.9580202,-0.3311263,-0.2440445
0.9532461,-0.3298841,-0.2430523
0.9469817,-0.3256836,-0.2353126
0.9444944,-0.3220773,-0.2286551
0.9468625,-0.3254933,-0.2345198
0.9507698,-0.3258191,-0.2475049
0.9537141,-0.3274236,-0.2510482
0.9534552,-0.3325995,-0.2520791
0.9514601,-0.3338219,-0.256186
0.951359,-0.3360989,-0.2567835
0.9497569,-0.339494,-0.2560939
0.9491871,-0.3381008,-0.2539344
0.9508967,-0.3330351,-0.2485528
0.949655,-0.3275534,-0.2406444
0.9497294,-0.3255106,-0.2389589
0.9509405,-0.3241335,-0.2460787
0.9516215,-0.3217199,-0.2476668
0.9553292,-0.3215225,-0.2425366
0.9562578,-0.3187535,-0.2385586
0.9541221,-0.3142896,-0.2379361
0.9538689,-0.3155802,-0.235831
0.9532218,-0.3196954,-0.2312609
0.9522351,-0.3224582,-0.2339382
0.9509026,-0.3229148,-0.2349788
0.950234,-0.3208068,-0.230669
0.9534476,-0.317753,-0.2306098
0.956879,-0.3142816,-0.2292829
0.9561077,-0.314691,-0.2374374
0.9558628,-0.318852,-0.2528721
0.9595434,-0.320818,-0.2524561
0.9605088,-0.3242454,-0.2510881
0.9591739,-0.3301215,-0.2548047
0.9599661,-0.3336928,-0.250388
0.9584606,-0.3299623,-0.2453066
0.9533205,-0.3189389,-0.240524
0.9485072,-0.3169276,-0.240155
0.9500797,-0.3245714,-0.2454425
0.9541794,-0.3277078,-0.243381
0.9527561,-0.3258825,-0.2412674
0.9542648,-0.3200496,-0.2395813
0.9578728,-0.316644,-0.2339527
0.95668,-0.3182665,-0.2353681
0.9565663,-0.3200575,-0.2348809
0.9553698,-0.3244857,-0.2303408
0.9531058,-0.3287791,-0.2316477
0.95341,-0.3306864,-0.231859
0.9526823,-0.3322621,-0.2330603
0.952336,-0.3339411,-0.2361644
0.9521498,-0.3343845,-0.2368004
0.9511724,-0.3352533,-0.2396922
0.9521839,-0.3397866,-0.2392171
0.9529272,-0.339427,-0.23421
0.9506285,-0.3355581,-0.2317445
0.9474116,-0.3318814,-0.2320132
0.9470384,-0.3259812,-0.2379951
0.9491776,-0.3302107,-0.2414011
0.9502642,-0.3373634,-0.2374381
0.9478041,-0.3360668,-0.2388028
0.9434006,-0.3369377,-0.2404557
0.9412238,-0.3380607,-0.2405986
0.9406172,-0.3371833,-0.2461557
0.9400891,-0.3385763,-0.2486016
0.9404298,-0.3429246,-0.2500691
0.9412294,-0.3517334,-0.2515756
0.9419377,-0.358053,-0.2509825
0.9428088,-0.3607916,-0.2554345
0.9468373,-0.3689482,-0.2568047
0.9505174,-0.3748456,-0.255406
0.9434754,-0.3646297,-0.2605018
0.9325991,-0.3515268,-0.2638918
0.9333353,-0.3539984,-0.262702
0.9416021,-0.3604953,-0.261874
0.946262,-0.3612942,-0.2626889
0.9449523,-0.3608998,-0.2601745
0.9422553,-0.3560067,-0.2485567
0.9432772,-0.3516362,-0.2379265
0.9430891,-0.3525602,-0.2416878
0.9391233,-0.3510229,-0.2525028
0.9331769,-0.3457275,-0.255508
0.9273357,-0.3419718,-0.2558068
0.9321594,-0.347399,-0.2621494
0.9387398,-0.3573044,-0.2684935
0.935206,-0.3597402,-0.2669787
0.9344615,-0.3577834,-0.2605905
0.9345873,-0.354642,-0.2590124
0.9322908,-0.3508132,-0.2550511
0.934865,-0.3500839,-0.2508138
0.9361065,-0.3547954,-0.2584398
0.9355964,-0.3618155,-0.2616972
0.9347391,-0.3629498,-0.2600307
0.9331028,-0.3608793,-0.2625896
0.9370407,-0.357613,-0.2616544
0.9412092,-0.3528395,-0.2579036
0.9396144,-0.3572245,-0.2516857
0.9377351,-0.3660014,-0.2488482
0.9372476,-0.3668216,-0.2493372
0.9364028,-0.3614845,-0.2484207
0.9383986,-0.3542691,-0.2509645
0.9425645,-0.3515499,-0.2502143
0.9419625,-0.3526485,-0.2490683
0.9394067,-0.3520631,-0.2509803
0.937889,-0.3536164,-0.2496108
0.935799,-0.3551227,-0.2507341
0.9394891,-0.3532886,-0.2511683
0.9445688,-0.352374,-0.2489171
0.9427313,-0.3511627,-0.2481876
0.9406605,-0.3513372,-0.2458745
0.9402573,-0.3547327,-0.2452294
0.9407489,-0.3561114,-0.2462376
0.9451001,-0.3553349,-0.2450257
0.9485535,-0.3533779,-0.2421889
0.9473479,-0.3512739,-0.2387339
0.9455797,-0.351191,-0.2371444
0.9458943,-0.3514187,-0.2362845
0.9459351,-0.3514784,-0.2362932
0.9448805,-0.3511664,-0.2380675
0.9424914,-0.3502365,-0.2352158
0.9394608,-0.3491802,-0.2269407
0.9417115,-0.3487886,-0.2208825
0.9457251,-0.3495437,-0.2228608
0.9451998,-0.3486097,-0.2302804
0.9457392,-0.3485411,-0.2343763
0.9457252,-0.3518405,-0.235353
0.9416805,-0.3529019,-0.2360012
0.9406674,-0.3495009,-0.2353258
0.94642,-0.3437724,-0.2342655
0.953651,-0.3393401,-0.2293872
0.954122,-0.3346739,-0.2240709
0.9528338,-0.3287027,-0.2230953
0.9544548,-0.3312738,-0.2222652
0.9522232,-0.3392405,-0.2220594
0.9522158,-0.3431728,-0.2212779
0.9548715,-0.3464784,-0.223023
0.9534174,-0.3460013,-0.2281106
0.9531446,-0.3417442,-0.226882
0.9506544,-0.3395433,-0.2252376
0.9467286,-0.3371208,-0.2271131
0.9466176,-0.3371477,-0.2263167
0.9465523,-0.3381402,-0.2260821
0.9494584,-0.3372777,-0.22583
0.9521593,-0.3397375,-0.2217651
0.9519915,-0.3418231,-0.2192956
0.953089,-0.3417707,-0.2252896
0.9519006,-0.3423476,-0.2320116
0.9508146,-0.3440167,-0.2292446
0.9516319,-0.3463854,-0.2268486
0.9508062,-0.3434401,-0.2299617
0.9487164,-0.3401892,-0.2309665
0.9463886,-0.3428872,-0.2319734
0.9474337,-0.3435961,-0.2314484
0.9505814,-0.3417512,-0.2279612
0.9514361,-0.3417869,-0.2292967
0.9495654,-0.343484,-0.2317062
0.945913,-0.3450792,-0.232597
0.945632,-0.3445712,-0.2357952
0.9489954,-0.3438803,-0.237875
0.9506885,-0.3436007,-0.2385888
0.9502238,-0.3419226,-0.2390302
0.9493797,-0.3411039,-0.2389302
0.9494255,-0.3426513,-0.2388961
0.9494538,-0.3452923,-0.2387539
0.9498009,-0.3480967,-0.2383544
0.9505719,-0.3471512,-0.2350418
0.9493117,-0.3421684,-0.231292
0.9480851,-0.3382938,-0.2314281
0.9471093,-0.3366992,-0.2326282
0.9469261,-0.3386665,-0.2329697
0.950174,-0.3420299,-0.2349159
0.9531001,-0.3434556,-0.2390029
0.9541149,-0.3451645,-0.241323
0.9510641,-0.3450124,-0.2413615
0.946668,-0.3457071,-0.2415323
0.9486863,-0.3492821,-0.2421973
0.9495386,-0.3483433,-0.2437016
0.9475017,-0.3454239,-0.2456431
0.9476152,-0.34548,-0.2465094
0.9443596,-0.3510338,-0.2455359
0.9422813,-0.3582274,-0.2452655
0.946033,-0.3551332,-0.2448689
0.9488422,-0.3508551,-0.2439026
0.9499197,-0.3526788,-0.2462847
0.9515156,-0.3493257,-0.2461028
0.9501121,-0.3444763,-0.2420081
0.9437591,-0.3427967,-0.2395254
0.9401168,-0.3431723,-0.2353405
0.9427606,-0.3465562,-0.2320391
0.945195,-0.3455791,-0.2335072
0.9465841,-0.3421944,-0.2356901
0.9494108,-0.3407529,-0.2364403
0.9509046,-0.3394217,-0.2357623
0.9497555,-0.3416344,-0.2349613
0.9489906,-0.3417457,-0.236205
0.94669,-0.3382959,-0.2390498
0.9421782,-0.3370406,-0.2388283
0.9434354,-0.336054,-0.2373869
0.9493492,-0.3363444,-0.2394019
0.9520014,-0.3358995,-0.2387852
0.9493087,-0.3348384,-0.2358475
0.9454974,-0.3350506,-0.2358371
0.9478664,-0.3341454,-0.2361808
0.9527666,-0.3350234,-0.2358886
0.9573218,-0.3349206,-0.2342194
0.9615149,-0.3341638,-0.2327143
0.9575959,-0.3351419,-0.2322803
0.953147,-0.3336575,-0.2275975
0.9537909,-0.3337535,-0.2206238
0.9521712,-0.3337918,-0.2203919
0.9526095,-0.3300572,-0.2275329
0.9534294,-0.3270648,-0.2333408
0.9519122,-0.3254974,-0.2360363
0.9521029,-0.3245941,-0.2377302
0.9502222,-0.3232505,-0.2351009
0.9500252,-0.323956,-0.2325554
0.9541023,-0.3278935,-0.2360919
0.9565767,-0.3311925,-0.2397215
0.957248,-0.3327051,-0.2372385
0.9583058,-0.3319055,-0.2321913
0.960585,-0.3316128,-0.2295808
0.9588382,-0.3322802,-0.2300418
0.9525544,-0.3317608,-0.2324375
0.9489739,-0.3319731,-0.2362044
0.9500085,-0.3314803,-0.2427985
0.9527477,-0.3291503,-0.2441182
0.9513615,-0.3272546,-0.2362737
0.9504111,-0.3284354,-0.2333302
0.952492,-0.331011,-0.2358436
0.950844,-0.3302641,-0.2358524
0.9511826,-0.3281499,-0.2327134
0.9522879,-0.3257553,-0.2289335
0.9514781,-0.3240049,-0.2308559
0.9535601,-0.3251086,-0.2328889
0.9528429,-0.3243904,-0.2310467
0.952202,-0.323058,-0.2293816
0.9534409,-0.3247297,-0.2265442
0.9528556,-0.3253915,-0.2260088
0.9555932,-0.3248867,-0.2270195
0.9575605,-0.3242506,-0.227885
0.9551563,-0.3214507,-0.2300085
0.9533377,-0.3192869,-0.2293834
0.9542005,-0.3234092,-0.2296021
0.9556747,-0.3286347,-0.231276
0.9553574,-0.3265237,-0.230417
0.9558821,-0.3251168,-0.2303823
0.9565722,-0.3274555,-0.2311161
0.9568564,-0.326117,-0.2322321
0.9567282,-0.3257889,-0.2339004
0.9529487,-0.325291,-0.2335599
0.9503523,-0.3197235,-0.2332703
0.9523292,-0.3178242,-0.2354874
0.9571415,-0.3232781,-0.2376534
0.960581,-0.328402,-0.2375708
0.9561598,-0.325956,-0.2364796
0.9503681,-0.3237128,-0.236523
0.9519769,-0.3286638,-0.2396434
0.9574634,-0.3301395,-0.2429537
0.9609907,-0.3286502,-0.2419388
0.9595808,-0.3294304,-0.240689
0.954691,-0.3289815,-0.2410777
0.9506794,-0.3292559,-0.2388041
0.9498716,-0.3287095,-0.236354
0.9534559,-0.3262404,-0.2356779
0.9574257,-0.3248593,-0.2344158
0.9564572,-0.3265627,-0.2347606
0.9563293,-0.3308295,-0.2365421
0.9573498,-0.3302113,-0.2364449
0.9537326,-0.325531,-0.23488
0.9518765,-0.3228269,-0.2316604
0.9533068,-0.3237594,-0.2280155
0.9546329,-0.3263238,-0.2287831
0.9556033,-0.3247568,-0.2315007
0.9529355,-0.3243252,-0.229962
0.9506325,-0.3264743,-0.2298026
0.9530894,-0.3270525,-0.2345439
0.955057,-0.329877,-0.2353485
0.9531925,-0.3289956,-0.2314749
0.9518034,-0.3264621,-0.2296264
0.9523112,-0.3304377,-0.2323682
0.95077,-0.3349267,-0.2399058
0.9492208,-0.3377832,-0.2468101
0.9500309,-0.3340665,-0.2456105
0.9552088,-0.3274977,-0.2417856
0.9621679,-0.3294886,-0.2416641
0.958436,-0.3284615,-0.2375167
0.9497743,-0.3245162,-0.2327395
0.9480549,-0.3279107,-0.2333059
0.949705,-0.328916,-0.2352195
0.9557298,-0.3287696,-0.2406414
0.9641579,-0.3317669,-0.240224
0.9668936,-0.3311789,-0.2361238
0.9599622,-0.3296829,-0.2386734
0.9501789,-0.3283327,-0.2355578
0.9519116,-0.3268767,-0.2346908
0.9548186,-0.3281373,-0.2380895
0.9507121,-0.3276404,-0.2347918
0.9504688,-0.325341,-0.2362858
0.9484105,-0.3239509,-0.2372475
0.9472495,-0.323881,-0.2367192
0.950304,-0.3282754,-0.2404317
0.9488037,-0.3330543,-0.2386546
0.9503501,-0.3353246,-0.2383038
0.952767,-0.3390209,-0.2402293
0.9518411,-0.3397892,-0.2409316
0.9516755,-0.3355034,-0.2441863
0.9481579,-0.3316188,-0.2424914
0.9478258,-0.327701,-0.2377327
0.9498428,-0.3248219,-0.2344916
0.9485869,-0.3254816,-0.2309284
0.9497636,-0.3268339,-0.2290473
0.9501369,-0.3292741,-0.230163
0.9524874,-0.3316222,-0.2334938
0.9576841,-0.3337118,-0.2340713
0.9565334,-0.3371261,-0.2352456
0.9529295,-0.3348362,-0.2411836
0.9506501,-0.3317334,-0.2431834
0.9509075,-0.3348996,-0.2384676
0.9532302,-0.3354494,-0.2319592
0.9526341,-0.334885,-0.2321882
0.9526371,-0.3358567,-0.2375359
0.9529895,-0.3340342,-0.2389331
0.9509087,-0.3326187,-0.2415024
0.9487067,-0.3318278,-0.2396779
0.9463029,-0.3314956,-0.2321903
0.9470485,-0.3327267,-0.2308386
0.9491466,-0.3338135,-0.2267471
0.9498765,-0.3359688,-0.2250355
0.9540453,-0.336344,-0.2314722
0.9565145,-0.3329297,-0.2321618
0.9532656,-0.3311529,-0.2351104
0.950113,-0.3315541,-0.239129
0.9498192,-0.3304411,-0.2364908
0.9521982,-0.3290514,-0.2382327
0.9544596,-0.3316862,-0.2406961
0.9553458,-0.3356584,-0.2412803
0.9550076,-0.3357185,-0.2405829
0.9519585,-0.3376483,-0.2355968
0.9492706,-0.340964,-0.2355319
0.9513293,-0.3359168,-0.2368842
0.9541753,-0.3300953,-0.2352711
0.952436,-0.3312947,-0.2354359
0.9506798,-0.3297492,-0.2336719
0.9492119,-0.3245352,-0.2336119
0.9460774,-0.3246052,-0.2354974
0.9482685,-0.327657,-0.2354325
0.9516088,-0.3289411,-0.2390791
0.9512189,-0.3286774,-0.2415794
0.9515163,-0.3246449,-0.2340452
0.9505628,-0.3206081,-0.2257608
0.9502309,-0.3227206,-0.2300548
0.9512415,-0.3268274,-0.2384818
0.9507512,-0.3295874,-0.2400013
0.9524702,-0.3316257,-0.2361001
0.9549467,-0.3317615,-0.2273041
0.9568175,-0.3296965,-0.2239831
0.9584635,-0.3259151,-0.2269033
0.9550789,-0.3242197,-0.2276528
0.9503139,-0.3275569,-0.2317757
0.949136,-0.331364,-0.231651
0.9477592,-0.3325262,-0.228689
0.9499847,-0.3319131,-0.2314676
0.9566306,-0.3306502,-0.2286143
0.9570055,-0.3306674,-0.226847
0.9569426,-0.3314468,-0.2307802
0.9604659,-0.3321406,-0.2324489
0.9554742,-0.3322131,-0.2342148
0.9503469,-0.3315884,-0.2332675
0.9537238,-0.3319094,-0.232791
0.9561187,-0.3304674,-0.2343923
0.9570846,-0.3264261,-0.2346127
0.9569772,-0.3247787,-0.2380587
0.953765,-0.3282359,-0.2427561
0.9520272,-0.3319621,-0.2455298
0.9527226,-0.3287466,-0.2400259
0.9530802,-0.3254291,-0.231085
0.9522793,-0.327714,-0.2354868
0.9509111,-0.3281152,-0.2395561
0.9499841,-0.3275264,-0.2359475
0.9514487,-0.3279972,-0.237769
0.9542863,-0.3275701,-0.2371815
0.9555482,-0.327917,-0.2351621
0.9564393,-0.3277672,-0.2386617
0.954208,-0.3276549,-0.2385919
0.9500723,-0.3285117,-0.2350198
0.9537411,-0.3302711,-0.2316401
0.9576799,-0.3325066,-0.230972
0.9548354,-0.3301373,-0.2302084
0.9551677,-0.3259203,-0.2247075
0.9564991,-0.3251953,-0.2266036
0.9554918,-0.3252817,-0.2344659
0.9556503,-0.326603,-0.2368948
0.953672,-0.3283909,-0.2368765
0.9525502,-0.3267848,-0.2353913
0.9538629,-0.3247845,-0.2359408
0.9550004,-0.3249491,-0.2366146
0.9576229,-0.325049,-0.2327164
0.9567038,-0.3251274,-0.2296118
0.9545742,-0.3257813,-0.2276044
0.9578408,-0.3260635,-0.231574
0.9589927,-0.3266491,-0.2372373
0.9563079,-0.3287378,-0.2334494
0.9528629,-0.3318284,-0.2324453
0.9483982,-0.3338204,-0.2361406
0.9481615,-0.3328835,-0.2365796
0.9510008,-0.3311399,-0.2386087
0.9519505,-0.3313714,-0.2414273
0.9525541,-0.3294424,-0.2413242
0.9537167,-0.3246831,-0.2371939
0.9546241,-0.3242651,-0.2324566
0.9543615,-0.3256402,-0.2301503
0.9547484,-0.3241801,-0.2296482
0.9561345,-0.3223141,-0.2322919
0.9559013,-0.3201762,-0.2324047
0.9572236,-0.3208458,-0.2311252
0.9600791,-0.3243059,-0.2326815
0.9593385,-0.3261286,-0.2321724
0.9558264,-0.3287845,-0.2344076
0.953193,-0.331424,-0.2375012
0.9537803,-0.3303593,-0.2358121
0.9550891,-0.3273612,-0.235875
0.9547046,-0.3267495,-0.2367522
0.9544181,-0.3316937,-0.2377227
0.949831,-0.3359359,-0.2391815
0.9438906,-0.3316271,-0.2370408
0.9488707,-0.3268165,-0.2329299
0.9569259,-0.3297873,-0.2272259
0.9568076,-0.3319937,-0.2225269
0.9531649,-0.331356,-0.2270851
0.9493371,-0.3321308,-0.2369747
0.9503844,-0.3290644,-0.2407443
0.9573169,-0.3261731,-0.240988
0.9607895,-0.3263927,-0.2406719
0.9584749,-0.32468,-0.2376365
0.9550107,-0.3255333,-0.2355122
0.9541728,-0.3270418,-0.2328783
0.9529694,-0.3252418,-0.2340096
0.9506076,-0.325506,-0.2389286
0.9485298,-0.3304284,-0.2383827
0.9409778,-0.3378973,-0.2392072
0.9384884,-0.3401441,-0.2402046
0.9460324,-0.3353323,-0.2410592
0.9500224,-0.3317149,-0.2464139
0.9541653,-0.330032,-0.2457699
0.9572951,-0.3240491,-0.2442976
0.956219,-0.3173737,-0.2409822
0.9589951,-0.3203723,-0.2313292
0.9600276,-0.3261174,-0.2296543
0.9568386,-0.3263792,-0.2315124
0.9548247,-0.330589,-0.2342913
0.9561367,-0.3341317,-0.2383023
0.9576595,-0.3305522,-0.2386528
0.9547172,-0.3299542,-0.2419554
0.9534238,-0.3294709,-0.2383858
0.9542895,-0.3280935,-0.2314561
0.9530113,-0.3300532,-0.235587
0.9516855,-0.328981,-0.2365858
0.9512769,-0.3290619,-0.236684
0.9533104,-0.3316862,-0.2451019
0.9543591,-0.3318905,-0.2508476
0.9513838,-0.3323838,-0.250821
0.9490385,-0.331697,-0.2515732
0.9497592,-0.332092,-0.2548122
0.9506666,-0.3342582,-0.2506383
0.9496168,-0.3347421,-0.2423708
0.9502442,-0.3351966,-0.2426182
0.9522195,-0.334396,-0.2437676
0.952878,-0.3345787,-0.2444886
0.9532161,-0.334867,-0.2464747
0.9515351,-0.3323973,-0.2434718
0.9480625,-0.3316913,-0.2403414
0.9439883,-0.3317906,-0.2391186
0.9444156,-0.332027,-0.2392425
0.9519026,-0.3319827,-0.2399871
0.9545543,-0.3297569,-0.2385044
0.9480796,-0.3261518,-0.2386535
0.9423318,-0.3229489,-0.2396231
0.9458862,-0.3277358,-0.2397172
0.9521801,-0.3341059,-0.2387123
0.9531121,-0.3318571,-0.2352596
0.9559578,-0.3311034,-0.2348609
0.9550748,-0.3327585,-0.2354008
0.9504456,-0.3313967,-0.2324314
0.9535496,-0.3306327,-0.2327535
0.9533747,-0.3287749,-0.2350926
0.95159,-0.3272072,-0.2380486
0.9536502,-0.3297019,-0.24887
0.9512029,-0.3316005,-0.2561025
0.9495826,-0.3316709,-0.2504373
0.9474605,-0.3337404,-0.2474346
0.9450143,-0.3356346,-0.2495054
0.9487846,-0.3346502,-0.2468197
0.9511129,-0.334325,-0.2440304
0.9499669,-0.33475,-0.2463643
0.9495885,-0.332092,-0.2493835
0.9498645,-0.327708,-0.2496524
0.948729,-0.3256676,-0.2472889
0.9480855,-0.328511,-0.2430345
0.9506583,-0.3330861,-0.2420128
0.9505403,-0.3341097,-0.2447346
0.9492072,-0.3337128,-0.2473394
0.9504451,-0.3331768,-0.249643
0.9500044,-0.3314866,-0.2438638
0.9497303,-0.3317955,-0.2354564
0.9499427,-0.3334557,-0.2395898
0.9480353,-0.3343219,-0.2423425
0.9466984,-0.3350146,-0.237834
0.947808,-0.3348052,-0.2386883
0.9510963,-0.3343124,-0.2392766
0.9535675,-0.3339804,-0.2397328
0.9516728,-0.3330665,-0.2431347
0.9481616,-0.3332914,-0.2416349
0.9483457,-0.3349161,-0.2403006
0.9506164,-0.336618,-0.2402208
0.9503686,-0.3380878,-0.2376829
0.9494984,-0.3369902,-0.2389734
0.9501749,-0.3334192,-0.2398276
0.9501451,-0.3313707,-0.2388809
0.949752,-0.3324085,-0.2412265
0.9505116,-0.3341903,-0.2413478
0.9512619,-0.3331577,-0.2412595
0.9505116,-0.331511,-0.2424377
0.9474494,-0.3301177,-0.2411244
0.9442044,-0.3264886,-0.2417124
0.9429734,-0.3254873,-0.2422107
0.9439084,-0.3256522,-0.2408022
0.9479457,-0.3227015,-0.2369272
0.9504775,-0.3216146,-0.228731
0.9491019,-0.3230167,-0.2283156
0.9492817,-0.326474,-0.2373165
0.9502253,-0.331858,-0.2452086
0.9504813,-0.3352044,-0.2506791
0.9517464,-0.3367493,-0.2513019
0.953146,-0.3371914,-0.2492921
0.9539655,-0.3340092,-0.245942
0.9557886,-0.3291992,-0.2380205
0.9588466,-0.3280293,-0.2343908
0.9551605,-0.3274326,-0.2366389
0.9485404,-0.3262499,-0.2383923
0.950021,-0.3288988,-0.2402536
0.9515818,-0.3309318,-0.2405665
0.9509865,-0.3322777,-0.2412229
0.9513849,-0.3351887,-0.2458633
0.9483804,-0.3372054,-0.2510382
0.9463808,-0.3399422,-0.2510847
0.9473791,-0.3391902,-0.2487077
0.9485339,-0.3364943,-0.2504412
0.9497566,-0.3361185,-0.2483257
0.9501639,-0.3330375,-0.2384026
0.9501491,-0.3325751,-0.2302522
0.9499767,-0.3337248,-0.2291196
0.9509224,-0.3307573,-0.2311387
0.9521941,-0.3320528,-0.2318935
0.953018,-0.3357627,-0.2391103
0.9543486,-0.335311,-0.2450238
0.9526544,-0.3341899,-0.2401492
0.9503474,-0.335666,-0.2403456
0.9509405,-0.3363542,-0.2424889
0.9491081,-0.3329682,-0.2464552
0.9467558,-0.331147,-0.2590979
0.9505726,-0.3324774,-0.2609268
0.9539053,-0.3355107,-0.251422
0.9491322,-0.3409233,-0.2436553
0.9452951,-0.344593,-0.2415834
0.9480949,-0.3450374,-0.2460069
0.9506683,-0.3425047,-0.2480259
0.9524566,-0.3362956,-0.246578
0.9529278,-0.3300454,-0.243346
0.9487931,-0.3314904,-0.2392927
0.9461334,-0.3353222,-0.2394528
0.9488595,-0.3300672,-0.2404705
0.9530854,-0.325079,-0.2401107
0.9559601,-0.3224728,-0.2384369
0.9560357,-0.3199536,-0.2367355
0.9547586,-0.3271419,-0.2376126
0.9536737,-0.3339386,-0.2384213
0.9515221,-0.3355722,-0.2413782
0.9506686,-0.3384991,-0.2469688
0.9514681,-0.3375684,-0.247338
0.9494474,-0.3360181,-0.2413628
0.9468712,-0.3362113,-0.2370514
0.9475885,-0.3359124,-0.2383291
0.9502321,-0.3361097,-0.238063
0.9528824,-0.3344139,-0.2361954
0.9522916,-0.3306974,-0.2423068
0.9496958,-0.3267896,-0.2496468
0.950118,-0.3253832,-0.2483286
0.9522445,-0.3253859,-0.2467394
0.9543931,-0.3258605,-0.2478986
0.9565077,-0.3296688,-0.2462975
0.9564856,-0.3312434,-0.2447599
0.9535148,-0.328478,-0.2445124
0.9503235,-0.3271137,-0.2457457
0.9518074,-0.3282505,-0.2477972
0.9540815,-0.3310032,-0.2472182
0.952104,-0.3332543,-0.2488915
0.9515755,-0.332962,-0.2500376
0.9517702,-0.3312428,-0.2442007
0.950562,-0.3307719,-0.2401651
0.9508911,-0.3306691,-0.2421914
0.9497914,-0.328841,-0.244242
0.94949,-0.3272835,-0.2421259
0.9506795,-0.326135,-0.239026
0.9499531,-0.3275611,-0.2381322
0.9517719,-0.3324829,-0.2391643
0.9536477,-0.3350542,-0.2441893
0.9525784,-0.3342147,-0.2471043
0.9523061,-0.3295282,-0.245683
0.9511096,-0.3235057,-0.2457156
0.949775,-0.3232234,-0.24612
0.9515756,-0.3272304,-0.2477954
0.9540635,-0.3314086,-0.2487685
0.9544743,-0.3328257,-0.2450252
0.9547928,-0.3311881,-0.2363369
0.9558566,-0.3290908,-0.2293818
0.9569746,-0.3271477,-0.2349088
0.9584529,-0.3274104,-0.2422878
0.9547684,-0.3288803,-0.2418269
0.9490021,-0.3302085,-0.2412577
0.949707,-0.3326471,-0.2404995
0.9501523,-0.3320044,-0.2408178
0.9478261,-0.328426,-0.2447922
0.9469012,-0.3273158,-0.2481126
0.9472711,-0.3276769,-0.2499938
0.9497746,-0.3284382,-0.2482033
0.952214,-0.3305686,-0.2445312
0.9533174,-0.3319767,-0.2475443
0.9525973,-0.3297642,-0.2512381
0.9504649,-0.3263551,-0.2502197
0.9498542,-0.3275659,-0.2534884
0.949741,-0.3287822,-0.2571032
0.9503287,-0.3274778,-0.2540073
0.9512503,-0.3306643,-0.2476062
0.9521736,-0.3331332,-0.2411537
0.9534868,-0.3316473,-0.2416662
0.9524037,-0.3316534,-0.2441831
0.9514353,-0.3304518,-0.2392143
0.9506821,-0.3266868,-0.2383034
0.9492414,-0.3238127,-0.2453645
0.9502492,-0.3250575,-0.2476249
0.9505577,-0.3273118,-0.2420191
0.9515717,-0.3259263,-0.2362866
0.9545661,-0.3247061,-0.2370118
0.9548361,-0.3254748,-0.2399789
0.9556225,-0.3286919,-0.2438607
0.9576449,-0.3318678,-0.251285
0.9571415,-0.3306017,-0.2502814
0.9559634,-0.330341,-0.2424156
0.9544851,-0.3327695,-0.239348
0.9520528,-0.3335992,-0.2377071
0.9522055,-0.3320126,-0.2391195
0.9536108,-0.3287097,-0.2397158
0.9524224,-0.326999,-0.2376994
0.9516492,-0.3277245,-0.2389832
0.94885,-0.3281211,-0.2352552
0.9440003,-0.3270684,-0.2316429
0.9459995,-0.3250014,-0.2336056
0.9497175,-0.3230251,-0.2325464
0.9503048,-0.3231035,-0.231195
0.9522598,-0.3244504,-0.2300807
0.9530744,-0.324308,-0.2287708
0.9531387,-0.3249677,-0.2299264
0.9548031,-0.3256118,-0.2337254
0.9567795,-0.3244204,-0.2376472
0.9576618,-0.3251657,-0.2374175
0.9561928,-0.3257989,-0.2406097
0.9548643,-0.3272105,-0.2464956
0.9531538,-0.3303885,-0.2432031
0.9516801,-0.3295056,-0.2368541
0.9524124,-0.3296805,-0.2347983
0.9513556,-0.3333897,-0.2323216
0.9519114,-0.3346881,-0.2302384
0.9546527,-0.3348604,-0.2329399
0.9541332,-0.3342498,-0.2349442
0.9538722,-0.3314993,-0.229537
0.9533129,-0.3279382,-0.2252346
0.9513466,-0.325953,-0.2328491
0.9512316,-0.3266686,-0.2407742
0.9519233,-0.3273752,-0.2373288
0.9541319,-0.3278392,-0.2345399
0.9563809,-0.3279227,-0.2366943
0.9554098,-0.3265564,-0.2362779
0.9533007,-0.3263812,-0.2362652
0.9524205,-0.3278724,-0.2393984
0.9527145,-0.3308477,-0.2428466
0.9522025,-0.3338755,-0.2434671
0.9491769,-0.3330772,-0.2409695
0.946074,-0.3300881,-0.239401
0.9471952,-0.3276687,-0.2396408
0.9498692,-0.3276919,-0.2400987
0.9500487,-0.330905,-0.2420238
0.950138,-0.3329242,-0.2439639
0.949655,-0.3328815,-0.2433964
0.9479737,-0.3333034,-0.2443693
0.9475222,-0.3328518,-0.2466421
0.9496806,-0.3294858,-0.2439377
0.9534867,-0.3256998,-0.2382523
0.9531951,-0.325844,-0.2348491
0.9510209,-0.3268561,-0.2358782
0.9518196,-0.3252463,-0.2390887
0.952327,-0.3249511,-0.2397501
0.9541751,-0.3269654,-0.2393446
0.9563159,-0.3283083,-0.2379175
0.954874,-0.3275949,-0.2353349
0.952165,-0.3256131,-0.2344561
0.9503655,-0.3255274,-0.2328716
0.9516976,-0.3293503,-0.2333443
0.9528432,-0.3334812,-0.2368363
0.9523652,-0.3323075,-0.237807
0.953267,-0.3293211,-0.2378081
0.9524417,-0.3277361,-0.2392446
0.9516229,-0.3229446,-0.2471177
0.9516033,-0.3209835,-0.2559124
0.9515623,-0.3255859,-0.251197
0.955353,-0.3290897,-0.2446131
0.9571501,-0.3308773,-0.2441864
0.9525589,-0.3284309,-0.2361312
0.9482613,-0.3249142,-0.2274662
0.9497181,-0.329008,-0.2322071
0.9521862,-0.3330618,-0.2390888
0.9503034,-0.3335451,-0.2405905
0.9487274,-0.3344363,-0.2448909
0.9471051,-0.3364401,-0.2473166
0.9472459,-0.3395833,-0.2437686
0.9511054,-0.33651,-0.2423164
0.9510547,-0.3308829,-0.2427952
0.9520019,-0.3316456,-0.2475197
0.9539378,-0.3313239,-0.2546762
0.9520317,-0.3289343,-0.2511887
0.9527551,-0.3285646,-0.2424509
0.9518408,-0.3262956,-0.2396539
0.9487929,-0.3235033,-0.2436831
0.9484652,-0.3241268,-0.2506452
0.948844,-0.3272719,-0.2509968
0.9510907,-0.3302185,-0.2483803
0.9514132,-0.3317061,-0.2479399
0.9505091,-0.3300387,-0.2449535
0.9532512,-0.3249928,-0.2446284
0.9547698,-0.3219633,-0.2442834
0.9546265,-0.3227842,-0.2403019
0.9551953,-0.3253854,-0.2422922
0.9523761,-0.3274437,-0.2447469
0.948515,-0.3286282,-0.2444222
0.950725,-0.3326441,-0.2478924
0.9524974,-0.3353652,-0.2479189
0.9492135,-0.3319677,-0.2446631
0.9470906,-0.3274227,-0.2456957
0.9454818,-0.3269806,-0.2464594
0.947011,-0.3288862,-0.2450292
0.9528373,-0.3294833,-0.2437478
0.9546373,-0.3317533,-0.2409387
0.9517089,-0.3324093,-0.2396086
0.9487058,-0.3284613,-0.2425957
0.9497349,-0.3272113,-0.245436
0.9513657,-0.3282353,-0.2480812
0.9506326,-0.3305903,-0.2505577
0.952035,-0.3332854,-0.2476684
0.9517123,-0.3338355,-0.2447772
0.9511416,-0.3358936,-0.2486264
0.9513975,-0.3364461,-0.2509735
0.9452137,-0.3335863,-0.2469879
0.9418714,-0.3310261,-0.2445949
0.9464309,-0.3295617,-0.246039
0.9512108,-0.3288798,-0.2454767
0.9537149,-0.3278054,-0.2419085
0.9543226,-0.3296405,-0.2407157
0.9560867,-0.3343228,-0.2472859
0.9560391,-0.3348335,-0.2549457
0.954363,-0.3309131,-0.2518192
0.9539992,-0.3283021,-0.2447472
0.9503503,-0.3306848,-0.2432572
0.9490974,-0.3332829,-0.2436486
0.9515959,-0.3318635,-0.2461657
0.9512647,-0.3323428,-0.2493952
0.9505163,-0.3342301,-0.2497431
0.949728,-0.3329239,-0.2483967
0.9499569,-0.3321867,-0.2436362
0.9513116,-0.332072,-0.2390081
0.9502749,-0.3315389,-0.2380239
0.9462182,-0.332249,-0.2419327
0.9425861,-0.3317485,-0.2472316
0.9485431,-0.3308296,-0.2400393
0.9556516,-0.3309348,-0.2337247
0.9500007,-0.3320249,-0.2440891
0.9461871,-0.3341336,-0.2504113
0.9499422,-0.3333711,-0.2473208
0.9496419,-0.3317999,-0.2489749
0.9495377,-0.3321639,-0.252959
0.9507987,-0.33119,-0.2513521
0.9494706,-0.3292665,-0.2482675
0.9498525,-0.327186,-0.2469755
0.9490964,-0.3269721,-0.2412725
0.9461009,-0.3277261,-0.2371948
0.9456731,-0.326128,-0.2400866
0.9473684,-0.3279941,-0.2419466
0.9514067,-0.331372,-0.2424697
0.9548819,-0.3304472,-0.2450787
0.9533896,-0.3303968,-0.2481987
0.9484285,-0.3308069,-0.2468674
0.9450123,-0.3304778,-0.2444818
0.9488873,-0.3318225,-0.2460394
0.9532181,-0.3330229,-0.2442755
0.9494599,-0.3336812,-0.2419054
0.9467148,-0.3333556,-0.2437609
0.947746,-0.3330688,-0.2446199
0.9462731,-0.3332535,-0.2439955
0.9471396,-0.331408,-0.241103
0.9500164,-0.3305128,-0.2397409
0.9504308,-0.3331712,-0.2448236
0.9528694,-0.335779,-0.2498759
0.9548899,-0.334432,-0.2507475
0.9530389,-0.3312933,-0.2498348
0.9512395,-0.3304137,-0.2495467
0.9501918,-0.3311403,-0.2485273
0.9495257,-0.3324627,-0.2446516
0.9481633,-0.3321916,-0.245095
0.9470449,-0.3318751,-0.2525289
0.9489136,-0.3350806,-0.2538357
0.9511337,-0.3358036,-0.2460124
0.9515692,-0.3307692,-0.2417826
0.951041,-0.3264955,-0.2428242
0.9497942,-0.3297749,-0.2424936
0.9485474,-0.3338917,-0.2416516
0.9488144,-0.3296466,-0.2432246
0.9496138,-0.3277741,-0.2451572
0.9496429,-0.3296115,-0.2436577
0.9485894,-0.3261195,-0.2421893
0.9469214,-0.3240819,-0.2434533
0.9498106,-0.3259246,-0.2431246
0.9538665,-0.3296801,-0.2427492
0.9527553,-0.3327856,-0.24284
0.9518869,-0.3295303,-0.2407134
0.9497427,-0.3262244,-0.2420348
0.9439876,-0.3278448,-0.2499016
0.9426374,-0.3288355,-0.2554737
0.9477123,-0.3293373,-0.2520328
0.9514781,-0.3329535,-0.247835
0.9483022,-0.3344614,-0.2473426
0.9457202,-0.3326465,-0.2466513
0.9481235,-0.3332457,-0.2484618
0.9492737,-0.3327403,-0.2492799
0.9498334,-0.3312466,-0.247206
0.9497097,-0.3323592,-0.2454899
0.9480048,-0.3328929,-0.2417163
0.9494632,-0.3334548,-0.2414404
0.9504328,-0.3334105,-0.2428956
0.947808,-0.3319341,-0.2415856
0.9466906,-0.3309683,-0.242718
0.9475694,-0.3296316,-0.2391069
0.94882,-0.327865,-0.2352386
0.9490873,-0.3263571,-0.243446
0.9485372,-0.3286694,-0.2496947
0.9500952,-0.3330184,-0.2446333
0.950749,-0.3322518,-0.2404931
0.9497601,-0.3308334,-0.2418967
0.9520161,-0.3307337,-0.2411339
0.9545614,-0.3281003,-0.2425846
0.9538962,-0.3264442,-0.2480096
0.951738,-0.324453,-0.2460353
0.9482184,-0.3233755,-0.2444377
0.9463277,-0.3284129,-0.24765
0.948439,-0.3333169,-0.2474676
0.9501512,-0.3372849,-0.247693
0.9492919,-0.3392458,-0.2449499
0.9464596,-0.3348452,-0.2416518
0.9436932,-0.3353568,-0.2436382
0.9459477,-0.3386728,-0.2411792
0.9495586,-0.3362968,-0.2396161
0.9484541,-0.3355543,-0.2440085
0.9472611,-0.3332513,-0.2468016
0.9476108,-0.3319315,-0.2471499
0.9479223,-0.3354987,-0.2425766
0.9499692,-0.334085,-0.2384858
0.9504947,-0.3339684,-0.2405515
0.9495835,-0.3355835,-0.2417594
0.9496735,-0.3314289,-0.2418764
0.947309,-0.3279042,-0.243591
0.9448876,-0.3255331,-0.2449614
0.9460564,-0.3257687,-0.2435503
0.9480756,-0.3276504,-0.2386834
0.9489429,-0.3266343,-0.2347273
0.9487036,-0.3285272,-0.2368939
0.948461,-0.3311091,-0.2448746
0.9486306,-0.3319231,-0.251673
0.9488655,-0.3320526,-0.2524978
0.9501561,-0.3277458,-0.2498833
0.9538284,-0.3252407,-0.2493646
0.956483,-0.3267327,-0.2504609
0.953893,-0.3274251,-0.2488219
0.9511909,-0.328043,-0.248197
0.9512575,-0.3281076,-0.24857
0.9500125,-0.3298071,-0.246573
0.9502098,-0.3330645,-0.2454662
0.952303,-0.3333716,-0.2453969
0.9511804,-0.3305945,-0.245234
0.9499738,-0.3284379,-0.2454611
0.9504643,-0.3308705,-0.250242
0.9505219,-0.3330987,-0.2565148
0.9514211,-0.3316574,-0.2536944
0.949922,-0.3320287,-0.2509441
0.9476565,-0.3340908,-0.2537964
0.9497105,-0.3350808,-0.2528106
0.9502697,-0.3347454,-0.2519845
0.9473367,-0.3333473,-0.2514515
0.944073,-0.3322697,-0.2447184
0.9422368,-0.3315004,-0.2376958
0.9450687,-0.3307802,-0.2367815
0.9505298,-0.3296299,-0.2409544
0.9539181,-0.3289851,-0.2448077
0.952298,-0.3312242,-0.2456533
0.9493391,-0.3336194,-0.2454645
0.9511619,-0.3328117,-0.2426792
0.952944,-0.3296117,-0.237984
0.9526072,-0.3267087,-0.2365305
0.952188,-0.3280942,-0.2380845
0.9475797,-0.3323534,-0.2397538
0.9417308,-0.3348728,-0.2413812
0.9414754,-0.3353128,-0.2433374
0.9467135,-0.3342446,-0.2468417
0.9515405,-0.3334425,-0.2508658
0.9520715,-0.3326134,-0.248337
0.9523262,-0.3308715,-0.243516
0.9510548,-0.3303005,-0.2461379
0.946324,-0.3289549,-0.2468957
0.9453827,-0.3288277,-0.244565
0.9488605,-0.331713,-0.2470598
0.9509231,-0.3322118,-0.2485944
0.9497696,-0.3315482,-0.2502081
0.948214,-0.3302638,-0.2499771
0.9493402,-0.3283585,-0.2428085
0.9502434,-0.3290599,-0.2368639
0.9485226,-0.3285558,-0.2356474
0.9476817,-0.3272073,-0.2415104
0.9482192,-0.3278511,-0.2498136
0.9477635,-0.3282781,-0.250914
0.9502289,-0.3294546,-0.2484805
0.9543134,-0.3309251,-0.2425968
0.9520953,-0.3299308,-0.2369193
0.9496855,-0.328801,-0.2401364
0.9503753,-0.3310221,-0.2462281
0.9480346,-0.3330398,-0.2471034
0.9479756,-0.3322729,-0.241872
0.9497125,-0.3319689,-0.2383719
0.9489629,-0.3323528,-0.2457296
0.9502662,-0.3341843,-0.254346
0.9508362,-0.3359526,-0.2514918
0.9511335,-0.3346311,-0.2475965
0.9530027,-0.3336342,-0.248574
0.9494103,-0.3325121,-0.2462904
0.945806,-0.3317162,-0.245964
0.9493011,-0.3324803,-0.2467528
0.9521187,-0.3300894,-0.246554
0.9509325,-0.32736,-0.2517037
0.9494347,-0.3268587,-0.2521594
0.9480992,-0.3293841,-0.248754
0.9473743,-0.3347029,-0.2487676
0.9475526,-0.3340739,-0.2444891
0.9480651,-0.3326385,-0.2413042
0.9501473,-0.3345221,-0.2425552
0.9523786,-0.3326436,-0.2413402
0.9527779,-0.3327499,-0.2427166
0.9519596,-0.3327402,-0.2468682
0.9501726,-0.3309322,-0.2471285
0.9504581,-0.3344692,-0.2456145
0.9520478,-0.3353119,-0.2440367
0.9512954,-0.3330488,-0.2449693
0.9510042,-0.3325809,-0.2477407
0.9507468,-0.3309843,-0.2458138
0.9495533,-0.3302606,-0.2435496
0.9499666,-0.3292892,-0.2429094
0.9502141,-0.3302748,-0.2424816
0.9498425,-0.3336387,-0.2437509
0.9500352,-0.3339465,-0.2418708
0.9500411,-0.3364677,-0.2383467
0.9501319,-0.3382277,-0.2362199
0.9509035,-0.3333251,-0.2403414
0.9516881,-0.3301433,-0.2502673
0.9514585,-0.3296954,-0.2514032
0.9517355,-0.3287826,-0.2489763
0.9538272,-0.3291321,-0.2501304
0.9545885,-0.3297463,-0.2478758
0.9517728,-0.3306131,-0.2452168
0.9484294,-0.3319585,-0.242657
0.9475484,-0.3320348,-0.2400028
0.9502637,-0.3318037,-0.2406806
0.9543112,-0.332124,-0.2446892
0.9531256,-0.3311161,-0.2506597
0.9500469,-0.3283388,-0.2526734
0.9492935,-0.3256422,-0.2507158
0.9463178,-0.3268268,-0.2493083
0.9464467,-0.3299141,-0.2481943
0.9492515,-0.3289521,-0.2474649
0.9499559,-0.3278877,-0.2471805
0.9535161,-0.3280453,-0.2471313
0.952047,-0.3272472,-0.2474308
0.9474598,-0.3283001,-0.2476306
0.9489783,-0.329447,-0.2461549
0.9471303,-0.3326266,-0.2433587
0.9467707,-0.3356727,-0.2422112
0.9520334,-0.3310571,-0.2417543
0.9534669,-0.3273864,-0.2414106
0.9539296,-0.3293931,-0.2427672
0.9536804,-0.3302624,-0.244194
0.9510061,-0.3315407,-0.2464254
0.9477338,-0.3351064,-0.24864
0.9459644,-0.3352234,-0.2437826
0.9478366,-0.3315636,-0.2380246
0.9474313,-0.3289735,-0.2421275
0.9469091,-0.3270477,-0.2460378
0.9496772,-0.3275102,-0.2447138
0.9501946,-0.3295349,-0.2458686
0.9501606,-0.3288957,-0.2454973
0.9499341,-0.3290557,-0.2434693
0.9497615,-0.3283574,-0.24473
0.9500664,-0.3259659,-0.2445089
0.9478576,-0.3255341,-0.2431249
0.9467789,-0.3251956,-0.2418732
0.9471878,-0.3275479,-0.2365639
0.9481814,-0.3302024,-0.2321011
0.9523659,-0.3282054,-0.2355185
0.9579273,-0.3270892,-0.2404409
0.9597348,-0.3285286,-0.2400698
0.9566951,-0.3309652,-0.2440336
0.956371,-0.3343405,-0.2533161
0.9572947,-0.3356531,-0.2522039
0.954286,-0.3331705,-0.2418821
0.9520134,-0.3281716,-0.2348684
0.9507828,-0.3226792,-0.2371168
0.9505142,-0.3194788,-0.2434984
0.9493142,-0.3190366,-0.2446383
0.9482976,-0.3218735,-0.2444531
0.9521305,-0.3291162,-0.2432252
0.9510008,-0.332073,-0.2416873
0.9477524,-0.3304201,-0.2442273
0.9502818,-0.3303933,-0.2414577
0.9485592,-0.3263429,-0.2351369
0.947443,-0.3249185,-0.2317908
0.9500633,-0.3266423,-0.2346875
0.9488983,-0.3253175,-0.2421532
0.9500592,-0.3286855,-0.2393574
0.9510074,-0.3277092,-0.2385511
0.950101,-0.3242675,-0.2443909
0.9534536,-0.3263999,-0.2408496
0.9549999,-0.3226896,-0.2414659
0.9553327,-0.321199,-0.2451945
0.9553777,-0.3240202,-0.2423906
0.9530043,-0.3235454,-0.2399982
0.9535954,-0.3249992,-0.2371071
0.9538606,-0.3259997,-0.2372729
0.9537038,-0.3268054,-0.2365082
0.9545817,-0.3274073,-0.2346437
0.9519271,-0.326571,-0.2377186
0.9509416,-0.3265385,-0.2372411
0.952877,-0.3246543,-0.237738
0.9547391,-0.3234295,-0.2404034
0.9565037,-0.3231522,-0.241222
0.9563426,-0.3224694,-0.242038
0.9563888,-0.321922,-0.2355346
0.9547269,-0.3215048,-0.2315789
0.9518774,-0.3244695,-0.2366245
0.9544105,-0.327165,-0.2415299
0.9568292,-0.3305614,-0.246512
0.9546878,-0.3333025,-0.2472496
0.9525601,-0.3285232,-0.2456701
0.951007,-0.3265859,-0.2448984
0.9504795,-0.3283616,-0.241858
0.9501929,-0.3275477,-0.2413373
0.9484853,-0.3279216,-0.2411956
0.9507537,-0.3276885,-0.2389176
0.954462,-0.3280896,-0.2381599
0.9526139,-0.329425,-0.243114
0.952057,-0.3286308,-0.2499942
0.9535658,-0.3259649,-0.2472734
0.9523771,-0.3241998,-0.2436715
0.9525499,-0.3280455,-0.2452715
0.9523909,-0.330312,-0.243744
0.9512785,-0.3277904,-0.2435955
0.9514029,-0.327831,-0.2443125
0.9497202,-0.3296145,-0.2438982
0.9495358,-0.3311801,-0.2455323
0.9515701,-0.3302376,-0.2459393
0.9514292,-0.3273001,-0.2474727
0.9516549,-0.3258416,-0.2478828
0.9533367,-0.3250567,-0.2453391
0.9548867,-0.3250006,-0.2461952
0.9559282,-0.3239961,-0.2468328
0.9551049,-0.323686,-0.2467272
0.9530517,-0.32657,-0.2460756
0.9515552,-0.3284695,-0.2431148
0.9502762,-0.3280928,-0.2435326
0.9486506,-0.3269236,-0.2434573
0.9507027,-0.326093,-0.2427694
0.9551736,-0.3247861,-0.2463443
0.953282,-0.324663,-0.2477415
0.9495974,-0.3275194,-0.246358
0.9490566,-0.3281188,-0.245393
0.9471624,-0.3276333,-0.246012
0.9481903,-0.3279769,-0.2488282
0.9538145,-0.3276543,-0.2523443
0.9583334,-0.3289259,-0.2555232
0.9556391,-0.3299249,-0.2544363
0.9463962,-0.3317618,-0.2522582
0.9418911,-0.334101,-0.2515787
0.943548,-0.331297,-0.2510389
0.9482528,-0.3249958,-0.2562877
0.9534059,-0.3204471,-0.2571166
0.9525351,-0.3222248,-0.2497354
0.9488149,-0.3261552,-0.2493293
0.946806,-0.326489,-0.2498045
0.9494076,-0.3264272,-0.2485473
0.9529892,-0.3254558,-0.2508734
0.9502325,-0.3242739,-0.2490159
0.9490549,-0.324394,-0.2451331
0.9506918,-0.323468,-0.2424465
0.9497473,-0.3242878,-0.2430839
0.949939,-0.3256681,-0.2467605
0.950192,-0.3248179,-0.2447956
0.9494539,-0.3257634,-0.2429279
0.9483376,-0.329665,-0.2415822
0.9469828,-0.3324602,-0.2376737
0.9487911,-0.328951,-0.2404312
0.9506385,-0.3240925,-0.2431665
0.9481795,-0.3255463,-0.2416612
0.9467516,-0.3261541,-0.2441794
0.9500982,-0.3262022,-0.2470004
0.9924721,-0.3413314,-0.1416784
0.9708851,-0.3467131,-0.1774245
0.9760348,-0.3494684,-0.1533008
0.9770031,-0.3551167,-0.1527086
0.9657473,-0.3537253,-0.1635798
0.9701999,-0.3422166,-0.1455331
0.9550627,-0.3413464,-0.1662017
0.9534071,-0.3434889,-0.1592973
0.95618,-0.344161,-0.1448184
0.9242042,-0.3439582,-0.1455089
0.9036383,-0.3421146,-0.1237586
0.9071031,-0.3546016,-0.1413814
0.9218273,-0.3670951,-0.1705108
0.9495339,-0.3645878,-0.1999366
0.9898882,-0.3582705,-0.2382576
1.004692,-0.3540722,-0.2414553
0.9821766,-0.3634712,-0.2539377
0.9722657,-0.3814026,-0.2606257
0.9577106,-0.3944805,-0.2348645
0.9736411,-0.4039009,-0.2197705
1.017327,-0.3999431,-0.2071738
0.9683415,-0.3842496,-0.1982726
0.8909855,-0.3655662,-0.183127
0.8665017,-0.3544695,-0.1548857
0.8981388,-0.3724728,-0.1599933
0.9562216,-0.3863604,-0.1806407
0.9313423,-0.3661362,-0.194196
0.9174645,-0.3587102,-0.220576
0.9611674,-0.3817843,-0.2169547
0.9538555,-0.4026724,-0.1944107
0.9609794,-0.4015338,-0.2085871
0.969653,-0.388782,-0.2096806
0.9502651,-0.3860929,-0.1956977
0.9573815,-0.3876524,-0.1952268
0.9520691,-0.3866884,-0.1802349
0.9477132,-0.3799334,-0.180326
0.9303773,-0.3669337,-0.1841952
0.8981931,-0.3661047,-0.167555
0.9215362,-0.3711636,-0.1662751
0.9583649,-0.3763258,-0.1558674
0.9795851,-0.3902461,-0.1429678
0.9769065,-0.3920763,-0.1550025
0.9502692,-0.3670643,-0.1685869
0.9544842,-0.3416847,-0.1997242
0.979928,-0.3471713,-0.2251452
0.9940604,-0.3678971,-0.1955759
0.9533684,-0.373849,-0.1463969
0.8942844,-0.367054,-0.1037755
0.9188021,-0.3606526,-0.06574619
0.9522666,-0.3709889,-0.06335168
0.9497497,-0.3865807,-0.09961073
0.9582674,-0.3830306,-0.1331227
0.9352438,-0.3723072,-0.1376551
0.923019,-0.3641239,-0.1338714
0.9455352,-0.3652918,-0.1573165
0.9424208,-0.3706814,-0.1825711
0.9623084,-0.3604824,-0.1891737
0.981441,-0.3527708,-0.1994121
0.9507986,-0.3511705,-0.1936735
0.9413899,-0.3462666,-0.1812856
0.949122,-0.3498161,-0.187698
0.9497694,-0.3528214,-0.1809259
0.9611598,-0.3570395,-0.1744196
0.9708748,-0.3634351,-0.1996964
0.9694087,-0.36061,-0.2287552
0.957562,-0.3595208,-0.2329678
0.9542845,-0.3565625,-0.2252761
0.9530011,-0.3504573,-0.2275389
0.9431869,-0.3520022,-0.2229694
0.9387657,-0.35123,-0.199278
0.9307263,-0.3470767,-0.1793564
0.9384826,-0.3489848,-0.184939
0.9600613,-0.3532413,-0.2163761
0.9651205,-0.3533135,-0.2404698
0.9669185,-0.3481127,-0.2384376
0.9611795,-0.3403284,-0.2291826
0.9511002,-0.3364031,-0.2196655
0.9508197,-0.3349963,-0.20141
0.9495164,-0.3352824,-0.18745
0.9504034,-0.3472225,-0.2009795
0.9531597,-0.3596439,-0.2157474
0.9544446,-0.3596065,-0.2114034
0.9552672,-0.3576318,-0.2126006
0.9551002,-0.3566348,-0.2116851
0.9578246,-0.3517368,-0.2030909
0.9563486,-0.3462958,-0.1989117
0.949516,-0.3531316,-0.1962572
0.9418389,-0.3628618,-0.1920632
0.93511,-0.3577968,-0.1818327
0.9377801,-0.3565023,-0.1850256
0.9476105,-0.3593102,-0.1981798
0.9552247,-0.3517233,-0.1978394
0.9535089,-0.3474071,-0.2008398
0.9489681,-0.3497021,-0.2013753
0.9560163,-0.3556693,-0.2008111
0.9655933,-0.363089,-0.218004
0.9694298,-0.3635893,-0.2293227
0.9636805,-0.3623171,-0.2270631
0.9504042,-0.3651809,-0.2272118
0.9522264,-0.3671073,-0.2297832
0.9570527,-0.3631716,-0.214376
0.9529334,-0.359358,-0.1933656
0.9582708,-0.3599961,-0.2060264
0.9575281,-0.3555302,-0.2149242
0.9390839,-0.3488682,-0.1976133
0.9228294,-0.3499427,-0.1923837
0.9260765,-0.3485339,-0.1913847
0.9414767,-0.3444131,-0.1882902
0.9582578,-0.3563108,-0.1912287
0.9801261,-0.372521,-0.1922032
0.9702204,-0.371766,-0.1930778
0.9424305,-0.3690992,-0.1915061
0.9541483,-0.3719894,-0.1896509
0.9622041,-0.368497,-0.1922215
0.9561759,-0.3582149,-0.1930761
0.9512702,-0.3443883,-0.1886949
0.9308051,-0.3389758,-0.1814545
0.9423868,-0.3447898,-0.1799954
0.9643638,-0.3464797,-0.185358
0.9564344,-0.3484329,-0.1887947
0.9568543,-0.3526322,-0.1859951
0.9566449,-0.3553362,-0.1843517
0.9560434,-0.3668864,-0.1914962
0.959573,-0.3746169,-0.1967796
0.9562452,-0.3729771,-0.194254
0.9612994,-0.3752517,-0.1926779
0.9582763,-0.371142,-0.1933193
0.9535874,-0.3629375,-0.1930513
0.9579586,-0.359869,-0.1917529
0.9536429,-0.3569073,-0.1879496
0.9513572,-0.3566763,-0.1830079
0.9495751,-0.3534814,-0.183219
0.9500369,-0.3471271,-0.1824967
0.9544885,-0.3448533,-0.1764967
0.9526748,-0.3405399,-0.1776408
0.9547352,-0.337587,-0.1804162
0.954386,-0.3409077,-0.1783656
0.9511927,-0.3442008,-0.1811412
0.9509199,-0.3486679,-0.182462
0.9451584,-0.3560997,-0.1808368
0.9418582,-0.3584223,-0.1817732
0.9434065,-0.3589158,-0.1814192
0.9481559,-0.3698203,-0.1875303
0.9558493,-0.3857903,-0.1994349
0.9616024,-0.3926169,-0.204065
0.96625,-0.3819916,-0.2063982
0.9680637,-0.3677366,-0.2087048
0.9696188,-0.367021,-0.1991063
0.9707153,-0.3639244,-0.1866276
0.9680216,-0.356087,-0.1871255
0.9583056,-0.3537221,-0.1798308
0.9440148,-0.3455473,-0.1635834
0.9459063,-0.3370446,-0.1714994
0.9547262,-0.3364909,-0.1835729
0.9534491,-0.337934,-0.1825824
0.9576281,-0.3396653,-0.190041
0.9626418,-0.3420393,-0.1921262
0.9670751,-0.3455524,-0.1924507
0.9772978,-0.3421155,-0.2065004
0.973115,-0.3338316,-0.2103739
0.9590509,-0.3286577,-0.1987019
0.9466426,-0.3215785,-0.1805559
0.9360874,-0.3178155,-0.1709665
0.9458421,-0.321722,-0.1764838
0.9614163,-0.332036,-0.1765377
0.9630259,-0.3446003,-0.1763879
0.9643217,-0.3495488,-0.1802115
0.9617584,-0.3562155,-0.1827821
0.9582803,-0.3656266,-0.1934086
0.955748,-0.3612628,-0.1988852
0.948617,-0.3501881,-0.1952415
0.9533714,-0.3437216,-0.1961691
0.9585147,-0.3410224,-0.1975624
0.9559792,-0.3400241,-0.194555
0.9605222,-0.3336659,-0.1910084
0.9654872,-0.323881,-0.1869318
0.9733726,-0.3119155,-0.1728648
0.9823021,-0.2970597,-0.1579393
0.9840679,-0.292429,-0.1596102
0.9821391,-0.288574,-0.1635434
0.9724019,-0.2809713,-0.1628959
0.9642709,-0.2830703,-0.1723204
0.9613232,-0.2865682,-0.1837687
0.9426078,-0.30689,-0.1877897
0.913477,-0.3358574,-0.1940922
0.9087944,-0.3351348,-0.1980453
0.9235322,-0.3492814,-0.205878
0.930697,-0.4081194,-0.2338706
0.9441992,-0.4457349,-0.2540937
0.9582466,-0.4348202,-0.2647841
0.9725844,-0.4294312,-0.2869841
0.9976577,-0.4292314,-0.276611
0.9836531,-0.3826806,-0.2344402
0.9574793,-0.3242293,-0.2125967
0.9630793,-0.2904189,-0.2025474
0.9572359,-0.2729283,-0.1982677
0.955474,-0.280948,-0.1955986
0.9570422,-0.2873936,-0.188066
0.9434756,-0.2872222,-0.1983342
0.9461991,-0.2992318,-0.2072544
0.9468975,-0.3120123,-0.2152493
0.9471017,-0.3355976,-0.2361255
0.9591153,-0.3552601,-0.2362161
0.9653801,-0.365603,-0.2399385
0.9716054,-0.3754769,-0.2565768
0.9697218,-0.3641731,-0.2456081
0.970175,-0.3577781,-0.2288857
0.9752553,-0.3477629,-0.2195197
0.9679342,-0.3161922,-0.2082836
0.9621062,-0.3071618,-0.2024912
0.9478067,-0.3017672,-0.1946791
0.9365313,-0.2936583,-0.1917988
0.9500606,-0.3142511,-0.1955458
0.9611041,-0.3324817,-0.1943025
0.962874,-0.3281484,-0.2030563
0.9575259,-0.3138612,-0.214407
0.9465312,-0.3060043,-0.211063
0.9451515,-0.3163201,-0.2139422
0.9505888,-0.330539,-0.2255593
0.9546876,-0.3330446,-0.2336809
0.9539738,-0.331345,-0.2441131
0.9557229,-0.3418047,-0.2464598
0.9677185,-0.3603844,-0.2388318
0.9757898,-0.3710982,-0.2392779
0.9685255,-0.3655907,-0.2351432
0.9599234,-0.3531451,-0.2200276
0.964877,-0.3441384,-0.2141262
0.9655099,-0.3263836,-0.2107972
0.9515534,-0.3078447,-0.1946169
0.9449736,-0.297218,-0.1755468
0.9502049,-0.2822021,-0.1782123
0.9492852,-0.276576,-0.1887766
0.9233902,-0.2871845,-0.1823292
0.8952313,-0.3034728,-0.1890011
0.9065504,-0.3213676,-0.2006729
0.9321724,-0.3530791,-0.21023
0.9519218,-0.4123413,-0.2491726
0.9707002,-0.4443844,-0.2666296
0.9659505,-0.4227004,-0.2532097
0.9706402,-0.4165792,-0.2564989
1.003107,-0.414089,-0.2483129
1.007512,-0.3593046,-0.2173043
0.9877712,-0.2914377,-0.1869491
0.9638456,-0.2446538,-0.1611837
0.9300147,-0.2310846,-0.137768
0.9107636,-0.2533495,-0.1265316
0.9117592,-0.2710608,-0.1365763
0.9299925,-0.2888051,-0.1560082
0.9642121,-0.3222299,-0.1999888
0.9921531,-0.3594387,-0.2623517
1.001489,-0.3924497,-0.2847711
0.9968996,-0.3967597,-0.2693122
1.00242,-0.3974819,-0.2569136
1.012058,-0.389803,-0.2421448
0.9936871,-0.336222,-0.2121212
0.9673653,-0.3081927,-0.1884505
0.9467943,-0.3124571,-0.1718804
0.9155671,-0.302496,-0.1503747
0.8898248,-0.3132689,-0.1519228
0.8857712,-0.3359174,-0.1672324
0.8941761,-0.3559187,-0.1749596
0.9090344,-0.3732635,-0.1931334
0.9344119,-0.3794574,-0.2101435
0.9698637,-0.3980883,-0.2265854
0.9873847,-0.4045722,-0.2424827
0.9826591,-0.3933641,-0.2395341
1.000477,-0.390961,-0.236885
1.014039,-0.3613754,-0.2219427
0.9751181,-0.3106447,-0.1844428
0.934278,-0.2792278,-0.1555102
0.9281983,-0.2682287,-0.1443883
0.9399072,-0.2769163,-0.159391
0.949359,-0.2977206,-0.1737478
0.9513925,-0.3251011,-0.1611803
0.96304,-0.3506008,-0.1598718
0.9720225,-0.3522414,-0.1743423
0.9725533,-0.3442951,-0.1834309
0.9765538,-0.3468706,-0.187811
0.9723974,-0.3432501,-0.1842224
0.9615039,-0.3320004,-0.1804811
0.9507477,-0.3254335,-0.1816413
0.9495034,-0.3242771,-0.1867642
0.9532879,-0.3266025,-0.1945931
0.9470833,-0.3241671,-0.1940193
0.9504795,-0.3230307,-0.1919998
0.9587631,-0.3241582,-0.19568
0.9608842,-0.3229487,-0.1966371
0.9740591,-0.3351675,-0.1974655
0.9827421,-0.3459838,-0.1992187
0.9749199,-0.3397308,-0.1979776
0.9595889,-0.3358201,-0.194635
0.9442152,-0.3393101,-0.1909493
0.9441313,-0.3466926,-0.19018
0.9486609,-0.357346,-0.1902488
0.9490975,-0.3638989,-0.1885615
0.9599838,-0.3592325,-0.1891414
0.9660006,-0.3488245,-0.1925504
0.9650588,-0.335819,-0.1940383
0.974542,-0.3203584,-0.1923952
0.9741898,-0.3144564,-0.1899247
0.9624534,-0.3136571,-0.184614
0.9538317,-0.3220403,-0.1791311
0.9470802,-0.343414,-0.1823626
0.9537586,-0.3507454,-0.1910332
0.9612061,-0.3473006,-0.1973022
0.9626184,-0.3435839,-0.1987182
0.9717407,-0.3355734,-0.1964178
0.9719386,-0.3314841,-0.1969354
0.9671924,-0.329223,-0.1962812
0.9639241,-0.3276078,-0.1870301
0.9499815,-0.3265437,-0.1781452
0.9460338,-0.3280269,-0.1789951
0.9561323,-0.3379513,-0.1878847
0.9607681,-0.3442474,-0.1950506
0.9618662,-0.3420877,-0.1979802
0.9636466,-0.3400794,-0.2036576
0.9670876,-0.3401308,-0.2063306
0.9707228,-0.3376662,-0.1992033
0.9675619,-0.3337446,-0.1903775
0.9559054,-0.332425,-0.1888234
0.9428779,-0.3299243,-0.1910212
0.9419879,-0.3323717,-0.1904472
0.9555893,-0.3390188,-0.1910417
0.9697393,-0.3403951,-0.1933273
0.9752679,-0.3425622,-0.1939474
0.973285,-0.3436238,-0.1916655
0.9738704,-0.3407055,-0.1815315
0.982933,-0.3304045,-0.1700299
0.9840894,-0.3079771,-0.1679434
0.9614466,-0.29508,-0.1645269
0.9279472,-0.3033328,-0.1562301
0.9161633,-0.3222115,-0.1640127
0.925841,-0.3474762,-0.1830484
0.9309385,-0.3661784,-0.1969458
0.9453776,-0.370013,-0.2107513
0.9697428,-0.3735917,-0.2162652
0.9780454,-0.3710699,-0.2178425
0.9798569,-0.3496763,-0.2234127
0.9722085,-0.3310008,-0.2142336
0.9563225,-0.3219826,-0.20005
0.9569746,-0.3146204,-0.1890475
0.9609593,-0.3122581,-0.1759258
0.9584834,-0.310605,-0.1726055
0.9565117,-0.3180354,-0.1738448
0.9502213,-0.3384851,-0.1783962
0.9478063,-0.356957,-0.1884343
0.9543649,-0.3669293,-0.2012084
0.9584931,-0.3656012,-0.2150276
0.9544469,-0.3585677,-0.2158443
0.9508136,-0.3520625,-0.2147121
0.9534511,-0.3424902,-0.2115692
0.9546264,-0.328747,-0.1985864
0.9559043,-0.3181793,-0.19872
0.9618824,-0.3213991,-0.2021948
0.9672516,-0.3280022,-0.2026048
0.9698812,-0.3267922,-0.2086826
0.9647706,-0.3299633,-0.2095573
0.9553854,-0.3382283,-0.2116796
0.9545352,-0.3474378,-0.2126618
0.9576718,-0.3569823,-0.2075421
0.959706,-0.3549616,-0.2082626
0.9620455,-0.345256,-0.2126693
0.9599896,-0.3344792,-0.2139352
0.9535905,-0.3272926,-0.2088327
0.946338,-0.336063,-0.2022388
0.9445803,-0.3446482,-0.2043659
0.9510451,-0.3471331,-0.212168
0.9563497,-0.3548034,-0.2124776
0.9567333,-0.3578266,-0.2026126
0.9520584,-0.3612923,-0.1971199
0.9444141,-0.3650525,-0.2042992
0.943884,-0.3611289,-0.2107206
0.9487745,-0.3622516,-0.2028315
0.950952,-0.3636603,-0.1955516
0.950273,-0.3590281,-0.2003285
0.9489987,-0.350201,-0.2037046
0.9485054,-0.334775,-0.2058456
0.9472482,-0.3308493,-0.2072966
0.948849,-0.337322,-0.206477
0.9547708,-0.334081,-0.2119722
0.9584286,-0.331017,-0.2141131
0.9608327,-0.3291234,-0.2119245
0.9617251,-0.3232891,-0.2155952
0.9590362,-0.3251395,-0.2177523
0.9536896,-0.3278697,-0.2175261
0.9479267,-0.327799,-0.2186583
0.951463,-0.3315928,-0.2218839
0.9570593,-0.334854,-0.2290203
0.9547333,-0.3389671,-0.2344285
0.9539051,-0.3413824,-0.232351
0.9509286,-0.3388887,-0.2255476
0.9476596,-0.3368709,-0.2236743
0.9543887,-0.3335291,-0.2265975
0.9594668,-0.3289132,-0.2257815
0.9586768,-0.3232356,-0.2217382
0.959476,-0.31391,-0.2181493
0.960761,-0.3092017,-0.2184893
0.961272,-0.3163089,-0.2180961
0.9630682,-0.3253213,-0.2119052
0.965573,-0.328497,-0.2095062
0.9677624,-0.330616,-0.2107938
0.9706055,-0.3267935,-0.2094704
0.9694704,-0.3199752,-0.2096155
0.9665293,-0.322185,-0.2107677
0.9670333,-0.3232964,-0.2103384
0.9657089,-0.3213508,-0.2088318
0.9628808,-0.3238172,-0.2059026
0.956871,-0.3251661,-0.2035226
0.9520128,-0.3278704,-0.2054535
0.9573404,-0.3356189,-0.2122573
0.9602093,-0.3459509,-0.2201808
0.9586266,-0.3534958,-0.2250464
0.9609317,-0.3531133,-0.2241944
0.9611518,-0.3538571,-0.2231788
0.9569366,-0.3584119,-0.2281764
0.9498115,-0.3601523,-0.2321933
0.9458352,-0.3642229,-0.2322789
0.9506496,-0.3708015,-0.2343031
0.9547229,-0.3740975,-0.2432213
0.9511154,-0.3738485,-0.2523937
0.9466342,-0.3703232,-0.2431888
0.9427721,-0.367817,-0.2278105
0.935776,-0.3650614,-0.2262212
0.924796,-0.3544444,-0.222552
0.907365,-0.3382306,-0.2174516
0.8983605,-0.3275662,-0.2208543
0.9063593,-0.3308602,-0.2199517
0.9138882,-0.3346782,-0.2187132
0.9245834,-0.329371,-0.2230614
0.932775,-0.3308453,-0.2240318
0.9283355,-0.3378757,-0.2225212
0.939605,-0.3447009,-0.2211384
0.9551203,-0.3508366,-0.2214304
0.9501081,-0.343334,-0.2237463
0.9510792,-0.3393453,-0.223148
0.9675527,-0.3549604,-0.2187884
0.9823492,-0.3649155,-0.2117006
0.980352,-0.357992,-0.2075804
0.9628194,-0.3512251,-0.2112382
0.9528323,-0.3573287,-0.2189067
0.9569159,-0.3689163,-0.2312847
0.9625627,-0.3762441,-0.2393484
0.9631607,-0.3669593,-0.2289829
0.9641161,-0.3344488,-0.214147
0.9670766,-0.3132229,-0.2078873
0.9646895,-0.3192596,-0.20641
0.9584007,-0.328126,-0.2124546
0.9499943,-0.3333048,-0.2180468
0.9446732,-0.3393758,-0.2151993
0.9451705,-0.3438779,-0.2135197
0.9443202,-0.3410396,-0.2115461
0.9510288,-0.3373776,-0.2061873
0.9606966,-0.3348803,-0.203987
0.9563012,-0.3259119,-0.2073802
0.952245,-0.3223307,-0.2134012
0.9563786,-0.3267692,-0.2130792
0.960375,-0.3323956,-0.2094676
0.9687924,-0.336867,-0.2100997
0.9767319,-0.3387945,-0.2103703
0.9765999,-0.3445518,-0.2113099
0.9751651,-0.3469761,-0.2107732
0.9692333,-0.339278,-0.2053303
0.9589038,-0.329986,-0.2006107
0.9557933,-0.3301148,-0.1986592
0.954396,-0.3350006,-0.1997721
0.9476155,-0.3334219,-0.1979794
0.9444923,-0.3371073,-0.194085
0.9509811,-0.3416002,-0.1982402
0.9569056,-0.3405052,-0.2071797
0.9544665,-0.3436406,-0.2149866
0.9496616,-0.3428672,-0.2143087
0.9447108,-0.3436233,-0.2096663
0.9428242,-0.3407524,-0.2093191
0.9438723,-0.3205972,-0.1940913
0.9432175,-0.3008181,-0.1756257
0.9497064,-0.2951479,-0.1837802
0.9626802,-0.3127538,-0.1982551
0.9696781,-0.3357554,-0.2033672
0.967816,-0.3411234,-0.2064673
0.9669164,-0.345968,-0.2084667
0.9741391,-0.3523108,-0.217051
0.9768577,-0.3567858,-0.2291048
0.9746138,-0.364391,-0.2314177
0.9729804,-0.3707203,-0.2259393
0.9671724,-0.3729915,-0.2203912
0.966346,-0.3577865,-0.2196263
0.9644121,-0.3339017,-0.2193182
0.9555611,-0.3247514,-0.2163664
0.9539612,-0.3250583,-0.2145955
0.950791,-0.3335198,-0.2043247
0.9405815,-0.3423777,-0.1895303
0.9350409,-0.3280749,-0.1883325
0.9386894,-0.3049311,-0.191475
0.9483447,-0.3023265,-0.190124
0.9547042,-0.3142212,-0.1898202
0.957422,-0.3266597,-0.1892263
0.95803,-0.3311093,-0.1866906
0.9557406,-0.3223464,-0.1843911
0.9543331,-0.3166465,-0.1847542
0.95687,-0.3226143,-0.1860212
0.9618056,-0.3319284,-0.1874273
0.9592601,-0.3421519,-0.1898239
0.9542478,-0.3448222,-0.1909955
0.9524184,-0.3371996,-0.1916288
0.9479886,-0.3323994,-0.1912773
0.9473055,-0.3334969,-0.1922019
0.9437607,-0.3356311,-0.1995946
0.9368283,-0.3421969,-0.2059464
0.9400189,-0.3530044,-0.2069215
0.9480774,-0.3619793,-0.2162441
0.961695,-0.3710576,-0.2285897
0.9749286,-0.3775105,-0.2241946
0.9753597,-0.3712457,-0.2190319
0.9744713,-0.3550563,-0.2209031
0.9780507,-0.338255,-0.2107081
0.9771592,-0.3293286,-0.1949126
0.9676214,-0.3281497,-0.1765097
0.9528341,-0.3155256,-0.1606168
0.9438173,-0.2991683,-0.1637147
0.9490607,-0.3041208,-0.1682849
0.9590617,-0.3116629,-0.1707682
0.9649337,-0.3184679,-0.1806012
0.9687972,-0.3376877,-0.1847077
0.9658918,-0.3429799,-0.1872788
0.9616745,-0.3366131,-0.1911338
0.9615605,-0.338207,-0.1931606
0.9599697,-0.3370657,-0.197191
0.9616275,-0.3327385,-0.1993777
0.9616742,-0.3286788,-0.2036491
0.9599053,-0.3259637,-0.2037277
0.962204,-0.3265068,-0.1961592
0.9606825,-0.3247384,-0.1953292
0.9607624,-0.3249637,-0.1959167
0.9621411,-0.3299096,-0.1956706
0.9610995,-0.3340187,-0.1974676
0.9633396,-0.3355974,-0.1970953
0.9630942,-0.3335514,-0.1998041
0.9647409,-0.3316159,-0.2023812
0.9692931,-0.3321424,-0.2024274
0.9695412,-0.3320017,-0.2006789
0.9720738,-0.3327746,-0.196994
0.9740562,-0.3308027,-0.19907
0.9694997,-0.3179865,-0.2011991
0.9625962,-0.3055808,-0.2006493
0.9564533,-0.312109,-0.2004058
0.9521835,-0.3254791,-0.1977017
0.9530672,-0.3277947,-0.1999701
0.9588061,-0.3334643,-0.2049353
0.9617218,-0.347469,-0.2068137
0.9620801,-0.3553316,-0.2078084
0.9585654,-0.3546493,-0.2060729
0.9495966,-0.3471938,-0.2050093
0.948003,-0.3383776,-0.2033106
0.9556968,-0.3289201,-0.1986981
0.9649849,-0.3201033,-0.1951798
0.9691119,-0.3186005,-0.1921753
0.9649694,-0.3176031,-0.1912152
0.9606681,-0.3175271,-0.1900555
0.957773,-0.3180518,-0.1862503
0.958379,-0.3158749,-0.1833887
0.9631348,-0.3191337,-0.1814727
0.962567,-0.3224921,-0.1808804
0.9607007,-0.3249726,-0.1818466
0.9589685,-0.3304849,-0.1848924
0.9536246,-0.3332402,-0.1879349
0.9525603,-0.3342223,-0.1880539
0.9564097,-0.3357493,-0.1873437
0.9592694,-0.341723,-0.1869185
0.956999,-0.348587,-0.1901784
0.9544281,-0.3497243,-0.1931129
0.9589282,-0.3497874,-0.1932373
0.9626011,-0.3491037,-0.1959247
0.9644732,-0.3466649,-0.1942326
0.9666282,-0.3409347,-0.1883596
0.9607143,-0.329027,-0.184477
0.954976,-0.3200712,-0.1838043
0.9602572,-0.3246652,-0.1862076
0.9644752,-0.3331577,-0.1878756
0.9591287,-0.3337594,-0.1939332
0.9557309,-0.3347346,-0.1987482
0.9574827,-0.3370432,-0.1976446
0.9568589,-0.3373587,-0.2009577
0.95674,-0.3383458,-0.2035659
0.9576464,-0.3368246,-0.2057845
0.9583912,-0.3372664,-0.207614
0.960485,-0.3369792,-0.2024176
0.9598999,-0.3331052,-0.2027432
0.9591752,-0.3338793,-0.2064493
0.9601528,-0.3364424,-0.2040934
0.959581,-0.3408767,-0.2053926
0.9587388,-0.3425586,-0.206796
0.9552613,-0.3366318,-0.2040206
0.9503631,-0.3321403,-0.2043559
0.9515476,-0.3292324,-0.2035377
0.9567974,-0.328991,-0.2037446
0.9593369,-0.3315951,-0.2072358
0.9586225,-0.3332034,-0.2062076
0.9577894,-0.3349417,-0.2043302
0.958822,-0.3348227,-0.2026845
0.9604074,-0.3355556,-0.2035486
0.9612696,-0.3377377,-0.2073768
0.9611629,-0.3411632,-0.2053622
0.9590001,-0.3462213,-0.2057126
0.9575307,-0.3441767,-0.208836
0.957605,-0.3386226,-0.2089162
0.9568766,-0.3369632,-0.2119875
0.9578696,-0.3369609,-0.2112493
0.959748,-0.3376884,-0.2067725
0.9593831,-0.3357337,-0.2038347
0.9568478,-0.3340567,-0.2000803
0.9537279,-0.3370063,-0.2017617
0.9538594,-0.3392692,-0.2065655
0.9557449,-0.3405054,-0.2070741
0.9565303,-0.3426363,-0.2043229
0.95724,-0.3427325,-0.202102
0.9564932,-0.3406692,-0.2057363
0.95402,-0.340965,-0.2102575
0.9526728,-0.3427403,-0.2096166
0.9551116,-0.3412833,-0.2077215
0.9579397,-0.3408729,-0.2064742
0.9545774,-0.3404956,-0.2068874
0.949223,-0.3368443,-0.207397
0.948859,-0.3371326,-0.2036995
0.9531157,-0.3381516,-0.1988505
0.9581209,-0.3369442,-0.197412
0.9577315,-0.3376179,-0.1980207
0.9555546,-0.3365944,-0.199725
0.9566949,-0.3358124,-0.2031067
0.9554204,-0.3372007,-0.203699
0.9548284,-0.3382381,-0.2027715
0.9569539,-0.3405242,-0.2075217
0.9577736,-0.3436543,-0.2105248
0.9602818,-0.3464296,-0.2050121
0.9594251,-0.3471099,-0.1997976
0.9560093,-0.3447079,-0.2000287
0.9572337,-0.3411906,-0.2010573
0.9574544,-0.3381458,-0.2011609
0.9582993,-0.3354753,-0.2031816
0.9602173,-0.3345292,-0.2024087
0.9567464,-0.3369547,-0.1991786
0.9535019,-0.3372838,-0.2003927
0.9539392,-0.3365247,-0.201632
0.954482,-0.3408988,-0.2040336
0.954463,-0.3492099,-0.2079177
0.9557766,-0.3578604,-0.2069621
0.9577288,-0.3566245,-0.2062344
0.9570214,-0.3494086,-0.205704
0.9564964,-0.3461984,-0.2040646
0.9564226,-0.3397036,-0.2039846
0.9523559,-0.3353044,-0.1990127
0.9489089,-0.3323626,-0.190644
0.9514185,-0.3235007,-0.1878321
0.9544017,-0.3213384,-0.1911076
0.9536144,-0.3246899,-0.1996227
0.9547205,-0.3301083,-0.2104338
0.9570265,-0.3405142,-0.2123899
0.9568702,-0.346528,-0.2085047
0.958496,-0.3441105,-0.210545
0.9580188,-0.338225,-0.2093074
0.9544952,-0.3374647,-0.2039866
0.9531271,-0.3377842,-0.2020418
0.9489047,-0.3346185,-0.1970573
0.9464098,-0.335378,-0.1963587
0.9522399,-0.3367411,-0.2012572
0.9568249,-0.3410043,-0.2013636
0.9555224,-0.3462102,-0.2007418
0.9530751,-0.3450596,-0.1996532
0.9529013,-0.343635,-0.1998875
0.9547186,-0.3410339,-0.2035059
0.9576864,-0.342886,-0.2075245
0.9611661,-0.3471642,-0.2132049
0.9622023,-0.3443062,-0.2133424
0.9585252,-0.3436146,-0.210398
0.9538295,-0.3419573,-0.2117178
0.9559098,-0.3379183,-0.2118263
0.9585561,-0.3377309,-0.2118965
0.95456,-0.3364658,-0.2094562
0.952458,-0.3364672,-0.2042807
0.9528817,-0.3409825,-0.2024675
0.9584376,-0.3490462,-0.2003507
0.9657703,-0.3516683,-0.2044643
0.9564634,-0.3403642,-0.2158556
0.9480822,-0.3283272,-0.2201567
0.9592872,-0.3225739,-0.2230423
0.9676426,-0.3177204,-0.2278421
0.9688546,-0.3254452,-0.2189838
0.9723083,-0.3397358,-0.2049714
0.96308,-0.3306309,-0.201535
0.9482705,-0.3209565,-0.1974633
0.9538948,-0.3327703,-0.1965488
0.962498,-0.3337301,-0.2057568
0.9624136,-0.3298896,-0.2060677
0.9688407,-0.3353433,-0.2039719
0.9673964,-0.3399999,-0.2073068
0.9599894,-0.3473502,-0.2060262
0.9575545,-0.3388256,-0.2124967
0.9505903,-0.318392,-0.219569
0.9546971,-0.3132119,-0.2135458
0.96236,-0.3162409,-0.2066779
0.9570747,-0.3233499,-0.197986
0.9537262,-0.3285586,-0.1897666
0.9498653,-0.3261425,-0.1924598
0.9535885,-0.3249811,-0.201468
0.9639865,-0.3248743,-0.2075034
0.9619686,-0.3261969,-0.2104829
0.9632541,-0.3303464,-0.2133566
0.9643721,-0.3351383,-0.2098023
0.9540903,-0.3359412,-0.2021919
0.9502029,-0.3341357,-0.1972203
0.955617,-0.3355036,-0.1979328
0.964226,-0.3344763,-0.2015951
0.9662602,-0.3341736,-0.195902
0.9589411,-0.335692,-0.1929085
0.9555702,-0.3342686,-0.1993432
0.9575246,-0.3367686,-0.2006569
0.9594164,-0.3378449,-0.2002609
0.9587636,-0.3341695,-0.2000526
0.9608042,-0.3318892,-0.201166
0.9669205,-0.3315177,-0.2026583
0.9672946,-0.3343239,-0.2006501
0.964998,-0.3350978,-0.2030925
0.9606877,-0.3324653,-0.2030802
0.9547506,-0.327941,-0.1980392
0.9564715,-0.3246014,-0.1980196
0.958258,-0.3327865,-0.2032035
0.9561491,-0.3411192,-0.210392
0.9569337,-0.3368619,-0.2103033
0.9572202,-0.3320855,-0.2083002
0.9556266,-0.331178,-0.2116839
0.9555908,-0.3297839,-0.2102812
0.9565047,-0.3300118,-0.2087141
0.9576749,-0.3285121,-0.2094692
0.9600237,-0.3256036,-0.2076735
0.9625363,-0.3311561,-0.2085173
0.9622828,-0.3401632,-0.2090468
0.9576772,-0.342603,-0.2068911
0.9540175,-0.3386038,-0.2051584
0.9554643,-0.3321483,-0.2040005
0.9565929,-0.331903,-0.2030251
0.9576142,-0.3369023,-0.2026808
0.9624616,-0.3400368,-0.2056882
0.9645307,-0.3393941,-0.2041075
0.959225,-0.3366838,-0.2006498
0.9550035,-0.3368091,-0.2077683
0.9569989,-0.3350621,-0.2083631
0.9577733,-0.3296264,-0.1979177
0.956262,-0.3252325,-0.1926069
0.9570889,-0.3233687,-0.1934982
0.9573961,-0.3267702,-0.1991811
0.9574568,-0.3298496,-0.2037748
0.9590232,-0.3321862,-0.2087124
0.9593252,-0.3337231,-0.2138203
0.9592655,-0.3316936,-0.2146711
0.958357,-0.3356471,-0.2183664
0.9571574,-0.337164,-0.2152518
0.9621007,-0.3315241,-0.2090487
0.9672016,-0.3287996,-0.2072458
0.9632861,-0.3248594,-0.1997633
0.9590173,-0.3243885,-0.199119
0.9599797,-0.3278435,-0.201724
0.9607287,-0.3313311,-0.2026346
0.9611544,-0.3368242,-0.2085519
0.9609296,-0.3344733,-0.2071094
0.9580744,-0.3296399,-0.206052
0.9564003,-0.3296169,-0.2079252
0.9578711,-0.3301743,-0.2061792
0.9598305,-0.3329935,-0.2075487
0.9600262,-0.3325248,-0.2083142
0.958898,-0.3317527,-0.2110261
0.9571789,-0.3334347,-0.2126371
0.9553109,-0.3277985,-0.2058609
0.9577504,-0.3228546,-0.2007224
0.9613645,-0.3257551,-0.2031219
0.9594143,-0.3302337,-0.2086116
0.9581111,-0.3354503,-0.2095069
0.9587999,-0.3383209,-0.205434
0.9586073,-0.3352086,-0.2013259
0.9613062,-0.3307678,-0.2022296
0.9618049,-0.3275375,-0.2051026
0.9578481,-0.3270861,-0.200602
0.9572279,-0.33348,-0.1986974
0.9567767,-0.3400579,-0.2022715
0.9516953,-0.345127,-0.2011303
0.9489215,-0.3533326,-0.2011892
0.9510418,-0.3566448,-0.2050133
0.9533153,-0.3583781,-0.2079772
0.9547726,-0.3587541,-0.2081677
0.955892,-0.3494347,-0.2071947
0.9558382,-0.340973,-0.2077634
0.9554052,-0.3352015,-0.2077101
0.9568353,-0.333402,-0.2071772
0.9592476,-0.3377294,-0.2060998
0.9595415,-0.3372633,-0.2051629
0.9571971,-0.3356505,-0.206544
0.9544962,-0.3346497,-0.2079467
0.9548924,-0.335692,-0.2095368
0.9546174,-0.341943,-0.2117708
0.9521702,-0.3442509,-0.2110776
0.9552906,-0.3445369,-0.2073828
0.9578482,-0.3430592,-0.2045794
0.9529781,-0.3388293,-0.2039257
0.9503083,-0.337233,-0.2058762
0.9535632,-0.3362878,-0.2083312
0.9570783,-0.3361574,-0.2085355
0.9573149,-0.3361191,-0.2099129
0.9564975,-0.3364166,-0.2098792
0.9562038,-0.3352759,-0.2062959
0.9552049,-0.3308868,-0.2052155
0.9559856,-0.3296956,-0.206669
0.9585253,-0.3292198,-0.2091941
0.9595833,-0.3286014,-0.2104738
0.9560398,-0.3295184,-0.2099377
0.9497938,-0.3277086,-0.2122205
0.9498576,-0.3256168,-0.2139563
0.9557497,-0.3246035,-0.2123739
0.9609446,-0.325633,-0.2115681
0.9632346,-0.3299398,-0.2111189
0.9622924,-0.3330161,-0.2090644
0.9622908,-0.3324726,-0.2080727
0.9629125,-0.3316507,-0.2079235
0.9619574,-0.3354195,-0.208223
0.9617542,-0.3399816,-0.2166245
0.9607583,-0.3404479,-0.2258641
0.9589641,-0.3379054,-0.222426
0.9551055,-0.3330176,-0.2185738
0.9490708,-0.3311378,-0.2205587
0.9482057,-0.334454,-0.218766
0.9493028,-0.3383739,-0.2180482
0.9482541,-0.3404615,-0.2208733
0.9496209,-0.3393567,-0.219772
0.9505162,-0.337344,-0.2184829
0.9497324,-0.3363599,-0.2203912
0.9500772,-0.33586,-0.2212683
0.9503735,-0.3361606,-0.2216391
0.9517273,-0.3359755,-0.2192885
0.9534027,-0.3346352,-0.2149605
0.9532679,-0.3318058,-0.2163758
0.9547434,-0.3297681,-0.2178136
0.9591423,-0.3315661,-0.2161359
0.9617107,-0.3335836,-0.2186347
0.961106,-0.3339229,-0.2203873
0.9611222,-0.3362779,-0.2188853
0.9621636,-0.340193,-0.2185755
0.9624973,-0.3425119,-0.2198341
0.9612122,-0.3470225,-0.2289234
0.9579648,-0.353504,-0.2428954
0.9560775,-0.3509037,-0.2445109
0.9571062,-0.3407518,-0.2342313
0.9581966,-0.3337495,-0.2286181
0.9583849,-0.3316716,-0.2281552
0.9580428,-0.3326651,-0.2183709
0.956524,-0.3287897,-0.2023384
0.955131,-0.3217452,-0.1993861
0.9570231,-0.3218743,-0.2051973
0.9620758,-0.3193355,-0.2036067
0.9679123,-0.3138803,-0.2028013
0.97014,-0.3147815,-0.2038975
0.9645835,-0.3143009,-0.2004477
0.9585798,-0.3160696,-0.2055789
0.9601988,-0.3213928,-0.2165283
0.9648621,-0.3233506,-0.2212903
0.9676469,-0.3285261,-0.219779
0.9672289,-0.3347384,-0.2140229
0.9649139,-0.3375269,-0.2117569
0.9616118,-0.3367838,-0.2088155
0.9542217,-0.3293217,-0.2036033
0.9502894,-0.3214011,-0.2021578
0.9537203,-0.317858,-0.198383
0.953234,-0.3181913,-0.1953314
0.9517994,-0.3166367,-0.1927932
0.953554,-0.3093692,-0.1916426
0.9528759,-0.3093481,-0.2019283
0.9543472,-0.3169389,-0.2120141
0.9567385,-0.3219278,-0.2144624
0.9562235,-0.3247057,-0.2163405
0.9570427,-0.324126,-0.2173554
0.9572638,-0.3240981,-0.2165924
0.9569774,-0.3272463,-0.2181786
0.9599429,-0.3359397,-0.2271518
0.9656483,-0.3509175,-0.2355284
0.9694663,-0.3557153,-0.2325408
0.9653111,-0.3538285,-0.222122
0.9563429,-0.3522621,-0.2098558
0.9487626,-0.3376375,-0.2004536
0.9465264,-0.3225162,-0.2021853
0.9541352,-0.3204807,-0.2077469
0.9625021,-0.3232883,-0.2075607
0.9617551,-0.3253612,-0.2120844
0.96025,-0.3268521,-0.2156156
0.9615619,-0.3359033,-0.2153441
0.9609002,-0.3472851,-0.2235391
0.9600349,-0.3511256,-0.2247254
0.9596565,-0.3504667,-0.2192499
0.9594863,-0.3404373,-0.2114182
0.9599637,-0.3239982,-0.1931272
0.9594735,-0.3127956,-0.1888728
0.9585533,-0.3081306,-0.1947999
0.9573319,-0.3075271,-0.1931053
0.9564358,-0.3066341,-0.196467
0.9570858,-0.3057143,-0.1973173
0.9574511,-0.3082781,-0.1952399
0.9585005,-0.3126206,-0.1993053
0.9604228,-0.3159389,-0.1995956
0.9595544,-0.3242516,-0.2028135
0.9574409,-0.3359803,-0.215888
0.9563649,-0.3352926,-0.2238352
0.9542177,-0.3367824,-0.2188742
0.9500907,-0.3496627,-0.213389
0.9464348,-0.3475949,-0.2142288
