accx,accy,accz
1.019425,-0.04390549,0.09178558
1.017624,-0.04941154,0.09479391
1.031637,-0.05065827,0.08450039
1.038442,-0.05692617,0.08461061
1.030819,-0.06732867,0.09752845
1.015259,-0.07043905,0.1221458
1.008103,-0.0590275,0.1531686
1.014895,-0.04388608,0.1136727
1.018677,-0.04181001,0.055244
1.015577,-0.05919461,0.06499997
1.014517,-0.07287646,0.07147701
1.0202,-0.06127951,0.06313218
1.02751,-0.04820315,0.07157547
1.031235,-0.05132328,0.07258913
1.026294,-0.0499933,0.07760928
1.019066,-0.04507101,0.08382994
1.024287,-0.04752351,0.07727419
1.027252,-0.04620828,0.07181165
1.023319,-0.04911011,0.07195713
1.025584,-0.05806858,0.07167716
1.025305,-0.06006053,0.06677911
1.023899,-0.06177391,0.06858038
1.02397,-0.06118325,0.07697722
1.021366,-0.05816544,0.07920192
1.023201,-0.05705811,0.07745892
1.02539,-0.05248447,0.07516883
1.024448,-0.05048161,0.07502127
1.023226,-0.05233158,0.07494851
1.020662,-0.05593961,0.07450246
1.020527,-0.05900928,0.07473522
1.022139,-0.05399006,0.07276677
1.022348,-0.04966325,0.07350757
1.022279,-0.05313806,0.07304502
1.022661,-0.05440946,0.06873874
1.024928,-0.04748729,0.06299373
1.02708,-0.04203638,0.05822856
1.025737,-0.04446769,0.07289831
1.024161,-0.04540297,0.09889303
1.025722,-0.04658945,0.09907992
1.02799,-0.05884047,0.06455454
1.029568,-0.07095141,0.03474146
1.030083,-0.06629682,0.04934189
1.030349,-0.06046079,0.06983868
1.032596,-0.06722375,0.06369065
1.032525,-0.06754765,0.06775809
1.029947,-0.06227797,0.07208228
1.02819,-0.06228332,0.06406513
1.025096,-0.0594304,0.07018375
1.021173,-0.05798014,0.07742366
1.014433,-0.0570351,0.08545641
1.012684,-0.05115346,0.08869449
1.018339,-0.04672622,0.07976582
1.015141,-0.04392007,0.08720063
1.016511,-0.04409468,0.08874316
1.024864,-0.04518227,0.08395787
1.022234,-0.04506889,0.09157201
1.027631,-0.04705349,0.08537728
1.045892,-0.04686939,0.07685277
1.061472,-0.04673621,0.07019013
1.055333,-0.05038962,0.07325409
1.022388,-0.05329971,0.08998341
1.0068,-0.05317565,0.08545196
1.019909,-0.0529524,0.08086118
1.029999,-0.05786338,0.08024071
1.024957,-0.06577097,0.07256331
1.018761,-0.06953664,0.07806623
1.02294,-0.06546306,0.07737836
1.019482,-0.06091075,0.07057112
1.015802,-0.06281143,0.05959644
1.017739,-0.06245496,0.04764762
1.01699,-0.05908313,0.07127719
1.02526,-0.05807893,0.09906508
1.022166,-0.05852816,0.0958617
1.013461,-0.06380848,0.09148413
1.014468,-0.07216656,0.08391418
1.010044,-0.07712592,0.05766062
1.014736,-0.07524557,0.04908178
1.02089,-0.07089581,0.06324353
1.023415,-0.0690704,0.06315782
1.026666,-0.06518769,0.06524501
1.021236,-0.06231522,0.07008176
1.025895,-0.05694383,0.06155137
1.028244,-0.04768985,0.06592565
1.022249,-0.05062362,0.06837015
1.024891,-0.05229539,0.06369271
1.023776,-0.04320127,0.06795313
1.025094,-0.0390116,0.06260716
1.02584,-0.03358391,0.05904883
1.021528,-0.02580221,0.06134772
1.022965,-0.01915487,0.06741186
1.021619,-0.01476956,0.08271168
1.021945,-0.02437428,0.0807659
1.022176,-0.03718261,0.07469105
1.019397,-0.04326983,0.07799984
1.021827,-0.04754689,0.07406944
1.021626,-0.04862671,0.07649954
1.022042,-0.05043987,0.08157967
1.022704,-0.05605682,0.08058878
1.019518,-0.06954346,0.08359037
1.019987,-0.08112682,0.08546403
1.021875,-0.07921287,0.08373052
1.024466,-0.08395202,0.07934183
1.024289,-0.09369397,0.07537175
1.022583,-0.09741416,0.07686113
1.025315,-0.1028669,0.07659873
1.025202,-0.09628108,0.07289496
1.024595,-0.08216489,0.07162116
1.025145,-0.07570392,0.0718598
1.022233,-0.06507966,0.06793439
1.019232,-0.05586423,0.05275973
1.02081,-0.05638628,0.03352406
1.036651,-0.05638986,0.03829429
1.050502,-0.05675728,0.06560901
1.032718,-0.06629634,0.07220928
1.014058,-0.07352953,0.05770176
1.027125,-0.0577743,0.05803409
1.034008,-0.03695791,0.06794078
1.02223,-0.03860784,0.07226105
1.023219,-0.05191096,0.07010299
1.027718,-0.0617558,0.0622642
1.025611,-0.06805411,0.06077069
1.021021,-0.07348373,0.06338786
1.013697,-0.07609643,0.06373661
1.023149,-0.07526182,0.06724138
1.03474,-0.07778852,0.06963275
1.028074,-0.07749623,0.06877818
1.027232,-0.07340564,0.06381505
1.029284,-0.0785198,0.05817298
1.025367,-0.08423848,0.05818127
1.02904,-0.08579209,0.05416919
1.033761,-0.08871529,0.0484215
1.034439,-0.08652218,0.05320937
1.034847,-0.08490691,0.0599757
1.027845,-0.08601252,0.06019221
1.018334,-0.08406634,0.06624311
1.01965,-0.08463996,0.07870389
1.021621,-0.08336449,0.07952671
1.019455,-0.07517334,0.07317609
1.022847,-0.06750286,0.06590644
1.021485,-0.0679855,0.05762501
1.01719,-0.07050599,0.06393604
1.020546,-0.06355383,0.07437357
1.020665,-0.05583403,0.07276551
1.020337,-0.05121686,0.07731991
1.022769,-0.04658606,0.08551117
1.021582,-0.0483888,0.08171081
1.021372,-0.0477078,0.07988501
1.01988,-0.0393534,0.08079088
1.019232,-0.03132106,0.07504288
1.02371,-0.02728729,0.07098861
1.026014,-0.03203397,0.06924207
1.026542,-0.03923281,0.07524185
1.027984,-0.0426295,0.08478868
1.029818,-0.04717897,0.07441951
1.029814,-0.05305946,0.06296441
1.029179,-0.05729952,0.06771142
1.030321,-0.05512912,0.06444981
1.025348,-0.05255865,0.05537683
1.020215,-0.05640808,0.04953997
1.024116,-0.05880831,0.04213164
1.02639,-0.06494785,0.04671442
1.024562,-0.077796,0.05917124
1.024695,-0.0868941,0.06244078
1.025439,-0.09128649,0.06000722
1.024832,-0.09086356,0.05513273
1.024833,-0.09126537,0.05341166
1.024799,-0.09475791,0.05743134
1.022043,-0.09428824,0.05903754
1.020089,-0.09443829,0.05871266
1.020834,-0.09482436,0.05886361
1.021906,-0.09383147,0.06014087
1.02155,-0.09496034,0.06116601
1.020229,-0.09481315,0.06028379
1.020128,-0.09725932,0.05679406
1.021294,-0.1023861,0.04252722
1.026552,-0.1057295,0.03124432
1.033029,-0.109316,0.04341475
1.032025,-0.1075634,0.0568613
1.027258,-0.09836939,0.05243955
1.024774,-0.08890609,0.0473887
1.024469,-0.08542005,0.04576495
1.025169,-0.08785285,0.04024893
1.024185,-0.08909248,0.04076853
1.023026,-0.09123329,0.04269775
1.023773,-0.09660791,0.04068852
1.023755,-0.09855745,0.04498453
1.023376,-0.1015967,0.04647261
1.023966,-0.106373,0.0442456
1.024449,-0.1041067,0.04410932
1.025217,-0.102937,0.04008434
1.025223,-0.1054195,0.03934163
1.024675,-0.1036384,0.04047458
1.025175,-0.1026387,0.04216163
1.025212,-0.0979354,0.04793917
1.02573,-0.08823481,0.04605689
1.02684,-0.08778894,0.04221858
1.025855,-0.0924793,0.04267983
1.023505,-0.09586652,0.04001123
1.021939,-0.1001087,0.04088767
1.023624,-0.1010076,0.04665313
1.026141,-0.1007164,0.05183892
1.024971,-0.1034814,0.05462481
1.024408,-0.1048857,0.053031
1.025572,-0.102856,0.04999204
1.024788,-0.101025,0.04434671
1.024847,-0.09955812,0.04086168
1.025334,-0.09795657,0.0445342
1.0247,-0.09888316,0.0460357
1.025132,-0.1004272,0.0471554
1.024703,-0.09949935,0.04927548
1.023386,-0.09637732,0.05062716
1.023669,-0.09386986,0.05473329
1.025194,-0.09442982,0.04983469
1.025658,-0.09419414,0.04321902
1.024451,-0.09125891,0.05121703
1.024996,-0.08877129,0.05711848
1.025082,-0.08863438,0.05561146
1.022702,-0.09105782,0.05724079
1.021956,-0.09195059,0.05793694
1.022244,-0.08971144,0.0529444
1.023227,-0.08811372,0.04708284
1.024224,-0.08837834,0.04821969
1.024276,-0.09029577,0.0516877
1.025168,-0.09238111,0.05157546
1.024254,-0.09276908,0.05436975
1.022996,-0.09165951,0.06023229
1.023974,-0.08954222,0.0635912
1.024576,-0.08744782,0.06098878
1.024799,-0.08699936,0.05597426
1.023392,-0.08785172,0.0553655
1.021439,-0.08768202,0.05310734
1.022133,-0.08848229,0.04985893
1.023002,-0.09109518,0.0517416
1.023729,-0.09140285,0.0517586
1.025538,-0.09108031,0.05085399
1.026121,-0.09383467,0.05213809
1.028669,-0.1004356,0.05229371
1.03551,-0.1073268,0.0509425
1.036167,-0.1065534,0.04679143
1.027104,-0.09706575,0.04504297
1.0202,-0.08659684,0.04664528
1.021763,-0.08359626,0.04675296
1.025395,-0.0853567,0.05200812
1.024473,-0.08390564,0.05909137
1.022075,-0.08327698,0.05838383
1.02102,-0.08533685,0.05635093
1.022726,-0.08625042,0.05374647
1.026645,-0.08751473,0.04928538
1.025173,-0.08503306,0.05454106
1.023836,-0.07892939,0.06259471
1.026107,-0.07521002,0.05937161
1.024541,-0.06990111,0.05653609
1.024754,-0.06658723,0.05845377
1.025659,-0.06789469,0.05974643
1.023961,-0.06629225,0.06375558
1.023623,-0.0667149,0.06341251
1.021653,-0.0710107,0.06090292
1.021715,-0.07555677,0.0635115
1.023073,-0.07960781,0.06249065
1.021636,-0.07790463,0.06177756
1.02269,-0.07719199,0.06322842
1.024275,-0.08145008,0.06098643
1.025133,-0.08243005,0.06095972
1.025559,-0.0819807,0.06096728
1.024425,-0.081352,0.05899919
1.024988,-0.07889541,0.05959688
1.024003,-0.07641254,0.06497508
1.021471,-0.07481087,0.07247569
1.022328,-0.07319103,0.07204276
1.024019,-0.06877257,0.06963627
1.024212,-0.06730576,0.06845209
1.024264,-0.06909253,0.06175944
1.026156,-0.0674373,0.06171582
1.026954,-0.06792997,0.06161688
1.024981,-0.06872082,0.05317645
1.024826,-0.06730067,0.05548646
1.024768,-0.06851298,0.06199382
1.023052,-0.06805152,0.06508455
1.021891,-0.06768981,0.070017
1.02218,-0.06820867,0.06622486
1.02449,-0.06549703,0.06230956
1.025428,-0.06311378,0.06491553
1.024936,-0.06184296,0.06350855
1.024849,-0.06241635,0.06366621
1.023791,-0.06268311,0.065192
1.022614,-0.0600075,0.06682385
1.022136,-0.05850964,0.07095986
1.024186,-0.05867629,0.06960487
1.026767,-0.0624241,0.06750508
1.026858,-0.06836965,0.06821126
1.027895,-0.07032453,0.06560647
1.028846,-0.06912351,0.06272827
1.027159,-0.06648536,0.06113532
1.024471,-0.06455757,0.06070953
1.022199,-0.0628066,0.0617781
1.022065,-0.06081905,0.06279777
1.024396,-0.06456584,0.06507149
1.026613,-0.06959227,0.06783967
1.026408,-0.06914432,0.06942434
1.025333,-0.06901447,0.06731319
1.02463,-0.06988388,0.06280732
1.023947,-0.06806718,0.06341247
1.023598,-0.06695729,0.06504606
1.02337,-0.0684163,0.06406698
1.023586,-0.07257236,0.06570177
1.022798,-0.07689029,0.06553302
1.02171,-0.07633625,0.06418842
1.022353,-0.07647396,0.06647411
1.022324,-0.07841966,0.06720693
1.02206,-0.07363292,0.06646884
1.022356,-0.06602697,0.06589986
1.022141,-0.06235427,0.06350202
1.022253,-0.06331142,0.06223858
1.022412,-0.06545249,0.06598484
1.022896,-0.06562641,0.06929545
1.023404,-0.06975601,0.06452751
1.024323,-0.07356561,0.05836658
1.027949,-0.07274374,0.05594627
1.030498,-0.07754355,0.05569883
1.028459,-0.08188798,0.06027881
1.025944,-0.07709183,0.06407614
1.024753,-0.07237379,0.06227757
1.024461,-0.07143247,0.06036635
1.025291,-0.06934791,0.06097215
1.024316,-0.06871479,0.06102463
1.024344,-0.07326363,0.05814899
1.028315,-0.07541062,0.05556687
1.029715,-0.07471691,0.05453143
1.027113,-0.07545741,0.0544654
1.024711,-0.07459876,0.05777354
1.02462,-0.07453081,0.06101871
1.025439,-0.07265033,0.05994805
1.024779,-0.06946201,0.05931287
1.025128,-0.07154676,0.06198302
1.026129,-0.07391511,0.06327529
1.026025,-0.07538657,0.06340107
1.024729,-0.07540023,0.06504001
1.021916,-0.07337683,0.06566878
1.021742,-0.07403418,0.06519141
1.02311,-0.07541249,0.06482554
1.023714,-0.07694585,0.06356731
1.025755,-0.07758992,0.06198666
1.026251,-0.0763096,0.06217539
1.025865,-0.07566247,0.06302324
1.025619,-0.07416817,0.0629724
1.022731,-0.07303711,0.06593925
1.021435,-0.07328214,0.06912998
1.023422,-0.07689799,0.06638371
1.026727,-0.08276476,0.06402966
1.030388,-0.08116224,0.06519783
1.029102,-0.07905541,0.06385762
1.024495,-0.08262674,0.06151485
1.023229,-0.08208909,0.06282244
1.024283,-0.08085775,0.06481612
1.025517,-0.07992272,0.0653614
1.025221,-0.0761196,0.06598535
1.024434,-0.07616569,0.06680997
1.025587,-0.07706904,0.06815741
1.025881,-0.07740131,0.06645552
1.026339,-0.07868188,0.06219657
1.026747,-0.07745021,0.06209337
1.024983,-0.07849051,0.06287135
1.024708,-0.08004716,0.06259256
1.02404,-0.07813578,0.06393211
1.02224,-0.0762104,0.06341456
1.022115,-0.07259456,0.06208588
1.022107,-0.07104141,0.06311216
1.022558,-0.07363208,0.06434482
1.022925,-0.07574237,0.06570733
1.02282,-0.07854576,0.06944983
1.022315,-0.07859443,0.07228699
1.021696,-0.07686577,0.07194379
1.022958,-0.07914834,0.07159368
1.024217,-0.07986755,0.07050899
1.026088,-0.07919171,0.07007747
1.027656,-0.07920513,0.0697192
1.027062,-0.0761535,0.06704631
1.026688,-0.07487726,0.06787257
1.022994,-0.07644898,0.06881654
1.020098,-0.07741317,0.06717671
1.021387,-0.07984254,0.06694509
1.020262,-0.08360729,0.06379583
1.024947,-0.08822995,0.0616066
1.03295,-0.08939795,0.06489904
1.029903,-0.08331571,0.06787368
1.026177,-0.07766297,0.06854641
1.02669,-0.07698287,0.0673934
1.024149,-0.07733178,0.06523254
1.023416,-0.07447044,0.06398922
1.023304,-0.07127546,0.06735634
1.021306,-0.07502542,0.07352843
1.022336,-0.07991521,0.07559635
1.022681,-0.07899662,0.07639682
1.021648,-0.07636851,0.07694893
1.022572,-0.07176361,0.07487497
1.022211,-0.06549204,0.07425362
1.02162,-0.06242151,0.07333143
1.020764,-0.06216911,0.07309368
1.018829,-0.06347595,0.07685069
1.020558,-0.06798304,0.07823118
1.023759,-0.07530049,0.08051065
1.025831,-0.07978359,0.08448674
1.027948,-0.08025724,0.07852146
1.027703,-0.08243183,0.07102556
1.025559,-0.08375523,0.07290891
1.023497,-0.08284323,0.07706967
1.022228,-0.08460546,0.07986923
1.022211,-0.08464041,0.07796748
1.02217,-0.08159679,0.07356956
1.022214,-0.07971789,0.07437563
1.022319,-0.07812407,0.07461938
1.022457,-0.07670407,0.07355074
1.02408,-0.07477652,0.07272973
1.025381,-0.07353731,0.06592313
1.024241,-0.07273406,0.06108808
1.02302,-0.07060626,0.0665439
1.02382,-0.07092482,0.07466881
1.024808,-0.07209453,0.07640788
1.024977,-0.07344981,0.07393786
1.025025,-0.07610734,0.07414626
1.023829,-0.07660167,0.07678505
1.02234,-0.07652972,0.08173815
1.022064,-0.07628895,0.08357193
1.022137,-0.07515786,0.07983845
1.022378,-0.0708409,0.0808529
1.022173,-0.06341823,0.08389837
1.022479,-0.06254761,0.08429424
1.024366,-0.06637218,0.08122645
1.026288,-0.0707543,0.07098187
1.026925,-0.07621861,0.06658976
1.026322,-0.07266788,0.07469144
1.027145,-0.06643288,0.08140691
1.028017,-0.06988576,0.07912761
1.025644,-0.07106287,0.07412864
1.023446,-0.06975203,0.07066553
1.023148,-0.07351089,0.0683979
1.023216,-0.07261746,0.07718167
1.023473,-0.07104604,0.08816119
1.023806,-0.07342454,0.08351195
1.024043,-0.07272191,0.07942329
1.024783,-0.07364001,0.08078777
1.0257,-0.07467635,0.07851425
1.024554,-0.07440165,0.0785593
1.023758,-0.0765038,0.07860802
1.023778,-0.07496392,0.08146402
1.022344,-0.0741008,0.08578414
1.022911,-0.07536178,0.07796045
1.023469,-0.07175295,0.06924758
1.023352,-0.06898132,0.07052106
1.024907,-0.06927331,0.07260317
1.02503,-0.06936464,0.07330402
1.027364,-0.06868316,0.07457925
1.03007,-0.06755557,0.07433914
1.026423,-0.06773527,0.07214151
1.023388,-0.06579014,0.07082648
1.024321,-0.06160185,0.0710496
1.023828,-0.06216133,0.07192176
1.022825,-0.06631923,0.07403576
1.023088,-0.06627064,0.07372364
1.022378,-0.06405949,0.070279
1.023539,-0.06565482,0.0687777
1.025953,-0.06576589,0.07063687
1.023677,-0.06445917,0.07595945
1.021026,-0.06604837,0.08133075
1.020926,-0.06625861,0.08124981
1.021598,-0.06747469,0.07940736
1.023873,-0.06898533,0.07909996
1.024666,-0.06750046,0.07737743
1.024057,-0.06812305,0.07646876
1.0233,-0.06833373,0.0749696
1.021238,-0.0680024,0.07095514
1.019692,-0.07019503,0.07252778
1.018989,-0.07101998,0.07535085
1.019468,-0.06995661,0.0737533
1.019782,-0.06803253,0.07512443
1.01977,-0.06747052,0.07626425
1.023209,-0.06754591,0.07792142
1.02581,-0.06687736,0.08577482
1.023383,-0.07018109,0.08881181
1.02113,-0.07309577,0.08302175
1.022239,-0.06966624,0.07766971
1.022996,-0.06656986,0.07699151
1.022753,-0.0681251,0.07822798
1.024908,-0.06930461,0.07740438
1.025648,-0.0700742,0.0761348
1.024282,-0.07286744,0.07648693
1.024173,-0.07085435,0.07794348
1.022481,-0.06690627,0.07810317
1.021981,-0.06826385,0.07541466
1.024744,-0.06835774,0.07447702
1.027214,-0.06757385,0.07556617
1.028138,-0.06900559,0.07668784
1.025899,-0.07052591,0.07752784
1.023943,-0.07302039,0.07346776
1.024283,-0.07237205,0.06918723
1.023716,-0.06956698,0.07154546
1.024188,-0.0694059,0.07325198
1.025376,-0.06944205,0.07083058
1.023971,-0.07037649,0.07103139
1.021955,-0.07132131,0.07483473
1.021189,-0.07061362,0.07729366
1.021169,-0.07139423,0.07641479
1.023371,-0.07359073,0.07378298
1.026067,-0.07515707,0.07200045
1.025179,-0.07224107,0.07027193
1.024345,-0.06660347,0.06977771
1.025458,-0.06659639,0.07491956
1.024778,-0.07086953,0.07912381
1.023502,-0.07391579,0.07542911
1.021857,-0.07286086,0.07176381
1.019997,-0.06822325,0.07346167
1.021188,-0.06587386,0.072668
1.023066,-0.06671272,0.07027786
1.023559,-0.06896158,0.07580029
1.023092,-0.07137579,0.08124732
1.021808,-0.07232656,0.07904743
1.02299,-0.07274339,0.07670642
1.024739,-0.07193383,0.07619904
1.024713,-0.07161198,0.07396137
1.024542,-0.070996,0.07137414
1.02086,-0.06789995,0.07445872
1.01773,-0.06754551,0.08077206
1.020086,-0.06961398,0.08486328
1.02099,-0.07295155,0.08826949
1.021653,-0.07550331,0.08793299
1.025013,-0.07405894,0.08508433
1.026288,-0.07424408,0.07971219
1.026356,-0.07293613,0.07004883
1.02547,-0.07089283,0.06781902
1.023527,-0.07312378,0.06966473
1.023465,-0.07280591,0.06951578
1.023856,-0.07528284,0.07611419
1.024463,-0.07929443,0.07929552
1.024998,-0.07576141,0.07316395
1.023209,-0.07390067,0.07009909
1.021554,-0.07534215,0.07078786
1.022097,-0.07603577,0.07221332
1.022617,-0.07930411,0.074488
1.022008,-0.08326379,0.079022
1.022496,-0.08233393,0.08171286
1.024263,-0.07854687,0.07157351
1.025311,-0.07723998,0.06170857
1.025121,-0.07505595,0.07017339
1.023773,-0.0737551,0.08046453
1.02336,-0.07442826,0.07941463
1.023592,-0.07306905,0.07832565
1.022591,-0.07518722,0.07722076
1.022041,-0.07577786,0.07249324
1.021928,-0.07201422,0.07334048
1.021978,-0.0723746,0.07757342
1.022944,-0.07330799,0.076895
1.023723,-0.07437483,0.07460885
1.022411,-0.07456281,0.074013
1.021371,-0.07101275,0.07089587
1.023732,-0.07083803,0.06701113
1.024094,-0.07389852,0.07234532
1.022813,-0.07665234,0.08123928
1.023565,-0.07673332,0.0822363
1.023734,-0.07391049,0.07712151
1.026165,-0.07366781,0.07153718
1.027483,-0.07574194,0.0722798
1.025723,-0.07906998,0.07509291
1.02716,-0.08190081,0.07406409
1.026535,-0.08147267,0.07468477
1.024073,-0.07946292,0.07379831
1.024834,-0.07683082,0.07160338
1.024406,-0.07696852,0.07497215
1.023329,-0.07658381,0.07662465
1.024752,-0.0720372,0.07051659
1.026992,-0.07149129,0.06420545
1.026506,-0.0730254,0.06518275
1.024361,-0.07278289,0.07017214
1.025239,-0.07379664,0.07333373
1.02814,-0.07289222,0.0743721
1.029274,-0.07158742,0.07346352
1.026688,-0.07275139,0.07339162
1.023771,-0.07411383,0.07500744
1.024864,-0.07522224,0.07501421
1.025358,-0.07439023,0.07502243
1.022699,-0.07292825,0.07510657
1.021531,-0.0726071,0.07457968
1.021434,-0.06855365,0.07381887
1.020595,-0.06368603,0.07054284
1.02127,-0.06654127,0.06844997
1.023673,-0.0701158,0.06971619
1.025731,-0.0683587,0.070803
1.024983,-0.0692174,0.0718087
1.022592,-0.07021619,0.07310516
1.02199,-0.06704431,0.07423334
1.022121,-0.06440877,0.07395802
1.022289,-0.06200049,0.0728714
1.022347,-0.06367998,0.07480907
1.02235,-0.0680825,0.07630461
1.024177,-0.0679707,0.07442203
1.02536,-0.07086126,0.07544631
1.024176,-0.07526203,0.07660973
1.023129,-0.07370782,0.07374948
1.023544,-0.07333879,0.07219744
1.023778,-0.0755882,0.0678795
1.022446,-0.07639688,0.06301112
1.022688,-0.07498279,0.06643374
1.025883,-0.06981847,0.07059135
1.028448,-0.0631827,0.0726817
1.026162,-0.06246078,0.0735606
1.021745,-0.06656615,0.07299796
1.022244,-0.06674356,0.07541519
1.02446,-0.06615692,0.07393884
1.025145,-0.06579551,0.07049601
1.025476,-0.06440203,0.07293445
1.024522,-0.06797089,0.07369372
1.025068,-0.06973696,0.07404977
1.025343,-0.06936831,0.07595948
1.024501,-0.07226226,0.07414235
1.025371,-0.07365396,0.0720958
1.024561,-0.07335968,0.07046809
1.023016,-0.06791995,0.07047132
1.022379,-0.06130142,0.07343635
1.023471,-0.05705554,0.0740574
1.026135,-0.05164374,0.07406072
1.024854,-0.05708649,0.07416939
1.023428,-0.06479075,0.07437957
1.024018,-0.06049157,0.07792172
1.023001,-0.05969655,0.07845654
1.022856,-0.06145929,0.07482111
1.022158,-0.05787113,0.0728335
1.021905,-0.05852769,0.07176011
1.023669,-0.0625922,0.07202406
1.023985,-0.06451393,0.07321135
1.025396,-0.06444272,0.07460587
1.026878,-0.06303559,0.07737971
1.025468,-0.06257823,0.07782505
1.024553,-0.05980087,0.07734285
1.02498,-0.05591673,0.07924242
1.025239,-0.0571154,0.07882183
1.024845,-0.05951539,0.0758643
1.025306,-0.06438277,0.07270251
1.026987,-0.07004958,0.07075524
1.027753,-0.06668389,0.0709177
1.026315,-0.06384378,0.06913442
1.024075,-0.06869938,0.06847011
1.024486,-0.07079765,0.06913245
1.024072,-0.07046021,0.0659262
1.022,-0.07367929,0.06621944
1.023827,-0.07508528,0.06950479
1.024362,-0.06960554,0.06999373
1.022796,-0.06489605,0.07190789
1.024514,-0.06819903,0.07226856
1.02588,-0.07101395,0.0682694
1.025703,-0.0675859,0.06589118
1.024397,-0.06558486,0.06895088
1.024116,-0.06539342,0.07441926
1.025318,-0.06470889,0.07680009
1.021198,-0.06571405,0.07606609
1.018487,-0.06546663,0.07354457
1.023624,-0.06578723,0.07133041
1.027236,-0.06742041,0.0721055
1.02655,-0.06645905,0.07232934
1.025012,-0.06594937,0.07014459
1.024809,-0.06431281,0.06889483
1.025217,-0.06121365,0.06958099
1.024585,-0.06162601,0.07041116
1.02428,-0.0623405,0.07006214
1.023504,-0.06261619,0.06925541
1.02423,-0.06534633,0.06942766
1.025574,-0.06928683,0.07071592
1.023682,-0.07162937,0.07180012
1.02214,-0.06930193,0.07158373
1.021215,-0.06672232,0.07042999
1.020419,-0.06833661,0.06965264
1.021158,-0.06852643,0.06949629
1.022104,-0.06707775,0.06925562
1.024216,-0.0666273,0.06931521
1.025711,-0.06474883,0.06869327
1.024956,-0.06478372,0.06757118
1.025094,-0.06621626,0.06790446
1.026985,-0.06573079,0.06738469
1.028144,-0.06725953,0.0663319
1.026964,-0.06891847,0.06758859
1.02584,-0.06936447,0.06852595
1.026435,-0.06985042,0.067984
1.026269,-0.06760475,0.06809066
1.024029,-0.06503419,0.06854402
1.021684,-0.06392619,0.06702015
1.021789,-0.06597799,0.06413355
1.023662,-0.06930917,0.06305777
1.024274,-0.06627166,0.06352265
1.024719,-0.06383846,0.06646927
1.025526,-0.06613029,0.07140809
1.023811,-0.06619091,0.07140067
1.022862,-0.06659871,0.06831326
1.023194,-0.06731228,0.06647762
1.021704,-0.06676423,0.0644958
1.022098,-0.06707377,0.06764705
1.022661,-0.06707236,0.07314389
1.021976,-0.06991653,0.07378255
1.023346,-0.0732272,0.07291802
1.023884,-0.07182531,0.07091425
1.023727,-0.07085276,0.07131916
1.024532,-0.07016379,0.07410592
1.024638,-0.06866499,0.07365639
1.022572,-0.06968321,0.07363657
1.019881,-0.06967676,0.0707831
1.021865,-0.06884796,0.06556256
1.025055,-0.0690726,0.06641329
1.025066,-0.06854487,0.06937564
1.024772,-0.06952543,0.07067897
1.023144,-0.06997451,0.07107731
1.021556,-0.06872672,0.07101654
1.022249,-0.06858181,0.07108855
1.022426,-0.06702238,0.07036479
1.022272,-0.06616189,0.07050082
1.023109,-0.06811856,0.07430263
1.024126,-0.06919372,0.07813349
1.024578,-0.06964816,0.07886473
1.025033,-0.06956034,0.08170029
1.025105,-0.06972163,0.08116836
1.023871,-0.07231871,0.07284292
1.023706,-0.0740344,0.06933896
1.025465,-0.07169174,0.07217278
1.026567,-0.06802812,0.07535544
1.024673,-0.06747945,0.07583486
1.021532,-0.0686098,0.07430935
1.021059,-0.0688407,0.07586721
1.020997,-0.06983455,0.07530029
1.020591,-0.07093666,0.07297003
1.022037,-0.07272061,0.07218003
1.022471,-0.07536424,0.0671313
1.022293,-0.07527807,0.0629827
1.023377,-0.07429508,0.06538081
1.024669,-0.07378389,0.07088046
1.025472,-0.07340892,0.07533279
1.024703,-0.07563214,0.075658
1.023748,-0.07716263,0.07459346
1.022722,-0.07546234,0.0749565
1.021638,-0.07288491,0.07435617
1.022736,-0.07045442,0.06999798
1.024374,-0.07068689,0.06489307
1.026141,-0.07222854,0.06436075
1.026565,-0.07125356,0.06608919
1.023146,-0.06791763,0.06618751
1.020447,-0.06391052,0.06600972
1.020914,-0.06452684,0.06446849
1.022815,-0.06662721,0.06135842
1.024582,-0.0650775,0.06283452
1.025409,-0.06831437,0.06668158
1.02667,-0.07386398,0.06667403
1.026986,-0.07487784,0.06488629
1.026813,-0.07500909,0.06247804
1.027137,-0.07290505,0.06045599
1.022674,-0.07040878,0.05913658
1.017689,-0.06947997,0.05855935
1.020892,-0.06715472,0.06160178
1.024013,-0.06530393,0.06939501
1.021614,-0.06433063,0.07808849
1.021808,-0.06241193,0.07644219
1.02297,-0.05866519,0.07076789
1.022056,-0.05874628,0.06925351
1.024095,-0.06706945,0.06131619
1.025635,-0.07328642,0.06127723
1.023746,-0.07155885,0.06999751
1.022334,-0.0703329,0.06609538
1.021951,-0.07346962,0.06044362
1.022652,-0.07454049,0.05652706
1.024289,-0.07443874,0.05825151
1.02627,-0.0761786,0.06972162
1.02702,-0.07541841,0.07236066
1.026191,-0.07630933,0.07188271
1.02726,-0.0773514,0.06628678
1.027963,-0.07537124,0.05652393
1.025799,-0.0768446,0.06678287
1.024424,-0.07574404,0.0746757
1.024522,-0.07121884,0.06590469
1.023552,-0.06919349,0.06365108
1.021523,-0.07022736,0.06681564
1.021889,-0.07384297,0.06795219
1.022899,-0.0720853,0.06987215
1.021797,-0.07018902,0.07325319
1.022205,-0.07181065,0.07300937
1.022732,-0.06987849,0.07097392
1.022722,-0.06969503,0.0723633
1.024133,-0.06792439,0.06932845
1.023698,-0.06518547,0.06443312
1.023234,-0.06734829,0.06333708
1.023961,-0.06671302,0.06212712
1.023446,-0.06622801,0.06329408
1.023941,-0.06719207,0.06384698
1.025542,-0.06625645,0.05969877
1.026588,-0.06686481,0.05508059
1.025831,-0.06668927,0.05288418
1.024268,-0.06648006,0.05458022
1.025068,-0.06710246,0.06205597
1.025365,-0.06732892,0.07210336
1.024405,-0.06881823,0.07133711
1.024328,-0.06994193,0.06070494
1.023366,-0.07089191,0.05686965
1.023489,-0.07041298,0.06003202
1.025118,-0.06935952,0.0635703
1.026269,-0.07309458,0.06531828
1.028186,-0.07611093,0.06756362
1.027305,-0.07268197,0.07114423
1.022147,-0.06838395,0.06859592
1.019766,-0.0674632,0.06493058
1.022712,-0.06795187,0.06392904
1.024772,-0.06732368,0.06295273
1.023298,-0.06664265,0.06600332
1.023279,-0.06832681,0.06741014
1.024106,-0.07010156,0.06786268
1.023294,-0.06824885,0.06855046
1.023822,-0.06552903,0.06441198
1.024867,-0.06554342,0.06441553
1.025909,-0.06821958,0.06975164
1.026611,-0.07220213,0.07541702
1.02443,-0.07291696,0.07558478
1.022725,-0.07075699,0.06811101
1.023137,-0.07046388,0.06563607
1.023937,-0.06988367,0.06789578
1.025489,-0.0678289,0.06991967
1.026107,-0.06599412,0.06982804
1.02518,-0.06473821,0.06600127
1.024027,-0.06503175,0.06651774
1.02321,-0.06469292,0.06811282
1.024104,-0.06321267,0.06783084
1.026568,-0.06292906,0.06781114
1.028374,-0.06252483,0.06372338
1.027414,-0.06270657,0.0595523
1.023716,-0.06613656,0.0582437
1.021254,-0.07123935,0.05935488
1.022218,-0.07434802,0.06153863
1.023595,-0.07388712,0.06287678
1.023862,-0.07255821,0.06463003
1.024303,-0.07104443,0.06395598
1.024237,-0.06741977,0.06428361
1.024921,-0.1688042,-0.07182171
1.025669,-0.1711997,-0.06814935
1.02341,-0.1675218,-0.06408747
1.022115,-0.164164,-0.06110212
1.020336,-0.1677326,-0.06244134
1.018652,-0.1703826,-0.06326188
1.019581,-0.1638992,-0.062248
1.020002,-0.1565243,-0.0647431
1.020662,-0.154445,-0.06791953
1.02108,-0.1540147,-0.06875087
1.019108,-0.1562972,-0.07008853
1.018969,-0.158525,-0.07240557
1.020968,-0.1585375,-0.07458593
1.021174,-0.158302,-0.07499982
1.021503,-0.157792,-0.07229933
1.022721,-0.1562433,-0.06717214
1.022008,-0.1522171,-0.06366246
1.021292,-0.150287,-0.06540666
1.021527,-0.1516911,-0.0669978
1.021325,-0.1515718,-0.06590037
1.020752,-0.1515159,-0.065157
1.019745,-0.1536144,-0.06356701
1.020231,-0.1565426,-0.06480388
1.02117,-0.157638,-0.06935172
1.020801,-0.1569296,-0.07173774
1.021169,-0.1580436,-0.07280437
1.022601,-0.1605904,-0.0723064
1.023998,-0.1604307,-0.07172914
1.022437,-0.1548278,-0.07232372
1.018745,-0.1492497,-0.07027611
1.018358,-0.1502922,-0.06785125
1.022404,-0.1497774,-0.06508652
1.025943,-0.1438147,-0.06143017
1.021897,-0.1437557,-0.0633347
1.01711,-0.1479265,-0.06784362
1.019997,-0.1498398,-0.06798545
1.021374,-0.1525581,-0.06529462
1.020991,-0.152655,-0.06357416
1.023127,-0.1522417,-0.0662091
1.02218,-0.154564,-0.06923205
1.021698,-0.1540282,-0.06623022
1.022833,-0.1533344,-0.06323498
1.02186,-0.1509967,-0.06224654
1.02188,-0.1468306,-0.05876568
1.020679,-0.1476583,-0.05870637
1.01875,-0.1477158,-0.06003193
1.020375,-0.146474,-0.05746353
1.021257,-0.1476553,-0.05876991
1.019766,-0.1472219,-0.06271123
1.019056,-0.1469637,-0.06429705
1.019844,-0.147507,-0.06437578
1.021755,-0.1474162,-0.06253294
1.02438,-0.148663,-0.06312369
1.025473,-0.1488466,-0.06459719
1.022876,-0.1467835,-0.06266115
1.020464,-0.1464802,-0.05947708
1.020565,-0.1471227,-0.05677865
1.020036,-0.146292,-0.06153383
1.019149,-0.147125,-0.06696947
1.019513,-0.1481177,-0.05895157
1.020707,-0.1473569,-0.05155135
1.021944,-0.1482492,-0.05321229
1.022507,-0.1484746,-0.05368634
1.02227,-0.1489799,-0.05623819
1.02202,-0.1506721,-0.06027576
1.022362,-0.147992,-0.06042137
1.022416,-0.1460424,-0.06115737
1.022803,-0.1471435,-0.05480326
1.023148,-0.1472827,-0.04480702
1.021962,-0.149128,-0.05097365
1.021901,-0.1500756,-0.06018045
1.022444,-0.1490586,-0.06150789
1.021146,-0.1477397,-0.06467825
1.0205,-0.1452554,-0.06390719
1.020908,-0.1472803,-0.06179988
1.020698,-0.151002,-0.06070377
1.019908,-0.150277,-0.05485736
1.01916,-0.1509023,-0.05421135
1.019545,-0.1508946,-0.05984008
1.020711,-0.1468212,-0.06442606
1.022416,-0.1462848,-0.06511828
1.025455,-0.1487729,-0.06427563
1.02808,-0.1505764,-0.0659554
1.027469,-0.1526999,-0.06336552
1.023869,-0.1491614,-0.06188722
1.021172,-0.1433573,-0.06748359
1.021957,-0.1459143,-0.07095333
1.022868,-0.1479274,-0.06978321
1.022256,-0.145562,-0.06268212
1.023526,-0.1472982,-0.05866828
1.024108,-0.149363,-0.0621341
1.021246,-0.1502267,-0.06145907
1.019876,-0.1505649,-0.06135963
1.01984,-0.1494654,-0.06338085
1.019942,-0.1512018,-0.06224604
1.022301,-0.1518883,-0.06239555
1.02276,-0.150767,-0.06232409
1.021523,-0.1508302,-0.0602265
1.021603,-0.1495496,-0.05782099
1.020563,-0.1498703,-0.05773826
1.020708,-0.1500583,-0.06052637
1.022195,-0.1478082,-0.06200973
1.022188,-0.1472665,-0.06191703
1.022365,-0.1489469,-0.06078123
1.022185,-0.1517236,-0.06166955
1.021904,-0.151162,-0.06406768
1.021561,-0.1472292,-0.06194534
1.02055,-0.1449168,-0.06181145
1.021675,-0.144822,-0.06315204
1.022789,-0.1462549,-0.05898079
1.021703,-0.1460874,-0.05758903
1.020528,-0.1457169,-0.05967265
1.01992,-0.148321,-0.06348206
1.021002,-0.1517413,-0.06756042
1.022257,-0.1561439,-0.0612946
1.022098,-0.1582759,-0.0537176
1.021987,-0.1562089,-0.05559208
1.020485,-0.1544513,-0.05818079
1.018707,-0.1523165,-0.05840568
1.019246,-0.1503973,-0.05902726
1.018889,-0.1516927,-0.06093796
1.017515,-0.1527334,-0.06321809
1.018372,-0.1514792,-0.06315613
1.020137,-0.1477426,-0.06288255
1.020968,-0.1427171,-0.06527884
1.020203,-0.143772,-0.06596096
1.01903,-0.146936,-0.0646591
1.020477,-0.1455734,-0.064832
1.022203,-0.147188,-0.06127393
1.021542,-0.1483626,-0.05560805
1.021103,-0.1461623,-0.05469673
1.020979,-0.1472256,-0.05616156
1.021269,-0.1461108,-0.05814404
1.024152,-0.1448719,-0.06230123
1.02615,-0.1479347,-0.06915769
1.02458,-0.1491568,-0.07345683
1.023486,-0.1502295,-0.07061563
1.022995,-0.1505697,-0.06279264
1.021762,-0.1484182,-0.05743913
1.023105,-0.1456652,-0.06556144
1.024322,-0.1409523,-0.07608786
1.023244,-0.1411569,-0.06983633
1.023284,-0.1465767,-0.05617732
1.021994,-0.147809,-0.04634115
1.020411,-0.1472926,-0.04491672
1.022784,-0.1476842,-0.05380006
1.025358,-0.1496607,-0.06130993
1.024926,-0.1526192,-0.06569883
1.022729,-0.1512463,-0.06307901
1.020884,-0.1498486,-0.05437194
1.020627,-0.1501593,-0.05852018
1.021841,-0.1485383,-0.06120438
1.022309,-0.1476113,-0.05852332
1.020293,-0.1469668,-0.06585813
1.018833,-0.1472029,-0.06535912
1.019369,-0.1486997,-0.06280338
1.02009,-0.1494617,-0.06423278
1.021109,-0.1506339,-0.05634203
1.022655,-0.151296,-0.05295897
1.023009,-0.1534456,-0.05654034
1.02344,-0.1566216,-0.06138529
1.025395,-0.1549839,-0.06397528
1.023288,-0.1502714,-0.06039832
1.01941,-0.146305,-0.05882995
1.020849,-0.1455942,-0.05585196
1.022046,-0.1487227,-0.0526654
1.020439,-0.1505876,-0.05293435
1.019612,-0.1483732,-0.05137228
1.019571,-0.1463056,-0.04821899
1.020319,-0.1483819,-0.04174931
1.021066,-0.150132,-0.04064476
1.021195,-0.1489189,-0.04708433
1.021496,-0.1483129,-0.05059222
1.022519,-0.1476112,-0.05235371
1.022519,-0.1469835,-0.0514347
1.0214,-0.1472657,-0.05102576
1.020702,-0.1473649,-0.05393277
1.018953,-0.1480169,-0.05415345
1.019305,-0.1481054,-0.05305171
1.021977,-0.1475743,-0.05104047
1.022346,-0.1470692,-0.05125287
1.022383,-0.1464512,-0.05567075
1.022533,-0.147839,-0.05721267
1.023791,-0.1512361,-0.05684245
1.025896,-0.1531142,-0.0570461
1.024594,-0.1502392,-0.05666713
1.022836,-0.1463128,-0.0561256
1.022065,-0.1468754,-0.05489014
1.021799,-0.1477091,-0.05365335
1.022663,-0.1459224,-0.05248976
1.022104,-0.1466272,-0.05185134
1.02202,-0.1513651,-0.05054911
1.022554,-0.155689,-0.04854279
1.02196,-0.1545356,-0.05294318
1.022307,-0.1509224,-0.05962383
1.022312,-0.1499849,-0.05835001
1.022038,-0.1471865,-0.05475344
1.022402,-0.1445091,-0.05264966
1.022477,-0.1467392,-0.04698558
1.02401,-0.148745,-0.04023783
1.025626,-0.1504126,-0.04014853
1.025101,-0.1499527,-0.04875467
1.024678,-0.1455954,-0.05655456
1.025161,-0.1437252,-0.05695628
1.025068,-0.1449084,-0.05752499
1.024823,-0.1485457,-0.06008634
1.024957,-0.1524022,-0.05764095
1.023914,-0.1534653,-0.05368397
1.021993,-0.1538846,-0.05378151
1.020193,-0.151367,-0.05124257
1.019788,-0.1470958,-0.04915869
1.023829,-0.1465021,-0.05533231
1.027542,-0.1479856,-0.05765904
1.023839,-0.1490704,-0.05641558
1.019494,-0.1504272,-0.05934744
1.020687,-0.1511899,-0.0588843
1.020884,-0.1500999,-0.05953546
1.020358,-0.1490263,-0.06031401
1.022943,-0.1483262,-0.05586904
1.02255,-0.149094,-0.05542196
1.020498,-0.1519193,-0.05645188
1.021062,-0.1519217,-0.05699442
1.020719,-0.1504286,-0.05744222
1.020718,-0.1517236,-0.05468075
1.021298,-0.1517871,-0.05302745
1.02179,-0.1479817,-0.05065475
1.024439,-0.1460685,-0.05117147
1.025504,-0.1465721,-0.0558558
1.023586,-0.1446105,-0.05857955
1.021448,-0.1439318,-0.06234799
1.020451,-0.1446159,-0.06134184
1.021911,-0.1437154,-0.05721459
1.023635,-0.144854,-0.05740926
1.02343,-0.1471338,-0.05583972
1.021782,-0.1491009,-0.05504392
1.020233,-0.1532244,-0.05622816
1.020683,-0.1584205,-0.05716266
1.021228,-0.1572856,-0.05901439
1.020426,-0.1536209,-0.05827
1.020083,-0.1571471,-0.05668581
1.020431,-0.1575673,-0.05517971
1.02207,-0.1529105,-0.05359853
1.024667,-0.1490672,-0.05502011
1.025571,-0.1441441,-0.05620229
1.025842,-0.1470373,-0.05574287
1.02644,-0.1508505,-0.05716675
1.025042,-0.1480394,-0.05911638
1.021742,-0.1517462,-0.05843538
1.019065,-0.156451,-0.05697212
1.019248,-0.1546338,-0.05422269
1.020918,-0.1516048,-0.04995966
1.021841,-0.1495326,-0.05158205
1.022531,-0.1493775,-0.05713528
1.022295,-0.148841,-0.05954046
1.02196,-0.1486153,-0.06139892
1.022441,-0.1476346,-0.06291294
1.021625,-0.1427235,-0.06271138
1.019459,-0.1381566,-0.06236127
1.018635,-0.1408115,-0.06163545
1.023859,-0.1550818,-0.06043409
1.030368,-0.1662179,-0.06074022
1.028244,-0.1587282,-0.06194816
1.024869,-0.1497746,-0.05655485
1.022681,-0.1513481,-0.04943908
1.016069,-0.1461335,-0.04897331
1.016784,-0.1368783,-0.04880669
1.021269,-0.1433271,-0.05381667
1.01847,-0.1520042,-0.05982344
1.019277,-0.1539606,-0.05618291
1.020439,-0.1578112,-0.05652812
1.018662,-0.1523594,-0.05885414
1.021738,-0.1425649,-0.05772442
1.022061,-0.1396339,-0.05895606
1.021101,-0.1369031,-0.05801704
1.022739,-0.140087,-0.05784595
1.022143,-0.1463578,-0.05702754
1.022202,-0.1461983,-0.05441653
1.022075,-0.1456008,-0.05580057
1.021051,-0.1464647,-0.05580271
1.019875,-0.1484266,-0.05521012
1.01951,-0.151284,-0.05635885
1.023875,-0.1520176,-0.0580679
1.02898,-0.1520114,-0.05831534
1.031061,-0.1497712,-0.0483909
1.030087,-0.1446824,-0.03872959
1.027342,-0.1413706,-0.04726387
1.024885,-0.1384367,-0.05798417
1.023292,-0.1381978,-0.05514682
1.024367,-0.1442325,-0.05622874
1.026312,-0.148333,-0.06162643
1.027558,-0.1498573,-0.05801283
1.024979,-0.1510167,-0.05401806
1.020176,-0.1500077,-0.05099565
1.022152,-0.1505658,-0.05160624
1.023229,-0.148089,-0.05582777
1.020198,-0.14373,-0.04994348
1.021038,-0.14368,-0.04488141
1.021101,-0.142685,-0.0444285
1.021546,-0.142134,-0.04096184
1.024039,-0.1400463,-0.04539457
1.02451,-0.1361959,-0.05148235
1.024948,-0.1391783,-0.04952587
1.023339,-0.1418488,-0.04795187
1.021326,-0.1410554,-0.05012791
1.02234,-0.1438806,-0.0515783
1.022467,-0.1477711,-0.05167086
1.022002,-0.1502768,-0.05446312
1.022287,-0.1520549,-0.05488463
1.022264,-0.1517072,-0.05192544
1.021815,-0.1507988,-0.04895875
1.020433,-0.1513124,-0.04404977
1.01931,-0.1495811,-0.04603297
1.02095,-0.1467719,-0.04953968
1.023398,-0.1471004,-0.04677937
1.023142,-0.1464985,-0.04897445
1.023322,-0.1426435,-0.04952547
1.023699,-0.1393618,-0.04786538
1.020897,-0.1416102,-0.05218538
1.020372,-0.1458033,-0.05357546
1.022789,-0.1452674,-0.05359126
1.022674,-0.1446724,-0.05431826
1.021725,-0.1421408,-0.05307018
1.02231,-0.1368764,-0.05274313
1.022466,-0.1390657,-0.05245901
1.021753,-0.1428871,-0.05267339
1.021445,-0.1428705,-0.05107232
1.020668,-0.1437765,-0.04960777
1.020846,-0.1442523,-0.05346109
1.02305,-0.1471128,-0.05778096
1.023959,-0.1500943,-0.05821351
1.023546,-0.1482585,-0.05265014
1.022229,-0.1480512,-0.04702168
1.020077,-0.1482632,-0.04806631
1.019037,-0.146578,-0.04890522
1.019219,-0.1472239,-0.04813448
1.020525,-0.1475236,-0.04944847
1.022906,-0.1465795,-0.04909126
1.025885,-0.1455686,-0.04845059
1.025781,-0.143909,-0.05274898
1.023888,-0.1443288,-0.05661052
1.025658,-0.1458346,-0.05742217
1.026205,-0.1460351,-0.06147281
1.025752,-0.1467566,-0.06488838
1.025373,-0.1475357,-0.06137485
1.019777,-0.1468524,-0.05710297
1.016702,-0.1453451,-0.05816971
1.019105,-0.1439633,-0.05892638
1.020067,-0.1449256,-0.05657208
1.019754,-0.1484359,-0.0562
1.020866,-0.1508765,-0.05700615
1.023113,-0.1512557,-0.06040929
1.022389,-0.1538533,-0.06391485
1.021542,-0.157795,-0.06054056
1.022827,-0.1541664,-0.05830357
1.021988,-0.1484711,-0.05916588
1.022081,-0.1496194,-0.05721983
1.022398,-0.1473123,-0.05652288
1.020964,-0.1443845,-0.05807967
1.021146,-0.149377,-0.05923226
1.022479,-0.1510877,-0.06093183
1.024056,-0.1498584,-0.06320827
1.023042,-0.1521166,-0.06136839
1.020935,-0.1541352,-0.0537267
1.020589,-0.1541875,-0.04842707
1.018186,-0.1508241,-0.05186174
1.017184,-0.1469138,-0.05645366
1.018873,-0.1447851,-0.05393766
1.019339,-0.1431932,-0.05229686
1.022178,-0.144315,-0.05187081
1.024873,-0.1474254,-0.04694726
1.023471,-0.1486728,-0.04826261
1.022992,-0.1439424,-0.05201675
1.023141,-0.1378556,-0.0507263
1.021805,-0.1393954,-0.05169184
1.022013,-0.1451588,-0.05060154
1.022268,-0.1495705,-0.04980547
1.020188,-0.1504075,-0.05442308
1.018712,-0.1491326,-0.05740636
1.019053,-0.1489245,-0.05849789
1.021032,-0.1458554,-0.05782871
1.02463,-0.1431846,-0.05607876
1.026004,-0.1458639,-0.0536513
1.024612,-0.1477128,-0.05114949
1.02478,-0.1488842,-0.05149574
1.025417,-0.1500597,-0.04865492
1.024551,-0.1464573,-0.04376988
1.023932,-0.1431546,-0.04179193
1.022639,-0.1453927,-0.04404754
1.021603,-0.147929,-0.04946687
1.022119,-0.1479972,-0.04809085
1.020533,-0.1487515,-0.048576
1.019177,-0.1491713,-0.05550906
1.022148,-0.1490363,-0.05449385
1.02437,-0.1501332,-0.05259545
1.021747,-0.1484306,-0.05144495
1.018795,-0.1461567,-0.0469449
1.019363,-0.1474278,-0.04873293
1.019778,-0.1476884,-0.05174673
1.019125,-0.1477659,-0.05293168
1.019617,-0.1492613,-0.05518166
1.019626,-0.1495809,-0.05394712
1.020204,-0.1494641,-0.05239573
1.021466,-0.147612,-0.05124866
1.021687,-0.1447934,-0.04946533
1.022347,-0.1456955,-0.05171117
1.022822,-0.1471436,-0.05369137
1.023745,-0.1457719,-0.05162839
1.025645,-0.1461028,-0.05083909
1.024917,-0.1470675,-0.05182712
1.022851,-0.145845,-0.05192858
1.022516,-0.1468613,-0.05134012
1.022115,-0.1482337,-0.05054075
1.021443,-0.1472429,-0.05156211
1.022125,-0.1496809,-0.0541551
1.0223,-0.1526105,-0.0557836
1.020231,-0.1503505,-0.05563559
1.01877,-0.1491959,-0.05289948
1.0195,-0.1504539,-0.05172858
1.019679,-0.1494024,-0.05333292
1.019944,-0.1477101,-0.05184111
1.023098,-0.1475223,-0.05066016
1.026121,-0.148932,-0.05291687
1.025355,-0.1494755,-0.0566041
1.024052,-0.1493881,-0.06073655
1.024486,-0.1504342,-0.05736685
1.023328,-0.1481048,-0.05055949
1.021801,-0.1464555,-0.05087841
1.020765,-0.1499171,-0.05114697
1.018564,-0.1522911,-0.05019415
1.019242,-0.1529217,-0.05276241
1.020538,-0.15098,-0.05602896
1.020952,-0.1480179,-0.05915349
1.024765,-0.1486037,-0.05716831
1.025967,-0.1489402,-0.04999924
1.024376,-0.1493291,-0.04646197
1.025183,-0.150099,-0.04696784
1.024373,-0.14815,-0.04869312
1.021241,-0.1464074,-0.04987421
1.018714,-0.145833,-0.04995811
1.019778,-0.1441626,-0.04920704
1.022006,-0.1423961,-0.04444134
1.020702,-0.14417,-0.04050206
1.021667,-0.1473029,-0.04398311
1.024922,-0.1482474,-0.04740728
1.025207,-0.149022,-0.0448268
1.024908,-0.1477439,-0.04386048
1.024016,-0.1437864,-0.04782848
1.023238,-0.1410688,-0.04940275
1.023577,-0.1428618,-0.04884643
1.022682,-0.1472643,-0.05032485
1.021949,-0.1478056,-0.05187725
1.022152,-0.1483616,-0.05124033
1.022347,-0.1498012,-0.04674337
1.022233,-0.1486795,-0.03941306
1.02208,-0.1502186,-0.03390391
1.022386,-0.1497246,-0.03609258
1.022146,-0.1475572,-0.04179558
1.022172,-0.1502545,-0.04438964
1.022365,-0.1512488,-0.04970348
1.021884,-0.1511316,-0.05312533
1.021254,-0.1509238,-0.05085263
1.019658,-0.1492424,-0.05040029
1.018987,-0.1501657,-0.04732469
1.019668,-0.1502414,-0.04377016
1.019616,-0.1496293,-0.04578107
1.020612,-0.1501272,-0.04621534
1.022796,-0.148773,-0.04263095
1.023322,-0.1474474,-0.04101612
1.021797,-0.1465914,-0.04457235
1.020901,-0.1453851,-0.04966623
1.021554,-0.1443226,-0.05266727
1.023269,-0.1450708,-0.05174773
1.025671,-0.1475107,-0.05040241
1.024448,-0.1474512,-0.05133106
1.02155,-0.1468946,-0.0478192
1.022325,-0.1475011,-0.0446113
1.022448,-0.1470649,-0.04779363
1.021833,-0.1472321,-0.05101399
1.022584,-0.147513,-0.05563159
1.02222,-0.1479456,-0.06153887
1.023066,-0.1490358,-0.05929504
1.023925,-0.1484618,-0.04982001
1.022557,-0.1473168,-0.04409095
1.021937,-0.1462449,-0.04345889
1.022162,-0.1455596,-0.04261375
1.022031,-0.1468055,-0.04078757
1.020384,-0.1476605,-0.04060871
1.018967,-0.1474909,-0.0450451
1.020494,-0.1490778,-0.05054253
1.02244,-0.1513775,-0.05532776
1.02333,-0.1507666,-0.05670519
1.023959,-0.1475966,-0.05069468
1.024588,-0.1436436,-0.04759698
1.024794,-0.1394783,-0.04807944
1.023334,-0.1384894,-0.04660943
1.021386,-0.1402432,-0.04759853
1.021096,-0.1421135,-0.04823195
1.020904,-0.1453728,-0.04893176
1.019539,-0.1453515,-0.05105979
1.01966,-0.1431586,-0.05247963
1.021511,-0.1450375,-0.05442099
1.02369,-0.1445641,-0.0534939
1.025159,-0.142936,-0.0503818
1.025053,-0.1447785,-0.04804989
1.025948,-0.1460665,-0.04889295
1.026269,-0.14739,-0.05310703
1.023351,-0.1449226,-0.05583906
1.02057,-0.1415352,-0.05796538
1.020237,-0.1443306,-0.05310236
1.021653,-0.1451604,-0.04424216
1.022816,-0.1437527,-0.04760614
1.024674,-0.1434167,-0.0528965
1.025564,-0.1405895,-0.05379312
1.022661,-0.1378202,-0.05440206
1.021635,-0.1369947,-0.04747494
1.022628,-0.1380639,-0.04385495
1.023018,-0.1404463,-0.04856907
1.024185,-0.1425652,-0.04836582
1.024493,-0.1439064,-0.04389141
1.025087,-0.1443922,-0.04030176
1.025148,-0.1455568,-0.04234945
1.023192,-0.1478655,-0.04912741
1.020856,-0.1508467,-0.05255853
1.018901,-0.1513895,-0.05262012
1.020949,-0.1515316,-0.05319798
1.023491,-0.1554341,-0.05624476
1.021941,-0.1548734,-0.05531857
1.021849,-0.1522057,-0.0499377
1.022712,-0.1519471,-0.04790123
1.021764,-0.1462024,-0.04501583
1.021334,-0.1430418,-0.04550808
1.020909,-0.1444019,-0.05095542
1.02142,-0.1429076,-0.05157681
1.022826,-0.1455943,-0.05171249
1.022216,-0.1484236,-0.05191222
1.021896,-0.1459026,-0.05350051
1.02255,-0.1443801,-0.0571932
1.021898,-0.1443217,-0.05530053
1.021098,-0.1448596,-0.05389897
1.019834,-0.1462494,-0.05097065
1.018893,-0.1476916,-0.04501137
1.020002,-0.1475474,-0.0468215
1.021336,-0.1466934,-0.04853406
1.022904,-0.1475015,-0.04652667
1.024762,-0.1481886,-0.04819242
1.026841,-0.1513971,-0.04930578
1.028002,-0.1553007,-0.0482574
1.024169,-0.1513158,-0.04824758
1.020597,-0.1454511,-0.04738613
1.022166,-0.1457085,-0.0473822
1.021931,-0.1479412,-0.05175309
1.020022,-0.1488599,-0.05423492
1.020715,-0.1475999,-0.05146598
1.020286,-0.144759,-0.04832552
1.018654,-0.1437789,-0.04675403
1.018568,-0.1436883,-0.04852886
1.018259,-0.1428033,-0.0507329
1.018912,-0.14312,-0.0497221
1.022179,-0.1441284,-0.05079496
1.024629,-0.1446273,-0.05239016
1.025348,-0.144909,-0.05178754
1.02481,-0.1460514,-0.05277863
1.022869,-0.1476793,-0.05133189
1.022041,-0.1460387,-0.04886316
1.022974,-0.1421838,-0.05023709
1.023706,-0.1401579,-0.05063675
1.021255,-0.1402711,-0.0521392
1.0163,-0.1422506,-0.05712676
1.014634,-0.1437036,-0.05956166
1.017212,-0.1430355,-0.0581491
1.019901,-0.1428174,-0.05686168
1.020096,-0.1435896,-0.05693756
1.020771,-0.1449964,-0.05591794
1.023074,-0.1471995,-0.0551926
1.022396,-0.1477886,-0.05572017
1.021622,-0.1468813,-0.0553083
1.027016,0.003955258,-0.07189917
1.025664,0.005959158,-0.0673157
1.026858,0.006415233,-0.06871375
1.025554,0.005164866,-0.06673498
1.023801,0.008504817,-0.0668938
1.020257,0.006240384,-0.06461521
1.020557,0.006677831,-0.06256794
1.022501,0.006648194,-0.06607981
1.022981,0.004500717,-0.0670046
1.024027,0.005773788,-0.06955407
1.022514,0.003589217,-0.06088276
1.021881,0.002153336,-0.04836589
1.022289,0.001381553,-0.05045784
1.021889,-0.004287497,-0.05576928
1.020497,-0.01038207,-0.06000513
1.018727,-0.007204608,-0.05963257
1.019788,0.005279547,-0.06060204
1.021526,0.01230734,-0.06699665
1.023081,0.01066199,-0.06604163
1.025179,0.008254757,-0.06666306
1.027352,0.009714502,-0.07233462
1.029396,0.009697594,-0.07102504
1.029912,0.005368794,-0.06684942
1.028634,0.004473266,-0.06730494
1.025145,0.001888362,-0.0687666
1.023688,-0.004862974,-0.06589901
1.028851,-0.01943993,-0.06469317
1.032382,-0.03314277,-0.06969996
1.022956,-0.005931812,-0.07920619
1.00848,0.04091407,-0.08828548
1.008129,0.05656276,-0.08704824
1.020962,0.0528779,-0.08617432
1.031799,0.04212497,-0.09391166
1.031999,0.02510279,-0.0947554
1.025621,0.01419463,-0.09297659
1.023131,0.009004237,-0.09415151
1.022719,0.004362823,-0.08960211
1.025077,-0.002525473,-0.08828588
1.030821,-0.009526697,-0.09384985
1.029436,-0.01342112,-0.0946579
1.027721,-0.01799015,-0.09026649
1.0277,-0.02119926,-0.08816656
1.021733,-0.02016659,-0.08598279
1.019687,-0.02043671,-0.08294679
1.023367,-0.02125588,-0.08623283
1.029207,-0.0186107,-0.09053728
1.035674,-0.01756881,-0.09662398
1.034979,-0.01920391,-0.1061534
1.030201,-0.01965955,-0.1074925
1.028678,-0.01957203,-0.1052499
1.030819,-0.01870726,-0.1033978
1.031319,-0.01608137,-0.1025178
1.023893,-0.01106815,-0.1036143
1.016511,-0.0080348,-0.1009312
1.018879,-0.007453825,-0.1012753
1.021252,0.003377585,-0.1016241
1.018674,0.01675045,-0.09817327
1.021133,0.01309066,-0.09619967
1.023294,0.004875065,-0.09214453
1.019712,0.004124311,-0.09041204
1.019843,5.22317e-05,-0.08986913
1.024036,-0.003937582,-0.09079636
1.027532,-0.002260802,-0.09299695
1.02621,-0.001929037,-0.08691623
1.023404,-0.002319481,-0.08466204
1.025806,-0.006331794,-0.08705052
1.02628,-0.01197909,-0.08551594
1.025795,-0.009906289,-0.08646283
1.026731,-0.006615964,-0.08607246
1.023168,0.0001460265,-0.08597542
1.022253,0.01337431,-0.08809706
1.02686,0.01640372,-0.09059224
1.030539,0.01291908,-0.09724002
1.029832,0.01524241,-0.1019754
1.027894,0.01222974,-0.1029519
1.029471,0.005511053,-0.1001363
1.027113,0.006815435,-0.09516914
1.022327,0.007556177,-0.09321509
1.0222,0.006310516,-0.08425225
1.022804,0.007406354,-0.07125479
1.023816,0.005664609,-0.06880816
1.02205,0.001534972,-0.06869689
1.01977,-0.002778072,-0.06485694
1.022535,-0.002364448,-0.06597772
1.024581,0.0001551258,-0.07032172
1.026552,-0.0003803159,-0.07195835
1.028812,0.007285501,-0.06878747
1.028886,0.01483058,-0.06288182
1.027587,0.006481799,-0.06477597
1.02442,-0.0004501137,-0.06755278
1.023635,0.004950217,-0.06544963
1.023946,0.007161685,-0.06904986
1.023281,0.002620926,-0.06929151
1.024823,0.002734109,-0.06823096
1.025291,0.005990397,-0.07317419
1.024656,0.007180071,-0.07333389
1.024061,0.005727187,-0.07497565
1.021951,0.0001527818,-0.07621011
1.020513,-0.003083035,-0.07272171
1.020777,-0.003248183,-0.07372751
1.022568,-0.005324847,-0.07291311
1.022861,-0.00610627,-0.07138609
1.021531,-0.004187945,-0.07259183
1.022439,0.002508456,-0.07107595
1.023549,0.01535349,-0.07146343
1.027134,0.02698489,-0.07536516
1.031826,0.02667132,-0.07907494
1.027529,0.01093002,-0.07848835
1.022515,-0.006108413,-0.07686142
1.025451,-0.006862797,-0.08042339
1.024951,0.0003197761,-0.08200613
1.019537,-0.0007896717,-0.08099612
1.017357,0.0002259347,-0.081065
1.01924,0.004908657,-0.07994015
1.023879,0.002225227,-0.08096334
1.026142,0.002595477,-0.08171801
1.024781,0.005491451,-0.07994102
1.024804,0.00564661,-0.08174804
1.025182,0.007998911,-0.08508409
1.024756,0.007902449,-0.0847748
1.024125,0.005414124,-0.08365888
1.023116,0.002043032,-0.08112633
1.022331,0.001671569,-0.07504243
1.020305,0.004780507,-0.07496663
1.01941,0.002313592,-0.08269958
1.023038,0.000100233,-0.08917571
1.026405,-0.002304426,-0.09143374
1.025194,-0.007616977,-0.09041275
1.02417,-0.005499747,-0.09056803
1.02557,-0.002483207,-0.08880168
1.024278,-0.00198462,-0.08428916
1.021034,0.003935782,-0.08243379
1.019355,0.0087834,-0.07833402
1.021418,0.006118894,-0.07799904
1.02526,-0.0003129267,-0.08286151
1.024279,-0.004270112,-0.08324474
1.025205,-0.003216624,-0.08570769
1.029597,-0.00192211,-0.08752958
1.02738,-0.003968075,-0.08528228
1.02472,-0.007552098,-0.08718476
1.023604,-0.01058714,-0.08872915
1.020997,-0.01055091,-0.08987423
1.022371,-0.008737874,-0.09376647
1.022804,-0.009926806,-0.09453851
1.021332,-0.01009742,-0.09408335
1.021943,-0.007868778,-0.09498797
1.021411,-0.007477033,-0.09503979
1.022139,-0.005345032,-0.09526212
1.022529,-0.00314799,-0.09486693
1.019849,-0.003525731,-0.0934693
1.019248,-0.005781284,-0.09399252
1.020697,-0.009729172,-0.09773838
1.023106,-0.007860155,-0.1048197
1.025269,-0.005401721,-0.1111087
1.024896,-0.007662503,-0.1101433
1.023875,-0.005990254,-0.1047359
1.02212,-0.00481207,-0.1022245
1.019986,-0.005691292,-0.1009093
1.019113,-0.003008277,-0.09624894
1.019224,0.0004037665,-0.09171561
1.019774,0.00199424,-0.09319502
1.019339,-0.0005342034,-0.09919974
1.019641,-0.003408664,-0.1019327
1.022582,-0.003090512,-0.1026994
1.027905,-0.004980432,-0.1078942
1.031932,-0.008918187,-0.1115817
1.028026,-0.01081603,-0.1110856
1.02344,-0.01060757,-0.1111558
1.025289,-0.01055482,-0.1112576
1.025255,-0.009657469,-0.1121416
1.0235,-0.006599793,-0.113773
1.023759,-0.006546099,-0.1132539
1.023217,-0.008482746,-0.1088742
1.022778,-0.008626474,-0.1027665
1.022465,-0.01038581,-0.1017181
1.023629,-0.01258716,-0.1043803
1.025805,-0.01279629,-0.1046449
1.024138,-0.01296821,-0.104773
1.022976,-0.01501194,-0.1063422
1.0249,-0.01679333,-0.1074192
1.025098,-0.01209529,-0.1086109
1.023666,-0.005848399,-0.1085715
1.021541,-0.006366664,-0.1067948
1.020703,-0.007715534,-0.1055587
1.023573,-0.006400898,-0.1034026
1.025874,-0.005810543,-0.1011221
1.024048,-0.004476211,-0.1003523
1.022045,-0.002656801,-0.09703638
1.023292,-0.002691509,-0.09339853
1.025087,-0.002844561,-0.0958974
1.026077,-0.002695538,-0.1000161
1.026739,-0.002883845,-0.1004262
1.025415,-0.002691889,-0.1013816
1.021459,-0.002796781,-0.1021787
1.016456,-0.002836092,-0.1006895
1.016347,-0.0032077,-0.1015115
1.022203,-0.005559445,-0.1021555
1.025776,-0.007708072,-0.1025746
1.025343,-0.007255483,-0.1051501
1.023926,-0.0058472,-0.1019751
1.021385,-0.004488143,-0.09189008
1.018851,-0.002332417,-0.084078
1.019614,-0.002968354,-0.08889034
1.022008,-0.005359199,-0.09708606
1.020704,-0.00497759,-0.09161146
1.020344,-0.009028724,-0.08636054
1.022546,-0.0145011,-0.08520648
1.02221,-0.009968948,-0.0817532
1.02334,-0.003537601,-0.08774357
1.025018,-0.002452312,-0.09188069
1.02493,-0.00461751,-0.08820937
1.02533,-0.008571109,-0.08553258
1.024512,-0.00984332,-0.08046729
1.023975,-0.009005229,-0.08282057
1.022692,-0.007326975,-0.08696512
1.021446,-0.004554135,-0.08252572
1.022669,-0.004672343,-0.0822086
1.022182,-0.003692178,-0.08339779
1.022167,0.0004999688,-0.08381351
1.023805,0.001593517,-0.08604554
1.025386,0.001555115,-0.08633517
1.027191,-0.001533331,-0.08909598
1.026402,-0.008133389,-0.09125147
1.025946,-0.006937925,-0.08952709
1.026463,-0.004282521,-0.08788209
1.024224,-0.005823287,-0.08784226
1.022315,-0.003778181,-0.09304853
1.022617,-0.005774109,-0.09764766
1.02312,-0.0104156,-0.09505002
1.022175,-0.009538624,-0.09345612
1.022051,-0.008929644,-0.09581869
1.024471,-0.005384953,-0.09614028
1.025466,-0.001196052,-0.09458822
1.02496,-0.003635112,-0.09427129
1.024945,-0.004935154,-0.09479119
1.024953,-0.002947445,-0.09590006
1.025124,-0.002658805,-0.09621727
1.02509,-0.004941261,-0.09471739
1.02605,-0.007280054,-0.09483913
1.027679,-0.008243688,-0.09562679
1.027644,-0.00925078,-0.09485505
1.026,-0.008565597,-0.09530049
1.024334,-0.005404699,-0.09606427
1.024852,-0.003302032,-0.09584849
1.025469,-0.004967621,-0.09565065
1.024661,-0.006465758,-0.09487078
1.024693,-0.005142373,-0.09424271
1.023384,-0.005457658,-0.09398335
1.021443,-0.005905984,-0.09277841
1.022531,-0.005209677,-0.09078607
1.024563,-0.005747754,-0.08988667
1.026164,-0.005548259,-0.09139795
1.026736,-0.005428872,-0.09585404
1.02513,-0.005731302,-0.1014773
1.023684,-0.005408682,-0.1023772
1.023315,-0.00562726,-0.1004898
1.022646,-0.005210283,-0.09965943
1.022064,-0.003696916,-0.09449511
1.022267,-0.00232637,-0.08926534
1.023424,-0.003198155,-0.08975434
1.024793,-0.006808531,-0.08928948
1.025255,-0.008865141,-0.08806175
1.025023,-0.006320848,-0.0894515
1.024854,-0.00177916,-0.08999215
1.024729,-0.0005202844,-0.09007211
1.022895,-0.002096745,-0.08985064
1.019772,-0.003206392,-0.0855631
1.018978,-0.004735423,-0.08272386
1.020672,-0.005953714,-0.08764618
1.022351,-0.007991832,-0.09267592
1.023479,-0.01091024,-0.09223582
1.024727,-0.009899743,-0.09246418
1.025007,-0.008766433,-0.09319201
1.023118,-0.009439725,-0.08798591
1.02159,-0.00792486,-0.08364877
1.022134,-0.00797201,-0.08505171
1.022558,-0.008573182,-0.08454365
1.022036,-0.006154568,-0.08376189
1.022163,-0.00504816,-0.08712932
1.022416,-0.005570795,-0.09106302
1.022051,-0.005662568,-0.09376479
1.02245,-0.005573693,-0.09532709
1.023194,-0.005594189,-0.09451215
1.023738,-0.006942675,-0.09375533
1.023672,-0.008973875,-0.09505672
1.022449,-0.01063575,-0.09487583
1.022382,-0.0116784,-0.0960055
1.024034,-0.01258605,-0.09647611
1.024817,-0.01248745,-0.09180368
1.021718,-0.009051723,-0.09194684
1.017839,-0.005692543,-0.09373244
1.019267,-0.005069205,-0.09135544
1.020404,-0.005537157,-0.09226933
1.01869,-0.005894052,-0.09204605
1.019964,-0.005102234,-0.09000244
1.021729,-0.004486204,-0.09215914
1.023179,-0.003066101,-0.09565989
1.024276,-0.001180442,-0.09887576
1.022312,-0.001802238,-0.09824036
1.021628,-0.00331743,-0.09353869
1.021664,-0.005522117,-0.09122727
1.020699,-0.006256193,-0.09169014
1.022618,-0.004997693,-0.09482032
1.024377,-0.005715304,-0.09595587
1.02343,-0.005732096,-0.09217333
1.022427,-0.005229739,-0.09018146
1.022119,-0.005848176,-0.08696884
1.022355,-0.005406552,-0.0863558
1.02314,-0.005538478,-0.09198848
1.02393,-0.00569245,-0.09189558
1.02348,-0.005377761,-0.091442
1.022337,-0.005699239,-0.09328048
1.021402,-0.005848201,-0.09160511
1.021287,-0.006606929,-0.08923969
1.022562,-0.005743349,-0.08614854
1.022517,-0.003233221,-0.09320298
1.022143,-0.003899643,-0.1023627
1.024244,-0.005425302,-0.09527564
1.025403,-0.006188395,-0.0901226
1.023945,-0.008606982,-0.09244119
1.022236,-0.008423006,-0.09178207
1.022293,-0.005902165,-0.09331393
1.024183,-0.005833381,-0.09528996
1.025334,-0.0070438,-0.09439823
1.024266,-0.008481323,-0.0945034
1.023366,-0.005936456,-0.09681084
1.025418,-0.001566909,-0.09937303
1.02727,-0.002779257,-0.0997111
1.026087,-0.003642713,-0.0974231
1.025209,-0.004003866,-0.09372735
1.025033,-0.006841835,-0.09114005
1.024927,-0.007239299,-0.0936583
1.026085,-0.007669627,-0.100304
1.026656,-0.00801853,-0.1020824
1.02618,-0.007022661,-0.09710041
1.025278,-0.006979884,-0.09259744
1.023474,-0.005825948,-0.09139298
1.021316,-0.005050734,-0.09193616
1.019449,-0.004138193,-0.09158052
1.019068,-0.0002025261,-0.09146254
1.020366,0.001985998,-0.09167912
1.023032,-0.001435378,-0.08957129
1.025971,-0.006029587,-0.0878923
1.025181,-0.00609556,-0.0861583
1.022337,-0.004984182,-0.08508219
1.022068,-0.005862495,-0.08985539
1.022223,-0.005532805,-0.09489305
1.022664,-0.005383909,-0.09270567
1.025126,-0.005619776,-0.08999045
1.026459,-0.004459832,-0.09253658
1.024093,-0.003808894,-0.09280112
1.021078,-0.003195989,-0.09042688
1.022874,-0.002594543,-0.08692914
1.024846,-0.00307227,-0.08166103
1.022783,-0.004794135,-0.08538846
1.022647,-0.007054166,-0.09010686
1.022631,-0.007317163,-0.08575157
1.022448,-0.006168502,-0.08358876
1.024441,-0.003578547,-0.08176104
1.023755,0.001542754,-0.0819539
1.02404,0.003532699,-0.08942994
1.025819,-0.0009917638,-0.09318967
1.024581,-0.004432807,-0.09107092
1.024138,-0.003170901,-0.08744923
1.024324,-0.004810987,-0.08769929
1.024223,-0.007832009,-0.092301
1.024494,-0.00421264,-0.09186622
1.023932,-0.0002684726,-0.09054202
1.02368,-0.001596745,-0.09249532
1.023416,-0.00285656,-0.09127516
1.023593,-0.003390268,-0.0893702
1.023858,-0.003818827,-0.08925828
1.023143,-0.002446291,-0.09020288
1.022865,-0.002409888,-0.09252276
1.022369,-0.003289113,-0.09163905
1.023688,-0.002510082,-0.0888863
1.025995,-0.002721862,-0.0880397
1.024958,-0.003209306,-0.08659089
1.024731,-0.003404422,-0.08565741
1.026331,-0.004586783,-0.08468906
1.026466,-0.004107096,-0.08394871
1.026097,-0.002935086,-0.08631411
1.024557,-0.002774585,-0.08907473
1.023006,-0.002763867,-0.09258849
1.02335,-0.00380585,-0.09232044
1.023014,-0.004480606,-0.08744918
1.021793,-0.004104427,-0.0873262
1.022067,-0.00395928,-0.08796985
1.022933,-0.003282301,-0.08908338
1.023794,-0.002524607,-0.09232912
1.025516,-0.002659498,-0.0907367
1.025589,-0.002962476,-0.0870424
1.025261,-0.002729106,-0.08381461
1.026807,-0.002678948,-0.08507594
1.025526,-0.002926401,-0.0895611
1.022913,-0.003039586,-0.08881291
1.022262,-0.004557963,-0.0890488
1.021858,-0.00583527,-0.09114142
1.023172,-0.003863564,-0.0918174
1.023815,-0.002260561,-0.09373883
1.023845,-0.004534105,-0.09547879
1.025862,-0.006198624,-0.09778345
1.024895,-0.003627724,-0.09603378
1.023444,-0.001855762,-0.09274439
1.024376,-0.002981723,-0.094664
1.024972,-0.00299752,-0.09300642
1.026848,-0.002519185,-0.09040665
1.026001,-0.0032486,-0.09153794
1.023842,-0.004593166,-0.08874731
1.025657,-0.006191721,-0.08465153
1.026063,-0.006730867,-0.08421204
1.026174,-0.006786529,-0.08611395
1.026796,-0.007048111,-0.08743324
1.024661,-0.005968682,-0.08751195
1.022876,-0.004769095,-0.08751958
1.020901,-0.003904458,-0.08641749
1.020536,-0.002283853,-0.08638789
1.02315,-0.002274117,-0.08903013
1.023975,-0.002403903,-0.09195318
1.023167,-0.0008417262,-0.09199438
1.02079,-0.001405664,-0.08925947
1.019454,-0.003092553,-0.08848158
1.023832,-0.00448583,-0.08931947
1.027772,-0.006294636,-0.09064903
1.024757,-0.005341705,-0.09234136
1.021265,-0.003230373,-0.091709
1.023286,-0.003015939,-0.09062379
1.024314,-0.004251404,-0.08836334
1.023105,-0.005980651,-0.08509508
1.023669,-0.003528137,-0.08655509
1.022899,0.001348921,-0.08902998
1.022486,0.002803072,-0.08892355
1.023327,0.003002934,-0.09066318
1.023091,0.002785048,-0.09265012
1.024498,0.00252784,-0.09491713
1.0253,0.002366633,-0.09953052
1.023034,-0.001147193,-0.09890773
1.021861,-0.004611815,-0.09473864
1.024018,-0.003609803,-0.09413327
1.025523,-0.001120167,-0.0925523
1.023141,-0.001038108,-0.08930704
1.021689,-0.001806972,-0.08662712
1.024116,-0.00114556,-0.08673383
1.025855,-0.001387824,-0.08865519
1.024753,-0.001760923,-0.08679007
1.023572,-0.002373216,-0.08521841
1.022782,-0.005048443,-0.08128996
1.021738,-0.005775835,-0.07561437
1.022388,-0.003702326,-0.08002806
1.023429,-0.002445297,-0.08543253
1.023569,-0.004410054,-0.08638222
1.023679,-0.00661269,-0.08714907
1.022569,-0.005047148,-0.08123411
1.021874,-0.003373133,-0.07535803
1.022519,-0.002689955,-0.07827949
1.0231,-0.002492217,-0.08360048
1.023885,-0.004090396,-0.08904978
1.023725,-0.004386164,-0.09238947
1.023366,-0.003828517,-0.08581217
1.023784,-0.003425291,-0.08005176
1.023573,-0.002365914,-0.08933785
1.023371,-0.003098184,-0.09595427
1.022814,-0.004807735,-0.08855092
1.022049,-0.005517969,-0.08390767
1.023223,-0.004093565,-0.08661332
1.024991,-0.001820163,-0.08830119
1.025425,-0.002695887,-0.08745316
1.025788,-0.003367204,-0.08718907
1.026643,-0.002268929,-0.08777274
1.026195,-0.002934125,-0.08652554
1.024354,-0.002943895,-0.0829566
1.02336,-0.002471659,-0.07986529
1.024872,-0.003392402,-0.08294082
1.028243,-0.00446256,-0.08842475
1.02964,-0.005682842,-0.08785581
1.027193,-0.004142619,-0.08720069
1.02427,-0.001647479,-0.08998763
1.022944,-0.002873959,-0.09131592
1.021995,-0.002374134,-0.09136539
1.022047,0.002376089,-0.09084449
1.023481,0.006191326,-0.0915425
1.024007,0.005408967,-0.09182519
1.024387,0.0003753787,-0.08844334
1.025185,-0.002666443,-0.0870906
1.023959,-0.001501636,-0.08932774
1.022437,-0.0008731941,-0.09149226
1.022897,-0.001610197,-0.09338864
1.023909,-0.001719037,-0.0959051
1.024008,-0.002006314,-0.09858165
1.024185,-0.003199749,-0.09711987
1.025406,-0.00295292,-0.09029444
1.025028,-0.00270975,-0.08303331
1.023679,-0.004890203,-0.08311211
1.023638,-0.006032384,-0.08835533
1.023287,-0.005251216,-0.0920592
1.022759,-0.003615354,-0.09838895
1.022441,-0.002213218,-0.09584012
1.023681,-0.002742733,-0.08386854
1.025927,-0.003009166,-0.08437849
1.025072,-0.002630681,-0.08733786
1.024447,-0.002796469,-0.08702669
1.025311,-0.002812816,-0.08876268
1.023932,-0.002941264,-0.08695038
1.02322,-0.003823149,-0.09091274
1.023585,-0.005554108,-0.09589405
1.022333,-0.007163426,-0.0956099
1.020175,-0.008882323,-0.09566183
1.018773,-0.009612367,-0.09324175
1.019441,-0.006230963,-0.09362225
1.019793,-0.002734734,-0.09349832
1.01931,-0.00467502,-0.09231696
1.020976,-0.008578337,-0.09635329
1.023875,-0.01025203,-0.09868851
1.025396,-0.009608426,-0.1005646
1.023118,-0.006602751,-0.09916776
1.019482,-0.004884043,-0.09450921
1.019904,-0.006528137,-0.09455879
1.021928,-0.007780737,-0.09539256
1.023858,-0.00869138,-0.09800444
1.027079,-0.01009031,-0.09960027
1.026961,-0.0100446,-0.09764468
1.023693,-0.009194635,-0.09705731
1.022839,-0.008855758,-0.09550048
1.022807,-0.00830202,-0.09665457
1.023346,-0.008129603,-0.1000096
1.0259,-0.009548623,-0.1001387
1.025392,-0.009992406,-0.09977514
1.024101,-0.009196555,-0.09808289
1.025457,-0.007898032,-0.09660909
1.024046,-0.005388127,-0.09761098
1.022758,-0.00510615,-0.09914461
1.023159,-0.005945032,-0.1003358
1.021762,-0.005565169,-0.09905676
1.022281,-0.006451852,-0.09711861
1.02348,-0.00728636,-0.09811815
1.02373,-0.00715049,-0.1028407
1.024793,-0.0076955,-0.1081089
1.025041,-0.008837094,-0.1078019
1.025126,-0.009588588,-0.1058378
1.024964,-0.01054536,-0.1068237
1.024861,-0.01169319,-0.1049282
1.025051,-0.01086238,-0.1027909
1.023746,-0.009384479,-0.1044405
1.02249,-0.007133093,-0.1028139
1.02194,-0.004954022,-0.1008731
1.022147,-0.008117487,-0.102539
1.022497,-0.0112274,-0.1012488
1.021986,-0.009303273,-0.1001478
1.022645,-0.008354013,-0.1021452
1.024114,-0.008745602,-0.1033533
1.024996,-0.008913053,-0.1044782
1.023605,-0.01011385,-0.1044628
1.021528,-0.009767888,-0.103954
1.023981,-0.008397372,-0.105243
1.026145,-0.008337087,-0.1058713
1.024471,-0.007692873,-0.105871
1.023911,-0.005657892,-0.1072656
1.023669,-0.003493674,-0.1089256
1.023104,-0.004716143,-0.108395
1.022983,-0.0102823,-0.1069552
1.021903,-0.01347483,-0.1076507
1.021983,-0.01111191,-0.1104751
1.022616,-0.00843982,-0.11336
1.021991,-0.009690679,-0.1114792
1.022206,-0.01052902,-0.1062643
1.022401,-0.008802496,-0.1048477
1.022021,-0.009203678,-0.1062567
1.022517,-0.009306593,-0.1083749
1.02312,-0.009283633,-0.1087222
1.023789,-0.01054078,-0.1065391
1.023843,-0.008698677,-0.1068472
1.023131,-0.006926903,-0.1048026
1.022849,-0.005827397,-0.1020135
1.022027,-0.007280748,-0.1053628
1.021924,-0.01084841,-0.1046142
1.022611,-0.006139131,-0.1027848
1.022214,-0.002388634,-0.1054174
1.023224,-0.006795478,-0.1033688
1.025,-0.008659977,-0.1019474
1.02462,-0.00798115,-0.1014022
1.022337,-0.006547667,-0.09851884
1.020463,-0.005092695,-0.09891562
1.023575,-0.006397165,-0.09830821
1.028301,-0.007477568,-0.09842428
1.027857,-0.007464504,-0.09802966
1.025558,-0.009353681,-0.09159124
1.024665,-0.01215653,-0.0897547
1.02476,-0.01123856,-0.09998036
1.024993,-0.00941561,-0.1121887
1.023095,-0.01000033,-0.1083115
1.021528,-0.009565562,-0.09969268
1.022272,-0.009610562,-0.1023338
1.022079,-0.01003581,-0.1015944
1.020276,-0.009395469,-0.1026483
1.018921,-0.009540969,-0.1076005
1.019999,-0.00814675,-0.1041394
1.023388,-0.006746475,-0.1011866
1.025703,-0.006839279,-0.0992018
1.024499,-0.005363103,-0.09991166
1.022507,-0.004618393,-0.1041752
1.022841,-0.004279148,-0.1048166
1.02241,-0.002157403,-0.1064342
1.02157,-0.00230484,-0.1040958
1.022348,-0.003509561,-0.09761295
1.020415,-0.002415017,-0.0938744
1.019078,-0.002638856,-0.09585102
1.022548,-0.003560561,-0.10304
1.025432,-0.004159268,-0.1018626
1.025425,-0.005917583,-0.09991024
1.024601,-0.004083684,-0.1029063
1.024847,-0.002073435,-0.1003384
1.024213,-0.005746612,-0.1002997
1.022089,-0.008077781,-0.09866839
1.022412,-0.00701678,-0.09276236
1.02413,-0.007473572,-0.09176095
1.025442,-0.008869384,-0.09357185
1.025167,-0.008293157,-0.09754397
1.023374,-0.006650591,-0.09733931
1.022736,-0.005208716,-0.09692353
1.021935,-0.003298979,-0.0999411
1.022166,-0.003060791,-0.0951677
1.023575,-0.003111852,-0.08944817
1.023538,-0.002203313,-0.08718982
1.023786,-0.003438313,-0.0893717
1.023408,-0.004866309,-0.09634269
1.022881,-0.006598095,-0.09752202
1.024033,-0.00748001,-0.09944561
1.025384,-0.004634144,-0.1013912
1.026197,-0.00429264,-0.0970055
1.024654,-0.00811584,-0.0938324
1.021207,-0.01165028,-0.08887087
1.018449,-0.01190432,-0.08720214
1.019052,-0.009912764,-0.09140702
1.021343,-0.009217413,-0.09429363
1.02097,-0.006343801,-0.101169
1.022482,-0.003842646,-0.1027317
1.024627,-0.004452804,-0.0952792
1.023278,-0.002467566,-0.09344131
1.023349,-0.002989978,-0.09449845
1.022948,-0.005375938,-0.09459171
1.021701,-0.003016582,-0.09460607
1.022332,-0.0003774832,-0.09437343
1.022278,0.001997887,-0.09661995
1.022177,0.001703638,-0.09641736
1.022409,-0.002327187,-0.09095494
1.022917,-0.00320695,-0.08683754
1.023239,-0.002772231,-0.09335864
1.022661,-0.002990286,-0.1035411
1.02278,-0.00342858,-0.1011762
1.022318,-0.004573717,-0.09508828
1.021815,-0.00321117,-0.09156106
1.022473,-0.002041785,-0.08567776
1.022257,-0.0021482,-0.0848719
1.02167,-0.002482176,-0.09036282
1.020612,-0.008414257,-0.09933403
1.019204,-0.01421619,-0.103296
1.021302,-0.009080884,-0.09607419
1.025098,-0.001555125,-0.09250388
1.025454,-0.002373831,-0.09470549
1.02474,-0.003943793,-0.09387595
1.025074,-0.003865619,-0.09252592
1.02499,-0.006440203,-0.09286284
1.025005,-0.005666501,-0.0933583
1.025004,-0.003869656,-0.09186937
1.02497,-0.004742727,-0.09237332
1.024701,-0.00504748,-0.09730304
1.023148,-0.0076912,-0.1014055
1.021545,-0.00905705,-0.1004563
1.021106,-0.007034945,-0.09691819
1.021304,-0.006892288,-0.0973563
1.022362,-0.007822639,-0.0983845
1.024405,-0.008883583,-0.09763066
1.024885,-0.009333042,-0.09572753
1.024604,-0.009646737,-0.09126194
1.025477,-0.009602157,-0.09173008
1.024705,-0.006535637,-0.0927207
1.023644,-0.003873307,-0.09047202
1.023073,-0.003620652,-0.09257997
1.0224,-0.003481787,-0.09403442
1.024229,-0.002809277,-0.0960821
1.02491,-0.00328056,-0.0987057
1.024599,-0.005033347,-0.09623641
1.025394,-0.005057527,-0.09524234
1.023818,-0.005404522,-0.09449183
1.023566,-0.00612551,-0.09417993
1.025689,-0.005097667,-0.0978812
1.026194,-0.005632351,-0.0991852
1.024053,-0.005461116,-0.09812684
1.020783,-0.0033763,-0.0958193
1.0213,-0.002540149,-0.09419791
1.022337,-0.002461266,-0.09819797
1.021659,-0.003089961,-0.1021593
1.022746,-0.002798081,-0.101117
1.022525,-0.002820735,-0.09977808
1.023613,-0.004941576,-0.1009048
1.026093,-0.00623505,-0.1002771
1.02465,-0.007712766,-0.09913813
1.023755,-0.009395599,-0.1006133
1.023592,-0.009235614,-0.09998515
1.02233,-0.007516728,-0.09954328
1.022244,-0.00523906,-0.09986866
1.022069,-0.003866882,-0.09639032
1.022269,-0.003656066,-0.09519898
1.022715,-0.004759568,-0.09757513
1.023778,-0.005530663,-0.0984329
1.025735,-0.007116125,-0.09958065
1.025334,-0.009485331,-0.1029826
1.025219,-0.008141673,-0.1033419
1.026133,-0.008020249,-0.09912786
1.02476,-0.009890279,-0.09799749
1.024542,-0.00953262,-0.09824611
1.025518,-0.009409688,-0.09579834
1.024792,-0.007020732,-0.09461091
1.024879,-0.004143005,-0.09759749
1.025097,-0.00417231,-0.1037623
1.023873,-0.004514309,-0.1073333
1.02342,-0.006587112,-0.1101294
1.023579,-0.007826023,-0.11023
1.02366,-0.006355859,-0.1016061
1.023661,-0.00592474,-0.09376684
1.02367,-0.005625377,-0.09000408
1.024783,-0.005020404,-0.09105514
1.026151,-0.004898883,-0.09433047
1.026337,-0.003938593,-0.09218071
1.024443,-0.004181886,-0.09360287
1.021963,-0.006398484,-0.09656315
1.0221,-0.006932881,-0.09688824
1.023381,-0.005256255,-0.09858694
1.023612,-0.003860436,-0.09745701
1.022802,-0.005656067,-0.09964613
1.021973,-0.007947612,-0.1013037
1.023079,-0.005879584,-0.09860178
1.024137,-0.004444684,-0.09973691
1.023331,-0.004249662,-0.09876484
1.022566,-0.002447841,-0.09970214
1.022126,-0.004271488,-0.1029169
1.021857,-0.006332544,-0.1008734
1.021692,-0.003601583,-0.1011978
1.021605,-0.00186303,-0.1020207
1.02335,-0.002405293,-0.1018491
1.025593,-0.000384386,-0.1024554
1.026771,0.002515165,-0.09827712
1.027918,0.001066738,-0.09462352
1.026159,-0.002013446,-0.09728316
1.022971,-0.003273574,-0.1000857
1.023282,-0.004033768,-0.09871583
1.023086,-0.004098967,-0.09974893
1.021992,-0.00405305,-0.1023916
1.024064,-0.003580382,-0.09918766
1.025746,-0.003323948,-0.09669283
1.025014,-0.005422351,-0.097009
1.02468,-0.006125664,-0.09585321
1.025204,-0.005015137,-0.09669992
1.025042,-0.00457188,-0.09915971
1.024806,-0.003072311,-0.0989378
1.024831,-0.002281046,-0.09524915
1.023143,-0.002977557,-0.09086962
1.02161,-0.002823296,-0.08887331
1.022156,-0.002479748,-0.09388774
1.02267,-0.002140385,-0.101807
1.022811,-0.001825002,-0.1004987
1.02292,-0.002547104,-0.09699368
1.022205,-0.003973945,-0.09580353
1.021991,-0.005046619,-0.09155628
1.023408,-0.004292842,-0.09251305
1.024287,-0.002625595,-0.09600279
1.025222,-0.00273555,-0.1000844
1.02702,-0.002953932,-0.1078967
1.026398,-0.002684832,-0.1045874
1.024683,-0.003890603,-0.09703915
1.023249,-0.003686682,-0.09902648
1.021521,-0.0005434702,-0.09832952
1.022089,0.002428853,-0.09519963
1.022706,0.002119005,-0.09409611
1.021503,0.001316465,-0.09181245
1.0205,0.003507806,-0.09177621
1.019066,0.003129908,-0.09242583
1.01971,0.0006847847,-0.09729536
1.023595,-0.002786957,-0.1077165
1.025856,-0.009051697,-0.109563
1.024909,-0.007970843,-0.09811888
1.022736,-0.004967881,-0.08739479
1.021783,-0.008141276,-0.09166364
1.022456,-0.006457757,-0.09632732
1.023172,-0.003397198,-0.09073734
1.023864,-0.002946091,-0.09168561
1.023716,-0.001872968,-0.09387224
1.023549,-0.002879778,-0.09341353
1.024689,-0.0002098052,-0.09684528
1.025218,0.00164543,-0.09737815
1.024869,-0.00532517,-0.1014682
1.023838,-0.009697302,-0.1030749
1.02261,-0.005169392,-0.09702527
1.023208,-0.0005226922,-0.09552197
1.025641,-0.00215428,-0.09101958
1.027034,-0.000442238,-0.09077463
1.025389,0.005132003,-0.09945198
1.024206,0.002694999,-0.09905292
1.024381,0.001611824,-0.09510768
1.023362,0.003287269,-0.09379305
1.023357,-0.00143245,-0.09259118
1.023603,-0.003902712,-0.09117889
1.021462,-0.002565939,-0.0893014
1.019374,-0.001610548,-0.0920884
1.019092,-0.001658839,-0.09311748
1.019975,-0.004262647,-0.0922217
1.021837,-0.006225644,-0.09572385
1.025274,-0.0059347,-0.09574683
1.026661,-0.005012425,-0.09509471
1.021804,-0.005657745,-0.09565208
1.018126,-0.005924774,-0.09112226
1.022265,-0.005027087,-0.09016748
1.026173,-0.00554727,-0.09357187
1.024782,-0.003767937,-0.09250926
1.023474,-0.001930152,-0.0938953
1.023065,-0.00316442,-0.09957926
1.022553,-0.004107637,-0.1008889
1.023898,-0.006318011,-0.1000892
1.024055,-0.008524743,-0.09599792
1.023035,-0.008217051,-0.08834564
1.023544,-0.006072836,-0.0871135
1.022085,-0.003130213,-0.08941084
1.020873,-0.002204895,-0.09198886
1.022604,-0.002844842,-0.09450013
1.022387,-0.003171616,-0.09398451
1.020902,-0.003682466,-0.09499813
1.021098,-0.005126461,-0.09498426
1.022577,-0.005221423,-0.09646243
1.024028,-0.003593032,-0.1003541
1.022942,-0.004057574,-0.09772522
1.021303,-0.004377194,-0.0952305
1.021475,-0.002950826,-0.0935
1.020836,-0.002625357,-0.09183067
1.020731,-0.00344009,-0.09391788
1.0232,-0.006421595,-0.09290821
1.024972,-0.009452173,-0.09264422
1.025273,-0.008647259,-0.09367888
1.025006,-0.007801684,-0.09199864
1.024769,-0.009574621,-0.0906223
1.025052,-0.009603869,-0.08847511
1.023504,-0.006765289,-0.09081743
1.020363,-0.004842632,-0.09726119
1.017843,-0.005265146,-0.1006444
1.017652,-0.00606139,-0.1022137
1.019986,-0.005396502,-0.1014598
1.022302,-0.00531324,-0.1001022
1.024464,-0.005950132,-0.09815224
1.024988,-0.004929719,-0.0936813
1.024474,-0.003774747,-0.09411033
1.025352,-0.002455513,-0.0981766
1.024025,-0.002610856,-0.09894147
1.022973,-0.005220491,-0.09878814
1.024208,-0.005822953,-0.0984651
1.024338,-0.005586092,-0.09792286
1.025233,-0.005935666,-0.09627593
1.02529,-0.007129621,-0.09333704
1.024191,-0.00916391,-0.0948989
1.023529,-0.007661492,-0.09881967
1.021608,-0.004301541,-0.09977009
1.021872,-0.002118364,-0.09699503
1.022868,-0.002142541,-0.09311211
1.021809,-0.003595923,-0.09584208
1.022431,-0.002510561,-0.09888247
1.023172,-0.002442641,-0.09501989
1.022696,-0.003371284,-0.09299721
1.022253,-0.002310479,-0.09323324
1.021868,-0.002730029,-0.09475657
1.022443,-0.002081417,-0.09854347
1.022661,-0.0009281126,-0.1004916
1.02373,-0.002693597,-0.1021685
1.025104,-0.003979016,-0.1020111
1.021524,-0.00423119,-0.1023062
1.017867,-0.003319757,-0.1058292
1.019411,-0.002275788,-0.1061231
1.020697,-0.003256562,-0.1076341
1.021777,-0.004839509,-0.1078632
1.025362,-0.007039679,-0.0984241
1.026428,-0.008234043,-0.09086453
1.026819,-0.007185155,-0.09289782
1.029719,-0.005897869,-0.09800314
1.027094,-0.00514407,-0.09931402
1.022859,-0.005571705,-0.09839662
1.024155,-0.006868074,-0.09875384
1.022168,-0.01066749,-0.09840919
1.019547,-0.01455564,-0.09872606
1.022754,-0.00887671,-0.09908431
1.025429,-0.0005526323,-0.1004226
1.026462,-0.001457469,-0.1041096
1.025093,-0.00232915,-0.1043156
1.02259,-0.0007198382,-0.1021824
1.024566,-0.003630064,-0.1008638
1.025507,-0.004561031,-0.1007547
1.022713,-0.002022144,-0.09964875
1.021741,-0.001158438,-0.09499452
1.022381,-0.002358349,-0.0936003
1.023279,-0.005265743,-0.09608345
1.023678,-0.006076644,-0.09791993
1.022688,-0.005322675,-0.09952685
1.021923,-0.005657024,-0.09970307
1.022118,-0.005108098,-0.09844367
1.022438,-0.003654206,-0.09697847
1.022138,-0.001362943,-0.09821461
1.022127,-0.0009506288,-0.09967726
1.022407,-0.002780484,-0.09701811
1.022073,-0.003423384,-0.09689882
1.022615,-0.005451501,-0.09877908
1.024091,-0.007612966,-0.09837116
1.025399,-0.006252148,-0.09907787
1.025351,-0.004827147,-0.09946053
1.024514,-0.005268849,-0.09982079
1.025189,-0.004309153,-0.09910827
1.025167,-0.002750946,-0.09510089
1.024659,-0.004351017,-0.09372912
1.024936,-0.005197786,-0.09452656
1.023107,-0.005246209,-0.09543109
1.021584,-0.007236231,-0.09897806
1.022219,-0.004644138,-0.1025239
1.022426,-0.001508461,-0.1021381
1.022142,-0.00481076,-0.09994568
1.022138,-0.006278603,-0.09978126
1.022355,-0.003397613,-0.09729318
1.021984,-0.002086462,-0.09393688
1.021272,-0.002827064,-0.09377021
1.020696,-0.003053671,-0.09155194
1.02059,-0.002549747,-0.09115938
1.021112,-0.002805941,-0.09217079
1.020754,-0.00290867,-0.0901833
1.020874,-0.002607276,-0.0902994
1.021965,-0.002885776,-0.09025082
1.022477,-0.002772437,-0.09064369
1.023112,-0.002700629,-0.09334261
1.023207,-0.002884504,-0.09483104
1.023796,-0.002873051,-0.09467921
1.025425,-0.003521502,-0.09203866
1.025316,-0.003751124,-0.09081614
1.024273,-0.00326693,-0.09016283
1.023296,-0.003471383,-0.08808654
1.022016,-0.003778051,-0.08892933
1.0227,-0.004065388,-0.08917458
1.024205,-0.004098815,-0.08930631
1.022691,-0.002284606,-0.09267045
1.021499,-0.0006929041,-0.09540679
1.022596,-0.001408989,-0.09494098
1.02239,-0.00166467,-0.09360282
1.022914,-0.001156542,-0.09479743
1.024141,-0.001639588,-0.09472407
1.023519,-0.002511978,-0.09384008
1.023308,-0.003851944,-0.09514879
1.022856,-0.004616069,-0.09514523
1.021873,-0.004040386,-0.0959355
1.022142,-0.004050133,-0.09597307
1.022419,-0.004158041,-0.09343858
1.022491,-0.003175504,-0.09178396
1.023954,-0.002680389,-0.08839961
1.025661,-0.003631917,-0.08749989
1.025135,-0.004570987,-0.09165119
1.024576,-0.004214856,-0.09108967
1.025288,-0.003741308,-0.08685497
1.024976,-0.003454947,-0.08625561
1.024665,-0.002492071,-0.08539841
1.024298,-0.002374988,-0.08433535
1.023043,-0.002241681,-0.08803346
1.022441,-0.0009192044,-0.09072737
1.021337,-0.001422337,-0.09036953
1.020788,-0.002500861,-0.09067576
1.023647,-0.001850134,-0.09181771
1.026017,-0.001298996,-0.09294777
1.024694,-0.001194679,-0.08805951
1.022391,-0.001677583,-0.08125027
1.020201,-0.002386045,-0.08377948
1.018872,-0.00282704,-0.09169055
1.020512,-0.003066619,-0.096086
1.022422,-0.002532261,-0.09556874
1.022227,-0.002770954,-0.09385906
1.022393,-0.003001391,-0.09174712
1.023357,-0.002501714,-0.09141626
1.02465,-0.002948926,-0.09497079
1.025514,-0.002781674,-0.09615057
1.024829,-0.002449014,-0.09408484
1.024689,-0.002091014,-0.09307291
1.024532,-0.0009515429,-0.09631173
1.024211,-0.0013419,-0.1000703
1.026312,-0.001828515,-0.09588127
1.027919,-0.002052283,-0.08995403
1.026656,-0.003149415,-0.08869512
1.022326,-0.002904292,-0.09106844
1.016885,-0.002490571,-0.09462019
1.017614,-0.002962439,-0.09330438
1.022345,-0.002766106,-0.0929893
1.024327,-0.002678213,-0.09562544
1.02555,-0.002890354,-0.09419158
1.024205,-0.002720433,-0.09225019
1.018968,-0.002764013,-0.08611051
1.016244,-0.002837203,-0.07864255
1.019547,-0.002713841,-0.08640248
1.024224,-0.002991495,-0.09708828
1.022514,-0.003498383,-0.09471507
1.020959,-0.003508104,-0.09368437
1.024321,-0.002482837,-0.09824327
1.023601,-0.001708991,-0.09899842
1.023147,-0.002334783,-0.09852167
1.024159,-0.003250162,-0.09802771
1.022056,-0.004694187,-0.0974178
1.022621,-0.005861133,-0.09655544
1.02403,-0.004601379,-0.09552151
1.025115,-0.002744131,-0.1004746
1.024596,-0.002507704,-0.1023355
1.021576,-0.002932023,-0.09775424
1.022644,-0.002779153,-0.0994644
1.024262,-0.002688113,-0.09958922
1.024917,-0.00287968,-0.09793024
1.024619,-0.002715709,-0.1014313
1.021703,-0.002958505,-0.1002945
1.022116,-0.003719579,-0.1008914
1.022765,-0.004367405,-0.1039042
1.022664,-0.004515838,-0.09920665
1.023734,-0.004819806,-0.0957236
1.020842,-0.006279602,-0.09539104
1.018561,-0.007530937,-0.09478668
1.020337,-0.008321639,-0.09462771
1.021484,-0.007727288,-0.09391829
1.020756,-0.005344774,-0.09479799
1.020851,-0.004867145,-0.09450967
1.023177,-0.003978161,-0.09404138
0.9861972,-0.08251886,-0.2838307
0.984117,-0.09899573,-0.2854916
0.9832851,-0.1062721,-0.2861592
0.9830191,-0.1043418,-0.2792917
0.9809897,-0.1118875,-0.284717
0.9844828,-0.1095695,-0.2878264
0.9848353,-0.1031732,-0.2921484
0.9823859,-0.1018143,-0.2902642
0.9797937,-0.09527453,-0.282388
0.9780878,-0.09119729,-0.2892497
0.9799158,-0.08494335,-0.2917245
0.9800366,-0.07703794,-0.2944947
0.9805242,-0.08147717,-0.3035049
0.9814216,-0.08678744,-0.3014879
0.9817996,-0.08672083,-0.3018934
0.9841589,-0.08588538,-0.3059309
0.983587,-0.08248196,-0.3038017
0.9826638,-0.08530135,-0.3025836
0.9838444,-0.09007492,-0.3031584
0.9833688,-0.08756091,-0.3014545
0.9840749,-0.08994385,-0.2972949
0.9849007,-0.09660065,-0.2940953
0.9824745,-0.1014011,-0.2987801
0.9791301,-0.1041031,-0.3085988
0.9767621,-0.1019135,-0.3092615
0.9765182,-0.10303,-0.3045214
0.9790543,-0.1054487,-0.3046119
0.9811882,-0.1046923,-0.3078494
0.9790026,-0.104632,-0.3142744
0.9767361,-0.1014584,-0.3177108
0.9795942,-0.1004462,-0.319898
0.9834665,-0.1008753,-0.3254253
0.9850155,-0.09964361,-0.326607
0.9830897,-0.1024296,-0.3277434
0.9785592,-0.1005539,-0.3286399
0.9768307,-0.09484593,-0.3257383
0.9770833,-0.09156974,-0.325528
0.9794228,-0.09017314,-0.3249492
0.9832022,-0.09277959,-0.3241361
0.9804629,-0.09209895,-0.3227665
0.9775005,-0.09335779,-0.3148837
0.9796521,-0.1006186,-0.3061249
0.9784782,-0.1017305,-0.3013104
0.9769566,-0.09881666,-0.3005997
0.9788534,-0.09632926,-0.3020664
0.9817135,-0.09848898,-0.3020237
0.9860563,-0.104579,-0.301987
0.98688,-0.1061029,-0.3014614
0.9836149,-0.1060222,-0.2994577
0.9829909,-0.1042802,-0.2944639
0.9845671,-0.1000871,-0.2871522
0.9859028,-0.09427735,-0.2875205
0.9863036,-0.08960739,-0.2907774
0.9850836,-0.09140723,-0.2880416
0.9843753,-0.09066742,-0.2885087
0.9849488,-0.09001351,-0.2888199
0.9856935,-0.09296004,-0.2826346
0.9863356,-0.09009784,-0.2806956
0.9862009,-0.0885791,-0.2872979
0.9855895,-0.08838591,-0.2945182
0.9844067,-0.08675401,-0.2924926
0.9826286,-0.08902198,-0.2897761
0.9818039,-0.09006252,-0.2949619
0.9803547,-0.0901837,-0.2946354
0.9782956,-0.08968177,-0.2913961
0.9790576,-0.08869502,-0.2902835
0.980281,-0.09181146,-0.2878214
0.9813741,-0.09380232,-0.2915612
0.9844324,-0.09223893,-0.2960128
0.9844148,-0.09100815,-0.2985784
0.9822347,-0.09205649,-0.301004
0.9820843,-0.09422153,-0.2968649
0.9817438,-0.09650515,-0.2958818
0.9829014,-0.09907766,-0.3024563
0.9834242,-0.09807714,-0.3074876
0.9802522,-0.09462173,-0.3063216
0.9784828,-0.09237927,-0.3039468
0.9794718,-0.09255004,-0.3064312
0.9822346,-0.09481175,-0.3047598
0.9841197,-0.09447401,-0.2992056
0.9829661,-0.09412049,-0.2965944
0.981162,-0.09459027,-0.2967759
0.9791967,-0.09221699,-0.3019313
0.9787286,-0.09129074,-0.3038182
0.9799702,-0.09196616,-0.3020977
0.9817914,-0.09349478,-0.3022392
0.9841115,-0.09536402,-0.3007804
0.9836982,-0.09575224,-0.3012635
0.9826844,-0.09862169,-0.3008696
0.9840206,-0.1009355,-0.2986316
0.9852039,-0.09908056,-0.2973616
0.9863637,-0.09774259,-0.2935207
0.9867582,-0.09805185,-0.2934875
0.9863301,-0.09775766,-0.2955989
0.98717,-0.09663979,-0.293805
0.9872734,-0.09577012,-0.292629
0.9879716,-0.09593052,-0.2900195
0.9898349,-0.09873785,-0.2879469
0.98871,-0.1010377,-0.2920779
0.9877237,-0.09879769,-0.296257
0.9857661,-0.09383269,-0.2980133
0.9809301,-0.08761186,-0.2990508
0.9814697,-0.08644298,-0.2953471
0.9843648,-0.09115649,-0.2930251
0.9856893,-0.09193056,-0.2948307
0.9884839,-0.08877927,-0.2913196
0.9875471,-0.08751645,-0.2869851
0.9846397,-0.09165284,-0.2845249
0.9840714,-0.09653671,-0.2840318
0.9836727,-0.09472697,-0.2889024
0.9851549,-0.0945706,-0.2914383
0.9861535,-0.09918444,-0.2944852
0.9860611,-0.1008051,-0.294599
0.9883467,-0.1016026,-0.2881055
0.9893288,-0.1014808,-0.2903688
0.9888256,-0.09848009,-0.2914035
0.9889139,-0.09567642,-0.2864583
0.9887529,-0.09352075,-0.2835382
0.9890575,-0.09418327,-0.2786787
0.9884663,-0.09541205,-0.2873335
0.9870054,-0.09474357,-0.2999317
0.9856001,-0.09601602,-0.2945075
0.9847842,-0.09538272,-0.2880317
0.9851681,-0.09365643,-0.2859468
0.9853226,-0.09570098,-0.2872963
0.98637,-0.09624834,-0.2943343
0.9863594,-0.0957538,-0.2954442
0.9846061,-0.09686582,-0.2938261
0.9849841,-0.09704151,-0.2949259
0.9857352,-0.09560813,-0.2951929
0.9873194,-0.09421676,-0.2959498
0.989087,-0.09712945,-0.2951513
0.988733,-0.1007169,-0.2939466
0.988885,-0.09925573,-0.2955385
0.9879822,-0.09756686,-0.2949784
0.9872054,-0.09700015,-0.2892941
0.9885976,-0.0954302,-0.2832698
0.9889291,-0.09508627,-0.2840775
0.9880973,-0.09434629,-0.2882663
0.9868897,-0.09146859,-0.289241
0.9865035,-0.09099339,-0.2906953
0.9862204,-0.09228388,-0.2905097
0.9856614,-0.09163638,-0.2865324
0.9868056,-0.09238911,-0.2821187
0.9880681,-0.09438741,-0.2784561
0.9900622,-0.09643245,-0.284157
0.9911114,-0.09962322,-0.2925623
0.9895455,-0.09813678,-0.2903776
0.9894319,-0.09226526,-0.2896303
0.9889294,-0.08879789,-0.2924776
0.9883715,-0.08796351,-0.2907894
0.989389,-0.08756579,-0.2900875
0.988531,-0.08639457,-0.2917504
0.9878369,-0.08760057,-0.2932507
0.9875617,-0.0927193,-0.2957603
0.9869031,-0.09656875,-0.2989958
0.9869698,-0.09615882,-0.2959974
0.9857693,-0.09332997,-0.2886546
0.9857959,-0.09278154,-0.2863855
0.9868191,-0.09419233,-0.2810236
0.9866464,-0.09454064,-0.2769781
0.9872824,-0.09433644,-0.284017
0.9851302,-0.09223991,-0.2862154
0.9832643,-0.0903788,-0.2844746
0.9895975,-0.09168787,-0.287711
0.9950108,-0.09545227,-0.2904389
0.990283,-0.09813312,-0.2941185
0.9849524,-0.09456777,-0.2984102
0.986121,-0.09202522,-0.2988878
0.9869268,-0.0968019,-0.2937652
0.9873504,-0.1019859,-0.2897509
0.9898064,-0.1026774,-0.2920036
0.988497,-0.09705535,-0.2916162
0.9855898,-0.09055307,-0.28843
0.984447,-0.09086054,-0.2871918
0.983823,-0.09262321,-0.2879554
0.9834752,-0.09131199,-0.2897885
0.9815191,-0.09143174,-0.288732
0.9829549,-0.09213961,-0.2888419
0.9881096,-0.09130485,-0.291229
0.9895382,-0.09245712,-0.2918238
0.9888827,-0.09542686,-0.2916257
0.9879062,-0.09764924,-0.2892495
0.9882058,-0.09612564,-0.2850744
0.9905262,-0.09295814,-0.2794229
0.9911752,-0.0945738,-0.2765838
0.9909978,-0.09521209,-0.2801885
0.9901251,-0.0940977,-0.2789099
0.9898613,-0.09760046,-0.2764106
0.9906008,-0.09894933,-0.2833669
0.9886003,-0.09583273,-0.2867419
0.9858623,-0.09350471,-0.2843036
0.9842571,-0.09408254,-0.2843351
0.985189,-0.09527564,-0.2840639
0.9869339,-0.09394735,-0.2861712
0.9849362,-0.09505235,-0.2872496
0.9843056,-0.09854296,-0.283883
0.9860395,-0.1003304,-0.2832739
0.9861882,-0.0998744,-0.2804551
0.9867764,-0.09752205,-0.2762042
0.9888501,-0.09843479,-0.2776649
0.9919462,-0.09778477,-0.2778512
0.9926301,-0.09248142,-0.2749237
0.9918172,-0.09078699,-0.2733372
0.9937475,-0.0906174,-0.2738163
0.9941034,-0.09007863,-0.27523
0.9931858,-0.09013504,-0.2776331
0.9933581,-0.09191603,-0.2808822
0.992632,-0.09669915,-0.2819218
0.9928153,-0.09932136,-0.2836107
0.9909923,-0.1008461,-0.2859324
0.986447,-0.09781446,-0.2876646
0.9845204,-0.09010206,-0.2904146
0.9842783,-0.09084723,-0.2845322
0.9839844,-0.09432016,-0.2752492
0.9831663,-0.09696624,-0.2737598
0.9845678,-0.1033165,-0.2722497
0.9921848,-0.1010913,-0.2781933
0.9998698,-0.09499844,-0.2899968
0.9998304,-0.09520363,-0.2870504
0.9958219,-0.09136733,-0.2834122
0.9944742,-0.08747433,-0.2883932
0.9928734,-0.09150429,-0.2878065
0.9919926,-0.09682052,-0.2891652
0.9937554,-0.1008632,-0.2910239
0.9904812,-0.102071,-0.2857955
0.9864838,-0.1001184,-0.2836883
0.9856391,-0.09865116,-0.2816456
0.9836979,-0.09839749,-0.2806447
0.9832355,-0.09800544,-0.2828521
0.982153,-0.09502326,-0.2783187
0.9815852,-0.092101,-0.2742403
0.9830852,-0.09359991,-0.2723946
0.985252,-0.09456225,-0.2695242
0.9897674,-0.08975704,-0.2708995
0.9897959,-0.08661585,-0.2703279
0.9887209,-0.09287118,-0.2698916
0.9912387,-0.1010212,-0.2759958
0.9898779,-0.1026993,-0.2803645
0.9880386,-0.1010086,-0.2759111
0.9887062,-0.1019583,-0.2693307
0.9932256,-0.1062989,-0.2701751
0.9985603,-0.1094819,-0.2709184
0.9921285,-0.1075538,-0.2717783
0.9837805,-0.1007286,-0.2801738
0.9872576,-0.09395242,-0.2830332
0.9935802,-0.09123747,-0.281083
0.997715,-0.09044207,-0.282942
0.9986007,-0.08706022,-0.2779309
0.9958743,-0.08002596,-0.2688741
0.9960307,-0.07391604,-0.2685313
0.9945916,-0.07219384,-0.2721446
0.9914193,-0.0725245,-0.2725941
0.993067,-0.07270248,-0.2721476
0.9904208,-0.07563848,-0.2725443
0.985472,-0.07893596,-0.2743324
0.9852547,-0.07605664,-0.2774423
0.9825992,-0.07368383,-0.2780789
0.9803911,-0.07670063,-0.275627
0.9848141,-0.08213983,-0.2734318
0.9907535,-0.09041028,-0.2734554
0.9915341,-0.09661198,-0.2747836
0.9917635,-0.1022337,-0.2751964
0.9944066,-0.10973,-0.2755593
0.9929112,-0.1087526,-0.277616
0.9933257,-0.1053075,-0.2799647
0.9953364,-0.1067981,-0.2779828
0.9920215,-0.103049,-0.270392
0.9912969,-0.09896927,-0.265999
0.9927607,-0.09752077,-0.2738954
0.9931971,-0.09243009,-0.2858644
0.9932269,-0.09148707,-0.2866015
0.991481,-0.0925593,-0.2839447
0.9906088,-0.09360268,-0.2872885
0.9890821,-0.1000173,-0.2873032
0.988002,-0.102473,-0.2861527
0.9875351,-0.09908066,-0.2841624
0.9853221,-0.09595765,-0.2766621
0.9859413,-0.09517276,-0.2750763
0.9863012,-0.09593684,-0.2783057
0.9838792,-0.09388402,-0.2787675
0.9829619,-0.09170978,-0.2794312
0.9831703,-0.08916412,-0.2792078
0.9835969,-0.08472694,-0.2789718
0.9843479,-0.0834449,-0.2797259
0.9886973,-0.08317471,-0.2808141
0.9944568,-0.08069574,-0.282552
0.9932484,-0.08145709,-0.2821616
0.9892631,-0.09020104,-0.2811227
0.9885922,-0.09815084,-0.280435
0.9887363,-0.09598069,-0.2786302
0.9888384,-0.08971965,-0.2791323
0.9881083,-0.08439341,-0.2815504
0.9869767,-0.08155915,-0.2822048
0.9882947,-0.08759347,-0.2832889
0.9912746,-0.09493543,-0.2881167
0.9933501,-0.09202073,-0.2931182
0.9908017,-0.09281748,-0.2904749
0.9861239,-0.102296,-0.2849524
0.9863509,-0.105666,-0.2860656
0.9866526,-0.1053569,-0.2867455
0.985133,-0.1054214,-0.2860275
0.9856862,-0.1052046,-0.2902567
0.9845089,-0.1052137,-0.2920985
0.9843626,-0.1019247,-0.2883931
0.9865051,-0.09652784,-0.2828091
0.9872096,-0.08838298,-0.2804524
0.98966,-0.08505298,-0.2830854
0.9908674,-0.08907151,-0.2847523
0.989077,-0.08920483,-0.2857839
0.988648,-0.09291051,-0.2832923
0.9890009,-0.09821805,-0.2785476
0.9901216,-0.0954804,-0.2807244
0.991408,-0.09496767,-0.2826391
0.9911921,-0.09565512,-0.2827152
0.9882209,-0.09437904,-0.2872873
0.984729,-0.09736342,-0.2905336
0.9857013,-0.1015592,-0.2894292
0.9860678,-0.1020623,-0.2859935
0.9840233,-0.1000414,-0.2853213
0.9859494,-0.09698395,-0.288783
0.9886653,-0.09327359,-0.2893488
0.9887128,-0.09400432,-0.2882276
0.9869429,-0.09747261,-0.2873381
0.9835579,-0.09717283,-0.2853721
0.9829401,-0.09719651,-0.2854456
0.9855088,-0.0976742,-0.2839249
0.9866365,-0.09767992,-0.2805349
0.9861718,-0.09959862,-0.2810655
0.9862198,-0.100408,-0.2816934
0.9881747,-0.1015409,-0.2805457
0.9906196,-0.1016931,-0.2797672
0.9914519,-0.09890089,-0.2787073
0.9917781,-0.09796651,-0.2794081
0.991583,-0.0964741,-0.2815422
0.9906327,-0.0932788,-0.2828711
0.9900856,-0.09143484,-0.2826383
0.9901652,-0.09060963,-0.2797478
0.9899131,-0.09170171,-0.278602
0.9875405,-0.0944689,-0.281515
0.9852196,-0.09680721,-0.2834518
0.9859211,-0.0959186,-0.2826758
0.9866325,-0.09379899,-0.2787971
0.9858317,-0.09294939,-0.2757747
0.9865677,-0.09096639,-0.2805334
0.989057,-0.09165095,-0.2856029
0.990688,-0.09426338,-0.2833463
0.9897694,-0.09438404,-0.2820373
0.9880937,-0.09478124,-0.2833613
0.9892639,-0.09450095,-0.2815014
0.9911657,-0.09525361,-0.281383
0.9916972,-0.0974716,-0.2831547
0.9919235,-0.09738591,-0.282834
0.9903062,-0.0981356,-0.283489
0.988979,-0.09912981,-0.282016
0.9887566,-0.0994102,-0.2807842
0.9874961,-0.1003288,-0.2829541
0.9866238,-0.09929161,-0.2817182
0.9857039,-0.09595627,-0.281458
0.9863251,-0.0920202,-0.2825288
0.988544,-0.09312434,-0.2790295
0.9898947,-0.09924925,-0.2733211
0.9903963,-0.1005269,-0.2671961
0.9874216,-0.09612032,-0.2674589
0.9858637,-0.09345841,-0.2699643
0.9909523,-0.09607095,-0.2687918
0.9955414,-0.09855574,-0.2750816
0.995049,-0.09599372,-0.2797287
0.9932082,-0.09199239,-0.2735264
0.9929805,-0.08771194,-0.2706659
0.9912628,-0.08622984,-0.2724377
0.9899434,-0.0896119,-0.2723138
0.990743,-0.09195383,-0.2701307
0.9889306,-0.09644717,-0.2698398
0.9886963,-0.1024748,-0.275712
0.9902294,-0.1014604,-0.283031
0.9901094,-0.09748291,-0.2849726
0.9901472,-0.09138693,-0.2826168
0.9873504,-0.08422305,-0.2840556
0.9857071,-0.08343972,-0.2894993
0.9888851,-0.08335576,-0.2922937
0.9903577,-0.08509362,-0.2901754
0.9859413,-0.09254328,-0.2844973
0.9803196,-0.09490808,-0.2827392
0.9820841,-0.09823978,-0.2824384
0.9857379,-0.1065616,-0.2781854
0.9860611,-0.1072745,-0.2756409
0.9866958,-0.1074805,-0.2724782
0.9859177,-0.1062985,-0.2698937
0.9870054,-0.09467393,-0.2721072
0.989764,-0.08786563,-0.2754354
0.9917296,-0.08914887,-0.2800621
0.9958497,-0.09006231,-0.282821
0.9965014,-0.09279885,-0.2795946
0.993603,-0.09788424,-0.2734379
0.9908379,-0.1003758,-0.2699791
0.9877073,-0.09783607,-0.268004
0.9885426,-0.09785277,-0.2650565
0.9899448,-0.09728401,-0.2691702
0.9893818,-0.09170216,-0.2761201
0.9916636,-0.09102194,-0.2760376
0.9932584,-0.09179136,-0.2751964
0.9926708,-0.0904137,-0.2751292
0.992026,-0.08921359,-0.2732189
0.989545,-0.08726947,-0.2721574
0.9877484,-0.08792548,-0.2717865
0.9878549,-0.08946718,-0.2735574
0.988381,-0.0918835,-0.2788602
0.9906835,-0.09465702,-0.2831841
0.9909568,-0.09608882,-0.2818431
0.9885256,-0.09820362,-0.2781022
0.9893559,-0.09686637,-0.2790821
0.9922057,-0.09444212,-0.2799756
0.9952932,-0.09317775,-0.2778999
0.9964514,-0.09193197,-0.2778623
0.992659,-0.09322867,-0.2752707
0.9906102,-0.0909488,-0.272885
0.9919253,-0.08886867,-0.2753493
0.9916075,-0.09233052,-0.2780136
0.9906625,-0.09299251,-0.2780747
0.9900108,-0.09371478,-0.2715053
0.9901959,-0.09534303,-0.2679737
0.9903373,-0.09381305,-0.2727067
0.9891798,-0.09353509,-0.2744935
0.9887008,-0.09308157,-0.2736168
0.988817,-0.09258313,-0.2722184
0.9889883,-0.093534,-0.2720395
0.9889115,-0.0921414,-0.272581
0.989109,-0.08919369,-0.2713624
0.9908324,-0.0858047,-0.2708606
0.9921261,-0.08529509,-0.2689611
0.9916804,-0.08790207,-0.2707531
0.9904636,-0.08756327,-0.2765058
0.9904336,-0.0875729,-0.2772631
0.9921402,-0.0900363,-0.2720891
0.9930104,-0.09244726,-0.2654431
0.9906511,-0.09485818,-0.2673648
0.9878077,-0.09423996,-0.2715339
0.9896183,-0.09230766,-0.2736848
0.9911901,-0.0914816,-0.2814146
0.9888282,-0.0912116,-0.2795534
0.9885657,-0.09213701,-0.2727489
0.9893444,-0.09140664,-0.2752973
0.9901125,-0.09010846,-0.2735921
0.9933759,-0.08867529,-0.2704867
0.9951218,-0.08668512,-0.2689584
0.9936401,-0.08846576,-0.2662077
0.9923657,-0.08965115,-0.2691996
0.9931555,-0.08826222,-0.2689748
0.9928594,-0.08757413,-0.2670724
0.9899652,-0.08462778,-0.2692395
0.9886425,-0.08261471,-0.2689407
0.9904073,-0.08515424,-0.2703909
0.9922431,-0.08706892,-0.271706
0.9900585,-0.08585752,-0.2737148
0.9876241,-0.08514117,-0.2764315
0.9894333,-0.08665551,-0.2723697
0.990264,-0.0878076,-0.2714402
0.99093,-0.08794345,-0.2730695
0.9924434,-0.0885205,-0.2725615
0.9912363,-0.09086641,-0.2741324
0.9904148,-0.09296926,-0.2726289
0.9894575,-0.09319401,-0.27163
0.9887508,-0.09474179,-0.2729507
0.9918085,-0.09505857,-0.2734172
0.9939977,-0.09354584,-0.2741155
0.9931157,-0.09386723,-0.2721455
0.9921127,-0.09310888,-0.270726
0.9911236,-0.09344314,-0.2704183
0.9906766,-0.09495356,-0.2707276
0.9923924,-0.09210888,-0.2742884
0.992559,-0.08905372,-0.2756256
0.9907566,-0.08853871,-0.2742008
0.9928323,-0.0882624,-0.2694618
0.9938997,-0.08650904,-0.2583913
0.9922918,-0.08405803,-0.2523675
0.9934453,-0.08652525,-0.2619308
0.9931088,-0.09064725,-0.274635
0.9928475,-0.0904998,-0.2744753
0.9944499,-0.09028003,-0.2696919
0.9941494,-0.09111345,-0.2692119
0.9934364,-0.09057197,-0.269077
0.9909237,-0.08842917,-0.2703298
0.9894152,-0.08748127,-0.2723917
0.9904761,-0.09203801,-0.2753752
0.989348,-0.09624837,-0.2788347
0.9885254,-0.09433675,-0.2794961
0.9892578,-0.09271768,-0.2811544
0.991469,-0.09337673,-0.281541
0.9958153,-0.09290816,-0.2784426
0.9974803,-0.09257732,-0.2726511
0.9929443,-0.09153504,-0.265911
0.9881989,-0.09022911,-0.2690625
0.9901841,-0.09368523,-0.2742537
0.9914134,-0.0981714,-0.2715428
0.9893106,-0.09943885,-0.2718424
0.9909077,-0.1013612,-0.2726799
0.9924013,-0.1006274,-0.2701129
0.9930195,-0.09694648,-0.2709433
0.9932063,-0.09765332,-0.2727047
0.9896057,-0.09787986,-0.2724897
0.9872618,-0.09640928,-0.271945
0.9876348,-0.0986524,-0.2725292
0.9892771,-0.09903206,-0.2742898
0.9911049,-0.0984831,-0.2752855
0.9903617,-0.1011699,-0.2754547
0.9908678,-0.1043793,-0.2754502
0.9922851,-0.1093804,-0.2760724
0.9917364,-0.1119651,-0.276389
0.9924123,-0.1077146,-0.2750113
0.9934816,-0.102079,-0.273451
0.9930999,-0.09985919,-0.2730945
0.9928408,-0.09973635,-0.2749176
0.9926408,-0.09352908,-0.2751797
0.9898903,-0.07666627,-0.2726701
0.9852384,-0.06215833,-0.2729014
0.9842593,-0.06974763,-0.2764652
0.9878355,-0.08505132,-0.2810167
0.9912154,-0.08555163,-0.2817144
0.9923524,-0.09249913,-0.2797422
0.9928234,-0.106788,-0.2768158
0.9917004,-0.1101791,-0.2703473
0.9895186,-0.1151498,-0.2732034
0.9910006,-0.115466,-0.2806924
0.9924331,-0.1100589,-0.2779513
0.9898056,-0.1099885,-0.2752817
0.9872458,-0.1030617,-0.2723537
0.9862298,-0.09902623,-0.270531
0.989424,-0.1036825,-0.2740923
0.9943489,-0.1052499,-0.2731888
0.9937665,-0.1116932,-0.2731897
0.9941598,-0.1195672,-0.2720717
0.9977093,-0.1158148,-0.2656254
0.9966817,-0.09908728,-0.2623102
0.9950174,-0.07944431,-0.2597756
0.9960807,-0.07325858,-0.2623875
0.9959555,-0.07219879,-0.2694732
0.9956255,-0.06353806,-0.2718734
0.9959659,-0.06485981,-0.2672637
0.9952726,-0.07565355,-0.2573703
0.9927543,-0.07780794,-0.2556372
0.9891179,-0.08414028,-0.2555753
0.9876314,-0.09399405,-0.2530103
0.9875157,-0.09849589,-0.2600848
0.9864069,-0.1089062,-0.2613335
0.9892963,-0.112064,-0.2599414
0.9943483,-0.1038303,-0.2647515
0.9934776,-0.09764915,-0.26411
0.9924893,-0.09501385,-0.2671571
0.9954749,-0.09592507,-0.2688318
0.9962745,-0.08962263,-0.2621047
0.9948684,-0.08336599,-0.2583911
0.9913554,-0.08592843,-0.2573272
0.9879721,-0.08969763,-0.2593413
0.9915504,-0.09880806,-0.2617284
0.9965871,-0.1058113,-0.2642746
0.9961758,-0.1103804,-0.2665699
0.9953471,-0.1147534,-0.2627088
0.9961279,-0.110779,-0.261004
0.9957896,-0.1059833,-0.2595235
0.9956984,-0.09829591,-0.2545378
0.9960278,-0.08891437,-0.2523389
0.9958645,-0.08562183,-0.2490015
0.9967693,-0.08631067,-0.2471609
0.9977345,-0.09323141,-0.2478417
0.997924,-0.09781023,-0.246782
0.9980788,-0.09614665,-0.2483812
0.9979855,-0.09707417,-0.2501775
0.9996753,-0.09881289,-0.250386
1.004339,-0.0955077,-0.253085
1.008497,-0.08625001,-0.2557702
1.008297,-0.07238675,-0.2564057
1.006639,-0.05168311,-0.2570612
1.005788,-0.03604182,-0.2582154
0.9994427,-0.04000616,-0.2553057
0.9915326,-0.05244892,-0.2469605
0.9924401,-0.06524476,-0.2393416
0.9960438,-0.07556608,-0.2341571
0.9959226,-0.08344094,-0.2301447
0.9950868,-0.09826624,-0.2253568
0.9923425,-0.1111455,-0.2221983
0.990291,-0.116584,-0.2289468
0.9964051,-0.1196697,-0.2386002
1.003784,-0.1134217,-0.2426961
1.002825,-0.1004141,-0.2435575
1.001648,-0.08854154,-0.2422679
1.003949,-0.08569112,-0.2432963
1.003468,-0.09057798,-0.2430519
1.003774,-0.08586878,-0.2391138
1.003728,-0.08057428,-0.2364584
0.999852,-0.08301102,-0.2324063
0.998792,-0.08244994,-0.2311381
0.9995703,-0.0848555,-0.2329586
1.000096,-0.08746841,-0.2342886
1.001601,-0.08707779,-0.2364825
1.00265,-0.08835365,-0.2327569
1.005879,-0.08690703,-0.2285093
1.007811,-0.08655705,-0.2302692
1.005086,-0.08256959,-0.2312032
1.001582,-0.07303802,-0.2331837
0.9989402,-0.07117911,-0.2386961
0.9997265,-0.07531082,-0.2432297
1.000759,-0.07911667,-0.2418722
0.9994779,-0.08127097,-0.2377357
1.000066,-0.0847424,-0.2372294
1.000254,-0.08768518,-0.2376547
0.9996702,-0.08429758,-0.2381583
1.000757,-0.08222106,-0.2385092
1.002632,-0.0819213,-0.2370617
1.004182,-0.07950082,-0.2367736
1.001059,-0.07639062,-0.235217
0.9973099,-0.07201139,-0.2322275
1.001224,-0.07297961,-0.2330881
1.004393,-0.0768326,-0.2338717
1.001383,-0.08156886,-0.2317939
1.001238,-0.09084611,-0.2309707
1.004587,-0.09147139,-0.2315304
1.005658,-0.08786069,-0.2330723
1.002421,-0.0900347,-0.2347008
0.9965302,-0.08638752,-0.233352
0.9951198,-0.08118112,-0.2295799
0.9989145,-0.07913644,-0.2248035
1.000448,-0.08008409,-0.2226089
0.9973769,-0.08757107,-0.2255961
0.9950613,-0.08826792,-0.2274168
0.9985006,-0.08464913,-0.2255528
1.001514,-0.08504427,-0.2235162
1.000054,-0.08449413,-0.2225756
1.002246,-0.08789469,-0.2271195
1.008311,-0.08991505,-0.2355998
1.010139,-0.088414,-0.2374454
1.005358,-0.08919932,-0.2328965
1.000751,-0.08858363,-0.2290535
1.002656,-0.08959844,-0.2269307
1.004251,-0.09168345,-0.2279575
1.003672,-0.09364203,-0.2311821
1.005025,-0.0940995,-0.2330798
0.9999301,-0.09025438,-0.2359165
0.9934468,-0.08909192,-0.2392567
0.9983852,-0.089483,-0.2391467
1.002286,-0.08981312,-0.2366849
0.9993222,-0.09097326,-0.2362005
1.001074,-0.09177609,-0.2398108
1.005098,-0.09406058,-0.2434409
1.005046,-0.09385215,-0.244231
1.001137,-0.09344294,-0.2441549
0.9958769,-0.09420007,-0.2431952
0.9949982,-0.09294674,-0.2425484
0.9940728,-0.09187206,-0.2442572
0.9904793,-0.08847851,-0.2455113
0.9932016,-0.08644765,-0.2467319
0.9955652,-0.08820229,-0.2493825
0.9899561,-0.08929378,-0.2477997
0.9839869,-0.09112928,-0.2442683
0.9819276,-0.09266456,-0.2458074
0.991056,-0.09526399,-0.2524363
1.008987,-0.09908088,-0.2621587
1.013717,-0.100637,-0.2619119
0.998882,-0.1022186,-0.2458748
0.9868192,-0.1034081,-0.2360464
0.9957517,-0.1042138,-0.2469763
1.006883,-0.1047285,-0.25908
1.004892,-0.1037004,-0.2537018
1.003804,-0.1034829,-0.2488178
1.002977,-0.1009168,-0.2519999
1.002441,-0.09782997,-0.2506616
1.005782,-0.1020035,-0.2531099
1.003527,-0.1053777,-0.2550165
1.001949,-0.09952456,-0.2545763
0.9989661,-0.09141997,-0.2627042
0.9895109,-0.08609355,-0.2669724
0.9867648,-0.08400218,-0.2706299
0.9887272,-0.08778462,-0.2746533
0.9910535,-0.09315125,-0.2722212
0.9920244,-0.09383388,-0.2747505
0.9884899,-0.09365701,-0.2698718
0.9868185,-0.09477254,-0.2617686
0.9876415,-0.09454052,-0.2679932
0.9896505,-0.09444749,-0.271068
0.9915593,-0.09666338,-0.272379
0.9936425,-0.1025564,-0.2802799
0.9964951,-0.1082467,-0.2836982
0.993482,-0.1066921,-0.2819718
0.9902171,-0.1031762,-0.2807437
0.992777,-0.1039345,-0.2803911
0.9933235,-0.1027812,-0.2765422
0.9894593,-0.09993643,-0.2732982
0.9852828,-0.1001167,-0.2738893
0.9847962,-0.1002293,-0.2732467
0.9892451,-0.1012667,-0.2733594
0.9931982,-0.1024808,-0.2717404
0.9908711,-0.1016001,-0.2678332
0.9880373,-0.1037824,-0.2666634
0.9898082,-0.1073066,-0.2655142
0.9919602,-0.1103995,-0.2650005
0.9953155,-0.1129207,-0.2646913
0.9971326,-0.1123019,-0.2616041
0.9949394,-0.1124363,-0.2591209
0.9947205,-0.1069118,-0.2620291
0.9937575,-0.09780311,-0.2692785
0.9921495,-0.1008777,-0.2723474
0.9934708,-0.1035808,-0.2707352
0.9931358,-0.09990406,-0.2702484
0.9925388,-0.1026157,-0.269581
0.9926922,-0.1035688,-0.2666575
0.9917189,-0.1000936,-0.2642661
0.9914625,-0.09714779,-0.2661673
0.990163,-0.09346135,-0.2684862
0.9899323,-0.0968709,-0.2706057
0.9927002,-0.1022121,-0.2744945
0.9931122,-0.09992122,-0.2713416
0.9911779,-0.09880073,-0.265308
0.990114,-0.09927856,-0.2656681
0.9917535,-0.09789178,-0.2646116
0.9941433,-0.09785299,-0.2602173
0.993007,-0.09488742,-0.2574676
0.9924983,-0.0908771,-0.2569316
0.9936369,-0.09275284,-0.2559866
0.9929598,-0.09645112,-0.2531016
0.9938731,-0.09968583,-0.2544768
0.9950047,-0.1015064,-0.2565301
0.9944186,-0.1003534,-0.2544427
0.9955012,-0.1000705,-0.2560937
0.99708,-0.09818606,-0.2570506
0.9971672,-0.09647468,-0.2572149
0.9952215,-0.09728597,-0.2632823
0.9924856,-0.09565744,-0.2646768
0.9907933,-0.09911386,-0.2566873
0.9890517,-0.1017333,-0.2482113
0.9892709,-0.09182607,-0.2509908
0.9939485,-0.08501842,-0.2590238
0.9995812,-0.09428366,-0.26068
1.002193,-0.1173494,-0.2673064
1.002007,-0.1337264,-0.2746262
0.9978203,-0.1236801,-0.2756047
0.9897173,-0.105583,-0.2777052
0.9874295,-0.09925378,-0.2773459
0.9929534,-0.09769246,-0.2759687
0.9967633,-0.09730143,-0.267466
0.9975696,-0.09488691,-0.2573472
0.9956395,-0.08245992,-0.2649791
0.9905845,-0.0704788,-0.2752459
0.9877584,-0.06531715,-0.2772197
0.9891063,-0.06507366,-0.2742768
0.9922361,-0.07375535,-0.2645045
0.9936526,-0.08053596,-0.2563598
0.993067,-0.08354,-0.2544787
0.9929389,-0.08842535,-0.2545767
0.9932013,-0.09230625,-0.2536642
0.9940712,-0.1048898,-0.25391
0.9946595,-0.1197467,-0.2538774
0.9944661,-0.1177405,-0.2518405
0.9946034,-0.112528,-0.2527981
0.9952556,-0.1180174,-0.2517421
0.9962297,-0.1159941,-0.2478124
0.9957026,-0.108471,-0.2477125
0.9946716,-0.1067678,-0.2518807
0.9947856,-0.09940993,-0.2586409
0.9959949,-0.1002436,-0.2605432
0.9979647,-0.1063435,-0.2622331
0.9970832,-0.1005952,-0.2692046
0.9950176,-0.1017956,-0.2679003
0.9952305,-0.1026072,-0.261193
0.9958104,-0.09945817,-0.2601409
0.996158,-0.1032458,-0.2593119
0.995711,-0.102707,-0.2565385
0.9956356,-0.1043648,-0.2552637
0.996174,-0.1063451,-0.2561457
0.9955846,-0.1043484,-0.2577527
0.995861,-0.1061536,-0.2579205
0.996009,-0.1028631,-0.2583263
0.9952143,-0.09811425,-0.2597138
0.99426,-0.09680718,-0.2591825
0.9924334,-0.09643392,-0.2570359
0.9927695,-0.09839094,-0.2548951
0.9938184,-0.09755603,-0.2555108
0.9935632,-0.09797089,-0.2592418
0.9945752,-0.09964084,-0.261098
0.9938707,-0.09948361,-0.2614255
0.9922989,-0.1008852,-0.2611918
0.9932413,-0.09945425,-0.2597943
0.9932609,-0.09870936,-0.2570654
0.9927566,-0.0991732,-0.2535585
0.9930749,-0.09774273,-0.2584276
0.9921219,-0.09932194,-0.2667837
0.9918516,-0.09977012,-0.2667966
0.9943593,-0.1005933,-0.2669274
0.9964075,-0.1026503,-0.2680682
0.9943026,-0.1016898,-0.2660419
0.9918638,-0.1028679,-0.2657753
0.993212,-0.1020428,-0.2635405
0.9935516,-0.09858649,-0.2596949
0.9919624,-0.09884248,-0.2613038
0.9906438,-0.1002518,-0.2647126
0.9885022,-0.1020564,-0.2655464
0.9902532,-0.101533,-0.2655292
0.9940251,-0.09959496,-0.2651002
0.9930642,-0.09937165,-0.2651355
0.9926212,-0.09811955,-0.2652426
0.9938925,-0.0988209,-0.2632466
0.994538,-0.1008978,-0.2619675
0.9962587,-0.1011053,-0.2624897
0.9952942,-0.1000318,-0.2628075
0.9935261,-0.09772213,-0.2632272
0.994747,-0.098525,-0.2625975
0.9948094,-0.1002892,-0.259772
0.9949876,-0.09946479,-0.2580987
0.9963725,-0.09937766,-0.2642577
0.9954971,-0.09820726,-0.275438
0.9937699,-0.0972732,-0.2801529
0.9936446,-0.09739712,-0.2762275
0.9972226,-0.09584054,-0.2686662
1.00137,-0.09629277,-0.2633198
0.998656,-0.09861188,-0.2625007
0.9954576,-0.1005891,-0.2594739
0.9976132,-0.1004466,-0.2533375
0.9965899,-0.09807644,-0.2536235
0.9937163,-0.09796651,-0.2558711
0.9937285,-0.09837998,-0.253677
0.9927629,-0.1001513,-0.2580123
0.9931629,-0.1027037,-0.2636719
0.9953094,-0.1010215,-0.2611549
0.9956566,-0.1004712,-0.2570575
0.9943742,-0.09917459,-0.2517239
0.9922154,-0.09499456,-0.2525774
0.9928027,-0.09544667,-0.2598265
0.9937902,-0.09644758,-0.2623568
0.9928396,-0.09545282,-0.2647109
0.9949681,-0.09556283,-0.2675451
0.9966428,-0.09413325,-0.2695675
0.9956249,-0.0927461,-0.2683582
0.9957617,-0.09488216,-0.2596647
0.995907,-0.09749303,-0.2533249
0.9958251,-0.096417,-0.2541908
0.9958283,-0.09428983,-0.255866
0.9957943,-0.09429806,-0.2545695
0.9959236,-0.09504109,-0.2567863
0.9957311,-0.09730961,-0.2608047
0.9958958,-0.1003282,-0.2614203
0.9956633,-0.100545,-0.2661651
0.9950437,-0.1000875,-0.2630489
0.9949934,-0.1027283,-0.2551738
0.9946554,-0.104682,-0.2593388
0.9927455,-0.1013614,-0.2591192
0.990897,-0.09761153,-0.2578743
0.9925527,-0.097311,-0.2604239
0.9942377,-0.09652372,-0.2545645
0.9944173,-0.09572091,-0.2518571
0.9967271,-0.09877419,-0.256184
0.9980842,-0.1020065,-0.2616984
0.9980943,-0.101465,-0.2641399
0.9974387,-0.09942911,-0.2625104
0.9949007,-0.09595059,-0.2629715
0.9955229,-0.09149536,-0.2608073
0.9966709,-0.09150965,-0.258672
0.9951921,-0.09583185,-0.2610756
0.9959678,-0.09862435,-0.2607438
0.9959526,-0.09932517,-0.2574217
0.9942976,-0.1009295,-0.2549576
0.9936454,-0.1021257,-0.2581854
0.9925508,-0.1012,-0.26325
0.9932172,-0.1003832,-0.2633154
0.9943134,-0.09785991,-0.2640653
0.99431,-0.09256463,-0.2634644
0.9949646,-0.09130522,-0.2566581
0.9951318,-0.09368556,-0.2530548
0.9962056,-0.09564586,-0.2547138
0.9967628,-0.09777246,-0.253611
0.9951876,-0.09567353,-0.2542327
0.9942923,-0.09211235,-0.2599327
0.9940696,-0.09387684,-0.2627148
0.9946878,-0.09709086,-0.2618992
0.994601,-0.1002019,-0.2597749
0.9940335,-0.1011986,-0.2593241
0.9948159,-0.1003727,-0.2621844
0.9945006,-0.1036245,-0.2628061
0.995179,-0.1050576,-0.262131
0.9964293,-0.1019535,-0.2599045
0.9958043,-0.09905788,-0.254415
0.9965081,-0.09617553,-0.2524556
0.9969104,-0.09675385,-0.2570964
0.9964206,-0.09800528,-0.262923
0.9973012,-0.09572545,-0.2625258
0.9970168,-0.09627439,-0.2611171
0.9943134,-0.09988744,-0.2617964
0.9925538,-0.1030977,-0.2587532
0.9947172,-0.1031421,-0.2586403
0.9964845,-0.09930116,-0.2582082
0.9939668,-0.09792735,-0.2541752
0.9920996,-0.09889753,-0.2574759
0.9933876,-0.09952812,-0.2607104
0.9941037,-0.1003767,-0.2592976
0.9934577,-0.1001032,-0.2600279
0.9930416,-0.1007856,-0.2601305
0.9931792,-0.102195,-0.2583776
0.9949484,-0.1031072,-0.255518
0.9965096,-0.1042749,-0.2546
0.9957991,-0.1022907,-0.2564481
0.9956051,-0.09846476,-0.2570822
0.9960156,-0.09733186,-0.2605866
0.9957802,-0.09792038,-0.2654334
0.9954512,-0.09757806,-0.2658638
0.9940781,-0.09531113,-0.2655401
0.9930428,-0.09361375,-0.2617842
0.995502,-0.09464032,-0.2552653
0.9981159,-0.09647534,-0.2561205
0.9955596,-0.09930495,-0.2590767
0.9931577,-0.1026701,-0.2590156
0.9946372,-0.1014364,-0.259743
0.9938533,-0.09858427,-0.2560159
0.9924828,-0.09873619,-0.2542579
0.9943399,-0.09839043,-0.2618532
0.9957575,-0.09891654,-0.2653226
0.9957999,-0.1007581,-0.2626032
0.9949961,-0.1011392,-0.2578955
0.994027,-0.1000754,-0.2542662
0.9944371,-0.09768618,-0.2602521
0.9948268,-0.09832408,-0.2650125
0.9949892,-0.09911161,-0.2628124
0.9954356,-0.09611789,-0.2641145
0.9950525,-0.09602251,-0.2662699
0.995161,-0.0985805,-0.2668063
0.9959089,-0.100543,-0.2662307
0.9950508,-0.09932777,-0.2620844
0.9943655,-0.09544268,-0.2558361
0.9958414,-0.09476976,-0.250531
0.996371,-0.09487994,-0.2504361
0.994524,-0.09673285,-0.2563453
0.99401,-0.100013,-0.261848
0.9942632,-0.09852325,-0.2603633
0.9916067,-0.09803253,-0.2572703
0.9894088,-0.09920032,-0.2561703
0.9906897,-0.09830694,-0.2519261
0.9935262,-0.09809266,-0.2537374
0.9960095,-0.09607541,-0.2606804
0.9962788,-0.09380797,-0.2599896
0.9952,-0.09603756,-0.2601994
0.994019,-0.09833506,-0.2620334
0.9926715,-0.09712914,-0.2600007
0.9929122,-0.09671168,-0.2586592
0.994345,-0.09773891,-0.2572774
0.9942653,-0.09703046,-0.2616674
0.9922134,-0.09707008,-0.2674236
0.9894011,-0.09755005,-0.2625693
0.9886103,-0.09692272,-0.2589177
0.9917754,-0.09735877,-0.260917
0.9941505,-0.09709793,-0.2592418
0.9929803,-0.09614502,-0.2558045
0.9926776,-0.09577285,-0.2531487
0.9933554,-0.09611193,-0.2530332
0.993182,-0.09893961,-0.2576217
0.9940159,-0.1022093,-0.2600398
0.995734,-0.104496,-0.2592568
0.996708,-0.1053856,-0.2618508
0.9976488,-0.1015069,-0.2644953
0.997226,-0.09516137,-0.2649488
0.9934016,-0.09390603,-0.2643876
0.9915264,-0.09702329,-0.2643629
0.9928463,-0.09795178,-0.2661642
0.994004,-0.09844818,-0.2630491
0.9974462,-0.0994915,-0.2602469
0.9982212,-0.09901071,-0.261118
0.9951886,-0.09988941,-0.2571915
0.9959528,-0.09873346,-0.2554314
0.9959142,-0.09652129,-0.2582847
0.9944122,-0.1000788,-0.2625397
0.9947212,-0.1024906,-0.2662263
0.9938407,-0.09990537,-0.2612617
0.9937284,-0.09764647,-0.2541953
0.9931812,-0.09665823,-0.2540763
0.9933648,-0.09664316,-0.258976
0.9953916,-0.09771651,-0.2613076
0.9940364,-0.1000016,-0.2540485
0.9932277,-0.1014193,-0.2486951
0.9933097,-0.1005765,-0.2576583
0.9926854,-0.1004756,-0.266624
0.9945423,-0.100569,-0.2620224
0.9957288,-0.09898756,-0.2581941
0.9966733,-0.09806147,-0.2579796
0.9968842,-0.09872346,-0.2524767
0.9952452,-0.09846881,-0.2544568
0.9957935,-0.09656704,-0.2618532
0.9957801,-0.09575493,-0.26192
0.9937721,-0.09747519,-0.2566624
0.9926474,-0.09940318,-0.2502849
0.9928253,-0.09878061,-0.2529541
0.9934258,-0.09839486,-0.2592604
0.9932664,-0.1008045,-0.2594314
0.9947119,-0.1019159,-0.2595932
0.9964648,-0.1004295,-0.2579627
0.9949305,-0.09686204,-0.258898
0.9938336,-0.09323314,-0.2638991
0.9947938,-0.09490336,-0.2658114
0.9956483,-0.09725701,-0.2665052
0.9968213,-0.09646273,-0.2617239
0.9976759,-0.09828394,-0.2594106
0.9971664,-0.1005899,-0.2631016
0.9966591,-0.1005192,-0.2602464
0.9956597,-0.1002873,-0.2603602
0.9939858,-0.09710678,-0.2615996
0.9950629,-0.09356058,-0.2581501
0.9964901,-0.09509604,-0.2600382
0.9947019,-0.09856785,-0.2592658
0.9941276,-0.1014725,-0.2573504
0.9955875,-0.1011896,-0.2601495
0.9958867,-0.09809205,-0.2606089
0.9948219,-0.09781693,-0.261587
0.9931288,-0.09641435,-0.2622153
0.9932674,-0.09320958,-0.2620869
0.9959123,-0.09450564,-0.2622137
0.9978259,-0.09599618,-0.2605265
0.9966236,-0.09559789,-0.2619986
0.9949747,-0.09606574,-0.2632479
0.9959985,-0.09596452,-0.26171
0.9963753,-0.09676522,-0.2608468
0.9962487,-0.09877245,-0.260463
0.9979549,-0.1006299,-0.2656503
0.9982354,-0.105558,-0.2702977
0.9980899,-0.1128508,-0.2609307
0.9973216,-0.1156064,-0.2485774
0.994561,-0.109583,-0.2501832
0.9938652,-0.09369069,-0.2607061
0.9937058,-0.08120284,-0.2706309
0.9949867,-0.09676281,-0.2734979
