accx,accy,accz
1.135169,0.0750044,0.08772965
1.150288,0.05912642,0.1501922
1.147845,-0.07638609,0.1308139
1.140863,-0.181832,0.04784315
1.102288,-0.2366434,-0.04586256
1.080624,-0.2967803,-0.1358697
1.130621,-0.4576044,-0.1456043
1.183834,-0.5934004,-0.06839702
1.240412,-0.5495526,0.04065315
1.289065,-0.4965648,0.122247
1.324485,-0.4527934,0.1558113
1.322707,-0.3271058,0.1588988
1.175433,-0.171291,0.09768989
0.9481221,0.02975983,0.04087415
0.8385637,0.06082983,0.06252213
0.7781086,-0.09778439,0.06197306
0.6284909,-0.143596,0.03854119
0.6116262,-0.2394541,0.0772215
0.7388317,-0.3565375,0.1296699
0.7415991,-0.3150033,0.1485196
0.7551171,-0.3120889,0.1748325
0.8143201,-0.2637956,0.2142454
0.8067044,-0.200792,0.2199259
0.8559931,-0.1936321,0.1872813
0.8751477,-0.07442737,0.1538065
0.8814643,-0.02910877,0.1599714
1.001066,-0.05992346,0.2037781
1.102258,-0.06426168,0.2343294
1.166724,-0.1042195,0.2382563
1.184841,-0.06719045,0.2614342
1.195275,-0.03713869,0.3039795
1.289571,-0.07971529,0.284647
1.341639,-0.1781242,0.2111668
1.307056,-0.3832581,0.1215193
1.236929,-0.5850269,-0.01904627
1.154785,-0.7066838,-0.09954581
1.066482,-0.6088181,-0.04727767
0.9774673,-0.3884247,-0.0150082
0.9322424,-0.3619821,-0.04165901
0.9282256,-0.349031,-0.02786672
0.9589951,-0.2810776,0.01362449
0.9451387,-0.3206277,0.01615955
0.8917835,-0.3142713,0.0002657127
0.8575487,-0.2839898,-0.01298735
0.7765821,-0.2891719,-0.01876408
0.7704316,-0.2379752,-0.009661178
0.8240169,-0.2118143,-0.01816766
0.8187924,-0.1908891,-0.01472042
0.8572017,-0.1432154,0.004789712
0.8994948,-0.1164145,0.01628748
0.9494542,-0.08638547,0.0519717
1.006424,-0.08863835,0.07360089
1.004105,-0.08757487,0.0869384
1.014176,-0.07200634,0.1149025
1.00182,-0.0842538,0.1214476
0.9916442,-0.08238775,0.1226789
1.007713,-0.103771,0.1092596
1.019758,-0.1366432,0.0949326
1.076098,-0.1171392,0.09787749
1.078181,-0.0291169,0.1039165
1.061519,0.07912266,0.1396056
1.112205,0.03988935,0.1534997
1.122061,-0.1109558,0.09818449
1.084744,-0.2283009,0.003885952
1.058433,-0.3296999,-0.07757091
1.135098,-0.4231331,-0.07844997
1.290743,-0.5183647,-0.03368039
1.373533,-0.5579669,0.03237376
1.404199,-0.506656,0.1370227
1.394909,-0.4253247,0.1720968
1.284417,-0.2454691,0.1019212
1.064317,-0.06582513,0.04799991
0.8196362,-0.04055792,0.04983617
0.6705431,-0.05324477,0.05131568
0.5779436,-0.06137152,0.05568183
0.5368891,-0.1000985,0.0931786
0.6263371,-0.199106,0.1466335
0.7857749,-0.2994294,0.1929524
0.88229,-0.2743393,0.2138895
0.8727931,-0.2256163,0.2225705
0.8673889,-0.1857309,0.2403805
0.8940903,-0.1038744,0.2325151
0.8884833,-0.04798541,0.1950058
0.9104598,-0.01596166,0.1755671
0.9773619,-0.03382022,0.185804
1.062102,-0.0689433,0.2138262
1.154521,-0.06358687,0.2722664
1.215956,-0.09433212,0.3537708
1.297177,-0.1601331,0.3728499
1.386256,-0.2658599,0.297407
1.371009,-0.4208646,0.1850644
1.295239,-0.6000331,0.0289336
1.219141,-0.7443979,-0.08865114
1.10828,-0.6085649,-0.04748119
1.017359,-0.3304034,-0.02258588
0.9849058,-0.2852164,-0.09797741
0.9694879,-0.2626466,-0.09181532
0.9598279,-0.2017967,-0.03090727
0.9107092,-0.2925439,0.005888684
0.8475584,-0.3302982,0.03617702
0.8043586,-0.3225025,0.03114197
0.7333805,-0.3348621,0.04188461
0.7169215,-0.2522691,0.04516713
0.7469607,-0.1705654,0.0004617426
0.7725085,-0.0969245,-0.007368818
0.8508351,-0.05704465,0.006589282
0.8891192,-0.07639993,0.03035401
0.8877996,-0.06424751,0.04853784
0.9088287,-0.08183138,0.04107127
0.9328385,-0.1095297,0.0820039
1.011713,-0.1357367,0.1306443
1.071936,-0.1609417,0.1409206
1.09896,-0.1435918,0.1321644
1.179812,-0.1609936,0.1153954
1.200655,-0.1131234,0.1092916
1.119063,0.02950707,0.09677847
1.086029,0.08724111,0.1219372
1.145574,0.0001405896,0.1573114
1.171266,-0.1599282,0.1240088
1.093057,-0.2432754,0.04146722
1.026611,-0.3080697,-0.07832998
1.083137,-0.43083,-0.1134753
1.181584,-0.4984992,-0.024384
1.268844,-0.5304628,0.05188775
1.385841,-0.5186549,0.1249417
1.418981,-0.4173907,0.1635143
1.319678,-0.2790804,0.09797156
1.125372,-0.1195342,0.04510977
0.8330109,0.003821919,0.05039394
0.648977,-0.001808229,0.05206401
0.6014422,-0.09939682,0.06819758
0.5359977,-0.1643058,0.1032921
0.6205344,-0.227653,0.1196207
0.8043196,-0.3050385,0.1451889
0.827556,-0.2855477,0.1820485
0.804615,-0.2400518,0.1860707
0.8108127,-0.2014855,0.2034975
0.7996874,-0.1294348,0.2323656
0.8338662,-0.07574492,0.2164631
0.9022292,-0.03359336,0.2109802
1.01398,-0.05193036,0.2045629
1.125115,-0.1065928,0.1516349
1.144827,-0.1100659,0.1550197
1.242646,-0.09939414,0.2934385
1.466861,-0.07649123,0.4117404
1.522132,-0.111223,0.2710111
1.348759,-0.2761971,0.06050185
1.212156,-0.5449807,0.0429439
1.214643,-0.806518,-0.005720517
1.209733,-0.814288,-0.07392545
1.056632,-0.5797889,-0.02092496
0.8618155,-0.3358991,-0.0546073
0.8471713,-0.2210273,-0.08966937
0.9141739,-0.2450525,-0.03723196
0.9068837,-0.2569029,-0.03594757
0.9176899,-0.2762048,-0.01376209
0.903892,-0.3449497,0.0308121
0.8149651,-0.3371406,0.06138606
0.7768037,-0.3035062,0.05784574
0.7746253,-0.2517934,-0.00385312
0.7909243,-0.1502997,-0.009456477
0.8411858,-0.08541573,-0.001542763
0.8447666,-0.07695898,-0.005445819
0.8576175,-0.1012155,0.02368855
0.9066381,-0.09652431,0.0181292
0.9358686,-0.09400126,0.04324336
0.9866317,-0.1070191,0.09529441
1.011742,-0.08188939,0.0870822
1.019095,-0.09632579,0.05564802
1.069378,-0.1075651,0.03467088
1.078212,-0.08453645,0.05634776
1.070516,-0.07235231,0.09563242
1.08183,-0.01118161,0.1325732
1.073818,-0.02242079,0.1760028
1.129771,-0.2201771,0.1572321
1.182377,-0.4020851,0.07495993
1.075614,-0.3567287,-0.04354106
0.9872185,-0.2882535,-0.1415921
1.099178,-0.4085093,-0.1061382
1.241206,-0.484232,-0.05036245
1.274058,-0.5036967,-0.0614225
1.299751,-0.5083593,0.0190852
1.362465,-0.3573334,0.1306176
1.365149,-0.2537623,0.1327024
1.250454,-0.1852788,0.08483744
1.040616,-0.03984454,0.04420842
0.8005436,-0.0146265,0.06080451
0.63327,-0.07994696,0.07590087
0.6042215,-0.1403945,0.05599876
0.6452459,-0.2221907,0.09174384
0.6748733,-0.3305361,0.1317864
0.7297823,-0.3815694,0.1613298
0.807874,-0.3452267,0.1949932
0.8409066,-0.318519,0.1976721
0.852084,-0.2420847,0.2003902
0.8659495,-0.1357585,0.1873626
0.8777919,-0.06724239,0.1847906
0.958182,-0.0246724,0.1978876
1.086389,-0.06694698,0.1920925
1.13955,-0.07163357,0.214041
1.134253,0.03044955,0.2528948
1.193211,0.1416604,0.3121444
1.303568,0.1708523,0.3259506
1.294792,0.006937237,0.1888968
1.222441,-0.2821012,0.03777127
1.235578,-0.6078846,-0.02587687
1.224389,-0.8509474,-0.06012315
1.1749,-0.8097648,-0.05626394
1.059488,-0.5990405,-0.02325316
0.8736476,-0.4117339,-0.03284276
0.8756324,-0.2890874,-0.03144711
0.9445393,-0.2810677,0.02895259
0.9183995,-0.3137868,0.04996922
0.9530637,-0.3133922,0.04606549
0.9083813,-0.3208744,0.04949075
0.7880583,-0.3204722,0.03054348
0.8050094,-0.2988688,0.02524533
0.8284846,-0.2110812,-0.00150663
0.8209159,-0.07829835,-0.03514912
0.8557976,-0.06550637,-0.0300875
0.8606832,-0.1017669,-0.02188073
0.8862355,-0.07028366,-0.001881313
0.9381297,-0.07133581,0.01456867
0.9454868,-0.08242377,0.03406202
0.9878147,-0.04494455,0.08804987
1.042679,-0.02744193,0.1325323
1.047156,-0.03415184,0.1145634
1.080341,-0.03817816,0.08058964
1.106735,-0.05792956,0.1000478
1.079851,-0.07641445,0.1058099
1.066857,-0.0526718,0.1231704
1.051268,-0.03069645,0.1989614
1.06412,-0.09937002,0.2062193
1.12524,-0.2091605,0.116885
1.11543,-0.2455209,-0.00684725
1.054968,-0.2338961,-0.08599764
1.030841,-0.2858957,-0.1167341
1.102689,-0.4300403,-0.1336064
1.261264,-0.5448348,-0.04704193
1.357622,-0.5429178,0.07762832
1.423434,-0.4612356,0.1393326
1.457811,-0.3094799,0.1489496
1.320711,-0.1294189,0.1012674
1.113583,-0.01873945,0.08070363
0.8788002,-0.0116903,0.07927096
0.6218289,-0.04335396,0.06134035
0.5454299,-0.07077314,0.07597562
0.6102442,-0.1821493,0.104818
0.6244957,-0.3116295,0.1496477
0.6685648,-0.3134313,0.1706123
0.7765124,-0.2939431,0.1815874
0.8238898,-0.2826703,0.2193666
0.8642117,-0.2015329,0.2067053
0.8985595,-0.1285742,0.2085756
0.9101458,-0.06780127,0.2424888
0.9906161,-0.006468973,0.2361158
1.031101,-0.03609141,0.2393961
1.051336,-0.09760592,0.2387519
1.115298,-0.1067907,0.251911
1.155441,-0.06872253,0.3351339
1.310021,-0.01981093,0.3881999
1.435952,-0.09842036,0.2918584
1.349606,-0.2738937,0.1383704
1.289249,-0.4593872,0.09052578
1.230891,-0.6387008,0.05703314
1.059838,-0.5860233,0.02224546
0.929282,-0.4134499,0.04264431
0.8994582,-0.3588037,-0.03060627
0.9334735,-0.2552224,-0.0865242
0.9692203,-0.236878,-0.05260146
0.9543046,-0.3415091,-0.04044748
0.927221,-0.3565664,0.0354039
0.874497,-0.4089968,0.06884709
0.7885308,-0.4056449,0.05138383
0.7816617,-0.3178746,0.06663543
0.8223933,-0.2718589,-5.170388e-05
0.8291695,-0.142735,-0.003959265
0.8667893,-0.04940701,0.0229332
0.8974341,-0.00798117,-0.02312953
0.8946046,0.02153113,0.00878651
0.912083,-0.05651736,0.02906069
0.9165311,-0.07942646,0.04115816
0.9373469,-0.08875756,0.08871111
1.004357,-0.1055964,0.09244624
1.065194,-0.07170092,0.1059996
1.096612,-0.1333863,0.09434544
1.100516,-0.165016,0.08845974
1.102157,-0.1038648,0.1130976
1.114364,0.02048969,0.1302425
1.159224,0.1108659,0.2192254
1.258039,-0.1931293,0.2642811
1.307774,-0.5233286,0.1683221
1.18604,-0.3340171,-0.01187624
1.033714,-0.1644296,-0.1786482
1.060814,-0.3239325,-0.1543157
1.112197,-0.3926601,-0.07174539
1.133219,-0.4702861,-0.03658739
1.299508,-0.5573452,0.1138881
1.386356,-0.3880278,0.1880122
1.293029,-0.2551248,0.1036399
1.199423,-0.1451473,0.1069348
0.9926195,-0.008698451,0.1035898
0.7320457,-0.05662809,0.0665802
0.6092803,-0.06790839,0.1067508
0.5816515,-0.1202984,0.1113835
0.634236,-0.2545718,0.1325113
0.697288,-0.2682007,0.1775449
0.7160947,-0.2833181,0.1792807
0.7402996,-0.2406784,0.229501
0.7534764,-0.1681639,0.245592
0.7746434,-0.11808,0.2060454
0.8153841,-0.01042122,0.1917296
0.8794443,0.01059847,0.1785563
1.026338,-0.04510087,0.1836234
1.173894,-0.1066893,0.1871176
1.24069,-0.1087574,0.255073
1.366713,-0.02918121,0.4369116
1.535896,-0.01333427,0.5098037
1.50241,-0.09545628,0.3171474
1.374891,-0.3025615,0.0891697
1.30303,-0.5791736,0.06987506
1.127697,-0.7468822,0.05520174
0.9918037,-0.6609546,-0.01132602
0.9300938,-0.4621009,0.004493084
0.8476168,-0.4227697,-0.06413061
0.944649,-0.3483493,-0.08477714
0.9715941,-0.2704075,0.003939695
0.8947204,-0.3384171,-0.01994527
0.9528092,-0.3038542,0.01028552
0.8752661,-0.3042433,0.0511732
0.7851304,-0.33134,0.02628813
0.7747393,-0.2365576,0.06241125
0.7480224,-0.1890034,0.02908359
0.8331847,-0.1114742,0.01100891
0.8446735,-0.07067358,0.03210723
0.8603911,-0.08728019,0.006761613
0.9193742,-0.05180095,0.04258599
0.8853417,-0.09047998,0.06173566
0.9396016,-0.1060663,0.09392492
0.9970404,-0.1001434,0.1289332
1.05774,-0.1510292,0.0946499
1.111338,-0.1860079,0.1191858
1.054993,-0.1888913,0.1261017
1.076408,-0.03874493,0.126715
1.09893,0.08072568,0.1749038
1.144749,-0.1196251,0.1684845
1.24773,-0.3783981,0.1322385
1.174909,-0.3932508,0.02022713
1.098822,-0.3205325,-0.1118055
1.12907,-0.3524235,-0.130724
1.137846,-0.4037604,-0.07839525
1.212299,-0.4836508,0.02298787
1.358331,-0.543014,0.1195727
1.423876,-0.4277316,0.1535099
1.374543,-0.2667102,0.1233707
1.264942,-0.1301567,0.095134
1.04471,-0.05244168,0.107013
0.7626056,-0.09234961,0.07637487
0.6070158,-0.1083227,0.06176454
0.5859657,-0.1362265,0.08504642
0.6414194,-0.2471447,0.08539734
0.696804,-0.285431,0.122913
0.6912092,-0.2533706,0.1628078
0.723876,-0.2540729,0.1827045
0.7699145,-0.2338105,0.2069466
0.7601616,-0.1663116,0.2123351
0.7942967,-0.09255002,0.2125882
0.9063228,-0.0400821,0.2020852
1.077867,-0.06339623,0.2224306
1.234972,-0.1107318,0.247395
1.280106,-0.1255366,0.2019657
1.282587,-0.1138285,0.2073065
1.295555,0.004347449,0.3560767
1.308704,0.09211631,0.481292
1.303633,-0.1087006,0.3369182
1.232307,-0.5078813,0.06734042
1.145005,-0.8553591,-0.02971818
1.083001,-0.9392423,-0.05402302
0.9999707,-0.6435002,-0.06262727
0.901718,-0.3165779,-0.06053625
0.8987402,-0.3543575,-0.1156416
0.9666292,-0.4164644,-0.0548532
0.9429465,-0.3068828,0.04669449
0.9339129,-0.3495304,0.03674874
0.9483718,-0.4030772,0.04402782
0.8371807,-0.3728437,0.05651631
0.7670054,-0.3978258,0.06414833
0.7753652,-0.3175399,0.05358256
0.7750649,-0.1959349,-0.008012129
0.8132538,-0.1180236,-0.02172467
0.871099,-0.03729639,-0.006252079
0.9011753,-0.03117946,0.01574883
0.8758591,-0.03199697,0.04053371
0.8804792,-0.03199671,0.04590766
0.9020739,-0.04470681,0.07166068
0.9037257,-0.05098723,0.09205232
0.9844147,-0.1198886,0.1146865
1.042511,-0.176231,0.1276368
1.062639,-0.1869613,0.1153456
1.090917,-0.1363738,0.14487
1.073777,0.0220443,0.1817566
1.109673,0.1081702,0.1991958
1.201816,-0.06866192,0.2012322
1.253008,-0.3177927,0.1537145
1.176176,-0.3111408,0.03364595
1.052187,-0.2758212,-0.1260785
1.065099,-0.3844879,-0.1582613
1.076639,-0.3969437,-0.0636988
1.066433,-0.4630044,0.009306466
1.203941,-0.5481903,0.09428034
1.383503,-0.4464401,0.1526639
1.434716,-0.3442745,0.1168075
1.312799,-0.1965864,0.08798303
1.126112,-0.03384786,0.07525878
0.9183463,-0.01888164,0.05416708
0.6740249,-0.03111363,0.05198405
0.5910035,-0.0813205,0.04461107
0.6660439,-0.1963314,0.07562651
0.6996769,-0.2861346,0.1390155
0.7219265,-0.3072886,0.1509403
0.754915,-0.2820341,0.1745037
0.7475931,-0.2631731,0.2200459
0.750372,-0.2003516,0.2151113
0.8000325,-0.1285206,0.2086163
0.8739429,-0.1015492,0.2169361
0.9781616,-0.06169631,0.2110836
1.098603,-0.0580152,0.1990683
1.17287,-0.112751,0.1715587
1.210875,-0.1512462,0.1669408
1.339265,-0.134258,0.2403633
1.58109,-0.1191707,0.2999052
1.625103,-0.2223578,0.1981388
1.325457,-0.460812,0.03271841
1.079805,-0.7274103,0.002641343
1.099892,-0.7827382,0.04874442
1.086284,-0.5896137,0.04250264
0.9145279,-0.4228363,-0.02303667
0.859919,-0.329326,-0.09100753
0.9288107,-0.2940684,-0.074565
0.913976,-0.3603251,-0.01006487
0.924921,-0.3901777,0.02959079
0.940457,-0.3805493,0.04836075
0.8727608,-0.3446255,0.03393706
0.8400955,-0.248457,0.02345879
0.799192,-0.2026745,0.02472143
0.7716232,-0.1816436,0.009349598
0.7991398,-0.1354858,0.0192621
0.8124855,-0.1134713,0.0299274
0.8484177,-0.1109352,0.0331671
0.892162,-0.1154801,0.05815893
0.9372792,-0.116508,0.06614835
0.9726237,-0.120201,0.07626619
0.9835115,-0.1125063,0.1031401
1.039277,-0.09916772,0.1273538
1.093871,-0.1165127,0.1408877
1.094925,-0.1066059,0.1154494
1.05239,-0.003595389,0.1046222
1.024582,0.1564672,0.1537634
1.099364,0.1560852,0.201452
1.185305,-0.1647409,0.184983
1.181951,-0.4653017,0.1076895
1.151073,-0.4000938,0.03709911
1.122834,-0.3096732,-0.01902385
1.083108,-0.439928,-0.09177564
1.121089,-0.469413,-0.1102386
1.247089,-0.4650272,-0.02844038
1.334213,-0.5501391,0.06966803
1.373822,-0.4535666,0.1410417
1.355356,-0.287907,0.1705468
1.246721,-0.1424062,0.1235136
1.075731,-0.008175605,0.0907117
0.8446683,-0.04670539,0.08841061
0.6592249,-0.08920712,0.06574565
0.608679,-0.1315157,0.08954628
0.6519539,-0.2597589,0.1281086
0.6976634,-0.3180017,0.1466252
0.7218515,-0.3354935,0.156276
0.8018746,-0.2926854,0.1555354
0.826618,-0.2083539,0.1963575
0.7900069,-0.1639383,0.2115748
0.8307579,-0.0971641,0.1934583
0.8547546,-0.04591082,0.209257
0.9184764,-0.0250601,0.2085608
1.04279,-0.03987675,0.2058694
1.103091,-0.09962211,0.1900003
1.170052,-0.1249679,0.181997
1.247773,-0.09893115,0.3012195
1.388292,-0.06947838,0.3985536
1.507807,-0.1416602,0.2504584
1.370457,-0.3011619,0.04167451
1.22063,-0.5085756,0.03094815
1.181805,-0.7092815,0.06529709
1.0491,-0.6265821,0.02106478
0.9338151,-0.4342583,0.0006240106
0.9162391,-0.4370943,-0.02970144
0.9174667,-0.3733977,-0.04427118
0.9355209,-0.280313,-0.02123725
0.9266115,-0.3257496,-0.03200739
0.9067552,-0.3454852,-0.01048803
0.8720183,-0.3745213,0.01517249
0.7909067,-0.4023303,0.03694597
0.7887066,-0.3576709,0.09177841
0.8320698,-0.2972134,0.05704045
0.8207063,-0.1885059,0.006956889
0.8383658,-0.06848348,0.02128325
0.8722706,-0.003558897,-0.0001496725
0.8933488,-0.003313511,0.00205791
0.9073179,-0.05036698,0.04472647
0.8926882,-0.09318038,0.05434716
0.9116231,-0.1191234,0.06218282
0.9664907,-0.1207211,0.07462593
1.044498,-0.1429911,0.08429204
1.120362,-0.1723475,0.1012172
1.117304,-0.1576524,0.1145261
1.110963,-0.1398456,0.1170771
1.134255,-0.0662573,0.1118548
1.121153,0.04999319,0.1284585
1.125397,0.05240727,0.1468731
1.186172,-0.09249795,0.1320739
1.225688,-0.2568307,0.09695506
1.155792,-0.2988496,0.01020337
1.066329,-0.2813512,-0.08616501
1.091625,-0.3127849,-0.09318712
1.127614,-0.3677408,-0.05999949
1.144642,-0.4699278,-0.02164799
1.232177,-0.5402486,0.0699473
1.278832,-0.4229468,0.1361905
1.246689,-0.2531561,0.1074419
1.188655,-0.1740392,0.0825369
1.041082,-0.1423878,0.08295023
0.8515461,-0.1663578,0.07505386
0.7146341,-0.1993241,0.1042496
0.6755905,-0.2210258,0.1267229
0.7495363,-0.2825564,0.1157096
0.7996616,-0.3008946,0.1192872
0.7764561,-0.2816075,0.1252265
0.7708987,-0.2851949,0.137633
0.7713428,-0.2611154,0.1601276
0.7751761,-0.2209514,0.1789923
0.8221491,-0.1781797,0.1848063
0.8980622,-0.1307725,0.1776356
0.9895203,-0.09765457,0.190004
1.073229,-0.06040308,0.1975048
1.100528,-0.04748028,0.1852797
1.088267,-0.08248487,0.1731865
1.098567,-0.1104592,0.1711133
1.146801,-0.1259672,0.2404913
1.278271,-0.1750639,0.3167895
1.425369,-0.227612,0.2643355
1.380773,-0.2624352,0.1650479
1.267921,-0.3434643,0.1244188
1.188014,-0.5268799,0.1028087
0.9996838,-0.6818217,0.06378568
0.9246242,-0.5033733,-0.009433063
0.9579817,-0.2323542,-0.07806896
0.9051049,-0.2947377,-0.05980473
0.9708172,-0.3076129,-0.01454535
0.9684072,-0.2394813,-0.004552739
0.8716396,-0.3915945,0.02233356
0.931358,-0.3937429,0.04563951
0.8671283,-0.3664458,0.05618848
0.7999651,-0.4306294,0.06453077
0.8502728,-0.2862809,0.01668393
0.8143542,-0.2195044,-0.02321317
0.8511363,-0.1621474,-0.006056749
0.8758845,-0.002333093,-0.006763801
0.8684395,-0.00831134,-0.009888218
0.9047983,0.003074497,0.01776254
0.8712545,0.003983821,0.05034533
0.908098,-0.07458744,0.07684647
0.9859783,-0.1267226,0.1041327
1.053763,-0.1979592,0.1270104
1.135924,-0.1865679,0.117134
1.147002,-0.1688575,0.1043323
1.147636,-0.1393335,0.111151
1.120124,0.0007457794,0.1359749
1.138368,0.01777962,0.1929058
1.207325,-0.146798,0.1944995
1.173297,-0.3226926,0.1000619
1.112259,-0.3584284,-0.01533088
1.034531,-0.3644531,-0.08628956
1.047908,-0.4908651,-0.0713941
1.20043,-0.5298987,-0.01339614
1.295019,-0.4910087,0.05157002
1.350981,-0.471605,0.1039852
1.339498,-0.347423,0.1105981
1.262816,-0.1923408,0.1040096
1.143958,-0.08115729,0.0849606
0.9060137,-0.0249333,0.07171571
0.7139313,-0.05461923,0.07289039
0.6122434,-0.1027745,0.05654343
0.5950082,-0.187879,0.08336568
0.6857984,-0.2928441,0.1302706
0.7547099,-0.3337999,0.1452105
0.8301343,-0.3346959,0.161169
0.8641044,-0.2971127,0.1804542
0.8385373,-0.2402402,0.2114284
0.8562673,-0.1894661,0.2117972
0.8481168,-0.1236383,0.1920934
0.8613104,-0.08630072,0.2062915
0.9444728,-0.07003393,0.2055098
1.030301,-0.05675269,0.1925031
1.056014,-0.1228037,0.1360994
1.026441,-0.1857979,0.09194749
1.117224,-0.1095032,0.2598233
1.3366,-0.04474864,0.4307783
1.507328,-0.118898,0.3104738
1.464673,-0.2380502,0.1351638
1.26911,-0.4349108,0.04497319
1.168405,-0.6333223,-0.06394714
1.047753,-0.5811559,0.007140191
0.8902852,-0.4639878,0.1313804
0.9089212,-0.3875149,-0.007865715
0.9381311,-0.1872001,-0.07846181
0.9161912,-0.187393,-0.01765783
0.9566652,-0.3148409,-0.05992345
0.9725539,-0.2395838,-0.04103017
0.9389031,-0.3404141,0.01129203
0.8928998,-0.4694683,0.03787251
0.8048356,-0.389059,0.08623322
0.750191,-0.3898009,0.06118437
0.7876367,-0.2817729,0.01755107
0.8134367,-0.1458065,-0.007915792
0.8654632,-0.1374793,-0.01807936
0.9398229,-0.05599825,0.01854599
0.9295199,-0.03838551,0.04485129
0.9371897,-0.03294603,0.06116988
0.9518659,-0.009484953,0.06422985
0.9519205,-0.05083624,0.06776442
1.00699,-0.06540177,0.1022345
1.037467,-0.1580412,0.1056755
1.045716,-0.2446041,0.09631054
1.047846,-0.2250302,0.09910293
1.046977,-0.1283949,0.08564828
1.082395,0.0431115,0.1050661
1.137954,0.03092082,0.1403093
1.211682,-0.1799612,0.1268988
1.203436,-0.3204612,0.06716745
1.110491,-0.3034883,-0.03621128
1.056455,-0.2773571,-0.1141568
1.029752,-0.3936604,-0.1060095
1.069226,-0.4904369,-0.0499638
1.169263,-0.5337791,0.04462008
1.259738,-0.5675536,0.1251716
1.3606,-0.4505965,0.1328802
1.396069,-0.2645111,0.1290849
1.308292,-0.07376338,0.1168189
1.128138,0.06568122,0.07556753
0.8930453,0.05604987,0.0628918
0.6884027,0.02534516,0.06061258
0.6015742,-0.04080496,0.06544733
0.6536481,-0.1801893,0.1228089
0.7239951,-0.2954335,0.1695204
0.780525,-0.3512583,0.1798404
0.8424744,-0.3233765,0.1918838
0.8203607,-0.2620341,0.2031497
0.8060501,-0.1611933,0.2184145
0.8223523,-0.03709035,0.2112133
0.8271201,0.02722323,0.1864206
0.9147373,0.08122924,0.1705042
0.9992411,0.07201061,0.1470373
1.058683,-0.06085665,0.1581106
1.157502,-0.1723115,0.2395416
1.31241,-0.1485651,0.376983
1.543417,-0.1313319,0.4353691
1.610952,-0.2836811,0.2710276
1.414193,-0.4291971,0.1019635
1.210492,-0.4924663,0.1032969
1.133342,-0.62518,0.06895978
1.061102,-0.6811324,-0.02366568
0.904301,-0.4547789,-0.03437867
0.8295257,-0.1842022,-0.0628421
0.8738765,-0.218798,-0.112413
0.9092553,-0.3360611,-0.0461085
0.9498249,-0.3118724,0.03972878
0.9591524,-0.363666,0.05895592
0.9302541,-0.3897751,0.07683116
0.8837501,-0.3212526,0.08067416
0.7875632,-0.287129,0.05409838
0.7518439,-0.1918606,0.01915684
0.7892667,-0.13014,-0.01515884
0.797724,-0.1093499,-0.01060446
0.8286083,-0.03930711,0.01357097
0.8890259,-0.03005425,0.006575524
0.9111489,-0.03568447,0.02161034
0.9193315,-0.04779548,0.06702346
0.935067,-0.07739662,0.09314697
0.9907254,-0.09347717,0.1119464
1.078687,-0.1717453,0.1042128
1.092975,-0.2566093,0.09240278
1.089147,-0.2505676,0.1023013
1.123083,-0.1167865,0.1105581
1.111531,0.01329958,0.1638595
1.127998,-0.06527699,0.2045547
1.197514,-0.2515778,0.1471885
1.197095,-0.3592393,0.04525465
1.112727,-0.3077962,-0.05741065
1.032028,-0.2402257,-0.1130485
1.062843,-0.3840727,-0.113519
1.122261,-0.5158163,-0.112906
1.152751,-0.5031397,-0.05327925
1.300246,-0.5429809,0.08880965
1.400592,-0.4547564,0.1493535
1.331524,-0.1824329,0.1213396
1.2813,-0.02179395,0.1188855
1.120154,0.04970407,0.08944699
0.795542,0.07571812,0.07238336
0.6018783,0.01151154,0.09431227
0.5730008,-0.05548784,0.08299964
0.5842814,-0.143369,0.1097888
0.6325287,-0.2252338,0.1392259
0.7026082,-0.2344262,0.1300384
0.7560989,-0.2214518,0.1715348
0.8041675,-0.1851898,0.2146984
0.8146726,-0.1406937,0.2014835
0.7983321,-0.09101567,0.1765845
0.8740692,-0.01279769,0.1719327
0.9497092,0.006914802,0.1608893
0.9889998,-0.04496456,0.1503937
1.153724,-0.1199554,0.1467618
1.275774,-0.1860908,0.1149984
1.286235,-0.1129901,0.1227202
1.439247,0.005021446,0.1439871
1.571422,-0.09152691,0.1148828
1.411269,-0.3399552,0.09230463
1.193003,-0.648549,0.0392941
1.10977,-0.8700313,-0.009121427
1.050202,-0.7729872,-0.01019205
0.9817981,-0.5593233,-0.04566667
0.90419,-0.3576083,-0.100887
0.8843576,-0.2384091,-0.1411467
0.9368755,-0.3330081,-0.08538603
0.9110771,-0.337336,0.03115959
0.9056983,-0.3441003,0.02457787
0.9150171,-0.4628889,0.002341313
0.8205544,-0.3956912,0.03110154
0.7754976,-0.3456882,0.00223403
0.7571842,-0.2918508,-0.007926352
0.7440355,-0.1433232,-0.004322676
0.7784678,-0.1095285,-0.02417885
0.7963527,-0.05771231,-0.008725332
0.8539061,-0.04602747,0.00201634
0.9090837,-0.1002691,0.01793615
0.9356414,-0.09761208,0.05245902
0.9611145,-0.1316752,0.07052883
0.9802961,-0.1470563,0.08928232
1.059086,-0.1651476,0.08630474
1.115125,-0.1870673,0.0780215
1.139559,-0.1387833,0.1004805
1.154644,-0.05863468,0.1380028
1.117619,0.04028618,0.1883803
1.148249,-0.04155137,0.1957021
1.191252,-0.2477259,0.1239925
1.170978,-0.2881602,0.02236982
1.088026,-0.2758426,-0.0727502
0.9590649,-0.3391711,-0.1380725
1.038029,-0.4730747,-0.1415452
1.227891,-0.5853005,-0.05721201
1.299523,-0.5776974,0.0376306
1.341801,-0.5378289,0.04672929
1.306404,-0.3761634,0.06674434
1.243926,-0.09907132,0.1359185
1.134753,0.02558977,0.121604
0.8796532,0.02771819,0.06793932
0.7219908,0.02580124,0.05982207
0.636702,-0.02225138,0.03909514
0.5645863,-0.1175982,0.04918365
0.6286528,-0.2273365,0.09396882
0.6751335,-0.3275005,0.1104275
0.7281364,-0.366361,0.1764728
0.8313364,-0.3327976,0.2377673
0.8519891,-0.2894046,0.2170865
0.8582512,-0.2061393,0.2135189
0.8764171,-0.08036208,0.2116481
0.9137333,-0.03315395,0.1966247
1.02641,-0.04291762,0.2124837
1.142837,-0.02655064,0.2206231
1.16017,-0.01760233,0.226822
1.104214,-0.02826881,0.2593034
1.106349,-0.008890781,0.3197088
1.139756,-0.004836435,0.3518059
1.231903,-0.1172689,0.2691107
1.388465,-0.2924594,0.1143477
1.344662,-0.428318,0.008648304
1.239732,-0.6177228,-0.001214935
1.206599,-0.8278065,-0.009138642
1.021253,-0.675092,-0.04627896
0.9162666,-0.3489468,-0.047283
0.9720364,-0.3519874,-0.08222152
0.9413781,-0.3383188,-0.103356
0.9267853,-0.2770778,-0.0432977
0.9281632,-0.4419833,-0.0236164
0.8635356,-0.4406399,0.008549704
0.7890031,-0.397155,0.0381461
0.7340934,-0.4301768,-0.003285943
0.7627937,-0.3026245,-0.005385023
0.8162944,-0.2454694,-0.02083628
0.8458575,-0.1706444,-0.03200046
0.894404,-0.06287199,0.00237241
0.9252128,-0.06422813,0.001994343
0.9676446,-0.02312447,0.03901736
1.00011,-0.06253199,0.06973289
0.9823162,-0.1192299,0.06681658
1.003772,-0.1264799,0.0935751
1.031642,-0.1785955,0.07964166
1.037371,-0.1696532,0.074097
1.061635,-0.1852878,0.1022668
1.051293,-0.1794483,0.1071509
1.019893,-0.04572161,0.1142233
0.9996539,0.08330151,0.131777
1.023098,0.05250476,0.1650005
1.117285,-0.2203893,0.164302
1.160568,-0.4293487,0.1063574
1.117663,-0.3612913,0.01887377
1.09037,-0.3038556,-0.09055495
1.131845,-0.3981859,-0.1128493
1.203972,-0.4772376,-0.04900649
1.257037,-0.5110432,0.0183876
1.317441,-0.5313215,0.1241427
1.329668,-0.4548788,0.1688861
1.26113,-0.3209483,0.1137366
1.146953,-0.1127441,0.08586638
0.9836826,0.02235615,0.05801196
0.8677883,-0.07789224,0.04502764
0.7607557,-0.0779078,0.07315288
0.6405569,-0.08631163,0.06104535
0.6668846,-0.2585257,0.08513688
0.7388435,-0.3227186,0.150681
0.7904812,-0.3903501,0.1629589
0.8600756,-0.409423,0.1748466
0.8583325,-0.3345476,0.1922628
0.8733671,-0.2810269,0.1990819
0.9157637,-0.1621946,0.2026504
0.9055858,-0.1103631,0.1926679
0.9329372,-0.0551042,0.1957662
0.9772986,0.04416215,0.1896718
1.016329,0.01090832,0.1812931
1.067463,-0.007743096,0.1726583
1.078684,-0.004054009,0.1650176
1.122313,-0.009952661,0.2598486
1.267794,0.009791516,0.3416294
1.430748,-0.08663802,0.2074136
1.477679,-0.3070709,0.02822497
1.397437,-0.57186,0.03654491
1.251183,-0.7010125,0.127186
1.090095,-0.6238928,0.1569647
1.103987,-0.6063614,0.1501136
1.172412,-0.6244832,0.1079527
1.009415,-0.4656617,0.00606818
0.9013504,-0.3369438,-0.09929554
0.9251896,-0.4258865,-0.05225314
0.8445271,-0.5137124,0.06524349
0.8037608,-0.4717887,0.03866616
0.8226693,-0.4227521,0.0444268
0.8302401,-0.3439761,0.06748949
0.8413287,-0.1979394,-0.02903269
0.8406719,-0.09485071,-0.03387708
0.8757206,-0.02207105,-0.02982324
0.8824608,0.008446327,-0.06139131
0.9226623,-0.04281307,-0.01036038
1.017259,-0.06917848,0.01183858
1.01574,-0.08186104,0.03904318
1.002161,-0.1063799,0.05443613
1.012278,-0.1135481,0.0616432
1.009099,-0.1299072,0.1142864
1.010371,-0.1183842,0.08903251
1.004854,-0.1117472,0.07595471
1.011725,-0.1218591,0.0933095
1.008315,-0.1001258,0.05736076
1.010353,-0.08322187,0.0641377
1.022788,-0.08262944,0.1087568
1.043143,-0.1842524,0.1667248
1.094139,-0.3317729,0.1736276
1.10422,-0.3152842,0.07864452
1.095726,-0.2845777,-0.0377248
1.13987,-0.3803545,-0.1329855
1.204676,-0.4573396,-0.1259934
1.231351,-0.484771,-0.0334527
1.203564,-0.4817848,0.06324449
1.192954,-0.4153576,0.1410418
1.200047,-0.2937348,0.09985604
1.157434,-0.1687245,0.04563307
1.074934,-0.1444478,0.07783442
0.9702999,-0.1980602,0.06154624
0.8459489,-0.2258319,0.054631
0.7347915,-0.2632173,0.07768901
0.7038443,-0.3206825,0.06635522
0.7536457,-0.368872,0.09796272
0.805404,-0.3945049,0.121554
0.8477484,-0.3448049,0.1165456
0.8929993,-0.270266,0.1423052
0.9380463,-0.2203369,0.1525466
0.9857825,-0.1636391,0.1482742
0.9868015,-0.1221175,0.1473868
0.9584646,-0.08762851,0.1511684
0.9532338,-0.04994134,0.1570097
0.6952983,-0.2926177,0.116806
0.7900882,-0.3572459,0.1772877
0.8025441,-0.3643854,0.1803775
0.8854188,-0.2904809,0.2038628
0.8984887,-0.1890932,0.2076956
0.8628362,-0.1248074,0.2160296
0.8777524,-0.07526814,0.237858
0.8744428,-0.0211367,0.2178644
0.9054491,-0.003861386,0.224693
0.9274895,-0.01518861,0.2301559
0.9549142,-0.03445976,0.2436463
1.05148,-0.06955719,0.2797179
1.123054,-0.1204833,0.3003184
1.156819,-0.1313852,0.3654289
1.217813,-0.124434,0.4021944
1.404322,-0.2196841,0.3125107
1.512776,-0.3440779,0.1979335
1.333572,-0.4313113,0.119973
1.181407,-0.5903181,-0.01831218
1.147295,-0.7115863,-0.1257013
1.034797,-0.548244,-0.04904432
0.9043981,-0.3058946,-0.01310372
0.8898513,-0.3028709,-0.07753117
0.95778,-0.3169913,-0.05499214
0.9666701,-0.2763195,-0.02191366
0.9325044,-0.3377255,0.002422623
0.8892564,-0.3394278,0.03393857
0.8145279,-0.3129339,0.02131194
0.7814815,-0.3056407,0.02745059
0.783641,-0.2248861,0.00982568
0.8091438,-0.1638177,-0.02665153
0.8597143,-0.09922642,-0.01273145
0.8836162,-0.0575379,-0.009538202
0.8958032,-0.07723813,0.005090542
0.9060118,-0.06712404,0.03826036
0.9195213,-0.07730404,0.04734795
0.95561,-0.09727494,0.07141217
1.004942,-0.0978954,0.1037307
1.030583,-0.1066067,0.1130928
1.032467,-0.115412,0.1093801
1.063446,-0.1408224,0.1131488
1.077914,-0.1338686,0.1147207
1.068297,-0.07652967,0.1108645
1.091403,-0.002142872,0.122761
1.126355,0.009559987,0.122493
1.179809,-0.1346738,0.09421256
1.186358,-0.2683502,0.03800162
1.128359,-0.2571576,-0.04298828
1.127453,-0.3016946,-0.1018272
1.174565,-0.4515765,-0.09768958
1.241313,-0.4948692,-0.02396293
1.292657,-0.475782,0.06599713
1.282982,-0.4771791,0.1221603
1.25364,-0.3726631,0.1316362
1.16012,-0.2307901,0.1039828
1.001156,-0.1197122,0.08567283
0.8328853,-0.03207437,0.06847764
0.6754801,-0.04643364,0.04969656
0.6216752,-0.1035002,0.05496212
0.6621403,-0.1982162,0.07514881
0.7300965,-0.3110375,0.1271621
0.8149165,-0.3254411,0.1820105
0.8573429,-0.2971557,0.2011401
0.8476121,-0.2547475,0.2054415
0.841597,-0.1821237,0.2004512
0.8570757,-0.1056691,0.1984943
0.8880678,-0.03986777,0.2004409
0.9441508,-0.01062027,0.1968663
1.000138,-0.01173903,0.19692
1.07037,-0.04638189,0.208591
1.173062,-0.07726099,0.2459395
1.222073,-0.07521512,0.2963821
1.350203,-0.08329322,0.3120787
1.556439,-0.1354822,0.2523678
1.513975,-0.2463209,0.1562461
1.391405,-0.3568566,0.1050358
1.284995,-0.5175392,0.07225378
1.034436,-0.7208645,0.02051627
1.019125,-0.6559919,0.0091792
1.078634,-0.3893957,-0.008387699
0.882631,-0.2692564,-0.101914
0.9261308,-0.2630839,-0.1255934
1.022735,-0.3002877,-0.05285834
0.9178622,-0.3442921,-0.00342675
0.9720513,-0.3509915,0.04802132
0.9238643,-0.3657484,0.04300566
0.7803874,-0.3101095,-0.006122589
0.7915538,-0.2626947,0.01108134
0.7834667,-0.2525251,-0.007029337
0.8322528,-0.1441975,-0.03286903
0.8626025,-0.0841381,-0.01007862
0.8353759,-0.07078335,-0.009590143
0.8669365,-0.03953194,0.01368191
0.8657295,-0.04905586,0.04224971
0.9121124,-0.03401833,0.06736406
0.9462422,-0.04910745,0.09436423
0.9412645,-0.09504908,0.09155268
1.021669,-0.1373657,0.1056073
1.098168,-0.1838838,0.08715526
1.151702,-0.1525867,0.0638546
1.136293,-0.06280783,0.1040458
1.107564,0.02523129,0.1186664
1.155268,-0.01509134,0.1044357
1.159036,-0.1416793,0.06899012
1.152199,-0.1736011,-0.008783612
1.116265,-0.2385144,-0.09766324
1.057972,-0.3789684,-0.145643
1.137509,-0.4943514,-0.09737631
1.260869,-0.5355719,-0.007008433
1.341695,-0.489021,0.08077707
1.399817,-0.4365543,0.1285407
1.356499,-0.280631,0.08994377
1.195312,-0.07766259,0.06471602
0.9560191,-0.01096442,0.06639786
0.7093034,0.01363631,0.05358531
0.5693003,-0.05132156,0.07931537
0.5573047,-0.180199,0.1063263
0.6345427,-0.2557147,0.1247571
0.7302181,-0.3059597,0.1516291
0.7673742,-0.2635927,0.154309
0.7938957,-0.2275551,0.1820261
0.8290795,-0.2190114,0.2126656
0.8486935,-0.1456708,0.1988947
0.8893357,-0.1006578,0.1858001
0.9366392,-0.05394172,0.1784415
1.023393,-0.02993036,0.2048952
1.144712,-0.02244518,0.2413841
1.205726,0.01804703,0.2218543
1.234652,-0.01468277,0.2280593
1.260673,-0.06845574,0.3106836
1.335181,-0.1907935,0.3782835
1.444878,-0.3483901,0.3362758
1.375518,-0.3823518,0.1940358
1.215286,-0.5749126,0.04173877
1.149623,-0.797092,-0.02266003
1.04126,-0.5830267,0.01097286
0.9623837,-0.3396819,-0.01227918
0.9892648,-0.3827367,-0.07481425
0.9600138,-0.3371642,-0.02904084
0.9430496,-0.2764858,-0.002735264
0.9409429,-0.358438,-0.01857764
0.8848945,-0.3565887,0.0201197
0.8452913,-0.3387915,0.02509933
0.7985416,-0.3285814,0.01551179
0.7858464,-0.2413344,0.01073737
0.8115029,-0.1964835,-0.02309827
0.8423873,-0.1419707,-0.02057715
0.8954757,-0.07444092,-0.01264368
0.8798964,-0.0597911,-0.01601321
0.8574819,-0.03281735,0.007785605
0.8774737,-0.02322027,0.01969979
0.8755796,-0.04093046,0.02322946
0.9258582,-0.06071464,0.0405953
1.013801,-0.0945799,0.05049147
1.073875,-0.1383085,0.04861481
1.108218,-0.1550778,0.05948786
1.10943,-0.09466725,0.09615473
1.10995,-0.001585591,0.1409339
1.137295,0.02855497,0.1778132
1.167461,-0.08711805,0.1656293
1.149352,-0.2454281,0.0615762
1.095186,-0.2641546,-0.06754109
1.067649,-0.2781131,-0.1250918
1.097435,-0.3969087,-0.1210904
1.188808,-0.4845835,-0.06701313
1.297491,-0.5013307,0.03022257
1.376065,-0.4959611,0.06360779
1.378761,-0.4613685,0.05616524
1.295829,-0.3310006,0.08969016
1.162027,-0.1560636,0.06697909
0.9656862,-0.08120936,0.03256147
0.7616899,-0.08446703,0.05394671
0.6228938,-0.1137388,0.04975378
0.6072047,-0.1850552,0.08924187
0.7112576,-0.276196,0.1512555
0.760577,-0.3073512,0.1390816
0.8008593,-0.2567151,0.1349005
0.8802769,-0.2363608,0.1583843
0.862991,-0.2158364,0.1771646
0.8669572,-0.1476262,0.1852748
0.8920429,-0.1163845,0.1743413
0.8869197,-0.06861753,0.1699385
0.9486603,-0.01712347,0.1837287
1.009991,-0.02819838,0.2009541
1.107989,-0.05392334,0.2021706
1.205591,-0.07176176,0.2139741
1.19512,-0.03957881,0.2617244
1.216305,-0.03710896,0.2906492
1.320536,-0.1868078,0.2345438
1.39855,-0.3598947,0.1448387
1.278797,-0.4685275,0.08360609
1.09653,-0.6488924,-0.04297261
1.099418,-0.7486871,-0.1381313
1.051091,-0.4985003,-0.07994657
0.9697385,-0.2936165,-0.1101466
1.016582,-0.3793497,-0.178938
0.9758189,-0.3878694,-0.07974788
0.9411202,-0.34175,0.005665598
0.9526067,-0.3473707,0.02634708
0.8797674,-0.2799819,0.03753917
0.8469096,-0.1957002,0.009854255
0.8059626,-0.1262661,-0.01514686
0.7935447,-0.08108727,-0.05827457
0.8469972,-0.08043584,-0.07356717
0.8390517,-0.1125323,-0.01861924
0.8804498,-0.1668725,0.02731088
0.8948734,-0.1851988,0.05884888
0.8570804,-0.1884836,0.06578787
0.9018369,-0.1837561,0.05167879
0.9143125,-0.1460612,0.05075224
0.9678994,-0.1325951,0.05218654
1.069498,-0.1469583,0.06372597
1.085517,-0.1505659,0.06951345
1.082923,-0.1183878,0.05978197
1.052101,-0.03556601,0.05585545
1.035662,0.04808778,0.07573355
1.100412,0.03190701,0.1237487
1.187763,-0.1251961,0.1387038
1.228224,-0.2839063,0.08531229
1.194441,-0.2966187,0.01428599
1.179346,-0.2917225,-0.05023927
1.18853,-0.4061222,-0.1148185
1.210867,-0.489314,-0.08574719
1.286436,-0.5011377,0.0432797
1.31939,-0.5286069,0.1034136
1.312683,-0.4562738,0.1117084
1.276997,-0.3008558,0.1021322
1.109999,-0.1713928,0.0563191
0.8657736,-0.05654386,0.07903473
0.6731882,-0.03489144,0.08388657
0.5926857,-0.07589245,0.05257281
0.6130009,-0.1276228,0.08344723
0.6895906,-0.2504999,0.1004795
0.7777035,-0.3283336,0.1469416
0.8183254,-0.3080745,0.2055335
0.8283668,-0.2748912,0.2099097
0.849476,-0.211642,0.2217858
0.866401,-0.1128969,0.2089953
0.8896999,-0.0130521,0.1980992
0.9234426,0.04358641,0.1906972
0.9522376,0.01177925,0.1635403
1.044743,-0.07153476,0.1857516
1.204415,-0.1536559,0.2127515
1.268668,-0.1896945,0.2518286
1.284044,-0.168275,0.3049758
1.428607,-0.1953003,0.2630956
1.492705,-0.2755005,0.1748371
1.259447,-0.3778186,0.09214092
1.041221,-0.5692458,-0.01172795
1.099576,-0.6632476,-0.03708466
1.140062,-0.5606117,0.00942941
1.007413,-0.4613362,-0.01992466
0.964125,-0.3789943,-0.06773939
1.00549,-0.3648662,-0.07497999
0.9951837,-0.4061105,-0.05374746
0.9704759,-0.3242471,0.01868628
0.9177372,-0.2798863,0.01670513
0.857251,-0.294524,-0.02944283
0.7960821,-0.2360175,-0.02060311
0.762371,-0.2459763,-0.0360022
0.7997244,-0.2583771,-0.03066254
0.8028973,-0.2172596,-0.02433028
0.8225751,-0.2154746,-0.03646928
0.9051763,-0.1926427,0.01475629
0.9306844,-0.1734142,0.064724
0.92469,-0.1411263,0.1013684
0.9280538,-0.0747127,0.107703
0.9475103,-0.05655887,0.07254953
0.9805867,-0.08430408,0.07275232
1.009574,-0.1550877,0.0912147
1.073672,-0.1876911,0.1261974
1.108244,-0.13104,0.143169
1.069468,-0.01720897,0.1244801
1.061196,0.09273582,0.1318179
1.1192,-0.002535181,0.1319715
1.199668,-0.2298362,0.1279052
1.226038,-0.3306534,0.1094035
1.119767,-0.346048,0.007487197
1.016944,-0.4295715,-0.09161611
1.109953,-0.5617888,-0.05957136
1.271836,-0.5581272,0.02538933
1.381108,-0.4975304,0.05301124
1.457477,-0.5002774,0.09730453
1.404151,-0.3602693,0.1186085
1.273857,-0.1691035,0.06694228
1.10037,-0.0826718,0.0630856
0.820768,-0.01739566,0.06487077
0.6508164,-0.03764736,0.05005321
0.5958171,-0.1033287,0.05555701
0.5275056,-0.1767314,0.05017083
0.6007262,-0.2832426,0.0862709
0.7347351,-0.3481153,0.133405
0.7838461,-0.3776245,0.161283
0.8297696,-0.3244006,0.182933
0.8758038,-0.24689,0.1860028
0.9018024,-0.2127711,0.2050746
0.9132292,-0.141784,0.1998962
0.9386907,-0.08179416,0.1961471
0.9922194,-0.01582602,0.214098
1.038355,-0.01273372,0.1895986
1.096717,-0.09106473,0.1939385
1.121763,-0.06399972,0.2547882
1.132275,-0.07635805,0.3019552
1.297235,-0.1984313,0.2548761
1.481293,-0.3166206,0.1385381
1.410169,-0.4188943,0.09085492
1.231469,-0.4851539,0.06246745
1.171013,-0.6477964,-0.01532627
1.161439,-0.7153759,-0.06206685
1.104595,-0.5031995,-0.05889672
1.002229,-0.3606059,-0.07887031
0.9739644,-0.3107122,-0.1128762
0.9863739,-0.2804686,-0.06142483
0.9065439,-0.3223903,0.01063075
0.9021133,-0.3156571,0.04786288
0.8982941,-0.3206984,0.07609458
0.7885554,-0.2932904,0.02896291
0.7933034,-0.1923953,-0.01370918
0.7964489,-0.1524704,-0.003593891
0.7901695,-0.1291687,-0.008699806
0.8638795,-0.1337893,0.005656409
0.88433,-0.14094,0.0207008
0.9344588,-0.1077713,0.03077501
0.9482613,-0.1079474,0.04581164
0.9124237,-0.09579059,0.05028292
0.9719543,-0.0932502,0.07406187
1.050638,-0.1289144,0.1000163
1.132626,-0.1440974,0.1202043
1.115979,-0.1357951,0.108115
1.032177,-0.07191523,0.0824492
1.055988,0.03823537,0.1168919
1.081593,0.09961356,0.1531902
1.129637,0.01235326,0.1618247
1.200778,-0.1714575,0.1299663
1.176823,-0.2830732,0.03990926
1.082695,-0.3107092,-0.03000845
0.9708419,-0.358258,-0.07273951
1.027698,-0.4842272,-0.06859842
1.174377,-0.5533773,0.003612109
1.214169,-0.4890873,0.06786602
1.318583,-0.4563247,0.1078834
1.390092,-0.3843512,0.1127001
1.317391,-0.2088213,0.09465805
1.186691,-0.09390882,0.09480349
0.9083974,-0.03737779,0.09319553
0.7031076,-0.0446078,0.09765188
0.6809969,-0.1146948,0.1016967
0.6529678,-0.1865178,0.1117046
0.7082385,-0.2670979,0.1473723
0.7879915,-0.2842252,0.1686754
0.7885797,-0.2520622,0.1858272
0.7969639,-0.2262845,0.2067778
0.7968316,-0.1687869,0.2252251
0.8190926,-0.1178403,0.2475889
0.8726594,-0.07187134,0.2420502
0.9077283,-0.006353885,0.2215405
0.9257504,0.01939792,0.2081243
0.9560606,-0.001901449,0.2017669
1.068758,-0.02885298,0.1831822
1.202237,-0.06782816,0.1783909
1.304601,-0.1085022,0.3189354
1.404535,-0.09393624,0.4604647
1.416158,-0.09086047,0.3274785
1.328342,-0.188241,0.1467555
1.172026,-0.3773642,0.118655
1.034511,-0.6503194,0.01592846
1.090579,-0.7935379,-0.08071267
1.141797,-0.6197557,-0.03524456
0.987847,-0.3944092,-0.06347201
0.8814017,-0.3187874,-0.08829571
0.8934462,-0.2818399,-0.02176944
0.8890201,-0.2772659,-0.005986809
0.8972786,-0.3233296,0.02445632
0.8991487,-0.3469534,0.03728958
0.8519238,-0.3408502,0.008022024
0.7900774,-0.289939,0.02335276
0.7787779,-0.2008199,-0.004984799
0.8322572,-0.1368298,-0.03173409
0.8687989,-0.110509,-0.01391946
0.886923,-0.1165195,-0.002461359
0.9007817,-0.1284615,0.0503123
0.9108466,-0.1358918,0.07313805
0.9468928,-0.1378071,0.0554536
0.9705638,-0.1258247,0.07153533
1.007401,-0.1335021,0.0835797
1.065975,-0.1299621,0.0875025
1.089619,-0.1046721,0.08332172
1.101133,-0.08426282,0.07605229
1.100747,-0.03058215,0.08743584
1.065124,0.0374162,0.1173441
1.025323,0.04874153,0.169116
1.055709,-0.05721071,0.1768639
1.103077,-0.1971183,0.1005104
1.075047,-0.2361105,-0.003411712
1.07629,-0.2921871,-0.07710307
1.117876,-0.4600581,-0.08396924
1.176509,-0.5824856,-0.02559637
1.302905,-0.5602606,0.05976975
1.356704,-0.4864472,0.117596
1.29553,-0.3983839,0.1270044
1.228617,-0.2661362,0.1173046
1.143426,-0.185781,0.1086037
0.9946425,-0.1424565,0.1003678
0.8193421,-0.05773307,0.07984107
0.7650421,-0.06905776,0.0702861
0.7602795,-0.1831588,0.09874425
0.6434445,-0.2450652,0.1222509
0.6579414,-0.2648826,0.1286084
0.8137128,-0.2971168,0.1476088
0.8610326,-0.3372169,0.1796428
0.9012858,-0.3277436,0.2006767
0.8956531,-0.2385842,0.1980215
0.8480465,-0.1704835,0.2074385
0.887624,-0.1428869,0.2156058
0.8655024,-0.0965437,0.2030248
0.8782278,-0.04344641,0.2121604
0.9585661,-0.02170787,0.2157865
0.9959016,-0.06758858,0.2120376
1.086219,-0.08663622,0.2444054
1.121149,-0.02877344,0.3022019
1.170332,-0.002076506,0.3603643
1.347847,-0.04442724,0.328561
1.43778,-0.1819839,0.2127067
1.355396,-0.3803276,0.1222339
1.203997,-0.5776476,0.01243217
1.129527,-0.7122605,-0.08243616
1.037306,-0.6076265,-0.02690739
0.9201867,-0.3743666,0.03848942
0.9231836,-0.2770214,-0.04403462
0.9246441,-0.2562249,-0.1003804
0.9659849,-0.2726208,-0.04406617
0.9871345,-0.3485026,-0.01064317
0.9113437,-0.3890102,0.0352694
0.8891448,-0.4028335,0.08456849
0.8053559,-0.3563623,0.05202616
0.7747698,-0.2454685,0.0270377
0.8530813,-0.1911791,0.00578756
0.8562694,-0.1306367,-0.006400111
0.8909604,-0.07430877,0.02634816
0.8943217,-0.07451042,0.02467128
0.8969487,-0.05311264,0.03674403
0.9630966,-0.05186851,0.0653204
0.9347236,-0.06082705,0.06061771
0.9290059,-0.06374214,0.06941338
0.9619525,-0.08861481,0.07733987
0.9702231,-0.1105345,0.08920992
1.019667,-0.1421494,0.08863539
1.056406,-0.1277804,0.06672901
1.084289,-0.07190366,0.06986462
1.112492,-0.002871507,0.07335652
1.120959,0.06644136,0.102682
1.148391,0.01069622,0.1358696
1.212595,-0.1220562,0.09839732
1.239879,-0.2268597,0.02494687
1.140298,-0.2960457,-0.07137236
1.056302,-0.3472233,-0.1283854
1.108628,-0.4434818,-0.07778556
1.160406,-0.4841481,0.002621573
1.199024,-0.4570115,0.07767882
1.326206,-0.4241582,0.1452305
1.386617,-0.2638504,0.1377999
1.250282,-0.09570699,0.08368672
1.06679,-0.04187533,0.06169683
0.8710935,-0.03422918,0.05985984
0.6797741,-0.102527,0.06902771
0.6226057,-0.1877701,0.07929873
0.6486105,-0.2628493,0.09287448
0.7068429,-0.3078761,0.1304983
0.7863138,-0.28126,0.1508061
0.8317697,-0.2740485,0.1728629
0.8670604,-0.2491922,0.2064963
0.8894291,-0.196801,0.2043753
0.8802715,-0.1317918,0.1926735
0.8699235,-0.02750055,0.1803166
0.8931743,-0.008413318,0.177969
0.9662116,-0.0346516,0.2042232
1.064139,-0.02582254,0.226097
1.108178,-0.03429113,0.2217583
1.098659,-0.03926021,0.2367664
1.167745,-0.04638425,0.3500444
1.253814,-0.05399022,0.4433329
1.303367,-0.09049956,0.3362282
1.397143,-0.1975595,0.1740255
1.356085,-0.3354947,0.1245148
1.234946,-0.5800238,0.04307259
1.238102,-0.8223747,-0.06203712
1.164527,-0.6885287,-0.00513021
1.014461,-0.3735015,0.03617039
0.9195769,-0.303299,-0.0515923
0.8780602,-0.2819777,-0.07121791
0.9366786,-0.2611792,-0.03158172
0.9386115,-0.3523346,0.005016258
0.9009969,-0.3620432,0.04607218
0.895385,-0.3781887,0.06093359
0.7818437,-0.3675084,0.06898783
0.7602167,-0.257628,0.04082088
0.8254998,-0.2206982,-0.01202854
0.8130323,-0.1207459,-0.01970647
0.8642808,-0.04547012,0.0005929653
0.8926283,-0.08504965,0.02973946
0.9094743,-0.08162182,0.05562723
0.9661947,-0.1249664,0.06913452
0.9524663,-0.1565738,0.09172327
0.9895911,-0.1515204,0.1235472
1.051496,-0.1633974,0.1312495
1.082456,-0.1437062,0.1118841
1.123437,-0.1426404,0.08684003
1.113858,-0.1001452,0.05378542
1.120976,0.006932232,0.07763155
1.139712,0.1170232,0.1606898
1.153953,0.1091645,0.183148
1.189686,-0.09040352,0.1346703
1.137121,-0.256216,0.02550961
1.061477,-0.2985899,-0.08521996
1.065905,-0.3590416,-0.08544444
1.11203,-0.4972253,-0.06786118
1.183904,-0.5686277,-0.06912839
1.242035,-0.5187896,0.03130128
1.279882,-0.5014822,0.1637943
1.282069,-0.3814537,0.1769823
1.197343,-0.1532499,0.1249877
1.050346,-0.03026835,0.1125608
0.8690118,0.03849306,0.09542464
0.7114872,0.03317069,0.06701424
0.6562977,-0.0104858,0.07515858
0.6735261,-0.0746517,0.09664543
0.6879024,-0.2229609,0.1343045
0.7211499,-0.2828718,0.1693076
0.8046566,-0.2997013,0.1875966
0.8190403,-0.3335863,0.221817
0.7741585,-0.2638853,0.2460964
0.7950457,-0.1927305,0.2568074
0.8062752,-0.1247633,0.2480819
0.8369383,-0.004846165,0.2231797
0.9320904,0.07708227,0.2362439
1.0012,0.0908389,0.2509103
1.134399,0.01528589,0.2516249
1.27829,-0.1011118,0.2739803
1.302905,-0.1660417,0.3216318
1.35882,-0.1979635,0.3651308
1.452747,-0.2437479,0.2930108
1.42317,-0.3491046,0.1554407
1.272782,-0.5318582,0.09324663
1.114665,-0.6701488,0.06027526
0.9905655,-0.547602,0.04763834
0.8835139,-0.3257371,0.0222711
0.8790299,-0.3266101,-0.05889733
0.9499524,-0.3148185,-0.04882211
0.937042,-0.2566614,0.009041782
0.9174981,-0.3667863,0.006864824
0.9179874,-0.4046466,0.04248904
0.8407992,-0.4106721,0.06915588
0.8028518,-0.4332837,0.05649811
0.7938495,-0.3201997,0.04848254
0.7656169,-0.2364185,-0.002362051
0.8407139,-0.1214099,-0.02620688
0.9298334,0.01375927,-0.0202539
0.9539163,0.03282961,-0.02669089
0.965268,0.05389882,0.00929676
0.9595364,0.04701972,0.04171809
0.9548617,0.009852276,0.05850896
0.955464,-0.06316768,0.06992544
0.9893672,-0.1657571,0.07992668
1.043405,-0.181287,0.1156081
1.052953,-0.1464775,0.1176808
1.035238,-0.05288926,0.1228236
1.031975,0.01797015,0.1507722
1.096959,-0.09580645,0.1491223
1.244173,-0.3215651,0.1670792
1.334372,-0.440126,0.1363257
1.188049,-0.340712,-0.02665139
1.017135,-0.2641243,-0.1817486
1.108818,-0.3365621,-0.162282
1.207249,-0.4005794,-0.04223495
1.234436,-0.46772,0.0401977
1.321976,-0.4994289,0.1246057
1.299293,-0.3845051,0.1171244
1.284185,-0.225888,0.02995969
1.30876,-0.1274756,0.05421337
1.131188,-0.09781098,0.0457103
0.8803517,-0.08119051,0.01761531
0.6731385,-0.05226284,0.0568565
0.5840396,-0.1371037,0.0464798
0.6414598,-0.2796712,0.1090765
0.6822325,-0.3581307,0.1758008
0.7506491,-0.3911487,0.1429776
0.8090462,-0.331984,0.1569161
0.8065413,-0.2840788,0.1781765
0.8376398,-0.2499967,0.1847476
0.8278051,-0.141766,0.1830357
0.8518917,-0.09539416,0.1761271
0.9895459,-0.05502053,0.1931432
1.129094,-0.01645539,0.196818
1.180769,-0.0511492,0.220977
1.103488,-0.05779511,0.2482372
1.073601,-0.05236775,0.2775225
1.181553,-0.07043196,0.2966888
1.336968,-0.1904699,0.2229995
1.458295,-0.4220221,0.1115186
1.367683,-0.6864419,-0.007738795
1.185791,-0.8813806,-0.06979017
1.085237,-0.7046655,-0.014105
0.951123,-0.3646668,0.003917996
0.9113598,-0.2935131,-0.06041692
0.9684539,-0.2477013,-0.08903181
0.9337187,-0.1916488,-0.05029667
0.9346437,-0.2942876,-0.008454876
0.9422353,-0.3252574,-0.001770716
0.858368,-0.3345573,0.01012999
0.8005251,-0.3789515,0.02672132
0.7900754,-0.3048861,0.01597392
0.8198281,-0.2188661,-0.005874622
0.8366624,-0.1358797,-0.02203009
0.8426954,-0.07305409,-0.0222013
0.8917312,-0.04440999,-0.008857611
0.8858398,-0.001467387,0.01148464
0.8714574,-0.05334647,0.04937099
0.9008156,-0.07232974,0.06894853
0.9247516,-0.06816777,0.06074935
0.9950569,-0.1487932,0.06827182
1.066394,-0.1623154,0.06981057
1.09826,-0.1875406,0.07411863
1.110068,-0.156861,0.0976473
1.086204,0.02228407,0.1164488
1.083064,0.1274439,0.1727224
1.140888,0.06192738,0.2058981
1.237257,-0.1532848,0.1261448
1.267624,-0.285328,0.02881195
1.151889,-0.2659418,-0.0346643
1.052749,-0.3629756,-0.09839919
1.107346,-0.5222359,-0.1096698
1.19214,-0.5244534,-0.03837558
1.253714,-0.4636805,0.03975168
1.344332,-0.4937175,0.09341958
1.345523,-0.4183605,0.1206307
1.230832,-0.2273169,0.09703387
1.087481,-0.1177121,0.07902945
0.887725,-0.01603676,0.07944974
0.7126581,-0.02080718,0.05771526
0.6321085,-0.1046231,0.05212813
0.6231087,-0.1554437,0.07669119
0.6743076,-0.2567449,0.1111267
0.7392504,-0.2911482,0.1520683
0.8456822,-0.3361935,0.207653
0.882729,-0.3606147,0.2364485
0.819838,-0.249454,0.2050494
0.8458286,-0.197968,0.2019668
0.857247,-0.1022139,0.2151436
0.856935,0.008492577,0.200257
0.9336618,0.00840112,0.2153081
0.9575314,0.02379466,0.2162761
1.038491,-0.02840315,0.2058774
1.157244,-0.09440494,0.2244239
1.174187,-0.09273868,0.2447466
1.275467,-0.112242,0.2913721
1.470502,-0.165848,0.2905519
1.518128,-0.2939952,0.1783792
1.334986,-0.418379,0.05718353
1.122874,-0.5192249,0.02415171
1.030309,-0.5671786,0.05938483
0.8979413,-0.4329538,0.05336603
0.8090002,-0.3196123,0.02498341
0.9179139,-0.3183511,-0.002802618
0.9874962,-0.2992178,-0.06546328
1.005407,-0.2910512,-0.04695504
1.042919,-0.2983566,0.004390698
0.9391226,-0.33433,0.0005443838
0.8178419,-0.3715501,0.04051685
0.7918195,-0.3516747,0.0431186
0.8059702,-0.2988201,-0.004945738
0.8751864,-0.2013239,0.002650854
0.9213008,-0.1026055,-0.002327023
0.9417875,-0.05536403,0.00391268
0.9358356,-0.05872595,0.04696015
0.8918291,-0.09098779,0.05687497
0.8823851,-0.1112234,0.07465293
0.8825177,-0.1495899,0.110851
0.93887,-0.1801427,0.1286444
1.009715,-0.1651672,0.1266927
1.015726,-0.1477623,0.1096171
1.05206,-0.09903184,0.1050791
1.073806,-0.005115331,0.1358182
1.052976,0.09190784,0.1890306
1.055076,0.1153738,0.2015482
1.097206,-0.04055497,0.1620169
1.147323,-0.2456194,0.09982554
1.139594,-0.2939603,-0.02295717
1.15058,-0.3500996,-0.133914
1.216452,-0.5210088,-0.1092778
1.276718,-0.5811042,-0.01709807
1.318661,-0.5546438,0.06541741
1.3397,-0.5221808,0.1421725
1.35927,-0.3652842,0.1500349
1.270642,-0.1764597,0.09424268
1.052881,-0.04818892,0.06219867
0.8696132,0.002768081,0.04593191
0.6953376,-0.05004044,0.0460646
0.5631647,-0.1108645,0.06875263
0.6034178,-0.2194162,0.1045954
0.710652,-0.3570154,0.1689721
0.790915,-0.3765954,0.1920603
0.8197959,-0.3450149,0.1775727
0.8218489,-0.2931149,0.1983064
0.8840769,-0.1949133,0.2162008
0.8968364,-0.1271238,0.2112855
0.8606307,-0.1108493,0.2040979
0.9016153,-0.1017225,0.2011144
0.9306705,-0.0784937,0.1947223
0.9823266,-0.07915435,0.1959812
1.06069,-0.08896489,0.2127323
1.068122,-0.06418438,0.222841
1.120765,-0.05193698,0.2779306
1.234459,-0.06246431,0.351885
1.385962,-0.08548441,0.3292032
1.466633,-0.1717471,0.2223129
1.301043,-0.362901,0.09199927
1.166244,-0.6432639,0.0118384
1.168115,-0.8037121,0.006870959
1.027702,-0.6183159,0.006520797
0.8760828,-0.3466721,-0.01163986
0.9166214,-0.2963725,-0.05231115
0.9628197,-0.2627873,-0.08174945
0.9444661,-0.2228819,-0.04633128
0.973865,-0.3047172,-0.0008060795
0.9540291,-0.3284972,0.03228878
0.8734463,-0.3313803,0.05284515
0.8232853,-0.3335072,0.02934359
0.7707794,-0.2510399,0.0127878
0.8073343,-0.212377,0.00949335
0.8767302,-0.1625974,-0.002761882
0.8700506,-0.113152,0.008332373
0.9047076,-0.1170493,0.02488928
0.9388453,-0.07439449,0.05278134
0.9433866,-0.05672075,0.08832012
0.9563786,-0.04784439,0.08991918
0.9608456,-0.04898861,0.1002332
1.003569,-0.1070722,0.1147906
1.033287,-0.1406501,0.08785259
1.053179,-0.1706443,0.07157376
1.09598,-0.1288484,0.08699061
1.098461,0.0007677871,0.1157683
1.109568,0.05390011,0.1746499
1.144032,-0.05009863,0.1990455
1.151677,-0.2164768,0.09639261
1.123009,-0.2330783,-0.05802072
1.091137,-0.2420005,-0.1197335
1.125576,-0.3968329,-0.0939252
1.15901,-0.4806452,-0.05120796
1.147682,-0.4929469,0.009229785
1.201321,-0.4788268,0.08949032
1.300852,-0.414039,0.1597162
1.327376,-0.3672466,0.15615
1.256588,-0.2622506,0.1013197
1.10365,-0.07934329,0.103997
0.9419663,0.03424426,0.1014295
0.8628216,-0.01430995,0.07678179
0.745421,-0.06570528,0.08625513
0.6156916,-0.05990346,0.06006234
0.7071127,-0.1999444,0.08769894
0.8010261,-0.3295387,0.1671356
0.7778829,-0.3440176,0.1699725
0.8331753,-0.3569029,0.1870266
0.8308548,-0.2709721,0.2201921
0.8270611,-0.2051281,0.2393288
0.8918405,-0.1840407,0.2356744
0.8833263,-0.08778312,0.1772438
0.9475937,-0.05006778,0.1712478
1.01573,-0.03997956,0.1963106
1.029182,-0.006690289,0.205671
1.117824,-0.03174571,0.2273959
1.166051,-0.07656968,0.2397287
1.215407,-0.07723093,0.2748805
1.358628,-0.1157097,0.2788614
1.456577,-0.2374914,0.2112593
1.330431,-0.3464566,0.1183891
1.160776,-0.5363238,0.05315944
1.163648,-0.6696944,0.06098396
1.002434,-0.4924802,0.03465284
0.8146319,-0.3438251,-0.01874302
0.9450473,-0.3355072,-0.03342849
0.9991604,-0.28492,-0.06593234
0.9454458,-0.3081012,-0.0490466
0.9853962,-0.3634784,-0.005616402
0.9222959,-0.3849976,0.01570628
0.8085723,-0.4096412,0.04541751
0.7867609,-0.357525,0.01114043
0.7938395,-0.2825698,-0.01736752
0.8117764,-0.2409161,-0.006415924
0.847902,-0.1603303,-0.0275255
0.8845181,-0.08793951,-0.01912796
0.9233703,-0.06225401,-0.003194489
0.9738045,-0.02280842,0.01034202
0.9998568,-0.007418799,0.05248266
0.966931,-0.03959184,0.07175371
0.9485275,-0.0617483,0.09369975
0.9811349,-0.1013733,0.1199275
1.001283,-0.1486638,0.1120043
1.025644,-0.1514754,0.0953867
1.071281,-0.1529507,0.09346081
1.080513,-0.1344968,0.1043843
1.04676,-0.04551293,0.1195821
1.034451,0.00641508,0.1449322
1.097801,-0.1252227,0.1497454
1.158571,-0.3085065,0.08876676
1.139656,-0.3093104,-0.03862098
1.145932,-0.2917451,-0.1598608
1.216579,-0.3960027,-0.1653625
1.235059,-0.4663744,-0.08408736
1.19556,-0.5041503,0.0219526
1.179059,-0.4679387,0.1231092
1.184524,-0.337709,0.1221888
1.168305,-0.2426271,0.07071021
1.099474,-0.1463381,0.0678478
0.9914883,-0.1167062,0.04798569
0.8676985,-0.1627709,0.02604401
0.7527225,-0.1730066,0.04248307
0.7214918,-0.2436426,0.05801606
0.7600697,-0.3102756,0.1002487
0.7896313,-0.3258113,0.1450024
0.8227794,-0.352591,0.1529076
0.8554661,-0.3043019,0.1554271
0.8560006,-0.2527967,0.1520999
0.8614475,-0.2370594,0.1623139
0.9094964,-0.1767263,0.1703032
0.9752755,-0.1051666,0.1628437
0.9983509,-0.07096353,0.1746197
0.9816295,-0.08771433,0.1771584
1.003396,-0.07540602,0.1830418
1.041782,-0.05731928,0.1896092
1.045312,-0.08246395,0.1946871
1.072155,-0.055441,0.2753386
1.122864,-0.05214269,0.3380837
1.216288,-0.1298916,0.2454299
1.343129,-0.2277724,0.09805884
1.323727,-0.3432721,0.05478161
1.257477,-0.4981184,0.06373018
1.257743,-0.6647982,0.02877252
1.082712,-0.5555084,0.01760572
0.8928566,-0.2843658,-0.003288932
0.9423641,-0.2828628,-0.08339567
0.9674511,-0.294146,-0.09752888
0.9248205,-0.2839028,-0.05691763
0.9382166,-0.4657393,-0.02560114
0.8964153,-0.529997,0.03205436
0.8318105,-0.5001944,0.06003653
0.8175407,-0.4611518,0.0357269
0.8096299,-0.3199773,0.01240268
0.8214744,-0.2170557,-0.02436552
0.8579955,-0.1173047,-0.03138689
0.8829178,-0.04046112,0.003073752
0.9044221,-0.01350601,0.00493453
0.9432477,0.01999163,0.01654727
0.9798185,-0.02530054,0.03685305
1.000797,-0.0600389,0.04123114
1.016966,-0.07322391,0.07801476
1.026858,-0.1169355,0.09274666
1.003358,-0.1350119,0.09108729
0.9733813,-0.1541732,0.1069938
1.005597,-0.1443499,0.07932943
1.037782,-0.1206615,0.03745449
1.024374,-0.0384632,0.03268583
1.03781,0.1097779,0.07150636
1.078667,0.07905333,0.1235513
1.146966,-0.1389913,0.1353164
1.203265,-0.3146481,0.1082293
1.146843,-0.3130851,0.03176361
1.090909,-0.2834757,-0.05683687
1.131637,-0.425648,-0.07370576
1.145842,-0.5334544,-0.06590183
1.143999,-0.518101,-0.04594004
1.185422,-0.508415,0.07001627
1.211302,-0.4061343,0.1574245
1.224663,-0.2309705,0.0949894
1.162394,-0.1198929,0.04684479
1.000056,-0.1031906,0.06953525
0.8853538,-0.1334737,0.06674279
0.795246,-0.1378933,0.06488985
0.7084903,-0.1723628,0.07393383
0.7231169,-0.2272795,0.07529182
0.7738929,-0.2659847,0.09843424
0.8181793,-0.3219739,0.1216679
0.8589773,-0.3286093,0.1328963
0.8610709,-0.3066837,0.1558246
0.8572067,-0.2914507,0.1642973
0.8488349,-0.2476663,0.1660333
0.8569036,-0.2061992,0.1833367
0.9087596,-0.1528028,0.1779547
0.956666,-0.076054,0.1726154
0.9792712,-0.03966676,0.1827872
0.9925953,-0.08148034,0.1559623
1.039745,-0.1386543,0.100025
1.066755,-0.1635647,0.05808418
1.068286,-0.1234512,0.1001605
1.208456,0.03291278,0.2396285
1.355708,0.1165213,0.3185745
1.308756,-0.04706156,0.2116537
0.7251062,-0.2147022,0.1271732
0.7649255,-0.1690824,0.1212949
0.8093596,-0.1240376,0.1338182
0.8250201,-0.06579109,0.1195608
0.8647178,0.02053547,0.09104623
0.8952449,0.0978413,0.05906721
0.9836557,0.1196792,0.09880855
1.187768,0.09828842,0.1329697
1.325946,0.05729765,0.03476861
1.394669,0.0004917445,-0.03950975
1.387126,-0.01138403,0.02494409
1.330231,-0.07863678,0.08453874
1.332161,-0.296783,0.07576919
1.299,-0.5543415,0.09123887
1.29404,-0.9127498,0.09481287
1.311605,-1.1265,0.06787174
1.141059,-0.7389388,0.1117184
0.9143033,-0.2516958,0.1992168
0.8535945,-0.1951046,0.2596887
0.9348343,-0.2277734,0.1708721
0.9826354,-0.2455213,-0.01714932
0.9279589,-0.3419486,-0.01731437
0.8838609,-0.354456,0.04052292
0.8091948,-0.3226275,0.01084453
0.7357145,-0.299813,0.03023524
0.775225,-0.236724,0.01907813
0.8150703,-0.2002599,-0.0007042412
0.8600236,-0.2029526,0.01529247
0.8936468,-0.2028602,-0.01115238
0.8768127,-0.1942327,-0.02097951
0.9293695,-0.177879,-0.03550257
0.9735158,-0.145921,-0.04372049
1.005932,-0.108632,-0.02285467
1.069805,-0.1086863,-0.03582254
1.049328,-0.1224447,-0.04479538
1.035796,-0.1168061,-0.05076615
1.045182,-0.09118034,-0.03139858
0.9934649,0.01079809,0.009237141
0.9857373,0.1126921,-0.007915378
1.060117,0.003849277,-0.01121165
1.152146,-0.2238943,0.02734931
1.155456,-0.304855,0.07669463
1.051568,-0.2840168,0.1561697
0.9981678,-0.3278852,0.1767091
1.065291,-0.448829,0.07115438
1.187771,-0.5368495,-0.02450948
1.336786,-0.5127346,0.004904047
1.533158,-0.4619233,0.01669834
1.604145,-0.3438778,-0.04757867
1.381237,-0.08676871,-0.03660102
1.081643,0.08321215,-0.00377512
0.8488115,0.06645494,-0.00378292
0.6722136,0.01004014,0.03509937
0.64125,-0.04936719,0.05414471
0.6751784,-0.1220262,0.07000565
0.68029,-0.1609106,0.09547614
0.6905821,-0.1682643,0.08408871
0.7153902,-0.1781423,0.119176
0.7494443,-0.1823568,0.1651859
0.7656214,-0.1584775,0.1438464
0.7976062,-0.07822328,0.09511896
0.8763819,0.04859046,0.04997484
0.9957612,0.1299194,0.0521985
1.178133,0.10439,0.06807227
1.362308,0.02591606,0.05064567
1.450837,-0.02102683,0.05088777
1.446515,-0.03127694,0.06995131
1.427903,-0.1048902,0.07976347
1.358501,-0.3292537,0.09416469
1.17642,-0.6561479,0.132194
1.068054,-0.9680637,0.1750941
1.103778,-0.9815395,0.1850795
1.046127,-0.558166,0.1912375
0.9112408,-0.2240666,0.2037627
0.8970098,-0.223819,0.1735599
0.889515,-0.1716353,0.1006915
0.8725393,-0.1599308,0.003061669
0.9425922,-0.319665,-0.03232227
0.8968683,-0.3595088,0.02740065
0.7968406,-0.3665321,0.03194669
0.7877816,-0.373621,0.005683053
0.7434048,-0.2076043,0.007996904
0.7733792,-0.1499019,-0.04263796
0.8482868,-0.1697745,-0.07876834
0.8529315,-0.09234393,-0.08281282
0.9017249,-0.135277,-0.08525826
0.9381144,-0.1344083,-0.05781839
0.9539432,-0.09724146,-0.04852865
0.9654851,-0.1533239,-0.04321678
0.9784903,-0.1049103,-0.04265501
1.061752,-0.106025,-0.05729753
1.100053,-0.1423907,-0.05671939
1.111171,-0.1241793,-0.0659879
1.12113,-0.1272098,-0.04887119
1.057574,-0.01234403,-0.02462159
1.03511,0.06793031,-0.03200024
1.097596,-0.02200927,0.0109558
1.152511,-0.1409853,0.1003087
1.080573,-0.1880251,0.1512319
0.976591,-0.2013252,0.1380281
0.9989628,-0.3366326,0.126792
1.042251,-0.4768462,0.1252981
1.204222,-0.5451608,0.05867563
1.505412,-0.5831984,-0.008643841
1.561914,-0.4202901,-0.01707047
1.324059,-0.1301827,-0.009315934
1.043801,0.01625686,-0.001810045
0.7896119,0.04018889,0.001384895
0.6106575,0.05762853,0.02735854
0.5938649,-0.01059064,0.06944296
0.638871,-0.1212149,0.0945638
0.668724,-0.1675128,0.1141086
0.7392686,-0.2190125,0.1204807
0.7905367,-0.2274682,0.1218341
0.8288132,-0.2175525,0.1328551
0.8572062,-0.2282715,0.1448241
0.7800918,-0.1423102,0.143763
0.732083,-0.05180909,0.1230788
0.7736802,-0.00622452,0.1099179
0.8212591,0.06712344,0.1047041
0.9427914,0.09867691,0.1175759
1.113406,0.04384047,0.1248984
1.31287,-0.01155801,0.04715741
1.570311,-0.03005236,-0.0265471
1.696058,-0.1261547,0.009059864
1.575801,-0.2736384,0.07502505
1.319546,-0.4144128,0.121849
1.074902,-0.621,0.1530016
0.9822358,-0.6970906,0.1291037
0.9355358,-0.4786988,0.1060367
0.8238526,-0.2370014,0.1465804
0.8855783,-0.2041925,0.1485738
0.9903207,-0.2457026,0.08402552
0.91547,-0.2487415,0.03855068
0.9282021,-0.3357131,0.04544929
0.9059167,-0.4416803,0.06920537
0.7697761,-0.4300424,0.04866603
0.7632629,-0.3730592,0.03556812
0.7586063,-0.2778317,0.02074265
0.8010965,-0.1589199,-0.04037326
0.8855209,-0.0751328,-0.06224038
0.8605141,-0.01809706,-0.08076073
0.8633044,-0.007250346,-0.09323988
0.874403,-0.03283362,-0.04993708
0.8883425,-0.07372187,-0.02781561
0.9504613,-0.1394423,-0.008831248
1.042712,-0.2357203,0.01503138
1.151556,-0.2872986,0.01219705
1.139485,-0.1687878,-0.01276046
1.083418,0.05435923,-0.06019601
1.099455,0.1837582,-0.08442515
1.158625,0.08093127,-0.06407846
1.257213,-0.1709209,0.02046085
1.239601,-0.3115113,0.1304642
1.043004,-0.2995484,0.1983688
0.848933,-0.3271224,0.2469288
0.8433546,-0.4838483,0.2204164
1.052987,-0.605519,0.1240455
1.371958,-0.605993,0.0487057
1.688701,-0.5534287,-0.06908703
1.705522,-0.3405649,-0.1454393
1.319405,-0.04427251,-0.03445654
0.9440903,0.1039265,0.05090825
0.7303652,0.09455292,0.02152502
0.5228901,0.03227311,0.05552948
0.4336446,0.01320414,0.1086511
0.550064,-0.09946443,0.1201541
0.6507765,-0.2167044,0.1309461
0.6843201,-0.1657535,0.1237313
0.7781475,-0.1738731,0.1237874
0.7815922,-0.1497777,0.1279917
0.7694484,-0.05184936,0.1127929
0.8726084,-0.04774536,0.09787002
0.8840826,0.01728558,0.09166187
0.9765054,0.1393148,0.1079791
1.192161,0.1951372,0.1112683
1.32692,0.1063663,0.0527734
1.504262,-0.009029036,0.003022401
1.602973,-0.01057318,0.04927382
1.54304,-0.1803832,0.1024267
1.415993,-0.4496995,0.08795136
1.193643,-0.5888552,0.1287597
1.077868,-0.7229719,0.2033922
1.027756,-0.6622249,0.196435
0.8857527,-0.402308,0.2128683
0.8965905,-0.3128556,0.2349636
0.9936574,-0.305789,0.1310542
0.968841,-0.2850611,0.04062207
0.9393385,-0.3391827,0.07008106
0.8742831,-0.3669917,0.09604951
0.8096424,-0.3925681,0.08038411
0.8049823,-0.4106522,0.08325811
0.7231655,-0.3865087,0.0733012
0.7043967,-0.372756,0.0235281
0.77389,-0.2684136,-0.01755484
0.8058464,-0.1628495,-0.04557945
0.8911214,-0.1155503,-0.06765309
0.9186619,-0.04287119,-0.07867571
0.8630342,-0.03764925,-0.0749683
0.8750885,-0.04306641,-0.03881565
0.9224791,-0.04449631,-0.01409378
1.016476,-0.09075529,-0.01839221
1.116135,-0.125666,-0.01968429
1.137974,-0.1587148,-0.01916342
1.124844,-0.08567132,-0.009116349
1.065636,0.08624901,0.01014073
1.019683,0.131917,0.05002915
1.127843,-0.1102917,0.1082644
1.228743,-0.4176949,0.1527144
1.085482,-0.3766398,0.1644073
0.9302107,-0.2841366,0.1397482
0.9985297,-0.4146449,0.1197112
1.140896,-0.4614322,0.08306208
1.342196,-0.4993133,0.03085384
1.565735,-0.5074707,-0.0009858148
1.593298,-0.3234255,-0.05725357
1.422802,-0.172021,-0.04054248
1.093396,-0.03838051,0.0360352
0.7528972,0.0569355,0.0267256
0.5984687,0.00987926,0.04222598
0.5028488,-0.02726017,0.0845703
0.4963404,-0.07864603,0.08751114
0.6297667,-0.1636475,0.1228841
0.6781465,-0.2275096,0.1532611
0.7108305,-0.2413866,0.1677145
0.7636274,-0.159769,0.1675476
0.751788,-0.0645248,0.1466746
0.810165,0.02492161,0.1321345
0.8716831,0.09564995,0.09492286
0.9636082,0.136372,0.09295285
1.188396,0.1435832,0.1008288
1.361947,0.01089509,0.03448547
1.49374,-0.1390363,0.00474805
1.595358,-0.1923249,0.07470844
1.555894,-0.3029829,0.1463916
1.33704,-0.471899,0.1172623
1.059986,-0.6395406,0.06992296
1.03615,-0.7958944,0.08739939
1.046698,-0.681978,0.09327613
0.9042935,-0.3875553,0.1450081
0.9611052,-0.3658945,0.2010232
1.038184,-0.3901529,0.1216571
0.9915682,-0.2888776,0.03069542
1.033381,-0.2964006,0.01214533
0.9705984,-0.3073702,0.02424464
0.8078159,-0.3413634,0.04385739
0.7284795,-0.3752703,0.05619901
0.7073975,-0.339808,0.05792953
0.7435798,-0.3280423,0.02889405
0.7494227,-0.2130571,-0.001653094
0.7778834,-0.1273525,-0.02434448
0.857443,-0.1383231,-0.0352707
0.8826959,-0.09734522,-0.01064673
0.9365987,-0.1018112,0.002289644
0.9608364,-0.09204406,0.0004348175
0.9765463,-0.0631418,-0.01301015
1.053694,-0.08715011,-0.0348449
1.062998,-0.1220865,-0.02776167
1.080382,-0.1324043,-0.02363376
1.05949,0.02447217,-0.02317763
1.018539,0.1663841,0.006931559
1.177237,-0.03231869,0.08607124
1.279259,-0.3163028,0.1806035
1.101582,-0.3476148,0.1798226
0.9345292,-0.3251978,0.1411887
1.014043,-0.43502,0.1490265
1.177744,-0.5589665,0.1215468
1.402912,-0.6463326,0.0873825
1.731817,-0.5960525,0.02641072
1.720531,-0.3658231,-0.09550773
1.42203,-0.1005366,-0.07781353
1.199398,0.04279736,-0.01468018
0.8555548,0.007700666,-0.03864589
0.5528653,0.009596304,0.03779732
0.530319,-0.006723805,0.09564242
0.5583674,-0.1752897,0.08323918
0.5476233,-0.2242714,0.1282933
0.5815123,-0.1942518,0.1106706
0.6680936,-0.2000287,0.1078999
0.6914711,-0.1568465,0.1523836
0.729571,-0.09726018,0.1364469
0.8174242,-0.02768053,0.1226098
0.8296604,0.01350364,0.07508519
0.9097107,0.06812503,0.05107815
1.052363,0.1053829,0.08507483
1.22435,0.05087868,0.06685753
1.437984,0.04322754,0.0486868
1.490491,0.02668787,0.0424546
1.492214,-0.08924331,0.07567285
1.50883,-0.2438669,0.1366954
1.340092,-0.4168721,0.1176919
1.117443,-0.6828319,0.1306798
1.068155,-0.9587147,0.1780973
1.108758,-0.8116051,0.1390883
1.035052,-0.4191283,0.1155692
0.8948814,-0.2420845,0.1523719
0.8684888,-0.1654535,0.1545256
0.9200685,-0.247297,0.09480268
0.9403055,-0.3600569,0.02388548
0.9224257,-0.3194583,0.01092749
0.8748964,-0.3499668,0.04836753
0.8063156,-0.2963936,0.06274585
0.7602993,-0.1890788,0.05117078
0.7548188,-0.1474087,0.03095923
0.7777736,-0.0477663,-0.01185409
0.8215061,-0.07323263,-0.04371283
0.8532591,-0.1031725,-0.06160517
0.8756286,-0.0703278,-0.0761877
0.9043408,-0.09721851,-0.0564885
0.9069165,-0.06210487,-0.02110611
0.9359301,-0.1031887,0.01345105
1.022502,-0.1805012,0.02967882
1.093365,-0.1594636,-4.560455e-05
1.140502,-0.06901999,-0.03542227
1.138354,0.119812,-0.04057809
1.132328,0.1443559,0.009361909
1.229241,-0.06617799,0.08019466
1.278024,-0.2704301,0.08385016
1.159344,-0.3283181,0.09895506
1.02578,-0.2692827,0.148784
1.009747,-0.3336475,0.085501
1.092006,-0.4802084,0.01081737
1.258435,-0.5397259,0.03862784
1.521267,-0.5199564,-0.000202149
1.615724,-0.3759904,-0.07829044
1.376635,-0.1730963,-0.04203335
1.099376,-0.01275225,0.01145816
0.8717282,0.03924428,0.03250923
0.6434157,0.002549087,0.06903422
0.5664146,-0.01210001,0.08633747
0.6059824,-0.07144252,0.1161545
0.6556153,-0.1514686,0.149383
0.7152979,-0.1703012,0.1318248
0.7513548,-0.1814568,0.1346684
0.7501418,-0.1577258,0.1468537
0.760171,-0.1061478,0.1415494
0.7985648,-0.06056324,0.1517905
0.83125,-0.04246739,0.112685
0.9139094,-0.006187195,0.06794521
1.064536,0.08443794,0.09354003
1.224517,0.03440206,0.09107658
1.400894,-0.05681302,0.01195127
1.523054,-0.04086276,-0.04014971
1.589411,-0.1736245,0.03307066
1.593678,-0.3353596,0.1158846
1.325275,-0.3944501,0.09166653
1.001856,-0.6942538,0.1135477
1.032159,-0.9977517,0.186227
1.085937,-0.7151376,0.1618728
0.9118804,-0.2592656,0.1564665
0.8756296,-0.2403165,0.1915196
0.924639,-0.2829003,0.1266955
0.9025366,-0.2281699,0.0593645
0.9709983,-0.3148246,0.04601641
0.9881706,-0.3374301,0.01585241
0.9097367,-0.3165518,0.01232288
0.834447,-0.3249562,0.03796166
0.7502251,-0.2736887,0.04393075
0.7428445,-0.2457052,0.02569411
0.7644813,-0.1879965,-0.01361382
0.8043466,-0.1459642,-0.05075263
0.857408,-0.1144234,-0.06142742
0.8607261,-0.03050017,-0.05273863
0.8893889,-0.0282084,-0.04890038
0.9220067,-0.05508039,-0.03883165
0.9818852,-0.09921699,-0.02235304
1.045419,-0.1429879,-0.02776483
1.077647,-0.09173436,-0.02744343
1.16247,0.006255233,-0.0192641
1.156564,0.1121608,-0.03734769
1.146554,0.05369723,-0.02739525
1.327948,-0.1829852,0.08121864
1.409462,-0.335175,0.1928047
1.170302,-0.3144018,0.164116
0.8989728,-0.2869173,0.1190901
0.9551573,-0.4034517,0.1536404
1.162469,-0.496772,0.1049633
1.343358,-0.5486989,0.03812745
1.552328,-0.5935416,0.05590152
1.514358,-0.4513631,0.01596251
1.398684,-0.2943427,-0.02952954
1.385775,-0.1435366,0.006556259
1.091005,0.01139497,0.0380943
0.8070006,-0.03382164,0.04624034
0.6795621,-0.03847429,0.06958908
0.5186384,-0.03131212,0.123118
0.6033079,-0.1219135,0.1442398
0.6797746,-0.1211721,0.1241348
0.6657614,-0.1328201,0.129293
0.7742967,-0.107844,0.1379439
0.761232,-0.04577026,0.1366698
0.7830256,-0.02530978,0.1227313
0.8496257,0.05127932,0.08889034
0.8599739,0.08544697,0.07403704
1.022601,0.08916573,0.08722218
1.181281,0.05243051,0.0908459
1.324403,-0.01312953,0.05400668
1.4673,0.03131395,0.02907204
1.511553,0.0184327,0.06988815
1.512209,-0.1307229,0.1226247
1.35108,-0.3504415,0.1318589
1.159532,-0.5779759,0.1258505
1.097558,-0.6838606,0.136771
1.069573,-0.6380697,0.1350265
1.024149,-0.4267591,0.125601
0.9002056,-0.1999899,0.1313822
0.8414074,-0.1589901,0.1224028
0.8703471,-0.2410063,0.09974781
0.8853595,-0.3249435,0.07448935
0.9355097,-0.4152776,0.05851412
0.8987416,-0.495171,0.07848677
0.8197674,-0.4429992,0.08853856
0.8165903,-0.3328545,0.04224638
0.8150822,-0.2170642,-0.01107196
0.8456918,-0.06082527,-0.02650476
0.8685103,-0.02852707,-0.03592988
0.848854,-0.03859782,-0.04984506
0.8515113,-0.04021178,-0.036811
0.8831041,-0.138904,-0.02025906
0.9555082,-0.1945897,-0.01356836
1.022839,-0.2076684,-0.002078234
1.046932,-0.1688025,-0.02110732
1.067423,-0.09624971,-0.05145505
1.092028,-0.0885821,-0.05389397
1.084021,0.03806124,-0.06959728
1.063925,0.1573296,-0.07100174
1.130456,-0.01971761,-0.002401314
1.259309,-0.2771547,0.07349052
1.294245,-0.3290766,0.09228788
1.114281,-0.2590367,0.08474241
0.8966657,-0.2785012,0.1014569
0.9557459,-0.4025482,0.1156819
1.112076,-0.553761,0.1106663
1.21576,-0.6080054,0.1293195
1.394281,-0.5502753,0.1290397
1.483425,-0.5047681,0.06173644
1.519864,-0.3714091,-0.02535278
1.452817,-0.1603833,-0.05630704
1.10111,-0.05058128,-0.01140067
0.8663803,-0.0005536258,0.02169296
0.7276037,0.01004234,0.04033936
0.5636694,-0.03702047,0.08370084
0.6418038,-0.1114467,0.1027328
0.6874391,-0.1960194,0.1182018
0.6930704,-0.2161433,0.1276927
0.7700475,-0.1796648,0.1272225
0.7269606,-0.1489212,0.1480153
0.7471482,-0.09377426,0.1367036
0.7633542,-0.02766111,0.1165124
0.7454225,0.005033603,0.1056417
0.8539306,0.0588528,0.08175749
0.9842266,0.1055945,0.07913753
1.255314,0.03652139,0.0365565
1.56176,-0.02600595,-0.01584978
1.665127,-0.00899532,0.04697844
1.670711,-0.1096022,0.1107934
1.570243,-0.3136211,0.06789431
1.343736,-0.4973753,0.04840208
1.153279,-0.7469451,0.08478778
1.121274,-0.8943456,0.08735811
1.027839,-0.6375864,0.1054297
0.8082968,-0.312116,0.1680608
0.7956862,-0.3003029,0.1992274
0.8523656,-0.3205873,0.1375202
0.8098509,-0.2811943,0.03005025
0.8389725,-0.3433508,0.02065822
0.8436021,-0.3707745,0.03973736
0.8093318,-0.3626528,0.009530022
0.8087811,-0.3603282,0.02421222
0.7937749,-0.2940987,0.016503
0.8509145,-0.2126852,-0.008969678
0.9475558,-0.1205073,-0.01113787
0.9689359,-0.04525077,-0.06335739
0.9532706,-0.007819989,-0.08264103
0.9101228,0.00411341,-0.06594624
0.8449503,-0.04363999,-0.04607635
0.8385412,-0.1097397,0.02391453
0.9190535,-0.1864677,0.04932209
1.025307,-0.2231762,0.002685577
1.123033,-0.1763814,-0.0426735
1.179778,-0.086178,-0.06062834
1.137858,0.1072902,-0.05739389
1.110672,0.20199,-0.01931659
1.215474,-0.03561731,0.0512895
1.27952,-0.2607613,0.054852
1.155395,-0.2333043,0.0468788
0.9931605,-0.273041,0.1089044
0.9457697,-0.4618383,0.1266052
0.9847866,-0.5309037,0.1078567
1.138307,-0.5369685,0.09472614
1.421064,-0.5445052,0.04968884
1.574517,-0.4308741,-0.002932648
1.478508,-0.2944626,-0.02908052
1.306829,-0.1135844,0.001304174
1.134264,0.1150108,0.03077499
1.031532,0.1138275,0.01448282
0.8772968,0.00912081,0.0312385
0.5612641,0.03902002,0.06566894
0.5503549,-0.004580793,0.06954614
0.7380073,-0.1190215,0.08705069
0.6700182,-0.1651996,0.1276455
0.7051311,-0.2287507,0.1455855
0.7609358,-0.2022583,0.1332178
0.6732782,-0.1396547,0.1306896
0.7678291,-0.141887,0.1236324
0.8128221,-0.03085587,0.08632571
0.854708,0.06464824,0.07147461
1.044247,0.10584,0.09635544
1.18109,0.1142303,0.09697529
1.389977,-0.01243139,0.02875914
1.522486,-0.1181508,-0.03888507
1.527034,-0.2987878,-0.009307397
1.532186,-0.5110144,0.06212679
1.382565,-0.5826942,0.1194782
1.218487,-0.6673969,0.1796464
1.05807,-0.5750613,0.2056462
0.8590513,-0.3448487,0.2336214
0.8448395,-0.3195072,0.2422675
0.9291883,-0.3313295,0.1383228
0.9152464,-0.2898278,0.05954603
0.8664923,-0.3132863,0.06760642
0.8480436,-0.3245725,0.05762501
0.7863485,-0.3254432,0.04058621
0.7710412,-0.3661625,0.03239194
0.8209495,-0.3567816,0.01800312
0.8180806,-0.2894159,-0.01927126
0.8494867,-0.1966229,-0.04213693
0.869347,-0.1104693,-0.0309611
0.8793679,-0.07700194,-0.05620985
0.9333021,-0.02381801,-0.07699583
0.9206204,-0.006363618,-0.06960303
0.927149,-0.05183458,-0.05538269
0.9702003,-0.0491019,-0.02129148
1.017391,-0.09223679,-0.01609104
1.092738,-0.1845944,-0.01759279
1.097785,-0.2069184,-0.01577349
1.057254,-0.1444508,-0.02907291
1.031754,-0.006997416,-0.007200452
1.047903,0.03663352,0.03437359
1.113815,-0.1421437,0.08907855
1.150284,-0.3248075,0.1456092
1.109854,-0.2975889,0.155515
1.043822,-0.2794768,0.1486976
1.060871,-0.4344019,0.1323608
1.138212,-0.5322847,0.102097
1.304168,-0.5657238,0.09495917
1.561362,-0.5534726,0.05240731
1.585985,-0.3772196,-0.03730402
1.362821,-0.1765472,-0.04145849
1.124714,-0.02400439,0.002994953
0.8415059,0.02053638,0.0128704
0.6063173,-0.0254801,0.07024794
0.5257879,-0.03523321,0.1284219
0.5416338,-0.1291178,0.1346679
0.6254752,-0.2222789,0.1588996
0.7045323,-0.2195146,0.1716973
0.7543993,-0.2168077,0.1624393
0.7843226,-0.1709902,0.1533988
0.8125649,-0.1223031,0.125579
0.875013,-0.05897747,0.08988444
0.9199694,0.001553591,0.07445925
0.9941093,0.03300594,0.09983123
1.127082,0.09885012,0.1102986
1.2379,0.04634388,0.07619403
1.329336,-0.02892354,0.03157036
1.360203,0.004889417,-0.01054751
1.334328,-0.08687117,0.008814494
1.310366,-0.3116892,0.0672504
1.223866,-0.5809473,0.1024643
1.14103,-0.7869378,0.124125
1.144442,-0.7087542,0.1146925
1.041473,-0.5153185,0.1373288
0.8580458,-0.3888651,0.2002433
0.8793318,-0.2389512,0.1912372
0.9632216,-0.231774,0.1194604
0.9326628,-0.3392931,0.04062778
0.9426989,-0.3510229,0.01096139
0.9123994,-0.4112459,0.01955774
0.8050965,-0.4145793,0.009053905
0.7687819,-0.3228166,0.02185015
0.7411987,-0.3071942,0.01646436
0.7494329,-0.2114394,-0.01437938
0.8142706,-0.1450427,-0.004494736
0.8568016,-0.1480183,-0.02189085
0.9245039,-0.07459375,-0.04884637
0.9696854,-0.05737594,-0.05322616
0.9726747,-0.04188509,-0.0619452
0.9885531,-0.04097476,-0.03452967
0.9942575,-0.0902973,-0.01225258
1.004239,-0.1242523,-0.01314484
1.018621,-0.1828847,-0.008707837
1.034515,-0.106051,-0.01154888
1.037225,0.03081794,-0.002684348
1.059528,0.02376052,-0.00113863
1.179129,-0.07405349,0.008717033
1.26258,-0.1864347,0.08261279
1.182116,-0.1538566,0.1729714
1.031405,-0.137126,0.1726019
0.9568478,-0.3337771,0.06484345
1.017629,-0.5018856,-0.009998628
1.205197,-0.5738692,0.01531392
1.48469,-0.5929017,0.02737198
1.620854,-0.4863258,-0.0221078
1.455784,-0.2684741,-0.04222451
1.20252,-0.07880803,-0.0165638
0.9431215,-0.03458313,0.003604885
0.6589157,-0.03013049,0.05192929
0.5522029,-0.03110164,0.1044873
0.5965886,-0.09041117,0.1163015
0.6367983,-0.1554263,0.1084459
0.7124318,-0.1916384,0.08408586
0.7525635,-0.1559453,0.09497896
0.7499267,-0.1183097,0.1269964
0.7806293,-0.1088037,0.1331434
0.7865179,-0.05267043,0.127963
0.7953823,-0.001973551,0.09984815
0.833659,0.04675658,0.1098137
0.9445746,0.06346805,0.1589128
1.146388,0.03186349,0.160798
1.33707,0.03658446,0.07674172
1.582302,0.006887614,-0.0444058
1.746296,-0.09031736,-0.03711929
1.55921,-0.2562518,0.02296157
1.331347,-0.5837667,0.06392777
1.326278,-1.035636,0.2183188
1.283753,-1.194703,0.2784242
1.053483,-0.6945053,0.2024667
0.813518,-0.2148556,0.2246228
0.8419428,-0.3173976,0.2122969
0.9403809,-0.3188151,0.1170741
0.8191079,-0.1825927,0.04668753
0.8284971,-0.347319,0.008460449
0.8846522,-0.3802804,0.03292803
0.7829834,-0.3495394,0.0363709
0.8254541,-0.4445209,0.01445714
0.8045028,-0.3210166,0.02315928
0.7374282,-0.2220429,0.001076021
0.8107667,-0.1597061,-0.01342503
0.8151845,-0.01318402,-0.03533599
0.8875129,-0.02586713,-0.09066808
0.9491377,0.006094038,-0.09578023
0.9376262,0.02509462,-0.08519563
0.9938483,-0.05269435,-0.0713275
0.9600186,-0.06190469,-0.02789288
0.9603789,-0.1548104,-0.005572268
1.036653,-0.2261391,-0.004492216
1.086298,-0.2044354,-0.005449942
1.136449,-0.07785967,-0.002329434
1.121086,0.09939494,0.01726759
1.18718,-0.007680776,0.05429383
1.276565,-0.1487898,0.08517244
1.163022,-0.1495042,0.08129347
0.9916535,-0.2377212,0.07357531
0.9102572,-0.3150956,0.08368506
0.9643349,-0.4338159,0.09026952
1.168616,-0.5835265,0.07219715
1.47474,-0.5577958,0.003638266
1.642359,-0.4783145,-0.06284517
1.431123,-0.3609728,-0.03841876
1.152656,-0.1553602,0.01367894
0.9985856,-0.04191006,0.01573678
0.7288654,0.003690588,0.02511295
0.5356026,0.03401137,0.04918921
0.5748949,-0.03018573,0.08040807
0.6227014,-0.1095824,0.1217449
0.6957094,-0.1792388,0.1156796
0.7680859,-0.2365495,0.1118486
0.7791735,-0.1987265,0.1357669
0.8370898,-0.1304125,0.1371074
0.8807507,-0.08815734,0.1223262
0.8929842,-0.02205047,0.07188287
0.9493416,0.06287532,0.04733555
1.036269,0.1036161,0.1018981
1.140074,0.07432973,0.1283181
1.205413,0.02567101,0.0563206
1.265057,-0.004098685,-0.01017442
1.439607,-0.06143429,0.05370966
1.558652,-0.2358045,0.1103541
1.368372,-0.5491691,0.07661682
1.156905,-0.8875807,0.111732
1.168569,-1.036071,0.1612364
1.042829,-0.7534985,0.1469561
0.8190716,-0.2640486,0.1874076
0.847036,-0.1625955,0.2322809
0.9165009,-0.2484753,0.1482778
0.9016313,-0.1779014,0.05050216
0.9375239,-0.2568185,0.05535147
0.9487888,-0.345876,0.04084573
0.9034113,-0.3345994,0.02165953
0.8409291,-0.3774649,0.0675199
0.7682219,-0.3147964,0.04818788
0.7242145,-0.2669867,0.01670754
0.7285396,-0.225907,0.02550704
0.8042739,-0.1218943,-0.02558705
0.8950558,-0.09782835,-0.0672699
0.930577,-0.05420872,-0.08385798
0.953645,-0.04130508,-0.09074843
0.9751468,-0.02989551,-0.06197493
0.9810377,-0.001768844,-0.04137541
0.9818412,-0.07226856,0.008478254
0.9917009,-0.1086067,0.0319836
1.023719,-0.1722549,-0.01691616
1.0743,-0.197037,-0.0458889
1.122937,-0.03712441,-0.06172921
1.143143,0.0672216,-0.04233619
1.175466,-0.0199777,0.0142115
1.198056,-0.1904731,0.08564037
1.10875,-0.2516971,0.1834055
0.9499529,-0.2639335,0.1972446
0.8640959,-0.3550841,0.1520661
0.9276016,-0.4462429,0.1279623
1.093,-0.5614907,0.06729971
1.344874,-0.6189851,0.03001394
1.586205,-0.5479799,0.003137275
1.57185,-0.3940913,-0.07502225
1.389123,-0.1522646,-0.06670521
1.183648,0.0177604,-0.01912846
0.8992848,0.04788468,-0.03191079
0.6846934,0.03961993,0.02295317
0.6223072,-0.01230362,0.09147694
0.6279259,-0.139747,0.1001993
0.6636497,-0.2464145,0.1197172
0.6693965,-0.2432795,0.1235728
0.6712435,-0.2060856,0.1483587
0.6878882,-0.1629543,0.1717439
0.7099561,-0.119471,0.1280675
0.7539107,-0.1045367,0.1075991
0.8158683,-0.05348183,0.09926379
0.9807031,0.06138312,0.07815726
1.144884,0.1464499,0.08311161
1.186506,0.08637881,0.06660681
1.308892,0.01525728,-0.01784092
1.470279,0.02660092,-0.09337678
1.545412,-0.05108671,-0.01199674
1.605693,-0.1931168,0.08772484
1.452266,-0.4135193,0.04707927
1.200939,-0.7525765,0.0835005
1.157801,-0.8750658,0.1877812
0.955959,-0.5992186,0.1871562
0.7055335,-0.2595576,0.1979654
0.8845214,-0.2287531,0.1721349
1.009487,-0.2943832,0.05180664
0.8773145,-0.2627772,0.03735816
0.8702317,-0.3920969,0.06752348
0.8379827,-0.4985686,0.04370101
0.7443558,-0.4780463,0.05749951
0.7634642,-0.5238015,0.0487318
0.7626477,-0.4627052,0.01228709
0.7700369,-0.3525374,-0.01547806
0.8559745,-0.2254706,-0.07250162
0.9146131,-0.06513061,-0.09235408
0.9551787,-0.06785378,-0.08286121
0.9847412,-0.04551697,-0.08228431
0.9881919,-0.0007487127,-0.05569793
0.9863722,-0.04763903,-0.02716601
0.9817722,-0.03917229,-0.01794039
0.994458,-0.07394945,-0.02295562
0.996525,-0.1307028,-0.02424585
1.00457,-0.1264581,-0.01954443
1.044259,-0.1263266,-0.0104845
1.060841,-0.06435715,0.01054442
1.054975,0.006546093,0.004996958
1.058651,-0.04492989,0.006409006
1.113419,-0.1705955,0.06052831
1.151684,-0.2464152,0.1086049
1.054958,-0.2397065,0.1143973
0.9584806,-0.2785655,0.09326278
1.011694,-0.4577536,0.0624481
1.145109,-0.6111125,0.0260531
1.314822,-0.5945198,0.02134326
1.474493,-0.5067631,0.02504444
1.454556,-0.3535191,-0.03236511
1.293568,-0.1231726,-0.05282265
1.131139,0.0351437,-0.02355087
0.9503599,0.06241833,-0.02747151
0.8450038,0.02477671,-0.00173122
0.7635819,-0.02317915,0.04678744
0.6198485,-0.1120334,0.08921466
0.6363706,-0.1770723,0.108414
0.727994,-0.1844323,0.08847913
0.7306797,-0.2723058,0.1180643
0.7846566,-0.3119213,0.1457501
0.8157144,-0.2370577,0.1316814
0.7786637,-0.2002489,0.135661
0.8105675,-0.1180704,0.09910225
0.8640824,-0.02803457,0.05455091
0.9417195,-0.004823619,0.05847352
1.069874,0.04702171,0.08644869
1.14351,0.06093483,0.1089045
1.184984,0.03982969,0.05512592
1.244514,0.05189556,-0.001137668
1.3595,0.04473761,0.01814779
1.460663,-0.01014439,0.02600715
1.371603,-0.2266112,0.02789203
1.286069,-0.6353034,0.07246479
1.287897,-0.907742,0.111925
1.132591,-0.8048062,0.1358726
0.8953049,-0.5104627,0.1857146
0.7320841,-0.2400218,0.2098047
0.7388967,-0.1465271,0.1411952
0.8809424,-0.2768959,0.04605227
0.9154781,-0.3677579,-0.001512576
0.9008744,-0.417558,0.004163861
0.8879809,-0.5017921,0.03397867
0.8064618,-0.4245774,0.03922956
0.7894299,-0.3461623,0.02067609
0.813064,-0.2766953,-0.006960269
0.8522042,-0.114589,-0.04089395
0.9344943,-0.082342,-0.0613872
0.9714841,-0.06760205,-0.06636983
0.9949922,-0.06106509,-0.05392709
0.9999934,-0.110694,-0.03885553
0.9892648,-0.0641901,-0.03063558
1.002681,-0.07137782,-0.008391503
1.006636,-0.09393543,-0.006918712
1.042986,-0.1004029,-0.03469937
1.079015,-0.1811642,-0.05195047
1.066034,-0.1850357,-0.06012901
1.040439,-0.1345358,-0.05636064
0.9907256,-0.004887427,-0.05600683
0.9471536,0.1552031,-0.06179214
0.9966887,0.09571415,-0.04017071
1.097308,-0.05528322,-0.005148754
1.102826,-0.1660319,0.04066406
1.05975,-0.2711578,0.09655822
1.038426,-0.2952912,0.1303737
1.006637,-0.3693607,0.1471987
1.04416,-0.5570599,0.1292022
1.14577,-0.6144128,0.08747577
1.261461,-0.5742547,0.09730334
1.370024,-0.4851318,0.08708548
1.404923,-0.2486105,-0.001668534
0.9970974,-0.1499347,0.04499848
0.6931237,-0.1084167,0.1204341
0.6090865,-0.1216817,0.1365166
0.7510978,-0.1855764,0.1281931
0.7171526,-0.1784619,0.1435965
0.7393322,-0.1584901,0.1333136
0.8141759,-0.1641397,0.1351241
0.7380463,-0.08016766,0.1432259
0.7811143,-0.04663674,0.143905
0.8387326,-0.05293578,0.1465822
0.8595224,0.002802815,0.1166756
0.9583054,0.03118313,0.08600844
0.9838978,0.04287849,0.1009178
1.097201,0.01373438,0.1049177
1.25985,-0.0008602173,0.04509154
1.303108,0.04431995,0.005816199
1.39383,0.02819535,0.05998901
1.414699,-0.1059109,0.1112202
1.261728,-0.368995,0.09460839
1.120422,-0.6554768,0.112359
1.122946,-0.8382305,0.1656712
1.125266,-0.7358052,0.1583316
0.972252,-0.3886889,0.1891506
0.8979879,-0.2123405,0.2497593
0.9325895,-0.1958111,0.1599566
0.9397603,-0.2251263,0.04110166
0.9568851,-0.3171085,0.02575672
0.9270599,-0.3328461,0.01229089
0.8705451,-0.3737808,0.007698275
0.7961853,-0.3990511,0.03292373
0.7461453,-0.3426391,0.03611206
0.749387,-0.3030033,0.03440757
0.7153041,-0.2196253,0.01535963
0.7759581,-0.1825157,-0.0302273
0.8835496,-0.1479007,-0.05543847
0.9324635,-0.08687813,-0.07388865
1.006081,-0.07805432,-0.08885655
1.009028,-0.005925673,-0.08084843
0.9938524,0.007791309,-0.07289057
1.01595,-0.03419913,-0.04499461
1.013757,-0.07827356,-0.008069776
1.058663,-0.2272735,-0.01540629
1.111573,-0.2628349,-0.02880023
1.127596,-0.111646,-0.03102502
1.123956,0.05184191,-0.05091718
1.142166,0.06730823,-0.04572958
1.199713,-0.1050339,0.0002989861
1.174034,-0.227562,0.04899835
1.03417,-0.2067797,0.1035998
0.8920111,-0.2159031,0.149094
0.9116445,-0.3497604,0.141646
1.058159,-0.5144069,0.071752
1.187809,-0.6266676,-0.006705355
1.406329,-0.6290493,-0.01647286
1.586927,-0.4815875,-0.02704884
1.495683,-0.2688406,-0.08139178
1.257539,-0.00574143,-0.05500863
0.988323,0.1279132,-0.01004622
0.7824812,0.03246973,-0.02652606
0.6374075,-0.005354395,0.01330393
0.5353414,-0.06499099,0.07875725
0.610071,-0.2256435,0.1214648
0.6681058,-0.2676951,0.1615207
0.6508,-0.2498955,0.1408072
0.7521557,-0.2277175,0.1243387
0.7985145,-0.1831035,0.1378097
0.8076947,-0.1285482,0.1063781
0.8719014,-0.04731283,0.07620978
0.8812779,0.0300575,0.06458866
0.9853326,0.07115001,0.09032668
1.179274,0.001425527,0.1211914
1.338076,-0.0648911,0.02991564
1.467926,0.01327077,-0.04407481
1.550318,0.0544486,0.04955337
1.580669,-0.03112331,0.1247124
1.39541,-0.2756153,0.08496993
1.175529,-0.7341353,0.07989185
1.200309,-0.9886922,0.1150611
1.06088,-0.7130712,0.1032188
0.7669639,-0.392669,0.1319098
0.7855432,-0.3057565,0.1740376
0.9142452,-0.1960454,0.1053699
0.936014,-0.2062679,0.02973199
0.9690361,-0.3199737,0.02425429
0.9477714,-0.3146327,0.03817417
0.8661835,-0.3709686,0.04619582
0.7907915,-0.364704,0.04273645
0.7344117,-0.2711828,0.03749488
0.7748945,-0.284996,0.01392114
0.8248347,-0.2303849,-0.0135353
0.8585586,-0.2111782,-0.01935804
0.9262923,-0.2359638,-0.02238798
0.9159161,-0.1506065,-0.02272982
0.911799,-0.1189134,-0.02392425
0.9499366,-0.09198375,-0.01363936
0.9904126,-0.07711613,-0.003622586
1.09927,-0.1100631,-0.02983912
1.1338,-0.1061462,-0.04849158
1.092648,-0.1252481,-0.03046332
1.063591,-0.05851048,-0.01178288
1.016713,0.02996717,-0.009690163
1.076338,-0.05085366,0.01419584
1.18435,-0.1981538,0.07864437
1.157255,-0.3055757,0.1187043
1.023725,-0.2781417,0.1054253
0.9112379,-0.2457361,0.09085911
0.9622866,-0.4144573,0.0869087
1.073359,-0.5534832,0.05716234
1.134012,-0.5179565,0.03451957
1.382402,-0.4744732,0.03333031
1.668795,-0.415854,0.002705303
1.554565,-0.2828405,-0.004111383
1.248693,-0.141909,0.01853636
0.9869329,0.0005755916,0.01532031
0.7523378,0.05098218,0.03166684
0.7155014,-0.04443936,0.04822275
0.6511264,-0.09100581,0.07123765
0.5182938,-0.1284006,0.1220289
0.6473327,-0.1964077,0.1188814
0.6997656,-0.1642633,0.1165201
0.6975812,-0.1636305,0.1458575
0.8493928,-0.1486697,0.134592
0.8124164,-0.08958604,0.1306477
0.8364439,-0.09416013,0.1335965
0.9413435,-0.01379481,0.1218538
0.9128658,0.05005266,0.1324574
1.075302,0.06489833,0.1235778
1.277076,0.09822321,0.08314442
1.412168,0.04868084,0.04793957
1.523154,0.02323862,0.04491602
1.474547,-0.1029256,0.06806552
1.405658,-0.3499774,0.08021626
1.295105,-0.5750065,0.123111
1.191729,-0.8029541,0.1605767
1.086784,-0.7138446,0.151731
0.8723973,-0.4223246,0.2242007
0.8278415,-0.3265863,0.2958964
0.9024812,-0.3124938,0.1901686
0.9284382,-0.3552281,0.05438349
0.9392123,-0.3803449,0.03368
0.8895845,-0.3612445,0.02783071
0.8517062,-0.3896827,0.01437821
0.7820166,-0.3325628,0.04900968
0.7129269,-0.290567,0.04910999
0.7339778,-0.2739086,0.006551518
0.7568353,-0.203353,-0.02801819
0.8275782,-0.2149791,-0.0590976
0.8913953,-0.1750058,-0.0452616
0.9175947,-0.08971241,-0.03611332
0.9781489,-0.04985645,-0.04198414
0.9905935,0.0065022,-0.01814534
0.9871414,-0.05330468,-0.02185999
1.011341,-0.1461296,-0.02155175
1.055339,-0.1857511,-0.01329067
1.089328,-0.1934735,-0.02151889
1.037627,-0.01805842,-0.004466602
1.011269,0.1301529,0.01200887
1.08332,-0.03656524,0.0461456
1.141499,-0.2773382,0.1092125
1.111162,-0.302766,0.1633432
1.042811,-0.2556959,0.1940703
1.012677,-0.2992897,0.1709161
1.02708,-0.3904292,0.07172482
1.092669,-0.5123945,-0.05298384
1.192222,-0.5302134,-0.03342225
1.383464,-0.454659,0.03927306
1.605049,-0.4113146,-0.01169318
1.518935,-0.2862373,0.00452115
1.180884,-0.1214109,0.03536005
0.8603181,0.02630652,-0.001526954
0.6462319,0.0884613,0.04858199
0.6669716,-0.04196935,0.06510974
0.6675206,-0.1346461,0.09888105
0.5812354,-0.1929728,0.173434
0.7186064,-0.2586056,0.1299881
0.7850896,-0.2142757,0.1317041
0.7639401,-0.2210186,0.1569446
0.8534708,-0.1581727,0.1359406
0.8201955,-0.04650399,0.1545096
0.8352074,-0.06376129,0.1210953
0.9041844,0.03897106,0.08748384
0.9530074,0.1453574,0.1166067
1.165121,0.125627,0.1145193
1.305593,0.04842788,0.05311064
1.343344,-0.09505951,0.005569038
1.386054,-0.1090479,0.07748837
1.392836,-0.1775678,0.1527876
1.34282,-0.3935786,0.1182084
1.202234,-0.5739609,0.1151719
1.184893,-0.8375353,0.1531208
1.17303,-0.8935138,0.1386745
0.9932855,-0.5463975,0.1422786
0.8509144,-0.2219288,0.1663552
0.7958514,-0.1618002,0.1356703
0.8887983,-0.2595101,0.07306365
0.9694516,-0.2806043,-0.01042292
0.9223547,-0.2770753,-0.03802052
0.9075533,-0.3369323,0.02609709
0.8201877,-0.3008314,0.05305827
0.7505318,-0.2665261,0.05335416
0.7762664,-0.2356011,0.04273812
0.7791839,-0.146017,-0.002762185
0.8530674,-0.1476766,-0.01898478
0.9371986,-0.1179525,-0.05627202
0.9724223,-0.04188312,-0.08356714
0.9894415,-0.01908766,-0.05298203
0.9807955,0.05057702,-0.06571229
0.9930279,0.07232015,-0.06626557
0.9750141,0.0134834,-0.0219487
0.9581179,-0.05516714,0.001953125
0.9772576,-0.1815015,0.02277326
1.011899,-0.2470724,0.03620624
1.075946,-0.1492359,0.04509859
1.083088,0.01128772,0.01131921
1.126203,0.08224512,-0.04620659
1.235272,-0.06944981,-0.007335486
1.189028,-0.2885872,0.07631338
1.025281,-0.2991304,0.1508281
0.9061093,-0.2877342,0.1942191
0.9221674,-0.4381527,0.1395819
1.090158,-0.5510202,0.0480595
1.326125,-0.6059283,-0.03743965
1.569014,-0.5937307,-0.06230414
1.606133,-0.4071991,-0.04775903
1.384348,-0.1320403,-0.09823086
1.163962,0.1002869,-0.06316851
0.9303976,0.1319262,0.01775676
0.7012717,0.04204611,0.01085074
0.6460347,-0.01070986,0.0532724
0.6735657,-0.1253335,0.08316108
0.7033221,-0.2441191,0.0945077
0.7125389,-0.2944035,0.1309793
0.7115206,-0.281525,0.1052321
0.728535,-0.1953037,0.1235013
0.7329924,-0.1389511,0.1304047
0.7728083,-0.0729704,0.06931545
0.8456148,-0.01660741,0.04309446
0.9578839,-0.0266321,0.02260605
1.10014,-0.005444442,0.05246006
1.209209,-0.002486659,0.07192892
1.309813,-0.001168937,0.02226432
1.357398,0.02066458,0.01057799
1.40367,-0.05151089,0.01699662
1.455047,-0.2326672,0.02689271
1.340729,-0.5268759,0.03390061
1.22076,-0.833977,0.06343923
1.240493,-0.9526766,0.1181516
1.152178,-0.743757,0.0940254
0.9513956,-0.4249364,0.08466306
0.8696168,-0.3251714,0.1488244
0.810893,-0.1914662,0.1630035
0.8258343,-0.139306,0.08204868
1.000076,-0.3806765,-0.0232942
0.9691524,-0.3819573,-0.01937229
0.8669425,-0.3553169,0.0327783
0.8887526,-0.4429678,0.028059
0.785219,-0.2768343,0.03600884
0.7597506,-0.2225654,0.02112161
0.8201149,-0.1755914,-0.03418803
0.8267533,-0.05166621,-0.06328389
0.8999394,-0.1084088,-0.07777219
0.9095819,-0.06563395,-0.06702318
0.9260939,-0.05216152,-0.0559489
0.9546198,-0.06878163,-0.04908023
0.9088198,-0.008208121,-0.01658051
0.9421268,-0.08901178,-0.0198799
0.9767627,-0.1674401,-0.02967743
1.030488,-0.2486803,-0.007506146
1.10813,-0.264839,0.007917996
1.110306,-0.1492524,0.04125871
1.127411,-0.1238987,0.05667835
1.139681,-0.1309291,0.03399215
1.185917,-0.1583633,0.04086409
1.212696,-0.1874657,0.07057125
1.091577,-0.2014577,0.1036434
1.003131,-0.2845063,0.1085602
1.027813,-0.3833889,0.04470333
1.114324,-0.4961122,-0.01594719
1.292011,-0.5323606,-0.02274096
1.505347,-0.4977872,-0.02964917
1.520028,-0.4220095,-0.03621359
1.304026,-0.2170935,-0.004456479
1.118014,-0.09712834,0.02028694
0.9002241,-0.08568,0.01728001
0.649287,-0.03623715,0.03710915
0.623692,-0.04815752,0.06723319
0.6936082,-0.10557,0.07658455
0.7045245,-0.1598774,0.07859705
0.7392319,-0.2103614,0.08028427
0.7966828,-0.2346154,0.08903432
0.8011366,-0.2347036,0.1051161
0.7823862,-0.1894078,0.1194614
0.7953878,-0.1207774,0.1222029
0.7907152,-0.04443509,0.09883475
0.8325496,0.0146857,0.07198434
0.9522536,0.0232253,0.08048187
1.096866,0.01345745,0.09168359
1.261559,-0.01305027,0.07315567
1.323337,-0.0281549,0.05590232
1.314099,0.0224118,0.005856811
1.37157,0.04498083,-0.06212685
1.405621,-0.1233409,-0.03273065
1.360797,-0.4369054,0.04928602
1.327258,-0.7115489,0.1090284
1.274529,-0.8526732,0.1519221
1.082531,-0.7377505,0.1646467
0.8675989,-0.4169281,0.2074017
0.8125283,-0.1984125,0.2318212
0.8820688,-0.1785405,0.130456
0.9399808,-0.2670687,0.03060173
0.9254989,-0.347387,0.01116141
0.9197852,-0.3979589,0.01750331
0.9014324,-0.4468906,0.02290312
0.8294111,-0.3829786,0.01070288
0.7950949,-0.3058518,0.01677233
0.7775505,-0.2595219,0.01243847
0.7948484,-0.1538744,-0.03095026
0.8685243,-0.1213091,-0.06423655
0.9079992,-0.08732875,-0.08291197
0.9278665,-0.03669586,-0.0680327
0.9217517,-0.04547052,-0.05863041
0.8919929,-0.0065854,-0.06821684
0.8920945,-0.003496007,-0.04420201
0.9088843,-0.03206446,-0.0323844
0.9972126,-0.09849203,-0.02733218
1.153955,-0.2644515,-0.03372199
1.228476,-0.3116205,-0.06214366
1.164299,-0.1686265,-0.04442887
1.121994,-0.0319244,-0.008703537
1.220359,-0.05907075,0.05241294
1.257206,-0.1007228,0.1326165
1.1101,-0.08771035,0.1553703
0.9678211,-0.2183094,0.1602669
0.9746675,-0.4035885,0.1140129
1.118694,-0.580519,0.02841739
1.3384,-0.6940988,0.04309315
1.526991,-0.6133642,0.03276679
1.488378,-0.4589521,-0.05175506
1.289412,-0.201067,-0.0233816
1.130763,0.0122569,0.00701511
0.9074679,-0.006447082,-0.02454935
0.6777326,-0.00202135,0.02484215
0.5509931,-0.0009800714,0.07020972
0.5482379,-0.08089952,0.09102168
0.6963017,-0.1562162,0.1341784
0.7304765,-0.2505702,0.1408915
0.7332622,-0.2476303,0.1465342
0.8085062,-0.2006517,0.1446214
0.788182,-0.1648182,0.1219601
0.8498179,-0.04220992,0.09024748
0.8831964,0.01450229,0.05107931
0.8989314,0.05232127,0.0699051
1.086143,0.1723051,0.09029338
1.15953,0.1416626,0.07610872
1.199771,0.03135552,0.061641
1.29933,0.0282268,0.01996793
1.274048,0.028457,0.02373616
1.238,0.003175895,0.07568838
1.254897,-0.1328992,0.09131073
1.234663,-0.4169324,0.07680778
1.203405,-0.6620344,0.05367259
1.302897,-0.8482562,0.06678514
1.356491,-0.8338731,0.1108915
1.087792,-0.5069706,0.1800264
0.7444899,-0.2220771,0.2555603
0.6840614,-0.171012,0.210364
0.8507249,-0.2411643,0.09548
0.9467175,-0.2998787,0.01104633
0.9560579,-0.3506925,-0.03876563
0.9372465,-0.42821,0.01004344
0.8373254,-0.3775008,0.05118406
0.782823,-0.2886378,0.02581361
0.7524348,-0.214726,0.02358476
0.7704618,-0.08789692,-0.02181445
0.8892251,-0.08593096,-0.06748138
0.9263543,-0.0841636,-0.07002856
0.9320599,-0.03903324,-0.08410296
0.9227927,-0.06667121,-0.0542753
0.8893851,-0.02915605,-0.03660826
0.9379296,-0.0235858,-0.04629269
0.9934262,-0.06481138,-0.02129282
1.066544,-0.09099389,-0.0126564
1.109064,-0.1595448,-0.01357556
1.079049,-0.1407176,-0.01319524
1.062843,-0.03668009,-0.006355961
1.017212,0.03702696,0.01588199
1.061354,-0.03809605,0.03701587
1.17705,-0.1670465,0.08373755
1.163574,-0.1411888,0.1183211
1.095469,-0.1834819,0.1073495
1.022917,-0.3261439,0.09001967
1.016902,-0.4329816,0.08762132
1.136869,-0.5655393,0.0802007
1.318039,-0.5734135,0.04422139
1.496021,-0.5081648,0.001323822
1.442721,-0.436875,-0.03476055
1.22292,-0.2349074,-0.02142154
1.033145,-0.1055074,0.02256573
0.7748317,-0.07039812,0.01976672
0.6277378,-0.003569364,0.02785111
0.6417157,-0.009048421,0.05129889
0.6450997,-0.06853833,0.05132416
0.725156,-0.1359994,0.03152005
0.7961412,-0.1862253,-0.01238865
0.8235791,-0.1887149,0.004303199
0.8473368,-0.1574825,0.05629399
0.8151639,-0.07485529,0.07917508
0.8234974,0.004985845,0.09079072
0.8189718,0.06179494,0.05594394
0.860768,0.111338,0.05641017
1.065081,0.1078501,0.08436637
1.254247,0.06937428,0.04088436
1.393394,0.004354683,0.01717794
1.560325,-0.09969367,0.009203563
1.716552,-0.1837624,0.01620857
1.667713,-0.2255487,0.05918207
1.40457,-0.3369712,0.05199525
1.201887,-0.6092176,0.09658092
1.126454,-0.7967723,0.1749178
1.057112,-0.5993299,0.149666
0.8735252,-0.3037073,0.1579112
0.8129204,-0.2386544,0.1937546
0.9426522,-0.2235983,0.1090263
0.890069,-0.2374206,0.02448813
0.8512625,-0.3214287,0.0475231
0.8604973,-0.3490883,0.05415656
0.7630869,-0.3699973,0.01171353
0.8061328,-0.3411988,0.003116293
0.8117439,-0.2759919,-0.01292609
0.7847588,-0.2452841,-0.03042969
0.8447047,-0.1795999,-0.01471697
0.8251,-0.1553503,-0.02996174
0.859437,-0.1237661,-0.04563959
0.9043281,-0.07324396,-0.04199783
0.9259264,-0.09119667,-0.04740107
0.9714465,-0.0948827,-0.03295126
0.9642206,-0.1560187,-0.0161592
1.051133,-0.2293856,-0.01242823
1.153859,-0.2290705,-0.02797483
1.142955,-0.2166729,-0.05813014
1.084398,-0.08120866,-0.06036126
1.019128,0.08928912,-0.0470182
1.061039,0.0740728,-0.01984405
1.128296,-0.1000359,0.04520654
1.119057,-0.2384423,0.1108279
1.063422,-0.2341728,0.1183381
0.965827,-0.2876762,0.09650767
0.9613669,-0.4559324,0.09732065
1.065152,-0.5551337,0.0795683
1.245121,-0.5724125,0.06114785
1.515479,-0.5128343,0.03564948
1.589232,-0.330078,-0.04188714
1.384841,-0.1073712,-0.04709249
1.163602,0.02620253,-0.006302404
0.9348009,0.04118748,-0.006220869
0.7194935,0.01520564,0.05089476
0.6484671,-0.01054853,0.09745145
0.6571622,-0.08876576,0.08662316
0.6899369,-0.1647538,0.1040096
0.7196344,-0.1597096,0.1137578
0.7197827,-0.1224729,0.1129515
0.7381926,-0.06808467,0.1158594
0.7725017,-0.03707583,0.09658231
0.8317893,-0.03157117,0.05321064
0.926551,0.04359805,0.005120819
1.018475,0.1185915,0.02362687
1.139914,0.08894058,0.07932656
1.298722,0.02636903,0.08441495
1.415388,0.01418904,0.04436703
1.489603,0.005616633,0.001446581
1.5108,-0.08069995,0.03291788
1.359195,-0.3290844,0.08447864
1.190385,-0.6610418,0.07024088
1.241343,-0.7420332,0.08789933
1.237015,-0.617734,0.1172059
0.97698,-0.5363346,0.1445483
0.7928377,-0.3713986,0.2240578
0.8711348,-0.232037,0.1932113
0.9550735,-0.2807505,0.07236562
0.8880468,-0.3085805,0.02514426
0.8591382,-0.3306367,0.03142591
0.8476677,-0.3851848,0.06142845
0.7640587,-0.3647799,0.04717489
0.7775207,-0.3568139,0.02682515
0.7920127,-0.3439382,0.03611923
0.7822673,-0.2806184,-0.01407297
0.8571149,-0.2361187,-0.02972679
0.8616846,-0.1519227,-0.02671497
0.8919688,-0.072009,-0.06625913
0.9797887,-0.06622715,-0.06892867
0.9810201,-0.0351395,-0.08806319
0.9838069,-0.00999776,-0.07806187
0.9808625,-0.06229324,-0.01868126
1.004033,-0.1332057,0.005608502
1.06791,-0.201027,0.02814469
1.077877,-0.241931,0.002145094
1.064986,-0.1863617,-0.03704086
1.017308,-0.04073092,-0.01430769
1.003576,0.07086542,-0.0006498611
1.094148,-0.02613756,0.0273507
1.175053,-0.1963076,0.0952323
1.14682,-0.1990936,0.1544298
1.043578,-0.269344,0.1746006
0.9960713,-0.4371135,0.1532885
1.030132,-0.4944563,0.07670216
1.194647,-0.6084999,-0.03680982
1.456694,-0.6434545,-0.02314567
1.525273,-0.4629419,0.04006692
1.357613,-0.2742729,-0.01316042
1.156766,-0.06859661,-0.005351007
0.9824326,0.0276713,0.015349
0.7807771,0.002673824,-0.02984525
0.6319235,0.01824753,0.0199548
0.6418807,-0.03566081,0.06782361
0.6926722,-0.1372174,0.1120907
0.7385137,-0.2328015,0.1746575
0.7821539,-0.2571552,0.1342758
0.7832988,-0.1806993,0.1174951
0.7990663,-0.162703,0.1313011
0.8044436,-0.1081461,0.09388012
0.8183698,-0.01121621,0.06433555
0.8956029,0.02704118,0.05011224
1.015874,0.1008477,0.07939024
1.185173,0.1117355,0.1017879
1.306444,0.02396352,0.05051608
1.352764,-0.02593543,-0.01146776
1.384812,-0.01964166,-0.02767907
1.366922,-0.05838647,0.01219171
1.347405,-0.2338174,0.04219155
1.355357,-0.4147133,0.03851815
1.334649,-0.6092138,0.08231148
1.229183,-0.8156623,0.1435502
0.9879072,-0.6073649,0.1361401
0.7924263,-0.1803372,0.1482818
0.8023239,-0.1453139,0.212088
0.8522335,-0.2126432,0.1748216
0.8744081,-0.2069569,0.06762995
0.9278268,-0.3680286,0.01173004
0.914919,-0.3990235,0.01633889
0.8273923,-0.3341315,0.05726092
0.7867411,-0.3811958,0.04713152
0.7680376,-0.3216633,0.03419429
0.7446474,-0.2405218,0.04949027
0.7740031,-0.1821942,-0.005547779
0.8412847,-0.1024527,-0.05476187
0.9147942,-0.07724835,-0.07616686
0.9698908,-0.03480877,-0.08290979
0.990011,-0.03859543,-0.05399261
0.9775846,-0.06877034,-0.05398395
0.9682369,-0.08037556,-0.02425995
1.016757,-0.1529825,-0.0006551777
1.084285,-0.2192469,-0.03964583
1.127476,-0.2475782,-0.04505408
1.113252,-0.1526568,-0.03602663
1.038301,0.05041055,-0.01231596
1.018806,0.1153665,0.02441496
1.115104,-0.03419137,0.03604889
1.207604,-0.2227485,0.04482834
1.114729,-0.2617871,0.05355323
0.9843197,-0.3294461,0.08869431
1.032717,-0.4927666,0.106026
1.09896,-0.5015101,0.07184716
1.211417,-0.4975245,0.0509139
1.398401,-0.5273992,0.04658865
1.422906,-0.41137,0.03157005
1.37843,-0.2699583,-0.008330471
1.292183,-0.1336929,-0.02553227
1.049748,-0.02876365,-0.001803163
0.8339184,-0.03203083,0.01547898
0.7061533,-0.04635586,0.0538011
0.641976,-0.07973835,0.09451568
0.6903092,-0.14169,0.1031831
0.7452825,-0.1861801,0.1095464
0.7734125,-0.1976188,0.1115479
0.8080312,-0.1509117,0.1186521
0.796072,-0.1087683,0.1252953
0.8040923,-0.0771874,0.1088379
0.856336,-0.02329937,0.07970678
0.8832468,0.03948795,0.05761154
0.9446732,0.09222093,0.0754216
1.063772,0.0645558,0.09569151
1.21727,-0.01505312,0.05470513
1.355644,-0.07175432,-0.008058965
1.41479,-0.08428612,-0.03987355
1.445385,-0.09681053,-0.01533923
1.4289,-0.2227761,0.05032646
1.370133,-0.4375401,0.08550968
1.283762,-0.6515738,0.09231241
1.078871,-0.6871339,0.133976
0.8558974,-0.4456337,0.2180341
0.75846,-0.2408757,0.251244
0.8342591,-0.2256747,0.1497128
0.9525831,-0.2558243,0.02749049
0.9106388,-0.283983,0.01323901
0.8782113,-0.325698,0.04505686
0.8687703,-0.4102149,0.0543935
0.7712858,-0.4496653,0.07000752
0.7883272,-0.4095393,0.07757639
0.8244777,-0.3441011,0.01712474
0.8123501,-0.244378,-0.04906345
0.8996224,-0.1748651,-0.0520669
0.9495521,-0.1081017,-0.05040179
0.9479434,-0.03754647,-0.0607689
0.9579735,-0.0312667,-0.05662585
0.9385971,-0.02133455,-0.05437372
0.9397419,-0.02039335,-0.04585254
0.969935,-0.05010579,-0.01377939
1.028495,-0.1090923,0.002403349
1.082696,-0.2389033,-0.01760641
1.104674,-0.3426233,-0.03903228
1.124518,-0.3028068,-0.04960877
1.116062,-0.07249076,-0.04515724
1.113464,0.1612007,-0.03703126
1.141405,0.07038986,-0.03882113
1.188015,-0.1568884,-0.01228614
1.232048,-0.2075264,0.04938806
1.134378,-0.217495,0.1119676
0.9574882,-0.2661947,0.1386394
0.9349151,-0.3967064,0.1088444
1.033441,-0.5713405,0.08382003
1.171245,-0.5693171,0.08745812
1.393893,-0.5150894,0.03231996
1.552628,-0.4495411,-0.05634556
1.447833,-0.2652331,-0.06439
1.269643,-0.1156902,-0.04384137
1.170597,-0.04767868,-0.05088714
0.8772967,-0.02175608,-0.006500282
0.5419084,0.02002195,0.05763474
0.6291101,-0.0277646,0.07428261
0.7851145,-0.1923557,0.09934073
0.7025017,-0.1787372,0.1108891
0.7548181,-0.1299732,0.08637698
0.8436142,-0.1471487,0.09962471
0.7942491,-0.07822117,0.1078617
0.8300955,-0.06028957,0.0824397
0.8545849,0.01017809,0.06248064
0.8657451,0.1243331,0.03085829
0.9603752,0.06813485,0.05593623
1.067553,0.01475211,0.1000456
1.260645,0.02776456,0.04643685
1.426616,0.04531498,0.01025528
1.528684,0.07583426,0.02042104
1.573747,-0.03776514,0.003804434
1.3953,-0.3104349,0.01776936
1.226045,-0.5766693,0.07035893
1.189529,-0.7563652,0.1198012
1.118494,-0.7297,0.137858
0.9641427,-0.4679004,0.1445595
0.7793124,-0.2069148,0.1634971
0.7714664,-0.1488743,0.1381418
0.8614402,-0.2100775,0.06686496
0.9034598,-0.243205,-0.01136088
0.9760095,-0.3343597,-0.02644017
0.9569003,-0.4236399,0.02630402
0.8617029,-0.376011,0.03161942
0.8197388,-0.3764409,0.03776706
0.7703868,-0.358125,0.04925807
0.7745941,-0.2374044,0.006064743
0.8456413,-0.1929963,-0.00811081
0.8913503,-0.1357456,-0.04770642
0.9399433,-0.06747373,-0.08457032
0.9482969,-0.05143111,-0.05196402
0.9260768,-0.02040264,-0.06197841
0.9485479,-0.02605512,-0.05112892
0.9671468,-0.05924554,-0.01440606
1.036195,-0.1380967,-0.01365108
1.136383,-0.2333619,-0.001682986
1.131439,-0.2043563,-0.0188178
1.053847,-0.04084169,-0.01281921
1.025632,0.08870568,0.02964098
1.191195,-0.06373171,0.03713708
1.381283,-0.2498776,0.03579065
1.281185,-0.1629241,0.02981087
1.040677,-0.1862127,0.06265026
0.8914222,-0.3790604,0.0983929
0.8924103,-0.4299139,0.07852888
1.01501,-0.509312,0.0753102
1.153128,-0.6536604,0.06177524
1.393756,-0.6353422,0.005194252
1.580551,-0.4673341,-0.06272295
1.474547,-0.2431798,-0.1085113
1.349629,-0.06717814,-0.08870464
1.127243,0.02978265,-0.04540063
0.7549951,0.1049299,-0.01612788
0.6632639,0.1050065,0.009366819
0.6467902,0.01875832,0.0414244
0.6014535,-0.07855535,0.08174114
0.7321196,-0.1832812,0.09268779
0.752298,-0.2300813,0.09057491
0.7125663,-0.1679198,0.1138316
0.7357407,-0.1110554,0.1288012
0.7043572,-0.0653207,0.1185226
0.7740151,-0.02463685,0.0814675
0.8940743,-0.01521583,0.02323101
0.9957727,0.04795104,0.01825566
1.172678,0.06142338,0.07163315
1.335277,0.007503544,0.09569427
1.425672,0.006525882,0.08057638
1.448731,-0.0451273,0.05904954
1.448812,-0.1947915,0.04834314
1.356045,-0.4129555,0.05364857
1.18333,-0.6321062,0.0595146
1.161515,-0.7405769,0.06339794
1.060898,-0.5672961,0.07631126
0.8333034,-0.2075062,0.1286303
0.8833881,-0.2193717,0.1751364
0.9859917,-0.3782762,0.109563
0.948984,-0.3001479,0.03095196
0.9638767,-0.3670472,0.06660374
0.9047382,-0.4248704,0.08814085
0.7987443,-0.400074,0.06188923
0.7762761,-0.4501461,0.0767355
0.7710926,-0.3527609,0.03814079
0.8136005,-0.2746576,-0.04109764
0.8575331,-0.1939869,-0.05132286
0.8797617,-0.08636355,-0.0512128
0.9112749,-0.1239583,-0.04265607
0.9026317,-0.09805739,-0.01139571
0.9023008,-0.07312307,0.0005215383
0.9080136,-0.05360694,0.01278262
0.9527355,-0.009540217,0.0188711
1.06334,-0.08548982,0.00220865
1.095466,-0.1031389,-0.01641688
1.058605,-0.08449988,0.00564155
1.010985,-0.08662322,0.03775185
0.9767523,-0.04340264,0.02004024
1.027563,0.02797421,0.02024752
1.100673,0.09823761,0.04261039
1.138424,-0.07629265,0.06238037
1.153792,-0.3162611,0.1259283
1.045946,-0.2887514,0.1686558
0.8801886,-0.3239639,0.1512457
0.9531751,-0.5257782,0.09939856
1.175788,-0.6005072,0.03562739
1.399471,-0.5852515,0.02491689
1.642967,-0.5122865,-0.001791285
1.599246,-0.2744438,-0.07877991
1.352676,-0.05307687,-0.06125273
1.116498,0.02405011,-0.001409224
0.7564496,0.02824167,0.02253147
0.56848,-0.03722624,0.09246436
0.5770084,-0.1020348,0.1292831
0.5826529,-0.1722146,0.1137897
0.6848011,-0.2405556,0.1310939
0.723811,-0.1969934,0.1245135
0.7395576,-0.124076,0.1165308
0.7827639,-0.07922039,0.1255718
0.7775199,-0.05090073,0.1106855
0.8698645,-0.01597851,0.09374695
0.9643198,0.06975468,0.06631015
1.051202,0.1014433,0.06875054
1.19624,0.08337522,0.07858839
1.293075,0.07610478,0.03250814
1.347023,0.02192405,0.01381863
1.397215,-0.001441573,0.04450096
1.47979,-0.01745235,0.05718417
1.449403,-0.2077848,0.003062315
1.293244,-0.4834903,-0.03806364
1.200264,-0.7063482,0.0681306
1.121004,-0.854564,0.1691379
1.021527,-0.695083,0.132735
0.8949257,-0.3160603,0.1385233
0.8733676,-0.2462157,0.1870791
0.9830728,-0.3345803,0.09835151
0.9647481,-0.3062913,0.004341597
0.9447083,-0.3932986,0.0424148
0.9296558,-0.4277111,0.05386043
0.8135934,-0.3599972,0.03246192
0.7934475,-0.3640319,0.05085065
0.7803636,-0.2814388,0.02677177
0.7627604,-0.2010088,-0.01109672
0.8139164,-0.1577413,-0.02387571
0.8428777,-0.1043384,-0.03578942
0.9006569,-0.1251218,-0.02770465
0.9431352,-0.1125565,-0.02865608
0.9700274,-0.09766013,-0.03625481
1.011869,-0.08161777,-0.03009086
1.028192,-0.03323444,-0.03778414
1.085538,-0.05865806,-0.04476297
1.119706,-0.1078453,-0.04529068
1.097138,-0.1456018,-0.04987756
1.06835,-0.1039971,-0.05149557
1.030921,0.01077149,-0.03981565
1.053144,0.01941024,0.02312135
1.13887,-0.1049086,0.1150037
1.186287,-0.265826,0.1414802
1.069756,-0.310237,0.1124059
0.9069846,-0.3102879,0.1071764
0.9558102,-0.437993,0.08675112
1.139279,-0.5437046,0.03508227
1.374852,-0.5529002,0.03297678
1.549762,-0.4894975,0.03404671
1.407419,-0.3139047,0.01313083
1.18725,-0.1199509,0.0294166
1.057571,0.001085436,0.03133452
0.810402,0.01919261,0.02458272
0.6545632,-0.003257981,0.04350331
0.6734592,-0.03547224,0.06259092
0.6882755,-0.1496155,0.1042571
0.7559953,-0.2461938,0.1274053
0.7822175,-0.2581511,0.1241732
0.7597858,-0.2346522,0.1460297
0.7806924,-0.1981662,0.1514207
0.7773894,-0.1853028,0.1322686
0.8127146,-0.1264585,0.08202248
0.8657538,-0.02684535,0.0066005
0.910163,0.007291328,0.003942801
1.056393,0.02572034,0.0533934
1.256133,0.07194036,0.0653305
1.318464,0.06664559,0.05737232
1.267279,-0.006760393,0.06120294
1.400687,-0.06525212,0.0792445
1.550513,-0.126954,0.09450595
1.441962,-0.2674083,0.07751194
1.381244,-0.4968698,0.06245068
1.36628,-0.6980155,0.08801246
1.102224,-0.6824071,0.132604
0.7590232,-0.4948393,0.2169302
0.6949482,-0.2777193,0.287881
0.8889106,-0.2058626,0.1792902
0.9976153,-0.3047803,0.01699795
0.9673184,-0.3176422,0.03619902
0.923321,-0.3666763,0.07905968
0.8556924,-0.4853805,0.0474326
0.8097039,-0.4424995,0.06297448
0.8140426,-0.3985326,0.04803024
0.8420242,-0.3318073,0.002466426
0.8714332,-0.2142837,-0.002665493
0.8885109,-0.1687513,-0.03387579
0.9043655,-0.09871385,-0.04692588
0.9396534,-0.0896295,-0.03065709
1.009899,-0.1095459,-0.03437527
