accx,accy,accz
1.019669,-0.2842424,-0.0820759
1.010707,-0.2564713,-0.08082855
1.085746,-0.387973,-0.06399687
1.21635,-0.5222549,0.006301058
1.28792,-0.5454132,0.01979545
1.277225,-0.592864,-0.1042796
1.305887,-0.7119857,-0.2773692
1.371943,-0.7378633,-0.3204047
1.278313,-0.6874205,-0.3460769
1.044868,-0.6403493,-0.4679129
0.7702668,-0.4370127,-0.4546992
0.6081313,-0.1605591,-0.3628896
0.682926,-0.1161447,-0.3662345
0.8075926,-0.3062307,-0.3457007
0.9012725,-0.547646,-0.3083357
0.9245019,-0.6601279,-0.2662043
0.7985887,-0.5462724,-0.2141193
0.730353,-0.3472063,-0.2602038
0.7560678,-0.2279638,-0.3003337
0.7981022,-0.1697601,-0.2853008
0.899232,-0.1791234,-0.2944785
0.9386854,-0.227555,-0.276134
0.9199802,-0.2284904,-0.2502137
0.8935077,-0.2262317,-0.2169039
0.8472681,-0.1982993,-0.1728001
0.8960244,-0.1729071,-0.1935021
1.002488,-0.2412751,-0.2107485
1.065949,-0.2902892,-0.1855781
1.047873,-0.2625765,-0.1721666
1.008775,-0.1757881,-0.1701768
1.076803,-0.07360916,-0.1986041
1.175943,-0.08208732,-0.2452256
1.274057,-0.2491484,-0.2671176
1.303185,-0.4714742,-0.3241663
1.092194,-0.5354544,-0.4257225
0.807555,-0.487718,-0.4398778
0.7455512,-0.5332217,-0.3598723
1.037759,-0.5927823,-0.301833
1.39821,-0.5684349,-0.3206432
1.395042,-0.4761498,-0.3955857
1.209899,-0.3232373,-0.42683
1.028707,-0.2032741,-0.3473202
0.7566906,-0.1981537,-0.2107784
0.5961304,-0.2300141,-0.149654
0.5754287,-0.2545219,-0.1852502
0.5525894,-0.3272616,-0.1974587
0.6085385,-0.3965704,-0.1931276
0.6846316,-0.3932487,-0.1891279
0.7184679,-0.3467672,-0.1616708
0.7646152,-0.3216766,-0.1672342
0.7906377,-0.3614089,-0.1551741
0.8554181,-0.4241599,-0.1008854
0.9783984,-0.4398362,-0.08408502
1.041177,-0.3670476,-0.09303527
1.048442,-0.2626462,-0.09840275
1.053128,-0.2668155,-0.08595533
1.08531,-0.3965099,-0.02676249
1.152457,-0.5033442,0.05573055
1.203811,-0.5092684,0.01619402
1.300926,-0.6064807,-0.2737202
1.42456,-0.8248863,-0.5944587
1.324231,-0.8266,-0.6305987
0.9976729,-0.6115595,-0.5431105
0.7021782,-0.4224123,-0.5259656
0.6196563,-0.3216903,-0.4186651
0.7390574,-0.3821718,-0.3203083
0.8404974,-0.4669781,-0.2967179
0.896081,-0.4943114,-0.2092516
0.8988827,-0.5622408,-0.2274368
0.7563337,-0.4879757,-0.2453943
0.7106448,-0.3248814,-0.2015028
0.7288842,-0.2310398,-0.2859335
0.7041888,-0.1433117,-0.2815499
0.8114025,-0.1583657,-0.2664184
0.8851182,-0.2139141,-0.3027684
0.9039531,-0.2547762,-0.2246992
0.9125018,-0.2758265,-0.2087942
0.8703679,-0.1680889,-0.1869231
0.9334308,-0.121831,-0.1686163
0.9855255,-0.1916899,-0.2006242
1.022991,-0.2668778,-0.1188779
1.057279,-0.2947823,-0.07481718
1.014417,-0.1705692,-0.08665662
1.098367,-0.04626853,-0.1270495
1.216323,-0.07182625,-0.1990087
1.287247,-0.243269,-0.2032167
1.290266,-0.4402545,-0.2906261
1.050503,-0.4604979,-0.4276323
0.7498976,-0.4346132,-0.4641514
0.6677148,-0.5304594,-0.4497595
0.9639382,-0.6611923,-0.4393587
1.420967,-0.6969026,-0.4675819
1.551464,-0.5493915,-0.4652599
1.233465,-0.3045251,-0.3915533
0.7551701,-0.1674368,-0.2350457
0.5896182,-0.1762892,-0.0932999
0.6549994,-0.2292169,-0.1567751
0.6240051,-0.3079452,-0.2342381
0.6320869,-0.3633288,-0.1893582
0.6645014,-0.352208,-0.1704312
0.6770551,-0.3230646,-0.123445
0.7258807,-0.2782452,-0.085537
0.7383255,-0.2771052,-0.123646
0.7560306,-0.3261904,-0.1008621
0.8163445,-0.3725006,-0.0813695
0.9340129,-0.4138337,-0.110209
1.044399,-0.3812796,-0.10973
1.059379,-0.3341419,-0.1258995
1.06231,-0.3567031,-0.1086058
1.109029,-0.404138,-0.04398875
1.178876,-0.464403,0.0001162436
1.190871,-0.4840529,0.01236515
1.169879,-0.5153809,-0.1008262
1.208638,-0.6474588,-0.3184586
1.20214,-0.7315509,-0.4988525
1.049126,-0.6604565,-0.559058
0.8016911,-0.4554815,-0.4946457
0.6775867,-0.1968372,-0.4251731
0.7603943,-0.1184631,-0.3686461
0.8489791,-0.3266763,-0.2836754
0.8995572,-0.586958,-0.2295938
0.8813115,-0.6588087,-0.1911938
0.7609351,-0.5414271,-0.1804296
0.7158708,-0.3514012,-0.2356792
0.7254259,-0.2186085,-0.2764254
0.7266234,-0.1859727,-0.2807317
0.7899532,-0.2057182,-0.2761013
0.8763376,-0.221821,-0.2606558
0.9410833,-0.2088501,-0.2422033
0.9274219,-0.2214689,-0.2134206
0.9005708,-0.2156741,-0.2003324
0.9414108,-0.1767093,-0.1997546
0.9501269,-0.2128387,-0.2039783
0.9752458,-0.2527698,-0.2239382
1.010776,-0.2682609,-0.1699235
1.013927,-0.2433839,-0.09413004
1.088715,-0.1090109,-0.1197723
1.167866,-0.03340049,-0.1796705
1.231254,-0.1271565,-0.2505308
1.262313,-0.3372809,-0.3224328
1.142803,-0.5351407,-0.3744973
0.9230181,-0.5854547,-0.4635362
0.7190778,-0.5702954,-0.4979833
0.7630861,-0.6008336,-0.398698
1.099615,-0.6256135,-0.3331369
1.349781,-0.5484374,-0.4067348
1.26989,-0.379773,-0.4544996
0.9765161,-0.1964184,-0.3474055
0.725385,-0.1385318,-0.2197275
0.6107492,-0.2488897,-0.1891142
0.6093658,-0.3161453,-0.2137494
0.6570483,-0.3451926,-0.2238379
0.6611747,-0.3781258,-0.1817827
0.70373,-0.3096819,-0.1390733
0.7350301,-0.2693389,-0.1155259
0.7173739,-0.2665792,-0.08641472
0.7694262,-0.2742511,-0.08952837
0.8319889,-0.3515793,-0.1009405
0.9461498,-0.3782366,-0.09858152
1.044324,-0.3379817,-0.1076688
1.023501,-0.2791276,-0.1090394
1.04404,-0.2795229,-0.1003071
1.0932,-0.3941543,-0.05571649
1.163857,-0.4999094,0.03204339
1.226309,-0.5519122,0.04434294
1.215541,-0.6009777,-0.1428276
1.258388,-0.7275388,-0.4392604
1.250391,-0.8146091,-0.5864982
1.011166,-0.6235163,-0.5589624
0.6949689,-0.3105169,-0.5033538
0.6325121,-0.1521232,-0.4066395
0.793458,-0.1895922,-0.3085561
0.8712859,-0.3722827,-0.2916689
0.9037765,-0.5905754,-0.2405781
0.8431374,-0.6230071,-0.1599788
0.6759014,-0.4446046,-0.1923329
0.701962,-0.2926961,-0.2552091
0.7810056,-0.1904313,-0.2889975
0.8075519,-0.1584713,-0.3237651
0.8976967,-0.2421598,-0.2823878
0.8969705,-0.2752321,-0.2241128
0.8796232,-0.2667616,-0.2033609
0.9334674,-0.2306248,-0.1797034
0.9790215,-0.1689854,-0.2200784
1.038062,-0.1955927,-0.2422886
1.0329,-0.2340537,-0.1574942
1.009319,-0.2294435,-0.08680438
1.042935,-0.1551523,-0.103826
1.104904,-0.053524,-0.1954728
1.229951,-0.09128876,-0.2731934
1.273461,-0.1796488,-0.2956917
1.175793,-0.3266969,-0.3572303
1.072292,-0.5606273,-0.4554827
0.9815561,-0.5637157,-0.4390528
0.9255792,-0.5257656,-0.3040698
0.8852498,-0.7143915,-0.2434452
0.9186338,-0.6987871,-0.2928534
1.168492,-0.5190766,-0.4036824
1.379529,-0.404947,-0.5059335
1.24039,-0.2317551,-0.4326278
0.8735939,-0.2495948,-0.2325107
0.5745227,-0.3076846,-0.09026032
0.5578811,-0.2239318,-0.1212624
0.6560358,-0.3070857,-0.2068059
0.6105456,-0.3120148,-0.1639641
0.642145,-0.2496073,-0.1613055
0.7664311,-0.3105175,-0.1735175
0.7536548,-0.2832102,-0.08955266
0.7604987,-0.3273996,-0.07948283
0.7963464,-0.3852229,-0.06121575
0.8607718,-0.3287342,-0.04277751
1.028245,-0.3154691,-0.09723302
1.064207,-0.2858923,-0.08270853
1.09414,-0.3525255,-0.07837973
1.241265,-0.5113848,-0.06034991
1.266124,-0.5556267,0.03773425
1.245614,-0.5291265,0.06295064
1.267742,-0.5086446,-0.01986789
1.245588,-0.5326533,-0.1758573
1.113157,-0.5413377,-0.3919175
0.8983781,-0.5354372,-0.6509991
0.7984422,-0.5135325,-0.6710928
0.8063755,-0.3296516,-0.3913991
0.761024,-0.1580148,-0.2770299
0.7438237,-0.2408158,-0.2673605
0.817845,-0.4602209,-0.2107294
0.8297309,-0.6350074,-0.1963485
0.8020475,-0.6673926,-0.1326751
0.8041806,-0.4877718,-0.2222498
0.7672636,-0.2325368,-0.3441971
0.7758299,-0.1494714,-0.2979681
0.8205552,-0.1958109,-0.3032875
0.854049,-0.2167504,-0.2731294
0.9162275,-0.196616,-0.2519978
0.9201558,-0.1924072,-0.2498496
0.9256487,-0.1967193,-0.1749282
0.9716506,-0.1594485,-0.2029549
0.9780937,-0.1782773,-0.1901855
0.9773221,-0.2151671,-0.08080918
0.973144,-0.1925215,-0.02171143
1.003585,-0.1455479,-0.04479422
1.087453,-0.04226284,-0.1613937
1.184692,-0.03964116,-0.2104275
1.250488,-0.1631155,-0.201154
1.20894,-0.320384,-0.257621
1.08023,-0.522847,-0.3932514
0.9106358,-0.5569673,-0.5236889
0.8439574,-0.5214113,-0.4810016
0.9780106,-0.6374545,-0.3871302
1.200236,-0.6857827,-0.3761336
1.490643,-0.5836832,-0.4672299
1.571907,-0.4043928,-0.5828511
1.172041,-0.2130844,-0.4249289
0.7341293,-0.133484,-0.1887925
0.5915078,-0.1565761,-0.1805935
0.582669,-0.2162412,-0.1968564
0.5873726,-0.2946786,-0.1905328
0.6053627,-0.3701076,-0.1947056
0.6712794,-0.3738105,-0.1426697
0.7283871,-0.3141011,-0.09428189
0.7467526,-0.2816196,-0.08384271
0.7632963,-0.2825364,-0.103157
0.8073263,-0.33815,-0.1075127
0.920821,-0.3963789,-0.102545
0.9824453,-0.3679365,-0.1281266
0.9655627,-0.3547447,-0.1265497
1.01135,-0.3994716,-0.09347513
1.124359,-0.4703208,-0.03130712
1.252313,-0.5452598,0.05202347
1.288296,-0.5318609,0.06010285
1.271043,-0.5120693,-0.09523925
1.342879,-0.6024283,-0.3565468
1.353225,-0.6707385,-0.5082072
1.1597,-0.6226344,-0.5555203
0.8363302,-0.4462264,-0.5461506
0.6076426,-0.19036,-0.4103859
0.6754325,-0.1408866,-0.3326127
0.8428002,-0.3690935,-0.3168355
0.9158606,-0.6075061,-0.2374435
0.9170637,-0.6944464,-0.1852428
0.807908,-0.5386376,-0.1674895
0.71708,-0.2764749,-0.2199665
0.7198089,-0.1572978,-0.2746822
0.7500036,-0.131124,-0.2594956
0.8454361,-0.1881558,-0.2594908
0.9141946,-0.281364,-0.2186237
0.9157577,-0.25845,-0.1915118
0.8968863,-0.2164796,-0.1862157
0.8820577,-0.181925,-0.1531475
0.9546907,-0.1545232,-0.1884362
1.024149,-0.2083008,-0.193733
1.025495,-0.2468636,-0.141961
1.025348,-0.2456822,-0.1141358
1.073855,-0.186583,-0.1137866
1.181107,-0.08913386,-0.1348553
1.230511,-0.1097773,-0.1344524
1.245052,-0.2035016,-0.2237329
1.262336,-0.3357818,-0.3921301
1.106067,-0.5088029,-0.4769296
0.8079708,-0.588572,-0.4920757
0.7056643,-0.6057398,-0.4498852
0.9477753,-0.6106998,-0.4101469
1.283726,-0.5456688,-0.4296304
1.446697,-0.4282354,-0.442558
1.320014,-0.2959744,-0.4252604
1.014828,-0.2187959,-0.3375172
0.751628,-0.2080558,-0.1743401
0.5817142,-0.2083451,-0.1003721
0.6102251,-0.2621181,-0.1794736
0.6921357,-0.3370231,-0.2160574
0.6594474,-0.3735677,-0.1685578
0.7426198,-0.3798116,-0.1549333
0.7967087,-0.3316516,-0.1187157
0.7478452,-0.2976093,-0.07997077
0.790419,-0.3071886,-0.09340614
0.819982,-0.3240126,-0.08177051
0.9063223,-0.3464775,-0.07882133
0.9909031,-0.3220597,-0.1044899
0.9726603,-0.306286,-0.09890904
1.045544,-0.3525217,-0.05459802
1.147944,-0.4078522,0.01148533
1.210641,-0.4375323,0.03291813
1.211733,-0.4001034,0.01931687
1.195458,-0.41836,-0.02131594
1.337005,-0.6430148,-0.2327836
1.390858,-0.843292,-0.4688036
1.076456,-0.6870848,-0.4408076
0.6537911,-0.368516,-0.3722911
0.5458356,-0.214196,-0.391824
0.6742387,-0.1726999,-0.2903044
0.7779254,-0.3332908,-0.2755313
0.9256014,-0.5652461,-0.3475525
0.926542,-0.5456643,-0.2371903
0.7874006,-0.5600337,-0.195257
0.809393,-0.5175362,-0.2282775
0.7565311,-0.2309386,-0.232753
0.7227541,-0.1658539,-0.3131233
0.8534093,-0.2085295,-0.2720481
0.8764197,-0.1841047,-0.217236
0.9181076,-0.2591238,-0.2383486
0.9171648,-0.2279911,-0.173765
0.8616486,-0.1670269,-0.1683895
0.9474998,-0.1854806,-0.1941146
0.9856104,-0.1853102,-0.1917215
1.039388,-0.254644,-0.1679733
1.095929,-0.2574588,-0.0739196
1.074033,-0.1468387,-0.05457794
1.128617,-0.05055926,-0.1093457
1.160205,-0.01952485,-0.1765228
1.239719,-0.1935238,-0.2515497
1.293688,-0.435623,-0.3239944
1.077561,-0.5379918,-0.4413731
0.8206602,-0.5566713,-0.5268144
0.7786043,-0.5904204,-0.5212515
1.05803,-0.6618066,-0.4295738
1.361488,-0.611276,-0.3506069
1.293793,-0.4224288,-0.3781318
1.064411,-0.224702,-0.3660671
0.8627684,-0.1208315,-0.294545
0.7199852,-0.2080492,-0.2502353
0.6948688,-0.2896978,-0.2270277
0.6586098,-0.3188993,-0.2173473
0.6260689,-0.3787118,-0.1769281
0.6718053,-0.3182968,-0.1346779
0.7046642,-0.2693355,-0.1135139
0.7493213,-0.2828851,-0.09602431
0.8094834,-0.2869515,-0.1172513
0.844162,-0.3892347,-0.1371777
0.9260758,-0.4189964,-0.1179652
0.9951875,-0.3537125,-0.0953556
1.005683,-0.3226394,-0.07950468
1.016188,-0.2955756,-0.06100556
1.034075,-0.3756449,-0.03236018
1.135926,-0.4930859,-0.003578185
1.279143,-0.5455847,-0.05352126
1.356984,-0.6178438,-0.2100256
1.378724,-0.6914546,-0.3458665
1.264224,-0.7050751,-0.4233055
1.054877,-0.6812468,-0.5072936
0.9327068,-0.6366595,-0.5007083
0.789666,-0.3698016,-0.3730145
0.6073611,-0.07526045,-0.3198553
0.7673677,-0.26021,-0.3386499
1.027441,-0.5300149,-0.2836174
0.8706876,-0.5193471,-0.1959688
0.7419214,-0.5454099,-0.1482401
0.7632945,-0.4552704,-0.1963667
0.6360353,-0.2017693,-0.2862605
0.7013817,-0.1744844,-0.3006352
0.8352492,-0.2435462,-0.2866847
0.8518476,-0.2559826,-0.2642972
0.9603479,-0.2931858,-0.2514329
0.9478964,-0.2446942,-0.2426881
0.9148965,-0.160531,-0.1927292
0.9769871,-0.1466704,-0.1850921
0.9633649,-0.174086,-0.179743
1.000568,-0.2267302,-0.1259803
1.020918,-0.2276567,-0.08601595
1.041385,-0.1517208,-0.08318908
1.157929,-0.07681298,-0.1645893
1.225674,-0.1262351,-0.2620532
1.264642,-0.3041319,-0.3146936
1.20984,-0.4824021,-0.3891138
1.006903,-0.5855057,-0.475954
0.7575422,-0.5800776,-0.4958444
0.6776807,-0.6029213,-0.40435
0.9759886,-0.6559722,-0.3298477
1.30274,-0.5449209,-0.3752584
1.362634,-0.3767584,-0.4194403
1.268897,-0.2646369,-0.3949853
1.050169,-0.1956916,-0.3236185
0.8209527,-0.1530914,-0.2259655
0.7147865,-0.1613203,-0.1914855
0.6806771,-0.2880734,-0.2111885
0.6336538,-0.3463623,-0.1916684
0.6504304,-0.3582924,-0.1794979
0.7210934,-0.4142093,-0.16349
0.7204938,-0.331512,-0.1131562
0.7683838,-0.2853743,-0.1156766
0.800707,-0.3297899,-0.1153727
0.8012432,-0.3356981,-0.09153027
0.9248474,-0.3823361,-0.09375755
0.9990067,-0.3650182,-0.08797927
1.03439,-0.3135843,-0.1067761
1.050589,-0.3118738,-0.1099274
1.039394,-0.3339515,-0.05408169
1.153627,-0.4042936,0.007635278
1.219503,-0.4105952,0.02714862
1.214749,-0.4294217,-0.04909984
1.266038,-0.5679657,-0.1871309
1.292155,-0.7071463,-0.3610784
1.171052,-0.7430758,-0.5237526
0.8985046,-0.6140797,-0.5793069
0.7486913,-0.4282096,-0.4940364
0.7393653,-0.2539948,-0.3105733
0.7757076,-0.1920981,-0.2453555
0.8997012,-0.3980481,-0.2797443
0.9345021,-0.5936277,-0.2137717
0.8666659,-0.5631376,-0.1779123
0.7698051,-0.405567,-0.2378989
0.7110547,-0.237487,-0.2883161
0.779855,-0.227722,-0.2884538
0.8429243,-0.2831518,-0.2635723
0.8874018,-0.2566227,-0.2631737
0.9183122,-0.2397333,-0.2283608
0.9017531,-0.1990889,-0.1829786
0.9235038,-0.1187988,-0.1829629
0.956903,-0.1220092,-0.1817515
0.9908682,-0.1830855,-0.1695145
1.011628,-0.216846,-0.1384114
1.013518,-0.2114046,-0.1217066
1.074988,-0.1441468,-0.1207216
1.146239,-0.06060973,-0.1289479
1.195168,-0.06851479,-0.1636008
1.253037,-0.1774675,-0.1610335
1.259778,-0.3120614,-0.1922746
1.183976,-0.3862988,-0.3093794
1.064294,-0.4229127,-0.3787318
0.8506425,-0.5121316,-0.3636472
0.6066436,-0.6139645,-0.3486705
0.7219644,-0.6230899,-0.3776929
1.211158,-0.5177507,-0.4018044
1.519359,-0.3619376,-0.4335466
1.398531,-0.2388224,-0.453764
1.086488,-0.2096571,-0.3564292
0.8167568,-0.2056348,-0.2271462
0.6457282,-0.1823189,-0.1714774
0.6476234,-0.2713057,-0.2038421
0.6964273,-0.3638832,-0.2500703
0.6314232,-0.3622003,-0.2070266
0.7024299,-0.3945231,-0.1731411
0.7673315,-0.3588567,-0.1233752
0.7181639,-0.3039371,-0.05051769
0.8235245,-0.3584507,-0.08936229
0.8422113,-0.397927,-0.0991777
0.8792591,-0.4125565,-0.07809867
1.023924,-0.3731694,-0.1168182
0.9969581,-0.3100418,-0.1183089
1.016319,-0.3504412,-0.1176749
1.055235,-0.4359661,-0.07917188
1.118383,-0.4971629,0.01277758
1.240817,-0.4756193,0.01738316
1.216075,-0.4350879,-0.07943885
1.259559,-0.514045,-0.2692631
1.287259,-0.6178768,-0.4721269
1.108323,-0.6416324,-0.5343198
0.8696048,-0.5368482,-0.4923495
0.6662366,-0.3214786,-0.4460961
0.650535,-0.2012199,-0.3937399
0.7887134,-0.2397456,-0.3575344
0.9486902,-0.3940735,-0.3296688
0.9903624,-0.6032012,-0.2270997
0.8664369,-0.610623,-0.1576392
0.7817461,-0.4218766,-0.204126
0.7622876,-0.2714084,-0.2321815
0.7761995,-0.1852665,-0.2422337
0.8119604,-0.1894904,-0.2480577
0.8447625,-0.2429709,-0.2220163
0.9179102,-0.2561797,-0.224693
0.9347516,-0.2498768,-0.2080597
0.9222254,-0.2009305,-0.1747531
0.9703221,-0.1650012,-0.1911456
1.011487,-0.1874941,-0.1938418
1.033496,-0.2075967,-0.1630369
1.021168,-0.2142485,-0.1086673
1.016823,-0.1641732,-0.06725611
1.077322,-0.06789669,-0.1531758
1.182242,-0.04826636,-0.2840912
1.317928,-0.196842,-0.3075255
1.327506,-0.4348196,-0.3299467
1.129148,-0.5547062,-0.4109397
0.8879574,-0.5611564,-0.4392687
0.7314544,-0.5938601,-0.4050135
0.7040333,-0.6545177,-0.3342452
0.8896859,-0.6762925,-0.3012529
1.298067,-0.602718,-0.400497
1.515,-0.4522807,-0.4911032
1.205261,-0.283762,-0.4104531
0.827839,-0.1793708,-0.2396122
0.7344814,-0.2175059,-0.1303703
0.6642136,-0.2913576,-0.1360321
0.601294,-0.3094699,-0.1868517
0.6503864,-0.3354161,-0.1901297
0.670394,-0.3400327,-0.1839851
0.7321033,-0.3223729,-0.17374
0.8485552,-0.3331265,-0.1161589
0.8226346,-0.3331205,-0.1047081
0.8208436,-0.3520797,-0.08609251
0.9335912,-0.3755664,-0.03107916
0.9491002,-0.3527138,-0.06595524
0.9502892,-0.3283165,-0.07254598
1.00316,-0.3017348,-0.05371753
0.9999899,-0.322198,-0.09037248
1.05446,-0.424835,-0.08134008
1.213843,-0.5185185,-0.07473096
1.311181,-0.549873,-0.1138328
1.328985,-0.5892282,-0.2805867
1.357642,-0.7316982,-0.5229364
1.297152,-0.7889062,-0.5210259
0.992822,-0.5886868,-0.4015181
0.6169813,-0.3339726,-0.3609309
0.5378694,-0.1826478,-0.273391
0.7365446,-0.1778473,-0.2662439
0.899069,-0.3431365,-0.3358762
0.9706394,-0.567491,-0.2843023
0.9307305,-0.6434199,-0.2327563
0.7808827,-0.4672676,-0.2050103
0.7527976,-0.2691883,-0.2028152
0.7832438,-0.2212192,-0.2717042
0.7873712,-0.2236479,-0.2351467
0.8636169,-0.2469515,-0.2074837
0.8878628,-0.262738,-0.2475962
0.904239,-0.240668,-0.2075525
0.9537129,-0.2121845,-0.2109372
0.963933,-0.1928348,-0.2017681
1.013251,-0.2251084,-0.1516194
1.011991,-0.2706754,-0.1302202
0.9750391,-0.2551993,-0.0726301
0.9880933,-0.1815005,-0.109124
1.009295,-0.08409525,-0.1852193
1.117533,-0.08507855,-0.2128012
1.266203,-0.2653829,-0.2823324
1.30238,-0.4648384,-0.3152371
1.113122,-0.516346,-0.373867
0.802754,-0.5316179,-0.4771713
0.7214957,-0.6218713,-0.4679756
0.9123398,-0.6982672,-0.3867755
1.199248,-0.7199649,-0.3443795
1.370963,-0.6082112,-0.3827764
1.187309,-0.3370356,-0.402737
0.8821947,-0.1729656,-0.3015178
0.7918129,-0.2068956,-0.185475
0.7472421,-0.2770467,-0.1664393
0.6824912,-0.3164198,-0.1956996
0.6974898,-0.3237195,-0.1875798
0.6700922,-0.3386145,-0.175527
0.6658169,-0.3305984,-0.176727
0.7403398,-0.2538852,-0.1330804
0.7563041,-0.1975044,-0.08450026
0.7539137,-0.2177319,-0.07963288
0.7647735,-0.2763921,-0.08379732
0.8427646,-0.3335446,-0.07271055
0.9888001,-0.3799992,-0.07680056
1.060975,-0.3731467,-0.1006694
1.094532,-0.3481957,-0.0977931
1.095627,-0.4007114,-0.07433544
1.088243,-0.4901742,-0.03431673
1.170433,-0.6009565,-0.01573198
1.252059,-0.6820423,-0.1524157
1.278154,-0.7269685,-0.4222072
1.226918,-0.7927329,-0.5966566
1.031416,-0.6693599,-0.5473756
0.7686399,-0.4008907,-0.4237365
0.6585812,-0.2305905,-0.3497297
0.7463975,-0.1602688,-0.2909204
0.7940928,-0.2571328,-0.2936069
0.8160577,-0.4147012,-0.2852577
0.8810945,-0.4873446,-0.213512
0.806564,-0.4658684,-0.226552
0.7134097,-0.3330291,-0.2367275
0.707824,-0.2890207,-0.2063482
0.7201639,-0.3012752,-0.2346593
0.8306198,-0.2715575,-0.2371726
0.9251664,-0.2939917,-0.2429551
0.9329552,-0.2606079,-0.2572013
0.941674,-0.2190506,-0.2214718
0.9417069,-0.1950072,-0.2070034
0.9706546,-0.1531137,-0.1974563
1.003527,-0.201546,-0.175074
1.007513,-0.2132632,-0.1228573
0.9902373,-0.1639052,-0.03976931
0.9944194,-0.142424,-0.06008921
1.132861,-0.1712771,-0.2001007
1.297763,-0.3258169,-0.3470667
1.278417,-0.506348,-0.4309944
1.034465,-0.5855296,-0.4907809
0.7499487,-0.5871852,-0.5527888
0.724754,-0.6138425,-0.5237666
1.045541,-0.6243828,-0.4445464
1.427915,-0.5673775,-0.4058236
1.49289,-0.5442464,-0.4034814
1.303727,-0.4113259,-0.4219845
1.084855,-0.1904363,-0.3572408
0.8144743,-0.1594505,-0.2341545
0.6214159,-0.247097,-0.1703104
0.5953538,-0.3078227,-0.1645712
0.5846901,-0.3440919,-0.2078245
0.6123768,-0.3924542,-0.2138213
0.7019375,-0.414397,-0.1907188
0.7399236,-0.3796968,-0.1858293
0.7458782,-0.3527053,-0.121221
0.7445703,-0.3254762,-0.06833642
0.7406218,-0.337628,-0.05452236
0.7952735,-0.3607009,-0.043536
0.9031945,-0.3163938,-0.07254981
1.029904,-0.2898127,-0.115389
1.080887,-0.2936189,-0.1460965
1.080971,-0.340575,-0.09289882
1.164479,-0.4615456,0.01137005
1.21061,-0.5901413,0.02788808
1.213751,-0.7101524,-0.1032495
1.293308,-0.8361619,-0.4017389
1.268448,-0.8848139,-0.646248
1.023159,-0.688003,-0.6233313
0.7212762,-0.3752918,-0.4685404
0.6271712,-0.2386555,-0.337913
0.7500397,-0.2311998,-0.2638266
0.8214058,-0.3394393,-0.246613
0.8574982,-0.5458348,-0.2291147
0.8768252,-0.560828,-0.2017705
0.7747629,-0.3882542,-0.2361086
0.7406185,-0.2326576,-0.2660953
0.7798278,-0.1563169,-0.248203
0.8221688,-0.1959976,-0.2563784
0.9279277,-0.2407546,-0.2457558
0.9325053,-0.2449771,-0.2189192
0.8869856,-0.2558568,-0.1930108
0.90685,-0.1943244,-0.1569185
0.9150008,-0.1408687,-0.17285
0.9598223,-0.170168,-0.179
0.9901367,-0.2229249,-0.1560047
0.9839081,-0.2844472,-0.143164
1.01837,-0.2527801,-0.1160326
1.083903,-0.1282249,-0.1295982
1.175004,-0.05359759,-0.1540397
1.230296,-0.120762,-0.1516818
1.245538,-0.3029413,-0.2277842
1.178566,-0.4475467,-0.4004826
0.940318,-0.5545419,-0.5459427
0.7545024,-0.6180071,-0.5457461
0.881344,-0.5586334,-0.4764842
1.25421,-0.5038664,-0.4903279
1.604099,-0.4763264,-0.5665575
1.636889,-0.4111999,-0.6048099
1.284182,-0.3582717,-0.4473092
0.8036618,-0.2830881,-0.107079
0.51156,-0.2196782,0.04637144
0.5646094,-0.2548198,-0.08581451
0.6637817,-0.2766073,-0.2118893
0.5547718,-0.261888,-0.2348671
0.643646,-0.3195839,-0.2139022
0.8146379,-0.3543761,-0.1597748
0.7726993,-0.312027,-0.1176062
0.8312327,-0.2881141,-0.1106765
0.8163478,-0.2908793,-0.09450359
0.7820153,-0.3195634,-0.07364855
0.9383337,-0.3571489,-0.06657199
0.9719358,-0.3732421,-0.06156979
0.9596429,-0.3471246,-0.07362249
0.9565866,-0.3171185,-0.07994505
1.053287,-0.3969276,-0.05734946
1.248862,-0.5079182,-0.02737102
1.24959,-0.554528,-0.03925911
1.287812,-0.6221529,-0.1807279
1.365086,-0.7567466,-0.4268281
1.266309,-0.8107337,-0.5691695
0.9988,-0.588288,-0.5001158
0.6322968,-0.2937789,-0.3987937
0.5542143,-0.2064485,-0.3343273
0.7314244,-0.2445584,-0.2595048
0.8523679,-0.3776329,-0.2771849
0.9336802,-0.5582591,-0.2799239
0.9156878,-0.5628796,-0.2125552
0.8134878,-0.3961836,-0.2214864
0.7633973,-0.2527753,-0.2235934
0.7558214,-0.1892964,-0.2314106
0.7968786,-0.1917964,-0.2625947
0.8775113,-0.227944,-0.239684
0.8910801,-0.2461265,-0.2479008
0.9020228,-0.2715101,-0.2375361
0.9356246,-0.2519687,-0.2024529
0.9112843,-0.1751165,-0.1964959
0.9300267,-0.1541283,-0.1615751
0.9618559,-0.1785649,-0.1492954
0.9640136,-0.2271059,-0.1218276
0.9922269,-0.2459053,-0.0635248
1.023001,-0.1919204,-0.07147239
1.120507,-0.1439979,-0.1168077
1.232315,-0.1315668,-0.1719918
1.284681,-0.219017,-0.2183683
1.286717,-0.382327,-0.2674159
1.143151,-0.4738344,-0.3639397
0.9105159,-0.4677184,-0.4778517
0.7731363,-0.447156,-0.515822
0.8256535,-0.4952709,-0.4174668
1.03161,-0.523488,-0.3458795
1.238984,-0.4744391,-0.384411
1.245767,-0.40002,-0.3767258
1.039697,-0.2861414,-0.3214896
0.8732847,-0.2361685,-0.2725616
0.78076,-0.2805394,-0.232901
0.7045488,-0.3132984,-0.2252253
0.6822784,-0.3576141,-0.2022621
0.6347237,-0.3901391,-0.1669119
0.632056,-0.3417435,-0.1271363
0.6917625,-0.2751469,-0.07866713
0.7364173,-0.2654374,-0.09079515
0.8099475,-0.3032565,-0.1176661
0.855612,-0.365722,-0.1069292
0.9013721,-0.3972897,-0.09827604
0.952073,-0.3477206,-0.07682247
0.9449961,-0.2909116,-0.07016221
0.9649185,-0.2931612,-0.0811017
1.050507,-0.3713466,-0.05425058
1.211873,-0.5041953,-0.03806056
1.313452,-0.5727881,-0.05846116
1.284487,-0.5730374,-0.1285268
1.323885,-0.6391821,-0.3033244
1.345074,-0.7230486,-0.4688215
1.128198,-0.6660337,-0.4682581
0.7969834,-0.498284,-0.4009708
0.6089691,-0.284213,-0.4046004
0.6091889,-0.1368147,-0.408539
0.7496267,-0.2291325,-0.3905759
0.9801818,-0.3704827,-0.3803182
1.020817,-0.4113721,-0.3242461
0.8502024,-0.4567489,-0.2442417
0.7402733,-0.4485053,-0.1720858
0.6893479,-0.4266258,-0.1746394
0.7294424,-0.3437421,-0.2509969
0.8373465,-0.1608736,-0.2686498
0.8753879,-0.1488294,-0.2894465
0.896903,-0.2077266,-0.280137
0.9013323,-0.1918267,-0.1891859
0.9110489,-0.2016703,-0.1820939
0.9123075,-0.1794616,-0.1835764
0.8869681,-0.1673336,-0.1622749
0.9544422,-0.2027856,-0.1894566
1.013293,-0.2521189,-0.177605
1.01738,-0.2904706,-0.1362327
1.035356,-0.2415333,-0.09805231
1.060356,-0.1416786,-0.1440301
1.152426,-0.06572319,-0.2289825
1.235176,-0.1380853,-0.2104744
1.248021,-0.3235175,-0.2437175
1.178941,-0.420036,-0.3738668
0.9816238,-0.4832458,-0.5033063
0.7613008,-0.5622648,-0.547411
0.6866776,-0.6331254,-0.4092165
0.9218759,-0.6838533,-0.3171261
1.289068,-0.6093758,-0.3952229
1.405408,-0.4762629,-0.4303561
1.230688,-0.3427467,-0.3746581
0.9360423,-0.2167235,-0.2670075
0.7454913,-0.2298527,-0.1384624
0.7022055,-0.2691185,-0.1281396
0.679722,-0.2338331,-0.2221448
0.6723056,-0.2639483,-0.2467338
0.7001246,-0.3123513,-0.230116
0.7511299,-0.3273889,-0.2069957
0.7913748,-0.3547929,-0.1243776
0.8128773,-0.3512659,-0.07602808
0.8007724,-0.3630374,-0.05088506
0.7912995,-0.3911996,-0.03395369
0.8782614,-0.3559458,-0.06815683
0.9668647,-0.3201264,-0.06942953
0.9840977,-0.3199179,-0.08539357
0.988391,-0.3531148,-0.1040656
1.072847,-0.4329826,-0.05245343
1.218795,-0.4760815,-0.008831776
1.229878,-0.443798,0.006981227
1.20538,-0.4422947,-0.08874054
1.287817,-0.5586777,-0.3095679
1.296504,-0.6692617,-0.5003945
1.091389,-0.6104475,-0.5757966
0.7373858,-0.4388736,-0.5134213
0.5812852,-0.2736518,-0.4355441
0.7446174,-0.2412196,-0.3716815
0.8902263,-0.4032366,-0.2587337
0.9418027,-0.558038,-0.2303052
0.9553536,-0.560405,-0.2393325
0.8701953,-0.4554974,-0.2009344
0.8014099,-0.2686117,-0.2349784
0.7804462,-0.1197253,-0.2660528
0.7629452,-0.1205449,-0.2365822
0.8156151,-0.2035406,-0.2174511
0.8734353,-0.2646268,-0.1867242
0.8876222,-0.2560613,-0.1865435
0.9003669,-0.2231832,-0.1996148
0.8996529,-0.1978312,-0.1746132
0.9037788,-0.1643718,-0.1834851
0.9212197,-0.1603494,-0.1925174
0.9691873,-0.211218,-0.166249
1.027985,-0.2732247,-0.1384936
1.044659,-0.2647174,-0.09600592
1.079978,-0.1933782,-0.09022409
1.145493,-0.1413849,-0.1216776
1.202818,-0.1389366,-0.1344447
1.244383,-0.2044689,-0.1566756
1.228319,-0.3110781,-0.2097817
1.130001,-0.4070384,-0.3614569
0.9481908,-0.4783336,-0.5651085
0.7601219,-0.5604768,-0.5688949
0.7162346,-0.6931009,-0.4101496
0.907811,-0.7291382,-0.3391271
1.201426,-0.6049096,-0.3674596
1.274737,-0.4727334,-0.3849841
1.117354,-0.2520255,-0.348657
0.998949,0.0307813,-0.3169426
0.9543538,0.005524852,-0.3036955
0.8698774,-0.2168641,-0.2400369
0.7073719,-0.3100862,-0.1517461
0.6092107,-0.3969807,-0.1003806
0.6937029,-0.4011296,-0.1325227
0.7722954,-0.3023296,-0.1800765
0.7934519,-0.3555293,-0.1607186
0.8465063,-0.3636682,-0.1518664
0.8551594,-0.3399312,-0.1253453
0.8453297,-0.39311,-0.08675718
0.8283874,-0.3411428,-0.07668948
0.8089081,-0.3429919,-0.02904395
0.8617905,-0.324635,-0.04137198
0.9093348,-0.257439,-0.09000709
0.9439531,-0.3479149,-0.09231639
1.007134,-0.4121165,-0.1119203
1.10505,-0.4532353,-0.07221035
1.203016,-0.4610928,-0.005943909
1.204509,-0.4247993,-0.01985467
1.24973,-0.5117945,-0.128243
1.32424,-0.5969544,-0.318756
1.22267,-0.6490518,-0.4213064
1.014248,-0.5892096,-0.4204338
0.7526128,-0.3575658,-0.4251275
0.6271034,-0.1881151,-0.3988908
0.7918028,-0.1811816,-0.365997
0.9296896,-0.3761035,-0.3130299
0.9285175,-0.6095102,-0.2214082
0.9149956,-0.6547733,-0.18802
0.8559009,-0.5225163,-0.2188913
0.8045539,-0.3191696,-0.2736078
0.805689,-0.2452175,-0.3047781
0.8204908,-0.2442138,-0.2829407
0.8662333,-0.2341076,-0.2576388
0.9197536,-0.2601796,-0.2347309
0.9376542,-0.2050127,-0.2016351
0.9175753,-0.1452047,-0.167519
0.9012305,-0.1247714,-0.1487472
0.9106408,-0.1039274,-0.1612475
0.9186342,-0.1574099,-0.1646857
0.9449108,-0.218074,-0.1392058
0.9631259,-0.2712148,-0.1208013
0.9644213,-0.2751572,-0.1292347
1.012127,-0.2272274,-0.1465077
1.06056,-0.2283602,-0.162744
1.092524,-0.1999025,-0.1725492
1.136471,-0.1878806,-0.1355217
1.165612,-0.2385541,-0.09912414
1.195169,-0.3026268,-0.1642599
1.198792,-0.4047118,-0.3134619
1.096675,-0.4393343,-0.4632085
0.9165899,-0.4666171,-0.5212237
0.8042949,-0.5894958,-0.4827051
0.8351725,-0.6354711,-0.4264797
0.9358594,-0.5703025,-0.3468702
1.028119,-0.4530254,-0.2925208
1.053117,-0.2751044,-0.3141887
0.7319556,-0.3778376,-0.134697
0.7697914,-0.3633479,-0.1623419
0.8169001,-0.3218562,-0.1510659
0.8322352,-0.3552337,-0.1425738
0.8320725,-0.3527213,-0.1258799
0.8277545,-0.3451966,-0.06921039
0.8478468,-0.3501194,-0.04252901
0.8972199,-0.2953039,-0.04961175
0.9633337,-0.2826052,-0.0731204
1.021944,-0.3205607,-0.09381115
1.088948,-0.4113258,-0.09311943
1.206939,-0.5171426,-0.07455009
1.251971,-0.5158735,-0.08279372
1.248167,-0.5464972,-0.2242027
1.284069,-0.6881954,-0.4267324
1.190628,-0.7528037,-0.5047781
0.9804852,-0.6360244,-0.4796999
0.745176,-0.4156421,-0.4040297
0.5895868,-0.1954144,-0.3012029
0.7035986,-0.1162792,-0.3238247
0.8713941,-0.30117,-0.3814129
0.9116548,-0.5489439,-0.2907962
0.9015368,-0.6094142,-0.2162434
0.8031609,-0.4982163,-0.187735
0.7395816,-0.3158492,-0.1929841
0.757725,-0.1927433,-0.2883809
0.7842382,-0.1696108,-0.2855019
0.8636969,-0.2234405,-0.2447332
0.8870202,-0.2940887,-0.2452947
0.8660919,-0.2749429,-0.2062333
0.8756235,-0.2307656,-0.2137352
0.8660543,-0.2015653,-0.1989745
0.9193016,-0.1864911,-0.1842715
0.9978503,-0.2328249,-0.2032558
1.016169,-0.2534442,-0.1428438
1.022992,-0.2381553,-0.1163242
1.075174,-0.192309,-0.1414163
1.194799,-0.1221793,-0.1786748
1.274986,-0.1527126,-0.2172476
1.285205,-0.2343414,-0.20735
1.271907,-0.3503274,-0.2608501
1.188309,-0.4927316,-0.3819935
0.980823,-0.5019038,-0.4869971
0.71531,-0.5202043,-0.5268458
0.6817454,-0.6428139,-0.4676018
0.9611511,-0.6636924,-0.4122882
1.225688,-0.6126792,-0.4083833
1.220337,-0.4803629,-0.3935765
0.9936953,-0.1952084,-0.3412535
0.7962854,-0.07389226,-0.271814
0.7466906,-0.1819729,-0.2122835
0.74695,-0.2653251,-0.2004595
0.7205327,-0.3573791,-0.2272051
0.7039381,-0.3943916,-0.2179494
0.755171,-0.316668,-0.1837872
0.7981263,-0.3196137,-0.138454
0.7991899,-0.3383069,-0.09756387
0.8049985,-0.3117113,-0.09304891
0.8065848,-0.3306765,-0.07229168
0.8319455,-0.3140243,-0.05060369
0.8706834,-0.2799742,-0.04577621
0.9145146,-0.2788201,-0.05818504
0.9642666,-0.3051075,-0.09561692
1.018623,-0.4145602,-0.0902546
1.156667,-0.5229378,-0.07119048
1.276299,-0.5640976,-0.07031723
1.273359,-0.582754,-0.103932
1.276758,-0.6347783,-0.2628892
1.272666,-0.7114141,-0.4540483
1.104852,-0.6578779,-0.4981198
0.8094126,-0.4699743,-0.4515058
0.6427798,-0.2575454,-0.4624703
0.7075106,-0.1648914,-0.4539964
0.8285114,-0.30437,-0.3525035
0.9207586,-0.4337204,-0.282618
0.9342595,-0.4533034,-0.2687916
0.8296753,-0.4634248,-0.235028
0.7716919,-0.4206645,-0.1655754
0.7864424,-0.390568,-0.1739317
0.7831065,-0.2717358,-0.2609959
0.789833,-0.09687305,-0.2624553
0.7962702,-0.169862,-0.2518094
0.8415812,-0.2910224,-0.2411536
0.9186077,-0.3025169,-0.1975047
0.928219,-0.3148183,-0.2215156
0.9096645,-0.2419704,-0.2018468
0.9146487,-0.1595787,-0.1559531
0.9572966,-0.1544918,-0.1582498
1.022201,-0.186711,-0.1418345
1.055343,-0.2592151,-0.1412224
1.052503,-0.2667692,-0.1365823
1.055881,-0.1922152,-0.1588202
1.125422,-0.150905,-0.1902472
1.212324,-0.2298844,-0.1514899
1.219287,-0.3973973,-0.1595655
1.130336,-0.4639832,-0.2841516
0.9530951,-0.432954,-0.461243
0.7748114,-0.4719754,-0.5208827
0.7891547,-0.585329,-0.4620808
1.06573,-0.6576462,-0.470421
1.338654,-0.6063477,-0.4577273
1.307569,-0.4349764,-0.3877721
1.016559,-0.1789503,-0.3540917
0.7435969,-0.05892295,-0.2822696
0.6767078,-0.2025815,-0.2095272
0.6947148,-0.3549985,-0.1849969
0.6391264,-0.4434457,-0.1523795
0.6033223,-0.4636072,-0.1575958
0.6473747,-0.3669046,-0.1725734
0.7131733,-0.3214162,-0.1383941
0.7971484,-0.2896372,-0.1304515
0.8292206,-0.287218,-0.1408405
0.8196822,-0.3754817,-0.1337373
0.873067,-0.3537869,-0.1300883
0.887151,-0.3167562,-0.1068017
0.9093534,-0.311827,-0.08812054
1.004192,-0.2754701,-0.08801113
1.012499,-0.3520683,-0.07824787
1.059284,-0.4312063,-0.05909739
1.169758,-0.4626207,-0.02470711
1.195441,-0.5109026,-0.04490561
1.265677,-0.6051889,-0.2420588
1.38071,-0.8218789,-0.5859167
1.339791,-0.8631712,-0.7614907
1.001344,-0.5906892,-0.5907283
0.6159101,-0.3286926,-0.3929749
0.6411209,-0.279058,-0.3067524
0.84753,-0.3899941,-0.2161892
0.8660027,-0.4822822,-0.2103155
0.8668138,-0.5423798,-0.2077508
0.8400136,-0.5029193,-0.1740005
0.7363536,-0.3143894,-0.2366914
0.7412812,-0.219257,-0.2614367
0.7712002,-0.2058606,-0.2554906
0.8016133,-0.2504512,-0.2701277
0.8896879,-0.3556239,-0.2342458
0.899065,-0.3150096,-0.2270089
0.8866621,-0.2337849,-0.2076881
0.9186489,-0.1744724,-0.1847238
0.9662678,-0.1353138,-0.2082001
1.013798,-0.2241741,-0.1805567
0.9958826,-0.2677268,-0.1184632
0.992219,-0.2454593,-0.03401183
1.039784,-0.2113234,-0.01566245
1.130338,-0.1454911,-0.1051706
1.26925,-0.1897917,-0.135342
1.281781,-0.2748416,-0.1516635
1.160587,-0.3243423,-0.2779492
1.023658,-0.3660288,-0.4557196
0.8249155,-0.3941361,-0.5332644
0.7156455,-0.5086437,-0.5152986
0.8920657,-0.6892456,-0.4968742
1.087191,-0.8322874,-0.4329044
1.147095,-0.7725856,-0.4675436
1.229829,-0.5020657,-0.5460167
1.064013,-0.255015,-0.4106737
0.6751348,-0.06272132,-0.2785967
0.6427634,-0.1324584,-0.2295666
0.7249219,-0.3596418,-0.2021638
0.6092183,-0.3386223,-0.2385847
0.6262351,-0.4328488,-0.2067195
0.70798,-0.4832049,-0.1861221
0.7870226,-0.2766491,-0.1949198
0.8831822,-0.3510283,-0.1662154
0.8435603,-0.3676292,-0.1787753
0.8365856,-0.2823201,-0.1225739
0.8488879,-0.3753019,-0.0497214
0.8431339,-0.2991982,-0.05272705
0.9510944,-0.2811932,-0.05834402
1.021379,-0.3161228,-0.09907227
1.034186,-0.2865494,-0.1123637
1.046785,-0.4039101,-0.05702886
1.08659,-0.4581715,-0.007340464
1.18875,-0.5356326,-0.05458882
1.285101,-0.669356,-0.2644326
1.337758,-0.7355476,-0.5619389
1.208598,-0.7810817,-0.7721279
1.064572,-0.7253921,-0.7479198
1.088116,-0.6788915,-0.643098
0.9067639,-0.4591071,-0.4899354
0.6469448,-0.1464332,-0.2391425
0.7273696,-0.260703,-0.2621721
0.8158643,-0.4264494,-0.3167158
0.7202777,-0.3718297,-0.1238624
0.7315087,-0.3351055,-0.187893
0.747783,-0.2009984,-0.2897798
0.7337034,-0.1140913,-0.2098294
0.8660084,-0.2155442,-0.2781568
0.9156957,-0.2451601,-0.2621811
0.8967717,-0.2369171,-0.1971103
0.928678,-0.2328476,-0.2204061
0.9027912,-0.1544043,-0.1593119
0.9384466,-0.1431536,-0.1901907
0.9721322,-0.1705705,-0.2179955
0.9751868,-0.183949,-0.1365484
1.045542,-0.212288,-0.1138363
1.078933,-0.1591067,-0.1000051
1.138267,-0.1033143,-0.1575148
1.218776,-0.1466637,-0.2223048
1.261641,-0.2898601,-0.2038941
1.28072,-0.4894166,-0.2632111
1.224464,-0.5556223,-0.3509518
1.106686,-0.5144656,-0.413488
0.941144,-0.5735924,-0.4847428
0.9099244,-0.6446552,-0.4941011
1.014258,-0.5849464,-0.4439724
1.064581,-0.4629816,-0.3977992
1.165364,-0.3081787,-0.3257354
1.132985,-0.2346233,-0.2692293
0.8680759,-0.2901533,-0.2846119
0.725329,-0.267338,-0.2156795
0.7407502,-0.2851825,-0.1587263
0.7730635,-0.393779,-0.2197361
0.7380586,-0.3595191,-0.2006352
0.7173792,-0.3165682,-0.1859471
0.7698564,-0.3116828,-0.1794415
0.7282949,-0.2800348,-0.08240047
0.7277019,-0.3100876,-0.0439865
0.7879859,-0.3241903,-0.0666117
0.820231,-0.3458132,-0.08706429
0.9382618,-0.3810543,-0.06944431
0.9782551,-0.3295337,-0.05666698
0.9770356,-0.3036454,-0.09610166
1.020578,-0.3579688,-0.09361787
1.044455,-0.4603738,-0.07880658
1.187474,-0.569732,-0.06703359
1.286601,-0.6026314,-0.1031092
1.318557,-0.6395891,-0.3186737
1.372907,-0.7139933,-0.5957781
1.113753,-0.6643185,-0.6663531
0.6940395,-0.4751571,-0.4978056
0.6208421,-0.2850468,-0.3996217
0.8065992,-0.2230321,-0.395863
0.9226658,-0.361393,-0.2895318
0.9534616,-0.5430824,-0.2178935
0.9111912,-0.584083,-0.1986147
0.7886393,-0.4487961,-0.1954394
0.7545991,-0.2042073,-0.2538598
0.7795861,-0.1046388,-0.2784655
0.7925086,-0.1405907,-0.2819817
0.8522908,-0.1785542,-0.2635324
0.8866651,-0.3041649,-0.2278506
0.8891222,-0.3471034,-0.2236852
0.8857226,-0.2864122,-0.2111161
0.8922827,-0.27668,-0.2191857
0.9365467,-0.2357414,-0.2254789
0.9645859,-0.2444329,-0.2197115
0.9934974,-0.2988594,-0.2192555
1.036477,-0.2857245,-0.1664453
1.082158,-0.2133027,-0.1324535
1.117011,-0.08960887,-0.1663459
1.148126,-0.1031717,-0.2223956
1.252895,-0.3040825,-0.290437
1.277136,-0.494368,-0.3846924
1.034426,-0.5929541,-0.4935342
0.7508357,-0.6410758,-0.5174631
0.7789368,-0.7054288,-0.4496454
1.062305,-0.7289329,-0.3935177
1.273989,-0.6787347,-0.3964568
1.289963,-0.5326133,-0.4126711
1.103731,-0.2499048,-0.3769356
0.8491582,-0.09957517,-0.3113208
0.7049132,-0.1927015,-0.2059601
0.6437776,-0.3293372,-0.1026243
0.647884,-0.4581491,-0.09748078
0.6331683,-0.4814138,-0.1283947
0.6063908,-0.4064903,-0.1521533
0.6812099,-0.3777966,-0.169474
0.7748241,-0.3116619,-0.1762465
0.8486018,-0.2773167,-0.1616638
0.8320195,-0.3657209,-0.08686277
0.7926196,-0.3726793,-0.05108136
0.889747,-0.3180796,-0.08622437
0.9644385,-0.2963839,-0.1090069
1.00435,-0.2893798,-0.1295421
1.042452,-0.3746326,-0.127721
1.060897,-0.4597718,-0.09153231
1.154254,-0.4662671,-0.04795972
1.199598,-0.46256,-0.03741889
1.22649,-0.518353,-0.1502883
1.332146,-0.7239857,-0.4079621
1.313907,-0.8662798,-0.6365421
1.045359,-0.6849663,-0.5900015
0.6759202,-0.3799905,-0.4053004
0.6005077,-0.2578141,-0.3411054
0.7898518,-0.3028326,-0.3114275
0.8516893,-0.4244652,-0.2812713
0.8721955,-0.6098226,-0.2330213
0.8689513,-0.6425819,-0.1695624
0.7630373,-0.4510398,-0.2223642
0.7505159,-0.2363348,-0.2506118
0.7691914,-0.1013472,-0.2304432
0.7799666,-0.1029245,-0.2666977
0.8455169,-0.1693725,-0.2418378
0.8778357,-0.2252776,-0.2208777
0.9075944,-0.2795881,-0.2418198
0.9209354,-0.2837653,-0.2260649
0.9128484,-0.2711292,-0.2066613
0.9266633,-0.246955,-0.1769738
0.9249798,-0.2176304,-0.1606237
0.9746407,-0.2388795,-0.1220827
1.092428,-0.2472256,-0.05144396
1.199308,-0.1884532,-0.06914529
1.219736,-0.07776657,-0.1505305
1.180798,-0.02756012,-0.2309791
1.194772,-0.1863622,-0.3046539
1.162944,-0.4668545,-0.3956223
0.986428,-0.6285809,-0.5152989
0.7517162,-0.635648,-0.5265799
0.7063753,-0.6645222,-0.4270529
1.037429,-0.7456949,-0.3928682
1.400186,-0.7325633,-0.4153669
1.391457,-0.5555769,-0.4158497
1.061998,-0.2211109,-0.3814077
0.7594524,0.05257913,-0.3193828
0.7377257,-0.06121323,-0.2546297
0.7225329,-0.3113801,-0.1658699
0.597474,-0.3591745,-0.1241924
0.6405087,-0.3754629,-0.184706
0.7179405,-0.334708,-0.2107113
0.7434149,-0.2741708,-0.1645177
0.8177307,-0.3221513,-0.1148569
0.7889806,-0.3011225,-0.08217064
0.767796,-0.3268636,-0.0752692
0.8511223,-0.3635856,-0.07510516
0.9154953,-0.2932183,-0.08198216
1.01422,-0.3071715,-0.1157581
1.050125,-0.3477814,-0.1423202
1.066236,-0.490855,-0.1074846
1.179106,-0.6605224,-0.03700409
1.192693,-0.6203124,-0.02439058
1.200499,-0.618459,-0.1516686
1.233723,-0.6732943,-0.4130043
1.103357,-0.6301308,-0.5999123
0.8985205,-0.5076549,-0.5565964
0.7077578,-0.2829974,-0.4513508
0.6575444,-0.1147044,-0.3926826
0.7617049,-0.158607,-0.3249798
0.8610079,-0.3191005,-0.3049284
0.935587,-0.449509,-0.2892575
0.8782001,-0.4792404,-0.2062404
0.7441965,-0.4757067,-0.1669361
0.7277469,-0.4696433,-0.1903171
0.7482431,-0.2815043,-0.2581909
0.7713201,-0.08135561,-0.3289206
0.8073936,-0.1657545,-0.3122919
0.8340452,-0.2546921,-0.2800483
0.8986288,-0.2638625,-0.2487359
0.930877,-0.3169599,-0.2047718
0.9133098,-0.248551,-0.2021573
0.9502874,-0.1497794,-0.192908
0.9990377,-0.1506286,-0.1771508
0.9969704,-0.1656657,-0.1501755
1.019617,-0.1787289,-0.06414193
1.075011,-0.1674604,-0.03047865
1.097677,-0.1233999,-0.1376153
1.161054,-0.1171236,-0.2390579
1.279445,-0.2511852,-0.2327499
1.293378,-0.4749702,-0.285828
1.128059,-0.5599303,-0.4519275
0.8560234,-0.5480431,-0.5270097
0.7243223,-0.6344474,-0.4773077
0.9083105,-0.70538,-0.4466643
1.204942,-0.6531333,-0.4437913
1.329066,-0.5017005,-0.4265394
1.133911,-0.2293141,-0.3903479
0.7995477,-0.01178251,-0.2904784
0.6921266,-0.02466984,-0.1894467
0.6992305,-0.1671631,-0.1674109
0.6449129,-0.367349,-0.1529936
0.6458464,-0.5209457,-0.1417176
0.65798,-0.4497581,-0.1507626
0.7232267,-0.3208719,-0.1372451
0.8257407,-0.2996212,-0.1272369
0.7919725,-0.2743778,-0.1215148
0.7750219,-0.3065816,-0.09346767
0.8403258,-0.3639508,-0.07073677
0.9075755,-0.3435384,-0.09097426
1.004284,-0.3509828,-0.1250313
1.03283,-0.3469198,-0.1148929
1.020517,-0.3792787,-0.08370262
1.099247,-0.4661426,-0.004725607
1.187665,-0.4731303,0.07494138
1.231238,-0.5690066,-0.08058298
1.340746,-0.7953811,-0.41699
1.39213,-0.89213,-0.6512239
1.065384,-0.6745535,-0.677976
0.6352757,-0.3384103,-0.5150419
0.6126292,-0.2368021,-0.3324384
0.7496439,-0.2552406,-0.2650197
0.7885368,-0.3782812,-0.22581
0.9272535,-0.6394865,-0.2033229
0.9747114,-0.6446973,-0.2196913
0.8255522,-0.419477,-0.2103108
0.7666717,-0.1882646,-0.1923541
0.7312467,0.01310919,-0.1998947
0.7212767,0.004850554,-0.2258138
0.8161652,-0.1445195,-0.253572
0.8495045,-0.2851362,-0.2480248
0.868392,-0.385664,-0.2284702
0.8725033,-0.350104,-0.2287257
0.8813672,-0.2689764,-0.2282716
0.9929226,-0.2013939,-0.21765
1.053398,-0.1504911,-0.1852748
1.090283,-0.164576,-0.1123292
1.133834,-0.1096421,-0.07411026
1.131003,-0.0553448,-0.1488239
1.202611,-0.1467851,-0.2423927
1.280701,-0.2504657,-0.241743
1.242845,-0.3869023,-0.2617403
1.136106,-0.564195,-0.445604
1.026602,-0.5825192,-0.6143958
0.8471732,-0.5859686,-0.5424628
0.6971451,-0.7519579,-0.4182308
0.9752861,-0.7623722,-0.444981
1.419796,-0.6151705,-0.4717
1.401497,-0.5200636,-0.456621
1.096108,-0.2337804,-0.4097177
0.843796,0.04506892,-0.2910195
0.6857061,-0.008901436,-0.2664369
0.7110636,-0.2040846,-0.2365411
0.7226402,-0.4440983,-0.1283604
0.6255602,-0.5106691,-0.1574287
0.6567721,-0.3687718,-0.1694144
0.7123227,-0.3048223,-0.1180811
0.7416638,-0.2858953,-0.1186251
0.7915245,-0.3026087,-0.08050406
0.7957668,-0.3412823,-0.08019036
0.8841478,-0.3151177,-0.0983236
0.9709349,-0.2922258,-0.08696973
0.9811529,-0.272962,-0.1081552
1.008522,-0.2988161,-0.08316437
1.059691,-0.4139581,-0.03947312
1.219752,-0.5081526,-0.01560155
1.319014,-0.530332,-0.03861243
1.327027,-0.5956479,-0.2174065
1.388181,-0.7266097,-0.447157
1.210672,-0.694391,-0.5521061
0.8448212,-0.4938146,-0.5565494
0.695986,-0.3463405,-0.5052093
0.7508089,-0.2903593,-0.3526221
0.816224,-0.3291785,-0.2296006
0.8508608,-0.4241687,-0.2321446
0.8671419,-0.5534519,-0.2019899
0.7990278,-0.6470702,-0.1777072
0.705265,-0.5167217,-0.2199215
0.7052112,-0.3436689,-0.2475535
0.7532876,-0.2646219,-0.2720761
0.8262991,-0.2035813,-0.2562079
0.898066,-0.2452806,-0.2265792
0.9199528,-0.2484685,-0.2181811
0.9119131,-0.193991,-0.1788303
0.9035118,-0.1919129,-0.1479211
0.9190905,-0.1510953,-0.139761
0.934633,-0.1831505,-0.1447464
0.962917,-0.2589061,-0.1367848
1.033936,-0.2553055,-0.09505151
1.113524,-0.2081779,-0.08124408
1.188933,-0.1091066,-0.1080612
1.227943,-0.1214957,-0.1461011
1.240919,-0.280763,-0.180146
1.256204,-0.4162218,-0.2728258
1.175045,-0.4661573,-0.41918
0.8785432,-0.4987158,-0.4866181
0.5417476,-0.640692,-0.5365634
0.665317,-0.703214,-0.5688378
1.212935,-0.6604128,-0.5181136
1.536928,-0.7233454,-0.5451967
1.410884,-0.5943397,-0.5492207
1.09693,-0.217099,-0.4120849
0.8668099,-0.008596717,-0.2958845
0.7347571,-0.1207022,-0.2016169
0.6671543,-0.4016102,-0.1490816
0.6450181,-0.539665,-0.1131682
0.5718905,-0.475448,-0.06864105
0.6339799,-0.3560902,-0.1116567
0.7368562,-0.2549813,-0.1074644
0.7298543,-0.1973161,-0.09494791
0.8029947,-0.1641418,-0.1211663
0.7981337,-0.2294332,-0.05986582
0.8374986,-0.2863536,-0.04478757
0.9643284,-0.2731635,-0.05388444
0.9511156,-0.3126975,-0.06709542
1.012688,-0.3380949,-0.1175962
1.100222,-0.4268341,-0.06428341
1.23109,-0.5341748,-0.01737423
1.345934,-0.5438902,-0.03556402
1.255278,-0.6124682,-0.1068466
1.264266,-0.7091514,-0.3045529
1.222866,-0.7619723,-0.5024177
0.9674946,-0.6527638,-0.5832533
0.7471787,-0.3820491,-0.5222757
0.685675,-0.2346659,-0.3934136
0.8031734,-0.2344986,-0.278181
0.8514911,-0.4012443,-0.1941094
0.8629367,-0.6729643,-0.1783764
0.891587,-0.7247499,-0.15132
0.804106,-0.6115857,-0.1460335
0.7569602,-0.4616719,-0.206656
0.6853285,-0.2384623,-0.2257944
0.6764148,-0.1515126,-0.2575014
0.8092154,-0.2002225,-0.2843971
0.8325834,-0.1863736,-0.2721746
0.8896137,-0.2146862,-0.2710789
0.9386352,-0.2210435,-0.2122125
0.9015965,-0.1367394,-0.1573352
0.9576317,-0.140784,-0.1591151
0.9639779,-0.1437085,-0.1603324
0.9732363,-0.1527929,-0.1499648
1.052694,-0.2190196,-0.1032208
1.109904,-0.1927784,-0.07938682
1.205748,-0.1565717,-0.1150744
1.252527,-0.1544403,-0.1652636
1.281197,-0.2428602,-0.2159426
1.281367,-0.4526552,-0.3205424
1.105745,-0.5467736,-0.4863234
0.8978502,-0.5680702,-0.542015
0.7804082,-0.6526306,-0.4893557
0.802098,-0.7282689,-0.4545067
0.9964038,-0.6777815,-0.4142996
1.188232,-0.4116176,-0.3914458
1.115145,-0.1036782,-0.3845563
0.8751053,0.04795307,-0.3535253
0.7747307,0.03806697,-0.3150398
0.7293064,-0.144468,-0.2735795
0.6997444,-0.4362231,-0.237515
0.6937208,-0.5536925,-0.2172313
0.6569415,-0.4532482,-0.2045848
0.7453746,-0.4208603,-0.1536824
0.7856867,-0.357955,-0.0814379
0.7475063,-0.2421471,-0.06607369
0.7981427,-0.2910728,-0.08921334
0.8242396,-0.3279174,-0.09933499
0.9181039,-0.3358898,-0.1009669
0.9980335,-0.334694,-0.1219536
0.9741357,-0.2759698,-0.1382233
1.003858,-0.3666226,-0.1073333
1.083731,-0.4876706,-0.04408543
1.213121,-0.5254024,0.001975442
1.273427,-0.5755399,-0.07677385
1.349033,-0.6617531,-0.3263665
1.445574,-0.7756697,-0.6094113
1.1179,-0.6450998,-0.7036128
0.6463288,-0.3455162,-0.546704
0.6118684,-0.2163538,-0.3909569
0.7695918,-0.1978575,-0.3467048
0.832603,-0.3649528,-0.2707034
0.9122825,-0.6439719,-0.2086772
0.9137959,-0.6686065,-0.1873005
0.7772014,-0.4773324,-0.1832789
0.7225064,-0.253872,-0.2394024
0.7289292,-0.1258314,-0.2685486
0.7510684,-0.1352372,-0.2681688
0.8080122,-0.159527,-0.2609753
0.8313629,-0.2133843,-0.224513
0.8766567,-0.2856674,-0.2162208
0.8904827,-0.2694712,-0.2004124
0.8919744,-0.2388125,-0.1851771
0.9507153,-0.2354859,-0.2011705
0.9660667,-0.2034264,-0.1944738
0.9997944,-0.2171507,-0.1412049
1.037118,-0.2611344,-0.04408915
1.072726,-0.197998,-0.02507717
1.178897,-0.09907291,-0.119909
1.236835,-0.07640319,-0.2114313
1.289661,-0.1993523,-0.2852213
1.300302,-0.4367636,-0.385933
1.069016,-0.5463023,-0.5107094
0.7456952,-0.5837589,-0.5380532
0.6786864,-0.68569,-0.4686531
0.9581926,-0.7203949,-0.4343817
1.244407,-0.6845481,-0.3990827
1.259738,-0.4961641,-0.3767711
1.056291,-0.1439022,-0.3683723
0.8216307,0.04146892,-0.2947709
0.7364276,-0.03441298,-0.2382512
0.6854635,-0.2085435,-0.2123589
0.6343003,-0.3760786,-0.1877221
0.6860181,-0.443257,-0.2010182
0.7043985,-0.4159992,-0.1942414
0.7605381,-0.3979207,-0.1570012
0.8536414,-0.3526837,-0.1044036
0.7936927,-0.293387,-0.04726292
0.7753054,-0.3128316,-0.05094395
0.8654721,-0.3083601,-0.06185298
0.9353732,-0.2990613,-0.06279066
0.9928243,-0.3294385,-0.1113078
0.9973621,-0.3550597,-0.1238245
1.064827,-0.4616053,-0.06873875
1.224643,-0.5453575,-0.0379349
1.318492,-0.6106999,-0.125778
1.46485,-0.8011547,-0.3513303
1.546031,-0.8826847,-0.5238996
1.159061,-0.6845046,-0.5064071
0.6694624,-0.4436198,-0.4862207
0.677931,-0.3916987,-0.5091405
0.8003676,-0.3238616,-0.3586567
0.6889932,-0.1553732,-0.2092943
0.7158127,-0.2348744,-0.2714801
0.8150454,-0.492797,-0.2778864
0.8003347,-0.6293715,-0.2025523
0.8202564,-0.5963903,-0.2204979
0.7788075,-0.4310838,-0.2609863
0.7433923,-0.2824813,-0.3024997
0.7974137,-0.2002414,-0.3219806
0.8434088,-0.2178089,-0.2888823
0.9519112,-0.2832353,-0.2634938
0.9782181,-0.2229569,-0.2283141
0.9239392,-0.1871958,-0.1750889
0.9603247,-0.1521013,-0.1522384
0.9706389,-0.07210758,-0.1599792
0.9901447,-0.1660053,-0.1631259
1.029796,-0.2358486,-0.1394346
1.024239,-0.2246096,-0.09554121
1.049065,-0.2375993,-0.07684095
1.093673,-0.178018,-0.1481562
1.182666,-0.214062,-0.2487362
1.245881,-0.3974236,-0.276599
1.116709,-0.5746231,-0.3537941
0.874983,-0.5883376,-0.5129437
0.7632292,-0.5505391,-0.5344979
0.9559308,-0.6933775,-0.4625911
1.298938,-0.6743742,-0.4632436
1.40544,-0.4481971,-0.453244
1.119322,-0.2311196,-0.3726003
0.7487941,0.0005731536,-0.2715112
0.6769909,-0.04961971,-0.2327229
0.7207144,-0.275623,-0.2412656
0.637098,-0.4242018,-0.1881846
0.6111607,-0.5049149,-0.1436025
0.6437255,-0.383651,-0.1328703
0.6963697,-0.3287799,-0.09423496
0.8136877,-0.3675605,-0.08815188
0.8261689,-0.3244439,-0.07631669
0.8089286,-0.374708,-0.05141265
0.8800515,-0.3647529,-0.06768047
0.9306398,-0.3137287,-0.06849758
0.9735472,-0.3338797,-0.07843174
0.9980588,-0.3577378,-0.09048542
1.061978,-0.478656,-0.04551537
1.194485,-0.5163777,0.001805938
1.212202,-0.4777744,-0.02249434
1.220722,-0.5273604,-0.168558
1.29613,-0.5376628,-0.3562374
1.171655,-0.5207272,-0.5146325
0.8623951,-0.4698791,-0.6746902
0.6524132,-0.4078917,-0.6510591
0.7052554,-0.39706,-0.4096432
0.8256886,-0.3694744,-0.2521539
0.7831337,-0.4005743,-0.1966992
0.8260435,-0.5497587,-0.1743882
0.9004281,-0.662551,-0.1876481
0.7622346,-0.522224,-0.1807547
0.7054587,-0.2672367,-0.2604401
0.7661929,-0.2041431,-0.3043532
0.8181538,-0.2200952,-0.2477292
0.8852365,-0.2151686,-0.2599762
0.8897761,-0.2354417,-0.2106386
0.9022397,-0.2203943,-0.1816012
0.916194,-0.2061357,-0.1983446
0.9337485,-0.1898439,-0.1354713
0.9801827,-0.173341,-0.1752088
0.9739483,-0.2323858,-0.184192
0.9935757,-0.3130577,-0.08938002
1.026747,-0.3160607,-0.06925196
1.089195,-0.1389082,-0.1374407
1.211111,0.03662727,-0.2607222
1.281758,-0.1376941,-0.2655247
1.294035,-0.4339635,-0.2582809
1.126866,-0.5269205,-0.3969996
0.8170627,-0.5615554,-0.5068349
0.7078133,-0.6606347,-0.541112
0.8842092,-0.8069505,-0.4698293
1.184718,-0.8361099,-0.4020795
1.373906,-0.5930636,-0.4448015
1.220536,-0.2418925,-0.408439
0.8817263,0.04781045,-0.2998825
0.713817,0.09629449,-0.1946062
0.6476356,-0.1417933,-0.11739
0.6022533,-0.3624919,-0.1272736
0.6411873,-0.4495292,-0.134188
0.6478533,-0.4254787,-0.1303846
0.7198774,-0.3511235,-0.1446586
0.8190635,-0.3342476,-0.1250386
0.7876008,-0.3222374,-0.09440518
0.8010145,-0.3461932,-0.06113942
0.8522307,-0.3595012,-0.03808425
0.922385,-0.3118422,-0.0578261
1.017116,-0.3137881,-0.09961037
1.034433,-0.3526072,-0.1316139
1.108103,-0.4703528,-0.1104137
1.228849,-0.574984,-0.03436293
1.264354,-0.5546378,-0.01852498
1.303377,-0.6153242,-0.2170632
1.352884,-0.7318027,-0.5456407
1.18823,-0.7061163,-0.6754454
0.8633175,-0.5368584,-0.5885072
0.7295897,-0.2781662,-0.5088316
0.7273532,-0.09048087,-0.4094007
0.7366772,-0.183237,-0.3245343
0.8330945,-0.4629588,-0.276297
0.8856854,-0.6685515,-0.1392951
0.8426391,-0.6701409,-0.1189902
0.764985,-0.4865269,-0.2051638
0.7227688,-0.3097352,-0.1878381
0.7496562,-0.1581077,-0.2652681
0.7827,-0.06964745,-0.3307058
0.8467333,-0.194273,-0.2649162
0.8848627,-0.2619394,-0.2715277
0.8723606,-0.2468811,-0.2243213
0.9033376,-0.2632078,-0.1606849
0.9440348,-0.1899576,-0.181386
0.9740106,-0.1940907,-0.1579396
0.9917507,-0.2173626,-0.1467953
1.021154,-0.18376,-0.08784794
1.081587,-0.1731012,-0.03598242
1.120233,-0.06995432,-0.1672096
1.195393,-0.05655923,-0.2865316
1.304471,-0.2530486,-0.2910558
1.306795,-0.5039536,-0.3281253
1.12647,-0.6328857,-0.4572925
0.8538441,-0.6223106,-0.5238803
0.7582192,-0.7112372,-0.452294
0.9161537,-0.7739194,-0.4001101
1.09114,-0.6616097,-0.3802638
1.133624,-0.4450953,-0.3731961
1.044706,-0.1014298,-0.375222
0.8833701,0.04533329,-0.3227513
0.7560021,-0.1058019,-0.2625902
0.6757568,-0.2648837,-0.1791098
0.6540629,-0.4650235,-0.1191315
0.685711,-0.5479807,-0.1609277
0.6889092,-0.3826097,-0.1771854
0.7443341,-0.3090861,-0.1629871
0.807222,-0.3218297,-0.1429459
0.767366,-0.3293052,-0.06334023
0.7822441,-0.4108526,-0.03477626
0.8379974,-0.3847317,-0.06463122
0.9025037,-0.327572,-0.06304606
0.9869265,-0.3437318,-0.07595173
0.961576,-0.3264134,-0.09838893
0.9706124,-0.3837508,-0.1066837
1.059225,-0.4394024,-0.09823757
1.108243,-0.4655106,-0.03644195
1.213417,-0.5528378,0.01389116
1.268245,-0.5714814,-0.06019049
1.193316,-0.618742,-0.3383026
1.140846,-0.7175426,-0.6896173
1.039031,-0.6431074,-0.7417525
0.826866,-0.3940606,-0.5375735
0.6603503,-0.1659707,-0.4302521
0.6765443,-0.1839366,-0.3261069
0.7838855,-0.3909087,-0.1701827
0.7910008,-0.5587947,-0.1644437
0.8146861,-0.636009,-0.1954951
0.8250634,-0.5480474,-0.2015789
0.7227851,-0.3417004,-0.2657658
0.7763923,-0.2136261,-0.3131983
0.8337816,-0.1543159,-0.3243335
0.8147851,-0.1974873,-0.2844511
0.9166679,-0.2790036,-0.2330525
0.9049118,-0.2308122,-0.2259779
0.8883016,-0.2033766,-0.1894144
0.9605431,-0.1759779,-0.1689554
0.9584544,-0.138196,-0.2004674
1.010363,-0.2253767,-0.1946408
1.01855,-0.2749128,-0.1265622
1.01027,-0.2741463,-0.06013757
1.090565,-0.1985439,-0.08022708
1.1418,-0.08621251,-0.1454077
1.235567,-0.1974735,-0.182259
1.273618,-0.3698073,-0.2476874
1.146902,-0.4844572,-0.3985234
0.9553146,-0.6010958,-0.554458
0.8132524,-0.6657425,-0.5595491
0.9172613,-0.7265675,-0.4508399
1.169626,-0.6836108,-0.4104858
1.279068,-0.4802147,-0.4174728
1.144875,-0.2137349,-0.3549289
0.8666209,0.03010894,-0.2433485
0.7155794,0.02927037,-0.1849638
0.698389,-0.1892541,-0.1766286
0.6757526,-0.3979882,-0.1312917
0.6940563,-0.5091426,-0.1226493
0.7004288,-0.4603979,-0.1516426
0.7313121,-0.3637102,-0.1277275
0.8179803,-0.2973747,-0.133993
0.817969,-0.2573943,-0.1373327
0.8123185,-0.3120756,-0.09626698
0.8592817,-0.3249673,-0.06903042
0.9123397,-0.3079651,-0.03360626
0.9661934,-0.3329317,-0.04162309
0.9696888,-0.2786665,-0.08095695
0.9808578,-0.2661433,-0.09504323
1.007924,-0.3484501,-0.07801059
1.049776,-0.4728225,0.0007991767
1.178564,-0.5915812,0.03179752
1.3033,-0.590203,-0.08951694
1.395878,-0.6575702,-0.342328
1.399308,-0.7502923,-0.5632757
1.080952,-0.5660838,-0.5586286
0.6589118,-0.3075865,-0.4651508
0.6163397,-0.225972,-0.4037232
0.7798699,-0.2632407,-0.2882032
0.8122017,-0.4161763,-0.2016221
0.8783504,-0.6549102,-0.1894058
0.9351706,-0.6999816,-0.1759666
0.8123707,-0.4797418,-0.208475
0.7484358,-0.2967293,-0.2670346
0.8016376,-0.2301852,-0.2805607
0.8317406,-0.1900943,-0.2959423
0.859425,-0.2058564,-0.2819894
0.888186,-0.2384223,-0.2229141
0.9163607,-0.2173293,-0.1985231
0.9223005,-0.1836125,-0.1849412
0.9210935,-0.1664615,-0.1774974
0.960256,-0.1427833,-0.1890597
0.9764201,-0.1664843,-0.1760654
0.9710686,-0.220493,-0.1368545
0.9828259,-0.2228941,-0.06431516
1.00288,-0.1802189,-0.04100965
1.064578,-0.09586303,-0.162068
1.18856,-0.1001712,-0.2724721
1.307069,-0.2945433,-0.2570855
1.298568,-0.4995657,-0.291263
1.134815,-0.5419401,-0.4462772
0.9044326,-0.5297409,-0.5390929
0.7794461,-0.659138,-0.4985878
0.8538806,-0.7457623,-0.3792734
1.027213,-0.6377732,-0.276472
1.169232,-0.4562357,-0.3072466
1.100838,-0.154245,-0.345816
1.010184,-0.5686608,-0.2853273
0.783608,-0.4445513,-0.1886198
0.7143705,-0.330622,-0.1500407
0.6920722,-0.3132943,-0.2100769
0.7003648,-0.2609542,-0.2035739
0.7194972,-0.2018731,-0.2294219
0.7377325,-0.1915907,-0.2540089
0.7996188,-0.1902162,-0.218948
0.7820307,-0.2120875,-0.2390094
0.7283357,-0.2376827,-0.2125258
0.7155547,-0.2412019,-0.1885695
0.7852979,-0.2427901,-0.216938
1.003321,-0.2666658,-0.2012816
1.178132,-0.274718,-0.2083401
1.238884,-0.2258689,-0.1725207
1.239447,-0.1135404,-0.08449145
1.232435,0.02299779,-0.04939172
1.314143,0.01177534,-0.05459283
1.393211,-0.1305375,-0.1374652
1.397528,-0.2637879,-0.2807643
1.198495,-0.4048658,-0.4385117
0.8205208,-0.4705314,-0.5656652
0.6955443,-0.5197895,-0.5772152
0.9284107,-0.6958787,-0.5251477
1.279003,-0.7797438,-0.5074086
1.453134,-0.6422207,-0.4887608
1.13505,-0.3997655,-0.3481472
0.6373478,-0.1671488,-0.1733103
0.5368258,-0.1102025,-0.1758173
0.6081509,-0.2044335,-0.2384319
0.5739118,-0.2650262,-0.2319399
0.6258416,-0.3312539,-0.2548704
0.6451586,-0.3964587,-0.198986
0.6173969,-0.3186734,-0.05799562
0.6878443,-0.233324,-0.07265113
0.71992,-0.2459002,-0.1078933
0.7904778,-0.3065749,-0.05060147
0.9038232,-0.4416459,-0.03872519
0.9476843,-0.4767045,-0.01382146
1.005956,-0.3310018,-0.01252606
1.041487,-0.2101502,-0.05106996
1.028301,-0.2078899,-0.03566637
1.009405,-0.2935503,-0.04228314
1.055574,-0.3654779,-0.04329894
1.214114,-0.4551998,-0.02905442
1.352374,-0.6165716,-0.06881742
1.295686,-0.7437839,-0.2141867
1.040261,-0.85553,-0.520347
0.8064459,-0.877951,-0.6940205
0.7389809,-0.7422959,-0.568677
0.8724981,-0.5166535,-0.4452908
1.012356,-0.2148162,-0.3959376
0.9666115,-0.2209543,-0.3505299
0.9935056,-0.5457544,-0.2885081
0.9720156,-0.6047555,-0.1242934
0.7334388,-0.5130677,-0.04680409
0.5833727,-0.4084287,-0.1014485
0.5256647,-0.204948,-0.09171072
0.5846027,-0.1321957,-0.1652831
0.7388716,-0.1030444,-0.2689582
0.8333738,-0.1397243,-0.2651266
0.8933932,-0.252619,-0.2787369
0.8353922,-0.2507137,-0.206387
0.8274473,-0.2611747,-0.1273495
0.9560881,-0.2061948,-0.1458242
1.036388,-0.1381794,-0.1339853
1.100222,-0.1847847,-0.1254275
1.106413,-0.167369,-0.05798068
1.147155,-0.1378151,0.002542258
1.258441,-0.1102351,-0.06354577
1.308603,-0.1266596,-0.1596218
1.354442,-0.2764343,-0.2999071
1.206214,-0.4511385,-0.4415914
0.8969252,-0.5897539,-0.4969351
0.8111599,-0.6680934,-0.4508994
0.998439,-0.7364658,-0.3939013
1.269594,-0.7069643,-0.4051456
1.317754,-0.4899561,-0.3634681
1.134598,-0.2711581,-0.3165473
0.9092757,-0.1967384,-0.286032
0.6729376,-0.2283552,-0.1856768
0.5747438,-0.2132906,-0.1581428
0.5743167,-0.2359657,-0.1874738
0.5392705,-0.3155598,-0.158554
0.5418432,-0.3050316,-0.1162567
0.5795936,-0.3162001,-0.07547427
0.6270902,-0.2684567,-0.05890648
0.6711756,-0.1998847,-0.06540026
0.7230683,-0.2721665,-0.05513475
0.8320376,-0.323574,-0.03694814
0.9931878,-0.3782525,-0.02745541
1.101372,-0.3971151,-0.0494638
1.103271,-0.3718213,-0.06280967
1.165472,-0.4610273,0.005940042
1.290288,-0.5472329,0.07570438
1.349388,-0.5760158,0.05274782
1.35661,-0.5885656,-0.03721132
1.275952,-0.6815719,-0.3187863
1.088853,-0.8193676,-0.7334502
0.884971,-0.7208795,-0.738602
0.8583349,-0.4341682,-0.3864954
0.9210655,-0.1665561,-0.273639
0.8600343,-0.1159004,-0.3338162
0.9467256,-0.308384,-0.331125
1.040186,-0.4486019,-0.2693737
0.824022,-0.516293,-0.1585973
0.6231831,-0.4769792,-0.1151236
0.5201154,-0.3030965,-0.09907986
0.5374107,-0.2631317,-0.1186455
0.7150193,-0.2135135,-0.213564
0.8559973,-0.1361711,-0.270895
0.9288734,-0.2071671,-0.2935701
0.8678176,-0.1967619,-0.2068543
0.8435198,-0.1858407,-0.08473376
0.9325818,-0.2220654,-0.07390926
1.000883,-0.1845333,-0.07621209
1.148686,-0.216831,-0.07515337
1.135224,-0.1989822,-0.05561569
1.060613,-0.05981327,-0.07515322
1.201986,0.08162061,-0.1442488
1.230428,0.1115708,-0.144805
1.223194,-0.07307005,-0.1712288
1.27993,-0.3161692,-0.2725098
1.188406,-0.4998835,-0.3837171
0.940055,-0.5394724,-0.3947542
0.6516058,-0.571508,-0.3546837
0.7938213,-0.7186419,-0.4106486
1.430917,-0.6547856,-0.4340298
1.863902,-0.5733303,-0.518787
1.664991,-0.5532582,-0.6176566
1.118657,-0.3196131,-0.3823516
0.7032506,-0.2384048,-0.07678813
0.4161275,-0.2249706,-0.009899446
0.3635369,-0.100181,-0.1029027
0.5462315,-0.1531159,-0.2041427
0.5483005,-0.2229389,-0.1945685
0.6171288,-0.2911378,-0.1462198
0.7367821,-0.3541307,-0.06980174
0.6957905,-0.3000704,-0.01983079
0.8013716,-0.3301252,-0.03232444
0.8815317,-0.3522052,-0.0004804532
0.9896201,-0.3255826,-0.03963587
1.131022,-0.3436405,-0.1219259
1.046689,-0.3374363,-0.1174959
1.083244,-0.4256518,-0.0537325
1.239932,-0.5573315,0.05476806
1.337332,-0.5749802,0.05786368
1.334345,-0.5831978,-0.03737856
1.232659,-0.6591949,-0.1897736
1.179497,-0.724056,-0.4767186
0.9894681,-0.6767627,-0.6089259
0.8419479,-0.5531558,-0.4697652
0.8997728,-0.4028675,-0.3290335
0.8730134,-0.2925531,-0.2562287
0.9235297,-0.3577331,-0.2549239
1.006447,-0.4333198,-0.2846456
0.8389049,-0.3725383,-0.2244893
0.6158871,-0.3473984,-0.1517528
0.551183,-0.3179636,-0.1197103
0.6183335,-0.2389197,-0.1080353
0.7315121,-0.2213488,-0.1900477
0.849144,-0.1875048,-0.258251
0.8976812,-0.1694256,-0.2329696
0.9030914,-0.1876148,-0.2206223
0.9231178,-0.1566049,-0.167493
0.8921222,-0.1553264,-0.09028472
0.9523759,-0.13413,-0.1203447
1.078776,-0.1163383,-0.1511398
1.07301,-0.1904535,-0.06889692
1.102771,-0.2008596,-0.01480904
1.198908,-0.1174405,-0.05834959
1.265938,-0.03238777,-0.09595497
1.307989,-0.05097408,-0.1656507
1.22319,-0.1825596,-0.2967694
1.018255,-0.3750676,-0.4296709
0.7486881,-0.6228744,-0.5386744
0.6467886,-0.6655911,-0.5384498
0.9625862,-0.5699316,-0.4605451
1.497273,-0.5907505,-0.4314877
1.840564,-0.4581202,-0.4638983
1.549882,-0.2253506,-0.4651479
0.9392615,-0.1347756,-0.3021831
0.6867577,-0.1153601,-0.07905982
0.5483706,-0.1788067,-0.04130732
0.4768987,-0.2198482,-0.1202853
0.5540589,-0.2143747,-0.1257043
0.4933171,-0.2583396,-0.1096215
0.5458537,-0.2845654,-0.1075387
0.6403324,-0.2971918,-0.05901628
0.6462918,-0.2971212,-0.03420026
0.8049344,-0.3255979,-0.031581
0.9374838,-0.3796426,0.001789937
1.013563,-0.3496356,-0.01238591
0.9953977,-0.3161455,-0.06893505
0.9787072,-0.3264232,-0.09484297
1.157612,-0.4030485,-0.05456146
1.290139,-0.5538488,0.02207909
1.440306,-0.6184643,0.009759935
1.472467,-0.6496026,-0.1425067
1.336752,-0.7485656,-0.3746014
1.265077,-0.7689653,-0.4970737
0.917498,-0.6233704,-0.409559
0.6337326,-0.3566853,-0.3537281
0.765411,-0.1183235,-0.3816561
0.8556314,-0.09677442,-0.3551419
0.9615766,-0.2800748,-0.3437532
1.053653,-0.5064331,-0.2646412
0.9019732,-0.5917421,-0.1126516
0.6942868,-0.4489619,-0.0915841
0.5785071,-0.285725,-0.1030156
0.6220504,-0.238554,-0.1070622
0.7631535,-0.1342413,-0.2089311
0.8549747,-0.03350048,-0.2863178
0.8800121,-0.1135423,-0.2695906
0.8675093,-0.2058338,-0.2142568
0.8750287,-0.2057116,-0.1525747
0.9173846,-0.1938349,-0.1262019
0.9877237,-0.1503667,-0.1528794
1.060426,-0.1252919,-0.1578182
1.049889,-0.193559,-0.0561711
1.049203,-0.2355571,0.04169963
1.156862,-0.1452348,0.01179668
1.262093,-0.05499417,-0.06965385
1.340362,-0.1172671,-0.1619293
1.328487,-0.2481604,-0.3188857
1.109889,-0.3947347,-0.4885271
0.7942644,-0.5687187,-0.5352416
0.6717947,-0.6551343,-0.4496866
1.014386,-0.6742131,-0.3907236
1.545353,-0.6491968,-0.4293564
1.688992,-0.4806808,-0.4395158
1.347876,-0.2711778,-0.381392
0.8651122,-0.2138515,-0.274318
0.6322836,-0.2811638,-0.08299007
0.5593815,-0.2762176,-0.002652997
0.4810763,-0.2445891,-0.1109725
0.5202847,-0.2702926,-0.1574408
0.5434996,-0.232503,-0.1410884
0.5760849,-0.2378444,-0.1397075
0.7120189,-0.2733074,-0.1033284
0.7551279,-0.2295941,-0.08235417
0.7589499,-0.2470863,-0.05475306
0.8281076,-0.2801231,-0.009944462
0.947119,-0.3149624,-0.02509047
1.025762,-0.3629573,-0.06207011
1.035458,-0.3625243,-0.06224225
1.181229,-0.4345935,-0.000277251
1.334311,-0.4845383,0.07365075
1.282484,-0.4025731,0.05209994
1.227703,-0.3929003,-0.04781
1.191505,-0.6044015,-0.3026569
0.985439,-0.806242,-0.6448142
0.81552,-0.6754054,-0.6254319
0.872736,-0.5099071,-0.4376923
0.898602,-0.5158935,-0.417977
0.8829648,-0.4018522,-0.2391338
0.94278,-0.3792476,-0.1730738
0.9018083,-0.5073152,-0.2784832
0.7832866,-0.4653026,-0.1085504
0.6910377,-0.4397647,-0.1268671
0.6458351,-0.3740449,-0.2293377
0.6509429,-0.153484,-0.1114083
0.68298,-0.1077959,-0.2029661
0.7979938,-0.1442607,-0.2319375
0.8602225,-0.1495253,-0.1867474
0.8365184,-0.2108602,-0.2410628
0.8729323,-0.2178686,-0.1393827
0.9021613,-0.182348,-0.1230166
1.007317,-0.1342126,-0.1507429
1.14703,-0.1114735,-0.1064354
1.139593,-0.1199064,-0.08048106
1.150947,-0.07723083,-0.003336208
1.210425,-0.05404883,-0.0726429
1.277196,-0.08839367,-0.1737611
1.33323,-0.2256034,-0.2023798
1.189557,-0.4413648,-0.365906
0.8850767,-0.5493819,-0.5320347
0.6707674,-0.5967163,-0.5593308
0.8110163,-0.6923439,-0.3921286
1.2318,-0.7246029,-0.2468855
1.520417,-0.568211,-0.4281377
1.470494,-0.2915827,-0.568416
1.105857,-0.1216541,-0.3518001
0.7248199,-0.1245067,-0.1213398
0.5489038,-0.1412819,-0.08398548
0.4940977,-0.1371944,-0.0945096
0.5335651,-0.1840838,-0.1387163
0.5836888,-0.2517666,-0.1821493
0.6492744,-0.3147304,-0.139497
0.7015371,-0.3366762,-0.08357487
0.673965,-0.3077868,-0.02063711
0.723549,-0.308435,0.03118435
0.7935904,-0.3298384,0.008590927
0.9366235,-0.3360909,-0.02527136
1.128748,-0.3301645,-0.05891395
1.072284,-0.3261082,-0.1452762
1.053282,-0.3844817,-0.1849204
1.237346,-0.5010134,-0.04080171
1.333091,-0.5867605,0.09706124
1.324186,-0.6075208,-0.02186285
1.29449,-0.6785434,-0.2752924
1.234184,-0.7935654,-0.495687
1.016391,-0.7105312,-0.5831549
0.7265805,-0.4806345,-0.4787062
0.7042889,-0.3452068,-0.3767095
0.8863833,-0.3364664,-0.3193342
0.9818108,-0.4490323,-0.2114459
0.9509393,-0.5487725,-0.1615561
0.8676406,-0.5164255,-0.1168615
0.7520861,-0.4038552,-0.1088989
0.6567138,-0.2138595,-0.1950096
0.6691685,-0.08483399,-0.1713106
0.7469765,-0.06474261,-0.1728652
0.7977244,-0.05355106,-0.2216918
0.8085564,-0.1557909,-0.170733
0.8123653,-0.2950892,-0.1804437
0.8265314,-0.3073169,-0.1698512
0.8367726,-0.2694451,-0.132388
0.909974,-0.2208254,-0.1412502
1.044423,-0.1438396,-0.09238038
1.090018,-0.09751155,-0.08437643
1.062234,-0.1036202,-0.06035543
1.083714,-0.02621192,-0.007343443
1.185665,0.05947063,-0.07578745
1.321105,-0.09979472,-0.1797217
1.359872,-0.3599587,-0.3080866
1.220785,-0.511518,-0.4570385
0.9791096,-0.5963335,-0.5272074
0.8336631,-0.6746603,-0.4911857
0.9441411,-0.7570187,-0.3544583
1.225577,-0.7387675,-0.2516439
1.406359,-0.542034,-0.3310243
1.279172,-0.2646942,-0.4358841
0.9872719,-0.1253694,-0.3395245
0.7966341,-0.1839133,-0.1965601
0.6329951,-0.2506522,-0.1142415
0.5032461,-0.3189777,-0.05356159
0.5397754,-0.3782464,-0.1157826
0.58158,-0.3185326,-0.1428186
0.644617,-0.2750088,-0.1064093
0.7490765,-0.246829,-0.1249825
0.7356808,-0.2116182,-0.04713209
0.7365701,-0.2702728,0.01579066
0.8020241,-0.2996305,0.00860989
0.905259,-0.3006091,0.006700608
1.017659,-0.3177811,-0.07599126
1.039178,-0.3261431,-0.1240707
1.17457,-0.4484126,-0.1025473
1.389138,-0.5793253,-0.04319849
1.398556,-0.5823589,0.01093212
1.338129,-0.614482,-0.09875943
1.298672,-0.7464345,-0.2919417
1.06413,-0.7826516,-0.425534
0.7381717,-0.5847255,-0.4268327
0.6995284,-0.3524943,-0.3486773
0.8290817,-0.2994902,-0.3198467
0.8979066,-0.3834903,-0.281611
1.015051,-0.4592729,-0.2302192
1.006546,-0.4786765,-0.1825968
0.7864633,-0.4539957,-0.1354745
0.6499149,-0.3570049,-0.1587188
0.6497416,-0.2763508,-0.1886347
0.7059607,-0.2174336,-0.2011235
0.7792636,-0.1470324,-0.2367095
0.854547,-0.1630746,-0.2385633
0.8984619,-0.1856345,-0.2130071
0.8405915,-0.2067951,-0.1890388
0.839476,-0.2438984,-0.1466751
0.9239012,-0.2080247,-0.1240183
0.9814051,-0.2047245,-0.1323475
1.055131,-0.2329872,-0.09992573
1.06614,-0.220529,-0.03856985
1.080907,-0.1471344,-0.02933702
1.163348,-0.001448461,-0.08844094
1.193486,0.01570199,-0.1584104
1.23135,-0.16633,-0.2146646
1.25282,-0.347261,-0.3277305
1.183834,-0.3925457,-0.413071
0.9423436,-0.4542376,-0.3680771
0.6663643,-0.6582937,-0.365819
0.8165748,-0.7169664,-0.4022041
1.237647,-0.5951234,-0.3824036
1.481268,-0.4941941,-0.4496158
1.423087,-0.3409658,-0.5040405
1.094211,-0.2719205,-0.364169
0.7788254,-0.2857192,-0.1560428
0.6052243,-0.2171442,-0.05853942
0.5527966,-0.2574638,-0.1140526
0.5358875,-0.2835579,-0.1570092
0.4736764,-0.2250482,-0.1307054
0.570722,-0.2690035,-0.1319968
0.6356688,-0.2406451,-0.1010375
0.6233919,-0.22485,-0.07406714
0.7474529,-0.288861,-0.07721036
0.7519371,-0.2929802,-0.04275482
0.8687617,-0.3604104,-0.05772804
1.11237,-0.3918241,-0.08873369
1.092518,-0.3808149,-0.08116216
1.103432,-0.4148682,-0.05645275
1.226083,-0.3927957,0.04637627
1.332951,-0.3916009,0.1104822
1.334829,-0.4082324,0.04016506
1.238364,-0.5278333,-0.1093802
1.205068,-0.7673172,-0.3689769
0.9969429,-0.8109529,-0.6097891
0.7935342,-0.662861,-0.5983914
0.8380051,-0.4634969,-0.3951333
0.8512399,-0.3351821,-0.2381344
0.9118064,-0.4658195,-0.2145727
1.00162,-0.6157775,-0.2216618
0.92308,-0.5167158,-0.1844487
0.7643037,-0.3733619,-0.1930998
0.6395066,-0.2363908,-0.2334422
0.6055144,-0.06820188,-0.1790385
0.6591094,-0.08351157,-0.1522261
0.7689049,-0.1427802,-0.2027115
0.8555523,-0.1442631,-0.2079804
0.8831956,-0.2318757,-0.1931912
0.8763601,-0.236707,-0.1547744
0.8996383,-0.1973107,-0.1224495
1.004542,-0.1711404,-0.1259149
1.064012,-0.08437746,-0.09451858
1.073801,-0.09079764,-0.055688
1.101774,-0.07255102,-0.04658804
1.156455,-0.005066248,-0.084944
1.286299,-0.09830983,-0.1275471
1.379964,-0.3078326,-0.1507649
1.334775,-0.5031026,-0.2530613
1.118478,-0.5063693,-0.4137247
0.8009683,-0.4584132,-0.5275068
0.6923427,-0.581238,-0.5083171
0.9631144,-0.6364912,-0.4037818
1.401199,-0.5980868,-0.3700915
1.601159,-0.4866753,-0.4011442
1.356575,-0.2231755,-0.4090287
0.907157,-0.1492117,-0.2984289
0.61979,-0.2236375,-0.1229024
0.5124803,-0.1857997,-0.08731403
0.4937798,-0.2167402,-0.1342167
0.5485057,-0.2629432,-0.1265755
0.5720746,-0.2764025,-0.1019413
0.6409121,-0.3231155,-0.0825536
0.7343587,-0.2971338,-0.0539387
0.7553047,-0.2925909,-0.02247995
0.8443611,-0.3091391,-0.01473021
0.94805,-0.2839646,-0.03185612
1.029057,-0.2961621,-0.07497305
1.084713,-0.3189448,-0.1208753
1.143127,-0.4039156,-0.07123991
1.307315,-0.5054792,0.0427762
1.341184,-0.4657974,0.09658345
1.269646,-0.4378267,0.05963496
1.246388,-0.5717619,-0.105558
1.168443,-0.7308977,-0.3912262
1.073986,-0.7564168,-0.587942
0.890099,-0.5634401,-0.5355996
0.7317575,-0.2540582,-0.3794365
0.7609162,-0.1231003,-0.2802664
0.8009736,-0.2054492,-0.2481596
0.9327938,-0.3871887,-0.2393471
1.103125,-0.6002759,-0.1681173
1.016621,-0.5921179,-0.1378314
0.7880658,-0.4032016,-0.1776968
0.6152573,-0.2870878,-0.1168331
0.5801006,-0.1933616,-0.1056221
0.7209435,-0.1473786,-0.2015113
0.8558484,-0.1288784,-0.2579072
0.8805355,-0.09483197,-0.2921324
0.8740298,-0.1798428,-0.2358524
0.8472548,-0.2345796,-0.1553666
0.8634765,-0.217849,-0.1344573
0.9369762,-0.2191544,-0.1183864
1.017378,-0.167982,-0.1384463
1.098436,-0.213846,-0.1034966
1.121185,-0.2459111,-0.0591958
1.173635,-0.09569634,-0.08831307
1.278415,-0.02009482,-0.1023276
1.348954,-0.1191308,-0.1564073
1.371574,-0.3065267,-0.2582395
1.191223,-0.4286252,-0.4128528
0.8875789,-0.4862871,-0.5404492
0.7533603,-0.582363,-0.4744112
0.9086215,-0.6389269,-0.3674309
1.287717,-0.6657335,-0.322116
1.516441,-0.5437817,-0.335293
1.281643,-0.2815578,-0.3782476
0.8357923,-0.1732263,-0.2618058
0.6708143,-0.1765347,-0.1039793
0.6826766,-0.1979461,-0.09745504
0.6138048,-0.2546969,-0.1522817
0.6151615,-0.2992322,-0.1913307
0.6292132,-0.296282,-0.143351
0.6707082,-0.2586721,-0.06075904
0.7288576,-0.2729838,-0.04285977
0.6822639,-0.2964301,-0.03289842
0.7271747,-0.3071852,-0.02985434
0.7788212,-0.3343788,-0.03413917
0.8793475,-0.3209535,-0.06539113
1.076953,-0.330916,-0.1477348
1.044134,-0.3468735,-0.1683688
1.035338,-0.3552406,-0.07479528
1.266448,-0.437392,0.06935181
1.429089,-0.4851313,0.09829934
1.394944,-0.5073876,-0.0550776
1.368266,-0.6164899,-0.2416314
1.408418,-0.7493426,-0.3972579
1.144785,-0.7892763,-0.4796391
0.7407507,-0.6476233,-0.4220805
0.6922082,-0.4136601,-0.3189112
0.8050958,-0.3052144,-0.2910812
0.8714109,-0.3847907,-0.288658
0.9591421,-0.5230122,-0.2358038
0.956645,-0.5867669,-0.1830582
0.7887684,-0.5005247,-0.1587887
0.6280522,-0.3210696,-0.1631551
0.6155992,-0.2535611,-0.1683102
0.7169308,-0.2313403,-0.1660567
0.8355658,-0.1478599,-0.2054813
0.8603557,-0.1417657,-0.2156988
0.8271539,-0.1497612,-0.1887298
0.831601,-0.1671749,-0.1727695
0.8871481,-0.2286025,-0.1545569
1.000882,-0.1998058,-0.1612417
1.084065,-0.1819937,-0.1306583
1.081553,-0.1820076,-0.05474215
1.071017,-0.1055042,-0.02131725
1.128336,-0.03881757,-0.04260492
1.265224,-0.02466806,-0.1036641
1.403598,-0.1553236,-0.1885192
1.401155,-0.3684134,-0.3184459
1.125509,-0.4919245,-0.4681449
0.7550718,-0.5947697,-0.5726664
0.6953159,-0.6641607,-0.5365137
0.9956519,-0.6830093,-0.3471923
1.308908,-0.7233097,-0.2530294
1.354963,-0.5758109,-0.3139439
1.182382,-0.2389689,-0.3489884
0.9703356,-0.1213966,-0.2848437
0.7851441,-0.2041514,-0.1673553
0.6220113,-0.2171439,-0.1132712
0.5453491,-0.2186317,-0.1111377
0.578075,-0.2646834,-0.1248225
0.6157294,-0.3037574,-0.1257766
0.6670732,-0.3081595,-0.07474254
0.7201863,-0.2695693,-0.0453108
0.7216882,-0.2417755,-0.0138258
0.7635045,-0.2666199,0.002177506
0.846069,-0.3200343,-0.01306404
0.959566,-0.3475525,-0.02421511
1.050275,-0.3364877,-0.1042207
1.043252,-0.3523583,-0.1299487
1.137144,-0.4776827,-0.03127388
1.308183,-0.6082317,0.05232086
1.342163,-0.5932006,0.02362331
1.338777,-0.6341083,-0.1526688
1.311331,-0.7738673,-0.3820879
1.083167,-0.7080591,-0.5320898
0.772474,-0.5150804,-0.4876072
0.7304873,-0.3448837,-0.3720604
0.8818073,-0.2233649,-0.3309299
0.9168685,-0.3643104,-0.268146
0.944545,-0.5778043,-0.243135
0.9429736,-0.5837833,-0.2026644
0.7755948,-0.479431,-0.1429155
0.6564196,-0.2857492,-0.1947671
0.6351703,-0.1751424,-0.1829403
0.6871203,-0.1592563,-0.1871911
0.7737514,-0.08016193,-0.2526923
0.7932673,-0.1239092,-0.2168641
0.8368909,-0.2009683,-0.2094642
0.8357498,-0.2296681,-0.1856424
0.8250364,-0.2713037,-0.1332854
0.9349399,-0.2020163,-0.1533163
1.029719,-0.1747593,-0.1622897
1.099348,-0.1862765,-0.1658234
1.099904,-0.1444661,-0.1006916
1.071097,-0.1150595,-0.01254393
1.12846,-0.03339479,-0.05425904
1.191785,-0.07883164,-0.1249387
1.375974,-0.2671613,-0.2187243
1.503001,-0.3879946,-0.3457189
1.233585,-0.4814975,-0.4117554
0.8226397,-0.5949641,-0.506505
0.6403607,-0.7086732,-0.5537961
0.8866814,-0.7025419,-0.3899612
1.32671,-0.6559775,-0.2908829
1.45223,-0.5430276,-0.3793391
1.248136,-0.1893637,-0.3897352
0.9487276,-0.07811109,-0.2891554
0.7276302,-0.2348527,-0.1652858
0.6043213,-0.2514356,-0.09769481
0.5162001,-0.3354613,-0.1242293
0.5380154,-0.3773159,-0.1431643
0.5811495,-0.2966394,-0.1447621
0.6215576,-0.2953656,-0.1092721
0.7141678,-0.2330009,-0.02854647
0.7281924,-0.1955958,-0.004108582
0.7584246,-0.2540025,-0.03675568
0.8888706,-0.2964547,-0.07569855
1.02712,-0.3728319,-0.1076687
1.096185,-0.4058284,-0.1312374
1.068074,-0.4041685,-0.1140254
1.142419,-0.5030592,-0.02305847
1.295851,-0.5983738,0.09519599
1.331035,-0.5904346,0.100364
1.363862,-0.6121091,-0.1129028
1.387513,-0.6938966,-0.3642229
1.192231,-0.6882367,-0.4650242
0.8652963,-0.6015119,-0.4989777
0.757187,-0.4555032,-0.4829834
0.8834687,-0.2776849,-0.3986763
0.9562827,-0.2777479,-0.3604321
0.9785572,-0.461006,-0.3196151
0.9796804,-0.5861955,-0.1848349
0.824313,-0.517165,-0.1018925
0.6215374,-0.3638475,-0.1210135
0.5665646,-0.2624426,-0.135674
0.6329652,-0.1396479,-0.1583802
0.7238173,-0.07157716,-0.2169435
0.8312959,-0.1257878,-0.2571868
0.8935225,-0.1638751,-0.2399962
0.86124,-0.2319933,-0.2045334
0.8868433,-0.2635325,-0.1785385
0.9681282,-0.2043515,-0.1640213
1.007617,-0.2154163,-0.1590085
1.064219,-0.240077,-0.0928633
1.081366,-0.2214893,-0.03248926
1.102216,-0.1167964,-0.08338518
1.228401,0.009438535,-0.1419837
1.372323,-0.1213164,-0.1707534
1.426835,-0.3544917,-0.2484219
1.223382,-0.4295638,-0.393546
0.9024241,-0.467463,-0.5218722
0.7953264,-0.5667674,-0.5051502
0.915514,-0.6961856,-0.3600017
1.205852,-0.7461207,-0.2564718
1.422024,-0.6405974,-0.3217888
1.280726,-0.3901165,-0.3938839
0.9780971,-0.1155402,-0.2895131
0.8097966,-0.1094996,-0.195215
0.683255,-0.2546811,-0.1653614
0.5412588,-0.2341366,-0.09655107
0.5557692,-0.2430832,-0.1109357
0.5849159,-0.3008984,-0.1348195
0.5691764,-0.2665456,-0.08311481
0.6585143,-0.2703453,-0.07778327
0.7309439,-0.2547403,-0.05361008
0.7770075,-0.2680869,-0.02059519
0.8332465,-0.3517684,-0.04118108
0.9075777,-0.3403876,-0.04581404
1.039318,-0.3340928,-0.07611483
1.105566,-0.367157,-0.1036133
1.16965,-0.4526355,-0.04467888
1.272316,-0.5763393,0.06592705
1.261161,-0.5273499,0.1687801
1.221164,-0.5026841,0.1185306
1.243283,-0.6934188,-0.2200599
1.206825,-0.8681882,-0.6489618
1.096643,-0.8335794,-0.7132352
0.9274201,-0.509044,-0.4417651
0.7175092,-0.1285267,-0.3077346
0.7514496,-0.08707608,-0.3185307
0.9412141,-0.2794464,-0.2984442
0.9674658,-0.421443,-0.2540635
0.9863175,-0.5229227,-0.167073
0.8668426,-0.4728941,-0.1615523
0.6057225,-0.3030181,-0.1715275
0.607927,-0.2921631,-0.1108726
0.6675166,-0.243785,-0.1622345
0.7037693,-0.1266325,-0.2193269
0.8348004,-0.1620037,-0.2293883
0.853576,-0.1814796,-0.2477885
0.8504602,-0.2019144,-0.1794897
0.9021098,-0.2150552,-0.1524773
0.9609191,-0.1594773,-0.179495
1.051532,-0.1871273,-0.1681191
1.054981,-0.2116508,-0.1347775
1.040767,-0.2279279,-0.03931023
1.13344,-0.1945206,-0.004347107
1.243095,-0.05479016,-0.09461668
1.33548,-0.04511715,-0.1753229
1.34008,-0.1584712,-0.2204116
1.174631,-0.3148492,-0.3532018
0.9530085,-0.4490991,-0.5356273
0.7186201,-0.515798,-0.512392
0.628561,-0.6200217,-0.3710484
1.035468,-0.6450082,-0.3362444
1.621435,-0.571303,-0.4212782
1.683231,-0.437782,-0.5308212
1.232078,-0.2339846,-0.4023363
0.7544227,-0.2070801,-0.1594455
0.516585,-0.2828648,-0.05355941
0.4914913,-0.2470153,-0.009141832
0.5300074,-0.2429272,-0.1014614
0.5682781,-0.2713295,-0.1941102
0.6567783,-0.2651629,-0.1475415
0.7297273,-0.2924001,-0.1292172
0.7373663,-0.3067817,-0.07219342
0.7489396,-0.3089918,-0.01016024
0.7750953,-0.3467973,-0.01983633
0.8873057,-0.3448879,-0.0206761
1.067099,-0.3127057,-0.05366775
1.129436,-0.3004259,-0.07780763
1.095702,-0.3219614,-0.05185529
1.157053,-0.4255055,0.01486849
1.311126,-0.5171671,0.08183213
1.358386,-0.5116005,0.02802213
1.308664,-0.576956,-0.1280158
1.245242,-0.7795262,-0.3678456
1.046479,-0.8385078,-0.6332433
0.82577,-0.6358378,-0.6969593
0.8382759,-0.4022908,-0.5388161
0.9241568,-0.3046813,-0.3590142
0.9267379,-0.4226408,-0.2345534
1.022018,-0.6106443,-0.1328436
1.061081,-0.6083315,-0.09032137
0.8498562,-0.4474664,-0.1452646
0.6821999,-0.2490602,-0.203295
0.6689011,-0.1933717,-0.1734934
0.708957,-0.2091876,-0.145267
0.7537611,-0.09081663,-0.1599928
0.7720679,-0.106473,-0.1457381
0.8102153,-0.2018959,-0.1493475
0.8075471,-0.1670241,-0.1582941
0.8119938,-0.1974065,-0.1410869
0.8767284,-0.1908213,-0.1565045
0.9565319,-0.1486428,-0.1599627
1.048369,-0.1931609,-0.1502078
1.020313,-0.2024723,-0.1118976
1.004217,-0.2362268,-0.03249846
1.087265,-0.2155372,-0.04166492
1.140872,-0.09309401,-0.09988706
1.281854,-0.06856637,-0.1329294
1.377379,-0.1807545,-0.1921945
1.31221,-0.374653,-0.3018701
1.138153,-0.4557342,-0.4773827
0.8217687,-0.4597548,-0.589013
0.7474123,-0.6137718,-0.5264799
1.075487,-0.740163,-0.4199215
1.375872,-0.6905092,-0.3614812
1.379325,-0.4774359,-0.3330891
1.104705,-0.1848447,-0.3037723
0.7957064,-0.07255564,-0.245062
0.683122,-0.1306748,-0.203963
0.6883289,-0.1762101,-0.1981357
0.657977,-0.242414,-0.1863074
0.634317,-0.3391271,-0.1661301
0.6661075,-0.3468781,-0.1096932
0.6799091,-0.2860812,-0.05025646
0.7249568,-0.2392365,-0.0310445
0.7858414,-0.2245928,-0.003981675
0.7791266,-0.269464,-0.004402009
0.8521399,-0.3076148,-0.03111274
0.9907239,-0.3167737,-0.06944339
1.029396,-0.3275334,-0.1448543
1.025451,-0.3472799,-0.135128
1.104094,-0.4572911,-0.02368531
1.250071,-0.5425523,0.06104618
1.312468,-0.4851124,0.06310291
1.306495,-0.4631029,0.003989829
1.312118,-0.5957334,-0.1200428
1.240405,-0.7754435,-0.380447
1.097823,-0.8053542,-0.5261769
0.8776154,-0.6050624,-0.3755897
0.6657705,-0.329142,-0.3121093
0.736354,-0.2363301,-0.3861788
0.9361569,-0.3356508,-0.3516806
1.008597,-0.4613515,-0.2947443
1.207485,-0.1100101,-0.1179148
1.312061,-0.1284586,-0.1435066
1.379545,-0.1967718,-0.1904236
1.250169,-0.361148,-0.2938397
1.066232,-0.4938103,-0.4502134
0.7788071,-0.5318775,-0.5480533
0.7074334,-0.5728966,-0.5445028
1.101745,-0.6140886,-0.5041974
1.548391,-0.646909,-0.4965693
1.634099,-0.5925796,-0.4812846
1.222256,-0.4037174,-0.3873124
0.7779533,-0.2635154,-0.2486145
0.7156666,-0.2439139,-0.1619949
0.638463,-0.2365441,-0.1428852
0.5048454,-0.2084423,-0.143074
0.5647901,-0.2042034,-0.1718621
0.563444,-0.225653,-0.1624683
0.5745949,-0.2453111,-0.1112778
0.7197063,-0.2789506,-0.07943483
0.7599779,-0.3187097,-0.02082326
0.810925,-0.3636877,-0.01854664
0.9139087,-0.392946,-0.04802029
0.9817988,-0.3338394,-0.03788924
1.050651,-0.2609058,-0.0827207
1.027513,-0.2793292,-0.08229933
1.085234,-0.378045,-0.01243768
1.287211,-0.483388,0.06103767
1.371769,-0.5112849,0.1164092
1.318554,-0.5501433,-0.008760256
1.21319,-0.669993,-0.2656268
1.119166,-0.7319089,-0.5305475
0.9747049,-0.6445476,-0.6691293
0.793428,-0.443012,-0.4573637
0.786775,-0.2689745,-0.1930395
0.8902968,-0.2542296,-0.2133911
0.9977025,-0.3670914,-0.2773745
1.077716,-0.4615513,-0.2645807
0.918816,-0.4160153,-0.2490537
0.6266712,-0.350779,-0.1884861
0.57273,-0.3484802,-0.1452959
0.6269405,-0.2936215,-0.1461906
0.6372673,-0.2446634,-0.1609839
0.7834995,-0.2223636,-0.2298235
0.8898736,-0.1913992,-0.2723255
0.8566024,-0.2080297,-0.233588
0.8736757,-0.1951618,-0.1658535
0.9433099,-0.1523021,-0.09957071
1.060122,-0.1237412,-0.06759129
1.110445,-0.1117453,-0.06069588
1.062599,-0.1656975,-0.05969653
1.075339,-0.1949189,-0.06969313
1.128902,-0.1617847,-0.102906
1.206793,-0.1438122,-0.1325917
1.250512,-0.1886088,-0.1676549
1.17134,-0.3462513,-0.3581017
1.103123,-0.5061457,-0.5761741
1.138557,-0.5336599,-0.5164144
1.235963,-0.5744171,-0.4143509
1.495299,-0.698618,-0.4912099
1.791858,-0.6733356,-0.4769052
1.635007,-0.5134274,-0.4170457
1.21015,-0.3513672,-0.3817226
0.9550473,-0.1824684,-0.2041637
0.6872407,-0.1603877,-0.1064256
0.5113755,-0.1810769,-0.1028058
0.5356346,-0.1730098,-0.1034939
0.5195164,-0.2880151,-0.2024678
0.5292752,-0.3219265,-0.153588
0.5714806,-0.2992643,-0.06531377
0.6265421,-0.3164115,-0.08947032
0.7164497,-0.2724619,-0.03995339
0.7683675,-0.3007438,-0.04867384
0.8454749,-0.3642365,-0.05083513
0.9362444,-0.4055311,-0.01908823
1.026919,-0.4170586,-0.08996123
1.056353,-0.3818637,-0.1012154
1.053875,-0.4468188,-0.06822909
1.217583,-0.5148577,0.01658187
1.363476,-0.5587219,0.1019354
1.374596,-0.6524758,-0.06704492
1.35109,-0.7041797,-0.3594522
1.182381,-0.7333578,-0.5302799
0.8986669,-0.6142884,-0.5106174
0.788233,-0.3411124,-0.3780683
0.8850492,-0.2433513,-0.2820152
0.9301571,-0.4062054,-0.2523676
0.9590303,-0.581249,-0.233772
0.9088261,-0.542327,-0.1701836
0.6684909,-0.421307,-0.1564151
0.5858685,-0.349029,-0.1934458
0.6154843,-0.2656801,-0.1766348
0.6415842,-0.2193384,-0.2019211
0.7834448,-0.1785566,-0.2503765
0.8640749,-0.1807088,-0.2608607
0.8852356,-0.2487203,-0.2627479
0.8790782,-0.2453635,-0.2078116
0.8797972,-0.2202638,-0.149526
0.9793543,-0.1614235,-0.1335611
1.035278,-0.09707673,-0.125346
1.03894,-0.1149399,-0.081349
1.014227,-0.1002801,0.0175484
1.024384,-0.0750074,0.03975898
1.161172,-0.06998392,-0.05200687
1.328263,-0.1487082,-0.1644957
1.402288,-0.3646129,-0.2737661
1.259957,-0.4850789,-0.3823449
1.1086,-0.4772943,-0.4473092
1.04182,-0.5067562,-0.4042557
0.8831543,-0.6267893,-0.3531723
0.9602203,-0.7205199,-0.3514862
1.341115,-0.6384635,-0.3484949
1.552543,-0.470128,-0.4167197
1.365977,-0.2890838,-0.4566155
0.9643793,-0.1861096,-0.3399326
0.7181972,-0.2105828,-0.1686998
0.5767117,-0.2187531,-0.06109657
0.4783968,-0.2600373,-0.08325626
0.5450522,-0.3049346,-0.1341113
0.5634065,-0.2781699,-0.1389717
0.6043355,-0.2951972,-0.1312291
0.7247782,-0.2908081,-0.08968815
0.7286337,-0.293812,-0.07626245
0.7655888,-0.3544322,-0.07801711
0.86308,-0.3567613,-0.05204311
0.988991,-0.3503909,-0.06547488
1.078932,-0.3260103,-0.09840755
1.020473,-0.3066311,-0.1106395
1.056338,-0.397688,-0.0504461
1.197169,-0.5067458,0.02919339
1.357557,-0.5764444,-0.03696602
1.559502,-0.6651081,-0.211242
1.562351,-0.7795984,-0.3955207
1.287854,-0.7796817,-0.4906412
0.8926286,-0.6654804,-0.4380975
0.6638056,-0.5450512,-0.3577565
0.7204508,-0.3385426,-0.2788545
0.8270195,-0.2513087,-0.2567287
0.9700204,-0.4088525,-0.3099686
1.071532,-0.4785886,-0.2623422
0.8957986,-0.4175084,-0.2035973
0.6599337,-0.3339238,-0.1854239
0.6120395,-0.2395807,-0.1400771
0.7008203,-0.2077884,-0.1892308
0.8243694,-0.2008843,-0.2320199
0.8793726,-0.1848181,-0.2296122
0.874382,-0.2107082,-0.2415141
0.8704524,-0.2411927,-0.1813844
0.8745282,-0.2073227,-0.1540548
0.9075874,-0.1738141,-0.1541794
0.9881814,-0.1583733,-0.1221321
1.078111,-0.1122571,-0.09312908
1.067503,-0.1180253,-0.04446242
1.029147,-0.1353094,-0.06402803
1.094136,-0.09117614,-0.09459554
1.147569,-0.08958035,-0.1225348
1.238699,-0.1745229,-0.2345312
1.360407,-0.3262079,-0.3002987
1.247763,-0.451096,-0.3795505
0.9658815,-0.4946592,-0.544126
0.7243337,-0.5683783,-0.6110035
0.7680294,-0.6574541,-0.4731811
1.164696,-0.6822398,-0.3190829
1.475338,-0.625288,-0.4240464
1.457175,-0.4266625,-0.5110614
1.146318,-0.2072164,-0.3397875
0.7508093,-0.1677118,-0.2001359
0.5783676,-0.2378687,-0.1008275
0.5127155,-0.2703446,-0.04804992
0.4872165,-0.2698306,-0.1255055
0.5611206,-0.2800283,-0.1284812
0.6282349,-0.2774152,-0.1066641
0.6996253,-0.2714285,-0.1059113
0.7533864,-0.2831466,-0.04429843
0.7736106,-0.2802908,-0.02510818
0.8140969,-0.2884106,-0.03028441
0.9145618,-0.2942711,-0.04428747
1.019085,-0.2807932,-0.08840844
0.9970894,-0.3020126,-0.104772
1.024226,-0.3679106,-0.06261503
1.215522,-0.491732,0.03583965
1.373974,-0.5822493,0.05514118
1.390534,-0.6222996,-0.08667073
1.312225,-0.7663013,-0.344252
1.206204,-0.8540089,-0.5628593
0.9675958,-0.7114715,-0.5328291
0.7273769,-0.4795943,-0.3929754
0.7617893,-0.2389478,-0.3409319
0.8838831,-0.1605286,-0.3303865
0.9937055,-0.3627107,-0.3130647
1.040881,-0.5099006,-0.2339462
0.8407276,-0.4557018,-0.1390339
0.6245903,-0.4069723,-0.110385
0.5974068,-0.3596787,-0.1109818
0.6634885,-0.2661324,-0.1375544
0.7338919,-0.1781764,-0.1793594
0.8043247,-0.1430696,-0.2068943
0.8881134,-0.1688488,-0.2120282
0.8848344,-0.1794186,-0.1871651
0.868865,-0.1958608,-0.1619263
0.9165755,-0.2149672,-0.1524008
0.9429253,-0.1854071,-0.1530093
1.009669,-0.1898977,-0.1293606
1.044531,-0.2148944,-0.07883453
1.032578,-0.2059343,-0.07294447
1.114295,-0.1507279,-0.1209663
1.216057,-0.07220194,-0.1818871
1.333427,-0.1221547,-0.2227858
1.387936,-0.2735745,-0.2745718
1.225999,-0.3941673,-0.3918671
0.958222,-0.4636529,-0.4885187
0.7013402,-0.5009255,-0.4718244
0.7013515,-0.599377,-0.3439768
1.123362,-0.6704946,-0.2402533
1.533461,-0.6103783,-0.3753024
1.495765,-0.4869754,-0.5279338
1.122152,-0.300147,-0.3728498
0.7525534,-0.2311744,-0.1675063
0.5450111,-0.3015678,-0.07048924
0.4961802,-0.265008,-0.01246134
0.5142034,-0.2318016,-0.1062147
0.5168072,-0.245425,-0.1786796
0.6007986,-0.2256596,-0.1327697
0.7078392,-0.2689391,-0.1411212
0.7212798,-0.3153697,-0.1261594
0.7313983,-0.3455272,-0.09608638
0.795322,-0.3820143,-0.07754783
0.9797815,-0.3522078,-0.03169781
1.136973,-0.3325526,-0.08279064
1.095063,-0.3724182,-0.1417756
1.098174,-0.4591149,-0.08933151
1.256168,-0.5494112,0.002279809
1.373856,-0.5086392,0.09194872
1.355093,-0.455454,0.0652262
1.296346,-0.5833431,-0.1754065
1.206699,-0.7638689,-0.5103631
1.044877,-0.8375005,-0.6697831
0.9426009,-0.7297717,-0.5646409
0.8376899,-0.47846,-0.4502363
0.7450535,-0.2786789,-0.3793351
0.8532979,-0.2285277,-0.2429922
0.9476053,-0.4005725,-0.2059835
0.9420023,-0.5916048,-0.2050352
0.8806096,-0.460403,-0.1621179
0.6931892,-0.2920119,-0.2225243
0.666101,-0.2388362,-0.2188805
0.7604533,-0.1384212,-0.1912218
0.7717656,-0.1578047,-0.2417242
0.8786394,-0.2082737,-0.2201279
0.9143778,-0.2095707,-0.2369993
0.8583654,-0.2560047,-0.2315933
0.9081876,-0.2126307,-0.1687713
0.9391195,-0.1646739,-0.1667013
0.9887937,-0.1554034,-0.1009244
1.019019,-0.1199781,-0.037814
0.9805264,-0.1256556,-0.03057699
1.028115,-0.08013674,-0.06869287
1.14098,-0.05297672,-0.1692139
1.298887,-0.205944,-0.2013688
1.355934,-0.4585978,-0.2558815
1.158255,-0.6048915,-0.3969336
0.8783838,-0.5461494,-0.5076126
0.7227997,-0.5659222,-0.5035862
0.8524878,-0.7257592,-0.3494974
1.15063,-0.7461666,-0.2553718
1.353803,-0.644032,-0.3634087
1.407429,-0.4184278,-0.4708631
1.177681,-0.1596428,-0.3989245
0.7755787,-0.1814715,-0.2407226
0.525682,-0.3081705,-0.07710251
0.4544567,-0.2893065,0.02950783
0.5298854,-0.2868861,-0.08017814
0.5972288,-0.2928749,-0.1788754
0.6339464,-0.250784,-0.1316778
0.7470096,-0.2601679,-0.1341237
0.7447548,-0.2680605,-0.07552278
0.7047874,-0.2863921,-0.01924694
0.7432123,-0.3430227,-0.03891858
0.8232325,-0.3490868,0.0006915318
1.022631,-0.3378988,-0.03138499
1.104659,-0.3264085,-0.1059703
1.061654,-0.343079,-0.1233917
1.136863,-0.4514211,-0.06478394
1.202918,-0.562057,0.03054673
1.234117,-0.6343272,-0.09918452
1.29992,-0.8107278,-0.4065573
1.254364,-0.9847281,-0.6420297
0.9957071,-0.7634614,-0.6321886
0.7545124,-0.3961745,-0.4032418
0.7900986,-0.3097182,-0.2805602
0.902621,-0.2898168,-0.2548376
0.8944906,-0.3818455,-0.2227819
0.903255,-0.5625475,-0.2001263
0.8887305,-0.5034717,-0.132321
0.7167456,-0.378664,-0.1605361
0.5760423,-0.2706108,-0.1813379
0.6179698,-0.1960353,-0.1339961
0.7361819,-0.2390917,-0.1971736
0.8448927,-0.2044214,-0.2354582
0.9115563,-0.1867776,-0.2520643
0.8970605,-0.2414022,-0.2380515
0.869689,-0.2119279,-0.1431375
0.936652,-0.1849363,-0.1321613
0.994412,-0.1624915,-0.1168073
1.008722,-0.1693221,-0.08325499
1.037605,-0.2262831,-0.06045077
1.01703,-0.1839581,-0.01333433
1.05507,-0.0644469,-0.0962239
1.166273,-7.744385e-05,-0.2128131
1.282373,-0.2078041,-0.2595015
1.365476,-0.5867425,-0.3241692
1.179048,-0.6468297,-0.4112554
0.7987046,-0.5250111,-0.538061
0.606424,-0.5466833,-0.6141542
0.9458047,-0.5447764,-0.5603062
1.56475,-0.4889935,-0.5102786
1.667917,-0.4303575,-0.5308728
1.301645,-0.3284146,-0.4685772
0.9159079,-0.2155293,-0.2682268
0.6168481,-0.1759635,-0.08955421
0.4948456,-0.2370798,-0.0242741
0.4555996,-0.2415096,-0.09409283
0.520913,-0.2358354,-0.1775993
0.6366476,-0.3000337,-0.1562066
0.6603324,-0.2910763,-0.1365654
0.7282606,-0.3089269,-0.08870539
0.7485919,-0.3670823,-0.01150512
0.7596548,-0.3572202,-0.005140603
0.907617,-0.358284,-0.01331193
1.015723,-0.3387131,-0.04950911
1.040914,-0.3028589,-0.1014056
1.033275,-0.3081162,-0.1092242
1.090165,-0.3830911,-0.05383377
1.232463,-0.5201216,0.06316448
1.32697,-0.5705636,0.06739025
1.346429,-0.6097259,-0.134038
1.296131,-0.7312534,-0.3941352
1.194551,-0.7565433,-0.5476728
0.9773387,-0.6391307,-0.5896945
0.8083625,-0.4475544,-0.4992499
0.8726302,-0.2818964,-0.2627027
0.8824783,-0.2946322,-0.1846863
0.8579514,-0.4556953,-0.2210064
0.8786769,-0.5634753,-0.1448184
0.7972031,-0.501206,-0.170985
0.7137809,-0.3385203,-0.2070534
0.6060787,-0.1772023,-0.1742742
0.5967019,-0.104883,-0.215873
0.7404155,-0.1669104,-0.2250773
0.792837,-0.2297189,-0.2554305
0.8475652,-0.262972,-0.2641305
0.8800499,-0.3161997,-0.1981942
0.8901115,-0.23997,-0.1836892
1.024177,-0.1149183,-0.1395537
1.073167,-0.09503128,-0.1097613
1.047034,-0.07862082,-0.09437519
1.058399,-0.08507725,-0.04208557
1.067353,-0.0896984,-0.07391398
1.157215,-0.08002839,-0.1068502
1.280397,-0.1945334,-0.1330211
1.309121,-0.371023,-0.2241542
1.162019,-0.4846158,-0.3516244
0.9129543,-0.4954561,-0.5405122
0.7960868,-0.527471,-0.6071231
0.9327389,-0.6453651,-0.4427323
1.293389,-0.6568154,-0.3326619
1.558438,-0.5382301,-0.4411214
1.398346,-0.3347698,-0.5133624
1.000979,-0.1528742,-0.355833
0.6915622,-0.1642471,-0.1729313
0.4918512,-0.2471599,-0.0801359
0.4361189,-0.3004199,-0.04668742
0.5204879,-0.3110631,-0.09807473
0.5518509,-0.2875111,-0.1218689
0.5986784,-0.2976966,-0.1061955
0.69677,-0.2712388,-0.1009178
0.75798,-0.245776,-0.07000651
0.8317467,-0.2828201,-0.07746763
0.8435063,-0.3261416,-0.08312835
0.9434368,-0.3876176,-0.04060455
1.11471,-0.388616,-0.02820565
1.060931,-0.3207394,-0.04818278
1.006185,-0.3175151,-0.06094123
1.059872,-0.422887,-0.005116958
1.159513,-0.5834712,0.04729871
1.354896,-0.6588693,-0.07047154
1.421823,-0.6852131,-0.3329802
1.33638,-0.7463637,-0.5504388
1.12492,-0.6789353,-0.5224986
0.7468867,-0.4527103,-0.3704305
0.6413232,-0.1996215,-0.3328561
0.8472565,-0.1267161,-0.312348
0.9125277,-0.3734953,-0.2658251
0.9332611,-0.6020387,-0.2154896
0.9058497,-0.5758911,-0.1389449
0.7069889,-0.44006,-0.1647295
0.637745,-0.2720401,-0.2146712
0.6579268,-0.1905075,-0.2100641
0.6714931,-0.1918555,-0.2371509
0.7924014,-0.1904915,-0.228537
0.8937435,-0.2455348,-0.2270055
0.9006331,-0.2784861,-0.2367886
0.8667404,-0.2375988,-0.1794011
0.9296927,-0.1694794,-0.1541791
1.047825,-0.1073319,-0.1620375
1.067631,-0.1195483,-0.1619512
1.068974,-0.1455603,-0.1270072
1.048326,-0.1458155,-0.0340066
1.062074,-0.1525064,0.006501043
1.144576,-0.1183314,-0.06225779
1.230245,-0.1034521,-0.1551188
1.321353,-0.2345033,-0.1810807
1.249677,-0.416445,-0.266246
1.029966,-0.4611361,-0.4633456
0.7629337,-0.4810252,-0.5290139
0.6651758,-0.6201439,-0.4558481
1.050983,-0.6949181,-0.4087655
1.506433,-0.6332388,-0.4145181
1.580609,-0.4870002,-0.4221802
1.284516,-0.2475404,-0.3742589
0.8471608,-0.1457002,-0.2820681
0.6220226,-0.2204844,-0.1377362
0.4966271,-0.222745,-0.05916503
0.4291526,-0.2354448,-0.1179968
0.5122209,-0.2878469,-0.1289592
0.5459564,-0.2784117,-0.1062075
0.6293564,-0.2998427,-0.1153884
0.7662684,-0.2993923,-0.0685405
0.7967616,-0.2839221,-0.00608668
0.8242697,-0.3252008,0.01021605
0.9085755,-0.32515,0.003024085
1.027692,-0.3161412,-0.01732592
1.026715,-0.3217475,-0.07405638
0.9907809,-0.3673145,-0.1236703
1.16509,-0.4988422,-0.09885484
1.316848,-0.564706,-0.043587
1.342836,-0.5571514,-0.04350867
1.402323,-0.6437768,-0.2297741
1.407422,-0.7906953,-0.5521146
1.160825,-0.750663,-0.642462
0.7402357,-0.4734039,-0.4472628
0.6158959,-0.1931492,-0.2875071
0.7923164,-0.124223,-0.2372368
0.8878904,-0.3445185,-0.2244519
0.9601433,-0.5502657,-0.2280052
0.9667132,-0.5193587,-0.2128075
0.8291987,-0.4365466,-0.213644
0.7044176,-0.2946199,-0.2043647
0.6126289,-0.1783736,-0.1635678
0.6777771,-0.2099102,-0.1696832
0.8504737,-0.2075659,-0.1967619
0.8799424,-0.1813374,-0.2143052
0.8501973,-0.198823,-0.2063169
0.8301698,-0.2159816,-0.1661089
0.8488298,-0.2226169,-0.1625361
0.9475574,-0.2015524,-0.1752545
1.024037,-0.1822166,-0.1649315
1.083241,-0.1968545,-0.09471955
1.093266,-0.2041029,0.00385066
1.086048,-0.1243808,-0.02160417
1.179767,-0.03735132,-0.1111415
1.303795,-0.0853897,-0.1742416
1.364081,-0.2572082,-0.2720954
1.209707,-0.4505024,-0.4024039
0.9013409,-0.5264279,-0.5581787
0.7218926,-0.5911427,-0.6196971
0.8080016,-0.77771,-0.488827
1.194103,-0.8331845,-0.3871272
1.497137,-0.6330133,-0.4142358
1.331645,-0.3403692,-0.3719319
0.9673639,-0.1269239,-0.2197386
0.7044769,-0.1222731,-0.08673891
0.5448593,-0.1919474,-0.03330286
0.5388016,-0.1950609,-0.07242467
0.6331167,-0.2345622,-0.1198595
0.6591259,-0.2961741,-0.103834
0.7050888,-0.325069,-0.08625029
0.7463016,-0.3346252,-0.04658858
0.711153,-0.2974785,-0.01622925
0.7445903,-0.271923,-0.04536047
0.8062217,-0.2813762,-0.03533963
0.9412501,-0.288562,-0.05077953
1.066667,-0.3228307,-0.1251203
1.008428,-0.3881656,-0.1530505
1.044333,-0.4756006,-0.1064669
1.223717,-0.566294,0.05292585
1.357173,-0.6356242,0.1258842
1.395339,-0.7150263,-0.1785493
1.341621,-0.7975339,-0.5830513
1.131367,-0.751353,-0.5810513
0.7274051,-0.5293166,-0.3709667
0.5966916,-0.3154645,-0.3486674
0.7406077,-0.196743,-0.3380495
0.7155392,-0.1743776,-0.3088861
0.8663583,-0.3706015,-0.3054214
1.105878,-0.6310081,-0.1996332
0.96265,-0.6036897,-0.1537077
0.7460273,-0.3954148,-0.1605833
0.6345258,-0.314644,-0.1362826
0.6362035,-0.2868461,-0.1582276
0.7508956,-0.1982103,-0.1869858
0.7861503,-0.1366984,-0.2240642
0.8576821,-0.1517818,-0.2295989
0.9078198,-0.2070887,-0.2029818
0.8454423,-0.2284001,-0.177287
0.9128733,-0.2434606,-0.1368561
0.9882416,-0.2260529,-0.1368962
1.008695,-0.1673499,-0.1224225
1.051672,-0.1850378,-0.07794828
1.014282,-0.1597321,-0.04823026
1.051496,-0.06270848,-0.0586897
1.180171,-0.02658062,-0.1377355
1.300539,-0.1311907,-0.2105574
1.353402,-0.3832363,-0.3133946
1.110527,-0.5150868,-0.4397328
0.7429354,-0.5633495,-0.4781947
0.6404161,-0.6901768,-0.4535365
0.9970875,-0.7270358,-0.3973303
1.557838,-0.6949053,-0.366055
1.663041,-0.53624,-0.3890838
1.31067,-0.2425309,-0.3875322
0.9266917,-0.1458685,-0.2530566
0.6742295,-0.1993638,-0.03750424
0.5812822,-0.1900808,0.008212603
0.5209244,-0.2119462,-0.09152679
0.4920472,-0.2442766,-0.1322841
0.5331564,-0.2178648,-0.1197238
0.5943928,-0.2377217,-0.1029242
0.6713803,-0.2664661,-0.07958334
0.7007678,-0.2699514,-0.03456198
0.7389682,-0.3163195,0.002948272
0.8551076,-0.3538806,-0.003314318
1.011334,-0.3716663,-0.04126093
1.110159,-0.3660926,-0.106288
1.080488,-0.3783768,-0.1333179
1.132254,-0.5059912,-0.04686667
1.293005,-0.6172447,0.05386899
1.370703,-0.5974608,-0.00137216
1.422783,-0.5924027,-0.197127
1.407259,-0.7027527,-0.4099958
1.169135,-0.7390177,-0.489709
0.8307678,-0.5652255,-0.3967198
0.6893389,-0.3319925,-0.3633022
0.7642414,-0.2224327,-0.3707556
0.8453656,-0.3307119,-0.2936756
0.9658368,-0.5222958,-0.2716409
1.017505,-0.6183415,-0.208252
0.822845,-0.5485559,-0.1239757
0.6535027,-0.3437746,-0.1630977
0.6370794,-0.2328513,-0.163792
0.7051972,-0.1554003,-0.1850743
0.8211695,-0.0795994,-0.2578105
0.8642032,-0.1658135,-0.2426681
0.871914,-0.1878198,-0.2077782
0.8674272,-0.1756567,-0.1656777
0.8800964,-0.2112965,-0.1327391
0.9544069,-0.1461157,-0.1275422
0.9895819,-0.1338418,-0.09388657
1.013822,-0.1426163,-0.05389982
1.033229,-0.1123629,-0.02623938
1.065838,-0.07359808,-0.0697276
1.194319,-0.011634,-0.1668149
1.36565,-0.1489416,-0.2429418
1.482525,-0.3556329,-0.3216037
1.325883,-0.4037872,-0.3699313
0.9494817,-0.4733273,-0.4764968
0.7397025,-0.6054687,-0.6023092
0.7744609,-0.7120915,-0.4467806
0.8995734,-0.76841,-0.2730507
1.094169,-0.692744,-0.3652418
1.348112,-0.4526496,-0.3735145
1.307365,-0.2676966,-0.3130158
0.9942736,-0.2455318,-0.3391151
0.8346003,-0.1932013,-0.2233169
0.6830115,-0.1747149,-0.1017669
0.634537,-0.285097,-0.1498016
0.6998465,-0.3319735,-0.1608726
0.5944512,-0.301904,-0.1170356
0.6991472,-0.2766421,-0.1006958
0.7996975,-0.2402443,-0.05751798
0.7158193,-0.2577525,-0.0291386
0.8012688,-0.3216581,-0.05647051
0.7869897,-0.3491045,-0.05085644
0.8251915,-0.3432947,-0.04023274
0.9694916,-0.3110472,-0.08066595
0.969381,-0.3056652,-0.1159976
1.027843,-0.3735454,-0.1362761
1.101264,-0.5179729,-0.06348923
1.218684,-0.6298291,0.08509579
1.245748,-0.4860539,0.1164262
1.165816,-0.3452409,0.01326002
1.276695,-0.5321791,-0.1941225
1.267846,-0.7140433,-0.4311232
1.076593,-0.6936153,-0.5403542
0.8617363,-0.574381,-0.5321688
0.7211298,-0.3458967,-0.4279139
0.8142175,-0.2180768,-0.274688
0.8640076,-0.3420416,-0.242413
0.8940154,-0.4676505,-0.2550329
0.9398832,-0.4658645,-0.1794184
0.8291096,-0.4203727,-0.1694679
0.7713758,-0.3329454,-0.1799419
0.7476583,-0.2408554,-0.1197989
0.7711598,-0.1900577,-0.1706349
0.8872972,-0.1581711,-0.2371223
0.8961355,-0.1765832,-0.2141256
0.8846935,-0.2174123,-0.1841126
0.8864599,-0.2233223,-0.1153914
0.8968788,-0.191114,-0.1119332
0.9750958,-0.139969,-0.1641391
1.017885,-0.1708436,-0.1497224
1.034185,-0.2397154,-0.1164828
1.0479,-0.2311558,-0.0786913
1.11567,-0.1648417,-0.1153486
1.229337,-0.05883079,-0.1773646
1.257421,-0.05593492,-0.140536
1.266464,-0.1816686,-0.1380371
1.245269,-0.2619414,-0.193073
1.103537,-0.3548252,-0.3150143
0.8772422,-0.4834933,-0.5069215
0.7462701,-0.5343179,-0.4856965
0.8732818,-0.57858,-0.2705205
1.042188,-0.6819089,-0.1715493
1.116492,-0.6563142,-0.2197004
1.129666,-0.4443662,-0.3161494
1.080211,-0.2902284,-0.3617167
1.062168,-0.2496555,-0.303269
0.8586552,-0.2786159,-0.1510097
0.541329,-0.3032713,-0.001219749
0.5683741,-0.2562789,-0.06801436
0.6802546,-0.2771229,-0.2002906
0.6552914,-0.2737497,-0.1761185
0.7090024,-0.2480963,-0.1663405
0.7613689,-0.3119614,-0.1216779
0.7821222,-0.3133841,-0.008147999
0.8091423,-0.3329878,-0.01303393
0.8294178,-0.3553885,-0.03638599
0.9419121,-0.3176555,-0.05013923
1.010474,-0.3264246,-0.1139036
0.972827,-0.3194527,-0.1150902
1.058969,-0.374896,-0.04688779
1.227275,-0.4494807,0.01936927
1.308485,-0.4235168,0.02669305
1.295118,-0.4331448,-0.02414223
1.261193,-0.5211945,-0.1380903
1.246838,-0.677254,-0.3552607
1.117157,-0.752629,-0.5019234
0.8763251,-0.591201,-0.474021
0.7211907,-0.3579232,-0.4224132
0.747841,-0.2671932,-0.3644641
0.8969265,-0.3506637,-0.2914276
0.9935406,-0.4921184,-0.2491914
0.990486,-0.5845745,-0.1731516
0.8946862,-0.5266098,-0.1270948
0.7365399,-0.3581667,-0.1560623
0.6659963,-0.2763922,-0.1404932
0.707942,-0.2394238,-0.1538253
0.8078289,-0.1862706,-0.2264276
0.8771308,-0.1895185,-0.2360876
0.878876,-0.199049,-0.2228969
0.871642,-0.1894704,-0.2019888
0.8704502,-0.1760743,-0.1611944
0.9006768,-0.1579371,-0.1544906
0.9332503,-0.1681679,-0.1680168
0.9888846,-0.2073834,-0.1708526
1.042613,-0.2618692,-0.130695
1.044555,-0.2715388,-0.09440936
1.121464,-0.1871379,-0.1297298
1.20107,-0.08877229,-0.1549723
1.23786,-0.08633038,-0.1240692
1.299281,-0.2009517,-0.09433187
1.302761,-0.3270871,-0.1120639
1.221466,-0.3650791,-0.2366383
0.9758616,-0.3781802,-0.4569334
0.7159421,-0.4520827,-0.5470603
0.726703,-0.5377396,-0.4112608
0.8861395,-0.6088099,-0.3288535
1.117386,-0.6481929,-0.3791053
1.330551,-0.5333045,-0.3782774
1.205835,-0.3455185,-0.3429992
0.8935351,-0.2671797,-0.2675972
0.7248665,-0.2643584,-0.1160184
0.6039371,-0.2750889,-0.07476663
0.5809546,-0.2605154,-0.17646
0.6874645,-0.2526433,-0.2290056
0.733978,-0.2882717,-0.2144983
0.8142749,-0.325047,-0.1702832
0.8505174,-0.4019708,-0.07652613
0.8094972,-0.4326902,-0.01611682
0.8609395,-0.3468238,-0.02344753
0.8753466,-0.2806288,-0.04532942
0.9218509,-0.2462715,-0.07440708
0.9803835,-0.2424455,-0.1106175
0.955233,-0.3368949,-0.1182691
1.082349,-0.4975465,-0.05616515
1.24246,-0.5839614,0.001479907
1.277742,-0.5517866,-0.06116766
1.345831,-0.6146009,-0.2392468
1.411933,-0.7544636,-0.4497678
1.180553,-0.7137174,-0.5114186
0.7297767,-0.5229486,-0.3587121
0.5711075,-0.3083542,-0.2366591
0.6516781,-0.207768,-0.2493387
0.7846601,-0.305518,-0.2667932
1.016636,-0.4338006,-0.2681174
1.027118,-0.5199934,-0.2378969
0.8429191,-0.5045987,-0.1826833
0.7584114,-0.349933,-0.1774337
0.7308955,-0.2795412,-0.1904501
0.7570275,-0.2750615,-0.191995
0.8011054,-0.2648394,-0.193247
0.83116,-0.2994159,-0.2014344
0.8583553,-0.2656103,-0.2166985
0.8552217,-0.2344631,-0.2027966
0.9151735,-0.203227,-0.1805446
0.9965473,-0.1498175,-0.1664597
1.027918,-0.2160005,-0.1348088
1.047822,-0.2558132,-0.0884887
1.027019,-0.2478013,-0.05554724
1.038618,-0.200847,-0.07999473
1.102028,-0.03972687,-0.1326801
1.174373,0.02134425,-0.1707504
1.266205,-0.06196656,-0.1973195
1.294082,-0.2383115,-0.2385898
1.258907,-0.4637452,-0.3560465
1.068947,-0.5776925,-0.4499323
0.7226314,-0.6343447,-0.4048199
0.6702391,-0.7057047,-0.33204
1.014866,-0.6971028,-0.3096742
1.341684,-0.5560354,-0.3571491
1.349883,-0.3463675,-0.4218873
1.04719,-0.1662627,-0.3453813
0.7427003,-0.09878132,-0.2008752
0.6431512,-0.1646479,-0.1239906
0.6151332,-0.2620495,-0.09793553
0.5814142,-0.3316425,-0.1325851
0.6409253,-0.3619046,-0.1545362
0.7351158,-0.3233812,-0.1321399
0.7508559,-0.2708834,-0.1197605
0.7690598,-0.2696299,-0.06347539
0.7946627,-0.3140151,-0.02736992
0.8252434,-0.3698625,-0.0496198
0.9438159,-0.3804159,-0.04586069
1.03493,-0.3232794,-0.07578145
1.02194,-0.3072457,-0.118821
1.023033,-0.417729,-0.08065725
1.115348,-0.5684927,0.001868355
1.240104,-0.6386449,0.02191105
1.302394,-0.6473747,-0.1691516
1.289808,-0.6944772,-0.4841748
1.122137,-0.7118609,-0.6250804
0.8585122,-0.5884409,-0.6089265
0.8045406,-0.4154894,-0.606282
0.8794223,-0.3694738,-0.5451551
0.8502085,-0.4420408,-0.3601477
0.8714685,-0.4940261,-0.1466852
0.9416572,-0.5728758,-0.09055983
0.8972064,-0.5971365,-0.1710011
0.8042728,-0.415724,-0.177577
0.716315,-0.2771394,-0.2188694
0.7043529,-0.2606493,-0.2535657
0.745185,-0.1999239,-0.1783115
0.7552888,-0.169228,-0.2214012
0.8616862,-0.2186135,-0.2282397
0.9329549,-0.2297925,-0.1731989
0.8834764,-0.1893669,-0.1892789
0.928769,-0.1723851,-0.1085175
0.9808721,-0.1448151,-0.1011137
1.004072,-0.1425499,-0.1333817
1.040049,-0.1818157,-0.05668507
1.014212,-0.1561744,-0.03967597
1.050401,-0.1100131,-0.03922977
1.157227,-0.07325188,-0.09598485
1.2684,-0.1326746,-0.1953035
1.311621,-0.3562405,-0.255817
1.138274,-0.5322129,-0.394586
0.9086899,-0.5714652,-0.520582
0.7725486,-0.557761,-0.5038796
0.7516085,-0.6016094,-0.3718206
1.025182,-0.6506718,-0.2944956
1.420031,-0.5468351,-0.3660643
1.44147,-0.3744339,-0.4069476
1.101123,-0.1949791,-0.3308563
0.785567,-0.1280575,-0.2005917
0.6139777,-0.2204314,-0.1141783
0.5556031,-0.2532326,-0.1156419
0.5596089,-0.2976091,-0.1361125
0.5972117,-0.3669653,-0.1219699
0.6912822,-0.3403069,-0.09756776
0.7252201,-0.3126133,-0.1015174
0.7440861,-0.2445502,-0.08302189
0.8046792,-0.1974791,-0.06556442
0.7999558,-0.2747476,-0.06497494
0.8789707,-0.3260151,-0.03490501
1.007031,-0.3180352,-0.04528628
1.000081,-0.2934653,-0.07956559
1.006103,-0.2924646,-0.09587124
1.106108,-0.389535,-0.06015096
1.229392,-0.5099624,0.02816912
1.305947,-0.533731,0.01904349
1.31504,-0.5258552,-0.09545227
1.311908,-0.6107519,-0.2787267
1.243741,-0.6860608,-0.4502916
1.004369,-0.6273156,-0.455902
0.6910221,-0.4534846,-0.3970309
0.5649014,-0.2267331,-0.379922
0.6689712,-0.1687247,-0.379723
0.8359914,-0.3446005,-0.3524376
0.9843739,-0.5309185,-0.255101
1.002367,-0.6102663,-0.1744945
0.8597383,-0.5142221,-0.1498451
0.767181,-0.3333016,-0.1460963
0.7598842,-0.2591611,-0.1622752
0.7601379,-0.1839025,-0.1718931
0.8296069,-0.1271995,-0.1934118
0.8985793,-0.2065105,-0.2193281
0.8976453,-0.249266,-0.2010835
0.8681936,-0.2429949,-0.1576163
0.849813,-0.227812,-0.1223868
0.9015354,-0.1646289,-0.1232133
0.9460743,-0.1593217,-0.144859
0.9461326,-0.1816585,-0.1375366
0.9700319,-0.1987522,-0.09835884
1.019931,-0.2202247,-0.07698704
1.101162,-0.1575602,-0.1422676
1.192217,-0.1110968,-0.2194304
1.291151,-0.2082285,-0.1814253
1.331444,-0.3599642,-0.1697822
1.232994,-0.435405,-0.314122
1.099185,-0.4501623,-0.4666124
0.9738889,-0.5023949,-0.5007236
0.8160556,-0.6311092,-0.4177508
0.7227777,-0.7612996,-0.3183062
