accx,accy,accz
1.398206,-0.802612,-0.06031412
0.670444,-0.4542542,0.1589384
0.706297,-0.3040135,-0.01696894
1.181157,-0.2752074,-0.03998645
1.435466,-0.2922862,0.07320653
1.205679,-0.3055625,-0.005020723
0.7807989,-0.2720628,-0.005385516
0.7106936,-0.2795034,-0.0119545
0.6181581,-0.2150231,-0.08574896
0.5309451,-0.1702906,-0.03885878
0.7180735,-0.1885792,-0.06616517
0.7567104,-0.1036903,-0.06495419
0.78594,-0.07814751,-0.01159517
0.8327185,-0.05514618,-0.01771217
0.8036991,0.04078671,0.08008925
0.8937181,0.07420574,0.1247958
0.8956998,0.07197414,0.1226748
0.9627819,-0.04755325,0.1857794
1.133265,-0.2017194,0.2081114
1.1361,-0.2095251,0.2179764
1.145869,-0.1165903,0.2027355
1.154921,-0.02376331,0.2460012
1.157341,-0.009167693,0.3344865
1.195521,-0.03564792,0.2842394
1.164375,-0.1083972,0.01020066
1.12652,-0.1777436,-0.387013
1.105079,-0.1553947,-0.4237264
1.23379,-0.1948984,-0.1547767
1.564614,-0.4331055,-0.07673643
1.772327,-0.6527626,-0.05843658
1.667202,-0.5037736,-0.006278134
1.422777,-0.2431841,0.02376018
1.130349,-0.2182617,0.06074165
0.7345439,-0.1887826,0.04685695
0.5089039,-0.1701815,0.0987736
0.4788232,-0.2133236,0.1114058
0.4114755,-0.1415087,0.02372972
0.4481534,-0.1187583,0.02688786
0.4888137,-0.153311,0.02069124
0.5040772,-0.1636997,0.05717363
0.6061683,-0.2302819,0.1805413
0.6312417,-0.2542077,0.2519932
0.7634787,-0.2518116,0.2993851
0.9967397,-0.2466322,0.2740357
1.117391,-0.1733182,0.2165333
1.258321,-0.1041882,0.1957613
1.365335,-0.0589814,0.2954699
1.390653,-0.05381715,0.5362976
1.408169,-0.1079701,0.5290498
1.487155,-0.3358628,0.1857724
1.573797,-0.7941455,-0.1326227
1.321271,-0.979211,-0.13199
0.8575901,-0.5953254,0.02309679
0.7430875,-0.2413907,-0.02210961
1.052841,-0.3098087,-0.01970042
1.277609,-0.3802444,0.0359327
1.060382,-0.30783,-0.03422647
0.771034,-0.3222112,0.004063654
0.6655753,-0.2740698,-0.01941923
0.5850423,-0.1730209,-0.08330258
0.6390719,-0.1754219,-0.03735524
0.7594757,-0.1520955,-0.06236369
0.7776894,-0.1100485,-0.02101483
0.8065937,-0.07089288,0.0246178
0.8037661,-0.00592658,0.02950788
0.8267233,0.04193707,0.122035
0.9162066,0.06613488,0.1255484
0.9884252,-0.002713327,0.1246377
1.106045,-0.1128692,0.1677757
1.123095,-0.1557201,0.170734
1.090369,-0.1137516,0.2258928
1.137874,0.02018286,0.2473778
1.143812,0.09379497,0.2687467
1.233285,-0.03428356,0.3031823
1.3493,-0.2635962,0.1085418
1.361781,-0.3518205,-0.1822422
1.316902,-0.308961,-0.2256655
1.238198,-0.4140812,-0.073658
1.328798,-0.5933791,0.0282599
1.475182,-0.5851956,0.05350187
1.471108,-0.4104708,0.07300828
1.351998,-0.2579635,0.06894202
1.060629,-0.2381944,0.06077531
0.7831916,-0.2232069,0.07332782
0.629254,-0.1609484,0.07851311
0.505582,-0.1676462,0.07961553
0.4834881,-0.1899176,0.07119053
0.5046187,-0.1783492,0.05792139
0.5060911,-0.1940383,0.08417691
0.5134464,-0.1948167,0.1400605
0.5265287,-0.1790274,0.197302
0.5860884,-0.1948562,0.2523621
0.748297,-0.1991321,0.2728944
1.03597,-0.1947656,0.2519369
1.263025,-0.1599967,0.2334992
1.351462,-0.1007478,0.2321826
1.40822,-0.09738644,0.2753957
1.309819,-0.04798555,0.4443759
1.16815,0.01201189,0.5851123
1.284022,-0.2196558,0.3396329
1.462119,-0.7360221,-0.08415162
1.42369,-1.020437,-0.1471517
1.10161,-0.69333,0.004554829
0.7722613,-0.277456,0.03414082
1.009126,-0.3021141,0.01753801
1.320449,-0.3684602,0.03993648
1.036438,-0.3122048,0.08090254
0.8337655,-0.3429271,0.05944324
0.772361,-0.2926186,0.006514247
0.5604243,-0.2033797,-0.02003385
0.6347879,-0.1798797,-0.09173887
0.7146719,-0.1358405,-0.08698803
0.7095464,-0.116936,-0.0210021
0.8188177,-0.07026893,-0.02558899
0.7632799,-0.02463291,0.02533217
0.791382,-0.01176688,0.07854223
0.9169169,0.02750037,0.09246918
0.9694538,-0.01925811,0.1383896
1.097414,-0.110005,0.1499834
1.125424,-0.173909,0.2039333
1.121903,-0.1729063,0.2760623
1.143423,-0.01635824,0.2523215
1.127356,0.08299328,0.2372166
1.260519,-0.06115334,0.2410858
1.412824,-0.2607721,0.1586276
1.40792,-0.2871902,-0.03076202
1.238066,-0.2652062,-0.1707519
1.102745,-0.4083295,-0.08724472
1.278062,-0.5496811,0.04823035
1.515319,-0.5099266,0.05981985
1.520211,-0.3662685,0.05913902
1.34045,-0.2557799,0.05834557
1.122769,-0.230873,0.04382963
0.9088948,-0.2037622,0.07586868
0.6236534,-0.1397373,0.08265176
0.5249662,-0.1320891,0.07448488
0.6314739,-0.1885851,0.08966673
0.5366261,-0.1948849,0.09356039
0.4948834,-0.1811031,0.1124696
0.601889,-0.1864063,0.1121552
0.5207971,-0.1477009,0.1242485
0.5304067,-0.143054,0.1871974
0.6049283,-0.1557601,0.2241103
0.668805,-0.1639721,0.2284311
1.015173,-0.2248332,0.2112077
1.286409,-0.2299744,0.2055979
1.368799,-0.1887899,0.2512788
1.434605,-0.1339276,0.4239104
1.3824,-0.02743003,0.6023694
1.37843,0.01221077,0.3777294
1.429533,-0.1966535,-0.02996991
1.378443,-0.5907417,-0.09958093
1.092892,-0.7064055,0.003779299
0.7781551,-0.4481793,0.03341024
0.9709671,-0.3033559,0.009129311
1.312659,-0.4133856,-0.008325368
1.286932,-0.481544,0.01399582
1.088974,-0.4132785,0.005360826
0.7939311,-0.3731946,-0.004438251
0.6014913,-0.3063401,-0.01869194
0.660127,-0.190962,-0.07528372
0.6906695,-0.1767973,-0.08406076
0.7365758,-0.1500301,-0.07992103
0.8005441,-0.1058893,-0.05587068
0.767438,-0.09063494,0.02405058
0.7973749,-0.03651663,0.06547643
0.8041229,-0.0163543,0.08602771
0.8250606,0.03280501,0.1157214
0.9539014,0.0523006,0.1542232
1.005928,-0.06072148,0.1989585
1.047142,-0.1618819,0.2152126
1.092375,-0.1927067,0.229312
1.106723,-0.07009921,0.2400522
1.143057,0.0508414,0.2628678
1.189239,-0.07922667,0.289654
1.306355,-0.2489511,0.1710621
1.354733,-0.3073588,-0.09581644
1.263744,-0.2998191,-0.2417645
1.23729,-0.3357998,-0.1237368
1.378139,-0.5345487,0.02380988
1.568872,-0.6389412,0.05275823
1.55262,-0.4313685,0.08315568
1.329124,-0.1832761,0.07814955
1.030052,-0.1375316,0.04259847
0.7741744,-0.1569321,0.08371535
0.7070825,-0.1358769,0.09063806
0.6280319,-0.1573707,0.07005245
0.4649894,-0.1779238,0.08443837
0.4777178,-0.1829128,0.06598485
0.5657548,-0.221037,0.0729514
0.5450838,-0.2228683,0.097699
0.5335112,-0.2145995,0.133583
0.555057,-0.2240372,0.2289933
0.6096549,-0.2275701,0.2717426
0.8315591,-0.2779441,0.2383837
1.118663,-0.3181603,0.2112051
1.294732,-0.2632136,0.2363665
1.373706,-0.1749395,0.3211604
1.389718,-0.1386384,0.438058
1.411643,-0.1514888,0.458131
1.507622,-0.2819318,0.178877
1.567114,-0.6165892,-0.1240073
1.290257,-0.815256,-0.06546877
0.8467698,-0.5604315,0.01766283
0.8520789,-0.2602005,-0.08985019
1.171448,-0.2834131,-0.07729422
1.300398,-0.3466748,0.0008548425
1.163073,-0.3097076,-0.0002461828
0.8895008,-0.3032078,0.01198236
0.7196639,-0.2539057,-0.02922534
0.6514001,-0.2087372,-0.05990987
0.6500629,-0.2110335,-0.04057953
0.7453025,-0.1717927,-0.08739902
0.7567539,-0.1590948,-0.08464142
0.7690312,-0.1229288,-0.03596989
0.807685,-0.04888683,0.0003054446
0.7847006,-0.007139477,0.0640111
0.8387902,0.06470893,0.1155042
0.9121417,0.0805715,0.1596828
0.9603126,0.02707982,0.1590292
0.9861714,-0.02465058,0.1549084
1.014464,-0.1293822,0.1689058
1.111868,-0.1694394,0.153143
1.12716,-0.1029652,0.1789086
1.112018,-0.09497908,0.1929729
1.15181,-0.1002818,0.2102196
1.202465,-0.0788549,0.2266551
1.281305,-0.141509,0.07710504
1.248215,-0.2022519,-0.1214422
1.108783,-0.2014087,-0.154464
1.031103,-0.304925,-0.04236695
1.208409,-0.4909155,0.01323836
1.608616,-0.5067284,-0.0183777
1.739923,-0.3490375,0.001736616
1.471767,-0.2702181,0.03761344
1.103639,-0.2905567,0.07811719
0.821945,-0.2568864,0.1061741
0.6641929,-0.1683374,0.08238973
0.5541245,-0.1258996,0.07294006
0.5079056,-0.1394071,0.05147321
0.5066705,-0.13184,0.02859128
0.5024211,-0.1387326,0.04311977
0.5141337,-0.1585781,0.08277067
0.5171735,-0.1575269,0.1841172
0.6152542,-0.2024813,0.2720241
0.8435934,-0.2470487,0.2693577
1.058082,-0.2529592,0.2609049
1.182461,-0.2104028,0.2602895
1.287489,-0.1486062,0.2571105
1.410679,-0.176245,0.3943153
1.477563,-0.2366055,0.4941178
1.646695,-0.3977556,0.1694382
1.754998,-0.6677701,-0.1465666
1.304488,-0.6669641,0.08488324
0.6892729,-0.3783195,0.2574158
0.6241821,-0.1698627,-0.01427871
1.107046,-0.1855376,-0.1203709
1.474273,-0.3418109,0.001334928
1.194051,-0.4264147,0.001871736
0.8093482,-0.3682453,-0.004974755
0.7185329,-0.2971211,-0.005528145
0.6173809,-0.2201252,-0.02873653
0.6600351,-0.143094,-0.03443987
0.7847599,-0.1278234,-0.07207087
0.762915,-0.1127791,-0.04798229
0.8067738,-0.07791692,-0.003737239
0.7995766,-0.06292759,-0.004006232
0.7644409,-0.009904725,0.0553213
0.8203614,0.09334218,0.121836
0.8000402,0.1216915,0.1303999
0.8836778,0.04929076,0.1332204
1.022893,-0.04949982,0.1645368
1.038382,-0.1528347,0.1674653
1.066676,-0.1748764,0.1457614
1.09539,-0.1206339,0.1824221
1.141072,-0.1015213,0.2239341
1.187348,-0.08491038,0.2430216
1.235744,-0.1297146,0.1706434
1.311754,-0.2496219,-0.07963983
1.308514,-0.2950969,-0.2578327
1.324927,-0.4084191,-0.186165
1.412345,-0.6429326,-0.06243554
1.543469,-0.7059692,-0.01806851
1.607757,-0.505092,0.01560353
1.429624,-0.2229121,0.008952598
1.210836,-0.1104174,-0.02230948
1.001654,-0.157434,0.02937782
0.7048406,-0.1645607,0.05528175
0.530314,-0.1633771,0.05427895
0.5079639,-0.1723601,0.07270047
0.4792571,-0.1629833,0.04395818
0.4835543,-0.1890931,0.06369208
0.5753464,-0.2162543,0.08291189
0.596439,-0.2316109,0.08984361
0.5670675,-0.2338841,0.1700617
0.6240326,-0.2007245,0.2191959
0.7067945,-0.1773865,0.2416033
0.9222245,-0.2005944,0.2265234
1.229727,-0.2250048,0.189803
1.387931,-0.1838537,0.2182101
1.435254,-0.1331358,0.3034671
1.419654,-0.09159853,0.4060637
1.435738,-0.074826,0.2921724
1.565835,-0.322126,-0.03174261
1.571636,-0.7390272,-0.182961
1.188239,-0.797722,0.01089043
0.7415598,-0.459095,0.2136947
0.8739171,-0.2032617,-0.008731617
1.247892,-0.2341764,-0.1916716
1.277686,-0.3508518,0.01311167
1.12503,-0.3748159,0.05509854
0.8296143,-0.3431615,-0.02372206
0.6347743,-0.2957921,-0.009775003
0.6960026,-0.216281,-0.0646812
0.696818,-0.1635188,-0.0714222
0.7806583,-0.1387041,-0.05171816
0.82756,-0.09984023,-0.04239932
0.7473309,-0.06209098,0.0175635
0.8093883,-0.02118706,0.04593187
0.7902445,0.02326959,0.07318766
0.8127671,0.05934744,0.1045065
0.9467113,0.0337314,0.1191524
0.9937336,-0.08792931,0.1309567
1.092225,-0.2141792,0.1449645
1.095476,-0.2112818,0.1978415
1.083568,-0.08086421,0.2360817
1.17183,-0.01647826,0.2553875
1.192094,-0.06319698,0.3221988
1.258401,-0.1000664,0.3606812
1.293311,-0.1475137,0.2022507
1.267468,-0.2128968,-0.08564878
1.228831,-0.2221748,-0.1914179
1.128717,-0.2520905,-0.1045363
1.212772,-0.4568184,-0.04278882
1.408108,-0.6225017,0.001104813
1.460938,-0.4619838,0.06201785
1.404911,-0.240294,0.05409924
1.189908,-0.1980625,0.0303718
0.9078483,-0.1991386,0.07456289
0.7554426,-0.1902531,0.08204066
0.6573471,-0.1868356,0.06319763
0.5288187,-0.1761615,0.08752851
0.48536,-0.1787796,0.08745931
0.5649267,-0.1812659,0.08929389
0.5997565,-0.1690338,0.104649
0.5856739,-0.1640841,0.132775
0.5932401,-0.1552173,0.2102344
0.605104,-0.1567394,0.2469911
0.7643297,-0.2086286,0.2091187
1.046814,-0.25665,0.1640954
1.244389,-0.2354576,0.1777341
1.389301,-0.1659579,0.2923826
1.511922,-0.09025102,0.4680149
1.501566,-0.05207117,0.5149139
1.477019,-0.2073507,0.2748217
1.528788,-0.6590485,0.02794898
1.351384,-1.069225,0.04729421
1.077457,-0.9577182,0.1027828
1.005383,-0.4728675,0.04335041
0.9085035,-0.1685185,-0.02416571
1.043631,-0.1804365,-0.0699204
1.356599,-0.3059931,-0.03209278
1.158655,-0.3453332,0.0579296
0.8550286,-0.3139458,0.02311075
0.790309,-0.3191017,-0.01769571
0.6881981,-0.2279574,0.007034464
0.7273453,-0.1452903,-0.0428313
0.7707037,-0.1460346,-0.04775764
0.7559097,-0.07669863,-0.01613824
0.8424716,-0.06896122,-0.01883816
0.7942535,-0.05728046,0.04198588
0.782131,-0.004301628,0.07823138
0.8542628,0.008076579,0.08982374
0.8913728,0.04384588,0.111573
1.06103,-0.06078082,0.1227724
1.10244,-0.204976,0.1689537
1.047887,-0.2094185,0.1734192
1.113924,-0.1357841,0.1851816
1.145802,0.008143488,0.246002
1.255433,0.04038193,0.2535497
1.414047,-0.1130678,0.2011722
1.432268,-0.2478737,0.03313972
1.29646,-0.1862283,-0.1879857
1.121297,-0.1589846,-0.2394808
1.143649,-0.4555354,-0.1043535
1.305841,-0.6877692,0.03639297
1.480093,-0.606401,0.08097964
1.540937,-0.4654922,0.06439618
1.250697,-0.3337407,0.03763052
0.9003132,-0.1973182,0.05690621
0.8219929,-0.1542878,0.07795004
0.7228972,-0.163883,0.08702658
0.5546966,-0.1146645,0.1241754
0.5658428,-0.1376585,0.1015348
0.5887998,-0.185865,0.08744139
0.5714463,-0.1610588,0.1222619
0.6228432,-0.2081999,0.1291725
0.5999188,-0.1972898,0.1773378
0.580579,-0.1654361,0.2112365
0.6585588,-0.2131719,0.1971666
0.8247787,-0.2193859,0.194205
1.158562,-0.2675783,0.1705871
1.397462,-0.2258559,0.1862248
1.387009,-0.09559767,0.3099712
1.305644,-0.04933611,0.4644677
1.281759,-0.02350199,0.4368262
1.502425,-0.2533617,0.2126894
1.662666,-0.7272372,0.07487759
1.216929,-0.900996,0.1094649
0.6825546,-0.5479017,0.1222233
0.7919943,-0.1614971,-0.04476542
1.148587,-0.2357736,-0.1687263
1.24779,-0.396686,-0.0275446
1.126029,-0.3909089,0.08100007
0.8728271,-0.4092861,0.02356496
0.7784367,-0.3608892,0.0092131
0.8036739,-0.3018883,0.01664378
0.69868,-0.2277979,-0.035127
0.7397228,-0.106924,-0.05976737
0.8427269,-0.1229169,-0.04536925
0.8184495,-0.1130609,-0.04035464
0.8467382,-0.07150675,0.01255892
0.8392048,-0.08311186,0.06813462
0.8297953,0.00397859,0.08982021
0.883229,0.05472277,0.1223714
0.9508976,0.02629266,0.1223994
1.068523,-0.04367725,0.1592661
1.091304,-0.1744746,0.2006478
1.071199,-0.1959507,0.1778701
1.115744,-0.110996,0.2000836
1.118066,0.009292907,0.2129545
1.150038,0.07220116,0.2157191
1.248209,-0.08643521,0.2166965
1.300614,-0.2687536,0.07461704
1.264567,-0.2304759,-0.1026996
1.12178,-0.208744,-0.1188374
0.9975014,-0.3860429,-0.02491133
1.160398,-0.487953,0.03790964
1.485612,-0.4033403,0.08232389
1.552972,-0.2783475,0.09078003
1.333762,-0.1937667,0.0491354
1.037385,-0.1968108,0.07588525
0.831323,-0.205294,0.07760786
0.7432948,-0.1910027,0.05104984
0.6516456,-0.2059898,0.08959213
0.5883018,-0.2205099,0.08755091
0.546165,-0.2345007,0.1071268
0.5400671,-0.221295,0.124461
0.6196476,-0.1941403,0.09310721
0.595392,-0.1975615,0.1388413
0.5515127,-0.2011786,0.1971099
0.5912088,-0.205184,0.2428453
0.6468658,-0.2210121,0.2356954
0.9043679,-0.2314368,0.1793599
1.228532,-0.2132103,0.2107584
1.35593,-0.1695479,0.2346107
1.335704,-0.1074863,0.3110465
1.233823,-0.0321703,0.4698228
1.237563,-0.04570859,0.4136777
1.465143,-0.3078762,0.1486438
1.64284,-0.7423598,-0.0383198
1.322509,-0.8678569,0.06755683
0.7908278,-0.4722828,0.1972472
0.7846095,-0.09853909,-0.01194687
1.060183,-0.132582,-0.1355167
1.166609,-0.3017098,0.0156152
1.107649,-0.3826103,0.0465483
0.912244,-0.3946503,0.002421211
0.7887294,-0.3249655,-0.006502739
0.726693,-0.2303795,-0.02758787
0.7236897,-0.1687846,-0.03604184
0.8013769,-0.1023151,-0.05106461
0.7867367,-0.05107536,-0.0314321
0.8247152,-0.02895276,-0.003135055
0.8412594,-0.02951381,0.01453032
0.7981224,-0.04006453,0.05779962
0.8836517,-0.02929083,0.08455036
0.9503763,-0.05844721,0.1141701
1.041639,-0.1354356,0.1362739
1.093308,-0.2062843,0.1405396
1.041704,-0.2211725,0.1518653
1.093506,-0.1138376,0.1615357
1.1328,0.006309704,0.2099871
1.191944,0.00373801,0.2521823
1.300203,-0.1153911,0.1987773
1.306567,-0.2192006,0.05539934
1.263509,-0.1634545,-0.09463975
1.117991,-0.1519994,-0.1256025
0.9822404,-0.3662091,-0.06426146
1.118499,-0.5394228,-0.02346952
1.430706,-0.4720623,0.03624244
1.593732,-0.317445,0.1034291
1.420292,-0.2358548,0.07983331
1.086775,-0.2082339,0.07560047
0.8655614,-0.2102996,0.1227447
0.7835995,-0.2059848,0.1014257
0.6670944,-0.1777536,0.09723475
0.5332417,-0.1912647,0.1183447
0.5623579,-0.1947387,0.1009762
0.6147521,-0.1856702,0.1081632
0.5919837,-0.2000722,0.1146851
0.6050055,-0.1841871,0.1274348
0.5947552,-0.1897574,0.1619008
0.6032315,-0.1993182,0.1825765
0.743187,-0.210604,0.2107986
0.9926097,-0.2860792,0.1978505
1.279665,-0.3192303,0.1720689
1.430918,-0.264237,0.2559785
1.458829,-0.1580578,0.4313501
1.439572,-0.02276653,0.536538
1.372659,0.04078815,0.3784052
1.417636,-0.1602751,0.1253604
1.387843,-0.5822705,0.1064448
1.045449,-0.760129,0.1672039
0.7521218,-0.5550379,0.1177085
0.8034255,-0.3230178,0.01561257
0.9490401,-0.257114,-0.09154179
0.9897129,-0.3060667,-0.03856295
1.133557,-0.3718114,0.07785025
1.132684,-0.3932732,0.04504365
0.8151465,-0.3142991,0.03853225
0.7151923,-0.1849523,0.04858859
0.7546628,-0.1479572,0.0006622542
0.7760197,-0.1392073,0.0003673379
0.8415187,-0.06641348,-0.02449893
0.7877243,-0.03552808,-0.03205201
0.8074262,-0.06605404,0.01028256
0.7917176,-0.04514335,0.02168476
0.7283512,-0.01146213,0.0581341
0.8314146,-0.002338237,0.07347614
0.9030308,0.02616244,0.08898558
1.034736,-0.02022896,0.1450491
1.155416,-0.1087083,0.1264571
1.155956,-0.1213559,0.1364872
1.166872,-0.1238232,0.2351795
1.144136,-0.1016905,0.2918293
1.225221,-0.06847325,0.2913921
1.336825,-0.1553564,0.2136152
1.394486,-0.2404895,0.03738215
1.412292,-0.1783264,-0.1115817
1.209211,-0.1782018,-0.06515204
1.050681,-0.3976689,0.07190681
1.211918,-0.5569599,0.1094122
1.422194,-0.370336,0.1349174
1.379689,-0.1011644,0.1167705
1.169939,-0.1045107,0.06188744
0.9212815,-0.1935901,0.1074052
0.6655919,-0.2046459,0.1027707
0.5602472,-0.22354,0.08458305
0.471736,-0.1881626,0.1154579
0.410996,-0.1530571,0.08399614
0.5378494,-0.1703792,0.09864626
0.6062028,-0.1793129,0.134595
0.6261631,-0.2315341,0.1753386
0.6239506,-0.2520291,0.2636952
0.5937942,-0.2088752,0.3061818
0.7367327,-0.1930941,0.3289896
0.946627,-0.2071869,0.2906252
1.1461,-0.2322482,0.2095737
1.304286,-0.2229756,0.1842552
1.382772,-0.2027216,0.2264406
1.411409,-0.1379996,0.4173862
1.40346,-0.0001924592,0.5662941
1.501136,-0.03041722,0.4028281
1.493045,-0.3704495,0.146293
1.281565,-0.7441592,0.1106411
1.029091,-0.7109946,0.1655089
0.7396631,-0.3721531,0.1001251
0.8594104,-0.2003286,-0.01350703
1.261142,-0.2254863,-0.08584787
1.345596,-0.3383529,0.008118129
1.172418,-0.4105361,0.146495
0.8329281,-0.3149829,0.06752324
0.7153445,-0.2215084,0.01983908
0.7890502,-0.1602645,0.05013437
0.6782047,-0.1226462,-0.01896581
0.7394078,-0.1505886,-0.02023112
0.7661394,-0.1304283,0.0292608
0.7119812,-0.1004481,0.06727478
0.8340438,-0.07127338,0.100768
0.7775203,0.002397819,0.08654232
0.7870095,0.05253826,0.1201848
0.9109338,0.04841517,0.1519414
0.9642155,-0.03405177,0.1596507
1.094709,-0.1586354,0.209802
1.082941,-0.243069,0.2155066
1.074952,-0.1988822,0.215426
1.146367,-0.008356431,0.2330406
1.169467,0.1097988,0.2343323
1.306929,-0.07372068,0.2019858
1.40147,-0.323807,-0.04689483
1.370049,-0.2874581,-0.3013187
1.198137,-0.2979074,-0.1274037
1.02751,-0.527457,0.09508747
1.225814,-0.5709355,0.01604708
1.540835,-0.408468,0.05615303
1.596839,-0.1730636,0.1422427
1.378317,-0.07664593,0.05653232
1.050274,-0.1529152,0.1107457
0.8254995,-0.09303372,0.1256018
0.6091429,-0.1022212,0.05151476
0.3932489,-0.1922725,0.1218861
0.3773991,-0.1857468,0.1047107
0.4444314,-0.2383867,0.09389138
0.4893811,-0.2073318,0.1479578
0.5702233,-0.1697591,0.123217
0.5658561,-0.2083697,0.1579169
0.5581994,-0.1649073,0.1940046
0.7189881,-0.1418513,0.2335956
0.858746,-0.1067314,0.2489962
0.9736144,-0.1333004,0.1888465
1.185788,-0.2425313,0.1850693
1.288445,-0.2512076,0.1815226
1.271592,-0.2320479,0.3643769
1.329337,-0.1122489,0.627017
1.386513,-0.03428508,0.4616844
1.517094,-0.3806243,0.1111378
1.641454,-0.7284862,-0.06804463
1.153947,-0.5282817,-0.01973555
0.5926148,-0.2240229,0.1186113
0.9550178,-0.2296989,0.03541136
1.457025,-0.2708359,0.007820834
1.430289,-0.348562,0.1259974
1.204161,-0.4181147,0.0844017
0.8333121,-0.3084447,0.08425565
0.7086458,-0.2464781,0.06052769
0.7535473,-0.163589,-0.05969722
0.6014908,-0.09785938,-0.05278067
0.7157201,-0.1805165,-0.05290341
0.821685,-0.1678561,-0.01546338
0.7339126,-0.1536572,0.04341723
0.8202786,-0.1406226,0.01576647
0.7726198,-0.03349402,0.05697791
0.7839432,0.02454382,0.09442006
0.9244692,0.03571442,0.1222789
0.9645061,-0.05979044,0.1559432
1.128446,-0.1962678,0.1607687
1.160064,-0.2200622,0.2183004
1.116867,-0.1083392,0.2383858
1.17969,0.04406511,0.2551303
1.189769,0.0004158658,0.2921734
1.277948,-0.1416576,0.2160688
1.285978,-0.2105092,0.04176826
1.179805,-0.2071208,-0.1180914
1.071197,-0.1575685,-0.1132493
1.05591,-0.2370036,-0.03579861
1.447921,-0.4275735,0.005534063
1.817566,-0.5628037,0.09622159
1.614685,-0.4357385,0.0876188
1.200292,-0.1441252,0.01268797
0.9628453,-0.1472556,0.07412902
0.8350744,-0.2091704,0.08558395
0.7380462,-0.1384739,0.05552725
0.5747322,-0.1939288,0.1034848
0.4457684,-0.1838915,0.07852176
0.5347163,-0.1594942,0.0634469
0.5397383,-0.1954487,0.08501599
0.5391247,-0.1484513,0.06112632
0.618261,-0.1681091,0.09886762
0.5279363,-0.1721265,0.1679203
0.6025483,-0.1578963,0.2351972
0.780617,-0.1945318,0.2581842
0.9993187,-0.1698715,0.2149017
1.331888,-0.1801206,0.2109912
1.363773,-0.1718703,0.2302185
1.355153,-0.08992995,0.3752994
1.369661,0.01118371,0.5379345
1.303814,0.0200828,0.3463432
1.467188,-0.353458,0.02600291
1.472773,-0.7621765,-0.06166538
1.061997,-0.6327773,-0.01379636
0.6876878,-0.3030701,-0.001267078
0.8827935,-0.2232242,-0.03277926
1.25311,-0.3083384,-0.0006972912
1.148326,-0.4484539,0.0455151
1.050766,-0.4706926,0.01644387
0.9269122,-0.3381209,0.00485905
0.6567089,-0.2536644,-0.01314678
0.7092083,-0.1474066,-0.06340262
0.7490044,-0.1012249,-0.05912454
0.7554251,-0.1640089,-0.02839282
0.8207284,-0.1243782,0.01191545
0.7386967,-0.1063352,0.04384158
0.7576466,-0.07192666,0.04771941
0.770777,0.02989441,0.07700469
0.7760093,0.05322329,0.1042998
0.9043126,0.02485559,0.1126922
1.020263,-0.1246702,0.114796
1.152569,-0.2708145,0.1248318
1.144431,-0.2384887,0.1968324
1.092043,-0.05363713,0.2749562
1.15052,0.1280449,0.2998413
1.199752,0.01258527,0.3008239
1.337122,-0.1971147,0.2290038
1.373139,-0.240454,0.02625731
1.177196,-0.2210831,-0.1402317
1.056142,-0.2114377,-0.1136423
1.143821,-0.3917149,-0.05190354
1.337208,-0.5766931,-0.007853352
1.471135,-0.4417769,0.08276854
1.4687,-0.2689823,0.08386723
1.241798,-0.2192409,0.04941479
0.928338,-0.1621175,0.08029097
0.8530359,-0.1515518,0.05792043
0.8115069,-0.1759284,0.0404357
0.6058277,-0.1850404,0.06617933
0.509084,-0.2242494,0.0698105
0.5662829,-0.2409335,0.1175136
0.5754907,-0.2051149,0.1375261
0.5696278,-0.1738918,0.1138979
0.598042,-0.1570552,0.1706887
0.5771677,-0.1551391,0.2453142
0.6163667,-0.1589389,0.2839721
0.7974911,-0.1828881,0.2710642
1.056451,-0.2473928,0.243906
1.280168,-0.2946298,0.2707848
1.366567,-0.2848176,0.3085118
1.453894,-0.219285,0.4591935
1.443226,-0.122877,0.5961681
1.319023,-0.1462713,0.3410885
1.379758,-0.4692051,-0.03066961
1.312409,-0.7884584,-0.06454365
0.9873072,-0.5975481,0.03167645
0.8124825,-0.2468981,0.01534523
0.8973524,-0.2028498,0.008131249
1.139064,-0.2171596,0.03945814
1.229522,-0.2710039,0.05825045
1.08233,-0.3622586,0.07050959
0.8660042,-0.3042567,0.0402572
0.7051866,-0.2677564,0.006115494
0.7581048,-0.1985584,-0.007336973
0.7911489,-0.08202992,-0.03454986
0.7428562,-0.1051686,-0.03779839
0.7846297,-0.1029911,-0.01955718
0.7720419,-0.06940845,0.007712715
0.7706175,-0.06971381,0.05596669
0.795249,-0.03107672,0.08300012
0.7870193,0.002083458,0.09229916
0.8371602,0.01385195,0.1205498
0.9027319,-0.04196649,0.1391362
1.027331,-0.15416,0.147451
1.170086,-0.255243,0.1823354
1.199898,-0.2741486,0.2154967
1.148671,-0.1243538,0.2276377
1.120829,0.01648937,0.2563959
1.203338,-0.02091068,0.2886909
1.280532,-0.1184283,0.2063207
1.283674,-0.1917534,-0.00927821
1.261051,-0.2593437,-0.1549588
1.146583,-0.2972728,-0.1289009
1.054317,-0.4060323,-0.03648737
1.233649,-0.6023511,0.03813762
1.498903,-0.5604772,0.07866516
1.451509,-0.3082482,0.07607771
1.206894,-0.1531679,0.06260312
1.009326,-0.1213643,0.08193206
0.8620358,-0.1775253,0.08092806
0.7896584,-0.1806992,0.08289752
0.6925931,-0.1580168,0.1262287
0.5899842,-0.2063154,0.1288585
0.582456,-0.1698078,0.1286445
0.6130134,-0.1616579,0.1410444
0.6822142,-0.1951857,0.1556864
0.6794662,-0.1581796,0.2223654
0.6605213,-0.163617,0.2566714
0.7570775,-0.1397361,0.2468059
0.884654,-0.131295,0.2478809
1.066259,-0.1689127,0.2422523
1.188562,-0.6002473,0.04443177
0.6681636,-0.3240037,0.1206714
0.9249312,-0.2845439,-0.01933779
1.398287,-0.3556052,-0.01935146
1.378735,-0.407911,0.05409752
1.117052,-0.4520433,0.05125149
0.785182,-0.3804899,0.07006356
0.6488691,-0.3058112,0.0350188
0.7020399,-0.1903565,-0.0006570126
0.569597,-0.08818689,-0.03128792
0.6537669,-0.1183825,-0.07087066
0.780154,-0.06113285,-0.01776686
0.6690969,-0.03334822,-0.002805766
0.7872084,-0.07444357,0.02809746
0.8019439,-0.01292832,0.113932
0.7866596,0.01617762,0.1280436
0.9636965,0.01593742,0.1563703
1.019876,-0.04426398,0.1633668
1.173323,-0.1999607,0.1570176
1.224566,-0.2468695,0.1964851
1.142282,-0.110088,0.2342872
1.19775,0.01783912,0.3183258
1.248896,-0.09733182,0.301863
1.344408,-0.2466707,-0.004839527
1.303245,-0.2735825,-0.3150783
1.222593,-0.3838648,-0.1938017
1.328183,-0.4755128,0.01665909
1.432996,-0.5078961,-0.061869
1.587886,-0.4880018,0.005821342
1.551808,-0.2711041,0.08291602
1.192351,-0.123352,-0.01856195
0.8692724,-0.1590708,0.0633282
0.6793721,-0.1802311,0.07150314
0.5444951,-0.1894866,0.03367237
0.4012817,-0.1797361,0.09228488
0.3887567,-0.1803686,0.02301044
0.4804781,-0.1947203,0.04571541
0.4740719,-0.1834345,0.08000536
0.520621,-0.1842376,0.09845622
0.5681304,-0.1644209,0.2600752
0.5388703,-0.1663458,0.2863747
0.6344367,-0.1906803,0.2556614
0.9267286,-0.2132092,0.2749511
1.253363,-0.257209,0.2652021
1.287841,-0.1925219,0.2822324
1.342913,-0.09765514,0.3305159
1.593139,-0.1158216,0.4988692
1.494349,-0.1316277,0.5868443
1.419649,-0.2250148,0.3012795
1.536054,-0.600881,-0.08585344
1.280663,-0.9227384,-0.1432137
0.9114347,-0.6344945,0.02657418
0.7199228,-0.1975571,0.05298626
0.915838,-0.2686882,0.01395902
1.257381,-0.3649156,0.01829884
1.077267,-0.3097376,-0.004584565
0.8821683,-0.3695537,-0.00779648
0.7992939,-0.2924629,-0.03207684
0.5902543,-0.1999176,-0.05381187
0.7032601,-0.2050749,-0.04272401
0.7614942,-0.1375487,-0.04805836
0.701501,-0.1108648,-0.03378528
0.8011002,-0.0552022,-0.01301204
0.7345932,-0.01534104,0.02422254
0.7575831,-0.05105406,0.08036369
0.8757869,-0.02693538,0.1182453
0.9503244,-0.06680896,0.1400881
1.126955,-0.1562339,0.1582207
1.118114,-0.2094744,0.2398684
1.05281,-0.1760938,0.3229395
1.086736,-0.07380207,0.294461
1.143028,-0.04519605,0.2545174
1.309782,-0.004092777,0.2357237
1.379705,-0.1081467,0.09434314
1.364087,-0.3169734,-0.1485719
1.302486,-0.2763154,-0.2623016
1.176336,-0.388711,-0.1186228
1.279132,-0.6556162,0.0499106
1.474018,-0.5152418,0.004746433
1.513515,-0.2636155,-0.0233991
1.370322,-0.1638987,0.04008064
1.006477,-0.1222939,0.01667078
0.6670598,-0.1957061,0.04798765
0.498197,-0.1992376,0.08600194
0.4413383,-0.1885341,0.05749722
0.4641313,-0.2597261,0.09089909
0.480173,-0.2036506,0.0746174
0.5145342,-0.191521,0.06268653
0.5247946,-0.2117196,0.09338772
0.4932313,-0.1318704,0.1015862
0.5328824,-0.1266012,0.1973399
0.6246368,-0.1354289,0.2570975
0.9168454,-0.2149993,0.2302762
1.313205,-0.3225083,0.2064322
1.368452,-0.2601959,0.1713478
1.308748,-0.1954034,0.2436658
1.424445,-0.1110476,0.4669516
1.426953,0.04337249,0.621281
1.357878,0.03060801,0.3685845
1.387408,-0.3639334,-0.08758508
1.287572,-0.8094005,-0.1842843
1.022964,-0.657519,-0.1078534
0.8371021,-0.3268595,-0.1194561
0.9941113,-0.3398696,-0.04542223
1.310703,-0.3549117,0.04654911
1.225638,-0.4010225,0.07304264
0.9538548,-0.405266,0.04833617
0.7951966,-0.2483461,-3.919141e-05
0.6450396,-0.2119195,-0.02087489
0.6681653,-0.125739,-0.05644544
0.6834028,-0.08738407,-0.04623971
0.6859477,-0.166829,0.003767378
0.7881104,-0.06670593,0.01813511
0.7381481,-0.03927429,0.0346785
0.7557932,0.002263669,0.07085875
0.8001575,0.1328245,0.1676294
0.7878963,0.07724014,0.2170293
0.9393759,-0.004257257,0.1700607
1.118109,-0.2055989,0.1869895
1.266043,-0.4333975,0.203556
1.182643,-0.2964072,0.2025554
1.063615,-0.01757186,0.2712406
1.233066,0.08362695,0.3437979
1.265075,-0.04434743,0.3376182
1.227407,-0.2064093,0.1024676
1.264161,-0.1709957,-0.2439252
1.244435,-0.1599985,-0.2939885
1.347977,-0.3881631,-0.1081073
1.49332,-0.5667911,-0.02007531
1.575473,-0.5105061,-0.002657853
1.521068,-0.3332634,0.03066453
1.285857,-0.1543867,0.02324146
1.016597,-0.1220677,0.02543351
0.741726,-0.1546894,0.06326684
0.5494338,-0.139354,0.08799937
0.4719728,-0.1605044,0.08984245
0.4743369,-0.1940811,0.0698396
0.4964871,-0.1949768,0.06569761
0.4790949,-0.1782248,0.06884809
0.5215866,-0.1749042,0.08175285
0.5352536,-0.174849,0.1521211
0.5883663,-0.1739842,0.218634
0.8472301,-0.1816907,0.2199938
1.13791,-0.1320174,0.1859852
1.306028,-0.08529901,0.1854166
1.340255,-0.09783126,0.270071
1.430714,-0.1095239,0.4539687
1.470049,-0.1282187,0.555662
1.364421,-0.2822621,0.263517
1.410159,-0.728945,-0.1205397
1.27931,-1.082291,-0.1016052
0.8862865,-0.733727,-0.008985527
0.7784955,-0.2323037,-0.08626465
1.078637,-0.3288346,-0.05780441
1.393996,-0.4509935,0.02022151
1.160623,-0.3765589,0.0631244
0.8467362,-0.4575019,0.1048966
0.8495508,-0.3129313,0.03684647
0.6122449,-0.06691403,-0.05171943
0.5091888,-0.06274696,-0.09271628
0.6789053,-0.1031155,-0.09533227
0.6856844,-0.205427,-0.01519962
0.7933093,-0.2225373,0.01690963
0.8714697,-0.1688813,0.004273455
0.8337627,-0.1602297,0.02871164
0.8829047,-0.01417612,0.09603033
0.9196373,0.1120097,0.2170967
1.012949,0.09458102,0.2336821
1.092856,-0.02921933,0.1983316
1.130928,-0.151098,0.2383107
1.156455,-0.1522781,0.2323491
1.075903,-0.1244891,0.2370409
1.081487,-0.07647294,0.3118743
1.143459,-0.1001007,0.3372848
1.20036,-0.183466,0.1718071
1.327456,-0.245268,-0.1845134
1.339084,-0.3398805,-0.3593157
1.308695,-0.3951895,-0.1654682
1.342144,-0.512923,0.02515141
1.375023,-0.6098398,0.02764679
1.441861,-0.4301339,0.05230694
1.408527,-0.1657652,0.07671655
1.195937,-0.08010995,0.0377228
0.8906096,-0.1415245,0.07810285
0.6509677,-0.1596259,0.1115649
0.5738319,-0.1846735,0.1140384
0.5111848,-0.2336775,0.1665254
0.4959235,-0.1861036,0.1518261
0.5455871,-0.1553824,0.1242804
0.5207505,-0.09103592,0.1285977
0.5151691,-0.002684312,0.1312676
0.5396514,-0.02716051,0.2023962
0.6259896,-0.07329367,0.2520008
0.855792,-0.1373784,0.2165565
1.054715,-0.1779134,0.136131
1.209972,-0.1858601,0.1083266
1.398781,-0.2463944,0.3000908
1.523042,-0.2789836,0.5608042
1.499683,-0.2889683,0.5278441
1.428809,-0.3926023,0.1728517
1.471169,-0.6581546,-0.1541809
1.403618,-0.8574747,-0.1627556
1.098507,-0.6713594,0.03197253
0.8925663,-0.3414573,0.08915618
0.9743613,-0.163794,-0.01735137
1.230153,-0.1297661,-0.05614038
1.32058,-0.2721094,-0.006763112
1.078787,-0.4209102,0.04130304
0.7380391,-0.4221544,0.03570762
0.5855449,-0.3677449,0.02284353
0.6622087,-0.2572275,0.01884162
0.7095782,-0.151127,-0.05899185
0.7564855,-0.09388191,-0.08205932
0.8270312,-0.05417381,-0.040763
0.774048,-0.0886327,-0.02989147
0.7955976,-0.09939988,0.03180369
0.8300044,-0.04267231,0.09269475
0.8582921,-0.01969912,0.1262407
0.9981251,-0.0404329,0.155979
1.032249,-0.09539927,0.1793618
1.049183,-0.1108689,0.2128175
1.100291,-0.05678006,0.2017769
1.098963,0.0009420371,0.2063072
1.188017,-0.02662824,0.2254081
1.368732,-0.2059122,0.1259684
1.519744,-0.3599963,-0.1065655
1.486049,-0.3375652,-0.2825896
1.32981,-0.3861211,-0.1567976
1.248892,-0.6591932,0.003161709
1.293509,-0.7889466,-0.06391263
1.464728,-0.6313323,-0.01974535
1.567184,-0.4673986,0.09899964
1.463225,-0.2989592,0.05513274
1.213468,-0.163423,0.0564668
0.9063465,-0.1383941,0.08276575
0.6797779,-0.08475494,0.05246609
0.5210844,-0.09900529,0.07164995
0.4177983,-0.1791078,0.06926841
0.4341744,-0.2085774,0.06260194
0.4875572,-0.243768,0.08151292
0.5036158,-0.2192891,0.08077702
0.507777,-0.187786,0.1315668
0.5196332,-0.2147776,0.2173175
0.5601459,-0.20534,0.2649129
0.7045979,-0.2105488,0.2467141
0.9831814,-0.2004918,0.2217584
1.288207,-0.1156379,0.2394219
1.423935,-0.0536232,0.262603
1.395767,-0.04912287,0.4028598
1.421189,-0.0780793,0.5444454
1.488108,-0.1925111,0.3445395
1.545144,-0.5468442,0.01326706
1.442312,-0.8473651,-0.06209019
0.858438,-0.5602202,0.01323865
0.4081722,-0.1983682,0.02574564
0.9862408,-0.3278967,0.005246617
1.665783,-0.4016393,0.03312979
1.330805,-0.3461512,0.06212562
0.9629098,-0.4544934,0.04023931
0.9264751,-0.3741304,0.02193504
0.5828439,-0.2146476,0.008159108
0.5947346,-0.1892194,-0.03375286
0.7739361,-0.09935936,-0.06061373
0.6652227,-0.08545118,-0.0673453
0.802726,-0.09021468,-0.04281153
0.7796506,-0.03396035,0.01031365
0.7169252,-0.04967995,0.0346444
0.8423563,0.008274093,0.06952112
0.8093527,0.07063936,0.1180706
0.9751636,0.04106672,0.1409753
1.066759,-0.05168793,0.1746518
1.035257,-0.211515,0.2004885
1.137713,-0.2048255,0.2108303
1.091163,-0.02155872,0.2428792
1.166723,0.06409929,0.3054654
1.298925,-0.1044556,0.3199696
1.340245,-0.2987903,0.1219911
1.385878,-0.2055593,-0.1501801
1.202167,-0.1747359,-0.176247
1.052301,-0.397506,-0.05432648
1.225363,-0.509298,-0.005656593
1.532068,-0.4941066,0.02249296
1.667174,-0.4478785,0.04887937
1.565204,-0.3380917,0.04435979
1.380638,-0.1970292,0.06641947
1.091178,-0.1198925,0.07859911
0.8222253,-0.1476404,0.06584758
0.6768446,-0.1209041,0.07968961
0.5447888,-0.1336894,0.07663268
0.469647,-0.2355539,0.07081239
0.497013,-0.2147613,0.08299289
0.536064,-0.2054415,0.08028395
0.5341672,-0.2143501,0.1007628
0.5366791,-0.1794267,0.1513058
0.5362414,-0.2095328,0.2254632
0.6288959,-0.2104735,0.278115
0.9023163,-0.232369,0.2455922
1.200106,-0.2553058,0.2110033
1.390564,-0.1784123,0.2358832
1.409636,-0.1364395,0.3451804
1.405634,-0.1480226,0.4624469
1.476472,-0.2274062,0.3097195
1.457841,-0.4606343,-0.01452938
1.354966,-0.7178308,-0.1144883
1.065556,-0.6516904,-0.002787585
0.7385085,-0.3608194,0.06514947
0.9398521,-0.2612006,-0.0132643
1.309362,-0.2563821,-0.06688308
1.23606,-0.3331278,0.007137378
1.027965,-0.4333145,0.01754527
0.8013802,-0.3054994,-0.009960884
0.5819982,-0.2138085,-0.003541977
0.6220577,-0.1926941,-0.03335371
0.6630254,-0.1574775,-0.03223488
0.7100509,-0.1685299,-0.03489558
0.8304353,-0.09852462,-0.04190376
0.7791503,-0.08524124,0.006232077
0.7648875,-0.08450748,0.0420769
0.7817375,-0.01177578,0.07605417
0.7824198,0.01964584,0.09771606
0.9051245,0.07150162,0.109891
0.9768518,-0.01353104,0.1388331
1.043036,-0.1692537,0.1468189
1.099685,-0.1906219,0.1638143
1.093066,-0.1632106,0.1835677
1.121549,-0.03945357,0.1935168
1.146491,0.02621073,0.2260284
1.222768,-0.1662392,0.2314588
1.25101,-0.3347176,0.09337786
1.177293,-0.1729733,-0.142803
1.186521,-0.0505612,-0.2066604
1.317044,-0.3982028,-0.09388386
1.53824,-0.6579767,0.004263461
1.631384,-0.4840409,0.08546385
1.494394,-0.3370717,0.08347002
1.258998,-0.2862008,0.03477058
0.932896,-0.1966977,0.0742517
0.719822,-0.1494676,0.07738534
0.6747137,-0.138823,0.05635567
0.5567501,-0.1230545,0.08294585
0.501702,-0.1376037,0.06051471
0.5426092,-0.1755971,0.06136418
0.48606,-0.193688,0.08392882
0.4649994,-0.193367,0.087758
0.4857627,-0.1699306,0.1575483
0.5213649,-0.1953971,0.1972535
0.7728869,-0.2952159,0.1842348
1.138322,-0.3569395,0.1816143
1.369026,-0.2771506,0.184481
1.409512,-0.1003665,0.2862223
1.392997,-0.01571928,0.4534332
1.389782,0.08171301,0.5185541
1.336553,0.1205681,0.3530365
1.385319,-0.3494306,0.00773485
1.41283,-0.8890684,-0.170259
1.136145,-0.7763302,-0.06947825
0.9080101,-0.4172326,-0.01523718
1.011283,-0.3295661,-0.07700669
1.136983,-0.3330412,-0.03128619
1.077961,-0.3569113,0.0416837
0.9981346,-0.3749286,0.02788604
0.8823743,-0.267908,0.01788175
0.6865637,-0.1697153,-0.0422047
0.6484468,-0.08661226,-0.1132474
0.7164377,-0.1006128,-0.08582555
0.7697699,-0.1902143,-0.04188001
0.793678,-0.1313611,-0.004776158
0.7585145,-0.1279077,0.008638751
0.792542,-0.1103657,0.01145246
0.8124538,0.01331037,0.06229295
0.8395292,0.04326819,0.1004538
0.9520494,0.04935197,0.1159306
1.010493,-0.05222376,0.13258
1.093817,-0.186222,0.1667938
1.13423,-0.204817,0.2139321
1.09005,-0.1094545,0.225496
1.105496,0.07073147,0.2388927
1.174268,-0.009984969,0.2402232
1.308314,-0.2224728,0.1741799
1.372709,-0.3033031,0.04633719
1.329255,-0.2973377,-0.08922526
1.251267,-0.2337788,-0.112117
1.165098,-0.4443553,-0.0528289
1.291843,-0.6513926,0.009105799
1.511018,-0.4871858,0.08169417
1.506882,-0.3277333,0.08389278
1.296088,-0.2010116,0.05007908
0.9867148,-0.1429132,0.07572277
0.7558194,-0.1926187,0.08052123
0.6373625,-0.1417897,0.07058501
0.5110055,-0.1394283,0.08299512
0.4715802,-0.1816244,0.06917137
0.5488426,-0.1741974,0.07765768
0.5975179,-0.199895,0.1010261
0.5972895,-0.2038943,0.1127962
0.5643109,-0.1961397,0.1875853
0.5266746,-0.1845424,0.2755891
0.5941075,-0.1586257,0.2940454
0.8565332,-0.1915931,0.2619475
1.236397,-0.2149147,0.2336449
1.455959,-0.155179,0.2706595
1.488842,-0.09389863,0.3991853
1.499101,-0.1016315,0.5044409
1.459926,-0.248138,0.3158656
1.446608,-0.6405834,-0.02538901
1.337691,-0.9672012,-0.08484239
0.9402345,-0.6850453,-0.01202605
0.7127567,-0.2276597,-0.04128314
0.9458679,-0.2428452,-0.04197626
1.229202,-0.31011,-0.01238156
1.219217,-0.266109,0.008455778
1.025598,-0.3259346,0.02033478
0.8395809,-0.2696029,0.001976255
0.7035207,-0.1892623,-0.01923983
0.6834149,-0.1689354,-0.04175943
0.7277036,-0.1344771,-0.04105266
0.7842826,-0.1546837,-0.01871467
0.8189501,-0.1109699,-0.006923802
0.7763846,-0.07697793,0.01325321
0.7973885,-0.06045368,0.05092782
0.8160347,0.03134207,0.1009481
0.8432553,0.04576785,0.1198952
0.9902594,0.007377362,0.1075641
1.060086,-0.09562967,0.1248384
1.093134,-0.2236457,0.1609871
1.124595,-0.2433252,0.1988979
1.102986,-0.1941527,0.2230589
1.116348,-0.030076,0.2459443
1.155234,0.07014931,0.2890885
1.290317,-0.162418,0.2304331
1.406391,-0.3946673,0.06007758
1.305721,-0.1931756,-0.09987795
1.158383,-0.03044467,-0.205639
1.166036,-0.378818,-0.1411224
1.341536,-0.6409614,0.009531377
1.552204,-0.5628741,0.0416717
1.556342,-0.4366339,0.05911565
1.265448,-0.2685652,0.08224048
0.9803392,-0.194616,0.06881602
0.8700211,-0.1769205,0.07488778
0.7076953,-0.1161963,0.06457404
0.50502,-0.1400524,0.07375232
0.4552807,-0.1781061,0.09146336
0.4888481,-0.1895922,0.09011744
0.4969298,-0.1980003,0.09873344
0.5209782,-0.1763534,0.08853038
0.526311,-0.1532107,0.1343851
0.5290733,-0.1633956,0.20113
0.6892368,-0.2151885,0.2123571
0.9826396,-0.2665836,0.2376671
1.269132,-0.2548831,0.2574263
1.401612,-0.1328344,0.2926947
1.393227,-0.003042907,0.4052984
1.368241,0.03109807,0.5357668
1.311403,-0.07319646,0.5524056
1.331163,-0.5708873,0.4381048
1.333034,-1.11674,0.2285528
1.080741,-0.8253185,-0.04673424
0.7960423,-0.2399543,-0.079511
0.7652452,-0.2477611,-0.009008502
1.009683,-0.271897,-0.1832342
1.18619,-0.2177795,-0.1429308
1.074322,-0.3387834,0.06213544
0.9329293,-0.2815949,0.05295684
0.7935934,-0.246621,0.06505533
0.6825766,-0.2071063,0.01995932
0.724967,-0.1083974,-0.01357691
0.7207789,-0.1395516,0.02249487
0.699799,-0.06033479,-0.05678085
0.7755594,-0.06384077,0.01044175
0.7771519,-0.07099369,0.0637238
0.7550691,0.02224805,0.0130142
0.7996534,-0.04312678,0.08267441
0.8512906,-0.001697369,0.08879943
0.9746911,-0.02698242,0.1231417
1.083953,-0.1621789,0.1727089
1.08901,-0.1827111,0.1449874
1.110989,-0.2378418,0.1941706
1.132157,-0.09784515,0.2328879
1.176646,0.04419109,0.3047969
1.29877,-0.09869173,0.3594479
1.40561,-0.2209445,0.1941063
1.418424,-0.2499277,-0.08886695
1.239847,-0.2407789,-0.2433725
1.067802,-0.3134708,-0.1523678
1.204001,-0.5146121,-0.06514202
1.417848,-0.6169098,-0.03139817
1.456693,-0.4517352,0.08377039
1.365843,-0.2006419,0.06678991
1.146174,-0.1463321,-1.007367e-05
0.8880781,-0.1259848,0.05009459
0.6976076,-0.07612762,0.03358275
0.5280882,-0.1426702,0.02650188
0.4167714,-0.1996988,0.08696969
0.4137805,-0.2143737,0.09746482
0.4736223,-0.2032319,0.1278768
0.5439161,-0.1839535,0.1302316
0.5789355,-0.2199942,0.1249487
0.5843597,-0.2321043,0.2205922
0.620511,-0.2268241,0.2751101
0.8014054,-0.2472173,0.2687773
1.075237,-0.2603104,0.2634179
1.240522,-0.2394468,0.2745768
1.375351,-0.1799114,0.3508304
1.483894,-0.11062,0.4469332
1.346262,0.04859419,0.5072631
1.228861,0.1696874,0.4369517
1.404453,-0.1895787,0.1979182
1.484976,-0.8603211,-0.03360869
1.244707,-1.016947,-0.02836553
0.8966609,-0.4963204,0.07465371
0.7546121,-0.0994334,-0.003892883
1.078,-0.2143034,-0.02922748
1.38916,-0.2788525,0.01446227
1.151091,-0.1987892,-0.03712017
0.8150022,-0.3403406,0.01332521
0.685829,-0.3225721,0.00301989
0.6417952,-0.1697424,-0.06082613
0.7162924,-0.2405597,-0.0323229
0.7167912,-0.1630003,-0.09457617
0.704853,-0.1183607,-0.07062681
0.8203833,-0.1974404,0.007839223
0.7946171,-0.06364564,-0.001831088
0.7637341,-0.03887533,0.04602476
0.8043648,-0.02219474,0.06934521
0.8085246,0.05004986,0.1026891
0.9271078,-0.06693243,0.139716
1.034692,-0.140098,0.1251612
1.147359,-0.2223485,0.1755723
1.245405,-0.2499362,0.2114909
1.160338,-0.09058493,0.2377654
1.167965,-0.01586267,0.2826369
1.286555,-0.09459707,0.2474965
1.39828,-0.1953586,0.08997963
1.444704,-0.1490842,-0.130822
1.21251,-0.1488539,-0.1509918
1.021454,-0.3431001,-0.01867996
1.210692,-0.4365801,0.02349971
1.471483,-0.3874926,0.06493446
1.488112,-0.2686016,0.08002087
1.274149,-0.206055,0.05902463
1.000033,-0.2370454,0.1028241
0.825672,-0.2006946,0.09512192
0.6635802,-0.180332,0.08024857
0.4499254,-0.1887033,0.1181909
0.4274224,-0.1899733,0.1104471
0.498084,-0.1822159,0.1136116
0.5053286,-0.1317963,0.123031
0.6021429,-0.1129361,0.1435844
0.6222987,-0.0877607,0.2413683
0.625355,-0.1001994,0.2975053
0.8404015,-0.1530862,0.2623769
1.0548,-0.1507211,0.2319556
1.20706,-0.1551235,0.2649666
1.420259,-0.1394164,0.3486866
1.561147,-0.1052454,0.4682991
1.311076,0.01183769,0.5525896
1.047228,0.1116197,0.455043
1.341948,-0.2491859,0.212772
1.529795,-0.7803178,0.004981593
1.229677,-0.7670516,0.01619967
0.9947322,-0.3007964,0.07774526
0.9430486,0.0010376,-0.07025647
1.060491,-0.1558774,-0.06105781
1.189096,-0.4361479,0.06967412
1.056744,-0.4871175,0.01566272
0.8761696,-0.406146,0.03908448
0.7551393,-0.2697986,0.01478151
0.6665976,-0.1530452,-0.06141465
0.7097769,-0.1556561,-0.01136286
0.7600418,-0.1198947,-0.03713053
0.769746,-0.06367365,2.845205e-05
0.8027413,-0.04827402,0.05273328
0.7907783,-0.009278634,0.03500053
0.7938131,-0.00389875,0.103442
0.8223925,0.01808763,0.1242561
0.8427353,0.00234352,0.1533607
0.9497612,-0.1028855,0.1896146
1.061705,-0.2076071,0.1773604
1.093282,-0.2512034,0.2095825
1.086257,-0.09748252,0.2129301
1.106253,0.03034718,0.2699519
1.201026,-0.04579604,0.3512937
1.25068,-0.09602282,0.2730754
1.25091,-0.1306663,-0.001080479
1.27281,-0.1760202,-0.2786454
1.271229,-0.2227074,-0.1780442
1.301528,-0.4349728,0.02909505
1.379987,-0.6688644,0.01062182
1.440541,-0.5598972,0.0676556
1.43293,-0.2895516,0.09880303
1.312966,-0.1983301,0.03271496
1.099458,-0.1365341,0.09401253
0.8653225,-0.1256355,0.08794701
0.6894852,-0.1723227,0.05976387
0.5469505,-0.1323495,0.1138829
0.4678398,-0.1850913,0.09652289
0.5073357,-0.2150881,0.1241642
0.5313503,-0.1614876,0.1544537
0.528057,-0.1750465,0.1505461
0.5442665,-0.1319005,0.2098185
0.5639625,-0.1292397,0.2315799
0.7384497,-0.1736876,0.2437538
1.056034,-0.1660681,0.2290884
1.27974,-0.1660576,0.2120242
1.390624,-0.1163212,0.2937049
1.473893,-0.1030693,0.3414178
1.497474,-0.1539884,0.3012212
1.5839,-0.2600995,0.1849157
1.763907,-0.4629278,0.08590427
1.672051,-0.6608569,0.1220407
1.30337,-0.8022265,0.1723522
0.9013471,-0.5631493,0.1290536
0.6686164,-0.08175711,-0.03739687
0.988562,-0.1103179,-0.1878257
1.347563,-0.3578825,-0.06613624
1.189216,-0.3953169,0.1027042
1.024008,-0.4414241,0.006363713
0.8546664,-0.3241898,-0.05058178
0.6789248,-0.1553074,-9.822441e-05
0.7739225,-0.1592088,-0.07239463
0.7990494,-0.1381206,-0.04929701
0.8020111,-0.1522836,0.01604152
0.8319144,-0.1474515,0.006814514
0.7408813,-0.09141612,0.06310292
0.7650674,-0.06577245,0.05397676
0.8047309,0.02340603,0.08192382
0.858182,0.02970733,0.1633542
0.9975634,-0.01503667,0.1557424
1.00815,-0.03521615,0.2144832
1.021087,-0.1065503,0.2488028
1.083637,-0.0767616,0.2210604
1.122113,-0.02229754,0.2270087
1.200803,-0.05821247,0.2376396
1.244657,-0.1644139,0.2218229
1.270787,-0.3034566,0.01516025
1.290508,-0.281652,-0.1988956
1.269965,-0.2661597,-0.1263775
1.301824,-0.464056,-0.006936615
1.424484,-0.5761616,0.01979885
1.550843,-0.4431948,0.09190721
1.490719,-0.2403133,0.1045014
1.233603,-0.1354302,0.04261944
0.9544643,-0.1429112,0.07790047
0.7460202,-0.147654,0.07957279
0.6198164,-0.143655,0.0609729
0.4688914,-0.1681105,0.1099272
0.4132428,-0.1793286,0.08146566
0.5512163,-0.1927234,0.08604822
0.5753376,-0.2183411,0.1095385
0.5539021,-0.2237092,0.1072783
0.6038233,-0.2083514,0.2154208
0.5832199,-0.186636,0.2829669
0.6668245,-0.1801616,0.2635322
0.8765877,-0.2175007,0.2456623
1.141744,-0.2544892,0.2379663
1.406073,-0.1984999,0.2329681
1.478757,-0.1295253,0.2183107
1.453204,-0.1251075,0.2460312
1.460037,-0.1608101,0.2023075
1.563185,-0.414342,0.01637731
1.642182,-0.731554,-0.1497155
1.439088,-0.6142765,-0.1151872
0.9953425,-0.3388956,0.02310194
0.6369813,-0.3061475,0.006251558
0.8766589,-0.2908148,-0.0005513997
1.288244,-0.3091454,0.04497486
1.155351,-0.3794313,0.02746647
0.9891088,-0.3739378,0.07365077
0.8609815,-0.3401489,0.05208559
0.6466463,-0.2040842,0.007348101
0.7311827,-0.1273513,0.006775703
0.753162,-0.1329868,-0.06432006
0.715699,-0.07823797,-0.03601248
0.8262667,-0.1157868,0.009493545
0.7880724,-0.07768745,0.01773153
0.7832446,-0.00668778,0.07031068
0.8136489,-0.02966368,0.06257069
0.842977,0.02086569,0.08195826
1.014195,-0.02896491,0.1280147
1.09027,-0.1107526,0.1816136
1.100442,-0.1644998,0.2486484
1.108693,-0.2259397,0.2371023
1.091972,-0.1008179,0.2452157
1.132445,-0.02721986,0.2629947
1.17005,-0.08052652,0.2743186
1.260275,-0.1451098,0.2630637
1.367581,-0.2801029,0.04925669
1.385257,-0.3271601,-0.20924
1.250644,-0.3090223,-0.2292985
1.057477,-0.3762765,-0.07121662
1.188988,-0.4809741,0.04641961
1.45743,-0.4578761,0.09003249
1.49516,-0.2622025,0.09756684
1.357881,-0.08801143,0.05457538
1.055127,-0.05141206,0.06240897
0.8348956,-0.1236013,0.07545013
0.7246547,-0.1568296,0.07329169
0.5317181,-0.1702784,0.1413475
0.5088376,-0.2428548,0.1636972
0.5864186,-0.2205028,0.1651428
0.6092415,-0.1919931,0.1754756
0.673181,-0.1897531,0.1761551
0.6777642,-0.1230508,0.2380108
1.066411,-0.3590475,-0.1795226
0.9053088,-0.2887442,-0.1290062
0.7646218,-0.2960222,-0.13687
0.6389483,-0.3071728,-0.2010787
0.6343619,-0.2606553,-0.1598807
0.6960136,-0.2478765,-0.2042745
0.7187293,-0.1927194,-0.1845477
0.7952768,-0.1372225,-0.1488385
0.8062498,-0.09346784,-0.1407255
0.801004,-0.02455928,-0.01997365
0.887254,-0.02175685,-0.01645077
0.9870834,-0.04180394,-0.02871893
1.063337,-0.09423437,0.01475264
1.059688,-0.1715537,0.02761794
1.089588,-0.1527028,0.09736481
1.156905,-0.05237903,0.1016155
1.166455,0.02069735,0.1045532
1.246852,-0.08386969,0.1083824
1.299916,-0.2130414,-0.1098244
1.227238,-0.1564208,-0.422231
1.167127,-0.1363285,-0.5279848
1.13393,-0.2498013,-0.3776701
1.174391,-0.490104,-0.1695844
1.340774,-0.783962,0.01831108
1.474715,-0.682864,0.02243749
1.378165,-0.3132898,-0.1450559
1.097314,-0.1818017,-0.1196697
0.8954498,-0.1784511,-0.08596733
0.7871323,-0.1917796,-0.1007612
0.5839166,-0.1572613,0.01353757
0.4372403,-0.08171522,-0.00419185
0.5252281,-0.1669233,-0.02938408
0.5667782,-0.2059044,0.003670594
0.5036246,-0.217306,-0.03962838
0.5627847,-0.2802704,0.006577708
0.573497,-0.2377627,0.06177635
0.5504825,-0.2760766,0.1240201
0.6695448,-0.3009275,0.1704942
0.8781382,-0.3193538,0.05895798
1.234058,-0.4165082,-0.0493311
1.45014,-0.3062404,-0.06353366
1.438546,-0.1779533,0.09434115
1.538201,-0.1370706,0.2441073
1.546767,-0.1593847,0.03950897
1.447851,-0.5039794,-0.2420263
1.354576,-0.9642311,-0.2535313
1.028159,-1.0148,-0.06098235
0.6966386,-0.5647991,0.07583913
0.6795988,-0.253841,-0.06346274
0.9764141,-0.3875829,-0.230463
1.282181,-0.4660776,-0.1685312
1.134725,-0.3969156,-0.1326197
0.8613275,-0.3852595,-0.1681761
0.784539,-0.3220519,-0.1333126
0.6216204,-0.2120282,-0.161792
0.61567,-0.1940151,-0.1902578
0.7378275,-0.1838495,-0.1747364
0.6974648,-0.1544838,-0.2008402
0.7908432,-0.1516491,-0.1551249
0.8199005,-0.08311866,-0.08572786
0.7459285,-0.02285969,-0.04270617
0.8673407,-0.0003290533,-0.01210739
0.957026,-7.116948e-06,-0.03706149
1.08524,-0.08348753,-0.02335613
1.180059,-0.1522589,0.019082
1.115167,-0.1758533,0.06489124
1.15273,-0.07364053,0.1053513
1.183526,0.02302746,0.08080912
1.243716,-0.1953285,0.05817185
1.330158,-0.3721237,-0.05969776
1.219575,-0.2263289,-0.3448103
1.121883,-0.1739703,-0.4891734
1.150804,-0.4403869,-0.3094209
1.263794,-0.6628134,-0.09317636
1.480396,-0.5713653,-0.09592801
1.622613,-0.3910598,-0.1863961
1.453742,-0.274434,-0.2262803
1.022739,-0.2107208,-0.1423747
0.6384805,-0.203127,0.001369966
0.4787207,-0.1748694,-0.002066741
0.4506971,-0.1648362,-0.01973919
0.384376,-0.1753882,0.008026825
0.413134,-0.1746265,-0.04298052
0.5662258,-0.2352902,-0.0448962
0.6026608,-0.275461,-0.005519113
0.6552755,-0.2783986,0.04260042
0.6897079,-0.3108713,0.1322024
0.6802788,-0.317426,0.1478766
0.9180065,-0.3453949,0.09830567
1.21844,-0.3721665,0.01771894
1.381596,-0.2944744,-0.01501104
1.428191,-0.1826205,0.1239484
1.436507,-0.09253991,0.2425415
1.458939,-0.1034446,0.0916485
1.406059,-0.4262171,-0.2095002
1.349895,-0.9104716,-0.3196657
1.10082,-0.9460061,-0.1228557
0.7669965,-0.5307823,0.04178329
0.8699873,-0.2675473,-0.1576288
1.109461,-0.258268,-0.3381752
1.142144,-0.330095,-0.1691515
1.037866,-0.3476001,-0.0942186
0.8190232,-0.2894988,-0.1587589
0.6946015,-0.2887225,-0.1440078
0.6796412,-0.2424172,-0.1987568
0.6606483,-0.1975743,-0.2099705
0.7273712,-0.2139875,-0.1876112
0.797949,-0.175777,-0.2190855
0.8104098,-0.1713279,-0.1659342
0.8423785,-0.1202634,-0.1088402
0.841964,-0.0322575,-0.0467355
0.86859,-0.02222237,0.01509015
0.9761751,-0.009061715,0.002746796
1.067922,-0.06725082,0.01734371
1.140024,-0.1511769,0.0284
1.157892,-0.1605725,0.04365057
1.122262,-0.09255219,0.1015007
1.129213,-0.02168101,0.1143732
1.218372,-0.1662881,0.08063824
1.330891,-0.2969512,-0.04902484
1.305827,-0.18187,-0.2956415
1.15267,-0.1519782,-0.437749
1.02369,-0.3590297,-0.3049005
1.031684,-0.5624449,-0.1137935
1.241288,-0.5508706,-0.09108388
1.472789,-0.4072388,-0.1484964
1.463002,-0.3150573,-0.2029296
1.159038,-0.2820402,-0.1514398
0.7714094,-0.2548765,-0.04900433
0.5990359,-0.209951,-0.06007681
0.5811591,-0.1952462,-0.02624918
0.4862428,-0.2094503,0.02718011
0.4033758,-0.189339,0.01920995
0.4882269,-0.189571,0.03164263
0.6115767,-0.2074521,-0.004227773
0.6154298,-0.2118235,0.03769951
0.6137479,-0.2530362,0.1456536
0.6959728,-0.2975757,0.1565369
0.8589113,-0.3390091,0.1300568
1.136801,-0.3731982,0.03683742
1.296286,-0.3352209,0.005330857
1.323802,-0.2450429,0.1541402
1.477767,-0.1206518,0.3106615
1.485639,-0.05903126,0.3055101
1.354155,-0.2548265,0.05009925
1.409634,-0.7886988,-0.2945345
1.351958,-1.264117,-0.4480226
1.088349,-0.9271535,-0.3153305
0.8995191,-0.2482446,-0.2028904
0.9414483,-0.2314402,-0.3015419
1.156207,-0.3709172,-0.2729414
1.16996,-0.3566192,-0.1763853
1.008757,-0.4509107,-0.1622765
0.8396466,-0.3594198,-0.1076871
0.6784477,-0.2855021,-0.1480106
0.661454,-0.2822531,-0.1719347
0.6227203,-0.1853105,-0.1485556
0.6498844,-0.2098937,-0.2059785
0.7727075,-0.1668333,-0.1759113
0.7496688,-0.09995506,-0.1302282
0.7996332,-0.07121528,-0.07825051
0.8345376,0.01815958,0.00990964
0.8648181,-0.00696361,-0.01777432
1.054046,-0.01998869,-0.03017422
1.112459,-0.05521727,0.0003259478
1.145071,-0.1407511,0.0122602
1.184016,-0.1313441,0.06451332
1.140718,-0.1090808,0.07831877
1.213898,-0.1000132,0.05154155
1.358973,-0.316787,-0.006620699
1.457063,-0.5392011,-0.186948
1.310797,-0.3068247,-0.3826792
1.039344,-0.1457857,-0.381464
1.039349,-0.4545598,-0.2436494
1.175053,-0.666826,-0.1683621
1.360398,-0.4778057,-0.1653632
1.530328,-0.3346661,-0.1949178
1.324975,-0.3614535,-0.2011633
0.9350122,-0.2898464,-0.1243729
0.7065842,-0.2121896,-0.04962473
0.5421926,-0.1700784,-0.01903517
0.430343,-0.1344115,0.007386901
0.4158238,-0.173207,0.01364287
0.4860713,-0.1846547,-0.04044883
0.6042195,-0.1899871,-0.08842213
0.6172459,-0.2542785,-0.0191683
0.5958646,-0.3070838,0.07677757
0.6643589,-0.3181106,0.09613298
0.8081004,-0.3179204,0.07100436
1.025939,-0.3563785,0.03954331
1.112019,-0.364982,0.04307463
1.115213,-0.3048522,0.06809793
1.326478,-0.2023573,0.1402291
1.526722,-0.1104999,0.1732262
1.545003,-0.325871,-0.09305899
1.505959,-0.8597369,-0.3797222
1.272201,-1.118795,-0.2381224
0.844606,-0.7374741,-0.06486714
0.6723747,-0.2579711,-0.1571948
0.9409055,-0.2983394,-0.1571111
1.210267,-0.4341538,-0.137819
1.194326,-0.3602861,-0.1899844
1.042507,-0.3823786,-0.1360984
0.8152748,-0.3190773,-0.16284
0.6539842,-0.2138282,-0.2032882
0.6516194,-0.2693842,-0.1680057
0.6227213,-0.2533656,-0.1943995
0.6507602,-0.2323511,-0.1624024
0.7635329,-0.211659,-0.1528724
0.768659,-0.1172631,-0.1545969
0.7666997,-0.06301316,-0.06485588
0.806034,0.004199134,-0.04184375
0.8582377,0.02568565,-0.03105176
0.9924578,-0.04842457,-0.02197543
1.114645,-0.1331835,-0.01817395
1.156793,-0.1559666,0.04677804
1.152859,-0.09455761,0.08545083
1.150592,-0.06399967,0.1262392
1.21694,-0.07613862,0.1321797
1.297352,-0.1156906,-0.02468944
1.293545,-0.1816857,-0.3271066
1.183118,-0.2398293,-0.5023133
1.0576,-0.4229957,-0.3167288
1.040479,-0.7014862,-0.1002567
1.131207,-0.7331973,-0.09512626
1.39243,-0.4693348,-0.18287
1.696303,-0.3056014,-0.2990569
1.558775,-0.3469325,-0.27303
1.057809,-0.3267482,-0.1310572
0.6718709,-0.2224202,-0.05179693
0.5191503,-0.1770806,-0.01776725
0.5494309,-0.1776616,-0.03127879
0.4831988,-0.1377108,-0.01224332
0.4082171,-0.1357881,0.02036104
0.5677621,-0.1949466,-0.02033681
0.5545357,-0.197815,0.00757722
0.5248808,-0.2190762,0.0665813
0.6421702,-0.2553863,0.1132679
0.6575576,-0.2770697,0.1516985
0.9297049,-0.3596149,0.07057646
1.258986,-0.3757257,0.01597789
1.343429,-0.2920039,0.04778668
1.423862,-0.2206456,0.1280022
1.491517,-0.2175923,0.2139922
1.561243,-0.3199178,0.02903163
1.488686,-0.5621762,-0.2989124
1.300202,-0.8161626,-0.387596
1.070139,-0.6818972,-0.2572564
0.857542,-0.330005,-0.1639464
1.006558,-0.2678577,-0.2205858
1.162707,-0.3364387,-0.2237379
1.156602,-0.3812578,-0.1560136
1.082788,-0.3744363,-0.150964
0.7646996,-0.2920571,-0.117084
0.6537561,-0.2753099,-0.1133042
0.6759073,-0.2043432,-0.1515708
0.5979211,-0.1675931,-0.1419187
0.7112492,-0.2190235,-0.1736325
0.7690088,-0.1565368,-0.1726284
0.7833258,-0.1309737,-0.09244527
0.8215455,-0.104463,-0.03949686
0.7772376,-0.04360301,-0.007845073
0.892411,-0.0459331,-0.0100431
1.004935,-0.02834778,-0.01592901
1.049941,-0.09557663,-0.005895552
1.133805,-0.1407122,0.00205565
1.124077,-0.05736154,0.04706117
1.161536,-0.02775208,0.08069558
1.266082,-0.1026032,0.09170882
1.337394,-0.238408,-0.003747646
1.349942,-0.2737656,-0.2891098
1.230516,-0.2563461,-0.4629827
1.128905,-0.3873638,-0.332686
1.180416,-0.625618,-0.1347279
1.340181,-0.7457694,-0.0860481
1.477181,-0.5143292,-0.1710168
1.419566,-0.2267102,-0.2421841
1.124159,-0.1997024,-0.1604999
0.7686533,-0.200279,-0.02948812
0.6078517,-0.1597436,-0.01625723
0.5637663,-0.151876,-0.0001148972
0.4666502,-0.1379679,0.01842223
0.4508512,-0.1473359,-0.01361176
0.5259892,-0.1804456,0.02017568
0.5541231,-0.2103831,0.02688731
0.571818,-0.2241433,0.04476326
0.5975241,-0.2290428,0.1312144
0.6564659,-0.2713538,0.1376924
0.8434049,-0.3446227,0.1026695
1.124229,-0.3659794,0.01400317
1.356005,-0.2987091,-0.04921489
1.383146,-0.1859576,0.09475943
1.342414,-0.04988179,0.2839488
1.418173,0.0006444915,0.2708114
1.464008,-0.2977361,0.0007065177
1.470839,-0.8823254,-0.2663117
1.265093,-1.110821,-0.2426913
0.7989213,-0.6647419,-0.09770528
0.7285568,-0.2130815,-0.08204441
1.056696,-0.2724892,-0.103271
1.20589,-0.4013245,-0.08538793
1.081573,-0.351995,-0.08624205
0.8633339,-0.3439305,-0.08071392
0.7350254,-0.2798892,-0.1118389
0.6090886,-0.1907416,-0.1490723
0.5474674,-0.1982072,-0.1329235
0.6585469,-0.1608106,-0.1523637
0.7125037,-0.1345471,-0.1267336
0.7675979,-0.1058616,-0.05747817
0.8138241,-0.0302072,-0.06123875
0.8082542,-0.02142421,-0.06504486
0.8947655,-0.003683321,-0.02598577
0.955018,-0.004705062,0.01947101
1.036398,-0.07116936,0.01977024
1.129174,-0.1371358,0.0112259
1.152783,-0.1890008,0.01547751
1.218171,-0.1018434,0.01384239
1.234702,-0.004363675,0.1352845
1.279413,-0.1276718,0.2510014
1.354161,-0.2272374,0.04431624
1.314513,-0.1621215,-0.4024981
1.28063,-0.1795602,-0.6596801
1.190258,-0.3128223,-0.4906001
1.112891,-0.4092553,-0.2894851
1.250089,-0.4553568,-0.2861404
1.493307,-0.4886407,-0.1580756
1.61795,-0.4601376,-0.1045202
1.297524,-0.2655452,-0.2094491
0.8111334,-0.08579996,-0.06655789
0.7674426,-0.1489848,-0.0007269703
0.7624564,-0.2119668,-0.0720272
0.4544344,-0.1640859,0.03492571
0.3440108,-0.1843526,0.02491677
0.4590231,-0.2003764,-0.0005999822
0.5137926,-0.1932082,0.05480483
0.6035187,-0.2360161,0.03856646
0.674453,-0.2308748,0.1186594
0.6347946,-0.2058802,0.1665248
0.6939053,-0.229885,0.141638
0.9316396,-0.2651207,0.1141626
1.198951,-0.3140389,0.03517662
1.371636,-0.2909304,0.05550719
1.442884,-0.18761,0.1931066
1.486988,-0.09760473,0.2966738
1.47973,-0.09890277,0.09801466
1.421659,-0.4345129,-0.2390974
1.314876,-0.843297,-0.22423
0.9968071,-0.7250971,-0.02454429
0.7384393,-0.3619035,0.05670466
0.9176737,-0.2177306,-0.07270009
1.181191,-0.2452298,-0.2368452
1.223871,-0.3689134,-0.1134621
1.089394,-0.3995373,-0.02106805
0.8449225,-0.3229683,-0.1017235
0.7616627,-0.3021753,-0.07798119
0.7882727,-0.2579694,-0.08919743
0.6768285,-0.2053274,-0.1330291
0.6080287,-0.1464012,-0.1197043
0.6634487,-0.1102404,-0.1422227
0.7700956,-0.1305856,-0.1161479
0.8787191,-0.02853011,-0.07734018
0.8555556,0.03926586,-0.05133947
0.821559,0.01598794,0.00536574
0.8576549,0.0211004,-0.001950493
0.8646877,-0.06166412,-0.002958945
0.961329,-0.1258296,0.0135187
1.150546,-0.2302936,-0.01189009
1.216394,-0.3221076,0.01362284
1.168602,-0.1477728,0.06647798
1.210994,-0.06553401,0.1109965
1.331841,-0.212306,0.09943619
1.373032,-0.2805658,-0.09418976
1.324732,-0.1926529,-0.3621619
1.197691,-0.1453432,-0.4337012
1.039131,-0.3669952,-0.2578018
1.036363,-0.5794544,-0.07438639
1.280955,-0.5013797,-0.04455435
1.504662,-0.3130802,-0.1368754
1.387187,-0.1692866,-0.2195388
1.054091,-0.1505402,-0.11103
0.7269426,-0.1868109,0.01714129
0.5249847,-0.1453832,-0.009743258
0.5171471,-0.1316242,0.0120914
0.4972243,-0.1847647,0.04937982
0.4765701,-0.2031691,0.02567958
0.5609586,-0.2186238,0.04991732
0.5768648,-0.2371377,0.09266871
0.6112957,-0.2258549,0.1726337
0.6684626,-0.2357714,0.2206041
0.711196,-0.2401855,0.1289552
0.9287345,-0.2712263,0.03125556
1.149638,-0.35959,-0.01884726
1.312027,-0.3725641,-0.0003025997
1.489694,-0.2667247,0.1822504
1.552714,-0.1140458,0.3307017
1.528221,-0.1230311,0.1232002
1.42315,-0.4390821,-0.2074869
1.289234,-0.7784537,-0.2053719
1.069378,-0.7435297,-0.01540391
0.7701345,-0.4063295,0.04521397
0.8288133,-0.2110365,-0.09969032
1.139743,-0.2669647,-0.2741016
1.247062,-0.3533463,-0.1657236
1.093413,-0.3540147,-0.04840542
0.826923,-0.2872594,-0.1218184
0.7176001,-0.2261496,-0.09356123
0.6820705,-0.1882861,-0.09506671
0.6130496,-0.1962324,-0.1368555
0.692822,-0.1856345,-0.09842887
0.756428,-0.1144804,-0.1313081
0.7648186,-0.08604437,-0.1153517
0.829703,-0.05055244,-0.05773754
0.8244051,-0.01429004,-0.03577703
0.8467469,-0.01718928,0.006059059
0.9644673,-0.05335093,-0.009527264
1.091038,-0.1545333,0.01521196
1.154892,-0.173109,0.06222812
1.114462,-0.1081704,0.03265055
1.138242,-0.04136376,0.05135886
1.237998,-0.01402735,0.1194486
1.337872,-0.1831718,0.1456104
1.39382,-0.3484496,-0.01870321
1.255115,-0.2768925,-0.3134605
1.076218,-0.2591439,-0.3813089
1.006392,-0.4951186,-0.2289445
1.02552,-0.6616569,-0.111745
1.224125,-0.5320815,-0.09916
1.490415,-0.3289831,-0.1820523
1.542875,-0.2380574,-0.2442819
1.219425,-0.25939,-0.1424628
0.7981966,-0.2749351,-0.0153515
0.641182,-0.2013336,-0.02703604
0.5550824,-0.1800139,-0.03688415
0.4649993,-0.215486,0.007549656
0.5082088,-0.2064385,0.008311191
0.522781,-0.2082059,0.008702347
0.4969615,-0.2088348,0.0355976
0.5221543,-0.1771528,0.1031294
0.528114,-0.1610084,0.1962924
0.6033677,-0.1795268,0.1840424
0.9127567,-0.2511217,0.0852772
1.284254,-0.3162133,-0.01341136
1.342401,-0.2959913,-0.0639233
1.261737,-0.2253544,0.08261209
1.394484,-0.06396358,0.3426312
1.408041,0.09419741,0.3727695
1.293383,-0.1815435,0.09937161
1.327342,-0.8465033,-0.1416895
1.23042,-1.131754,-0.06598873
1.146395,-0.6991155,0.01002978
1.188302,-0.2279242,-0.1322852
1.169268,-0.2953892,-0.1386888
1.228353,-0.4178959,-0.08860718
1.056813,-0.342663,-0.1253382
0.7865549,-0.4357354,-0.07560363
0.8210955,-0.390484,-0.09677772
0.7013431,-0.2025801,-0.1383454
0.5643198,-0.2374033,-0.1149837
0.672411,-0.2005058,-0.1516929
0.6878751,-0.1474181,-0.1425978
0.7186056,-0.1316834,-0.1416913
0.7967026,-0.03755735,-0.1436313
0.7763034,-0.07203891,-0.07272456
0.7942577,-0.07212025,-0.03525804
0.8715937,-0.04337733,-0.01585054
0.9838204,-0.1053073,-0.04084721
1.134611,-0.1579381,-0.05456178
1.196999,-0.2433392,-0.001482822
1.1586,-0.180809,0.02540829
1.156028,-0.07273835,0.05933948
1.227708,-0.1676184,0.05861644
1.315753,-0.2875248,-0.05152506
1.342405,-0.3850551,-0.2541179
1.252495,-0.3791035,-0.3868585
1.079799,-0.3367623,-0.2929087
0.9900799,-0.5405717,-0.1820934
1.145475,-0.684647,-0.1475682
1.453004,-0.4963224,-0.1250894
1.591197,-0.2663273,-0.1665667
1.347996,-0.1981573,-0.1561829
0.9674083,-0.2451995,-0.08768616
0.747492,-0.2730031,-0.04860505
0.572261,-0.2577399,-0.004002046
0.4721579,-0.2523337,0.005651906
0.5227822,-0.2245521,0.006831466
0.5155611,-0.2185538,0.01656577
0.5534448,-0.2236765,0.0157051
0.6562096,-0.1839596,0.03862012
0.6308946,-0.1723909,0.06015477
0.6269411,-0.1756668,0.1450055
0.6648634,-0.1772065,0.228224
0.7931307,-0.2287791,0.1517799
1.105198,-0.2888118,0.03970286
1.339676,-0.2889065,0.02567568
1.519358,-0.2068612,0.1657518
1.699358,-0.1016924,0.2909499
1.634514,-0.1351246,0.0682669
1.475503,-0.4861509,-0.2591427
1.377117,-0.8907962,-0.2530921
1.049843,-0.7927866,-0.03475925
0.7485705,-0.4244256,0.07496856
0.9501959,-0.2902939,-0.08008679
1.178713,-0.292627,-0.2524196
1.137505,-0.3446361,-0.1187827
1.034282,-0.3447493,-0.0160936
0.7762751,-0.2584531,-0.1069033
0.5818216,-0.2327389,-0.1086316
0.5739064,-0.1642493,-0.1497626
0.5963609,-0.1461572,-0.1884897
0.7093716,-0.1742402,-0.1078884
0.7602821,-0.09961854,-0.09908917
0.7843367,-0.09762252,-0.06266253
0.8468919,-0.06089061,-0.001801788
0.8301362,0.00183262,-0.01425729
0.9367425,-0.04524934,-0.004587404
1.04551,-0.07774845,-0.008346107
1.05086,-0.1876985,-0.005014321
1.155817,-0.2573773,0.03589057
1.204459,-0.1588104,0.08977407
1.181114,-0.06955107,0.1528394
1.223695,-0.04864724,0.1437984
1.37661,-0.1605974,-0.03522849
1.53672,-0.275648,-0.3916772
1.395414,-0.2491681,-0.56042
1.101403,-0.3149059,-0.3259915
0.9658128,-0.5459502,-0.1293638
0.9946667,-0.6884231,-0.1232656
1.089832,-0.6361197,-0.07312385
1.182088,-0.4225164,-0.1044724
1.334201,-0.1846768,-0.2190433
1.273071,-0.2174387,-0.1557054
0.8669722,-0.2922722,-0.05457325
0.5617528,-0.1393492,-0.03767253
0.4868508,-0.1179266,-0.01516731
0.5213485,-0.1585405,-0.03941688
0.5231757,-0.1251594,0.003066252
0.4930004,-0.1956603,0.06719182
0.5705449,-0.1779566,0.005327379
0.5782697,-0.1483066,0.0170039
0.5751696,-0.2074611,0.09571307
0.6554682,-0.2215097,0.1365894
0.7921515,-0.3452475,0.105518
1.119287,-0.4375493,0.0183982
1.344234,-0.3368997,0.05020924
1.407085,-0.1946861,0.1229535
1.495085,-0.03505762,0.2189642
1.46511,0.01671433,0.2862566
1.432094,-0.1775401,0.03743594
1.445669,-0.6186259,-0.2514443
1.301578,-0.9832378,-0.2317933
0.9378049,-0.7388457,-0.1148499
0.6800747,-0.282576,-0.09892454
0.926931,-0.2717966,-0.1353333
1.262142,-0.3625649,-0.1457251
1.208699,-0.3537159,-0.1176795
1.005331,-0.3772262,-0.07964369
0.827278,-0.3029912,-0.09740043
0.7149182,-0.2483093,-0.1424954
0.6749137,-0.184745,-0.1687382
0.6042568,-0.1074522,-0.1907527
0.6675135,-0.1810998,-0.1564527
0.7962779,-0.173267,-0.1172696
0.7870178,-0.1240225,-0.09806684
0.8382539,-0.09645207,-0.05241308
0.8747742,0.004765495,-0.02927933
0.9033877,0.01011717,-0.004155715
1.048688,-0.03212853,0.002820304
1.083402,-0.08769233,-0.01487741
1.102881,-0.1209999,0.006833672
1.158398,-0.06807188,0.04705172
1.16976,-0.06904951,0.1457623
1.242233,-0.1155171,0.2005533
1.341739,-0.2245749,0.01691849
1.430986,-0.3203393,-0.2790901
1.335914,-0.2866652,-0.4079302
1.129329,-0.3394725,-0.2991574
1.127206,-0.5621878,-0.1778948
1.235326,-0.6962048,-0.1379617
1.424969,-0.5314737,-0.08281642
1.54269,-0.3277872,-0.1041256
1.245517,-0.3164876,-0.137377
0.8213163,-0.2393784,-0.04936345
0.6674323,-0.119847,-0.01017611
0.6104576,-0.1189848,-0.03543373
0.4839047,-0.08870189,-0.02703287
0.4816354,-0.103155,-0.01258695
0.565232,-0.2030228,0.00505462
0.5556568,-0.2207041,0.001322457
0.568342,-0.2209548,0.02541583
0.5780752,-0.2395955,0.1086743
0.5684905,-0.255529,0.1517486
0.7126628,-0.31208,0.1275117
0.9942675,-0.338498,0.08846711
1.309066,-0.2982691,0.07031975
1.509415,-0.1879778,0.0664742
1.56794,-0.07965213,0.1669539
1.554532,-0.0888769,0.2702039
1.489881,-0.2309913,0.03237738
1.482323,-0.6008578,-0.2815568
1.29399,-0.9490319,-0.2398226
0.8422792,-0.7677992,-0.06417936
0.6966992,-0.3808662,-0.009358508
0.9594863,-0.3131251,-0.1028696
1.174101,-0.3400994,-0.2157729
1.11752,-0.3609356,-0.1446221
0.9592829,-0.399401,-0.07441529
0.8305648,-0.3129036,-0.1293699
0.6918242,-0.2592412,-0.1322379
0.6743214,-0.2013893,-0.161269
0.69376,-0.1145359,-0.2061144
0.6897573,-0.1478793,-0.1666485
0.7947693,-0.1302667,-0.1525778
0.8165239,-0.08608132,-0.1081249
0.795008,-0.05755509,-0.04356337
0.8595258,0.009591102,-0.0148525
0.9247134,0.01150111,0.02839177
1.023889,-0.02977314,-0.004893081
1.102387,-0.1054638,-0.02235516
1.163238,-0.1398621,0.04628952
1.195151,-0.09871457,0.08208489
1.17303,-0.07801789,0.1118586
1.228679,-0.1060543,0.1073045
1.336555,-0.2777677,0.05254318
1.405178,-0.427591,-0.04211298
1.334371,-0.2802852,-0.2578119
1.18409,-0.1120877,-0.4558077
1.103613,-0.2735888,-0.3554937
1.052686,-0.5516544,-0.07344297
1.188456,-0.6756473,-0.01246643
1.518159,-0.5481273,-0.1255693
1.638066,-0.2442069,-0.1788449
1.325856,-0.1871016,-0.1508381
0.8322396,-0.2392349,-0.04737967
0.6114893,-0.1368481,-0.009338997
0.5573154,-0.1674155,-0.02240832
0.4458973,-0.1801331,-0.01570656
0.4692904,-0.1577246,-0.03205046
0.5427431,-0.2328009,-0.009283884
0.592759,-0.2158783,-0.0100563
0.6556448,-0.2435542,0.03450329
0.6279611,-0.2736586,0.1640797
0.6547053,-0.2589514,0.2095551
0.7984011,-0.3276587,0.1706166
1.018481,-0.3431845,0.06738688
1.288343,-0.2986463,0.05021805
1.496795,-0.1867516,0.1650277
1.646414,-0.06842386,0.2310826
1.560218,-0.1004593,0.1582658
1.377251,-0.3468563,-0.05215244
1.425386,-0.8431568,-0.1711054
1.238484,-1.092738,-0.1516453
0.8419687,-0.670468,-0.1431035
0.8441543,-0.2115413,-0.1614157
1.014052,-0.2750955,-0.1974127
1.115523,-0.370967,-0.1563694
1.175711,-0.282783,-0.1053354
1.023669,-0.3318905,-0.09290312
0.796049,-0.3015819,-0.09243906
0.6719258,-0.1889949,-0.1566696
0.6231628,-0.2070219,-0.1607399
0.6494492,-0.1783397,-0.1444762
0.7100401,-0.1742176,-0.1523461
0.774365,-0.1740324,-0.1131856
0.8211167,-0.08201213,-0.09815255
0.8340905,-0.02618876,-0.04897424
0.872607,0.02993704,0.005192908
0.9478695,0.03537078,0.003637699
1.016717,-0.0396998,0.004091811
1.097739,-0.1294985,-0.000549863
1.178563,-0.1846799,0.04178919
1.198194,-0.09203032,0.1028076
1.18893,-0.02080397,0.1478289
1.239149,-0.119777,0.1657208
1.377497,-0.2407932,0.008583655
1.456962,-0.296542,-0.3013663
1.309474,-0.2867811,-0.477552
1.090755,-0.3317072,-0.3566769
1.040455,-0.5134563,-0.1962526
1.143816,-0.6024832,-0.1681008
1.347315,-0.422659,-0.1509376
1.518456,-0.2000923,-0.1842708
1.343833,-0.1727487,-0.1972207
0.9425484,-0.2250109,-0.1120053
0.7169041,-0.2176682,-0.05846864
0.6137508,-0.2034528,-0.01563014
0.5488156,-0.1921096,0.006597676
0.5523764,-0.1673757,0.01630527
0.5650197,-0.1809542,0.03912711
0.6474537,-0.2080279,0.01546661
0.6969107,-0.2064882,0.04710833
0.6561098,-0.2095571,0.1139118
0.6723451,-0.2228477,0.1390634
0.7522164,-0.2694673,0.1284868
0.9768051,-0.3563903,0.06643047
1.287771,-0.3691507,0.04868725
1.469141,-0.2485042,0.05893868
1.506484,-0.100345,0.1479179
1.38173,-0.03263072,0.2669228
1.256705,-0.1068617,0.06376365
1.374855,-0.4679273,-0.255529
1.419143,-0.90608,-0.2804097
1.046517,-0.8063634,-0.08362394
0.7296567,-0.3833577,0.05248606
0.8977897,-0.2605628,-0.1098224
1.139134,-0.3018954,-0.2680298
1.148168,-0.393566,-0.1343267
1.046867,-0.4575341,-0.06992194
0.8486693,-0.3563995,-0.1253385
0.6840708,-0.2799335,-0.101804
0.6430288,-0.155989,-0.1185977
0.6006193,-0.06261574,-0.1407602
0.6472511,-0.1102031,-0.1501358
0.7712556,-0.07715537,-0.1993076
0.843996,-0.0738685,-0.1419374
0.869385,-0.07739681,-0.05349039
0.8034158,-0.02098783,-0.02643036
0.8138354,-0.01263143,0.02567662
0.9451785,-0.004198761,0.0176535
1.059649,-0.03948861,-0.03807451
1.142853,-0.04790265,-0.03864939
1.098158,-0.02639261,-0.02812185
1.095967,-0.03134095,0.01207618
1.152761,0.004483075,0.07549321
1.142662,-0.04536026,0.1150772
1.283388,-0.1961901,0.128091
1.415111,-0.3306596,-0.05772239
1.401413,-0.322288,-0.4245948
1.3038,-0.278269,-0.5202817
1.081167,-0.4494606,-0.2407216
1.0174,-0.5626965,0.004016717
1.199842,-0.4735436,-0.001992863
1.422846,-0.3155168,-0.1365974
1.470724,-0.1096136,-0.2066691
1.158521,-0.09958015,-0.1389151
0.7530271,-0.2086284,-0.02897047
0.5989074,-0.1927572,0.02272904
0.6090035,-0.1857157,0.01697473
0.5785102,-0.1842671,0.01034745
0.5720033,-0.1615742,0.02734401
0.6381583,-0.1837262,0.03402314
0.6599691,-0.1961383,0.02850796
0.6720068,-0.2087196,0.05280283
0.6653298,-0.2226935,0.1140612
0.6522069,-0.1870076,0.1833432
0.7094324,-0.1549323,0.2015979
0.8286584,-0.2054297,0.148234
1.072674,-0.307601,0.08264616
1.284252,-0.3497972,0.05887355
1.373733,-0.2742943,0.1417242
1.495044,-0.1737892,0.2312014
1.551032,-0.2095348,0.1088983
1.527673,-0.4147597,-0.07688357
1.412696,-0.6690533,-0.1124578
1.058966,-0.7149784,-0.08582919
0.7642607,-0.4459859,-0.0958169
0.8857216,-0.2697072,-0.19865
1.179079,-0.4324916,-0.2813989
1.244444,-0.5964397,-0.1725979
1.107252,-0.5739337,-0.0531311
0.9326526,-0.4462425,-0.07973044
0.8210033,-0.2620989,-0.100062
0.811504,-0.1443267,-0.0806986
0.7999921,-0.1301433,-0.1077242
0.833864,-0.1016732,-0.1103391
0.8730042,-0.08880551,-0.07410298
0.8202116,-0.1215807,-0.0517257
0.8189627,-0.1136277,-0.006206272
0.8218135,-0.0922215,0.01332054
1.594482,-0.4263702,-0.255607
1.380845,-0.297221,-0.2698299
0.9550354,-0.244407,-0.1625404
0.6826951,-0.2107145,-0.01598544
0.4809636,-0.1469118,-0.00563274
0.3425108,-0.1299592,-0.02802508
0.3293277,-0.1512157,-0.01834123
0.3766674,-0.16205,-0.0414111
0.4819937,-0.1843336,-0.05536582
0.517478,-0.2033982,-0.03008164
0.5238138,-0.2118356,0.02767427
0.5851302,-0.2471402,0.1221446
0.6205355,-0.2883454,0.1618325
0.8391883,-0.3319318,0.1220767
1.216938,-0.3415321,0.09050794
1.397352,-0.20156,0.06493008
1.482253,-0.04006611,0.1115094
1.592207,-0.02752343,0.1921104
1.545984,-0.1111089,0.07688558
1.495856,-0.3980032,-0.1627831
1.469667,-0.8501745,-0.2767906
1.111697,-0.903836,-0.1130358
0.7627044,-0.5025483,0.07946578
0.9130742,-0.3006621,-0.1002898
1.201124,-0.3827997,-0.2430799
1.256082,-0.4014648,-0.08977514
1.083729,-0.349618,-0.07211037
0.7984292,-0.3186391,-0.1050652
0.6407622,-0.2756985,-0.1009141
0.5795697,-0.1856764,-0.1831652
0.477129,-0.1607957,-0.1733198
0.5421592,-0.1851557,-0.1416461
0.6858209,-0.1585153,-0.1365212
0.7244712,-0.155623,-0.07838684
0.7934177,-0.1169228,-0.05714847
0.8037727,-0.05580254,-0.02895695
0.8799933,-0.05695062,-0.0158969
1.085411,-0.08937869,-0.04800377
1.163631,-0.1898882,-0.02145592
1.219327,-0.2165436,0.03075464
1.228222,-0.09269225,0.09238382
1.207269,-0.007960638,0.1668961
1.289967,-0.1048651,0.1777961
1.38373,-0.346182,0.02922789
1.450143,-0.4548275,-0.2579057
1.282191,-0.2968265,-0.421473
1.081972,-0.1793186,-0.4079119
1.225008,-0.4283101,-0.3266585
1.447416,-0.6755591,-0.17836
1.602997,-0.5056999,-0.1666614
1.551033,-0.3397981,-0.218507
1.148775,-0.3001384,-0.1010958
0.7726745,-0.2095038,-0.0293808
0.6306787,-0.219652,-0.03499909
0.5197055,-0.1694578,-0.03566283
0.3710294,-0.1013643,-0.05549066
0.3589434,-0.167082,-0.02110444
0.4444482,-0.1700011,-0.002629239
0.4778738,-0.191073,0.01142948
0.5554707,-0.2162649,0.05370877
0.6175634,-0.1896677,0.1210402
0.6569711,-0.244121,0.2269326
0.8433466,-0.2667154,0.174508
1.126809,-0.2593685,0.05982234
1.409563,-0.2356839,0.08157957
1.518905,-0.1429284,0.1536754
1.508364,-0.1054316,0.2384596
1.542904,-0.1375818,0.1541289
1.506057,-0.4285295,-0.134544
1.448805,-0.8970006,-0.3001575
1.220725,-0.9329703,-0.2091763
0.9023876,-0.7177086,-0.08501975
1.033726,-0.5837645,-0.1478695
1.288595,-0.3236145,-0.1676731
1.314812,-0.305793,-0.09569965
1.26141,-0.4860558,-0.1548886
1.018129,-0.3702881,-0.1331753
0.7624312,-0.3613078,-0.09512407
0.6467952,-0.3850715,-0.1606893
0.547323,-0.2018856,-0.1354561
0.5557999,-0.2146003,-0.1462473
0.6252385,-0.2140002,-0.1530945
0.7039529,-0.1496524,-0.1235097
0.7874105,-0.1628047,-0.1479323
0.7586638,-0.07517448,-0.09267209
0.7594811,-0.04269895,-0.04627866
0.8617251,-0.01730159,-0.0229639
0.9775588,-0.0210343,0.001703512
1.100128,-0.1244992,-0.008114821
1.12327,-0.1220317,0.06130145
1.101016,-0.1162774,0.1132353
1.144076,-0.07545663,0.1316825
1.208,-0.06468589,0.1468583
1.357653,-0.2668273,-0.003633082
1.497214,-0.4207156,-0.3133189
1.43671,-0.3859222,-0.5200876
1.307791,-0.3541943,-0.4032623
1.285899,-0.5305008,-0.2239937
1.459527,-0.6345997,-0.1855395
1.637529,-0.4169502,-0.1710156
1.356828,-0.2315062,-0.2005384
0.8646931,-0.2116613,-0.1291279
0.6774272,-0.2104366,-0.002167472
0.6095525,-0.1589903,-0.02475972
0.5367957,-0.1415842,-0.01954704
0.4681737,-0.1712235,-0.001291407
0.4019623,-0.1513476,-0.02008775
0.484057,-0.2155076,0.003895312
0.5261879,-0.2530711,0.01576639
0.5252264,-0.2067603,0.05987085
0.5972451,-0.2236326,0.1010351
0.6278146,-0.2037959,0.1241572
0.8156932,-0.2597702,0.1416207
1.088876,-0.3520113,0.08123611
1.241869,-0.3063983,0.07726134
1.442498,-0.2386223,0.1654484
1.622557,-0.1588489,0.2234618
1.583254,-0.1851149,0.1345887
1.458589,-0.4729943,-0.1266919
1.461135,-0.8841807,-0.2804781
1.220577,-1.032443,-0.2015033
0.7709803,-0.7179612,-0.1338114
0.8520486,-0.3686629,-0.2075314
1.158923,-0.2879986,-0.2333057
1.227705,-0.3465084,-0.1568608
1.131594,-0.3906463,-0.1320255
0.862588,-0.3183867,-0.09633119
0.7580986,-0.2620553,-0.09532557
0.7122444,-0.2294367,-0.151037
0.564815,-0.1263287,-0.125381
0.6157026,-0.09958035,-0.120866
0.6741051,-0.08976962,-0.1053711
0.7109954,-0.03634576,-0.07214945
0.8029285,-0.02733319,-0.08709414
0.8108538,-0.01407124,-0.038182
0.8889904,-0.04864274,-0.01767037
1.029148,-0.1361186,-0.03204217
1.115698,-0.2036852,-0.01872395
1.156567,-0.2498472,-0.02464133
1.169263,-0.2032019,-0.000917327
1.191492,-0.05705275,0.02102645
1.197536,0.03409684,0.0813969
1.247577,-0.1542481,0.1138589
1.297498,-0.3932643,-0.1236533
1.226176,-0.2759381,-0.4448073
1.118212,-0.2131679,-0.4641339
1.072893,-0.4426191,-0.2372409
1.193689,-0.5474114,-0.1182028
1.459815,-0.5385228,-0.1567374
1.58765,-0.467914,-0.1722136
1.341697,-0.3078016,-0.1299209
0.9105491,-0.245371,-0.05092364
0.6651661,-0.2288841,0.0193442
0.5349725,-0.1946668,0.02637387
0.4150122,-0.1568881,-0.002862376
0.4050872,-0.1424218,0.01631188
0.4144364,-0.1713753,0.05383489
0.4529657,-0.1494678,0.05748684
0.5440068,-0.1763558,0.08784267
0.6188924,-0.2700321,0.1000819
0.7512762,-0.3238692,0.1023555
0.9371264,-0.3308735,0.1062118
1.191514,-0.2692272,0.07881212
1.54395,-0.2627272,0.13978
1.725806,-0.2814569,0.1940389
1.494195,-0.2966161,0.1337013
1.252002,-0.4675907,0.02468267
1.371065,-0.6329313,-0.1128753
1.336186,-0.6609962,-0.1847743
1.048092,-0.6775757,-0.2348396
0.9893483,-0.6657368,-0.2633882
1.035874,-0.4673969,-0.1916356
1.083199,-0.2697371,-0.147384
1.131631,-0.3425331,-0.0966339
1.07099,-0.3510463,-0.07095664
0.9725091,-0.1715202,-0.1307358
0.8297042,-0.1023473,-0.09527311
0.7277868,-0.101316,-0.08517033
0.6272242,-0.08369546,-0.1211816
0.5352163,-0.09596335,-0.05626918
0.6616999,-0.128548,-0.04104123
0.7433299,-0.09860416,-0.03495134
0.7529051,-0.02393395,-0.02351373
0.8496764,-0.003759277,-0.05309773
0.8751562,0.009683829,-0.01231505
0.9494026,-0.05334315,-0.005914899
1.039268,-0.2006644,-0.02108487
1.101119,-0.2365905,-0.003647635
1.242091,-0.1755975,-0.0008203743
1.245892,-0.138608,0.04703097
1.224243,-0.2055941,0.02853927
1.356452,-0.3376743,-0.1453338
1.414034,-0.407025,-0.4257233
1.267045,-0.3954511,-0.5546076
1.031574,-0.393107,-0.2811299
1.031075,-0.5016607,-0.05180983
1.315635,-0.5513757,-0.1646611
1.537014,-0.3957079,-0.2179931
1.453212,-0.2624859,-0.1406923
1.130034,-0.2711615,-0.08616334
0.8697969,-0.2888668,0.02861685
0.7365592,-0.2189335,0.05811679
0.5856821,-0.1526226,-0.0112123
0.445499,-0.1477017,0.0422893
0.4098854,-0.1440544,0.04683455
0.4409457,-0.1618891,0.0211634
0.4671457,-0.1396816,0.1021484
0.5848233,-0.1145861,0.09242411
0.6826702,-0.1744095,0.06781807
0.7522433,-0.1926571,0.06394574
0.9969064,-0.1678723,0.01852834
1.180322,-0.1627546,0.04054701
1.370438,-0.2293238,0.07979319
1.610506,-0.3449485,0.1215488
1.553489,-0.4244348,0.04375634
1.505994,-0.6495131,-0.2347935
1.495929,-0.8932666,-0.3774881
1.122076,-0.7157756,-0.1678716
0.7585233,-0.3332118,0.04758916
0.8648131,-0.2184828,-0.1588357
1.207342,-0.3130832,-0.3377321
1.329636,-0.3755564,-0.1593712
1.117078,-0.3368865,-0.1236924
0.8006399,-0.2818778,-0.1482665
0.6748052,-0.2610501,-0.09591005
0.6554054,-0.1841887,-0.1450419
0.579351,-0.15843,-0.1137643
0.6381381,-0.1964764,-0.09308352
0.7150858,-0.1491019,-0.1215984
0.7270337,-0.124901,-0.08352152
0.8028406,-0.08485249,-0.09031386
0.8074588,-0.03126584,-0.0675952
0.89304,-0.06008797,-0.04089405
1.035986,-0.0776116,-0.06087878
1.059566,-0.148986,-0.0408418
1.145879,-0.2057473,-0.0206715
1.177497,-0.1381974,0.006771193
1.136788,0.0181781,0.01961905
1.151837,0.2254252,0.03470216
1.166821,0.1669629,0.06122825
1.273952,-0.2134183,-0.06806596
1.364033,-0.4774978,-0.317278
1.246704,-0.3911035,-0.4381148
1.055221,-0.2998661,-0.315213
1.052254,-0.5260002,-0.1685863
1.2849,-0.6465846,-0.181503
1.522339,-0.4903798,-0.1713997
1.518605,-0.3895969,-0.1311711
1.194422,-0.2915719,-0.1176776
0.8239062,-0.1966373,-0.0375539
0.6430493,-0.1327723,-0.02509814
0.5533079,-0.04684292,-0.06304202
0.4842252,-0.07330218,-0.02205265
0.4667801,-0.1407177,0.0146537
0.5145976,-0.2082256,0.05546038
0.5443618,-0.259656,0.06842471
0.5837672,-0.205564,0.0735054
0.635603,-0.2041444,0.1444144
0.6517807,-0.273169,0.1292099
0.8422088,-0.3408429,0.07820913
1.118749,-0.382137,0.05510647
1.305599,-0.3112273,0.006459811
1.454764,-0.2448121,0.1418032
1.463518,-0.2284912,0.3069472
1.420457,-0.2740942,0.122218
1.396164,-0.6424248,-0.2612225
1.282635,-1.057872,-0.4909487
1.064584,-0.8458232,-0.3157935
0.7281468,-0.3476227,-0.04781478
0.587594,-0.2167245,-0.1579747
0.9140125,-0.2725522,-0.2281069
1.263161,-0.3614284,-0.1251849
1.215547,-0.3841573,-0.152202
0.9873224,-0.2930432,-0.0741801
0.8106076,-0.2946431,-0.06012828
0.6948489,-0.251774,-0.1619974
0.6746138,-0.2421258,-0.1061312
0.6984831,-0.2967949,-0.1755651
0.7295057,-0.222653,-0.2209874
0.7111267,-0.1937156,-0.1148269
0.6399136,-0.08268958,-0.1084282
0.6684649,0.04256701,-0.05375438
0.7572646,0.01548828,0.004341302
0.9087375,0.04829487,0.01224934
1.074628,-0.01166587,0.02056035
1.109841,-0.1119452,0.004933428
1.166787,-0.1207944,0.04657007
1.209934,-0.111615,0.07509021
1.16327,-0.0680995,0.1400319
1.181982,-0.1701628,0.152936
1.290115,-0.3094363,-0.1104109
1.381474,-0.3310827,-0.4134987
1.250836,-0.3497663,-0.4618289
1.105988,-0.4239955,-0.2777944
1.285748,-0.5655258,-0.1771971
1.511094,-0.5437569,-0.1883497
1.583852,-0.4012936,-0.1159622
1.528318,-0.3363776,-0.1133383
1.251129,-0.2337468,-0.1125687
0.8801714,-0.1887034,-0.01717537
0.6513878,-0.194433,-0.005244095
0.5280719,-0.1313076,-0.02893662
0.34239,-0.08989791,-0.02566911
0.2744064,-0.06738552,-0.03226675
0.434941,-0.08922207,-0.03655741
0.5007152,-0.1295838,-0.009603549
0.5045113,-0.1501661,0.07751131
0.6038279,-0.2051617,0.1851328
0.7459262,-0.2463193,0.2092486
1.013164,-0.2779459,0.1188409
1.261341,-0.2724147,0.02638231
1.442978,-0.2392246,0.009858854
1.605338,-0.2441712,0.1130393
1.495307,-0.2235752,0.2123909
1.353945,-0.3250708,0.02772234
1.434205,-0.6890479,-0.2469436
1.334033,-0.9657431,-0.2711803
1.000442,-0.6703456,-0.1401811
0.8299486,-0.1562254,-0.05782245
0.980563,-0.1729021,-0.1251146
1.216754,-0.351627,-0.1801561
1.214471,-0.357391,-0.08697825
1.045989,-0.4438862,-0.05394544
0.866961,-0.3246331,-0.1076446
0.6968984,-0.1434284,-0.1239186
0.6311767,-0.1655693,-0.1282817
0.6070069,-0.1430083,-0.1325959
0.6419334,-0.1565813,-0.1448739
0.7522491,-0.155933,-0.1408133
0.7640623,-0.1083696,-0.1104826
0.7601941,-0.09458103,-0.08045246
0.7680898,-0.03363954,-0.0474162
0.8272201,-0.06291644,-0.05354477
1.048215,-0.1061752,-0.05998099
1.19363,-0.1101505,-0.02665352
1.153942,-0.1800096,0.01173295
1.111185,-0.1866586,0.0746803
1.173478,-0.108549,0.104844
1.203883,-0.01134944,0.1040701
1.208751,-0.05562287,0.1027526
1.313284,-0.2505926,-0.04575269
1.307554,-0.3538326,-0.2998925
1.202025,-0.347088,-0.4106169
1.133449,-0.3658599,-0.3227374
1.194222,-0.5470669,-0.2500531
1.470506,-0.671977,-0.2801252
1.60459,-0.5326548,-0.226661
1.458949,-0.3993745,-0.1571659
1.222619,-0.2997145,-0.1586442
0.9672472,-0.2177275,-0.08634305
0.6917318,-0.1763622,-0.02566374
0.4741373,-0.06799571,-0.01605725
0.4797901,-0.06863286,-0.01174365
0.4459487,-0.1101551,-0.04300762
0.4052416,-0.09888643,-0.03285712
0.5507818,-0.2016095,0.003580989
0.5492139,-0.2643243,0.05786836
0.5522605,-0.2483282,0.1109037
0.6513582,-0.2615638,0.1060752
0.7942767,-0.2597511,0.0942056
1.161209,-0.2420234,0.04919376
1.392702,-0.1796659,0.0466679
1.444004,-0.1258798,0.1130767
1.515006,-0.1446331,0.1304577
1.484982,-0.224281,0.09812455
1.469449,-0.4787661,-0.06127501
1.419432,-0.86506,-0.2190777
1.145205,-0.9395555,-0.1636994
0.8751144,-0.5550467,-0.1154615
0.9946995,-0.2712776,-0.1862075
1.269367,-0.3262467,-0.1908052
1.250627,-0.360286,-0.1344152
1.104678,-0.2967213,-0.1063416
0.9021052,-0.2693745,-0.07736162
0.7141372,-0.2391822,-0.10101
0.6467995,-0.1668259,-0.1694129
0.5008117,-0.1346298,-0.1808591
0.5462963,-0.1529566,-0.1669322
0.740595,-0.1562049,-0.1337306
0.7509844,-0.1415861,-0.1208284
0.7996991,-0.08833941,-0.1217946
0.8132538,-0.0281361,-0.05691678
0.8510631,-0.01194618,-0.01468392
1.020407,-0.04735485,-0.007340975
1.055455,-0.1125683,-0.003438077
1.105283,-0.1401964,0.0244107
1.182464,-0.1114136,0.09349236
1.183691,0.01717779,0.1019463
1.209358,0.1082053,0.1125098
1.235092,-0.07678797,0.09629085
1.290564,-0.3098169,-0.1226994
1.267736,-0.3145754,-0.4056401
1.178302,-0.3324647,-0.4558621
1.177091,-0.5533519,-0.2402621
1.299823,-0.7122409,-0.090257
1.558302,-0.6381703,-0.1257708
1.594786,-0.4272779,-0.1400623
1.253412,-0.2116025,-0.1143646
0.866578,-0.1291682,-0.07206212
0.649006,-0.1408387,-0.02061187
0.5917967,-0.1264853,-0.01914732
0.500547,-0.1019259,-0.02101155
0.4348309,-0.1232498,0.002693305
0.4738661,-0.1675562,0.01951143
0.4669916,-0.2006489,0.03440747
0.511505,-0.2182028,0.06250025
0.5808176,-0.1872309,0.1178734
0.6140562,-0.1867381,0.1833172
0.7530122,-0.2401498,0.1425215
1.001886,-0.2689448,0.05589713
1.294724,-0.2761421,0.08902135
1.512668,-0.2188176,0.1295061
1.651864,-0.1750528,0.1852962
1.643012,-0.2006825,0.2774578
1.436627,-0.2432387,0.2069046
1.358152,-0.4677829,0.03059678
1.359093,-0.8531797,-0.1593887
1.181395,-0.977745,-0.2307271
0.9265387,-0.6680038,-0.07681795
0.8517405,-0.3102835,-0.02640162
1.080576,-0.2095629,-0.1472623
1.22025,-0.29504,-0.1872963
1.134397,-0.391696,-0.1290431
1.031078,-0.3433175,-0.06922448
0.8204073,-0.2800521,-0.1070018
0.6433799,-0.2392593,-0.148761
0.6041546,-0.156277,-0.1342588
0.6127732,-0.1940469,-0.1483299
0.6630556,-0.1964304,-0.1232985
0.6833782,-0.1242346,-0.09477196
0.7231237,-0.1078607,-0.07441148
0.7641813,-0.02038687,-0.01532028
0.8313531,0.0007849593,-0.0238415
1.000101,-0.05284739,-0.04077121
1.105782,-0.09413199,-0.01812155
1.166735,-0.209291,0.01980047
1.225906,-0.2040805,0.09187452
1.204261,-0.03664039,0.1114545
1.201296,0.05371259,0.1395276
1.281658,-0.09938191,0.1525371
1.366799,-0.2928686,-0.08701207
1.355796,-0.2277953,-0.4284555
1.234448,-0.2417347,-0.4891867
1.120296,-0.4933941,-0.2725837
1.145319,-0.6696727,-0.09332981
1.260045,-0.6961107,-0.08228796
1.306989,-0.5065902,-0.1469341
1.260828,-0.257285,-0.1885053
1.105603,-0.1917304,-0.1337879
0.8519123,-0.1987036,-0.04984591
0.6436032,-0.2001254,-0.02023848
0.5457413,-0.1596855,-0.01840327
0.4824256,-0.1424317,-0.01730555
0.4324134,-0.1772601,0.01745922
0.4777853,-0.1583889,0.03037375
0.5453412,-0.1644964,0.016855
0.5612089,-0.1675076,0.07704123
0.6066988,-0.1794204,0.13961
0.6902817,-0.262206,0.1411853
0.9132417,-0.2795014,0.1057628
1.247514,-0.2560141,0.04906314
1.474807,-0.2267368,0.04997082
1.570316,-0.1896739,0.1542118
1.451632,-0.1550609,0.2539304
1.295361,-0.1987815,0.1337996
1.401924,-0.5335607,-0.1382287
1.390896,-0.8512962,-0.2418778
1.051205,-0.701674,-0.1178645
0.8208653,-0.367061,-0.01085537
0.9541045,-0.2492437,-0.1405053
1.195386,-0.3039595,-0.2489066
1.186851,-0.396016,-0.1258134
1.03467,-0.4232427,-0.07195423
0.8991472,-0.3540597,-0.08915328
0.7589402,-0.29003,-0.09727834
0.6816778,-0.2072132,-0.1759183
0.610847,-0.1678139,-0.1759165
0.6421967,-0.2027483,-0.1350562
0.7423918,-0.1613879,-0.1235573
0.7356207,-0.1266933,-0.09936637
0.7876734,-0.06328972,-0.09337863
0.8003618,0.03077951,-0.04948116
0.8249885,0.01251778,-0.01853562
1.006283,-0.02299947,-0.02332588
1.102274,-0.12593,-0.002384275
1.181806,-0.2458671,0.01189215
1.217236,-0.210495,0.05603686
1.156965,-0.07089492,0.1066591
1.16781,0.04262592,0.1395318
1.225876,-0.08945737,0.1510758
1.341795,-0.2985787,-0.03967124
1.351544,-0.2931864,-0.3780483
1.190409,-0.2786168,-0.4778235
1.034677,-0.3870217,-0.2815832
0.9932703,-0.5449518,-0.1195756
1.224559,-0.6169071,-0.1162023
1.537276,-0.441679,-0.1958574
1.591707,-0.2293999,-0.266241
1.291975,-0.2173143,-0.180192
0.8563382,-0.2478715,-0.03546728
0.6707229,-0.2165847,0.004223858
0.5943516,-0.1891325,0.008617613
0.4794854,-0.1606239,0.003369028
0.4829995,-0.1445539,0.001954472
0.4997336,-0.1590819,0.01056582
0.5004484,-0.1614309,-0.009918833
0.529177,-0.157289,-0.003633139
0.5315841,-0.1700729,0.03631531
0.5571394,-0.1978447,0.08332596
0.6722634,-0.2712262,0.1006736
0.9456563,-0.3490793,0.05193743
1.256079,-0.3284474,-0.006033175
1.35986,-0.2444872,-0.02976117
1.37135,-0.1605662,0.1018422
1.435569,-0.09082248,0.3377521
1.372696,-0.1220196,0.3221866
1.274182,-0.3276801,0.008235339
1.39927,-0.6742382,-0.3008653
1.413649,-0.8481589,-0.3087387
1.007242,-0.5627821,-0.09560942
0.6666141,-0.2490767,-0.04005517
0.8792997,-0.2816394,-0.1079832
1.236374,-0.3502652,-0.1240252
1.223391,-0.3667324,-0.117392
1.062542,-0.3992037,-0.09743027
0.8759398,-0.3230898,-0.1237401
0.6943167,-0.2193768,-0.1559116
0.6920147,-0.1733449,-0.174142
0.6481302,-0.167537,-0.1918749
0.6363548,-0.1835919,-0.1424129
0.7408477,-0.1685217,-0.1303278
0.7489826,-0.1494147,-0.125667
0.7866543,-0.1167747,-0.06115979
0.8177672,-0.07060571,-0.02531434
0.9065144,-0.06255989,0.002268401
1.069452,-0.05107377,0.007426069
1.075351,-0.0371459,0.02290514
1.126568,-0.02709278,0.05061942
1.17362,0.009127487,0.05743648
1.146235,-0.001399576,0.1081115
1.24598,-0.1232739,0.07144791
1.31785,-0.2577541,-0.1141453
1.265783,-0.2604652,-0.3010345
1.1108,-0.2543518,-0.3327248
0.9884127,-0.4211834,-0.2208931
1.106792,-0.5558858,-0.1908997
1.359028,-0.4894116,-0.1532422
1.524527,-0.4215495,-0.05266234
1.489989,-0.4299788,-0.09309157
1.348818,-0.3805562,-0.1172261
1.170215,-0.2931295,-0.0519493
0.8798936,-0.2113244,-0.03340073
0.5689119,-0.09092958,-0.02222786
0.3989958,-0.04383335,-0.0313491
0.382554,-0.100906,-0.04302027
0.425145,-0.1198081,-0.01863613
0.4821442,-0.1208513,-0.01005502
0.526854,-0.1160003,0.007029174
0.5142137,-0.09782492,0.07785869
0.5490902,-0.1706508,0.1628902
0.795813,-0.3118532,0.1509196
1.165101,-0.3874593,0.04497556
1.366126,-0.3170718,0.0007550939
1.46401,-0.2040975,0.09299732
1.609635,-0.1734636,0.2372081
1.478168,-0.1960429,0.227301
1.24104,-0.4021148,-0.01207562
1.357337,-0.8264933,-0.2336472
1.343758,-0.9758225,-0.2050129
0.9943672,-0.5296947,-0.08599041
0.8388823,-0.06936892,-0.1001968
1.008397,-0.1770882,-0.1098939
1.268134,-0.4084058,-0.07889417
1.238759,-0.4043601,-0.09998308
0.9936207,-0.3935139,-0.07992096
0.8437588,-0.2918021,-0.09278412
0.6766728,-0.1701817,-0.1487937
0.5800439,-0.1755344,-0.1599119
0.555196,-0.1563249,-0.1673842
0.5814669,-0.1746301,-0.1214196
0.7128059,-0.1562023,-0.08672685
0.7173627,-0.08743005,-0.07138833
0.7713083,-0.07159456,-0.03101979
0.8746231,-0.002149881,-0.04738613
0.9244536,-0.01869229,-0.0438861
1.084383,-0.09371687,-0.04282227
1.107456,-0.1313036,-0.04058431
1.115698,-0.2601258,0.06474901
1.214909,-0.3209464,0.1461398
1.175542,-0.1769844,0.1320158
1.181086,0.002223824,0.1140624
1.253055,-0.07734216,0.1234814
1.360456,-0.3060974,-0.04778682
1.456552,-0.379147,-0.38697
1.283013,-0.3782483,-0.4809878
1.001488,-0.3592066,-0.3147222
0.9795206,-0.4822894,-0.1846496
1.222416,-0.6218426,-0.1874732
1.486505,-0.4161592,-0.2176723
1.543027,-0.2350178,-0.1950602
1.262565,-0.2457283,-0.1680799
0.8656734,-0.240634,-0.08098607
0.6506653,-0.2212979,0.004014855
0.5366152,-0.1622099,-0.01609695
0.4596625,-0.1494038,-0.02171875
0.4429879,-0.163283,-0.006598812
0.4837406,-0.1740679,-0.006976112
0.5667848,-0.2044083,0.01355157
0.6104872,-0.2031554,0.06501457
0.6526786,-0.2401625,0.1254401
0.7377464,-0.2672546,0.1269241
0.9301505,-0.2869019,0.07545829
1.222541,-0.3031308,0.0172676
1.375312,-0.223975,0.003582033
1.400298,-0.1730664,0.074996
1.488598,-0.212249,0.1082602
1.591495,-0.3931873,-0.0727838
1.586708,-0.7421341,-0.3612388
1.446343,-0.9427953,-0.3946984
1.127666,-0.7114329,-0.09100588
0.7879632,-0.3227093,0.1133818
0.8896611,-0.2395024,-0.1174985
1.249061,-0.3601689,-0.3451882
1.293807,-0.4271736,-0.1836258
1.114751,-0.4073431,-0.08894684
0.8496225,-0.3350965,-0.1587015
0.674882,-0.2931269,-0.1192161
0.6849073,-0.2197596,-0.1648507
0.6106078,-0.1911735,-0.2171025
0.6739607,-0.2197446,-0.1805612
0.7878407,-0.1552616,-0.1750286
0.7224867,-0.1271712,-0.08902266
0.7940855,-0.07867339,-0.04826598
0.8318375,0.01483557,-0.04389891
0.8818301,0.0127883,0.00588825
1.079285,-0.03465679,-0.03521675
1.105893,-0.1481137,0.001616959
1.084664,-0.1887296,0.04412021
1.105843,-0.104514,0.005016552
1.13642,-0.06466907,0.06651727
1.201063,-0.09458402,0.0769439
1.257548,-0.2560325,-0.01333143
1.295144,-0.3844448,-0.1944348
1.173526,-0.2622751,-0.4214309
1.073796,-0.1905187,-0.4213175
1.178936,-0.4947347,-0.2493808
1.370957,-0.7609204,-0.1384454
1.645582,-0.5469499,-0.1862422
1.707836,-0.3498322,-0.2360578
1.268789,-0.3609627,-0.1227978
0.7659812,-0.2097155,-0.03738854
0.7210283,-0.1711272,-0.01777506
0.7730324,-0.2643806,-0.01147121
0.5439015,-0.1597543,-0.03815086
0.4647183,-0.1358845,-0.01134819
0.5317697,-0.1953815,-0.005811787
0.4941415,-0.151467,-0.00538548
0.563445,-0.1942772,0.04471213
0.6166861,-0.2116262,0.05169507
0.5894793,-0.1732869,0.09820963
0.651495,-0.2271955,0.1502685
0.7996206,-0.2912694,0.1091406
1.087044,-0.3874277,0.05734006
1.306658,-0.3787133,0.03496495
1.434813,-0.2420907,0.1192159
1.653846,-0.2011157,0.2261236
1.637275,-0.2534737,0.1132441
1.546102,-0.5315224,-0.1462297
1.602801,-0.8668968,-0.2864157
1.210288,-0.7859925,-0.1538993
0.6146268,-0.4485016,0.01260647
0.6299353,-0.2480915,-0.1088568
1.091401,-0.2897393,-0.2146113
1.382541,-0.3966238,-0.1457218
1.178079,-0.3794436,-0.1546733
0.8482347,-0.3534379,-0.1098529
0.7492873,-0.3289809,-0.07015638
0.6092144,-0.2289537,-0.1499323
0.5696117,-0.1866671,-0.152481
0.730236,-0.1872963,-0.1791916
0.7743878,-0.1667228,-0.1870879
0.8056351,-0.1586431,-0.1173558
0.7971705,-0.111974,-0.09586267
0.7589241,-0.05881367,-0.04092907
0.8897088,-0.02538095,-0.0339244
1.004311,-0.01207009,-0.03709391
1.069364,-0.05121173,0.02777132
1.090412,-0.07372994,0.03178819
1.072782,-0.07566858,0.05291448
1.127635,-0.03319525,0.06810458
1.145044,0.01113064,0.0796665
1.240672,-0.1350379,0.1000273
1.446255,-0.3708194,-0.1225519
1.524749,-0.460515,-0.4442076
1.373888,-0.4356183,-0.466766
1.042785,-0.5241492,-0.2270511
0.9129452,-0.6772053,-0.05727705
1.093447,-0.5857784,-0.08447605
1.329137,-0.369008,-0.142204
1.452735,-0.2338697,-0.145489
1.236661,-0.1685908,-0.1356475
0.8734336,-0.2224818,-0.09597798
0.705369,-0.2280099,-0.02708579
0.636152,-0.1765795,0.001247096
