accx,accy,accz
0.5695015,-0.2031718,-0.152077
0.584063,-0.2086695,-0.05906331
0.643652,-0.2276151,0.02983962
0.7360437,-0.2728579,0.03874963
0.8625033,-0.2883778,0.02111395
0.8981519,-0.2511744,0.009576124
0.8639772,-0.1814542,0.03586007
0.8551912,-0.1060188,0.06602169
0.8561135,-0.08046754,0.08664295
0.8884663,-0.1264336,0.05444994
1.037297,-0.1554709,-0.03191554
1.298616,-0.1136479,-0.09730721
1.527823,-0.07218005,-0.2228922
1.608532,-0.05603224,-0.3066593
1.58127,-0.03470918,-0.2413882
1.402678,-0.07131314,-0.1737539
1.121538,-0.2186639,-0.1020108
1.10422,-0.3941166,-0.1367932
1.197038,-0.5300721,-0.3545729
1.067736,-0.6495543,-0.4857255
1.019033,-0.6270425,-0.4239629
0.9426018,-0.3688673,-0.2530166
0.6588574,-0.1328061,-0.07068321
0.6038183,-0.08542915,0.07155029
0.7501715,-0.1866489,0.1239225
0.8746268,-0.2929627,-0.04199726
0.9844179,-0.2124691,-0.3115108
0.9815844,-0.08817265,-0.455779
0.8860356,0.03230386,-0.4017207
0.7839993,0.1263342,-0.2336575
0.7628719,0.006398776,-0.1001555
0.8085625,-0.06833383,-0.03851336
0.8459797,-0.0499802,-0.09391608
0.9296947,-0.06278316,-0.1597314
0.9758803,0.0210882,-0.1499719
0.9354151,0.03324155,-0.1433751
0.940779,-0.02117867,-0.03006563
1.015269,-0.0488223,0.06552709
1.12711,-0.09382168,0.005766671
1.227785,-0.05896269,-0.06724821
1.234768,-0.04692689,-0.1328926
1.182213,-0.06184065,-0.0642463
1.14816,-0.03898537,0.06912516
1.140528,-0.07382964,0.037717
1.196813,-0.1613724,-0.1416652
1.265102,-0.2922207,-0.5089369
1.233829,-0.3193111,-0.7660278
1.190741,-0.2239579,-0.5851039
1.18539,-0.1878375,-0.418072
1.170606,-0.1553752,-0.484484
1.176686,-0.1365654,-0.4009812
1.160397,-0.156116,-0.2744103
1.086506,-0.1623062,-0.3098065
0.9629737,-0.1992397,-0.2914817
0.7725066,-0.1748646,-0.2394799
0.6281448,-0.1244484,-0.1947326
0.5987751,-0.1598016,-0.1161317
0.5944751,-0.1610128,-0.06351235
0.603374,-0.1593946,0.02070216
0.6773643,-0.2129193,0.03672229
0.7966785,-0.2345522,-0.01987844
0.8681074,-0.229464,-0.02932968
0.8604561,-0.1945363,-0.06106206
0.849846,-0.1316527,-0.02997556
0.8526681,-0.0657379,0.04292497
0.8668634,-0.0153753,0.04808945
0.9748454,-0.02475459,0.03859482
1.236331,-0.0569855,-0.03184235
1.556567,-0.07940207,-0.1530452
1.66502,-0.08327758,-0.216611
1.434604,-0.06827055,-0.1131794
1.131636,-0.1115265,0.04470001
1.030033,-0.2912089,-0.02525672
1.090368,-0.5934119,-0.2969762
1.198585,-0.7153352,-0.6309959
1.265543,-0.4630581,-0.758544
1.138708,-0.1903916,-0.5432688
0.84438,-0.126382,-0.2866396
0.644024,-0.1737027,0.03526204
0.6598029,-0.2481768,0.2879423
0.771825,-0.2461064,0.11955
0.8245,-0.1681158,-0.1654021
0.7897029,-0.06663862,-0.3838737
0.7701252,-0.0265195,-0.4069936
0.81006,-0.07468304,-0.2113491
0.8699549,-0.06911193,-0.2170362
0.96094,-0.06732954,-0.2064363
1.038775,-0.0730049,-0.1535579
1.025503,0.001189955,-0.279793
0.9909348,0.01662898,-0.2244864
0.9389409,0.01119398,-0.1448199
0.836754,0.03192018,-0.0931306
0.8490672,0.004584053,0.01208535
0.9742322,-0.04934326,-0.07213118
1.091389,-0.1163507,-0.06711098
1.203593,-0.1034702,-0.05644009
1.223627,-0.06870132,-0.1952907
1.221834,-0.1017183,-0.2183567
1.236826,-0.08580897,-0.1652856
1.120207,-0.06939078,-0.01294969
1.051161,-0.08888491,0.07260042
1.088563,-0.1206975,-0.007456366
1.157917,-0.1796353,-0.1644393
1.271609,-0.1527798,-0.4935153
1.172652,-0.1150595,-0.6360025
1.025557,-0.1801543,-0.523227
1.099787,-0.2392893,-0.4971969
1.149883,-0.2730147,-0.4270384
1.176342,-0.2631483,-0.2879814
1.160994,-0.1894414,-0.2399362
1.000528,-0.1294017,-0.2505322
0.8535413,-0.08978492,-0.2396701
0.7482492,-0.09748507,-0.2075183
0.7201282,-0.1265001,-0.1737629
0.7306053,-0.1206518,-0.1116685
0.6969472,-0.1463604,-0.06575621
0.7469131,-0.1849492,-0.05906974
0.814385,-0.2229698,-0.06019813
0.8295571,-0.2491734,-0.05637883
0.8557157,-0.2178198,-0.04019209
0.8491377,-0.2116657,-0.02281229
0.8386899,-0.1892733,0.01818345
0.83414,-0.1216809,0.06853404
0.8365709,-0.1081593,0.08446566
0.885931,-0.1154098,0.04430564
0.945995,-0.1238333,-0.02270189
1.079447,-0.1153298,-0.04635053
1.319938,-0.09682436,-0.1026719
1.512565,-0.09554625,-0.1633626
1.524042,-0.02777248,-0.07635447
1.356581,0.0238477,0.05600273
1.149966,-0.1007066,0.08347478
1.107169,-0.4085659,-0.1680023
1.193311,-0.7556665,-0.6233259
1.176858,-0.8247887,-0.7258346
1.080181,-0.5230375,-0.4775117
0.9326308,-0.1978054,-0.3172087
0.6865086,-0.09463773,-0.1481393
0.5741948,-0.09811854,0.08391934
0.6909213,-0.200149,0.08445805
0.8845696,-0.35329,-0.1524965
0.9923464,-0.2621605,-0.3330491
0.9019046,-0.06582029,-0.3518455
0.7838139,0.01124525,-0.2936557
0.8011511,0.06244864,-0.2139104
0.8619547,-0.005839249,-0.1511771
0.9232149,-0.09000661,-0.1076748
1.003155,-0.04257165,-0.1375711
1.017978,-0.007926331,-0.1822311
0.952792,0.069133,-0.1281401
0.8714907,0.1088567,-0.07994537
0.781163,0.02325873,-0.005509053
0.773242,-0.04352934,0.06515539
0.8877467,-0.1524487,0.009646032
1.054657,-0.2356351,-0.05315814
1.203971,-0.2032965,-0.1411848
1.2943,-0.1499223,-0.2652669
1.390828,-0.07982798,-0.3173768
1.326184,-0.0541334,-0.1809944
1.096222,-0.04706346,0.1133475
1.096533,-0.04425703,0.1616564
1.187244,-0.1220659,-0.02741085
1.171558,-0.1510175,-0.2698237
1.181089,-0.1224643,-0.6415304
1.103404,-0.1455151,-0.7373615
1.037643,-0.2152478,-0.5289332
1.110273,-0.3144274,-0.4665598
1.162625,-0.3325631,-0.3917505
1.165551,-0.2632073,-0.2612135
1.084642,-0.201219,-0.2563532
0.931699,-0.1196418,-0.2878314
0.7867504,-0.08808709,-0.3059795
0.6948288,-0.1278815,-0.2551274
0.6791543,-0.122438,-0.1608914
0.6646098,-0.1210647,-0.1028509
0.6803106,-0.1607666,-0.04612572
0.7464216,-0.1953799,-0.02004766
0.8264545,-0.2348384,-0.02441971
0.9009053,-0.2423699,-0.03774824
0.8798267,-0.2159908,-0.05001803
0.8274928,-0.1910965,-0.004868053
0.8100003,-0.1612594,0.0530795
0.8390946,-0.1395078,0.06030454
0.9394725,-0.08074595,0.02505925
1.020354,-0.008665221,-0.01868084
1.172379,-0.06544037,-0.07113363
1.417905,-0.1668859,-0.1579952
1.49492,-0.1449263,-0.1768431
1.386681,-0.04378469,-0.06772948
1.252704,0.001334328,0.02863672
1.122596,-0.2300144,-0.03418196
1.066463,-0.6926375,-0.3020014
1.15983,-0.8592921,-0.5780338
1.195883,-0.5766627,-0.5683357
1.011446,-0.2510043,-0.4310882
0.7828971,-0.1175096,-0.3290535
0.6874438,-0.1587265,-0.0225971
0.7612398,-0.2898364,0.1677317
0.8481895,-0.36135,-0.09344501
0.8465079,-0.2467472,-0.3137388
0.8318035,-0.04870496,-0.3707024
0.7865733,0.02718581,-0.3654215
0.8195162,0.02058185,-0.2332515
0.9088747,-0.002470319,-0.1999829
0.9079188,-0.05661431,-0.1987657
0.9536597,-0.06267804,-0.1783299
0.9698977,-0.02114588,-0.2017726
0.8918906,0.02026909,-0.1298794
0.8504338,0.04237966,-0.08738732
0.8223656,-0.006134211,-0.04434555
0.8886175,-0.08996131,0.01440157
1.045445,-0.1341314,-0.05408877
1.207539,-0.1105157,-0.1161969
1.311688,-0.07579194,-0.192998
1.254134,-0.0939743,-0.2657044
1.214867,-0.09476999,-0.2658889
1.222761,-0.1041313,-0.1705641
1.163047,-0.1614234,0.09620945
1.191012,-0.1548914,0.1907153
1.244354,-0.1169813,0.002076938
1.217257,-0.08999481,-0.2691331
1.157946,-0.07602811,-0.6192524
1.046745,-0.1701443,-0.7259234
1.03469,-0.2721365,-0.5699491
1.146905,-0.2546848,-0.5415768
1.187708,-0.2278465,-0.5207109
1.159147,-0.2411432,-0.4121386
1.08479,-0.2143744,-0.3221209
0.9379949,-0.1626305,-0.2232783
0.7634512,-0.1429389,-0.2214029
0.663373,-0.1511768,-0.2580916
0.678119,-0.1653326,-0.1841416
0.6898189,-0.1252921,-0.1231738
0.691489,-0.0833583,-0.09343392
0.7144106,-0.1399546,-0.09687514
0.7475762,-0.2057242,-0.1331599
0.8383134,-0.241403,-0.08796212
0.8874157,-0.2662633,-0.06370297
0.8767212,-0.2501546,-0.0664335
0.8621398,-0.1968586,-0.004773236
0.8220283,-0.09178821,0.04928807
0.8672729,-0.02593295,0.07297607
0.9618324,-0.05836329,0.01437784
1.050395,-0.09749279,-0.06429882
1.279922,-0.1500184,-0.0869258
1.587237,-0.1885995,-0.1525925
1.698253,-0.1309501,-0.1677412
1.462913,-0.0226428,-0.02257719
1.121808,0.01092514,0.1164495
0.9837192,-0.2216571,0.00569744
1.014384,-0.6248698,-0.3443221
1.114835,-0.7328349,-0.7093391
1.166996,-0.5116436,-0.8452637
1.053633,-0.2872532,-0.6024481
0.8025757,-0.08894818,-0.2899625
0.592048,-0.01749253,-0.07302209
0.6546333,-0.1902333,0.1415761
0.8038301,-0.3366168,0.05042248
0.8181981,-0.3127362,-0.2381612
0.846397,-0.2138887,-0.4581569
0.8381909,-0.0956578,-0.5816991
0.8109869,-0.06127794,-0.4062964
0.8733898,-0.1130525,-0.2380364
0.8928779,-0.1234343,-0.2058377
0.9264469,-0.08697239,-0.1361524
1.001658,-0.03539092,-0.2094354
1.030019,0.0353175,-0.2114297
1.006296,0.05140867,-0.140475
0.9019106,0.007949043,-0.1215311
0.861675,-0.04578029,0.02250764
0.9175849,-0.1497941,0.05288889
1.002359,-0.199365,-0.01075297
1.134979,-0.1103617,-0.0873185
1.142582,-0.07213125,-0.2567068
1.063003,-0.1445718,-0.2201222
1.066813,-0.2293726,-0.04135302
1.128932,-0.3120955,0.01913474
1.264198,-0.3472911,-0.1416614
1.367881,-0.303675,-0.5081827
1.308445,-0.2449072,-0.6817461
1.118211,-0.1760633,-0.5681387
0.9565503,-0.09408135,-0.4623978
1.053019,-0.1350455,-0.435171
1.289256,-0.2278939,-0.4665568
1.356698,-0.1683804,-0.4993842
1.222422,-0.1119332,-0.3845034
0.9618125,-0.1020886,-0.2274295
0.7420001,-0.04972048,-0.236923
0.6707311,-0.08700628,-0.2307208
0.6036755,-0.1480145,-0.1383736
0.5881781,-0.2060332,-0.131137
0.6834261,-0.27635,-0.1088927
0.7542853,-0.2510853,-0.07408952
0.846586,-0.2675773,-0.09660978
0.906165,-0.2890853,-0.0808744
0.85885,-0.2449144,-0.05580901
0.839709,-0.2440283,-0.008651914
0.8297133,-0.1849484,0.07109093
0.8320735,-0.1218876,0.07603434
0.8979691,-0.1178278,-0.0006076277
0.9846891,-0.09991503,-0.09376043
1.160252,-0.1102787,-0.1507973
1.389045,-0.0942385,-0.2130004
1.477646,-0.05521654,-0.2709815
1.385058,-0.00521291,-0.1566469
1.22547,0.04772901,0.07586581
1.085946,-0.06427896,0.1366987
1.030279,-0.3507512,-0.1306795
1.125369,-0.6913445,-0.5884106
1.21617,-0.8357766,-0.8250624
1.153544,-0.6235716,-0.6808814
1.000094,-0.3495597,-0.4690816
0.772688,-0.1912083,-0.2834876
0.6216702,-0.1414588,-0.02189643
0.6247464,-0.2171057,0.1559471
0.7124274,-0.2207386,0.09459008
0.9693949,-0.1636338,-0.2335812
1.113495,-0.1348659,-0.5830868
0.9511055,-0.01600984,-0.5601183
0.8302863,0.03372063,-0.3066713
0.8095579,-0.04120376,-0.1578154
0.8093079,-0.0782756,-0.1050926
0.8654615,-0.1122932,-0.09565151
0.9356804,-0.1095045,-0.1394079
0.9975063,-0.05908347,-0.2211575
0.9954097,-0.01203317,-0.2475695
0.9494972,0.02911607,-0.1764775
0.9042945,0.003153035,-0.1019261
0.876961,-0.06291485,-0.03366617
0.9401184,-0.1518992,-0.00287021
1.073572,-0.2057602,-0.08037299
1.222245,-0.1269077,-0.1848922
1.28534,-0.0711602,-0.2308792
1.213042,-0.1074911,-0.1850064
1.150218,-0.1169986,-0.05530824
1.125045,-0.1335562,0.09423633
1.115177,-0.1955201,0.1310729
1.18874,-0.2187558,-0.1095086
1.239038,-0.1630692,-0.4783544
1.15027,-0.1177377,-0.6391704
1.026259,-0.1772392,-0.5727654
0.9908297,-0.2646671,-0.4905869
1.045994,-0.2798864,-0.4464602
1.109367,-0.2574695,-0.3555228
1.141727,-0.2104903,-0.3033968
1.138819,-0.1499898,-0.3135685
1.037493,-0.1323951,-0.2896709
0.8565147,-0.1347802,-0.2871147
0.7326141,-0.1422819,-0.2562442
0.6970401,-0.1734503,-0.1941836
0.6701238,-0.1877102,-0.1440784
0.6879656,-0.1794284,-0.03705099
0.7829086,-0.1949136,-0.01732462
0.8413706,-0.2246395,-0.07364173
0.8743697,-0.2303832,-0.07771725
0.9169658,-0.2206059,-0.09201688
0.8915079,-0.21083,-0.07306737
0.8260567,-0.184773,-0.01910192
0.7801229,-0.1426341,0.03437103
0.8263406,-0.1283361,0.04636723
0.9593427,-0.1389401,-0.01892693
1.048758,-0.1206483,-0.06894717
1.147564,-0.1055401,-0.1262442
1.353386,-0.1202435,-0.1769795
1.543471,-0.1023079,-0.1604263
1.447693,-0.02911736,-0.03163563
1.164909,0.02217065,0.1947191
1.108104,-0.1120032,0.1618407
1.139119,-0.4050975,-0.1166956
1.118112,-0.5912277,-0.3044206
1.189992,-0.6909461,-0.5210183
1.197973,-0.8247266,-0.7501487
1.11294,-0.6951854,-0.7033302
0.8909454,-0.2472564,-0.395829
0.6149031,0.02270271,-0.1495864
0.6217597,-0.02773856,-0.06082751
0.7224209,-0.1755072,0.04130004
0.8225443,-0.3433219,0.003075461
1.028144,-0.3941593,-0.2271675
1.06469,-0.2263223,-0.4103294
0.8993396,-0.00963453,-0.4256798
0.7885977,0.03141892,-0.237549
0.7885383,-0.05687614,-0.08703537
0.8276923,-0.09144364,-0.1131273
0.9158238,-0.09995052,-0.1785165
1.035637,-0.07383692,-0.2413789
1.065022,0.01212553,-0.2239072
0.9611767,0.06688563,-0.1250276
0.8638203,0.08844114,-0.03698693
0.8761384,0.02396193,-0.008829104
0.8784181,-0.09810122,-0.005727899
0.9399712,-0.1492315,-0.001376837
1.148388,-0.1447446,-0.1100737
1.235757,-0.1021124,-0.2198472
1.17947,-0.07847669,-0.1971621
1.127644,-0.1307215,-0.1065946
1.05636,-0.1764665,0.03570541
1.04347,-0.1713583,0.08391052
1.11731,-0.2030999,0.02463178
1.180058,-0.2654509,-0.05870754
1.19245,-0.2060929,-0.2883075
1.122785,-0.1019399,-0.5257092
1.01323,-0.1135889,-0.5536752
0.987909,-0.1935016,-0.499139
1.044742,-0.2706634,-0.4558327
1.108116,-0.2436812,-0.3383614
1.145562,-0.154107,-0.2224927
1.116015,-0.1225359,-0.2332378
1.030021,-0.08233843,-0.2743701
0.9422688,-0.08457076,-0.2901844
0.8781902,-0.1338691,-0.2694252
0.8234099,-0.1305861,-0.1896
0.7451118,-0.1305883,-0.1128886
0.7151964,-0.1194217,-0.02744178
0.7631561,-0.1360837,0.01351809
0.7952675,-0.2013171,-0.0195682
0.8397484,-0.2260475,-0.0225724
0.8953937,-0.2563584,-0.03427852
0.8770189,-0.2530941,-0.05318827
0.825496,-0.2051414,-0.02902719
0.7801238,-0.1680526,0.0009027865
0.7740788,-0.1216573,0.04146342
0.849766,-0.1315165,0.04464302
0.993826,-0.1434038,-0.01856176
1.203769,-0.1170056,-0.1137265
1.378424,-0.1235357,-0.2217985
1.44817,-0.1147286,-0.242448
1.468286,-0.08982337,-0.1353345
1.341465,-0.02035628,0.0579107
1.082091,0.09544178,0.2752592
0.9754154,0.06920296,0.2902529
1.067948,-0.203885,0.01399716
1.177692,-0.5748471,-0.3761904
1.237889,-0.706162,-0.7209904
1.194615,-0.5593123,-0.8022196
0.9923141,-0.3868779,-0.5893615
0.7456307,-0.1535083,-0.3365846
0.6201453,-0.003765193,-0.09579175
0.6508061,-0.1785449,0.09020683
0.7695893,-0.3448302,0.07250319
0.939686,-0.3694159,-0.1262177
1.061876,-0.3067151,-0.4062088
0.9581163,-0.07548054,-0.5321433
0.8177979,0.01473848,-0.3785231
0.849598,-0.03663323,-0.217384
0.8649615,-0.02762472,-0.1710203
0.8823629,-0.07745601,-0.1469842
0.9655702,-0.05989942,-0.2023433
1.018678,-0.003280563,-0.2558598
1.048602,0.01888138,-0.2000116
0.9949265,0.08243045,-0.1560021
0.8894627,0.04759718,-0.08089922
0.7769377,0.01597714,0.05412473
0.7251112,0.01153017,0.06624858
0.8247197,-0.09893438,0.01344793
0.9221217,-0.2095365,0.00220355
1.104126,-0.2603426,-0.09519368
1.313744,-0.2121355,-0.2268432
1.282729,-0.1683005,-0.2109114
1.226056,-0.1725199,-0.1124837
1.169997,-0.1129015,0.006187478
1.079294,-0.1218533,0.1404517
1.115159,-0.1989653,0.142583
1.182125,-0.2158816,-0.08057191
1.239831,-0.1344557,-0.434274
1.200032,-0.02405404,-0.6131797
1.055498,-0.1088333,-0.5214538
0.9614977,-0.2395944,-0.4489243
0.9057147,-0.2314966,-0.38073
0.9949536,-0.2218548,-0.2387779
1.122866,-0.1763362,-0.2140957
1.076744,-0.1388629,-0.2457392
1.025719,-0.1731432,-0.2480997
0.975313,-0.1766016,-0.2780601
0.8944255,-0.1812296,-0.2781962
0.853316,-0.1673785,-0.2254484
0.7640718,-0.1327417,-0.1466273
0.7315276,-0.1434774,-0.06946262
0.7921764,-0.1636032,-0.01305508
0.7987586,-0.2103535,-0.0009889124
0.847009,-0.2654313,-0.0625234
0.9181277,-0.2700899,-0.09772422
0.9025287,-0.2428642,-0.07023921
0.8814208,-0.2076702,-0.03775232
0.8399355,-0.1849493,0.01257403
0.8193815,-0.1727867,0.03250223
0.8799528,-0.1510475,0.01377556
0.9583842,-0.09659176,-0.009799308
1.104313,-0.05194193,-0.08933006
1.243216,-0.07246089,-0.1986981
1.274693,-0.1013344,-0.2284129
1.265566,-0.1079927,-0.1030402
1.19459,-0.08034222,0.09791071
1.088102,-0.01999421,0.1971763
1.033859,-0.03075896,0.1743309
1.075785,-0.1603298,0.05509658
1.203906,-0.3830314,-0.2319031
1.327176,-0.595444,-0.5918127
1.361555,-0.6371405,-0.7221382
1.204936,-0.5093111,-0.55804
0.8850065,-0.2753898,-0.3149459
0.5990566,-0.04517402,-0.1015027
0.531619,-0.001999494,0.006185627
0.6688038,-0.06685895,-0.02019633
0.9219427,-0.1558222,-0.1186308
1.240008,-0.2864385,-0.3306538
1.18205,-0.1847812,-0.4202063
0.8504133,0.02951629,-0.2372922
0.8067142,-0.02750504,-0.1073522
0.7301693,-0.0883887,-0.03105709
0.7175803,-0.08028477,0.01330757
0.8951137,-0.1428891,-0.06573959
0.9082153,-0.08888933,-0.1210259
1.085988,-0.04586135,-0.2037871
1.112383,-0.04113056,-0.2052319
0.9017644,0.03015095,-0.09659538
0.9499365,0.028448,-0.09748821
0.8471282,0.03162084,-0.05597671
0.7939863,0.02791921,-0.02519258
0.9304702,-0.03934356,-0.06778208
0.9322768,-0.08145523,-0.04043597
1.023349,-0.1073376,-0.06860969
1.079621,-0.1073528,-0.121834
1.173177,-0.150077,-0.1529975
1.27983,-0.1792346,-0.1591296
1.180251,-0.1330105,-0.08426469
1.205414,-0.1281212,-0.03816881
1.222192,-0.09875909,0.001151305
1.171595,-0.08536657,-0.01215233
1.217063,-0.1112106,-0.112348
1.189165,-0.07819985,-0.1985052
1.177071,-0.09914277,-0.4195362
1.128672,-0.1520754,-0.6595993
1.014871,-0.1931031,-0.6274084
0.9747951,-0.2726414,-0.5145935
0.9092236,-0.3162997,-0.4588843
0.9186316,-0.2802204,-0.2569792
1.019284,-0.1792647,-0.09159791
1.036435,-0.1370509,-0.2291341
1.044022,-0.1658065,-0.3330595
1.052393,-0.1474146,-0.3292691
0.9882025,-0.1401948,-0.3467177
0.891001,-0.1238129,-0.2247859
0.7930611,-0.07531234,-0.1165961
0.7502453,-0.06386778,-0.07137658
0.7708919,-0.07313443,-0.02116902
0.7957121,-0.1273028,-0.02622459
0.842584,-0.1834566,-0.007567672
0.8921174,-0.18592,-0.03947172
0.9011237,-0.1800938,-0.03598413
0.8755258,-0.1750004,0.03299387
0.8178648,-0.1523948,0.03003226
0.7895314,-0.0989276,0.08662899
0.8107458,-0.07251096,0.08536766
0.8837096,-0.08956985,0.01909982
1.038965,-0.09026241,0.01857958
1.181036,-0.08873476,-0.05236367
1.264027,-0.1052523,-0.1102765
1.333391,-0.1359157,-0.1100239
1.332724,-0.1439761,0.003092093
1.239066,-0.1115728,0.2343892
1.182368,-0.1147772,0.2403087
1.272288,-0.2589958,-0.05038937
1.417359,-0.520281,-0.4774714
1.431322,-0.6229199,-0.7082286
1.224471,-0.4376322,-0.5040283
0.8339355,-0.2014809,-0.2578003
0.4853902,-0.08488602,-0.1073161
0.4439566,-0.1044581,0.07609874
0.6750282,-0.2422333,0.05930111
0.9750505,-0.3629389,-0.09277828
1.148585,-0.3301458,-0.2148544
1.07167,-0.1566844,-0.3824901
0.9435648,-0.002579945,-0.4199872
0.8652793,-0.01601978,-0.2541585
0.7078984,-0.07147986,-0.07274233
0.6922809,-0.04236649,-0.03028616
0.867236,-0.05922594,-0.1482497
1.000453,-0.08877683,-0.2224127
1.109104,-0.04012035,-0.2326462
1.09028,-0.006307749,-0.2283133
0.9655505,0.03418039,-0.1362756
0.8905237,0.05675564,-0.03827395
0.830042,-0.002723746,0.0386365
0.909744,-0.056418,0.0393087
1.040394,-0.09862795,-0.03080603
1.102424,-0.1155355,-0.07481714
1.176298,-0.1024697,-0.1577237
1.123367,-0.1210432,-0.180996
1.072802,-0.1212124,-0.1151495
1.117499,-0.1211638,-0.04036609
1.103921,-0.1634675,0.08501285
1.129952,-0.2098824,0.1208716
1.166558,-0.237331,-0.02677413
1.185222,-0.1963918,-0.2865134
1.205609,-0.1308623,-0.5013853
1.115376,-0.1264631,-0.5300122
1.030554,-0.1880551,-0.5082838
1.053175,-0.2553373,-0.5057784
1.120565,-0.2129377,-0.386514
1.163086,-0.1292066,-0.2264673
1.11532,-0.1228337,-0.2499803
1.024975,-0.1497867,-0.3383098
0.9395394,-0.19655,-0.3062266
0.8486145,-0.2153479,-0.2729455
0.7643466,-0.1982381,-0.202414
0.7201409,-0.2005951,-0.095075
0.7305719,-0.1697252,-0.06365711
0.7560814,-0.1598402,-0.012137
0.7934921,-0.2079748,-0.01944364
0.8686932,-0.2481825,-0.07166667
0.9345404,-0.281038,-0.03884531
0.910034,-0.2451134,-0.03100687
0.8168684,-0.1753994,0.02080316
0.7593268,-0.1460297,0.1104095
0.7648895,-0.1107144,0.1009289
0.802338,-0.09642743,0.08373061
0.8945924,-0.0853153,0.03225766
1.111987,-0.06595365,-0.08883191
1.36732,-0.09808641,-0.180567
1.469149,-0.1287898,-0.2276599
1.449911,-0.1200573,-0.2148532
1.387882,-0.1005406,-0.1227322
1.220434,-0.06286176,0.09885085
1.035325,-0.03418473,0.3387554
1.066832,-0.1621312,0.1939376
1.192025,-0.4456518,-0.2421512
1.18003,-0.6350111,-0.5346518
1.19444,-0.6291853,-0.678095
1.096867,-0.4357824,-0.5676217
0.7812266,-0.1514213,-0.3132352
0.6587912,-0.05824973,-0.2078704
0.669362,-0.1537271,-0.005586289
0.7645688,-0.2463225,0.06293515
1.030281,-0.3045061,-0.1702179
1.124994,-0.2356953,-0.337057
1.071168,-0.09147285,-0.4638892
1.006836,-0.05181224,-0.3516756
0.858269,-0.002879286,-0.1269546
0.6958167,0.004235954,-0.1301928
0.6655252,-0.1223613,-0.09083685
0.789089,-0.122134,-0.1162579
0.8723976,-0.1107117,-0.1851081
0.9807704,-0.1529469,-0.154452
1.096287,-0.02569897,-0.2245027
1.011917,0.04549459,-0.2295633
0.9179207,0.02152977,-0.1423561
0.8534396,0.003692372,-0.04202296
0.8167882,-0.07880358,0.08215303
0.9186474,-0.1016898,0.06302911
1.099265,-0.09115465,-0.08983629
1.295298,-0.09494915,-0.2262692
1.226146,-0.1332438,-0.1398085
1.060613,-0.2051478,0.03656752
1.18127,-0.185097,0.04460329
1.215016,-0.1805853,0.07568666
1.192102,-0.1945019,0.04804017
1.316022,-0.1450362,-0.1679339
1.250479,-0.06539422,-0.3686366
1.106069,0.01966424,-0.4937499
0.9824132,-0.04604313,-0.4977442
0.89583,-0.1587499,-0.5007826
1.047024,-0.1635178,-0.5111251
1.168825,-0.1885275,-0.3528503
1.188113,-0.2034945,-0.256012
1.149736,-0.1858338,-0.2841342
0.9537836,-0.1967271,-0.2771816
0.8554557,-0.1915696,-0.2578283
0.8356215,-0.1723763,-0.2389821
0.7799542,-0.1565342,-0.2309291
0.745597,-0.141272,-0.1643207
0.686899,-0.1338895,-0.07562561
0.7159671,-0.1438999,-0.06050883
0.8064898,-0.2035518,-0.0711365
0.8644456,-0.2636372,-0.08533479
0.8843923,-0.2505865,-0.06979596
0.8477324,-0.222948,-0.05883581
0.8582879,-0.2164427,-0.03763759
0.8621384,-0.1819494,0.01142183
0.8440356,-0.119007,0.03065396
0.9075803,-0.05083358,0.07977779
1.032912,-0.02803519,0.05771107
1.223211,-0.06383382,-0.04828004
1.367556,-0.08082231,-0.1100379
1.419743,-0.1130612,-0.1598407
1.391904,-0.1606714,-0.08117122
1.212163,-0.1379043,0.08459249
1.062302,-0.1669827,0.1093528
1.041323,-0.3222662,-0.05224492
1.095006,-0.5394083,-0.3733151
1.171027,-0.6816892,-0.5731512
1.123351,-0.5214818,-0.5079621
1.076827,-0.240559,-0.4951319
1.036234,-0.1487425,-0.4855288
0.815827,-0.1936399,-0.14578
0.6384192,-0.2846362,0.2083677
0.6943345,-0.3176512,0.1349265
0.8295624,-0.2591504,-0.09274676
0.8503404,-0.1184695,-0.2796468
0.8266473,0.04774804,-0.4811857
0.8524405,-0.004030468,-0.3456343
0.8561277,-0.1205708,-0.04895066
0.9010611,-0.09800883,-0.08194384
0.9399154,-0.1041587,-0.1341867
0.9764705,-0.06346279,-0.1298497
1.037844,0.02608704,-0.1852146
0.9498871,0.05819647,-0.1093631
0.8481385,0.1042027,-0.04644998
0.8014178,0.08511167,0.01661332
0.7867467,0.02222968,0.07075458
0.8772598,-0.03556233,0.008716982
0.9631098,-0.1186814,0.007141956
1.151036,-0.1298958,-0.09144409
1.376228,-0.1322675,-0.223043
1.369334,-0.1449637,-0.1649556
1.279565,-0.1027789,-0.06557117
1.238076,-0.09089236,0.08075279
1.193512,-0.09179914,0.1619566
1.156809,-0.1044401,0.1235916
1.204759,-0.1447468,-0.03096583
1.282698,-0.1478525,-0.4010418
1.250489,-0.1399832,-0.6078427
1.156966,-0.1236941,-0.5357089
1.046567,-0.1022094,-0.4774274
0.9971809,-0.118734,-0.3677021
1.05806,-0.1725854,-0.2107079
1.075191,-0.2240263,-0.1624639
1.056051,-0.1990549,-0.200389
1.019278,-0.1576992,-0.2444373
0.8960453,-0.1642565,-0.2538157
0.7885838,-0.1342069,-0.2115103
0.7102834,-0.09432547,-0.1106002
0.6276237,-0.1032292,-0.02375195
0.6179271,-0.1384069,0.01118493
0.6687317,-0.21444,0.03077102
0.7522327,-0.2751074,0.004319145
0.8313306,-0.2650741,-0.02789438
0.8285888,-0.2307226,-0.01565432
0.8012643,-0.166059,-0.006090563
0.8139781,-0.09691309,0.02283633
0.8545194,-0.09210856,0.07641901
0.9695122,-0.08429034,0.101909
1.126289,-0.05192684,0.075445
1.234206,-0.09555128,-0.006546966
1.37632,-0.1655653,-0.1001727
1.505388,-0.1529309,-0.1175248
1.426951,-0.08293605,0.02557426
1.262614,-0.0242751,0.2204502
1.127852,-0.09391009,0.2199759
1.046286,-0.3466638,-0.04464655
1.134532,-0.6381295,-0.4395599
1.202707,-0.7195047,-0.679441
1.160974,-0.468644,-0.6340103
1.084915,-0.1676816,-0.4836898
0.837195,-0.09841457,-0.2408441
0.6618963,-0.1926059,0.07229005
0.7395115,-0.3385232,0.1446393
0.8148677,-0.3804521,-0.02738211
0.8671378,-0.2405898,-0.2216865
0.8742948,-0.03544508,-0.397899
0.8121717,0.08143749,-0.4211822
0.8020595,0.05263734,-0.2573692
0.8230469,0.01717625,-0.1252266
0.8589662,-0.02731267,-0.07019193
0.9138889,-0.09285014,-0.05918916
0.9725071,-0.05589167,-0.08379185
1.003892,-0.0008610398,-0.08913066
0.9541673,0.03602309,-0.1013182
0.8869741,0.02921453,-0.08431306
0.8723145,-0.07841202,0.009296238
0.953187,-0.1723691,0.07157414
1.158799,-0.1956314,0.002776453
1.342685,-0.1273928,-0.1203758
1.336541,-0.04996968,-0.1291666
1.213766,-0.05910316,-0.09291839
1.145276,-0.09033059,-0.07699983
1.15564,-0.1619773,0.06533747
1.209989,-0.2389009,0.1714322
1.27732,-0.2292156,-0.05836986
1.295634,-0.1449701,-0.4397653
1.244966,-0.07583355,-0.5537569
1.101644,-0.1645439,-0.4811361
0.9702824,-0.2873504,-0.5091932
1.067561,-0.2594584,-0.4456178
1.200501,-0.1806782,-0.2590884
1.112164,-0.1122404,-0.2269248
1.014499,-0.08454775,-0.2655705
0.9385391,-0.1228282,-0.2450412
0.8015939,-0.1348165,-0.2223877
0.7668386,-0.1488176,-0.1972803
0.7096784,-0.1824572,-0.1500549
0.6272209,-0.1699182,-0.09126977
0.687334,-0.1746093,-0.03139576
0.7187028,-0.2018749,0.004958315
0.7686462,-0.2148386,0.01653548
0.8518775,-0.2269184,0.001563584
0.8402689,-0.1997295,-0.04559365
0.8512914,-0.1590993,-0.0238579
0.8066821,-0.1253468,0.03958658
0.7456214,-0.09698409,0.05922736
0.822986,-0.1064737,0.1070718
0.9213155,-0.1084062,0.08629974
1.060873,-0.106002,-0.004620726
1.287246,-0.1154848,-0.05637907
1.519648,-0.1097567,-0.1594793
1.614028,-0.09371999,-0.173094
1.472856,-0.01243172,0.0445499
1.223043,0.07738046,0.3250959
0.9705425,0.01694202,0.4091853
0.8610581,-0.1944558,0.1533181
0.9448269,-0.4857617,-0.2004105
1.01626,-0.6764173,-0.4813333
1.159933,-0.5844728,-0.7483165
1.344099,-0.3598046,-0.8904552
1.179867,-0.1875144,-0.7435441
0.8252544,-0.1389235,-0.2973824
0.6289124,-0.2255736,0.07697456
0.6244941,-0.2453974,0.05938934
0.7639679,-0.2174172,-0.1075931
0.797462,-0.1734009,-0.2004475
0.7563063,0.005806403,-0.3073996
0.8246906,0.02306113,-0.3677026
0.8621915,-0.07287348,-0.2620152
0.8978108,-0.0451476,-0.1964743
0.9354098,-0.08225959,-0.2037537
0.9628312,-0.05857269,-0.1544024
1.025725,0.02305227,-0.1570676
0.9688833,0.02840609,-0.1410258
0.8778212,0.05889063,-0.08129434
0.8333086,-0.01659804,-0.02535404
0.8517476,-0.1388696,0.04872644
1.038394,-0.1593453,-0.01429591
1.240466,-0.1207131,-0.1466894
1.324795,-0.07234842,-0.2546278
1.241343,-0.1179743,-0.275249
1.132707,-0.1613542,-0.08249333
1.151519,-0.1614943,0.1184205
1.159284,-0.1833221,0.174237
1.220298,-0.1502895,-0.01456838
1.270956,-0.09638496,-0.4061416
1.174274,-0.06521242,-0.6328089
1.098532,-0.1275193,-0.63383
1.069408,-0.2663665,-0.5515535
1.116781,-0.2826817,-0.4996551
1.172261,-0.2435236,-0.4513072
1.120317,-0.2311382,-0.2756738
1.08258,-0.1750374,-0.1723991
1.009805,-0.1291827,-0.2253455
0.9042486,-0.1177546,-0.2632881
0.8639969,-0.1365611,-0.2647204
0.7940525,-0.1632829,-0.2534096
0.6747713,-0.1437354,-0.1929322
0.5961699,-0.1165288,-0.04932842
0.6136122,-0.1064382,0.05283001
0.6888541,-0.1393843,0.05770007
0.7908753,-0.2184273,0.04306874
0.8868561,-0.2420779,0.001408694
0.8943146,-0.2062627,-0.01986208
0.8599517,-0.1711172,0.007966671
0.8454563,-0.1249466,0.06062883
0.8784592,-0.07484327,0.08494401
0.953471,-0.03596063,0.055707
1.044054,-0.02482716,0.03232321
1.310766,-0.08115493,-0.06933075
1.652254,-0.1512577,-0.2253948
1.614345,-0.121962,-0.2049597
1.300021,0.0009538755,0.02387126
1.167704,0.01825753,0.1559452
1.164261,-0.3350154,-0.1300218
1.139311,-0.8012237,-0.5601015
1.199903,-0.7672289,-0.7267569
1.259079,-0.4469089,-0.7718367
1.080859,-0.2627663,-0.6744147
0.7213037,-0.07867822,-0.2997185
0.5278142,-0.09281074,0.02056015
0.5820207,-0.2529183,0.1236089
0.7163189,-0.2508672,0.03565519
0.8822458,-0.2919354,-0.197331
0.952822,-0.170847,-0.3976141
0.9244967,0.05230398,-0.5537505
0.8942184,-0.01889126,-0.4236654
0.812683,-0.033739,-0.1295031
0.7868085,-0.004933052,-0.1592178
0.8707846,-0.07691954,-0.1629242
0.9616929,-0.03516022,-0.110056
1.016583,0.004452087,-0.1876816
1.001239,0.04050092,-0.1170102
0.9519653,0.07239904,-0.07538467
0.9096221,-0.002822992,-0.02749205
0.9039792,-0.09984996,0.0694285
1.007371,-0.1752484,0.01397951
1.179306,-0.1671903,-0.02757518
1.270368,-0.1019594,-0.1240872
1.220355,-0.07673096,-0.1843017
1.13213,-0.08363089,-0.03683086
1.084196,-0.1226861,0.09170542
1.090427,-0.1777122,0.1103208
1.180454,-0.2167904,-0.1144298
1.232985,-0.1834648,-0.4899893
1.136985,-0.09160948,-0.6269092
1.06308,-0.06776757,-0.5420445
1.140547,-0.1188667,-0.5055809
1.23909,-0.201492,-0.4970699
1.244274,-0.258138,-0.3153209
1.198027,-0.1981484,-0.1705614
1.099081,-0.1257444,-0.2188809
0.917058,-0.1251421,-0.238361
0.7604714,-0.1187598,-0.2385087
0.7030116,-0.1409935,-0.2184341
0.6768907,-0.1872732,-0.1402438
0.6398725,-0.1663173,-0.07757822
0.6507887,-0.1499206,0.006699968
0.7183139,-0.1800458,0.04917108
0.795341,-0.1824398,0.03293708
0.8641157,-0.179401,0.03480851
0.860447,-0.1809929,0.02832124
0.8382468,-0.1463729,0.03830692
0.8658541,-0.09549607,0.0737723
0.9111955,-0.04814409,0.09570794
1.04556,-0.04434719,0.07703248
1.233697,-0.09868988,-0.01794707
1.437937,-0.1574138,-0.1465522
1.576948,-0.1709061,-0.1807174
1.420632,-0.1111148,-0.06207446
1.208572,-0.06276141,0.08074419
1.213813,-0.1524035,0.05372753
1.234434,-0.4272935,-0.2816899
1.215085,-0.6993509,-0.7124301
1.187755,-0.6201178,-0.7299373
1.006098,-0.3501903,-0.4304237
0.6649101,-0.1483107,-0.1492986
0.4702397,0.05504397,0.1134584
0.6478627,-0.04415245,0.05961678
0.9341866,-0.3212416,-0.1824343
1.109489,-0.3026236,-0.2499457
1.148288,-0.2633167,-0.4231979
0.9402506,-0.1499681,-0.4544095
0.7803921,0.0437138,-0.3059663
0.8287315,-0.061557,-0.2992554
0.8089807,-0.1137346,-0.1041316
0.8941931,-0.051839,-0.09352768
1.122503,-0.05365566,-0.280085
1.162426,0.03746153,-0.1658793
1.069708,0.05725729,-0.1917722
0.9822404,0.009556377,-0.1636765
0.9069975,-8.143338e-05,-0.01058348
0.882764,-0.04736046,-0.06724623
0.9066337,-0.1395208,0.001733958
0.9911964,-0.2211397,-0.03155975
1.133045,-0.176326,-0.1644768
1.19746,-0.1074496,-0.1412476
1.207013,-0.07736543,-0.2125898
1.205741,-0.03685573,-0.1550667
1.053588,-0.07075596,0.04995295
0.9794123,-0.1129867,0.1667186
1.072577,-0.1496491,0.2120201
1.114759,-0.2244507,0.06088178
1.217792,-0.2438776,-0.1957025
1.256289,-0.2147912,-0.4281754
1.164094,-0.1962072,-0.6197183
0.8809091,-0.3537122,-0.2220072
0.9528357,-0.3056772,-0.2503311
0.9189173,-0.1628702,-0.3084797
0.8509178,-0.008320925,-0.3530096
0.7243936,0.02978854,-0.2398089
0.624028,0.01620019,-0.1585781
0.6821317,0.003208988,-0.1311866
0.7379982,-0.03013913,-0.07011016
0.8206767,-0.02472329,-0.09319126
1.055897,-0.007111809,-0.1753232
1.146763,-0.01229126,-0.2077382
1.009517,0.01610898,-0.175362
0.9101484,0.05668134,-0.1144152
0.8412086,0.03688647,-0.02049227
0.8233979,-0.0290648,0.08719079
0.9577337,-0.1193443,0.1282661
1.132401,-0.1681454,0.08342289
1.313106,-0.1132026,-0.03581234
1.420116,-0.06951097,-0.1172383
1.312695,-0.04125668,-0.05107231
1.154196,0.01850937,0.09363488
1.117569,-0.04125183,0.1368067
1.185424,-0.1991514,-0.1129868
1.302199,-0.3303518,-0.5304739
1.341724,-0.4192166,-0.7217239
1.243112,-0.3479147,-0.6466522
1.106273,-0.1690776,-0.5429591
1.021861,-0.09333915,-0.3804188
1.006454,-0.08696404,-0.2103892
1.035169,-0.1185257,-0.2524583
1.049112,-0.1642731,-0.3302949
0.9981283,-0.17236,-0.3226368
0.8801428,-0.212885,-0.3207452
0.7123702,-0.2092294,-0.2333462
0.560602,-0.1604245,-0.1003061
0.5398857,-0.1695773,-0.003092555
0.6371876,-0.1888896,0.05766858
0.7404693,-0.2358245,0.0411151
0.8302516,-0.2467829,0.007175
0.9082969,-0.1954633,-0.02861661
0.9111971,-0.1657835,-0.03701396
0.841798,-0.106067,0.03650653
0.8022452,-0.06999031,0.1013142
0.8189157,-0.0801165,0.1123999
0.8976478,-0.08469572,0.06715276
1.117861,-0.1176508,-0.01273981
1.41592,-0.126831,-0.08781244
1.571581,-0.1020012,-0.141149
1.492693,-0.04944958,-0.08155935
1.335577,0.002593481,0.07151791
1.203902,-0.1020246,0.1393093
1.105825,-0.3713474,-0.08769541
1.135326,-0.6238929,-0.5025122
1.160512,-0.6602462,-0.619401
1.070092,-0.4693087,-0.4769969
0.9198741,-0.211442,-0.3773305
0.6789503,-0.03933379,-0.1627349
0.6386006,-0.1598793,0.05225195
0.8293527,-0.4614145,0.0239097
0.8951999,-0.5461363,-0.06802471
0.9311031,-0.3621106,-0.1780476
0.9061743,-0.04834241,-0.3046279
0.7930479,0.1280115,-0.2594655
0.7756575,0.04336605,-0.1356554
0.7473927,0.0001290418,-0.08337843
0.8211869,-0.01457881,-0.04884995
0.9739931,-0.07642057,-0.07666528
0.9556238,-0.03634582,-0.1052683
0.9355981,0.002002481,-0.06892979
0.9372023,0.03181807,-0.07378757
0.8655835,0.06551638,-0.0164908
0.8240769,0.02199472,0.07911622
0.8589399,-0.03975841,0.09075798
0.9724147,-0.1192338,0.1222368
1.153272,-0.1450276,0.07519369
1.373506,-0.09326712,-0.07338065
1.418405,-0.05639697,-0.1042729
1.23692,0.003800889,-0.02561743
1.149603,-0.001959199,0.03593081
1.184691,-0.1187693,-0.01042468
1.219299,-0.1933751,-0.2410116
1.235935,-0.2515671,-0.5437646
1.178913,-0.295476,-0.6154618
1.106954,-0.2397715,-0.4947088
1.076657,-0.1846051,-0.4764285
1.086432,-0.205284,-0.4073268
1.109841,-0.2222678,-0.2417843
1.108697,-0.1962544,-0.2597683
1.067596,-0.1855467,-0.3116761
0.9595142,-0.1645714,-0.2843636
0.8548428,-0.1186156,-0.2899498
0.7471381,-0.1159095,-0.2190514
0.6071237,-0.1068448,-0.08070633
0.5678995,-0.1262116,0.02979922
0.6172023,-0.1989902,0.1068907
0.6755173,-0.2192458,0.1179733
0.7617814,-0.220577,0.06999013
0.8385952,-0.1969455,-0.01079745
0.8388956,-0.1569455,-0.03705126
0.8133132,-0.1575285,0.01676729
0.8310688,-0.1198357,0.05651133
0.8226344,-0.05290954,0.06480162
0.8438552,-0.02955763,0.04802389
1.052177,-0.06052076,-0.006911512
1.418408,-0.09592772,-0.1397023
1.689258,-0.07369895,-0.250544
1.595293,0.007543435,-0.1096051
1.306057,0.0856862,0.1596422
1.065934,-0.03959674,0.2662843
0.9629582,-0.4171072,0.1431369
1.114237,-0.8102436,-0.216274
1.233868,-0.9279469,-0.6450734
1.178747,-0.6355528,-0.7601105
1.035311,-0.2885738,-0.5547642
0.7367051,-0.1663754,-0.3754426
0.6462964,-0.1255454,-0.1727925
0.7438516,-0.2122014,0.06186795
0.7496703,-0.3540212,0.003727645
0.9085089,-0.3396697,-0.1680882
0.9867906,-0.2145078,-0.2921569
0.8662055,-0.03015523,-0.4172356
0.836641,0.04296887,-0.306387
0.7929754,-0.03071624,-0.1526643
0.7820087,-0.06319993,-0.1083651
0.8314559,-0.104692,-0.03222147
0.8620294,-0.1253783,-0.0770324
0.9408392,-0.07712087,-0.1218638
0.9688619,-0.0720196,-0.1397662
0.9659525,-0.05088478,-0.2163177
0.9720213,-0.02226969,-0.124915
0.9543903,-0.05189655,-0.009531967
1.047346,-0.0610478,0.02471827
1.217563,-0.04808271,0.0464212
1.29157,-0.01457072,-0.05278525
1.236414,0.01577925,-0.1230764
1.17648,-0.07731132,-0.06756986
1.216813,-0.2360056,-0.05378649
1.316685,-0.3344505,-0.2155301
1.394373,-0.3867986,-0.5095565
1.261772,-0.3699348,-0.6415998
0.9936496,-0.283713,-0.4744927
0.9669685,-0.2240671,-0.3232993
1.095948,-0.1972194,-0.4001657
1.17489,-0.1810616,-0.4160491
1.199977,-0.1627296,-0.3387859
1.067842,-0.141624,-0.364785
0.8812484,-0.1738597,-0.2946609
0.7556475,-0.2089075,-0.1919017
0.6297636,-0.2164916,-0.1774714
0.5369051,-0.2079589,-0.09484293
0.5184525,-0.1538812,-0.041641
0.5792886,-0.1457117,-0.006882024
0.6441623,-0.1695685,0.02758681
0.7318331,-0.1861061,-0.0216728
0.8950906,-0.2338477,-0.03817067
0.9362017,-0.2180724,-0.03883111
0.8628375,-0.1789974,-0.03482783
0.8447797,-0.1601601,0.01067263
0.826015,-0.1172483,0.04016018
0.8613558,-0.1219548,0.05925271
1.029294,-0.1040678,0.05675692
1.232654,-0.03472392,0.01935261
1.467977,-0.02757449,-0.06807168
1.596426,-0.03484696,-0.1086387
1.449028,-0.005633674,0.02168569
1.261254,-0.002238872,0.1934401
1.1498,-0.1159289,0.2469447
1.090957,-0.3523703,0.04700728
1.186187,-0.5815686,-0.4205323
1.260603,-0.6782735,-0.8247783
1.179374,-0.542293,-0.8113208
0.9670646,-0.259311,-0.4737514
0.6880446,-0.1305375,-0.1852572
0.655562,-0.2203461,0.0167122
0.7612648,-0.3392366,0.1360436
0.751918,-0.361928,0.03256698
0.8733282,-0.2621317,-0.1712921
0.9569404,-0.07521252,-0.4163948
0.8068766,0.07885415,-0.5466567
0.7557229,0.0858888,-0.3245917
0.7792997,0.03317397,-0.0776585
0.8027792,-0.02189375,-0.05818399
0.888995,-0.1135726,-0.06800151
0.91064,-0.09517666,-0.06113927
0.9059471,0.0204186,-0.09394307
0.9114527,0.05434912,-0.0966236
0.9128736,-0.01429835,-0.02199581
0.9552858,-0.1415109,0.07107782
1.064103,-0.1904493,0.06773108
1.224741,-0.1457578,-0.04313421
1.258712,-0.1465835,-0.1474864
1.212763,-0.1556535,-0.176271
1.211381,-0.1425913,-0.07670558
1.152665,-0.153998,0.08253872
1.137905,-0.1795354,0.1062475
1.203301,-0.1988186,-0.07517802
1.208168,-0.171258,-0.4318257
1.151478,-0.143501,-0.6846506
1.101796,-0.1944055,-0.6135237
1.176426,-0.2425937,-0.5365937
1.297008,-0.227769,-0.5713315
1.286643,-0.2086593,-0.468955
1.186155,-0.1684952,-0.3107895
1.016099,-0.09844567,-0.2317617
0.8316126,-0.1034633,-0.1936148
0.7520717,-0.1495865,-0.2130491
0.7217639,-0.1437184,-0.211688
0.6679687,-0.1433636,-0.1568137
0.6064359,-0.1482933,-0.1065476
0.6196708,-0.1453296,-0.04309889
0.7349393,-0.1836079,-0.02332165
0.8306187,-0.2253672,-0.007243037
0.8469247,-0.2355331,0.01854454
0.7795442,-0.2021654,-0.007862973
0.724053,-0.1407967,0.06010365
0.808577,-0.1083009,0.1559676
0.9063702,-0.09524856,0.1522787
0.9465312,-0.07121135,0.1185296
0.9942322,-0.03353355,0.04256434
1.078135,-0.03150704,-0.01174433
1.312899,-0.08142539,-0.06603536
1.60195,-0.1024134,-0.1420019
1.596371,-0.05774978,-0.04868411
1.307521,0.02176638,0.1561677
1.110969,-0.001512707,0.2141854
1.119079,-0.2865622,-0.01567162
1.210377,-0.7126067,-0.4328936
1.315008,-0.852056,-0.6652399
1.292898,-0.5428762,-0.545229
1.028588,-0.2107561,-0.3245529
0.6360574,-0.09324035,-0.1043727
0.5345251,-0.1014855,0.1030268
0.832095,-0.2277775,0.04890553
1.061152,-0.3034762,-0.1275677
1.116726,-0.2589041,-0.2355498
1.087548,-0.1442201,-0.3937194
0.8921199,0.03668392,-0.3727764
0.6670215,0.08524526,-0.2037619
0.5770573,0.0001143412,-0.09645188
0.6494856,-0.05173636,0.03035158
0.7355497,-0.07861864,0.003615086
0.8497261,-0.08667591,-0.1024682
1.043067,-0.05633019,-0.1674027
1.063024,0.004578432,-0.2500184
1.013456,0.02515843,-0.1660593
0.9907268,-0.02841173,-0.03312768
0.9157666,-0.08748954,0.07426302
0.995977,-0.09202553,0.1242322
1.156605,-0.05624023,0.01695659
1.234424,-0.05245243,0.01475122
1.234812,-0.06815688,0.03808268
1.191492,-0.07972024,0.06837733
1.224589,-0.09571409,0.1903163
1.264929,-0.136739,0.04935794
1.331113,-0.243736,-0.2711407
1.399724,-0.2899921,-0.5718769
1.245561,-0.1925677,-0.7175309
1.063375,-0.06494873,-0.5532435
1.046653,-0.01131416,-0.4094596
1.047571,-0.08687681,-0.283169
1.040163,-0.192306,-0.1237959
1.076026,-0.2223807,-0.2005987
1.104873,-0.233968,-0.3089984
1.04311,-0.2198649,-0.3569389
0.9048709,-0.1732766,-0.3505926
0.732166,-0.160385,-0.184489
0.5746362,-0.1406164,-0.05062773
0.550344,-0.09565673,0.06891557
0.6254101,-0.08814632,0.1357249
0.7168779,-0.1113026,0.05628645
0.8369431,-0.1330016,0.04077035
0.8888507,-0.1300417,0.0189872
0.8472506,-0.1272861,0.01526887
0.826357,-0.1439962,0.1222732
0.8119033,-0.127392,0.1634131
0.8226696,-0.1080018,0.1672494
0.9644559,-0.1097706,0.08211518
1.264508,-0.1032477,-0.09091106
1.627233,-0.09221997,-0.175377
1.702352,-0.03730762,-0.1831107
1.398666,0.002407014,-0.06116188
1.137578,-0.1174374,0.03678932
1.1114,-0.4173468,-0.1871045
1.252187,-0.7307579,-0.5660812
1.357597,-0.7413202,-0.7117267
1.167137,-0.4250753,-0.5089854
0.8292663,-0.1931357,-0.2334261
0.6058907,-0.2061406,-0.05921539
0.6099644,-0.2067053,0.120833
0.7325339,-0.2034688,0.1962041
0.7905566,-0.3052719,-0.02267247
0.9319379,-0.2375314,-0.3609534
1.019281,-0.06269133,-0.4763045
0.9003461,-0.02311988,-0.356347
0.8802734,0.04484425,-0.2755234
0.8489938,0.01560713,-0.2256416
0.7557679,-0.1103912,-0.09583353
0.8344685,-0.07427904,-0.09410918
0.9009871,-0.07455877,-0.1690336
0.9027776,-0.07476375,-0.1181936
0.962065,0.008375704,-0.131
0.9809049,0.02352726,-0.1577831
0.9268222,0.0553592,-0.0662844
0.9054063,0.01991156,-0.008863958
0.9605464,-0.07090735,0.05772466
1.058945,-0.07640184,0.06427128
1.191508,-0.07922936,-0.05728482
1.241819,-0.07329811,-0.1282803
1.176365,-0.09155538,-0.1229836
1.147777,-0.1255266,-0.01810677
1.141884,-0.1413778,0.08035689
1.156189,-0.2181306,0.01428806
1.233121,-0.2643897,-0.2021778
1.262842,-0.2190006,-0.5221207
1.19072,-0.1779127,-0.6386377
1.128984,-0.2087452,-0.5251496
1.201593,-0.2279001,-0.4975512
1.265593,-0.1517797,-0.4136881
1.166287,-0.07703725,-0.2351284
1.033459,-0.04736723,-0.2332943
0.9143759,-0.09780227,-0.296215
0.8111117,-0.1879909,-0.2703062
0.7801075,-0.1982156,-0.2561058
0.7347369,-0.2056613,-0.2079713
0.662327,-0.196774,-0.06950165
0.6460247,-0.1589895,0.05544692
0.7147172,-0.1840612,0.08375675
0.825314,-0.2010619,0.01227256
0.8686702,-0.2121147,-0.03939867
0.8878658,-0.2266226,-0.04089633
0.9043347,-0.1874478,-0.005877747
0.836985,-0.1330385,0.1083453
0.7795244,-0.06315898,0.1669338
0.7747997,-0.01090937,0.152589
0.8264129,-0.0175857,0.1311074
0.9927944,-0.04743713,0.0481884
1.255191,-0.09977446,-0.05704728
1.588544,-0.1203545,-0.1807916
1.721733,-0.05978312,-0.2201076
1.479235,-0.03045167,-0.06755176
1.234237,-0.1846142,0.005830338
1.20942,-0.5047591,-0.2479088
1.269385,-0.7228587,-0.6294704
1.276984,-0.6247465,-0.7239484
1.112431,-0.3369606,-0.5149128
0.81473,-0.071512,-0.2400811
0.5835255,-0.0005607756,0.07520761
0.5661233,-0.1772457,0.2272175
0.7332594,-0.2736587,0.05294935
0.9229957,-0.1576861,-0.2028077
0.9939237,-0.0627408,-0.439133
0.9261275,0.02837307,-0.5346163
0.8518705,0.05798878,-0.2869908
0.8440175,-0.01324899,-0.04159712
0.8567934,-0.01541904,-0.0501336
0.8991674,-0.04449065,-0.06660511
0.9500097,-0.05773576,-0.08055187
0.9895171,0.006052981,-0.1289301
0.990724,0.008701184,-0.1199445
0.9168635,0.04326109,-0.1031229
0.8735841,0.05613008,-0.0648768
0.8597078,-0.02013789,0.009156972
0.8832901,-0.08243829,0.04065182
1.07243,-0.1459827,0.002388278
1.279689,-0.130313,-0.06630849
1.309372,-0.08589137,-0.1484193
1.229923,-0.1132698,-0.2150919
1.180439,-0.1324937,-0.1433822
1.110906,-0.1768782,0.05175255
1.048619,-0.1938402,0.1928733
1.149631,-0.1676871,0.08009735
1.207785,-0.1682537,-0.2692822
1.150519,-0.09948592,-0.5435308
1.082748,-0.05705264,-0.6296234
0.9791859,-0.115533,-0.5524861
1.062003,-0.1401219,-0.4345118
1.224323,-0.1364306,-0.4038698
1.212245,-0.1202573,-0.2792699
1.165291,-0.1019374,-0.1931091
1.077908,-0.1028816,-0.2533469
0.9522328,-0.086448,-0.2408908
0.8338356,-0.07740309,-0.2490628
0.7343597,-0.1007469,-0.2309827
0.6904676,-0.1482325,-0.1209278
0.6278456,-0.183238,-0.04667374
0.701918,-0.1913679,0.002307703
0.8817965,-0.2081734,-0.01676421
0.8977758,-0.2104694,-0.03442339
0.9012645,-0.1995943,-0.02284833
0.8998002,-0.1935277,0.002195438
0.8111788,-0.1536028,0.101511
0.8143948,-0.107772,0.1219252
0.8688136,-0.1132123,0.07891982
0.9692851,-0.1308354,0.05587861
1.159316,-0.1176634,-0.02646965
1.325386,-0.09302282,-0.1255789
1.423875,-0.04291369,-0.1693347
1.375473,0.02142247,-0.08169181
1.244234,0.02751995,0.1028657
1.157954,-0.07366554,0.1921889
1.099666,-0.3112768,-0.008852153
1.1393,-0.575243,-0.4281347
1.174259,-0.6656381,-0.6334863
1.126625,-0.5663347,-0.6028731
1.093571,-0.3664209,-0.6181606
0.9115657,-0.1350936,-0.5005281
0.7082148,-0.06919986,-0.2094143
0.7913734,-0.245166,0.01248786
0.9029392,-0.3567459,0.2156402
0.9074906,-0.2976905,0.2084946
0.9926216,-0.1872491,-0.153475
1.053055,0.003862184,-0.3552078
0.9738201,0.075137,-0.3354147
0.8703286,-0.03045223,-0.2463782
0.8300416,-0.04177423,-0.03746275
0.8611385,-0.006713151,-0.04777286
0.9303645,-0.002808212,-0.1412366
1.01136,0.01312733,-0.1429587
1.045996,0.007039723,-0.197419
0.9843341,0.00449516,-0.1373807
0.9234745,-0.002210072,-0.0930796
0.8973396,-0.03600154,-0.03313443
0.8998624,-0.08597867,0.06657708
0.9934063,-0.1146162,0.003129998
1.114088,-0.08910866,-0.02655506
1.180448,-0.08133768,-0.08689322
1.162421,-0.1253612,-0.1264249
1.121288,-0.1815703,-0.01963012
1.134333,-0.2073684,0.004856154
1.121243,-0.170203,0.03296695
1.106649,-0.1225233,0.08655185
1.117595,-0.1139364,0.09681279
1.122589,-0.107018,0.0604963
1.178877,-0.08531128,-0.0810261
1.205188,-0.07986983,-0.2114842
1.159251,-0.08862479,-0.3313504
1.064283,-0.09334169,-0.4757659
0.9540241,-0.1075357,-0.5234555
0.989812,-0.1533305,-0.4313031
1.080121,-0.2174359,-0.3147193
1.094597,-0.2422644,-0.2411572
1.1452,-0.2303597,-0.2101782
1.178863,-0.2349685,-0.2585184
1.095068,-0.2014665,-0.2582416
0.962592,-0.1119821,-0.2593558
0.8681766,-0.08297447,-0.2760196
0.8034798,-0.1045291,-0.138157
0.734468,-0.1021017,-0.08040938
0.748797,-0.1149154,-0.07440346
0.8132004,-0.1548481,-0.009270319
0.8232743,-0.1955044,-0.05216484
0.8620998,-0.229284,-0.07530431
0.8921633,-0.2413947,-0.0744487
0.8794732,-0.2353893,-0.07253083
0.9042315,-0.2281383,-0.04535887
0.8964309,-0.216074,-0.05186878
0.8840687,-0.1857067,-0.01553941
0.9161774,-0.1641295,0.01281208
0.9701616,-0.1584601,0.01860297
1.093569,-0.1292927,-0.0183518
1.18939,-0.08395507,-0.1136258
1.224751,-0.04315623,-0.1183657
1.249743,-0.0106357,-0.02825366
1.179308,0.02131262,0.1166302
1.071168,0.04362554,0.2047956
1.047496,-0.00507613,0.1804056
1.126626,-0.1814597,0.05859486
1.263864,-0.48316,-0.3211552
1.330901,-0.7006554,-0.7910746
1.275704,-0.6407784,-0.9024324
1.110213,-0.4610645,-0.5601815
0.8534376,-0.27199,-0.1362557
0.6174821,-0.07368094,0.08250907
0.5168806,-0.008689474,0.2154997
0.6404663,-0.1486948,0.198177
0.9506252,-0.3749805,-0.08356661
1.140763,-0.4022321,-0.3684033
1.039742,-0.207048,-0.4047236
0.8773185,-0.0700598,-0.2505397
0.8196441,-0.04176725,-0.1550468
0.8082984,-0.09903213,-0.09166025
0.8523944,-0.129204,-0.01395378
0.9537105,-0.0352993,-0.08260606
1.052935,0.04404695,-0.1528437
1.093594,0.102372,-0.1509128
0.9812692,0.0987289,-0.1248288
0.8139215,0.05170388,0.006000141
0.7491117,0.03691852,0.1118236
0.7767484,-0.06989001,0.1375892
0.9688477,-0.1501949,0.08085174
1.29372,-0.1358379,-0.07626045
1.493178,-0.1120912,-0.148474
1.431454,-0.04744301,-0.0784219
1.251367,-0.04141441,0.07546698
1.137311,-0.07828208,0.1765565
1.127267,-0.1237597,0.0589407
1.263712,-0.2098094,-0.2430213
1.355977,-0.2106347,-0.5302742
1.216257,-0.1742547,-0.5254514
1.080422,-0.1818332,-0.3680003
1.038414,-0.1725438,-0.3450084
1.034268,-0.177016,-0.2798557
1.067633,-0.1860941,-0.1995309
1.067977,-0.161129,-0.2521981
0.9937841,-0.1530555,-0.2550802
0.8397244,-0.1602634,-0.2218376
0.7268838,-0.150151,-0.2134006
0.6707503,-0.1314235,-0.1527207
0.6206088,-0.1177511,-0.09369894
0.6578252,-0.1661032,-0.008337635
0.711994,-0.2623762,0.1063598
0.7511387,-0.2939502,0.0997212
0.8128962,-0.2629329,0.02065026
0.8742478,-0.2260146,-0.02440246
0.9186984,-0.1912003,-0.06945135
0.871602,-0.1515982,-0.01828815
0.8199332,-0.07437097,0.1238818
0.8409727,-0.008194445,0.1314739
0.8993197,-0.03959463,0.0613194
1.075016,-0.08219515,0.007305444
1.282671,-0.07483867,-0.07154711
1.438616,-0.09377314,-0.1101488
1.552046,-0.08703004,-0.1316996
1.445817,-0.03545655,-0.06777725
1.191564,-0.03708461,0.07611091
1.070813,-0.1595497,0.03938676
1.12219,-0.4892261,-0.2362716
1.262526,-0.7943487,-0.6341405
1.327945,-0.7355897,-0.7819218
1.181104,-0.4534299,-0.4953775
0.8829908,-0.1792426,-0.1898661
0.6220434,-0.06398037,0.0296616
0.5790693,-0.1738558,0.2131058
0.7115332,-0.2521805,0.1562116
0.8445465,-0.212636,-0.07175165
0.8944641,-0.1448418,-0.3604007
0.8736581,0.02209931,-0.5154831
0.8689631,0.08566848,-0.3051931
0.894306,-0.04136513,-0.08050945
0.8936407,-0.08546037,-0.04978149
0.8899065,-0.0758049,-0.013669
0.9004601,-0.02861855,-0.03359893
0.8949711,0.08728031,-0.06802321
0.8647512,0.1125557,-0.0283622
0.8438236,0.06498133,0.02486595
0.922169,-0.06951582,0.1426472
1.143171,-0.2134898,0.1551504
1.389378,-0.1463422,-0.02964315
1.467059,-0.03189284,-0.1436308
1.311803,-0.04185404,-0.07349459
1.119123,-0.0534394,0.08299662
1.080455,-0.07498921,0.1358591
1.155019,-0.1961124,-0.02022262
1.235783,-0.2839429,-0.2887179
1.226709,-0.2162026,-0.4927902
1.17015,-0.1476155,-0.5341667
1.168754,-0.2325567,-0.4904454
1.194286,-0.3011815,-0.4286319
1.220089,-0.2213376,-0.3813345
1.162911,-0.121161,-0.29609
1.080995,-0.02653811,-0.2040665
1.070066,-0.03227349,-0.2499214
0.8726159,-0.1365594,-0.232794
0.6070219,-0.1237769,-0.1498454
0.6226432,-0.1221937,-0.1561873
0.6186497,-0.1484349,-0.05634745
0.5032295,-0.121355,0.0633334
0.6173566,-0.1766726,0.07399688
0.7722289,-0.2237639,0.06472791
0.8257747,-0.2364605,0.01734355
0.9153248,-0.2184967,-0.02007962
0.8775696,-0.1527025,-0.01549437
0.8166329,-0.1421228,0.03864535
0.8421374,-0.08190849,0.1100332
0.8432691,-0.01854092,0.1051633
1.034332,-0.03697992,0.04501308
1.342368,-0.02582879,-0.06048978
1.52498,-0.02470365,-0.1359983
1.539821,-0.01319588,-0.05641535
1.374791,0.02276452,0.1070339
1.234857,-0.02057158,0.1728816
1.212706,-0.2767889,-0.03538061
1.32009,-0.7494122,-0.4736618
1.455403,-0.9676831,-0.7499576
1.349675,-0.7013579,-0.6365886
0.9776708,-0.3054287,-0.3393683
0.5141011,-0.001506704,-0.03622499
0.4401334,0.003400229,0.1543215
0.7232901,-0.2687774,0.127467
0.8231732,-0.3381141,0.01312069
0.9697889,-0.2211922,-0.2261463
1.120627,-0.1320567,-0.5397387
0.9303823,0.01109397,-0.5071982
0.7862249,0.06482908,-0.2432504
0.7833408,0.01916704,-0.05467028
0.7701864,-0.01300359,0.07579341
0.8304556,-0.03755077,0.04178398
0.916287,-0.00915131,-0.04987059
0.9813722,0.02188969,-0.08901876
0.9654866,0.08564982,-0.1382926
0.8948943,0.1147211,-0.04792994
0.8652762,0.02321507,0.08944366
0.8938687,-0.05060611,0.1658989
1.043724,-0.09460595,0.1978975
1.24861,-0.07430033,0.04265876
1.359072,-0.04831128,-0.1250616
1.319378,-0.08796169,-0.1079528
1.225097,-0.08648712,0.05095293
1.167416,-0.1272416,0.2572029
1.112402,-0.1963135,0.282032
1.166522,-0.2047286,0.07855273
1.272274,-0.1995528,-0.2757076
1.269352,-0.1850646,-0.6241508
1.234739,-0.1949501,-0.6975363
1.177338,-0.1861805,-0.6273227
1.175521,-0.129718,-0.5976325
1.197754,-0.09453324,-0.451639
1.129362,-0.09874823,-0.2782719
1.090205,-0.123453,-0.2380782
0.9710124,-0.1156076,-0.1920365
0.8082103,-0.1199495,-0.179694
0.756941,-0.1530172,-0.2213231
0.6309762,-0.1524422,-0.182557
0.5730976,-0.1580959,-0.1594753
0.675489,-0.1601375,-0.09791836
0.70153,-0.1781976,0.02401398
0.7452198,-0.222105,-0.002320322
0.8182322,-0.2258693,-0.05948441
0.8383068,-0.2398647,-0.05055318
0.8878797,-0.2213997,-0.05554749
0.862965,-0.1513839,-0.01079583
0.8240663,-0.1369667,0.05398269
0.8808871,-0.1298696,0.0642066
0.9294619,-0.09871474,0.05829913
1.064371,-0.07603524,0.05054252
1.231745,-0.06691615,0.009568832
1.376207,-0.07429522,-0.07888466
1.551551,-0.04766374,-0.1326509
1.457674,0.0162738,-0.04115562
1.209206,0.05480928,0.1113218
1.137939,-0.06646132,0.09863334
1.143396,-0.4174772,-0.2257468
1.221839,-0.7609829,-0.7423455
1.271283,-0.8064352,-0.9443289
1.178946,-0.5107824,-0.6324444
0.9725736,-0.1498786,-0.301053
0.630931,-0.08528486,-0.07169785
0.494159,-0.2946223,0.2086375
0.62976,-0.4385224,0.2197487
0.7368059,-0.350785,-0.04737058
0.898494,-0.2052076,-0.3169367
0.9764739,-0.06183167,-0.4866139
0.880595,0.1152983,-0.3904975
0.90669,0.1158348,-0.2147237
0.9192302,0.02726786,-0.1353459
0.8644557,0.03571871,-0.04704994
0.9265572,0.02938857,-0.08736907
0.9511675,0.05951986,-0.1217574
0.9244657,0.08439219,-0.05708222
0.9084895,0.03275505,-0.07046127
0.8630889,-0.0191857,0.009674533
0.8991147,-0.1222372,0.0771976
1.023168,-0.1868376,0.02017695
1.177672,-0.1736079,-0.007301051
1.283213,-0.1792392,-0.1523098
1.267931,-0.2007364,-0.2583445
1.229004,-0.2411674,-0.1081235
1.165683,-0.2387851,0.1185986
1.119992,-0.2029177,0.2467444
1.170079,-0.1480244,0.1132462
1.176767,-0.01844942,-0.2342137
1.123366,0.06156153,-0.5545759
1.07193,-0.0019517,-0.6583905
1.058325,-0.1255658,-0.6088988
1.162268,-0.1920437,-0.5768104
1.259465,-0.184071,-0.453583
1.21432,-0.1649678,-0.3270429
1.099064,-0.1371677,-0.2813324
0.9596694,-0.0984269,-0.1799417
0.816355,-0.09695135,-0.1915208
0.7394038,-0.130665,-0.226596
0.6789057,-0.1262879,-0.157744
0.5979232,-0.1197851,-0.1314613
0.5965399,-0.1375855,-0.03513366
0.6378892,-0.1396498,0.002811131
0.7140477,-0.2189668,-0.04172283
0.836244,-0.3065616,0.02612749
0.8369984,-0.2775351,0.01096008
0.8201896,-0.2326397,-0.01429207
0.8925573,-0.1871794,0.03200187
0.8783063,-0.1254974,0.0132781
0.8881459,-0.1122158,0.04145895
1.041869,-0.1153947,0.09895455
1.156782,-0.0946716,0.1203444
1.21951,-0.09252951,0.05290023
1.35006,-0.06661588,-0.1272454
1.458437,0.003653465,-0.1888206
1.415695,0.05032975,-0.06400823
1.311671,0.0766894,0.04887612
1.241463,-0.08170057,-0.03885767
1.214772,-0.4679555,-0.3255026
1.198466,-0.7631901,-0.6141842
1.068787,-0.8011232,-0.6331668
0.9119846,-0.550377,-0.3126007
0.7896303,-0.1873719,-0.03704967
0.6164186,-0.02901318,0.02364406
0.5860311,-0.07675667,0.05545628
0.7133601,-0.2294253,0.04905518
0.8617964,-0.3689896,-0.08419209
0.9840939,-0.3317374,-0.3605341
0.9028642,-0.137847,-0.4785787
0.813923,0.03830316,-0.3169699
0.890331,0.0514118,-0.2024749
0.9105213,-0.05115396,-0.1126587
0.9278878,-0.09823788,-0.0514092
0.9730758,-0.04435571,-0.08939745
0.9488925,0.02257516,-0.06900303
0.9385296,0.06515427,-0.05627311
0.9256096,0.04830491,-0.008607441
0.9190407,-0.03952726,0.1354795
1.001967,-0.09436659,0.1790598
1.147123,-0.0962066,0.04954164
1.314278,-0.07513029,-0.1321055
1.350527,-0.05410718,-0.1693507
1.220611,-0.06526663,-0.09012012
1.180543,-0.1247487,-0.07920332
1.296351,-0.2908741,-0.2072864
1.381312,-0.3971871,-0.4714505
1.290537,-0.2814671,-0.6316873
1.146551,-0.1694163,-0.4952062
1.142274,-0.1788858,-0.3695178
1.190722,-0.1762016,-0.4319591
1.207501,-0.1324814,-0.3533851
1.135181,-0.1170059,-0.1866371
0.9823155,-0.1352289,-0.2259229
0.884479,-0.1516275,-0.2416749
0.7337144,-0.1574593,-0.1817726
0.5541612,-0.1597577,-0.1870357
0.5119944,-0.1707465,-0.09917025
0.520464,-0.1717431,0.02760601
0.5888365,-0.1879448,0.07615173
0.7193835,-0.2433521,0.07802534
0.7978006,-0.2642331,0.0327508
0.8242791,-0.2326863,-0.003274549
0.8296901,-0.1872077,-0.01674066
0.8244266,-0.1404289,0.02129266
0.8094252,-0.08002613,0.1005244
0.8472706,-0.03439473,0.1203076
1.005808,-0.05141656,0.1001068
1.270522,-0.05501643,0.02233187
1.530591,-0.01500645,-0.1300916
1.591069,0.01535473,-0.2029274
1.444177,0.04796762,-0.1127788
1.242879,0.01756626,-0.005404178
1.147789,-0.2374887,-0.06566591
1.235604,-0.6837605,-0.3654347
1.312371,-0.8994316,-0.7634669
1.250423,-0.6853777,-0.8163187
1.08228,-0.4034406,-0.4789843
0.7849432,-0.1795763,-0.1588687
0.5404412,-0.06916696,0.1445319
0.5345412,-0.2324258,0.287444
0.674556,-0.2986232,0.07555421
0.8672582,-0.1787999,-0.1607899
0.9629321,-0.1039502,-0.3995272
0.8931465,0.06464167,-0.5351748
0.8659858,0.1284757,-0.2964268
0.8641338,0.02190587,-0.05371259
0.7906636,0.01109029,-0.006971915
0.7821766,-0.02956292,0.002878905
0.8315213,-0.05315828,-0.01174298
0.866069,-0.002984035,-0.01930971
0.8730602,0.006641955,-0.02538153
0.8649251,0.05418528,-0.04132052
0.8822016,0.03754634,-0.03655763
0.9234137,-0.07581003,-0.0256688
1.120645,-0.1540805,-0.02379024
1.369255,-0.1733315,-0.05503934
1.365542,-0.09275393,-0.1706519
1.328714,-0.0190192,-0.2723532
1.325612,-0.02787147,-0.1128
1.142356,-0.07307851,0.163572
1.109184,-0.2018062,0.164442
1.273523,-0.3154156,-0.1225798
1.276963,-0.2927488,-0.5242153
1.191688,-0.2272432,-0.7354666
1.113978,-0.193123,-0.5921193
1.12418,-0.1522152,-0.4761264
1.188613,-0.09799414,-0.4271895
1.129928,-0.08167117,-0.2483234
1.121751,-0.09095241,-0.2193427
1.082835,-0.09861387,-0.2727348
0.8853209,-0.1162268,-0.2274904
0.7407908,-0.1490636,-0.2534756
0.6428813,-0.1860157,-0.2345041
0.5969102,-0.1843943,-0.1365687
0.562374,-0.1674691,-0.04622222
0.5623961,-0.1719861,0.06593848
0.699145,-0.1815101,0.06613617
0.8070557,-0.2070051,0.007430386
0.8901361,-0.2162771,-0.02606093
0.9056536,-0.1731994,-0.0605523
0.8436334,-0.1117978,0.005895416
0.860947,-0.07132915,0.09185664
0.8688944,-0.05276612,0.09779142
0.9475575,-0.0481629,0.05860712
1.154931,-0.08659541,-0.01681053
1.417401,-0.1380309,-0.09492295
1.660543,-0.1326082,-0.1602467
1.639308,-0.07877898,-0.144253
1.432642,-0.06030748,-0.06030882
1.216778,-0.218454,-0.07526669
1.085238,-0.5437428,-0.292815
1.119131,-0.7627555,-0.6105273
1.094942,-0.6830104,-0.6519654
0.966627,-0.3755681,-0.3885352
0.8019437,-0.03565205,-0.1914417
0.6438892,0.03180203,-0.05788703
0.6759366,-0.2276805,0.07055154
0.7791697,-0.3777399,0.05617649
0.8719366,-0.2768637,-0.1832774
0.973693,-0.1481623,-0.5037204
0.8890634,0.02201999,-0.4879292
0.7756283,0.1259278,-0.2530347
0.8097767,0.06873637,-0.1541512
0.8068671,0.04855935,-0.08362914
0.8207727,0.007791918,-0.09290135
0.9084197,-0.09099448,-0.1397305
0.9481419,-0.04728953,-0.1156689
0.9789102,0.02074164,-0.156732
0.9725483,-0.01681444,-0.1171955
0.914832,-0.03777029,-0.01212115
0.922052,-0.09071185,0.033227
1.01184,-0.155029,0.07935488
1.182282,-0.1027554,-0.003712781
1.284191,-0.08590402,-0.1516263
1.20782,-0.1651772,-0.1927655
1.164529,-0.2343064,-0.08055848
1.191996,-0.2839543,0.10485
1.208155,-0.2889177,0.05631175
1.241861,-0.2508463,-0.2269731
1.181958,-0.1667944,-0.5448267
1.052984,-0.07499138,-0.6795177
1.039251,-0.07823793,-0.5438233
1.129654,-0.1031887,-0.4949133
1.248857,-0.09358413,-0.4822683
1.288799,-0.1043513,-0.3438203
1.161636,-0.08861058,-0.2977103
1.001025,-0.05305808,-0.2121754
0.9365584,-0.07336628,-0.1704825
0.8893613,-0.108442,-0.2553367
0.7579746,-0.1395826,-0.1817517
0.6398346,-0.1846662,-0.1343247
0.6248886,-0.2002342,-0.09883555
0.6247807,-0.2086679,0.02911933
0.6765416,-0.2267337,-0.007291693
0.7954067,-0.2265405,-0.03434871
0.8499738,-0.2212771,-0.01519868
0.8604036,-0.1984591,-0.0775565
0.8510516,-0.1699371,-0.04449454
0.8367688,-0.1345939,0.03705497
0.8698711,-0.0998024,0.09353971
0.9382331,-0.1300666,0.0874187
1.065707,-0.1556347,0.01893286
1.202601,-0.1370653,-0.02104113
1.31734,-0.129358,-0.1235069
1.416943,-0.0652017,-0.1563261
1.404938,0.08739955,-0.04253889
1.313872,0.1786218,0.008357998
1.2206,-0.01867738,-0.02907874
1.18721,-0.4737112,-0.34341
1.219875,-0.7860644,-0.798966
1.16878,-0.7139865,-0.7803873
1.039408,-0.4476355,-0.4638847
0.8182227,-0.2088925,-0.2295054
0.5640007,-0.07959795,0.04883433
0.5794257,-0.1640486,0.2037567
0.7844225,-0.2970587,0.1087733
0.9900702,-0.253666,-0.1082549
1.117581,-0.1583088,-0.4683577
0.9895277,0.005834817,-0.6344555
0.8148904,0.1014228,-0.3533031
0.7735479,-0.04512615,-0.07090607
0.748323,-0.1056174,-0.01812283
0.8486426,-0.1005053,-0.04611956
1.014426,-0.1119651,-0.1167508
1.043185,-0.01797871,-0.1839194
1.010367,0.02804248,-0.2102907
0.9806289,0.02235291,-0.1649057
0.9402461,-0.08997781,-0.01295234
0.8858949,-0.2480518,0.1370981
0.9288124,-0.2080263,0.1133385
1.157683,-0.1121623,-0.08141369
1.337235,-0.05909367,-0.2226204
1.288961,-0.0659505,-0.212437
1.159249,-0.1260953,-0.107519
1.106229,-0.1445147,0.102228
1.087496,-0.1803055,0.272316
1.090487,-0.2256153,0.2031144
1.161482,-0.2712498,0.004197626
1.206642,-0.2813745,-0.2432124
1.213344,-0.1859366,-0.6112219
1.113256,-0.1490888,-0.762693
0.9721758,-0.2313542,-0.5846391
1.070966,-0.2736217,-0.4935208
1.176712,-0.1497702,-0.3621249
1.139146,0.01823222,-0.2254954
1.122526,0.004020334,-0.3315402
1.043824,-0.07541447,-0.290242
0.9673927,-0.1429598,-0.1891138
0.9058452,-0.2544062,-0.1901756
0.762658,-0.2430417,-0.06861738
0.6715911,-0.1630812,-0.005083181
0.6837365,-0.1586274,-0.0120055
0.7354423,-0.1609251,-0.01706009
0.8000861,-0.2092257,-0.04549657
0.8893733,-0.2770302,-0.03402247
0.9221915,-0.2667223,-0.06503572
0.8369306,-0.2023696,-0.0707659
0.7732471,-0.1118109,-0.03134144
0.7539963,-0.08890685,-0.01493245
0.7571201,-0.155935,0.01133898
0.8544313,-0.1814964,-0.007543518
1.054417,-0.1045392,-0.07902789
1.314378,0.04307091,-0.2681323
1.462906,0.1565298,-0.4200183
1.435007,0.1640527,-0.222653
1.342135,0.1291921,0.07631654
1.259922,0.05308033,0.1488493
1.301332,-0.2056808,-0.02331689
1.356052,-0.5839159,-0.352765
1.23812,-0.7249005,-0.5396493
0.9929845,-0.5649171,-0.389403
0.6576819,-0.3694455,-0.1347238
0.4954494,-0.2075247,0.01298169
0.6501883,-0.1721576,0.05561052
0.8473036,-0.3522317,-0.1454287
1.115086,-0.43638,-0.5107554
1.30765,-0.3063177,-0.6756318
1.14427,-0.1869789,-0.6213065
0.9404048,-0.09623743,-0.4060849
0.7575739,-0.03976295,-0.1363125
0.6500328,-0.07488705,-0.09893549
0.8131674,-0.1229213,-0.204695
0.9360695,-0.1426093,-0.3069259
1.070571,-0.1904801,-0.4622617
1.151324,-0.2314589,-0.4969923
0.9919457,-0.1948207,-0.396135
1.013015,-0.1825561,-0.3833259
1.004003,-0.1460468,-0.3596414
0.8880366,-0.02420998,-0.3192956
0.9740997,-0.000323881,-0.3740969
0.9801974,-0.01694886,-0.3572155
1.007702,-0.01315665,-0.3499397
1.038996,-0.05735471,-0.4073585
0.9482876,-0.07663171,-0.3923741
0.9762486,-0.07115677,-0.3970847
0.9444702,-0.047768,-0.3831078
0.9218385,-0.0189339,-0.3715858
0.9617702,0.003879438,-0.3999781
1.126427,-0.20896,-0.2833552
0.9835634,-0.1886344,-0.3402928
0.8659599,-0.1217222,-0.2465335
0.7607908,-0.1058141,-0.1781984
0.7183826,-0.1124561,-0.1126171
0.7883725,-0.131763,-0.07956256
0.8390908,-0.1716624,-0.04435556
0.8783728,-0.1809896,-0.02406447
0.9092531,-0.1972833,-0.0687751
0.9267498,-0.2083626,-0.0411042
0.9397113,-0.2055389,-0.03525226
0.8946399,-0.1935049,-0.0452072
0.8176054,-0.1281722,0.05172119
0.7413097,-0.07054142,0.09919431
0.8018791,-0.0897951,0.02822915
1.022193,-0.1797461,-0.1123023
1.149599,-0.2264597,-0.2037657
1.203143,-0.1638631,-0.1921178
1.309626,-0.1087821,-0.1814162
1.382309,-0.09711755,-0.1255383
1.341556,-0.03862282,-0.002222295
1.269603,0.02489922,0.05751409
1.301444,-0.1131836,-0.0634187
1.333189,-0.3879081,-0.3110955
1.311853,-0.5300778,-0.4449048
1.196059,-0.5024128,-0.3707037
0.8828446,-0.3601859,-0.2306161
0.6762866,-0.2170862,-0.1740734
0.69731,-0.1695038,-0.1802243
0.7887303,-0.2300186,-0.2234897
0.9370506,-0.344877,-0.2824204
0.9877464,-0.3520363,-0.2660818
0.9232165,-0.241053,-0.3044524
0.8168557,-0.06779334,-0.372642
0.6635705,0.03365835,-0.284581
0.6249912,-0.01637727,-0.1941347
0.7448032,-0.0379895,-0.1828849
0.9034398,-0.0666747,-0.1872419
1.039583,-0.08880417,-0.2155506
1.123486,-0.01980502,-0.256338
1.127641,-0.005978561,-0.2657738
1.016429,-0.004603981,-0.168591
0.8042482,0.01826129,-0.01875413
0.6972118,0.01247586,0.06440819
0.8031188,-0.04345464,0.0695739
0.9136049,-0.1339071,0.04779329
1.103633,-0.1051222,-0.04396325
1.375117,-0.0729672,-0.2153338
1.285667,-0.1094832,-0.2172765
1.094554,-0.06344573,-0.05710221
1.187033,-0.0571172,0.04165472
1.186512,-0.1414943,0.1050512
1.148814,-0.1874434,0.0327868
1.267924,-0.1221135,-0.3260998
1.282935,0.01788498,-0.761719
1.246528,0.05195308,-0.8476174
1.159429,-0.0424817,-0.6551272
1.039532,-0.1775115,-0.639219
1.11338,-0.2646727,-0.5820154
1.156516,-0.213113,-0.4007427
1.071522,-0.1423738,-0.3827833
0.997098,-0.1186549,-0.3094754
0.8865137,-0.1049375,-0.2732537
0.7984194,-0.1462501,-0.3167638
0.750089,-0.1787058,-0.2535669
0.7051756,-0.1708357,-0.2881678
0.6736239,-0.1599871,-0.2697717
0.6672592,-0.1351941,-0.1621573
0.7220918,-0.1468059,-0.1064191
0.7901908,-0.1737325,-0.04054544
0.8246321,-0.1784047,-0.1044098
0.8330716,-0.1882085,-0.1260678
0.809882,-0.1666471,-0.03698115
0.7602621,-0.1298523,0.006500771
0.759406,-0.09539663,0.09415716
0.8328802,-0.05603023,0.1208507
0.9313593,-0.0583159,0.05849297
1.070777,-0.05274618,-0.0509768
1.223039,-0.0366897,-0.1885357
1.383808,-0.0978741,-0.2166023
1.485689,-0.1481975,-0.1608803
1.388482,-0.0918833,-0.02002359
1.239113,-0.06418854,0.122644
1.138964,-0.2315311,0.05726876
1.113046,-0.528903,-0.2400411
1.257246,-0.688366,-0.6021088
1.320975,-0.5515771,-0.7055497
1.100465,-0.2815092,-0.533358
0.7906797,-0.06778066,-0.3526289
0.643986,-0.003878829,-0.1343927
0.7189781,-0.1835017,0.06997117
0.8568209,-0.349467,-0.004912801
0.9815035,-0.2706394,-0.2049229
0.9987326,-0.1165904,-0.3296949
0.8493701,0.06626394,-0.369941
0.7377462,0.132879,-0.2022322
0.6854141,0.02526275,-0.05126251
0.6943209,0.003147589,-0.07503524
0.8530235,-0.02247887,-0.09154348
1.009916,-0.04700466,-0.1561735
1.060768,0.02977642,-0.2188595
0.9970872,0.02665289,-0.2105241
0.8738352,0.005829084,-0.1301897
0.775575,-0.04512443,0.02807385
0.7929446,-0.1904048,0.05439974
1.008068,-0.2379284,-0.0004603612
1.206001,-0.187854,-0.06591425
1.273025,-0.1289235,-0.2343258
1.263113,-0.1018516,-0.320442
1.190652,-0.1147049,-0.1992405
1.173892,-0.1230794,-0.01908128
1.179615,-0.1531692,0.03718501
1.247321,-0.1669168,-0.03915869
1.339128,-0.08435644,-0.2297112
1.266267,0.05033572,-0.4815848
1.139622,0.05852535,-0.5665784
0.9848893,-0.1102967,-0.5250375
0.9139561,-0.2641187,-0.513288
1.012634,-0.2909772,-0.425048
1.042724,-0.2445057,-0.2776285
1.048287,-0.2388877,-0.2591458
1.045714,-0.2294513,-0.3381344
0.9547601,-0.1612931,-0.374621
0.8948939,-0.1739035,-0.3718826
0.8272533,-0.1821719,-0.2995868
0.7265696,-0.1189309,-0.1834086
0.7054787,-0.1081955,-0.1522864
0.7519918,-0.1230729,-0.1343307
0.7813932,-0.1714554,-0.07482045
0.8238747,-0.2275582,-0.08194225
0.9077514,-0.2426553,-0.1272319
0.9437264,-0.2678495,-0.1171387
0.8871252,-0.2475439,-0.08014463
0.7631831,-0.1671905,-0.00494833
0.7031594,-0.09348702,0.1091786
0.7518378,-0.050782,0.1423952
0.8233196,-0.05124024,0.08824232
0.9858366,-0.05484215,-0.0125319
1.162228,-0.04139517,-0.1523494
1.30214,-0.04952185,-0.2355923
1.530713,-0.0637543,-0.2125147
1.615716,-0.05516685,-0.1253091
1.428158,-0.04829772,-0.03852434
1.248631,-0.1057617,-0.06440499
1.198834,-0.3848403,-0.3301671
1.180551,-0.7530904,-0.6439713
1.143055,-0.7273404,-0.6254718
1.037779,-0.4194834,-0.4379011
0.8337962,-0.2623212,-0.3648538
0.7295866,-0.2104676,-0.2383177
0.7558705,-0.2430667,-0.05805975
0.7774785,-0.334545,-0.02350447
0.865719,-0.3245819,-0.136747
0.8801271,-0.184927,-0.327576
0.7930352,0.06674925,-0.4363449
0.8016118,0.1305812,-0.3209587
0.8100078,-0.0072613,-0.1690861
0.843906,-0.01804014,-0.1902324
0.9375101,-0.04785833,-0.2261248
1.005761,-0.05521771,-0.2045902
1.054648,0.02456567,-0.2394962
0.9937921,0.009706365,-0.2013641
0.8892807,0.04724844,-0.08402665
0.8046607,0.03848532,-0.03215027
0.7557405,-0.05799332,-0.01752002
0.8375869,-0.09240835,-0.0289225
0.9467267,-0.1986109,-0.03354173
1.11205,-0.2109321,-0.1275269
1.237302,-0.09667427,-0.3389417
1.15329,-0.09262086,-0.3766528
1.141173,-0.1078386,-0.2206592
1.18408,-0.1444673,-0.03560565
1.167253,-0.2266687,0.05302288
1.246976,-0.2415749,-0.06778503
1.280844,-0.1491639,-0.2549013
1.212715,0.04893943,-0.3909141
1.136015,0.1251684,-0.4905976
1.017054,-0.08587704,-0.5600015
0.9729551,-0.3374839,-0.5956794
1.086924,-0.3679079,-0.4644216
1.183642,-0.2456235,-0.2595983
1.108032,-0.1692014,-0.2679253
0.9857402,-0.1319483,-0.3404306
0.9067346,-0.1101287,-0.30895
0.8161293,-0.1419988,-0.3115131
0.8185179,-0.1686281,-0.2936312
0.8318311,-0.1835083,-0.2171267
0.7400629,-0.1659901,-0.1554306
0.7252912,-0.134146,-0.08245562
0.7588576,-0.1745636,-0.06825019
0.7961416,-0.222073,-0.0930588
0.8949791,-0.2372393,-0.09076326
0.9221029,-0.227624,-0.1028937
0.8725533,-0.1860501,-0.07408863
0.8140622,-0.1499951,-0.005858066
0.7584719,-0.1046744,0.05694569
0.776504,-0.08292737,0.08477535
0.88033,-0.119447,0.01246185
1.032727,-0.1343522,-0.1067588
1.172758,-0.09531819,-0.2194271
1.302309,-0.06135235,-0.3136163
1.472401,-0.06228065,-0.3063721
1.531378,-0.004945437,-0.1214109
1.3357,0.1259752,0.1335632
1.124053,0.1001011,0.1511132
1.15205,-0.261938,-0.1636941
1.291927,-0.7397899,-0.5828625
1.330854,-0.8359091,-0.7646781
1.167378,-0.5559812,-0.5136706
0.8955777,-0.3467564,-0.2434607
0.7310953,-0.1743876,-0.2364827
0.6493333,-0.03001923,-0.1099072
0.6899999,-0.1544887,0.004930464
0.885728,-0.3212102,-0.1495622
0.9645325,-0.3534857,-0.2665526
0.9500097,-0.2374557,-0.3918746
0.8833966,0.02055238,-0.4687121
0.7165044,0.09955485,-0.2393692
0.7287702,0.03053924,-0.07189768
0.8566747,-0.01379874,-0.1465671
0.9515766,-0.1090675,-0.1751848
1.040758,-0.08792711,-0.1269489
0.9717904,-0.00816339,-0.1371634
0.8895458,-0.01748223,-0.1354956
0.8762779,0.01377699,-0.06880561
0.8442611,0.008171578,-0.03361069
0.8682351,-0.01725547,0.04979469
0.8786632,-0.002093416,0.09903165
0.9898863,-0.06436533,-0.04485739
1.23321,-0.1106592,-0.1891829
1.312062,-0.09596639,-0.2702023
1.239577,-0.08935957,-0.2565048
1.181116,-0.07387973,-0.1007849
1.172648,-0.07057825,0.03368257
1.191948,-0.1108051,0.03455501
1.263543,-0.1895942,-0.174889
1.341173,-0.2019093,-0.4624161
1.251328,-0.1319823,-0.5823817
1.092213,-0.1095328,-0.5484601
1.008432,-0.1411893,-0.5204344
0.9939848,-0.1771358,-0.5291053
1.071955,-0.1741696,-0.413308
1.129423,-0.1721885,-0.2817789
1.095148,-0.2051641,-0.287413
1.008302,-0.1835275,-0.3037558
0.8501754,-0.1452947,-0.3149779
0.7123754,-0.1237169,-0.2807933
0.6860808,-0.1042076,-0.1961923
0.6577003,-0.1168943,-0.1064489
0.6223231,-0.1268165,-0.01748757
0.7177508,-0.1742737,-0.03140841
0.8346498,-0.2259229,-0.07106725
0.8811356,-0.2013045,-0.09582639
0.9043273,-0.1834266,-0.1093868
0.8357813,-0.1635165,-0.01896725
0.7509548,-0.1155369,0.08021879
0.7459121,-0.07603408,0.1307656
0.7896796,-0.03923433,0.1091563
0.9307489,-0.03699352,0.02317697
1.156381,-0.04311601,-0.08894154
1.381369,-0.02943504,-0.243593
1.508998,-0.02963189,-0.2440291
1.477423,-0.01161229,-0.06426573
1.321181,-0.006972527,0.08453472
1.16932,-0.1332467,0.09032336
1.187936,-0.3686507,-0.1469295
1.286279,-0.5711086,-0.5410003
1.264667,-0.6143407,-0.7829494
1.04891,-0.3910013,-0.5995277
0.6968845,-0.06562653,-0.2698006
0.5615853,-0.04163509,-0.1434713
0.7415699,-0.2567034,-0.005922447
0.9234886,-0.3732452,-0.04952228
1.062578,-0.383269,-0.2597721
1.08233,-0.3110465,-0.2046948
0.8904198,-0.1170506,-0.2416223
0.7517155,0.09729777,-0.3129327
0.6905683,0.1137392,-0.1380035
0.6772933,-0.01548836,-0.05794695
0.8216895,-0.006948213,-0.06385778
0.9800679,-0.01279642,-0.121819
1.060519,-0.05355046,-0.1805574
1.004921,0.03418471,-0.1566283
0.8649001,0.02482245,-0.1394408
0.7790263,0.003603393,-0.01593405
0.7259874,0.003378679,0.07552608
0.828291,-0.1079646,0.0613079
0.9871079,-0.1471497,-0.005271301
1.090319,-0.1679947,-0.1920136
1.264672,-0.1626311,-0.2846282
1.329417,-0.103377,-0.2563407
1.297464,-0.09393108,-0.160696
1.264674,-0.03115087,0.03951018
1.164481,0.005662135,0.2097017
1.138839,-0.02999934,0.2261679
1.183109,-0.06640934,-0.00107597
1.237139,-0.08361867,-0.3006685
1.251953,-0.06841148,-0.5045549
1.144364,-0.1311306,-0.6318174
1.049556,-0.2010584,-0.6075408
1.066084,-0.228897,-0.5078472
1.098014,-0.2554107,-0.4062317
1.050378,-0.1859094,-0.2817717
1.008911,-0.1062806,-0.2502177
0.9765875,-0.1169667,-0.3013943
0.8882812,-0.1564678,-0.29451
0.8382188,-0.1583486,-0.2649712
0.7654067,-0.1343465,-0.2295158
0.687432,-0.1135325,-0.1207542
0.6873793,-0.08915305,-0.07055967
0.6941727,-0.1155636,-0.1001277
0.7623272,-0.1691686,-0.08446255
0.8201073,-0.2073499,-0.07831339
0.7956868,-0.2132679,-0.08254383
0.7917106,-0.1902792,-0.0477505
0.7935502,-0.2143884,-0.001851946
0.7722244,-0.1869605,0.05372158
0.7588122,-0.1221296,0.1145454
0.8511404,-0.1276569,0.121532
1.03347,-0.08123347,0.05914653
1.20034,-0.02584446,-0.04633908
1.386256,-0.03744121,-0.2084172
1.504637,-0.03623164,-0.2353469
1.446039,-0.01049833,-0.0635135
1.310203,-0.008241205,0.00545098
1.215629,-0.1669941,-0.07622102
1.214811,-0.4848457,-0.3245934
1.247104,-0.6786443,-0.6441694
1.183726,-0.5757086,-0.6126585
1.008146,-0.3375936,-0.4044916
0.8071027,-0.1496803,-0.3167023
0.7161382,-0.1115687,-0.1428186
0.8012425,-0.2704006,-0.002267736
0.9414375,-0.356127,-0.1158431
1.032282,-0.2490219,-0.2716223
0.9228718,-0.1025946,-0.3158252
0.67333,0.08891029,-0.3037907
0.6798507,0.1137286,-0.2132771
0.7672886,-0.02909866,-0.0973509
0.7994948,-0.05938905,-0.1223137
1.020838,-0.08420645,-0.1942741
1.098189,-0.04895139,-0.1956977
0.9785012,0.06547566,-0.1911268
0.9012791,0.05809036,-0.1141417
0.7676124,0.04287428,0.01815137
0.7368425,0.001948252,0.06314021
0.8727308,-0.1160617,0.03785179
1.078461,-0.1585663,-0.03499841
1.335147,-0.1322603,-0.1511751
1.41225,-0.0953752,-0.2226517
1.230459,-0.0829362,-0.1664725
1.059166,-0.08704514,-0.0358485
1.075199,-0.1025635,0.04566707
1.155221,-0.17976,0.03035031
1.238986,-0.2720514,-0.03782298
1.32174,-0.2740026,-0.08819547
1.258059,-0.130459,-0.2893031
1.092787,0.03357377,-0.6436737
0.9910699,0.03850729,-0.7140703
1.044505,-0.1304412,-0.5500532
1.166788,-0.2831993,-0.5037442
1.203217,-0.2206593,-0.4694119
1.25622,-0.1425829,-0.3515061
1.182651,-0.148528,-0.2796429
0.896606,-0.0602255,-0.2530595
0.77882,-0.03994498,-0.1994366
0.7213196,-0.09451564,-0.1868284
0.6172742,-0.07326654,-0.1944562
0.6634613,-0.1098039,-0.1345554
0.695102,-0.1553393,-0.08989579
0.7706307,-0.1763095,-0.08958708
0.8923341,-0.2263892,-0.1178104
0.8708896,-0.2079667,-0.1397954
0.8468811,-0.2008781,-0.09280692
0.8041768,-0.2183023,-0.01769085
0.7652541,-0.1699644,0.07621725
0.8113779,-0.1316894,0.1117454
0.8740739,-0.1011061,0.02352346
1.024223,-0.06099026,-0.05494606
1.191568,-0.01376533,-0.0815535
1.323312,0.0332661,-0.1334528
1.44233,0.03035533,-0.1647784
1.423522,0.04522589,-0.03350611
1.310835,0.02031611,0.1102416
1.25234,-0.2024082,-0.03198211
1.308107,-0.539264,-0.3484701
1.352042,-0.7094733,-0.569536
1.221151,-0.6007899,-0.5596319
1.037651,-0.4918329,-0.4212322
0.810935,-0.3349952,-0.3063692
0.5372431,-0.03411566,-0.1000345
0.581982,-0.09383608,0.01029218
0.7924701,-0.290984,-0.04895452
0.8598673,-0.2814002,-0.057055
1.097765,-0.4396305,-0.2803072
1.169134,-0.31288,-0.454878
0.8432944,0.1074971,-0.2891648
0.7222431,0.09522762,-0.2016893
0.6699257,0.05609699,-0.05235951
0.6788781,0.07422091,0.03805318
0.9107794,-0.06572508,-0.1190634
1.004961,-0.0260244,-0.1293884
1.096472,0.02183868,-0.1569923
1.08277,0.04482705,-0.2037824
0.8888895,0.1058258,-0.09142376
0.7682038,0.05630963,0.01284087
0.6635871,-0.0008949105,0.1122463
0.8520536,-0.1480095,0.09049222
1.242938,-0.2365499,-0.09880906
1.512189,-0.1383051,-0.3155789
1.526744,-0.1027684,-0.3604932
1.239454,-0.05184219,-0.1445971
1.1446,0.004521882,0.04480461
1.151249,-0.077668,0.09020412
1.19247,-0.1880842,-0.0756239
1.379698,-0.2098766,-0.4150177
1.228035,-0.1369662,-0.5649808
1.039976,-0.09149865,-0.5379551
0.9573853,-0.12798,-0.4993522
0.8676024,-0.1792088,-0.4377673
1.056504,-0.194579,-0.3317754
1.15111,-0.1762679,-0.2526608
1.130986,-0.1629889,-0.3036704
1.100291,-0.1596993,-0.3049591
0.9016831,-0.1585779,-0.2583736
0.7824188,-0.1418839,-0.2666088
0.691714,-0.1185327,-0.1853598
0.6600283,-0.09343478,-0.09705712
0.7284045,-0.08380725,-0.04092162
0.7664358,-0.1473629,-0.01787256
0.8711691,-0.2122038,-0.09471952
0.8887496,-0.2121743,-0.1124585
0.8306708,-0.1860042,-0.0505694
0.8051135,-0.1645371,0.03894841
0.7268887,-0.1486065,0.1236524
0.7268938,-0.1099085,0.1251383
0.8267819,-0.09075714,0.08103671
0.9787014,-0.1019356,-0.01586801
1.152704,-0.0886985,-0.1180462
1.306683,-0.06800168,-0.1699367
1.48667,-0.05063742,-0.184593
1.535817,-0.01742122,-0.08254797
1.355742,0.03697441,0.1050507
1.143974,0.04506658,0.2402903
1.088879,-0.1239682,0.1473996
1.186339,-0.4867307,-0.2679734
1.256232,-0.7472586,-0.6634437
1.255969,-0.6479047,-0.6748983
1.250228,-0.5094699,-0.5968448
1.054599,-0.4312825,-0.5760637
0.6796076,-0.1614996,-0.2575357
0.5626459,-0.09946778,-0.0006752465
0.6998253,-0.2996319,-0.02347627
0.8123979,-0.3255963,0.01295451
1.000875,-0.3320478,-0.1883867
1.094449,-0.2033464,-0.4593528
0.8986728,0.0877348,-0.4444531
0.7517356,0.09261448,-0.3230852
0.7462141,0.01808298,-0.09315194
0.7897055,0.01779225,-0.07518055
0.9279193,-0.03267867,-0.1748915
1.035729,-0.01060353,-0.141753
1.026457,0.02270335,-0.218074
0.9216508,0.04419526,-0.1415902
0.7995318,0.07568436,0.002847982
0.7836624,0.04576773,0.006817729
0.8595219,-0.02942272,0.05854137
0.972218,-0.1183941,0.03959229
1.106047,-0.1193272,-0.02496031
1.274097,-0.04813798,-0.1110849
1.348073,-0.03353235,-0.1523015
1.204863,-0.0687766,-0.03164956
1.080087,-0.1145841,0.07128355
1.085516,-0.1484617,0.1236042
1.128831,-0.1883774,0.06674892
1.225108,-0.2121547,-0.1707372
1.257054,-0.1138035,-0.475867
1.118485,-0.005381869,-0.6520174
0.9942616,-0.07195905,-0.5907834
1.106072,-0.1782954,-0.514118
1.267791,-0.1977852,-0.4225265
1.237601,-0.1788518,-0.2788681
1.158147,-0.1099769,-0.2523668
1.038572,-0.06719342,-0.2127241
0.8972369,-0.08980145,-0.1952386
0.8758908,-0.09055484,-0.2364025
0.7883203,-0.1080244,-0.182249
0.6375483,-0.1375855,-0.1441552
0.6352069,-0.1303328,-0.1001846
0.7013146,-0.1287179,-0.03370385
0.7518264,-0.1412656,-0.01280972
0.8142129,-0.1580771,0.004036626
0.8555369,-0.1810948,-0.0471935
0.8573035,-0.2204402,-0.06104045
0.8430822,-0.2307272,0.007159935
0.7800364,-0.1689151,0.08222603
0.7529149,-0.1057091,0.1737646
0.8381022,-0.06620458,0.1311891
0.9323224,-0.03776094,0.05099271
1.074025,-0.03580397,0.03210994
1.240038,-0.04962135,-0.05862297
1.357987,-0.06750609,-0.09147141
1.429313,-0.06517774,-0.04468734
1.331153,-0.02341514,0.04940528
1.20287,-0.005621982,0.1625871
1.191244,-0.1701619,-0.01228974
1.202299,-0.4807297,-0.4209624
1.266389,-0.6197664,-0.7156593
1.288903,-0.506957,-0.7544735
1.091181,-0.3144098,-0.5362373
0.7292984,-0.1077602,-0.2707702
0.5173317,-0.04476992,-0.07437973
0.6341811,-0.2180537,0.05623952
0.8373688,-0.3264666,-0.0294778
1.001779,-0.2561981,-0.258273
1.05376,-0.1515601,-0.4071433
0.8854203,0.008237144,-0.3769058
0.737892,0.09159115,-0.2199893
0.7080082,0.04403788,-0.1626485
0.7634371,0.03058821,-0.1827223
0.9510178,-0.0102653,-0.1981201
1.085413,-0.04379684,-0.2443764
1.097032,-0.008009253,-0.205456
1.0105,-0.007456184,-0.1563084
0.8787593,0.003404839,-0.1311017
0.8788611,0.004660314,-0.05748964
0.9339038,-0.04108212,-0.04358022
1.020217,-0.07103482,-0.04285275
1.156982,-0.09692976,-0.06077584
1.177153,-0.07580512,-0.1144964
1.139776,-0.04155944,-0.1094732
1.136478,-0.07429039,-0.09315437
1.138932,-0.100543,-0.04018065
1.148401,-0.1248172,0.0356483
1.171739,-0.1706871,0.04041952
1.212316,-0.1677265,-0.1003244
1.204091,-0.08797097,-0.3962607
1.117988,0.01624916,-0.5860918
1.031083,-0.008177804,-0.5542883
1.05753,-0.1795952,-0.4713425
1.133475,-0.3103232,-0.4373746
1.128904,-0.297443,-0.4447932
1.127528,-0.1843401,-0.4068411
1.112228,-0.07879348,-0.2967472
1.056952,-0.02803054,-0.2198459
0.9784593,-0.05595281,-0.2218902
0.7946572,-0.1213186,-0.1999633
0.6986144,-0.09906357,-0.1607089
0.7382493,-0.07872098,-0.1629593
0.7020847,-0.08766639,-0.1047528
0.7151439,-0.07167735,-0.06122478
0.8289849,-0.128508,-0.1018398
0.8771205,-0.1760671,-0.09042017
0.8768811,-0.196021,-0.07032422
0.870787,-0.2348258,-0.05675069
0.8263239,-0.2096129,0.001624311
0.7650043,-0.1723928,0.03527897
0.7619785,-0.1324852,0.04944899
0.8667534,-0.1071683,0.0389134
1.036198,-0.1093738,-0.02188462
1.178698,-0.06689122,-0.09008026
1.29034,-0.05316776,-0.13284
1.421701,-0.05378998,-0.1247699
1.455727,-0.01164337,-0.04625624
1.335177,0.005025951,0.07409062
1.267297,-0.0655385,0.05368807
1.268474,-0.3184157,-0.2190525
1.284329,-0.6293189,-0.5310809
1.331691,-0.6659641,-0.6199859
1.19855,-0.5091134,-0.4949817
0.8929462,-0.371317,-0.3645892
0.6112713,-0.1221077,-0.1962706
0.5015226,-0.002821493,0.0270323
0.7004929,-0.2178027,0.05567449
0.934479,-0.3404838,-0.06133601
1.022352,-0.3405058,-0.2528486
1.023788,-0.2169551,-0.4662449
0.8620552,0.08268633,-0.4488545
0.7096568,0.1012049,-0.2664457
0.7003149,-0.01223274,-0.08635223
0.7796867,-0.01451085,-0.0595098
0.9207432,-0.08607786,-0.1813245
1.031455,-0.06484935,-0.21178
1.064881,-0.01491528,-0.2175962
0.9731927,-0.002957507,-0.1740137
0.8542622,0.07487715,-0.04348653
0.8185663,0.0234283,-0.004854135
0.8287538,-0.09445811,0.0218017
0.9789275,-0.131706,0.01940841
1.21752,-0.1460757,-0.05526635
1.33369,-0.1308892,-0.09790395
1.264901,-0.1311985,-0.130725
1.156297,-0.1476005,-0.1295771
1.136534,-0.1395732,-0.05430397
1.123404,-0.1565283,0.05727043
1.173311,-0.206607,0.05311807
1.270257,-0.2511374,-0.105651
1.276302,-0.2044786,-0.2928024
1.182389,-0.04198478,-0.5146144
0.9706255,0.05223686,-0.6249375
0.9057715,-0.05040629,-0.5824113
1.07234,-0.198479,-0.5412587
1.203704,-0.2043484,-0.4139797
1.250904,-0.146332,-0.299751
1.140735,-0.134117,-0.2932835
0.9499233,-0.1101755,-0.2721922
0.8179715,-0.1084394,-0.2587738
0.7193615,-0.1413658,-0.2283336
0.7181692,-0.1587787,-0.1799933
0.7268465,-0.1754218,-0.111183
0.7153363,-0.1652263,-0.02438772
0.7573129,-0.1809267,-0.03631492
0.8036735,-0.2229395,-0.06308374
0.8536628,-0.2201451,-0.05376841
0.8523742,-0.2140444,-0.04790137
0.8075442,-0.1950664,0.004207149
0.7808406,-0.1635958,0.05834974
0.7685771,-0.1174097,0.09459568
0.8189032,-0.07242599,0.07727113
0.9594029,-0.1022897,-0.02688869
1.185054,-0.1151218,-0.1300184
1.377438,-0.07601071,-0.2067619
1.486048,-0.05818891,-0.2185873
1.512298,-0.02984479,-0.09690967
1.317256,0.01578049,0.1103422
1.098525,-0.0008730638,0.1968639
1.083145,-0.2048336,-0.006592157
1.177667,-0.5590145,-0.4117588
1.319058,-0.7891717,-0.8263458
1.35899,-0.7753284,-0.9281422
1.233852,-0.5937034,-0.6465744
0.9358937,-0.2469574,-0.3787576
0.6220121,0.03058445,-0.2176603
0.7037068,-0.09058011,-0.1064581
0.8700759,-0.2854158,-0.04183417
0.8209941,-0.2921392,0.002762825
0.90025,-0.3243251,-0.1657962
0.8845908,-0.1863191,-0.3365966
0.7034346,0.06585642,-0.301749
0.7136271,0.04927035,-0.2314966
0.7397891,-0.01903214,-0.09744211
0.8142484,-0.03799252,-0.0962706
1.004466,-0.06234116,-0.1866381
1.043797,0.005362122,-0.147927
0.9933756,0.06003971,-0.1604737
0.9048585,0.08488147,-0.1043209
0.8145702,0.06179907,0.003940925
0.8177798,-0.02546379,0.03249708
0.8838405,-0.09389311,0.07676143
1.074077,-0.1502431,0.03026479
1.314667,-0.1461192,-0.04702401
1.404118,-0.1258982,-0.1099777
1.253256,-0.1181902,-0.1189889
1.089621,-0.1043217,0.03260816
1.128472,-0.1539992,0.1161346
1.1798,-0.2081289,0.04108903
1.242308,-0.2633226,-0.1486136
1.270599,-0.2521872,-0.4001391
1.074018,-0.1075132,-0.5640119
0.9160328,-0.02621366,-0.632322
1.017678,-0.05993469,-0.59596
1.231603,-0.1482751,-0.4929543
1.339128,-0.1990884,-0.4127564
1.285043,-0.1407314,-0.3589881
1.131804,-0.09051615,-0.2945021
0.9260729,-0.0821036,-0.2051483
0.7585624,-0.08630814,-0.1968529
0.6723334,-0.1003396,-0.219621
0.6684735,-0.1278778,-0.1474826
0.6890423,-0.1537199,-0.05486194
0.7162379,-0.1372792,-0.00528702
0.792623,-0.1474286,-0.03743088
0.8330497,-0.1713966,-0.07966896
0.8353699,-0.1809224,-0.04384288
0.8276262,-0.2236069,-0.01354447
0.7990848,-0.2381007,0.047477
0.786073,-0.2073011,0.1171938
0.7963582,-0.1279817,0.09056207
0.8790559,-0.03411311,0.07643299
1.021158,-0.0413771,0.03096246
1.221679,-0.08884678,-0.1119521
1.487897,-0.1168647,-0.1761076
1.613291,-0.1548398,-0.1475608
1.485582,-0.08813976,-0.06542391
1.324578,0.003799518,0.02757909
1.311176,-0.1836166,-0.1140723
1.326209,-0.5257623,-0.4752422
1.293429,-0.6638275,-0.6721875
1.163205,-0.4960083,-0.5165689
0.8648324,-0.2093121,-0.2960271
0.6507044,-0.128931,-0.2414
0.6720752,-0.2105464,-0.106392
0.8249913,-0.294314,0.001789049
1.028114,-0.3626056,-0.1990199
1.088926,-0.2393714,-0.3623125
0.9325158,-0.04208254,-0.3604945
0.7466132,-0.0007151545,-0.250194
0.6960379,-0.009976883,-0.03771079
0.7505769,-0.02359912,-0.03754984
0.8667572,-0.05267181,-0.1257391
1.045898,-0.05601614,-0.1324246
1.104002,-0.0288123,-0.1748157
0.9752367,0.03565832,-0.1129971
0.8464667,0.124494,-0.0265234
0.7919287,0.1354491,-0.00826056
0.7911388,0.0585234,0.04575314
0.8120558,0.01641465,0.08266551
0.8722983,-0.03800609,0.04466383
1.042555,-0.1001868,-0.06657677
1.212315,-0.08791612,-0.1556721
1.280708,-0.08394703,-0.205015
1.305475,-0.08107656,-0.1971883
1.26705,-0.070413,-0.05759773
1.212714,-0.10592,0.05538546
1.197559,-0.1797813,0.06742502
1.187493,-0.2385641,-0.0006477259
1.23665,-0.143394,-0.2240931
1.237927,0.02010835,-0.5462131
1.078342,0.01428399,-0.699391
0.9429753,-0.1428611,-0.5881196
1.012621,-0.2855843,-0.5199588
1.175475,-0.2697627,-0.4349438
1.200795,-0.1815116,-0.2364539
1.137007,-0.1576566,-0.2578306
1.037334,-0.1063955,-0.31567
0.8966971,-0.08720349,-0.2767026
0.8205413,-0.1284598,-0.2874249
0.738219,-0.09657939,-0.2058523
0.6701548,-0.09494561,-0.1252563
0.6735822,-0.1199786,-0.06697463
0.7073997,-0.1210941,0.01333946
0.7977765,-0.1763923,-0.01172034
0.8433805,-0.1852651,-0.05641726
0.8625818,-0.1743997,-0.08595554
0.8587072,-0.1917608,-0.04528425
0.7744019,-0.1589968,0.06891993
0.7621874,-0.1354991,0.1043839
0.7966064,-0.1204997,0.1067299
0.8822097,-0.1110021,0.06805694
1.123538,-0.0931071,-0.05066666
1.406541,-0.02459055,-0.1729968
1.547409,-0.009026255,-0.2129976
1.458496,-0.007727828,-0.09931551
1.293279,0.04425207,0.09025234
1.182727,0.02758801,0.2269656
1.219047,-0.1408329,0.1112146
1.374628,-0.443967,-0.2845925
1.349622,-0.6640814,-0.5740441
1.180594,-0.6086513,-0.5287166
0.9167266,-0.38107,-0.2991597
0.60573,-0.1142139,-0.1460227
0.6078332,-0.001315912,-0.08323179
0.7801625,-0.1710016,-0.02453954
0.9166715,-0.3542818,-0.1044566
1.047649,-0.3847088,-0.2403806
1.036341,-0.3104674,-0.3459198
0.9020435,-0.154972,-0.4243401
0.7011292,-0.03100718,-0.2747957
0.6377986,0.08922312,-0.06895258
0.7542185,0.08323475,-0.06659472
0.8110636,-0.07664368,-0.1116972
0.9232582,-0.01903611,-0.1091985
1.022245,0.02725085,-0.1494265
1.028968,-0.03061336,-0.2082574
1.023926,0.07424199,-0.1698168
0.8644838,0.04724473,-0.08406437
0.7904108,-0.02699913,-0.005991726
0.883573,-0.06762447,0.06221904
1.005605,-0.2239726,0.04696869
1.310216,-0.2106977,-0.04045707
1.46761,-0.127176,-0.1511063
1.272649,-0.1006465,-0.1653343
1.1016,-0.08224576,-0.006408714
1.07167,-0.1473182,0.1324005
1.138602,-0.1889124,0.09569989
1.25761,-0.2306567,-0.1212132
1.280533,-0.1572807,-0.4354482
1.12202,-0.004204585,-0.6249401
0.9738491,-0.06687292,-0.5980452
1.078984,-0.1222804,-0.5237854
1.264159,-0.1119924,-0.4829894
1.308755,-0.1448099,-0.3905618
1.230451,-0.08863223,-0.2834013
1.047642,-0.04974373,-0.2276311
0.8712004,-0.06255253,-0.2015541
0.7784298,-0.08195157,-0.1924346
0.7089309,-0.1454962,-0.1739946
0.680526,-0.1656985,-0.1429478
0.6854277,-0.1629683,-0.06868467
0.7092647,-0.1893845,0.02335313
0.7686664,-0.2046378,0.01409738
0.8131376,-0.1996505,-0.0403953
0.8522696,-0.185392,-0.05153187
0.8570241,-0.1874719,-0.02496536
0.8120983,-0.1619159,0.02966997
0.7921569,-0.1055772,0.0500621
0.786506,-0.09121944,0.02369595
0.8369727,-0.09571221,-0.001685911
0.9670096,-0.1015862,-0.04171139
1.22896,-0.1205602,-0.183416
1.642657,-0.138538,-0.3765674
1.767653,-0.1184702,-0.3776664
1.475179,-0.002623561,-0.1487157
1.155028,0.1663981,0.1936917
0.9077799,0.2064589,0.4662436
0.935921,-0.04691845,0.2950607
1.166318,-0.4483587,-0.2045488
1.205304,-0.6815353,-0.6125284
1.287594,-0.663593,-0.7891334
1.198911,-0.4401969,-0.5684668
0.7744269,-0.1581477,-0.2990652
0.6558614,-0.08392827,-0.2133907
0.7138282,-0.2185794,0.03665077
0.8124695,-0.3326885,0.06008149
1.007166,-0.3437111,-0.1906826
0.9767556,-0.2202435,-0.3365914
0.8809144,-0.01915994,-0.4874972
0.7342227,0.01609809,-0.2967849
0.6213054,-0.03032065,-0.01250465
0.7689023,-0.01411382,-0.1105394
0.9445742,-0.06569897,-0.1580371
1.12642,-0.04544961,-0.1933821
1.195149,0.0431373,-0.2610609
1.067334,0.05174576,-0.1730014
0.9329033,0.1264643,-0.08995026
0.7937609,0.1541979,0.02262938
0.746047,0.072383,0.1039226
0.8087345,0.001132546,0.08233135
0.9385603,-0.118671,0.04194729
1.193218,-0.1703282,-0.08743935
1.392995,-0.1323975,-0.2391442
1.347812,-0.1346765,-0.2607126
1.213169,-0.1176779,-0.1026778
1.146895,-0.09484529,0.1089754
1.12072,-0.1323597,0.1351183
1.206651,-0.1684318,-0.02484377
1.277588,-0.1236485,-0.3113856
1.170784,-0.06352876,-0.6495418
1.049937,-0.07478845,-0.7301604
0.9853191,-0.1332663,-0.5849518
1.045025,-0.2090691,-0.5351735
1.140752,-0.2140473,-0.4481567
1.09226,-0.1541158,-0.2867425
1.057044,-0.1287027,-0.2918229
1.005641,-0.113762,-0.3197838
0.8907232,-0.1359522,-0.2959439
0.8580227,-0.1716279,-0.3313612
0.8159578,-0.1398873,-0.3087821
0.724316,-0.1005158,-0.1630849
0.6607545,-0.0697437,-0.01437862
0.6770266,-0.0719501,-0.0204082
0.7755721,-0.116962,-0.06224929
0.8233182,-0.1237653,-0.007474657
0.8319735,-0.1290382,-0.05163682
0.8567854,-0.1440916,-0.08803611
0.8241951,-0.1328144,-0.002139222
0.7838175,-0.1263098,0.0279279
0.7940251,-0.1021846,0.04600474
0.8235136,-0.06177386,0.01398654
0.9175016,-0.03733506,-0.06200172
1.18289,-0.05172709,-0.09568441
1.538012,-0.1137983,-0.2170913
1.667598,-0.1305838,-0.2661112
1.47668,-0.03524541,-0.06705439
1.170627,0.0668115,0.1909313
0.908714,-0.005520681,0.283561
0.8366421,-0.2630144,0.1301599
1.051286,-0.5811443,-0.2531609
1.334745,-0.7554687,-0.8219108
1.402816,-0.5963216,-1.067234
1.193142,-0.3390192,-0.7222958
0.8087522,-0.1498363,-0.3726032
0.5570754,-0.029101,-0.07351163
0.5797798,-0.1884702,0.2252537
0.7228439,-0.3295562,0.1148305
0.8815748,-0.2450143,-0.1664824
0.9166306,-0.1319322,-0.4062535
0.847143,0.06680412,-0.5035581
0.7976717,0.07053805,-0.2543145
0.7362778,-0.05859709,-0.1185854
0.7542643,-0.01336067,-0.1675806
0.9128426,-0.0739267,-0.1756986
1.111623,-0.06521332,-0.2834171
1.182482,0.05412633,-0.2900978
1.020553,0.0287753,-0.185481
0.8471069,0.05844714,-0.07013866
0.841149,0.02866727,0.08012767
0.9404614,-0.07516772,0.09306611
1.087208,-0.07950932,0.02621494
1.174899,-0.0939263,-0.09882941
1.156998,-0.08841185,-0.2227546
1.107044,-0.1177158,-0.2120636
1.080584,-0.1735455,-0.1527273
1.13669,-0.1624618,-0.01241719
1.208436,-0.1904728,0.09075268
1.191078,-0.2047062,-0.007100879
1.192179,-0.1687406,-0.2775912
1.204004,-0.1137265,-0.5757189
1.075913,-0.03604571,-0.5804506
0.9580644,-0.04651276,-0.4436862
1.045632,-0.1379924,-0.4616096
1.213229,-0.1861116,-0.422657
1.276776,-0.1204589,-0.3321561
1.202745,-0.02235072,-0.3348362
1.093549,-0.02391784,-0.2979151
1.014561,-0.05751154,-0.2469433
0.8489079,-0.09606202,-0.2114424
0.6978071,-0.1780533,-0.1581895
0.725037,-0.1950124,-0.1692202
0.7114183,-0.1622343,-0.1286695
0.6969753,-0.1710068,-0.0563064
0.8066593,-0.1570305,-0.08127823
0.8318617,-0.133034,-0.07554342
0.838472,-0.1601786,-0.0662514
0.8629127,-0.1975117,-0.0619324
0.8392416,-0.2224878,-0.001878154
0.8448631,-0.1867699,0.02876693
0.7980466,-0.09089272,0.03877842
0.7818071,-0.05601857,0.01821081
0.914698,-0.09664445,-0.01161843
1.102757,-0.1288022,-0.04025319
1.248643,-0.1201661,-0.1608371
1.324866,-0.1039142,-0.2461049
1.433862,-0.06145445,-0.145558
1.429968,0.06812074,0.03734729
1.200564,0.1515069,0.156333
0.9871682,0.03765587,0.1888341
0.9540769,-0.2614374,0.1003541
1.189976,-0.6585094,-0.2678883
1.449984,-0.8175028,-0.87877
1.388275,-0.5762728,-1.150944
1.051057,-0.3056334,-0.7220766
0.5893553,-0.1517317,-0.2357892
0.413451,-0.08987085,-0.01555065
0.6605075,-0.2452328,0.2256184
0.8438735,-0.3520034,0.1552871
1.02958,-0.2602455,-0.290183
1.357642,-0.1922329,-0.6676701
1.256253,-0.1104169,-0.7206622
0.8212842,-0.02207987,-0.3550019
0.63706,0.02099077,-0.0947427
0.6199456,0.02160455,-0.1545063
0.6624495,-0.09617601,-0.1562391
0.6924242,-0.1668752,-0.1345714
0.7543438,-0.1405113,-0.1312603
1.039295,-0.122852,-0.2018627
1.1395,-0.05995819,-0.2958349
1.036756,0.01125495,-0.2123503
0.9846911,0.03938986,-0.1046442
0.8082882,-0.01506388,-0.0005017756
0.7857491,-0.1236851,0.07638521
1.007773,-0.1779691,0.03670672
1.233611,-0.1689061,-0.03397915
1.330918,-0.06653698,-0.12381
1.136077,0.03080763,-0.1194594
0.9735559,0.01715355,-0.03186979
1.022079,-0.01076629,-0.01291405
1.079107,-0.07527148,-0.03464667
1.163857,-0.2588803,-0.1095955
1.256393,-0.4333985,-0.2568954
0.7335525,-0.09204563,0.04999959
0.7139325,-0.02114991,0.09820775
0.8257935,-0.02500163,0.09420535
0.9283155,-0.04491018,0.01270837
1.085916,-0.04727326,-0.06548607
1.363934,-0.09336727,-0.1790966
1.729958,-0.1765567,-0.3215633
1.795348,-0.2394433,-0.2614215
1.465202,-0.2240789,-0.03032465
1.240046,-0.2260853,0.1409313
1.117838,-0.326755,0.1361506
1.143802,-0.4705363,-0.1755879
1.376228,-0.6291051,-0.5703603
1.372027,-0.5849153,-0.6451109
1.150087,-0.3176333,-0.5327417
0.8150692,-0.1172409,-0.435311
0.6198005,-0.04019641,-0.2251748
0.7775034,-0.1836937,-0.01210892
0.8294524,-0.3789323,-0.07302353
0.9235791,-0.3076397,-0.2249573
1.05477,-0.1775698,-0.3220691
0.8377079,-0.01075497,-0.4396101
0.6989598,0.1160037,-0.335677
0.6881064,0.01327881,-0.136969
0.6438581,-0.01311618,-0.1128255
0.7243957,-0.01310086,-0.08823105
0.8692122,-0.08064313,-0.149539
1.018694,-0.02791629,-0.2499675
1.038589,0.009795517,-0.2149747
0.9457583,0.04129485,-0.1598146
0.8885933,0.05821309,-0.03940134
0.9153113,-0.04955882,0.06793577
1.069104,-0.1086343,0.08024767
1.215116,-0.07387074,0.003386269
1.255336,-0.04660835,-0.2027196
1.221577,-0.06071271,-0.2516593
1.199783,-0.09334719,-0.07830558
1.197762,-0.1698545,0.06250798
1.176625,-0.2840393,0.02862047
1.198281,-0.2295319,-0.2437075
1.152343,-0.06141543,-0.5665633
1.100981,-0.008628935,-0.6725363
1.187314,-0.07957169,-0.5451715
1.262445,-0.1866367,-0.4608109
1.294705,-0.1547469,-0.4755411
1.243605,-0.07956414,-0.3640646
1.102528,-0.1086033,-0.25737
0.9408334,-0.1015029,-0.2189538
0.7668184,-0.126298,-0.1655685
0.705419,-0.1513415,-0.1590513
0.6727051,-0.1038441,-0.1369217
0.5983452,-0.1111436,-0.1045286
0.6706004,-0.08681608,-0.06907607
0.8306855,-0.1127937,-0.05508761
0.8921217,-0.2084599,-0.09848226
0.8526734,-0.1900606,-0.08308631
0.7914573,-0.1770227,-0.0238352
0.7258452,-0.1644577,0.09041885
0.6912338,-0.109504,0.1847966
0.737332,-0.08440028,0.1320014
0.831762,-0.06916756,0.03328284
1.026323,-0.1096448,-0.1435219
1.348118,-0.1626478,-0.3122717
1.65541,-0.1760564,-0.2893184
1.717127,-0.1183105,-0.1369644
1.433539,0.01570999,0.09267158
1.140106,0.006199443,0.2052125
1.069914,-0.2588542,0.04097405
1.070254,-0.5973396,-0.2256648
1.180282,-0.6676919,-0.4946269
1.325343,-0.4716314,-0.6441544
1.187475,-0.3316273,-0.4901822
0.8813174,-0.1508245,-0.2918519
0.6830459,0.01710041,-0.1992228
0.6589016,-0.1201308,-0.005939239
0.8099055,-0.3053609,0.04552833
0.9615559,-0.3787198,-0.1175173
0.9855501,-0.3772147,-0.1852018
0.9056745,-0.157641,-0.3235866
0.7787156,0.05225682,-0.4817369
0.7306604,0.02485049,-0.3214192
0.6650417,0.01033251,-0.1070725
0.6150474,0.03679887,-0.1169153
0.7354581,-0.06218915,-0.1282795
0.8210973,-0.09896336,-0.09826583
0.9251394,-0.03698225,-0.1875925
1.023292,-0.02711764,-0.2150651
0.9348652,0.01931725,-0.1496088
0.9217112,0.002250756,-0.08729803
0.9538847,-0.1157701,0.07149066
1.048673,-0.129789,0.09934306
1.31022,-0.08615232,-0.05104876
1.338546,-0.03438946,-0.1306857
1.17074,-0.02051567,-0.1218755
1.099318,-0.05708869,0.01984695
1.124952,-0.09474313,0.1388967
1.220048,-0.206581,0.006217106
1.244598,-0.2148044,-0.3540853
1.157971,-0.1109382,-0.7467108
1.092316,-0.1214787,-0.796837
1.213302,-0.1778521,-0.6121336
1.413927,-0.2351167,-0.5746292
1.406795,-0.1874227,-0.5287745
1.31368,-0.07977743,-0.417535
1.192431,-0.1004506,-0.3777174
0.92914,-0.07722862,-0.2794569
0.6987669,-0.05489828,-0.1790228
0.5939322,-0.1386805,-0.148873
0.525278,-0.1677159,-0.09073473
0.4932628,-0.1610388,-0.04394152
0.5860758,-0.1496978,-0.01102635
0.7154521,-0.1531578,-0.03469006
0.7652415,-0.1723462,-0.08064336
0.7920548,-0.1692707,-0.05163311
0.752902,-0.187847,-0.01350375
0.733025,-0.1675753,0.07717973
0.7989022,-0.1065317,0.1165009
0.8585536,-0.0473846,0.03162601
1.016556,0.000211246,-0.03544067
1.281888,-0.02362651,-0.1502817
1.60528,-0.05437771,-0.2288867
1.756591,-0.06927691,-0.1411078
1.451818,-0.05124447,0.02803398
1.084589,-0.05181974,0.1264787
1.033295,-0.3481248,-0.1317389
1.200491,-0.7783343,-0.6075357
1.40606,-0.8618756,-0.7633483
1.39584,-0.5891793,-0.6166498
1.06797,-0.2207831,-0.5320911
0.6939596,0.04225366,-0.4374982
0.6526506,0.01059426,-0.1838001
0.7748092,-0.1457382,-0.02331699
0.8076339,-0.2102708,-0.1100572
0.9887779,-0.3839368,-0.247124
1.064235,-0.3750467,-0.2954406
0.8245089,-0.04067592,-0.2881546
0.6996377,0.07452494,-0.2525448
0.6718251,0.081133,-0.2025619
0.6731561,0.04813833,-0.1306056
0.7746674,-0.06527456,-0.08043032
0.8613155,-0.01398262,-0.140345
0.9843605,-0.00378833,-0.1956386
1.021751,0.06313687,-0.1935243
0.9253892,0.1352228,-0.170937
0.8320963,0.01421002,-0.03712671
0.7867122,-0.02023334,0.07392998
0.9341074,-0.100054,0.0511718
1.17288,-0.1497638,-0.01135313
1.316962,-0.08421651,-0.128855
1.302305,-0.1107847,-0.2151399
1.180586,-0.08402463,-0.09943607
1.145929,-0.09170195,0.08855061
1.141353,-0.1472939,0.07827309
1.185992,-0.1954475,-0.0758789
1.252034,-0.2488618,-0.3495649
1.163384,-0.108576,-0.7249144
1.105857,-0.001486249,-0.7472989
1.134815,-0.1209867,-0.495699
1.179832,-0.2379919,-0.4339212
1.247194,-0.2388368,-0.4572726
1.226785,-0.1981283,-0.4317809
1.129738,-0.1617753,-0.3280415
0.9791625,-0.0803588,-0.2067015
0.824604,-0.06158069,-0.1804372
0.7221437,-0.1087043,-0.1644131
0.6220932,-0.1034801,-0.1640141
0.619858,-0.1132611,-0.1321927
0.7106431,-0.129482,-0.07796231
0.7555629,-0.1546822,-0.1156456
0.7874142,-0.2036152,-0.1214298
0.7996322,-0.219023,-0.08585176
0.7632613,-0.2247563,-0.04625653
0.7429107,-0.2083611,0.0262858
0.7365565,-0.1727416,0.05192668
0.7906339,-0.1418604,0.04805443
0.9427281,-0.1002701,0.02409942
1.116089,-0.05121789,-0.0566085
1.321166,-0.003253321,-0.1726238
1.496504,0.00901614,-0.2305773
1.519625,0.01204855,-0.147297
1.434148,0.02366529,-0.06118925
1.247974,-0.009649845,-0.01862768
1.032399,-0.0953885,0.06539056
1.065505,-0.2685877,-0.05430589
1.306322,-0.5847871,-0.6007673
1.416476,-0.9003685,-1.101799
1.357669,-0.8327382,-0.9510442
1.130011,-0.4374116,-0.5065749
0.775839,-0.1828198,-0.2482509
0.6566931,-0.08954112,-0.005555375
0.7622248,-0.1704043,0.04455368
0.8061195,-0.326225,-0.04904523
0.8213737,-0.2354837,-0.1045254
0.8397237,-0.121658,-0.4457024
0.7784083,0.02014754,-0.4822299
0.7116322,0.144443,-0.1363497
0.7476642,0.02032685,-0.1030941
0.8460046,-0.006596231,-0.03888923
1.007461,-0.02863042,-0.0906522
1.117316,-0.01795401,-0.254
1.013621,0.177662,-0.1560481
0.8544227,0.1460987,-0.1234931
0.7054492,0.09311411,0.06201963
0.6247807,0.06830234,0.232375
0.7662261,-0.1074496,0.1546386
1.049766,-0.1811838,0.07009669
1.37908,-0.2367364,-0.1905995
1.457113,-0.2071745,-0.2337568
1.225412,-0.0684708,-0.06797211
1.142489,-0.04368882,-0.04183442
1.152227,-0.08453091,0.05851088
1.153286,-0.2070435,-0.003750887
1.269471,-0.2744651,-0.2689152
1.246255,-0.1717519,-0.5344803
1.113414,-0.1033207,-0.6303357
1.044385,-0.1438261,-0.4770526
1.08451,-0.2128069,-0.4615175
1.229543,-0.2185752,-0.4256525
1.207803,-0.1564601,-0.2434665
1.098451,-0.06781273,-0.234524
1.000321,-0.04302821,-0.217387
0.8631767,-0.08082869,-0.1734109
0.8071448,-0.05389086,-0.2035824
0.666899,-0.06038375,-0.1667531
0.6087332,-0.09495112,-0.09874739
0.7359375,-0.1065626,-0.02868057
0.7380447,-0.190616,-0.01342119
0.8216882,-0.2179283,-0.06218454
0.9174647,-0.1968975,-0.06724222
0.8436435,-0.2120252,-0.04649931
0.8172616,-0.1875734,0.006347799
0.7345963,-0.136012,0.0853764
0.6798085,-0.05922111,0.1235146
0.7897949,-0.03705066,0.09965799
1.002098,-0.06267496,0.0002779858
1.35177,-0.01435286,-0.1224645
1.468492,0.02745571,-0.1601267
1.306372,0.0426403,-0.097239
1.270521,0.07265119,-0.01430589
1.222138,0.06202293,0.0581108
1.203467,-0.07408741,-0.01133485
1.376091,-0.4364189,-0.3552363
1.437208,-0.7726987,-0.6370332
1.354523,-0.6765555,-0.5458262
1.168944,-0.4895438,-0.3819055
0.9041293,-0.5079214,-0.373078
0.7395048,-0.2330583,-0.2469272
0.5803895,0.08281673,-0.02837188
0.6188809,-0.1156482,-0.02378918
0.9322712,-0.3842883,-0.09490093
0.9946807,-0.4420715,-0.1454944
0.8552124,-0.2128057,-0.2297406
0.7498394,0.154018,-0.2173501
0.649341,0.09340397,-0.1071141
0.7020152,-0.04416138,-0.01388756
0.8407774,0.03020484,-0.07296179
1.011342,-0.05563943,-0.1873877
1.108385,-0.04436769,-0.1756368
0.986847,0.09027659,-0.1391526
0.9093865,0.08358693,-0.07087478
0.8332724,0.1241272,0.01193914
0.7164913,0.1136858,0.03078714
0.7948174,-0.01137879,0.05989963
0.9035866,-0.1192329,0.07383927
1.001406,-0.1944967,0.05022133
1.193167,-0.1476021,-0.06730098
1.37077,-0.164087,-0.2629852
1.397968,-0.2284421,-0.2975633
1.244448,-0.1520836,-0.1173254
1.156352,-0.1441156,0.1158441
1.160567,-0.1636441,0.1755086
1.136254,-0.123047,-0.0884266
1.148662,-0.05196234,-0.5341905
1.100813,0.04534474,-0.7738659
1.037287,-0.04766813,-0.6165863
1.037086,-0.2143275,-0.4585408
1.10408,-0.2708851,-0.4868054
1.26451,-0.3066735,-0.3991985
1.237188,-0.2317281,-0.3086446
1.069153,-0.09481475,-0.31439
0.9249796,-0.07779268,-0.2404448
0.7378987,-0.1162735,-0.2134817
0.7230538,-0.1225468,-0.2170234
0.7197101,-0.1063227,-0.1493879
0.6213989,-0.0899294,-0.09343216
0.6937137,-0.09920482,-0.02524931
0.7546687,-0.1461672,-0.01394825
0.8102357,-0.202124,-0.05983099
0.8813863,-0.2087589,-0.06343248
0.8003622,-0.1866849,-0.05710705
0.7869519,-0.1944801,-0.007914218
0.8080994,-0.1656796,0.06883199
0.7826012,-0.08632974,0.111049
0.8649551,-0.05490143,0.06829543
1.036485,-0.073548,-0.04807864
1.330907,-0.09240254,-0.1257265
1.558258,-0.08654171,-0.1740379
1.508696,-0.06139159,-0.1365885
1.382455,0.01247189,-0.009788553
1.230179,0.06625799,0.02184856
1.097964,-0.1668367,-0.1477734
1.169808,-0.5675946,-0.5114354
1.284486,-0.6832408,-0.7131217
1.244555,-0.5046346,-0.5775061
1.048886,-0.2804215,-0.4430316
0.7484811,-0.1162481,-0.2890088
0.6554051,-0.1446417,-0.04652262
0.7869409,-0.3360323,0.004423751
0.7736117,-0.3847746,-0.1212609
0.7662627,-0.2145536,-0.3033606
0.8193758,-0.0501464,-0.4584213
0.7613257,-0.03350938,-0.312509
0.8040724,-0.03527622,-0.0850191
0.9141753,0.02283206,-0.1676884
1.034407,-0.005085954,-0.2089541
1.129046,0.02499685,-0.1325596
1.015016,0.1419257,-0.1825943
0.8809506,0.1392623,-0.09897154
0.7546236,0.1502081,0.03306117
0.6439016,0.1103511,0.03617996
0.7128125,0.001904203,0.08024965
0.9137895,-0.07930051,0.05191359
1.299578,-0.2347063,-0.07505094
1.500428,-0.2101564,-0.1785905
1.333312,-0.1030195,-0.2485246
1.307662,-0.1497468,-0.2570353
1.260365,-0.0969773,-0.1318812
1.093878,-0.06811051,0.134651
1.169581,-0.1448462,0.1697781
1.262799,-0.1578035,-0.1500923
1.252371,-0.1394939,-0.4872316
1.197148,-0.1042267,-0.6572619
1.06001,-0.1176692,-0.5517783
1.071277,-0.1549429,-0.4522711
1.16479,-0.1992969,-0.4868564
1.151785,-0.2674395,-0.3374721
1.133891,-0.1579382,-0.2826939
1.054423,-0.01578762,-0.3691653
0.9089129,-0.06941824,-0.3033127
0.7739721,-0.1024526,-0.2681095
0.6491423,-0.0916003,-0.199001
0.6189249,-0.1331727,-0.07279442
0.6275844,-0.1135556,-0.02243343
0.6880382,-0.09240168,0.0207114
0.8492896,-0.1536732,-0.04315132
0.9204153,-0.2002427,-0.1131012
0.8948384,-0.2189423,-0.06806694
0.8394533,-0.2237743,-0.01659788
0.7567261,-0.1781697,0.0748303
0.741687,-0.1091377,0.1298235
0.8203352,-0.04615143,0.09824117
1.014925,0.009863017,0.01126951
1.310713,0.03626305,-0.1931697
1.522157,0.02212809,-0.306353
1.471937,0.0272237,-0.1378053
1.262043,0.05416457,0.08875863
1.080765,-0.00688645,0.1575417
1.014115,-0.2298916,0.04274832
1.198343,-0.5855878,-0.3283031
1.425709,-0.7690417,-0.8414655
1.376208,-0.606744,-0.9797184
1.089512,-0.3830406,-0.6178309
0.6552884,-0.1360341,-0.2837197
0.4278087,0.02591545,-0.09103847
0.5540718,-0.1699934,0.1401811
0.6995128,-0.3697056,0.181204
0.8500058,-0.4089931,0.02622423
0.9671927,-0.3637061,-0.2219492
0.9859458,-0.1209396,-0.5270261
0.9533987,0.0178422,-0.4447505
0.7717756,0.01415036,-0.1502264
0.7200004,0.0298894,-0.1230464
0.8332721,-0.01777289,-0.08441948
0.8657254,0.01060369,-0.1077896
0.9969428,0.01931095,-0.2358616
1.044371,-0.007711436,-0.1535455
0.9146878,0.0541287,-0.1019429
0.8824292,0.03721109,-0.04579731
0.8712333,0.004588237,0.05129004
0.9513689,-0.06142565,-0.02121804
1.142752,-0.1410727,-0.05145169
1.286955,-0.0966509,-0.1259791
1.344816,-0.08929219,-0.2016012
1.212833,-0.08575937,-0.09322492
1.078581,-0.07264379,-0.02032004
1.103055,-0.1225296,0.05030522
1.165918,-0.1835234,0.02356556
1.253601,-0.251737,-0.1779102
1.257414,-0.1648761,-0.4093235
1.081862,0.02412684,-0.639438
0.9328498,0.06339849,-0.6064753
1.05829,-0.05975237,-0.4928415
1.273487,-0.2475666,-0.564723
1.290169,-0.3061631,-0.5355761
1.265554,-0.2521511,-0.5184978
1.276065,-0.2627809,-0.5633486
1.212737,-0.253438,-0.4755408
0.9922198,-0.1521126,-0.3242147
0.6561791,-0.06620263,-0.1411281
0.5946069,-0.09088613,-0.1391957
0.7153869,-0.1385819,-0.178131
0.6639854,-0.1209569,0.006712041
0.6974735,-0.1534841,-0.004564361
0.8124328,-0.1979323,-0.08582043
0.828115,-0.184872,-0.0005552706
0.8586614,-0.2085139,-0.04820648
0.8232646,-0.2099509,-0.01574003
0.7838372,-0.1621883,0.1145075
0.8434799,-0.1238071,0.1192695
0.8897695,-0.09697711,0.07835017
0.9962657,-0.09842051,-0.05010481
1.226781,-0.09447455,-0.1522715
1.54133,-0.09316243,-0.2490313
1.703988,-0.04338613,-0.3693328
1.4622,0.1087982,-0.2481622
1.140378,0.1601827,0.03356268
1.036623,-0.0574787,0.21442
1.063841,-0.4521,-0.08491382
1.169798,-0.7155082,-0.6974726
1.224979,-0.6773442,-0.8145694
1.136207,-0.4534298,-0.6251373
0.9066765,-0.1868023,-0.4816278
0.6181833,-0.112164,-0.1456032
0.565712,-0.2253197,0.06943519
0.7224585,-0.305129,0.03625737
0.7940909,-0.381056,0.06470765
0.8686013,-0.3237904,-0.07673716
0.9976445,-0.0712375,-0.4786397
0.948777,0.04934359,-0.5693516
0.7915006,0.001710296,-0.25834
0.7611211,-0.03862306,-0.08672377
0.8344905,-0.05412129,-0.1365375
0.9250836,-0.05878659,-0.1682008
0.9865813,-0.03434342,-0.1595063
1.03315,0.03330216,-0.1917299
1.052564,0.04933188,-0.2022562
0.9701014,0.02445129,-0.1056977
0.8908841,0.04176454,-0.05499101
0.836841,0.02143719,-0.03496103
0.829689,-0.04577101,0.005815453
0.9641355,-0.1223561,-0.005871957
1.085354,-0.1423629,-0.06245204
1.173352,-0.09012321,-0.2393129
1.154073,-0.0965548,-0.3061454
1.038999,-0.1156059,-0.1355042
1.084913,-0.1407787,0.008694164
1.089085,-0.2306929,0.1043657
1.077476,-0.2736328,0.09976822
1.183727,-0.2541704,-0.0637361
1.183946,-0.1558533,-0.3545701
1.143687,0.01512197,-0.6303635
1.057643,0.04004991,-0.6471803
1.033976,-0.1915789,-0.5636476
1.191304,-0.3778453,-0.4813047
1.247818,-0.1842354,-0.3301305
1.150461,0.08553829,-0.2537091
0.995302,0.08576981,-0.2586054
0.9221399,0.02483493,-0.2521684
0.8794681,-0.04587612,-0.2367011
0.7692867,-0.1666449,-0.2360977
0.7687239,-0.1811531,-0.2046544
0.7507753,-0.1503844,-0.1345355
0.7379169,-0.1618349,-0.1062868
0.8172425,-0.1808435,-0.09627319
0.8308116,-0.2128245,-0.1022297
0.9005986,-0.2416321,-0.1194664
0.938312,-0.2550871,-0.09778206
0.8645174,-0.2407921,-0.06545268
0.8223635,-0.2102303,-0.007377198
0.7923934,-0.1786847,0.05538165
0.8321023,-0.1309452,0.05743449
0.9019275,-0.1069943,0.009547366
0.9988495,-0.09589897,-0.06419445
1.151672,-0.06176644,-0.1297827
1.271093,-0.0466092,-0.1826664
1.408318,-0.03540038,-0.1996745
1.43655,0.03000102,-0.1024513
1.27952,0.1149788,0.05290585
1.11082,0.1017326,0.1099764
1.034112,-0.1010198,0.01487981
1.137046,-0.4488596,-0.2714391
1.280987,-0.7122716,-0.6967019
1.277683,-0.6915113,-0.8428783
1.096709,-0.4552901,-0.5672385
0.7710599,-0.1862887,-0.328939
0.6078104,-0.09009366,-0.1841625
0.7070881,-0.222493,0.006929606
0.8625337,-0.346561,-0.01277345
1.05086,-0.3602507,-0.1861444
1.095994,-0.2226991,-0.3125788
0.9246209,0.04205348,-0.3620664
0.831106,0.08433759,-0.2774006
0.7729556,0.003565606,-0.170112
0.6816469,0.05873257,-0.08377742
0.8105811,0.01657857,-0.1083502
1.018863,-0.04586302,-0.2421228
1.008916,0.005648567,-0.2026807
0.9533417,0.01404428,-0.1599017
0.9522378,0.02143386,-0.1674978
0.8554154,0.0319655,-0.04780825
0.8029509,0.01457441,-0.03033152
0.8873765,-0.01307015,-0.07926347
0.9623145,-0.0816925,-0.09033359
1.066611,-0.1100506,-0.1054402
1.177181,-0.07862459,-0.08574002
1.186485,-0.06991983,-0.1378323
1.143861,-0.09084153,-0.1646985
1.113775,-0.1109136,-0.09357237
1.149071,-0.121291,-0.03363011
1.17837,-0.1278007,0.01529794
1.141531,-0.1449622,0.03021638
1.141652,-0.1667853,0.01336821
1.192085,-0.1071705,-0.1680864
1.207577,0.007879769,-0.440919
1.095506,0.01854553,-0.5073239
0.947957,-0.09423903,-0.5566382
0.9818046,-0.2380073,-0.6296639
1.106054,-0.2844197,-0.4871094
1.153076,-0.2085403,-0.2990785
1.128668,-0.1328877,-0.2120447
1.044895,-0.0813012,-0.2055333
0.9787667,-0.06951779,-0.2694693
0.9495682,-0.1099313,-0.2852
0.8903049,-0.1115141,-0.2649653
0.8369613,-0.08934887,-0.2069452
0.8074033,-0.07086973,-0.06334608
0.795197,-0.04925116,-0.0292095
0.8125283,-0.08664328,-0.08331871
0.8445953,-0.1457836,-0.06963089
0.8807292,-0.1743198,-0.05655937
0.8824739,-0.1903164,-0.03825145
0.8393741,-0.1825599,1.837675e-05
0.7914801,-0.1636176,0.05657835
0.7849046,-0.1402128,0.1087881
0.8341909,-0.1162762,0.08176365
0.9198222,-0.09712954,0.05207312
1.041872,-0.05552956,0.02597495
1.15258,-0.01699443,-0.07556228
1.241247,-0.008510604,-0.1976657
1.324564,-0.03917313,-0.2723073
1.346779,-0.08506664,-0.2499855
1.322086,-0.0640512,-0.04865771
1.234373,-0.02224589,0.2409777
1.10123,-0.04225514,0.2819835
1.086537,-0.1640347,0.0436206
1.209799,-0.4263709,-0.2723961
1.343918,-0.6328789,-0.601033
1.334405,-0.6072512,-0.6063575
1.092395,-0.4061118,-0.3160219
0.7541187,-0.1147541,-0.2151622
0.6047416,0.02355209,-0.1861467
0.7267815,-0.06505853,-0.1467953
0.921309,-0.1773627,-0.1868055
1.160499,-0.2908284,-0.2048044
1.287269,-0.2719648,-0.2882778
1.005873,-0.05087292,-0.2924803
0.7460697,0.07374663,-0.1892123
0.797912,0.03079417,-0.1335864
0.8144261,-0.03800177,-0.0452509
0.8519003,-0.06017667,-0.07270233
1.011773,-0.04709377,-0.151585
1.074265,-0.03894936,-0.15
1.005574,0.004430123,-0.1707706
0.9191614,0.02196236,-0.1204218
0.8624203,0.01662994,-0.08247112
0.8342291,0.03650019,-0.08844273
0.8883239,-0.00652831,-0.07473597
0.9835208,-0.05363328,-0.1034846
1.059786,-0.06102573,-0.07965154
1.161819,-0.04753503,-0.06527856
1.195184,-0.01949424,-0.0876879
1.153433,-0.03838202,-0.06334067
1.15369,-0.05658827,-0.05322798
1.180591,-0.0774124,-0.01579358
1.189712,-0.1143121,0.02742627
1.130079,-0.1293247,0.06822605
1.072615,-0.152265,0.1095073
1.119663,-0.1256446,-0.02995618
1.152562,-0.01883128,-0.3244839
1.089751,0.06687105,-0.5408376
1.018212,-0.008806496,-0.5470059
1.003069,-0.1471954,-0.4846783
1.065615,-0.162427,-0.4321297
1.190386,-0.2206993,-0.2403222
1.245182,-0.2288572,-0.155557
1.156074,-0.02187942,-0.2698108
1.052273,0.07252818,-0.2658181
1.020639,0.03032249,-0.2608947
0.9683526,0.01250214,-0.2728095
0.80929,-0.01819725,-0.1533946
0.6923149,-0.04784161,-0.07458643
0.7447578,-0.09103968,-0.02956045
0.773928,-0.1393507,0.04773182
0.744581,-0.2087931,0.07762831
0.8403199,-0.2178332,0.01330539
0.9558542,-0.1743726,-0.07382828
0.949074,-0.2218704,-0.06173102
0.8688636,-0.192376,-0.005533176
0.7614083,-0.1332457,0.0841394
0.7273532,-0.1294145,0.1360586
0.8034177,-0.07413314,0.04915638
0.9138294,-0.08408735,-0.01123446
1.053976,-0.06743371,-0.03363081
1.216021,-0.0244002,-0.08058824
1.38304,-0.04395405,-0.1137382
1.481397,-0.01274039,-0.1030449
1.389897,-0.001915966,0.04339773
1.207981,0.008942166,0.2413666
1.100854,-0.07109288,0.2574785
1.116291,-0.3379306,-0.06248748
1.251267,-0.5430355,-0.5305087
1.324392,-0.594423,-0.6735529
1.164992,-0.4695991,-0.4396721
0.8619617,-0.2469032,-0.209272
0.6207103,-0.06621969,-0.1311876
0.6253822,0.01124372,-0.0697338
0.8291616,-0.1426585,-0.04239534
1.045478,-0.3296783,-0.1237388
1.143535,-0.3424843,-0.2466367
1.004554,-0.2146152,-0.3365609
0.7882022,-0.006657332,-0.2862807
0.7009185,0.0290642,-0.1689916
0.6959597,-0.05522441,-0.1231777
0.823443,-0.0675013,-0.1296291
1.014908,-0.1057272,-0.2152975
1.071486,-0.1002016,-0.2668761
1.053749,-0.03086862,-0.2336445
1.045368,0.01286447,-0.2241853
0.9862631,0.04988285,-0.1560402
0.8570471,0.04185174,-0.02346433
0.8333874,0.02207714,0.04916989
0.9653236,-0.0147258,0.009785849
1.096168,-0.09070274,-0.0502494
1.23778,-0.09772054,-0.08613663
1.305825,-0.07946061,-0.1828326
1.256395,-0.09385986,-0.1937143
1.236803,-0.07813308,-0.1075977
1.170479,-0.03374845,-0.07933587
1.095026,-0.0002458593,-0.00711858
1.127167,-0.05192019,0.04027599
1.204635,-0.1811455,-0.1140582
1.317425,-0.2240098,-0.3826312
1.332051,-0.1201388,-0.5320551
1.138321,-0.05058299,-0.5056815
0.9405954,-0.1862492,-0.4735269
0.9574178,-0.3168856,-0.4169348
1.101034,-0.2148931,-0.3080657
1.153328,-0.09872142,-0.25053
1.114381,-0.08059988,-0.2503155
1.053056,-0.07031072,-0.28669
0.9730676,-0.1059197,-0.2852395
0.8745071,-0.1259875,-0.2555431
0.7809932,-0.1413862,-0.2050646
0.7607064,-0.1927533,-0.08675892
0.7712669,-0.1838174,-0.02902305
0.7833171,-0.1909361,-0.03836504
0.824323,-0.2099333,-0.04538457
0.8554555,-0.1732597,-0.07697121
0.894294,-0.1701829,-0.09976196
0.8898907,-0.1794086,-0.08910602
0.8264973,-0.1805087,-0.04000274
0.8076411,-0.1704534,-0.008755082
0.8056829,-0.1280399,-0.02382414
0.8223072,-0.1088502,-0.02952973
0.8999673,-0.1152198,-0.02993061
1.045429,-0.1502417,-0.03559868
1.245372,-0.1783965,-0.08117959
1.370188,-0.1435092,-0.1718221
1.374622,-0.1057606,-0.196177
1.277009,-0.08821668,-0.0474113
1.118645,-0.06447445,0.1749007
1.055521,-0.06603873,0.2093853
1.102395,-0.1604644,0.01312688
1.199816,-0.3433246,-0.3364874
1.301491,-0.4869355,-0.6928367
1.256992,-0.4682326,-0.7090719
1.015519,-0.3056476,-0.4389979
0.7003157,-0.1275987,-0.2408353
0.5595823,-0.0560396,-0.1189919
0.7159682,-0.1436581,-0.05315819
0.9433032,-0.254719,-0.1126518
1.134628,-0.257865,-0.2374563
1.239031,-0.1843904,-0.3813385
1.054683,-0.04406463,-0.4076307
0.8278806,0.01325825,-0.2538331
0.7842769,-0.05133745,-0.1242511
0.7775044,-0.05943962,-0.118647
0.8913758,-0.07912902,-0.1858191
1.034224,-0.1043071,-0.2529469
1.031145,-0.07381152,-0.2564869
1.004491,-0.06422457,-0.2146896
0.9779078,-0.02488233,-0.1704159
0.9663527,-0.006011827,-0.1644679
0.9505084,-0.03847688,-0.1507214
0.9226561,-0.06231283,-0.09453814
0.9462797,-0.1335931,-0.08852937
0.9693088,-0.1765451,-0.107596
1.037078,-0.1386074,-0.09750815
1.139798,-0.1072736,-0.1131238
1.172323,-0.08489813,-0.1389798
1.176453,-0.08229305,-0.130463
1.192281,-0.09869464,-0.07526534
1.189817,-0.08855816,-0.01704582
1.178607,-0.08884118,-0.04081969
1.218856,-0.110468,-0.1087191
1.273352,-0.1110255,-0.1823267
1.279929,-0.1006256,-0.283147
1.177782,-0.08283447,-0.3235872
0.9527605,-0.08158123,-0.3092726
0.8027351,-0.116723,-0.3273194
0.8022735,-0.1359946,-0.2864485
0.8827458,-0.1313631,-0.1626677
1.001965,-0.1277731,-0.1069541
1.086223,-0.1387844,-0.2009946
1.131538,-0.1441031,-0.3126992
1.088098,-0.1041143,-0.277825
0.9805244,-0.05707664,-0.207813
0.9021512,-0.03103207,-0.1558427
0.7980924,-0.02276309,-0.05209915
0.7438945,-0.04514745,-0.02062415
0.7923132,-0.1002731,-0.02304088
0.8440069,-0.1708264,0.01066814
0.9169815,-0.1926793,-0.01535979
0.9523258,-0.1547519,-0.01950614
0.8887091,-0.1101275,0.01688345
0.8392633,-0.08361728,0.04744467
0.8217962,-0.08063466,0.1024685
0.8261029,-0.08057033,0.1088568
0.9072955,-0.08337573,0.06412592
1.021333,-0.1021985,0.01191934
1.118342,-0.1089791,-0.03886529
1.261694,-0.09318471,-0.07119926
1.45172,-0.07675927,-0.09378628
1.462196,-0.05767653,-0.02060335
1.261065,-0.02000884,0.1540854
1.157761,-0.04196102,0.2099963
1.202817,-0.2780864,-0.06466523
1.301785,-0.6032028,-0.5445605
1.375942,-0.6482821,-0.7318286
1.222437,-0.50989,-0.5144723
0.9478973,-0.4305342,-0.3316128
0.7322467,-0.2032175,-0.2828354
0.6018209,-0.01079155,-0.201253
0.7112892,-0.156623,-0.1786285
0.931539,-0.3131291,-0.2046544
0.9923536,-0.3648841,-0.225023
0.946475,-0.2674365,-0.3427455
0.8303117,0.02360563,-0.3767556
0.679628,0.09356371,-0.2439141
0.6689776,0.01985286,-0.1684158
0.8034177,0.01427464,-0.1590196
0.9655907,-0.09057266,-0.2217006
1.076551,-0.1119439,-0.3133719
1.067593,-0.05215064,-0.3008563
0.9518086,-0.03198929,-0.2135876
0.8293858,0.06007005,-0.07930984
0.8112352,0.07244152,-0.03747959
0.871488,0.00738505,-0.08095421
0.9282928,-0.04034153,-0.04930452
1.010517,-0.1158052,-0.05275994
1.078823,-0.09745561,-0.1027852
1.13987,-0.04340604,-0.1534471
1.209964,-0.05601645,-0.2080211
1.162573,-0.03858616,-0.164688
1.123632,-0.02614775,-0.09552324
1.172234,-0.06391507,-0.0706216
1.189787,-0.1444529,-0.08976201
1.25617,-0.2268285,-0.2847058
1.25597,-0.160983,-0.5544666
1.107758,-0.09500772,-0.6070829
1.055049,-0.2580234,-0.5406412
1.155708,-0.3695052,-0.5522631
1.267565,-0.2351887,-0.4544496
1.1916,-0.09847716,-0.2553238
1.019913,-0.08334024,-0.2135836
0.9347126,-0.1166448,-0.2449073
0.8567327,-0.1640332,-0.249228
0.8603138,-0.2333432,-0.270192
0.8415483,-0.2688282,-0.2616162
0.7383414,-0.2259003,-0.2179804
0.7524684,-0.1897399,-0.1529635
0.7451956,-0.2008472,-0.1133594
0.7412078,-0.2156783,-0.1374254
0.7968975,-0.2314116,-0.1572024
0.7905549,-0.2390944,-0.1623686
0.8162755,-0.2266513,-0.1475205
0.8158378,-0.2123174,-0.08306673
0.8147292,-0.1937861,-0.01855664
0.8932249,-0.1761331,0.002716479
0.9881736,-0.1538049,-0.01457701
1.108075,-0.1131744,-0.03245531
1.130528,-0.1059985,-0.04638483
1.180893,-0.0890977,-0.09151054
1.356849,-0.005509888,-0.1254965
1.33934,0.049284,-0.09087564
1.150523,0.052221,0.007645337
1.007251,-0.07143716,0.05171319
1.014152,-0.3693658,-0.2096155
1.200003,-0.540223,-0.6902741
1.302577,-0.47102,-0.8728617
1.142303,-0.3677894,-0.6751588
0.8597214,-0.2570114,-0.4438316
0.6771992,-0.1846168,-0.1717434
0.6919654,-0.2687392,0.1076224
0.7932312,-0.3441623,0.08086195
0.8531691,-0.2785251,-0.1873601
0.8476249,-0.1882065,-0.4154408
0.8386053,-0.0774358,-0.4291619
0.8561876,-0.01200183,-0.2682616
0.8644427,-0.07713542,-0.2049935
0.9201682,-0.07764425,-0.1999098
1.02364,-0.03687714,-0.1785366
1.062869,-0.04972966,-0.2161491
1.036063,0.008965256,-0.1880827
0.9917472,0.05781418,-0.1626202
0.9024807,0.03719657,-0.1313588
0.7794089,0.005752993,-0.02697826
0.7704701,-0.04420305,-0.03424504
0.9194304,-0.08925925,-0.08930978
1.106348,-0.1406019,-0.1804813
1.232841,-0.153832,-0.2826898
1.21055,-0.1152232,-0.2321952
1.143282,-0.1110919,-0.1731147
1.137707,-0.1386736,-0.0842248
1.083744,-0.1646849,0.1045796
1.061956,-0.1633474,0.1695526
1.123068,-0.1769077,0.04674907
1.222746,-0.2149479,-0.1896057
1.392634,-0.1865792,-0.4866697
1.371735,-0.1575561,-0.6380344
1.106593,-0.1807549,-0.5306186
0.9681651,-0.1821278,-0.4272865
1.082633,-0.1731576,-0.3649133
1.210459,-0.1519925,-0.2387742
1.101084,-0.1157098,-0.2370052
0.9497594,-0.1292813,-0.2499135
0.8829599,-0.1483899,-0.2162279
0.7723225,-0.1177056,-0.2674354
0.7735898,-0.09023292,-0.2293854
0.778874,-0.07359219,-0.1781215
0.7281144,-0.07264862,-0.1840631
0.7967811,-0.1020401,-0.1322361
0.8177948,-0.1472146,-0.1348618
0.8821293,-0.2232122,-0.1294126
0.9625757,-0.2464423,-0.1025617
0.8668282,-0.2068423,-0.1233147
0.823137,-0.2238198,-0.07744348
0.8001684,-0.2267631,-0.03589557
0.7935555,-0.1952649,-0.03182679
0.8781739,-0.1880534,-0.005767228
0.9025888,-0.1571467,-0.01371693
0.9608999,-0.1432755,-0.04520879
1.065849,-0.1274998,-0.06568694
1.190642,-0.07894564,-0.07438194
1.386017,-0.06040117,-0.09654393
1.470209,-0.03043037,-0.106269
1.355613,-0.004741489,-0.04066487
1.19882,-0.04740606,-0.007980226
1.180024,-0.2423013,-0.189537
1.247263,-0.6061595,-0.5401248
1.259867,-0.7617862,-0.7117578
1.146885,-0.5230905,-0.5411661
0.8764453,-0.2707304,-0.3584565
0.6659354,-0.198398,-0.2832231
0.6520586,-0.1999437,-0.09128325
0.7402831,-0.2591382,0.03088415
0.8776794,-0.2962598,-0.1063085
1.011594,-0.2261126,-0.2811357
1.053667,-0.1076099,-0.4238571
0.9208468,0.03676723,-0.416632
0.7788956,0.1188522,-0.2307508
0.7869295,0.05761224,-0.1558405
0.8527413,-0.0237372,-0.1394374
0.948762,-0.05825737,-0.1503038
1.014853,-0.04927682,-0.2170782
1.031564,-0.001964956,-0.1733879
1.009601,0.01756153,-0.1348302
0.9138976,0.02972517,-0.0895108
0.850592,0.04111528,-0.02709533
0.8289899,-0.01056736,-0.05053061
0.8626846,-0.077083,-0.01629944
0.984255,-0.1127937,-0.05321355
1.098145,-0.1314811,-0.1780309
1.183931,-0.1425289,-0.2027651
1.176149,-0.1628301,-0.1861726
1.122098,-0.1598339,-0.1097734
1.12766,-0.1434979,-0.02694166
1.114558,-0.1523681,0.03896319
1.125109,-0.1539354,0.07317424
1.174347,-0.1496271,-0.07393798
1.201845,-0.117358,-0.3048185
1.188206,-0.04375085,-0.5247759
1.076825,-0.03122488,-0.6803566
0.986909,-0.1346775,-0.6906271
1.015539,-0.2817634,-0.5886531
1.085239,-0.3286507,-0.4004119
