accx,accy,accz
0.8353731,-0.3265369,0.0564961
0.8276316,-0.1622314,0.1306352
0.933931,-0.07374619,0.07746477
1.084434,-0.09737089,0.04109758
1.173206,-0.04904923,0.01473728
1.137301,-0.03689158,-0.03237388
1.03602,-0.04376512,0.01770625
0.9084083,-0.03790014,0.09450231
0.8005387,-0.07490051,0.1372717
0.7929956,-0.09101255,0.1882408
0.8019836,-0.1234894,0.1981064
0.8159521,-0.1203849,0.1788277
0.8900396,-0.08057494,0.1459594
0.896507,-0.09658137,0.1290226
0.862583,-0.09947725,0.1623919
0.8601201,-0.1162771,0.18223
0.817092,-0.1182987,0.2185359
0.7965392,-0.06857111,0.2457885
0.8395772,-0.06262293,0.2039715
0.9300061,-0.08543806,0.1737002
1.049431,-0.1247905,0.1616331
1.090917,-0.1328992,0.167938
1.099324,-0.09559449,0.2248712
1.147743,-0.02231453,0.3438471
1.145491,0.1581707,0.4681914
1.166457,0.2235004,0.411325
1.363746,-0.009516461,0.1621942
1.515224,-0.3242019,-0.01885243
1.293071,-0.5243271,0.0889554
0.9124558,-0.551936,0.2425225
0.7783607,-0.4248632,0.124341
0.8191554,-0.2498224,-0.01354797
0.9451208,-0.1608372,-0.1032016
1.185986,-0.1720776,-0.1949331
1.263306,-0.2020939,-0.05953459
1.121448,-0.231818,0.04988013
0.972025,-0.2298035,0.06156246
0.8174117,-0.2176383,0.1506827
0.7473066,-0.2278788,0.1083872
0.8026448,-0.1848172,0.06872059
0.822819,-0.102199,0.05678905
0.8303038,-0.04030243,-0.03460503
0.894278,-0.02616973,-0.002241694
0.9535004,-0.04038864,0.02620515
0.9791145,-0.02450212,0.03701599
0.9738508,-0.008793097,0.1134117
0.9635255,0.03348714,0.1065107
0.9888402,0.1087486,0.09423414
1.002004,0.1163091,0.1099893
0.9876422,0.08552247,0.1217008
0.9708402,0.05373334,0.1623013
0.9396921,0.01842484,0.1856745
0.9506868,-0.0005929159,0.185875
0.9885258,-0.03784824,0.1652615
1.009076,-0.07398018,0.1419138
1.04634,-0.05698394,0.1463972
1.079676,-0.01765851,0.1856934
1.1225,-0.01449151,0.2558405
1.16867,-0.0199904,0.3032114
1.192976,0.01630427,0.286763
1.236047,0.06618984,0.1781402
1.272816,0.08033819,-0.01979574
1.275098,-0.04290991,-0.1868582
1.229081,-0.2898916,-0.1911855
1.147586,-0.4385549,-0.06021123
1.080656,-0.3951744,0.09930632
1.020977,-0.2473354,0.187275
1.025454,-0.08849779,0.1359629
1.115075,0.009469674,0.06641069
1.161722,0.01585477,0.04877831
1.093644,0.007754394,0.01919135
0.9605765,0.02052647,0.04369452
0.851628,-0.008471006,0.0970543
0.7748608,-0.03000479,0.1399448
0.7361614,-0.05835812,0.1902105
0.7609194,-0.1154221,0.1662895
0.7946304,-0.1063114,0.1583135
0.8550269,-0.09650135,0.1846058
0.909257,-0.102179,0.1648823
0.8808027,-0.08095184,0.2017736
0.8577787,-0.07550383,0.2513341
0.8396921,-0.0497823,0.2651903
0.81858,-0.03676106,0.2692298
0.8732908,-0.07015233,0.2220743
0.931329,-0.1030311,0.1959011
0.9911962,-0.1538263,0.2093875
1.143667,-0.205641,0.234897
1.262945,-0.1713555,0.288923
1.253088,-0.0401548,0.3343939
1.294769,0.07152022,0.3179165
1.418331,0.0773362,0.2088364
1.408468,-0.04982942,0.1291172
1.214243,-0.2722037,0.1870755
0.9464089,-0.4194481,0.2767843
0.813685,-0.3986407,0.266971
0.8637253,-0.2770565,0.1188834
0.926129,-0.1619191,-0.07343762
1.067116,-0.1206388,-0.1292055
1.189987,-0.156859,-0.03133604
1.085859,-0.2075499,0.07577876
0.9560331,-0.2175208,0.1889133
0.8546657,-0.2287192,0.2358169
0.7868279,-0.2053671,0.1183758
0.8484202,-0.1390172,0.05288746
0.8617495,-0.1001006,0.043089
0.8397101,-0.04776527,0.009324458
0.8749784,-0.02232684,0.04506483
0.8822447,-0.02399073,0.05915226
0.9104217,0.01200581,0.09582213
0.9285358,0.05919006,0.1458474
0.9015617,0.1321986,0.1111508
0.9215212,0.1674109,0.1223693
0.9523869,0.1512898,0.1300846
0.9839666,0.1221192,0.1140399
1.009862,0.04577031,0.1460753
0.9973421,-0.004051272,0.1614769
1.030433,-0.02270491,0.1735942
1.094942,-0.01422246,0.1771399
1.154167,0.01878362,0.1930579
1.239628,-0.04203269,0.24225
1.312523,-0.0948659,0.2497619
1.362844,-0.05802008,0.2117866
1.390369,-0.05694118,0.1107564
1.382097,-0.1146778,-0.05397551
1.303934,-0.2562585,-0.1552227
1.158538,-0.4119289,-0.09147046
1.062558,-0.3548381,0.05425202
1.003978,-0.1341709,0.14804
0.9865876,0.01717709,0.1408137
1.070985,0.02614836,0.02846628
1.113798,-0.04990647,-0.02919816
1.077587,-0.07565107,0.04563785
0.9889063,-0.05530543,0.1014633
0.824408,-0.06637318,0.1091728
0.7402766,-0.03946422,0.1084216
0.7629777,-0.03320021,0.1293486
0.7826062,-0.0739847,0.1638575
0.8227778,-0.09302428,0.1647265
0.8729718,-0.139659,0.1687692
0.881451,-0.1398178,0.1668428
0.8552658,-0.09804418,0.1702322
0.8228252,-0.08022116,0.1954903
0.8037229,-0.04814839,0.2042701
0.812181,-0.0631399,0.2198133
0.8454651,-0.07544855,0.2288384
0.8884143,-0.06792202,0.2222741
0.9575713,-0.112187,0.1891063
1.056177,-0.151302,0.1603047
1.158921,-0.1580806,0.2475062
1.189925,-0.02278622,0.3751388
1.114145,0.2469,0.4087743
1.139244,0.3323591,0.3399143
1.431975,0.1125754,0.1884297
1.67774,-0.1826025,0.05631975
1.420058,-0.3956134,0.1132201
0.9375572,-0.5377842,0.2774517
0.7907181,-0.4703089,0.2821954
0.8120991,-0.2438833,0.1249947
0.8693906,-0.1377061,-0.0694405
1.067863,-0.0992379,-0.1393784
1.178103,-0.147912,-0.04138961
1.140639,-0.254318,0.01896193
0.9922493,-0.2068929,0.111782
0.8118009,-0.1889209,0.1795483
0.7833589,-0.2003018,0.07575138
0.8181424,-0.1439191,0.06924369
0.8428623,-0.1401256,0.08296453
0.8604054,-0.08323208,0.0282686
0.8876459,-0.04533099,0.04847289
0.9295215,-0.05405927,0.04831314
0.9232363,0.0147781,0.09864631
0.8982106,0.06298831,0.1726807
0.8618706,0.1152043,0.1637953
0.9013776,0.1395006,0.152086
0.9714777,0.1234094,0.1304801
0.9542436,0.1188967,0.1574877
0.9912871,0.04076557,0.1924475
1.02057,0.01194045,0.1764263
1.026124,0.001755094,0.1850349
1.098681,-0.07160125,0.1801255
1.11278,-0.01893015,0.1881017
1.140345,0.04962875,0.2387931
1.210986,0.01816327,0.3001682
1.221965,0.0005653439,0.3420786
1.264174,-0.02117848,0.301496
1.321686,-0.04525578,0.1476787
1.318168,-0.07975581,-0.1199482
1.302704,-0.1979135,-0.2477838
1.227191,-0.3368899,-0.09823629
1.075066,-0.3516186,0.0650074
0.9993152,-0.2077065,0.2009404
1.040012,-0.04340048,0.2481326
1.112327,0.02544474,0.08223071
1.163693,0.0187644,-0.03443842
1.13475,-0.001237605,-0.02880458
0.9967217,0.001124526,-0.00808814
0.8165168,-0.0111922,0.04229597
0.7046701,-0.04514781,0.07125926
0.7017445,-0.06927757,0.1423715
0.7384644,-0.1015885,0.2254781
0.7627752,-0.1206452,0.2119193
0.7997787,-0.1050416,0.1906995
0.8394958,-0.07810329,0.1717751
0.8421268,-0.05455211,0.1731632
0.8095076,-0.05177065,0.2075145
0.7894842,-0.08583112,0.2142562
0.8415092,-0.1414272,0.2264221
0.9161181,-0.1525963,0.2190741
0.9840235,-0.1318091,0.2057434
1.125167,-0.1175824,0.2300786
1.253415,-0.04310039,0.2802146
1.265895,0.05270882,0.3410792
1.301025,0.04540918,0.2779697
1.385584,-0.09539394,0.148802
1.367088,-0.3045095,0.1504418
1.233021,-0.4225264,0.2339951
1.012855,-0.3892953,0.2924135
0.834976,-0.3246075,0.2150129
0.8788778,-0.2412756,0.02516158
0.9786691,-0.09972941,-0.1107055
1.044095,-0.05949413,-0.1559761
1.147545,-0.1467176,-0.07362183
1.122395,-0.1842245,0.04333399
0.9693249,-0.1856341,0.07507621
0.8009586,-0.2067596,0.1325786
0.6975434,-0.2120025,0.156116
0.7729889,-0.1975552,0.1116596
0.8255426,-0.1621833,0.1118206
0.8315494,-0.08811179,0.07242524
0.9350901,0.005285526,0.0225332
0.9253396,0.01966831,0.05573253
0.8793864,0.01557163,0.1087612
0.9201433,0.07562892,0.1555267
0.876554,0.07822541,0.1683762
0.8687523,0.08610655,0.1320333
0.9232295,0.1202877,0.1034603
0.9461339,0.07331926,0.1132677
1.012186,0.05748416,0.1222057
1.035435,0.03564091,0.1260252
1.033565,-0.02977596,0.1596863
1.071296,-0.02399457,0.175869
1.082584,-0.01771921,0.1796366
1.143431,-0.03737376,0.2373733
1.227685,-0.07821709,0.318351
1.266559,-0.1194048,0.3284793
1.306742,-0.0526708,0.1765651
1.356954,-0.003640037,-0.08423603
1.414178,-0.1388215,-0.2386987
1.352483,-0.3507962,-0.1710748
1.181341,-0.4266529,0.01422172
1.070687,-0.3156993,0.178721
0.9984169,-0.1428143,0.2094834
1.004574,0.00432184,0.07074612
1.078609,0.05570016,-0.03460894
1.079061,-0.02030776,-0.02457463
1.00107,-0.07616953,-0.009124585
0.8305633,-0.05128108,0.03627835
0.673881,-0.07122621,0.09910311
0.6556657,-0.1091135,0.1629864
0.7136827,-0.1082748,0.1963867
0.8235725,-0.1262073,0.1604128
0.9152163,-0.1176373,0.1707447
0.9408083,-0.08190715,0.1837302
0.910867,-0.06165732,0.1778146
0.8344016,-0.03005675,0.2204278
0.8070629,-0.02624004,0.2158726
0.8199738,-0.0458328,0.2055591
0.8785393,-0.07738465,0.2130051
0.9806091,-0.1389872,0.1764961
1.021782,-0.1545011,0.1684618
1.097297,-0.1126481,0.2394063
1.206708,-0.04283674,0.3709205
1.244657,0.03654757,0.4031527
1.431198,0.02015405,0.23987
1.684567,-0.0682915,0.08735707
1.471082,-0.1753047,0.1156264
1.057611,-0.3762454,0.2259143
0.9746583,-0.4759741,0.2524535
0.9024215,-0.3333981,0.1674632
0.8817033,-0.2012706,-0.01106243
1.09079,-0.1280855,-0.1749308
1.205782,-0.0895132,-0.1749334
1.268131,-0.1646148,-0.06645412
1.126419,-0.218895,0.08457083
0.8179967,-0.2125243,0.1919615
0.7566989,-0.2123467,0.1557666
0.7432716,-0.1887403,0.09389054
0.7843327,-0.1365837,0.05658807
0.8897485,-0.0570601,0.001661448
0.8714604,0.003832033,-0.007164215
0.8955119,0.02585168,0.0409977
0.8904249,0.04733855,0.1083795
0.8673515,0.066214,0.1681958
0.8941501,0.1024592,0.1758256
0.8939333,0.1414728,0.147433
0.9586259,0.1363364,0.1297087
0.995583,0.09997052,0.1224805
1.003501,0.0554892,0.1368801
1.039778,0.03232174,0.1603297
1.041083,0.03812503,0.1708592
1.081813,0.03409986,0.1998268
1.105941,0.02461355,0.2242826
1.12113,0.01656415,0.2455838
1.211652,-0.03575918,0.3076873
1.264719,-0.08471992,0.3160977
1.276975,-0.07155182,0.1659899
1.347585,-0.08690596,-0.1139498
1.393074,-0.1673339,-0.3126102
1.255613,-0.2929029,-0.2063481
1.074027,-0.4325296,0.004098753
1.043532,-0.3915212,0.09637639
1.060406,-0.1734026,0.166298
1.088062,-0.03716533,0.1615248
1.164538,-0.01116729,0.1094445
1.185235,-0.027074,0.05656066
1.093289,-0.0356106,-0.06134229
0.9239065,-0.02070958,-9.378646e-05
0.744814,-0.06132319,0.1292195
0.6441601,-0.07965266,0.1001635
0.6463882,-0.07987246,0.1412974
0.6950342,-0.1214508,0.1716512
0.7649653,-0.1141525,0.1522887
0.8421613,-0.09984896,0.1839715
0.8761103,-0.07132888,0.1601373
0.8797541,-0.0385551,0.1735855
0.8721445,-0.05765996,0.2074603
0.8607541,-0.05145042,0.2140137
0.8848168,-0.06876326,0.2564981
0.9219608,-0.09553697,0.2456482
0.987042,-0.08109335,0.219986
1.13213,-0.08205396,0.2252218
1.240451,-0.05782363,0.2846381
1.25552,-0.004806838,0.3638704
1.372414,0.006834438,0.251859
1.529401,-0.1435728,0.06443872
1.440297,-0.4211987,0.03975924
1.202215,-0.5292714,0.1538837
0.9526177,-0.3974364,0.2374452
0.7996045,-0.2284295,0.07672451
0.9517608,-0.1116846,-0.1489599
1.112841,-0.05444203,-0.1529127
1.103174,-0.1187796,-0.06649297
1.111707,-0.2025472,0.02545037
1.01905,-0.2002876,0.1109096
0.8545139,-0.2333281,0.09842245
0.7010963,-0.2628123,0.08687893
0.660678,-0.2164534,0.09318619
0.8130308,-0.1546158,0.02089974
0.8443749,-0.08142502,-0.02822648
0.8881995,-0.04468832,-0.007635958
0.990876,-0.01871873,0.04688215
0.9240215,0.03482063,0.1423692
0.9432557,0.0799712,0.1733456
0.9439275,0.1233289,0.1406535
0.9216596,0.1295657,0.1471943
1.014978,0.1119699,0.1446715
0.9933526,0.08128818,0.1481024
1.016016,0.02297891,0.1809457
1.0577,0.002745299,0.1778698
1.021128,0.02811293,0.1806817
1.058799,0.05011978,0.205173
1.071207,0.02893033,0.2193215
1.134011,-0.02387116,0.2489103
1.247649,-0.08936124,0.2789015
1.276398,-0.1340233,0.2364372
1.266911,-0.1217177,0.03135667
1.258598,-0.1799393,-0.2702283
1.276255,-0.2893038,-0.3653311
1.238786,-0.3248516,-0.1462235
1.191207,-0.3700371,0.09614511
1.193868,-0.3282629,0.1756559
1.184114,-0.1112856,0.1307785
1.200387,0.07800147,-0.02043014
1.181386,0.1431128,-0.1213544
1.106118,0.06905152,-0.04093248
0.9546009,-0.02071028,0.08016215
0.729587,0.0205603,0.1158965
0.630763,0.007367545,0.1190664
0.6377001,-0.07547311,0.1496251
0.6744362,-0.1071549,0.1540163
0.754968,-0.1541618,0.1390895
0.8229003,-0.1471868,0.146825
0.8639657,-0.1122294,0.158997
0.8540841,-0.1158838,0.1866373
0.8455009,-0.09511595,0.1874118
0.8765644,-0.122417,0.187045
0.929917,-0.1476326,0.2290839
1.019933,-0.1174424,0.2429942
1.063517,-0.1096464,0.2347558
1.108989,-0.06789198,0.2394277
1.177149,0.02685206,0.3090518
1.205684,0.09315187,0.3603001
1.44989,0.03358775,0.1977535
1.734999,-0.1347191,0.004110998
1.491781,-0.3494384,0.05720167
1.031953,-0.5289047,0.2545386
0.8494557,-0.4137982,0.3336499
0.7999503,-0.1670216,0.1450306
0.8573955,-0.11402,-0.1019909
1.013144,-0.1008299,-0.08014839
1.128763,-0.152522,0.004544875
1.150058,-0.2587637,0.01445043
0.9528307,-0.2500059,0.1656339
0.7326596,-0.2626256,0.1927017
0.6707146,-0.2514158,0.08794127
0.6589881,-0.1887356,0.1319463
0.7540688,-0.1576863,0.07032721
0.8529828,-0.0856758,-0.000556396
0.8802538,-0.04436771,0.05235104
0.9021235,0.0122845,0.06807036
0.890056,0.1024643,0.1577154
0.9045897,0.1230123,0.1861884
0.902554,0.17799,0.1303388
0.9063906,0.2336715,0.150262
0.9627512,0.1838441,0.1392407
1.020534,0.04117136,0.1425902
1.098367,-0.09660004,0.1696884
1.090551,-0.09543538,0.1839148
1.074932,-0.02408551,0.2195784
1.144097,0.02155481,0.2412987
1.183384,0.0273726,0.2648564
1.252769,-0.02248927,0.2412723
1.321269,-0.07047856,0.1842212
1.319215,-0.05823938,0.1105444
1.344702,-0.06863324,-0.07139988
1.396903,-0.2088589,-0.2303424
1.324648,-0.3768557,-0.1652205
1.144034,-0.4171046,0.05217187
1.064166,-0.2884025,0.1816047
1.053341,-0.08108273,0.1662079
1.073915,0.03058314,0.04373821
1.127212,0.01535465,-0.08868521
1.080494,-0.02402054,-0.0434773
0.9823358,-0.01282471,0.006988747
0.8154366,-0.0190663,0.009945497
0.6411183,-0.06307582,0.1316742
0.6250621,-0.06818968,0.1716068
0.6252571,-0.102985,0.1431319
0.6584102,-0.1278694,0.1814586
0.7639904,-0.09241834,0.1890568
0.8043027,-0.07323914,0.1983233
0.824042,-0.04421804,0.2166065
0.8329897,-0.04906873,0.2210724
0.8447609,-0.07647481,0.2301771
0.9226529,-0.09414842,0.2267218
1.033401,-0.1550249,0.230119
1.178249,-0.1621134,0.2399568
1.307171,-0.1361399,0.2568175
1.35961,-0.1589876,0.2565365
1.452857,-0.1931807,0.1756024
1.554857,-0.2777409,0.09625874
1.337896,-0.3742479,0.1617832
0.9473639,-0.3846205,0.2395093
0.8758301,-0.3076637,0.1529496
0.9920433,-0.1807265,0.005638664
1.076102,-0.09731122,-0.1441448
1.187999,-0.1109754,-0.2018578
1.210694,-0.1466263,-0.08366216
1.146562,-0.1550404,-0.02168325
1.039382,-0.1719753,0.02494254
0.8226736,-0.2039039,0.1578854
0.6536571,-0.22921,0.145317
0.6526232,-0.2348316,0.08670168
0.7062646,-0.1986993,0.09265021
0.7800966,-0.1287993,0.01639869
0.8796999,-0.06023449,-0.04893242
0.9170386,-0.01312204,-0.03064783
0.9088203,0.02017219,0.02718002
0.892761,0.06142288,0.127986
0.8677568,0.109362,0.1703494
0.9002088,0.1483831,0.1319499
0.9688482,0.1594054,0.1307903
1.026077,0.128119,0.1541251
1.047101,0.07630504,0.1659989
1.029268,0.04804814,0.1937153
1.046435,0.05537341,0.194121
1.07624,0.05615952,0.1868558
1.120472,0.008421486,0.2277948
1.229091,-0.08879468,0.2706806
1.299031,-0.1680536,0.2912008
1.308652,-0.1618767,0.2118628
1.349128,-0.1777856,-0.09347673
1.354784,-0.310672,-0.365721
1.259875,-0.4240981,-0.1539484
1.155403,-0.4134566,0.2247508
1.105577,-0.343205,0.2316781
1.116676,-0.2624177,0.1614675
1.150125,-0.07703056,0.08279294
1.140485,0.1375143,-0.1236552
1.072385,0.07280967,-0.05303128
0.9034285,-0.06177212,0.07104459
0.7028009,-0.003153283,0.05406871
0.6177396,-0.06804653,0.1780198
0.6180967,-0.1591358,0.1775147
0.6615892,-0.1037906,0.1157521
0.7321201,-0.1373117,0.1708092
0.7926342,-0.1282975,0.1336668
0.8296312,-0.07387484,0.1647809
0.8285203,-0.08704854,0.2421209
0.8385627,-0.04484285,0.2307052
0.8712421,-0.07060926,0.2383652
0.9287606,-0.1267863,0.2220436
1.029953,-0.121786,0.1912482
1.116195,-0.1358808,0.1863437
1.242611,-0.09716331,0.2656664
1.382878,-0.05229376,0.3721724
1.404153,-0.04338591,0.2493433
1.473287,-0.1112862,0.02977748
1.543365,-0.2862242,-0.01398281
1.27444,-0.3946745,0.1287114
0.9141044,-0.426168,0.2661415
0.8502374,-0.3596332,0.1154087
0.913801,-0.2143008,-0.1011751
0.933584,-0.1902846,-0.1033781
1.011613,-0.2191616,-0.1188597
1.126431,-0.2270863,-0.1319949
1.043799,-0.2624519,0.01131961
0.8374325,-0.2827572,0.1690274
0.7506887,-0.2766449,0.1841646
0.6872554,-0.2486574,0.1031982
0.6754173,-0.1980692,0.09290471
0.765889,-0.09019399,0.05330498
0.8406901,0.03581847,-0.04087436
0.9474236,0.08477272,-0.02675924
0.9968941,0.0999651,0.01343589
0.9772083,0.09883229,0.1004987
0.982735,0.09964172,0.194556
0.9299019,0.1420662,0.1727137
0.8996436,0.1687096,0.1673015
0.9284134,0.1570343,0.1653078
0.96138,0.1007613,0.1344701
0.994496,0.03279131,0.1311323
0.9822743,0.006292213,0.1451163
0.9802783,-0.009483189,0.173928
1.002418,-0.01392593,0.1708199
1.08452,-0.03150624,0.1726229
1.276805,-0.1170959,0.1802195
1.413706,-0.1989378,0.1156706
1.413252,-0.2199147,-0.0284054
1.391513,-0.2795681,-0.167784
1.371341,-0.3914365,-0.09224714
1.278078,-0.3964718,0.1109098
1.218022,-0.2583521,0.1785025
1.251494,-0.0644066,0.1356105
1.234594,0.06395213,0.05466248
1.196147,0.06777224,-0.01544448
1.150431,0.09275487,-0.07010045
0.9968941,0.09315006,-0.02615684
0.771662,-0.01818198,0.1398501
0.5926159,-0.03899037,0.1509029
0.5707848,-0.05317001,0.129542
0.6260744,-0.1410307,0.1892838
0.6870499,-0.1282631,0.1210206
0.8183783,-0.1229136,0.120971
0.8952605,-0.1290127,0.1791757
0.8741071,-0.07709024,0.1905647
0.8713489,-0.06549824,0.2483301
0.8638096,-0.04427065,0.2084288
0.8648929,-0.06024724,0.1699281
0.9132714,-0.1487555,0.1755539
0.9808474,-0.2300151,0.1494012
1.069023,-0.2816588,0.1899548
1.15461,-0.2328707,0.2290451
1.227736,-0.1083454,0.3523561
1.295593,0.05271509,0.4583491
1.362137,0.09918504,0.2528875
1.421544,-0.09797304,-0.01401357
1.360744,-0.2873793,-0.0469762
1.155327,-0.3841399,0.1043734
0.9035144,-0.4003814,0.1933051
0.7466003,-0.283709,0.06831413
0.8709887,-0.1945566,-0.07703213
1.086431,-0.1841654,-0.08323976
1.143663,-0.2424977,-0.00286566
1.154344,-0.2966627,0.09784739
1.083501,-0.2552445,0.1522852
0.8747307,-0.2289506,0.1198695
0.6482058,-0.2038296,0.08831924
0.5993615,-0.1739788,0.09325374
0.7427498,-0.1398483,0.06584306
0.784616,-0.008671091,0.01448078
0.8358109,0.06798409,-0.03967641
0.9189613,0.03565217,-0.02003353
0.8616074,0.04924902,0.07334223
0.9131924,0.0947486,0.1280858
0.9203544,0.1205941,0.1827661
0.8832953,0.1515901,0.1905804
0.9950788,0.159027,0.1491354
0.9862114,0.1197028,0.1711043
1.000921,0.0794318,0.1641054
1.033631,0.04569688,0.1588307
0.9809049,0.03573705,0.1882602
1.045006,0.04432493,0.1727981
1.1407,-0.01723879,0.2127068
1.322597,-0.1555512,0.2854163
1.423308,-0.2633776,0.3082872
1.327411,-0.2477339,0.2269915
1.353659,-0.2688469,-0.08846207
1.343987,-0.413075,-0.3575023
1.213518,-0.409929,-0.1121341
1.121998,-0.2857446,0.2972234
1.08556,-0.1516744,0.2503886
1.144349,0.08448472,0.03301699
1.177317,0.1893186,-0.06250749
1.154889,0.09195978,-0.1144601
1.060976,0.05087284,-0.004363295
0.8289422,0.06154154,0.07258116
0.6530911,0.03247309,0.1102228
0.5991091,-0.04332546,0.2112
0.6046841,-0.1406192,0.154392
0.6808622,-0.1770807,0.1446774
0.7650261,-0.1382835,0.165248
0.8194989,-0.1057499,0.1167649
0.8359288,-0.08124855,0.170304
0.8335986,-0.04468431,0.1705003
0.8460648,-0.05730844,0.1871876
0.862552,-0.08367455,0.2183116
0.9390058,-0.1471544,0.181932
1.056562,-0.250084,0.2221623
1.122248,-0.2298264,0.2122313
1.223674,-0.1636708,0.2154239
1.365879,-0.09815665,0.2631686
1.402313,0.003133993,0.2058823
1.420805,-0.04042781,0.120168
1.434928,-0.1999849,0.04208034
1.21263,-0.3774405,0.1170853
0.8710424,-0.5013705,0.2359526
0.749849,-0.3704471,0.1072131
0.8955979,-0.1859392,-0.06889475
1.119938,-0.1855577,-0.177042
1.230038,-0.222026,-0.1897533
1.140001,-0.3045622,0.01185283
0.9113847,-0.388335,0.198164
0.7596055,-0.3507066,0.2058986
0.7298577,-0.2961319,0.1420668
0.7393639,-0.1955588,0.09001539
0.8044351,-0.04694276,0.05261779
0.8535648,0.03583968,-0.02231702
0.9205404,0.07926087,-0.05798252
0.9567718,0.09932904,-0.01900315
0.8956999,0.09612377,0.02447756
0.9105925,0.08204399,0.1011951
0.8941818,0.08879555,0.1538804
0.8733679,0.1282279,0.1446291
0.9456609,0.1611435,0.1543468
0.9491879,0.1736982,0.1654119
1.005641,0.1248732,0.1600009
1.078802,0.04965442,0.1902471
1.06046,0.02708859,0.2299844
1.066627,0.09070271,0.219535
1.110595,0.1479003,0.2171168
1.255667,-0.01519365,0.2359997
1.401588,-0.2279562,0.2051626
1.405846,-0.2422109,0.09023257
1.366964,-0.2481403,-0.1344484
1.338271,-0.3567248,-0.2585975
1.272847,-0.4660163,-0.09501386
1.172953,-0.4694304,0.1136403
1.12756,-0.3004669,0.1746079
1.100788,-0.03752171,0.1007345
1.082547,0.1374606,-0.03845224
1.095251,0.1025193,-0.0699324
1.002193,0.04445162,-0.009861834
0.8404042,0.0936136,0.02367392
0.7027329,0.05511904,0.05898862
0.633685,-0.01908742,0.09825189
0.6638396,-0.06015235,0.1311387
0.7097077,-0.1529092,0.1415963
0.7878564,-0.1539507,0.1329373
0.8526563,-0.1160957,0.1507282
0.8546393,-0.1365784,0.1663569
0.8796945,-0.1133139,0.1851648
0.8870428,-0.11273,0.196193
0.8819354,-0.1195749,0.181632
0.9186485,-0.1083513,0.192983
0.9718551,-0.1333797,0.196202
1.06632,-0.135075,0.1914304
1.212777,-0.1139825,0.2255953
1.305842,-0.02985908,0.3075981
1.313889,0.07184405,0.3580612
1.473822,0.01493635,0.194384
1.658853,-0.1934477,-0.0007673763
1.37218,-0.4779189,0.07152897
0.919655,-0.6209133,0.1838465
0.8317194,-0.4432337,0.1534532
0.8709046,-0.2499524,0.06415882
0.8844332,-0.2371768,-0.07072124
1.029196,-0.2065269,-0.09844799
1.240942,-0.1741545,-0.06331027
1.302987,-0.2226353,-0.07801089
1.104199,-0.2590334,0.06886004
0.8521637,-0.2521486,0.1792904
0.7073705,-0.2287928,0.112656
0.6372103,-0.2174835,0.1179712
0.6751251,-0.1529385,0.09188589
0.7429649,-0.05027664,0.04250816
0.8124215,-0.02086688,0.02397915
0.8803349,-0.007042195,-0.007639434
0.8677611,-0.001365698,0.08443484
0.8781448,0.02450078,0.1794125
0.8995859,0.1126724,0.2020251
0.9019775,0.1666231,0.2053827
0.9585956,0.1997261,0.1689625
0.9874569,0.2003379,0.1560616
1.023739,0.1446529,0.1358577
1.090552,0.07096478,0.15644
1.106377,0.007344634,0.2083695
1.132346,0.01554273,0.2087969
1.20247,-0.0422481,0.2698052
1.303898,-0.2028248,0.3201546
1.36307,-0.2357026,0.2397598
1.32426,-0.1816794,0.02509223
1.300352,-0.198464,-0.2390702
1.275424,-0.2662704,-0.2412899
1.187659,-0.3160061,0.01652053
1.163232,-0.2593987,0.1855437
1.209432,-0.1058782,0.1778086
1.21998,0.02647165,0.1014258
1.204113,0.06757259,0.06257805
1.143033,0.02977909,0.07422144
0.9510764,0.004258193,0.05920179
0.7027264,0.003731524,0.06422704
0.6187008,-0.02604478,0.09493075
0.6400067,-0.03437187,0.08552367
0.5664968,-0.05465594,0.1097403
0.5735705,-0.1010888,0.1592576
0.7079119,-0.08325845,0.1669951
0.7666174,-0.06607491,0.1631604
0.8174728,-0.05235256,0.167539
0.84489,-0.01027382,0.1976241
0.8191365,-0.01753339,0.2280304
0.8646166,-0.07014271,0.2255399
0.9176171,-0.1594661,0.2210153
0.9951813,-0.2179184,0.2330212
1.17779,-0.2058528,0.255585
1.396417,-0.1990343,0.2943651
1.503808,-0.1602797,0.3145302
1.469396,-0.1197505,0.2008945
1.467325,-0.1723798,0.07716509
1.317282,-0.274538,0.1905319
0.9820377,-0.3341589,0.2869809
0.9095474,-0.2767947,0.110428
0.9885773,-0.1711748,-0.08842621
1.00532,-0.143436,-0.1719379
1.054613,-0.1950362,-0.1504748
1.014224,-0.260268,0.01949505
0.9012062,-0.2640138,0.1721473
0.8000353,-0.2298292,0.1641168
0.6903755,-0.2188249,0.09554661
0.6784338,-0.2013438,0.06843475
0.7602097,-0.1590824,0.03471939
0.8305902,-0.08288854,-0.02203257
0.8856105,0.003373861,-0.02044331
0.9112096,0.04794916,0.01172254
0.9164752,0.1016112,0.08501673
0.9441825,0.1642583,0.1818293
0.923952,0.1715826,0.16674
0.8853784,0.1670451,0.1285947
0.9198234,0.165901,0.1369681
0.9507371,0.1164762,0.1349226
0.9870031,0.04143777,0.1528498
1.037436,0.01223012,0.1681773
1.047358,0.03929643,0.1709159
1.085353,0.05351002,0.1867555
1.1624,0.007575861,0.2192017
1.259705,-0.07985987,0.2463529
1.331066,-0.1646195,0.1917539
1.302945,-0.1950332,0.05219773
1.272881,-0.2116068,-0.1375229
1.268892,-0.2849397,-0.2801621
1.246286,-0.3278383,-0.1973266
1.288502,-0.2858003,0.04704078
1.353653,-0.1817842,0.1934611
1.351895,-0.01489874,0.1283902
1.331194,0.06936493,0.01649526
1.266733,0.03418172,0.03295602
1.104115,0.04555161,0.02140691
0.8877185,0.0574961,0.009922413
0.675729,0.005311591,0.118281
0.5405324,-0.01506353,0.08325679
0.5301261,-0.05110236,0.04327592
0.5945408,-0.1241714,0.1333236
0.6782569,-0.1287907,0.1174869
0.7641426,-0.1182582,0.1483245
0.8072402,-0.1135927,0.195955
0.8087769,-0.06866693,0.1884389
0.8351403,-0.06332948,0.2371717
0.8911332,-0.1098761,0.2071878
0.9610866,-0.1683069,0.1981494
1.038772,-0.1966008,0.2100137
1.138561,-0.1810502,0.1939771
1.297028,-0.1677105,0.3131384
1.421433,-0.08134294,0.3799254
1.493939,0.02572993,0.2616738
1.564829,-0.0491109,0.06627925
1.418018,-0.2433302,-0.004621332
1.079725,-0.3790425,0.1658432
0.8539077,-0.3732753,0.2626413
0.7649523,-0.2571195,0.0911632
0.8593381,-0.1816063,-0.1069461
1.090216,-0.1758068,-0.1344205
1.227749,-0.1835582,-0.125353
1.248907,-0.2130508,-0.1041326
1.161824,-0.2256539,0.02217028
0.9999269,-0.2276067,0.08445578
0.7697058,-0.2374562,0.1353626
0.6368447,-0.218862,0.1647955
0.7665993,-0.1755914,0.05924296
0.8078237,-0.09444802,0.04305882
0.8096312,-0.0328033,0.01092482
0.9160737,-0.007886802,-0.03117965
0.8846043,0.04420071,0.07976436
0.9106432,0.06292308,0.1113645
0.9383179,0.07897874,0.1484193
0.8875828,0.1416141,0.1990964
0.9603463,0.1552249,0.1437991
0.9720061,0.1043843,0.1486693
0.9987301,0.05190142,0.1420738
1.06541,0.04769155,0.1506166
1.047531,0.06984477,0.2032174
1.107754,0.06057932,0.1883623
1.188498,-0.01067712,0.2158003
1.287034,-0.1661416,0.2318521
1.353032,-0.2929642,0.14661
1.292063,-0.2852248,-0.03834101
1.268009,-0.2819704,-0.2293644
1.22929,-0.3564178,-0.173306
1.190464,-0.3769542,0.03034166
1.243727,-0.3016903,0.1591134
1.284716,-0.1510956,0.1733988
1.302657,0.0217394,0.06007271
1.294211,0.07458394,-0.01667928
1.264064,0.03008398,-0.02294711
1.184581,0.01782701,-0.06403776
0.9726223,0.01838824,-0.006584923
0.7289574,-0.009880716,0.1012873
0.6016012,-0.04798636,0.08804638
0.5946935,-0.1010042,0.092209
0.6285544,-0.1507451,0.1362919
0.6789266,-0.1608903,0.1178106
0.7474143,-0.1429588,0.1190032
0.7888858,-0.09213528,0.1402525
0.8100726,-0.04653605,0.1625624
0.842072,-0.04651539,0.2160835
0.8701899,-0.05414498,0.2225148
0.9040946,-0.1064923,0.213795
0.9798366,-0.1774071,0.2365841
1.066301,-0.1923581,0.2366039
1.194993,-0.1840294,0.263636
1.378788,-0.1121404,0.2847372
1.424818,0.006920985,0.2118572
1.424011,0.007825725,0.0759274
1.483571,-0.1693243,-0.01357858
1.263282,-0.3816992,0.1239231
0.8880368,-0.4323595,0.2783662
0.8050857,-0.3166352,0.1155898
0.9373161,-0.1956477,-0.08020661
1.070045,-0.1460252,-0.111189
1.134734,-0.145843,-0.1097061
1.121172,-0.193013,-0.01345979
0.9835474,-0.24169,0.1051914
0.755888,-0.2565843,0.1231482
0.6601454,-0.2645455,0.09671967
0.6994385,-0.2459059,0.07106581
0.7396642,-0.1953172,0.08061568
0.7977935,-0.1154529,0.04336661
0.8695291,-0.06198516,-0.0205619
0.9088069,-0.05115977,-0.009840223
0.9390297,0.02191443,-0.01041666
0.955697,0.07301599,0.03831484
0.910268,0.08798262,0.1611317
0.902111,0.1563797,0.1868946
0.9403234,0.1555184,0.154246
0.9506422,0.1297446,0.1583403
1.005936,0.1231812,0.1630936
1.047381,0.03930326,0.1631449
1.062417,0.01219055,0.1782364
1.089518,0.0807168,0.1827073
1.110368,0.09596519,0.1964303
1.230177,-0.004353751,0.2326476
1.332495,-0.1527992,0.2048098
1.318214,-0.1938659,0.07682089
1.301685,-0.1956957,-0.1345948
1.255242,-0.3041458,-0.2505399
1.188165,-0.4010774,-0.05345074
1.168605,-0.3853956,0.189897
1.200106,-0.272037,0.1974106
1.212461,-0.08628211,0.1218497
1.175426,0.04936921,0.02900723
1.151694,0.04517659,-0.05040955
1.0725,0.00956951,0.005145409
0.8985181,0.01884964,0.0817674
0.7221649,-0.005049302,0.08700247
0.6410909,-0.05115059,0.107043
0.6583003,-0.07613437,0.1297521
0.6833697,-0.1086937,0.1389211
0.7394836,-0.1190388,0.1637071
0.7850447,-0.09770936,0.1704504
0.7798415,-0.07312388,0.1881572
0.8211331,-0.04720898,0.2294777
0.8530876,-0.03955056,0.230786
0.8693151,-0.07249117,0.2223817
0.9322779,-0.1318682,0.2233743
1.017745,-0.1732538,0.2092195
1.16162,-0.1901109,0.2233478
1.293887,-0.1479604,0.3124608
1.316516,-0.005557127,0.3897782
1.338599,0.08659787,0.2570449
1.404953,-0.03187757,0.0197255
1.383489,-0.2819422,-0.01058397
1.230175,-0.4793882,0.1253131
1.013441,-0.508867,0.1985022
0.8860968,-0.3604578,0.09899282
0.9207665,-0.1784713,-0.06073707
0.9508845,-0.1218209,-0.09873809
0.9970599,-0.1345237,-0.08749462
1.120193,-0.1403479,-0.07094176
1.15965,-0.163133,0.01336807
1.034681,-0.2031127,0.1108724
0.8153787,-0.2337481,0.1545791
0.7630255,-0.2161495,0.1117083
0.7869988,-0.1891036,0.08556967
0.7186207,-0.1575674,0.1020953
0.8031496,-0.08867121,0.04477609
0.8658443,-0.05930657,-0.00442059
0.859117,-0.04604627,-0.002025747
0.9285786,-0.007483347,0.02703275
0.8892663,0.0247996,0.1002898
0.8997614,0.09005908,0.1401866
0.9438624,0.1616433,0.1499923
0.936119,0.176851,0.1597202
1.002464,0.1370556,0.1574633
1.000261,0.08793813,0.1625091
1.009652,0.07796553,0.1814458
1.042718,0.07927402,0.2113596
1.036589,0.07196715,0.2156244
1.123575,0.04069346,0.2313653
1.203446,-0.04574146,0.262564
1.27158,-0.1492248,0.1861889
1.345327,-0.2056689,0.007424711
1.35947,-0.2035483,-0.1562082
1.342936,-0.2604129,-0.1869454
1.297055,-0.4185306,-0.09577741
1.275735,-0.4653733,0.009836957
1.225713,-0.3027552,0.1056088
1.138162,-0.05371275,0.088072
1.098119,0.1058027,-0.01768035
1.083698,0.05264989,-0.03108104
1.085121,-0.008668188,-0.02611313
0.991369,0.03543401,-0.007889459
0.8256388,-0.02527238,0.06087214
0.7370262,-0.07778222,0.08173228
0.7004396,-0.05593937,0.1344199
0.7173335,-0.1119938,0.1783973
0.7683906,-0.110706,0.144469
0.8283094,-0.09391829,0.1508671
0.875481,-0.1147509,0.1669139
0.8755027,-0.05589646,0.1837329
0.8842816,-0.04964271,0.2171612
0.8556169,-0.05851777,0.2266094
1.12522,-0.1885304,0.1906237
1.204429,-0.1535915,0.2099292
1.264666,-0.004743744,0.2383625
1.34179,0.1246992,0.1634722
1.429577,-0.03120023,0.05101049
1.405902,-0.3603065,0.005515955
1.202267,-0.5097399,0.08140415
0.9280667,-0.5354526,0.2348719
0.684601,-0.5116997,0.3295584
0.7460302,-0.3880507,0.1937348
0.9754402,-0.2581755,-0.06137881
1.060078,-0.1716632,-0.1334847
1.238005,-0.2199942,-0.1210371
1.243126,-0.2831106,-0.08331875
0.9776835,-0.2377466,0.07543799
0.8629684,-0.2584314,0.1641083
0.7552096,-0.246929,0.1543595
0.7740411,-0.1888685,0.1169341
0.871221,-0.1579086,0.03512506
0.8248428,-0.04650697,0.0006133185
0.895032,-0.006693691,-0.007925804
0.8677506,-0.02299187,0.01022679
0.8022599,-0.0005806721,0.07582383
0.8578823,-0.0176118,0.1137521
0.8191516,0.007895196,0.1375441
0.8971386,0.0477459,0.1348463
0.988992,0.0744054,0.1340495
0.9940755,0.1079448,0.1604724
1.029421,0.08702542,0.1640446
1.00841,0.04877237,0.1941698
1.051101,-0.004210314,0.2246625
1.082472,-0.02867764,0.2183458
1.107968,-0.02276063,0.2286327
1.209423,-0.09725436,0.2521552
1.248274,-0.1911517,0.2763867
1.305287,-0.2174979,0.2235908
1.326684,-0.1741376,-0.003021153
1.315893,-0.1613403,-0.2697405
1.306831,-0.2927679,-0.2739779
1.161603,-0.4023371,-0.05332909
1.063202,-0.3177135,0.08608099
1.060951,-0.1405253,0.1363434
1.074015,0.01319419,0.08934669
1.130072,0.08824992,-0.04148178
1.131981,0.04108872,-0.05984195
1.066228,0.003042271,-0.05087165
0.9280203,0.03282513,-0.0550011
0.8058497,-0.01198253,-0.01792664
0.7461619,-0.0685447,0.05114814
0.6420316,-0.1060729,0.1757717
0.6841756,-0.1705176,0.1645486
0.8249818,-0.1600733,0.1140316
0.8010837,-0.147462,0.1720051
0.7976113,-0.1368572,0.1433782
0.8449181,-0.06879962,0.1454127
0.8221511,-0.0315771,0.1936755
0.839926,-0.02692557,0.1748084
0.8800232,-0.1050868,0.198747
0.9580708,-0.1827176,0.2287892
1.062142,-0.1571402,0.2617549
1.076732,-0.1368292,0.2746266
1.165249,-0.08574754,0.2643278
1.28057,-0.03332405,0.3117358
1.284611,-0.06462702,0.2608217
1.464374,-0.1376006,0.1191666
1.626192,-0.2539437,0.07202209
1.257494,-0.3707802,0.1727214
0.7625603,-0.4103494,0.300226
0.7422408,-0.336062,0.1892303
0.9344742,-0.2002707,-0.04092955
1.024773,-0.1184509,-0.1687882
1.143574,-0.1749738,-0.2074827
1.218771,-0.2961577,-0.1126715
1.089821,-0.3286834,-0.00350828
0.8792488,-0.3503917,0.1034566
0.7538748,-0.3693398,0.1854169
0.739935,-0.3174089,0.1039084
0.7668484,-0.2604151,0.08129773
0.8049098,-0.1244435,0.04148575
0.8557844,0.01076039,-0.08617566
0.8972803,0.03949289,-0.04889124
0.9045115,0.07502144,0.008714611
0.8789456,0.07231003,0.0887216
0.856263,0.06045106,0.17446
0.8439234,0.1038113,0.1226934
0.8834837,0.1336272,0.1199688
0.9751689,0.1493108,0.1158865
1.036694,0.09703035,0.1007239
1.059409,0.01286873,0.1475786
1.052093,0.005876795,0.1434812
1.060433,0.03878123,0.1548341
1.116526,0.05014716,0.1744285
1.206428,-0.03653496,0.2085302
1.357618,-0.202368,0.3030855
1.437849,-0.2782106,0.2803365
1.368074,-0.1958275,0.03977231
1.332563,-0.1443557,-0.2210536
1.329955,-0.2898007,-0.2386247
1.237615,-0.4333733,-0.1928586
1.13677,-0.41843,-0.1200891
1.083353,-0.3450018,0.1830949
1.074918,-0.1967699,0.2438231
1.131516,0.01065333,0.03814053
1.176714,0.08796488,-0.0149077
1.167784,0.03295227,-0.1150052
1.064071,0.02671655,-0.09356077
0.8327592,0.02512727,0.06810745
0.6467384,-0.06774431,0.06984705
0.5750834,-0.125632,0.1634702
0.559472,-0.1444514,0.2022005
0.6351526,-0.1596869,0.1124056
0.7444477,-0.1081899,0.1454322
0.8185857,-0.05304724,0.1346902
0.8660024,-0.02686091,0.1507965
0.8823582,-0.02621817,0.1976838
0.8896818,-0.06485804,0.1713404
0.9250502,-0.1298803,0.2084562
1.008536,-0.1982657,0.2278748
1.122669,-0.1757866,0.2271333
1.239467,-0.1199461,0.2317895
1.30766,-0.08595618,0.2091626
1.312102,-0.0268194,0.1956192
1.343124,-0.1610177,0.1034695
1.365992,-0.4729235,0.02428708
1.233828,-0.5857031,0.08313005
0.9893563,-0.4760737,0.1324006
0.8702306,-0.3363791,0.03474213
0.9930787,-0.2220081,-0.120732
1.140626,-0.1610814,-0.2010297
1.134563,-0.2126338,-0.2001943
1.064436,-0.2979385,-0.06626239
0.9571632,-0.2921953,0.08966913
0.8152862,-0.2811679,0.09362479
0.7017662,-0.2734136,0.07221775
0.647557,-0.230086,0.07830937
0.7099847,-0.193831,0.04936757
0.8027771,-0.09546048,0.00776912
0.8574131,-0.009256028,-0.01223058
0.9174834,0.01091832,0.001250808
0.8989642,0.04116107,0.02372259
0.874098,0.038437,0.06087612
0.8838915,0.06133424,0.1273322
0.8469547,0.1249669,0.1919149
0.9050599,0.1402513,0.174972
1.000807,0.1214961,0.1275036
1.003083,0.07738077,0.1683094
1.011112,0.02033707,0.1986016
1.029112,-0.01343202,0.1979731
1.054352,0.006060431,0.1996846
1.11209,0.02221676,0.157588
1.200076,-0.0482937,0.1626879
1.351346,-0.2324274,0.1545327
1.494889,-0.4392765,0.04862084
1.460427,-0.4083289,-0.1188902
1.322937,-0.3191458,-0.3099818
1.30959,-0.4207339,-0.2362888
1.302463,-0.3753827,0.01602851
1.264802,-0.2307899,0.08541818
1.298374,-0.1316007,0.1026654
1.243288,0.08075853,0.02491342
1.175436,0.127167,-0.1125278
1.100043,0.0185788,-0.03361411
0.852241,0.003835098,0.02311456
0.6331881,-0.02355876,0.03757236
0.5540328,-0.05527929,0.1281682
0.5676996,-0.1110574,0.13114
0.6284381,-0.1547681,0.1425897
0.6983648,-0.1423063,0.1390684
0.7821796,-0.1396208,0.1030183
0.7953956,-0.07968198,0.1578331
0.7986728,-0.06076166,0.1872882
0.8280794,-0.09217829,0.1969496
0.8370155,-0.117418,0.2105915
0.9008549,-0.1894789,0.2193299
0.9839071,-0.1818434,0.2593028
1.09837,-0.156168,0.2461351
1.305573,-0.1520151,0.244704
1.466408,-0.04582802,0.254737
1.526381,0.02146268,0.1428997
1.60625,-0.06886589,0.005710558
1.530155,-0.235511,0.001462554
1.152907,-0.3731602,0.1450667
0.8843982,-0.434194,0.2254378
0.8750795,-0.338771,0.06248614
0.9722588,-0.1659074,-0.1460433
1.127702,-0.1621706,-0.1625636
1.147389,-0.2093167,-0.07239833
1.056356,-0.2060117,0.004203637
0.9099641,-0.2499301,0.09697469
0.7322081,-0.2596225,0.1291361
0.7062848,-0.2532343,0.095
0.7331976,-0.21395,0.08616546
0.7388856,-0.1027246,0.02572144
0.7565145,-0.06152844,-0.01530449
0.811228,-0.03267422,0.02637595
0.9087385,0.08030764,0.03323651
0.8986304,0.1600654,0.05705765
0.8766976,0.1442319,0.1156344
0.9164229,0.1495412,0.1691893
0.9243238,0.1855002,0.2038831
0.9578976,0.1398853,0.1709276
0.9985537,0.09186383,0.1657632
1.019891,0.0496027,0.1967113
1.046091,-0.001916989,0.1982854
1.073383,0.04062483,0.219742
1.101081,0.03782693,0.220775
1.183065,-0.08402205,0.2059645
1.343453,-0.2187867,0.1816704
1.398312,-0.2992051,0.02395076
1.344872,-0.3007327,-0.2286693
1.32926,-0.3542678,-0.3314189
1.289056,-0.4078406,-0.1306048
1.251213,-0.348086,0.1176423
1.296927,-0.2456911,0.1228351
1.337166,-0.04705491,0.0284552
1.2903,0.1058393,-0.03521343
1.189881,0.06574684,-0.05561078
1.033161,0.03163458,0.0109341
0.8158107,0.02430254,0.06975087
0.6670207,0.00336157,0.08130116
0.5792478,-0.01109009,0.08901865
0.5339362,-0.07955562,0.1063352
0.6182428,-0.1178669,0.1423439
0.6935915,-0.1082954,0.1508736
0.7318404,-0.0970938,0.1482464
0.7995262,-0.04319378,0.1733931
0.8021754,-0.02782296,0.1974522
0.8121384,-0.05523036,0.2048665
0.8560296,-0.07206568,0.2019676
0.910316,-0.116267,0.2284336
1.027066,-0.1171682,0.2603548
1.113727,-0.07396479,0.2490067
1.198023,-0.05691298,0.2475326
1.325753,-0.04744205,0.2519079
1.510892,-0.09721042,0.1800014
1.711189,-0.2375338,0.04436496
1.564309,-0.4092761,-0.02881637
1.24628,-0.4795824,0.01436075
1.066891,-0.3433815,0.06108061
0.7902179,-0.1661369,0.04644097
0.8976796,-0.08695487,-0.01757954
1.362143,-0.06740659,-0.1005745
1.283473,-0.1321866,-0.07050949
1.088277,-0.2080134,0.05270871
0.9695154,-0.2160969,0.1373047
0.6422813,-0.2420808,0.1967424
0.61064,-0.2647453,0.1838341
0.6486554,-0.2312764,0.1355522
0.6653703,-0.1717282,0.1061978
0.862624,-0.06848231,-0.004226797
0.8539649,0.02540141,-0.060148
0.8444015,0.05171656,-0.01719626
0.8733412,0.08255733,0.01288532
0.8212343,0.1121832,0.07330292
0.8870636,0.1010449,0.09186424
0.9144354,0.1011222,0.08861728
0.9700156,0.1028963,0.09400174
1.050069,0.0656417,0.05206757
1.039661,0.001001244,0.09825446
1.058305,-0.05435583,0.1792853
1.043188,-0.04456449,0.1867532
1.041081,0.02923544,0.197195
1.12609,0.06145265,0.210033
1.288997,-0.06087373,0.2378218
1.448596,-0.21702,0.217752
1.453851,-0.2282101,0.02235588
1.415203,-0.2764927,-0.2400164
1.354313,-0.4233875,-0.2787872
1.184497,-0.4354533,-0.02738345
1.06462,-0.3762855,0.2000807
1.114179,-0.2553053,0.2225309
1.194154,0.003918941,0.1163717
1.220632,0.09716521,-0.02715648
1.240056,0.006661287,-0.07800389
1.099983,0.01173123,-0.03076033
0.8138971,0.02871547,0.03155046
0.6222069,-0.02583388,0.07632606
0.5295062,-0.06251859,0.1255218
0.5193224,-0.09438915,0.1910294
0.5744683,-0.1303851,0.1888603
0.6638322,-0.136281,0.1616906
0.7861656,-0.1240748,0.1668433
0.8377323,-0.09770653,0.1796513
0.8345927,-0.06869263,0.2165018
0.8431321,-0.07156428,0.2145742
0.8702626,-0.1114699,0.2004749
0.937086,-0.1710687,0.2137872
1.040989,-0.2034722,0.2160439
1.226507,-0.2145205,0.2717803
1.400801,-0.2298513,0.3609212
1.430569,-0.1915728,0.3669576
1.54996,-0.1534439,0.1825917
1.751217,-0.2476376,-0.0603706
1.55901,-0.4394347,-0.06481239
1.234501,-0.5588555,0.01756651
1.129374,-0.4922368,0.03817204
0.8968639,-0.3478327,0.1138035
0.951188,-0.2369337,0.02108822
1.313152,-0.1424101,-0.1683024
1.197563,-0.1356926,-0.09821418
1.048833,-0.1742936,0.006852942
0.9660988,-0.1771496,0.06011395
0.6662659,-0.2434806,0.1483917
0.6198122,-0.279131,0.1097824
0.5947261,-0.2270798,0.0900221
0.571192,-0.181221,0.09232509
0.7534998,-0.07169346,-0.02256879
0.8432871,0.02011288,-0.06989203
0.9563348,0.03503452,-0.05601941
0.9643642,0.08268703,-0.004497937
0.881808,0.1122945,0.1008996
0.929979,0.116615,0.130202
0.9099642,0.129956,0.1280222
0.9636459,0.1079747,0.1342453
1.046235,0.03401154,0.1481856
1.056269,-0.05148825,0.1842902
1.105414,-0.02388545,0.1910562
1.079802,0.1207779,0.193656
1.139924,0.1852615,0.1951673
1.2944,0.01635881,0.1858133
1.403521,-0.2223919,0.1544221
1.463748,-0.2483843,-0.01426567
1.414288,-0.2514124,-0.2678662
1.391982,-0.4338282,-0.2943696
1.336748,-0.4975868,-0.02234512
1.250169,-0.3477782,0.1742669
1.240245,-0.1507278,0.09852413
1.130984,0.00748468,-0.02706715
1.055062,0.0276338,-0.05818022
1.025888,-0.01323871,-0.03803704
0.8988134,-0.0122073,-0.009541483
0.802174,-0.02570984,6.056666e-05
0.6333441,-0.05736212,0.03982968
0.4918223,-0.0664155,0.1134339
0.5783727,-0.04913425,0.09850354
0.6144116,-0.0416979,0.07441464
0.5928285,-0.0356668,0.1141256
0.7108345,-0.02559022,0.108359
0.8132015,-0.0347638,0.1442507
0.8483185,-0.04167915,0.2125596
0.8998791,-0.08539357,0.2152858
0.9391985,-0.1451265,0.23539
0.9538886,-0.1544994,0.2384914
0.9717138,-0.1655227,0.2331165
1.108735,-0.1828563,0.2655417
1.342532,-0.1794431,0.308863
1.474824,-0.1818833,0.3418785
1.528149,-0.205045,0.1956839
1.571934,-0.2732048,-0.02457039
1.442945,-0.4191689,-0.01397947
1.110089,-0.5120837,0.08884933
0.9715241,-0.3629868,0.07521603
1.113958,-0.1563074,-0.03940907
1.164281,-0.1315473,-0.1705377
1.139547,-0.1736634,-0.1447451
1.051837,-0.1966891,0.005828717
0.8151956,-0.2251111,0.1109709
0.664906,-0.2547932,0.1645171
0.6251045,-0.2843379,0.1041713
0.6068251,-0.278987,0.01784515
0.6416332,-0.2363678,0.03693171
0.7074118,-0.1560908,-0.008227287
0.8023779,-0.04937157,-0.06421496
0.8887829,0.03136898,-0.04468206
0.9293891,0.09326161,-0.0131053
0.9373661,0.1380817,0.09691257
0.926483,0.1632989,0.1528394
0.9262472,0.1666748,0.1188867
0.970524,0.1094251,0.1311177
1.045116,0.01933211,0.1522047
1.093944,-0.05188762,0.1981474
1.113561,-0.05859054,0.2351218
1.116926,0.04044173,0.2040856
1.148981,0.1173396,0.1501095
1.268724,-0.02908834,0.09988585
1.414306,-0.3047193,0.0693327
1.481949,-0.4186902,-0.01304508
1.406579,-0.3610121,-0.1452701
1.265427,-0.3449041,-0.1661678
1.218899,-0.3964679,-0.08254869
1.243859,-0.3768016,-0.04036609
1.265037,-0.2480028,-0.01001169
1.269643,-0.05461588,0.03550354
1.242798,0.07606538,-0.0350075
1.190235,0.0176557,-0.1200964
1.040699,-0.02269578,-0.04842091
0.7630763,0.01696238,0.02284213
0.5333363,-0.07333814,0.01372496
0.4774562,-0.1388133,0.06078787
0.4909365,-0.1417363,0.1355331
0.522676,-0.1836733,0.1562022
0.6335997,-0.1333965,0.1606648
0.7258433,-0.07364665,0.1593267
0.7678515,-0.04961283,0.158918
0.8466577,-0.03333576,0.1642451
0.9197971,-0.09307666,0.1696371
0.964276,-0.1533707,0.1869299
0.9961859,-0.2202254,0.2041322
1.143588,-0.2595903,0.2689033
1.453686,-0.2127301,0.3154055
1.621016,-0.2008587,0.1752186
1.622214,-0.2255142,-0.04140727
1.615347,-0.2470017,-0.08798681
1.352253,-0.2757992,0.08728622
0.9146107,-0.2912516,0.229112
0.860078,-0.2729259,0.1029718
1.143557,-0.2167609,-0.09880729
1.286109,-0.191625,-0.1719728
1.228802,-0.2091746,-0.1298205
1.07336,-0.2252411,-0.002384422
0.8728163,-0.2413462,0.07916594
0.7171127,-0.2652459,0.08741164
0.5679281,-0.2848875,0.1083879
0.4922486,-0.2561184,0.1008408
0.5679485,-0.2094577,0.06724193
0.6756864,-0.1423984,-0.0007786249
0.810648,-0.01543122,-0.09447926
0.8850618,0.03531205,-0.08763501
0.8414189,0.01945805,-0.02597138
0.8980535,0.0889493,0.0220971
0.9555084,0.1494452,0.1057601
0.9185951,0.157978,0.1363924
0.9747643,0.1842576,0.0966181
1.018991,0.1348476,0.1158433
1.02696,0.03848183,0.1467835
1.072969,0.0295552,0.1558688
1.069061,0.08418247,0.1896206
1.114971,0.1000987,0.1908834
1.261562,-0.07718071,0.1944738
1.425691,-0.3189493,0.165203
1.476181,-0.3233566,-0.01430527
1.37398,-0.2662594,-0.1828242
1.307721,-0.3383636,-0.1424624
1.264316,-0.3905694,0.03397952
1.273404,-0.3866047,0.1219655
1.358613,-0.2774645,0.07180619
1.294782,-0.04362372,-0.01269592
1.191238,0.07726988,-0.08360297
1.099445,0.04150841,-0.08063394
0.9154481,0.0006233187,-0.01983815
0.729928,-0.03493199,0.03566363
0.5325267,-0.04196625,0.07399206
0.4715674,-0.03851594,0.1007259
0.5564529,-0.08054578,0.1255119
0.6001616,-0.1036319,0.118987
0.7059929,-0.1085116,0.123146
0.7869896,-0.1158417,0.1542668
0.7846662,-0.1007532,0.1853228
0.8314807,-0.09709451,0.2177652
0.8852474,-0.1046374,0.1955023
0.9465153,-0.1083925,0.1822501
1.031575,-0.1154214,0.2091972
1.198549,-0.1354063,0.221474
1.340498,-0.1626998,0.2541729
1.33481,-0.1471292,0.2306726
1.496664,-0.1256307,0.1247636
1.706396,-0.1792758,0.05280379
1.541969,-0.3333017,0.07676943
1.190765,-0.5110899,0.1599377
0.9458259,-0.489873,0.174996
0.9769958,-0.3118399,0.09585211
1.14545,-0.1986845,-0.04003209
1.138924,-0.115686,-0.1318571
1.186722,-0.1096306,-0.07371137
1.207988,-0.1694664,-0.01538805
0.9809431,-0.1654359,0.0144323
0.8520243,-0.220572,0.08226337
0.7086827,-0.2628244,0.08999336
0.5720646,-0.2185055,0.09926884
0.6466392,-0.2082706,0.1097893
0.6689708,-0.1294916,0.03592547
0.7725716,-0.02735484,-0.0258235
0.8706429,0.01966063,-0.04164834
0.8267614,0.06910558,-0.01158129
0.8791283,0.07006038,0.05515896
0.899637,0.07553337,0.1152586
0.9715594,0.09018672,0.1623756
1.066386,0.06143455,0.1603874
1.034185,0.02732703,0.170975
1.058169,0.004854465,0.2141076
1.04682,0.03726133,0.2226825
1.034331,0.08726698,0.2465252
1.110912,0.07001082,0.2596251
1.228345,-0.05654885,0.2408343
1.38068,-0.2311268,0.1937798
1.379101,-0.2731556,0.01954002
1.318516,-0.2517151,-0.1794552
1.320515,-0.3024891,-0.2069545
1.286227,-0.3275587,-0.05889231
1.335571,-0.3196839,0.1097004
1.4054,-0.2386583,0.131341
1.328608,-0.03549072,0.05057826
1.209477,0.05711565,-0.02541975
1.088649,0.01182122,-0.05810551
0.9001291,-0.00685623,0.01402962
0.6700508,-0.02965129,0.09695296
0.5023889,-0.03783667,0.07274835
0.4645091,-0.04128733,0.06941639
0.4986153,-0.08635141,0.1237941
0.6140095,-0.108911,0.1342227
0.8018593,-0.1303822,0.1598291
0.8251138,-0.1366771,0.1866443
0.768593,-0.09953246,0.1750094
0.8492039,-0.09078304,0.2097108
0.8682923,-0.09311189,0.212637
0.8734775,-0.1140376,0.1860118
1.019413,-0.1766544,0.21982
1.130086,-0.1979325,0.2266132
1.213541,-0.1604602,0.2598436
1.319859,-0.06738422,0.3872728
1.372403,0.02640848,0.4416993
1.445217,-0.02323643,0.2215269
1.523968,-0.2008841,-0.07851776
1.380493,-0.4758181,-0.01255257
1.068492,-0.705014,0.1608127
0.9346317,-0.5596491,0.1144682
1.03477,-0.2892836,0.06006775
1.164039,-0.2233694,-0.04030068
1.174316,-0.1189155,-0.06751135
1.115576,-0.06354037,0.02962054
1.01733,-0.133192,0.009637532
0.7950034,-0.1387507,0.07428651
0.6368043,-0.2293251,0.1249878
0.5978708,-0.2756981,0.0578389
0.5840017,-0.196056,0.1002272
0.7016078,-0.1622973,0.04644963
0.8151613,-0.04760303,-0.03665507
0.8367974,0.03370258,-0.005101939
0.870895,0.06189205,0.0130645
0.8977024,0.1714877,0.0973173
0.9048829,0.2110975,0.1632374
0.906196,0.2257975,0.1629331
0.9450088,0.1874397,0.1555949
1.000119,0.05051472,0.1388442
1.056902,-0.03260919,0.1832847
1.107476,-0.06808438,0.2229357
1.108792,-0.0141663,0.2329365
1.200454,0.02674035,0.2234614
1.397795,-0.1244092,0.1861726
1.523082,-0.2909714,0.1359138
1.505567,-0.3454093,-0.03635238
1.396734,-0.3634358,-0.1886919
1.28943,-0.3788652,-0.09997331
1.220105,-0.3143838,0.06397515
1.236885,-0.1412294,0.1341923
1.256042,0.01968985,0.1201692
1.209579,0.08465183,0.004866684
1.195887,0.03391023,-0.100057
1.068611,-0.03104188,-0.03438907
0.8005076,-0.0332364,0.05298563
0.6144362,-0.05911635,0.07402385
0.4998362,-0.08693508,0.1336097
0.4226361,-0.1115468,0.1781928
0.421444,-0.1374114,0.1861097
0.4889594,-0.1190641,0.1833348
0.6396953,-0.1174566,0.166505
0.8490983,-0.08149697,0.1641597
0.9166661,-0.02876754,0.1676053
0.8322644,-0.05874326,0.1817281
0.8788513,-0.1157797,0.1859686
0.9500192,-0.1969405,0.2060017
0.9976456,-0.2199901,0.2756458
1.177918,-0.1455824,0.3019986
1.282828,-0.08261178,0.281789
1.334557,0.002394951,0.2636424
1.378004,0.03422601,0.2253294
1.396973,-0.1325767,0.1476065
1.476141,-0.3909478,0.07894535
1.256351,-0.5050846,0.1057989
0.8482424,-0.4191792,0.1355285
0.7872873,-0.3236553,0.08486871
1.04504,-0.2473775,0.04545079
1.342269,-0.1691889,0.002900213
1.357045,-0.1999911,-0.0368455
1.13714,-0.2113839,0.008541201
0.9152254,-0.1735087,0.07875001
0.6874516,-0.212373,0.1201768
0.5645356,-0.2111169,0.125399
0.537234,-0.1828907,0.1023921
0.5786916,-0.162605,0.09190426
0.7184752,-0.07167786,0.0315343
0.8156975,-0.0167913,-0.03921673
0.872828,0.01260707,-0.003959587
0.8860162,0.06465814,0.03757278
0.8787069,0.1078146,0.08232668
0.9213189,0.1914461,0.1841922
0.9168547,0.2104949,0.1882674
0.9389812,0.1493678,0.130356
1.024661,0.1072915,0.1543377
1.081753,0.003536139,0.1934742
1.140294,-0.06359465,0.2441358
1.156764,0.02845942,0.2887719
1.190766,0.06813219,0.2527912
1.330657,-0.06118747,0.2455455
1.418752,-0.2043616,0.2313612
1.393642,-0.24133,0.04222509
1.357832,-0.2395269,-0.212999
1.297086,-0.3055099,-0.2685876
1.185746,-0.3510475,-0.05874182
1.171944,-0.271024,0.1377367
1.242211,-0.1416337,0.1682526
1.235313,-0.02938234,0.1408561
1.226241,0.01747271,0.04262038
1.178563,0.0005777239,-0.0511517
0.9705944,0.02821569,-0.02120662
0.7372192,0.04624779,0.02885436
0.5847256,-0.01153013,0.0344724
0.5347274,-0.05091064,0.08764169
0.5320394,-0.08493939,0.1828629
0.5378758,-0.1181416,0.1937623
0.6246699,-0.09901025,0.1596148
0.7268133,-0.06095389,0.1568055
0.7915379,-0.01028514,0.1602806
0.8274302,-0.0004532,0.17856
0.8478555,-0.07528738,0.2062107
0.9117744,-0.1578942,0.23714
1.000188,-0.1971028,0.2513149
1.205367,-0.1681662,0.2720762
1.452677,-0.1008865,0.3026613
1.488413,-0.0776706,0.2245915
1.549511,-0.1873711,0.0759532
1.667542,-0.4203225,0.01373003
1.370831,-0.5160056,0.1290559
0.8794693,-0.3782847,0.2446122
0.7737891,-0.211848,0.07743404
0.970803,-0.08499045,-0.1227755
1.102489,-0.03626749,-0.1145202
1.081292,-0.1241849,-0.08801286
1.105095,-0.2087731,-0.05501196
1.10955,-0.2110131,0.01242702
0.8501902,-0.2406802,0.07411774
0.611094,-0.2930689,0.148565
0.613698,-0.275538,0.1420691
0.662769,-0.2167568,0.09425226
0.6599094,-0.1311106,0.08416226
0.6650236,-0.03213309,0.0258274
0.7669146,0.01385771,-0.02861187
0.8511228,0.06765198,-0.03516762
0.85819,0.1102035,-0.01179922
0.8860162,0.0830496,0.1137387
0.9326275,0.1449372,0.1957701
0.9862084,0.2209491,0.1363371
1.001525,0.1467907,0.1239702
1.041444,0.07745837,0.1638647
1.078939,0.0483114,0.1956054
1.036042,0.04322839,0.2481501
1.054208,0.09752792,0.2714202
1.115264,0.07868822,0.258205
1.271657,-0.07025295,0.220579
1.46095,-0.2508518,0.1290344
1.398514,-0.2864052,-0.01513425
1.285857,-0.2543243,-0.1562546
1.273643,-0.3387436,-0.1975377
1.256552,-0.3313398,-0.04246801
1.321564,-0.2432493,0.1898243
1.384961,-0.1847799,0.2044372
1.317766,-0.0007265018,0.06877533
1.22844,0.1267113,-0.02752609
1.126849,0.09438734,-0.08895869
0.9398909,0.05203513,-0.003955478
0.7089655,0.002539936,0.1245904
0.5312889,-0.01586209,0.1201603
0.4943368,-0.03467004,0.1242797
0.5371354,-0.07288636,0.1336763
0.6208694,-0.09037384,0.1040856
0.8038605,-0.1198573,0.1062702
0.9223542,-0.1302384,0.1253703
0.9020713,-0.1356417,0.1865714
0.8791576,-0.1425365,0.2436429
0.8423973,-0.1300964,0.2304215
0.8147191,-0.1332009,0.2264145
0.8621104,-0.1274942,0.2395872
0.9702616,-0.1200358,0.22913
1.163354,-0.1151561,0.2419537
1.330179,-0.05244591,0.314714
1.328373,0.07167845,0.3559049
1.340652,0.1257578,0.2184354
1.452176,-0.07397962,-0.003254326
1.426308,-0.4416712,-0.02585689
1.21737,-0.6296397,0.1376666
0.9406249,-0.4867946,0.2038875
0.8378875,-0.2671673,0.05709396
1.053929,-0.1694425,-0.133682
1.212004,-0.1183638,-0.1374722
1.183699,-0.1491955,-0.01352309
1.083394,-0.2163194,0.08934538
0.8436478,-0.2259505,0.1674408
0.6781596,-0.2632072,0.145818
0.6273059,-0.2289782,0.1046319
0.5910698,-0.1449747,0.1184908
0.6780694,-0.09599283,0.05160506
0.8022967,0.005782762,-0.01986925
0.8986319,0.04205426,-0.0261256
0.9339628,0.06862685,0.03571669
0.9053102,0.1580897,0.1630476
0.9160719,0.1993531,0.1931395
0.9235863,0.2463701,0.168404
0.9451595,0.2335862,0.1565379
1.00106,0.1780701,0.1190937
1.052887,0.09582945,0.1450747
1.117834,-0.04849933,0.1780773
1.123944,-0.006026034,0.1692309
1.107895,0.07305904,0.2067603
1.181137,-0.03539501,0.2574669
1.302711,-0.1551417,0.2436337
1.401713,-0.2935619,0.1032705
1.387708,-0.3259014,-0.1188288
1.273459,-0.2279674,-0.2383616
1.185851,-0.2724298,-0.1944746
1.142343,-0.29092,-0.04000998
1.191628,-0.2294945,0.1505243
1.27315,-0.1731784,0.1804676
1.232214,0.03344062,0.0481217
1.192587,0.1238365,-0.03894229
1.143001,0.02821123,-0.08827887
0.964155,0.01555017,-0.03346144
0.7365907,-0.0199117,0.1065755
0.5471567,-0.052031,0.091963
0.5450987,-0.04578365,0.08557625
0.6347936,-0.1055754,0.1433902
0.6911801,-0.1414957,0.1164277
0.826695,-0.1455409,0.1287406
0.8726156,-0.1287882,0.1424502
0.8206311,-0.08760201,0.1682677
0.8430626,-0.0763684,0.2485254
0.8546384,-0.07628619,0.2408313
0.8938699,-0.1031382,0.2285213
0.9702489,-0.1545218,0.2472497
1.029615,-0.1776026,0.2527827
1.145807,-0.1709889,0.275087
1.306714,-0.1152387,0.2607209
1.460615,-0.03353568,0.2207414
1.506901,-0.05306447,0.1274624
1.44695,-0.2097592,0.003950446
1.372474,-0.3954609,0.02700982
1.135003,-0.4868059,0.1738816
0.8898749,-0.4427744,0.2417242
0.9482611,-0.3275952,0.08043575
1.054753,-0.1791168,-0.1642771
1.118672,-0.09088058,-0.1890357
1.190773,-0.1387893,-0.08493572
1.055524,-0.1799242,-0.002831861
0.8502899,-0.2233616,0.1301005
0.7187665,-0.2937648,0.1629091
0.633013,-0.2709161,0.09203326
0.6582276,-0.2349033,0.0982629
0.7234265,-0.1641619,0.03997723
0.8224861,-0.04199472,-0.06162017
0.9064409,0.01132259,-0.05625235
0.9046642,0.06964677,-0.00560095
0.9227207,0.1205505,0.09690667
0.9262814,0.1464659,0.1876124
0.926987,0.1959697,0.1920601
0.9736837,0.193705,0.1728358
0.9944266,0.1515225,0.1555575
1.026333,0.0772999,0.1675197
1.059905,-0.00115445,0.1878752
1.056789,-0.007499468,0.1969032
1.081082,-0.0007107359,0.2045389
1.197539,-0.04720962,0.1993175
1.37287,-0.1726166,0.1847689
1.416058,-0.3019638,0.04370659
1.338947,-0.3271996,-0.184273
1.299499,-0.3241755,-0.2045984
1.238909,-0.3595195,-0.01506662
1.217993,-0.3599082,0.1380626
1.2922,-0.2774899,0.151081
1.288346,-0.1073204,0.08171083
1.222343,0.09145193,-0.009140249
1.161579,0.1381063,-0.09150377
1.059209,0.01755749,-0.06359426
0.8665552,-0.06330215,0.05461492
0.6059474,-0.05668794,0.1205136
0.5045493,-0.05932371,0.1505997
0.5539042,-0.09264939,0.1537782
0.6160431,-0.1166155,0.1319639
0.7730344,-0.1209254,0.1246506
0.8589001,-0.1143582,0.09299429
0.820453,-0.08998195,0.1413079
0.8439924,-0.07675989,0.254604
0.8608839,-0.07841526,0.2599941
0.8757598,-0.1013039,0.2274349
0.9348362,-0.1693114,0.1875386
1.045117,-0.2226615,0.1684358
1.253177,-0.220548,0.2585622
1.388279,-0.1369564,0.3503435
1.384651,-0.01294502,0.3212376
1.413227,-0.01572762,0.1482671
1.437146,-0.1867172,0.008345107
1.282724,-0.4288745,0.06731029
1.042289,-0.5432023,0.1291704
0.9432872,-0.3802001,0.05154248
1.01974,-0.1760162,-0.04985905
1.148857,-0.1289866,-0.152685
1.209993,-0.1139727,-0.2054948
1.19589,-0.1219365,-0.1033449
1.040642,-0.1837816,0.03419512
0.7880742,-0.2395198,0.1485284
0.7048751,-0.2749442,0.1767557
0.6859183,-0.2620033,0.1026417
0.6215535,-0.2283218,0.1435661
0.6984753,-0.1576944,0.1128272
0.8263085,-0.03200334,-0.0263598
0.8888461,0.03684604,-0.01211868
0.9314418,0.08033234,-0.01565499
0.9345361,0.115397,0.001809851
0.908372,0.1060611,0.1086397
0.8990438,0.1423414,0.1742545
0.9013435,0.1731712,0.1887674
0.9229281,0.1436652,0.1260956
0.995659,0.1114132,0.1419981
1.043348,0.08102655,0.1632903
1.021277,0.09188473,0.1186428
1.005728,0.1427979,0.1523726
1.025242,0.156506,0.1340409
1.103384,0.07652563,0.1649985
1.266918,-0.1080378,0.2414333
1.395288,-0.2438969,0.1731469
1.372575,-0.2169873,0.03138818
1.334632,-0.2254478,-0.2078989
1.318829,-0.3572281,-0.2822034
1.213289,-0.424174,-0.01001028
1.162415,-0.3836713,0.2346695
1.195083,-0.2489842,0.2540882
1.183116,-0.03161322,0.1224365
1.189371,0.0901223,-0.02406587
1.184589,0.05783768,-0.08861497
1.0769,0.004994083,-0.01937965
0.8779114,-0.01907543,0.1049744
0.676896,-0.06580854,0.1173627
0.6025454,-0.1130562,0.1376341
0.6168231,-0.1212898,0.177226
1.222372,-0.2132243,-0.08989608
1.066729,-0.2410576,0.05727362
0.9038036,-0.2555529,0.1414154
0.8401439,-0.2343693,0.1622033
0.7430042,-0.1949534,0.1036491
0.7902432,-0.1711286,0.07242306
0.877698,-0.1236408,0.04837398
0.8766138,-0.0776208,-0.02033266
0.9207956,-0.05028862,0.01084576
0.9523002,-0.01756966,0.07736674
0.9677171,0.006018104,0.1146366
0.9607766,0.03876571,0.1539859
0.9045891,0.08591654,0.1369871
0.9009577,0.1207446,0.1130514
0.9326834,0.10584,0.07686664
0.9815685,0.04032727,0.06601819
1.017982,-0.04102487,0.1253546
1.001517,-0.1131068,0.1429122
1.009224,-0.1249007,0.1448903
1.028995,-0.09986201,0.1303721
1.068599,-0.05651272,0.1071374
1.171956,-0.01451408,0.1702597
1.25405,-0.09744343,0.2617379
1.271646,-0.2048641,0.2971309
1.265992,-0.1826292,0.1545935
1.297623,-0.1655913,-0.1189841
1.331511,-0.2296698,-0.2516748
1.262033,-0.3109719,-0.2107676
1.124406,-0.3725788,-0.08999273
0.9988504,-0.3300248,0.05557576
0.9427948,-0.1922083,0.133039
0.9832816,-0.08623669,0.1207544
1.076889,-0.05078226,0.07379534
1.167378,-0.07673768,0.02788974
1.130227,-0.08067201,-0.006072125
0.9808647,-0.04026167,0.008888555
0.8630739,-0.05657323,0.07448279
0.7618507,-0.06748898,0.1530596
0.7400174,-0.07833986,0.1821382
0.78773,-0.1269741,0.1533962
0.7698328,-0.1104853,0.1716495
0.782364,-0.08368617,0.1891649
0.8165005,-0.07122399,0.1685394
0.8250544,-0.05774012,0.1990142
0.8586017,-0.06790594,0.2300863
0.8372501,-0.04960612,0.2489853
0.8301129,-0.06432794,0.2527865
0.8898845,-0.1245259,0.2314886
0.9244879,-0.1629894,0.2465201
0.9753038,-0.1718263,0.2440177
1.118553,-0.1361294,0.253656
1.271601,-0.06888913,0.3361648
1.277739,0.01945916,0.3633267
1.383436,-0.004348297,0.2190955
1.60468,-0.1868469,0.04770825
1.405713,-0.3903981,0.09666436
1.102524,-0.5304628,0.1584513
1.014944,-0.4109012,0.06996867
0.754994,-0.1962152,0.05658288
0.7285609,-0.1992095,0.008762291
1.012145,-0.2076716,-0.0965063
1.085931,-0.2062929,-0.1119638
1.199124,-0.240198,-0.1075342
1.136596,-0.2316412,0.02431418
0.8093432,-0.2880969,0.1651485
0.7660371,-0.2798615,0.1340773
0.7318488,-0.2188752,0.09630069
0.7458915,-0.1965757,0.05200492
0.9334229,-0.128778,0.00859904
0.922182,-0.1081853,-0.004735838
0.953025,-0.07693196,-0.01223777
0.9778639,-0.02348697,0.02686771
0.9132773,0.007252746,0.06583259
0.9477526,0.09302667,0.1197495
0.9040619,0.1168388,0.1363685
0.9240074,0.1271316,0.09986459
0.9825721,0.1624202,0.1128914
0.9705405,0.09449088,0.1124142
1.02095,0.01282608,0.1192654
0.9949112,-0.03500853,0.1403321
0.9956523,-0.03727908,0.1184052
1.079245,-0.01401228,0.1256063
1.151897,-0.06898275,0.1662898
1.268886,-0.1489269,0.2158939
1.321353,-0.1940412,0.2228912
1.314823,-0.1586432,0.1420325
1.304447,-0.09945362,-0.005752912
1.290725,-0.1780622,-0.1719977
1.239029,-0.2907046,-0.1712829
1.101895,-0.3262423,0.009669414
1.040212,-0.26581,0.1580513
1.034724,-0.1058481,0.182657
1.017664,-0.03775852,0.08655185
1.049832,-0.06507286,0.0157452
1.043571,-0.07062998,0.04777227
0.9927538,-0.08446252,0.04474571
0.9046646,-0.06878983,0.04580845
0.79797,-0.04951766,0.1153045
0.7612469,-0.05393365,0.164982
0.7621307,-0.06850008,0.1729039
0.8064107,-0.1158487,0.159643
0.8622643,-0.1271069,0.1621017
0.8566353,-0.1143933,0.1780071
0.835521,-0.1066764,0.195292
0.8160947,-0.07927484,0.2290325
0.8085329,-0.06801295,0.2226842
0.844617,-0.06928303,0.1954893
0.9114542,-0.09536507,0.1872405
0.989302,-0.133318,0.1651472
1.103461,-0.1330814,0.1748667
1.230085,-0.1180505,0.2265155
1.246909,-0.065941,0.2826254
1.21833,0.05888841,0.3139497
1.292597,0.1288267,0.2580621
1.379183,-0.01319623,0.1473762
1.353991,-0.2853421,0.1000846
1.182613,-0.5038958,0.2256141
0.9529791,-0.5480878,0.3650496
0.8558778,-0.371494,0.201196
0.8646141,-0.1613366,-0.06963219
0.9264797,-0.08721936,-0.1801032
1.101433,-0.105408,-0.2132761
1.169961,-0.18972,-0.08624137
1.010316,-0.2814292,0.1240639
0.8487044,-0.2991629,0.1858137
0.7691652,-0.2582366,0.1556484
0.7738336,-0.2085488,0.09416346
0.8399167,-0.1493878,0.04551
0.8877059,-0.06490581,0.01965392
0.9304844,-0.02762099,0.01001415
0.9474776,-0.02788367,0.03578767
0.9492087,0.0003931993,0.05755514
0.9437076,0.03669072,0.126451
0.9062124,0.09337287,0.1502938
0.9111351,0.1236027,0.1016031
0.9397521,0.1073009,0.1177053
0.9729461,0.1080738,0.0907927
1.024379,0.06952609,0.0698311
1.031448,-0.01248496,0.116746
1.031269,-0.05052655,0.1278522
1.045217,-0.03468076,0.1546625
1.060599,0.02127603,0.1440642
1.12108,0.06467572,0.1214273
1.208401,-0.008284829,0.1715115
1.260457,-0.1260544,0.196722
1.251233,-0.1237955,0.1742875
1.243397,-0.09818,0.03731967
1.24915,-0.1556258,-0.1935786
1.210804,-0.262984,-0.2465534
1.136583,-0.4000533,-0.03272332
1.041463,-0.3965455,0.2019986
1.010391,-0.2259697,0.2286367
1.067153,-0.07205219,0.1249273
1.121162,0.006907332,0.04015593
1.18493,-0.03487527,-0.002266416
1.176629,-0.07475913,-0.006715463
1.023918,-0.03154436,-0.001955524
0.8408653,-0.05893022,0.04388642
0.7077535,-0.06989395,0.1388028
0.6940327,-0.06027989,0.174007
0.726035,-0.11687,0.1685527
0.7303794,-0.1107029,0.1762397
0.8115029,-0.1078132,0.1546157
0.8704558,-0.12848,0.1609843
0.8582564,-0.09785914,0.2034372
0.8626812,-0.09781931,0.2168929
0.8486898,-0.1029858,0.228118
0.8892733,-0.115343,0.2154767
0.9744808,-0.1528401,0.1913701
1.062404,-0.1642085,0.1922969
1.213088,-0.1564235,0.2160671
1.273037,-0.09528877,0.2904238
1.251451,-0.04318576,0.288001
1.363513,-0.1240344,0.143106
1.487512,-0.2731661,0.03002772
1.409755,-0.3460357,0.07951488
1.188945,-0.3416985,0.2206472
0.9503499,-0.351553,0.2538671
0.8173618,-0.3101775,0.1240844
0.8782445,-0.1933902,-0.08921806
0.969181,-0.166022,-0.2153616
1.027424,-0.2140981,-0.1646903
1.080235,-0.2270468,-0.05908081
0.9880066,-0.2386335,0.09364229
0.8880352,-0.2252654,0.1500998
0.8492132,-0.1595279,0.06447215
0.7913863,-0.1185472,0.08248653
0.85154,-0.09433337,0.06276109
0.9094483,-0.04941742,-0.0245347
0.8984616,-0.008795233,-0.01475118
0.9191546,-0.000497244,0.003471615
0.9061811,-0.01420143,0.06207919
0.9117227,0.006648421,0.1313891
0.922438,0.04666637,0.1386741
0.9281117,0.07299931,0.1182327
0.982632,0.08073798,0.07316702
1.006953,0.0411128,0.06983059
1.019338,-0.01670794,0.09054044
1.018391,-0.05956443,0.1182953
1.007945,-0.05967773,0.1591717
1.044347,-0.0523399,0.1826701
1.078389,-0.1181316,0.2494179
1.122407,-0.1816017,0.2905233
1.206624,-0.1866306,0.2144039
1.312432,-0.1402322,0.07103216
1.357529,-0.08101158,-0.08862707
1.285694,-0.1204953,-0.1694333
1.206782,-0.2184833,-0.1219657
1.127785,-0.2806853,0.004000538
1.044115,-0.2314371,0.1398488
1.046934,-0.07883909,0.1778356
1.076902,-0.007646957,0.1163762
1.122215,-0.01984483,0.07900853
1.18653,-0.04536619,0.03170681
1.15491,-0.07806842,-0.03816834
1.072046,-0.06100965,-0.02023195
0.9398697,-0.06134394,0.01181065
0.7247012,-0.08196018,0.04395772
0.6894472,-0.08936004,0.09517335
0.7929825,-0.1469785,0.104676
0.7559382,-0.1982687,0.1532302
0.763902,-0.1932132,0.163566
0.8387524,-0.1604558,0.1328725
0.8372039,-0.1294728,0.1952688
0.8819091,-0.09299684,0.2094108
0.8841545,-0.06447169,0.1755655
0.8733307,-0.1027995,0.176282
0.9389543,-0.142888,0.1738367
0.961359,-0.1647362,0.1888454
1.096408,-0.2017522,0.1903989
1.317159,-0.2248978,0.2215226
1.401612,-0.2329525,0.2649643
1.422138,-0.1763534,0.2087555
1.439252,-0.1448209,0.1423865
1.313018,-0.2568526,0.1477442
0.999214,-0.3580197,0.2068702
0.8370137,-0.3266744,0.2313576
0.8762212,-0.2236644,0.07806292
0.92442,-0.1370024,-0.1475429
1.095128,-0.1049875,-0.1962679
1.182307,-0.1591058,-0.1120344
1.080433,-0.2435629,-0.01591338
0.9994752,-0.2613281,0.1480802
0.9025929,-0.2653059,0.2253532
0.8325037,-0.2305667,0.1293512
0.780323,-0.1550538,0.09416951
0.7770539,-0.1287064,0.07358571
0.9017661,-0.07734296,0.003641674
0.9476122,-0.005773065,-0.005920829
0.9207448,0.01049505,-0.007663515
0.9203949,0.004528794,0.02449416
0.9153047,0.03219418,0.06291476
0.9292301,0.08140392,0.06251952
0.9431556,0.09489636,0.1025329
0.985579,0.08715134,0.09774482
1.016142,0.04681262,0.07919436
0.9984491,0.01045431,0.1130252
1.017097,-0.01797043,0.1269859
1.029948,-0.08931806,0.1587732
1.03322,-0.07550174,0.1645018
1.099082,-0.04777144,0.1622086
1.225619,-0.101888,0.2399434
1.309639,-0.1023305,0.2732279
1.253793,-0.09656402,0.207704
1.221658,-0.117145,0.06791733
1.282293,-0.1583991,-0.1437354
1.271506,-0.2901161,-0.2547432
1.181987,-0.4271652,-0.08659918
1.072845,-0.4406956,0.185808
1.027135,-0.2952813,0.2563208
1.070231,-0.09048533,0.1527558
1.082509,0.03553513,0.04349316
1.087376,0.03529706,0.001695378
1.085021,-0.01834249,0.01794325
0.9806062,-0.02258816,0.03114637
0.8382855,-0.0359219,0.08544861
0.7285132,-0.06518395,0.1573416
0.7044689,-0.08184328,0.1574262
0.7566773,-0.1412138,0.1472104
0.7854233,-0.1572173,0.1593103
0.827035,-0.134763,0.1656968
0.8745131,-0.1399795,0.187106
0.8630212,-0.1141063,0.2457086
0.8565506,-0.08964016,0.2740432
0.8733449,-0.08559067,0.2337339
0.8905556,-0.09585739,0.214194
0.9536292,-0.1293304,0.2075149
1.072722,-0.1498145,0.1694918
1.168024,-0.1535672,0.1627224
1.205378,-0.1048279,0.2313978
1.215747,0.01218884,0.3218564
1.249031,0.08952631,0.3081505
1.390258,-0.04379738,0.165049
1.506132,-0.3381015,0.0482274
1.3407,-0.4956795,0.09559091
0.9985643,-0.450019,0.158789
0.8112032,-0.3098279,0.08442481
0.8791756,-0.1648256,0.00535426
1.027489,-0.1376389,-0.05772176
1.110988,-0.181733,-0.06788398
1.095776,-0.1985618,0.05703706
0.9580499,-0.2091721,0.1225468
0.7887116,-0.2126286,0.117254
0.7260648,-0.1917501,0.09977795
0.7596287,-0.1747738,0.04715794
0.8104232,-0.1526741,0.06378488
0.8697964,-0.1068332,0.05170757
0.9395258,-0.07778176,0.01933853
0.9679266,-0.01962592,0.06568724
0.9626843,0.07972519,0.09198625
0.9522508,0.1355668,0.1394886
0.932682,0.1554219,0.1688628
0.9497648,0.1400811,0.1418591
0.9730074,0.1073349,0.1521162
0.9704115,0.06757138,0.1573022
1.00165,0.004886362,0.1633998
1.031246,-0.01287267,0.1738152
1.056539,-0.01064076,0.1734987
1.122117,-0.02379882,0.1992603
1.157024,-0.02659935,0.2276029
1.149821,-0.04464196,0.2672016
1.172809,-0.07984336,0.2975019
1.210739,-0.1333705,0.2238563
1.238487,-0.1739926,0.02451272
1.278147,-0.1809011,-0.1899178
1.27601,-0.2258762,-0.2551663
1.217659,-0.3030458,-0.09412598
1.161326,-0.2938093,0.1207574
1.112715,-0.1679493,0.1407732
1.113922,-0.02551117,0.07273218
1.130396,0.03876531,0.04870048
1.09653,-0.02219616,0.009761102
1.035835,-0.0802478,0.02824801
0.9172283,-0.03648868,0.06318674
0.815342,-0.03856944,0.04598897
0.7633852,-0.06084688,0.07640787
0.694921,-0.07460988,0.1229296
0.7279725,-0.1510378,0.1424298
0.8147445,-0.1536982,0.1542697
0.8272267,-0.1237595,0.1560657
0.8316348,-0.138551,0.1850408
0.8227616,-0.1099142,0.2251298
0.8264784,-0.08779203,0.2265442
0.8445659,-0.08666077,0.2001573
0.8557723,-0.1144562,0.186289
0.9731349,-0.1877399,0.1898645
1.117653,-0.2198822,0.1764824
1.166632,-0.2031857,0.1759016
1.185321,-0.1171889,0.2592794
1.234593,0.04814813,0.3432277
1.350212,0.1183508,0.2629332
1.444315,-0.04023121,0.09194128
1.373716,-0.3118766,0.04454976
1.14653,-0.4872336,0.1745602
0.8617688,-0.4692616,0.293366
0.7337476,-0.3076591,0.1526194
0.9180659,-0.152054,-0.07310501
1.147646,-0.1081582,-0.1041476
1.197221,-0.1568508,-0.06965692
1.173817,-0.1844362,-0.003510809
1.018917,-0.1463166,0.1194914
0.7953094,-0.1496312,0.1562849
0.7285236,-0.1710884,0.1100488
0.7537597,-0.1565641,0.05396525
0.8076218,-0.1479938,0.04515606
0.8600143,-0.1009551,0.04209139
0.8805456,-0.05581373,0.01996088
0.8925456,-0.04530329,0.04258934
0.8931987,-0.02355723,0.04724058
0.9077981,0.02454784,0.0754698
0.9042527,0.1231905,0.1349507
0.9043044,0.1411662,0.124696
0.9183905,0.09367958,0.1134445
0.9301466,0.1132888,0.105294
0.9901596,0.05982991,0.0930118
1.031458,-0.04656795,0.1340897
1.057334,-0.06973902,0.1826052
1.094226,-0.0397027,0.1869175
1.127153,0.00861372,0.1983153
1.189679,0.0115826,0.2763869
1.211144,-0.01475069,0.3138081
1.222012,-0.02637515,0.2343206
1.269822,-0.03418905,0.06680079
1.312548,-0.0565371,-0.1767675
1.346842,-0.2034135,-0.3134025
1.279618,-0.4155838,-0.1780856
1.13355,-0.4638178,0.06004904
1.026459,-0.3450889,0.1845983
0.9842321,-0.2165085,0.178626
1.041302,-0.1367005,0.08322813
1.123394,-0.09326093,0.002399053
1.13747,-0.07199847,0.008301982
1.060524,-0.05330827,0.0266716
0.8874906,-0.06457879,0.06381722
0.7452106,-0.06341634,0.1119141
0.6968958,-0.04560669,0.139566
0.6935781,-0.0898939,0.1753702
0.7168669,-0.09865248,0.1721517
0.7300429,-0.08572913,0.1679276
0.7653705,-0.09442528,0.1853608
0.8081169,-0.06524152,0.1906029
0.8138352,-0.09499578,0.2155207
0.8531499,-0.143556,0.2271109
0.8905766,-0.159755,0.2277731
0.9521729,-0.1657233,0.2017231
1.123651,-0.1362318,0.1549429
1.26109,-0.1396832,0.1979964
1.294976,-0.09608964,0.2725162
1.33095,-0.04227252,0.2692023
1.433352,-0.1466341,0.1707518
1.48238,-0.29117,0.07748852
1.277104,-0.3802962,0.1715731
0.9519916,-0.3995786,0.2819259
0.8029027,-0.3254865,0.1814526
0.8489921,-0.2052156,0.03932275
0.9666274,-0.1178633,-0.08273026
1.113942,-0.1199674,-0.1534065
1.202305,-0.1574748,-0.06346183
1.10226,-0.1960581,0.01019143
0.9309316,-0.2362692,0.06534862
0.8049515,-0.2497402,0.1429298
0.7237431,-0.2460163,0.1087364
0.7652832,-0.2180281,0.09575926
0.8265918,-0.1558663,0.0721688
0.8641811,-0.07467402,-0.009813436
0.9345659,-0.006028207,0.01060356
0.9143291,0.03728478,0.0409011
0.8886777,0.07604919,0.08216557
0.9056046,0.09941127,0.1365382
0.8859231,0.1024258,0.1170776
0.9197711,0.0863898,0.1247314
0.9590143,0.0570011,0.1356845
0.9997492,0.02929637,0.1351632
1.057441,0.003549664,0.1558308
1.047808,0.01246974,0.1578192
1.079846,0.04032198,0.1811068
1.147838,0.03929834,0.2065822
1.167412,0.01665376,0.2192317
1.199957,-0.04974762,0.2316892
1.242043,-0.1452951,0.1928451
1.268823,-0.1924688,0.05786014
1.273577,-0.2012231,-0.1554618
1.237875,-0.2564708,-0.2497378
1.163862,-0.3334629,-0.1080856
1.108917,-0.3082076,0.07966872
1.114044,-0.2077533,0.1607286
1.13045,-0.09633663,0.1595022
1.138191,-0.008100561,0.1190715
1.129756,-0.04679883,0.0578466
1.099958,-0.08191855,-0.008700548
1.045956,-0.02850683,0.0007884315
0.9133586,-0.03361399,0.0830738
0.7621,-0.01973402,0.100825
0.7118314,-0.003602166,0.1076803
0.6962055,-0.06630304,0.1467834
0.6881969,-0.09780343,0.1385738
0.7747275,-0.1350609,0.1414208
0.8233002,-0.145783,0.1534026
0.8113562,-0.1142934,0.176058
0.864101,-0.1316613,0.2220731
0.8582015,-0.1164085,0.2181167
0.854897,-0.1167794,0.2145295
0.9428287,-0.1647978,0.212688
1.00957,-0.1743764,0.1910533
1.108641,-0.1770203,0.1898156
1.206971,-0.1446567,0.2035839
1.239009,-0.05769018,0.2752206
1.262104,0.06205491,0.3354972
1.403013,0.08833577,0.2374606
1.575839,-0.1346414,0.07308757
1.36633,-0.4275497,0.06719489
1.004754,-0.5476643,0.2226697
0.9134419,-0.4551259,0.3002679
0.8910509,-0.2761232,0.1200478
0.9127386,-0.1301393,-0.1417237
1.018267,-0.06523617,-0.1518112
1.136753,-0.1531893,-0.04914802
1.227098,-0.1984611,-0.02240021
1.074436,-0.1538615,0.08973752
0.8241066,-0.2052397,0.1686038
0.7571405,-0.2017837,0.1188834
0.7799634,-0.1636892,0.1004374
0.8204455,-0.1479349,0.08477773
0.8447137,-0.07491308,0.04093552
0.8649289,-0.05837383,0.01313638
0.9130247,-0.01688645,0.00365109
0.9107414,0.03021181,0.01743459
0.9040706,0.02324419,0.07523208
0.9088542,0.1001397,0.130509
0.8923396,0.1459321,0.1308607
0.9305563,0.1478328,0.138207
0.990715,0.1521508,0.1382561
1.017736,0.08296157,0.1344672
1.029386,0.02402053,0.1720236
1.032751,0.004192457,0.1896498
1.052152,0.02667105,0.1868225
1.115054,0.0416472,0.187345
1.225,-0.04650685,0.2186521
1.302848,-0.1546359,0.2381046
1.307004,-0.2138992,0.1163401
1.326966,-0.2204932,-0.09889025
1.339659,-0.2716234,-0.2207501
1.244334,-0.3932381,-0.1301119
1.119222,-0.3920329,0.0479363
1.076379,-0.2854326,0.1534574
1.082254,-0.1575763,0.1529279
1.085394,-0.02591858,0.03891189
1.096086,-0.01523035,-0.01651217
1.096461,-0.05795831,0.01319012
1.0135,-0.05511833,0.01575987
0.8532435,-0.06342217,0.07079349
0.7249089,-0.06783253,0.1256201
0.6887623,-0.06725326,0.1347156
0.7176842,-0.0878136,0.1336988
0.755108,-0.1191273,0.1164594
0.7781871,-0.1388511,0.1334514
0.8145038,-0.131524,0.1384871
0.8766285,-0.1333282,0.1494099
0.9129892,-0.1310528,0.1929793
0.8682768,-0.09150448,0.2358152
0.8261401,-0.059136,0.2887267
0.8743367,-0.07240678,0.2415705
0.9466342,-0.1395316,0.1758633
1.016512,-0.2019433,0.1974888
1.100078,-0.1737738,0.199272
1.211369,-0.08185033,0.268251
1.32912,0.01796758,0.3546844
1.356245,0.07071818,0.2570955
1.41534,-0.01523067,0.1228373
1.476413,-0.2347886,0.1281996
1.242713,-0.5112421,0.199998
0.9440931,-0.6387543,0.2359765
0.8474444,-0.4229033,0.1695884
0.8344529,-0.172997,-0.00291277
0.9510342,-0.1469984,-0.1324337
1.148243,-0.1495807,-0.1170599
1.188074,-0.185721,-0.01702769
1.040082,-0.2517654,0.08625695
0.8650689,-0.2257732,0.1249656
0.7798092,-0.203189,0.08787319
0.7685194,-0.1783991,0.05387534
0.8042587,-0.1281315,0.06139405
0.8567566,-0.1041016,0.03655268
0.9095639,-0.07841418,0.008767906
0.9326314,-0.06320505,0.04766475
0.9156472,-0.02966648,0.08188802
0.9211412,0.03410526,0.1225519
0.914792,0.08029338,0.1491511
0.9237544,0.1209506,0.1240626
0.9818557,0.1303365,0.140129
0.9944083,0.09155281,0.1482983
0.9997951,0.041114,0.1418762
1.015462,-0.02303936,0.1742479
1.018215,-0.06174303,0.1802102
1.051596,-0.009882467,0.1869242
1.111698,0.03677854,0.2110718
1.210072,-0.03515495,0.2375821
1.266122,-0.1235847,0.2454676
1.241958,-0.1395577,0.1329112
1.262973,-0.1505163,-0.07780452
1.289579,-0.2234753,-0.2172214
1.227871,-0.3566799,-0.1494921
1.144807,-0.433912,0.0427426
1.119731,-0.3823783,0.156619
1.137583,-0.2407322,0.127003
1.141259,-0.03354194,0.04034611
1.126031,0.05541271,0.03151633
1.104813,-0.03143852,0.03549252
1.065648,-0.03516916,-0.0009523534
0.9912902,0.002467046,0.02535909
0.8643538,-0.04112876,0.04591506
0.7442238,-0.04980124,0.07968487
0.7267027,-0.07229235,0.1511621
0.758546,-0.1205854,0.1543124
0.7656412,-0.1239328,0.1571591
0.7954775,-0.1276779,0.140989
0.8459865,-0.11868,0.1136428
0.8692133,-0.1147343,0.1700332
0.8616314,-0.1240467,0.2110626
0.8602415,-0.1201653,0.2063675
0.8923284,-0.1429793,0.2143419
0.9511932,-0.1661306,0.2268748
1.059823,-0.1854497,0.201774
1.144565,-0.1880251,0.1775545
1.122419,-0.1095297,0.2318561
1.082793,0.01668833,0.3164537
1.084857,0.1118732,0.3672048
1.168366,0.06307163,0.2817427
1.365611,-0.1864668,0.06187112
1.481697,-0.5246655,-0.05535655
1.295681,-0.65111,0.03173561
0.9223443,-0.43998,0.1484179
0.7020497,-0.2662586,0.1111485
0.8106172,-0.2246671,-0.002267713
1.057738,-0.125956,-0.07879827
1.18089,-0.136736,-0.07634922
1.168439,-0.2051186,0.04705432
1.044905,-0.1892758,0.1156795
0.8823292,-0.1940882,0.09561954
0.8244311,-0.1646681,0.08954748
0.8299058,-0.1094298,0.06408
0.8483999,-0.07207946,0.07113906
0.8474832,-0.03635904,0.0629027
0.8569274,-0.04624226,0.04004654
0.9174305,-0.01787949,0.06493572
0.9114352,0.04246745,0.08742542
0.9050272,0.08636311,0.1474169
0.9133133,0.137962,0.155438
0.8881729,0.128854,0.1239084
0.9502413,0.1144693,0.1472424
1.014501,0.1172208,0.1216491
1.021233,0.07335976,0.1200971
1.008549,0.02599331,0.1403481
0.9864363,-0.02723139,0.1157112
1.004881,-0.02802844,0.1283038
1.05444,-0.008761808,0.1442386
1.19738,-0.1050984,0.2053502
1.32407,-0.173876,0.2904013
1.287192,-0.1354171,0.2567425
1.28931,-0.1053453,0.1688632
1.363702,-0.1033986,0.01470476
1.341673,-0.1562126,-0.2261033
1.233031,-0.2800105,-0.2739694
1.081862,-0.3674003,-0.04998269
0.9742094,-0.3216043,0.1673633
0.9981502,-0.1922777,0.2229365
1.039313,-0.05461094,0.1381484
1.067723,0.01918317,0.0629035
1.122274,-0.02485714,0.07591058
1.074239,-0.03691903,0.03340679
0.9675303,-0.001806097,0.007796213
0.8786952,-0.03915191,0.07908397
0.7876458,-0.0494905,0.1220623
0.7751077,-0.06681126,0.1718161
0.7740209,-0.1278803,0.1995069
0.7682306,-0.1211831,0.1718292
0.848763,-0.1112172,0.1727701
0.9061277,-0.1092405,0.1666908
0.8751943,-0.08995044,0.1831297
0.8420363,-0.08922907,0.2287952
0.8698683,-0.08908854,0.2323627
0.9033644,-0.1222485,0.2292915
0.9498444,-0.1604558,0.2168029
1.081105,-0.1560806,0.179101
1.17243,-0.1341644,0.1637448
1.174742,-0.06884077,0.2239248
1.146327,0.06335003,0.346843
1.103814,0.1898558,0.4064422
1.146828,0.1524745,0.3264107
1.299542,-0.1245235,0.1608234
1.434238,-0.4830436,0.05680407
1.319218,-0.5941265,0.1287597
0.9778839,-0.4448524,0.2161072
0.7678679,-0.3615414,0.1382518
0.7946192,-0.2597553,0.004277021
0.960689,-0.1064628,-0.1128605
1.123192,-0.1676575,-0.1441108
1.152747,-0.2285406,0.005884447
1.063559,-0.2020179,0.1113651
0.8830586,-0.2303798,0.09569687
0.7849986,-0.1918918,0.09020126
0.8280891,-0.1684327,0.06580901
0.8595996,-0.1436728,0.08356131
0.875767,-0.04814095,0.09396638
0.8839548,-0.03334097,0.04651882
0.8997788,-0.006144325,0.04869903
0.9279805,0.0491054,0.07435861
0.9464704,0.06646582,0.1293801
0.9513603,0.09851244,0.1460859
0.9225355,0.09994647,0.1058187
0.927241,0.1252309,0.1134179
0.9365907,0.1367945,0.1067083
0.9494726,0.0665818,0.1089835
1.0246,0.004454909,0.1245138
1.060223,-0.05952056,0.118898
1.067907,-0.04128002,0.1527628
1.109879,0.04192588,0.178459
1.156601,0.03919629,0.192735
1.187332,0.004144304,0.2242565
1.235809,-0.07627366,0.2519598
1.300455,-0.1443159,0.2039815
1.290557,-0.1373843,0.02729355
1.265182,-0.2074268,-0.1017954
1.189064,-0.3668734,-0.08188334
1.042418,-0.5048881,-0.01564773
1.041441,-0.4423818,0.0887276
1.055883,-0.2388756,0.2206604
1.040297,-0.1113718,0.1805739
1.169646,0.01190711,-0.008409566
1.232821,0.02162903,-0.06531924
1.176966,-0.04338402,-0.05093273
1.063814,0.01692661,-0.02291347
0.8619883,-0.007349303,0.06878902
0.7706182,-0.04623463,0.1148648
0.7353509,-0.05150429,0.1775635
0.6856617,-0.146309,0.1963702
0.759357,-0.1428813,0.1503239
0.7849265,-0.1143084,0.1742567
0.7807149,-0.1177664,0.1617043
0.8615509,-0.09023642,0.1626442
0.8581939,-0.1134155,0.1956728
0.8434181,-0.1146109,0.1977921
0.8732217,-0.1270767,0.2283349
0.8940401,-0.1618599,0.212108
0.9821038,-0.1569746,0.1941412
1.104655,-0.1622333,0.1992581
1.223917,-0.1351404,0.2109045
1.263183,-0.09546263,0.303298
1.223328,-0.02730447,0.3451997
1.288104,0.03820105,0.2543812
1.446891,-0.1220733,0.1097541
1.529168,-0.4049893,0.05313531
1.318387,-0.4975475,0.1469606
0.8876744,-0.4043063,0.2154222
0.648655,-0.2825171,0.1663291
0.6734217,-0.1296142,0.01822439
0.8683641,-0.03714867,-0.156551
1.162655,-0.1157535,-0.1743055
1.25625,-0.1764086,-0.03966101
1.074422,-0.2007447,0.0869876
0.8872125,-0.2569886,0.1677731
0.7994465,-0.246511,0.1741457
0.7309674,-0.2580136,0.122714
0.7584674,-0.2471081,0.1114875
0.881557,-0.1419463,0.05686357
0.9143854,-0.1032173,-0.0168197
0.9401139,-0.07997142,0.0145947
0.9950549,-0.02545129,0.05071305
0.9706486,0.03398196,0.1068852
0.9547994,0.1185563,0.1618482
0.9385445,0.1505937,0.1421405
0.9325573,0.1550327,0.1421429
0.9716023,0.1250348,0.1299468
0.9794482,0.04514665,0.132949
1.000031,0.003014986,0.1613188
1.016939,-0.005618771,0.1348651
1.027919,0.05457321,0.139099
1.096812,0.09883038,0.1716139
1.20482,-0.03602705,0.2269785
1.316555,-0.2021667,0.2776626
1.34269,-0.2184783,0.1602793
1.340659,-0.1749305,-0.07654999
1.355154,-0.2117903,-0.2536184
1.252387,-0.2967375,-0.2432799
1.089975,-0.3593908,-0.04952269
0.998335,-0.3286259,0.1494721
1.002423,-0.1836233,0.2071492
1.066382,-0.06492817,0.1260078
1.148381,-0.02482984,0.03651417
1.214128,-0.04995085,-0.0107383
1.14287,-0.07296039,-0.02675765
0.9553642,-0.02046432,0.02073128
0.7764687,-0.01687914,0.0678912
0.6648398,-0.04648112,0.129161
0.6562392,-0.07621213,0.199003
0.6541319,-0.14213,0.1922587
0.7006032,-0.1262571,0.1843775
0.8557998,-0.09440963,0.1513985
0.9084152,-0.09891402,0.1229435
0.8748703,-0.0770164,0.1831781
0.8744835,-0.06638464,0.2132255
0.8646299,-0.05008808,0.2338303
0.8679584,-0.08299545,0.2402378
0.8923965,-0.1394408,0.2139922
1.002072,-0.120191,0.2246189
1.200879,-0.1305483,0.2010106
1.278388,-0.1349071,0.2096798
1.250262,-0.007107079,0.2714896
1.366586,0.1111167,0.2932824
1.528678,0.05363992,0.2885757
1.434792,-0.1347228,0.2342452
1.213851,-0.4172286,0.2058302
1.061335,-0.6371852,0.223172
0.9074661,-0.4650965,0.1974309
0.7942708,-0.1863005,0.091794
0.8281995,-0.1708273,-0.1002707
1.029525,-0.1491879,-0.1750306
1.196218,-0.1828387,-0.06028855
1.146718,-0.3068756,0.06107196
0.9958389,-0.2579353,0.1495213
0.8086056,-0.2307273,0.1708949
0.7174582,-0.2138389,0.111157
0.7620398,-0.122843,0.07623237
0.7747303,-0.09549871,0.06230405
0.8195503,-0.04718129,0.02853152
0.882034,-0.04732951,0.01122373
0.9004079,-0.06601388,0.01549813
0.9266707,-0.006662547,0.06338329
0.925688,0.03489168,0.1490412
0.9296806,0.1201235,0.1633041
0.9470942,0.1725771,0.1294189
0.9800704,0.1583564,0.1219286
1.02643,0.1477504,0.1072175
1.022507,0.05530969,0.1226223
1.026535,0.003278112,0.1620417
1.04566,0.04349224,0.1632678
1.078775,0.03689793,0.1860665
1.185556,-0.02972165,0.2333023
1.278981,-0.1225251,0.2527112
1.299892,-0.153817,0.2359735
1.287704,-0.1171547,0.09723381
1.272136,-0.1266367,-0.1400401
1.254336,-0.2202629,-0.23372
1.187315,-0.3307877,-0.1109809
1.109776,-0.3327178,0.05016423
1.098469,-0.2157572,0.1509127
1.117314,-0.09697315,0.1578129
1.139385,-0.05978571,0.05221147
1.15447,-0.09974134,-0.01833591
1.090916,-0.112095,0.001174856
0.9513186,-0.0599567,0.01838926
0.8316468,-0.02896739,0.0603573
0.7492752,-0.03199659,0.1186858
0.6831563,-0.04660343,0.1566824
0.6782887,-0.06852635,0.1782094
0.7257951,-0.06896374,0.1639888
0.7688629,-0.06073654,0.1525193
0.8004254,-0.05928394,0.1496236
0.8273283,-0.06928205,0.1510028
0.8589222,-0.09221124,0.1739726
0.8659291,-0.1067332,0.1927875
0.8611746,-0.149967,0.1998445
0.9227694,-0.2169547,0.1949711
1.015191,-0.2292856,0.204943
1.131854,-0.2004884,0.2266739
1.285581,-0.1681834,0.2381149
1.385583,-0.1310916,0.2553577
1.500586,-0.1378942,0.2187271
1.60791,-0.2089231,0.1204447
1.445387,-0.2804463,0.08706176
1.070717,-0.3124189,0.1836735
0.7545403,-0.2912389,0.2651743
0.6676231,-0.2432808,0.1412036
0.8891608,-0.1826495,-0.07121914
1.166547,-0.1234837,-0.171302
1.242996,-0.195363,-0.1561011
1.224509,-0.2967881,-0.04562802
1.159029,-0.2569257,0.05890541
0.9508177,-0.241838,0.09157723
0.6868855,-0.2570497,0.1428772
0.6680543,-0.2078295,0.1463849
0.8266074,-0.1528593,0.06516712
0.8094365,-0.0634432,0.03166087
0.800923,-0.02764687,0.03041661
0.877894,-0.0645663,0.03493137
0.869602,-0.02950565,0.07503154
0.9097293,-0.008131905,0.09969372
0.8966699,-0.00307633,0.1070343
0.8686483,0.08461611,0.1143731
0.9432663,0.1493555,0.1141691
0.9628798,0.1528059,0.1147375
1.01634,0.1151033,0.1220036
1.039624,0.04174767,0.1601782
1.019282,0.02218121,0.1912191
1.07672,0.0570709,0.1768511
1.101714,0.06912084,0.1725682
1.197704,0.01377125,0.2094118
1.308541,-0.09186908,0.2615408
1.302941,-0.1520559,0.2454546
1.301177,-0.1511365,0.0573529
1.288334,-0.1840602,-0.2236233
1.26264,-0.2824995,-0.2921147
1.172489,-0.3855532,-0.09512965
1.047377,-0.4292652,0.05837915
1.074019,-0.3183021,0.09792231
1.165916,-0.08820955,0.1078657
1.206156,0.006214138,0.05452887
1.203828,-0.04157451,-0.01327343
1.144357,-0.04660005,-0.03867684
1.025597,-0.03162489,-0.006117846
0.8646205,-0.04645523,0.04728641
0.7426932,-0.07777817,0.08352465
0.694298,-0.1166558,0.1477865
0.6711053,-0.1504285,0.1830833
0.689174,-0.153346,0.1719422
0.7392919,-0.1114695,0.1757264
0.7845358,-0.06099609,0.1552936
0.8463216,-0.02722659,0.1415217
0.8712783,-0.02745974,0.1772635
0.8539927,-0.04266763,0.2115438
0.8931069,-0.09227065,0.2193393
0.9826509,-0.1881078,0.2142931
1.095135,-0.1984161,0.2116993
1.182276,-0.1499543,0.2139709
1.204073,-0.1157335,0.2697754
1.270045,-0.06068318,0.3278394
1.489325,-0.1093355,0.23138
1.682238,-0.2641642,0.08309897
1.438854,-0.3854827,0.07580181
0.9615431,-0.4478151,0.1793303
0.8083086,-0.3891795,0.2461763
0.8422799,-0.2860183,0.1293477
0.9499596,-0.2479863,-0.1046198
1.165402,-0.1935929,-0.2149282
1.176708,-0.1842596,-0.1318556
1.03348,-0.2053321,0.03096244
0.9150863,-0.1576611,0.1270154
0.8174454,-0.1752115,0.09704579
0.778887,-0.2073505,0.04362686
0.7592963,-0.1784069,0.05030495
0.8039275,-0.1605932,0.04228532
0.8710285,-0.08406983,-0.006549694
0.9053073,-0.01082427,-0.0180644
0.9479249,0.01712366,0.01584965
0.9274415,0.07055914,0.09113573
0.9248879,0.09056142,0.1548142
0.9398596,0.1132734,0.1415528
0.9231133,0.1480772,0.1282126
0.9559958,0.1324547,0.1299447
0.9584729,0.0992045,0.1331143
0.9667095,0.04335018,0.1581499
1.003631,0.007791162,0.1657056
1.013964,0.03437407,0.1739867
1.095296,0.03314705,0.1880454
1.200905,-0.03785796,0.1990771
1.270751,-0.1336966,0.2035844
1.305983,-0.2116876,0.1292785
1.286,-0.2541404,-0.03405729
1.247888,-0.2765139,-0.1981018
1.187772,-0.3062753,-0.222543
1.150114,-0.32741,-0.05414303
1.164847,-0.2940207,0.1334404
1.210732,-0.1821757,0.1387905
1.28329,0.009450364,0.02928224
1.282771,0.1373805,-0.02830792
1.182826,0.06225133,-0.0353323
1.021508,-0.001397665,0.0349866
0.8097957,0.05190687,0.1255606
0.6861666,0.02164008,0.09395744
0.6988827,-0.02764338,0.07832282
0.7377692,-0.05671666,0.1278104
0.7888838,-0.1524466,0.1267645
0.8291319,-0.1649274,0.124022
0.8073639,-0.1189654,0.1334643
0.7910089,-0.1136864,0.1548257
0.8139243,-0.09476672,0.1958571
0.8460033,-0.09075959,0.2088875
0.9002465,-0.07961112,0.224851
0.937541,-0.08287947,0.2330907
0.9425579,-0.1422941,0.2095579
0.9840503,-0.1768777,0.1953044
1.025564,-0.1745275,0.1733094
1.084053,-0.1409216,0.1877343
1.213073,-0.06569578,0.2857485
1.278188,0.01400939,0.3361286
1.38074,-0.003170863,0.229055
1.568436,-0.1231297,0.07814415
1.437671,-0.2542191,0.09006044
1.099585,-0.3960663,0.2236518
0.9179023,-0.3948817,0.2762924
0.7969054,-0.2718281,0.1761571
0.8301567,-0.2208603,-0.05422631
1.00586,-0.1260378,-0.2094462
1.113362,-0.1419715,-0.1416157
1.177033,-0.2796591,0.001030668
1.077652,-0.2588321,0.1189332
0.9096012,-0.2640924,0.161966
0.8242769,-0.2563008,0.1431249
0.7510433,-0.1771036,0.1396918
0.817707,-0.1532128,0.08143594
0.8710737,-0.02652027,0.001876935
0.8603713,0.04468964,-0.01021243
0.953162,0.01254306,-0.005299257
0.9710441,0.04789415,0.04704886
0.9698155,0.04854514,0.1416485
0.9757348,0.08421517,0.1562171
0.9305991,0.1550598,0.1205136
0.9617588,0.1693029,0.1256681
0.9694248,0.157994,0.1375785
0.9745544,0.1022116,0.1373169
1.004763,0.04506693,0.1402069
0.9932196,0.003532984,0.134044
1.027036,0.008734046,0.1395444
1.066599,0.01267889,0.1709338
1.152477,-0.09839115,0.2091832
1.29018,-0.2133414,0.2133502
1.315134,-0.2518196,0.1318979
1.278098,-0.2354722,-0.03169422
1.237199,-0.2685568,-0.1877794
1.13763,-0.3932518,-0.1792908
1.026914,-0.4148633,0.01107045
1.015206,-0.3055746,0.1910256
1.088039,-0.1498467,0.2228729
1.14937,-0.02202186,0.137118
1.196961,0.004486017,0.05920205
1.211613,0.02691812,0.01669454
1.135312,0.04187547,-0.01277988
0.9628641,0.02222808,0.02249459
0.7917174,0.02177071,0.06109318
0.7562128,-0.02359772,0.1050124
0.7676872,-0.1160685,0.183573
0.7443457,-0.1834693,0.185569
0.769607,-0.175524,0.1639239
0.7998016,-0.135081,0.1514934
0.8381397,-0.1389451,0.1312536
0.9092806,-0.1316253,0.1696811
0.9017864,-0.1179508,0.2041619
0.878428,-0.1102859,0.2130867
0.9039552,-0.0802581,0.2116534
0.9332765,-0.09775488,0.1883255
1.005567,-0.1364875,0.1583222
1.076997,-0.1587472,0.128548
1.121184,-0.1619899,0.2063128
1.143494,-0.04916057,0.3425369
1.149692,0.09504777,0.3352845
1.316511,0.07190204,0.1586109
1.558789,-0.125426,-0.06454992
1.551518,-0.4090087,-0.09477019
1.281299,-0.57266,0.08045239
0.9106915,-0.4274327,0.1610927
0.6714158,-0.2172039,0.05496741
0.7452176,-0.1620536,-0.09516816
0.9604485,-0.1368949,-0.1555876
1.121872,-0.1922659,-0.09901856
1.163012,-0.3003339,-0.006610921
1.009758,-0.3228434,0.07401137
0.8767753,-0.3408796,0.1062637
0.9052496,-0.29883,0.06671045
0.8999649,-0.2247911,0.03212545
0.886975,-0.1954855,0.03537178
0.9115311,-0.1277621,0.02887587
0.9320974,-0.07920241,0.01586812
0.998064,-0.01875542,0.006696782
1.017365,0.01551242,0.01300829
0.8740736,-0.1210736,0.1534885
0.9402098,-0.1585304,0.1712444
1.032502,-0.1969946,0.1685245
1.084362,-0.1813666,0.1696861
1.172078,-0.1120229,0.2441213
1.333666,-0.01427284,0.2733109
1.443096,0.04696525,0.1871006
1.538539,-0.04788104,0.00266004
1.486377,-0.2537202,-0.04947557
1.15404,-0.4274425,0.145921
0.8455352,-0.4625412,0.2923984
0.711502,-0.3445358,0.1869059
0.7772864,-0.2266277,-0.03773632
1.013233,-0.1899376,-0.2032771
1.214301,-0.2339553,-0.2595712
1.298462,-0.3352686,-0.1333646
1.087502,-0.3574025,0.07582604
0.7746843,-0.3382302,0.1849697
0.7024469,-0.3302683,0.2189046
0.6726378,-0.2643109,0.140361
0.7512588,-0.2127619,0.06132446
0.9125957,-0.1410007,0.03094762
0.9338054,-0.03429057,-0.06200282
0.9370443,-0.009371135,-0.02381456
0.9154077,-0.004401851,0.0822673
0.9160349,0.02885473,0.1197633
0.9080327,0.0692194,0.1594518
0.8620139,0.1205024,0.1288223
0.9314944,0.1438484,0.1202224
0.9838711,0.106889,0.1284312
1.009744,0.05973741,0.1028675
1.025486,0.03512894,0.1383217
1.005251,-0.04569504,0.1435064
1.043735,-0.100748,0.149996
1.042168,-0.04475409,0.1863327
1.081893,-0.02934767,0.2063623
1.180514,-0.06314447,0.2517307
1.220433,-0.09406947,0.2334595
1.306235,-0.1422982,0.2037399
1.326331,-0.1370029,0.1841759
1.272208,-0.1179188,0.001916961
1.284071,-0.1771801,-0.2468511
1.196108,-0.2867057,-0.3098369
1.012804,-0.4114697,-0.1221855
0.9208561,-0.4305842,0.1022159
0.9296209,-0.2635185,0.1835516
1.014183,-0.07019623,0.1423749
1.146906,0.01867435,0.02755993
1.241218,0.01122532,-0.03884561
1.214826,-0.003711757,-0.04597085
1.084087,0.02137139,-0.03407823
0.920853,0.001832424,0.0235849
0.747971,-0.03717678,0.09843101
0.650203,-0.08257616,0.1842995
0.6925866,-0.1511853,0.1795628
0.7625589,-0.1511886,0.1375193
0.7883556,-0.1465393,0.1709072
0.8014605,-0.1530219,0.1584583
0.8033675,-0.1216358,0.1790461
0.8067199,-0.1151143,0.2317818
0.8456222,-0.09921918,0.2129478
0.898592,-0.113761,0.2071364
0.9369597,-0.1948858,0.1784494
1.008993,-0.2479484,0.1507417
1.138196,-0.2526754,0.1683167
1.234029,-0.1909043,0.2158576
1.239261,-0.05268702,0.3010285
1.261334,0.08421429,0.2864674
1.396609,0.04144083,0.1601842
1.502329,-0.1857033,0.07184293
1.334082,-0.3915089,0.1000263
0.9866517,-0.4800482,0.159551
0.8060255,-0.3235781,0.1053704
0.821203,-0.1077245,-0.03229768
0.9382603,-0.1463427,-0.1877635
1.125523,-0.2313721,-0.190824
1.175636,-0.3207464,0.01739981
1.023574,-0.4024988,0.1704581
0.8309123,-0.3210965,0.2133433
0.7413022,-0.273003,0.1514287
0.7593782,-0.2190682,0.0398776
0.7873741,-0.09359906,0.04162048
0.8400548,-0.05185347,0.01538498
0.8878225,-0.02996244,-0.01869864
0.8955621,-0.01646332,0.0123866
0.9197235,0.0009709292,0.05828964
0.9283425,0.05871994,0.1839292
0.9217217,0.1057729,0.189795
0.9164185,0.1580007,0.1179895
0.9303628,0.1901011,0.1524249
0.9826641,0.1671553,0.1288711
1.024185,0.0977973,0.1206894
1.052683,0.03010462,0.1451992
1.052527,0.0070551,0.1271463
1.053339,-0.01560419,0.1588837
1.126074,-0.07958206,0.196158
1.23948,-0.1992216,0.2568553
1.317669,-0.3066406,0.2823065
1.296665,-0.3096771,0.1261292
1.268605,-0.2746226,-0.1376546
1.256758,-0.3071292,-0.322226
1.130424,-0.3591603,-0.2532981
0.9999644,-0.3567715,-0.02703632
0.9937012,-0.2724337,0.161338
1.077789,-0.0814461,0.2084498
1.183477,0.05220259,0.07013023
1.215065,0.04106745,-0.0378538
1.199751,0.02263738,-0.04934125
1.112021,0.005342204,-0.04153831
0.9036406,0.005576735,0.03952016
0.7423694,0.0004818897,0.08813361
0.6757413,-0.07658692,0.1232257
0.6526406,-0.1477302,0.1690325
0.7118371,-0.1890398,0.1280795
0.7803887,-0.1599043,0.1141674
0.8067461,-0.106402,0.1057224
0.8296612,-0.1160337,0.1047072
0.8348392,-0.09323727,0.1692559
0.8315658,-0.06519962,0.1720317
0.8442063,-0.07127644,0.1649477
0.8999165,-0.1057388,0.1712022
0.9904104,-0.2098537,0.1582307
1.050795,-0.2632735,0.1873843
1.174753,-0.2263959,0.2437672
1.393329,-0.1842722,0.3440237
1.469865,-0.146865,0.3641405
1.460093,-0.1247563,0.154803
1.56123,-0.1085949,-0.08666275
1.490225,-0.1400351,-0.06538665
1.090172,-0.2964384,0.1654488
0.7228228,-0.4448184,0.2832397
0.6924449,-0.3863674,0.2020619
0.8887581,-0.2421126,-0.002326976
1.042241,-0.2052907,-0.2272467
1.187847,-0.2230373,-0.2648468
1.17801,-0.2802022,-0.09705646
0.8954715,-0.3505243,0.1206757
0.7901101,-0.3494158,0.2275528
0.7624247,-0.3259119,0.1500492
0.6613834,-0.2825122,0.05112413
0.7519473,-0.2080018,0.05953217
0.8300914,-0.103124,0.03438345
0.86104,-0.00695468,-0.05085837
0.9040624,-0.008789011,-0.04817446
0.9266806,0.0131004,0.007499759
0.9809523,0.08196512,0.09096239
0.9297688,0.1037841,0.1519617
0.8981609,0.1500163,0.1185669
0.9284303,0.1845181,0.1248515
0.9486285,0.1434195,0.138043
1.024687,0.05095682,0.1259441
1.040381,-0.040617,0.1555368
1.037594,-0.03830103,0.154047
1.054475,0.04763485,0.1603975
1.098556,0.07885328,0.183647
1.25735,-0.08835293,0.1964013
1.398468,-0.3040125,0.20086
1.406817,-0.3062065,0.0777137
1.335941,-0.258996,-0.1663539
1.278992,-0.3574149,-0.3040174
1.175552,-0.4553578,-0.1534904
1.059592,-0.4508564,0.09679009
1.078654,-0.3211485,0.1833927
1.121388,-0.09078054,0.1282901
1.161231,0.03743268,-0.00268354
1.178436,0.02002794,-0.08868248
1.093617,-0.01446012,-0.0754401
0.9644637,-0.04610064,-0.02550437
0.7631308,-0.04803978,0.06290999
0.6144862,-0.05328321,0.1262727
0.6156115,-0.1089618,0.1636847
0.6536968,-0.144155,0.1761339
0.7437482,-0.1459245,0.1267259
0.8372023,-0.1080366,0.106151
0.8752796,-0.0519807,0.1211847
0.8714035,-0.05289581,0.1587415
0.8500856,-0.05743503,0.2020546
0.8839026,-0.05202035,0.2079192
0.9112705,-0.1227816,0.2159994
0.953105,-0.2146596,0.202895
1.098191,-0.2377575,0.2001236
1.262243,-0.2237966,0.2526984
1.385494,-0.1719986,0.2678294
1.500456,-0.09824308,0.1925313
1.608102,-0.1333213,0.08447447
1.530439,-0.263143,0.06777609
1.258433,-0.3840388,0.1263209
0.9899725,-0.4402044,0.1466452
0.8026622,-0.3142227,0.1139682
0.8758095,-0.1280908,-0.02872628
1.049484,-0.1080352,-0.2257874
1.10608,-0.1892079,-0.2302304
1.190614,-0.2945067,-0.04161008
1.050048,-0.3491515,0.1384734
0.7877802,-0.3252469,0.2123456
0.733412,-0.309093,0.1414341
0.6786168,-0.2563596,0.04751567
0.7299994,-0.1730841,0.03029128
0.8408722,-0.0942585,-0.03279398
0.8486996,-0.03779458,-0.07224869
0.9140348,-0.04831202,-0.0103492
0.9206269,-0.01648363,0.05798137
0.9142707,0.0598943,0.1452756
0.9550301,0.1152609,0.1621156
0.9523792,0.1735659,0.1159405
0.9851365,0.1742297,0.1358384
0.9820939,0.1306848,0.133718
0.9735443,0.07459708,0.135305
0.9984339,-0.0226243,0.1730979
0.9999015,-0.08873818,0.163477
1.057798,-0.07342988,0.1680333
1.161861,-0.07437496,0.20853
1.289914,-0.1554454,0.2531072
1.327374,-0.1947244,0.2467574
1.261525,-0.1774128,0.07475267
1.28577,-0.223592,-0.2124378
1.274267,-0.3260203,-0.3403304
1.181292,-0.4429616,-0.1249584
1.156299,-0.4492004,0.1711992
1.15612,-0.3176411,0.2497596
1.178373,-0.2145371,0.1871729
1.211201,-0.0578402,0.05084777
1.246855,0.1340281,-0.09126689
1.234534,0.08809606,-0.09422701
1.016576,-0.04465102,-0.01533442
0.7736155,-0.0452015,0.03753347
0.7411347,-0.06544287,0.07335287
0.7644255,-0.1053062,0.1250461
0.6973577,-0.1274474,0.1745496
0.6887812,-0.1894613,0.172822
0.7686398,-0.1464932,0.1357811
0.7770515,-0.06778509,0.1279192
0.8084243,-0.07807282,0.1430761
0.8590025,-0.07451034,0.1491787
0.8499583,-0.1077128,0.1857782
0.8814731,-0.1344027,0.228203
0.8816378,-0.1439974,0.2342204
0.9137042,-0.2009306,0.2241793
1.017929,-0.1775485,0.2052489
1.139742,-0.1551805,0.230079
1.304362,-0.144133,0.2770538
1.314408,-0.05354691,0.272378
1.425632,-0.03239561,0.1783634
1.686509,-0.1371841,0.02019288
1.502551,-0.3607093,0.003983841
1.196021,-0.5467046,0.1338269
1.05712,-0.4823745,0.1893628
0.8124101,-0.3017294,0.1225255
0.8163292,-0.1419148,-0.03790252
1.0205,-0.05016632,-0.190981
1.069546,-0.1124953,-0.2016791
1.140474,-0.2051612,-0.06822241
1.042599,-0.2574059,0.09343199
0.7933748,-0.3360472,0.1609075
0.7490298,-0.3208374,0.1486957
0.736512,-0.2422644,0.1227367
0.7830321,-0.1795062,0.08549419
0.8981789,-0.06711991,0.007379009
0.9030782,-0.03296602,-0.05192306
0.9633939,-0.02305786,-0.0209751
0.9911795,0.03332602,0.03630626
0.9268522,0.02421952,0.1181059
0.9154042,0.07193729,0.1699249
0.9068474,0.1402571,0.1129281
0.9513665,0.1363584,0.08048587
1.020601,0.1001682,0.08667073
1.03499,-0.000183397,0.1065574
1.03478,-0.0692587,0.1742179
1.02819,-0.07382102,0.1885278
1.052588,-0.00535596,0.174134
1.11886,0.07809303,0.1957616
1.225807,-0.01650724,0.2075621
1.30607,-0.1367543,0.2158727
1.320889,-0.1374446,0.1783699
1.346574,-0.1547317,-0.002914312
1.344847,-0.2670035,-0.2673768
1.30361,-0.4374632,-0.3295833
1.193481,-0.4980161,-0.08747683
1.012918,-0.4346597,0.1525457
0.9755275,-0.3231767,0.2021476
1.065903,-0.09550088,0.1384225
1.12272,0.05042439,0.03092895
1.146982,-0.002181016,-0.06327617
1.104669,-0.01234665,-0.08319275
0.9642456,-0.008696671,-0.01060522
0.7678274,-0.04918334,0.06535238
0.6374616,-0.06137159,0.1109013
0.6501912,-0.1199067,0.1498876
0.7034261,-0.1553754,0.1351033
0.7567945,-0.1302057,0.1191319
0.8152982,-0.1226034,0.1103665
0.8294507,-0.1011701,0.1201676
0.8565466,-0.09853701,0.1923814
0.9019603,-0.1071224,0.209991
0.8901821,-0.1060176,0.2203595
0.8958518,-0.1456204,0.2428109
0.9701953,-0.1737046,0.2114777
1.053844,-0.1552517,0.2193594
1.14653,-0.1311854,0.2153476
1.260452,-0.1217294,0.2077199
1.405471,-0.1078141,0.2208562
1.548676,-0.1415648,0.1422461
1.5499,-0.3136044,0.02523077
1.378571,-0.4888805,-0.0187762
1.07646,-0.4752762,0.1057279
0.7332829,-0.3436882,0.2242399
0.6751402,-0.239455,0.07392518
0.8756575,-0.1297223,-0.1184826
0.9516336,-0.06476756,-0.1560084
1.016201,-0.1862372,-0.1167686
1.151372,-0.3124014,-0.02509258
1.076781,-0.2887632,0.05738025
0.8394842,-0.2593262,0.1082647
0.6701898,-0.2525898,0.1588529
0.6899396,-0.2074092,0.1527251
0.8020127,-0.1377819,0.07319144
0.8441902,-0.05261879,-0.01385592
0.9034467,-0.006392001,-0.06464235
0.9152832,-0.03117031,-0.03031404
0.8527845,-0.02138535,0.08793076
0.8905148,0.008150111,0.1620516
0.890763,0.01100108,0.1412498
0.8679447,0.08893528,0.1048322
0.9433002,0.1363756,0.09628365
0.9862254,0.09672887,0.08880622
1.027794,0.0727236,0.09687283
1.022708,0.003840301,0.1541366
0.9796528,-0.0225085,0.1619724
1.029557,0.06454874,0.1140481
1.094592,0.1013764,0.114509
1.235596,0.00591083,0.1882895
1.358576,-0.1545892,0.3205423
1.342778,-0.2110296,0.3092423
1.369683,-0.1625636,0.03615538
1.370967,-0.1749863,-0.2760473
1.304662,-0.3008796,-0.3253771
1.189,-0.4787518,-0.06799948
1.010848,-0.5317866,0.1359425
1.013378,-0.3741188,0.1572799
1.117707,-0.1271544,0.1489649
1.118471,0.04671393,0.07753507
1.144643,0.03867707,-0.02334569
1.153381,-0.0321682,-0.07140491
1.028045,-0.01397345,-0.04144945
0.8337491,-0.009434326,0.01398945
0.6721196,-0.04203613,0.05421645
0.6310086,-0.05269697,0.1292533
0.6878084,-0.1076193,0.132632
0.770952,-0.1462777,0.09885589
0.8187782,-0.1233626,0.1181178
0.8228267,-0.1084987,0.1068102
0.8546275,-0.0842576,0.139204
0.8808086,-0.07091471,0.2089797
0.8726545,-0.07498315,0.2353357
0.8956861,-0.08258808,0.2348604
0.9533281,-0.125018,0.2075446
1.020084,-0.169725,0.1950292
1.12409,-0.2001187,0.1898317
1.278503,-0.2116775,0.2325294
1.385219,-0.1985527,0.290775
1.511203,-0.1962245,0.1953667
1.672774,-0.2590841,0.04982404
1.460925,-0.3954504,0.02416779
1.003622,-0.4583146,0.1206358
0.8311392,-0.3531928,0.2021611
0.8186926,-0.2278708,0.07486575
0.9097465,-0.2058837,-0.1387001
1.130484,-0.207807,-0.2164931
1.147069,-0.2270373,-0.1504962
1.028605,-0.3158023,0.01971541
0.9336874,-0.3400759,0.1690195
0.8209484,-0.2953113,0.1681062
0.7556732,-0.2800899,0.09786461
0.7111049,-0.2324685,0.09493833
0.7440874,-0.1433912,0.09797609
0.8326752,-0.04763931,0.02220151
0.8882237,0.01600246,-0.03289889
0.9600193,0.03426536,-0.01361081
0.9428527,0.05104862,0.06541718
0.8967064,0.07028963,0.1725056
0.9038226,0.1233375,0.2107147
0.900566,0.163195,0.1714836
0.9672851,0.1488846,0.1236452
1.021586,0.1336969,0.1177411
1.030603,0.07308102,0.1269776
1.055963,0.02352857,0.139507
1.048571,0.06446748,0.1800303
1.102914,0.06684383,0.1914397
1.242742,-0.0711571,0.2031008
1.371415,-0.2806748,0.2124892
1.403543,-0.3769366,0.08482468
1.3506,-0.3574147,-0.1733609
1.311826,-0.4180115,-0.3214714
1.214403,-0.4848104,-0.1475693
1.104898,-0.4007295,0.1077412
1.110947,-0.2776947,0.1679583
1.146902,-0.1178778,0.1124355
1.180276,0.09066066,-0.006312318
1.197164,0.1098434,-0.1086768
1.163632,0.02288356,-0.105904
1.035569,0.01590214,-0.03314437
0.8107122,-0.04426642,0.05360251
0.7229467,-0.07220465,0.07440066
0.7608356,-0.06220574,0.09027453
0.7019047,-0.1793415,0.1415042
0.6968502,-0.2167077,0.1358691
0.7947535,-0.1530281,0.1249704
0.8174251,-0.1260726,0.1633046
0.8169391,-0.05521431,0.2013991
0.8251294,-0.03721198,0.2122734
0.8386152,-0.07738862,0.2106641
0.8840841,-0.06963105,0.2177115
0.888559,-0.09623077,0.2189147
0.9235098,-0.1337279,0.2096196
1.037036,-0.1638895,0.1909151
1.159562,-0.2164431,0.1732925
1.304988,-0.2402057,0.1922242
1.412514,-0.2547816,0.197085
1.469292,-0.2654428,0.09818788
1.4702,-0.2972178,0.01871998
1.271552,-0.3520142,0.1368342
0.9565502,-0.3223322,0.2512395
0.8151908,-0.2474449,0.1330203
0.9213902,-0.1747168,-0.05296708
1.027968,-0.1117219,-0.1756668
1.049855,-0.162508,-0.2082707
1.120348,-0.2369965,-0.09713945
1.055156,-0.2503855,0.02092161
0.8337639,-0.2974821,0.1055944
0.7350214,-0.3176284,0.1820498
0.734808,-0.2680405,0.1108921
0.7800657,-0.178129,0.01605749
0.8326894,-0.04666068,0.01308081
0.880286,0.01380217,-0.03684858
0.9636359,0.02024699,-0.07646236
0.9537767,0.05485544,-0.009909072
0.9335258,0.06115739,0.1082602
0.9410363,0.09071512,0.16954
0.897778,0.1518922,0.1380021
0.9325502,0.1567607,0.09556371
0.9742525,0.1167512,0.06290071
0.9939224,0.0183578,0.07720284
1.044549,-0.09933289,0.1296796
1.049227,-0.112383,0.1420591
1.063495,0.01154546,0.1564548
1.136604,0.1086459,0.1686109
1.294588,-0.02174315,0.1645277
1.40163,-0.176995,0.1696219
1.324551,-0.1470339,0.1086125
1.268714,-0.1669436,-0.04781808
1.231559,-0.3214212,-0.1722108
1.117093,-0.4626905,-0.1099251
1.081434,-0.4899064,0.05773593
1.112749,-0.3406221,0.1532169
1.118984,-0.164759,0.1506727
1.142237,-0.0643859,0.04679854
1.148381,0.005021333,-0.03325733
1.072735,-0.0158088,-0.01349103
0.9533223,-0.04627629,-0.01038224
0.8426121,-0.01752433,0.02242807
0.7554502,-0.04447862,0.09827851
0.6792495,-0.09368677,0.1473392
0.6613415,-0.1223684,0.1759699
0.7491361,-0.1409201,0.1414129
0.8312963,-0.1195368,0.1068371
0.8520039,-0.1187062,0.1368815
0.8575616,-0.1244583,0.1682272
0.8514867,-0.0978328,0.1993659
0.843018,-0.100281,0.2377188
0.8381429,-0.1243118,0.2399071
0.9104209,-0.1722037,0.2143709
1.067638,-0.2163278,0.1916083
1.196385,-0.191617,0.1730768
1.296958,-0.1456451,0.244617
1.362024,-0.06489466,0.3332455
1.426009,0.0001897396,0.2097568
1.501294,-0.148193,0.02301324
1.365692,-0.4289076,0.001762359
1.050853,-0.5481074,0.1103721
0.835895,-0.4353571,0.1902419
0.8244835,-0.2626044,0.03185562
1.008346,-0.1653241,-0.2018011
1.210446,-0.1591207,-0.2184829
1.240224,-0.2451513,-0.1130151
1.089723,-0.3363664,0.04856488
0.8555975,-0.3409941,0.2201984
0.7186306,-0.3079704,0.2197556
0.6995404,-0.2504643,0.1096255
0.7198652,-0.1384924,0.0347498
0.7782438,-0.01813947,-0.01281314
0.8389399,0.004668764,-0.02972983
0.8989254,-0.03514694,-0.0339253
0.9197793,0.004298545,-0.02597805
0.8950033,0.0132071,0.05384021
0.8955019,-0.006689295,0.1225748
0.9065381,0.1018378,0.1098652
0.9418516,0.1832261,0.1115812
0.9775903,0.168532,0.1275691
0.9931408,0.1153859,0.1233005
1.050231,0.01664012,0.1613444
1.09298,-0.03744281,0.2073062
1.079618,0.005777677,0.1901312
1.086668,0.1039279,0.171964
1.145194,0.1269218,0.1831666
1.228485,0.04167133,0.1623246
1.331759,-0.09950078,0.1085047
1.369411,-0.2771831,-0.004404225
1.311094,-0.3959782,-0.1858642
1.259733,-0.5015228,-0.2540264
1.145523,-0.5613138,-0.07215608
1.066912,-0.4361249,0.1796861
1.1497,-0.2328297,0.2179701
1.159696,-0.02713632,0.08817388
1.155066,0.07606756,-0.005106673
1.192768,0.0230022,-0.03937873
1.083459,0.01075938,-0.02332075
0.9176413,0.02781229,-0.001937053
0.7783751,-0.02639485,0.01807557
0.709407,-0.06636161,0.1072183
0.7088827,-0.08563202,0.1760198
0.6825454,-0.1035198,0.1802367
0.6965771,-0.08254343,0.157893
0.7434815,-0.07024882,0.1139636
0.8192636,-0.07461374,0.1189956
0.9062613,-0.07680596,0.1545752
0.8735764,-0.109247,0.1914732
0.8535746,-0.1313199,0.2351261
0.9340396,-0.1580768,0.2175816
1.013634,-0.2024329,0.1924121
1.126684,-0.1908245,0.2081774
1.239166,-0.1556131,0.2401555
1.275818,-0.08221279,0.3363884
1.303688,0.03008896,0.3806564
1.436965,0.00476486,0.2175761
1.585386,-0.1885689,0.0154777
1.401788,-0.4359196,-0.004489968
1.017835,-0.573469,0.07136194
0.8664403,-0.4149089,0.05670306
0.8522716,-0.1865203,-0.05344871
0.9353151,-0.1522036,-0.1821801
1.123192,-0.1510775,-0.2077402
1.148151,-0.194835,-0.06980574
1.039482,-0.2901575,0.100252
0.8736171,-0.2811345,0.2151587
0.719388,-0.2675466,0.2203942
0.6981395,-0.2399004,0.1400688
0.7048499,-0.1480067,0.1098986
0.7692596,-0.06422378,0.05152474
0.8980283,-0.003240812,-0.04190268
0.9603776,0.00628741,-0.02421749
0.9515404,0.04987199,0.05920172
0.9036224,0.1207369,0.1523089
0.8882842,0.1609972,0.2033987
0.9022566,0.2151143,0.1721061
0.9384753,0.1962491,0.1393005
1.019258,0.1181929,0.1140314
1.080039,0.04800602,0.08475283
1.094678,0.01415305,0.1234921
1.089402,0.03087579,0.1967416
1.159079,-0.02162161,0.2289271
1.295665,-0.1103417,0.2674986
1.384735,-0.1872764,0.2622685
1.395721,-0.2516188,0.1083496
1.361349,-0.255704,-0.1325544
1.344016,-0.3164399,-0.2694022
1.203832,-0.3984932,-0.1374875
0.9871003,-0.4337529,0.03337014
1.009065,-0.4283386,0.03051945
1.110067,-0.2521733,0.04608307
1.141772,-0.041944,0.07101667
1.211764,0.02906618,0.0457953
1.174255,-0.008402601,0.03034897
1.024611,-0.05471797,-0.008521417
0.9124409,-0.009177979,0.004135525
0.7993919,-0.0125697,0.03750748
0.6781105,-0.02750559,0.04388048
0.6457237,-0.01138183,0.09324044
0.7013388,-0.1007132,0.1261413
0.7272855,-0.1232743,0.1436465
0.782203,-0.0925725,0.1485413
0.8842244,-0.100252,0.1446641
0.851656,-0.07426213,0.1976555
0.8347879,-0.07077972,0.2266888
0.9100827,-0.05805706,0.2192315
0.9017737,-0.1002912,0.2195005
0.9284107,-0.1884792,0.2019953
1.032518,-0.1964924,0.201118
1.221759,-0.1983711,0.2355261
1.430852,-0.1625426,0.2792462
1.41468,-0.1032146,0.2560213
1.422757,-0.1281406,0.1318049
1.515942,-0.2582676,0.03828817
1.310898,-0.4510458,0.0859371
0.9686461,-0.4919194,0.1528092
0.7974981,-0.3301352,0.07834789
0.808035,-0.163352,-0.05041323
0.9319956,-0.1055787,-0.1537066
1.051244,-0.1448323,-0.1700926
1.085147,-0.1994686,-0.02027221
0.973241,-0.2452467,0.1018793
0.8154665,-0.2820445,0.1308939
0.7585115,-0.2662849,0.12099
0.7172672,-0.2320909,0.0605394
0.7384781,-0.1894629,0.05605198
0.8680623,-0.09994475,0.009900624
0.9282643,-0.04506717,-0.05460745
0.9472853,-0.03711057,0.006220729
0.9684845,0.04138126,0.08033044
0.9379646,0.1580258,0.1668417
0.9099574,0.1951161,0.1813905
0.8979431,0.1895974,0.1114607
0.946541,0.1992353,0.1069553
1.033545,0.1261789,0.09071763
1.057353,-0.00606991,0.1041884
1.059904,-0.04136739,0.1589981
1.058111,0.02093397,0.1622732
1.079616,0.06624063,0.1740746
1.2142,-0.04808575,0.1931487
1.392938,-0.2281374,0.2085127
1.429989,-0.2751473,0.1394081
1.332986,-0.2707774,-0.07429784
1.258282,-0.3274822,-0.2221024
1.164256,-0.4323027,-0.1502022
1.0882,-0.4425973,0.04302542
1.132289,-0.3100637,0.1808572
1.146807,-0.157755,0.1699701
1.147193,-0.007844128,0.03928154
1.158693,0.02752587,-0.05747658
1.054326,-0.02444567,-0.03822067
0.9061162,0.0003384775,-0.0219686
0.7583117,-0.006845279,-0.004902345
0.6658066,-0.05701949,0.0815864
0.6820721,-0.1113489,0.1694925
0.7026849,-0.1768489,0.1954749
0.7412046,-0.1748128,0.1664023
0.7877999,-0.1573554,0.1570269
0.8203169,-0.1246931,0.1613075
0.8905337,-0.05582116,0.1741138
0.9034618,-0.03480743,0.2304481
0.8661492,-0.0430324,0.2473652
0.8804603,-0.06851111,0.2329935
0.9229673,-0.1549942,0.218949
1.030315,-0.2654011,0.1935981
1.209991,-0.2973101,0.2382429
1.298656,-0.2341295,0.3167912
1.286285,-0.169878,0.3201304
1.403497,-0.1526607,0.2277797
1.56544,-0.1967159,0.11244
1.410767,-0.2891147,0.09904577
1.077193,-0.3349645,0.1316439
0.9125689,-0.2735208,0.07478425
0.9037638,-0.1695697,-0.06774338
0.983831,-0.1289418,-0.2393444
1.061182,-0.1667721,-0.2801272
1.072407,-0.2257714,-0.1147246
1.03247,-0.273077,0.05864928
0.9178929,-0.2975523,0.1292754
0.8278914,-0.2936397,0.1235184
0.7047524,-0.2925786,0.1114597
0.6287846,-0.2688052,0.1294636
0.8105722,-0.1096511,0.04965132
0.9028681,0.07452892,-0.04040724
0.85964,0.06206545,-0.01727898
0.916949,0.009779135,0.004857113
0.9459325,0.06835996,0.07233579
0.9517095,0.06557512,0.159195
0.9408698,0.0564003,0.132031
0.9439302,0.1407978,0.09067267
0.9785027,0.154647,0.1007714
0.9776999,0.121911,0.09919909
1.031515,0.09308022,0.0928943
1.049312,0.02471889,0.116406
1.03114,0.01232571,0.1273686
1.062468,0.03651515,0.1353315
1.080142,0.02176339,0.1793333
1.184586,-0.06025807,0.2140731
1.326235,-0.2018549,0.2237213
1.369968,-0.2516524,0.1833989
1.330821,-0.2168722,0.01536408
1.254972,-0.2562926,-0.2397241
1.161953,-0.3521478,-0.2961515
1.014401,-0.3761018,-0.08177599
0.9709754,-0.2773624,0.09832718
1.05282,-0.1319225,0.1694641
1.105909,-0.05479796,0.1345271
1.191224,-0.04549258,0.03182141
1.214335,-0.0003021555,0.007694986
1.103136,0.03548457,-0.05432339
0.9649494,0.009914476,-0.07307964
0.8240476,0.00215834,0.04633884
0.7594425,-0.04934875,0.1164197
0.7525544,-0.1279076,0.1563834
0.7348457,-0.1381771,0.1641168
0.7515412,-0.1401357,0.1543007
0.8083834,-0.1105091,0.1467645
0.8720763,-0.07269502,0.1028527
0.8652273,-0.08214613,0.162729
0.836177,-0.06979623,0.2207267
0.8838147,-0.08438686,0.1884841
0.9171967,-0.1702151,0.1967132
0.9502095,-0.2570584,0.1949767
1.061999,-0.2821502,0.201248
1.184503,-0.2382093,0.2689152
1.226279,-0.1187988,0.3614531
1.215038,0.06582062,0.3731021
1.37318,0.07527546,0.1900808
1.612565,-0.1602729,-0.02405232
1.559862,-0.4282134,-0.04406196
1.245821,-0.5914576,0.09482312
0.8854313,-0.4271073,0.1477566
0.7316671,-0.143798,-0.01296577
0.8648211,-0.1275886,-0.2170118
0.9658523,-0.1426712,-0.257789
1.028927,-0.1892236,-0.1057979
1.077317,-0.3248123,0.07218622
0.9297937,-0.3177281,0.148862
0.8260621,-0.306611,0.1429296
0.8399167,-0.2772499,0.100192
0.8305164,-0.1361418,0.07871831
0.8596759,-0.01058571,0.05063424
0.8783182,0.09152885,0.0002735603
0.9231386,0.09206965,-0.0108956
0.9662426,0.03806684,0.02707933
0.9243086,0.03300086,0.1047508
0.9180624,0.03534421,0.1659229
0.908287,0.07034877,0.148807
0.9363791,0.1093392,0.08323419
1.028764,0.131964,0.0473671
1.028727,0.1004823,0.06774054
1.022271,-0.005621037,0.1003385
1.039075,-0.05584872,0.1211736
1.031412,-0.02416618,0.1212595
1.068153,0.0003314545,0.1276956
1.170817,-0.07056908,0.1764089
1.311717,-0.1905238,0.231358
1.350063,-0.2261519,0.2190825
1.279348,-0.1746952,0.06152111
1.23078,-0.1388295,-0.1613553
1.144178,-0.2668928,-0.2261765
1.011828,-0.4366743,-0.09731652
0.9667423,-0.4200369,0.08278246
1.022175,-0.2966792,0.2268262
1.117314,-0.1322797,0.2326795
1.240502,-0.01019127,0.08134984
1.298939,-0.01268022,-0.03775129
1.184046,0.01364019,-0.08778712
1.031989,0.07510306,-0.1078971
0.9526206,0.05165761,-0.04919624
0.8340695,-0.03022045,0.06742551
0.7034598,-0.1163949,0.212665
0.7185414,-0.1528281,0.2158806
0.7884094,-0.1373361,0.1202267
0.7624863,-0.1522294,0.1469992
0.7795476,-0.1631956,0.1244432
0.853028,-0.1152056,0.1143924
0.8542671,-0.08166828,0.2227978
0.8645274,-0.06193873,0.2364085
0.8684479,-0.06255032,0.2269527
0.8967682,-0.1034289,0.2085874
0.9923486,-0.1455711,0.1645628
1.064393,-0.2415608,0.1717176
1.214455,-0.2914161,0.1730614
1.303327,-0.1736997,0.2521333
1.272914,-0.02147268,0.3212866
1.404176,0.04406808,0.2211157
1.503965,-0.055056,0.06325356
1.415521,-0.2826819,-0.002086815
1.276065,-0.4548524,0.1248859
1.048062,-0.4311596,0.2278696
0.84385,-0.2611032,0.08777503
0.8333776,-0.142344,-0.1163817
0.9228137,-0.0997568,-0.2224793
1.002154,-0.1290489,-0.1996343
1.04971,-0.2262563,-0.05506554
0.9608062,-0.2796224,0.1080587
0.8124146,-0.3220905,0.1576425
0.821437,-0.3074295,0.1037687
0.8672409,-0.2084821,0.06992803
0.8732195,-0.09814155,0.03432933
0.9145412,0.03159436,-0.05324184
0.9268849,0.05174456,-0.07134487
0.9454033,0.01803982,-1.795504e-05
0.9694877,0.02037682,0.0709309
0.9424054,-0.01405456,0.1356712
0.9382126,0.02783558,0.1225681
0.9661635,0.09355432,0.05805186
0.9976996,0.09615681,0.04896775
1.020118,0.06041627,0.04077844
1.018279,-0.0374691,0.07090966
1.019361,-0.08324501,0.1196211
1.022564,-0.04608863,0.09094071
1.029007,0.07067275,0.06548521
1.093998,0.1598082,0.06701255
1.258571,-0.02657923,0.1451965
1.388879,-0.2295244,0.2709803
1.307807,-0.1315284,0.2183932
1.188212,-0.02638018,-0.002512153
1.193535,-0.09130993,-0.2024667
1.152653,-0.2269606,-0.21821
1.059319,-0.4834785,-0.08042309
1.002948,-0.5876287,0.05217862
0.9742346,-0.3965604,0.2104141
1.032064,-0.2520995,0.2363731
1.099724,-0.07463502,0.05338108
1.143568,0.06297581,-0.0275207
1.191704,-0.02809664,-0.05558018
1.091122,-0.01095311,-0.08953425
0.9178289,0.02858266,-0.01017659
0.8269998,-0.04325587,0.06732247
0.7503199,-0.07302185,0.1473424
0.7145999,-0.1516811,0.1693353
0.7615589,-0.1906757,0.107655
0.8222938,-0.1584009,0.1092166
0.8638745,-0.1639899,0.1254486
0.8655593,-0.1356575,0.1689677
0.8353483,-0.0944917,0.2021969
0.8455235,-0.08807158,0.1746486
0.9032698,-0.1460816,0.1700527
0.9816287,-0.251257,0.1369049
1.068348,-0.2905317,0.1200652
1.137739,-0.2518851,0.1979321
1.203925,-0.1384033,0.3176479
1.247571,-0.01714735,0.3464956
1.392961,-0.04357592,0.1754815
1.605924,-0.148284,0.01068495
1.407853,-0.2526319,0.05399323
0.9909118,-0.3829472,0.1898794
0.8766805,-0.3481383,0.2297992
0.8781935,-0.1975861,0.09260954
0.9263568,-0.163977,-0.1238836
1.053278,-0.1321452,-0.1984885
1.110976,-0.1892918,-0.1121907
1.094122,-0.3363126,-0.008554582
0.9555614,-0.3250421,0.1432268
0.8263396,-0.3342408,0.2200015
0.8036212,-0.3608631,0.1342579
0.816114,-0.2666507,0.1133237
0.8651761,-0.1718758,0.07191547
0.859986,-0.09554954,-0.004327889
0.8715334,-0.05647448,0.03855933
0.899417,0.006336459,0.02682641
0.8716421,0.02800251,0.01471365
0.8942405,-0.01977926,0.09566524
0.8904158,0.06618222,0.1238067
0.8963753,0.1062974,0.1127219
0.9546044,0.06746988,0.08508641
1.004193,0.09565373,0.07163344
1.061761,0.03603629,0.09468059
1.018781,-0.05309253,0.1225105
0.9780836,-0.06448468,0.167008
1.010736,0.01126797,0.167763
1.060898,0.08598004,0.1681427
1.225,-0.02596247,0.2094837
1.343211,-0.152022,0.2031297
1.324403,-0.1533063,0.1743025
1.298956,-0.1594136,0.05481577
1.251899,-0.2009884,-0.1509383
1.143265,-0.3163656,-0.1803604
1.017242,-0.4698749,-0.05625069
1.022684,-0.4594651,0.07468342
1.13095,-0.2830859,0.2094177
1.18126,-0.124844,0.1778192
1.198079,-0.00843877,0.02968347
1.175595,0.05280052,0.01530707
1.088126,0.02647681,0.02597395
0.9548561,0.01774427,0.02942514
0.8058496,0.005577473,0.07799089
0.7263289,-0.05588618,0.1108391
0.7039138,-0.1021958,0.1906851
0.7318537,-0.1396797,0.206094
0.7897214,-0.1576723,0.1531213
0.8149793,-0.1437208,0.1715477
0.87465,-0.134148,0.1730614
0.9168985,-0.1308639,0.2009109
0.897207,-0.1182463,0.2418193
0.9009853,-0.1043443,0.2368768
0.883889,-0.1073329,0.2427214
0.8796087,-0.1531944,0.1891773
0.9757558,-0.2558962,0.149571
1.14591,-0.3110499,0.220492
1.25671,-0.2227399,0.3328089
1.193589,-0.04659987,0.3801036
1.185753,0.06933977,0.2772192
1.374916,-0.03689372,0.132506
1.481169,-0.3032677,0.08117753
1.340824,-0.5409828,0.1377843
1.118017,-0.6224028,0.1997209
0.9844298,-0.4120755,0.1517859
0.8921112,-0.133378,0.00333331
0.886185,-0.1019527,-0.1982954
1.026717,-0.115778,-0.2869829
1.081439,-0.09372346,-0.2299502
1.015824,-0.1932421,-0.1253622
0.9096241,-0.3038036,0.0939783
0.786309,-0.3250811,0.2032673
0.7979625,-0.2717579,0.1029189
0.8409591,-0.1948966,0.1045673
0.8421943,-0.0968099,0.07115617
0.9151066,0.03620924,-0.065865
0.9615034,0.07415415,-0.05477282
0.9650588,0.04988902,-0.01339656
0.9746997,0.03499689,0.03219079
0.9460307,-0.0006859231,0.1592221
0.9155495,0.03259432,0.1901662
0.9195894,0.09678175,0.1224824
0.9490047,0.1057439,0.09175549
0.9859553,0.08005839,0.08833097
1.004361,0.01514135,0.0863142
1.007658,-0.04122787,0.1069496
1.027122,-0.05277092,0.1357415
1.053404,-0.02817262,0.153509
1.077961,-0.01508564,0.1598907
1.15067,-0.08605372,0.1680888
1.263739,-0.1892246,0.2051296
1.321339,-0.2283531,0.1906784
1.282234,-0.1954111,0.02933152
1.25281,-0.1865689,-0.1723559
1.228408,-0.2664608,-0.194704
1.079061,-0.3442826,-0.04390296
0.9692451,-0.3400258,0.06905325
1.04143,-0.2362856,0.127936
1.142688,-0.0780949,0.1402996
1.220348,0.005503314,0.05847613
1.24784,-0.004696393,-0.01271553
1.186989,-0.01718869,-0.05300553
1.092529,-0.008685509,-0.05040283
0.9121046,-0.02264233,0.02339833
0.7222355,-0.06448427,0.1051161
0.7002492,-0.1181769,0.1781177
0.7106509,-0.1802498,0.1887504
0.69604,-0.1940971,0.1667148
0.768694,-0.148702,0.1488208
0.8276512,-0.1072541,0.09822323
0.8335697,-0.08913797,0.1146175
0.8521445,-0.08258093,0.1826478
0.8736024,-0.06210413,0.2227634
0.8787809,-0.05665175,0.2301534
0.878413,-0.1176366,0.1886625
0.9603567,-0.2137594,0.1581437
1.066459,-0.2751923,0.1402175
1.121941,-0.2429817,0.1673522
1.205647,-0.1490161,0.2580215
1.247024,-0.02002526,0.2701391
1.317991,0.08925498,0.190925
1.545236,-0.001239103,0.05842574
1.603686,-0.1805642,-0.01640253
1.293551,-0.2903956,0.1325347
0.9220031,-0.4027171,0.3037312
0.8055364,-0.3461674,0.2455092
0.8844277,-0.1790194,0.003654894
0.935875,-0.1628149,-0.2307251
1.042593,-0.1717511,-0.2250005
1.20745,-0.2312155,-0.06737196
1.159994,-0.3261799,0.01040637
0.9904062,-0.3067553,0.1129465
0.8596058,-0.311105,0.1922449
0.7703696,-0.3118454,0.1188311
0.7968053,-0.2482229,0.08846284
0.8403913,-0.1643642,0.06249469
0.8843944,-0.06097095,-0.02181876
