accx,accy,accz
1.059979,-0.05665277,-0.1182125
1.066574,-0.04150858,-0.1111217
1.089841,-0.02773845,-0.09873415
1.127641,-0.0307018,-0.08898453
1.173557,-0.07224962,-0.1179275
1.20025,-0.1438351,-0.1811855
1.209708,-0.2072657,-0.291932
1.205609,-0.2897388,-0.5018145
1.14554,-0.3236424,-0.636929
0.9859656,-0.2142256,-0.574021
0.8295099,-0.1008877,-0.4962805
0.8015845,-0.05310462,-0.4582185
0.8321517,-0.04911956,-0.4533843
0.8503913,-0.1053806,-0.4902257
0.8987523,-0.1511522,-0.431827
0.9693708,-0.207128,-0.3581606
0.9789844,-0.2324591,-0.3561299
0.9102434,-0.1647251,-0.3341136
0.8416057,-0.1248559,-0.3291254
0.8301345,-0.09120167,-0.2967872
0.8864938,-0.05522623,-0.2384881
0.9503251,-0.04049464,-0.2395472
0.9640264,0.008058957,-0.2372461
0.9698932,0.02350673,-0.2402357
0.9627419,0.02640218,-0.2305915
0.9282971,0.01679089,-0.1877049
0.9091814,-0.03027463,-0.1525308
0.8980106,-0.02966948,-0.1116853
0.89748,-0.03743809,-0.1177297
0.9210789,-0.06750967,-0.1378382
0.9714272,-0.08945856,-0.1309631
1.062308,-0.109197,-0.1342449
1.131692,-0.06685158,-0.1199351
1.137204,-0.007286803,-0.1192771
1.15231,0.02376506,-0.1132498
1.194152,0.02740737,-0.1004482
1.220573,0.02283142,-0.1987695
1.240529,0.03937416,-0.3910212
1.218298,-0.02195125,-0.5587876
1.135969,-0.1680447,-0.6151933
1.045923,-0.2828322,-0.603185
0.9254969,-0.3050139,-0.5842325
0.8229527,-0.2575644,-0.4966195
0.8377997,-0.2300279,-0.4016168
0.9179838,-0.1696788,-0.4060472
1.003378,-0.05869213,-0.4409055
1.018709,-0.02851682,-0.435524
0.9310388,-0.05213059,-0.4040953
0.8437792,-0.066435,-0.3481251
0.781156,-0.07497939,-0.2767243
0.7629012,-0.06952136,-0.2437257
0.8063887,-0.07015307,-0.2389191
0.8488293,-0.08570418,-0.2318467
0.9036779,-0.1184182,-0.237079
0.9512996,-0.1477958,-0.2268409
0.9603921,-0.1617315,-0.2004458
0.9637137,-0.1579175,-0.1758002
0.9429331,-0.1018565,-0.1323566
0.9196398,-0.04595108,-0.08838818
0.9239289,-0.0512033,-0.08508319
0.9347445,-0.07418138,-0.1101654
0.9828104,-0.09386611,-0.1227621
1.098729,-0.1333945,-0.1564631
1.201853,-0.1425273,-0.1798591
1.198497,-0.09201022,-0.1162442
1.175383,-0.07039501,-0.07819483
1.213626,-0.1149544,-0.1640934
1.245142,-0.2595769,-0.4191904
1.272887,-0.4364764,-0.7495119
1.263228,-0.3972999,-0.8221679
1.08715,-0.2198412,-0.7173818
0.8426633,-0.1039384,-0.6521415
0.7429742,-0.003278937,-0.4401828
0.7440752,0.01624925,-0.2795725
0.7614354,-0.08899806,-0.3818033
0.8591446,-0.2124047,-0.3879852
0.9399151,-0.2659702,-0.3426552
0.926152,-0.2005628,-0.4137183
0.8889111,-0.1272623,-0.402024
0.8133715,-0.08242713,-0.3497812
0.7965913,-0.03590539,-0.2951715
0.8538803,-0.05941488,-0.2383639
0.8775742,-0.06018163,-0.2529776
0.9261102,-0.02403993,-0.240021
0.9423583,-0.02508487,-0.2251033
0.9135751,-0.003792317,-0.2111194
0.913782,-0.008426437,-0.1422978
0.8827737,-0.02772328,-0.107471
0.8672573,-0.02297215,-0.09359479
0.8855586,-0.0529483,-0.09054121
0.9215919,-0.08691611,-0.09445435
1.037662,-0.1131375,-0.1009034
1.171362,-0.09429011,-0.1539273
1.232629,-0.01775655,-0.1871093
1.240932,0.04744321,-0.1909476
1.241652,0.07451586,-0.1491747
1.223425,0.009555601,-0.08879923
1.207911,-0.05103537,-0.202525
1.205108,-0.02655797,-0.4533362
1.155898,-0.08126342,-0.6710457
1.082748,-0.2332339,-0.7343842
0.976573,-0.3589067,-0.6116375
0.8523183,-0.3820833,-0.4844758
0.8303801,-0.3169096,-0.385538
0.91506,-0.2322701,-0.3131912
1.023043,-0.07867033,-0.377524
1.058041,0.07325219,-0.4327549
1.001043,0.06951245,-0.4120125
0.9191763,-0.01650832,-0.3656433
0.8320665,-0.09855245,-0.2412445
0.773508,-0.1331591,-0.1744616
0.7796196,-0.114545,-0.1932468
0.8295378,-0.121026,-0.186005
0.8838302,-0.1273474,-0.1978441
0.9026882,-0.1257129,-0.1937353
0.8734885,-0.1420317,-0.1629613
0.8405604,-0.1158737,-0.1362083
0.8439228,-0.06732559,-0.08972514
0.8594951,-0.03304054,-0.0848756
0.8830704,-0.02280305,-0.1016238
0.9305047,-0.06086215,-0.1113286
1.021458,-0.09497343,-0.1449865
1.136887,-0.0926054,-0.1477622
1.188674,-0.06442659,-0.1175181
1.193533,-0.02493006,-0.07590418
1.184332,0.01400098,-0.02994908
1.177216,0.03490535,-0.05679758
1.248214,-0.09294969,-0.2465195
1.314323,-0.3326726,-0.5941587
1.269426,-0.4006283,-0.8520382
1.130159,-0.3085932,-0.8084546
0.9202277,-0.219639,-0.6033115
0.7761704,-0.100824,-0.4131227
0.8001629,-0.05213806,-0.3311372
0.8666103,-0.1215451,-0.3660692
0.9139611,-0.1534931,-0.3636492
0.9937847,-0.2235843,-0.348455
1.017942,-0.299145,-0.3797318
0.9375069,-0.1920484,-0.3534746
0.844359,-0.07279605,-0.3188914
0.7945119,-0.04253267,-0.279782
0.8044275,-0.02914751,-0.2289988
0.8338206,-0.06676153,-0.2393454
0.8637025,-0.08612476,-0.2299849
0.8883435,-0.06133659,-0.2175347
0.8822681,-0.0419047,-0.2051294
0.8988757,-0.01784176,-0.1463505
0.9124188,-0.02206125,-0.1281066
0.8969038,-0.0543866,-0.115782
0.9127611,-0.09808813,-0.1010659
0.9721406,-0.1405658,-0.1156669
1.100524,-0.148129,-0.1237378
1.206987,-0.102495,-0.1524177
1.193151,-0.00438844,-0.1638878
1.189764,0.05140981,-0.1478332
1.270148,0.03374971,-0.1794077
1.341042,0.0313708,-0.328157
1.326066,0.02086825,-0.5551941
1.218014,-0.08065668,-0.6338805
1.036039,-0.2444431,-0.5879717
0.8504052,-0.3410359,-0.6000472
0.7994954,-0.3466384,-0.5332295
0.8692386,-0.3378973,-0.3977679
0.9317781,-0.2569505,-0.4130918
1.002961,-0.09610117,-0.4753313
1.039444,-0.005071111,-0.4678139
0.9467381,-0.009469801,-0.4384037
0.8517217,-0.02667627,-0.369026
0.8182397,-0.0545951,-0.3023815
0.7814907,-0.110718,-0.2504765
0.7889768,-0.1344574,-0.2102015
0.8312347,-0.1184001,-0.2401195
0.8521193,-0.1276162,-0.2512508
0.8657799,-0.1420905,-0.2326815
0.8576437,-0.1490617,-0.2429565
0.8461187,-0.163674,-0.2193513
0.8520542,-0.1493413,-0.1823996
0.8464466,-0.1173865,-0.132088
0.867654,-0.09385802,-0.09064339
0.9298327,-0.09396084,-0.1332161
0.981994,-0.1137633,-0.1600186
1.046003,-0.1041026,-0.1517456
1.195951,-0.07999304,-0.1651447
1.368332,-0.04451823,-0.1613281
1.357016,-0.007852293,-0.1618749
1.268924,-0.08113993,-0.2100668
1.305846,-0.3093258,-0.3842059
1.28091,-0.5296718,-0.6196208
1.227123,-0.4854589,-0.7185001
1.195209,-0.3389591,-0.7856829
0.9692099,-0.3001966,-0.7709264
0.7835698,-0.1070057,-0.4928153
0.7550257,0.0418405,-0.3007379
0.7400334,-0.07476728,-0.3176753
0.8291143,-0.1404741,-0.3240333
0.9130812,-0.2618165,-0.3446579
0.9299588,-0.342144,-0.338142
0.9091864,-0.1723255,-0.352729
0.8347318,-0.08376247,-0.3885954
0.806673,-0.03184596,-0.3026423
0.7755086,0.03869124,-0.2262531
0.7879199,0.009251649,-0.2070519
0.8619979,-0.008168667,-0.2246131
0.8832037,-0.03113114,-0.2427949
0.9233443,-0.01591701,-0.181979
0.9393421,0.01809372,-0.152694
0.9286224,-0.003303119,-0.143906
0.9479934,-0.006666005,-0.1294292
0.9603903,-0.04398451,-0.1265548
1.031654,-0.09659115,-0.1137688
1.114817,-0.1036083,-0.15254
1.150753,-0.06227657,-0.1663239
1.159068,0.01551148,-0.1357376
1.170432,0.03265097,-0.1363442
1.243364,0.01471929,-0.2279323
1.293235,-0.0001114613,-0.4862265
1.28102,-0.08096664,-0.7113907
1.23439,-0.2433524,-0.713919
1.132278,-0.3843248,-0.6363975
0.9553692,-0.3792693,-0.5654375
0.7791374,-0.3227018,-0.3958793
0.8176987,-0.2800989,-0.2833302
0.948593,-0.1319934,-0.4018915
0.9571099,0.01524457,-0.4617853
0.9329278,-0.002009289,-0.4127002
0.8464735,-0.06024467,-0.3832314
0.7597215,-0.07851163,-0.2790018
0.776243,-0.1314379,-0.2332765
0.7806356,-0.1691229,-0.2423481
0.8044526,-0.1483795,-0.2140853
0.8602903,-0.138792,-0.243161
0.8720524,-0.135842,-0.2315871
0.8657095,-0.134874,-0.1778757
0.8600825,-0.1459835,-0.1447509
0.8637229,-0.1268614,-0.1106273
0.8685698,-0.07986917,-0.1150508
0.9001807,-0.02682664,-0.09172658
0.9905832,-0.009730836,-0.08382039
1.110845,-0.03971754,-0.1331268
1.208661,-0.04420377,-0.134973
1.229125,-0.0341959,-0.1219337
1.231602,-0.04277294,-0.09421281
1.263024,-0.08102368,-0.1069891
1.304057,-0.2452365,-0.3334205
1.372452,-0.4531011,-0.7106015
1.362106,-0.4503749,-0.9327399
1.162514,-0.2823165,-0.8231463
0.8581503,-0.1240019,-0.5741359
0.6571666,0.00868445,-0.3395708
0.6731806,-0.004580526,-0.2540534
0.7621045,-0.1436983,-0.4198379
0.8299015,-0.2102235,-0.4631426
0.9100759,-0.2617489,-0.3373387
0.9400966,-0.2708219,-0.3225221
0.893932,-0.1704101,-0.3151114
0.8232419,-0.06538795,-0.2874174
0.796717,0.003978195,-0.236778
0.8277934,-0.03098513,-0.2103241
0.8487386,-0.0561974,-0.254583
0.8710658,-0.009340052,-0.2154733
0.8925463,-0.02578848,-0.2079258
0.8889776,-0.003855279,-0.2172763
0.9012091,0.007668935,-0.136959
0.9099829,-0.03777521,-0.106896
0.9128775,-0.04035046,-0.1088812
0.9524069,-0.08899822,-0.134982
1.045087,-0.1044733,-0.1466939
1.166509,-0.0592991,-0.1256149
1.237688,-0.03771424,-0.1234347
1.247682,0.006608627,-0.08082601
1.252244,0.0193174,-0.1365484
1.288254,0.03951219,-0.3449416
1.321518,0.07370756,-0.5475503
1.27875,-0.0181501,-0.6568221
1.171817,-0.2317167,-0.709264
1.051215,-0.4220136,-0.7344732
0.9477567,-0.3729922,-0.574138
0.8319816,-0.2389266,-0.3754345
0.7693039,-0.255436,-0.3242532
0.8828455,-0.1661906,-0.3598233
0.9713585,0.00262417,-0.464158
0.9410544,0.02223574,-0.4092174
0.9071828,-0.02080537,-0.3119428
0.8033929,-0.1044314,-0.287947
0.7511735,-0.1545362,-0.1726517
0.793637,-0.1539076,-0.2028165
0.8034102,-0.1593018,-0.2218447
0.8543185,-0.120992,-0.1442883
0.8647026,-0.1224581,-0.1833113
0.8235021,-0.1147829,-0.1320978
0.8153376,-0.0705859,-0.09261024
0.7705337,-0.06180398,-0.07384579
0.7731554,-0.01925177,-0.004593324
0.8391966,-0.00303413,-0.04307345
0.9567866,-0.001616612,-0.04068288
1.180989,-0.0319459,-0.08389395
1.346351,-0.1376314,-0.1910306
1.35279,-0.1348269,-0.158827
1.279943,-0.06714765,-0.08200947
1.211522,-0.07501757,-0.06364506
1.204429,-0.2280541,-0.3136787
1.24752,-0.4363413,-0.7833377
1.275512,-0.3935338,-1.042852
1.194915,-0.2282795,-1.003231
0.994561,-0.1318077,-0.7319785
0.7903573,-0.02576835,-0.3613999
0.7304153,-0.0455646,-0.251076
0.7901734,-0.1598688,-0.3601673
0.8025306,-0.2371951,-0.340201
0.8296665,-0.2927493,-0.3219567
0.8968491,-0.2157853,-0.4092254
0.8419131,-0.1056651,-0.3990559
0.7898149,-0.07279961,-0.3323555
0.8273726,-0.03921917,-0.2473411
0.8347378,-0.06971428,-0.2075071
0.8774865,-0.08606001,-0.2528026
0.9363051,-0.05789447,-0.2171297
0.9014407,-0.068304,-0.1771958
0.8386188,-0.02909142,-0.1287796
0.7874944,-0.008808842,-0.0150118
0.7775736,-0.03649222,-0.01092424
0.8870933,-0.0406605,-0.04470648
1.068821,-0.05218856,-0.05977557
1.195283,-0.02490655,-0.1141698
1.204926,0.0164571,-0.1148569
1.144975,0.02006379,-0.06482204
1.134828,-9.133705e-05,-0.06852486
1.217925,-0.02840076,-0.2712704
1.301409,-0.02755154,-0.6831225
1.297516,-0.07223831,-0.9563511
1.24316,-0.2304207,-0.8818554
1.153291,-0.3971621,-0.7487845
0.9762125,-0.3938761,-0.6573736
0.8698881,-0.2648906,-0.4435843
0.9198982,-0.1794587,-0.3486141
0.9393022,-0.03778182,-0.4342946
0.9365714,0.1097598,-0.4407789
0.9233854,0.08648875,-0.4384215
0.8386727,0.001131465,-0.3834258
0.7975643,-0.1092869,-0.2348768
0.7742244,-0.1801639,-0.1993155
0.7541699,-0.1582676,-0.2047505
0.7963268,-0.1684379,-0.1852814
0.8156156,-0.164824,-0.2010843
0.8411785,-0.1414041,-0.1959871
0.8848934,-0.1308139,-0.1880417
0.8696418,-0.09518761,-0.1891571
0.83802,-0.07557485,-0.1645601
0.8201937,-0.03613203,-0.1391644
0.8240006,-0.02508298,-0.1209454
0.8942812,-0.06483018,-0.1126036
1.0528,-0.05577262,-0.1371722
1.227692,-0.06193031,-0.1972881
1.286641,-0.07624778,-0.2319803
1.240599,-0.06868193,-0.1818495
1.219477,-0.1116351,-0.1490022
1.247028,-0.217527,-0.293391
1.294315,-0.3756812,-0.6213238
1.339614,-0.4228924,-0.9581398
1.212079,-0.2868406,-1.003992
0.8835695,-0.1231758,-0.6798652
0.6393438,0.03830007,-0.324476
0.6191875,0.08621771,-0.2464609
0.754277,-0.06277311,-0.4076092
0.9022194,-0.1927366,-0.5213192
0.9570027,-0.226943,-0.4629969
0.957077,-0.2210301,-0.4307916
0.908942,-0.1806218,-0.4172248
0.8403595,-0.1394828,-0.3314786
0.7983376,-0.09930366,-0.2857052
0.7965478,-0.09684826,-0.2530275
0.8443456,-0.1191163,-0.2339474
0.8715462,-0.1068418,-0.2516845
0.887069,-0.0804282,-0.2260981
0.8786754,-0.02444389,-0.2014064
0.8207132,0.02329589,-0.1606961
0.8070312,0.0243674,-0.1032951
0.8217411,0.01852832,-0.09943453
0.8770209,-0.01944388,-0.09224855
1.004337,-0.07171738,-0.1065755
1.147607,-0.09282889,-0.1530126
1.252334,-0.07443405,-0.147305
1.243785,-0.02552922,-0.1139578
1.215276,0.00694367,-0.101127
1.232099,0.01907933,-0.1777708
1.232204,0.003033448,-0.4248554
1.24579,-0.06675799,-0.7159323
1.219015,-0.2301799,-0.7954856
1.101673,-0.4176854,-0.6944205
0.94613,-0.4125341,-0.6182885
0.8661559,-0.3010707,-0.521896
0.9395487,-0.218243,-0.4337391
1.019919,-0.07108454,-0.4710272
1.043737,0.02110215,-0.4868778
1.020416,0.02601164,-0.4677628
0.9107392,0.00449663,-0.4320821
0.8144767,-0.1312549,-0.274672
0.7378601,-0.1981604,-0.166549
0.7079099,-0.1332413,-0.1888896
0.7585336,-0.1068634,-0.203539
0.7491734,-0.07785916,-0.2049784
0.7750142,-0.07706664,-0.2164444
0.8490992,-0.1096913,-0.2115782
0.8301068,-0.10468,-0.1717443
0.8251513,-0.1071988,-0.1394467
0.8194267,-0.07893614,-0.1188594
0.8131743,-0.02372503,-0.0997571
0.8899269,-0.007246884,-0.1231568
1.026453,-0.04412586,-0.1493441
1.232403,-0.1074696,-0.1744329
1.319633,-0.1180029,-0.1753457
1.249522,-0.117832,-0.1248656
1.234278,-0.1447582,-0.1119284
1.255838,-0.1770534,-0.2036762
1.35476,-0.2828011,-0.5689705
1.49361,-0.3970667,-1.03053
1.357524,-0.336958,-0.9713022
0.896033,-0.1305345,-0.5110248
0.5051119,0.0004257198,-0.2342068
0.5870189,-0.04005602,-0.2263502
0.8400592,-0.1250108,-0.4022849
0.8645714,-0.1681542,-0.5574676
0.966334,-0.2194095,-0.5299046
1.04006,-0.2237359,-0.4619723
0.8731956,-0.1393503,-0.3602638
0.8321415,-0.09665613,-0.292117
0.7822798,-0.08291113,-0.3034074
0.7334177,-0.09089588,-0.2632512
0.8494387,-0.1508561,-0.2664822
0.8432192,-0.1486899,-0.2661537
0.8654516,-0.1347484,-0.2301521
0.8882841,-0.1085322,-0.2461584
0.8268563,-0.02679613,-0.1977806
0.8604002,0.01369372,-0.1532825
0.8216915,0.02674029,-0.1469012
0.8217904,-0.0003968744,-0.1276536
0.8846827,-0.03298647,-0.1445739
0.9504009,-0.06274928,-0.1435259
1.148191,-0.1146478,-0.1545239
1.253435,-0.08051096,-0.1698289
1.262455,-0.04247082,-0.1528857
1.26102,-0.02973423,-0.1538461
1.24394,-0.008109246,-0.1945759
1.2902,-0.041079,-0.4253246
1.287227,-0.08076119,-0.7686865
1.238788,-0.2116448,-0.8405353
1.101088,-0.3838964,-0.6975889
0.8579919,-0.3850853,-0.6272277
0.7348251,-0.3081548,-0.5049609
0.7575042,-0.2324512,-0.3642836
0.8655208,-0.1027539,-0.436264
0.9784368,0.02881411,-0.5012614
0.989422,0.056495,-0.4887887
0.916513,-0.01785694,-0.4746933
0.8314752,-0.1053277,-0.3266537
0.7800936,-0.160264,-0.2135534
0.7559625,-0.1639497,-0.2074251
0.7779907,-0.142488,-0.210935
0.8104908,-0.1350274,-0.2558385
0.8444506,-0.1469687,-0.2542353
0.91268,-0.1613975,-0.2278601
0.9242013,-0.1516877,-0.1922292
0.9083037,-0.145474,-0.1380219
0.9174868,-0.1378409,-0.1386141
0.9109479,-0.1100116,-0.1144416
0.9195082,-0.0866052,-0.1056565
0.9354511,-0.05812437,-0.1299033
0.9905773,-0.03591414,-0.1167606
1.126015,-0.02113081,-0.1332908
1.230988,-0.001566245,-0.1228216
1.22061,-0.003987086,-0.0807159
1.184441,-0.03796452,-0.09694131
1.213847,-0.168324,-0.2305676
1.259202,-0.4000763,-0.5783066
1.293663,-0.4944157,-0.9540066
1.238011,-0.3446909,-1.020931
1.000687,-0.1447708,-0.7540605
0.7465331,0.0253681,-0.4266576
0.6641464,0.1085625,-0.2907486
0.7451447,0.004505261,-0.3302984
0.8366938,-0.1183478,-0.4225861
0.8992607,-0.1794774,-0.4904633
0.954083,-0.2168167,-0.4869655
0.8990155,-0.1540435,-0.4440917
0.8575819,-0.09537958,-0.3999853
0.8522245,-0.07214207,-0.3189382
0.7856219,-0.04772667,-0.2375531
0.834688,-0.0883677,-0.2509211
0.9047394,-0.07976606,-0.2817573
0.9207933,-0.03154453,-0.2753537
0.9702811,-0.01118611,-0.2941171
0.9364227,0.01238339,-0.283638
0.900207,-0.02420902,-0.2281476
0.8722864,-0.06472748,-0.1549199
0.8133263,-0.1201104,-0.08000523
0.8422644,-0.1877966,-0.09393437
0.8815793,-0.1644825,-0.1539019
0.9490184,-0.1666516,-0.2055299
1.072505,-0.1896853,-0.258339
1.144974,-0.1813818,-0.2364153
1.179684,-0.1880087,-0.1894253
1.169998,-0.1449693,-0.1641913
1.170392,-0.07862443,-0.1458853
1.234018,-0.0154626,-0.284325
1.281931,0.02508381,-0.5640866
1.291127,-0.02894243,-0.7660963
1.23994,-0.1384693,-0.792928
1.106258,-0.2295172,-0.6720017
0.9145303,-0.2115622,-0.5400137
0.7630581,-0.1414242,-0.4795389
0.7679971,-0.1404331,-0.4683493
0.8370561,-0.1281129,-0.4924772
0.8954481,-0.09125925,-0.4960261
0.9564107,-0.06672395,-0.4746709
0.9227368,-0.05195999,-0.445088
0.8414901,-0.08438452,-0.3770214
0.8000393,-0.09521106,-0.3095616
0.7560576,-0.08401556,-0.2796472
0.7436133,-0.09741192,-0.267392
0.7573521,-0.08524108,-0.246295
0.7832706,-0.08531368,-0.2274711
0.852879,-0.1014779,-0.2379664
0.9005957,-0.1162984,-0.2398644
0.8981703,-0.1480383,-0.1915287
0.8645941,-0.1476733,-0.1200512
0.823272,-0.1332162,-0.09382118
0.817064,-0.1043634,-0.1115664
0.8540494,-0.02760829,-0.1168614
0.9632295,0.06069524,-0.1380131
1.136366,0.1316003,-0.1908971
1.27337,0.1413257,-0.2117753
1.287129,0.08934061,-0.1747736
1.233197,0.020478,-0.119728
1.220428,-0.05872211,-0.1021521
1.231407,-0.1946124,-0.1994446
1.274762,-0.4053382,-0.5333311
1.332808,-0.5218747,-0.9853067
1.26792,-0.4378438,-1.090273
1.040596,-0.298004,-0.7509146
0.7472746,-0.1717427,-0.4238826
0.6454368,-0.07916373,-0.338698
0.7948568,-0.1563695,-0.4059011
0.8821534,-0.3034879,-0.4766176
0.8935413,-0.3262086,-0.4412731
0.9261433,-0.3050987,-0.4259793
0.8650647,-0.2520373,-0.4283296
0.8225086,-0.1711829,-0.3717665
0.8198198,-0.1141967,-0.3210958
0.7710381,-0.01062301,-0.2198075
0.8056306,0.01470072,-0.208521
0.8749551,-0.0213245,-0.3070791
0.8965026,0.03893321,-0.2889978
0.9016459,0.04855952,-0.2604506
0.8555838,0.009674386,-0.20797
0.8097123,-0.004648251,-0.1132127
0.8085649,-0.05505891,-0.1016643
0.8375442,-0.09736816,-0.08600049
0.9088865,-0.1200186,-0.1054432
1.087714,-0.113277,-0.1637578
1.319995,-0.08602687,-0.1963545
1.323427,-0.07373466,-0.2102541
1.206587,-0.01019711,-0.1843284
1.248706,0.05509375,-0.2263241
1.255474,0.03575776,-0.3171052
1.215004,-0.02080784,-0.4967404
1.236581,-0.1523164,-0.7415351
1.168226,-0.3371219,-0.6946723
1.034472,-0.3871618,-0.5620774
0.8451965,-0.3914676,-0.539305
0.733331,-0.4360504,-0.3759727
0.8662123,-0.3053811,-0.3762132
0.9492045,-0.1196223,-0.5337216
0.9518379,-0.02146455,-0.4898668
0.9622357,0.05136495,-0.4993072
0.8558744,-0.03432934,-0.4587706
0.7828266,-0.1297154,-0.2548831
0.754584,-0.1304377,-0.220768
0.7406781,-0.1509378,-0.2248891
0.7841635,-0.1022358,-0.2141905
0.7763925,-0.08937699,-0.243356
0.8009461,-0.1144685,-0.2297016
0.8370118,-0.1115488,-0.249991
0.8262495,-0.1675899,-0.2092982
0.8579101,-0.1672079,-0.1467958
0.8648342,-0.1463618,-0.1277179
0.871535,-0.1375518,-0.09635179
0.8874876,-0.08415816,-0.1301849
0.9239419,-0.06907631,-0.1298229
1.121366,-0.06369371,-0.1161023
1.358781,-0.06774829,-0.1393534
1.417542,-0.06685457,-0.1190704
1.29826,-0.04262767,-0.114029
1.22755,-0.08786406,-0.1435973
1.289005,-0.2531464,-0.3889117
1.286337,-0.4516791,-0.8156707
1.210193,-0.4141524,-0.9440215
1.065699,-0.2206292,-0.748778
0.8223133,-0.1098012,-0.5347672
0.6860483,-0.01292368,-0.3441241
0.7150635,-0.06484869,-0.275974
0.8018621,-0.2230746,-0.3948991
0.9103985,-0.2887934,-0.4152801
0.9462123,-0.3435471,-0.3561405
0.874797,-0.2331297,-0.3847374
0.8109971,-0.06942785,-0.3289364
0.7755344,-0.08150432,-0.2482939
0.7496426,-0.03839027,-0.2012248
0.8029437,-0.01410061,-0.1652123
0.8907478,-0.04762973,-0.2255575
0.9291018,0.0007334313,-0.2436996
0.9259041,0.008827592,-0.2286332
0.8765438,0.01795131,-0.1970588
0.822591,0.03139711,-0.09650729
0.8215595,-0.02332711,-0.06520637
0.8766274,-0.09682358,-0.04150112
1.006811,-0.1538336,-0.03870756
1.214497,-0.09889752,-0.1479952
1.347539,-0.005514786,-0.211986
1.265877,0.03721362,-0.1553788
1.202182,0.07551014,-0.1004977
1.309898,0.03892897,-0.2291961
1.356418,-0.02841877,-0.5018377
1.327741,-0.1069203,-0.7086667
1.267114,-0.3072958,-0.7274556
1.061055,-0.4492863,-0.6372143
0.8576694,-0.3973357,-0.5926762
0.8113078,-0.3098668,-0.4513791
0.8671601,-0.1899776,-0.3192498
0.9411929,-0.0314921,-0.4260706
0.9799369,0.03899984,-0.4642188
0.9777271,0.05589926,-0.4258655
0.919362,0.03205045,-0.4294839
0.8204997,-0.06737062,-0.2825761
0.7171526,-0.1373638,-0.1503823
0.7196468,-0.1155232,-0.188756
0.8053959,-0.06951972,-0.2256312
0.7804781,-0.08819675,-0.1870664
0.7980223,-0.1273439,-0.1884511
0.8644485,-0.143496,-0.213809
0.804912,-0.1605867,-0.1650934
0.7788215,-0.1262957,-0.1267612
0.7544185,-0.09681525,-0.07294579
0.7623399,-0.08858771,-0.05469249
0.887477,-0.06334942,-0.1350499
1.008819,-0.1087731,-0.1665487
1.219028,-0.1515611,-0.2259467
1.371866,-0.1391168,-0.2414182
1.348286,-0.110482,-0.1350507
1.356927,-0.100804,-0.1412603
1.38236,-0.2683954,-0.3404779
1.429299,-0.4988554,-0.7286397
1.421139,-0.4974845,-0.9810612
1.165245,-0.2800453,-0.8459533
0.7920728,-0.04631886,-0.6060068
0.6257211,0.03489827,-0.3822662
0.7431516,-0.07055095,-0.3326526
0.8300187,-0.2184103,-0.4862106
0.8465083,-0.3022675,-0.4829035
0.9060841,-0.3345187,-0.3973162
0.8577631,-0.260374,-0.3809382
0.8048416,-0.1265478,-0.3529126
0.7879191,-0.04023445,-0.3282389
0.7699022,0.01159309,-0.2548893
0.8346433,-0.006878922,-0.2357705
0.8152555,-0.02173526,-0.2856722
0.7940079,-0.01456917,-0.2429167
0.8417184,-0.05042259,-0.2184262
0.8100049,-0.03122151,-0.1893549
0.8291261,-0.02646825,-0.1322754
0.8536621,-0.05687091,-0.1449368
0.8710267,-0.06522954,-0.1312221
1.005273,-0.111362,-0.1477973
1.168089,-0.1097933,-0.2016484
1.279633,-0.08196353,-0.2124788
1.238341,-0.07092391,-0.2043041
1.214177,-0.03356441,-0.1233818
1.308648,-0.03428803,-0.09964501
1.28453,-0.01813243,-0.2809287
1.2325,-0.001743923,-0.6166542
1.183764,-0.1268159,-0.8650303
1.080952,-0.3244831,-0.8015159
1.000594,-0.4229278,-0.6985198
0.8873608,-0.3900089,-0.6307233
0.8650751,-0.3245296,-0.4144425
0.9150854,-0.2272583,-0.3221237
0.8857363,-0.1005936,-0.3884774
0.8898889,-0.01046236,-0.4243042
0.8820535,0.08513353,-0.4901334
0.8281561,0.07198385,-0.462419
0.7852043,-0.06989371,-0.3217825
0.7160468,-0.09731112,-0.2259918
0.7062215,-0.1033719,-0.1521352
0.766326,-0.1393563,-0.1649998
0.8237922,-0.1131056,-0.2132504
0.8672465,-0.1686802,-0.1848053
0.8736811,-0.1928988,-0.1839096
0.8803602,-0.1476594,-0.1421233
0.8899394,-0.1543037,-0.06609825
0.8625667,-0.08564172,-0.06539926
0.8575107,-0.03729037,-0.06147136
0.9738877,-0.05956228,-0.08513655
1.198176,-0.06530485,-0.1357736
1.350469,-0.09295188,-0.1644354
1.337073,-0.06557051,-0.1718099
1.290221,-0.06670354,-0.159966
1.293302,-0.2297287,-0.2777965
1.301479,-0.448628,-0.5823718
1.29899,-0.5104236,-0.9406561
1.23082,-0.3144575,-1.033467
1.014474,-0.06559095,-0.7103982
0.7707153,0.09042672,-0.3816264
0.7196039,0.08455658,-0.2954271
0.8050485,-0.121939,-0.3328908
0.8215131,-0.2991248,-0.3497435
0.8223117,-0.3109355,-0.3017478
0.8484686,-0.2252862,-0.3228725
0.7861752,-0.1326351,-0.3263092
0.734545,-0.05351737,-0.2618919
0.7581546,0.005357072,-0.2432733
0.7874109,-0.026946,-0.2014683
0.8484734,-0.04944742,-0.1907575
0.8982991,-0.04091174,-0.2026858
0.9016599,-0.05413115,-0.1728293
0.8862486,-0.01282852,-0.1595731
0.8523492,-0.01408264,-0.102425
0.8348805,-0.06240626,-0.06296627
0.8800979,-0.1049935,-0.05885866
1.027486,-0.1619767,-0.0443412
1.206291,-0.1206973,-0.1160048
1.270157,-0.0426953,-0.1803681
1.218586,0.01755462,-0.1528527
1.177258,0.06742632,-0.09418169
1.175538,0.04471287,-0.1020958
1.15621,0.06707156,-0.35568
1.169516,0.04694184,-0.763621
1.217323,-0.2138601,-0.9323355
1.22074,-0.4965114,-0.8154208
1.119931,-0.4983588,-0.6765601
0.9432428,-0.3195358,-0.4502713
0.9167575,-0.1932254,-0.251317
0.9774711,-0.01886577,-0.3610424
0.9302207,0.1339548,-0.4402445
0.8997901,0.08115203,-0.388751
0.8182808,-0.003165126,-0.3585525
0.680269,-0.1081318,-0.2120598
0.7055648,-0.1694103,-0.1703009
0.7708609,-0.1275827,-0.2181336
0.7803614,-0.1869047,-0.1360371
0.8250479,-0.1873816,-0.1575987
0.8500786,-0.1227875,-0.2041707
0.862156,-0.149368,-0.1698592
0.8929238,-0.1290498,-0.1693901
0.8586948,-0.1177156,-0.1003242
0.8143504,-0.08683225,-0.03735662
0.8189202,-0.004867796,-0.02203751
0.85229,0.002445754,0.01109912
1.004566,0.02151603,-0.03135557
1.212634,0.03635763,-0.1017982
1.309531,0.01446923,-0.1406033
1.294111,0.005809292,-0.1311089
1.260196,-0.06654192,-0.119643
1.273935,-0.2820002,-0.2765241
1.270928,-0.5698479,-0.5512899
1.256947,-0.6049005,-0.8214286
1.228488,-0.3922586,-0.9619142
1.053613,-0.2220667,-0.7851133
0.7727025,0.03257194,-0.408833
0.583514,0.2396072,-0.1642743
0.6636505,0.08375508,-0.2281531
0.8660159,-0.204285,-0.3747177
0.9504375,-0.4182049,-0.3465064
0.9525043,-0.4201851,-0.3351835
0.8519679,-0.2248616,-0.349552
0.7510595,-0.1332687,-0.2738707
0.7482453,-0.03732264,-0.2507862
0.7410945,0.07071032,-0.199261
0.7840896,0.0518204,-0.1546803
0.8226575,0.1234545,-0.1995013
0.8344539,0.15413,-0.1757999
0.862987,0.09358048,-0.1648051
0.8354431,0.08837735,-0.1466299
0.8477281,-0.01914836,-0.07729004
0.8967285,-0.1152527,-0.08465721
1.038285,-0.187958,-0.120493
1.293729,-0.2831158,-0.1879646
1.350951,-0.1634805,-0.2327943
1.291261,0.004071283,-0.2099833
1.330407,0.04181194,-0.2586737
1.336739,0.06435664,-0.4201156
1.286947,0.0461826,-0.6763934
1.249988,-0.1208072,-0.8428692
1.163725,-0.3729387,-0.7735587
0.9857257,-0.4437647,-0.6564844
0.8371109,-0.3557411,-0.5139085
0.8317175,-0.3002527,-0.3017188
0.9230171,-0.1612831,-0.3051075
0.9926128,0.02331495,-0.4610417
0.9898798,0.04705338,-0.449702
0.9108021,-0.006201993,-0.3976519
0.7717105,-0.05893305,-0.3101755
0.6926885,-0.1336133,-0.1739856
0.6958943,-0.1525702,-0.1766329
0.7235994,-0.1215277,-0.1791813
0.7904951,-0.10344,-0.1716618
0.8411803,-0.1035345,-0.1952747
0.8466746,-0.1123417,-0.1655447
0.8259319,-0.1101945,-0.1482782
0.7928213,-0.09146499,-0.08923214
0.7747176,-0.05389481,-0.05894815
0.7732868,-0.04240496,-0.09679331
0.8498514,-0.08333069,-0.09289236
1.039605,-0.1380058,-0.1288063
1.265779,-0.1727995,-0.1575874
1.360184,-0.1406587,-0.1433592
1.262117,-0.1102088,-0.1301313
1.221648,-0.1979296,-0.1541786
1.338335,-0.3921129,-0.4519491
1.443483,-0.5426268,-0.9455512
1.432836,-0.4039184,-1.115891
1.155187,-0.0891965,-0.8376476
0.7307411,0.06758537,-0.50291
0.615723,0.06892867,-0.3185296
0.7403388,-0.08069877,-0.3239763
0.7754501,-0.3047208,-0.4207106
0.8372013,-0.3378857,-0.3519951
0.8899571,-0.2373356,-0.3309129
0.7813806,-0.1267254,-0.3890756
0.7190459,-0.02687932,-0.2893443
0.7354583,-0.003245993,-0.2674588
0.7684449,-0.03292487,-0.2638666
0.878811,-0.07553037,-0.224826
0.956499,-0.07628925,-0.2783229
0.9706527,-0.04935923,-0.2578374
0.9398652,-0.03437259,-0.2595897
0.8680757,-0.01172439,-0.2275658
0.8413309,-0.02473162,-0.1085123
0.8318064,-0.06400303,-0.1211744
0.8583998,-0.1316441,-0.1526913
0.9674303,-0.1812377,-0.1775798
1.147485,-0.1435786,-0.2067424
1.312249,-0.1156874,-0.2065369
1.283017,-0.08096078,-0.2264692
1.236506,-0.013585,-0.2134484
1.306288,0.02935921,-0.3204173
1.278287,0.02365945,-0.6230014
1.240251,-0.1028197,-0.8786016
1.226787,-0.2890103,-0.8486427
1.068642,-0.4032175,-0.6736984
0.8742072,-0.377498,-0.5906033
0.7592689,-0.2872439,-0.3925669
0.775793,-0.2428158,-0.2686728
0.8963432,-0.08778411,-0.4222817
0.9609785,0.1142878,-0.4592714
0.9399659,0.1044088,-0.4612225
0.8676781,-0.003835457,-0.4605757
0.7878769,-0.1024857,-0.2914715
0.7293703,-0.1960501,-0.1932312
0.7119255,-0.1789359,-0.1817626
0.7341248,-0.1209485,-0.1762956
0.7430281,-0.1537128,-0.1741697
0.812754,-0.1576698,-0.1917011
0.8596634,-0.1425755,-0.221459
0.8241354,-0.1876423,-0.1586967
0.8715118,-0.1502667,-0.1225899
0.9015957,-0.1065944,-0.1133258
0.9310556,-0.1184832,-0.09398776
1.054813,-0.1003393,-0.1259047
1.150724,-0.1152891,-0.117642
1.231179,-0.09450567,-0.1341117
1.253087,-0.04571002,-0.1422923
1.2371,-0.05698204,-0.1229188
1.28727,-0.1442903,-0.2116252
1.353043,-0.3265989,-0.3950303
1.419479,-0.4010004,-0.7234548
1.391256,-0.3364565,-0.9588521
1.149144,-0.216565,-0.8321739
0.792477,0.0100399,-0.5686997
0.6456268,0.09449991,-0.3651778
0.77478,-0.07920731,-0.3527456
0.8407574,-0.2358498,-0.4610671
0.8747209,-0.2577925,-0.4294998
0.9271104,-0.2066066,-0.3788963
0.8110952,-0.134455,-0.3785978
0.7200728,-0.08177607,-0.3077388
0.719912,-0.06065491,-0.2628664
0.7421499,-0.06267981,-0.2342306
0.8558805,-0.0656619,-0.2170811
0.9312706,-0.03963533,-0.2603172
0.9453755,-0.004092772,-0.2614597
0.9132385,0.009470943,-0.2692968
0.8275136,8.676733e-06,-0.2422372
0.7903283,-0.03316841,-0.1408511
0.7780893,-0.08867299,-0.1146112
0.8846643,-0.1633791,-0.1147867
1.118916,-0.1937422,-0.1541168
1.262497,-0.1545691,-0.2310664
1.278122,-0.1077987,-0.2254902
1.223898,-0.04907494,-0.1694766
1.210128,-0.01299401,-0.1088226
1.243975,-0.02803718,-0.1896965
1.246446,-0.01129408,-0.521941
1.253697,-0.02023466,-0.8769878
1.217261,-0.1930245,-0.9097689
1.108744,-0.3911242,-0.7572853
0.9510399,-0.3628791,-0.7149432
0.8104691,-0.221819,-0.5065879
0.8185666,-0.1344968,-0.3085641
0.909874,-0.0009996199,-0.446317
0.9719219,0.08312629,-0.4709971
0.9600715,0.04239835,-0.4463378
0.8810821,-0.01186767,-0.4689149
0.8101961,-0.1346016,-0.314902
0.7484349,-0.2217729,-0.2642237
0.7354552,-0.1979993,-0.2451796
0.7716076,-0.1964987,-0.1896525
0.7929268,-0.163812,-0.2408985
0.8373057,-0.131355,-0.21618
0.8635247,-0.1382743,-0.2045264
0.8584146,-0.1223508,-0.2001361
0.8742315,-0.1320878,-0.1208922
0.8602931,-0.1265486,-0.1060307
0.8438227,-0.1038247,-0.09403491
0.8795328,-0.08550714,-0.09792755
0.9874063,-0.03761606,-0.1310679
1.182147,-0.01370256,-0.1591646
1.314125,0.0008880856,-0.2002739
1.280596,0.00653924,-0.1653765
1.205761,-0.02033452,-0.136639
1.178592,-0.1019823,-0.2028688
1.226155,-0.2995435,-0.3983585
1.37011,-0.4785632,-0.8163285
1.432915,-0.4922703,-1.117615
1.213774,-0.3331926,-0.9400048
0.8803532,-0.08714749,-0.6144181
0.7708446,0.00417468,-0.4618929
0.8450397,-0.08589668,-0.3955598
0.8463649,-0.1890829,-0.3891889
0.8898727,-0.3125894,-0.3879865
1.017874,-0.3775747,-0.3974458
0.9620195,-0.2792528,-0.4210576
0.835045,-0.1559891,-0.3438525
0.8035386,-0.07489925,-0.3201352
0.786201,-0.04478135,-0.3038126
0.8100769,-0.06676577,-0.2200311
0.8352136,-0.0522157,-0.2449314
0.86767,-0.06940614,-0.2477886
0.9164004,-0.07740551,-0.2321487
0.8845927,-0.002920542,-0.2263471
0.8868595,0.008600241,-0.1580767
0.9084513,0.01925568,-0.1427879
0.8834594,0.023728,-0.1206869
0.9092214,-0.03112823,-0.1001492
0.9309323,-0.03595108,-0.09998333
1.007851,-0.06021223,-0.06532316
1.151948,-0.04800685,-0.0591499
1.184318,0.03026443,-0.05132415
1.138411,0.05066276,-0.05981372
1.129196,0.02083435,-0.1155085
1.21833,-0.05722016,-0.306497
1.308659,-0.1033172,-0.6443904
0.8759581,-0.09358273,-0.33301
0.8692611,-0.09229563,-0.2905838
0.8379372,-0.03370517,-0.2133569
0.8434439,-0.04109984,-0.1788533
0.8358992,-0.04511894,-0.1673266
0.8539133,-0.06024124,-0.160184
0.9070003,-0.1038403,-0.1400509
0.9828955,-0.1068159,-0.1516928
1.110559,-0.1212601,-0.1594585
1.150652,-0.07805347,-0.1248789
1.181256,0.01155552,-0.1032194
1.246551,0.04886542,-0.07405335
1.246624,0.05518862,-0.1263079
1.301573,0.06148862,-0.376935
1.322587,0.05047812,-0.7332468
1.216686,-0.1321527,-0.8990188
1.088737,-0.395133,-0.7539663
0.9231739,-0.4297173,-0.6408268
0.8361281,-0.3258298,-0.5661681
0.8930284,-0.2420591,-0.4124845
0.9435268,-0.08965692,-0.4665836
0.9745043,0.03531368,-0.5321678
0.9747848,0.01020888,-0.4609781
0.9026462,-0.007994754,-0.4590127
0.8215667,-0.0312355,-0.346273
0.7482722,-0.1199827,-0.2237181
0.7194472,-0.1214372,-0.2373135
0.7544453,-0.09641502,-0.2065863
0.7731624,-0.1167544,-0.2168656
0.7936691,-0.1332674,-0.2407406
0.8301297,-0.1753154,-0.2167395
0.8479142,-0.1945072,-0.2047234
0.8672866,-0.1936812,-0.1362576
0.8596037,-0.182811,-0.1007219
0.863637,-0.1043795,-0.1209305
0.9760405,-0.015627,-0.1069321
1.153276,0.009972428,-0.1145984
1.297953,-0.02873567,-0.1758572
1.343353,-0.05431023,-0.2250688
1.286911,-0.06009037,-0.1394999
1.220054,-0.1699845,-0.07503289
1.21851,-0.3974398,-0.3258723
1.232722,-0.5559532,-0.7115578
1.193431,-0.459462,-0.9000578
1.079801,-0.2653579,-0.8485217
0.9000188,-0.1326294,-0.6331169
0.8201259,0.01115893,-0.4381032
0.8801588,-0.01716383,-0.4581965
0.9100648,-0.1679641,-0.5033262
0.9410511,-0.1811483,-0.4043082
0.9412091,-0.2074366,-0.3821783
0.8397884,-0.190417,-0.3837641
0.7682255,-0.1008613,-0.3103869
0.7297772,-0.09156974,-0.2854547
0.7391619,-0.05200113,-0.2136079
0.7916381,-0.0651423,-0.1872113
0.8045477,-0.08515014,-0.2499791
0.8352072,-0.02321741,-0.2289467
0.8315074,-0.03284269,-0.215635
0.8102328,-0.02194426,-0.1889676
0.8440645,-0.04676488,-0.162519
0.8757081,-0.1440948,-0.1872501
1.010021,-0.2004873,-0.1640656
1.182007,-0.2239375,-0.1824949
1.228086,-0.07277908,-0.1919186
1.239345,0.1284514,-0.1370118
1.241351,0.1431017,-0.09876824
1.244268,0.0328311,-0.06899724
1.255123,-0.0597548,-0.1937164
1.197911,-0.03972388,-0.5832887
1.121405,-0.09700379,-1.008998
1.098729,-0.2728791,-1.019104
1.048566,-0.3761848,-0.7548016
0.9160273,-0.4117227,-0.6810398
0.8555063,-0.3625986,-0.5331624
0.905471,-0.2981186,-0.3953565
0.9232678,-0.2762433,-0.5099921
0.9137562,-0.1860594,-0.4792341
0.8637632,-0.0746778,-0.4338284
0.7674613,-0.01074589,-0.4320867
0.7557924,-0.06222191,-0.2828939
0.772572,-0.1965647,-0.2509437
0.7401524,-0.185303,-0.2563142
0.7511074,-0.146628,-0.2233575
0.7670358,-0.1960185,-0.2457057
0.7611865,-0.1689739,-0.2177364
0.7923401,-0.1678395,-0.1911727
0.8103218,-0.1880121,-0.1548992
0.8232867,-0.1322524,-0.1080049
0.849744,-0.0925611,-0.1022912
0.8706426,-0.02327012,-0.07866578
0.9310027,-0.0007910166,-0.07146491
1.079921,-0.04662585,-0.1287314
1.339483,-0.04484172,-0.2646449
1.47007,-0.07665473,-0.3579667
1.357341,-0.1105935,-0.3207994
1.319696,-0.2290076,-0.3954785
1.335892,-0.4881158,-0.7263846
1.2797,-0.5365533,-1.001222
1.202044,-0.313249,-0.8826381
0.924154,-0.07031748,-0.6254126
0.6725998,0.04389999,-0.5265292
0.7133264,-0.03141933,-0.3916541
0.6876034,-0.153166,-0.2627451
0.6352136,-0.2131152,-0.2975641
0.7877229,-0.280203,-0.34104
0.9034984,-0.3165745,-0.3525557
0.9298166,-0.2635101,-0.3833915
0.9022148,-0.1441799,-0.3856088
0.805967,-0.03573576,-0.3078797
0.7944918,-0.01309556,-0.2146499
0.7992744,-0.007764554,-0.1781198
0.7778112,-3.529863e-05,-0.1711024
0.7962687,-0.01012709,-0.1853727
0.7661781,-0.004277311,-0.1624816
0.7791185,-0.02781725,-0.1221511
0.898101,-0.06477414,-0.1231323
1.08282,-0.08510876,-0.1333208
1.262503,-0.07323479,-0.1752426
1.257404,-0.0009711247,-0.1551984
1.220149,0.04468589,-0.02216632
1.271385,0.02767564,0.07697524
1.282387,0.007933319,-0.06331588
1.284014,0.03775208,-0.5344232
1.236981,0.03277254,-0.9521702
1.152533,-0.1438166,-0.9386085
1.114333,-0.3819788,-0.7434911
1.04075,-0.4747476,-0.6689447
0.9636733,-0.3955593,-0.5137419
0.9703565,-0.274436,-0.3041368
0.9857457,-0.09088264,-0.3586343
0.9449804,0.1218479,-0.4463286
0.8870239,0.120661,-0.439203
0.8069974,0.0353342,-0.3878439
0.7248163,-0.01896358,-0.2065722
0.7188733,-0.1305842,-0.1574533
0.740109,-0.1578214,-0.1902861
0.7599195,-0.1470371,-0.1645765
0.7870886,-0.1659746,-0.2029301
0.7915044,-0.1494061,-0.1673269
0.7969149,-0.1430433,-0.1200852
0.78605,-0.1015378,-0.11354
0.7804537,-0.05966496,-0.07794363
0.8488079,-0.07408149,-0.1015547
1.006778,-0.1017582,-0.1186522
1.218969,-0.1394869,-0.1486512
1.329185,-0.1283219,-0.1842944
1.28853,-0.07270628,-0.1120181
1.204349,-0.007235783,-0.0262145
1.143407,0.005486467,-0.05116965
1.182536,-0.1858309,-0.3171564
1.280495,-0.4308358,-0.7640027
1.287739,-0.4289367,-1.019301
1.177753,-0.2609812,-0.9669127
0.9998064,-0.1314712,-0.8032294
0.836733,-0.01271409,-0.5355738
0.7595795,0.05153,-0.2719898
0.7838235,-0.07562755,-0.302458
0.8857553,-0.2617962,-0.3947417
0.9424927,-0.3032909,-0.3503884
0.9108661,-0.2403674,-0.3875484
0.8436809,-0.1725581,-0.3976814
0.7524643,-0.08200515,-0.3109211
0.7245087,-0.02186844,-0.2435728
0.75627,-0.05082257,-0.1708065
0.7797025,-0.05213517,-0.1748568
0.8302764,-0.02451808,-0.2068158
0.8541065,-0.01545609,-0.184256
0.826195,0.02920704,-0.1690459
0.8149531,0.03935113,-0.1224595
0.8409531,-0.01299999,-0.1042984
0.9591248,-0.07931583,-0.1289957
1.181904,-0.1425083,-0.147113
1.33217,-0.1293981,-0.197407
1.3156,-0.06093178,-0.1832256
1.296606,-0.02055734,-0.1488782
1.314034,-0.02275106,-0.2415758
1.291113,-0.03975296,-0.5036465
1.268294,-0.07530896,-0.8701955
1.203285,-0.2459116,-0.943926
1.043404,-0.4559497,-0.7421947
0.8798313,-0.4640681,-0.6703827
0.8363898,-0.3828434,-0.5645458
0.88693,-0.2911329,-0.4162822
0.8927851,-0.1159168,-0.3876733
0.8872863,-0.05683159,-0.3563356
0.8993564,-0.06023915,-0.4198706
0.8652237,0.06842976,-0.4453928
0.8408697,0.04163299,-0.3669612
0.8207525,-0.1158277,-0.3342028
0.7744066,-0.1397357,-0.1918673
0.7582543,-0.1623915,-0.165261
0.75891,-0.1572153,-0.2482899
0.7676869,-0.1385771,-0.1791298
0.7959971,-0.1807441,-0.1881518
0.804859,-0.1626041,-0.1666254
0.7917125,-0.1743179,-0.09942487
0.7828839,-0.1512631,-0.1368506
0.785478,-0.05749795,-0.1173569
0.8489538,-0.05470276,-0.1329832
1.037816,-0.04369361,-0.1740513
1.281457,-0.03701123,-0.1726581
1.403078,-0.04240152,-0.1852651
1.36294,-0.0182527,-0.1304577
1.31964,-0.08333883,-0.1280132
1.330755,-0.2541243,-0.3747269
1.312872,-0.4479426,-0.7769386
1.240964,-0.4284276,-0.9396099
1.021864,-0.2477151,-0.7587663
0.7204599,-0.1405313,-0.5487849
0.6442679,-0.02891579,-0.3601145
0.7310708,-0.06457355,-0.3072728
0.796841,-0.210615,-0.4173482
0.9096488,-0.2177093,-0.3731081
0.9619413,-0.2300079,-0.3497213
0.8984994,-0.1767792,-0.4183354
0.8701721,-0.06748767,-0.3541277
0.8267807,-0.05934812,-0.31448
0.790393,-0.02913127,-0.2391378
0.8430036,-0.03857845,-0.1520799
0.8407323,-0.05184373,-0.2106344
0.7974361,-0.01384522,-0.1868354
0.7725825,-0.01194403,-0.147752
0.7420807,0.0295987,-0.14865
0.8036932,-0.006160175,-0.1011747
0.9029638,-0.08597944,-0.1361904
1.010294,-0.07217393,-0.1819062
1.196546,-0.08612725,-0.2145755
1.300515,-0.04703794,-0.1931649
1.26289,0.04640894,-0.0624535
1.246414,0.05052972,-0.02141021
1.272937,-0.002440793,-0.08974644
1.245546,-0.04809479,-0.3429212
1.214186,-0.07904318,-0.7859049
1.221911,-0.2577597,-0.9948986
1.172772,-0.4925995,-0.8637126
1.065738,-0.4355377,-0.6966167
0.9310579,-0.2752334,-0.5147556
0.8764549,-0.2021779,-0.297131
0.9393461,-0.004959927,-0.3216405
0.9155331,0.1398955,-0.446551
0.8559234,0.1014412,-0.4151973
0.8258046,0.04810411,-0.3734004
0.7505781,-0.1079989,-0.2610584
0.741486,-0.2303296,-0.1832614
0.7487998,-0.2126337,-0.220981
0.7377993,-0.2307504,-0.1724519
0.786473,-0.1939635,-0.1846149
0.8086932,-0.1413516,-0.1954783
0.8076147,-0.1334444,-0.1436933
0.8084227,-0.079522,-0.1724041
0.8126056,-0.04211087,-0.1484921
0.8326427,-0.0336073,-0.1409422
0.8698758,-0.06069292,-0.1540343
1.031144,-0.07467161,-0.109986
1.194639,-0.06875304,-0.1226262
1.19209,-0.1030725,-0.1158706
1.199847,-0.100281,-0.0783264
1.243422,-0.1013086,-0.06129107
1.217044,-0.1371683,-0.1254944
1.249634,-0.2480808,-0.3988025
1.320229,-0.4015631,-0.7391204
1.282707,-0.3457766,-0.9268478
1.171566,-0.2002494,-0.9333979
1.012952,-0.1203718,-0.8025707
0.922087,-0.050208,-0.6026232
0.8617948,-0.08482183,-0.4447558
0.7047657,-0.1281567,-0.3206908
0.7824746,-0.1566216,-0.2974879
0.9532816,-0.2526537,-0.420204
0.8438773,-0.2032005,-0.3685137
0.8001968,-0.09044347,-0.2878751
0.8079546,-0.08154628,-0.3301552
0.7440095,-0.03570565,-0.2090572
0.8176187,-0.02431116,-0.1906158
0.8493134,-0.04169902,-0.2350936
0.8431656,0.01531435,-0.1686963
0.8823077,0.03391043,-0.2072067
0.8485021,0.04204728,-0.1653707
0.8607703,0.03972851,-0.1432987
0.8949384,-0.02427168,-0.1909867
0.9597072,-0.09848899,-0.1508904
1.136962,-0.1773988,-0.1862271
1.231925,-0.1629747,-0.1762042
1.2233,-0.0492221,-0.1493602
1.223512,0.05637054,-0.1714207
1.260451,0.09755169,-0.1790301
1.321451,0.04382181,-0.3686196
1.336689,0.006070789,-0.6266905
1.27667,-0.0610634,-0.7316807
1.129814,-0.2393824,-0.7001492
0.9714176,-0.3731152,-0.6650077
0.876438,-0.4114705,-0.6050895
0.8414318,-0.3604733,-0.4167697
0.8644145,-0.2797336,-0.3749654
0.8980375,-0.1879589,-0.4569325
0.9342691,-0.01800327,-0.4315329
0.9217768,0.04987815,-0.423873
0.8409498,-0.0008805999,-0.3886617
0.7810136,-0.03405588,-0.291572
0.7371892,-0.1069337,-0.2219696
0.73595,-0.1376727,-0.1735673
0.7665671,-0.1114704,-0.1762667
0.7888267,-0.142281,-0.1952958
0.8334048,-0.1700218,-0.2000828
0.8303838,-0.1624819,-0.1833521
0.805522,-0.1357908,-0.1399382
0.8153422,-0.0882154,-0.1177916
0.8418511,-0.06364151,-0.1148295
0.9675755,-0.06969603,-0.1367268
1.16738,-0.06965924,-0.1802558
1.322066,-0.05108614,-0.2049422
1.36343,-0.01739316,-0.1861382
1.305673,0.03441267,-0.1282626
1.25042,0.02612895,-0.1210252
1.179927,-0.1778841,-0.2616115
1.09908,-0.471132,-0.5440474
1.117708,-0.5277493,-0.8343352
1.142208,-0.3602653,-0.9774402
1.072751,-0.2774092,-0.9419576
1.020646,-0.2627455,-0.8281504
0.9533554,-0.1607445,-0.6329051
0.8059294,-0.08003766,-0.33272
0.7614996,-0.1684809,-0.2908575
0.8284896,-0.3058724,-0.4338836
0.860651,-0.2794317,-0.3459334
0.8722884,-0.2178694,-0.3636383
0.8097328,-0.1666059,-0.413641
0.7020205,-0.01753113,-0.2628167
0.7236396,-0.01469264,-0.2815751
0.780995,-0.06487398,-0.2418479
0.7933809,0.03199248,-0.140628
0.8453951,0.02462794,-0.209715
0.8416213,0.004994987,-0.186304
0.814739,0.03410071,-0.174997
0.8672814,-0.07424088,-0.1685903
0.8942575,-0.1619805,-0.1172027
1.000657,-0.1643605,-0.1522278
1.21398,-0.1676781,-0.1549714
1.275308,-0.1128863,-0.1573345
1.211322,0.01074676,-0.130677
1.217114,0.06566294,-0.09480224
1.295821,0.02840998,-0.2442149
1.325972,0.03288697,-0.56234
1.261709,-0.03221959,-0.8412373
1.169424,-0.2487542,-0.82234
1.069779,-0.4344989,-0.7186544
0.9488213,-0.4644397,-0.6993211
0.8959165,-0.3577792,-0.5196946
0.954061,-0.2363607,-0.4154095
0.9540955,-0.04789764,-0.5166323
0.9044502,0.1335398,-0.5102621
0.8920078,0.07042199,-0.4458982
0.8120965,-0.02173429,-0.3814682
0.7657253,-0.04881124,-0.2728441
0.7672477,-0.1194041,-0.2397004
0.724659,-0.1231066,-0.2338462
0.7594374,-0.1266729,-0.2157881
0.8020252,-0.1586673,-0.22711
0.7961848,-0.1578091,-0.2081066
0.8020074,-0.1679063,-0.184693
0.7928928,-0.1474698,-0.1569527
0.814904,-0.1278816,-0.1158879
0.8572022,-0.1347715,-0.1369142
0.902874,-0.12671,-0.1618575
0.9784497,-0.1216443,-0.1556241
1.079053,-0.09286145,-0.157336
1.17688,-0.06462736,-0.1434242
1.186747,-0.07476603,-0.1577536
1.198115,-0.1345804,-0.2633351
1.309912,-0.282169,-0.5421632
1.416809,-0.3982613,-0.9462669
1.408099,-0.3598009,-1.079972
1.130151,-0.238003,-0.8211979
0.7179822,-0.1030669,-0.4786074
0.600716,-0.03017915,-0.243132
0.7076156,-0.1293669,-0.2626523
0.7618256,-0.2630111,-0.4192926
0.8445203,-0.2561355,-0.4116121
0.8935723,-0.2042061,-0.3945966
0.8137048,-0.1354256,-0.4156825
0.804934,-0.06406088,-0.3474636
0.8548644,-0.06010401,-0.3179897
0.8931973,-0.05231037,-0.2893891
0.9834776,-0.05142956,-0.2821542
0.9983289,-0.0494956,-0.3193628
0.9453526,-0.008159779,-0.2810273
0.9119008,0.003824081,-0.2480151
0.8465481,0.002647265,-0.1788861
0.8220689,-0.01262084,-0.1274112
0.84749,-0.03573751,-0.1754295
0.8786945,-0.03623655,-0.1656512
0.9618673,-0.04159111,-0.1808841
1.068814,-0.02073819,-0.2044414
1.142843,0.0180884,-0.1596434
1.161725,0.0479231,-0.137816
1.163535,0.05337733,-0.09540324
1.192061,0.01716993,-0.1363059
1.239823,-0.01597156,-0.3846141
1.284787,-0.06145569,-0.6930482
1.262329,-0.1809411,-0.8070436
1.152421,-0.3951678,-0.7434802
1.011751,-0.5454824,-0.726774
0.8930759,-0.4951211,-0.6229838
0.8368486,-0.4296297,-0.4803419
0.8625917,-0.3042449,-0.50292
0.9369224,-0.03162167,-0.4636661
0.9738939,0.02910546,-0.4349722
0.9590938,-0.03908049,-0.5138085
0.9413685,0.03949535,-0.4840402
0.8967151,-0.02314079,-0.4034652
0.8086428,-0.1765819,-0.2839259
0.745295,-0.1594239,-0.1763567
0.747632,-0.1522578,-0.2014165
0.7677338,-0.1607439,-0.2142281
0.7907338,-0.1216195,-0.2231793
0.8219336,-0.1259564,-0.2476329
0.8220542,-0.1171432,-0.2105635
0.8298837,-0.1041119,-0.1818403
0.8665765,-0.1043071,-0.1565897
0.9013367,-0.07294686,-0.1477786
0.9645876,-0.0418901,-0.171798
1.06011,-0.03100595,-0.1718698
1.179288,-0.06037904,-0.1766269
1.262399,-0.0850232,-0.1649622
1.248288,-0.08029739,-0.1236103
1.240791,-0.1232383,-0.1325905
1.304478,-0.2377527,-0.3006031
1.38706,-0.3565606,-0.6449968
1.380303,-0.3276253,-0.8812076
1.103205,-0.185193,-0.8091178
0.6820525,-0.06641482,-0.5752713
0.5631774,0.05108069,-0.3620458
0.7432971,0.03814317,-0.3604834
0.898131,-0.13542,-0.5456493
1.032378,-0.2451658,-0.6058106
1.057951,-0.2421413,-0.4931809
0.8868722,-0.1856623,-0.3631199
0.7865328,-0.162604,-0.2929264
0.7430372,-0.152017,-0.2946242
0.7055207,-0.1183813,-0.2610937
0.7689334,-0.1466718,-0.2127485
0.7867824,-0.1252896,-0.2192286
0.7889596,-0.05883768,-0.2083871
0.8010657,-0.01319813,-0.1920604
0.7678754,0.07706786,-0.1776609
0.7913934,0.08531674,-0.1676959
0.8312198,0.03720858,-0.1799714
0.948493,-0.02766621,-0.1784612
1.146162,-0.1628555,-0.1974475
1.252261,-0.2003954,-0.211846
1.305891,-0.1308258,-0.1837444
1.31915,-0.06886306,-0.1492383
1.289375,-0.03606623,-0.1347373
1.247456,0.01126502,-0.2213722
1.187598,0.09633507,-0.4411069
1.125468,0.08810244,-0.7411674
1.069905,-0.08272374,-0.9477805
1.077489,-0.3354716,-0.884095
1.041641,-0.4573565,-0.7532349
0.9440889,-0.3908477,-0.7011332
0.9534459,-0.304542,-0.5190709
0.9517323,-0.1594232,-0.3306677
0.9198037,-0.02292065,-0.3895262
0.9352617,0.01069253,-0.4737539
0.8490471,0.1018221,-0.4343996
0.7292544,0.09617178,-0.4008241
0.6989745,-0.05919823,-0.3228642
0.674121,-0.1118061,-0.2103275
0.6682224,-0.1566762,-0.2036988
0.7223671,-0.2106239,-0.2094671
0.7875831,-0.2049965,-0.1867947
0.8410419,-0.2584421,-0.1967417
0.8693488,-0.2639144,-0.1690684
0.8656856,-0.2059294,-0.1342081
0.8502504,-0.1552348,-0.1164592
0.8577885,-0.0717193,-0.1017266
0.9830179,-0.06628907,-0.1373302
1.223127,-0.07374785,-0.170367
1.365229,-0.006113063,-0.1908365
1.339071,0.05005257,-0.1967309
1.307035,0.04050376,-0.2137605
1.316473,-0.1875381,-0.4061207
1.322256,-0.4538785,-0.7409414
1.294094,-0.399602,-0.9472582
1.107773,-0.2489614,-0.8798692
0.8219428,-0.1866317,-0.681676
0.7127262,-0.02307582,-0.4540863
0.7379421,0.0594581,-0.3084997
0.7911973,-0.1239352,-0.432914
0.9495442,-0.2880273,-0.5110693
1.009176,-0.311803,-0.3762812
0.8936528,-0.2609402,-0.3388683
0.8016751,-0.1724952,-0.3060118
0.7092715,-0.1082202,-0.2264219
0.6880525,-0.05787947,-0.2102924
0.740741,-0.0352868,-0.1642029
0.7155243,0.005419354,-0.1557166
0.7273753,0.05872784,-0.1840976
0.7301182,0.07230513,-0.1748489
0.6928101,0.09317275,-0.1516585
0.8105444,0.03474831,-0.09882483
1.038939,-0.05707463,-0.09715575
1.276547,-0.07422494,-0.1655866
1.360831,-0.07168126,-0.2058231
1.263878,-0.03234227,-0.1644297
1.256514,-0.007666805,-0.09428492
1.290676,-0.01629304,-0.1558623
1.259664,-0.01672312,-0.4390734
1.261015,-0.07006911,-0.8464306
1.239724,-0.2494771,-0.9929312
1.165683,-0.4954846,-0.8041748
1.04495,-0.5204561,-0.6820498
0.8978885,-0.3624928,-0.5245014
0.8761278,-0.3025615,-0.3195428
0.9424793,-0.230117,-0.3973061
0.9217543,-0.03948649,-0.446206
0.8326189,0.1389498,-0.3677212
0.7398715,0.1117209,-0.3480571
0.680397,-0.03654818,-0.2300422
0.6766325,-0.03305589,-0.1897881
0.6809537,-0.07678187,-0.2278011
0.7288998,-0.2013031,-0.1481628
0.8127595,-0.194397,-0.1638518
0.8396413,-0.2227716,-0.1921093
0.8385629,-0.2393479,-0.1346982
0.8168939,-0.1905769,-0.1283164
0.8010821,-0.1496586,-0.0813221
0.8693433,-0.0543707,-0.04592336
1.047925,-0.05442804,-0.1047726
1.305504,-0.09026079,-0.1806684
1.434871,-0.05018961,-0.2367021
1.395162,-0.04559435,-0.1768878
1.389116,-0.07659404,-0.1461847
1.397455,-0.2936062,-0.4327877
1.340327,-0.5358241,-0.8537111
1.275977,-0.3919174,-1.03696
1.190056,-0.1820523,-0.9237048
0.9487246,-0.1360168,-0.5901754
0.6753204,0.03630264,-0.2622149
0.7355348,0.0449863,-0.3145264
0.9061723,-0.2006701,-0.4631201
0.8482822,-0.2124871,-0.332415
0.8585259,-0.1757226,-0.3446841
0.8879175,-0.1690706,-0.3993014
0.778824,-0.0479934,-0.2469292
0.7694947,-0.05965827,-0.2650195
0.7417197,-0.07624422,-0.2524953
0.691778,-0.07803043,-0.1485858
0.7215267,-0.1053706,-0.1738142
0.727142,-0.01595897,-0.1453117
0.7908982,0.02245524,-0.1508302
0.8273464,0.04677438,-0.1414355
0.8351743,0.05118233,-0.09444564
0.8963203,-0.02040248,-0.1280246
0.9812811,-0.06117565,-0.1085016
1.184197,-0.09325875,-0.1587331
1.29981,-0.04424063,-0.2121137
1.302072,0.004821847,-0.1497005
1.376918,0.02387801,-0.1769732
1.402805,0.05418553,-0.3597415
1.410468,0.01774551,-0.6064637
1.36208,0.007697937,-0.7387922
1.1974,-0.1491784,-0.8425348
1.074115,-0.4268969,-0.849447
0.9678201,-0.4603013,-0.6320329
0.8875453,-0.3443691,-0.5500106
0.9097866,-0.2258529,-0.4738605
0.926934,-0.09018292,-0.378707
0.8938069,0.04047079,-0.504677
0.8714971,0.07457894,-0.4646555
0.8360753,-0.0169682,-0.3364214
0.7945139,-0.0890439,-0.2578538
0.7791657,-0.1226935,-0.1172332
0.7387736,-0.1243419,-0.1616038
0.7057731,-0.1034133,-0.1856586
0.7027978,-0.1102078,-0.1425026
0.6953149,-0.1037607,-0.1526264
0.7142221,-0.1010482,-0.017929
0.7348818,-0.07453395,0.02541474
0.777065,-0.01576437,-0.06649875
0.9251234,-0.01574613,-0.1620418
1.163193,-0.08964028,-0.2825962
1.376888,-0.1806024,-0.2786211
1.442311,-0.1719095,-0.2040237
1.402535,-0.09187493,-0.09322712
1.327771,-0.04981118,-0.01658936
1.21316,-0.08756265,-0.1304959
1.150238,-0.3100145,-0.3837043
1.168367,-0.5226301,-0.7503617
1.174125,-0.3977895,-1.013238
1.134665,-0.1793302,-0.9739822
1.022153,-0.1191377,-0.7211717
0.8396154,-0.05653167,-0.3900102
0.7523737,-0.08392549,-0.2545187
0.7808678,-0.2324845,-0.3076491
0.7677269,-0.249074,-0.2844014
0.7778542,-0.2123317,-0.3009486
0.8105713,-0.155809,-0.3820211
0.748805,-0.06051614,-0.3359842
0.7151707,-0.06415568,-0.2519617
0.7586847,-0.06560459,-0.1700245
0.797923,-0.0575815,-0.1221452
0.8131773,-0.06117073,-0.1867903
0.8084222,-0.01130306,-0.1916095
0.8146712,0.01459658,-0.1570745
0.8173121,0.02183501,-0.1729992
0.8611052,-0.03668201,-0.1635442
1.03329,-0.1422251,-0.1877095
1.247245,-0.154958,-0.2225685
1.333898,-0.0716525,-0.2189299
1.32188,0.01871858,-0.1758243
1.359514,-0.01931681,-0.1078583
1.35366,-0.05701363,-0.2223493
1.250046,-0.04034123,-0.6147785
1.164286,-0.210704,-0.9745844
1.077134,-0.4384035,-0.8902572
1.018679,-0.4846146,-0.6975346
0.9698861,-0.4148312,-0.7667501
0.8930184,-0.3506109,-0.5400248
0.9104081,-0.283903,-0.2756448
0.9488801,-0.1422493,-0.4937056
0.9319327,0.04367979,-0.5435904
0.9227564,0.1439006,-0.4368758
0.8644501,0.027638,-0.4124452
0.7754593,-0.1029284,-0.2486763
0.7414558,-0.08128923,-0.2254121
0.7020418,-0.1177547,-0.2606742
0.6591351,-0.1159828,-0.201293
0.7016366,-0.04821385,-0.2064173
0.7254513,-0.08386677,-0.1406786
0.6852205,-0.08261267,-0.07244429
0.6928829,-0.07970725,-0.05390795
0.7245221,-0.08447628,-0.015119
0.833407,-0.05055264,-0.06895302
1.099141,-0.1264533,-0.1732182
1.360167,-0.2114477,-0.254909
1.435079,-0.2236057,-0.2786619
1.39337,-0.198295,-0.2278034
1.407517,-0.1426487,-0.2207449
1.390015,-0.1616142,-0.3168941
1.331648,-0.3072913,-0.5775625
1.32752,-0.4554272,-0.9313355
1.132883,-0.3430272,-0.9745252
0.743693,-0.1216668,-0.6537542
0.5349981,-0.09869061,-0.3826397
0.6002554,-0.09698242,-0.3442121
0.751059,-0.1245633,-0.456157
0.8932137,-0.2179933,-0.5178703
1.01028,-0.1883938,-0.4515492
0.990098,-0.1464384,-0.4232973
0.9000724,-0.1099401,-0.4070149
0.8355049,-0.06606054,-0.3352991
0.7638629,-0.1015445,-0.269764
0.7739451,-0.113499,-0.2052485
0.7754829,-0.1226992,-0.1956658
0.7296732,-0.1206037,-0.2079244
0.7385097,-0.05777428,-0.163085
0.7319073,-0.03229004,-0.1280057
0.7978364,-0.02240392,-0.1205272
0.9321719,-0.02936838,-0.1470505
1.034469,-0.07380085,-0.1997758
1.178494,-0.09932226,-0.2099801
1.286426,-0.07734871,-0.1477014
1.302534,0.003981785,-0.05728936
1.268977,0.057177,-0.06347705
1.20645,0.05676307,-0.2268998
1.157366,0.06774172,-0.5844707
1.13996,0.02042271,-0.9941341
1.208697,-0.2364909,-1.067352
1.255082,-0.5993782,-0.9170907
1.101617,-0.6523699,-0.7968492
0.9028275,-0.4479039,-0.5003215
0.8664766,-0.3088299,-0.2811472
0.8995673,-0.08270572,-0.4238574
0.8782707,0.1194986,-0.4987207
0.848889,0.08110519,-0.4319559
0.7893135,0.01983884,-0.3849658
0.6921093,-0.0697076,-0.2375677
0.6717856,-0.1548178,-0.1517169
0.7058869,-0.1281634,-0.1844264
0.7399423,-0.1390471,-0.1627998
0.7844614,-0.1381087,-0.1664411
0.8102756,-0.107908,-0.1774736
0.8093877,-0.09926784,-0.136192
0.780482,-0.04915224,-0.1223722
0.7589112,-0.03076653,-0.1045364
0.8168698,-0.04216632,-0.084658
0.9688367,-0.06736424,-0.08837354
1.192527,-0.1316431,-0.1384567
1.359584,-0.1629434,-0.2221903
1.351327,-0.1583073,-0.1959287
1.339299,-0.1603599,-0.1547074
1.40325,-0.2277173,-0.2599474
1.396808,-0.3690941,-0.5581271
1.393967,-0.4726522,-0.9765567
1.323629,-0.3827738,-1.073211
1.091636,-0.1917195,-0.8737252
0.8814808,-0.09852971,-0.6313427
0.6544428,0.04055399,-0.2619857
0.6515812,0.0458456,-0.280734
0.8977957,-0.2301843,-0.503581
0.8761052,-0.3262119,-0.2925634
0.8578687,-0.2997848,-0.3084169
0.9096332,-0.2760754,-0.4107544
0.7862734,-0.1559287,-0.2443657
0.7883872,-0.1116686,-0.3297875
0.776512,-0.04894521,-0.2877584
0.7668844,-0.02132404,-0.1710054
0.8388396,-0.04028258,-0.2428173
0.7673396,0.03697612,-0.1728456
0.7683495,0.03386955,-0.1925468
0.7735761,0.04428268,-0.1818408
0.7756865,0.0471922,-0.110659
0.9372873,-0.03501826,-0.1717869
1.07172,-0.05729268,-0.1622905
1.210228,-0.09817684,-0.2098115
1.279027,-0.0703972,-0.1904146
1.289025,0.01013802,-0.07796873
1.342573,0.0278943,-0.08761785
1.315409,0.02804777,-0.1478877
1.316858,-0.04463939,-0.4394693
1.283587,-0.1179773,-0.8204025
1.143925,-0.2618242,-0.9140804
1.010835,-0.440096,-0.761376
0.857468,-0.4035337,-0.5844597
0.824005,-0.3235314,-0.488601
0.9131188,-0.2524667,-0.3995172
0.9676312,-0.09267896,-0.4446857
0.9870986,0.00653527,-0.5146127
0.9528984,0.01510645,-0.4337302
0.896687,-0.008515525,-0.4056382
0.8289284,-0.06628737,-0.3001204
0.7315923,-0.1559515,-0.1496723
0.6937994,-0.1907766,-0.1536584
0.7288547,-0.1421116,-0.1475414
0.7475693,-0.129862,-0.1620302
0.7545217,-0.1340264,-0.2032345
0.7895383,-0.119116,-0.2094804
0.7968717,-0.1274549,-0.2082451
0.7793373,-0.1127638,-0.1598939
0.7952159,-0.09929084,-0.1473247
0.88705,-0.1124392,-0.1560112
1.099435,-0.1129717,-0.155864
1.317559,-0.1287269,-0.190551
1.395319,-0.1378706,-0.1736659
1.356153,-0.09777845,-0.1006107
1.27048,-0.08281988,-0.05926384
1.166195,-0.185732,-0.1843333
1.116733,-0.3147558,-0.4477158
1.231135,-0.3453577,-0.7845025
1.312184,-0.3627572,-1.157209
1.103267,-0.2856611,-1.023432
0.8277756,-0.02972297,-0.4976152
0.7099032,0.08315852,-0.3310849
0.6785361,0.01318061,-0.2824313
0.7175841,-0.06135138,-0.2660789
0.8189669,-0.193783,-0.3811909
0.9083861,-0.234957,-0.3340711
0.9279033,-0.1499067,-0.4077659
0.8579882,-0.1174948,-0.4381477
0.788397,-0.0790435,-0.2654269
0.7974492,-0.05544457,-0.2449834
0.8137733,-0.07068414,-0.1578401
0.7963645,-0.03547515,-0.1468031
0.7612974,-0.0005921828,-0.2242514
0.6978017,0.02221398,-0.1621267
0.7063525,0.01282342,-0.2128599
0.8745439,-0.0731581,-0.1916841
1.083344,-0.1308415,-0.1636239
1.193707,-0.09624415,-0.2641688
1.231406,-0.03225841,-0.2625626
1.24824,-0.01626318,-0.2359333
1.220612,-0.05963022,-0.135456
1.220973,-0.1301935,-0.09263362
1.27012,-0.1636651,-0.2515484
1.273761,-0.08250475,-0.5431556
1.240788,-0.02990049,-0.9133688
1.131851,-0.1814774,-0.9465183
0.9482206,-0.3521901,-0.7149098
0.813625,-0.3408052,-0.5735205
0.7931529,-0.2647461,-0.4336484
0.868212,-0.1863795,-0.4104041
0.9235289,-0.002731565,-0.5001689
0.9511338,0.1388324,-0.5254115
0.925931,0.09673291,-0.5389355
0.8307866,0.04198412,-0.4999388
0.8063849,-0.05252036,-0.3479055
0.7489497,-0.2346725,-0.184567
0.7044184,-0.2453993,-0.1727364
0.7916391,-0.159827,-0.2470819
0.7914363,-0.1908251,-0.2160371
0.7793677,-0.172028,-0.2063939
0.8045509,-0.1070781,-0.2326968
0.7720927,-0.09211639,-0.1732542
0.7934456,-0.0559999,-0.1658449
0.8153862,-0.07644125,-0.1683329
0.8683611,-0.1040439,-0.1342605
0.9719702,-0.08662453,-0.155333
1.058104,-0.1072311,-0.1543707
1.26656,-0.07942642,-0.1545469
1.40304,-0.05054859,-0.1490164
1.290055,-0.02880765,-0.07737139
1.224756,0.004357077,-0.05613669
1.255366,-0.1713249,-0.2279389
1.27472,-0.4287778,-0.6241255
1.309616,-0.4692611,-1.001335
1.193595,-0.3454001,-1.076014
0.9248811,-0.2047552,-0.7561509
0.7698286,-0.06138927,-0.317908
0.7399082,0.009797721,-0.2498901
0.764428,-0.107771,-0.3659239
0.8072396,-0.2387549,-0.3338962
0.8290312,-0.2622653,-0.357309
0.8665131,-0.2364249,-0.438101
0.8326968,-0.1582327,-0.4456009
0.763609,-0.1123616,-0.4012457
0.768153,-0.08632723,-0.3120932
0.7800811,-0.07509133,-0.2515257
0.8258612,-0.1030471,-0.2413557
0.8725532,-0.05697217,-0.2535263
0.8815889,-0.0070245,-0.2627864
0.9004383,0.02619088,-0.2250164
0.8839308,0.05892079,-0.1795808
0.8854981,-0.01242207,-0.1536989
0.9422783,-0.09073681,-0.1440575
1.03695,-0.1293619,-0.1633494
1.157758,-0.1379567,-0.1854039
1.19987,-0.07946166,-0.1874763
1.179361,-0.02600953,-0.1441296
1.147369,-0.002160925,-0.06342959
1.11563,-0.01013551,-0.07307322
1.147231,-0.001119292,-0.3379759
1.200777,0.007407252,-0.7835549
1.229068,-0.1411343,-1.012497
1.218342,-0.3315777,-0.904681
1.071014,-0.369699,-0.7457839
0.8469543,-0.3397827,-0.5509307
0.8127944,-0.2845127,-0.3514323
0.953488,-0.0805053,-0.3791961
1.000337,0.1128507,-0.4385219
0.9511396,0.07086116,-0.4337712
0.908352,0.03388561,-0.5029965
0.8415376,0.02615699,-0.423072
0.7563355,-0.1343842,-0.2505823
0.7141711,-0.1753886,-0.2130356
0.7415652,-0.1103672,-0.1932185
0.7960204,-0.1526542,-0.2151121
0.8792154,-0.1432199,-0.2655899
0.9509677,-0.137577,-0.2482736
0.9232769,-0.1870709,-0.2254024
0.8760821,-0.1613068,-0.1631158
0.8306816,-0.1221742,-0.08583339
0.7834243,-0.05220152,-0.06313276
0.8243525,0.01254428,-0.06639282
0.9347189,-0.01411383,-0.1169299
1.118418,-0.04714534,-0.1907442
1.274478,-0.09190866,-0.207347
1.253249,-0.1030712,-0.1295509
1.181616,-0.04815223,-0.02653793
1.140071,-0.03738858,-0.01689855
1.147345,-0.09939007,-0.138447
1.25102,-0.270528,-0.451485
1.354888,-0.4362023,-0.8593989
1.350658,-0.3917512,-0.9935265
1.147606,-0.2714283,-0.8591462
0.9023196,-0.2226084,-0.7901809
0.8262414,-0.1451538,-0.623371
0.7462536,-0.07864352,-0.333889
0.7648858,-0.1635038,-0.4007202
0.9718497,-0.2626337,-0.5338528
0.9630765,-0.2130485,-0.4111337
0.8697796,-0.1500672,-0.4547165
0.9014657,-0.1458119,-0.4867821
0.8421788,-0.1055216,-0.3488195
0.8212366,-0.081882,-0.3277852
0.8480405,-0.09746924,-0.2890811
0.8304736,-0.08880922,-0.2868647
0.8654511,-0.08477122,-0.3237791
0.8602525,-0.07129363,-0.2686468
0.8640923,-0.05371582,-0.2857913
0.8888366,-0.0481581,-0.2485658
0.8664829,-0.03745464,-0.1861878
0.8787615,-0.04991997,-0.198973
0.8679489,-0.04866922,-0.1569309
0.8577762,-0.06395231,-0.171597
0.8610075,-0.1195697,-0.1659363
0.8526171,-0.1404478,-0.1173907
0.9334323,-0.1391143,-0.1371395
1.061065,-0.08085158,-0.1229076
1.153543,0.02213466,-0.1294494
1.143542,0.06259952,-0.134684
1.08274,0.03989631,-0.09890153
1.084266,-0.004551728,-0.09770444
1.118764,-0.02075327,-0.1698676
1.222454,0.01585537,-0.487401
1.081847,-0.1887149,-0.05513134
1.116355,-0.07122921,-0.1448921
1.079442,0.02423625,-0.157079
0.9690971,-0.02035306,-0.159182
0.82556,-0.07547013,-0.07120368
0.7298248,-0.1178621,0.01972927
0.7089373,-0.1688777,0.0470886
0.7636747,-0.1589984,0.03463709
0.821676,-0.1609074,0.01392573
0.8438012,-0.164659,0.03896136
0.8502603,-0.1430293,0.05455736
0.8480154,-0.1517083,0.1116265
0.8705844,-0.1293672,0.1921937
0.8808155,-0.07687658,0.1963647
0.9018054,-0.04121489,0.2032877
1.039377,-0.03004103,0.2159765
1.253013,-0.0614109,0.2326301
1.38982,-0.07597357,0.2659647
1.347868,-0.06565652,0.2766727
1.257777,-0.05719911,0.2978976
1.228143,-0.06702731,0.295221
1.252448,-0.2143219,0.1433983
1.428301,-0.481216,-0.257887
1.549066,-0.5866264,-0.5905768
1.306505,-0.380944,-0.4307411
0.9524755,-0.1281874,-0.1380396
0.856482,-0.07539443,-0.08135573
0.9144917,-0.1433364,-0.1291647
0.9203108,-0.2523084,-0.2144278
0.9396221,-0.3551726,-0.1355023
0.935573,-0.3654385,0.01886654
0.8744264,-0.2797974,-0.03666972
0.86609,-0.1705162,-0.05369214
0.8333306,-0.1124087,-0.04172081
0.8139553,-0.09616116,-0.07761577
0.8554616,-0.09606885,-0.001580505
0.8538545,-0.09295037,0.0238755
0.8691431,-0.07620141,0.04146314
0.8640164,-0.06441953,0.06863956
0.7874439,-0.02910273,0.03660967
0.7396886,-0.009932332,0.08879338
0.7972625,-0.0466998,0.1174016
1.005571,-0.09876799,0.166012
1.20976,-0.1426148,0.2696551
1.230503,-0.1171376,0.2842794
1.163439,-0.04707005,0.3091386
1.194972,-0.0004586099,0.3036882
1.324027,0.01966959,0.1546091
1.415067,-0.04558824,-0.1324548
1.417881,-0.225357,-0.3755184
1.370302,-0.4649905,-0.3686846
1.324354,-0.6240542,-0.3006902
1.189559,-0.622623,-0.2751742
1.011225,-0.5098707,-0.1794905
1.02242,-0.296687,-0.07104237
1.085441,-0.1328143,-0.0587797
1.080491,-0.0741459,-0.1474087
1.040589,0.00325978,-0.2038925
0.8954252,-0.02227667,-0.147534
0.776511,-0.118064,-0.04168434
0.7440778,-0.1592327,0.04812999
0.7376054,-0.1918331,0.07294731
0.7629871,-0.142142,0.04291145
0.7901453,-0.1044152,0.03990743
0.8126685,-0.1186488,0.07200154
0.8103124,-0.07829391,0.09819252
0.8171974,-0.06759508,0.1425693
0.8164659,-0.03682369,0.1702368
0.7975094,0.005553666,0.1635824
0.8960931,-0.02221169,0.182674
1.090602,-0.06273265,0.1983057
1.273456,-0.1276235,0.2348033
1.323042,-0.1238311,0.3126385
1.214978,-0.00522489,0.3484617
1.147768,0.1274136,0.3470023
1.19265,0.1101463,0.2868676
1.348247,-0.2827031,0.07567103
1.512659,-0.6791843,-0.2093937
1.465039,-0.5877356,-0.4142491
1.317156,-0.425723,-0.5143113
1.121734,-0.3237676,-0.2862244
0.8138347,0.03935842,0.1504028
0.7507276,0.08421036,0.06204887
0.8717286,-0.2123093,-0.1716323
0.8370482,-0.2344184,-0.03754104
0.9275859,-0.34801,-0.07304375
1.020936,-0.4060125,-0.0641421
0.8967503,-0.1966659,0.006029869
0.8665136,-0.1696527,-0.1226873
0.8172528,-0.06135619,-0.01155111
0.7732463,0.006985465,0.04965288
0.8635162,-0.07229166,0.02274337
0.8572402,0.009617083,0.1083083
0.8447763,-0.01969458,0.03963793
0.8426122,0.009932763,0.08683068
0.8409272,0.1092025,0.1402141
0.966692,0.05538212,0.101475
1.118696,0.04201376,0.1598848
1.214572,-0.04067725,0.1545626
1.183114,-0.04849065,0.2402478
1.154152,0.04812724,0.3166575
1.216521,0.03491845,0.2762969
1.252593,0.003903474,0.2265259
1.336799,-0.1036174,-0.0110388
1.345739,-0.1993143,-0.2459034
1.262034,-0.3471396,-0.332169
1.223742,-0.5985394,-0.3568473
1.092492,-0.5979611,-0.3074561
1.030548,-0.489623,-0.2494052
1.100887,-0.3859734,-0.1485983
1.091446,-0.1316964,-0.05880441
1.108085,0.003475597,-0.1135816
1.120191,-0.02349141,-0.2036979
1.016093,-0.0008440566,-0.1620848
0.8858396,-0.01887039,-0.1067432
0.7734998,-0.0762826,-0.08889479
0.7269699,-0.09977658,0.03198901
0.7274016,-0.1290665,0.05677815
0.7535956,-0.1163933,0.01228657
0.8187679,-0.1365328,0.06952344
0.8363589,-0.184919,0.05496333
0.8267759,-0.1553153,0.07354592
0.8372399,-0.15264,0.1500417
0.8405897,-0.1251526,0.1762789
0.8781823,-0.07057358,0.2129022
0.9846609,-0.08438048,0.1982847
1.158577,-0.07497491,0.1996822
1.301987,-0.06712433,0.2404634
1.303454,-0.04684985,0.3020588
1.247027,0.01677464,0.4152214
1.246646,-0.009808172,0.3867484
1.324114,-0.2487601,0.1802756
1.400801,-0.5651752,-0.09500302
1.32929,-0.5613343,-0.3481923
1.107486,-0.338433,-0.4097941
0.8722971,-0.2034465,-0.1755001
0.7972017,-0.08753506,0.07909389
0.894339,-0.1276886,-0.1206907
0.9378749,-0.2743889,-0.3338217
0.9377254,-0.3074942,-0.09878334
0.9732827,-0.3525349,-0.009397058
0.9139043,-0.3092312,-0.07383266
0.8528244,-0.1906357,-0.01403872
0.8386576,-0.1499547,-0.04164508
0.817965,-0.0683548,-0.002435346
0.8613334,-0.04159175,0.06177024
0.8630056,-0.03422575,0.03012818
0.8213342,0.02444046,0.04024391
0.7812202,0.002245062,0.01647978
0.736904,0.002798199,0.02947178
0.8636755,-0.03652711,0.09417189
1.080274,-0.1339546,0.1449836
1.20084,-0.1314602,0.2138924
1.207233,-0.08712361,0.222779
1.146959,-0.01894454,0.2526265
1.171733,0.001134683,0.2793743
1.304866,-0.03171747,0.2071794
1.458155,-0.03020159,0.1312069
1.474408,-0.08347263,0.0213312
1.349649,-0.265096,-0.1641912
1.288175,-0.5332297,-0.3479038
1.219681,-0.6165903,-0.3284462
1.096107,-0.4943517,-0.1746894
1.004135,-0.4429533,-0.1550557
0.9984597,-0.3246244,-0.09986883
1.112683,-0.1497866,-0.08510655
1.119715,-0.09863397,-0.2293432
0.9943687,-0.02188697,-0.2171471
0.8583564,-0.005436035,-0.1306266
0.7181072,-0.1027299,-0.02265014
0.7149568,-0.1376286,0.08419813
0.7260621,-0.160495,0.04827599
0.7017149,-0.1671338,0.08514198
0.7426213,-0.1448148,0.08552997
0.723981,-0.1405977,0.02298986
0.7264643,-0.1062946,0.07576768
0.7470875,-0.07611451,0.09326881
0.7506042,-0.03160397,0.1788947
0.8445594,0.005021443,0.261079
0.9793941,-0.03013212,0.2053758
1.188913,-0.04691151,0.2157212
1.353988,-0.06728319,0.2378112
1.39171,-0.1350106,0.2318941
1.536956,-0.2847393,0.195336
1.777896,-0.5715859,-0.01346277
1.849401,-0.730403,-0.3617349
1.513088,-0.5250992,-0.5046549
0.9290524,-0.1720559,-0.1903776
0.5981221,0.06760422,0.06148562
0.662919,0.09875901,-0.1087721
0.8762924,-0.1132272,-0.2026438
1.035954,-0.3441215,-0.112188
1.088104,-0.3742686,-0.1075714
0.9861476,-0.2962083,-0.06696088
0.8358252,-0.1825124,-0.02000517
0.7626772,-0.08980569,-0.06349882
0.6829112,-0.06037397,-0.03830239
0.6687448,-0.05991213,-0.02218132
0.7442987,-0.09112228,-0.02676017
0.7950571,-0.1029558,0.03273856
0.8324987,-0.0913199,0.01112791
0.8287592,-0.06694686,-0.0004724715
0.8514388,-0.04166146,0.05316771
0.9397232,-0.06710993,0.07517311
1.056038,-0.09156797,0.1258693
1.183918,-0.09362207,0.1582372
1.197486,-0.03350267,0.1979021
1.189237,0.08727851,0.2699658
1.218473,0.1531811,0.2691211
1.193784,0.1762771,0.2624911
1.222998,0.1235711,0.2012233
1.309025,-0.1305308,-0.09843834
1.36769,-0.530548,-0.4094929
1.297712,-0.7803353,-0.3453794
1.126169,-0.7380318,-0.193628
1.080365,-0.6016855,-0.2125806
1.088581,-0.3969028,-0.05341863
1.073965,-0.1439192,0.001909233
1.06868,-0.02930619,-0.2204142
0.9460494,0.006785622,-0.2075326
0.7837176,-0.006644424,-0.1002781
0.7115514,-0.06846376,0.001730373
0.6900086,-0.08525324,0.1122595
0.6729401,-0.1045537,0.05313734
0.6659301,-0.09582996,0.08351189
0.7023105,-0.06645854,0.08918944
0.7286805,-0.0646669,0.01983782
0.7487739,-0.03653059,0.0762375
0.7865703,-0.04180426,0.095293
0.8151553,-0.04075331,0.192159
0.8745731,-0.0116394,0.2661234
0.9736394,-0.03229657,0.1976185
1.162453,-0.04205675,0.2111377
1.376295,-0.07265981,0.2151521
1.423725,-0.1011093,0.2576691
1.331603,-0.05208109,0.361797
1.211261,-0.06594485,0.3506001
1.197121,-0.2820415,0.2022447
1.350784,-0.6308004,-0.1103107
1.484096,-0.7542205,-0.4882096
1.428318,-0.5401011,-0.7046135
1.244311,-0.3082605,-0.5494674
0.9464272,-0.07418239,-0.1582868
0.5798572,0.1157455,0.06200906
0.5722506,-0.06568301,0.01991295
0.7860143,-0.3726959,-0.06291246
0.7693109,-0.4347354,0.02366106
0.8746485,-0.4057091,0.05197518
0.991548,-0.3212932,-0.07146932
0.8551285,-0.1448495,-0.06029109
0.8334626,-0.001569581,-0.04705832
0.8116827,0.09205567,-0.03945242
0.7725003,0.108438,0.03254936
0.8250879,0.09022134,0.04518725
0.8174195,0.09014483,0.1074255
0.9065235,0.05258894,0.1335328
1.053962,-0.0003035892,0.1657278
1.154766,-0.0652833,0.2391923
1.199202,-0.07733498,0.221882
1.142072,-0.008815355,0.3014937
1.142279,0.03292223,0.3477502
1.179861,0.0315501,0.2920905
1.255262,-0.02900309,0.2344454
1.366188,-0.09734715,0.004088759
1.329354,-0.1816187,-0.2784944
1.278087,-0.446198,-0.4393971
1.270308,-0.7067203,-0.3542607
1.152707,-0.6445975,-0.1489564
1.068155,-0.4416461,-0.07520273
1.121835,-0.3025766,0.02704344
1.136645,-0.1035355,0.003723672
1.079931,-0.009193036,-0.1250282
0.9899454,-0.04188137,-0.07978231
0.8273076,0.05317574,-0.1352276
0.7597473,0.01972129,-0.1465796
0.7597082,-0.1772297,0.04099924
0.6519386,-0.273812,0.1097884
0.6487594,-0.2851061,0.1196798
0.7271074,-0.214691,0.09652195
0.7089891,-0.1783027,0.08220531
0.7419961,-0.1351848,0.1266577
0.763816,-0.05370279,0.1100819
0.7467208,-0.0526236,0.153808
0.8343276,-0.003218372,0.17167
0.9606995,-0.02548606,0.1534112
1.167642,-0.08881468,0.2453169
1.374686,-0.03550473,0.2908106
1.388046,-0.03935283,0.3285032
1.348951,-0.0103188,0.3389453
1.339032,-0.09927694,0.2297293
1.38162,-0.520931,0.05268356
1.550877,-0.899504,-0.2616691
1.648178,-0.8609862,-0.5499076
1.344182,-0.4411624,-0.5437985
0.8184513,-0.07598413,-0.1853496
0.6672954,0.04495082,0.1344693
0.7642177,-0.04687331,-0.04263252
0.7547325,-0.2561398,-0.211261
0.8242046,-0.3395468,-0.03504368
0.8807198,-0.3878425,-0.009109602
0.8648233,-0.3117332,-0.05724917
0.8651947,-0.1356537,-0.01192922
0.798601,-0.06454761,-0.06745957
0.831536,0.0609725,-0.0333514
0.8946414,0.0473466,0.04028858
0.8541005,-0.01573792,-0.01074884
0.8404502,0.02038375,0.01189583
0.7920346,-0.06818775,0.03667655
0.7939378,-0.08306479,0.0643908
0.9070471,-0.1098391,0.1665655
1.043479,-0.1456947,0.1830177
1.202293,-0.06055666,0.1823918
1.210772,-0.07111578,0.2095806
1.138822,-0.02607596,0.2400213
1.185593,0.009334613,0.2798963
1.294646,-0.09704673,0.1549286
1.450249,-0.1853633,-0.1760844
1.484815,-0.297536,-0.4578267
1.362238,-0.4662485,-0.4370534
1.267547,-0.6322894,-0.2926183
1.120332,-0.5943289,-0.2551388
1.009878,-0.4319038,-0.1432481
1.03127,-0.3070243,-0.03238951
1.002204,-0.0978444,-0.1043612
0.9479737,0.002757097,-0.1790476
0.8663314,-0.0007393717,-0.2071891
0.7744772,-0.01470439,-0.1602151
0.8005581,-0.1432897,-0.009099934
0.8135887,-0.183652,0.05121367
0.7993658,-0.1809419,0.03308444
0.8274783,-0.1992032,0.03476582
0.8031508,-0.1499871,0.03057562
0.7634485,-0.1415455,0.05203479
0.7485733,-0.1065348,0.08997922
0.7531151,-0.07273718,0.1354312
0.7840857,-0.07793984,0.1776704
0.8109006,-0.05462161,0.1926799
0.9146833,-0.08810189,0.206039
1.140507,-0.1320732,0.2035959
1.322483,-0.1553552,0.2123881
1.32068,-0.1311751,0.2491359
1.293582,-0.07788305,0.2635317
1.332209,-0.1382692,0.2380132
1.329265,-0.2405878,0.1467626
1.527671,-0.463827,-0.07923238
1.774613,-0.7404182,-0.4271544
1.472299,-0.6027089,-0.5286362
0.9933861,-0.2704808,-0.253508
0.8028802,-0.2031139,-0.1234242
0.7411663,-0.2120061,-0.2084521
0.8237882,-0.2127675,-0.1968306
0.9069698,-0.292439,-0.1565383
0.8816226,-0.3544756,-0.09976809
0.9018104,-0.3445101,-0.02747897
0.8855011,-0.2482291,-0.04426565
0.8486186,-0.1514051,-0.069168
0.8608731,-0.07383877,-0.03991869
0.8678268,-0.01864105,-0.01236691
0.9051271,-0.05838613,0.01194678
0.9192513,-0.04430924,0.03699067
0.8771332,-0.01479483,0.02305677
0.8337606,-0.02822461,0.03909165
0.8082545,0.003927371,0.09164889
0.8541197,-0.03694946,0.10252
0.9609054,-0.080374,0.1187624
1.097154,-0.09269337,0.1349314
1.203143,-0.1063501,0.182907
1.195584,-0.02741044,0.2736072
1.19402,0.01980879,0.2830129
1.275778,0.005645676,0.1875457
1.326299,-0.05690514,-0.03651847
1.308097,-0.2331285,-0.2701111
1.26868,-0.4777208,-0.3183224
1.206491,-0.6636842,-0.3013101
1.096693,-0.6332787,-0.307445
1.023767,-0.489347,-0.1931403
1.024408,-0.3079287,-0.01408645
1.031295,-0.1109584,-0.02448612
1.057402,-0.05748962,-0.153945
1.004296,-0.01043531,-0.1859047
0.8469016,0.0297033,-0.1281312
0.7525678,-0.06490994,-0.01093845
0.7118034,-0.09965309,0.06458175
0.7173532,-0.09237246,0.05356043
0.7576246,-0.1089566,0.05215515
0.7819124,-0.09163435,0.04665086
0.8235488,-0.1172624,0.05034401
0.8332988,-0.1522646,0.08751814
0.8648062,-0.1787541,0.1449237
0.9100569,-0.1926258,0.1954503
0.9122603,-0.1439332,0.1968615
1.023422,-0.1066688,0.2201639
1.144702,-0.06639778,0.2340518
1.19573,-0.03185784,0.2123375
1.304183,0.008798608,0.2556145
1.32262,0.09928766,0.2841652
1.211408,0.03514266,0.2514808
1.228306,-0.2320611,0.15705
1.455996,-0.6260168,-0.1145294
1.637964,-0.8870964,-0.4311607
1.445007,-0.6328249,-0.4811404
1.047645,-0.2702217,-0.2592243
0.8495554,-0.11436,-0.01284642
0.7831529,0.0126157,0.07496553
0.7837213,-0.09780761,-0.09022173
0.8434857,-0.2536344,-0.2600756
0.8148277,-0.270247,-0.117885
0.8639282,-0.3978213,0.007950239
0.9237414,-0.3824498,-0.05189182
0.856569,-0.23343,-0.04127172
0.8726391,-0.1329519,-0.0474634
0.8839649,0.008241741,-0.03892289
0.882799,0.003355784,0.05344218
0.9128296,-0.01023861,0.06901049
0.8568088,0.05618918,0.07613642
0.8065623,0.01638364,0.08593248
0.7785584,0.03074077,0.08844987
0.8482233,0.01345616,0.140379
1.04301,-0.09512447,0.1508923
1.194801,-0.132444,0.1510905
1.2491,-0.1517425,0.1836002
1.201317,-0.1007287,0.2317494
1.201152,-0.04617267,0.2855111
1.267533,-0.08431482,0.2486343
1.294949,-0.09093104,0.04987524
1.338758,-0.1476539,-0.276785
1.31678,-0.3715794,-0.4308099
1.252802,-0.5935807,-0.3013698
1.191048,-0.5604207,-0.2379633
1.065968,-0.4018883,-0.1981475
1.04357,-0.3183357,-0.02552086
1.101263,-0.1568745,-0.009076167
1.087433,-0.006967319,-0.142567
1.037261,0.04525531,-0.1891806
0.9186732,0.07050256,-0.1531645
0.7833637,-0.06411812,-0.04985734
0.7426971,-0.171507,0.05114381
0.7555331,-0.161795,0.07437607
0.7591982,-0.1950167,0.07227614
0.7598804,-0.1622386,0.06187196
0.7853024,-0.1279958,0.05139095
0.7864578,-0.1261601,0.07820598
0.7569406,-0.08707511,0.1450394
0.7514517,-0.06579496,0.1814477
0.768851,-0.02269056,0.1613233
0.8769584,-0.02717026,0.1600165
1.108724,-0.08678391,0.1776924
1.318483,-0.1149967,0.2153812
1.360753,-0.0948792,0.2953766
1.29256,0.002060219,0.335969
1.29801,0.001631024,0.2650364
1.394362,-0.2738158,0.07415673
1.481563,-0.6502978,-0.2132917
1.452269,-0.6918947,-0.4531767
1.19646,-0.3858878,-0.4258896
0.8507745,-0.1545706,-0.1491906
0.712974,-0.05695074,0.05333638
0.7922961,-0.1031431,-0.07460662
0.8581347,-0.2301146,-0.253989
0.8931449,-0.2391612,-0.155873
0.9473358,-0.2641905,-0.08958627
0.9425882,-0.2552028,-0.1167344
0.9305655,-0.1790526,-0.06694096
0.9091476,-0.1437698,-0.1157562
0.869694,-0.07678939,-0.08510304
0.8696972,-0.05461837,0.03000122
0.8434061,-0.0438823,0.02863471
0.8526022,-0.04035564,0.06670674
0.8613924,-0.06336999,0.06611586
0.7996268,-0.01897313,0.05356998
0.7769967,-0.04232382,0.07884956
0.7574234,-0.06198569,0.06681909
0.8401506,-0.0603981,0.1273298
1.090697,-0.1171678,0.1340308
1.299831,-0.09430113,0.1210985
1.318173,-0.06933156,0.1831431
1.194709,-0.01264129,0.2418284
1.19086,0.04594084,0.335612
1.289059,-0.03191344,0.2555618
1.358867,-0.0929943,-0.02772267
1.412178,-0.1984454,-0.31513
1.335105,-0.4213635,-0.4563357
1.208543,-0.5524662,-0.3006442
1.045506,-0.4902663,-0.1567029
0.9032099,-0.3990433,-0.1378454
1.000691,-0.345279,-0.07461813
1.102205,-0.18292,-0.1322892
1.112938,-0.06165294,-0.2143174
1.057085,-0.03781285,-0.203068
0.854919,-0.011939,-0.1470334
0.7634178,-0.09358516,0.0108736
0.7467175,-0.1423794,0.07452808
0.6924865,-0.1124199,0.0385774
0.7455745,-0.1138036,0.05875685
0.7818437,-0.09330158,0.03970083
0.7777954,-0.1141362,0.03675647
0.7909266,-0.1338314,0.08030554
0.769241,-0.1129291,0.127548
0.7876002,-0.09447384,0.1873334
0.8542521,-0.03850467,0.1866521
1.009234,-0.02523768,0.1722363
1.245888,-0.05111992,0.184895
1.349954,-0.0535494,0.2376582
1.313183,-0.0529304,0.347889
1.318217,-0.09900184,0.3612583
1.45503,-0.3475787,0.1851796
1.664463,-0.713971,-0.1472883
1.695132,-0.7856174,-0.4629429
1.296037,-0.4898018,-0.4892876
0.7828378,-0.2120504,-0.2273624
0.6828287,-0.04986788,0.06711903
0.7488649,0.04375059,0.1295956
0.8180175,-0.1566699,-0.07331576
1.048958,-0.4282671,-0.2057749
1.00725,-0.3915536,-0.07537104
0.8423968,-0.2843909,0.01602701
0.9127196,-0.2514062,-0.05801086
0.8108911,-0.1502786,-0.05595994
0.7494449,-0.07336999,-0.009636559
0.8388289,-0.08184843,-0.009914351
0.7817631,-0.08915542,0.03898922
0.8198265,-0.09124008,0.06894372
0.8256634,-0.06602358,0.05643439
0.7699232,-0.01727634,0.06192394
0.8425846,0.0007458879,0.05258063
0.886723,-0.01000568,0.06858161
1.017294,-0.03731184,0.1051788
1.122761,-0.04383964,0.1288331
1.132586,-0.03151609,0.1941416
1.239414,-0.006721306,0.2689752
1.246709,0.02066189,0.2663574
1.266377,-0.03077052,0.1529345
1.423975,-0.0987585,-0.06329563
1.430366,-0.1212355,-0.2646344
1.335259,-0.2536175,-0.2861902
1.273287,-0.5606691,-0.2701284
1.19379,-0.7520502,-0.3312229
1.126096,-0.5861623,-0.2285478
1.035751,-0.3215915,-0.05535111
0.9598939,-0.1872673,0.002927283
1.011491,-0.1128944,-0.04172781
0.9992846,-0.04100019,-0.1897072
0.8732792,0.02652005,-0.1559147
0.7977965,-0.0525625,-0.01779583
0.7420965,-0.1620503,0.03005546
0.7409166,-0.1121869,0.1065657
0.7505091,-0.1237871,0.04374715
0.7426517,-0.1490286,-0.00012873
0.7879139,-0.1162353,0.05095995
0.7593796,-0.1490157,0.03131201
0.7406643,-0.1229294,0.1416567
0.7985228,-0.1049589,0.2100418
0.8541208,-0.1211344,0.1940441
1.012864,-0.08066834,0.221547
1.19547,-0.06347889,0.1800686
1.276893,-0.02312763,0.2153136
1.301729,0.0339986,0.275606
1.347172,0.09627254,0.308603
1.424907,0.03421594,0.284641
1.543203,-0.406589,0.0040266
1.732759,-0.8349569,-0.2999299
1.658832,-0.728694,-0.367123
1.251636,-0.3929474,-0.2332783
0.8814929,-0.1535437,-0.03916156
0.6905087,0.09275623,0.08659124
0.8051216,0.01736363,-0.04433713
0.91239,-0.2973865,-0.3508037
0.8343883,-0.3058459,-0.2962716
0.9157928,-0.3412158,-0.1102375
0.9029802,-0.4007123,-0.08774812
0.8312136,-0.2932986,0.01881888
0.8661523,-0.2625542,-0.03522488
0.7844979,-0.1144984,-0.07734738
0.8259905,-0.02971841,0.02686682
0.8699949,-0.0535302,-0.008866165
0.8254632,0.02203842,0.0505446
0.8661628,-0.003103083,0.07627922
0.7852866,0.037856,0.03121474
0.769262,0.05781607,0.1113793
0.894403,-0.0252512,0.130718
1.056346,-0.0479959,0.1881144
1.251087,-0.1109153,0.2402559
1.246749,-0.06205238,0.2508674
1.178534,-0.001291079,0.3286793
1.191258,-0.02461946,0.3097478
1.291949,-0.02684138,0.1923276
1.471169,-0.1226224,-0.1002309
1.47537,-0.2606688,-0.4069015
1.389221,-0.5195484,-0.3654051
1.280455,-0.7037604,-0.2624921
1.055413,-0.5367527,-0.2612798
0.9462724,-0.3713699,-0.141266
0.9878357,-0.2444599,-0.03570106
1.013162,-0.08743814,-0.0895415
1.02047,-0.03775197,-0.1768011
0.9604415,0.03659448,-0.2394748
0.8263414,0.02817683,-0.1834223
0.7520055,-0.107898,-0.001869671
0.7100635,-0.1304566,0.07297487
0.6861096,-0.1241008,0.05813267
0.7559494,-0.1279445,0.04856458
0.7875761,-0.1058491,0.03781509
0.7638688,-0.1285321,0.07493238
0.7767915,-0.1072717,0.1186421
0.7866421,-0.08196473,0.1856154
0.8324165,-0.08009944,0.2317644
0.9501899,-0.05661425,0.2131663
1.126248,-0.08693462,0.2344086
1.267067,-0.08291655,0.2473846
1.299312,-0.01888532,0.2816505
1.329024,0.04383155,0.362335
1.352434,-0.009019272,0.3226442
1.425199,-0.4027839,0.1249035
1.657041,-0.8211327,-0.1664932
1.735104,-0.755508,-0.4851189
1.376046,-0.4470294,-0.6623082
0.8960484,-0.250054,-0.3636233
0.7745957,-0.08624693,0.0669161
0.899592,-0.1212749,-0.09547609
0.8818253,-0.3156951,-0.2391956
0.8458734,-0.344856,-0.0415816
0.9106458,-0.4120906,-0.1473354
0.9040976,-0.3915029,-0.1536544
0.9100718,-0.2343394,-0.03281717
0.9302735,-0.265296,-0.1502333
0.8591807,-0.1864349,-0.08693228
0.8340253,-0.07271557,-0.03179165
0.8664565,-0.07054655,0.004659584
0.8815067,-0.008145434,0.148943
0.8595617,-0.02514957,0.06286221
0.7670761,0.02576892,0.03432261
0.6883183,0.07084178,0.06760609
0.7176944,0.002148528,0.04707454
0.8883096,-0.004547296,0.1626911
1.126337,-0.05320442,0.1985651
1.250782,-0.04336542,0.1961589
1.220038,0.02981473,0.2452404
1.199161,0.04440843,0.2596788
1.29902,-0.007761168,0.2073432
1.422673,-0.1606411,-0.04123365
1.500583,-0.2701236,-0.3379843
1.465905,-0.4479288,-0.4330875
1.309596,-0.6578696,-0.3155301
1.159098,-0.6119022,-0.2272061
1.014687,-0.465824,-0.2236117
0.986091,-0.3022335,-0.08987798
1.053946,-0.1215246,-0.04055401
1.007887,-0.02619296,-0.163028
0.9359127,0.03181204,-0.1991469
0.8273746,0.01586266,-0.1548402
0.7374167,-0.06986821,-0.05228204
0.7524047,-0.1301852,0.05529174
0.6998604,-0.1675969,0.09117252
0.6932,-0.1578666,0.08578974
0.7410234,-0.1409096,0.07280092
0.7531572,-0.152797,0.09187967
0.8242845,-0.1148641,0.105495
0.8225267,-0.07249234,0.1451014
0.8137346,-0.05727455,0.1930164
0.9288705,-0.04607918,0.1735108
1.063244,-0.09470884,0.1944409
1.252269,-0.1544848,0.2544971
1.395261,-0.1820204,0.3048675
1.382573,-0.1877682,0.3404934
1.37828,-0.2033511,0.2910627
1.43775,-0.3313718,0.1735667
1.48408,-0.4597978,0.01677308
1.42313,-0.4314408,-0.1914053
1.200989,-0.3944836,-0.4543226
0.9663816,-0.3909896,-0.5119002
0.8430866,-0.1805487,-0.1521437
0.7175104,0.09930422,0.09851788
0.6667077,0.05099974,-0.04538021
0.8645622,-0.1912508,-0.1665509
1.001825,-0.3443487,-0.1813557
0.9453674,-0.3574732,-0.1449666
0.9211713,-0.2436505,-0.01472729
0.855993,-0.164175,0.03326607
0.7957897,-0.118277,-0.006060714
0.8071167,-0.04151227,0.005046294
0.803319,-0.03764585,0.01849008
0.8514792,-0.03876695,0.02287238
0.8560471,-0.01817622,0.05827786
0.8146536,-0.02647326,0.06753868
0.8282768,-0.01265474,0.06594782
0.8781252,-0.02082667,0.09884001
0.9884446,-0.0461933,0.1128887
1.089291,-0.06427273,0.1186202
1.231256,-0.0928948,0.1718421
1.321589,-0.04950081,0.2352074
1.249034,0.005358678,0.2304906
1.323731,-0.03591964,0.1801724
1.432996,-0.07543092,0.1056606
1.398902,-0.1549073,-0.1366891
1.436635,-0.4542672,-0.4299659
1.409003,-0.7463408,-0.4070159
1.221231,-0.6919221,-0.236241
1.028528,-0.4961323,-0.1997223
0.9396103,-0.3443161,-0.1102525
1.028802,-0.1231826,-0.06417447
1.075553,-0.01170179,-0.1750985
0.9590207,-0.03878873,-0.1754471
0.8454365,-0.001612216,-0.139744
0.7377578,-0.04995178,-0.09033048
0.6828497,-0.159262,0.04319762
0.7174215,-0.1683829,0.0502043
0.7389994,-0.1756044,0.01996283
0.7876185,-0.1678604,0.03686266
0.8293669,-0.1491654,0.03558436
0.8065841,-0.1446998,0.07293212
0.81237,-0.09581476,0.1238129
0.8332243,-0.05501499,0.1949153
0.8892843,-0.04272884,0.2368925
1.064302,-0.05719774,0.2337394
1.261292,-0.07545361,0.2627306
1.323322,-0.04525381,0.2958708
1.275046,0.0002973765,0.3559978
1.290824,-0.02381357,0.3701168
1.400497,-0.2946837,0.2162579
1.551203,-0.6725732,-0.04429756
1.633819,-0.7035512,-0.3416597
1.404676,-0.5135329,-0.5155251
1.008701,-0.3382693,-0.2984223
0.7951551,-0.01196671,0.03049968
0.764655,0.1042798,-0.04674477
0.8533913,-0.1812271,-0.1838055
0.9375596,-0.3274764,-0.1153387
0.9158991,-0.3348326,-0.09774846
0.8968677,-0.3214293,-0.009147372
0.863112,-0.1990515,-0.0009038015
0.8092202,-0.1607925,-0.08596652
0.8174733,-0.1035671,0.0211329
0.8189956,-0.0132152,0.03119194
0.8031402,-0.03474373,0.01405924
0.8089531,-0.02029173,0.07332645
0.7900239,0.02024586,0.0359181
0.768884,0.03171783,0.06408602
0.8043082,0.009325641,0.06815619
0.8986326,-0.03555196,0.08378526
1.016418,-0.06255563,0.1626149
1.107027,-0.08395981,0.1314153
1.185108,-0.05686253,0.1709235
1.213927,-0.01822828,0.2574799
1.169057,0.03258826,0.2899132
1.241258,0.03487375,0.293837
1.404439,-0.07305146,0.142593
1.451375,-0.1581718,-0.1101783
1.378493,-0.3211854,-0.2932232
1.235601,-0.5357529,-0.2855088
1.130347,-0.5934667,-0.2262432
1.020165,-0.5338007,-0.2144231
0.9310494,-0.4087363,-0.07775094
1.030167,-0.2659253,0.007439923
1.084122,-0.114345,-0.08930977
1.072181,-0.01571804,-0.1846477
1.052194,-0.01750236,-0.2109125
0.876472,-0.05259666,-0.107384
0.7785804,-0.1246845,0.04419155
0.7535386,-0.1179615,0.08974762
0.7172837,-0.07069026,0.07145626
0.778279,-0.08744,0.05599269
0.8023326,-0.08038168,0.04312619
0.8255996,-0.1230237,0.02666769
0.8334035,-0.1626248,0.05845082
0.7867079,-0.1420619,0.1330078
0.8094744,-0.1520182,0.1894315
0.8514581,-0.1402168,0.2217928
0.9690381,-0.1207773,0.2312969
1.136571,-0.07969496,0.2464003
1.281824,-0.01559065,0.2778412
1.432731,0.0003400983,0.3104655
1.428593,-0.05287551,0.2687585
1.452631,-0.2891331,0.09370173
1.597173,-0.5919841,-0.133004
1.432978,-0.6297772,-0.3826249
1.100135,-0.4282642,-0.4631994
0.8757333,-0.2051871,-0.1475388
0.6620715,-0.03077436,0.1365869
0.6978325,-0.05661976,-0.0324362
0.8852053,-0.2423564,-0.2266504
0.91519,-0.3141822,-0.1442659
0.9893044,-0.3762821,-0.09272044
0.9812958,-0.3770447,-0.0459975
0.87079,-0.2268425,0.01568079
0.875355,-0.152493,-0.05681132
0.8042505,-0.04786039,-0.03078906
0.7927452,-0.01407961,0.006807285
0.85796,-0.08118882,0.005112866
0.8199022,-0.01611262,0.1102495
0.8471227,-0.02613108,0.07930136
0.8446793,-0.02058943,0.05305374
0.8393367,0.03932178,0.128008
0.9066792,-0.009232419,0.1140957
0.9716766,-0.005853649,0.131774
1.163913,-0.02668019,0.1410344
1.258069,-0.04691482,0.1415043
1.165613,-0.0181975,0.1974228
1.157233,-0.04392331,0.2502957
1.202708,-0.04683105,0.2546974
1.295389,-0.1061337,0.005174382
1.410724,-0.2285494,-0.3249397
1.392928,-0.382279,-0.3518005
1.322307,-0.6014092,-0.2513667
1.279511,-0.6791269,-0.2619625
1.123419,-0.5678666,-0.2473835
0.9658334,-0.4196952,-0.142143
1.006802,-0.2262111,-0.07877896
1.063842,-0.02549974,-0.07218877
1.067557,0.02889649,-0.129626
1.013279,0.001307259,-0.1835412
0.8564664,-0.06808896,-0.09314758
0.7988099,-0.2001938,0.002114356
0.8193006,-0.1866981,0.03821383
0.8086688,-0.119737,0.07427487
0.83094,-0.140528,0.05033883
0.8632181,-0.1076171,0.01573541
0.8734191,-0.1113279,0.03234819
0.8276586,-0.1337622,0.08835489
0.7704522,-0.08592429,0.1628105
0.7709827,-0.06411912,0.1909011
0.8113639,-0.03616955,0.143767
0.9245222,-0.03412624,0.106001
1.105024,-0.07105026,0.1350983
1.269073,-0.0689516,0.2032358
1.315593,-0.05836387,0.3274821
1.266265,-0.05589995,0.3770999
1.300197,-0.1688651,0.1891464
1.488764,-0.4418123,-0.120894
1.651482,-0.6242552,-0.3808666
1.501928,-0.5324121,-0.4315513
1.125541,-0.2807967,-0.2603313
0.8678801,-0.08482927,-0.0898051
0.7750222,-0.05520234,-0.04189151
0.7753008,-0.151668,-0.08615133
0.8501393,-0.251286,-0.1065594
0.9553119,-0.3709172,-0.04136928
0.9907949,-0.4441768,-0.008798701
0.9244651,-0.3133366,-0.03507434
0.8940802,-0.1912142,-0.044324
0.8452384,-0.1123277,-0.03573115
0.7920684,-0.01013479,0.0006928891
0.8625745,-0.04630557,0.06258342
0.8860868,-0.04338071,0.08955935
0.8834936,0.002448271,0.07086188
0.9073504,-0.0004723563,0.06964596
0.8895793,0.05820449,0.09813657
0.946209,0.04229404,0.1268522
1.017883,0.02029045,0.1609908
1.073017,0.02315893,0.1638058
1.138286,-0.03310618,0.1544251
1.134513,-0.01318568,0.1953356
1.112084,-0.02451074,0.2293195
1.0984,-0.1059978,0.2183654
1.159912,-0.156395,0.09638691
1.301879,-0.2118198,-0.1875692
1.399018,-0.2878433,-0.4183381
1.418104,-0.3970609,-0.4170007
1.302162,-0.4721715,-0.2987911
1.120635,-0.5078871,-0.2140768
1.024507,-0.4390381,-0.1511371
1.029061,-0.2079485,-0.0706702
1.106521,-0.08851513,-0.03340915
1.146442,-0.04346005,-0.07891441
1.075444,0.05376127,-0.1433182
0.964074,0.003147688,-0.14294
0.8804513,-0.09376174,-0.07130644
0.8065069,-0.1590762,0.02119845
0.7656013,-0.2279481,0.05650354
0.797064,-0.194421,0.02576
0.8084612,-0.1852134,0.03100898
0.8426664,-0.1951063,0.04620533
0.9217842,-0.1374025,0.04310718
0.8955122,-0.1310292,0.08937932
0.8672145,-0.1124868,0.1195043
0.8925946,-0.07104026,0.1204239
0.869357,-0.07327901,0.1411885
0.8843979,-0.06968199,0.1512562
0.9692318,-0.07900186,0.1492331
1.082716,-0.07984376,0.1456384
1.16216,-0.0637819,0.165019
1.136417,-0.03781963,0.2156693
1.124662,0.0239615,0.2795567
1.182553,0.01915624,0.2992504
1.303689,-0.124299,0.1727092
1.499638,-0.3499726,-0.07998014
1.516046,-0.4984134,-0.3323611
1.269846,-0.4643602,-0.3986031
1.01832,-0.335378,-0.2339713
0.8293963,-0.1254016,-0.1013586
0.7498025,0.04040407,-0.1251387
0.8969717,-0.06720519,-0.1850214
1.113117,-0.2434845,-0.2165195
1.146484,-0.3046463,-0.1829603
1.041045,-0.3356788,-0.09148616
0.9688754,-0.285025,-0.02267907
0.9088923,-0.2148146,-0.0178092
0.8533384,-0.2065992,-0.07173859
0.795074,-0.1279044,-0.06318521
0.8357941,-0.07491212,-0.01736791
0.8701813,-0.1033563,-0.03015443
0.9237858,-0.05053888,0.01123191
0.971416,-0.04223809,0.005169896
0.9575534,-0.04572772,-0.005826743
0.9378378,-0.008772458,0.06461874
0.8571151,-0.03290475,0.06607302
0.8290078,-0.03662569,0.08793796
0.9162047,-0.07770659,0.1335432
0.9725535,-0.1445019,0.1634105
1.072248,-0.1362869,0.191956
1.206213,-0.1293784,0.1696587
1.228751,-0.08459162,0.1989765
1.214297,-0.01467866,0.2152423
1.27616,-0.05128322,0.1924649
1.322555,-0.1031268,0.1105294
1.283355,-0.1002361,-0.1670343
1.279703,-0.2617333,-0.3685503
1.275042,-0.5529641,-0.3677269
1.174112,-0.6316096,-0.3535855
1.039539,-0.53922,-0.3037651
0.9545367,-0.456147,-0.1675417
0.9893451,-0.303003,-0.0697342
1.042327,-0.1136639,-0.1402792
1.041559,-0.03520697,-0.2176099
1.00044,-0.02847476,-0.1969477
0.8867131,-0.05164032,-0.1376751
0.8252061,-0.1119716,-0.002119294
0.8072305,-0.1132663,0.05568145
0.7758668,-0.08650603,0.01596421
0.8084895,-0.08945978,0.0321882
0.8088599,-0.08220362,0.02595057
0.7745896,-0.09836335,0.02524767
0.7650682,-0.1044424,0.06266176
0.7479019,-0.09635658,0.09931172
0.7716508,-0.09237001,0.1887703
0.806829,-0.04950013,0.2370066
0.8956239,-0.03519455,0.2084155
1.127034,-0.05905431,0.2111555
1.34022,-0.08433667,0.2374307
1.378987,-0.1004794,0.2700789
1.312261,-0.09458254,0.2969315
1.33521,-0.1656194,0.2340043
1.511947,-0.3793052,0.03483247
1.612658,-0.584794,-0.2455588
1.345466,-0.5304562,-0.3875879
0.8983722,-0.2872253,-0.219885
0.7740399,-0.09641271,-0.06322408
0.8695342,-0.019942,-0.1682269
0.9180025,-0.1628332,-0.2340181
1.018584,-0.3423088,-0.209836
1.025501,-0.3233958,-0.1516043
0.9282976,-0.3030647,0.02227105
0.9028714,-0.2562299,0.03167277
0.8480753,-0.143898,-0.06780977
0.822116,-0.1092281,-0.03443107
0.8361077,-0.0967834,-0.03890782
0.8000552,-0.1066117,-0.009278005
0.8122031,-0.1027853,0.07173626
0.8169045,-0.06926373,0.06660397
0.7831931,-0.05912938,0.06098744
0.7673778,-0.03002846,0.04571897
0.7694299,-0.04008573,0.06507607
0.9089132,-0.07680365,0.1220453
1.146136,-0.1083962,0.1355268
1.269577,-0.1311323,0.1601717
1.256663,-0.04998826,0.1983515
1.224767,0.05697875,0.2885068
1.240885,0.08547822,0.3265489
1.315529,0.03530815,0.1330523
1.410698,-0.03265695,-0.1620229
1.397492,-0.1106313,-0.3291155
1.305248,-0.4139093,-0.2860082
1.255411,-0.7766009,-0.2682389
1.190702,-0.7062235,-0.3062718
1.097527,-0.4126653,-0.1326628
1.009655,-0.3245049,0.01485819
1.002915,-0.2798923,-0.05234946
1.064648,-0.1624539,-0.1508496
1.023187,-0.01963712,-0.2535154
0.9924086,0.04927904,-0.2648716
0.9401618,-0.100461,-0.1239828
0.7601765,-0.1882933,0.01672476
0.7470526,-0.1703728,0.04839227
0.7934684,-0.2036701,0.02073077
0.7403689,-0.1443125,0.04333608
0.7765959,-0.1327762,0.04723674
0.8005124,-0.1395198,0.01706288
0.7810649,-0.1041566,0.04682396
0.7925197,-0.1493615,0.08139221
0.7871906,-0.1227354,0.1378363
0.7932423,-0.1187999,0.2191779
0.8370899,-0.1097859,0.218751
1.009827,-0.004694359,0.1886188
1.279243,0.01665767,0.1986255
1.38619,0.04712128,0.2566036
1.293891,0.09612502,0.3791702
1.196944,0.09090844,0.4325663
1.165676,-0.1158605,0.2643541
1.250454,-0.5739655,-0.03610604
1.446602,-0.79689,-0.3189817
1.469245,-0.6788981,-0.47413
1.282829,-0.4559063,-0.3590553
1.03203,-0.1346953,-0.1042062
0.7377321,0.03786011,-0.005176121
0.6897883,-0.09213796,-0.07014959
0.8456146,-0.2388563,-0.1327354
0.8890117,-0.3359088,-0.05547738
0.9157028,-0.4241536,0.01732906
0.9025914,-0.3140262,-0.06635048
0.8462167,-0.1756064,-0.07766183
0.8517539,-0.1236351,-0.02208965
0.8301299,0.0005320619,-0.002193575
0.8400543,0.01848812,0.05104524
0.8727792,0.008242901,0.04170007
0.8516199,0.06377018,0.02835747
0.8455172,0.02599423,0.04310183
0.8427854,0.004739912,0.03157447
0.8960098,-0.06905652,0.09889746
1.033891,-0.1610616,0.1711181
1.161213,-0.1226953,0.1807938
1.227188,-0.08807772,0.1878658
1.174287,-0.01366383,0.2285086
1.111266,0.04237125,0.2943851
1.172142,-0.05407942,0.2936372
1.252025,-0.1591892,0.1719462
1.305836,-0.190087,-0.1132956
1.306843,-0.2529188,-0.418439
1.234827,-0.4494923,-0.4795349
1.183654,-0.6159075,-0.3768409
1.098771,-0.5845254,-0.3029756
1.030352,-0.4628452,-0.2013519
1.070679,-0.3262838,-0.06481972
1.095288,-0.1578407,-0.08206977
1.122946,-0.019429,-0.1956924
1.060183,0.04094206,-0.2216757
0.8750355,0.04928096,-0.1688596
0.8071324,-0.0435459,-0.03919955
0.7614264,-0.1665444,0.05701904
0.7133069,-0.1583242,0.04874712
0.7446846,-0.1227515,0.03578256
0.7431113,-0.1259113,0.01673136
0.763749,-0.1095152,0.01678667
0.7747009,-0.1100937,0.02639443
0.7775997,-0.1160929,0.03383249
0.86375,-0.1035613,0.1117645
0.9131612,-0.09932824,0.1938779
0.9465229,-0.09657535,0.2284637
1.043707,-0.0750497,0.238835
1.190124,-0.05176811,0.247981
1.308933,-0.0351232,0.2567444
1.292999,0.0005843123,0.2465148
1.272409,-0.0253779,0.2274138
1.332167,-0.3081062,0.09143189
1.420211,-0.7293192,-0.1984173
1.47551,-0.802829,-0.4850107
1.280427,-0.5140225,-0.5551696
0.9348974,-0.2340355,-0.2461329
0.7938987,0.004012735,0.05419141
0.7977973,0.06377799,-0.1017583
0.8376844,-0.1404167,-0.2627634
0.9369019,-0.2834386,-0.1431234
0.9576083,-0.3137147,-0.1105627
0.9092568,-0.2974065,-0.07036346
0.872445,-0.22938,-0.001386255
0.8110111,-0.1764102,-0.0790859
0.8043879,-0.09378544,-0.03744744
0.8455896,-0.08290485,0.005334147
0.8623678,-0.119334,-0.02431551
0.881113,-0.0627311,0.0544927
0.8500417,-0.04056477,0.03690045
0.8029651,-0.01612731,0.02601474
0.8096892,0.0146778,0.06798497
0.7988642,-0.002447677,0.04428299
0.835597,0.003148805,0.08642752
1.051618,-0.07995323,0.1088704
1.277275,-0.1621533,0.1682448
1.25881,-0.1183581,0.2749043
1.178533,-0.09601068,0.2689363
1.269588,-0.0774103,0.2464531
1.353099,-0.01398575,0.1764669
1.392258,0.01045528,0.03273403
1.414384,-0.06058712,-0.2029508
1.337933,-0.2638035,-0.4929227
1.300088,-0.5664209,-0.4928227
1.19869,-0.6875487,-0.3355596
1.005495,-0.5151753,-0.2921343
0.9707976,-0.3749815,-0.08384006
0.9709184,-0.2654759,0.08083492
0.9834421,-0.1101932,-0.1320987
1.024505,-0.07567814,-0.2495387
0.9525288,-0.04109174,-0.1574013
0.878844,-0.04616158,-0.08716505
0.8225012,-0.1319058,0.03081319
0.7836362,-0.152926,0.03804606
0.7824355,-0.2022632,-0.03174624
0.7702816,-0.1769484,-0.0004150889
0.7968335,-0.0878208,0.02471832
0.7993594,-0.08841865,0.07014982
0.7871624,-0.04107476,0.1105887
0.7939187,-0.01216981,0.1035359
0.7787633,-0.01432012,0.1293585
0.8451165,0.01814238,0.1390612
1.017433,-0.02199042,0.1508778
1.233164,-0.0551169,0.198595
1.344773,-0.06630181,0.2297391
1.279211,-0.07438168,0.2902444
1.216793,-0.05734373,0.3503198
1.231733,-0.1680624,0.256514
1.404886,-0.4572365,-0.02510227
1.61135,-0.7079701,-0.3959194
1.398053,-0.5864635,-0.55393
0.9521091,-0.257581,-0.2864053
0.7353226,-0.08356818,-0.05897651
0.7156233,0.01747752,-0.1857631
0.8342023,-0.09868648,-0.2558149
0.948977,-0.3412114,-0.2058903
0.952798,-0.3535251,-0.1517624
0.9521374,-0.3600246,-0.00722154
0.8901595,-0.303874,-0.01944382
0.8317359,-0.1491756,-0.1071953
0.8377275,-0.1351343,-0.03482946
0.8297438,-0.09141889,-0.01422433
0.8509817,-0.06468762,0.02440245
0.8431623,-0.06704181,0.07282097
0.8311763,0.004010649,0.01358212
0.8277274,0.02996384,0.04615548
0.7768608,0.04869366,0.05947241
0.8105204,0.01614795,0.03700438
0.9498155,-0.06225546,0.09714672
1.137855,-0.1300647,0.1067809
1.238162,-0.1602371,0.1548355
1.230425,-0.09055056,0.2430683
1.274493,-0.0690469,0.2759381
1.307999,-0.04930042,0.2522565
1.384334,-0.03773836,0.05536924
1.448061,-0.1530387,-0.2474035
1.323138,-0.3197229,-0.4163343
1.202006,-0.59475,-0.3331254
1.103416,-0.6960528,-0.2349208
1.006317,-0.4948525,-0.2217212
1.024909,-0.3599436,-0.07940092
1.087129,-0.2111753,-0.06197428
1.131446,-0.0551825,-0.2127003
1.053095,-0.03861119,-0.2213687
0.8892477,-0.02913497,-0.1402784
0.7951823,-0.09121495,0.01686707
0.7304417,-0.1747013,0.0888262
0.7103213,-0.1595053,0.03294019
0.7287396,-0.1416673,0.05509703
0.7359207,-0.1314426,0.02757926
0.7578919,-0.1293101,0.01411445
0.7564529,-0.1230689,0.07889492
0.7483234,-0.08823576,0.1074054
0.7717504,-0.04584663,0.1587876
0.8092964,0.001635224,0.1752337
0.855998,-0.001560304,0.1750323
0.9390614,-0.03610489,0.1906822
1.176639,-0.06447252,0.217283
1.412729,-0.1039487,0.3326948
1.33186,-0.07802755,0.4104712
1.234135,-0.03566651,0.3923968
1.392955,-0.150023,0.3015855
1.581975,-0.4724919,0.0658191
1.75207,-0.7808219,-0.2660463
1.609849,-0.6732581,-0.5258008
1.090217,-0.3323211,-0.5426307
0.7998367,-0.1467685,-0.2500799
0.6998956,-0.002068971,0.05964904
0.6984247,-0.06916413,-0.08743748
0.864783,-0.3082721,-0.2836364
0.8999016,-0.3535767,-0.07374181
0.9409392,-0.4040306,-0.02987759
0.9348333,-0.3465958,-0.08480565
0.8470757,-0.1808737,-0.003386918
0.9024072,-0.1678461,-0.08168553
0.8584513,-0.06903877,-0.03528904
0.8486236,-0.03152776,0.05351494
0.8948973,-0.03945384,0.02538042
0.8343887,0.04255424,0.08684891
0.8637763,-0.005231721,0.04835455
0.8385287,0.0001289651,0.04628567
0.8364339,-0.01189412,0.1340468
0.9539648,-0.07955971,0.1601208
1.060333,-0.05048437,0.2067932
1.193747,-0.06509511,0.1840241
1.187845,-0.007919961,0.2265898
1.174789,0.04551103,0.3057721
1.288142,-0.01315965,0.2281846
1.342395,-0.05621879,0.09430028
1.354695,-0.1211746,-0.1690219
1.297419,-0.2002802,-0.3839639
1.244029,-0.3840876,-0.3500694
1.20667,-0.6016828,-0.3475473
1.095102,-0.6219008,-0.3771545
1.062399,-0.49391,-0.2302097
1.074494,-0.2970637,-0.091318
1.085844,-0.1237926,-0.1513659
1.119138,-0.03522709,-0.2029624
1.041305,0.003838728,-0.1654366
0.9086086,-0.01203172,-0.1379326
0.8197393,-0.06692803,-0.02887069
0.7524611,-0.09305756,0.08491823
0.7288062,-0.07941346,0.07895766
0.7569558,-0.08239584,0.05043155
0.7899685,-0.08169854,0.0171688
0.7986861,-0.09775159,-0.005467479
0.7976776,-0.1416131,0.04017949
0.7883536,-0.1374066,0.1292808
0.7945605,-0.1226383,0.2225227
0.8547871,-0.1118949,0.2417261
0.9908227,-0.10649,0.1737772
1.185165,-0.1095312,0.143358
1.309084,-0.07061294,0.1955082
1.313078,-0.02982895,0.2406323
1.286152,0.01660896,0.2392945
1.296252,0.01460296,0.2249156
1.377072,-0.2459816,0.100114
1.44469,-0.6384016,-0.1899053
1.359429,-0.6922929,-0.4037834
1.124408,-0.4188733,-0.3790318
0.8658056,-0.2135065,-0.1680142
0.7533103,-0.1135944,0.01722001
0.825562,-0.1440608,-0.1134121
0.9027423,-0.2891662,-0.2638509
0.9193492,-0.3621907,-0.09261637
0.9344672,-0.4247512,0.01686612
0.9072712,-0.39401,-0.01967388
0.8917888,-0.2382917,-0.02873806
0.8946626,-0.1360352,-0.09954852
0.8649482,-0.08335206,-0.07349053
0.8725703,-0.07493448,0.02242629
0.8512168,-0.002087936,0.04067216
0.8263111,0.02777039,0.06729053
0.8148609,-0.04951148,0.03380619
0.710126,0.01220486,0.01469296
0.703004,-0.002082519,0.05047275
0.8661744,-0.09136045,0.07737751
1.102934,-0.1004506,0.1646752
1.27398,-0.1560625,0.1633616
1.194332,-0.08844725,0.1629127
1.130564,-0.004927086,0.3207952
1.199054,-0.01652868,0.3920722
1.236967,-0.0344688,0.3153549
1.367676,-0.1422076,0.09803764
1.438884,-0.1961237,-0.250399
1.318577,-0.3218684,-0.4387345
1.230381,-0.5657488,-0.3370836
1.138924,-0.5851974,-0.2537595
1.055234,-0.4778037,-0.2755694
1.075297,-0.3670742,-0.1208571
1.079062,-0.2194161,-0.01844308
1.066154,-0.0897492,-0.1627474
1.020043,0.01083877,-0.2143727
0.8909612,0.02324373,-0.1479689
0.7906234,-0.06261246,-0.05816501
0.7447471,-0.1540549,0.04320625
0.7247972,-0.1662966,0.09571412
0.728263,-0.1526634,0.1101653
0.7394205,-0.1594458,0.08316837
0.7510904,-0.124012,0.08712136
0.7468367,-0.09479115,0.09824027
0.7470457,-0.07468534,0.09932795
0.7687372,-0.05013249,0.1399854
0.8320417,-0.06854128,0.1425079
0.94428,-0.07357522,0.1647696
1.102882,-0.08087605,0.2096374
1.33534,-0.1004539,0.2453127
1.450385,-0.08252785,0.3244643
1.339004,-0.1082412,0.3227015
1.341945,-0.2936061,0.1810843
1.562268,-0.6430698,-0.08117287
1.664706,-0.8411425,-0.4253382
1.433193,-0.6221961,-0.5983666
1.005477,-0.2738199,-0.3538776
0.7492696,-0.01978522,0.02175065
0.717613,0.08597349,0.02158228
0.7417096,-0.102386,-0.1387725
0.8065011,-0.3062522,-0.143856
0.840353,-0.3322923,-0.1010266
0.8772328,-0.3609804,-0.02533335
0.8988603,-0.2978861,-0.04765348
0.8407881,-0.1871612,-0.09250148
0.8546853,-0.1461631,-0.01227242
0.8613986,-0.08069007,-0.002838098
0.8406743,-0.0558016,0.02581806
0.8510092,-0.01634687,0.05995444
0.7852795,0.05623408,0.0140901
0.7629173,0.04128482,0.04249411
0.7984282,0.01236545,0.04457361
0.8643939,-0.02929954,0.05733883
1.037955,-0.1057757,0.1302402
1.200703,-0.1516562,0.1606411
1.258196,-0.1227314,0.20509
1.229928,-0.03638369,0.2157149
1.261976,0.01015314,0.2010349
1.37859,-0.004698,0.1003521
1.43976,-0.1056687,-0.2091728
1.434854,-0.3510054,-0.4400739
1.371291,-0.6588289,-0.4005322
1.274895,-0.760883,-0.3334312
1.092353,-0.5889832,-0.3129855
0.9354343,-0.4117693,-0.1288503
0.9880693,-0.2175786,0.01938539
0.9996459,-0.02662317,-0.1193692
0.9500423,-0.03384491,-0.2242636
0.9365936,-0.05653077,-0.175431
0.8225579,-0.08869893,-0.1039264
0.7370826,-0.1776639,0.02198858
0.7007092,-0.1478356,0.107231
0.6711985,-0.1152775,0.08588217
0.7273293,-0.1101924,0.03792701
0.7590222,-0.07889538,0.01223389
0.7510543,-0.08591621,0.04023119
0.7515384,-0.058153,0.1317694
0.7649683,-0.01783099,0.2176285
0.8626725,-0.02816635,0.2262079
1.052931,-0.06448295,0.1932137
1.239464,-0.1209351,0.1908318
1.327751,-0.1716981,0.2536832
1.36672,-0.1919001,0.3184079
1.349358,-0.1398479,0.3387385
1.285718,-0.1153282,0.3320752
1.351435,-0.3345506,0.1507147
1.483788,-0.6654174,-0.2528245
1.519101,-0.7248706,-0.5954062
1.309967,-0.4649933,-0.6141984
0.9074067,-0.1528523,-0.2324313
0.7884244,0.003671022,0.1318877
0.9024611,-0.0595213,-0.09719219
0.9193832,-0.2065137,-0.3515805
0.9790844,-0.2905127,-0.09967909
0.9843713,-0.3143132,-0.01841245
0.8781827,-0.2507681,-0.07806056
0.8169464,-0.181782,0.01821113
0.7332221,-0.1663393,-0.04374472
0.7105634,-0.1218567,-0.02069872
0.7449663,-0.1082701,0.07387381
0.7253105,-0.09619754,0.06479601
0.7362376,-0.05897708,0.1078011
0.7397755,-0.06459256,0.04276942
0.7459208,-0.03973481,0.02564471
0.8571844,-0.03970681,0.1014043
1.063787,-0.06554292,0.1036606
1.267116,-0.03402645,0.151262
1.299738,-0.007150584,0.1519549
1.238573,0.03335637,0.2021692
1.260257,0.0139939,0.3035925
1.329355,-0.1069836,0.2521758
1.401134,-0.1918633,0.0842125
1.407883,-0.233729,-0.2520115
1.322881,-0.3332773,-0.4719869
1.219837,-0.5263648,-0.3770509
1.087455,-0.5718978,-0.3267317
0.9723112,-0.4185727,-0.2937485
0.9663312,-0.3326343,-0.09054197
1.011819,-0.2116146,0.001385386
1.019818,-0.05531234,-0.1224749
0.954225,-0.01639686,-0.1540459
0.836449,0.009080628,-0.09431975
0.7485633,-0.04821654,-0.04739358
0.7315655,-0.1409691,0.06163356
0.7390763,-0.1359273,0.0926882
0.7432734,-0.1233871,0.04987671
0.7693666,-0.09626055,0.06111932
0.7931399,-0.08447672,0.06240015
0.8028035,-0.09438645,0.07773571
0.8227644,-0.08421809,0.1559327
0.8269519,-0.103066,0.2545073
0.865754,-0.1171948,0.306846
1.031191,-0.1261932,0.3028069
1.233936,-0.1219821,0.2991295
1.316421,-0.05736303,0.3118303
1.327154,0.03977468,0.3490251
1.353733,0.05685289,0.3600166
1.369598,-0.1982388,0.2173659
1.501568,-0.5992715,-0.05668586
1.6328,-0.7167082,-0.3183961
1.360677,-0.4450372,-0.4429106
0.9497571,-0.1234499,-0.25133
0.8185401,-0.02609893,0.001829471
0.8008038,-0.09166484,-0.1462269
0.8222378,-0.2381528,-0.2432407
0.883865,-0.3978772,-0.01820772
0.8453712,-0.438713,0.0424758
0.8159982,-0.3838019,0.02562336
0.8461098,-0.3057996,0.01023647
0.8077127,-0.1773437,-0.09152411
0.7851097,-0.07143656,-0.07293471
0.8052383,-0.05754251,-0.03566867
0.7913164,0.004762218,0.006904745
0.7850261,0.04882741,0.0601231
0.7648858,-0.00420697,0.02646078
0.7384295,0.04065704,0.0511628
0.7923918,0.03847968,0.06233505
0.9953203,-0.07221063,0.06906758
1.268381,-0.09508118,0.1615379
1.308916,-0.09078039,0.2438087
1.163691,-0.02389979,0.3510561
1.169848,0.02237436,0.3875434
1.298192,-0.06474934,0.2501046
1.404314,-0.1310693,-0.04445755
1.42442,-0.2404876,-0.3926478
1.348445,-0.4763787,-0.4518714
1.28903,-0.7078986,-0.292317
1.20719,-0.7156147,-0.259592
1.07308,-0.5152119,-0.1897072
0.9873763,-0.3570181,-0.02769881
0.9811077,-0.2726688,-0.04776215
1.020348,-0.210659,-0.1420028
0.9443182,-0.04149488,-0.1942851
0.8508022,0.09929677,-0.2635802
0.8570273,-0.04608019,-0.1636441
0.7528225,-0.1469357,0.03633326
0.6975692,-0.1362288,0.0765885
0.7533095,-0.1644032,0.06333483
0.721065,-0.1155375,0.08521611
0.7278998,-0.107105,0.08851573
0.7561312,-0.1001434,0.08763471
0.7602759,-0.05040927,0.108457
0.7874222,-0.06435119,0.1524523
0.7964794,-0.0499524,0.1854166
0.868299,-0.06264533,0.208743
1.031405,-0.1140734,0.2193057
1.233348,-0.1452302,0.2332508
1.328907,-0.1690141,0.3047163
1.261253,-0.0933495,0.3501629
1.266076,-0.0820591,0.3041875
1.394995,-0.3777966,0.1200361
1.548558,-0.7686346,-0.2367569
1.608272,-0.7993256,-0.5110672
1.314633,-0.4334034,-0.4804697
0.8571432,-0.07096975,-0.1776519
0.7274209,0.06240497,0.08763569
0.8248174,-0.08255993,-0.09164406
0.8752969,-0.3042609,-0.3031781
0.924568,-0.3628308,-0.08722802
0.9281912,-0.3685949,0.03310679
0.8672386,-0.2871067,-0.02546803
0.8339054,-0.1471668,0.005390848
0.7948043,-0.0691596,-0.05502846
0.7981486,0.006547143,-0.03004218
0.8462055,-0.00930335,0.06285647
0.8245782,-0.01648404,0.03066624
0.8017601,0.02754657,0.07575487
0.7818913,0.008790008,0.0934072
0.7554829,0.03059229,0.07101141
0.8387572,0.004226634,0.1017656
0.9812974,-0.06192804,0.09083069
1.167717,-0.09852372,0.1366689
1.321308,-0.140924,0.1925785
1.275725,-0.06036323,0.2384047
1.237156,0.004946287,0.3040362
1.32162,-0.05044717,0.2501601
1.375029,-0.09685862,0.0169454
1.415829,-0.1918803,-0.3764507
1.406225,-0.4164712,-0.5526292
1.285467,-0.6711405,-0.3509406
1.13728,-0.7032449,-0.2379122
1.005535,-0.5206178,-0.2150304
0.9986585,-0.3314433,-0.04341843
1.087698,-0.1402688,-0.001326932
1.078212,-0.002201236,-0.1561835
0.9993833,0.02066572,-0.206481
0.8813756,-0.01595,-0.1373923
0.7785847,-0.08408774,-0.03174951
0.756067,-0.1330804,0.08541334
0.715231,-0.1336259,0.09981075
0.7264147,-0.110022,0.05519474
0.7585266,-0.1025877,0.03862479
0.7293933,-0.1124925,0.03517694
0.7478484,-0.1058584,0.08362546
0.740137,-0.1012712,0.1761387
0.7232094,-0.09191244,0.226135
0.7755097,-0.07335026,0.2161188
0.9036441,-0.07921593,0.194754
1.187422,-0.09831251,0.1849453
1.419599,-0.1040556,0.2483741
1.434506,-0.04636012,0.3811608
1.386564,-0.01361162,0.3998726
1.403423,-0.2381836,0.2082984
1.548107,-0.619716,-0.12504
1.625927,-0.7439145,-0.4546882
1.309267,-0.4940136,-0.5455595
0.8219089,-0.1789229,-0.2252231
0.7035519,-0.04564759,0.09648016
0.8402515,-0.09406839,-0.119788
0.8827111,-0.2481854,-0.32099
0.9457404,-0.3877972,-0.1143177
0.9590651,-0.4222875,-0.05242891
0.859819,-0.3426556,-0.03698786
0.8572606,-0.219897,0.02491449
0.846713,-0.1169754,-0.08383888
0.8274608,-0.03663275,-0.05323176
0.8681842,-0.03817373,-0.001520888
0.8428305,-0.05642857,-0.01246431
0.8217525,-0.02425678,0.08223321
0.7776658,-0.03084394,0.05681928
0.7123098,-0.02546302,0.04792851
0.7450527,-0.02397238,0.09728888
0.823651,-0.07426771,0.08552786
1.030232,-0.1005904,0.1524309
1.255177,-0.1189498,0.171495
1.236143,-0.07479673,0.1898396
1.157454,0.02818607,0.2966643
1.200754,0.06388741,0.3262274
1.315082,0.02717787,0.2363399
1.428138,-0.06667996,0.05620745
1.415056,-0.2859409,-0.1703456
1.360536,-0.6367043,-0.4199744
1.361402,-0.7591006,-0.4071912
1.161422,-0.5573014,-0.1875315
0.9016958,-0.4381081,-0.1763204
0.9695289,-0.3460985,-0.09958784
1.079194,-0.1975632,-0.06844626
1.077346,-0.06513699,-0.2756
1.130689,0.1081126,-0.271788
1.043089,0.0222876,-0.2209052
0.8489712,-0.1668928,-0.1499911
0.7836232,-0.1633727,-0.005973195
0.7678891,-0.1977599,-0.01096717
0.7280751,-0.1531285,0.08460095
0.7100855,-0.1040314,0.09361765
0.7300079,-0.1267926,-0.00968359
0.7308492,-0.05551131,0.05980864
0.7187169,-0.09124715,0.06308801
0.7622198,-0.08475272,0.1165619
0.7951538,-0.03708162,0.2137639
0.8271941,-0.1002861,0.1948919
0.9713674,-0.07866305,0.2270381
1.207885,-0.1249208,0.2372608
1.382335,-0.1598671,0.2640454
1.372459,-0.09905955,0.3197527
1.362008,-0.1512117,0.2939259
1.488239,-0.2803427,0.1514139
1.588174,-0.5125214,-0.2146335
1.538408,-0.5907232,-0.4620863
1.202594,-0.3491096,-0.2933975
0.7268848,-0.06601016,-0.02463788
0.6172109,0.09353507,0.07816569
0.8455926,-0.07655623,-0.1082255
0.9773871,-0.3498973,-0.362865
1.000015,-0.376685,-0.2227564
0.9972199,-0.3827605,5.185968e-05
0.8923218,-0.3420389,-0.01150113
0.7983611,-0.1773396,0.03983778
0.7596811,-0.09653201,0.01904294
0.7654772,-0.06939299,-0.04606028
0.8457743,-0.07514017,0.03967306
0.8820658,-0.08986768,0.01580491
0.8968615,-0.03813647,0.02805216
0.8559086,0.0102987,0.08876821
0.7465861,0.07598122,0.05437865
0.7527013,0.1100532,0.09550372
0.8257889,0.04976301,0.0942909
0.9900647,-0.03874361,0.1012375
1.198401,-0.1519386,0.1311432
1.249024,-0.1580347,0.1130038
1.252792,-0.06505663,0.2282836
1.254486,-0.05980413,0.3243941
1.258215,-0.07953565,0.2976503
1.351809,-0.09329598,0.1456783
1.42995,-0.1385075,-0.174295
1.37229,-0.2564872,-0.3952564
1.252158,-0.48131,-0.3430644
1.156814,-0.5816654,-0.231695
1.010672,-0.4810003,-0.22838
0.940547,-0.3613028,-0.1053099
1.049971,-0.2091766,0.01143724
1.09521,-0.02751962,-0.1203839
1.059494,0.0609121,-0.1827726
0.975443,0.05715727,-0.1687091
0.7954384,-0.008834573,-0.1074193
0.6926485,-0.1053828,0.06510884
0.6919747,-0.1341819,0.1060194
0.7167351,-0.1135312,0.08965178
0.7696584,-0.1249749,0.07865509
0.7954993,-0.1445434,0.03682092
0.7874236,-0.1636452,0.05960975
0.7791436,-0.1741407,0.1086759
0.7800947,-0.1497243,0.1949045
0.7942219,-0.1239962,0.2533862
0.8680652,-0.1084184,0.2358099
1.084185,-0.08734001,0.2436961
1.324904,-0.05232449,0.2597377
1.372676,-0.003270672,0.2646907
1.353002,-0.004444682,0.2522749
1.46794,-0.2028609,0.1273349
1.637677,-0.5814116,-0.2111895
1.713933,-0.7474703,-0.5819902
1.367387,-0.5026534,-0.558375
0.7381863,-0.1933729,-0.1590775
0.6413668,-0.0729073,0.09037762
0.8738757,-0.1240718,-0.06986722
0.8948081,-0.2838756,-0.2580135
0.9759963,-0.3901324,-0.1656915
0.9852354,-0.3772838,-0.06543356
0.8668218,-0.2965753,-0.04001864
0.8591441,-0.1876568,-0.006707419
0.792182,-0.1124961,-0.0676936
0.7739761,-0.08280601,-0.04892239
0.8251049,-0.1043538,0.02822408
0.8016343,-0.1152034,0.04733138
0.8272122,-0.06226629,0.1234535
0.781303,-0.02572362,0.09380629
0.6945909,0.002866774,0.05255015
0.7460422,0.006126189,0.09699322
0.8760878,-0.05848005,0.09255017
1.104281,-0.1340618,0.1706158
1.274778,-0.1606435,0.1917523
1.228102,-0.06287778,0.1767944
1.154828,0.05835192,0.2859125
1.177313,0.06053517,0.2669846
1.337225,-0.01450978,0.05973765
1.534616,-0.09115569,-0.2381398
1.484629,-0.1731533,-0.3687777
1.347788,-0.4852743,-0.3089188
1.355577,-0.8780839,-0.3893451
1.28618,-0.7906308,-0.3927121
1.13055,-0.4726764,-0.2066854
1.004018,-0.3178335,-0.0449262
0.9724761,-0.1210207,0.04776516
1.046858,-0.05658262,-0.1145491
0.9357561,-0.08224461,-0.2873283
0.7913208,0.01852709,-0.1447669
0.8001275,-0.07030255,-0.06025285
0.7344255,-0.1247891,-0.0558095
0.6935574,-0.08836318,0.08972227
0.6739239,-0.1744255,0.1137282
0.6796551,-0.1005921,0.02680513
0.7631951,-0.112752,0.03161821
0.7712413,-0.1687202,0.0427914
0.816496,-0.08394945,0.0837978
0.840249,-0.1388714,0.1862075
0.8369973,-0.1052375,0.2353198
0.9435149,-0.09083802,0.2353315
1.083688,-0.170791,0.240668
1.31707,-0.1287409,0.2778109
1.415159,-0.1284013,0.3440706
1.314147,-0.0357003,0.3540511
1.363569,-0.03175889,0.2501568
1.541299,-0.3642845,0.03853219
1.617297,-0.6182225,-0.1832267
1.258741,-0.4936089,-0.2314113
0.7483305,-0.1978778,-0.1400024
0.7463006,-0.06621109,-0.116979
0.8551623,0.02996401,-0.1660158
0.8262986,-0.0690591,-0.2374426
1.004437,-0.3867662,-0.3012906
1.046661,-0.3697373,-0.1790632
0.9061402,-0.3255522,0.01484813
0.8905059,-0.3176264,-0.002870174
0.7788545,-0.1156781,-0.04758033
0.72752,-0.09639855,0.001622107
0.8296182,-0.1012867,-0.01004945
0.8179065,-0.07239236,-0.001537313
0.8443752,-0.09431804,0.05554019
0.8519806,-0.02430255,0.06967003
0.7772344,0.002805083,0.06231083
0.7736964,0.05533023,0.04817742
0.8004571,0.05743779,0.07421222
0.9665187,-0.05714804,0.1150358
1.171565,-0.09760377,0.1156995
1.211868,-0.100647,0.133669
1.209131,-0.01765272,0.1737856
1.226116,0.06036232,0.2149659
1.290724,0.01806836,0.1740496
1.432642,-0.03901505,0.002112312
1.52247,-0.1474288,-0.1515392
1.397771,-0.3427356,-0.2352284
1.213718,-0.5892152,-0.3149122
1.119788,-0.6315345,-0.3226635
0.9679857,-0.4274552,-0.2032724
0.9280146,-0.3195432,-0.1046878
1.06118,-0.2212709,-0.0886521
1.081348,-0.09777839,-0.1264609
1.034187,-0.1026033,-0.2137201
0.9661006,-0.1057533,-0.1631861
0.8629776,-0.1414129,-0.06014272
0.8116415,-0.1791235,-0.05307538
0.7347646,-0.1301261,0.03440139
0.634522,-0.09375835,0.09120417
0.6438823,-0.05152789,0.0632943
0.7338019,-0.04956027,0.05681966
0.7792024,-0.06456253,0.0400163
0.8058398,-0.04613016,0.07047446
0.872932,-0.1027389,0.1176563
0.951838,-0.146899,0.1742654
1.028505,-0.1398265,0.1848524
1.108148,-0.1550942,0.1387863
1.291636,-0.1851257,0.1776092
1.428719,-0.2035567,0.1909613
1.321891,-0.131906,0.24523
1.256212,-0.07124671,0.3399231
1.297944,-0.1964119,0.172866
1.451934,-0.4977513,-0.1769266
1.672712,-0.7357365,-0.4848285
1.409042,-0.5905061,-0.5377839
0.9247626,-0.2590272,-0.3289213
0.7988428,-0.07013699,-0.1714426
0.7824244,0.009975398,-0.1251626
0.8397113,-0.1172546,-0.1493241
0.9433433,-0.3232185,-0.1699032
0.9184325,-0.344069,-0.06042353
0.9308958,-0.3566494,0.00470288
0.9169481,-0.3122884,-0.05986987
0.8460872,-0.1768994,-0.09325897
0.8394799,-0.1444568,-0.04776567
0.8158693,-0.09381325,0.01331404
0.8010216,-0.0485861,0.04572291
0.7877419,-0.04450754,0.07067831
0.7411788,-0.009944624,0.057985
0.738493,-0.03231501,0.02361814
0.8051819,-0.05293404,0.0422774
0.9748108,-0.08937196,0.061988
1.15968,-0.1390059,0.09380776
1.212831,-0.1053036,0.1403357
1.164245,-0.04936643,0.1835188
1.14792,0.03561602,0.2755386
1.218157,0.06004236,0.2953588
1.306029,-0.03671487,0.2081238
1.365842,-0.1136155,0.06919364
1.317107,-0.2032928,-0.202741
1.226886,-0.3959148,-0.4200258
1.238878,-0.578906,-0.3630893
1.15373,-0.5913708,-0.2933231
1.006821,-0.5298806,-0.3111761
1.041512,-0.4854924,-0.1511494
1.102489,-0.3337407,-0.03244566
1.108077,-0.1654665,-0.1536786
1.091299,-0.07739856,-0.1987893
0.9998552,-0.03209599,-0.1846457
0.8927019,-0.08677381,-0.1384215
0.7981113,-0.1348565,0.01557992
0.7397289,-0.1176508,0.04761008
0.7392992,-0.1198677,0.01775247
0.7601718,-0.1009726,0.02730794
0.8020229,-0.1003153,0.00875197
0.8094327,-0.1259392,0.04359503
0.7792514,-0.1187722,0.1061252
0.7730247,-0.1121357,0.1546156
0.770153,-0.07171952,0.177402
0.7875203,-0.01120951,0.1568516
0.8780039,0.002767456,0.1486054
1.096705,-0.05319137,0.1546947
1.376614,-0.1621879,0.2236639
1.45379,-0.1834163,0.3837792
1.283375,-0.09719982,0.5069344
1.12926,-0.04306899,0.4764881
1.163679,-0.1523879,0.2573222
1.371318,-0.5385443,-0.08715411
1.655636,-0.9592801,-0.3679617
1.71439,-0.896855,-0.449652
1.283963,-0.3884704,-0.34747
0.7877909,0.01144194,-0.07591894
0.7494042,0.07970783,0.1614971
0.8838504,-0.05935476,0.05649879
0.8754767,-0.2489796,-0.1719095
0.906012,-0.3844387,-0.1851085
0.9382092,-0.3940931,-0.09542952
0.8720179,-0.2899345,-0.02591909
0.8729904,-0.3017469,-0.03135851
0.8540232,-0.2591916,-0.07644906
0.787313,-0.04979973,-0.01758991
0.8472208,-0.04400417,0.02161509
0.9095346,-0.04604135,0.03488781
0.9459846,-0.0004468853,0.08778697
0.9784773,-0.0488076,0.05579075
0.9026312,0.01076792,0.07667153
0.8192006,0.006121131,0.136245
0.7633956,-0.03554404,0.1255661
0.7401597,-0.0543312,0.1657171
0.84215,-0.1401913,0.1913326
1.010579,-0.106011,0.1977365
1.096805,-0.01518556,0.1806528
1.065383,0.1096001,0.137378
1.067759,0.1732822,0.1912256
1.118727,0.05693956,0.2347847
1.148217,0.002945094,0.2314877
1.24642,-0.001726887,0.1629274
1.362262,-0.03352337,-0.07637589
1.401347,-0.1524784,-0.3478017
1.423963,-0.4680934,-0.4423261
1.450172,-0.7525335,-0.3422587
1.389833,-0.7620486,-0.2722811
1.146521,-0.5155762,-0.2035988
0.9180703,-0.2431279,-0.02972621
0.996449,-0.1060565,-0.05174176
1.109291,-0.0508389,-0.1750838
0.9754655,-0.04010429,-0.1517421
0.912093,-0.08484501,-0.1564625
0.9430655,-0.1554583,-0.1334684
0.8949484,-0.1749758,-0.01568742
0.9243604,-0.1933641,0.05875297
