accx,accy,accz
0.847131,0.1150236,-0.228685
0.8866203,0.1004507,-0.222978
0.9215332,0.06129553,-0.1944611
0.9447066,0.04709328,-0.1982617
0.9740413,0.03079638,-0.2048371
0.993005,0.05711284,-0.226644
1.034986,0.07364028,-0.2750988
1.08486,0.09080544,-0.3170471
1.105659,0.1474056,-0.3252138
1.128573,0.158695,-0.2653118
1.182828,0.122321,-0.1644902
1.238826,0.0437096,-0.09221603
1.220487,0.01266376,-0.1407401
1.179254,0.07764115,-0.312307
1.165072,0.07643978,-0.4726068
1.124591,-0.09582776,-0.5195245
1.058094,-0.3574849,-0.4978041
0.971632,-0.4715791,-0.4615137
0.9364085,-0.4304657,-0.3409892
0.9837177,-0.3548243,-0.2505524
1.039251,-0.1461411,-0.2867434
1.110403,0.04318912,-0.3004985
1.124713,0.04612438,-0.3501
1.054046,0.03924836,-0.4058064
0.9998019,0.007568242,-0.357019
0.9149812,-0.107324,-0.3183493
0.8286985,-0.1580704,-0.2374245
0.8137029,-0.1458041,-0.1477693
0.8015586,-0.1323972,-0.1404072
0.8016814,-0.08254669,-0.1283134
0.7951107,-0.04143275,-0.149349
0.7602525,-0.04945779,-0.1649353
0.7643016,-0.08066616,-0.1212065
0.7808675,-0.1245512,-0.08450834
0.8073662,-0.1194828,-0.04837386
0.8648714,-0.07397783,-0.01729564
0.9142867,-0.04667815,-0.008971933
0.966274,-0.02414159,-0.03667043
1.037587,-0.0386662,-0.07536703
1.131446,-0.06975891,-0.09267688
1.220978,-0.0707972,-0.08898706
1.246457,-0.02798787,-0.03608366
1.236415,0.1059298,-0.007227301
1.29191,0.1973937,-0.07905087
1.42845,0.1381253,-0.2009578
1.486766,0.01642081,-0.2919243
1.323643,-0.2742738,-0.3558434
1.051406,-0.5994828,-0.4515561
0.8699826,-0.3970552,-0.4588212
0.802847,0.0181377,-0.3964018
0.8061323,0.001636724,-0.4346593
0.8563719,-0.02604245,-0.4351961
0.9077571,-0.002219883,-0.3990283
1.01268,-0.2846157,-0.4163674
1.137013,-0.473487,-0.3660944
1.080519,-0.4188079,-0.3295219
0.8965301,-0.2664973,-0.2884428
0.7793071,-0.1099643,-0.1880281
0.7709943,-0.06390477,-0.2215921
0.8245252,-0.007870067,-0.2895395
0.8326313,0.02108277,-0.2783496
0.8306555,0.005934359,-0.2802772
0.8720739,-0.01880736,-0.2567131
0.8444396,-0.005787335,-0.2437476
0.8161537,0.07752899,-0.2509015
0.8463611,0.06514833,-0.2206971
0.8510849,0.1148457,-0.2027491
0.8913873,0.1586188,-0.1785607
0.9483984,0.06309483,-0.1634772
0.9674652,0.06699208,-0.182735
0.9857436,0.05625252,-0.1814521
0.9858822,0.07281519,-0.2020287
1.000183,0.1470489,-0.2457532
1.049204,0.138738,-0.2563674
1.110087,0.1699749,-0.2272025
1.164303,0.148715,-0.1497029
1.183154,0.07950266,-0.08044104
1.202923,0.04715617,-0.09007683
1.243743,0.02362239,-0.1983388
1.268565,0.04324564,-0.340952
1.20833,-0.01372707,-0.4118467
1.063357,-0.1281183,-0.4455998
0.9512217,-0.2540816,-0.463389
0.9206218,-0.3748023,-0.3805713
0.9575622,-0.3565599,-0.2473452
1.023494,-0.269742,-0.2101455
1.110046,-0.1029329,-0.2873275
1.197712,0.1075956,-0.3820569
1.144833,0.1168534,-0.4237329
1.025131,0.01780902,-0.4006332
0.9589483,-0.04013153,-0.3237177
0.86437,-0.1126704,-0.2272478
0.8253351,-0.1440825,-0.1756379
0.817829,-0.1156624,-0.1572995
0.7384169,-0.119798,-0.109165
0.7285451,-0.1086005,-0.1066603
0.7352275,-0.05602351,-0.1461949
0.7043009,-0.04652792,-0.1080039
0.7566009,-0.04673099,-0.07845385
0.8178033,-0.03312441,-0.08192485
0.8465553,-0.03122059,-0.04731731
0.8793943,-0.02135816,-0.04930994
0.9188308,-0.03420475,-0.06489936
1.023499,-0.09730834,-0.08996092
1.152601,-0.2078395,-0.1605181
1.236451,-0.2809609,-0.1589735
1.290419,-0.2029587,-0.06720906
1.311523,-0.006637708,0.009189678
1.323651,0.2086929,-0.03245856
1.400561,0.2487691,-0.1592225
1.497828,0.03477131,-0.2605073
1.424124,-0.240494,-0.3568797
1.1584,-0.4585183,-0.3995542
0.8955838,-0.4467022,-0.3653826
0.7622449,-0.1950837,-0.358452
0.7439197,-0.0272594,-0.405188
0.780083,0.02905966,-0.4709385
0.8815521,-0.03729518,-0.4748554
1.018383,-0.2587353,-0.4358419
1.120658,-0.4066944,-0.3918004
1.119765,-0.4008318,-0.3192645
0.9911577,-0.288633,-0.2820987
0.9366829,-0.2305857,-0.2481576
0.8711006,-0.1318185,-0.2248732
0.7164949,0.06925019,-0.2502818
0.7706632,0.002501861,-0.2242332
0.8287831,-0.07441291,-0.2142314
0.7873718,0.01496615,-0.2435664
0.8375308,-0.002801349,-0.2317507
0.823383,0.06824526,-0.2393221
0.8258013,0.1523644,-0.2403074
0.8877512,0.127964,-0.2216398
0.9080981,0.1449227,-0.2209512
0.969914,0.1240407,-0.2141173
1.022648,0.10507,-0.236814
1.053139,0.1116135,-0.2676575
1.070863,0.1169792,-0.2740563
1.06675,0.1704337,-0.2680474
1.113776,0.1808197,-0.2210464
1.202117,0.09012531,-0.131545
1.268879,-0.01832696,-0.06172671
1.251061,-0.01484973,-0.1801873
1.223044,0.02036147,-0.4317283
1.243858,-0.0368008,-0.5207085
1.205117,-0.08788157,-0.4765259
1.106846,-0.2189496,-0.4669766
0.9741504,-0.4405737,-0.4710238
0.8959987,-0.4519153,-0.4120568
0.9948702,-0.2851088,-0.3219514
1.131009,-0.1349627,-0.3287999
1.240365,0.007285858,-0.3933775
1.282478,0.06585693,-0.4498454
1.131414,0.01793676,-0.4843554
0.9643102,-0.02090897,-0.4192477
0.8676896,-0.07350553,-0.3178089
0.7826973,-0.1177412,-0.232861
0.7778104,-0.09055193,-0.157364
0.7804155,-0.08440819,-0.152422
0.7656021,-0.08952947,-0.1707763
0.7544225,-0.07890165,-0.1638291
0.7086991,-0.1008447,-0.1510584
0.6920865,-0.1004568,-0.1182743
0.6894061,-0.08268348,-0.06304384
0.6778671,-0.05898863,-0.01080857
0.6898959,-0.01150598,-0.004001546
0.7344554,0.01617643,-0.02081878
0.8368763,0.03337959,-0.0352338
0.9939995,-0.04009732,-0.09676433
1.218927,-0.2190702,-0.1544049
1.405635,-0.2745131,-0.1287133
1.410516,-0.1442132,-0.06387751
1.337825,0.06854473,-0.02302498
1.332209,0.2517049,-0.07976325
1.430405,0.2020161,-0.2367952
1.539035,-0.0804951,-0.3851892
1.482273,-0.2928742,-0.4668475
1.246151,-0.2854659,-0.4762618
0.920062,-0.2475106,-0.4852456
0.6980474,-0.2113648,-0.4960241
0.7474377,-0.01028617,-0.4140356
0.8441365,0.08196491,-0.3777888
0.9286093,-0.1001095,-0.4341149
1.14239,-0.2401985,-0.4411016
1.185744,-0.3427061,-0.4215601
1.014517,-0.3834976,-0.3523246
0.8858112,-0.249362,-0.2540953
0.7653269,-0.1343012,-0.2342572
0.7179594,-0.03510955,-0.2473427
0.744642,0.009312883,-0.246066
0.7641084,-0.03267738,-0.2381445
0.8304191,-0.009122699,-0.2447664
0.8595375,0.007521287,-0.2454303
0.8590927,0.04691985,-0.2317515
0.8816361,0.1240322,-0.2237931
0.8765298,0.1253331,-0.1853641
0.864352,0.09506537,-0.1615078
0.8481703,0.04980143,-0.1652897
0.8667378,0.03098356,-0.1659515
0.9383403,0.04232423,-0.2059507
1.027301,0.05053762,-0.2686166
1.127319,0.1018843,-0.3098682
1.186279,0.164883,-0.280791
1.211168,0.2002432,-0.1892137
1.223212,0.1740314,-0.07561886
1.204942,0.1148157,-0.001817155
1.184103,0.09969887,-0.1034641
1.161422,0.1008034,-0.2853867
1.151692,0.08245204,-0.3975306
1.174265,-0.01004494,-0.4502231
1.179837,-0.1356309,-0.4318662
1.096197,-0.2316032,-0.4178076
0.9284269,-0.3977826,-0.3821403
0.8418306,-0.4783262,-0.2928351
0.931958,-0.3173326,-0.274203
1.068566,-0.1467294,-0.2571687
1.169745,-0.01436739,-0.2906999
1.235711,0.08182437,-0.4362494
1.192557,0.02326011,-0.4610077
1.070438,-0.03212995,-0.383487
0.9434349,-0.06927242,-0.2973735
0.8087738,-0.1509263,-0.1743152
0.7575955,-0.1299782,-0.1162584
0.7606414,-0.0988668,-0.1205338
0.74375,-0.09025307,-0.1357589
0.7619948,-0.03198325,-0.1554517
0.7463982,-0.03507806,-0.1217637
0.7275186,-0.05292668,-0.06514268
0.7492937,-0.05111241,-0.02850857
0.7393774,-0.05692582,-0.003211822
0.7648781,-0.02815739,-0.006877702
0.8172972,-0.01671385,-0.03090163
0.9181728,-0.02389419,-0.07334291
1.113426,-0.06348082,-0.134379
1.300068,-0.1695933,-0.1548732
1.426574,-0.2220798,-0.1274195
1.382894,-0.08954015,-0.07751621
1.250984,0.1406573,-0.01706813
1.265867,0.1888013,-0.05069414
1.336898,0.001879442,-0.2058018
1.374376,-0.2591888,-0.3889994
1.307263,-0.4375526,-0.5274725
1.080553,-0.3854274,-0.5314618
0.8727934,-0.2008456,-0.482891
0.7273419,-0.03000031,-0.4637703
0.7021295,0.04194948,-0.3852936
0.8428935,-0.08409248,-0.3567712
0.9569444,-0.2413681,-0.3999436
1.019203,-0.3344231,-0.3782246
1.01276,-0.394336,-0.3485347
0.957165,-0.326712,-0.3199455
0.9166315,-0.1964221,-0.290324
0.8037786,-0.05451848,-0.2840372
0.7955023,0.01916129,-0.270526
0.8618252,-0.03175665,-0.2719455
0.8119455,0.01050338,-0.2438322
0.8286298,0.04072696,-0.2150702
0.8390668,-0.004198151,-0.2360897
0.7969167,0.07431085,-0.2258127
0.83568,0.09614206,-0.2166597
0.8633574,0.06970123,-0.2096767
0.9259184,0.1066398,-0.1720405
0.9929641,0.08697251,-0.1744806
0.9740192,0.09579826,-0.1916355
0.9762627,0.1286705,-0.2107649
0.9880449,0.1448442,-0.2610638
1.026397,0.1669378,-0.2854417
1.11868,0.1440634,-0.2623484
1.176503,0.1298652,-0.2160996
1.218163,0.07465076,-0.1421203
1.259219,-0.01654591,-0.08754208
1.259166,-0.02303537,-0.1614155
1.22868,-0.008661643,-0.3118405
1.157359,-0.02604674,-0.4053248
1.016073,-0.09128719,-0.4515127
0.8834211,-0.2239742,-0.449699
0.8557735,-0.3483882,-0.3956472
0.9562619,-0.3538812,-0.3257447
1.165513,-0.2335147,-0.2789067
1.303703,-0.08130615,-0.3269777
1.273543,0.05870637,-0.3920113
1.156249,0.1123964,-0.3969483
0.9716542,0.07059475,-0.3924269
0.8551257,0.02663762,-0.3424953
0.8477978,-0.04803846,-0.2536015
0.8274213,-0.1146825,-0.1745466
0.8327217,-0.1104625,-0.1257494
0.825291,-0.1033657,-0.1298168
0.7618743,-0.09043478,-0.123815
0.7082995,-0.07433916,-0.09084
0.677106,-0.09151037,-0.0484023
0.7058389,-0.09697194,-0.009717383
0.7560339,-0.05356621,-0.02552035
0.7890638,-0.0004040688,-0.04682159
0.8644694,-0.005159472,-0.0594529
1.01097,-0.05850381,-0.1029457
1.194248,-0.121734,-0.1251655
1.283141,-0.1946113,-0.125024
1.288098,-0.2265867,-0.1173766
1.282726,-0.1628322,-0.05084637
1.219856,-0.0346942,0.03101017
1.236297,0.1075976,0.004086718
1.387275,0.1752851,-0.1391215
1.530858,0.01681184,-0.3126257
1.553934,-0.239789,-0.4254892
1.305247,-0.2701879,-0.4152659
0.9490712,-0.1534824,-0.3788308
0.7495908,-0.07093941,-0.3890918
0.6948921,-0.008547913,-0.3886484
0.7708064,-0.06306013,-0.4193597
0.9136495,-0.2150496,-0.4602586
1.084414,-0.3573652,-0.4342696
1.164797,-0.4307128,-0.3710092
1.038909,-0.3332459,-0.2734471
0.9131724,-0.1906142,-0.2102789
0.8052153,-0.07878491,-0.2223293
0.6958983,0.03744882,-0.2296191
0.7207546,0.03400569,-0.2323979
0.7706167,0.006380118,-0.235356
0.8293589,0.03562501,-0.2345675
0.8919855,0.03707695,-0.2484407
0.8619085,0.09530124,-0.2519774
0.8478839,0.1750903,-0.2466356
0.8552094,0.1831871,-0.2347173
0.8510157,0.1575253,-0.2038796
0.9046424,0.1200262,-0.1855523
0.9761208,0.1087574,-0.2032142
1.039301,0.1120998,-0.2328585
1.090986,0.1120655,-0.2622785
1.120099,0.1286696,-0.2901818
1.128742,0.1682301,-0.2648181
1.124707,0.2112765,-0.1614336
1.159851,0.1781459,-0.04931283
1.186648,0.1065778,-0.05397028
1.183977,0.07965123,-0.2341491
1.208329,0.06066281,-0.4403281
1.199441,-0.02845512,-0.5326137
1.141815,-0.2494005,-0.5528612
1.063917,-0.4519378,-0.4966084
1.004125,-0.4688359,-0.3440746
1.019622,-0.360483,-0.244363
1.078956,-0.1561666,-0.298204
1.183647,0.07582429,-0.3964525
1.243427,0.1724296,-0.4817177
1.158635,0.1255615,-0.5382604
1.026693,0.0284428,-0.4465366
0.8590309,-0.095848,-0.265794
0.7243074,-0.1845723,-0.1500087
0.7218224,-0.1395855,-0.1176252
0.7113061,-0.09558072,-0.1375528
0.6971746,-0.09561831,-0.1328068
0.736571,-0.02282094,-0.1417756
0.7217266,-0.01888821,-0.1690012
0.7087815,-0.06534254,-0.1148902
0.7305479,-0.05406669,-0.07685586
0.7301346,-0.0799817,-0.07221792
0.80719,-0.07195158,-0.05199576
0.9208825,-0.04743988,-0.0518881
0.94889,-0.07032576,-0.04377493
1.028447,-0.08243387,-0.07273444
1.259297,-0.1575078,-0.127711
1.411968,-0.2182717,-0.1477466
1.326862,-0.1172451,-0.09872348
1.248788,0.1160161,0.005292374
1.269052,0.3103985,-0.004091267
1.260237,0.2426188,-0.09354513
1.299005,0.04273403,-0.203695
1.293524,-0.1731187,-0.3796744
1.144066,-0.4546327,-0.4873183
0.9776804,-0.4538117,-0.5267684
0.838418,-0.1606371,-0.5550268
0.8243596,0.03249408,-0.5524122
0.9177895,0.09177026,-0.4934603
1.016096,-0.106599,-0.3520359
1.089804,-0.380631,-0.3134127
1.030925,-0.3704364,-0.3507853
0.938222,-0.3624274,-0.2861867
0.8629925,-0.3052118,-0.2610215
0.7579455,-0.05998528,-0.283223
0.7457319,0.04199891,-0.2713017
0.7592584,0.03024334,-0.2659947
0.7739278,0.01436483,-0.240741
0.8361483,0.008341215,-0.226879
0.8518909,0.04652071,-0.2443275
0.8531305,0.08813437,-0.2541691
0.853439,0.1617744,-0.244419
0.8540705,0.1847717,-0.213866
0.8822236,0.1418033,-0.1895743
0.9099331,0.108076,-0.1782629
0.9680394,0.06896632,-0.1902572
1.031689,0.06882457,-0.2144949
1.08113,0.09367283,-0.2421499
1.132411,0.1149791,-0.2804657
1.160706,0.137073,-0.2749631
1.178891,0.1282402,-0.2236559
1.175758,0.07187491,-0.07774051
1.169443,-0.007385529,0.1192091
1.178058,-0.003900411,0.0490322
1.162481,0.05337012,-0.2853629
1.153486,0.05902097,-0.5556247
1.150974,0.02892518,-0.6016457
1.09864,-0.1234959,-0.4913163
1.007783,-0.4067404,-0.4262957
0.9633607,-0.5365479,-0.3622763
1.015656,-0.3735503,-0.2646073
1.091371,-0.1240238,-0.2760291
1.144468,0.05096232,-0.2960749
1.163003,0.1491886,-0.3808815
1.122798,0.1520369,-0.4950377
1.056269,0.08831434,-0.4391605
0.9418857,-0.0285066,-0.3804722
0.8322251,-0.1322981,-0.2681038
0.817412,-0.1275966,-0.1404941
0.792647,-0.1267846,-0.1591228
0.7472816,-0.1241177,-0.1265027
0.7232051,-0.08832047,-0.09695742
0.6856182,-0.1044811,-0.09352018
0.6966659,-0.1034008,-0.06708763
0.7267604,-0.1021638,-0.06994241
0.7492645,-0.09724726,-0.02220785
0.8216149,-0.04876349,-0.03009353
0.9101908,-0.03972296,-0.06050755
1.021725,-0.04727033,-0.0539507
1.155659,-0.08927146,-0.1116749
1.289774,-0.1489922,-0.1051318
1.363089,-0.1234969,-0.04702359
1.303672,0.005795333,-0.02090183
1.287046,0.2088065,-0.0220964
1.379209,0.2603114,-0.1177782
1.40278,0.0093391,-0.2613898
1.305797,-0.3221034,-0.3916804
1.109355,-0.4393914,-0.4634936
0.9213991,-0.3445041,-0.4773076
0.8609514,-0.278655,-0.5003483
0.8810523,-0.1842413,-0.4893767
0.8971096,0.01657547,-0.4405737
0.9318496,-0.007119332,-0.3970791
1.062506,-0.2301136,-0.3650982
1.136041,-0.3698645,-0.3542602
1.038948,-0.443709,-0.3165524
0.9370954,-0.3414275,-0.2619848
0.8366376,-0.1411209,-0.242878
0.7402779,-0.06518066,-0.2411302
0.7259415,0.01618482,-0.2382201
0.723565,0.02473693,-0.2194687
0.7576486,-0.02969918,-0.2090839
0.8281995,0.01034297,-0.2253846
0.8464576,0.02335392,-0.2345196
0.830775,0.09250262,-0.2416973
0.8217688,0.1791514,-0.2385662
0.8391707,0.1628219,-0.2137014
0.8669151,0.1544039,-0.1970968
0.9144901,0.1111332,-0.2037602
0.9933355,0.09010078,-0.2454732
1.058115,0.1066395,-0.2969187
1.119326,0.09027036,-0.308345
1.171213,0.1256086,-0.2725617
1.202398,0.156094,-0.2004587
1.240011,0.147579,-0.1046924
1.251636,0.1288048,-0.05549107
1.232649,0.1087121,-0.1595677
1.222384,0.1076923,-0.367656
1.217106,0.02815312,-0.5137474
1.156747,-0.1646674,-0.5273435
1.015729,-0.3788726,-0.469693
0.9137529,-0.4810749,-0.4136731
0.9402026,-0.4341986,-0.3142058
1.04736,-0.3010638,-0.2572026
1.178157,-0.08331301,-0.3537362
1.240795,0.08584498,-0.4282969
1.175585,0.09112013,-0.4453919
1.063497,0.04635265,-0.432854
0.9294344,-0.01615035,-0.3256156
0.801,-0.1054968,-0.2428189
0.7893849,-0.1308585,-0.2042254
0.7906268,-0.1010325,-0.1671672
0.7366178,-0.09704422,-0.1384092
0.7445497,-0.09726039,-0.1202558
0.7529105,-0.08404105,-0.1484579
0.7273649,-0.08900653,-0.1181758
0.7250394,-0.0958107,-0.0757518
0.7224255,-0.1211355,-0.06152372
0.7272724,-0.1556252,0.02182262
0.7480981,-0.1198015,0.01319953
0.8284031,-0.04925558,-0.0436888
0.9629168,-0.02112387,-0.0515984
1.066051,-0.05056208,-0.1176506
1.200585,-0.1219947,-0.1431291
1.380125,-0.1559521,-0.1290419
1.414086,-0.08030833,-0.09210281
1.284482,0.102096,-0.014467
1.238559,0.2627965,-0.05832898
1.347349,0.2027384,-0.1741703
1.409401,-0.12022,-0.2890379
1.300478,-0.528079,-0.4036416
1.104498,-0.6548337,-0.4085045
0.8957759,-0.3777543,-0.4086127
0.6961924,-0.1108993,-0.4772705
0.7003506,0.004439189,-0.481924
0.8835001,0.1060349,-0.4328517
1.006291,-0.03689707,-0.3762145
1.138102,-0.3192331,-0.3427605
1.171969,-0.3837446,-0.330038
1.027715,-0.3476529,-0.2642951
0.9289204,-0.2502404,-0.2249913
0.8122743,-0.05954766,-0.2483623
0.7275324,0.05564463,-0.2434888
0.7450716,0.06923141,-0.2295484
0.7448285,0.02829025,-0.2236532
0.7958434,-0.01016564,-0.2165734
0.82461,-0.006535793,-0.2185749
0.8227783,0.02259563,-0.2178536
0.8643269,0.08236455,-0.218025
0.8811166,0.1242265,-0.218286
0.9387222,0.1334607,-0.2199966
0.9873055,0.1403067,-0.231373
1.004007,0.14992,-0.2463584
1.045643,0.1722641,-0.2560741
1.049697,0.1782975,-0.2627636
1.075788,0.1713994,-0.2650172
1.119687,0.176037,-0.2310078
1.147504,0.1595722,-0.1677574
1.207581,0.0888385,-0.08731224
1.252094,0.02155724,-0.02675115
1.220073,0.07074841,-0.1711175
1.130468,0.1186452,-0.4500214
1.080819,-0.0245061,-0.5230106
1.042513,-0.2355861,-0.4782545
0.993101,-0.3648672,-0.4872018
1.007757,-0.4122298,-0.3836917
1.010268,-0.3798851,-0.2496769
1.048938,-0.246231,-0.2736377
1.168686,0.007668129,-0.3520982
1.210894,0.165802,-0.4022803
1.162884,0.09139982,-0.4434617
1.069394,0.0249589,-0.4452568
0.9522184,-0.0297628,-0.3720222
0.8555657,-0.1392067,-0.27477
0.8169021,-0.1361934,-0.218516
0.8146807,-0.1064316,-0.1708581
0.7753822,-0.1217977,-0.09819566
0.7604131,-0.1005486,-0.08465435
0.7323162,-0.1067403,-0.1172255
0.6400976,-0.1234534,-0.06375492
0.6467395,-0.116569,-0.03564788
0.7083693,-0.1088684,-0.07390275
0.7602192,-0.05199404,-0.05122302
0.8595043,-0.0003721003,-0.05554517
0.9425394,-0.03634881,-0.08298143
1.114274,-0.1252622,-0.1257575
1.316422,-0.18978,-0.209234
1.289114,-0.1712363,-0.1615694
1.277299,-0.1117978,-0.04178529
1.341503,-0.01714771,0.01131748
1.262627,0.1859151,-0.01941828
1.294851,0.306653,-0.1494503
1.386311,0.1084135,-0.2690784
1.330369,-0.2250232,-0.3489669
1.22831,-0.451014,-0.382257
0.976187,-0.4751143,-0.3740749
0.7676558,-0.2511269,-0.4381794
0.7636626,0.001413165,-0.4976596
0.7833789,0.05879982,-0.4897943
0.9342514,-0.05379931,-0.4620482
1.122021,-0.2385204,-0.4019842
1.161806,-0.383399,-0.3510162
1.07982,-0.4167233,-0.2983461
0.9229148,-0.2989812,-0.2420982
0.8162018,-0.1294463,-0.2329047
0.7264521,-0.02198124,-0.2356152
0.7079419,0.0528744,-0.2369027
0.7702416,0.04573036,-0.2346625
0.7828419,0.01345449,-0.2313082
0.8337722,0.02802094,-0.2385715
0.8490564,0.03556774,-0.2390337
0.8227983,0.1050858,-0.2458387
0.8502612,0.1735633,-0.2477282
0.8550964,0.1572456,-0.2306887
0.9055897,0.1346344,-0.2180899
0.9596672,0.1199415,-0.2222163
0.9692566,0.1201788,-0.243138
1.045964,0.1124024,-0.281933
1.135954,0.09696344,-0.3213188
1.173361,0.1070968,-0.2621003
1.21639,0.0994025,-0.1135692
1.273212,0.05187721,-0.02222983
1.23887,0.01366892,-0.0329737
1.183039,0.06997327,-0.2046839
1.184348,0.1379193,-0.4428576
1.152963,0.08812836,-0.4750153
1.124834,-0.01884626,-0.4320627
1.034764,-0.1885057,-0.5131692
0.9302254,-0.3594998,-0.5180407
0.9701711,-0.3605524,-0.3746627
1.014829,-0.310345,-0.2515678
1.09864,-0.2554529,-0.2487924
1.243248,-0.04058272,-0.3581136
1.285249,0.1391853,-0.4478334
1.206644,0.09826319,-0.4553548
1.033068,0.03296415,-0.4331581
0.9079923,-0.01512487,-0.3555003
0.840018,-0.1325115,-0.2276753
0.765634,-0.177926,-0.1361298
0.7548273,-0.1290574,-0.109759
0.7343285,-0.1144707,-0.1028034
0.7114323,-0.07849804,-0.09965121
0.6955852,-0.04408177,-0.1010444
0.6617852,-0.07550227,-0.06698729
0.7040054,-0.06383196,-0.03744467
0.7741963,-0.03941396,-0.03630199
0.8499708,-0.04083157,-0.03802493
0.9377756,-0.03647282,-0.0643378
1.040796,-0.09422948,-0.08853734
1.218681,-0.1786571,-0.1165321
1.362702,-0.2158309,-0.1246821
1.401399,-0.158096,-0.05417479
1.337804,0.0226115,0.0006306479
1.267947,0.2189217,-0.03569898
1.344667,0.2442119,-0.1439616
1.393399,-0.01533085,-0.2935283
1.31993,-0.3359619,-0.4170776
1.200083,-0.422002,-0.4362195
0.9821997,-0.3248701,-0.4037625
0.8000645,-0.1840616,-0.4215998
0.7486901,-0.03790044,-0.4275444
0.800964,0.01848909,-0.4170519
0.9863557,-0.1359856,-0.4280692
1.133356,-0.3180198,-0.4039284
1.132342,-0.3334872,-0.3590297
1.02893,-0.299072,-0.2871264
0.866634,-0.2031421,-0.2215993
0.7774272,-0.04730716,-0.2235528
0.7449634,0.04323945,-0.233148
0.7307743,0.05400328,-0.236383
0.7836409,0.009314682,-0.2350907
0.8421257,-0.009266723,-0.2311166
0.8890922,-0.009422972,-0.2436738
0.8996419,0.02686886,-0.241662
0.8682741,0.1310487,-0.2266094
0.8603401,0.17438,-0.2057238
0.8605145,0.1679706,-0.1831927
0.8848632,0.1569113,-0.1598027
0.9393971,0.1333366,-0.1443668
0.9957194,0.1038682,-0.1738289
1.036422,0.07937524,-0.2058388
1.044343,0.1135983,-0.2220163
1.080181,0.1532118,-0.2370972
1.145887,0.175332,-0.2102644
1.204591,0.1340297,-0.1349032
1.247837,-0.00513138,-0.02886193
1.228759,-0.05001317,-0.01785489
1.187465,0.01682606,-0.2069962
1.157889,0.0435991,-0.4398922
1.092844,-0.06826863,-0.5264851
1.019531,-0.319407,-0.4579684
0.9715705,-0.4917722,-0.3816819
0.9755897,-0.4305033,-0.3113115
1.068076,-0.2154208,-0.1958613
1.165255,-0.0215446,-0.2169628
1.201674,0.07380667,-0.3263538
1.20228,0.1005476,-0.3803213
1.124638,0.04944442,-0.4305622
0.9755974,-0.05500029,-0.3509721
0.8607218,-0.1413096,-0.2149766
0.8056335,-0.1518608,-0.164182
0.7724155,-0.1295936,-0.1002511
0.7668214,-0.1281697,-0.1019296
0.7830788,-0.09671417,-0.1267663
0.7810296,-0.06540426,-0.09788683
0.7692143,-0.07367112,-0.09680575
0.7519753,-0.08270905,-0.05608935
0.7357192,-0.0639183,-0.0173064
0.7504713,-0.03298881,-0.02629457
0.7963871,-0.02818319,-0.02856552
0.888765,-0.0435464,-0.04814908
1.000933,-0.08897132,-0.05792225
1.17147,-0.1615788,-0.08817485
1.419303,-0.2336446,-0.1359972
1.45549,-0.1948545,-0.1137942
1.297193,0.04738789,-0.07142524
1.288669,0.2732347,-0.05606795
1.311524,0.2781531,-0.07568651
1.292084,0.1056872,-0.1813938
1.341951,-0.1560655,-0.3439286
1.284489,-0.3578985,-0.4181622
1.07862,-0.3045702,-0.3716898
0.795353,-0.133278,-0.3647635
0.6449319,-0.1210504,-0.4134195
0.7849584,-0.05181733,-0.4445596
0.8789156,0.04819621,-0.5063768
0.9901347,-0.1178821,-0.5141191
1.215295,-0.2999531,-0.4254792
1.175488,-0.374052,-0.3369301
1.032958,-0.3611103,-0.2113491
0.9223668,-0.2427172,-0.155162
0.740095,-0.1138336,-0.2241608
0.6907276,0.01971989,-0.2359673
0.718826,0.01038617,-0.2480811
0.736898,-0.02492383,-0.2834292
0.8031987,0.02961059,-0.26139
0.8451288,0.0006731863,-0.2595692
0.8716808,0.04718273,-0.2449194
0.8854029,0.1326951,-0.2078332
0.8879309,0.1344159,-0.1980035
0.8953521,0.1447976,-0.1777689
0.9015467,0.1064275,-0.1684671
0.9612225,0.07521862,-0.1828305
1.036243,0.07430714,-0.2162359
1.084962,0.07507512,-0.272638
1.117739,0.1088878,-0.2958697
1.128535,0.1326567,-0.2528982
1.148963,0.1519309,-0.1766788
1.178379,0.1115093,-0.0809535
1.20881,0.04525618,-0.005778109
1.216932,0.05005144,-0.09048606
1.201646,0.04121608,-0.3138346
1.190727,-0.02587342,-0.4995134
1.121992,-0.1779332,-0.568128
1.00975,-0.3589225,-0.501546
0.9375249,-0.4057495,-0.3859895
0.9314504,-0.3362366,-0.278493
1.025491,-0.2033817,-0.2296301
1.187641,-0.002342865,-0.3447621
1.266743,0.1124401,-0.4416646
1.172419,0.03014765,-0.4353091
1.052287,-0.04375519,-0.4227823
0.9821251,-0.05577991,-0.3302003
0.8512763,-0.1387456,-0.2292685
0.7681478,-0.1421428,-0.156495
0.7896212,-0.0829135,-0.09365268
0.7725482,-0.09447081,-0.1026343
0.7606335,-0.07528354,-0.09800419
0.7545732,-0.08384221,-0.0922117
0.7084069,-0.1131776,-0.08271147
0.7142221,-0.08712311,-0.03595772
0.7534878,-0.07187076,-0.02466768
0.7968156,-0.02817572,-0.01466306
0.8538051,0.007388224,-0.02747332
0.9209261,0.01169115,-0.07089253
1.051238,-0.0205036,-0.1062008
1.202259,-0.1521551,-0.1236824
1.333801,-0.2085155,-0.07109184
1.393885,-0.131125,-0.0212418
1.302525,0.02129907,-0.002937663
1.253434,0.2477733,-0.006858483
1.332994,0.2690785,-0.09791227
1.355263,-0.05351368,-0.2368953
1.304963,-0.4289457,-0.3682431
1.175014,-0.5435306,-0.4402251
0.9370257,-0.361629,-0.4772252
0.7537383,-0.1443204,-0.5314043
0.7530757,-0.05038265,-0.5246937
0.909127,-0.07486205,-0.442054
1.07435,-0.1929493,-0.3608368
1.101886,-0.3029833,-0.3574756
1.058086,-0.3908974,-0.3459923
1.014901,-0.3712007,-0.2437573
0.8979423,-0.2143401,-0.2237073
0.7972744,-0.0960991,-0.2539656
0.7837497,0.02041388,-0.2258987
0.745159,0.05415865,-0.2323092
0.748924,-0.01806151,-0.2250418
0.8024466,0.0154109,-0.2039718
0.8220924,0.02219685,-0.2174484
0.8576751,0.03597837,-0.2094007
0.8532277,0.1190305,-0.2032404
0.84424,0.1239046,-0.1880423
0.8865245,0.1492682,-0.1686778
0.9286543,0.1542921,-0.1842637
1.019253,0.1449889,-0.1986544
1.075594,0.1710675,-0.2187531
1.088563,0.1308662,-0.241122
1.148036,0.1238669,-0.2382595
1.163981,0.1441865,-0.1808975
1.177668,0.1410465,-0.05830537
1.23187,0.1245025,-0.0004770255
1.250824,0.07306056,-0.1083898
1.252485,0.03122175,-0.3119877
1.218966,-0.0734555,-0.4631758
1.147274,-0.1741756,-0.4537256
1.066416,-0.2114783,-0.3950156
0.9757868,-0.3345397,-0.3928587
0.9940047,-0.3811511,-0.3219692
1.130021,-0.2318343,-0.2559879
1.228315,-0.0795362,-0.3218565
1.283108,0.03086334,-0.37185
1.271212,0.07253167,-0.4063074
1.181464,0.02754843,-0.4225086
1.077946,0.01430694,-0.365832
0.9138127,-0.02137794,-0.3218841
0.7919722,-0.1061429,-0.1951197
0.7557749,-0.1236741,-0.07267692
0.708194,-0.1202454,-0.09864028
0.7205777,-0.1022332,-0.09211505
0.7223621,-0.05042866,-0.08438746
0.6840103,-0.04231919,-0.09848278
0.6895491,-0.05687493,-0.06094372
0.6992778,-0.07416773,-0.0444182
0.7623764,-0.08820163,-0.01807492
0.8471448,-0.07608397,-0.01130949
0.9061701,-0.06962164,-0.02798147
0.9928482,-0.09392432,-0.03057682
1.10554,-0.1732516,-0.1072802
1.245318,-0.2703978,-0.1606378
1.353931,-0.2536378,-0.08276446
1.410569,-0.04982348,-0.008695976
1.377309,0.2055452,-0.05012138
1.297534,0.3027436,-0.1203578
1.345986,0.2315975,-0.1889014
1.345754,-0.001118824,-0.3202595
1.17648,-0.3433994,-0.3658727
0.9426499,-0.4019343,-0.3372689
0.677638,-0.1272882,-0.4224104
0.633324,0.02541866,-0.500782
0.8534948,-0.001473443,-0.47403
1.108802,-0.139882,-0.4433085
1.269054,-0.3824764,-0.4407569
1.200272,-0.4463955,-0.3776611
1.03081,-0.3426342,-0.2622771
0.860816,-0.2298597,-0.2133128
0.6780499,-0.0681028,-0.2009986
0.6517943,0.05560353,-0.2013576
0.6817124,0.08414607,-0.2158126
0.7051995,0.06943054,-0.2109596
0.8172728,0.06022426,-0.224116
0.873305,0.05796943,-0.2345859
0.8755473,0.06576957,-0.2408143
0.8733774,0.134581,-0.2399847
0.8462258,0.1974903,-0.2122432
0.8565785,0.1831903,-0.2083545
0.8623812,0.1211692,-0.1889614
0.8804843,0.07490094,-0.1589661
0.944887,0.0712646,-0.1859537
1.054885,0.08281876,-0.2556102
1.237884,0.1189323,-0.3326485
1.31118,0.1627251,-0.3411557
1.247691,0.1789408,-0.2893675
1.236125,0.1434234,-0.2177163
1.199696,0.07480906,-0.1296793
1.150216,0.03583622,-0.18098
1.2273,0.002296699,-0.3839282
1.26103,-0.09489396,-0.5334802
1.136989,-0.281586,-0.5794502
0.9986785,-0.4096258,-0.5262809
0.9414975,-0.3695588,-0.3874902
0.9545624,-0.2764984,-0.2345042
0.9991012,-0.1692451,-0.1657824
1.07642,-0.09964075,-0.2414987
1.175227,-0.03229608,-0.3386205
1.256803,0.1061544,-0.4488335
1.221176,0.07107422,-0.5046264
0.9923686,-0.09050002,-0.3644266
0.792754,-0.1359998,-0.2771376
0.7784498,-0.1537069,-0.2479502
0.7982781,-0.1270523,-0.1550319
0.7623127,-0.07823684,-0.1073753
0.7429784,-0.08931373,-0.06673756
0.7591317,-0.07564288,-0.08872816
0.6967263,-0.09317602,-0.07999311
0.65634,-0.1091094,-0.01997657
0.7188825,-0.07360261,-0.0588071
0.752119,-0.06290806,-0.0238464
0.8278364,-0.01794486,-0.007963695
0.9120569,-0.001567892,-0.05414818
0.9623186,-0.0490863,-0.04854837
1.108688,-0.1109478,-0.1166601
1.285377,-0.2099993,-0.1100932
1.390177,-0.1926132,-0.01620598
1.357993,0.004151127,0.01370817
1.321061,0.2456815,-0.0269349
1.380641,0.2964851,-0.1761247
1.364988,-0.01242984,-0.3149256
1.317646,-0.3911815,-0.4208147
1.176799,-0.4984949,-0.4635191
0.8625817,-0.3533819,-0.4140671
0.6855088,-0.1557062,-0.4476389
0.7162789,-0.03223461,-0.4694637
0.8585272,-0.02690459,-0.4328782
1.082033,-0.1895479,-0.4391287
1.172415,-0.3336936,-0.4163256
1.082258,-0.3329229,-0.3565719
0.9866402,-0.3112443,-0.2571378
0.8776524,-0.2419206,-0.1954102
0.7381093,-0.09186786,-0.2231144
0.6780761,0.04717901,-0.2202788
0.6952387,0.04602796,-0.2313169
0.7652353,-0.01006597,-0.2711159
0.8469507,0.03811461,-0.2715493
0.8698965,0.03521259,-0.2732193
0.8865063,0.04129699,-0.2697849
0.8773197,0.1330517,-0.253919
0.8480001,0.1371121,-0.2272498
0.879669,0.1341122,-0.1957134
0.9188691,0.1255763,-0.2027583
0.9757273,0.08932034,-0.2365493
1.060211,0.09849589,-0.2732506
1.117476,0.0932638,-0.2813786
1.158948,0.1236289,-0.2565255
1.166628,0.1702137,-0.2285733
1.161003,0.1558034,-0.1669453
1.169568,0.09271091,-0.06633814
1.164897,0.02088346,0.01980837
1.165428,0.04229524,-0.01783998
1.164755,0.06430926,-0.2338081
1.141226,0.02048399,-0.4836645
1.112344,-0.01879858,-0.596582
1.065147,-0.2026183,-0.512408
1.002539,-0.4963111,-0.377837
0.9916463,-0.5586544,-0.3187457
1.035562,-0.3974595,-0.2507608
1.077867,-0.2412475,-0.2265026
1.133711,-0.03994595,-0.2793185
1.170711,0.1435207,-0.3607532
1.128091,0.1230657,-0.4315154
1.060627,0.02285814,-0.3773769
0.9622565,-0.09439373,-0.2925862
0.8377864,-0.1977895,-0.1887654
0.7765809,-0.1823991,-0.06909145
0.7408158,-0.1503512,-0.07439001
0.7142441,-0.09775987,-0.06510063
0.7119795,-0.02008565,-0.06108486
0.6941335,-0.01414232,-0.08884127
0.7042913,-0.01328758,-0.038086
0.7449091,-0.01062158,-0.02420502
0.8020038,-0.01070849,-0.01893344
0.8955291,-0.005342776,-0.02120747
0.9896682,-0.04902026,-0.06299864
1.120774,-0.1299217,-0.08773717
1.291832,-0.2334929,-0.1263346
1.394908,-0.2514404,-0.06988602
1.385254,-0.07826194,0.03235429
1.306179,0.1725242,0.02761828
1.267267,0.2647632,-0.04539614
1.319205,0.07838182,-0.2019468
1.358606,-0.2200948,-0.3712427
1.265257,-0.4246472,-0.443029
1.02683,-0.3999116,-0.442323
0.7696117,-0.1732648,-0.4440767
0.7097811,-0.009477646,-0.4747467
0.8670713,0.01123613,-0.4625127
1.000858,-0.06616054,-0.4442136
1.089818,-0.224352,-0.4303884
1.174555,-0.3765315,-0.3351981
1.083696,-0.4280763,-0.2453528
0.9233847,-0.2880154,-0.2172763
0.8274295,-0.1113024,-0.2057564
0.7335984,-0.01147498,-0.2200903
0.714016,0.07427262,-0.2471589
0.7311776,0.04478393,-0.2494614
0.7492938,-0.001079269,-0.231334
0.8200437,0.006329565,-0.2276739
0.8540693,-0.001416704,-0.2272438
0.8501416,0.07118677,-0.218973
0.8424874,0.136002,-0.21612
0.8342964,0.1536602,-0.2065219
0.8811747,0.1575064,-0.2116178
0.9597168,0.130205,-0.2300871
1.019721,0.1490865,-0.2414492
1.074098,0.1340003,-0.2564293
1.163496,0.1136979,-0.2695675
1.20819,0.1559006,-0.2731726
1.159529,0.1606601,-0.2254422
1.168603,0.1515677,-0.1099254
1.206898,0.1082711,-0.002581164
1.197529,0.03923915,-0.009942023
1.211919,0.02134417,-0.1795797
1.192297,0.01525386,-0.4167855
1.126534,-0.05971672,-0.5692792
1.05031,-0.2589287,-0.5611688
0.9840613,-0.4399163,-0.4699916
0.9957172,-0.4610592,-0.3641602
1.022309,-0.3381349,-0.2505724
1.081409,-0.1143163,-0.2734708
1.187226,0.06686312,-0.3984427
1.195192,0.1176396,-0.4524124
1.108729,0.06161331,-0.4588929
0.9702809,-0.03648191,-0.3948278
0.8388352,-0.12102,-0.2870551
0.782515,-0.1829725,-0.1892265
0.7517259,-0.1617384,-0.09744632
0.7441036,-0.1287249,-0.09802842
0.7493846,-0.1318325,-0.109137
0.7443364,-0.09964247,-0.09110974
0.7395845,-0.1064517,-0.1030818
0.7297468,-0.1105256,-0.07538523
0.7411588,-0.07892715,-0.05608308
0.7721202,-0.07879243,-0.05699391
0.8308954,-0.04858272,-0.05262584
0.9287432,-0.05050249,-0.07976671
1.037317,-0.1098199,-0.1032646
1.173251,-0.1617689,-0.1292595
1.314245,-0.1997408,-0.1095302
1.362392,-0.1324243,-0.03556024
1.295315,0.01095921,-0.002704508
1.247098,0.1200383,-0.03672163
1.285002,0.09654155,-0.1621043
1.316127,-0.1154583,-0.315391
1.316321,-0.3449251,-0.4079106
1.216694,-0.4074198,-0.4317293
0.9548335,-0.2315282,-0.4274872
0.7259853,0.003827674,-0.4678691
0.6923129,0.04191791,-0.5060357
0.8595815,-0.05406771,-0.5317654
1.122997,-0.2269812,-0.5519364
1.252463,-0.4078287,-0.4719665
1.19813,-0.4309831,-0.3363176
1.065184,-0.3078962,-0.2262605
0.8834283,-0.1312312,-0.1875911
0.7269099,-0.01342936,-0.2207969
0.6771834,0.03619052,-0.2235595
0.6697346,0.04899733,-0.2205252
0.6619741,0.01923684,-0.24603
0.7294445,-0.01310626,-0.2439971
0.8293793,-0.05964041,-0.2507678
0.8530644,-0.02329362,-0.2704874
0.8418614,0.08764891,-0.260675
0.8531196,0.1291702,-0.2496779
0.8779632,0.1650742,-0.2372351
0.9169197,0.1687598,-0.2114135
0.9782695,0.1345105,-0.211442
1.032039,0.1311442,-0.2334755
1.050012,0.09345382,-0.2480857
1.052809,0.08057196,-0.2526227
1.062701,0.09593321,-0.2386236
1.115591,0.07779725,-0.192103
1.203893,0.06437578,-0.08773594
1.251697,0.01310271,0.02282336
1.240993,-0.02965777,0.02016448
1.209073,-0.004414037,-0.1320304
1.175679,-0.0009985229,-0.4041661
1.127688,-0.04683039,-0.6307557
1.064067,-0.16807,-0.6187758
1.009143,-0.3583882,-0.4565963
0.9865197,-0.4305373,-0.2893189
0.99849,-0.3144615,-0.1951364
1.037482,-0.1312213,-0.2653058
1.126202,0.08826864,-0.3770573
1.17938,0.2015532,-0.448104
1.095775,0.07784194,-0.5058855
0.9725939,-0.04090648,-0.3928059
0.8805343,-0.1071942,-0.2227266
0.8160041,-0.2079872,-0.1793049
0.7877002,-0.2027102,-0.1055109
0.7741078,-0.1572783,-0.08237473
0.7807756,-0.1041748,-0.1655916
0.774911,-0.02272452,-0.1783616
0.7518281,-0.02967726,-0.1743348
0.7594533,-0.04060627,-0.1483961
0.7706539,-0.04865178,-0.07925853
0.7963961,-0.07583432,-0.0685821
0.8424071,-0.04224094,-0.07202956
0.8831039,-0.02251992,-0.07000738
0.9366965,-0.02608908,-0.0760078
1.02083,-0.0632249,-0.08146137
1.180555,-0.1565977,-0.1112648
1.30236,-0.1999391,-0.1199441
1.25898,-0.123186,-0.08132264
1.222313,0.0700491,-0.04438815
1.257584,0.2635603,-0.07350515
1.29855,0.2899559,-0.1720443
1.371855,0.02885087,-0.3002364
1.352082,-0.3497723,-0.4251721
1.166209,-0.4561186,-0.4579154
0.919419,-0.3222668,-0.4272515
0.7048129,-0.169493,-0.4176552
0.6747114,-0.008135887,-0.3817038
0.8249205,0.02689019,-0.3571496
1.012685,-0.1614692,-0.3996318
1.168608,-0.3523435,-0.4283308
1.166036,-0.3954698,-0.3747941
1.033458,-0.3354337,-0.2850381
0.899232,-0.1974401,-0.2272812
0.7910871,-0.03720581,-0.1999616
0.7768115,0.08942266,-0.2267668
0.7962414,0.1288192,-0.2657467
0.7941225,0.08862242,-0.2488091
0.8357473,0.04407597,-0.2450912
0.8709436,-0.02970569,-0.2501342
0.8630216,-0.03886413,-0.2403435
0.8544407,0.02960001,-0.2498825
0.8806607,0.0625096,-0.248291
0.908348,0.1240436,-0.2466041
0.9296197,0.1183918,-0.2426649
1.004113,0.06144266,-0.2192879
1.048324,0.08779497,-0.2145641
1.035605,0.07426235,-0.2111405
1.052567,0.0694521,-0.2055693
1.060586,0.1068288,-0.2286075
1.055228,0.1259897,-0.2493063
1.15402,0.07077174,-0.3333826
1.119504,0.07226069,-0.3359968
1.0269,-0.02998521,-0.3384025
0.9783792,-0.04168623,-0.3105264
0.8729122,-0.0902753,-0.2111078
0.7424527,-0.1777156,-0.08528327
0.7443981,-0.1111896,-0.09147705
0.7854545,-0.08211953,-0.1462887
0.7521252,-0.09023724,-0.1115362
0.7251877,-0.05945889,-0.1227631
0.7245961,-0.07949501,-0.1210513
0.7061785,-0.1010289,-0.0379459
0.7508525,-0.1086703,-0.0202692
0.8289255,-0.09461556,-0.01059303
0.893765,-0.0780295,-0.0143474
1.003013,-0.07856645,-0.07430854
1.115659,-0.09154471,-0.1149501
1.256257,-0.1449824,-0.1511028
1.370304,-0.15009,-0.1178549
1.355496,-0.05324754,-0.0661167
1.3098,0.1126804,-0.07983859
1.284745,0.2083776,-0.06895934
1.32521,0.1039196,-0.1418008
1.365412,-0.1264701,-0.306145
1.244799,-0.4207853,-0.369862
1.048626,-0.5440008,-0.3761034
0.8735934,-0.3335598,-0.4197047
0.7544595,-0.1071547,-0.4907563
0.7630468,-0.002040139,-0.5366258
0.9030791,0.01146538,-0.5053448
1.060577,-0.1168828,-0.4523533
1.070414,-0.2548296,-0.392433
1.007145,-0.376173,-0.265397
0.9817613,-0.4073727,-0.1755096
0.8728444,-0.2643723,-0.2023712
0.7421106,-0.14903,-0.2237618
0.7258359,-0.04159,-0.2247317
0.7316596,0.0410018,-0.2512379
0.7508626,0.01502257,-0.2521315
0.8086207,0.03674649,-0.2457608
0.8398542,0.04454865,-0.2527207
0.8547404,0.06411263,-0.2486317
0.8661247,0.1483536,-0.2443972
0.8866181,0.1573147,-0.2307807
0.9239828,0.1547928,-0.2079224
0.9578224,0.1430371,-0.2017364
1.008811,0.1203411,-0.2102746
1.051667,0.1273242,-0.2226994
1.070079,0.1199911,-0.2432584
1.091424,0.1433522,-0.2650469
1.121161,0.1516876,-0.2439344
1.189731,0.1071076,-0.1407389
1.248186,0.02698158,0.007593439
1.224034,-0.03474203,0.03509685
1.187608,0.02844362,-0.1813956
1.175236,0.06212486,-0.4591298
1.133098,-0.07489885,-0.5743615
1.066357,-0.2754997,-0.5643382
1.001432,-0.4085708,-0.4726507
0.9730073,-0.3901324,-0.3118595
1.016167,-0.2512163,-0.2316157
1.097754,-0.06764733,-0.2717046
1.18672,0.06419308,-0.3401426
1.209017,0.06761037,-0.4390582
1.107206,0.01920629,-0.4792049
0.9944099,-0.02725266,-0.3782852
0.9061662,-0.1005567,-0.2811197
0.7908132,-0.163465,-0.2048596
0.7277064,-0.1678208,-0.1049878
0.7442017,-0.1313458,-0.08702996
0.7400895,-0.09703197,-0.1057709
0.7039633,-0.07368885,-0.09360653
0.7053083,-0.06142163,-0.1081356
0.7258373,-0.0730186,-0.0981734
0.7550702,-0.07484003,-0.05679855
0.8262649,-0.05455279,-0.05982261
0.9021573,-0.04241236,-0.05735485
0.9718655,-0.04216567,-0.04657022
1.056719,-0.06625444,-0.06118812
1.165762,-0.09858288,-0.05404976
1.266019,-0.09967713,-0.04324707
1.277208,-0.04952993,-0.02431169
1.253299,0.05105548,0.01161743
1.271987,0.1127026,-0.004778469
1.31041,0.04701934,-0.1022235
1.361482,-0.1411969,-0.2975264
1.349033,-0.3488396,-0.4577354
1.185327,-0.3996535,-0.423456
0.9629656,-0.3198975,-0.3769325
0.8207053,-0.2202046,-0.4208668
0.7681018,-0.0329094,-0.4101321
0.8293905,0.04634061,-0.4047888
1.028985,-0.1648228,-0.4440677
1.191609,-0.3643818,-0.433402
1.195507,-0.4283704,-0.4020719
1.069077,-0.3733943,-0.3171643
0.8716211,-0.2120144,-0.2064122
0.746403,-0.1102089,-0.1932563
0.6983909,-0.002919129,-0.2144328
0.6896992,0.03710352,-0.2229942
0.7689886,-0.04433183,-0.2393149
0.8368884,-0.03251406,-0.2582759
0.8342547,-0.03236432,-0.2622642
0.8195036,-0.03270554,-0.2418384
0.8223557,0.05804221,-0.2423095
0.8378284,0.1268746,-0.2234219
0.8754718,0.1597499,-0.1909719
0.9610691,0.1187219,-0.1973779
0.9966164,0.1081499,-0.1932873
1.00208,0.1421669,-0.2088008
1.081524,0.1227362,-0.2421887
1.115056,0.1581968,-0.2588713
1.099857,0.1977455,-0.258721
1.143235,0.1988461,-0.174396
1.209052,0.1295248,-0.03660241
1.251062,-0.02303632,0.02419661
1.24199,-0.04198781,-0.08952262
1.199095,0.005879345,-0.2940888
1.135299,-0.02117024,-0.4565879
1.060986,-0.0990267,-0.5794785
1.063301,-0.2805029,-0.5528109
1.092798,-0.4422965,-0.4116157
1.065377,-0.4238307,-0.3317818
1.072323,-0.25774,-0.2814664
1.118756,-0.02811808,-0.3108049
1.160926,0.1432272,-0.380067
1.185862,0.1618049,-0.4008158
1.09757,0.07456719,-0.4222483
0.9485637,-0.03717069,-0.3159796
0.8356017,-0.1477505,-0.1539796
0.7388187,-0.1836747,-0.09868362
0.6996145,-0.1440118,-0.08157933
0.7086115,-0.1071394,-0.1114324
0.7264766,-0.0529433,-0.1217642
0.7579279,-0.02634256,-0.09458285
0.7716217,-0.06596223,-0.0815238
0.7784718,-0.08680797,-0.03809549
0.8050611,-0.08757807,-0.03086133
0.8563606,-0.08266815,-0.03982406
0.9138665,-0.06752413,-0.02498426
0.9625616,-0.09929259,-0.03117636
1.053831,-0.1536764,-0.03162036
1.179721,-0.172338,-0.04075267
1.273945,-0.1569975,-0.04401277
1.320211,-0.08268181,-0.02217724
1.315412,0.0151254,-0.02149768
1.322275,0.01805836,-0.09851478
1.405256,-0.09114825,-0.2558253
1.435259,-0.2040463,-0.3558134
1.302496,-0.2314566,-0.3484236
1.073106,-0.1888433,-0.3102329
0.8268344,-0.09816087,-0.2894013
0.6934317,0.0287916,-0.3292692
0.7360797,0.05730041,-0.409802
0.8931328,-0.09063362,-0.4909418
1.118265,-0.2629295,-0.5243486
1.219849,-0.3434832,-0.4345685
1.113203,-0.3301412,-0.2926756
0.9819967,-0.2331177,-0.2188405
0.8247744,-0.1101908,-0.1932607
0.6736113,-0.01489593,-0.1934135
0.6897921,-0.007475837,-0.2080495
0.742344,-0.05130611,-0.1954058
0.7810861,-0.04445127,-0.1941828
0.8784075,-0.02977516,-0.2104389
0.891736,0.01194692,-0.2154028
0.8442341,0.09177482,-0.2304208
0.8349144,0.1226671,-0.2179268
0.8391708,0.1400123,-0.1943328
0.9016764,0.1535522,-0.2032923
0.9884311,0.1455983,-0.2061103
1.055638,0.1400297,-0.2165222
1.103749,0.1389435,-0.2433248
1.098935,0.1518058,-0.2706674
1.090941,0.1684909,-0.2791262
1.147116,0.1613064,-0.2269205
1.287414,0.0546949,-0.146583
1.399476,-0.07258054,-0.128147
1.329787,-0.04525254,-0.2751885
1.182709,-0.04022969,-0.4813314
1.076977,-0.2088626,-0.5130438
0.9516711,-0.371244,-0.4717342
0.8835259,-0.4418458,-0.4259347
0.9259295,-0.4267095,-0.3031279
0.9912539,-0.3126561,-0.2701499
1.149977,-0.1466219,-0.2720878
1.281748,-0.01715811,-0.2369737
1.214823,-0.0005242182,-0.3546268
1.160826,0.01528481,-0.4453287
1.080714,0.03161772,-0.3944957
0.8456903,-0.08927751,-0.3492101
0.7245125,-0.1417242,-0.2600992
0.7468923,-0.09757695,-0.1768902
0.715916,-0.1127608,-0.1163757
0.6976327,-0.09040771,-0.06199321
0.7166877,-0.09919757,-0.08749616
0.685291,-0.1363049,-0.0748812
0.6774314,-0.1210794,-0.03395067
0.7105237,-0.1171759,-0.04388402
0.7498341,-0.06630124,-0.04008374
0.8429288,-0.0296237,-0.03996497
0.9492982,-0.0482028,-0.04303336
1.07469,-0.06781968,-0.05213038
1.239054,-0.1016561,-0.06182078
1.329006,-0.07028686,-0.01274904
1.312032,-0.0112392,0.03408566
1.300586,0.06568888,-0.001780493
1.383464,0.1576462,-0.1211639
1.48856,0.02128559,-0.3008139
1.492538,-0.2605155,-0.4475615
1.302269,-0.3428428,-0.4723537
0.9645633,-0.2400612,-0.4706383
0.7501907,-0.118013,-0.5045202
0.7270874,-0.03504188,-0.4704136
0.7814452,-0.06243143,-0.4033647
0.9260202,-0.2020136,-0.3794288
1.093872,-0.3598961,-0.3787614
1.127239,-0.4240954,-0.3623444
0.9792133,-0.3127897,-0.2683554
0.8261522,-0.174218,-0.1906871
0.7805802,-0.1153992,-0.2043896
0.7220142,-0.02873252,-0.2093659
0.703035,-0.002599991,-0.2047693
0.7715868,-0.0607353,-0.2184912
0.8093199,-0.048773,-0.2218606
0.8233708,-0.02203409,-0.2277584
0.8139792,0.0209035,-0.2405276
0.7985555,0.1104987,-0.2313979
0.8387942,0.1352735,-0.2040306
0.9032529,0.1258577,-0.1932455
0.9950145,0.1289064,-0.1922861
1.082734,0.1304722,-0.2082096
1.097351,0.1486197,-0.2524103
1.076083,0.1753285,-0.2871066
1.069073,0.220616,-0.2839759
1.100608,0.2456882,-0.213434
1.174719,0.2059328,-0.1042144
1.271436,0.1435008,-0.03279897
1.321219,0.05281101,-0.04869356
1.247624,-0.05051791,-0.2260149
1.13452,-0.06108844,-0.4846123
1.048376,-0.1035324,-0.5570074
0.9821794,-0.3198257,-0.4478441
1.020764,-0.4123658,-0.3603549
1.103611,-0.3111609,-0.2752929
1.144174,-0.2167484,-0.2502766
1.197454,-0.0151217,-0.3381138
1.182469,0.14627,-0.3661953
1.080083,0.1042698,-0.398185
0.9565011,0.04334511,-0.4071404
0.8047304,-0.07189117,-0.2739938
0.7348644,-0.1720152,-0.1768572
0.7313494,-0.1563766,-0.1051097
0.7116459,-0.1421605,-0.08225647
0.7435213,-0.1024638,-0.1404362
0.7657921,-0.08081147,-0.1224096
0.7554466,-0.1035065,-0.1205724
0.7672004,-0.09769835,-0.1070182
0.78637,-0.1080817,-0.04836777
0.8517255,-0.1138684,-0.04676989
0.9362639,-0.1100108,-0.02293772
1.012537,-0.1249517,-0.02520097
1.104807,-0.1274504,-0.06366103
1.18733,-0.1222498,-0.1087765
1.251432,-0.1017429,-0.1533837
1.282361,-0.04738479,-0.08425415
1.306013,0.05866192,-0.03475686
1.361553,0.1278441,-0.1006751
1.4281,0.02728861,-0.1931335
1.435197,-0.167473,-0.3122395
1.273598,-0.3300557,-0.4164691
1.014509,-0.3538768,-0.4605806
0.8570038,-0.211952,-0.4644042
0.8189032,-0.0512173,-0.4682393
0.8194905,0.03126279,-0.4655467
0.9034371,-0.07951039,-0.4292992
1.063547,-0.3308125,-0.3663096
1.100593,-0.4302438,-0.2800448
1.014377,-0.4041352,-0.2355852
0.9426798,-0.3306192,-0.2295479
0.8402064,-0.1692579,-0.2198666
0.7463275,-0.04645248,-0.2482263
0.7363206,-0.01179886,-0.2584418
0.7590903,-0.04284881,-0.2281579
0.7972975,-0.06287049,-0.2105644
0.8312711,-0.04016124,-0.1972403
0.8640579,-0.02094951,-0.2134762
0.9045172,0.06891042,-0.2354776
0.899077,0.1278564,-0.229769
0.8738122,0.1246404,-0.218831
0.880771,0.1733834,-0.1787392
0.8969463,0.1489608,-0.1415452
0.9469765,0.09861323,-0.1497394
1.048579,0.1273599,-0.1953027
1.105313,0.1404066,-0.2642716
1.096633,0.1656946,-0.2822988
1.105503,0.2083174,-0.2183883
1.155847,0.1744242,-0.1103665
1.241476,0.07865075,-0.04903746
1.321889,-0.0196755,-0.1641241
1.333428,-0.1075656,-0.3551641
1.248821,-0.1981401,-0.4296191
1.075932,-0.3081718,-0.4596209
0.9243916,-0.3612685,-0.4854528
0.9126374,-0.3080111,-0.3958682
1.009595,-0.2201649,-0.283418
1.137182,-0.0780821,-0.2849771
1.241727,0.04702879,-0.3517769
1.239879,0.0411525,-0.4236856
1.141718,0.01892832,-0.4669029
1.050772,0.0009693867,-0.4361966
0.9185157,-0.05708081,-0.3252716
0.7468322,-0.1018552,-0.2115786
0.7305862,-0.1009975,-0.1855662
0.771874,-0.06744243,-0.1750558
0.6941667,-0.07576285,-0.1040784
0.6930735,-0.09025705,-0.0954057
0.7446376,-0.09581568,-0.1105122
0.693047,-0.1389397,-0.0255628
0.7032371,-0.1270405,-0.004288576
0.7356983,-0.09929633,-0.03710209
0.7595301,-0.07395668,-0.02229825
0.8682442,-0.006804801,-0.05882726
0.9617505,-0.05129044,-0.08146043
1.199713,-0.1826302,-0.1168222
1.447155,-0.2541569,-0.1760699
1.344946,-0.2346052,-0.07931312
1.276955,-0.1265922,0.04689342
1.325228,0.02369296,0.06295631
1.236742,0.1646868,-0.02583988
1.325957,0.1131781,-0.2308951
1.461817,-0.1413121,-0.4240066
1.272345,-0.3467369,-0.4902248
1.027765,-0.4042482,-0.4457767
0.8339989,-0.2216105,-0.4339721
0.6907532,0.0157186,-0.4788333
0.7764951,0.01693289,-0.4586735
0.9574092,-0.09735587,-0.4310542
1.151314,-0.2937005,-0.3964744
1.248724,-0.4517586,-0.3298621
1.065884,-0.4314592,-0.2930894
0.8824635,-0.364112,-0.2321119
0.7806956,-0.1964277,-0.1907669
0.6427856,-0.02000516,-0.1969519
0.6787246,0.02030603,-0.1949983
0.8081242,0.03943873,-0.2263166
0.8546846,0.04706114,-0.250987
0.8855752,0.03153948,-0.2626086
0.8638454,0.03599186,-0.2759084
0.836694,0.08355402,-0.2307378
0.8348566,0.1412275,-0.1787623
0.8151532,0.1686787,-0.1616819
0.8562176,0.1625282,-0.1681131
0.9129705,0.1292755,-0.1965577
0.9790773,0.1105699,-0.2364345
1.079782,0.09029998,-0.2749976
1.112694,0.1067365,-0.2757594
1.125557,0.1597116,-0.2414202
1.160299,0.1556528,-0.1738619
1.210236,0.09382229,-0.1287671
1.274498,-0.02062563,-0.2140688
1.302338,-0.09275296,-0.3789108
1.326637,-0.1606152,-0.4981111
1.248483,-0.3395889,-0.4938424
1.039391,-0.4432436,-0.4217983
0.923181,-0.4079771,-0.3757901
0.9416089,-0.282883,-0.3108834
1.065474,-0.07225723,-0.290963
1.245102,0.0624137,-0.3715039
1.296538,0.06227572,-0.4479083
1.197991,0.01390602,-0.5091388
1.071498,-0.03715653,-0.5023572
0.9118556,-0.09986376,-0.4000091
0.6873465,-0.1653599,-0.2777951
0.5806185,-0.1661428,-0.1521676
0.6529013,-0.1155458,-0.1092578
0.7047165,-0.07514577,-0.1090758
0.7260031,-0.05874612,-0.08085853
0.7354941,-0.07596193,-0.1059794
0.7017953,-0.1010572,-0.09605871
0.7224133,-0.09703264,-0.06269919
0.7687741,-0.08652177,-0.074197
0.8574826,-0.07405348,-0.03963992
1.010113,-0.05063282,-0.02648633
1.062401,-0.06607473,-0.05968218
1.142039,-0.1407896,-0.1136808
1.335716,-0.2233777,-0.1539601
1.380651,-0.1884075,-0.05072293
1.338981,0.02358404,0.03979098
1.378543,0.2032011,-0.06576724
1.416789,0.1720614,-0.2352695
1.43443,0.04297554,-0.3411003
1.325487,-0.1764955,-0.4250941
1.06729,-0.4772975,-0.5268402
0.9307863,-0.41637,-0.5344405
0.8814797,-0.06952137,-0.4694109
0.7620462,-0.001689807,-0.4585476
0.7881834,-0.05137537,-0.4203838
0.9949172,-0.1481178,-0.3859293
1.135423,-0.377254,-0.4136805
1.143438,-0.4373182,-0.3750039
1.006206,-0.3615632,-0.3208334
0.7881033,-0.1935291,-0.2532649
0.6923457,-0.04867458,-0.1648572
0.7167706,-0.02466633,-0.2041
0.731204,0.07251206,-0.2171711
0.7483546,0.06171372,-0.1982235
0.8128032,0.002672518,-0.2671277
0.8355924,0.06048728,-0.256483
0.815446,0.05657362,-0.2493859
0.8487939,0.0743159,-0.259941
0.8445926,0.1256323,-0.1830596
0.8446778,0.1308925,-0.1634408
0.9178844,0.1252965,-0.1730361
0.9797553,0.1271486,-0.1838222
1.082156,0.1415413,-0.2255542
1.112301,0.1493933,-0.2401427
1.083193,0.1953519,-0.2653061
1.144832,0.228058,-0.2510971
1.166324,0.1921123,-0.1515094
1.220495,0.09543128,-0.07706326
1.287254,-0.05749585,-0.1468875
1.24139,-0.1429072,-0.3574501
1.210399,-0.1988677,-0.5154478
1.121893,-0.3323694,-0.5033906
1.000403,-0.4087228,-0.4263574
0.9794274,-0.3539174,-0.3793717
0.9861385,-0.2285548,-0.3287762
1.06736,-0.04410126,-0.3143444
1.217171,0.08762336,-0.3839698
1.267263,0.06628762,-0.4261655
1.180976,0.01877039,-0.4502957
1.052304,-0.02492745,-0.4324061
0.945622,-0.07907229,-0.3377675
0.8439347,-0.08032705,-0.2817331
0.7445539,-0.1020232,-0.1810097
0.7158987,-0.09769264,-0.1274238
0.7501052,-0.04120228,-0.1752044
0.724583,-0.06169418,-0.1110386
0.6972287,-0.08701387,-0.08667524
0.716848,-0.1005038,-0.07834972
0.6852089,-0.1305387,0.002269193
0.7054681,-0.08568923,-0.0152598
0.7846669,-0.03033459,-0.008866401
0.8775993,-0.02009853,-0.009910049
1.036302,-0.04389797,-0.07267713
1.166154,-0.1149439,-0.07108059
1.311563,-0.1589675,-0.06245313
1.389697,-0.1227888,-0.003800697
1.292588,0.001311971,0.0472094
1.291879,0.1286507,-0.02991593
1.428827,0.08268497,-0.191892
1.51316,-0.1333161,-0.404341
1.388923,-0.3446448,-0.4947945
1.089197,-0.3706375,-0.4560352
0.8515622,-0.197634,-0.4659566
0.7310283,-0.05295738,-0.4705344
0.7837178,-0.06154253,-0.4193564
0.9543702,-0.1662799,-0.390577
1.088599,-0.3118764,-0.3949148
1.163229,-0.3730285,-0.3662622
1.041606,-0.3198021,-0.2867355
0.8681727,-0.2422152,-0.2050157
0.7944563,-0.1259295,-0.1711255
0.6931921,-0.04281328,-0.1844062
0.6940038,-0.04122687,-0.1992141
0.7605586,-0.001574395,-0.2179395
0.8027103,0.008096806,-0.2385965
0.8765553,-0.03442014,-0.2410159
0.8575912,0.03774442,-0.2379617
0.8277154,0.1226565,-0.2178037
0.8428335,0.1167173,-0.1813532
0.86205,0.1158616,-0.1617882
0.960079,0.1061968,-0.1745047
1.033272,0.1017886,-0.1952267
1.063132,0.1202535,-0.2066232
1.075702,0.13596,-0.2285598
1.045736,0.1888967,-0.2424171
1.049721,0.2336071,-0.2354715
1.070687,0.2200474,-0.2068426
1.146917,0.1202348,-0.09757367
1.266676,-0.0230872,0.02286877
1.275071,-0.05769173,-0.05460737
1.228371,-0.05612264,-0.3219822
1.200142,-0.1461777,-0.5279047
1.134258,-0.2255787,-0.5188211
1.044535,-0.2623724,-0.4298346
0.951767,-0.3344274,-0.4142749
0.9223378,-0.3275103,-0.3649686
1.067355,-0.1612716,-0.3314868
1.266224,0.01577335,-0.3984569
1.331151,0.1086789,-0.3646557
1.215308,0.04983488,-0.3463324
0.962775,-0.06982885,-0.3909288
0.8032161,-0.08675849,-0.3265581
0.8023353,-0.09999976,-0.2890734
0.7622766,-0.09823967,-0.2016723
0.7136772,-0.07227254,-0.1028369
0.7560525,-0.07978194,-0.1239547
0.7731396,-0.05982126,-0.07875156
0.7322427,-0.09856571,-0.07677346
0.7277287,-0.1450834,-0.0937494
0.7073726,-0.1381597,-0.02904025
0.6946278,-0.1343097,-0.02532169
0.7701407,-0.06481485,-0.006916672
0.8489059,-0.01807758,-0.00849214
0.9560863,-0.02715772,-0.0523035
1.115708,-0.08770398,-0.08642024
1.30375,-0.2160812,-0.1427812
1.422442,-0.2158289,-0.09147327
1.354211,-0.05544099,-0.01673202
1.342081,0.1227054,-0.04183584
1.400084,0.1265939,-0.1114157
1.394795,-0.07489709,-0.2867864
1.40239,-0.2517419,-0.446969
1.160542,-0.3344514,-0.4556571
0.7872053,-0.2996678,-0.4671366
0.7281188,-0.1580647,-0.5007997
0.772692,-0.042577,-0.4554852
0.8579121,-0.06274403,-0.4177824
1.135451,-0.2300247,-0.4180624
1.238583,-0.3640878,-0.3905327
1.102173,-0.4005693,-0.3528276
1.014352,-0.3220717,-0.2726882
0.8515628,-0.1473199,-0.2052418
0.6883524,-0.04773443,-0.2212386
0.7048293,0.02774577,-0.2206365
0.7043834,0.03856337,-0.2206327
0.7337507,-0.02781064,-0.2411286
0.8250669,-0.01360174,-0.2449961
0.8438202,-0.01418512,-0.2647363
0.8552527,0.02203026,-0.2637721
0.8426436,0.1070256,-0.2320212
0.8291639,0.1218446,-0.1845982
0.8558234,0.1405187,-0.1521586
0.8861306,0.1403869,-0.1825164
0.981237,0.1527214,-0.2267012
1.090578,0.1742498,-0.2748564
1.147617,0.1595472,-0.3041419
1.164726,0.1880392,-0.2549674
1.180247,0.1793803,-0.1534568
1.245784,0.1137347,-0.03435498
1.267089,0.06546245,-0.02217523
1.227789,0.06427436,-0.2048784
1.207578,0.06202279,-0.4051257
1.152208,-0.08965254,-0.4929631
1.058231,-0.2917847,-0.5362215
1.009389,-0.4177711,-0.5237695
1.009292,-0.4793279,-0.3800666
1.031518,-0.3913845,-0.2299828
1.106351,-0.1844482,-0.2503444
1.197663,0.00473237,-0.3432648
1.2103,0.1029626,-0.3980324
1.139306,0.09074772,-0.4508086
1.005748,0.0125699,-0.4289519
0.8584864,-0.08234186,-0.3332101
0.7675277,-0.1523416,-0.2416464
0.7355879,-0.1580687,-0.1388489
0.7386292,-0.1295773,-0.1012484
0.7489381,-0.1207848,-0.1062072
0.7515479,-0.1164853,-0.07732547
0.7336614,-0.1150615,-0.08631937
0.7096736,-0.1185153,-0.08245417
0.7224363,-0.09586522,-0.06258647
0.7652534,-0.04687987,-0.07939746
0.8287747,0.01716024,-0.06658445
0.8902154,0.01359275,-0.06495004
0.9728302,-0.0807533,-0.09891058
1.132301,-0.1701864,-0.1511398
1.233364,-0.2195434,-0.1946331
1.265883,-0.1684625,-0.1321543
1.375268,-0.02339442,-0.02294759
1.385006,0.09127971,0.01429271
1.311572,0.1239626,-0.07147588
1.382162,0.07452614,-0.2534779
1.395258,-0.09400697,-0.4042845
1.291113,-0.3164076,-0.4754778
1.090275,-0.292565,-0.4810781
0.7808748,-0.1573839,-0.4865979
0.7282268,-0.185902,-0.5103372
0.7701126,-0.08376269,-0.4724533
0.7884604,-0.07696959,-0.4562167
1.109414,-0.3060679,-0.4649211
1.23306,-0.333049,-0.4036359
1.079789,-0.3607434,-0.3391089
1.051655,-0.3314604,-0.2576649
0.8580839,-0.1520264,-0.1961862
0.6914985,-0.1081399,-0.2132343
0.7157289,-0.003951417,-0.2159876
0.6880289,0.02765563,-0.2261899
0.7705925,-0.02832162,-0.2379317
0.8577774,0.03858549,-0.2243827
0.8472112,0.04239107,-0.2304791
0.8284114,0.1081022,-0.214579
0.7628648,0.1697514,-0.1818892
0.7636611,0.1257258,-0.1487139
0.8081958,0.1375505,-0.1338907
0.8970992,0.1158913,-0.179002
1.050738,0.1263336,-0.2347633
1.1277,0.1696636,-0.2814445
1.16126,0.1901516,-0.2952792
1.174228,0.2417295,-0.2280093
1.192947,0.2249867,-0.1131775
1.247346,0.1665994,-0.06427441
1.275282,0.07873211,-0.1917341
1.296898,-0.02073774,-0.3684848
1.274458,-0.06700022,-0.4209451
1.190408,-0.1771815,-0.4336753
1.071189,-0.3057385,-0.4457194
0.9287979,-0.36047,-0.3896216
0.8967328,-0.3691893,-0.3124733
1.000896,-0.2472168,-0.2607398
1.138098,-0.05432712,-0.2614175
1.255331,0.04452859,-0.3241363
1.264157,0.06274772,-0.3865067
1.13082,0.02149464,-0.4141406
0.9536518,-0.047509,-0.3623827
0.8178019,-0.09684559,-0.250414
0.7570579,-0.1247651,-0.1613291
0.7440974,-0.09834981,-0.08030143
0.7340922,-0.06847087,-0.05233419
0.7350229,-0.06636923,-0.07940957
0.7145453,-0.06468456,-0.06966762
0.6770792,-0.08952756,-0.05986788
0.6883282,-0.08706516,-0.05389845
0.7394514,-0.05124724,-0.03915692
0.8390608,-0.02129244,-0.04860402
0.9770362,-0.00491997,-0.05510425
1.108326,-0.07213096,-0.0635841
1.25155,-0.1811267,-0.0722276
1.363391,-0.2327438,-0.05529565
1.368559,-0.1861019,-0.01475613
1.296556,-0.04889725,0.01887379
1.270766,0.05847237,-0.03143444
1.38464,0.02955992,-0.1637215
1.505422,-0.1183382,-0.3126604
1.423378,-0.2253639,-0.4301072
1.151509,-0.200552,-0.4432189
0.8558848,-0.1443377,-0.3991444
0.7122898,-0.1038503,-0.4097112
0.7331074,-0.09183769,-0.4428932
0.8217124,-0.1514742,-0.4833023
1.044331,-0.2680844,-0.5135194
1.2353,-0.3486809,-0.4509366
1.162942,-0.3252575,-0.3453828
1.041033,-0.2446213,-0.2500171
0.8881621,-0.1243391,-0.1777762
0.7058363,-0.009719738,-0.1765531
0.7094876,0.01108608,-0.1942615
0.754417,-0.01328409,-0.1995913
0.7965264,-0.03106887,-0.2119559
0.8906816,-0.046318,-0.2041617
0.9104794,-0.02194345,-0.1953059
0.885378,0.05551729,-0.1985152
0.8435951,0.1260268,-0.1811198
0.7921449,0.1421368,-0.1444024
0.7754195,0.1204031,-0.1254336
0.8086705,0.09661532,-0.1369284
0.8780987,0.08918671,-0.1522051
0.9811654,0.0991515,-0.1902382
1.144956,0.1472474,-0.2564148
1.194078,0.2211695,-0.2693617
1.153697,0.2559035,-0.22551
1.258191,0.216375,-0.1658592
1.340459,0.1144197,-0.1265628
1.323212,-0.0150647,-0.2635378
1.310633,-0.1589347,-0.4528248
1.239002,-0.2695617,-0.4041608
1.140421,-0.3010936,-0.3640965
1.018804,-0.3100437,-0.4324556
0.891744,-0.3317643,-0.3523699
0.9199421,-0.3152647,-0.3110217
1.070553,-0.1770686,-0.3641669
1.209923,0.04006417,-0.3585382
1.294034,0.1389016,-0.3921412
1.2067,0.06101304,-0.388857
0.9763456,-0.03973937,-0.3469143
0.8568486,-0.07720896,-0.3396939
0.8296157,-0.1044747,-0.2489319
0.7613772,-0.1107532,-0.1397826
0.7251868,-0.09474764,-0.1046153
0.7506891,-0.08170158,-0.1156983
0.7656895,-0.06332542,-0.1165913
0.7391588,-0.08597006,-0.08461186
0.7407676,-0.0960907,-0.0676305
0.7356255,-0.07885419,-0.03118489
0.713717,-0.06716361,-0.005998432
0.7661666,-0.004905605,-0.01134911
0.840332,-0.003181204,-0.01617552
1.008391,-0.1020658,-0.09074445
1.179707,-0.1840821,-0.1554822
1.186929,-0.2186214,-0.1387714
1.295081,-0.2527145,-0.1164973
1.432082,-0.2647584,-0.07770575
1.358428,-0.06060678,-0.0260386
1.339501,0.2131203,-0.07420199
1.446086,0.2063759,-0.2281447
1.446903,-0.03210585,-0.3585609
1.313204,-0.2892576,-0.4523566
1.051049,-0.3350489,-0.4781723
0.7699928,-0.182599,-0.4379044
0.7101859,-0.07793476,-0.4578521
0.8043411,-0.06328579,-0.4540892
0.9573681,-0.1452546,-0.4261087
1.169144,-0.2901555,-0.4222301
1.228216,-0.3634201,-0.3221697
1.071478,-0.3469857,-0.2058362
0.8771002,-0.2624804,-0.1461066
0.7293401,-0.1394592,-0.1376044
0.6577284,-0.05068316,-0.1709117
0.7057216,-0.02298484,-0.1807309
0.7796828,-0.01444966,-0.2135477
0.8308398,-0.000883375,-0.2444172
0.8852069,0.02537522,-0.2513163
0.8468291,0.09091639,-0.2641512
0.8154584,0.1498355,-0.2309524
0.8501874,0.1551493,-0.1917496
0.8637582,0.1432172,-0.1706001
0.9576127,0.1340192,-0.1663349
1.039656,0.1268817,-0.1860003
1.057283,0.1324601,-0.1934144
1.104002,0.1532156,-0.2131911
1.087183,0.1822014,-0.223889
1.071125,0.2232542,-0.1959505
1.105611,0.2358771,-0.1470337
1.1576,0.1347473,-0.1033057
1.269999,-0.01769937,-0.139092
1.322525,-0.07603888,-0.2697126
1.283621,-0.08073053,-0.4661331
1.218279,-0.1825206,-0.6026528
1.086406,-0.3522546,-0.5420942
0.9734253,-0.4069637,-0.3985853
0.968066,-0.3215163,-0.2769389
1.035311,-0.1760899,-0.2298915
1.162011,0.008721689,-0.3077144
1.246893,0.1216487,-0.3712724
1.193814,0.09394972,-0.4239661
1.067109,0.03165162,-0.4703917
0.8930406,-0.04641931,-0.363055
0.748645,-0.1273377,-0.2370122
0.7309432,-0.1268901,-0.1558653
0.7325031,-0.109361,-0.08252829
0.7246554,-0.1080472,-0.09153169
0.7374319,-0.09161292,-0.08496133
0.6997591,-0.1067591,-0.06437688
0.6592415,-0.1184161,-0.05818565
0.6651862,-0.1019573,-0.02776485
0.7016724,-0.06840552,-0.03175824
0.7971061,0.003964155,-0.01612418
0.9259342,0.04705743,-0.0273972
1.02851,0.02346016,-0.09690236
1.114205,-0.06320343,-0.1236671
1.268924,-0.216754,-0.1326707
1.409428,-0.2810906,-0.07234035
1.378028,-0.1028729,-0.002194608
1.353085,0.1584239,-0.0680537
1.416721,0.2162238,-0.1715305
1.411023,0.005237525,-0.2771192
1.347934,-0.2926998,-0.4064464
1.166369,-0.3904895,-0.4678097
0.8721395,-0.2310653,-0.4498989
0.7090641,-0.05447942,-0.4372845
0.7298952,-0.00571399,-0.440421
0.8800498,-0.09828636,-0.4159788
1.094421,-0.2729979,-0.3856077
1.174799,-0.3857417,-0.340602
1.083295,-0.4024885,-0.2719891
1.005256,-0.3430015,-0.2446341
0.8988126,-0.1686739,-0.2279104
0.6919806,0.04677392,-0.1908975
0.6706301,0.08646108,-0.199069
0.7853671,-0.007759985,-0.2218736
0.7811292,-0.003735959,-0.2124863
0.8364198,-0.009072812,-0.2176771
0.8901008,-0.03762189,-0.2338556
0.8560186,0.06771328,-0.2468297
0.9157745,0.12651,-0.2661749
0.9161792,0.1275871,-0.2298737
0.8884128,0.1651305,-0.1618412
0.9713874,0.1318935,-0.1590002
1.009417,0.09428528,-0.1800317
1.045039,0.1034949,-0.2043737
1.067029,0.1404933,-0.2631102
1.054632,0.2069419,-0.2769978
1.133095,0.2279713,-0.186774
1.214178,0.1428978,-0.04493253
1.256493,-0.006143929,-0.003113822
1.274171,-0.07940545,-0.1908151
1.256652,-0.1030454,-0.4254888
1.208273,-0.1338938,-0.4569741
1.056792,-0.1914916,-0.4267156
0.9407608,-0.335246,-0.4500809
0.9791195,-0.3575771,-0.3698623
1.047076,-0.2478506,-0.2668968
1.138299,-0.1489539,-0.2803406
1.239384,0.04456378,-0.3289121
1.223007,0.1394512,-0.4018266
1.111132,0.06023961,-0.4552511
0.986511,0.02483917,-0.3945437
0.8510614,-0.06019361,-0.2762055
0.7672158,-0.1496881,-0.1721856
0.750043,-0.1242842,-0.1015787
0.7387178,-0.1159609,-0.08668621
0.7581417,-0.09401854,-0.1183848
0.7623628,-0.04020698,-0.1361371
0.7333764,-0.04682522,-0.1205558
0.7263721,-0.06036215,-0.1061753
0.7158091,-0.0636272,-0.08002605
0.723174,-0.08206954,-0.02420787
0.7613576,-0.06970573,0.01411009
0.8355506,-0.03714237,0.01271312
0.939263,-0.0360863,0.009864238
1.055489,-0.07019336,-0.01398118
1.232988,-0.1213374,-0.05981172
1.35522,-0.1322939,-0.05112992
1.343215,-0.03510549,0.007303748
1.307772,0.1227564,0.04715557
1.305467,0.1978193,-0.0002348861
1.391723,0.09403831,-0.1310778
1.472295,-0.152792,-0.2964154
1.364245,-0.4086912,-0.4656696
1.141329,-0.4779577,-0.5005161
0.9313291,-0.2966411,-0.4255443
0.733034,-0.06969052,-0.4136716
0.6288604,0.05835462,-0.3873876
0.7653715,0.004945427,-0.344081
1.027268,-0.2145386,-0.35854
1.154328,-0.3339027,-0.3321525
1.119775,-0.3325312,-0.2758546
1.030722,-0.2781561,-0.2234723
0.9218507,-0.1451032,-0.189197
0.8016767,-0.02985454,-0.2232562
0.7275943,0.05703536,-0.2398563
0.7311284,0.03866281,-0.2228348
0.7653093,-0.01872167,-0.2140312
0.8125377,0.001184684,-0.1898464
0.8506616,0.0006862852,-0.1982183
0.847646,0.07729639,-0.2210904
0.846828,0.1496209,-0.2126484
0.8701191,0.138973,-0.2077456
0.9272769,0.1588558,-0.1968497
1.023425,0.1265769,-0.1889432
1.098139,0.1221798,-0.197638
1.107345,0.1533049,-0.20219
1.051813,0.1736643,-0.2225441
1.016808,0.2332457,-0.2327546
1.100439,0.2172164,-0.1732712
1.244778,0.1720886,-0.07744235
1.32766,0.1337366,-0.06713754
1.313486,0.07642015,-0.2167278
1.259893,0.01507805,-0.3968064
1.18298,-0.1191329,-0.4542641
1.05818,-0.2496654,-0.4640773
0.9656929,-0.3302032,-0.4721727
0.9544868,-0.3592248,-0.3626872
1.021572,-0.3046044,-0.2316562
1.176428,-0.2062167,-0.251053
1.267927,-0.07666651,-0.3110408
1.208377,0.01172152,-0.3586716
1.099743,0.02858515,-0.4398954
0.9552754,-0.00844003,-0.4330258
0.8327961,-0.07213322,-0.3245492
0.8032119,-0.0902915,-0.2168961
0.7850646,-0.09714097,-0.1312289
0.7794622,-0.08860018,-0.1015323
0.7865064,-0.07712038,-0.08724693
0.7451907,-0.09505157,-0.05170518
0.7011845,-0.0888268,-0.05005208
0.6781668,-0.09155953,-0.03820617
0.6818873,-0.0815669,-0.01443658
0.7294584,-0.04178027,-0.01650338
0.8009108,-0.02902073,-0.01342592
0.9288846,-0.04300462,-0.04639929
1.115042,-0.1224861,-0.1005926
1.307001,-0.2260074,-0.1051088
1.400482,-0.2202229,-0.02625663
1.332857,-0.02830221,0.07394229
1.309143,0.2471677,0.02848894
1.404546,0.2977171,-0.1188637
1.434672,7.155246e-05,-0.2893989
1.366933,-0.3772798,-0.4610634
1.172406,-0.4750213,-0.4895631
0.8753015,-0.311834,-0.4700388
0.7478374,-0.2021725,-0.4964998
0.8379092,-0.1302579,-0.4390396
0.8797662,0.01442536,-0.370281
0.8898274,-0.03484071,-0.3723841
1.062097,-0.3042109,-0.3579971
1.207295,-0.4496647,-0.3069046
1.108474,-0.3950149,-0.2802559
0.8719246,-0.2364513,-0.2448937
0.6834172,-0.1073134,-0.1679787
0.6594623,-0.05699361,-0.1808473
0.6723471,0.03701152,-0.2264929
0.6732483,0.05115802,-0.2052756
0.8136467,-0.0235065,-0.2390931
0.917874,-0.0002655397,-0.2585079
0.8973429,0.02295736,-0.2276231
0.9012874,0.05862271,-0.2339448
0.8563196,0.1423275,-0.2002207
0.826479,0.1573473,-0.1687937
0.8813275,0.1545347,-0.1844387
0.9289773,0.1535192,-0.1932159
1.023297,0.136751,-0.2266767
1.086109,0.146117,-0.2537982
1.072638,0.1700397,-0.2508525
1.09028,0.1967479,-0.220562
1.148775,0.1811129,-0.1269662
1.262397,0.08548851,-0.03620764
1.310966,-0.01803867,-0.0587898
1.250321,-0.03980868,-0.2135948
1.208781,-0.03011532,-0.40126
1.139381,-0.1425379,-0.5081162
1.047294,-0.3360278,-0.5047702
1.02793,-0.4107297,-0.402151
1.050667,-0.3506068,-0.259826
1.081529,-0.2551561,-0.2132692
1.163156,-0.09809066,-0.2873125
1.249567,0.08621523,-0.3580744
1.214616,0.09137309,-0.4236768
1.110291,-0.009452042,-0.4542653
0.9839451,-0.04326934,-0.3694479
0.8211053,-0.1266655,-0.266405
0.7403673,-0.1779968,-0.1513203
0.7219379,-0.1254776,-0.06986401
0.7001138,-0.1148282,-0.09390977
0.7227722,-0.06746266,-0.08286333
0.7265373,-0.01358601,-0.07402864
0.71431,-0.03189621,-0.08878551
0.7367197,-0.03438444,-0.05009962
0.762981,-0.0477841,-0.03643762
0.8399707,-0.05346878,-0.02284423
0.9480785,-0.05587187,-0.01822974
1.037321,-0.1076675,-0.05092896
1.148635,-0.1609461,-0.059
1.269503,-0.1906884,-0.05591538
1.338414,-0.1292693,-0.002263605
1.317505,0.05375064,0.05996152
1.298586,0.2660711,0.02512767
1.341103,0.3088532,-0.09370682
1.360331,0.003083277,-0.2787389
1.344532,-0.4065182,-0.4296508
1.196919,-0.5147313,-0.4683869
0.8818718,-0.3163284,-0.4734984
0.6979191,-0.08380629,-0.488525
0.7606957,0.005721606,-0.4656937
0.9261499,-0.05054485,-0.4044979
1.130193,-0.2222593,-0.3841838
1.213393,-0.4077964,-0.3627448
1.072238,-0.4572497,-0.2666888
0.9132146,-0.336441,-0.1973116
0.8187324,-0.1763723,-0.2013313
0.7292407,-0.132124,-0.2196459
0.728054,-0.1341,-0.2336605
0.7653815,-0.05915938,-0.2350627
0.7765677,0.03727209,-0.2377165
0.8087832,0.02551745,-0.2428545
0.81446,-0.02113946,-0.2358232
0.8296456,0.0499015,-0.2369897
0.8579791,0.07556117,-0.2346838
1.236404,-0.1529511,-0.3210513
1.186709,-0.2194065,-0.3687036
1.109244,-0.4573087,-0.372439
1.029357,-0.7242767,-0.343411
0.9811819,-0.7695731,-0.2444484
1.002521,-0.6229116,-0.1321355
1.106965,-0.4517241,-0.1332752
1.242956,-0.2944212,-0.1800771
1.276449,-0.1938625,-0.2092597
1.148803,-0.2079765,-0.2452387
0.982494,-0.2513324,-0.2228623
0.8557649,-0.2903038,-0.1650903
0.7744967,-0.3246913,-0.1259258
0.7518132,-0.3078122,-0.07717746
0.726952,-0.2939771,-0.04163027
0.7026678,-0.2829023,-0.03054623
0.7010048,-0.2615104,-0.02657735
0.6656477,-0.2762583,-0.02128136
0.6349998,-0.2749136,-0.001155388
0.6427499,-0.2554511,0.01168488
0.6494889,-0.2433934,0.009782074
0.6695834,-0.2182373,0.01153176
0.747963,-0.1975646,0.01725858
0.8836517,-0.1822645,0.02491378
1.025835,-0.2358399,0.02353556
1.168903,-0.3524063,0.02702904
1.253527,-0.3613699,0.07437156
1.220461,-0.2280892,0.1562081
1.267183,-0.05676409,0.1837724
1.453937,-0.009624828,0.05666595
1.548075,-0.2017042,-0.1416037
1.473499,-0.4796846,-0.2092514
1.301116,-0.6615604,-0.1479932
1.114464,-0.6989941,-0.09804063
0.9355469,-0.5530452,-0.1072857
0.7999237,-0.3490548,-0.2073588
0.8426314,-0.2958216,-0.3547399
0.9532543,-0.368581,-0.3610005
0.9739368,-0.4605101,-0.2849693
0.9571607,-0.5504795,-0.2693518
0.8943467,-0.564759,-0.1745209
0.8164025,-0.4987849,-0.07292614
0.7710198,-0.4412979,-0.09718673
0.7358309,-0.3422009,-0.1192023
0.7333918,-0.2395242,-0.1628505
0.7426741,-0.231494,-0.2112225
0.7627897,-0.2204471,-0.2011107
0.8054947,-0.2076676,-0.205533
0.8365064,-0.2017356,-0.1996223
0.8794259,-0.1245251,-0.1985456
0.9390884,-0.04688965,-0.205669
0.9784487,-0.009628743,-0.1897708
0.9867728,-0.02933137,-0.1901234
1.000221,-0.08633257,-0.1769773
1.034453,-0.11029,-0.1695616
1.034483,-0.1393797,-0.1724935
1.024131,-0.1372031,-0.1465345
1.033874,-0.09098388,-0.1298748
1.040598,-0.03526449,-0.1144584
1.095735,0.0189149,-0.09184199
1.193656,-0.06475456,-0.0774706
1.263701,-0.1985609,-0.108845
1.290587,-0.2068615,-0.2192997
1.276056,-0.2002615,-0.3176379
1.207807,-0.2824352,-0.328496
1.082052,-0.4912471,-0.2975938
0.980875,-0.7031503,-0.2844337
0.9732649,-0.6952682,-0.2347618
1.032914,-0.5680408,-0.1382861
1.133977,-0.470127,-0.1346888
1.22972,-0.3378552,-0.1959546
1.265248,-0.2141687,-0.226262
1.19198,-0.2066933,-0.2409299
1.01958,-0.2381407,-0.2126711
0.8884599,-0.2263635,-0.170533
0.8428733,-0.2307525,-0.1376608
0.7786328,-0.2498048,-0.08191152
0.7092604,-0.2407432,-0.05350795
0.71806,-0.2461222,-0.05696341
0.7191866,-0.258086,-0.05195246
0.6561827,-0.2535304,-0.03381391
0.6361799,-0.25621,0.004030795
0.6395225,-0.2475972,0.03657008
0.6504725,-0.2255185,0.04181415
0.7192645,-0.1692236,0.04326016
0.7761366,-0.0830664,0.04266421
0.8437347,-0.07382485,0.01443022
0.9701581,-0.1417687,-0.01486853
1.123128,-0.2412403,-0.01292939
1.216641,-0.3457433,0.03204868
1.172462,-0.3333768,0.1250343
1.187232,-0.1863028,0.1796598
1.374238,-0.02644989,0.1351682
1.575134,-0.003326259,-0.02435145
1.62801,-0.2459145,-0.260535
1.404948,-0.6006366,-0.3052691
1.054685,-0.7229732,-0.1200701
0.773302,-0.5606509,-0.04381835
0.6665657,-0.3635992,-0.1513181
0.8780822,-0.2683505,-0.2772946
1.103963,-0.2627381,-0.3258907
1.056405,-0.3821374,-0.2759417
0.9330601,-0.528447,-0.1742197
0.802424,-0.5605058,-0.05938677
0.69669,-0.5297643,-0.01869471
0.684267,-0.4508271,-0.08500599
0.6868815,-0.317687,-0.1437653
0.7588714,-0.2003098,-0.1932864
0.8768436,-0.153445,-0.2370287
0.894318,-0.1528691,-0.2191701
0.8914304,-0.1057447,-0.2147422
0.9073308,-0.05343561,-0.2107792
0.8909466,-0.03960328,-0.1577461
0.9327961,-0.02122518,-0.1450082
1.012072,-0.0211645,-0.1661285
1.038149,-0.03390865,-0.1700172
1.046312,-0.05816513,-0.1633148
1.046079,-0.08271694,-0.148429
1.05455,-0.08062563,-0.1509099
1.078427,-0.07926737,-0.1654995
1.07389,-0.06555908,-0.1781237
1.062657,-0.04473681,-0.1655008
1.05931,-0.05120361,-0.1006454
1.085506,-0.09975925,-0.06647752
1.184241,-0.1787241,-0.1629451
1.30391,-0.2137553,-0.3221033
1.317677,-0.233051,-0.3559724
1.159915,-0.4012474,-0.2794264
0.9884303,-0.6324958,-0.241349
0.9555177,-0.6222923,-0.2090869
0.9804392,-0.4777083,-0.1640555
1.08225,-0.4074874,-0.1560992
1.303927,-0.2757212,-0.1919859
1.403057,-0.1910223,-0.2612412
1.308195,-0.2284621,-0.2845075
1.156294,-0.2175092,-0.2507925
0.9007477,-0.2819324,-0.2109446
0.7228126,-0.3767587,-0.1602395
0.7796964,-0.3515305,-0.1116443
0.7771419,-0.3223633,-0.0833376
0.7329198,-0.2955788,-0.07946862
0.7706959,-0.2786483,-0.07278319
0.7251625,-0.2681922,-0.0467334
0.6743445,-0.24337,-0.02762062
0.6728718,-0.2410975,0.0005587911
0.6644506,-0.187232,0.03840357
0.6842989,-0.1430712,0.03911567
0.6905484,-0.1498466,0.01589451
0.7842537,-0.156609,0.006663424
1.047009,-0.2965352,-0.03294945
1.253202,-0.4640281,-0.07863269
1.224008,-0.3904828,0.003384742
1.16775,-0.2189108,0.1884514
1.268173,-0.1356668,0.2922846
1.370897,-0.02888261,0.1734252
1.552306,0.04231577,-0.0589261
1.680321,-0.1450877,-0.2023965
1.411886,-0.509239,-0.2634788
1.135044,-0.7228772,-0.207667
0.9900604,-0.6434465,-0.1257044
0.7950874,-0.4421415,-0.2223948
0.7578154,-0.2728696,-0.3159988
0.8473796,-0.2753317,-0.3443246
0.9684473,-0.4414386,-0.373726
1.012521,-0.54786,-0.2870817
0.9076198,-0.6263831,-0.1919155
0.8402806,-0.6121874,-0.1392597
0.7979667,-0.4763052,-0.09468476
0.7551707,-0.4091849,-0.1048944
0.741602,-0.2741883,-0.1240883
0.7725321,-0.1767627,-0.1904793
0.8452853,-0.208068,-0.2354983
0.8704469,-0.1695726,-0.215704
0.9071254,-0.1712904,-0.2372393
0.9196485,-0.137088,-0.2320091
0.8925749,-0.06799686,-0.2132986
0.8940251,-0.1079306,-0.1999878
0.8637028,-0.1182458,-0.1628238
0.8929015,-0.149376,-0.1737371
0.9657428,-0.1751333,-0.177892
0.9949409,-0.1405035,-0.1651429
1.027886,-0.1325011,-0.1695116
1.027493,-0.08385345,-0.1616883
1.027799,-0.0438519,-0.1638499
1.051171,-0.03405486,-0.1391711
1.093588,-0.03621884,-0.08194793
1.187266,-0.1273351,-0.06701019
1.25643,-0.2199266,-0.149059
1.278558,-0.2223248,-0.2830757
1.255391,-0.2253274,-0.3260455
1.172285,-0.3904785,-0.3019454
1.065825,-0.6226721,-0.2876728
0.9748267,-0.6525214,-0.2343911
0.9728386,-0.5253381,-0.1867905
1.063583,-0.4271608,-0.1908841
1.199804,-0.3537037,-0.1925544
1.3087,-0.2685028,-0.2029223
1.25327,-0.2501862,-0.2347729
1.075196,-0.2873653,-0.2403022
0.9184265,-0.2897323,-0.2150585
0.8401911,-0.3096394,-0.1779103
0.8096365,-0.3312405,-0.121943
0.7466721,-0.3003806,-0.07442594
0.7225319,-0.2781449,-0.06403788
0.7134254,-0.2529705,-0.05443088
0.6408252,-0.2333104,-0.03445111
0.64443,-0.2459562,-0.02108398
0.658796,-0.2336189,0.002863828
0.6567032,-0.2019936,0.01937626
0.7386094,-0.1711154,0.01971401
0.7853812,-0.1449357,0.04238007
0.8674642,-0.1622349,0.04719859
1.022304,-0.2386612,-0.00860737
1.11335,-0.3620937,-0.0449247
1.160541,-0.423375,0.01792851
1.221639,-0.3104655,0.1370231
1.394586,-0.1038789,0.1740194
1.576525,0.07571851,0.04879964
1.588512,0.0982812,-0.1229386
1.500074,-0.1149423,-0.1673709
1.383966,-0.3270042,-0.1257424
1.202038,-0.4307362,-0.130013
0.8316442,-0.5768883,-0.1277064
0.5715504,-0.5701206,-0.1172474
0.7544255,-0.3672282,-0.2280742
0.950747,-0.3121172,-0.3784672
1.006154,-0.3562763,-0.3980054
1.041726,-0.4154322,-0.3265742
0.9281407,-0.5534455,-0.2491793
0.8679456,-0.5842617,-0.1444949
0.8311768,-0.5132229,-0.08012283
0.757554,-0.432949,-0.1173255
0.8333134,-0.3168939,-0.1537757
0.8240015,-0.2439148,-0.1937329
0.8073196,-0.2119871,-0.2306806
0.8743556,-0.2091469,-0.2036327
0.8312437,-0.2151507,-0.1986225
0.8567328,-0.184692,-0.1851516
0.8664913,-0.1503725,-0.1531273
0.8314199,-0.1020237,-0.1754483
0.8779819,-0.08403894,-0.1721058
0.8724243,-0.1036367,-0.1628592
0.9328911,-0.1253031,-0.1756838
1.010517,-0.1640808,-0.1646556
1.014539,-0.1565358,-0.1670819
1.062626,-0.1227557,-0.1622838
1.067858,-0.09633311,-0.1482672
1.051705,-0.04381106,-0.1428633
1.065093,-0.03247512,-0.1095029
1.122748,-0.09944703,-0.06346226
1.224202,-0.1974078,-0.05309106
1.261998,-0.2628398,-0.1448238
1.274189,-0.2680357,-0.2912265
1.244989,-0.2832932,-0.3383462
1.125327,-0.4106649,-0.3065676
1.000762,-0.624667,-0.2973119
0.9201743,-0.6986923,-0.2679495
0.9420597,-0.5528287,-0.1955659
1.100131,-0.3990601,-0.1790982
1.313985,-0.3036639,-0.2231898
1.388504,-0.2276361,-0.2593823
1.235828,-0.2272243,-0.278221
1.047814,-0.2500879,-0.2453119
0.9219324,-0.2618273,-0.1853339
0.8111067,-0.2988325,-0.1509334
0.7451269,-0.3120147,-0.09280412
0.7225325,-0.287913,-0.04960294
0.7306495,-0.2332768,-0.06755657
0.7290474,-0.1726094,-0.06696345
0.6915713,-0.1761704,-0.05830764
0.6743876,-0.2141745,-0.05833607
0.6652539,-0.2263203,-0.008456377
0.7024241,-0.217886,0.04717641
0.7716704,-0.2020017,0.05347675
0.7889615,-0.184661,0.04599674
0.8882378,-0.1937508,0.04005432
1.06801,-0.2708024,-0.0007757312
1.152693,-0.3790632,-0.0213314
1.167497,-0.3754903,0.08811372
1.243093,-0.1942474,0.1936311
1.41371,-0.04187127,0.09800352
1.5744,-0.1327694,-0.09917931
1.622471,-0.3508617,-0.2244604
1.434997,-0.5265751,-0.2215589
1.032132,-0.5770407,-0.1359667
0.7259362,-0.4374488,-0.1215558
0.6795666,-0.3355158,-0.2194771
0.843147,-0.4205913,-0.3411787
1.030948,-0.4876207,-0.4079484
1.043832,-0.5480366,-0.3578148
0.9663397,-0.6044578,-0.2575655
0.886617,-0.5481874,-0.1586774
0.8354875,-0.5127187,-0.1008295
0.8323172,-0.43732,-0.1526059
0.7973654,-0.2715957,-0.1685657
0.7918629,-0.2392883,-0.1580701
0.8267401,-0.2675315,-0.2152346
0.8248446,-0.2163806,-0.2220464
0.8349408,-0.203057,-0.2219269
0.829295,-0.2041034,-0.2154991
0.8019408,-0.1257308,-0.1742524
0.8089983,-0.08635238,-0.1779569
0.8203767,-0.1061753,-0.1633036
0.8564973,-0.08753178,-0.1449349
0.9177345,-0.08433111,-0.1433702
0.9661887,-0.09468687,-0.147805
1.050821,-0.07509913,-0.1772043
1.112003,-0.06892169,-0.1643746
1.078356,-0.07219899,-0.1701805
1.080322,-0.07205571,-0.1946943
1.120587,-0.06956488,-0.1611731
1.133842,-0.08850322,-0.1188489
1.202184,-0.1883343,-0.08993658
1.263619,-0.3317473,-0.1585324
1.258676,-0.3762648,-0.2954747
1.210182,-0.3436341,-0.3457225
1.071624,-0.4408535,-0.3442169
0.9509303,-0.622035,-0.3263127
0.9252119,-0.6645473,-0.288327
0.9822258,-0.5555264,-0.2601215
1.147268,-0.4030709,-0.2314422
1.279418,-0.310209,-0.2267905
1.276254,-0.2891612,-0.2419353
1.15996,-0.2858229,-0.2367738
1.006016,-0.2868676,-0.2311336
0.9315509,-0.2876988,-0.2152912
0.8956805,-0.2942833,-0.1683203
0.8580894,-0.2710841,-0.1257489
0.8253727,-0.2296689,-0.1006114
0.7666478,-0.2385929,-0.08840637
0.6992885,-0.2565215,-0.08030162
0.6364062,-0.262534,-0.053569
0.6109048,-0.257525,-0.01894405
0.6202939,-0.2155532,0.008853888
0.630832,-0.1606539,0.01932561
0.6649728,-0.1129104,0.01042252
0.7598008,-0.1159155,0.005493689
0.9415487,-0.1982752,-0.01509634
1.114864,-0.3257067,-0.05598192
1.159487,-0.4128426,-0.03929847
1.152704,-0.3570062,0.07189269
1.291392,-0.1594986,0.1648242
1.545374,0.05141515,0.08089241
1.668958,0.04136255,-0.1249741
1.6389,-0.2209659,-0.2600999
1.439418,-0.5203231,-0.2564005
1.056893,-0.7056638,-0.1441777
0.8041908,-0.5986199,-0.08171685
0.7480511,-0.3773004,-0.2000841
0.7944219,-0.3561321,-0.3421204
0.9538502,-0.3600637,-0.3623476
0.9861129,-0.4319805,-0.3068101
0.9129822,-0.5742246,-0.2241646
0.8796695,-0.5545076,-0.1313228
0.7743292,-0.5092989,-0.08124811
0.7218396,-0.4117462,-0.1019097
0.7392588,-0.2781118,-0.1311649
0.7523201,-0.2297596,-0.173673
0.8316585,-0.1813744,-0.2096757
0.8636555,-0.1992357,-0.1776558
0.8566654,-0.1913631,-0.1695179
0.8640488,-0.1302117,-0.1808003
0.8612032,-0.1052866,-0.1667103
0.8966279,-0.05606257,-0.1749812
0.9298511,-0.07336557,-0.1635799
0.979592,-0.09990758,-0.1519553
1.038869,-0.1065552,-0.1702026
1.059164,-0.1466386,-0.1751751
1.078374,-0.1259198,-0.1734836
1.070997,-0.1210316,-0.1634803
1.041542,-0.1023624,-0.1543329
1.0305,-0.01296675,-0.1377142
1.106131,0.006047965,-0.09112417
1.241395,-0.1013072,-0.07061821
1.292783,-0.2427543,-0.1369358
1.309449,-0.2434767,-0.2495856
1.275088,-0.2182011,-0.3095666
1.127135,-0.3675852,-0.3330253
0.9969203,-0.5622973,-0.3432133
0.8961116,-0.6524109,-0.2753915
0.8791128,-0.5825913,-0.1696802
1.048872,-0.4642618,-0.1157199
1.245827,-0.3843598,-0.1454597
1.316343,-0.2721737,-0.2174321
1.250927,-0.2309873,-0.2672792
1.127507,-0.2433692,-0.2825605
0.9831577,-0.2333921,-0.2387956
0.8339649,-0.2772098,-0.173228
0.7971253,-0.2855636,-0.1118023
0.7748275,-0.2773966,-0.04398187
0.7172888,-0.2954082,-0.04434341
0.722108,-0.2630749,-0.05758177
0.6546037,-0.2430033,-0.02839262
0.5981082,-0.2138311,-0.009397815
0.6568966,-0.1804057,0.02566247
0.6824475,-0.1786574,0.03573435
0.7175872,-0.1575404,0.02008543
0.7835957,-0.1701867,0.02940901
0.8806836,-0.189739,0.01137169
1.002458,-0.2216761,-0.002085642
1.080087,-0.356025,0.01784782
1.190789,-0.4690899,0.05445035
1.235836,-0.3892626,0.1187613
1.276445,-0.195301,0.1322341
1.514909,-0.1261097,0.04659257
1.595486,-0.1843978,-0.09393762
1.474412,-0.2969547,-0.1967147
1.362028,-0.4939874,-0.17223
1.018961,-0.5832018,-0.1365305
0.7004215,-0.4457493,-0.1916592
0.7110073,-0.3138001,-0.2600175
0.8311063,-0.349777,-0.3632849
1.005541,-0.4260273,-0.4208656
1.052919,-0.4810955,-0.3232999
0.9342512,-0.5501671,-0.2329742
0.8751224,-0.5233611,-0.1585966
0.8103228,-0.4517724,-0.1017842
0.7702094,-0.383362,-0.1531553
0.7754843,-0.2703817,-0.1721263
0.7691289,-0.2390594,-0.190746
0.8068287,-0.2309208,-0.2330569
0.8202956,-0.2016281,-0.195551
0.8170867,-0.210848,-0.1932871
0.8303984,-0.1676709,-0.2000872
0.8494074,-0.1178109,-0.1877567
0.8917373,-0.08813223,-0.2218436
0.9036521,-0.06748221,-0.2205943
0.9250186,-0.09571454,-0.2156731
0.9835017,-0.1142772,-0.2243027
1.035825,-0.1300309,-0.2115271
1.064801,-0.1333056,-0.2124354
1.062645,-0.1018268,-0.2013913
1.069544,-0.04933207,-0.1936432
1.082481,0.03120761,-0.193815
1.156378,0.01434106,-0.1882407
1.293954,-0.1298806,-0.2106772
1.336054,-0.2492772,-0.2547776
1.303349,-0.2783289,-0.3204804
1.244718,-0.3261617,-0.3564204
1.087506,-0.5294785,-0.3408953
0.9000913,-0.6934125,-0.3334377
0.8505642,-0.641524,-0.2640537
0.967307,-0.5581867,-0.1367296
1.128575,-0.4618311,-0.1167388
1.249536,-0.3321562,-0.1965666
1.264455,-0.2941267,-0.2688185
1.155591,-0.2838321,-0.308089
1.010029,-0.2713461,-0.2778082
0.8620484,-0.2845588,-0.1937174
0.780264,-0.2736186,-0.1346889
0.795237,-0.256221,-0.09672422
0.770976,-0.2311581,-0.06443785
0.7017894,-0.2122083,-0.04290104
0.654258,-0.2208629,-0.02941769
0.623549,-0.2140633,-0.02663986
0.6488938,-0.2070756,-0.009515012
0.6988526,-0.1920475,0.001499781
0.7424567,-0.1480522,-0.00504438
0.814767,-0.1315775,-0.00277012
0.8827964,-0.1605407,-0.01506782
0.9804697,-0.2425328,-0.04413901
1.112901,-0.3905324,-0.06239861
1.158663,-0.4744372,-0.01311274
1.181948,-0.3411902,0.07585612
1.365923,-0.1023299,0.05822965
1.612504,-0.01706331,-0.0915718
1.609676,-0.2115237,-0.2711182
1.379879,-0.5408377,-0.3041447
1.1965,-0.6640419,-0.1637858
1.038467,-0.5806676,-0.06034671
0.8830648,-0.5422874,-0.05860343
0.8443833,-0.4339528,-0.1661895
0.8259715,-0.2467385,-0.3567677
0.8163296,-0.2894797,-0.4211412
0.9319354,-0.4669282,-0.3576574
1.016241,-0.5488404,-0.2972797
0.9390558,-0.589342,-0.2181742
0.8422761,-0.5284854,-0.1288299
0.7805648,-0.3919147,-0.08621413
0.7532598,-0.3448392,-0.1038422
0.7882971,-0.3016751,-0.1554863
0.8023849,-0.2471292,-0.2066466
0.8059171,-0.2308661,-0.2275303
0.8357967,-0.224771,-0.2096331
0.8404073,-0.2155965,-0.1994841
0.8500424,-0.1421932,-0.20391
0.8716254,-0.08730548,-0.1925393
0.8922018,-0.0605036,-0.1755072
0.9274134,-0.03260488,-0.152112
0.955294,-0.0792281,-0.1370826
0.990742,-0.1062765,-0.1492972
1.034025,-0.1336078,-0.1487699
1.049701,-0.1697898,-0.1358963
1.053535,-0.1512037,-0.1393601
1.066029,-0.1421286,-0.1482468
1.087505,-0.09637564,-0.1529998
1.117534,-0.08164355,-0.1189059
1.151915,-0.17715,-0.07925618
1.215862,-0.2763018,-0.1232057
1.30125,-0.3022785,-0.2007237
1.307618,-0.2473381,-0.2520217
1.186778,-0.2605331,-0.3095935
1.008286,-0.4170913,-0.3814664
0.8978323,-0.5902356,-0.4010474
0.9209763,-0.63572,-0.2922679
1.002716,-0.55944,-0.1739852
1.140001,-0.466367,-0.1929138
1.288502,-0.3043884,-0.2384009
1.226058,-0.2099797,-0.2440626
1.07029,-0.2680455,-0.2631807
1.002995,-0.2437419,-0.2388862
0.8879896,-0.2450221,-0.1786357
0.8152443,-0.2889402,-0.1378576
0.7961055,-0.2470252,-0.08322232
0.7019632,-0.265568,-0.05037051
0.6936196,-0.2644839,-0.0574434
0.7030136,-0.2401624,-0.04913662
0.6474825,-0.2717044,-0.02728559
0.6463376,-0.2544592,0.007869351
0.6653609,-0.2344131,0.0323872
0.7244102,-0.1780899,0.02691274
0.7664713,-0.09500111,0.02873969
0.8033795,-0.09321665,0.01978816
0.9721312,-0.1424283,-0.0002840787
1.150063,-0.2559976,-0.001810469
1.238742,-0.3470054,0.02945936
1.238182,-0.3105561,0.1165305
1.27139,-0.1977099,0.1652585
1.445559,-0.1147125,0.07036591
1.564899,-0.1871673,-0.08066136
1.517678,-0.3686079,-0.1421974
1.297188,-0.5243555,-0.1141938
0.9785045,-0.5666503,-0.09462552
0.7925136,-0.4605048,-0.118533
0.7742346,-0.3319038,-0.2053768
0.7930191,-0.2882177,-0.317702
0.8372514,-0.3213586,-0.3428771
0.9432395,-0.4038465,-0.3392079
0.9622629,-0.4850663,-0.3176491
0.8935894,-0.5428082,-0.1783092
0.8893174,-0.5388642,-0.09654912
0.8441813,-0.4628929,-0.1253042
0.785333,-0.3827425,-0.1126362
0.7868273,-0.2984508,-0.1550393
0.7953355,-0.2405497,-0.2268719
0.8517423,-0.2244678,-0.2117497
0.8638171,-0.1924482,-0.1903578
0.8339348,-0.1751438,-0.1699049
0.8456804,-0.148016,-0.1520063
0.8630022,-0.1083693,-0.1519117
0.9172307,-0.09689295,-0.145785
0.9535588,-0.07443977,-0.1424377
0.9710455,-0.08485233,-0.1277196
1.016598,-0.1018462,-0.1171221
1.025422,-0.07831618,-0.1146368
1.025394,-0.06711114,-0.1214738
1.021461,-0.04101285,-0.1550374
1.015836,-0.007536832,-0.1754865
1.05673,0.02810115,-0.1610029
1.127084,0.04047555,-0.1337734
1.23104,-0.09219726,-0.1469724
1.328278,-0.2785909,-0.2195153
1.323233,-0.3810657,-0.3029078
1.183463,-0.5346878,-0.3160569
0.994935,-0.7174171,-0.2289741
0.9154544,-0.6616019,-0.1541442
0.9891488,-0.4826008,-0.1426856
1.142832,-0.3803884,-0.1609823
1.308269,-0.2672293,-0.2013597
1.355412,-0.2573411,-0.2441583
1.198488,-0.3207831,-0.289799
1.014912,-0.2983087,-0.2608309
0.8986058,-0.3293192,-0.17193
0.7999142,-0.3249554,-0.1340668
0.7796031,-0.256602,-0.09176797
0.7580907,-0.2297508,-0.07383448
0.7118468,-0.1664932,-0.08916788
0.7123767,-0.2020165,-0.06121754
0.6817102,-0.274545,-0.05079452
0.6687528,-0.2441688,-0.02264898
0.6825456,-0.2365486,0.02226474
0.6765385,-0.1855948,0.02291804
0.7115072,-0.1230716,0.02931796
0.7771226,-0.1337448,0.004344344
0.9018163,-0.1724197,-0.03288293
1.072849,-0.2873326,-0.03127717
1.177502,-0.4010898,-0.02666314
1.181624,-0.392074,-0.00424348
1.223584,-0.2218286,0.02954222
1.428791,-0.01191642,0.06528362
1.56551,-0.05098383,0.03875076
1.469332,-0.3478604,-0.1003088
1.261894,-0.6031109,-0.2010974
0.9523298,-0.5776988,-0.182405
0.7063783,-0.4122724,-0.1852626
0.7525651,-0.374049,-0.2996176
0.8396479,-0.3801373,-0.3689379
0.8688042,-0.4020895,-0.3647607
1.036408,-0.4972242,-0.4103487
1.067502,-0.5450913,-0.3353788
0.9159712,-0.5603393,-0.1594846
0.8855108,-0.531042,-0.1114571
0.8474623,-0.4429508,-0.1091841
0.8305845,-0.378004,-0.1348093
0.8729373,-0.2957727,-0.2092024
0.8357343,-0.2613644,-0.2381107
0.8450014,-0.2740621,-0.2366836
0.8329361,-0.2462966,-0.2159431
0.7840732,-0.2238775,-0.1887841
0.7864248,-0.1620559,-0.1774559
0.7578007,-0.1011255,-0.1682965
0.7885522,-0.1006539,-0.1683011
0.8402701,-0.09783627,-0.1633991
0.85936,-0.1062248,-0.1566766
0.9397769,-0.1133137,-0.164858
1.03509,-0.1078821,-0.190758
1.114182,-0.09951141,-0.2266864
1.1192,-0.09050869,-0.2259313
1.069004,-0.08678841,-0.1838808
1.055996,-0.05634999,-0.1318505
1.07371,-0.05364148,-0.09561703
1.16581,-0.1571145,-0.1129433
1.283554,-0.2891625,-0.1638097
1.306722,-0.2906075,-0.2442884
1.230847,-0.2311549,-0.3478086
1.11891,-0.3011784,-0.3515072
0.9930993,-0.4846653,-0.2816623
0.8885381,-0.6655164,-0.2516254
0.9685723,-0.62589,-0.2140907
1.164181,-0.4321935,-0.2002759
1.27686,-0.3682078,-0.2293181
1.29756,-0.2791739,-0.2414807
1.195463,-0.2009289,-0.2703976
1.070231,-0.2543277,-0.2545318
0.9776625,-0.2578814,-0.1811385
0.8529173,-0.3110101,-0.1412964
0.8202704,-0.347016,-0.1111461
0.8138961,-0.2839105,-0.09314916
0.7448369,-0.2722252,-0.07558302
0.7138422,-0.224589,-0.05109603
0.6753411,-0.2068483,-0.05137829
0.6463755,-0.2321,-0.02001539
0.6603896,-0.2067605,0.02241824
0.6710146,-0.2018233,0.03561372
0.7088754,-0.1587107,0.0432866
0.7707359,-0.13363,0.03974996
0.8847119,-0.1855049,0.038772
1.07093,-0.2474964,0.02581779
1.217716,-0.2940027,0.02981907
1.260233,-0.2200532,0.1255378
1.314593,-0.05692006,0.213361
1.465768,0.06464613,0.1373737
1.558617,0.04938713,-0.02491659
1.512246,-0.1833108,-0.12651
1.359642,-0.5388574,-0.1774262
1.05181,-0.7386564,-0.1472336
0.7614329,-0.6003462,-0.1109803
0.7074271,-0.3920401,-0.2220346
0.8475723,-0.3263516,-0.3186847
1.031169,-0.3043101,-0.317514
1.046985,-0.4145359,-0.2901457
0.9431932,-0.5437225,-0.2000093
0.8854573,-0.5285025,-0.09395622
0.8103726,-0.5034583,-0.04571623
0.7795641,-0.4080247,-0.08837216
0.7995128,-0.2779755,-0.1413966
0.7915912,-0.2058607,-0.1557085
0.8296168,-0.1490644,-0.1998727
0.847497,-0.1644091,-0.1941262
0.8271088,-0.1605216,-0.163973
0.8190526,-0.1304392,-0.1631128
0.80689,-0.1279822,-0.1407144
0.8513509,-0.08707723,-0.1479486
0.9024534,-0.06657164,-0.1381661
0.9105191,-0.06687114,-0.1284583
0.9532277,-0.06941929,-0.158333
1.038338,-0.0616561,-0.1579456
1.080561,-0.04543676,-0.1737025
1.067733,-0.0679401,-0.1675394
1.086684,-0.05344466,-0.1350251
1.100174,-0.01384701,-0.1178106
1.105887,-0.00549869,-0.0356249
1.165927,-0.08517422,0.01314838
1.22811,-0.2226445,-0.06205062
1.303726,-0.2071969,-0.1842542
1.33286,-0.1390977,-0.2962788
1.231876,-0.1831077,-0.3430076
1.09605,-0.3372346,-0.3327279
0.97335,-0.5939323,-0.3061659
0.9041291,-0.6647828,-0.2512519
0.9382133,-0.5211318,-0.1650657
1.028604,-0.4551566,-0.1001671
1.155544,-0.3587881,-0.1236426
1.257907,-0.207519,-0.2084467
1.218937,-0.1868617,-0.2583441
1.102202,-0.2193629,-0.2441665
0.9885292,-0.2486325,-0.2110473
0.8504312,-0.2911626,-0.1689402
0.7899097,-0.2963722,-0.09467804
0.7784722,-0.264817,-0.03470022
0.7010468,-0.2318032,-0.02884093
0.6619388,-0.2246812,-0.02432623
0.6394038,-0.2313167,-0.006718394
0.6286291,-0.2389901,0.01544028
0.706796,-0.2431648,0.05063694
0.7822624,-0.2263703,0.04640557
0.8498291,-0.2110761,0.02575353
0.9481158,-0.2174436,0.03278261
1.074351,-0.2591648,0.03149825
1.161156,-0.3331109,0.04377993
1.157261,-0.3693965,0.08046024
1.148832,-0.2938426,0.1465448
1.151021,-0.1530169,0.1996702
1.291914,-0.1152374,0.09545721
1.529948,-0.2762701,-0.11646
1.51455,-0.5448127,-0.2152382
1.325219,-0.6960319,-0.1163522
1.145464,-0.631158,-0.0249674
0.8682918,-0.4579446,-0.1198257
0.6020899,-0.3127323,-0.1894584
0.7214367,-0.35687,-0.2167948
1.098873,-0.4945769,-0.4047966
1.173342,-0.5208468,-0.5033082
1.072285,-0.5722227,-0.361671
1.008994,-0.6327831,-0.2124916
0.8432043,-0.5701004,-0.1156258
0.7727264,-0.4727984,-0.07073013
0.7720066,-0.3506671,-0.1113703
0.7596503,-0.2551843,-0.1643242
0.8085603,-0.2253976,-0.1956878
0.8112909,-0.1969293,-0.2109927
0.8321236,-0.1865403,-0.1881163
0.8231583,-0.1649466,-0.1663504
0.7902655,-0.1311437,-0.1695261
0.8267772,-0.1082726,-0.165416
0.8178556,-0.08745438,-0.1715479
0.8610587,-0.1079527,-0.164377
0.9546496,-0.1336717,-0.1353951
1.021032,-0.1289787,-0.1333347
1.086557,-0.113737,-0.138524
1.08346,-0.08636029,-0.1455535
1.07967,-0.05583001,-0.1320537
1.090661,-0.02576941,-0.09154523
1.11412,-0.02898505,-0.06364748
1.199037,-0.1348274,-0.02663912
1.25798,-0.2774828,-0.02855083
1.255614,-0.2817177,-0.1360668
1.213444,-0.2091273,-0.2948246
1.159006,-0.2458824,-0.3711273
1.065414,-0.4085904,-0.3347654
0.9488961,-0.6307741,-0.3008813
0.9210808,-0.6875752,-0.234833
0.9812858,-0.5203805,-0.1433227
1.139189,-0.3965037,-0.1540652
1.315746,-0.31236,-0.1871434
1.328723,-0.2411344,-0.2124276
1.195709,-0.2687376,-0.2577659
1.029842,-0.2776532,-0.2284573
0.9023116,-0.2898256,-0.159304
0.8200249,-0.3101658,-0.1062324
0.7626051,-0.2659526,-0.04717035
0.7175087,-0.2352619,-0.02524531
0.6854777,-0.2018222,-0.03195083
0.6584962,-0.1808207,-0.02262493
0.6004044,-0.1800456,-0.007655265
0.6044159,-0.1655031,0.01963623
0.7052488,-0.1883847,0.03382158
0.8063258,-0.1802488,0.02306963
0.9127409,-0.1728995,0.03339276
1.011076,-0.2474973,0.04186694
1.101469,-0.3346007,0.04123488
1.162849,-0.3911765,0.07502578
1.165269,-0.3268557,0.1617463
1.270007,-0.1555167,0.2375114
1.484654,0.003139781,0.1295617
1.588108,0.0188993,-0.09277678
1.481519,-0.2588694,-0.1707979
1.259154,-0.6258381,-0.1317231
0.9900726,-0.7347076,-0.1113947
0.6821152,-0.5621736,-0.1186382
0.6160764,-0.4101778,-0.1545051
0.8853649,-0.4319063,-0.2904464
1.099352,-0.3730279,-0.4629249
1.109189,-0.3457081,-0.4262428
1.038048,-0.5032597,-0.2721055
0.961682,-0.5683494,-0.1598279
0.8836248,-0.575886,-0.02881868
0.8214244,-0.4994639,-0.05553545
0.7934139,-0.3033255,-0.1364444
0.7395586,-0.2454329,-0.08164096
0.7672058,-0.2232778,-0.1550052
0.8314907,-0.1673776,-0.2268404
0.8092721,-0.1722393,-0.166246
0.831639,-0.1704159,-0.1715905
0.8180808,-0.1285418,-0.1533584
0.8029139,-0.0716599,-0.1445006
0.8737402,-0.06681579,-0.1794222
0.912457,-0.04774918,-0.1764093
0.9897612,-0.03106039,-0.1984262
1.038074,-0.0960056,-0.1752149
1.038273,-0.117805,-0.1352914
1.064961,-0.1254349,-0.1414321
1.044249,-0.1104477,-0.1285195
1.063026,-0.03704141,-0.1301288
1.110703,-0.0180647,-0.1100245
1.169041,-0.04368661,-0.04866207
1.23848,-0.1312254,-0.02894467
1.23867,-0.1952803,-0.1174306
1.262605,-0.1232913,-0.2846296
1.247936,-0.0953454,-0.3525489
1.147257,-0.2767158,-0.2998728
1.033074,-0.5589387,-0.2603265
0.8823553,-0.6609189,-0.2194639
0.8422901,-0.575017,-0.1321171
0.9722025,-0.4882487,-0.09351878
1.160144,-0.3619103,-0.1394925
1.306627,-0.224977,-0.1827122
1.301007,-0.1915693,-0.2314277
1.18726,-0.1953112,-0.253977
1.055883,-0.2001386,-0.2086365
0.9424968,-0.2488413,-0.1738381
0.8307147,-0.2960899,-0.1021658
0.7288918,-0.2997224,-0.02362333
0.7209786,-0.2732586,-0.03457039
0.7203478,-0.2438164,-0.02574763
0.6752483,-0.245163,0.002974031
0.6672205,-0.2399252,0.01168643
0.6781983,-0.2173586,0.04819863
0.7149771,-0.1941117,0.05286822
0.7708412,-0.1463007,0.03803497
0.8420336,-0.1271766,0.04543296
0.9829442,-0.1593321,0.01792906
1.148113,-0.2394735,-0.02323638
1.241981,-0.3575786,-0.006488834
1.245777,-0.3596102,0.1072426
1.314973,-0.1896096,0.2159274
1.499036,-0.01092803,0.1228034
1.566128,-0.01208964,-0.08760096
1.444476,-0.2644715,-0.2111991
1.257097,-0.5599375,-0.2279517
1.034307,-0.6047624,-0.1433733
0.7768663,-0.4793939,-0.08779982
0.6738161,-0.4019225,-0.186765
0.8317167,-0.3172929,-0.311698
0.9519246,-0.2665486,-0.3754848
0.9268286,-0.4062262,-0.3417857
0.9196699,-0.5908078,-0.2140392
0.8802336,-0.6458076,-0.1083516
0.8107376,-0.5665754,-0.06236697
0.7828715,-0.421722,-0.07750166
0.780694,-0.303729,-0.1260944
0.7980216,-0.2009764,-0.1935757
0.814407,-0.1601381,-0.2481447
0.8440221,-0.1907367,-0.2184492
0.8621555,-0.1779114,-0.1989468
0.8479239,-0.1626168,-0.1950822
0.8546279,-0.1404434,-0.1825612
0.869601,-0.08631892,-0.210985
0.8958953,-0.08239831,-0.1849962
0.9515101,-0.0957989,-0.1615837
1.003747,-0.1097562,-0.1706973
1.029307,-0.1271467,-0.1355328
1.023417,-0.1210911,-0.1363137
1.02444,-0.1147578,-0.1404564
1.041199,-0.1049922,-0.1327992
1.05895,-0.1028496,-0.1366331
1.106818,-0.1323525,-0.08554724
1.167594,-0.211053,-0.03801424
1.196624,-0.2925037,-0.06224968
1.204967,-0.2730091,-0.1706889
1.212447,-0.2030788,-0.3191258
1.178868,-0.1963214,-0.4071851
1.102697,-0.324726,-0.4083608
1.032639,-0.5990754,-0.3293303
0.9423587,-0.7634311,-0.2115903
0.9294556,-0.6185235,-0.1585434
1.105285,-0.3851775,-0.1941307
1.261765,-0.2361661,-0.2149704
1.244095,-0.1553157,-0.2273807
1.144634,-0.1637114,-0.2719327
1.047967,-0.1962693,-0.2512659
0.9714316,-0.2556552,-0.216112
0.8998766,-0.3228707,-0.2131171
0.8277094,-0.2861915,-0.1467333
0.7380436,-0.2789478,-0.07669387
0.7026991,-0.304244,-0.06679012
0.7393604,-0.2563666,-0.06699951
0.6972862,-0.2368617,-0.04228601
0.6667059,-0.2250716,-0.025485
0.7115082,-0.2053403,-0.02513509
0.7079092,-0.1792136,0.01520802
0.7301885,-0.130762,0.0263842
0.7737599,-0.1514666,0.002807413
0.8336789,-0.172542,0.01905487
0.9857115,-0.1954105,0.004403795
1.100194,-0.293687,-0.01745655
1.133126,-0.3242882,0.00434697
1.13002,-0.2469215,0.05447357
1.192279,-0.1354294,0.105945
1.448151,-0.05589697,0.0199348
1.686857,-0.08407376,-0.1525367
1.657875,-0.2142449,-0.2208275
1.371929,-0.4717339,-0.1897744
1.005239,-0.6882962,-0.1032647
0.7805204,-0.5174281,-0.04115236
0.7269146,-0.2685174,-0.121779
0.7714097,-0.3342486,-0.2809881
0.894101,-0.3623034,-0.3695301
1.044245,-0.3936982,-0.3605384
1.084944,-0.619136,-0.2812359
0.9413739,-0.6422003,-0.1512614
0.7809148,-0.5341235,-0.05010714
0.7572625,-0.4634986,-0.04543439
0.8116267,-0.3102504,-0.1198907
0.8505442,-0.2269094,-0.2048311
0.851009,-0.2088576,-0.2312492
0.848606,-0.1964348,-0.2091676
0.8500398,-0.1946982,-0.1890643
0.8443806,-0.1416425,-0.1729825
0.8664807,-0.1019837,-0.1590439
0.9040661,-0.06455578,-0.1711988
0.9223546,-0.0457798,-0.1778096
0.9342943,-0.07832998,-0.1493304
0.9530504,-0.1048075,-0.1344439
0.9735127,-0.1406651,-0.1360082
0.9788189,-0.1575608,-0.1273385
0.9872739,-0.1529362,-0.116519
1.014494,-0.1373543,-0.1099915
1.04864,-0.08164543,-0.1046697
1.123368,-0.05625243,-0.07592389
1.212714,-0.1285827,-0.04308414
1.243392,-0.2367137,-0.0567265
1.238741,-0.2421471,-0.1527636
1.227976,-0.1727672,-0.2911726
1.18191,-0.1875998,-0.3276647
1.081229,-0.3654951,-0.2951206
0.9800846,-0.6041896,-0.2960875
0.9438907,-0.6219363,-0.2328866
0.9489094,-0.4907283,-0.130035
1.017081,-0.4342669,-0.1206608
1.181983,-0.2958263,-0.1684938
1.28145,-0.1607252,-0.2165329
1.222451,-0.1931676,-0.2444025
1.123511,-0.2247102,-0.2335194
1.008055,-0.2704295,-0.2050588
0.8931955,-0.3314034,-0.1690492
0.86057,-0.3096139,-0.1265502
0.8371783,-0.2752908,-0.0888557
0.7850608,-0.2467101,-0.06325717
0.7373114,-0.2370847,-0.05925668
0.6704082,-0.2528301,-0.06352251
0.6584792,-0.2442943,-0.04674105
0.700715,-0.2282742,-0.02207529
0.7156066,-0.1924218,-0.01688465
0.746628,-0.1391464,-0.01478567
0.7954652,-0.1290961,-0.007038445
0.8900738,-0.1785293,-0.0208054
1.041062,-0.2937799,-0.0652549
1.100899,-0.4496684,-0.07996036
1.078687,-0.4983464,0.0233226
1.10284,-0.0774987,-0.1944784
1.051417,-0.08284829,-0.1740755
1.0634,-0.04068406,-0.148287
1.065282,-0.02090772,-0.1127866
1.118904,-0.07239774,-0.08660566
1.249724,-0.2012342,-0.06642954
1.255444,-0.2804672,-0.09085113
1.239877,-0.1937579,-0.2349588
1.260727,-0.1226104,-0.3718467
1.167489,-0.2310125,-0.3536947
1.024574,-0.4410806,-0.3163262
0.9433522,-0.6370979,-0.3271387
0.9230784,-0.6854939,-0.2465949
0.9746713,-0.551032,-0.1488404
1.128056,-0.423836,-0.1610984
1.280953,-0.3277894,-0.1982839
1.295645,-0.2306102,-0.2490297
1.189396,-0.2512493,-0.2866304
1.033376,-0.2841116,-0.2388594
0.897078,-0.2882443,-0.1887468
0.8092537,-0.3138361,-0.1398332
0.7577398,-0.2741606,-0.07686124
0.7219845,-0.2467156,-0.05483671
0.6716997,-0.2429257,-0.04495219
0.6281065,-0.2331189,-0.03757127
0.6044897,-0.2539119,-0.01919169
0.6128984,-0.2403291,0.02045883
0.655448,-0.2273227,0.03842956
0.7060407,-0.2046016,0.03157072
0.7934717,-0.1722544,0.02031096
0.932869,-0.222334,0.01525839
1.111859,-0.3069576,0.001513828
1.227046,-0.3911784,0.007352133
1.221931,-0.3898778,0.09999523
1.307316,-0.2407768,0.1816988
1.522929,-0.08563114,0.07971225
1.612894,-0.07908753,-0.09470729
1.49502,-0.3031265,-0.1346968
1.31763,-0.5549467,-0.1269191
1.118312,-0.5543787,-0.1439803
0.8216808,-0.4289436,-0.157686
0.6598313,-0.3745789,-0.2333822
0.8220769,-0.3564313,-0.3279121
0.988668,-0.3555785,-0.3993132
0.9883098,-0.4137844,-0.4160879
0.9633146,-0.502712,-0.3048415
0.8987638,-0.5478832,-0.1765328
0.802529,-0.5197304,-0.1011972
0.7680583,-0.4466544,-0.07902585
0.7671419,-0.3412438,-0.1345484
0.769026,-0.2397031,-0.1914019
0.7819736,-0.2100489,-0.211884
0.7942171,-0.1923228,-0.1921005
0.8017215,-0.1457338,-0.1712326
0.8036505,-0.1194183,-0.1896965
0.8095715,-0.103044,-0.1856108
0.8156582,-0.1200068,-0.1752774
0.8318575,-0.1477458,-0.1714564
0.8998532,-0.1486206,-0.1581065
1.00052,-0.1693874,-0.1796217
1.084308,-0.1772361,-0.1958114
1.108127,-0.1626286,-0.166189
1.062898,-0.123747,-0.1292936
1.045025,-0.02257716,-0.1068258
1.132618,0.02359444,-0.08517851
1.263165,-0.09546277,-0.07604678
1.333976,-0.2489942,-0.1482689
1.323141,-0.2607204,-0.2824076
1.250098,-0.2297691,-0.3729455
1.133175,-0.3291845,-0.3911153
1.019835,-0.5442013,-0.3430432
0.953681,-0.728141,-0.2649214
1.004234,-0.6678503,-0.2325565
1.208902,-0.481233,-0.2281827
1.394614,-0.3944775,-0.2298217
1.370557,-0.2928965,-0.2685715
1.213176,-0.21697,-0.2870866
1.048393,-0.2267932,-0.2457111
0.8561742,-0.2446476,-0.184502
0.7219305,-0.3074233,-0.1313672
0.6905724,-0.3079677,-0.09485272
0.6210598,-0.2734032,-0.06365131
0.5850313,-0.283315,-0.05068031
0.6083623,-0.2347285,-0.04270418
0.5755073,-0.2087481,-0.01836446
0.5855836,-0.2078719,-0.008966578
0.6246728,-0.1783259,0.01339524
0.6398006,-0.1626124,0.04309852
0.6974313,-0.1513064,0.02721366
0.7936197,-0.1706278,0.008182778
0.958183,-0.2222842,0.001153714
1.134201,-0.3467213,-0.01189852
1.22292,-0.4358367,0.02800754
1.253035,-0.3383636,0.1515469
1.376372,-0.1864435,0.2223895
1.646722,-0.06428844,0.0375081
1.73988,-0.1132799,-0.2650982
1.53078,-0.3896781,-0.3037685
1.245511,-0.6203546,-0.1374996
0.9416334,-0.6343571,-0.07473414
0.7093928,-0.4275533,-0.1362325
0.6951607,-0.2364972,-0.246472
0.8256274,-0.2491293,-0.3609311
0.962822,-0.3276171,-0.4372438
1.04264,-0.4359491,-0.4188843
0.9990417,-0.5233062,-0.2905976
0.8749221,-0.521954,-0.1446493
0.8104468,-0.4981514,-0.05706329
0.7818523,-0.4390263,-0.09646672
0.7689556,-0.3422696,-0.1630345
0.7780849,-0.2584971,-0.1681355
0.7756621,-0.2479041,-0.2129442
0.7978276,-0.2465016,-0.2021662
0.7859272,-0.1831329,-0.1559419
0.7683829,-0.1529792,-0.1575863
0.8026821,-0.10623,-0.1240736
0.8190588,-0.04309018,-0.1462839
0.8522848,-0.04845516,-0.1725563
0.8680915,-0.05301143,-0.1646791
0.9019819,-0.08725902,-0.2014628
1.041986,-0.1524141,-0.1831066
1.131792,-0.1669962,-0.1581125
1.118219,-0.09248643,-0.1417737
1.106246,0.07046673,-0.08961908
1.152533,0.1432514,-0.03949083
1.229479,0.01139019,-0.002699303
1.296841,-0.1780931,-0.1288051
1.339302,-0.2436159,-0.3319493
1.287714,-0.2463087,-0.3714402
1.167469,-0.3985073,-0.3150348
1.047373,-0.6155122,-0.2692904
0.9951745,-0.6453773,-0.236124
1.049131,-0.542513,-0.1846197
1.134721,-0.4743428,-0.1926535
1.31039,-0.3592084,-0.2637012
1.439009,-0.2397226,-0.251453
1.264018,-0.2808016,-0.2291928
1.015708,-0.2994066,-0.2027345
0.8739032,-0.2624338,-0.1372972
0.7922596,-0.2935229,-0.1322858
0.7521123,-0.2703672,-0.0947787
0.6734915,-0.23161,-0.0455771
0.6418343,-0.221018,-0.06656193
0.6499714,-0.189096,-0.05713006
0.6109624,-0.1931297,-0.0303658
0.6260289,-0.1913793,0.007564901
0.6400981,-0.177417,0.05667034
0.6564397,-0.1768966,0.05599541
0.735073,-0.1561327,0.04401837
0.8227449,-0.1656815,0.02538401
1.009419,-0.2552227,-0.0316762
1.219718,-0.397434,-0.05665457
1.293473,-0.442083,0.02887777
1.322769,-0.2845615,0.1155518
1.438203,-0.08126065,0.04577371
1.580927,-0.04356653,-0.1176553
1.547994,-0.2589745,-0.2460941
1.361984,-0.5715265,-0.2485316
1.097888,-0.6553345,-0.1620212
0.7987313,-0.494404,-0.169638
0.7243072,-0.372354,-0.2457996
0.8631902,-0.383949,-0.3232547
0.9879149,-0.4355287,-0.3989994
1.036993,-0.4922239,-0.3584594
0.9867978,-0.5284813,-0.2597009
0.9177344,-0.5183237,-0.163662
0.880505,-0.4928678,-0.09614752
0.8223855,-0.4147712,-0.1278714
0.7601144,-0.2999347,-0.1031689
0.7484626,-0.2905489,-0.0859344
0.7796788,-0.2966287,-0.1744925
0.7769483,-0.2133576,-0.1961577
0.7780481,-0.1998956,-0.1991836
0.8086108,-0.200869,-0.1907938
0.8075386,-0.1069574,-0.1593964
0.8201344,-0.07632026,-0.1785288
0.830879,-0.08221562,-0.1798517
0.8399591,-0.0368743,-0.1956844
0.8954616,-0.03707794,-0.1983792
0.9468314,-0.0691002,-0.1735275
1.016777,-0.08982127,-0.1948547
1.073403,-0.1142846,-0.1844782
1.069342,-0.1126228,-0.1740964
1.068015,-0.07382505,-0.1700862
1.073701,-0.04041807,-0.12243
1.137508,-0.08704849,-0.1030528
1.257221,-0.2140282,-0.11985
1.32901,-0.3142786,-0.2142548
1.335725,-0.3318334,-0.3513614
1.254726,-0.3939048,-0.3750995
1.094853,-0.5899576,-0.3064528
0.9305902,-0.6910483,-0.2377375
0.8640885,-0.5596792,-0.1847702
1.000033,-0.3913208,-0.1681789
1.227964,-0.2768173,-0.2008675
1.319796,-0.1952206,-0.2330286
1.257051,-0.1878559,-0.2724648
1.123392,-0.2279498,-0.3031833
0.9407103,-0.2666051,-0.2399979
0.8083537,-0.3027789,-0.1686956
0.7696619,-0.3101876,-0.1177756
0.711476,-0.292606,-0.03034749
0.6747346,-0.2843811,-0.003023991
0.6878994,-0.2470787,-0.02453166
0.6475717,-0.1978415,-0.01652587
0.6425815,-0.1864761,-0.01151868
0.6820358,-0.1542078,-0.01055577
0.6767165,-0.1174217,0.004163358
0.7195953,-0.1261901,0.007114354
0.8002353,-0.1437575,-0.01011842
0.9395777,-0.2130304,-0.02976899
1.154742,-0.3599885,-0.04107478
1.223426,-0.4356993,0.00285857
1.215571,-0.3442152,0.09421145
1.379126,-0.1869303,0.1050901
1.608518,-0.08822355,-0.04491908
1.649974,-0.1582206,-0.2710822
1.458333,-0.4092388,-0.3388173
1.183517,-0.5981854,-0.204274
0.8940006,-0.5539096,-0.1421336
0.7154973,-0.4201631,-0.2431294
0.8125692,-0.3834781,-0.3449163
0.9674476,-0.4325541,-0.3986523
0.9830163,-0.4817583,-0.4126789
0.9685202,-0.5241939,-0.314104
0.9077738,-0.5329393,-0.1537458
0.80694,-0.5009466,-0.09275245
0.7694903,-0.4333729,-0.1008524
0.7451066,-0.3223597,-0.1188433
0.7440533,-0.2419985,-0.1793958
0.771885,-0.2057036,-0.2034564
0.7820941,-0.1932345,-0.1772531
0.8053719,-0.1884293,-0.1746493
0.8015684,-0.156264,-0.1764404
0.8059985,-0.1240786,-0.185085
0.848577,-0.09359825,-0.2013063
0.8826475,-0.08151061,-0.1982439
0.951145,-0.08744737,-0.1943627
1.013535,-0.08948423,-0.1932259
1.055314,-0.1102011,-0.1842904
1.074855,-0.1058016,-0.1660533
1.028713,-0.08545889,-0.1408312
1.011653,-0.05503361,-0.1271122
1.040396,0.02897984,-0.1277845
1.110802,0.04892564,-0.1100689
1.260527,-0.09086989,-0.1013369
1.37443,-0.2791312,-0.1955953
1.373236,-0.3410097,-0.3351536
1.260463,-0.3280658,-0.3633059
1.07237,-0.4647373,-0.3009472
0.9273916,-0.6534239,-0.2414905
0.8969548,-0.6406888,-0.1774315
1.015581,-0.5037109,-0.1474393
1.242213,-0.3840454,-0.1989708
1.353099,-0.2949939,-0.2315217
1.271049,-0.26253,-0.2238011
1.162761,-0.2245151,-0.2444771
1.063473,-0.2091466,-0.2350578
0.8996544,-0.2973743,-0.1711573
0.7328595,-0.3246897,-0.111405
0.7086755,-0.2913957,-0.09111845
0.755119,-0.2826849,-0.09400673
0.6825589,-0.2168533,-0.06347399
0.6384539,-0.184937,-0.04616455
0.6702523,-0.1988615,-0.05294254
0.6104563,-0.1707869,-0.002962139
0.6126831,-0.1410777,0.03774268
0.663973,-0.1249129,0.02590958
0.6828442,-0.1383545,0.01382
0.8225262,-0.1575583,-0.007100496
0.9702426,-0.2409173,-0.02820988
1.099374,-0.4305061,-0.03090869
1.19232,-0.5163095,0.0229449
1.152487,-0.3983675,0.1496955
1.268132,-0.1830098,0.194979
1.519403,-0.01764337,0.02366192
1.602394,-0.06267236,-0.2305707
1.520359,-0.3589704,-0.3027443
1.318328,-0.680126,-0.1921722
1.02965,-0.7132282,-0.1441344
0.7511808,-0.5002589,-0.2044302
0.7022546,-0.3338589,-0.2871355
0.894243,-0.3191839,-0.4130256
1.037858,-0.3801053,-0.4803927
1.05098,-0.4629366,-0.3610224
0.9445879,-0.5283195,-0.2109843
0.8143763,-0.537422,-0.1386536
0.7776005,-0.4936865,-0.08498134
0.7600478,-0.4056502,-0.1019221
0.7683299,-0.3063344,-0.1580312
0.8043232,-0.2284951,-0.1849177
0.8422501,-0.1850662,-0.2138525
0.8493539,-0.1540335,-0.1843262
0.7872001,-0.1075614,-0.1369747
0.7647728,-0.09032886,-0.1423539
0.7831509,-0.08525983,-0.1397412
0.8057849,-0.07792159,-0.1463988
0.8516267,-0.108457,-0.1513309
0.8993125,-0.1454385,-0.1494836
0.9693918,-0.1600949,-0.173079
1.029273,-0.1297297,-0.1791697
1.088099,-0.08489257,-0.1907521
1.128325,-0.05994104,-0.2041621
1.110328,-0.01077036,-0.1852992
1.149207,0.006686704,-0.1351951
1.23055,-0.1176706,-0.05572282
1.29228,-0.3412334,-0.07329952
1.330413,-0.4407317,-0.2175837
1.279383,-0.3627576,-0.3566201
1.160833,-0.3625712,-0.3920855
1.016594,-0.4972319,-0.2810389
0.9359723,-0.5698487,-0.1812154
1.008664,-0.4927841,-0.1926221
1.156319,-0.3621308,-0.2104918
1.312827,-0.3051622,-0.2403978
1.330538,-0.2863721,-0.2675859
1.133591,-0.2727846,-0.2441882
0.9316149,-0.2930658,-0.2098411
0.7764827,-0.2994573,-0.1677904
0.68611,-0.2973899,-0.1242185
0.6832348,-0.2693466,-0.08115593
0.6300077,-0.207742,-0.04248516
0.6249508,-0.2125382,-0.03463228
0.6567199,-0.2441301,-0.03736164
0.6112926,-0.2490842,-0.02228407
0.6337699,-0.2523342,0.009928158
0.6771984,-0.2233986,0.03224089
0.7461534,-0.2015012,0.0358804
0.9186615,-0.2296034,0.03047618
1.042003,-0.2965861,0.01815079
1.116933,-0.4037007,0.02236939
1.186238,-0.4530572,0.07757752
1.251309,-0.3081152,0.1646444
1.393469,-0.05754284,0.1585668
1.591872,0.02033793,0.005264372
1.651952,-0.1758434,-0.1676389
1.411438,-0.4733602,-0.2189266
1.054102,-0.6108506,-0.1691345
0.7941316,-0.5010778,-0.1920596
0.7018325,-0.380851,-0.2973567
0.8736233,-0.3883099,-0.3712339
1.082218,-0.413603,-0.3990879
1.062001,-0.4754227,-0.3472125
0.9707212,-0.5682002,-0.2570282
0.8985299,-0.5781028,-0.1743419
0.7946618,-0.5239837,-0.1181632
0.7613556,-0.4350722,-0.1500206
0.7720867,-0.3266674,-0.1673972
0.7469831,-0.2475209,-0.1814042
0.7644112,-0.2016322,-0.2289503
0.7835515,-0.1664493,-0.1927578
0.7725411,-0.1107668,-0.1659586
0.7795709,-0.08775224,-0.1604883
0.7710656,-0.1058487,-0.1297211
0.7766529,-0.09144886,-0.1452684
0.8274851,-0.1062923,-0.1521817
0.9322772,-0.1398941,-0.1702534
1.045958,-0.1314348,-0.1906509
1.064958,-0.1319584,-0.1710523
1.06318,-0.1182208,-0.1817994
1.071553,-0.05755948,-0.1775361
1.040295,0.02360163,-0.1544048
1.062978,0.04068771,-0.1351518
1.147279,-0.07194521,-0.07829168
1.232127,-0.2315217,-0.0730276
1.283874,-0.3287036,-0.2435449
1.25978,-0.3020972,-0.4703371
1.201429,-0.3194358,-0.4527746
1.098635,-0.5533144,-0.303949
0.9987788,-0.7271793,-0.2696757
1.046745,-0.6529088,-0.2257628
1.197908,-0.4961049,-0.2244176
1.383348,-0.3441281,-0.2712487
1.451654,-0.2454605,-0.254243
1.281204,-0.2505462,-0.2945627
1.089903,-0.2773999,-0.2666375
0.9344877,-0.2725768,-0.157591
0.7895005,-0.285116,-0.1244035
0.730635,-0.2585361,-0.06939525
0.6510941,-0.1801348,-0.06174766
0.5905607,-0.1643095,-0.07869965
0.582155,-0.178811,-0.03213501
0.5337252,-0.2060307,-0.02956796
0.536167,-0.2553151,-0.006233964
0.584696,-0.2571836,0.03286807
0.6382621,-0.2314744,0.03696069
0.7365936,-0.2008236,0.04628329
0.8730844,-0.194935,0.0117827
1.019402,-0.2598369,-0.03642797
1.08839,-0.3783563,-0.02245109
1.176613,-0.4506067,0.1163239
1.358897,-0.3377362,0.256188
1.484029,-0.1150096,0.1295102
1.55127,-0.04865584,-0.1219081
1.486621,-0.3476909,-0.220708
1.256076,-0.746463,-0.1982188
1.02375,-0.7117536,-0.1734879
0.7933203,-0.4483916,-0.2234387
0.7483453,-0.3426166,-0.3080543
0.9190501,-0.3011282,-0.3667264
0.9699244,-0.3893603,-0.3845004
0.9502847,-0.5160014,-0.3024178
0.9168536,-0.5149073,-0.2030977
0.8312341,-0.5186594,-0.150847
0.8105658,-0.4556383,-0.1056482
0.7888497,-0.3681254,-0.1235528
0.7565441,-0.3046124,-0.1567965
0.7259242,-0.1715091,-0.1721481
0.7052309,-0.164251,-0.1896698
0.776093,-0.2027632,-0.161895
0.8148586,-0.137589,-0.1537639
0.7996194,-0.137318,-0.1595896
0.8040258,-0.154915,-0.152352
0.8120571,-0.1323196,-0.1739243
0.8386128,-0.1393122,-0.1800102
0.8717925,-0.1532394,-0.1853323
0.9524288,-0.171401,-0.1994072
1.043285,-0.1957937,-0.1998692
1.091082,-0.1789848,-0.1927966
1.138961,-0.1200163,-0.1760179
1.128153,-0.0299587,-0.1745413
1.127814,0.05025024,-0.1392222
1.232065,-0.004045891,-0.07655562
1.319453,-0.1178323,-0.09869491
1.340607,-0.1646,-0.2077876
1.329227,-0.2341802,-0.314449
1.242902,-0.3558069,-0.3176901
1.040716,-0.540555,-0.2674398
0.8503656,-0.6771241,-0.2489623
0.8411734,-0.6002925,-0.1768372
1.026401,-0.5084574,-0.1171743
1.304218,-0.4386478,-0.1721314
1.419336,-0.2998805,-0.2256991
1.305549,-0.2676041,-0.2521546
1.156149,-0.2778854,-0.2280377
0.9358911,-0.2604725,-0.1317965
0.7284951,-0.282221,-0.08508616
0.7054746,-0.2496071,-0.04884606
0.6786614,-0.197809,-0.01306041
0.6353837,-0.1558523,-0.03279162
0.6392043,-0.1251242,-0.002550019
0.5847304,-0.1541706,0.03561308
0.5930857,-0.1498524,0.04647661
0.6733568,-0.1396207,0.08377047
0.731271,-0.1483153,0.0756516
0.8484101,-0.138478,0.03399792
0.9947552,-0.2096261,-0.01017299
1.130122,-0.3362833,-0.02434133
1.231668,-0.4485556,0.0559253
1.277394,-0.4712915,0.1539987
1.338339,-0.260815,0.1820913
1.44598,-0.006557674,0.09811877
1.558235,-0.05674485,-0.04941749
1.509667,-0.3282683,-0.1446297
1.321814,-0.5754885,-0.1709964
1.084979,-0.6750377,-0.1528722
0.7678678,-0.4895584,-0.1716541
0.7051527,-0.2921295,-0.2643293
0.9162165,-0.3644694,-0.3547551
1.019293,-0.4429164,-0.3979632
1.025198,-0.5167378,-0.3493025
0.9459838,-0.6046313,-0.2484398
0.853102,-0.5547697,-0.1618026
0.8351928,-0.5075883,-0.1064664
0.8009536,-0.4202679,-0.1333829
0.7916294,-0.3036227,-0.1600154
0.7742086,-0.2859892,-0.1646663
0.7759279,-0.246538,-0.2120217
0.8141092,-0.2067319,-0.2022078
0.7887508,-0.1581801,-0.1706944
0.7930916,-0.07462013,-0.1713117
0.8105232,-0.0462254,-0.1489555
0.8220678,-0.02941897,-0.1541191
0.8853074,-0.04353098,-0.1525626
0.9270449,-0.08671547,-0.1311848
0.9834683,-0.1021025,-0.1313587
1.053565,-0.1094135,-0.114997
1.071479,-0.09395201,-0.1214716
1.071768,-0.08354604,-0.1325146
1.089664,-0.05674398,-0.1024482
1.16467,-0.01980377,-0.04537739
1.2546,-0.1028623,0.01691363
1.287017,-0.2434058,-0.0590356
1.298057,-0.292645,-0.2550783
1.28234,-0.2931498,-0.3892038
1.172385,-0.4199675,-0.4159933
1.020661,-0.6499709,-0.2996425
0.9493946,-0.6834425,-0.1516312
0.995387,-0.5102031,-0.144831
1.158643,-0.3595209,-0.1909567
1.372132,-0.2448948,-0.2272732
1.419764,-0.1783676,-0.27535
1.254595,-0.169327,-0.2914571
1.11333,-0.1679152,-0.2669989
0.9626065,-0.2211632,-0.1975524
0.7057182,-0.2789272,-0.1073446
0.6577981,-0.2659774,-0.06981265
0.7192932,-0.2242913,-0.05889555
0.5827291,-0.1900545,-0.007621578
0.5648874,-0.1991281,0.006357129
0.6518773,-0.2278411,-0.02146261
0.6139161,-0.2495997,0.03063933
0.6760975,-0.2716609,0.06457546
0.7795986,-0.25403,0.02430173
0.8989728,-0.2353893,0.01485762
1.07033,-0.2649355,0.01035225
1.059787,-0.3384847,0.02489575
1.091472,-0.4595059,0.09952706
1.196129,-0.4846191,0.2024475
1.190959,-0.2917474,0.2418381
1.359741,-0.07585576,0.120332
1.532178,-0.08269169,-0.06361396
1.486366,-0.3029448,-0.166621
1.36125,-0.5349843,-0.1210074
1.066649,-0.5718409,-0.06396828
0.7756709,-0.4373436,-0.1727915
0.7512384,-0.3523168,-0.2809955
0.9147076,-0.3675435,-0.3843051
1.054442,-0.3897106,-0.5074038
1.022936,-0.4616258,-0.3990695
0.9669468,-0.584183,-0.2016272
0.9413646,-0.6037193,-0.1113373
0.8617411,-0.505853,-0.0647604
0.8012146,-0.4024257,-0.07965507
0.7714635,-0.3035015,-0.1205915
0.7564471,-0.2111048,-0.1855947
0.7515977,-0.1691909,-0.2216226
0.747064,-0.15847,-0.1747464
0.7651299,-0.1551641,-0.1708218
0.7823326,-0.1415286,-0.1550937
0.812237,-0.09919733,-0.1239461
0.8564968,-0.05144438,-0.1638164
0.8759832,-0.02121623,-0.1686759
0.9008375,-0.03654723,-0.1616165
0.970086,-0.08264782,-0.1716161
1.058995,-0.1296865,-0.1626958
1.090104,-0.153416,-0.1786384
1.075591,-0.08390207,-0.1789884
1.128561,-0.002265668,-0.142985
1.240334,-0.03026816,-0.07672646
1.292094,-0.1284392,-0.02346305
1.274771,-0.2095323,-0.08262217
1.297977,-0.1713852,-0.234298
1.332817,-0.1350196,-0.3840038
1.216563,-0.3221482,-0.3837072
0.9727199,-0.6219454,-0.2589039
0.8139054,-0.7799104,-0.2001106
0.8889887,-0.6601217,-0.1624507
1.129561,-0.4370953,-0.135844
1.32977,-0.3378893,-0.1780303
1.359303,-0.2551527,-0.2139606
1.272377,-0.1916297,-0.2680514
1.165596,-0.2020539,-0.2822936
0.9597631,-0.2176045,-0.2094239
0.7547345,-0.2702204,-0.1543325
0.7381363,-0.2727132,-0.08552877
0.6843713,-0.2419785,-0.03927316
0.594591,-0.2517598,-0.04271699
0.6023862,-0.2306553,-0.0156144
0.5618093,-0.2467594,-0.006940945
0.5838807,-0.2573089,0.004341478
0.6791341,-0.2240891,0.03677121
0.7743458,-0.2020147,0.03646203
0.9251137,-0.167114,0.02041555
1.005646,-0.226734,-0.01967526
1.072939,-0.3535253,-0.0401205
1.138273,-0.4154849,0.01723964
1.178742,-0.3808684,0.1055644
1.371489,-0.2479133,0.1162476
1.581703,-0.1638407,-0.03117216
1.619759,-0.2319741,-0.2227899
1.446287,-0.4128622,-0.2463865
1.187088,-0.5745693,-0.08929858
1.083448,-0.5735536,-0.007427993
0.9634769,-0.454984,-0.1624117
0.7630685,-0.3753748,-0.3425479
0.8154729,-0.4204937,-0.3498986
1.011775,-0.4977259,-0.3073878
1.050532,-0.5610177,-0.3189479
1.022225,-0.618121,-0.2915303
0.9547972,-0.5750008,-0.2049957
0.8343795,-0.5135904,-0.1095707
0.7952589,-0.4603298,-0.06662672
0.770926,-0.3369146,-0.1252316
0.7429745,-0.2696028,-0.1734203
0.7604908,-0.2573,-0.1887607
0.7550353,-0.2319319,-0.2027233
0.7611658,-0.2158376,-0.1633269
0.7613214,-0.1543302,-0.1502623
0.7550169,-0.07307635,-0.1496575
0.7830037,-0.03447375,-0.1346307
0.8173333,-0.03771449,-0.1567928
0.8879674,-0.06870301,-0.1473386
0.9601862,-0.09876599,-0.1553782
1.025134,-0.1172154,-0.1841562
1.089714,-0.09018497,-0.1719068
1.122283,-0.04810569,-0.1831643
1.144766,-0.04024445,-0.1716707
1.132752,-0.02240701,-0.1154562
1.155753,-0.03828519,-0.04569072
1.243475,-0.1592412,-0.01600095
1.322273,-0.3088799,-0.1272585
1.373148,-0.3387705,-0.2615702
1.257876,-0.2870458,-0.3019823
1.028804,-0.3434474,-0.3144658
0.9167229,-0.4759471,-0.3245362
0.9021038,-0.5763036,-0.2836307
0.9606203,-0.58391,-0.2005219
1.121183,-0.4743828,-0.1770984
1.314905,-0.3753153,-0.2017861
1.380543,-0.2747232,-0.2161545
1.238252,-0.1837817,-0.2374425
1.06646,-0.1879452,-0.2232648
0.9214322,-0.1763394,-0.1785052
0.7945461,-0.1860751,-0.1455112
0.7713492,-0.220338,-0.1049905
0.7040843,-0.2219905,-0.05753026
0.5881441,-0.2784876,-0.01051363
0.578725,-0.2825855,0.004435211
0.5925768,-0.2182942,-0.007463538
0.6035583,-0.1905053,0.005764478
0.6403565,-0.1805106,0.009580036
0.7166469,-0.1711925,0.007662681
0.8756952,-0.1416,0.02512984
1.012062,-0.203615,0.004228689
1.055927,-0.3159173,-0.008628037
1.109392,-0.3478547,0.04467537
1.206781,-0.4035704,0.08835295
1.293159,-0.3434306,0.09070971
1.45094,-0.1381002,0.07028926
1.628476,-0.1021517,-0.03016623
1.556296,-0.2257852,-0.1908387
1.321084,-0.4061785,-0.2101496
1.061411,-0.5469274,-0.1221256
0.7792122,-0.4615152,-0.146172
0.7187013,-0.3265705,-0.2313808
0.881717,-0.3267033,-0.338289
1.049644,-0.378312,-0.4067426
1.102306,-0.485424,-0.3116614
0.98397,-0.5606563,-0.1959288
0.884112,-0.5350146,-0.09456503
0.8420062,-0.4983932,-0.03128088
0.792347,-0.3984306,-0.1092184
0.800589,-0.270808,-0.1576294
0.7858712,-0.2177764,-0.171526
0.7800541,-0.1946579,-0.2069483
0.8024883,-0.1877961,-0.1732718
0.7779516,-0.1500894,-0.1486546
0.7740407,-0.07862135,-0.1323157
0.7870289,-0.04453695,-0.1147764
0.845783,-0.01565953,-0.1376953
0.9431102,0.01767605,-0.1301313
0.9564546,-0.000635017,-0.1285179
0.9418238,-0.06280629,-0.1363735
0.9822446,-0.08803763,-0.1212995
1.046727,-0.0838455,-0.1405873
1.116611,-0.06146679,-0.1492681
1.184415,0.02287007,-0.1113674
1.222809,0.0375376,-0.04000015
1.246689,-0.09346193,0.005248925
1.285343,-0.2475767,-0.1129312
1.306635,-0.3014457,-0.3112593
1.255866,-0.3003922,-0.3960859
1.113672,-0.4593298,-0.375803
0.9628866,-0.6752257,-0.2822926
0.9119662,-0.6838393,-0.1404306
1.003172,-0.5361042,-0.09852082
1.208053,-0.3378884,-0.1832721
1.403413,-0.1581256,-0.2564365
1.436098,-0.07043239,-0.2906215
1.259925,-0.07417031,-0.2915631
1.080621,-0.1057017,-0.2457133
1.01516,-0.1260714,-0.2046674
0.8460627,-0.1877096,-0.1395974
0.6083091,-0.2604108,-0.05130914
0.5870568,-0.2593359,-0.04497156
0.6417701,-0.2303692,-0.0509445
0.5432422,-0.2369259,0.005679934
0.5352214,-0.2370287,0.01342554
0.6321296,-0.2256928,0.01415178
0.6484417,-0.2385725,0.07087944
0.799194,-0.2167026,0.05054515
0.9789011,-0.2025349,0.005508537
1.047392,-0.2731586,0.005697792
1.137068,-0.3542941,-0.03617672
1.123395,-0.4014096,-0.01516694
1.151181,-0.3971327,0.1380041
1.296241,-0.3247878,0.2380486
1.464646,-0.1992495,0.05363625
1.656507,-0.1469348,-0.2761744
1.522609,-0.3004434,-0.300879
1.205204,-0.4689369,-0.0949458
0.9834867,-0.4669939,-0.009236298
0.7384952,-0.3925563,-0.0988051
0.7656515,-0.3523805,-0.278339
0.9566545,-0.3655089,-0.3819508
0.9970887,-0.4029091,-0.4259552
1.042005,-0.4597033,-0.3773753
0.9658727,-0.5153006,-0.2089729
0.8401624,-0.5100431,-0.1486619
0.8056708,-0.4437942,-0.1164585
0.6988927,-0.3459197,-0.1060418
0.6673108,-0.2681147,-0.1857105
0.7034365,-0.236219,-0.1952274
0.7300801,-0.200775,-0.2260555
0.8258731,-0.1502997,-0.2343381
0.8409592,-0.1089632,-0.1860882
0.819405,-0.07211639,-0.1902172
0.8447261,-0.06024028,-0.1565384
0.8650818,-0.07813373,-0.1739702
0.9394885,-0.08711566,-0.216019
1.039281,-0.09379883,-0.2058175
1.120687,-0.1024786,-0.2240544
1.138926,-0.1035838,-0.1800326
1.086432,-0.09386088,-0.137062
1.083064,-0.03938663,-0.1322692
1.180933,-0.003799852,-0.07532811
1.298369,-0.1018019,-0.05861134
1.299668,-0.2375086,-0.14847
1.248246,-0.2432109,-0.3013511
1.225041,-0.2457638,-0.3759544
1.092854,-0.445046,-0.3561337
0.9321761,-0.6664592,-0.3292338
0.9490944,-0.6687794,-0.2540847
1.108941,-0.5790565,-0.1967994
1.288113,-0.5187926,-0.2150048
1.373005,-0.3575312,-0.2305903
1.34795,-0.2123264,-0.2359655
1.240716,-0.2385916,-0.2497642
1.022907,-0.2409105,-0.2334581
0.829403,-0.2361158,-0.1767171
0.760048,-0.2758025,-0.1294729
0.6925561,-0.2460071,-0.07036005
0.6283304,-0.2421668,-0.01624939
0.5924553,-0.2339623,-0.01755974
0.540728,-0.2003482,-0.01150926
0.5303093,-0.2224787,-0.009826841
0.5457431,-0.212666,-0.0113421
0.568341,-0.2004797,0.0102011
0.6631313,-0.1994766,0.004615788
0.7944742,-0.1832992,0.01085749
0.9091875,-0.2205912,0.01930694
1.028317,-0.3141225,-0.006667601
1.114453,-0.4623587,0.0007790591
1.123254,-0.5351258,0.08145864
1.224717,-0.3767729,0.1685553
1.473971,-0.1146599,0.1016547
1.631719,-0.002652314,-0.09718957
1.61495,-0.1566274,-0.23142
1.412139,-0.4594513,-0.2238294
1.054173,-0.6605622,-0.1668124
0.7592766,-0.5977321,-0.2102279
0.6601741,-0.4360548,-0.3008249
0.8071485,-0.4040715,-0.3856439
1.027677,-0.4273208,-0.452898
1.049701,-0.4681308,-0.3690924
0.9838639,-0.5355396,-0.256569
0.9309023,-0.5315037,-0.1728655
0.8381627,-0.4857331,-0.08356232
0.7962056,-0.4022741,-0.1269945
0.810651,-0.2912562,-0.1750205
0.8190348,-0.2362098,-0.2136747
0.8318813,-0.200727,-0.2655612
0.8361187,-0.1781146,-0.1945974
0.8126768,-0.1512303,-0.1629762
0.7744741,-0.0945932,-0.1578557
0.7747089,-0.05834608,-0.1367842
0.8210169,-0.04519931,-0.1718872
0.8733737,-0.07212031,-0.1517421
0.9227149,-0.1089729,-0.159313
0.9623562,-0.111565,-0.1839141
1.015836,-0.09582688,-0.1607082
1.079285,-0.06791276,-0.166817
1.113071,-0.05270522,-0.1232744
1.125682,-0.0002435253,-0.09102396
1.152084,0.04465268,-0.1223352
1.238758,-0.09043502,-0.163209
1.334045,-0.3420026,-0.2608747
1.324407,-0.5092827,-0.3368391
1.181565,-0.5339433,-0.3311625
0.9846678,-0.5574078,-0.2964771
0.9172652,-0.6266046,-0.2647594
0.9862139,-0.5590368,-0.227244
1.022997,-0.4370138,-0.1772466
1.075257,-0.4156712,-0.1956336
1.230539,-0.3211094,-0.2654866
1.357046,-0.1942806,-0.294256
1.292294,-0.2317658,-0.2763562
1.045196,-0.2937308,-0.2125361
0.8009797,-0.2894381,-0.1468984
0.7197647,-0.3043012,-0.1288542
0.7521911,-0.26924,-0.1165318
0.7160505,-0.1944691,-0.07718403
0.649219,-0.2109224,-0.05209711
0.6675343,-0.2308222,-0.04388859
