accx,accy,accz
0.9249023,0.02340067,0.1525221
1.020792,-0.02363948,0.06109736
1.111807,-0.06618715,0.03753407
1.289348,-0.1641921,0.06794626
1.491322,-0.2788196,0.09122057
1.335716,-0.2397845,0.061579
1.143909,-0.1775083,0.03547338
1.330241,-0.2490972,0.05544817
1.431168,-0.3199837,0.05203294
1.247955,-0.4510629,0.05071766
1.007536,-0.6014668,0.08301584
0.7103641,-0.5011662,0.09150946
0.6711181,-0.326825,0.04111558
0.8998068,-0.256623,-0.04505783
0.9284833,-0.2338454,-0.06548571
0.9280813,-0.3573804,-0.01962606
0.9422583,-0.4895037,-0.01249573
0.8419033,-0.4571171,-0.04286307
0.8148567,-0.3602527,-0.06502934
0.7518434,-0.2411435,-0.05718203
0.78462,-0.1651043,-0.04586893
0.9640182,-0.1137854,-0.05557528
1.016258,-0.05218343,-0.0469201
1.051458,-0.05524264,-0.02758277
1.03294,-0.03774808,-0.005186952
0.9710233,-0.02255779,0.02115712
0.9567632,-0.04734179,0.0254595
0.8998174,-0.03028093,0.02837596
0.9334062,-0.04572394,0.01814064
0.9763978,-0.06287384,0.002243284
0.9924313,-0.06539898,0.02166397
1.088697,-0.0921655,0.03410154
1.091061,-0.00624857,0.03541835
1.074355,0.1710257,0.06223536
1.15026,0.2562629,0.1092383
1.264883,0.1014242,0.1275449
1.352921,-0.1842137,0.02896138
1.265975,-0.3561002,-0.124838
1.147745,-0.4839632,-0.1758662
1.109134,-0.5633443,-0.1521644
1.035239,-0.5378385,-0.1155833
1.042515,-0.5427854,-0.05682994
1.139274,-0.4984644,-0.0546733
1.178434,-0.3633784,-0.08587988
1.184308,-0.2429145,-0.06705596
1.11082,-0.1698888,-0.06718591
0.9604503,-0.1525489,-0.03928212
0.8670685,-0.1251128,0.04085535
0.7795549,-0.1096077,0.06427592
0.6704226,-0.08428397,0.09935121
0.6426538,-0.02208116,0.1399179
0.6989846,-0.03190345,0.1096895
0.7650095,-0.03854634,0.0906681
0.8545031,-0.05234094,0.085528
1.0037,-0.1105629,0.0842771
1.025837,-0.1040108,0.1145021
0.9109776,-0.08474845,0.1422409
0.8752857,-0.03057233,0.1696478
0.8595999,0.0353747,0.1643692
0.8872308,0.018622,0.08961579
1.014079,-0.006501033,0.008004667
1.167722,-0.111271,-0.01743101
1.3993,-0.3055388,0.003867869
1.502028,-0.3764647,0.006868953
1.448067,-0.354266,0.001611919
1.607318,-0.4288722,0.01186198
1.719331,-0.5158552,0.001592136
1.273823,-0.511901,0.03709155
0.6020319,-0.4978956,0.116344
0.4230139,-0.4024752,0.1496033
0.6976711,-0.2307764,0.1185037
0.9384128,-0.1878587,-0.0333744
1.159023,-0.2957095,-0.1705874
1.277387,-0.4206689,-0.1139367
1.064401,-0.4562296,-0.04260733
0.8474978,-0.3994161,-0.05141869
0.7771919,-0.3110473,-0.03210065
0.7359503,-0.2508248,-0.03037656
0.7992724,-0.195442,-0.05869848
0.8801561,-0.1145438,-0.0504201
0.9393114,-0.0970225,-0.05360109
0.97829,-0.09967563,-0.03685284
0.9227257,-0.06111534,0.02302857
0.9006773,-0.04967512,0.01763601
0.9022526,-0.03200746,0.001069766
0.8977668,-0.00898663,0.007361459
0.9556024,-0.02101963,-0.01002473
0.9834784,-0.0314937,0.01779851
1.024809,-0.0535021,0.05490941
1.060238,-0.07052328,0.05180094
0.9990376,0.005566505,0.05570422
0.9938713,0.1117926,0.08200328
1.107999,0.08126376,0.1041775
1.263853,-0.08384538,0.03820348
1.337294,-0.3026521,-0.1036179
1.337057,-0.4889746,-0.1927742
1.38583,-0.5682177,-0.17601
1.35633,-0.6033694,-0.1164288
1.243858,-0.5513517,-0.06845425
1.179349,-0.3849785,-0.02008989
1.085872,-0.2646967,-0.01414725
1.000394,-0.185941,-0.02809512
0.9734604,-0.1638868,0.006236692
0.9279562,-0.2187536,0.02012012
0.8554097,-0.2118561,0.02800903
0.7569202,-0.173149,0.06596571
0.7078006,-0.1375497,0.08330505
0.7721814,-0.1203585,0.09729352
0.8564274,-0.1584254,0.1001734
0.9034829,-0.160235,0.09909338
0.9052465,-0.1487246,0.121329
0.8451702,-0.1121276,0.1522353
0.7751926,-0.007473377,0.1844127
0.7641084,0.047652,0.1681591
0.7951271,0.05587806,0.1358775
0.8300877,0.0614419,0.123214
0.9368281,0.004300333,0.06282137
1.117903,-0.1230878,-0.02943929
1.209183,-0.2088484,-0.08330443
1.221081,-0.2136783,-0.03509506
1.270198,-0.2164308,0.05533062
1.288433,-0.1985371,0.07408928
1.374666,-0.1867206,0.03713476
1.635528,-0.243154,-0.0202718
1.68342,-0.3901773,-0.001855773
1.240728,-0.5966133,0.07955141
0.6674479,-0.6080912,0.1057626
0.5157059,-0.4157483,0.1110726
0.7481474,-0.2596262,0.04747172
0.9125265,-0.1942351,-0.05593017
1.059807,-0.2852366,-0.06787613
1.168456,-0.4189414,-0.07127599
0.9879214,-0.4210072,-0.09220834
0.8341223,-0.3704844,-0.07775767
0.7955165,-0.2691747,-0.0435188
0.7399727,-0.1759956,-0.02057298
0.8186321,-0.1568408,-0.02362783
0.9130438,-0.1142157,-0.0211098
0.9702315,-0.09127413,-0.02716332
1.00761,-0.07380435,-0.03637363
0.9652535,-0.007023365,-0.02997042
0.9789324,0.02274117,-0.03055405
0.9891037,0.02877904,-0.0208853
0.9674746,0.007673731,-0.0118821
0.9885983,-0.05871141,-0.01111257
0.9681485,-0.1000441,0.008782222
0.9601117,-0.141747,0.05036336
0.9705457,-0.1669093,0.07605798
0.9663088,-0.04408103,0.06428713
0.9995689,0.1795367,0.0783748
1.061258,0.2555949,0.1062286
1.221606,0.0861902,0.0721556
1.384691,-0.1717826,-0.02878702
1.320387,-0.3628956,-0.1514145
1.208661,-0.4242153,-0.1774039
1.221936,-0.4518903,-0.1219419
1.13405,-0.5702191,-0.102547
1.059207,-0.5935839,-0.05778757
1.206207,-0.4415948,-0.02024849
1.259455,-0.2922146,-0.06709769
1.18345,-0.1321582,-0.06683199
1.136662,-0.05437006,-0.02986661
1.038239,-0.1407062,-0.0112736
0.9367409,-0.1951798,0.03754837
0.8124198,-0.2223845,0.05838401
0.7007003,-0.219862,0.0700656
0.6888195,-0.1550407,0.09612241
0.6970298,-0.1573688,0.09019148
0.7420196,-0.1535525,0.08387153
0.7962771,-0.1214914,0.07104115
0.8239472,-0.1137066,0.07196745
0.8381294,-0.06243266,0.09991924
0.8428534,-0.0152255,0.114603
0.8907591,0.01843696,0.1202988
0.937503,0.03103296,0.09137557
1.011983,-0.03712551,0.03372888
1.172632,-0.1672026,-0.01216742
1.325772,-0.3198397,-0.008222506
1.35917,-0.3339361,0.03774303
1.284308,-0.1996588,0.0378267
1.280006,-0.1287009,0.004597828
1.378888,-0.1540822,-0.02025194
1.50091,-0.2828991,-0.01589242
1.493107,-0.508899,0.02989787
1.061068,-0.6150676,0.06156481
0.5170763,-0.4487361,0.08509546
0.5108272,-0.2095956,0.06144943
0.8374163,-0.1627398,-0.024656
1.020576,-0.2312803,-0.06933084
1.105622,-0.3229836,-0.07273781
1.042406,-0.418153,-0.0595925
0.8546504,-0.3828333,-0.06061328
0.8095784,-0.298943,-0.06239896
0.8049311,-0.2466932,-0.02591526
0.8346912,-0.1587501,-0.02760877
0.9276572,-0.131591,-0.0375362
0.9355438,-0.1419931,-0.03098401
0.96911,-0.0774716,-0.03285305
0.9518056,-0.02055773,-0.00455222
0.9028682,0.002013279,0.001014772
0.9642216,0.02118526,-0.01151396
0.983599,0.01106922,-0.01997428
1.027536,0.008408527,-0.04155801
1.062087,0.01201653,-0.02976442
1.007552,-0.01534694,0.008931685
0.9905451,-0.03631998,0.04875231
0.971406,-0.01871367,0.04623857
0.9909173,0.0750668,0.0290566
1.08908,0.1567896,0.05653858
1.245893,0.03775426,0.04361994
1.349413,-0.1742675,-0.01962886
1.21997,-0.2936095,-0.0885009
1.095615,-0.3886703,-0.1318901
1.10408,-0.477683,-0.1122263
1.068372,-0.5312334,-0.08201376
1.111259,-0.5693573,-0.04899894
1.285566,-0.4888127,-0.05327559
1.386076,-0.33389,-0.1012205
1.348431,-0.2402535,-0.08636628
1.194727,-0.1003426,-0.05732896
1.033217,0.06055159,-0.03051412
1.01461,0.0412949,0.001516571
0.9567137,-0.07493948,0.008925202
0.7439171,-0.1037791,0.07114764
0.6854231,-0.1241416,0.1016311
0.7722702,-0.1601532,0.0773985
0.7669797,-0.1516154,0.1081166
0.7939959,-0.1883332,0.113072
0.8695698,-0.1865881,0.121487
0.8866503,-0.1513804,0.1657002
0.887352,-0.1639621,0.160694
0.8490632,-0.06787905,0.16247
0.8370304,0.02454001,0.1744013
0.8876519,0.03305134,0.1503801
0.9649292,0.01992876,0.1030742
1.144794,-0.09496026,0.02854507
1.305426,-0.2130807,0.009075501
1.350464,-0.2627619,0.0902781
1.33817,-0.2264626,0.1528656
1.229626,-0.1076912,0.1436392
1.153097,0.009726945,0.1078561
1.269537,0.02756092,0.06569475
1.397795,-0.2115714,0.03373716
1.267776,-0.5352488,0.01831523
0.9236359,-0.6594137,0.03075062
0.6282799,-0.5425242,0.04297096
0.6486854,-0.3261462,-0.007477984
0.9307712,-0.2272406,-0.06103505
1.071914,-0.2183553,-0.05534151
1.092035,-0.3211815,-0.04219095
1.079885,-0.4492536,-0.04645041
0.9320636,-0.4029466,-0.04648935
0.8500299,-0.3068023,-0.03991262
0.819755,-0.1440003,-0.03372431
0.859539,-0.01280347,-0.02665659
0.9817715,-0.03883861,-0.02731496
0.976856,-0.03383464,-0.02957214
0.9870089,-0.0461019,-0.0173514
0.9517184,-0.06601813,-0.002712495
0.878577,-0.04234322,0.01397831
0.9283649,-0.03895889,0.01975807
0.9433996,-0.01042267,0.003977148
0.991762,-0.01258879,-0.007070036
1.007164,-0.0230466,-0.01102686
0.962065,-0.01700078,0.008036161
0.9905273,-0.03976503,0.04583794
0.9600257,-0.01434855,0.05162894
0.9797977,0.07705441,0.05631519
1.129549,0.1532517,0.1141068
1.296311,0.04410793,0.1494944
1.346932,-0.2135153,0.03192846
1.239696,-0.4044965,-0.1406407
1.199425,-0.5248842,-0.1623137
1.150697,-0.5312083,-0.1286463
1.068304,-0.4647436,-0.1216724
1.153444,-0.458662,-0.05613305
1.260766,-0.3983284,-0.04145392
1.28928,-0.2873457,-0.08114084
1.199788,-0.185809,-0.05944173
1.030418,-0.08767702,-0.04259208
0.9822606,-0.1002489,-0.0127573
0.9413254,-0.1491417,0.03314892
0.8233814,-0.1550005,0.04842754
0.7573828,-0.1638523,0.09824336
0.7367634,-0.1507649,0.1270546
0.7582148,-0.1569594,0.1052538
0.8140466,-0.1591614,0.09801552
0.8570556,-0.1284087,0.0878908
0.8739351,-0.116331,0.09830256
0.8575976,-0.08906139,0.1286222
0.8482342,-0.05549658,0.1392797
0.84184,-0.0189243,0.1500577
0.8526681,0.006533497,0.1490008
0.9303351,-0.01226235,0.1160527
0.9970451,-0.02037388,0.0732509
1.060423,-0.05688544,0.05774505
1.234186,-0.1524109,0.07280568
1.418663,-0.2316452,0.07978569
1.392833,-0.2250308,0.0776336
1.329814,-0.1801635,0.07000987
1.506384,-0.2112482,0.05191714
1.611858,-0.2443461,0.05568974
1.420049,-0.3467099,0.06695343
0.9734652,-0.5604726,0.06773252
0.4858745,-0.560049,0.08131043
0.5833793,-0.390969,0.0630881
0.8646366,-0.2611963,-0.0005481955
0.8170347,-0.1706982,-0.04967336
1.058611,-0.2468128,-0.06045853
1.188659,-0.3719076,-0.03814016
0.9642488,-0.3931175,-0.02640187
0.9953469,-0.3714063,-0.02986454
0.8719818,-0.2429161,-0.0196851
0.7521581,-0.07833502,-0.02322506
0.9139974,0.006535378,-0.02955606
0.8986132,0.01525325,-0.03351376
0.9896094,-0.04839465,-0.04377508
1.062867,-0.09537009,-0.0236348
0.9370027,-0.1139413,0.004350361
0.9610079,-0.1065723,0.009015084
0.94592,-0.06095971,0.001071019
0.9595065,-0.02944573,-0.00865112
1.030864,0.01039688,-0.009602217
0.994001,0.01423038,0.001859838
1.011029,-0.02254555,0.04510068
1.00412,-0.02279153,0.08772326
0.9902581,0.02915761,0.07467313
1.019759,0.1582918,0.05343027
1.067516,0.1904705,0.0569501
1.246904,-0.03422204,0.04051516
1.355387,-0.3047975,-0.006955924
1.240315,-0.4173384,-0.0695846
1.122372,-0.4740417,-0.1167104
1.128585,-0.5244031,-0.1109869
1.111158,-0.4667507,-0.06886923
1.089655,-0.4402812,-0.02778071
1.220463,-0.4258701,-0.03714728
1.292322,-0.276879,-0.07860399
1.196222,-0.1590898,-0.0704728
1.067864,-0.065313,-0.0376903
0.9605369,-0.05184505,0.01324701
0.9136662,-0.1796628,0.06434338
0.8549358,-0.2266633,0.06604965
0.7905756,-0.2326649,0.09464415
0.7764492,-0.1930093,0.1144527
0.7824646,-0.1087451,0.09157836
0.8173187,-0.08891468,0.09792126
0.8394419,-0.058237,0.09388002
0.8599552,-0.07923971,0.1022134
0.8740697,-0.09307105,0.1326269
0.8533563,-0.03627369,0.1365979
0.8507063,-0.002948545,0.1457926
0.8612252,0.04368127,0.1396939
0.9181393,0.01380325,0.102549
1.037924,-0.08226154,0.04871674
1.176958,-0.1731003,0.01201918
1.295661,-0.2570677,0.04301125
1.324249,-0.223465,0.08883526
1.259515,-0.1447139,0.1135393
1.206343,-0.05112864,0.116369
1.301824,-0.0005349588,0.07188285
1.40651,-0.1984624,0.02559884
1.289678,-0.4902631,0.01680428
0.9868138,-0.620467,0.03603347
0.6453753,-0.5307146,0.04924367
0.6174863,-0.3546611,0.008734265
0.8740629,-0.2393598,-0.03993879
0.970378,-0.184566,-0.04454789
1.037808,-0.2922985,-0.03866928
1.103813,-0.4264469,-0.04603345
1.012474,-0.4085761,-0.06197318
0.9914094,-0.3803223,-0.06430564
0.9333807,-0.2350735,-0.04971098
0.8291906,-0.01940647,-0.03304814
0.8873719,0.003966743,-0.01798667
0.931135,-0.02895019,-0.02242096
0.9534855,-0.03327327,-0.02562784
1.016845,-0.07763924,-0.010654
1.004094,-0.09796866,-0.004962381
0.9505217,-0.06573291,-0.001907488
0.9379299,-0.04549564,0.001531011
0.9447529,-0.03029337,-0.009663933
0.9475577,-0.007416523,-0.03647249
0.9751722,-0.03901016,-0.05070239
0.993071,-0.07302182,-0.01399131
0.9993429,-0.08900554,0.02648067
0.9918059,-0.07455003,0.02179624
0.9688292,0.04316974,0.03126833
1.069314,0.1224496,0.08559359
1.243161,0.04092142,0.1092238
1.312967,-0.1280197,0.03044416
1.243573,-0.2925387,-0.09408846
1.159797,-0.4353869,-0.1456858
1.147143,-0.5149604,-0.1401374
1.043663,-0.4989963,-0.106733
0.9667907,-0.4996294,-0.02510567
1.102535,-0.4285227,-0.007064284
1.237042,-0.2339277,-0.05887118
1.281215,-0.1034301,-0.06955598
1.222527,-0.01178314,-0.06849989
1.095564,0.0173836,-0.04426457
1.043364,-0.05747274,-0.002527532
0.969125,-0.1332814,0.01521371
0.8404764,-0.2108377,0.06334789
0.7542451,-0.228581,0.09877489
0.7197499,-0.1901068,0.09424924
0.7479423,-0.1777426,0.09591306
0.7896774,-0.1485594,0.08590239
0.8424613,-0.128977,0.08627913
0.8978368,-0.1468524,0.1038531
0.8892268,-0.1406222,0.122238
0.8725846,-0.08020128,0.1573992
0.8680688,0.004926129,0.1752795
0.8770981,0.03914232,0.1567386
0.9570288,-0.001585791,0.1064063
1.128199,-0.1020685,0.02817213
1.372006,-0.2690982,0.004831178
1.481327,-0.3565132,0.06876227
1.324944,-0.2153995,0.1156699
1.16672,-0.03313015,0.1068085
1.210726,0.02267203,0.09688617
1.378735,-0.04027925,0.07806237
1.464687,-0.2933045,0.03380064
1.187476,-0.585638,0.01516234
0.7622937,-0.6010048,0.02576024
0.7261035,-0.3938816,0.009452279
0.8380826,-0.2246442,-0.01991942
0.8392766,-0.1705726,-0.02156007
1.030067,-0.2481993,-0.01985125
1.168374,-0.3723932,-0.02893383
1.049317,-0.3526367,-0.03143049
0.9569088,-0.3004489,-0.03270623
0.8709007,-0.2644985,-0.03066129
0.8175309,-0.1234464,-0.02159854
0.8600439,-0.04083099,-0.02107206
0.9087258,-0.04105356,-0.02353269
1.014841,-0.04205673,-0.02238242
1.058417,-0.05452638,-0.02097939
0.9711816,-0.02768862,-0.007706039
0.935042,-0.01781228,0.006305883
0.9398296,-0.009975146,9.294103e-05
0.9496226,-0.01229609,-0.01290048
0.982808,-0.06030758,-0.03079936
0.9816652,-0.07595955,-0.04532842
0.988787,-0.1252231,0.001100382
1.00946,-0.1530035,0.06255524
0.9865668,-0.03820398,0.03977806
0.9947182,0.1350519,0.02514291
1.120379,0.2366574,0.07088611
1.316895,0.1647989,0.06567437
1.374023,-0.03530519,0.005669702
1.220289,-0.2554595,-0.06360947
1.089489,-0.3474056,-0.1105412
1.050277,-0.3375267,-0.1156236
0.9730656,-0.4547488,-0.1002689
0.9310811,-0.5304423,-0.05367879
1.03171,-0.474071,-0.03131401
1.141468,-0.4566829,-0.03707992
1.143084,-0.3330485,-0.03262736
1.106473,-0.1295626,-0.06410076
1.059337,-0.02639486,-0.04144329
0.9806778,-0.01963504,0.02303193
0.9129876,-0.06135691,0.04097542
0.8821896,-0.07016147,0.08090779
0.875387,-0.137181,0.09195317
0.8848961,-0.2147688,0.08507443
0.9129812,-0.1952201,0.09458125
0.9337302,-0.2245681,0.06516356
0.9250918,-0.2206947,0.07874273
0.8980046,-0.1631849,0.1218289
0.8608165,-0.1319423,0.1470887
0.84338,-0.04359986,0.1499977
0.848353,0.02370163,0.1077951
0.8508179,0.05809646,0.09600921
0.8766622,0.05174512,0.08958084
0.9523972,-0.03836356,0.07356856
1.052523,-0.1226219,0.06817608
1.126097,-0.181922,0.02840499
1.211546,-0.1507286,0.03703351
1.324922,-0.09446937,0.06453871
1.317105,-0.1015137,0.04389789
1.290334,-0.08924763,0.03956858
1.472452,-0.1247179,0.02096427
1.615465,-0.2064322,0.01682701
1.492363,-0.4026104,0.03959658
1.202135,-0.6955421,0.03767143
0.812516,-0.6770882,0.05850242
0.5247086,-0.462362,0.05689603
0.4604217,-0.3876869,0.0288547
0.5565387,-0.33717,0.03394476
0.8640849,-0.3559902,0.01192259
1.186562,-0.4822862,-0.03610387
1.233836,-0.5530933,-0.08483266
1.061279,-0.5150777,-0.09804442
0.89075,-0.3510451,-0.04862419
0.8822078,-0.1600015,-0.03182812
0.9266594,-0.03254029,-0.03962085
0.9469584,0.01287736,-0.03361884
1.003528,-0.02485577,-0.04158231
1.014611,-0.03513112,-0.02834156
1.005904,-0.06107072,-0.01835332
1.020238,-0.1047284,-0.02380841
1.012665,-0.08048722,-0.01525607
1.015599,-0.07167118,-0.01360044
1.013052,-0.04350389,-0.008104148
1.006186,-0.0242187,-0.0007610474
1.001892,-0.06394983,0.003896793
0.982101,-0.05714618,-0.003618277
0.9838387,-0.02024623,-0.03862168
1.02887,0.04518202,-0.05296561
1.111973,0.0848941,-0.03775864
1.163851,0.03357668,-0.0139612
1.150399,-0.06107784,0.01149213
1.127456,-0.2011847,0.02502231
1.08867,-0.2572331,0.02487388
1.002032,-0.2076849,0.01285435
0.890915,-0.2110768,0.01947603
0.8119163,-0.1926443,0.06118356
0.7992013,-0.1162352,0.1376742
0.9195603,-0.06690137,0.2058971
1.18781,-0.01996622,0.1886688
1.337863,-0.003581194,0.1349939
1.237564,-0.04438584,0.1084202
1.115607,-0.08607024,0.1139159
1.020949,-0.1154133,0.1364588
0.9109109,-0.1241441,0.127034
0.8700843,-0.117332,0.1290446
0.8553087,-0.1151167,0.1457927
0.8997406,-0.1066251,0.1329761
1.018812,-0.09257914,0.1425953
1.031208,-0.07459172,0.1497132
0.9977991,-0.06735628,0.1421673
0.9905814,-0.07118713,0.1548599
0.9379337,-0.0498592,0.1537643
0.9306772,-0.002372504,0.1516929
0.9526334,0.04755913,0.1468597
0.9575322,0.06067764,0.1322525
1.015917,0.01085377,0.1336167
1.090168,-0.06964133,0.1304854
1.117029,-0.111776,0.1306168
1.075919,-0.05398619,0.1361774
1.028937,0.1022132,0.1328062
1.04174,0.2954789,0.1333394
1.131691,0.354611,0.127472
1.337956,0.1141448,0.1142114
1.457791,-0.2862352,0.09669031
1.233544,-0.5598434,0.06588912
0.8560357,-0.5912143,0.03385478
0.7022424,-0.4511394,0.02479023
0.8280764,-0.1836408,0.03352007
0.9939127,0.1375021,0.02602498
1.092135,0.1319876,0.007791985
1.154874,-0.1198827,-0.01804046
1.068161,-0.1473951,-0.052862
0.9345457,-0.1657005,-0.04579379
0.927457,-0.1976563,-0.01600942
0.809206,-0.0868676,-0.004821377
0.6894948,-0.09749697,0.02053126
0.8327471,-0.08154703,0.03088714
0.9480451,-0.05165901,0.0127574
0.9921387,-0.08151681,0.005102516
1.050059,0.03717709,-0.02517266
1.003901,0.1046125,-0.06112052
0.9893229,0.1193616,-0.07187676
1.014963,0.07850187,-0.08387892
1.014532,-0.0697773,-0.07560627
1.055672,-0.1237702,-0.06922326
1.069672,-0.1405288,-0.09026873
1.077093,0.007955525,-0.08737251
1.181316,0.2181891,-0.04231612
1.361211,0.1386219,0.001172502
1.450518,-0.08128275,-0.03700999
1.323495,-0.3356311,-0.125836
1.14458,-0.4707312,-0.1637657
1.008357,-0.4407468,-0.1509709
0.8757666,-0.4858781,-0.08879301
0.8813436,-0.4958914,-0.03270891
1.04495,-0.4187096,-0.05819871
1.208161,-0.3651649,-0.09074166
1.242512,-0.2534742,-0.09073967
1.128354,-0.1365354,-0.07935043
1.012309,-0.08716639,-0.04034717
0.9116396,-0.05089184,0.006492336
0.7873658,-0.06362448,0.04936278
0.7415884,-0.09247549,0.08117863
0.7474523,-0.1045939,0.07838898
0.7949707,-0.1385551,0.07239074
0.8749364,-0.1339149,0.07982392
0.8693461,-0.1314021,0.07838417
0.8432518,-0.1383642,0.0878728
0.8333744,-0.08150009,0.1221424
0.7970558,-0.04935283,0.1541837
0.8116073,-0.0606867,0.1542018
0.89232,-0.0709644,0.1235833
1.053397,-0.1077203,0.06573511
1.275828,-0.2236606,-0.01927168
1.357453,-0.3437994,-0.02779775
1.277548,-0.262631,0.05180071
1.224019,-0.0533324,0.09286425
1.195276,0.07763686,0.116187
1.218253,0.06617733,0.1110367
1.400329,-0.0457474,0.05989673
1.501091,-0.2478223,0.05047223
1.21149,-0.6366172,0.04027365
0.7058996,-0.801567,0.02943395
0.527585,-0.5196999,0.03392602
0.8120008,-0.3797222,0.003448631
1.068325,-0.3832843,-0.01062926
1.076134,-0.3504704,-0.001699588
1.01765,-0.4068035,0.003108484
0.9188873,-0.3280179,-0.03335308
0.7910578,-0.2133504,-0.09919076
0.7542391,-0.1415411,-0.1034586
0.8144567,-0.05037019,-0.09369428
0.9006049,-0.1303719,-0.08944877
0.9866331,-0.1732488,-0.04829308
0.9707262,-0.1349038,-0.004473059
0.8765724,-0.1408152,0.01638923
0.8865078,-0.04339165,0.01540411
0.9239593,0.05818357,0.005830372
0.9504551,0.0833427,-0.03407838
1.007122,0.05662144,-0.04573501
1.002666,0.007304203,0.0101317
1.009688,-0.02739034,0.03159494
1.018796,-0.05355848,0.02532003
1.012422,0.06006038,0.02710737
1.120044,0.1675021,0.04987154
1.276075,0.03046619,0.06963873
1.360317,-0.2218733,-0.009016203
1.287362,-0.4737742,-0.1122499
1.18102,-0.6149002,-0.1360911
1.182255,-0.5831165,-0.106915
1.169781,-0.5252542,-0.08171978
1.230483,-0.4565507,-0.07559657
1.310647,-0.3010107,-0.06703498
1.194703,-0.1403742,-0.07425248
1.058264,-0.0555939,-0.05825629
0.9919625,-0.0647798,-0.01411194
0.9257923,-0.147725,0.01128245
0.854082,-0.2068627,0.04284574
0.761074,-0.2071485,0.05967691
0.6956762,-0.1718484,0.07717784
0.6925595,-0.1410673,0.1006694
0.7397015,-0.148516,0.09194121
0.7857603,-0.1489345,0.0826612
0.8132799,-0.1510225,0.0594098
0.8383015,-0.1494639,0.05791101
0.8128094,-0.1059792,0.1107843
0.7931275,-0.06006751,0.1423819
0.8621165,-0.01288333,0.1296465
0.9676178,0.02323101,0.08343682
1.082218,-0.02749763,0.03148536
1.243333,-0.1766614,0.001174078
1.384738,-0.2636041,0.02368678
1.370895,-0.1707478,0.08658129
1.274223,-0.03582261,0.1051409
1.287756,0.009628731,0.09729196
1.485959,-0.1068066,0.06823007
1.700605,-0.3738074,-0.0173104
1.58232,-0.5407893,-0.08917182
1.136088,-0.478205,-0.06397632
0.6358883,-0.4193876,0.02581132
0.4096487,-0.4567961,0.04714639
0.7553578,-0.3810751,0.01518789
1.145919,-0.2926219,0.0008170638
1.133658,-0.3520717,-0.006760458
1.081114,-0.384076,-0.01082195
0.9775354,-0.3822201,-0.05317049
0.8449123,-0.3361215,-0.05974352
0.7941516,-0.1831606,-0.02783245
0.6982875,-0.09135483,-0.03996159
0.7579851,-0.06564876,-0.02115105
0.8961384,-0.04454873,-0.0258564
0.9877943,-0.03239086,-0.04745686
1.026667,0.01276144,-0.01291747
0.9134564,0.04382606,0.0001496987
0.9204575,0.05807857,0.01361329
0.9896143,0.05426164,0.008348718
1.00473,0.01587349,-0.02296546
1.065997,-0.005107669,-0.02385377
1.038053,-0.04782829,-0.02051867
1.04236,-0.1154741,0.01864648
1.044919,-0.1299624,0.05557014
1.001497,-0.04487567,0.0482615
1.088817,0.06700141,0.07549408
1.201476,0.02063283,0.1025826
1.315535,-0.1434417,0.0204712
1.313531,-0.3350747,-0.1269805
1.22955,-0.5293075,-0.2017435
1.237971,-0.5523902,-0.2071729
1.113469,-0.5069052,-0.1566344
1.034611,-0.5182354,-0.05989946
1.137602,-0.4238118,-0.04590401
1.125858,-0.2896422,-0.06198385
1.073456,-0.1896956,-0.03896533
1.032937,-0.1306788,-0.03925768
0.9873753,-0.1617924,-0.007273546
0.9474474,-0.1596039,0.03667495
0.8227765,-0.1363406,0.05080448
0.7269945,-0.1438768,0.07603619
0.6895981,-0.1321406,0.08363218
0.697187,-0.1362012,0.08804099
0.7745438,-0.1249531,0.09333523
0.7935794,-0.09790169,0.09569191
0.7970918,-0.08396586,0.1124821
0.8458954,-0.05708639,0.1047998
0.8903594,-0.03406106,0.1183312
0.9448122,-0.009562008,0.1346981
1.005216,-0.02251031,0.07881875
1.101442,-0.1046444,0.0320182
1.23204,-0.2143457,0.02949069
1.34251,-0.2734784,0.05386321
1.393984,-0.2006852,0.07688866
1.440865,-0.1458714,0.05660422
1.647126,-0.2262263,0.03508564
1.759193,-0.3547372,0.01794603
1.27947,-0.5407028,0.02629008
0.5356145,-0.6334161,0.08514396
0.3162361,-0.4986392,0.1146034
0.4925341,-0.383984,0.08465851
0.5644492,-0.3713468,0.03106723
0.8590627,-0.3421974,-0.02850883
1.34237,-0.3191818,-0.09463512
1.256978,-0.3195251,-0.0940095
0.8988249,-0.3244449,-0.02839679
0.8146691,-0.3018491,-0.03115326
0.7301362,-0.2550586,-0.03222501
0.7663272,-0.1906049,-0.01605584
0.9454874,-0.07696615,-0.05880538
0.9954972,-0.03891606,-0.06152301
1.047384,-0.08912589,-0.04962819
0.9474345,-0.07108374,-0.01179574
0.8179375,-0.05808555,0.06254228
0.8866732,-0.07509178,0.04338904
0.9022246,-0.04240275,0.01089357
0.9797124,-0.02836587,-0.007157346
1.021246,-0.04448252,-0.0317613
0.9564702,-0.08717081,0.02115641
1.003845,-0.1411638,0.06568315
0.9840168,-0.1000976,0.04591934
0.9838148,0.02475937,0.04313824
1.072734,0.1353289,0.07994957
1.206619,0.1081652,0.08431822
1.414722,-0.1212317,-0.001466314
1.429207,-0.4073858,-0.1183166
1.33018,-0.5514595,-0.1692068
1.209753,-0.5109278,-0.1402471
0.9808156,-0.4628992,-0.08929886
0.9382228,-0.4776612,-0.03117675
1.147086,-0.4346407,-0.02103277
1.293607,-0.3847284,-0.06384653
1.233279,-0.3033183,-0.04639382
1.099631,-0.1423659,-0.02540451
0.997208,-0.09175531,-0.01710105
0.8957196,-0.1459028,0.02601057
0.7941724,-0.1645818,0.04729695
0.6925051,-0.1320285,0.08878241
0.663373,-0.09852734,0.1083776
0.7104197,-0.09724794,0.08915822
0.7430451,-0.08623966,0.109406
0.8095243,-0.09124867,0.1027558
0.8734635,-0.09448134,0.1077469
0.880619,-0.06889346,0.1458899
0.8836771,-0.06254667,0.1484282
0.8796082,-0.03401662,0.1489424
0.9159066,-0.01049294,0.1276739
1.021754,-0.04290927,0.0786198
1.192647,-0.137189,0.04044201
1.371794,-0.2497673,0.05638039
1.380605,-0.235745,0.1125828
1.278179,-0.1553113,0.1068964
1.308404,-0.1499122,0.06298352
1.58769,-0.2220306,-0.004980966
1.786531,-0.3833814,-0.06487317
1.279893,-0.5916661,-0.02165903
0.5671451,-0.7041667,0.03159044
0.6023903,-0.5625588,0.04807972
0.8493551,-0.2817728,0.0178215
0.8771086,-0.1789891,-0.07012384
1.099524,-0.2344352,-0.07863845
1.183323,-0.3056406,-0.05626395
1.018867,-0.3688287,-0.0746823
0.9676223,-0.3443441,-0.05819719
0.8653472,-0.2660595,-0.04975044
0.7893881,-0.1791845,-0.04499346
0.8263963,-0.08182416,-0.02284382
0.8440402,-0.04472364,-0.0288488
0.9365852,-0.02929128,-0.02788571
0.9728351,-0.01849686,-0.007147452
0.9138161,-0.03889729,0.01539852
0.8828494,-0.03602319,0.0265051
0.8325381,-0.02737915,0.01521737
0.8337057,-0.02892012,-0.002244383
0.9163321,-0.04101075,-0.0241001
1.035345,-0.09212868,-0.02489957
1.114594,-0.1239699,-0.01034747
1.079641,-0.06075121,-0.006970379
1.059921,0.09064685,0.02922787
1.101677,0.1900723,0.08772833
1.180915,0.07365706,0.1003998
1.29138,-0.1762671,0.01286029
1.281821,-0.3462555,-0.1462346
1.207124,-0.3905447,-0.2094884
1.221872,-0.4236291,-0.1558599
1.217231,-0.5496126,-0.1134616
1.197531,-0.6790755,-0.06076988
1.204096,-0.6530892,-0.006060831
1.121255,-0.4902031,-0.02346727
1.032344,-0.2982818,-0.03848961
1.030612,-0.1895144,-0.02359576
1.042905,-0.1509349,-0.02608447
1.0158,-0.1165892,-0.008448939
0.9204667,-0.142131,0.02144967
0.7770661,-0.1381718,0.05410385
0.6621827,-0.08931696,0.1080307
0.6691034,-0.1123323,0.1220766
0.7406184,-0.11133,0.1106655
0.7889289,-0.1079136,0.1202059
0.8319673,-0.1205516,0.1180771
0.824214,-0.0785668,0.1110891
0.8307884,-0.06025155,0.1150003
0.8730077,-0.01990756,0.1380136
0.8885336,0.02993845,0.1528751
0.9578427,-0.01119516,0.09097556
1.060838,-0.1321263,0.02420561
1.233767,-0.3107829,0.05167037
1.405699,-0.369143,0.08882963
1.371333,-0.2251077,0.06955941
1.347997,-0.08755956,0.03166073
1.460793,-0.07791124,-0.01563069
1.590329,-0.147242,-0.01629516
1.700844,-0.2800332,0.006389057
1.516353,-0.4281799,-0.02157632
0.8528029,-0.467103,0.01596069
0.2471386,-0.4848864,0.07131839
0.4524722,-0.4963068,0.02781458
1.057582,-0.3346176,-0.006346982
1.200313,-0.2143439,-0.03143777
1.150144,-0.278753,-0.03886398
1.075409,-0.3180403,-0.01486229
0.8860897,-0.319542,-0.04429104
0.8378288,-0.3072198,-0.05366345
0.7895737,-0.2083227,-0.03597811
0.8006763,-0.07161116,-0.03731617
0.8878749,-0.02079614,-0.01972151
0.9417226,-0.0585855,-0.02719434
1.042849,-0.06195852,-0.03429047
0.9550797,-0.05496762,-0.001803371
0.9055037,-0.06687913,0.01981817
0.9304371,-0.0385156,0.02241422
0.8685128,-0.02568017,0.0101956
0.9700655,-0.02593538,-0.007744869
0.9630301,-0.01438606,-0.02353211
0.9444306,-0.02830272,-0.01810795
1.010583,-0.0327539,0.01122018
0.9366534,0.01662658,0.03196076
0.9720303,0.1639683,0.07455697
1.038675,0.276855,0.1268635
1.201819,0.07719589,0.1292889
1.417989,-0.3055835,0.02490369
1.339803,-0.5288745,-0.1609672
1.241443,-0.592328,-0.1961001
1.195864,-0.5778326,-0.1171118
1.151794,-0.5039032,-0.1159043
1.236824,-0.4277257,-0.06200206
1.282992,-0.3181176,-0.01333255
1.199496,-0.1962524,-0.05586959
1.078119,-0.1058003,-0.03163717
0.9911981,-0.06208565,-0.001476157
0.9193363,-0.1159346,0.0131321
0.8338881,-0.149059,0.06178248
0.7494036,-0.1323601,0.0759344
0.7011295,-0.1491775,0.09364992
0.7310713,-0.150484,0.1040475
0.7802469,-0.1685568,0.0825839
0.8357995,-0.1805848,0.08384261
0.8699286,-0.1442721,0.0959841
0.8405882,-0.1208789,0.1166334
0.8460233,-0.1012579,0.134776
0.8672086,-0.08931851,0.1417161
0.8683735,-0.02620738,0.1542916
0.9034771,0.0645309,0.1288225
0.9668376,0.007928608,0.06506022
1.124168,-0.1452089,0.02677812
1.360843,-0.2974738,0.03264858
1.450923,-0.3688164,0.06952371
1.327645,-0.2382288,0.1001251
1.260509,-0.1197083,0.07182644
1.407122,-0.2059615,-0.001577434
1.474407,-0.3584687,-0.05077873
1.205166,-0.5142773,-0.03209876
0.7663602,-0.5401062,0.03293453
0.5559242,-0.3674784,0.06065072
0.7772792,-0.2358885,0.008498182
1.073107,-0.1970147,-0.06573073
1.139492,-0.2634046,-0.0854937
1.123746,-0.4017309,-0.06664585
1.034306,-0.3958435,-0.07230925
0.8882214,-0.3366323,-0.06828418
0.803234,-0.2573433,-0.03669145
0.7578869,-0.1095214,-0.02410004
0.8082014,-0.05451778,-0.02515074
0.9041955,-0.03860378,-0.03558754
0.9691755,-0.01715483,-0.03994218
1.010289,-0.01612166,-0.02961277
0.9567655,0.004603788,-0.01978177
0.9048815,-0.002292548,0.001773392
0.8947999,-9.631798e-05,0.008380918
0.9049266,0.00295503,-0.008259188
0.9760238,-0.02092458,-0.01878066
0.9931375,-0.02695533,-0.01748513
1.000782,-0.05125385,-0.0009251204
1.024138,-0.0357527,0.02407803
0.997448,0.08813228,0.05614611
1.057074,0.1904714,0.0867875
1.187529,0.07144767,0.09823254
1.281632,-0.2489971,0.03326405
1.26464,-0.5381861,-0.1105237
1.165999,-0.6392585,-0.1786176
1.11237,-0.5211407,-0.1540939
1.038243,-0.3895588,-0.104564
1.068628,-0.3719014,-0.03233364
1.247553,-0.3248929,-0.04577449
1.305901,-0.2858906,-0.09956086
1.259115,-0.204334,-0.08083857
1.124819,-0.06496912,-0.04956184
0.9629674,-0.07164445,0.01551126
0.9093681,-0.1104605,0.07102588
0.859918,-0.1322772,0.06840273
0.8064403,-0.1717891,0.09416492
0.7565491,-0.1421687,0.1071331
0.7532768,-0.141369,0.1045066
0.8106962,-0.1506576,0.1100347
0.8177977,-0.1370124,0.09367115
0.8481077,-0.1442004,0.1111606
0.8628561,-0.1202777,0.1291339
0.8433876,-0.09351568,0.1295925
0.8664739,-0.02990791,0.1537564
0.8726053,0.05772997,0.1641408
0.9037546,0.05254896,0.1544024
0.9393761,0.007084841,0.102224
1.019294,-0.04190418,0.02767777
1.20565,-0.1668536,0.009145755
1.316294,-0.2708641,0.03426138
1.306392,-0.2160052,0.04414957
1.287533,-0.1689147,0.01277863
1.368001,-0.2156395,-0.006088754
1.520163,-0.2798515,0.001437387
1.517788,-0.4826741,0.0005449544
1.128476,-0.6483938,0.01615228
0.5460826,-0.5040606,0.0431428
0.4503631,-0.3281739,0.05100176
0.7672093,-0.2607746,0.01575581
0.9308822,-0.1707345,-0.03459489
1.073567,-0.2316665,-0.05009614
1.179005,-0.4191421,-0.07572082
1.116919,-0.451062,-0.1073581
1.030097,-0.3583353,-0.0791918
0.8408172,-0.1976903,-0.02171534
0.7478837,-0.05036189,0.004548488
0.9857174,-0.02984482,-0.02093756
0.9861851,-0.06016117,-0.01317403
0.971391,-0.1325933,0.01270359
0.9823186,-0.1427881,0.02199019
0.9919112,-0.04462576,0.0289782
1.034032,0.1254234,0.04554017
1.10756,0.1978572,0.07460296
1.165147,0.1247677,0.07587403
1.267582,-0.01567138,0.04576021
1.308621,-0.2078027,-0.007218254
1.245264,-0.341456,-0.1118796
1.216115,-0.3835357,-0.156157
1.161098,-0.4558937,-0.1251828
1.054229,-0.5199753,-0.1081949
1.032817,-0.5035326,-0.0378235
1.077919,-0.4675168,0.002029296
1.117124,-0.3755149,-0.04867839
1.155364,-0.2336194,-0.05791053
1.148672,-0.1756893,-0.05879011
1.100699,-0.1881536,-0.05336606
1.031232,-0.2138471,-0.008739014
0.8921312,-0.2262293,0.01813092
0.7425482,-0.1970729,0.06029821
0.659812,-0.160298,0.09400248
0.648385,-0.1383742,0.09249285
0.7207966,-0.1156253,0.09981164
0.8252124,-0.08889002,0.09245579
0.8942836,-0.10325,0.09217722
0.9145362,-0.1254859,0.1232076
0.9044112,-0.08985966,0.1441327
0.9095994,-0.04078822,0.1546021
0.940375,0.0154022,0.1449544
1.021959,0.02866916,0.07415655
1.195157,-0.07025478,-0.01335564
1.394013,-0.2065023,-0.01866063
1.469533,-0.2763402,0.03319749
1.357311,-0.2031052,0.06456855
1.249374,-0.1235743,0.0891204
1.306603,-0.1880047,0.07574766
1.40805,-0.2855916,-0.00245548
1.417458,-0.4451894,-0.0463889
1.147759,-0.625302,-0.01903165
0.7007063,-0.5895169,0.01045421
0.6313115,-0.4110825,-0.005986056
0.8380716,-0.2451679,-0.02871095
0.904849,-0.1953816,-0.03444892
0.9920114,-0.2628884,-0.06760801
1.034334,-0.2810708,-0.0745818
0.933224,-0.3199531,-0.05733062
0.8894076,-0.3424982,-0.066105
0.8330346,-0.2446642,-0.04266495
0.8076363,-0.1957721,-0.02449999
0.8691577,-0.1430246,-0.02988008
0.8923438,-0.09815124,-0.02549358
0.9493483,-0.1290172,-0.03148969
0.9758045,-0.09414169,-0.01699213
0.9183647,-0.07581897,0.006047428
0.9051546,-0.06690542,0.02067912
0.9129934,-0.01599742,0.02558643
0.9225552,-0.005238763,0.01804493
0.9385643,0.005303724,0.02289911
0.9817929,-0.01277198,-0.001251213
1.050415,-0.01637009,-0.02693407
1.066214,0.01423892,-0.01308957
1.08332,0.04342939,0.001543217
1.115651,0.1229621,0.05581985
1.177368,0.07770213,0.1110904
1.344246,-0.1781667,0.03783901
1.417945,-0.498653,-0.1074653
1.300779,-0.6547333,-0.1812888
1.185662,-0.5529135,-0.1836728
1.091937,-0.4954691,-0.1333116
1.036987,-0.4552622,-0.06106031
1.099942,-0.2837541,-0.06863257
1.13316,-0.1762578,-0.09353831
1.085232,-0.08556481,-0.07244453
1.069172,-0.06004688,-0.05431999
1.064066,-0.1604593,-0.01239926
1.027836,-0.183758,0.009501961
0.915538,-0.1692566,0.01904271
0.7430519,-0.145839,0.0902418
0.6917784,-0.1225811,0.1265437
0.7192387,-0.1441498,0.1189974
0.6485747,-0.1343695,0.1412939
0.6358103,-0.1376757,0.141434
0.7679558,-0.1405035,0.1131775
0.8420508,-0.1295038,0.1077676
0.8255175,-0.1323999,0.1158571
0.8359165,-0.08288472,0.1313477
0.9020318,-0.02682784,0.1566209
0.9531719,0.01609797,0.1486128
0.993906,0.03461511,0.0927896
1.134934,-0.04496109,0.04231513
1.341365,-0.2161923,0.04719598
1.478168,-0.3469324,0.06617549
1.442209,-0.2998284,0.04195339
1.414612,-0.2738364,0.01870534
1.611716,-0.4000625,-0.002665714
1.651708,-0.4934682,-0.007899583
1.213929,-0.5197256,0.06632106
0.6326655,-0.4447424,0.1127973
0.487184,-0.2930718,0.09257676
0.7638259,-0.2500552,0.06732364
0.8964534,-0.3004923,-0.003458737
0.9809941,-0.4049903,-0.05083589
1.072589,-0.5200401,-0.04300824
0.8835299,-0.4951076,-0.06287744
0.7357458,-0.3610063,-0.06793218
0.6986959,-0.2259879,-0.05039584
0.727123,-0.1333192,-0.04650344
0.8916704,-0.1133505,-0.03974531
0.9470058,-0.1062784,-0.03810521
0.9652035,-0.0770516,-0.0213733
0.9573478,-0.06221184,0.008648547
0.9119734,-0.02837155,0.01383121
0.956032,0.02296538,0.005164137
0.9703365,0.02884073,-0.006284165
1.041011,-0.0008852227,-0.01166532
1.100899,-0.04428532,0.01148889
1.052861,-0.07274789,0.03804525
1.029636,-0.03094963,0.0194602
0.9716677,0.1014794,0.001225129
1.048002,0.2173105,0.03166682
1.275055,0.085728,0.03294695
1.369808,-0.2503492,-0.03594635
1.312139,-0.5199391,-0.1152995
1.185569,-0.6415166,-0.1431546
1.125897,-0.6233097,-0.1218118
1.116429,-0.5756907,-0.08817485
1.155208,-0.5593251,-0.04539863
1.268161,-0.444208,-0.05401388
1.247468,-0.3041389,-0.08978407
1.140735,-0.2182781,-0.0508938
0.9984238,-0.1308488,-0.0151574
0.8521015,-0.08499776,0.005164827
0.8451804,-0.08244834,0.03752887
0.745539,-0.0899583,0.04742975
0.6033073,-0.07227606,0.09056256
0.6600245,-0.07490076,0.102971
0.7177333,-0.130966,0.08564478
0.7580273,-0.149014,0.1106194
0.8324973,-0.1572813,0.09459175
0.8238161,-0.1217023,0.09806754
0.812758,-0.04522617,0.1373658
0.8510952,-0.03871044,0.1420677
0.8765064,-0.03157124,0.1384756
0.9405573,-0.03513095,0.07384085
1.055083,-0.083632,0.01428024
1.205869,-0.199209,0.02945245
1.412409,-0.3455024,0.03147946
1.466599,-0.2656196,0.0344195
1.310262,-0.07393905,0.06020147
1.295164,-0.02911631,0.07262474
1.48357,-0.08006898,0.04840679
1.570436,-0.2805921,0.008112064
1.289903,-0.5887951,0.01564738
0.7279915,-0.7067045,0.06241688
0.4891691,-0.5384888,0.07177684
0.7794034,-0.3399742,0.01132102
1.082435,-0.3090478,-0.05762708
1.123834,-0.3258675,-0.07037761
1.014464,-0.3485082,-0.04801333
0.8952803,-0.3781065,-0.05220751
0.8443154,-0.3182409,-0.06658331
0.8089631,-0.2394472,-0.05443731
0.7656307,-0.1788894,-0.04409722
0.7958174,-0.1345824,-0.02272104
0.870654,-0.1192953,-0.01386724
0.9018408,-0.07165149,-0.0252385
0.9076733,-0.03391502,-0.005942035
0.8995674,0.0004105947,-0.006044086
0.9381479,0.05300767,-0.01461181
1.040396,0.07337509,-0.020205
1.078062,0.06871649,-0.04888321
1.034322,0.01825671,-0.03198813
0.9773608,-0.05202767,-0.005590823
0.9774034,-0.08277013,-0.004746045
0.999623,-0.01947787,0.01135135
1.029958,0.09032369,0.0260271
1.20345,0.06078723,0.03460056
1.391661,-0.1146014,-0.01813569
1.413035,-0.343653,-0.1283903
1.335879,-0.4690821,-0.1665118
1.227548,-0.4301879,-0.1369489
1.089144,-0.4626489,-0.09819376
1.006597,-0.5370267,-0.04248298
1.137535,-0.5421786,-0.01850924
1.250989,-0.5306664,-0.0374609
1.110994,-0.372615,-0.03512914
1.001779,-0.1664211,-0.02832202
0.9995278,-0.1415466,-0.0303839
0.9200769,-0.1842317,0.005737344
0.7939232,-0.1590406,0.04549647
0.7336499,-0.1300473,0.04546313
0.7141414,-0.14217,0.0529025
0.6022222,-0.1144293,0.1015928
0.539095,-0.09412686,0.1389251
0.6681478,-0.1138049,0.1208254
0.7660787,-0.077361,0.1041218
0.772788,-0.05461994,0.1163774
0.8284854,-0.04464648,0.1348405
0.9290644,-0.006695369,0.165737
1.007334,-0.01114724,0.1494726
1.071505,-0.03027328,0.05990249
1.212874,-0.1013604,0.00470565
1.416115,-0.2279542,0.05918849
1.526542,-0.2456479,0.1435855
1.4487,-0.1397068,0.1346455
1.362334,-0.07123069,0.08638148
1.44699,-0.1322855,0.05065128
1.451068,-0.3497025,0.001096309
1.218923,-0.6800091,0.01846405
0.8381952,-0.7987444,0.04930385
0.5450081,-0.551241,0.02562683
0.7512613,-0.2931749,0.01390479
1.071711,-0.2043109,-0.02874214
1.045183,-0.2035728,-0.05180016
1.00456,-0.2846666,-0.02998101
0.9259107,-0.3500541,-0.06058975
0.8079675,-0.3410043,-0.07326614
0.8046589,-0.2842318,-0.05318194
0.7643402,-0.1788758,-0.04272148
0.8237134,-0.1069306,-0.02788862
0.9102678,-0.07805212,-0.03102482
0.899657,-0.03718455,-0.01998915
0.9279888,-0.00815476,-0.0007048749
0.8967053,0.007745538,0.002447564
0.8948131,0.02316551,0.008819478
0.9516992,0.03893602,0.004554466
0.981794,0.01857582,0.009023741
1.051882,-0.05101298,0.02985352
1.061472,-0.1080166,0.04637814
1.038592,-0.08489218,0.05052839
1.037659,0.08485212,0.05039456
1.107217,0.2200136,0.07343269
1.316198,0.02859714,0.06860584
1.420238,-0.3080541,-0.03269465
1.319642,-0.4548289,-0.1711974
1.182062,-0.4717624,-0.2037849
1.098782,-0.5008495,-0.1310399
1.040352,-0.5415016,-0.07661296
1.083343,-0.5583461,-0.0364244
1.259694,-0.4776178,-0.04479791
1.294372,-0.3371002,-0.1077363
1.202883,-0.2286604,-0.09019363
1.096883,-0.1671938,-0.05396815
0.9454801,-0.1579056,-0.02657876
0.8626143,-0.1510648,0.04080667
0.7316821,-0.1469413,0.07043475
0.5814453,-0.1390683,0.1092674
0.5589372,-0.1148937,0.1598049
0.5541771,-0.1312059,0.179816
0.6325804,-0.1204415,0.1743702
0.7687907,-0.09017513,0.1042583
0.8413541,-0.06107195,0.07848312
0.8985569,-0.002334693,0.115358
0.9697656,-0.01475558,0.1439077
1.026226,-0.02913492,0.1586232
1.042748,-0.02789218,0.07033061
1.150789,-0.1232176,-0.01635793
1.292244,-0.2011011,0.01681974
1.347213,-0.2112061,0.03477779
1.461679,-0.2647541,-0.001162502
1.494945,-0.3790203,-0.0251498
1.45985,-0.4378553,-0.04267485
1.553692,-0.4517819,-0.04708749
1.426183,-0.5438266,-0.002531122
0.9521816,-0.6028902,0.05738718
0.485968,-0.4819566,0.1068585
0.4214482,-0.2585623,0.09834298
0.8081362,-0.1331199,0.00323952
1.087997,-0.1722392,-0.06819167
1.126391,-0.2759591,-0.09967231
1.088489,-0.3959028,-0.09410398
0.8966045,-0.4235578,-0.07214908
0.7441587,-0.3206816,-0.08224441
0.6743363,-0.2109242,-0.03236237
0.7198903,-0.1119195,-0.003223032
0.8733186,-0.0497584,-0.02712844
0.9294039,-0.02656258,-0.007164682
1.00021,0.009296383,-0.01643143
0.9554075,0.01586556,-0.01512199
0.8650646,0.01508591,0.00410211
0.9457817,0.03021068,-0.007910609
0.9700725,0.01453396,-0.0221023
1.038063,-0.01776261,-0.04384824
1.045701,-0.07364948,0.02379642
0.9440597,-0.1258126,0.1019568
0.9930447,-0.04182034,0.04657614
1.015745,0.168572,0.01485994
1.104754,0.2795202,0.06306563
1.281295,0.1437318,0.1060195
1.340858,-0.07516599,0.09997185
1.34092,-0.3078873,-0.05784854
1.269636,-0.6533805,-0.2466438
1.233247,-0.7279948,-0.1819975
1.193656,-0.507251,-0.0483582
1.16756,-0.4990083,-0.06543215
1.255649,-0.3733634,-0.05650747
1.21556,-0.1096874,-0.05755614
1.140127,-0.1225129,-0.06813002
1.062418,-0.08186295,0.004907535
0.897746,-0.09614671,0.02067879
0.7962762,-0.1975984,0.05310241
0.6634457,-0.107936,0.1037412
0.6392155,-0.1198515,0.08490347
0.7362679,-0.1237394,0.09449187
0.7433302,-0.08007508,0.08147631
0.8161778,-0.1237329,0.07468774
0.8608394,-0.07426912,0.09763855
0.8468155,-0.06403447,0.09835684
0.8774891,-0.04226249,0.1307279
0.8714892,0.02301324,0.1461486
0.9349801,-0.01054088,0.1360644
1.021409,-0.04096546,0.07903854
1.109656,-0.1309481,0.002816925
1.312692,-0.2570459,0.03274326
1.453989,-0.2881517,0.06436186
1.404093,-0.1779426,0.05725554
1.331898,-0.03383216,0.06071056
1.448835,-0.1460451,-0.003758275
1.698505,-0.4164741,-0.1191295
1.832493,-0.6154831,-0.1751094
1.406849,-0.6790793,-0.1208086
0.5647356,-0.6349412,-0.01715462
0.3625018,-0.5447887,0.05127826
0.7011113,-0.2755666,0.03416432
0.8853638,-0.1357776,-0.03658506
1.118533,-0.2976704,-0.06214022
1.191648,-0.3151342,-0.08914005
1.027592,-0.3350618,-0.1366437
0.9898502,-0.367239,-0.1194846
0.9059861,-0.186832,-0.08223668
0.8062051,-0.09548999,-0.05520399
0.8315625,-0.0467019,-0.03439509
0.851002,-0.008303322,-0.0282563
0.8460261,-0.04494654,-0.005643141
0.8337967,-0.01465281,-0.001005418
0.8359243,-0.004422731,-0.00978646
0.8915734,0.02734362,-0.005109417
1.004691,0.03525756,-0.02213384
1.066699,-0.02723695,-0.04242226
1.026597,-0.04381896,-0.03636791
0.991157,-0.1111227,0.02126446
0.9653116,-0.1390194,0.08259684
0.966131,-0.05677254,0.05758213
1.048764,0.08059372,0.03148693
1.163433,0.172321,0.05692547
1.260963,-0.04257571,0.03716779
1.286658,-0.3565845,-0.03201958
1.218518,-0.4479737,-0.09996767
1.158542,-0.45359,-0.1333489
1.181697,-0.4855672,-0.1171165
1.222742,-0.4840988,-0.0901256
1.292389,-0.4433771,-0.06173788
1.38857,-0.3807031,-0.07107856
1.285499,-0.2446453,-0.1044648
1.05345,-0.1174166,-0.04859262
0.951518,-0.1044235,0.01520044
0.8656951,-0.1268265,0.0261939
0.7670625,-0.1342839,0.05227533
0.719965,-0.1184445,0.06654492
0.6573016,-0.109882,0.08909753
0.6606921,-0.1265272,0.1114904
0.7021845,-0.120309,0.1159662
0.7254494,-0.09707901,0.1305807
0.782328,-0.04928129,0.1353303
0.7997286,-0.01024423,0.1683956
0.8268701,-0.01145526,0.1799094
0.9144023,-0.007128553,0.1349095
1.009052,-0.04261821,0.07099528
1.153722,-0.162292,-0.0197342
1.339616,-0.3406708,0.006521457
1.496609,-0.4512487,0.1072751
1.471214,-0.3188161,0.1230095
1.244704,-0.1026318,0.136194
1.143164,-0.06721638,0.1335444
1.338675,-0.1277959,0.1385237
1.509196,-0.2076253,0.1638852
1.242652,-0.4268928,0.07116059
0.7959205,-0.6509388,-0.02655804
0.69751,-0.5386004,-0.03354209
0.8936756,-0.2675089,-0.06058102
1.11276,-0.2324062,-0.1183213
1.116474,-0.2489339,-0.1188289
0.9445603,-0.2518021,-0.05594867
0.8583644,-0.340815,-0.0392714
0.8051226,-0.2974999,-0.0515211
0.7784005,-0.2375744,-0.04427327
0.7771657,-0.2118329,-0.05046709
0.8051082,-0.129415,-0.04851642
0.9333572,-0.1284269,-0.05578569
0.9682396,-0.06398637,-0.04232928
0.9580715,0.008647733,0.003656089
0.9565308,-0.001956189,0.01991989
0.8949605,0.06289833,0.01971347
0.9112358,0.07658204,-0.01534925
0.9466944,0.04871993,-0.04176811
1.021323,0.009341041,-0.01214104
1.117252,-0.07699699,0.005337835
1.088897,-0.06921201,0.004507829
1.053698,0.02115587,0.01242484
1.051302,0.15557,0.04225335
1.127849,0.1880654,0.06170386
1.281659,-0.07504206,0.02287986
1.309164,-0.4447927,-0.07736738
1.190853,-0.5890877,-0.1859337
1.085044,-0.5220927,-0.1805841
1.129275,-0.5120518,-0.09475917
1.271601,-0.5235957,-0.05979896
1.372405,-0.4516387,-0.07373334
1.332839,-0.3605666,-0.07969526
1.12438,-0.1811439,-0.03843972
0.9391508,-0.01917418,0.003705823
0.9003795,-0.0402163,0.01016696
0.8866328,-0.1018468,0.0307127
0.7911314,-0.1037615,0.05888782
0.6991304,-0.09686858,0.07709603
0.7038504,-0.1065641,0.09365537
0.710115,-0.1304193,0.09958333
0.7211441,-0.1575728,0.1009186
0.7597905,-0.1432619,0.1038448
0.7742948,-0.1053386,0.108648
0.828046,-0.07496385,0.1191316
0.8840013,-0.004465062,0.1371819
0.8947268,0.0179984,0.1320794
0.9257943,-0.04712136,0.05767045
1.020118,-0.1044736,-0.03244327
1.127939,-0.1682622,-0.03892207
1.195901,-0.1869584,0.005150169
1.297276,-0.1735295,0.04084898
1.308273,-0.2055399,0.07256
1.303879,-0.2326507,0.01038457
1.642497,-0.3568051,-0.1014099
1.878454,-0.52184,-0.07549873
1.410721,-0.5549247,-0.01485047
0.6856972,-0.5900284,0.03174932
0.4732061,-0.4921426,0.1147211
0.7257711,-0.1969301,0.04169956
0.9654627,-0.1251402,-0.08892163
1.147967,-0.2335081,-0.07927437
1.176735,-0.3210445,-0.06674048
1.006951,-0.4675349,-0.06369287
0.9151145,-0.4525087,-0.05030101
0.8095307,-0.2434523,-0.06428551
0.7565687,-0.1017107,-0.05393504
0.8908183,-0.01745288,-0.05223761
0.9309888,0.02316278,-0.05156406
0.9416042,0.02408129,-0.0311301
0.9543663,0.003355751,-0.02126854
0.8778147,-0.05862663,0.006606741
0.8611909,-0.07996224,0.02295725
0.8479634,-0.09537289,0.01366456
0.8841152,-0.1187551,0.001422246
0.9742646,-0.1166478,-0.01334687
0.9895659,-0.1351582,0.01073004
1.049509,-0.1089155,0.03919932
1.08773,-0.01917981,0.02723587
1.086836,0.1337407,0.03246469
1.176731,0.2113421,0.06189718
1.278864,-0.04619781,0.05254562
1.316093,-0.4107497,-0.01962523
1.217513,-0.546149,-0.09006018
1.081355,-0.5023069,-0.07960326
1.076341,-0.4014796,-0.05454176
1.178729,-0.2975602,-0.07884733
1.369897,-0.2460356,-0.07205301
1.479895,-0.2496445,-0.0653452
1.292158,-0.1779854,-0.08670958
1.002417,-0.08273123,-0.037015
0.8867732,-0.1162798,0.02659249
0.8345673,-0.172732,0.05229519
0.7449387,-0.2001091,0.06847831
0.691965,-0.1820014,0.07172562
0.6518414,-0.109702,0.09916529
0.6822198,-0.108044,0.1066344
0.760789,-0.1251308,0.08684744
0.7832055,-0.1161008,0.09354476
0.8322272,-0.1232278,0.1012331
0.8783624,-0.09812397,0.1311838
0.9122045,-0.06896213,0.1624746
0.9695721,-0.04761495,0.148829
1.005775,-0.04461299,0.1093349
1.155646,-0.1079136,0.07164553
1.406447,-0.2005894,0.08890852
1.492617,-0.2552283,0.1176992
1.332321,-0.2089762,0.09528692
1.210734,-0.1687439,0.04498704
1.344427,-0.2707403,-0.02902052
1.424138,-0.4791284,-0.07079677
1.256533,-0.6672682,-0.05240866
0.9426991,-0.5893371,-0.01699906
0.636916,-0.3414247,0.02704418
0.7147268,-0.1961791,0.006119153
0.9824966,-0.09551689,-0.05947155
1.020315,-0.1734422,-0.06054585
1.060082,-0.3596608,-0.06169894
1.049848,-0.354371,-0.06572568
0.9124995,-0.3294106,-0.03957482
0.8387925,-0.231623,-0.0320519
0.7111966,-0.0293072,0.000243866
0.6903641,0.028283,0.02359683
0.7700311,0.03810375,0.009895194
0.798796,0.02255485,0.001767312
0.9859722,-0.01132628,-0.03674692
1.065674,-0.01972125,-0.05632403
0.97136,-0.05536176,-0.02820525
0.9691936,-0.0499697,0.001513678
0.950218,-0.06024607,0.01912684
0.9535997,-0.06325432,-4.07852e-05
0.9838057,-0.05186775,-0.008607729
1.010972,-0.1086368,0.02646768
1.058059,-0.1037146,0.05251524
1.031503,-0.005925095,0.04576023
1.031855,0.130384,0.04337743
1.126261,0.1189045,0.05378074
1.277697,-0.150383,0.003654932
1.363415,-0.397501,-0.08252327
1.227836,-0.467969,-0.1285804
1.078504,-0.4451238,-0.1372907
1.124422,-0.4366305,-0.08807951
1.267285,-0.4072286,-0.02848291
1.371192,-0.3586559,-0.0431204
1.34391,-0.349941,-0.0757774
1.234605,-0.2195132,-0.07222977
1.12931,-0.09146753,-0.05005164
0.9680349,-0.09234112,-0.002307912
0.8474593,-0.08073107,0.04236653
0.8053381,-0.09993362,0.05991325
0.686033,-0.0908927,0.09166967
0.6468544,-0.07632628,0.1203455
0.7025127,-0.1091456,0.1208637
0.7080942,-0.08795218,0.117745
0.7784775,-0.08392758,0.1195605
0.8302887,-0.06034616,0.1316633
0.8321068,-0.01329804,0.1456255
0.8730144,0.01566156,0.1692944
0.906797,0.06519801,0.1755778
1.00732,0.02687736,0.09176171
1.156246,-0.04484295,-0.004645392
1.290851,-0.1379836,0.01554298
1.411388,-0.2755113,0.09342411
1.42838,-0.2606908,0.1171282
1.420682,-0.1980989,0.09922787
1.563411,-0.2284655,0.07371609
1.689807,-0.2920144,0.04594498
1.456806,-0.4881898,0.02497973
0.9627544,-0.6661369,0.02128717
0.6757984,-0.5155793,0.03694091
0.7929796,-0.2546642,0.0172276
0.978272,-0.1769155,-0.01873218
0.9892824,-0.212898,-0.02224218
1.028865,-0.2876877,-0.02760333
0.9973123,-0.3213013,-0.0227406
0.8563141,-0.2791342,-0.03825934
0.8475907,-0.2097323,-0.06054701
0.8034904,-0.09113018,-0.02773455
0.8111615,-0.02892188,-0.01132326
0.9397159,-0.06109491,-0.01316959
0.9389281,-0.07234276,-0.006821537
0.9417372,-0.07721233,0.002849655
0.9126961,-0.06746946,0.02760987
0.8637158,-0.03045852,0.02436115
0.9467346,-0.01323072,0.003451748
0.9983542,-0.01876999,-0.01096231
1.03437,-0.04167703,-0.005099097
1.041143,-0.09444074,0.01221195
1.010284,-0.1399201,0.001240636
1.034582,-0.02063794,0.009446297
1.0802,0.1816392,0.03821502
1.219766,0.1560672,0.0501363
1.366129,-0.1088241,0.02441687
1.3964,-0.4318857,-0.07689687
1.308897,-0.5894626,-0.1619751
1.110246,-0.5263692,-0.1364547
0.9494015,-0.4827753,-0.05179516
0.9033045,-0.4336999,0.01750751
1.081627,-0.3165429,0.02554733
1.320258,-0.2682264,-0.03511798
1.23301,-0.1906664,-0.07879825
1.051791,-0.1288017,-0.02567559
0.9455748,-0.1771024,0.0303921
0.8270086,-0.1684985,0.02709253
0.7966644,-0.1506408,0.04877514
0.6679134,-0.1638244,0.1055254
0.5354592,-0.1373879,0.140684
0.6350808,-0.1281726,0.1266643
0.6521659,-0.1090692,0.11039
0.6591195,-0.08003292,0.1248852
0.8044087,-0.06626648,0.1236286
0.8431066,-0.03669656,0.1318704
0.8507655,-0.0381332,0.1530209
0.873196,-0.05559995,0.146573
0.9170835,-0.07176136,0.1251093
1.099934,-0.1548305,0.06836538
1.33016,-0.2628443,0.02593311
1.48256,-0.280572,0.05737198
1.412561,-0.1489866,0.1030293
1.266704,0.04556354,0.1385967
1.299104,0.08069067,0.143581
1.459976,-0.117165,0.08085734
1.574901,-0.4303677,0.006834081
1.155345,-0.6533637,0.004320009
0.5241182,-0.589753,0.03585151
0.6211,-0.3952529,-0.001608253
0.9799752,-0.2694621,-0.07453939
1.086848,-0.1723602,-0.117866
1.116575,-0.2090967,-0.1090658
0.9040559,-0.3384686,-0.03571058
0.7260117,-0.399433,-0.0004108326
0.75285,-0.4174998,-0.02197587
0.7113222,-0.3241522,-0.04612891
0.7661145,-0.1952002,-0.07029091
0.9257533,-0.104201,-0.05224353
1.035078,-0.005878443,-0.04406509
1.062821,0.01055245,-0.02907439
0.9750362,0.04275365,0.03839187
0.9247039,0.067963,0.04863255
0.9524272,0.02615623,0.02880812
0.982012,0.03932066,0.008717168
1.0125,0.009139168,-0.03918393
1.044715,-0.01487624,-0.05028014
1.056756,0.001987151,-0.01554155
1.010814,0.003986504,0.02637472
0.9880719,0.1246524,0.03550443
1.060551,0.2051496,0.04271137
1.216606,0.03055914,0.0602114
1.339782,-0.3168683,-0.0007398616
1.27727,-0.5489611,-0.1189268
1.149422,-0.5069199,-0.1778373
1.076363,-0.4754657,-0.1314319
1.084342,-0.5405202,-0.07912895
1.2643,-0.5328058,-0.07880268
1.427466,-0.5083701,-0.06366499
1.342909,-0.4237856,-0.06153454
1.141608,-0.1690176,-0.06148156
0.9659372,0.03359182,-0.007754682
0.8646611,0.004472561,0.03642608
0.8498457,-0.048363,0.05350572
0.7745973,-0.03918548,0.06597168
0.6637749,-0.0877977,0.08631559
0.6597824,-0.1119613,0.1118553
0.6707093,-0.09339159,0.1076934
0.7112184,-0.125138,0.09971871
0.8089763,-0.129644,0.08776439
0.8050247,-0.1059106,0.07723984
0.7721584,-0.0804364,0.1112437
0.8086351,-0.005120088,0.1334992
0.8206545,0.0303748,0.1231319
0.8492817,0.02995047,0.1056781
0.9479797,0.01195864,0.06198858
1.108968,-0.1233697,0.01160051
1.362097,-0.2868823,0.005281686
1.509576,-0.3281871,0.04813326
1.415826,-0.2027357,0.06989538
1.371801,-0.09049236,0.05176434
1.45605,-0.2050567,0.02158946
1.441783,-0.4341483,-0.01474255
1.271368,-0.6606387,-0.004026025
0.8549616,-0.7201024,0.03182173
0.4603104,-0.4977465,0.03461404
0.6561201,-0.2789217,0.01841198
1.032345,-0.1900989,-0.02797498
1.078342,-0.2040534,-0.06659105
1.094266,-0.335893,-0.05375569
1.009047,-0.4356355,-0.0452562
0.8267369,-0.455071,-0.05373276
0.7853118,-0.3425275,-0.0418883
0.7230854,-0.1401156,-0.03170762
0.7902601,-0.04810372,-0.04380799
0.9446127,0.0009544181,-0.05009275
0.9696132,0.02006093,-0.04827148
1.012364,-0.01367448,-0.03736822
0.9674402,-0.01479059,-0.0039323
0.9213345,-0.02723672,0.01946165
0.9580644,-0.01786135,0.01485692
0.9466699,0.0009127205,-0.01315807
1.001666,-0.01954048,-0.0383545
1.023954,-0.04650243,-0.008058554
1.008452,-0.08283774,0.0259317
1.027547,-0.01418222,0.01565696
1.004798,0.1654719,0.04362423
1.085902,0.2281545,0.09380118
1.28997,0.003209358,0.06471113
1.439294,-0.3145759,-0.02542385
1.322791,-0.3965977,-0.1232492
1.10924,-0.4212337,-0.17207
1.126171,-0.4765691,-0.1383978
1.117381,-0.4051752,-0.08735623
1.1195,-0.4053318,-0.04762011
1.329194,-0.396183,-0.05017465
1.395172,-0.2988169,-0.08963886
1.219485,-0.3108916,-0.06259782
0.968917,-0.2436523,-0.02207868
0.835299,-0.143295,0.008523813
0.8352076,-0.1330466,0.05817109
0.7696139,-0.05331893,0.05018618
0.7426493,-0.03473418,0.06387909
0.7588883,-0.08619614,0.090982
0.7741276,-0.1362677,0.06856359
0.8581455,-0.2115999,0.09040958
0.8708077,-0.2138778,0.1023356
0.8518531,-0.1936097,0.1081916
0.8241804,-0.1280983,0.1512411
0.7649296,0.01298353,0.1641743
0.7996379,0.05818911,0.1665808
0.8768904,0.01326741,0.141255
1.011245,-0.01260815,0.08424365
1.161326,-0.05266616,0.03469362
1.237515,-0.1855635,0.03725223
1.370393,-0.306989,0.08959916
1.433703,-0.2608176,0.07845135
1.356465,-0.1460004,0.05609277
1.389624,-0.1251365,0.05571581
1.420748,-0.227894,0.03682591
1.241968,-0.4238567,0.04787423
0.9016041,-0.5467418,0.02843138
0.5920975,-0.4612559,0.01635907
0.7337816,-0.3489368,0.01259984
1.11261,-0.3054279,-0.05871722
1.169879,-0.2796075,-0.06495656
1.055613,-0.3274417,-0.03283195
0.8639983,-0.3392576,-0.0342322
0.7490882,-0.2953115,-0.02944663
0.8179119,-0.266397,-0.04480964
0.7622547,-0.1530568,-0.04497918
0.7812226,-0.05130265,-0.04427578
0.8877516,-0.0336835,-0.05290993
0.9359107,-0.03001416,-0.03955336
1.026153,-0.0305653,-0.02266009
0.9414377,0.008953903,0.01975849
0.8597121,0.05245427,0.03719987
0.8823502,0.07658616,0.01444526
0.9104731,0.07983152,-0.002963169
1.067525,0.02827533,-0.05248502
1.089995,-0.03490169,-0.08386815
1.042012,-0.1092374,-0.04588386
1.054206,-0.1249964,-0.01103867
0.9907566,0.00122647,-0.002222286
1.068132,0.1143956,0.03869283
1.247125,0.04404871,0.0732754
1.377208,-0.1582543,-0.02712111
1.40764,-0.3877827,-0.1879004
1.305464,-0.5759059,-0.2241055
1.19449,-0.5834651,-0.1770725
0.9902867,-0.5103774,-0.1255021
0.8744672,-0.4927532,-0.03417811
1.075955,-0.377298,0.0125178
1.23933,-0.2669512,-0.03909903
1.225684,-0.2253081,-0.06512754
1.163502,-0.1248689,-0.06465804
1.070417,-0.1068287,-0.06564591
0.9642017,-0.1325717,-0.003108398
0.8034922,-0.08925502,0.06771488
0.6787121,-0.08210177,0.09582287
0.6662151,-0.102113,0.1049652
0.6639565,-0.1241676,0.1080931
0.6973855,-0.1655515,0.1234801
0.7762476,-0.1828821,0.1285299
0.8379794,-0.1646838,0.1268755
0.8918765,-0.136293,0.138431
0.8958663,-0.06640683,0.1408408
0.8833864,0.02384581,0.1273506
0.942643,0.02879589,0.0816575
1.066333,-0.04995286,0.01258753
1.272563,-0.1884928,-0.01628569
1.447069,-0.2967093,0.02157974
1.433363,-0.2400573,0.04945393
1.370862,-0.169178,0.008925772
1.382337,-0.2112864,-0.03185072
1.416715,-0.3065897,-0.04336806
1.371059,-0.5069949,-0.0373598
1.014498,-0.6453881,-0.0007849138
0.5405054,-0.4862466,0.03107825
0.5574253,-0.2929364,0.03084293
0.8775017,-0.2592447,-0.02138879
0.9940636,-0.2817229,-0.08654855
1.039338,-0.3605768,-0.08426145
1.009206,-0.4052339,-0.07443761
0.9026371,-0.3474523,-0.0999695
0.8877552,-0.2611712,-0.08674052
0.7937875,-0.1489099,-0.03551203
0.7503371,-0.0578824,-0.02549608
0.8842212,-0.03482649,-0.04986191
0.9802938,-0.01889202,-0.04034432
1.020426,0.01519147,-0.03257403
0.9830616,0.02990761,-0.03649656
0.9656766,0.07113357,-0.001832764
0.9862067,0.113831,0.01513909
0.9448232,0.04875762,0.00629916
0.9528055,-0.005135578,0.01218374
0.9313524,-0.03027802,0.01295397
0.9138209,-0.1017953,0.02134234
0.965835,-0.1560891,0.04154323
0.9647922,-0.2062291,0.05409307
1.000638,-0.1201445,0.05582636
1.070628,0.06414159,0.07270011
1.16102,0.07555051,0.09378721
1.278413,-0.03336267,0.02408397
1.315842,-0.1946539,-0.1103713
1.300794,-0.3505186,-0.1945498
1.233523,-0.4173499,-0.2003869
1.139829,-0.4564592,-0.1307596
1.090116,-0.455985,-0.04774768
1.142483,-0.4075511,-0.03137508
1.228626,-0.2892534,-0.04842258
1.142052,-0.1302045,-0.04306619
1.04542,-0.08505889,-0.02832046
1.041142,-0.1362923,-0.004698468
0.9826468,-0.1962129,0.03385076
0.916076,-0.2336551,0.04632637
0.7868726,-0.2054117,0.05802052
0.6599098,-0.1281002,0.1046708
0.6682831,-0.07583649,0.1263139
0.7016758,-0.07171815,0.1230346
0.7567447,-0.07292709,0.1279874
0.8079345,-0.06936957,0.1255998
0.8421766,-0.05225348,0.1360864
0.9094981,-0.03469544,0.1580248
0.965378,-0.04986489,0.1514309
1.064358,-0.07741192,0.09651562
1.220745,-0.1410415,0.02525204
1.396537,-0.2306822,0.02993447
1.47518,-0.2436095,0.09110539
1.294022,-0.1292895,0.1083519
1.09838,0.02980615,0.09033446
1.165046,0.05925168,0.06404101
1.416949,-0.1343249,0.03598683
1.558162,-0.4625033,-0.002130738
1.177487,-0.647066,-0.04541947
0.5815156,-0.5386692,-0.02509004
0.5440141,-0.3704048,0.00106556
0.8518761,-0.2634639,-0.02920247
1.016153,-0.1809465,-0.0326835
1.121385,-0.2205998,-0.02767037
1.106847,-0.2576245,-0.04621013
1.016616,-0.2199502,-0.05695768
0.9646974,-0.2363322,-0.06610049
0.8229557,-0.1399367,-0.04171554
0.7471874,-0.01168697,-0.006221149
0.8098789,-0.07103194,-0.01188215
0.9016058,-0.1115331,-0.02163233
0.9977774,-0.108593,-0.02091518
0.9852368,-0.1130385,-0.01371945
0.9279135,-0.05208334,0.002109072
0.9231999,0.006620207,0.002555468
0.9568711,0.04629061,-0.01356493
1.010502,0.04534682,-0.02569577
1.024636,0.0008490637,-0.01674881
1.047802,-0.0423444,0.009289936
1.057227,-0.04257179,0.02705113
1.022755,0.09848804,0.02804587
1.028861,0.2696323,0.03767386
1.059213,0.2309027,0.05141497
1.155381,-0.03174815,-0.005722234
1.277357,-0.2872148,-0.1082378
1.245174,-0.3222193,-0.1323655
1.175179,-0.3166717,-0.105334
1.162945,-0.4822182,-0.1038057
1.066238,-0.5575739,-0.09618822
0.9424449,-0.4702605,-0.05731082
0.8791541,-0.4559827,-0.003982352
0.9690683,-0.375084,0.01067541
1.255283,-0.2200584,-0.04886659
1.364474,-0.1810081,-0.09641533
1.244897,-0.1372366,-0.06159973
1.146269,-0.1159671,-0.01134594
0.9762534,-0.1428143,0.02119012
0.8230356,-0.1130591,0.0628539
0.7906261,-0.1102612,0.07997105
0.7918389,-0.1145921,0.07491361
0.8394296,-0.1022359,0.07819387
0.8832481,-0.1126343,0.07010402
0.9106406,-0.1108953,0.06427987
0.9122666,-0.1276416,0.07117019
0.8868104,-0.1433599,0.07849871
0.8823987,-0.1225573,0.09314949
0.8587649,-0.0857416,0.1114227
0.8595941,-0.04299008,0.1240524
0.89605,-0.03113743,0.1120174
0.9458197,-0.05139833,0.08151231
1.056781,-0.09598429,0.04644485
1.180077,-0.174462,0.002078778
1.249563,-0.2213163,-0.01151359
1.226306,-0.1627045,0.006145655
1.195383,-0.06248645,0.007194931
1.276338,-0.06018472,-0.003489176
1.458118,-0.2297111,-0.01792853
1.60484,-0.4575999,-0.03718132
1.322556,-0.4887045,-0.03753414
0.7596809,-0.4029381,0.002725792
0.6017531,-0.3784874,0.04498077
0.7151707,-0.2521221,0.03268649
0.8421924,-0.1627671,0.004096009
1.066554,-0.2826094,-0.02591648
1.085402,-0.3691906,-0.08285394
1.101088,-0.1131981,0.1201246
1.103289,-0.06454429,0.1078081
1.13601,0.1231852,0.04134746
1.142024,0.3450211,-0.0099076
1.270732,0.1864935,0.03781262
1.356327,-0.229461,0.0697368
1.250317,-0.6046135,0.04075392
1.124382,-0.8211164,0.01196102
0.9760869,-0.8029981,-0.0361329
0.9228657,-0.7173667,-0.08249664
1.009097,-0.5829162,0.03050393
1.111516,-0.3409207,0.1568115
1.199871,-0.313853,0.04967045
1.175834,-0.3143533,-0.07061851
1.048302,-0.05986733,-0.04815686
0.9221376,0.02631919,-0.001192302
0.8124372,-0.009767836,0.07780802
0.759916,-0.02389295,0.1408755
0.7442327,-0.1537386,0.1513683
0.7150262,-0.1663938,0.175091
0.7334372,-0.1386545,0.1520409
0.7715213,-0.1602183,0.1136516
0.792452,-0.08968708,0.1237651
0.8536368,-0.06116771,0.1363975
0.9040046,-0.05759136,0.1828625
0.9257936,-0.05450853,0.2063306
0.936571,-0.08360177,0.1504031
0.9696385,-0.1155337,0.1177414
1.14267,-0.237594,0.1415707
1.347364,-0.3141182,0.1615533
1.388886,-0.2139747,0.1312969
1.326737,-0.073803,0.1020499
1.361675,-0.03893774,0.09352273
1.564764,-0.2150652,0.05191783
1.693793,-0.511247,0.003041972
1.430178,-0.7240936,-0.05611889
0.891947,-0.7840463,-0.05342729
0.5682774,-0.6850974,0.1814497
0.5627827,-0.5209465,0.4135038
0.6611661,-0.3692334,0.1962203
0.8266406,-0.1901383,-0.1848564
0.9751752,-0.2026263,-0.2130505
1.003781,-0.4013123,-0.1194082
0.9153892,-0.386456,-0.06365259
0.8232535,-0.3352132,0.04535754
0.7863662,-0.3229241,0.064832
0.7188521,-0.1537264,0.03053846
0.7604316,-0.08812812,-0.01554521
0.900205,-0.0591575,-0.05208583
0.9641371,-0.01218578,-0.06207081
1.007115,-0.05828189,-0.1017266
0.9684764,-0.03646112,-0.02991577
0.8833863,-0.04452793,0.05769719
0.8500855,-0.04850076,0.05506188
0.8549005,-0.01792827,0.06487828
0.9729774,-0.0720842,0.03916103
1.11548,-0.09295253,0.02884891
1.169893,-0.08433766,0.02691772
1.1116,0.02132134,0.01939032
1.060948,0.1570875,0.0560565
1.215426,0.08006205,0.06180563
1.32958,-0.1500664,0.06360078
1.26189,-0.4873712,0.02859951
1.234911,-0.7595299,-0.0412239
1.229686,-0.758981,-0.05900252
1.189262,-0.6380046,-0.05081796
1.190914,-0.50065,0.03236494
1.206757,-0.3495518,0.1131088
1.131078,-0.267281,0.06078808
1.01547,-0.1963601,-0.009137659
0.9492429,-0.09103345,-0.004768108
0.8836078,-0.08610694,0.01362797
0.8111954,-0.1481569,0.02130309
0.7067498,-0.1749336,0.06434878
0.6071446,-0.1900918,0.1214238
0.6043309,-0.1724515,0.1565653
0.6454606,-0.1328684,0.1619783
0.7127569,-0.08961949,0.1488435
0.7907108,-0.06809393,0.1351059
0.8625293,-0.0873311,0.1014594
0.9246779,-0.08351791,0.1172253
0.9223582,-0.09306535,0.1659981
0.9146895,-0.1133818,0.1597496
0.9871811,-0.1251675,0.1562413
1.226081,-0.2291778,0.1487451
1.547998,-0.3185553,0.1437416
1.547749,-0.2307645,0.1561583
1.241456,-0.06277839,0.1406685
1.14418,-0.00973706,0.1393577
1.374896,-0.2094196,0.08698933
1.543105,-0.5963437,-0.07046567
1.29031,-0.8289778,-0.1518342
0.854329,-0.7108647,-0.002429123
0.6817537,-0.4601421,0.1804359
0.6762971,-0.2123809,0.1094813
0.7820333,-0.06825995,-0.06193748
0.9828965,-0.1956315,-0.1699997
1.021731,-0.2894465,-0.2090369
0.9606899,-0.2660169,-0.09633376
0.8570899,-0.3786322,-0.01594038
0.7554856,-0.3680256,-0.015313
0.7496886,-0.2557956,0.03989623
0.7422557,-0.2377885,0.04638335
0.8671466,-0.1092394,0.01495532
1.041639,-0.03159857,-0.02414475
0.9813574,-0.05961909,-0.02383719
0.8989426,0.01328025,0.02811378
0.9205466,0.04509222,0.01412667
0.8624368,0.01383657,0.04675977
0.8112401,-0.008305397,0.08443388
0.9136944,-0.05146539,0.04982099
1.048803,-0.1005655,0.06557946
1.125426,-0.114936,0.07818023
1.105574,0.006000478,0.09292274
1.075133,0.2194442,0.09341111
1.17455,0.2902286,0.06780897
1.299473,0.01791302,0.08792904
1.380713,-0.4271127,0.06423336
1.299126,-0.6671777,0.01934368
1.108354,-0.6940266,-0.01167935
1.080711,-0.6103283,-0.03585811
1.066227,-0.4585059,0.00106531
1.084814,-0.3345719,0.0606596
1.204567,-0.2276877,0.118356
1.18078,-0.1736487,0.07285224
1.148172,-0.162025,-0.05372876
1.114614,-0.1197694,-0.06687322
0.9464624,-0.1257171,-0.01283759
0.8056431,-0.1648566,0.06158952
0.6912539,-0.1737409,0.1469296
0.6162181,-0.1660989,0.173144
0.625192,-0.1140297,0.1862105
0.667838,-0.06003332,0.1773679
0.7669326,-0.06798473,0.1312725
0.8584228,-0.1164893,0.1065463
0.9090186,-0.1664199,0.1341432
0.9533399,-0.1748525,0.1952964
0.9751212,-0.1179354,0.2008311
0.9767276,-0.03689162,0.1694877
0.9745379,-0.03503868,0.136137
1.055981,-0.1610087,0.1013837
1.287649,-0.3184151,0.1760321
1.487177,-0.3350437,0.2588275
1.411761,-0.1617452,0.1892524
1.266349,0.03486055,0.0879352
1.323787,0.04479736,0.01614321
1.418074,-0.2629009,-0.05628541
1.441006,-0.7197396,-0.1283984
1.211181,-0.906059,-0.1821103
0.7738394,-0.7744373,-0.04585184
0.6553014,-0.5066166,0.1493575
0.650845,-0.1729076,0.03594503
0.6317981,-0.08218127,-0.09412487
0.8874358,-0.2656031,-0.03076421
0.986112,-0.297994,-0.080377
0.9184331,-0.2656937,-0.1067175
0.932445,-0.3087692,-0.05949624
0.8604423,-0.2304399,-0.08223169
0.8469076,-0.1265707,-0.0189906
0.846977,-0.03947469,0.01333571
0.8344591,0.003670289,-0.02022215
0.8873056,-0.04091828,0.01828054
0.846047,-0.006436624,0.0436071
0.8406406,-0.01013931,0.08187634
0.8929619,-0.03926349,0.1031128
0.9898499,-0.004317526,0.06626644
1.195663,-0.0551141,0.03972401
1.244279,-0.06222077,0.02858426
1.124694,-0.009809913,0.07926235
1.061748,0.06484948,0.1290691
1.117907,0.1518233,0.114887
1.267391,0.002218529,0.09867791
1.390575,-0.2827197,0.05805423
1.376787,-0.538506,-0.02463786
1.295421,-0.7583282,-0.09108841
1.266543,-0.7839378,-0.1263484
1.155914,-0.6490018,-0.1266611
0.9928741,-0.4864209,0.04214437
0.9830845,-0.3298626,0.2984041
1.00067,-0.2342219,0.2815212
1.003444,-0.1703493,0.01754008
1.042187,-0.07888407,-0.1788832
1.042241,-0.0882395,-0.1590046
0.9621435,-0.2230581,-0.01783765
0.82557,-0.2742224,0.0411156
0.7777923,-0.265838,0.06504314
0.7179902,-0.2618189,0.1644605
0.5682052,-0.2135306,0.2665143
0.5959913,-0.1814755,0.2635471
0.7356576,-0.1242105,0.1505522
0.8237816,-0.05019528,0.08339877
0.9170674,-0.03607857,0.07097845
0.9538444,-0.04211238,0.07174491
0.9524762,-0.04472524,0.1161044
0.937595,-0.03211333,0.1139988
0.8650276,-0.05748571,0.1176078
0.8853347,-0.1483459,0.1117136
1.07903,-0.3017737,0.06298478
1.36904,-0.4250015,0.1146677
1.516608,-0.3177072,0.1423421
1.294501,-0.09189474,0.1161491
1.13928,0.08234039,0.1369599
1.35788,0.04904619,0.09877286
1.481781,-0.3706569,-0.04929878
1.35452,-0.8102918,-0.1932671
1.095916,-0.8458054,-0.06833445
0.7157225,-0.5974686,0.1707763
0.5725259,-0.3773355,0.1480165
0.7793076,-0.2915695,0.01720303
0.9152832,-0.298415,-0.06421942
0.9238724,-0.372732,-0.04273481
0.9041613,-0.3750111,0.03669171
0.7921238,-0.313274,-0.01715365
0.7862866,-0.2481254,-0.03689326
0.8497195,-0.1302046,-0.005897214
0.8429682,-0.09771973,-0.0411305
0.9157134,-0.110417,-0.00916002
0.9378531,-0.1130528,0.006207007
0.8965166,-0.1487261,0.01728184
0.9155877,-0.09672307,0.0851905
0.9160392,-0.04994851,0.08606866
0.9712547,-0.04239615,0.0490285
1.037339,-0.01144113,-0.03536482
1.046799,-0.01962998,-0.090085
1.043035,-0.04135955,-0.03654954
0.9881929,-0.0632826,0.0206846
0.9261132,-0.003861961,0.07942669
0.9267258,0.104118,0.08306555
1.112207,0.0838724,0.08221984
1.375099,-0.08819386,0.1276942
1.396206,-0.3748011,0.01688224
1.265322,-0.593234,-0.121652
1.21019,-0.6663969,-0.08455533
1.215692,-0.6965818,-0.03916506
1.188872,-0.6181728,0.01786731
1.121191,-0.455368,0.1823268
1.057867,-0.3046761,0.2220592
0.9953474,-0.1603989,0.061372
0.9593789,-0.06624727,-0.0545343
0.9464123,-0.02140401,-0.05999814
0.9007873,-0.01429029,-0.02069728
0.8217948,-0.06160615,0.03304067
0.7370778,-0.1142098,0.1063791
0.7003446,-0.1639006,0.2089032
0.723061,-0.2105689,0.2296485
0.7682579,-0.2185613,0.1686066
0.8435789,-0.1764259,0.1262098
0.9159792,-0.09084183,0.1085424
0.9361537,-0.01904,0.1360904
0.9421578,0.01646589,0.171223
0.9369714,0.03116638,0.1731725
0.9057902,0.002608333,0.1453984
0.9070351,-0.0821857,0.06033792
1.041676,-0.234396,0.02280952
1.39293,-0.3839336,0.1506808
1.67952,-0.4184843,0.2672531
1.589092,-0.3226618,0.1539942
1.516955,-0.19904,0.03865632
1.636208,-0.2376571,0.06724467
1.528652,-0.4201175,-0.1087005
1.291884,-0.5377771,-0.2877577
0.8978152,-0.5034492,0.05806366
0.3379929,-0.4016689,0.4796261
0.4824015,-0.3855269,0.3598586
1.074887,-0.3902632,-0.08593817
1.23519,-0.3594684,-0.4200744
1.259919,-0.3802581,-0.3829472
1.134124,-0.3648108,-0.1189173
0.8408293,-0.3185273,-0.001457965
0.7135176,-0.2826052,0.06206371
0.6921489,-0.2078928,0.06971628
0.810063,-0.1064897,-0.04329699
0.7951252,-0.004006859,-0.009583777
0.7946853,-0.02396566,-0.02570301
1.018945,-0.05893613,-0.09442617
0.9907786,-0.0485093,-0.0269596
0.9793783,-0.1541337,-0.04752735
0.9680995,-0.1608277,0.008079084
0.8229112,-0.07500599,0.1095902
0.9183792,-0.06950101,0.09283961
0.9911092,-0.03403405,0.1082568
1.090286,-0.02616097,0.059179
1.176143,0.0442996,0.009376225
1.089013,0.2146186,0.0004357631
1.181868,0.1953159,-0.008267724
1.329442,-0.1040913,0.0155019
1.415453,-0.5222562,-0.03360963
1.304022,-0.7218599,-0.04862386
1.022823,-0.6863534,-0.0316752
0.9843197,-0.649425,-0.03470963
1.002451,-0.5173291,0.02701075
1.056279,-0.3688311,0.06142595
1.220964,-0.3266245,0.03806293
1.21191,-0.2664088,-0.02932793
1.149884,-0.2098724,-0.06796119
1.088485,-0.1353107,-0.03253356
0.934806,-0.07918112,0.02369604
0.8066164,-0.1275481,0.1086173
0.7138308,-0.1495485,0.1250424
0.6631581,-0.1507307,0.1265596
0.6884356,-0.1581154,0.1793301
0.7462459,-0.1283852,0.1510522
0.8169856,-0.1283816,0.1087249
0.8727657,-0.1220314,0.1001435
0.8714401,-0.0953169,0.107622
0.8398745,-0.08036225,0.1606195
0.8126606,-0.03364148,0.1762207
0.7952252,-0.0200648,0.1590085
0.8555806,-0.08865039,0.1443106
1.044289,-0.2086193,0.0978516
1.334922,-0.3497554,0.06767605
1.544766,-0.3756105,0.07803719
1.478432,-0.2196066,0.08123555
1.371388,-0.06291248,0.07293067
1.397076,-0.1067527,0.08006638
1.384696,-0.364732,0.06339829
1.326011,-0.6627299,-0.03448663
1.05051,-0.7313271,-0.08997292
0.5854949,-0.5292447,0.08529509
0.516683,-0.3153547,0.2539588
0.7700969,-0.2004341,0.04404544
0.9321346,-0.207586,-0.1891827
1.091898,-0.3620447,-0.08883896
1.13744,-0.4624631,-0.013896
0.9870035,-0.4335619,-0.02248064
0.8448877,-0.3081608,0.01509666
0.7128933,-0.1206849,-0.03508598
0.7103884,-0.05903029,-0.04018517
0.882883,-0.07909302,-0.01572923
0.9886243,-0.1005112,-0.05999897
1.019214,-0.1716421,-0.02756927
1.004164,-0.194291,0.01894804
0.941143,-0.1631644,0.07331237
0.8710888,-0.1168992,0.1348326
0.804262,-0.05511557,0.1065811
0.8770866,-0.03130124,0.07136907
0.9893767,-0.03822819,0.009921929
1.000082,-0.03767218,-0.02249919
1.004697,-0.01071127,0.04771157
0.9829483,0.05754167,0.07390276
1.008223,0.1395578,0.07118419
1.157865,0.1115847,0.08972576
1.400608,0.0007917976,0.1153026
1.561304,-0.07046316,0.1226055
1.384151,-0.2656481,0.03650474
1.174528,-0.6141917,-0.03665189
1.147674,-0.7820942,-0.01148872
1.065071,-0.6610847,0.004004705
0.9872496,-0.5428591,0.01193731
1.00152,-0.4933926,0.1480029
1.08009,-0.3441797,0.2760721
1.164922,-0.2621316,0.1028368
1.162086,-0.2112775,-0.141467
1.117727,-0.06415931,-0.1321554
1.026319,-0.05872784,-0.04968857
0.9128366,-0.09599006,0.008270022
0.8094334,-0.09723681,0.1161906
0.6944247,-0.143474,0.1920009
0.6482979,-0.1219475,0.2076622
0.6799029,-0.1187147,0.2248717
0.7597764,-0.1207825,0.2312398
0.8683555,-0.08468634,0.1432978
0.9803316,-0.08717606,0.03564738
1.003974,-0.06746163,0.08827546
0.8995976,-0.0445053,0.1738865
0.8658036,-0.02246846,0.1698635
0.8603823,-0.03789964,0.1777532
0.8426194,-0.1360664,0.1416616
1.048959,-0.258875,0.09134589
1.41933,-0.3806126,0.1152745
1.617259,-0.3589317,0.1000162
1.425753,-0.2083465,0.07839704
1.266953,-0.07331836,0.1078919
1.468175,-0.01677224,0.08381185
1.489286,-0.2049917,-0.05884057
1.165766,-0.4566603,-0.1669319
0.7908598,-0.4832208,0.04324521
0.5554245,-0.4348304,0.3049254
0.6177971,-0.3741646,0.1921305
0.8147542,-0.3036578,-0.01275399
1.069082,-0.3720338,-0.1363259
1.221259,-0.4929608,-0.2296954
1.062175,-0.4938605,-0.08934679
0.8683653,-0.4151078,0.07196479
0.646068,-0.3112907,0.09665083
0.4955161,-0.1948939,0.1597783
0.6696193,-0.127563,0.08527083
0.8187491,-0.09314569,-0.0691963
0.9520593,-0.09047199,-0.123891
1.159368,-0.1180331,-0.1444504
1.174229,-0.0792743,-0.07382597
1.089349,-0.0158854,-0.01052797
0.9276229,0.05458311,0.02567498
0.8098552,0.1140017,0.07638271
0.8875143,0.04962611,0.03862187
0.9591451,-0.02087984,0.02954905
1.07385,-0.0435793,0.03448712
1.142897,-0.04765501,-0.007123853
1.071707,0.04820205,-0.006318207
1.118321,0.1238982,0.02336523
1.247132,0.0750668,0.0834774
1.337579,-0.08240624,0.09141884
1.289952,-0.3386035,0.03504182
1.163528,-0.5309175,-0.02908567
1.170021,-0.5430224,-0.1667349
1.144447,-0.4892773,-0.225038
1.123213,-0.4815349,-0.06305747
1.188948,-0.4800496,0.09789718
1.112197,-0.4682734,0.06034756
1.009321,-0.4418704,-0.01067821
0.9289958,-0.3266775,0.02031413
0.8143463,-0.1613122,0.02529632
0.7999813,-0.03970902,0.0365606
0.7896502,-0.01537524,0.06007605
0.7693772,-0.05200432,0.04942428
0.7884083,-0.05759291,0.1094646
0.7948797,-0.07886615,0.1408347
0.8536169,-0.1100448,0.1312335
0.8775691,-0.08530717,0.151576
0.8340185,-0.04554479,0.1239484
0.8206803,0.009828003,0.1259372
0.8294536,0.03938394,0.1294479
0.9070599,-0.01279963,0.09069874
0.995431,-0.0658278,0.08723572
1.003168,-0.09543438,0.07957307
1.07464,-0.1654895,0.09079422
1.323471,-0.2573439,0.09801349
1.500868,-0.2553414,0.08137992
1.377718,-0.1266991,0.08628512
1.261917,-0.03365021,0.06788226
1.353086,-0.09256005,0.06994726
1.49378,-0.2865737,0.06142582
1.586331,-0.5679685,-0.03446257
1.30812,-0.7079297,-0.07270614
0.7232372,-0.560093,0.095484
0.4406824,-0.3565841,0.2799757
0.4351093,-0.20136,0.1542982
0.5968431,-0.1058249,-0.04590314
1.007193,-0.2449586,-0.05722364
1.262248,-0.4226059,-0.09319046
1.240278,-0.419436,-0.0955079
1.080127,-0.3659109,-0.02201894
0.8280297,-0.2384046,0.003402595
0.7186548,-0.1114848,0.04308504
0.731856,-0.1035164,0.04755535
0.7824492,-0.1140007,0.05976244
0.8785049,-0.1313124,0.07077423
0.9177637,-0.1172657,0.007739496
0.9465256,-0.07388803,0.01473945
0.9702226,-0.02195996,0.001315807
0.979601,0.04372882,-0.05365715
1.026866,0.03266091,-0.04833194
1.071673,0.02616347,-0.05193719
1.104376,0.04038927,0.01153307
1.094993,0.03279337,0.09844145
1.0362,0.08850465,0.1145664
0.9991133,0.140858,0.1242563
1.089509,0.1088222,0.1250194
1.325401,-0.07283589,0.1203173
1.462154,-0.3118708,0.0868683
1.354629,-0.4014208,0.01673809
1.230721,-0.4650992,-0.09429738
1.2213,-0.5256367,-0.2125484
1.122405,-0.4693275,-0.1677383
0.9762088,-0.4506098,0.02025815
0.9821799,-0.4368967,0.168886
0.9787304,-0.3240548,0.1788756
0.9500552,-0.2463431,0.1003454
0.9814354,-0.1703732,0.02388645
0.95725,-0.1137943,-0.06775566
0.9018392,-0.1619468,-0.0424132
0.802419,-0.1618501,0.103065
0.6939604,-0.1481624,0.1484063
0.6834235,-0.1640966,0.2074759
0.6940615,-0.1308611,0.2539143
0.7442394,-0.1388851,0.1636608
0.8389467,-0.1496024,0.1387568
0.9065931,-0.1320722,0.1267048
0.9508175,-0.1270513,0.1110479
0.9564891,-0.07534414,0.1731879
0.9588898,-0.02943839,0.173469
0.9723734,-0.02460562,0.1597837
1.017646,-0.06868714,0.1293498
1.186008,-0.1885089,0.08921941
1.403105,-0.2648057,0.1195738
1.465406,-0.2111739,0.1114173
1.398435,-0.1429637,0.10428
1.434674,-0.1926588,0.106863
1.555404,-0.3361375,0.05867515
1.529156,-0.5132958,-0.03245901
1.149461,-0.5941831,-0.1010279
0.5964293,-0.5221081,0.1066789
0.5272617,-0.4521663,0.3276737
0.7842624,-0.2986588,0.09437852
0.8140979,-0.1446305,-0.1566884
0.9608688,-0.2814436,-0.08062538
1.146737,-0.4089174,-0.0636579
1.033178,-0.3691349,-0.1179309
0.9260323,-0.3292894,-0.06508338
0.7876087,-0.2135331,-0.04052652
0.6695734,-0.1237483,0.02725015
0.7554057,-0.1197766,0.1190408
0.7877242,-0.1047879,0.08346213
0.8835193,-0.1054243,0.0271686
1.07918,-0.06920058,-0.02339455
1.033965,-0.0285657,-0.02394212
0.9064761,-0.02937075,0.03538473
0.900018,-0.004241328,0.04483549
0.9014943,-0.01261456,0.06423716
0.9497347,-0.07787111,0.06110089
1.060523,-0.1424072,0.03276889
1.113536,-0.161417,0.05715825
1.080142,-0.05357844,0.04178922
1.01826,0.1742696,0.005478031
1.05141,0.3145136,-0.003303239
1.187428,0.11674,0.02259364
1.314948,-0.2716718,0.07482922
1.329637,-0.5143264,0.03776387
1.203875,-0.6209086,-0.01708138
1.130085,-0.6010273,-0.03820125
1.139583,-0.464095,-0.09355211
1.185112,-0.3467255,-0.07681492
1.307063,-0.2289178,-0.02238106
1.302374,-0.1979581,-0.02194664
1.156519,-0.2106426,-0.01555696
1.014081,-0.1339731,-0.01196282
0.9212721,-0.1456194,0.02758812
0.8846812,-0.1639994,0.0886026
0.7862371,-0.1284359,0.08340397
0.706398,-0.1611513,0.09427601
0.6729266,-0.1419396,0.1319086
0.6643124,-0.1241528,0.1452068
0.7551193,-0.1424372,0.1584029
0.8034581,-0.1205082,0.1264555
0.8560968,-0.1145411,0.07521309
0.887535,-0.07639467,0.07551518
0.8191094,-0.03427943,0.09754499
0.8478266,-0.04489752,0.1264294
0.8952026,-0.0808051,0.1503584
0.9852265,-0.1840777,0.1544561
1.198065,-0.3134482,0.1350489
1.397475,-0.3531933,0.09404577
1.507967,-0.2281216,0.06601283
1.341277,-0.02409945,0.03368579
1.206906,0.0313473,0.009232934
1.477467,-0.163256,-0.01191837
1.619118,-0.5175326,-0.1380462
1.273049,-0.7599979,-0.2066213
0.7892795,-0.700301,0.01113918
0.5360148,-0.5082801,0.2323571
0.536788,-0.3398451,0.1525926
0.7135279,-0.2342804,-0.01252466
1.009279,-0.2990628,-0.07298714
1.157043,-0.3851593,-0.09845376
1.101301,-0.3510301,-0.06470928
0.9930738,-0.3348088,-0.03124002
0.8360295,-0.2413729,-0.03572214
0.7319732,-0.03478359,0.0004705797
0.7209881,0.08934706,-0.02079888
0.7993483,0.1008714,-0.04946177
0.9873015,0.03732219,-0.05074254
1.068622,-0.001714853,-0.09142693
0.992796,-0.05326226,-0.03399062
0.9276463,-0.1127426,0.03863477
0.8674873,-0.04882154,0.04969495
0.8387771,-0.04029283,0.06119932
0.9160964,-0.05684661,0.03505777
1.037324,-0.03377066,0.04432728
1.118822,-0.06736352,0.04255386
1.105296,0.0559253,0.007854808
1.082297,0.2610552,0.01595974
1.199957,0.2927996,0.02336717
1.382111,0.07359913,0.04187186
1.470672,-0.3283153,0.0009787934
1.372881,-0.6055405,-0.06332692
1.181301,-0.7328276,-0.03738162
1.063079,-0.7439241,-0.0249071
0.9420237,-0.6002412,0.02126566
0.9232423,-0.4559771,0.1678353
1.063644,-0.3129517,0.2572497
1.10489,-0.2259161,0.2206316
1.129149,-0.2197242,0.1624291
1.135088,-0.1706622,0.07184858
1.057754,-0.1404477,-0.08007575
1.042701,-0.144993,-0.05760193
0.9187255,-0.1456646,0.05478877
0.7070638,-0.1111541,0.05230714
0.5971388,-0.04210677,0.1517418
0.5797608,-0.03090469,0.220611
0.6630678,-0.04425322,0.149357
0.7509565,-0.07963245,0.1568467
0.8447436,-0.1463968,0.1290107
0.9082884,-0.1721228,0.1405728
0.8952894,-0.1697367,0.2424509
0.9145667,-0.1427351,0.2208818
0.9175345,-0.1198218,0.1576753
1.002964,-0.139861,0.08900211
1.259916,-0.1982081,0.0728227
1.49512,-0.2471468,0.1209355
1.518396,-0.1679293,0.09110697
1.321993,-0.02795196,0.1106399
1.235483,0.006663199,0.14566
1.387603,-0.1208501,0.07537422
1.480682,-0.4757176,-0.07746709
1.301459,-0.8421099,-0.2307817
0.9434235,-0.7875576,-0.06928755
0.6808902,-0.4958892,0.2123353
0.6357941,-0.3432697,0.1699412
0.7913286,-0.2310539,-0.01893963
0.9643079,-0.2961881,-0.146165
0.9836899,-0.4863212,-0.09422258
0.9204887,-0.4483833,0.06030676
0.7945287,-0.4066422,0.04460965
0.7396751,-0.3227899,0.02016439
0.814213,-0.1130314,0.003426803
0.8855799,-0.04048591,-0.1051801
0.9732447,0.03223,-0.1003789
0.9798746,0.05029102,-0.06346375
0.9005093,-0.005142345,-0.007327779
0.844361,-0.00164556,0.127565
0.7941246,-0.07983423,0.1529485
0.809801,-0.1260364,0.115347
0.8548758,-0.1397991,0.08999009
0.9372106,-0.1660946,0.06570355
1.093354,-0.1268394,0.06358
1.153175,-0.07642848,0.05190623
1.120025,0.09516586,0.04910293
1.161775,0.2267005,0.06514948
1.292783,0.1109537,0.08758262
1.355959,-0.0804242,0.07044053
1.2632,-0.3888345,0.01308774
1.187243,-0.7717957,-0.05998819
1.259565,-0.8277279,-0.1748002
1.335893,-0.6416215,-0.2251733
1.310235,-0.5827855,-0.1501612
1.223083,-0.4119828,-0.008933633
1.058884,-0.1577939,0.1058432
0.9275164,-0.1703506,0.08916946
0.9150122,-0.1612219,0.02778402
0.8811521,-0.09150882,0.007226129
0.8553712,-0.1229914,-0.02074907
0.8302773,-0.104449,-0.03379029
0.7287055,-0.1055093,0.02128351
0.6928239,-0.12175,0.130837
0.6975899,-0.1252179,0.221805
0.7069008,-0.1708039,0.2237065
0.7855024,-0.1734874,0.1516535
0.8253528,-0.1406514,0.09675967
0.8512521,-0.08407107,0.1005679
0.905866,-0.0307501,0.1248102
0.9219744,-0.02872913,0.1335499
0.9519401,-0.06170367,0.1210943
0.9983986,-0.1586533,0.09590019
1.124952,-0.2974536,0.0741079
1.38702,-0.3573247,0.1003297
1.516803,-0.2460405,0.1382289
1.438373,-0.1397448,0.1176218
1.448899,-0.1979318,0.1042263
1.601446,-0.2238043,0.1121775
1.671757,-0.2453464,0.1022905
1.488327,-0.482643,0.1122287
1.007367,-0.7304823,0.1309519
0.6173156,-0.6900009,0.1428404
0.7413028,-0.4681033,0.1271924
0.9049234,-0.2937144,0.04055374
0.8024838,-0.216785,-0.03286736
0.9115626,-0.2951378,-0.01538107
1.035471,-0.4084768,-0.002457471
0.9190206,-0.3667525,-0.06178911
0.9051764,-0.3218492,-0.1086165
0.8766151,-0.2670105,-0.1117995
0.8181598,-0.179471,-0.0843684
0.8698133,-0.189005,-0.003014481
0.866213,-0.137998,0.03261059
0.9021433,-0.06874919,-0.00878145
0.9481541,-0.05261961,-0.03322417
0.930607,0.01791652,-0.0500808
0.9493153,0.0183981,-0.04959397
0.9302359,-0.02683449,-0.01821773
0.9292361,-0.05418398,0.008252015
0.9593977,-0.08669367,0.02528741
0.9903237,-0.06259542,0.03937129
1.060031,0.003100627,0.04241038
1.080083,0.1479476,-0.01605365
1.153216,0.2544302,-0.08421254
1.316819,0.1278763,-0.07684918
1.37066,-0.140971,-0.03786033
1.285712,-0.4433784,-0.005610262
1.153551,-0.6299168,-0.01836334
1.043865,-0.6102708,-0.07104613
1.006232,-0.5572436,-0.08313197
1.096359,-0.4990114,-0.03538876
1.228675,-0.3991404,0.02284456
1.236232,-0.3325665,0.02169514
1.162934,-0.2085994,-0.04240293
1.07456,-0.04559279,-0.1042673
0.9863877,-0.01414907,-0.09850097
0.9209821,-0.05543264,-0.02572717
0.8297047,-0.08382599,0.04500615
0.7125408,-0.1198902,0.1271413
0.6169428,-0.1505751,0.2342432
0.6372649,-0.1417272,0.2636537
0.7761642,-0.1303183,0.1981864
0.8777149,-0.1496585,0.1426892
0.9353043,-0.1304534,0.1076297
0.9614014,-0.1008491,0.07686122
0.9287309,-0.08539684,0.1258415
0.8939821,-0.04120877,0.2005491
0.8699904,-0.03176178,0.2057619
0.9154505,-0.05130051,0.1792331
1.077672,-0.1090545,0.1267598
1.332115,-0.240604,0.07799048
1.504484,-0.2963906,0.06414037
1.387274,-0.2085951,0.05097154
1.251495,-0.132978,0.0755646
1.278642,-0.187321,0.1478236
1.263841,-0.3407868,0.1598496
1.210182,-0.524055,0.02229134
0.9882879,-0.5708251,-0.09044802
0.6123832,-0.4036739,0.06469533
0.576283,-0.2450365,0.2049733
0.8568313,-0.2067477,0.01499076
1.071788,-0.3207345,-0.1524834
1.148432,-0.5300543,-0.08167326
1.086798,-0.5456392,-0.0131625
0.9553699,-0.4079498,0.04067631
0.8175815,-0.2449574,0.07481718
0.7378003,-0.04556363,0.01589154
0.8098677,0.03057643,-0.01734041
0.8823758,0.01101834,-0.04680626
0.9301123,-0.02361629,-0.06950753
0.9993531,-0.08696252,-0.006165214
0.9536299,-0.09780084,0.04748541
0.9232136,-0.07494329,0.08266051
0.922448,-0.03659155,0.09646214
0.8632733,0.003419998,0.07054663
0.9054204,-0.005959823,0.06902181
0.948638,-0.02731904,0.05366304
1.003389,-0.07160051,0.03786836
1.168733,-0.1622223,0.04218707
1.199895,-0.1738061,0.03092836
1.130728,0.01843644,0.04207921
1.128132,0.2463686,0.04895437
1.159827,0.2416669,0.04844888
1.247908,-0.02249649,0.0514593
1.339613,-0.4176997,0.01445984
1.306894,-0.654281,-0.01133023
1.170316,-0.5721229,-0.01997606
1.014219,-0.5213223,-0.05100436
0.9043377,-0.6014089,-0.05340023
0.9873256,-0.4769964,0.02850298
1.155464,-0.288587,0.1121874
1.18867,-0.1811406,0.05310788
1.196966,-0.03505885,-0.04360464
1.116924,-0.006613751,-0.0392651
0.9332981,-0.01707593,0.02225756
0.8491127,-0.000308122,0.1226206
0.7840367,-0.08383086,0.1589615
0.7561756,-0.1410061,0.1037052
0.777593,-0.2062352,0.1010405
0.7718054,-0.2502907,0.1189759
0.8197852,-0.2228742,0.1169014
0.8577115,-0.255036,0.1337829
0.8793885,-0.2516922,0.1541467
0.8988114,-0.2119708,0.1929793
0.8696298,-0.1329116,0.2283308
0.8716574,0.0100471,0.242002
0.8868436,0.06245724,0.2350777
0.924864,0.05514773,0.1774515
1.022156,0.01320538,0.1174682
1.189947,-0.1099296,0.0982605
1.45045,-0.2655234,0.09809688
1.540572,-0.3076854,0.09682731
1.323944,-0.1494312,0.09866634
1.188746,-0.05505567,0.1096241
1.348419,-0.2189761,0.06981187
1.456305,-0.5279564,-0.0542617
1.302497,-0.7482667,-0.1480518
1.008488,-0.6702009,-0.05487314
0.604658,-0.4625837,0.1717266
0.3261633,-0.3133756,0.300188
0.380329,-0.1903056,0.2233236
0.5804917,-0.2162271,0.09829558
0.928778,-0.3429477,0.05195751
1.253744,-0.4143914,-0.1284277
1.227332,-0.4520752,-0.3132896
1.095047,-0.3102126,-0.1570596
0.9752498,-0.04385917,-0.01615141
0.8360096,0.1043102,-0.01858262
0.8551609,0.146422,0.03504874
0.9175999,0.06516168,-0.01088806
0.9546342,-0.03359542,-0.0277922
1.007675,-0.06455795,0.02177712
0.9927232,-0.09394839,-0.002113771
0.976927,-0.04757305,0.00169997
0.9801366,-0.01968346,-0.02816396
0.9747899,-0.04044393,-0.04773779
1.009199,-0.04497125,-0.007707779
1.032973,-0.08235471,-0.01078769
1.002145,-0.03216584,-0.00753989
0.9899786,0.08514085,-0.008934386
1.094625,0.1341919,0.002214169
1.255227,0.03249943,0.02254259
1.300316,-0.231436,-0.01346069
1.226909,-0.4069167,-0.03048788
1.148493,-0.431011,-0.04364345
1.062999,-0.4467567,-0.1217421
0.9659039,-0.4528497,-0.1963633
0.9645855,-0.4301582,-0.09741561
1.02315,-0.4093512,0.1524285
1.079719,-0.4113406,0.257769
1.181501,-0.3729916,0.1293334
1.184838,-0.2834181,-0.04255847
1.089323,-0.1732738,-0.06837314
1.043975,-0.06764843,-0.001611628
0.9392045,-0.04763287,0.02472357
0.8421246,-0.0526161,0.07996951
0.7829109,-0.03060518,0.144103
0.6486308,-0.03376419,0.1916744
0.683039,-0.05267944,0.232289
0.8073349,-0.06922115,0.1564257
0.7890607,-0.06980417,0.07848645
0.852328,-0.0956152,0.1236293
0.9326918,-0.1345763,0.1615944
0.8910207,-0.1162639,0.1444207
0.895898,-0.08781994,0.1444113
0.9351328,-0.07934857,0.1361341
0.9708915,-0.09208697,0.1019951
1.097409,-0.1624622,0.1054471
1.36001,-0.2644043,0.09999487
1.50564,-0.2630082,0.09810556
1.242169,-0.06559684,0.1594513
0.9978526,0.1136193,0.1847284
1.165009,0.03376758,0.1359228
1.381506,-0.1889153,0.04240783
1.447878,-0.496038,-0.09484559
1.289453,-0.8225498,-0.1966733
0.8743956,-0.771689,-0.05845254
0.6764632,-0.4764098,0.1825197
0.746231,-0.3135537,0.1171214
0.8345384,-0.1839859,-0.02341697
1.016881,-0.2358978,-0.03392857
1.06987,-0.3731506,-0.08868397
1.001463,-0.3416272,-0.03354788
0.9614273,-0.345569,0.0274372
0.7732474,-0.2083686,0.004906448
0.698228,-0.02925692,0.05072797
0.8201268,-0.07097288,0.02073873
0.8923689,-0.05277093,0.00189284
0.973428,-0.05979821,0.02063223
1.001591,-0.09870865,-0.001687303
0.9694481,-0.04557973,0.05338612
0.9622231,-0.02555416,0.0549799
0.936374,-0.007515872,0.02699972
0.9411233,-0.04169405,0.02934488
0.9805443,-0.07989728,-0.006386161
1.020972,-0.07286443,0.02124546
1.047818,-0.08495562,0.04763479
1.024211,-0.02908004,0.06773267
0.9891936,0.0763404,0.106485
1.014814,0.159036,0.07148389
1.159362,0.1227637,0.03538842
1.311468,-0.04043511,0.001428494
1.2529,-0.2686666,-0.03316978
1.137181,-0.5403251,-0.02851443
1.146,-0.6509163,-0.03909965
1.08863,-0.6228614,-0.03750222
1.036538,-0.596315,0.01125245
1.088898,-0.494581,0.077164
1.088702,-0.3393968,0.1000414
1.128522,-0.1484928,0.02538729
1.147513,-0.04031576,-0.07375385
1.08897,-0.07322324,-0.09291783
1.090229,-0.07073198,-0.05736629
0.981012,-0.1322549,0.0040394
0.8082222,-0.2477336,0.1181208
0.7358935,-0.2129441,0.2009953
0.7037539,-0.1514016,0.2086417
0.7306275,-0.1283312,0.2121167
0.8008314,-0.1127833,0.1611664
0.9457526,-0.1401827,0.05563017
1.051982,-0.1434679,0.02982739
0.9881752,-0.1249471,0.07628554
0.9152076,-0.09349762,0.1265847
0.8166146,-0.02151472,0.1846574
0.7432677,0.002254263,0.2143866
0.8351401,-0.04303072,0.1824517
0.9645925,-0.1082118,0.1248711
1.135835,-0.192827,0.06554838
1.331831,-0.2338095,0.04577481
1.361442,-0.1792242,0.09653935
1.24348,-0.08373313,0.1163637
1.190897,-0.02207495,0.05695562
1.385493,-0.1401165,-0.004827763
1.676602,-0.4881948,-0.08263555
1.667891,-0.7379544,-0.1593002
1.361733,-0.07910225,0.08892358
1.353059,-0.4207567,-0.001522014
1.267718,-0.7133249,-0.06901061
1.244885,-0.7501096,-0.1728635
1.085628,-0.6542074,-0.2210449
0.9303169,-0.5857151,-0.07523387
0.9373355,-0.4215482,0.2205114
0.9596486,-0.2301019,0.3169352
1.030032,-0.1464288,0.07283653
1.1346,-0.121675,-0.1600842
1.161313,-0.11792,-0.1734156
1.095662,-0.1205973,-0.06868992
0.9596214,-0.121382,0.0026182
0.8003888,-0.1275889,0.07209291
0.6250671,-0.1204874,0.1797926
0.5758112,-0.1166566,0.2121165
0.6737044,-0.1514422,0.2155554
0.7156218,-0.1961265,0.1998397
0.8187087,-0.2243138,0.1354791
0.988037,-0.2377027,0.145308
1.010419,-0.2043081,0.1740682
0.9839726,-0.1116125,0.1691946
0.9793753,-0.03716011,0.1953454
0.9588526,-0.01910238,0.1612443
0.9345397,0.008642641,0.07905466
0.9988481,-0.02521849,0.07054212
1.295077,-0.2434207,0.08338281
1.574432,-0.4368864,0.08028783
1.509663,-0.3838029,0.07490037
1.405709,-0.3222683,0.03789188
1.518434,-0.4102299,-0.009078607
1.489672,-0.4349536,-0.03195583
1.273163,-0.4724636,-0.03384168
1.022392,-0.5817493,-0.02754227
0.6979951,-0.4826818,0.05318978
0.6368448,-0.3093545,0.1525356
0.7829298,-0.2759037,0.04357227
0.8690666,-0.3039268,-0.1199596
1.068406,-0.4058379,-0.1026143
1.117294,-0.4666736,-0.04421779
0.9388348,-0.3968963,0.006377247
0.8122984,-0.2679462,0.04343421
0.7308558,-0.1134558,0.007985277
0.7652274,-0.02321054,-0.007851125
0.8589145,-0.009227465,-0.0127303
0.970662,-0.03832759,-0.04908952
1.074495,-0.07951423,-0.05796063
1.030161,-0.08585986,-0.03243357
0.9553713,-0.06910357,0.03497112
0.8705642,-0.02197886,0.1004587
0.806706,-0.004627608,0.09690944
0.8574296,-0.02923807,0.06773311
0.9095376,-0.04823032,0.04621804
1.013021,-0.09633243,0.02948742
1.125885,-0.116928,0.02806059
1.097936,-0.04817924,0.02528806
1.09394,0.08332955,0.01970081
1.187496,0.1450187,0.05481919
1.258719,-0.04276332,0.0817387
1.264229,-0.3947369,0.005167869
1.216065,-0.6692354,-0.07502778
1.183734,-0.744713,-0.06780007
1.156112,-0.6563712,-0.09120935
1.092916,-0.5217245,-0.1212472
1.079152,-0.3569972,-0.00360458
1.09351,-0.1960406,0.1153712
1.052715,-0.1832806,0.07338999
0.998913,-0.2344819,0.05273424
0.9753705,-0.211093,0.08750123
0.9730261,-0.1917986,0.03237225
0.9351174,-0.1485669,-0.01749018
0.8208125,-0.07231749,0.006601812
0.6812952,-0.05018456,0.08084714
0.5949269,-0.0482764,0.1988521
0.60715,-0.08024982,0.2181429
0.6972762,-0.1227822,0.135898
0.8154443,-0.1242992,0.09183224
0.9264714,-0.122264,0.0656829
0.9968421,-0.1122777,0.05899121
1.00409,-0.1141742,0.09758229
0.975774,-0.139235,0.1321322
1.03207,-0.1788935,0.1423259
1.251657,-0.2140625,0.1268938
1.459633,-0.2067567,0.1109439
1.420897,-0.2069789,0.0786114
1.355689,-0.2315435,0.006069497
1.541257,-0.323579,-0.05602699
1.617222,-0.5555871,-0.09896197
1.360723,-0.7320749,-0.09912358
0.9495824,-0.6417839,-0.0147376
0.5209771,-0.4298436,0.1544244
0.4297046,-0.2463979,0.2808085
0.6500521,-0.1284633,0.09775482
0.8884017,-0.2581418,-0.1858782
1.200046,-0.4711817,-0.1698638
1.293013,-0.4758442,-0.1009083
1.030752,-0.4311937,-0.1015433
0.7874894,-0.2981175,0.00032968
0.6440549,-0.05692167,0.02664909
0.6303841,0.06491369,-0.01108922
0.7990893,0.09500184,-0.00657367
0.9985492,0.0535473,-0.08198905
1.106495,0.01123987,-0.1464457
1.07546,-0.01602985,-0.1146598
0.9719821,-0.0990087,-0.04272412
0.876554,-0.1247874,0.04381878
0.8317005,-0.1476639,0.07385284
0.9248214,-0.1856771,0.05554787
1.054834,-0.1967675,0.0699754
1.080188,-0.1637277,0.07673488
1.043043,0.08266987,-0.01274854
0.9992631,0.3577941,-0.1066428
1.064522,0.3338123,-0.09185545
1.272068,0.05109949,-0.06220805
1.446615,-0.3264123,-0.07359103
1.39689,-0.5977439,-0.07258894
1.18169,-0.6163826,-0.06607487
1.061498,-0.609598,-0.06814755
1.039782,-0.6477803,-0.04222709
1.13347,-0.444021,0.03323805
1.294625,-0.3095624,0.106147
1.259291,-0.3551349,0.08050822
1.195196,-0.2005365,-0.01556182
1.120958,-0.1092989,-0.04442377
0.9222171,-0.114218,-0.0004671455
0.8171156,-0.09189911,0.05711215
0.7205658,-0.1627745,0.09157592
0.6230451,-0.154736,0.1080744
0.6285617,-0.1536545,0.1652117
0.6580022,-0.1640935,0.1821243
0.7475151,-0.131633,0.1411549
0.8453696,-0.170117,0.1216894
0.9134877,-0.1467553,0.08937856
0.9343213,-0.1173989,0.08365401
0.8927465,-0.07149728,0.1199312
0.8812609,0.003324175,0.1501525
0.8863293,-0.02616564,0.1506775
0.9828355,-0.06083787,0.09573515
1.233248,-0.1615923,0.05637798
1.461172,-0.275519,0.04713543
1.512465,-0.2590498,0.01802581
1.467219,-0.2615573,-0.01573964
1.487389,-0.3406872,-0.02626454
1.434334,-0.5021982,-0.05082848
1.134757,-0.6522657,-0.101877
0.7595906,-0.5801953,-0.002275496
0.6070062,-0.36876,0.1938155
0.6909775,-0.2434145,0.2078291
0.8513515,-0.2382138,0.0423621
1.126958,-0.337911,-0.1575872
1.219365,-0.4508531,-0.1913205
0.9714672,-0.4330977,-0.05103311
0.8556296,-0.3796816,0.02778762
0.7958053,-0.2830759,0.02007165
0.7166808,-0.1112322,-0.0543105
0.8157698,-0.05964644,-0.1294526
0.8664718,-0.0726384,-0.0833808
0.8920288,-0.06700509,-0.02498587
0.896859,-0.0819937,0.01143638
0.8430134,-0.05323677,0.06548798
0.8735269,-0.01295439,0.06345005
0.8737128,-0.01023645,0.0250955
0.9296856,-0.03586996,-0.001439304
1.065124,-0.07761056,-0.006603001
1.117612,-0.0977364,0.02832883
1.128989,-0.05529399,0.05720432
1.109439,0.06663972,0.05142643
1.162926,0.1232763,0.07373686
1.312026,-0.100797,0.1103484
1.38837,-0.4672534,0.08129936
1.241658,-0.6035533,0.02749787
0.9925133,-0.5580565,-0.02081262
1.001163,-0.5053984,-0.1139302
1.112567,-0.3629538,-0.1641617
1.153145,-0.2686733,-0.07928556
1.239118,-0.2858716,0.01744346
1.175364,-0.2481593,0.02640512
1.023071,-0.2031609,0.01481162
0.9326914,-0.1742549,0.0357575
0.8405027,-0.1617543,0.05679814
0.829622,-0.1737301,0.04643324
0.7805885,-0.1423776,0.04425719
0.6848511,-0.1287408,0.08803205
0.7011163,-0.1275447,0.1371429
0.7095563,-0.092998,0.160722
0.708949,-0.07598788,0.1724011
0.7448984,-0.09344283,0.1739937
0.7910042,-0.1320467,0.1667631
0.9328213,-0.1404512,0.1614953
1.102383,-0.1505398,0.1561965
1.116606,-0.1680648,0.1532785
1.048013,-0.1558596,0.1548917
1.078376,-0.214313,0.1486157
1.125583,-0.2732779,0.143752
1.215658,-0.2256577,0.1255409
1.385075,-0.1462419,0.06771705
1.346504,-0.07864476,0.02997985
1.286502,-0.1385154,0.03024752
1.413378,-0.3713378,0.005841361
1.382532,-0.5752445,-0.02479003
1.146621,-0.6161567,-0.03750078
0.8389919,-0.6047944,-0.04948662
0.7105109,-0.5361418,0.002327054
0.9025051,-0.3042463,0.05947269
1.035031,-0.2343265,-0.06237388
1.067757,-0.3892861,-0.170932
1.031819,-0.3937947,-0.01591924
0.8253107,-0.3682543,0.1319943
0.7083888,-0.3521735,0.08134772
0.6624434,-0.2107637,0.008474596
0.6617653,-0.08967241,-0.02719943
0.7977529,-0.01563105,-0.04978879
0.936293,-0.03567702,-0.09210131
1.081027,-0.07740324,-0.1663782
1.056815,-0.06650756,-0.1134792
0.911006,-0.1170357,0.01203968
0.9093737,-0.1193052,0.02746498
0.901322,-0.1055292,0.04944517
0.9936451,-0.127234,0.0677313
1.153761,-0.1009972,0.01492242
1.129225,-0.07020656,-0.0002605822
1.083436,0.0779878,-0.04143755
1.059734,0.3008803,-0.08119592
1.144863,0.3229195,-0.0155948
1.378848,0.01339598,0.02522254
1.470321,-0.4845125,-0.04606825
1.295914,-0.7746448,-0.115025
1.05328,-0.7730326,-0.05589369
1.053939,-0.6770982,0.009192464
1.127081,-0.5470509,0.01898164
1.108136,-0.425068,0.08041984
1.17607,-0.3316756,0.08574536
1.120275,-0.2539378,0.003525566
0.9814573,-0.1801578,-0.04428883
0.9535933,-0.1346383,-0.01104751
0.8515931,-0.1491213,0.0640605
0.7454857,-0.1474911,0.08437474
0.675658,-0.1143321,0.1165809
0.624037,-0.1010782,0.1774715
0.6928471,-0.1000541,0.1832028
0.7539454,-0.1048761,0.1732
0.7790438,-0.09315386,0.1475338
0.8315707,-0.06927405,0.1371825
0.8614877,-0.05706348,0.1446488
0.8887292,-0.05782091,0.1354384
0.9380452,-0.1005255,0.1526402
0.9976921,-0.168513,0.1431064
1.110332,-0.2594446,0.1305226
1.366858,-0.3959414,0.1572331
1.547663,-0.4367303,0.1541509
1.308585,-0.2735963,0.1358462
1.080226,-0.1398658,0.0971861
1.313212,-0.3242833,0.01738424
1.490383,-0.7285511,-0.1561951
1.367402,-0.9788384,-0.3416568
1.191849,-0.813529,-0.2318377
0.8702275,-0.435655,0.05323269
0.6376021,-0.1964702,0.1574398
0.7116363,-0.07543785,0.06384988
0.7884235,-0.1483247,-0.09201705
0.9041305,-0.3613636,-0.1195987
1.018528,-0.4105909,-0.07369233
0.9415496,-0.4390908,-0.1010663
0.8778936,-0.377426,-0.06164353
0.8144987,-0.1779414,-0.006208017
0.7224571,-0.1065427,-0.004809527
0.7534181,-0.03956069,0.02038498
0.8176328,-0.07267738,0.004916528
0.8861431,-0.1566049,-0.001087489
0.9419587,-0.1013001,0.00533792
0.9236209,-0.131652,-0.01912025
0.9224784,-0.1266685,-0.009476329
0.9342097,-0.100194,0.00322456
0.9304687,-0.1390091,0.03391508
0.949665,-0.0966101,0.05941165
0.9675104,-0.07768283,0.0450614
0.9896487,-0.005671832,0.05179866
1.011884,0.06080554,0.05351794
1.090645,-0.001413357,0.05506381
1.364778,-0.03823574,0.08131398
1.596934,-0.1427345,0.08924348
1.451126,-0.3946857,0.02888168
1.214996,-0.6504605,-0.04619681
1.137342,-0.6499787,-0.04324727
1.018794,-0.4982998,-0.09066996
0.9845952,-0.5477754,-0.1696965
1.099777,-0.5563926,-0.04815324
1.137181,-0.492548,0.1049149
1.170583,-0.5046413,0.06514548
1.1519,-0.3488949,-0.0238064
1.057678,-0.2087848,-0.07689594
1.02048,-0.18269,-0.07878226
0.8971512,-0.1426342,0.005167897
0.7672499,-0.1959134,0.08521664
0.7060797,-0.1989155,0.1402408
0.6521267,-0.1455763,0.1702054
0.7177869,-0.1401021,0.1414631
0.7747067,-0.1463096,0.1044906
0.7898103,-0.1914134,0.0842448
0.8268377,-0.1623153,0.1280739
0.79627,-0.1032961,0.2029951
0.8014058,-0.06658218,0.2132301
0.8521743,-0.007981618,0.2049541
0.90598,-0.04223049,0.1584393
1.027803,-0.1253783,0.0673323
1.225965,-0.2571385,0.03126496
1.455173,-0.355823,0.06750557
1.512392,-0.270411,0.1046441
1.456263,-0.2416594,0.08113509
1.550237,-0.3186044,0.07903673
1.611406,-0.3941534,0.08015372
1.406602,-0.538846,-0.02485214
1.055521,-0.6072745,-0.07756031
0.7706141,-0.476962,0.07026
0.5846982,-0.2628726,0.2157284
0.4597913,-0.139204,0.1063733
0.5833426,-0.2513073,-0.01604482
0.87676,-0.4593762,0.05895162
0.9409956,-0.5293262,0.03497059
0.8424779,-0.5026605,-0.06586355
0.805187,-0.4025109,-0.08601847
0.7991553,-0.2290043,-0.09355812
0.7982986,-0.1158436,-0.05439165
0.8048401,-0.02096932,-0.06775809
0.8864,0.06761876,-0.09716119
1.007351,0.06748071,-0.0750467
1.061619,0.07005357,-0.1283826
1.082375,0.05469989,-0.1348809
1.065636,-0.02114101,-0.08939738
1.044845,-0.0902593,-0.04339834
1.02418,-0.1727555,0.06534405
0.9544312,-0.2117338,0.1283998
0.8752208,-0.1387874,0.1510963
0.8330331,-0.003982555,0.1219229
1.001084,0.1108782,-0.001986368
1.353552,0.06190012,-0.1497121
1.542008,-0.1900206,-0.2731387
1.445631,-0.5165278,-0.265624
1.215204,-0.7483321,-0.132599
1.003301,-0.7516853,0.04968638
0.9101854,-0.6489162,0.1810018
1.041258,-0.5398335,0.1866967
1.208712,-0.3312065,0.134906
1.190919,-0.1759946,-0.02525112
1.155696,-0.1397333,-0.1596223
1.08529,-0.1079011,-0.1019916
0.9515677,-0.1649366,-0.01085111
0.8424734,-0.2499495,0.07956955
0.7225136,-0.254507,0.1106645
0.6696801,-0.2068965,0.08881619
0.5999776,-0.1337598,0.1644632
0.6037769,-0.1176318,0.2093357
0.7848217,-0.1166122,0.1666645
0.8714988,-0.09744593,0.1152239
0.9314101,-0.0995605,0.03684348
0.9758979,-0.07254128,-0.003616861
0.9325969,-0.05813739,0.08425841
0.9186434,-0.05650798,0.2087704
0.8757864,-0.04485465,0.2155403
0.9171905,-0.1234531,0.1728567
1.078734,-0.263859,0.1491683
1.209987,-0.3447501,0.1099336
1.26355,-0.3144169,0.08990889
1.263826,-0.2690735,-0.006919382
1.330044,-0.2922398,-0.132955
1.417355,-0.3079699,-0.03756927
1.486875,-0.419979,0.06280973
1.32556,-0.6499856,-0.0823362
0.874657,-0.7021886,-0.1117258
0.7169671,-0.5337677,0.1863995
0.8235964,-0.3364212,0.3731642
0.9050231,-0.2609497,0.0808631
1.041562,-0.3284654,-0.2396281
1.028128,-0.3761767,-0.08262196
0.881679,-0.3581574,0.08240047
0.7284777,-0.3255165,0.04768337
0.6269977,-0.2463014,0.1306916
0.7010342,-0.1461712,0.09070222
0.7913499,-0.06867943,0.003771532
0.8944807,-0.0007707758,-0.002569415
1.016582,0.02889822,-0.09461149
1.008943,0.01768224,-0.005405671
0.9748338,0.019459,0.08269452
0.9472675,0.01426988,0.03595517
0.9169878,-0.003727536,0.07806659
0.9694666,-0.01719386,0.02029915
1.047134,-0.05996463,-0.01604265
1.070731,-0.1151504,0.0471202
1.044166,-0.1271455,0.09133285
1.011711,-0.03348775,0.1562758
1.044966,0.08738221,0.115006
1.183229,0.04752739,0.06649111
1.328561,-0.1312643,0.03691266
1.329973,-0.4153771,-0.04825354
1.311913,-0.7430826,-0.06100208
1.364027,-0.8281659,-0.1231386
1.24196,-0.707814,-0.1888881
1.031489,-0.5902809,-0.007056113
0.9629662,-0.3687726,0.2489817
0.9473142,-0.1293926,0.2572606
1.001516,-0.04841614,0.02659879
1.081493,-0.02811536,-0.1836079
1.090429,-0.07926256,-0.1855907
1.045896,-0.1961259,-0.06361752
0.8864511,-0.2663998,0.01450868
0.7031153,-0.2928448,0.1220934
0.5801598,-0.2451791,0.2445531
0.5486118,-0.1710007,0.2428979
0.6420493,-0.1490836,0.2010055
0.735447,-0.1268086,0.1457604
0.8510409,-0.1234936,0.09488841
0.9621413,-0.1280199,0.09654011
0.9497084,-0.1047986,0.1234787
0.9223945,-0.07886517,0.2107209
0.9326056,-0.03265559,0.2402285
0.936219,-0.02876431,0.1273688
0.9784041,-0.09179138,0.003896447
1.163339,-0.1905519,-0.02273778
1.413484,-0.3190057,0.04005397
1.482927,-0.3626505,0.05547696
1.44291,-0.3943065,0.03126755
1.542657,-0.5137181,-5.493303e-05
1.588422,-0.5412033,-0.1394758
1.198534,-0.5045053,-0.2040187
0.6487992,-0.469228,0.05938138
0.5195712,-0.3177648,0.3274784
0.6867684,-0.175669,0.1243996
0.8366417,-0.1742462,-0.1924659
1.06469,-0.2797424,-0.2019819
1.155604,-0.429052,-0.1458231
0.9251072,-0.4546262,-0.0350598
0.752836,-0.3458709,0.07809693
0.6836193,-0.2307785,0.0337822
0.6787689,-0.1366404,0.01597705
0.8533051,-0.08838409,-0.03193705
0.9783396,-0.07086807,-0.1039989
1.031472,-0.05401282,-0.09204021
1.019784,-0.03866566,-0.06952657
0.9607616,-0.008951494,-0.003152927
0.9977365,-0.004552429,0.01247991
0.9336567,-0.03582642,0.007736596
0.8773682,-0.06113478,0.05831448
0.939645,-0.07759647,0.03600776
0.975758,-0.07454621,0.02095247
1.082367,-0.06758229,0.02934947
1.114436,-0.04516125,0.01584984
1.08491,0.08770164,0.02379066
1.175501,0.2302526,0.0141383
1.264702,0.1147129,0.01443112
1.364216,-0.2770892,0.01995306
1.439897,-0.6696516,0.008157213
1.316202,-0.7822678,-0.006357686
1.079873,-0.7134018,-0.06955058
1.03106,-0.6855365,-0.1183295
1.102216,-0.5462743,-0.02479827
1.090002,-0.3734109,0.1453186
1.146054,-0.3316113,0.1822765
1.168332,-0.2136622,0.05906412
1.100833,-0.1507536,-0.05166679
1.078293,-0.1414269,-0.05629531
0.9532618,-0.01727505,-0.02174684
0.8016839,0.004013293,-0.01153897
0.696004,0.01512064,0.05445487
0.5997955,0.03029276,0.1652176
0.6160034,-0.05402027,0.2249693
0.6832278,-0.1076508,0.2483911
0.7881186,-0.2033939,0.1904977
0.8896482,-0.2331642,0.1111724
0.904289,-0.1814424,0.1422597
0.9020563,-0.1651502,0.1873211
0.8850853,-0.06833532,0.1974566
0.8877365,-0.02552042,0.1791214
0.9705743,-0.0816777,0.09059284
1.207936,-0.1781103,0.03585108
1.572395,-0.3458685,0.08261931
1.676889,-0.380877,0.1220841
1.39157,-0.2556344,0.1098941
1.197775,-0.182843,0.1486707
1.359561,-0.2671865,0.1454558
1.448741,-0.5297894,-0.1600925
1.19557,-0.7862623,-0.4351343
0.8536176,-0.7053364,-0.1123216
0.5476394,-0.4075655,0.3672678
0.463893,-0.2532966,0.3509695
0.7257355,-0.2037285,0.114538
0.9947161,-0.2474715,-0.08486128
1.158082,-0.3492961,-0.2246231
1.20625,-0.3692603,-0.16024
1.02351,-0.3758009,-0.08348844
0.8153747,-0.2888737,-0.02241343
0.7545477,-0.2184945,0.07516067
0.8064952,-0.2507805,0.01972105
0.8673142,-0.1372626,0.002743548
0.9040324,-0.02632808,0.02569843
0.9696005,-0.02191039,-0.04315686
0.9719832,-0.000731863,-0.01099339
0.9398264,0.02644313,0.02916776
0.9319576,0.02508647,0.02756106
0.8995746,-0.02880394,0.03616782
0.9209355,-0.06083639,0.006711191
0.9822653,-0.1179302,0.05342973
1.027008,-0.1531428,0.1250904
1.012472,-0.06625941,0.1456392
0.9718542,0.06243795,0.1570107
1.092504,0.1974283,0.1302765
1.308011,0.1023113,0.09840884
1.409268,-0.1630309,0.02939853
1.26266,-0.3536735,-0.0531992
1.037412,-0.5758683,-0.03907164
1.052012,-0.6451251,-0.05119225
1.084591,-0.5686433,-0.09993342
1.096271,-0.5851528,0.01169504
1.247366,-0.5291851,0.137497
1.225054,-0.3845041,0.06656848
1.113984,-0.23161,-0.0162059
1.082995,-0.1106974,-0.03344678
0.9936806,-0.1185119,-0.06656279
0.9356727,-0.1643946,-0.03587779
0.8473954,-0.1913665,0.02261553
0.7519989,-0.1959032,0.08508843
0.7298149,-0.1534552,0.1630648
0.667041,-0.123503,0.152708
0.7063178,-0.1155258,0.1415105
0.7787833,-0.1152301,0.1611311
0.77431,-0.1180535,0.1477625
0.8452337,-0.1139349,0.1648742
0.8959392,-0.1032006,0.163182
0.9523389,-0.0730159,0.1417048
1.041113,-0.06839235,0.1241048
1.067051,-0.1301297,0.0725599
1.207164,-0.2350768,0.06638149
1.423704,-0.3016177,0.08989602
1.465894,-0.2496809,0.09238904
1.299006,-0.1640832,0.08992129
1.18462,-0.1442219,0.07939871
1.368641,-0.2344659,0.04677022
1.487924,-0.4689551,-0.1106909
1.190545,-0.6492257,-0.2387998
0.7913893,-0.5994053,-0.005914487
0.5947172,-0.4456817,0.2490737
0.5849702,-0.2915814,0.07244543
0.7508099,-0.2242674,-0.1015514
0.9970566,-0.3423188,-0.02894418
1.090352,-0.4460724,-0.06771376
1.040449,-0.3961695,-0.1059035
0.9582788,-0.3579909,-0.07126897
0.8105934,-0.2816489,-0.09121494
0.7409154,-0.1250199,-0.02356376
0.8280616,-0.1136055,0.01885697
0.8997225,-0.1709284,0.0005861529
0.9513006,-0.1435945,0.003641736
0.9950614,-0.1263973,-0.04596333
0.9736366,-0.08327578,-0.03989616
0.970257,-0.01366833,-0.01666497
0.9829899,-0.02362218,-0.01784128
0.9687973,-0.03432077,0.01252918
0.9786004,0.002085871,0.001650293
0.9874735,0.01663,0.01063106
0.9846633,0.02479279,0.01418211
0.9750441,0.1097712,-0.03026899
0.9451081,0.2904923,-0.06027452
0.9688477,0.3947667,-0.081535
1.090085,0.2315185,-0.0403411
1.29275,-0.16585,-0.001560039
1.404506,-0.5386442,-0.02587349
1.259324,-0.6469887,-0.03379166
1.132863,-0.7430489,-0.07432418
1.189286,-0.9097553,-0.1572157
1.192108,-0.7312553,-0.1827157
1.1554,-0.5085447,-0.1357148
1.155704,-0.443959,-0.05231155
1.08934,-0.2312885,0.01314637
1.014422,-0.1566744,-0.05137478
0.9996935,-0.1058332,-0.1566856
0.9983545,0.01297981,-0.1046599
0.9479459,-0.09352887,-0.06004768
0.8066085,-0.09067506,-0.04697687
0.6717046,-0.07820501,0.1137424
0.6348428,-0.1726717,0.2202469
0.6720458,-0.157212,0.2132312
0.7573573,-0.2061122,0.1859049
0.8689009,-0.1915262,0.1013591
0.9533091,-0.1328409,0.08357785
0.944643,-0.1131175,0.1200069
0.9032689,-0.02688177,0.1250766
0.9014105,-0.05145972,0.1286824
0.9102163,-0.08861028,0.1008265
0.9807803,-0.1281104,0.07299292
1.168504,-0.2667345,0.06197381
1.445364,-0.322257,0.07785161
1.576318,-0.2751688,0.1086771
1.38727,-0.1377128,0.08330212
1.268323,-0.005958868,0.03844252
1.401457,-0.0554115,-0.04583275
1.432195,-0.3608063,-0.1428851
1.277213,-0.7652523,-0.1228628
0.9952636,-0.8351003,0.003415499
0.6443001,-0.6074241,0.1685442
0.5259303,-0.3843233,0.2061209
0.686092,-0.1366064,0.04556886
0.8553609,-0.07538685,-0.07899339
1.024447,-0.3986105,-0.06555598
1.134762,-0.636957,-0.03747583
0.999775,-0.4722793,-0.03765217
0.8561406,-0.2709304,-0.02371634
0.8389541,-0.17532,-0.01482095
0.8324641,-0.009020865,-0.03570775
0.9120031,0.05610918,-0.05366862
0.9957015,-0.01539915,-0.08134937
1.006191,-0.02013834,-0.08029195
0.9779026,-0.04841888,-0.0142683
0.8835515,-0.07643398,0.03631245
0.8430346,-0.0362583,0.0557789
0.8674743,-0.06052738,0.03801
0.9203721,-0.06947783,0.007021264
1.025632,-0.06313854,0.01808424
1.075284,-0.09931761,0.02687229
1.053935,-0.04397454,0.04427733
1.038922,0.1055753,0.05710414
1.094969,0.2370982,0.05952053
1.209728,0.1082853,0.0781031
1.306718,-0.2430209,0.006315565
1.315913,-0.4489975,-0.07725609
1.226259,-0.5568825,-0.07152982
1.155832,-0.648352,-0.1214967
1.08023,-0.6392345,-0.163287
1.040021,-0.5825754,-0.01351934
1.106499,-0.4823248,0.196582
1.116832,-0.3586496,0.2116944
1.146949,-0.2097828,0.02322814
1.175484,-0.08269705,-0.151727
1.095921,-0.06268999,-0.1452966
1.031626,-0.08151077,-0.04702173
0.8790065,-0.1279913,0.01048761
0.7004528,-0.1724559,0.1133013
0.6359879,-0.1712982,0.2291809
0.6063733,-0.1596487,0.2374316
0.6664703,-0.1317126,0.2036999
0.7499848,-0.1021606,0.146876
0.8112226,-0.08688138,0.1001236
0.9167133,-0.1054283,0.1142827
0.9996239,-0.1175358,0.1203079
1.002368,-0.09595831,0.1100559
0.9450133,-0.08741145,0.1032509
0.9276279,-0.05238117,0.06871539
0.9255531,-0.05738312,0.02248033
1.055938,-0.1739296,0.03745477
1.440724,-0.2967568,0.08106284
1.599859,-0.2989327,0.08158777
1.35792,-0.1241585,0.08115077
1.09914,0.05745022,0.06572078
1.025117,0.02822503,0.03511584
1.130848,-0.2915279,-0.01745063
1.17274,-0.7131246,-0.1713207
0.9929836,-0.8191938,-0.2051899
0.740424,-0.6772313,0.1346548
0.6524034,-0.5646137,0.4365537
0.8411438,-0.3374814,0.1608505
1.057017,-0.1120343,-0.2414876
1.098671,-0.1426112,-0.2132186
1.061159,-0.2018327,-0.1186668
0.9827738,-0.2220568,-0.09656876
0.855938,-0.2863817,-0.03246511
0.8046762,-0.2699638,-0.03489494
0.8583221,-0.2524178,0.0193985
0.8793823,-0.2535063,0.03662731
0.8952929,-0.192084,-0.0161628
0.9193034,-0.1561056,0.01894667
0.8820733,-0.110191,0.01043053
0.8660612,-0.06416738,0.01996069
0.8662721,-0.06332365,0.03630603
0.8840995,-0.06041162,-0.006756797
0.9686405,-0.08798883,-0.002309382
1.03262,-0.1223734,-0.03201601
1.064997,-0.1300532,-0.02572001
1.064975,-0.07318442,0.009426234
1.03241,0.07025171,-0.0191263
1.063759,0.1606926,0.008475991
1.193397,0.09821286,0.03261634
1.346405,-0.1022239,0.02644701
1.342221,-0.3589745,-0.01132382
1.238292,-0.5313338,-0.1034899
1.196678,-0.5912496,-0.1330996
1.077111,-0.6480789,-0.1388403
0.9927338,-0.6142081,-0.07122869
1.064768,-0.417031,0.1495902
1.071481,-0.3131449,0.251137
1.088628,-0.2743947,0.06618731
1.138193,-0.1614393,-0.1533704
1.091636,-0.1115266,-0.1542907
1.03513,-0.1009811,-0.06826915
0.9115241,-0.09875726,-0.0333309
0.7319266,-0.1016966,0.04691399
0.6400607,-0.09769982,0.1458118
0.6290564,-0.1256738,0.207968
0.6983218,-0.1319526,0.2089958
0.7951132,-0.1546461,0.11729
0.8698448,-0.1619619,0.0591476
0.9459663,-0.1353014,0.08538115
0.9666867,-0.1350483,0.1252978
0.9126126,-0.0639167,0.1480299
0.868597,0.01561728,0.1400749
0.890657,0.02005998,0.09435579
0.9880365,-0.06757036,-0.001987891
1.199385,-0.2711624,-0.04900143
1.444803,-0.4175316,0.02213298
1.508519,-0.4292716,0.07775339
1.448802,-0.3766047,0.05576872
1.47547,-0.3576243,0.04541403
1.504285,-0.4268771,0.03113406
1.356494,-0.4864104,-0.1014097
0.9674649,-0.4870509,-0.1655385
0.4992282,-0.4107783,0.1229513
0.4177262,-0.2837965,0.4049866
0.7535347,-0.2416976,0.171517
1.005812,-0.3534459,-0.2048715
1.071668,-0.4938937,-0.2627432
1.036575,-0.4746924,-0.2049482
0.8760123,-0.3701374,-0.01813458
0.7410828,-0.2946969,0.2144112
0.7109116,-0.2299491,0.1370167
0.7702821,-0.1796974,0.02736976
0.8548203,-0.09846236,0.0127527
0.9133541,-0.09390439,-0.05994758
0.9567585,-0.1683052,-0.0161001
0.9381042,-0.1373731,0.07610081
0.9487682,-0.1238713,0.1062776
0.9446931,-0.09662748,0.1088544
0.8939694,0.01833097,0.06529734
0.9459405,0.01718444,0.05142978
1.006574,-0.01572535,0.01733627
1.137068,-0.02747054,-0.04720771
1.241016,-0.07773579,-0.01731206
1.076305,-0.02897565,0.03558336
0.9472153,0.1197323,0.07080164
1.010502,0.2242919,0.109397
1.205145,0.06998923,0.07684363
1.394765,-0.2975938,-0.001386649
1.30484,-0.5417574,-0.04829798
1.140428,-0.6323242,0.00123225
1.12879,-0.6250273,0.09267444
1.133232,-0.5255609,0.08162644
1.184115,-0.4403887,0.07526156
1.257607,-0.3676321,0.07726263
1.169578,-0.2649228,-0.009558812
1.025897,-0.1116659,-0.005469082
0.9237691,-0.01989049,0.04028572
0.8136629,-0.06158103,0.03720336
0.764959,-0.08183624,0.0944884
0.7365278,-0.1077053,0.1231878
0.721575,-0.1487384,0.1516934
0.7697335,-0.1303012,0.2105081
0.8031338,-0.1421514,0.1817789
0.8517003,-0.141412,0.1342191
0.899904,-0.1108604,0.09658706
0.8913535,-0.08113556,0.09504455
0.8663519,-0.01153177,0.1455861
0.8493975,0.006094993,0.1529237
0.8854233,-0.03447035,0.1563662
0.9606381,-0.09054924,0.1396934
1.080269,-0.1971986,0.0813439
1.272388,-0.3114733,0.06699529
1.384799,-0.3489789,0.07102481
1.295693,-0.2471062,0.09200929
1.134243,-0.1150722,0.1397181
1.100861,-0.1374271,0.1662192
1.265198,-0.3322735,0.1031619
1.451553,-0.58815,-0.1066198
1.344726,-0.6828202,-0.2617406
0.9950075,-0.5557111,-0.1185944
0.6447684,-0.3818529,0.1704022
0.4652157,-0.2334736,0.2622158
0.6795303,-0.2060905,0.07023537
0.9694295,-0.2824775,-0.1651215
1.103909,-0.3306255,-0.1897203
1.253589,-0.4824591,-0.08254469
1.124305,-0.5370552,-0.04278154
0.8925933,-0.3171968,-0.008731917
0.8161972,-0.1630195,0.01951628
0.7117691,-0.04671079,-0.01170366
0.8207474,-0.006303803,-0.007836196
0.9560666,-0.1190148,-0.026695
0.9708957,-0.1251148,-0.05360858
1.047386,-0.1332502,-0.02230044
0.9750589,-0.105034,0.005261843
0.9293665,-0.002361288,0.05137972
0.9343421,-0.002723964,0.05357534
0.8745083,0.02939172,0.01031479
0.9476252,0.01280366,0.01204393
1.019009,-0.06376954,0.02142837
1.073712,-0.06563213,0.04986821
1.071202,-0.03452571,0.06088523
0.9838481,0.115724,0.001919766
1.057404,0.224235,-0.04471143
1.21594,0.09208893,-0.02859987
1.361388,-0.1750217,-0.002462008
1.344718,-0.4712837,-0.01303354
1.202785,-0.6908088,-0.02844658
1.176045,-0.7357135,-0.08887553
1.015531,-0.6085819,-0.1399517
0.9082909,-0.45658,0.02016825
1.07571,-0.346154,0.1922586
1.124594,-0.2730635,0.0942611
1.151963,-0.2526824,-0.06933922
1.18534,-0.1931151,-0.1269508
1.083735,-0.1478781,-0.1187752
0.9786908,-0.1438131,-0.03004336
0.770394,-0.1022096,0.06634541
0.5977459,-0.07809315,0.1558168
0.5989583,-0.04838354,0.2516787
0.6384145,-0.02915067,0.2380149
0.7543052,-0.04807047,0.1844621
0.875115,-0.03477661,0.1435861
0.9580978,-0.02040692,0.1003828
1.008738,-0.01292362,0.1246331
1.000971,-0.02177271,0.1239374
1.020899,-0.07610701,0.1120074
1.053246,-0.1664769,0.1380076
1.14655,-0.2855088,0.1311439
1.304299,-0.3108922,0.1370707
1.375895,-0.2493463,0.1144542
1.352386,-0.2519375,0.07604984
1.324529,-0.2642155,0.09602402
1.34275,-0.2674219,0.08959282
1.283221,-0.37091,0.01894866
1.131324,-0.5488155,-0.1363892
0.9824368,-0.636253,-0.2256687
0.7822318,-0.4970032,-0.001381403
0.6807707,-0.2666694,0.227118
0.7640287,-0.1769068,0.08318514
0.8841674,-0.2551079,-0.06715116
1.040076,-0.3738509,-0.01770266
1.131983,-0.3730849,-0.06716598
1.054319,-0.2977105,-0.09983302
0.9332855,-0.213282,-0.03313378
0.8016706,-0.1003992,0.002423229
0.7034474,-0.0888941,0.1080441
0.7756458,-0.1313381,0.1497197
0.8910159,-0.136791,0.0785086
0.9709707,-0.1614815,0.03990579
1.046324,-0.131738,-0.006568793
0.975342,-0.07677835,0.01832632
0.9018277,-0.05287,0.0830363
0.9174731,-0.04042447,0.08969291
0.9092378,-0.06915623,0.09860563
0.9983444,-0.09344904,0.08379006
1.053022,-0.1011871,0.0743292
0.9917481,-0.04843813,0.08324437
0.9694226,0.09686881,0.07983839
0.9900091,0.1611088,0.09934214
1.169373,0.03692837,0.09802539
1.359378,-0.1492974,0.06153675
1.302361,-0.3036614,0.03120181
1.22012,-0.5262706,0.02053459
1.219281,-0.6631482,-0.003115181
1.106343,-0.540431,-0.04373036
0.9613751,-0.4714581,0.008027545
0.9656483,-0.4541019,0.1150426
1.025968,-0.3031637,0.1511859
1.110589,-0.2002333,0.1142856
1.183498,-0.1137748,0.001125624
1.158794,-0.05927904,-0.08980306
1.115131,-0.1226598,-0.03909523
1.012509,-0.139263,0.04976874
0.8824555,-0.1496238,0.08821153
0.8000834,-0.1611182,0.1381873
0.7400961,-0.1122073,0.1833599
0.7749308,-0.09886997,0.1619833
0.8248884,-0.09080674,0.1264252
0.866293,-0.1009757,0.08857578
0.9260827,-0.1294645,0.06461546
0.9044124,-0.1096908,0.1127122
0.877697,-0.1055306,0.1535833
0.873894,-0.1035337,0.1694074
0.8998316,-0.102578,0.1846993
1.003419,-0.1441884,0.1454718
1.107612,-0.1946081,0.09112783
1.234704,-0.2557374,0.07243596
1.30961,-0.2566469,0.1036328
1.186195,-0.116627,0.1578567
1.006855,0.081619,0.1715323
0.9960963,0.1209193,0.1384782
1.294199,-0.1645904,0.05068323
1.723374,-0.6077171,-0.1085356
1.827064,-0.8596027,-0.3013455
1.555206,-0.7728534,-0.3141859
0.9976608,-0.5078894,-0.005209853
0.3386284,-0.296713,0.2684308
0.3324865,-0.2482753,0.2140798
0.7127604,-0.3065548,0.126555
0.7141158,-0.2741088,0.1619495
0.9289555,-0.2665226,0.07517983
1.20376,-0.4384382,-0.09029605
1.148406,-0.5247297,-0.1948269
1.2478,-0.4655558,-0.2288965
1.055908,-0.3070529,-0.08403815
