accx,accy,accz
0.7290719,-0.07266721,0.1909146
0.7435682,-0.1041217,0.2278587
0.7242934,-0.1395133,0.2632294
0.732635,-0.1542813,0.2622907
0.7600037,-0.130782,0.2807275
0.7896366,-0.07694333,0.3310107
0.8313995,-0.0225918,0.3571247
0.8798421,-0.04798397,0.3347031
1.021297,-0.1242727,0.3018519
1.155908,-0.1667366,0.2761736
1.165892,-0.170732,0.2381455
1.21238,-0.1421323,0.2275048
1.258651,-0.03292878,0.2933329
1.215129,0.0960558,0.4046709
1.244283,0.02903664,0.4148625
1.305734,-0.2266024,0.2756477
1.31464,-0.4933826,0.1410458
1.321858,-0.6573114,0.09041744
1.206879,-0.5776301,0.1249753
0.9370586,-0.372577,0.1876108
0.6902618,-0.2441145,0.1937381
0.6557388,-0.175546,0.1747431
0.7591079,-0.2081417,0.1485732
0.8140146,-0.2712284,0.1089772
0.9489177,-0.3514043,0.06843332
0.995145,-0.4270588,0.05321497
0.8534401,-0.3147923,0.0732423
0.8722887,-0.2113106,0.07165889
0.8850328,-0.1444267,0.05493901
0.8651507,-0.05848986,0.04663906
0.9507128,-0.09915992,0.05078195
0.9440238,-0.0562274,0.06941204
0.9824005,0.006440986,0.06501133
1.023807,-0.0146893,0.05744903
0.988711,0.00384555,0.05517109
1.024015,-0.05742681,0.06062679
1.020591,-0.1283843,0.101736
1.028199,-0.1725563,0.1499159
1.037389,-0.1771429,0.1774738
0.998462,-0.07203699,0.1544001
1.026482,-0.02710075,0.1201315
1.079555,-0.05438483,0.1280117
1.190197,-0.130007,0.1270556
1.293413,-0.2600161,0.1290432
1.295356,-0.3711179,0.1530772
1.2426,-0.4140392,0.1518881
1.086363,-0.38712,0.1003718
0.9524492,-0.4600886,0.04617495
0.9637245,-0.5683092,0.09761449
1.068311,-0.5484996,0.1660622
1.205093,-0.4273284,0.1519994
1.227739,-0.2027204,0.1913746
1.108332,-0.1023799,0.2378912
0.9706529,-0.1856801,0.2033916
0.9108086,-0.2048389,0.2072691
0.8932536,-0.1862461,0.2218048
0.8127574,-0.163408,0.2032737
0.7197841,-0.09282037,0.2046296
0.6712647,-0.06041586,0.1993256
0.6601788,-0.09073129,0.2134725
0.6918975,-0.1267594,0.2531432
0.7115557,-0.1605143,0.2759521
0.7100373,-0.1604258,0.3184719
0.7310571,-0.09909751,0.3516322
0.7987277,-0.07383061,0.3443327
0.9374498,-0.1052417,0.3352718
1.114585,-0.1523632,0.2860698
1.261871,-0.1923383,0.1975062
1.361902,-0.1683541,0.1653367
1.407001,-0.1508464,0.1885718
1.386125,-0.1689691,0.1903974
1.376845,-0.1505094,0.2025492
1.414097,-0.1042131,0.3064694
1.3928,-0.1196963,0.38724
1.252338,-0.3664386,0.2686337
1.035005,-0.6156789,0.1223948
0.8340672,-0.4136785,0.1601151
0.6996585,-0.1396334,0.1815994
0.681054,-0.2092113,0.1129965
0.8023138,-0.2166216,0.1077346
0.8948083,-0.2115766,0.08693844
0.9261047,-0.4076434,0.06890734
0.9365248,-0.4201309,0.09609618
0.8590531,-0.3362473,0.06762219
0.8337777,-0.3030771,0.06731465
0.8705618,-0.1722347,0.06645017
0.8926992,-0.1134369,0.02229855
0.9530644,-0.1038449,0.04316348
0.9680366,-0.06902371,0.05356602
0.9709044,-0.03621907,0.04667949
0.9947878,0.02377094,0.05482783
1.004283,0.003033233,0.03473215
1.028427,-0.02817779,0.04322182
1.018652,-0.07816003,0.06795789
1.038448,-0.1997559,0.09102043
1.08935,-0.2401292,0.1267387
1.100211,-0.2633659,0.1537554
1.067215,-0.2089455,0.1674526
0.9942562,-0.03104035,0.1535462
1.037347,-0.0202343,0.1479727
1.177636,-0.1304984,0.1271075
1.293162,-0.2159078,0.08200286
1.331379,-0.3431281,0.1055574
1.188975,-0.4311932,0.128209
0.9957035,-0.4794519,0.1156295
0.8615218,-0.5128198,0.1400674
0.8665294,-0.4905366,0.144628
1.08146,-0.5003004,0.1233155
1.269265,-0.421879,0.1282831
1.309226,-0.2010787,0.1610502
1.156425,-0.08692691,0.2054298
0.9146037,-0.1149198,0.2105978
0.8434815,-0.1638704,0.2012255
0.8040999,-0.1571637,0.2170456
0.7467405,-0.1262453,0.207869
0.7332986,-0.1010883,0.18715
0.6842173,-0.0590124,0.1897355
0.6800689,-0.09379051,0.1993268
0.7095999,-0.1552553,0.2313118
0.7453775,-0.1959443,0.2789987
0.7754412,-0.2269428,0.3209515
0.7647545,-0.1514267,0.3496347
0.8225676,-0.08797056,0.3485333
0.9509267,-0.09592788,0.3316399
1.093369,-0.117679,0.2931055
1.205611,-0.1638408,0.2542172
1.265898,-0.1571406,0.2716395
1.299642,-0.1205961,0.3207256
1.302061,-0.02890111,0.3981667
1.382906,0.09643284,0.4694211
1.471956,0.006135668,0.4048701
1.352698,-0.2780674,0.2159434
1.194552,-0.4839525,0.07993762
1.115414,-0.446301,0.1426021
0.9288074,-0.334218,0.239597
0.7544451,-0.3067634,0.1484474
0.7527738,-0.1819248,0.09560939
0.7836111,-0.1376355,0.1423578
0.8574628,-0.2734247,0.09170045
0.906218,-0.2872278,0.09237609
0.8623281,-0.3625715,0.1087717
0.8688824,-0.4326685,0.05014387
0.8355082,-0.3255309,0.06778478
0.8358995,-0.3176552,0.06344652
0.9128846,-0.2196101,0.03100472
0.8891259,-0.103653,0.04225125
0.9159573,-0.1485201,0.04545044
0.9602877,-0.06928441,0.07781154
0.955195,-0.03032938,0.07995025
0.9890282,-0.02223648,0.06050906
0.9811302,0.03493241,0.06730179
1.006381,-0.05062171,0.05404504
1.041536,-0.1150581,0.06193139
1.063426,-0.16701,0.09174321
1.144947,-0.2228859,0.1495317
1.153836,-0.1703552,0.198543
1.116952,-0.09628938,0.1668934
1.110428,-0.007682755,0.1485305
1.159562,-0.02560456,0.1598546
1.278685,-0.1810166,0.1446858
1.323816,-0.3243545,0.1302557
1.225388,-0.4289732,0.109989
0.9958418,-0.437349,0.07721085
0.8093493,-0.4439886,0.06425359
0.8815112,-0.5245296,0.09236505
1.063227,-0.5325856,0.1275734
1.179376,-0.4319754,0.127478
1.215913,-0.2429059,0.1383818
1.106458,-0.1080587,0.1725384
0.9497867,-0.1406215,0.1725271
0.8958367,-0.1552545,0.1786682
0.8494442,-0.1052782,0.2094273
0.7811413,-0.07804634,0.1969452
0.7300828,-0.05721369,0.1812307
0.6909589,-0.06221264,0.1955348
0.7110296,-0.09354988,0.2012976
0.7390628,-0.1508199,0.2308939
0.7603572,-0.2118794,0.2818884
0.7747769,-0.1848945,0.3133383
0.7688191,-0.1073929,0.3345566
0.8301763,-0.06230497,0.3397617
0.8997447,-0.04340725,0.3307115
0.937029,-0.05007885,0.3254737
0.9871489,-0.06083883,0.3133088
1.136383,-0.08742954,0.2620475
1.350743,-0.1172255,0.2314397
1.279484,-0.02825507,0.3700261
1.156864,0.06923349,0.5300475
1.321471,-0.007197356,0.4420762
1.352913,-0.1733788,0.2609641
1.263471,-0.3934527,0.1607931
1.214568,-0.5691555,0.1272405
0.9908721,-0.508512,0.1872885
0.7789187,-0.364264,0.1983411
0.7097368,-0.2685479,0.1529385
0.7144019,-0.1933602,0.1616411
0.7912551,-0.2407613,0.1178084
0.8560679,-0.3107519,0.1037326
0.9052625,-0.3324674,0.1198095
0.894447,-0.3793361,0.06688376
0.8569873,-0.3102267,0.08511877
0.865147,-0.1967823,0.08784416
0.8638684,-0.1382705,0.04494323
0.9125102,-0.0831507,0.06883744
0.9572791,-0.1127978,0.08129876
0.9556618,-0.0986351,0.1011063
0.9865193,-0.03211714,0.1055066
1.007052,-0.01695852,0.07493553
1.030352,0.03045155,0.07411226
1.042942,-0.009727803,0.06497586
1.038698,-0.1151924,0.08922572
1.059462,-0.1681674,0.1396029
1.056991,-0.2064702,0.1428272
1.051812,-0.1660544,0.1229191
1.053004,-0.07978235,0.103321
1.065715,-0.0208764,0.118185
1.155718,-0.0961865,0.1450165
1.290611,-0.3142155,0.160735
1.339573,-0.4266673,0.1843227
1.210087,-0.4387808,0.1657634
1.023549,-0.4530133,0.1269251
0.9504284,-0.4949827,0.1222448
1.020824,-0.5889868,0.1407173
1.159371,-0.5627624,0.1812044
1.208313,-0.4036484,0.2096034
1.125706,-0.2086204,0.2171041
0.9823464,-0.0584529,0.2224038
0.8618029,-0.08549511,0.2149085
0.8094558,-0.1150568,0.2132891
0.7723705,-0.07608263,0.2047184
0.7545666,-0.08068658,0.1867728
0.754571,-0.05247881,0.1960564
0.7526675,-0.06500726,0.2137817
0.7629661,-0.1425857,0.2411653
0.7613106,-0.1858136,0.270978
0.7680812,-0.2112898,0.2719346
0.7475785,-0.1865254,0.2897276
0.7170107,-0.1481292,0.3350793
0.7879942,-0.113255,0.3519319
0.9283554,-0.07689703,0.3393086
1.107804,-0.1159495,0.3240485
1.274089,-0.1326852,0.2923098
1.35946,-0.08855929,0.2613255
1.375487,-0.02559691,0.3068181
1.303308,0.08775141,0.4007706
1.240113,0.1045683,0.422685
1.268109,-0.07381307,0.3423859
1.27872,-0.3765676,0.2281021
1.248704,-0.6512307,0.1614251
1.191802,-0.6597905,0.1462773
0.9910384,-0.4730822,0.1474611
0.7415925,-0.3326416,0.1646269
0.7089003,-0.2315995,0.1579834
0.7588141,-0.1588289,0.1287083
0.7569663,-0.1745364,0.1201181
0.877048,-0.2653456,0.09693768
0.9578565,-0.3609216,0.07050713
0.888312,-0.3732506,0.07010424
0.8891971,-0.3131406,0.07012991
0.8981383,-0.2308215,0.06535456
0.8719673,-0.136056,0.05600052
0.8978623,-0.08080509,0.06802399
0.9221362,-0.06068947,0.09195206
0.9596335,-0.005353369,0.09096497
0.9842848,0.03800791,0.08203345
0.9930867,0.01199434,0.06722857
1.046786,-0.03157682,0.0665391
1.076125,-0.1036124,0.09642044
1.103027,-0.2020811,0.1373558
1.132332,-0.2139832,0.1716539
1.081938,-0.1395827,0.1671964
1.043578,-0.05494556,0.1561174
1.078261,-0.01889878,0.1582579
1.14819,-0.09731264,0.1391323
1.248685,-0.2318051,0.1321848
1.287315,-0.3272156,0.1397556
1.196503,-0.3749484,0.1253686
1.036893,-0.4043017,0.09751584
0.8686193,-0.4635067,0.07803663
0.845301,-0.514169,0.0975735
1.057232,-0.4943208,0.129123
1.263941,-0.421189,0.142029
1.266558,-0.2894231,0.1719002
1.125203,-0.1537954,0.185277
0.9826288,-0.1164399,0.1675926
0.9175289,-0.1548046,0.183124
0.8466669,-0.1794462,0.1972663
0.77263,-0.1443174,0.1879709
0.7588947,-0.1049668,0.195916
0.7227827,-0.1019124,0.1985112
0.6964854,-0.114378,0.203099
0.7372658,-0.1631694,0.2246213
0.7590482,-0.2001575,0.2481722
0.7695946,-0.1988532,0.2921938
0.7990402,-0.1922883,0.3355587
0.8098256,-0.1025081,0.3426149
0.8726995,-0.000341752,0.3304393
1.037469,-0.07045658,0.2920822
1.182648,-0.1891186,0.2018266
1.273011,-0.1749905,0.1570938
1.351095,-0.1053031,0.236478
1.369955,-0.06835699,0.3379098
1.378636,-0.1489107,0.3781161
1.389189,-0.3786702,0.2805603
1.30808,-0.5519684,0.1016193
1.196568,-0.5743166,0.09086907
1.00767,-0.4996809,0.1993301
0.742572,-0.366972,0.2461525
0.7238719,-0.2699714,0.2214923
0.8466165,-0.2100488,0.1390391
0.8375033,-0.1642318,0.07069175
0.9088795,-0.1768162,0.04595654
1.01582,-0.2824049,0.06248364
1.01507,-0.3781191,0.08266652
1.023602,-0.3484688,0.05773869
0.9151173,-0.3024378,0.06835815
0.811366,-0.2201039,0.07158402
0.8801115,-0.08037619,0.04365527
0.8893624,-0.04878416,0.05425719
0.8957043,-0.0692151,0.05223358
0.9507131,-0.05312671,0.0618588
0.9593564,-0.0373826,0.06678024
0.9806131,-0.03052967,0.04018515
0.9869433,-0.03368169,0.03948429
0.9972107,-0.06407322,0.03550698
1.036646,-0.1399258,0.05830528
1.082068,-0.2220391,0.1123975
1.098888,-0.2462474,0.1547123
1.05283,-0.1784844,0.1765594
1.041147,-0.08224892,0.1502004
1.083719,-0.04030102,0.1360033
1.176702,-0.07263622,0.1233517
1.298061,-0.1752047,0.08665582
1.304793,-0.287627,0.09870112
1.168664,-0.3956746,0.1135199
0.9862724,-0.4703472,0.1180677
0.8933798,-0.4907597,0.1566935
0.9071988,-0.5339411,0.182548
1.001077,-0.5318985,0.1873036
1.220778,-0.399585,0.1896237
1.365113,-0.2132381,0.1879743
1.233101,-0.09696124,0.1996105
1.009076,-0.0879074,0.2124311
0.8937122,-0.1009017,0.2072986
0.8623512,-0.1084566,0.1976671
0.8099122,-0.08618891,0.1798646
0.7040619,-0.03541289,0.1670308
0.6571954,-0.0279913,0.184753
0.6750871,-0.04298189,0.2210421
0.6769236,-0.08585484,0.2659172
0.7378548,-0.1451393,0.2846041
0.7936712,-0.1522308,0.2828285
0.785093,-0.1085995,0.317835
0.8339661,-0.0462275,0.3467727
0.9154098,-0.0392294,0.34082
1.017889,-0.09310309,0.3271487
1.130158,-0.1478238,0.2840306
1.231341,-0.1580578,0.2502762
1.334078,-0.07013684,0.289444
1.344567,0.04500108,0.3654225
1.356036,0.06374404,0.4024855
1.387911,-0.06866204,0.351382
1.32787,-0.2963317,0.2496918
1.284853,-0.4218233,0.1982814
1.164747,-0.3870149,0.2002558
0.8994617,-0.3590235,0.1633152
0.7397188,-0.3395745,0.1056039
0.7213155,-0.220847,0.1155509
0.7314583,-0.1851627,0.1333258
0.7803144,-0.2791899,0.1116362
0.8768105,-0.3236351,0.1114083
0.949044,-0.3841593,0.09140164
0.9388149,-0.394779,0.05324121
0.9179462,-0.2987065,0.06537134
0.9337442,-0.2099479,0.07035095
0.9296469,-0.06455844,0.06901137
0.9327984,0.001720982,0.09087094
0.9673206,-0.01090375,0.09203293
0.9753874,0.07092417,0.08694977
0.9826284,0.06324306,0.07683475
0.998044,0.01253849,0.05635552
0.9836051,0.01947286,0.0487457
0.9768574,-0.03864824,0.05099712
0.9990244,-0.1167974,0.08138777
1.043482,-0.2114775,0.1425099
1.084657,-0.2726369,0.189306
1.081741,-0.2185974,0.1875982
1.054098,-0.08979806,0.1582965
1.039129,0.05532913,0.1440624
1.059011,0.04291238,0.1468944
1.1376,-0.07952945,0.1464859
1.269695,-0.1696617,0.1354525
1.329656,-0.2863141,0.1334627
1.209601,-0.3091778,0.1226139
1.035243,-0.3149764,0.07627996
0.921697,-0.4609785,0.063213
0.8830674,-0.5089426,0.1203013
0.9800347,-0.4760134,0.1811074
1.129814,-0.3895158,0.1882761
1.180041,-0.1564416,0.1746069
1.146498,-0.07879882,0.1852042
1.081109,-0.162596,0.1778032
1.000797,-0.1649592,0.164138
0.9096108,-0.1240197,0.1800986
0.8077255,-0.06860748,0.1839124
0.7232199,-0.03425803,0.1866972
0.6792142,-0.04288324,0.1963576
0.6835157,-0.06303851,0.2032173
0.7265411,-0.09082281,0.2417618
0.7770692,-0.1211373,0.2834952
0.7818045,-0.1173628,0.2837789
0.7683203,-0.05984941,0.2871993
0.8182538,-0.05003108,0.3303608
0.8969923,-0.07361363,0.3517307
1.005444,-0.09958206,0.332333
1.138155,-0.1712289,0.3006774
1.211078,-0.1866757,0.2371185
1.23906,-0.1408572,0.2110725
1.215458,-0.05593537,0.2788068
1.197505,0.04905688,0.3746504
1.265497,0.05964541,0.4143631
1.299402,0.007397257,0.3090577
1.263215,-0.1147893,0.1798765
1.230354,-0.3572325,0.1995935
1.182151,-0.5095442,0.216289
0.988059,-0.3978843,0.158391
0.6939739,-0.2792803,0.1452662
0.6481608,-0.3096792,0.1375041
0.7681163,-0.2793023,0.1355165
0.7638737,-0.2633234,0.1576659
0.8430307,-0.32283,0.125813
0.9909785,-0.3182536,0.07936388
0.9784166,-0.3100717,0.05218213
0.9427517,-0.2465842,0.06607448
0.936802,-0.1570676,0.1096478
0.9183865,-0.152472,0.08640196
0.9224914,-0.1182474,0.08080975
0.928212,-0.09949484,0.1071343
0.9642859,-0.1187005,0.08521471
1.002701,-0.07958624,0.084971
1.025188,-0.03989618,0.0734453
1.051869,-0.01824077,0.05302991
1.020064,-0.004719937,0.07338095
0.9995855,-0.03413082,0.08432232
1.035506,-0.1030717,0.1190483
1.055259,-0.1759167,0.1442441
1.05875,-0.1811551,0.1169302
1.036374,-0.09026372,0.1119626
1.017552,-0.002911252,0.1313496
1.040917,-0.009461718,0.1517901
1.095542,-0.07381565,0.1581809
1.2002,-0.1794677,0.1356909
1.280983,-0.302713,0.1173552
1.223154,-0.3373515,0.1192014
1.081992,-0.3500615,0.1085244
0.9600771,-0.4372989,0.08489836
0.872221,-0.4758559,0.1062565
0.8768762,-0.4755486,0.1447983
1.033159,-0.4788647,0.1530937
1.257927,-0.3580903,0.172569
1.333636,-0.1858262,0.1889724
1.155084,-0.09188843,0.1854334
0.9685532,-0.09049779,0.195404
0.9158348,-0.1319794,0.2144302
0.88089,-0.1019262,0.226643
0.8194068,-0.05056231,0.2102575
0.7020712,-0.01366474,0.1886558
0.6553833,-0.009693832,0.209978
0.7224916,-0.08429648,0.2436707
0.74426,-0.1232107,0.2738859
0.8047611,-0.1468757,0.3087945
0.8697193,-0.1426527,0.3184808
0.8425254,-0.0718674,0.3208704
0.876454,-0.05689269,0.3311219
0.9439904,-0.05856554,0.3172002
0.9972173,-0.1024468,0.2814158
1.104247,-0.1835422,0.2276134
1.233739,-0.1748376,0.1986628
1.315888,-0.1047422,0.2448842
1.302775,0.008989895,0.3209779
1.325883,0.05755054,0.4069917
1.38255,0.009718593,0.4223542
1.23831,-0.08952708,0.2514841
1.092101,-0.3083982,0.08242788
1.140177,-0.423088,0.115778
1.058666,-0.3545717,0.1936033
0.8154248,-0.3601205,0.1872628
0.7395108,-0.3832413,0.1815215
0.8044007,-0.3034802,0.159553
0.808023,-0.2255285,0.09212099
0.8032251,-0.2095912,0.07156368
0.8679776,-0.2513436,0.08986854
0.9163382,-0.3279979,0.09798142
0.9088674,-0.3568208,0.09536933
0.8984078,-0.3225858,0.09677408
0.9147159,-0.2903544,0.1190488
0.9389635,-0.2647136,0.1188969
0.9505751,-0.2074918,0.1127056
0.9546868,-0.1323147,0.1183119
0.9664506,-0.09627969,0.1017167
1.011978,-0.05209336,0.0777641
1.054768,0.01802272,0.03877935
1.053408,0.02455564,0.02572815
1.040864,0.006341902,0.05099268
1.026577,-0.02161163,0.05536591
1.028945,-0.08082,0.07033988
1.037209,-0.1240926,0.1035889
1.020886,-0.1707687,0.1305204
1.017843,-0.1600749,0.134771
1.008192,-0.06647023,0.1241042
1.005035,-0.02742292,0.1449582
1.093824,-0.0779812,0.1493718
1.238881,-0.194079,0.133543
1.317409,-0.3257482,0.1398662
1.274859,-0.3798732,0.1147926
1.153906,-0.3947067,0.06435795
0.9829308,-0.4542281,0.03249165
0.875574,-0.5193807,0.05203988
0.9265169,-0.5214061,0.1140323
0.9892641,-0.4863245,0.1449097
1.058576,-0.3833639,0.1740707
1.143582,-0.1689467,0.2087783
1.095532,-0.06665658,0.2060409
1.042108,-0.1696001,0.2051903
1.029871,-0.231835,0.2061052
0.9381442,-0.2089973,0.2150565
0.8370617,-0.1802434,0.2310757
0.7409485,-0.1150874,0.2245372
0.7076752,-0.09623505,0.2309872
0.762599,-0.1420864,0.2414768
0.7806773,-0.1589305,0.2400778
0.8033586,-0.176134,0.2433118
0.8102241,-0.1717823,0.2499328
0.7885347,-0.1161906,0.2762493
0.8493473,-0.07668881,0.3086155
0.9149267,-0.06264789,0.3225362
0.9714893,-0.1050077,0.3073533
1.069915,-0.1781579,0.2594611
1.162542,-0.1958517,0.2114828
1.248658,-0.1767337,0.2096368
1.273876,-0.1281851,0.2690641
1.254813,-0.03226478,0.341185
1.301777,0.05012665,0.3563624
1.356393,-0.06060317,0.2687764
1.328248,-0.2884314,0.1712895
1.226176,-0.3413856,0.1973976
1.035972,-0.3486037,0.223134
0.8189279,-0.3569185,0.1753055
0.7556778,-0.2546459,0.1516515
0.795946,-0.2460491,0.09616053
0.8328506,-0.2707274,0.0450177
0.9315439,-0.2724005,0.08436284
0.9468818,-0.3620245,0.1139196
0.8640995,-0.3859303,0.1273818
0.8632839,-0.3572507,0.1354803
0.8538395,-0.3195164,0.1085134
0.8822216,-0.2277577,0.0972044
0.9720403,-0.15773,0.07636789
0.9711608,-0.1055307,0.05961639
0.9778309,-0.08067978,0.08313342
1.003526,-0.0654371,0.08169236
1.011487,-0.04334941,0.07807682
1.043881,-0.04802944,0.08432776
1.035708,-0.03910625,0.07308872
1.019681,-0.03999522,0.08023906
1.01422,-0.05601098,0.08469463
1.022483,-0.09702471,0.08697939
1.060589,-0.1857297,0.1083741
1.050815,-0.2078267,0.1169775
1.018071,-0.1330695,0.1137057
0.9977574,-0.05385279,0.1104896
1.010248,-0.03920437,0.1224244
1.092696,-0.1074378,0.1386026
1.215453,-0.2347668,0.1361354
1.314424,-0.3539786,0.1360097
1.253431,-0.3825304,0.1198767
1.114989,-0.3985355,0.06837966
1.048904,-0.4833205,0.03510031
0.9382359,-0.5566655,0.0808889
0.8691783,-0.5889407,0.1541578
0.9593134,-0.5125814,0.1737795
1.058187,-0.2812201,0.2077648
1.093121,-0.1078444,0.2468697
1.053075,-0.1187934,0.2040766
1.007483,-0.1777764,0.1746618
1.010881,-0.1985156,0.1953566
0.9688723,-0.2192589,0.1935654
0.8700751,-0.1955596,0.1929358
0.7611052,-0.10348,0.2073325
0.7163892,-0.08320133,0.2176933
0.7610044,-0.1126717,0.2321423
0.8121081,-0.1385932,0.2452312
0.8568253,-0.2015242,0.2507665
0.8583929,-0.17468,0.2556961
0.8304634,-0.09805675,0.2690443
0.8644907,-0.08395168,0.3001289
0.9097285,-0.1046589,0.3163823
0.9665442,-0.1943014,0.2795661
1.036084,-0.279313,0.2204357
1.052277,-0.3457466,0.1812686
1.088469,-0.3674825,0.2028144
1.127993,-0.1920647,0.2891238
1.13539,-0.009917996,0.3749914
1.161591,-0.007576308,0.4046396
1.178076,0.009354878,0.3502626
1.220496,0.1081977,0.3068205
1.215343,0.06584051,0.3319051
1.110977,-0.1331342,0.3039949
1.049755,-0.3004716,0.2636185
1.010877,-0.371944,0.2786069
0.9694409,-0.3096883,0.2383159
0.8788116,-0.2639681,0.1408264
0.7759177,-0.2933522,0.08050581
0.8417344,-0.2237828,0.07091507
0.9128877,-0.1846641,0.04871232
0.9472544,-0.1942596,0.03994503
1.002477,-0.2100408,0.09802043
0.9302496,-0.3030966,0.1381102
0.8843328,-0.3149479,0.1462062
0.9148444,-0.3010106,0.1352061
0.9280918,-0.3047419,0.0921116
0.9796606,-0.2497738,0.07809822
0.9692821,-0.2037917,0.0714692
0.9275512,-0.1218322,0.07189915
0.9344858,-0.08106648,0.08769189
0.9458605,-0.08445742,0.06492484
0.9977588,-0.04095936,0.05719442
1.028888,-0.06895433,0.06818829
1.027227,-0.1254489,0.07120469
1.057198,-0.1576074,0.09182336
1.081774,-0.2151536,0.09786377
1.09324,-0.2303078,0.1020896
1.067499,-0.1697971,0.118818
1.027681,-0.09773198,0.1357188
1.045042,-0.08609952,0.1598307
1.107534,-0.1428665,0.1658515
1.21686,-0.2322733,0.1451299
1.310382,-0.2933924,0.1170838
1.295898,-0.3070554,0.1078026
1.214262,-0.322576,0.08537494
1.099891,-0.3423516,0.03411528
0.9658842,-0.3502471,0.01858739
0.8933742,-0.3549703,0.02150833
0.9289325,-0.3815267,0.06163508
1.003117,-0.4190297,0.1532968
1.0299,-0.4072592,0.1771947
1.015067,-0.3115157,0.1734802
0.9800289,-0.1784667,0.210598
0.9499395,-0.1446241,0.2078199
0.950737,-0.1626148,0.1997987
0.930988,-0.07439812,0.22913
0.8976975,0.003816899,0.2272808
0.8770923,-0.0006320428,0.2025537
0.816967,0.02339682,0.2041413
0.7641656,0.01846961,0.2459148
0.7751551,-0.0666583,0.3078686
0.8167901,-0.1278347,0.3354476
0.8689349,-0.1372357,0.3570028
0.8857819,-0.1076257,0.3846066
0.8672724,-0.06760919,0.3578862
0.8934,-0.08509289,0.3229176
0.9836986,-0.1148034,0.2728438
1.12044,-0.1380917,0.209153
1.225809,-0.1604405,0.2515998
1.212807,-0.09760756,0.3301771
1.19354,-0.03680005,0.392193
1.235895,-0.06484474,0.4398772
1.231863,-0.09242967,0.3461416
1.164268,-0.1581368,0.2378578
1.079279,-0.2958775,0.23985
1.047434,-0.3585143,0.2128445
1.042381,-0.3425253,0.1882604
0.9349579,-0.3784236,0.1880269
0.8452236,-0.3843522,0.1308114
0.859883,-0.3098354,0.09600223
0.8387654,-0.2751571,0.07997941
0.8268682,-0.2635374,0.05919015
0.8883265,-0.2655286,0.0980941
0.927456,-0.2830459,0.1072667
0.9360507,-0.2631651,0.08973433
0.9405063,-0.2425794,0.1137104
0.9478278,-0.1852189,0.1088915
0.9787753,-0.1070833,0.106912
0.9857365,-0.07672859,0.1128375
0.9558589,-0.04022729,0.1012901
0.939932,-0.01129497,0.1087347
0.946677,0.01126142,0.09847318
0.9699842,0.0317835,0.09499882
1.002525,0.02275656,0.09313247
1.035686,0.02352374,0.07273328
1.029215,-0.002312224,0.091608
1.006991,-0.06579303,0.1074521
1.048364,-0.1363149,0.1147451
1.070898,-0.1949411,0.1402501
1.042851,-0.1793333,0.1500684
1.028281,-0.1159251,0.1464965
1.022887,-0.06855586,0.1372067
1.104843,-0.09423569,0.1369593
1.260893,-0.1926454,0.1411261
1.334906,-0.2845385,0.1480451
1.298316,-0.3518421,0.1541259
1.196782,-0.3756006,0.1125563
1.042249,-0.4133024,0.06790585
0.9038008,-0.49917,0.08041465
0.9043864,-0.5073948,0.1066244
0.9923543,-0.4420932,0.1325202
1.049395,-0.3213554,0.1851213
1.060422,-0.1669205,0.2219701
1.006147,-0.1442312,0.2158156
0.9551932,-0.2121306,0.213189
0.9388771,-0.2194742,0.2111678
0.8920143,-0.1763229,0.2040709
0.8293641,-0.109575,0.203835
0.7615215,-0.03923075,0.194026
0.7406818,-0.01498772,0.2012367
0.7700578,-0.0375266,0.2272383
0.7810195,-0.06528048,0.2564066
0.8067834,-0.0937527,0.2833437
0.815778,-0.09876609,0.28623
0.7999319,-0.06036778,0.3092947
0.8270128,-0.04989314,0.347235
0.8795032,-0.09902348,0.3428564
0.9758607,-0.175902,0.3113041
1.101725,-0.2359066,0.2516522
1.207415,-0.2332414,0.2023619
1.272383,-0.16805,0.2250386
1.221796,-0.04720912,0.2861057
1.163335,0.05608633,0.374797
1.223753,0.04345703,0.4253474
1.256008,-0.07935534,0.300463
1.240458,-0.2912597,0.1522501
1.227114,-0.4811562,0.1795695
1.099577,-0.4859371,0.2127779
0.8731478,-0.3735163,0.1705223
0.6979369,-0.2877526,0.1555097
0.6971741,-0.2498447,0.1129681
0.8075593,-0.2533176,0.06841512
0.8666356,-0.2711166,0.07670017
0.9194082,-0.3160965,0.08768093
0.9768538,-0.3785977,0.1165511
0.9490124,-0.3461259,0.1112812
0.901772,-0.2888184,0.08372457
0.917315,-0.2848989,0.1051256
0.9316864,-0.206521,0.09262238
0.9158666,-0.123125,0.07736606
0.9439633,-0.1209183,0.08976012
0.9521408,-0.1021021,0.07581949
0.9358126,-0.08788143,0.08335285
0.9724741,-0.0792538,0.08463482
0.9790767,-0.06151019,0.07330601
0.9931362,-0.07353901,0.08068088
1.034885,-0.0680809,0.0748713
1.049289,-0.07062622,0.08934819
1.077474,-0.11719,0.1110778
1.07091,-0.1763988,0.1145079
1.053962,-0.2028501,0.1146324
1.049723,-0.1233834,0.1101598
1.031607,-0.05614014,0.1365137
1.09803,-0.1294883,0.1599592
1.222546,-0.2361085,0.146504
1.289949,-0.3044196,0.1420899
1.261524,-0.3349597,0.1407755
1.179662,-0.3453937,0.1136636
1.054666,-0.388309,0.08375632
0.8678295,-0.43718,0.09759123
0.8227834,-0.4604041,0.1299449
0.9704312,-0.4604123,0.1592221
1.09954,-0.3912592,0.2160323
1.166392,-0.2740445,0.2528616
1.149504,-0.2140211,0.2563062
1.057045,-0.2219417,0.2462338
0.9701875,-0.2072025,0.2107781
0.8880151,-0.1647862,0.2105622
0.8187212,-0.1456705,0.2256218
0.7505938,-0.09728548,0.2122426
0.7326213,-0.06553332,0.2275078
0.7788338,-0.1126344,0.2447433
0.785199,-0.1222577,0.2499557
0.7992893,-0.1249691,0.2696521
0.8099933,-0.1395503,0.2771404
0.7712578,-0.08550245,0.2911353
0.7840854,-0.05055508,0.316355
0.8606067,-0.04972023,0.33391
0.9655093,-0.06867809,0.3406673
1.034869,-0.1355051,0.326104
1.115049,-0.2095268,0.2918121
1.25833,-0.2437835,0.2541156
1.271951,-0.1662563,0.2803853
1.240723,-0.08035734,0.3650745
1.311302,-0.0613859,0.4327208
1.318038,-0.03311426,0.4272941
1.2671,-0.163993,0.2396499
1.197728,-0.4052729,0.05806636
1.093759,-0.4291527,0.1856108
0.9882759,-0.3526714,0.3071991
0.8267394,-0.3253424,0.1651454
0.7328644,-0.2380784,0.08940221
0.827808,-0.2225599,0.1159277
0.9313461,-0.3062065,0.08452137
0.9454458,-0.3278831,0.1056686
0.9308174,-0.364988,0.1292105
0.893994,-0.3675668,0.1138734
0.8671097,-0.2880542,0.1296655
0.8897246,-0.2397043,0.1162163
0.9116522,-0.1578134,0.1019732
0.9140791,-0.1020968,0.0825463
0.9168844,-0.1015008,0.04938764
0.9303998,-0.05441321,0.06789715
0.9796496,-0.02864602,0.06327419
1.019336,-0.02222236,0.04882662
1.000027,-0.0478096,0.06901146
0.9776953,-0.09167387,0.0710411
0.9892662,-0.08047393,0.07271284
0.9927263,-0.07977306,0.0833474
0.9966143,-0.07829054,0.09822388
1.031848,-0.1081835,0.107326
1.060663,-0.1878084,0.1186998
1.071831,-0.1972036,0.1447756
1.066138,-0.136031,0.1367042
1.066894,-0.07005622,0.1276804
1.139912,-0.09207389,0.1428925
1.256006,-0.1789288,0.1444648
1.319694,-0.2336253,0.1611208
1.276215,-0.2604823,0.1696228
1.175596,-0.2501016,0.1289308
1.042208,-0.3096243,0.08566726
0.8867367,-0.4592956,0.08530663
0.8732353,-0.5448081,0.1333841
0.9832177,-0.5408205,0.1812108
1.071729,-0.4228636,0.1952308
1.12247,-0.2509512,0.2058734
1.083396,-0.1846704,0.2070592
1.025842,-0.2218981,0.1963545
0.9874628,-0.2373929,0.2173812
0.8884042,-0.1821427,0.2416173
0.8000982,-0.1349343,0.2289564
0.7303485,-0.07799994,0.2127985
0.7069727,-0.04575926,0.2064769
0.7604838,-0.1081707,0.2203624
0.7750241,-0.1391158,0.2513177
0.767466,-0.1418184,0.257598
0.7434752,-0.109267,0.275503
0.7157833,-0.01288863,0.3187073
0.8051792,-0.004725578,0.3249374
0.9635125,-0.057675,0.3094786
1.099047,-0.1231918,0.2896995
1.196845,-0.1970413,0.2482424
1.263234,-0.1848685,0.2297907
1.296143,-0.09617555,0.2684315
1.27981,0.03409958,0.3372625
1.279771,0.09353307,0.398488
1.300569,-0.01260148,0.3779765
1.28376,-0.2172455,0.2246308
1.25922,-0.4618222,0.09891817
1.240801,-0.5778841,0.1700446
1.196224,-0.5061543,0.2522576
1.033377,-0.448408,0.1902131
0.7695737,-0.3696502,0.1581176
0.6883952,-0.2352045,0.1404516
0.7883017,-0.2314242,0.05894575
0.8170972,-0.2666946,0.06685498
0.8799128,-0.2792826,0.09384456
0.9593497,-0.3616926,0.07360819
0.9038046,-0.3589575,0.08870446
0.8931965,-0.2800374,0.06931166
0.9073666,-0.2412773,0.05487652
0.8906842,-0.1924983,0.06181145
0.9415575,-0.1784698,0.04999781
0.9406996,-0.1672458,0.07449561
0.929869,-0.1294264,0.07674271
0.9594522,-0.1172009,0.07128208
0.947871,-0.08110182,0.0826992
0.9875138,-0.05980527,0.07273902
1.041421,-0.06086554,0.08187938
1.048552,-0.04550283,0.08261886
1.05991,-0.07488548,0.08607529
1.078962,-0.1384768,0.1086177
1.106743,-0.1948009,0.1261558
1.086214,-0.1825129,0.1521052
1.039085,-0.09420617,0.1495354
1.030685,-0.0496126,0.1587314
1.06345,-0.07916791,0.1845792
1.155296,-0.1542626,0.1495663
1.218528,-0.2450012,0.1116542
1.186519,-0.3182211,0.09753091
1.085976,-0.3815052,0.05407705
0.9448846,-0.4462762,0.01444553
0.8965152,-0.5278694,0.05668145
1.012739,-0.5452656,0.1232139
1.155908,-0.4123746,0.1255829
1.200704,-0.2020559,0.1594536
1.153649,-0.0805101,0.2052988
1.068087,-0.1448045,0.1731742
1.01039,-0.2199433,0.1757589
0.9974305,-0.1990369,0.1984518
0.9214173,-0.1693021,0.1928509
0.7680867,-0.09245159,0.2280194
0.7163265,-0.06068433,0.2394407
0.747349,-0.1124361,0.2292098
0.7008471,-0.1076644,0.2561247
0.6979105,-0.126581,0.26398
0.7726708,-0.1364127,0.2552027
0.7781613,-0.08215845,0.2524758
0.7814177,-0.07764576,0.2579399
0.8120904,-0.05894304,0.283499
0.880063,-0.03855975,0.3166851
0.9987458,-0.08225936,0.328113
1.066632,-0.1585706,0.2844602
1.148326,-0.2422406,0.2433224
1.231685,-0.2194349,0.2591891
1.246885,-0.1232962,0.29237
1.269663,-0.05954913,0.3394922
1.305369,-0.05740138,0.351056
1.346505,-0.187204,0.2358065
1.244638,-0.3449083,0.1287897
1.022555,-0.3983455,0.2082652
0.9355855,-0.3730782,0.2776722
0.8364268,-0.3049029,0.1602422
0.7367481,-0.2392188,0.06788889
0.8416789,-0.2226119,0.06460877
0.9311347,-0.2610478,0.0553219
0.9257009,-0.3065382,0.09426145
0.9240132,-0.3714266,0.1367506
0.9026005,-0.4211849,0.1297285
0.8875793,-0.3544374,0.1207308
0.8686871,-0.2899747,0.1051967
0.8707794,-0.2621231,0.08379855
0.9195239,-0.1659402,0.06655885
0.9386304,-0.07238186,0.05629446
0.9345571,-0.05457275,0.05580476
0.947467,-0.06921593,0.06301947
0.9812223,-0.01446351,0.06819096
1.00754,0.02889978,0.06242045
1.007321,-0.02685446,0.05747622
1.035972,-0.0647977,0.0359257
1.063952,-0.1206926,0.02436839
1.064248,-0.1722463,0.05965441
1.090163,-0.1892929,0.1067843
1.08663,-0.2302102,0.1424359
1.036407,-0.142778,0.1380436
1.000408,-0.01757538,0.1246708
1.014631,-0.01511693,0.1287236
1.139906,-0.07072801,0.08942922
1.264399,-0.1769511,0.06152349
1.226401,-0.2752083,0.1128725
1.178599,-0.3769075,0.1611274
1.172087,-0.4085494,0.1388594
0.9734272,-0.388342,0.09833461
0.7630516,-0.5176926,0.09022644
0.8784325,-0.5491995,0.09938244
1.082868,-0.4908453,0.1246991
1.183035,-0.4587169,0.1523006
1.248448,-0.2090432,0.1919282
1.133926,-0.09865604,0.231017
0.9559795,-0.2120244,0.2061281
0.9483317,-0.1877953,0.1939182
0.9292879,-0.1913955,0.2074715
0.8447765,-0.1780964,0.1829002
0.7749978,-0.09449731,0.1852402
0.7134963,-0.1030377,0.2019949
0.7228238,-0.1150098,0.2187141
0.7531026,-0.1349519,0.2434348
0.7728745,-0.1574797,0.2331233
0.7860367,-0.1282374,0.2399445
0.7694755,-0.07508526,0.2695072
0.7995916,-0.02213427,0.2972941
0.8525945,-0.02860524,0.3221341
0.9407219,-0.07737635,0.3004079
1.102748,-0.1591322,0.2599503
1.222391,-0.2248294,0.2293241
1.28615,-0.1737657,0.2305245
1.316908,-0.0703585,0.2829553
1.267277,0.05094022,0.3679878
1.199791,0.1574667,0.4528543
1.228376,0.08740419,0.3907738
1.254456,-0.1186024,0.2422873
1.178618,-0.3166898,0.2199752
1.126434,-0.4744267,0.2212549
1.05383,-0.4683997,0.2039025
0.8849411,-0.3553979,0.196303
0.7464574,-0.3037161,0.1239078
0.7265668,-0.2498433,0.08701022
0.8211227,-0.2427027,0.0884968
0.8932488,-0.2743197,0.08922472
0.9136905,-0.2903608,0.1218351
0.9323582,-0.3599852,0.1019539
0.9064549,-0.349891,0.08515538
0.911528,-0.2905985,0.0951758
0.9419414,-0.2576211,0.06649814
0.9553834,-0.1686956,0.06106744
0.9743388,-0.1262365,0.06408214
0.9700737,-0.1065365,0.06291711
0.9880077,-0.07366622,0.06685904
0.9922267,-0.08376842,0.05859144
0.9831688,-0.07437547,0.06144255
1.020483,-0.06951176,0.04997298
1.028506,-0.07174598,0.04270646
1.033159,-0.07672305,0.06492591
1.044142,-0.1226126,0.09491891
1.03383,-0.1567291,0.1235408
1.041925,-0.181311,0.1173578
1.035264,-0.1985889,0.1119917
1.027172,-0.1467255,0.1245949
1.034021,-0.0674696,0.1199445
1.071193,-0.08412782,0.136192
1.184051,-0.1786216,0.1582531
1.275997,-0.241331,0.1568605
1.254693,-0.258301,0.1564593
1.146704,-0.2474025,0.1190561
1.020484,-0.3079245,0.04388069
0.9598073,-0.482968,0.02515431
0.9870103,-0.6196296,0.07712395
1.039775,-0.6161356,0.1301023
1.083217,-0.4424432,0.1805995
1.101834,-0.2209943,0.2317445
1.042212,-0.1583184,0.2307531
0.9784686,-0.2101405,0.1954276
0.9784381,-0.2166076,0.1847795
0.9478832,-0.1630373,0.1901189
0.8797951,-0.1265766,0.1899012
0.8303107,-0.0947349,0.191974
0.8059816,-0.08973816,0.2133617
0.7836999,-0.1305388,0.2397241
0.7899319,-0.1368849,0.2338885
0.7854249,-0.1355747,0.2744024
0.8000204,-0.09313222,0.2849784
0.7895157,-0.04631915,0.308984
0.8474234,0.001915513,0.3452133
0.9492307,-0.0009647045,0.3586186
1.054837,-0.08016935,0.3405601
1.14273,-0.1497633,0.2987648
1.224804,-0.1808799,0.2553362
1.267929,-0.1213743,0.2860101
1.256633,-0.02664396,0.3641227
1.278534,0.002640388,0.39803
1.317336,-0.0589925,0.3592052
1.298594,-0.2287821,0.2497312
1.24437,-0.3851942,0.1668288
1.140034,-0.4309961,0.2072672
0.9770602,-0.4166228,0.2525877
0.8662984,-0.3623495,0.1966434
0.8093498,-0.2652631,0.1326606
0.7703765,-0.1984728,0.0846185
0.8348421,-0.2254309,0.05684793
0.9044781,-0.2559074,0.1002621
0.8809492,-0.2826006,0.1154517
0.8708904,-0.3429521,0.1002215
0.8723234,-0.3033915,0.1146458
0.869531,-0.2061735,0.09258699
0.9044595,-0.1550421,0.07666305
0.9548982,-0.1132913,0.08063685
0.9876859,-0.09976427,0.07427205
0.9746486,-0.08266865,0.08526065
0.9629914,-0.04752984,0.07255825
0.9795957,-0.002057062,0.05512614
0.9763669,0.0441003,0.04627501
0.9869828,0.0003447493,0.03464424
1.022563,-0.07047725,0.04617624
1.049508,-0.1397392,0.05401354
1.071775,-0.2340182,0.09193403
1.066333,-0.2255667,0.140712
1.043535,-0.1404245,0.1324201
1.042247,-0.05735336,0.1192606
1.099558,-0.02429658,0.1101006
1.231367,-0.1245613,0.09936843
1.311435,-0.2568996,0.1251637
1.259725,-0.341139,0.1616396
1.148167,-0.3839551,0.156317
0.9932385,-0.4061933,0.1146825
0.8723754,-0.4906376,0.08877909
0.9080366,-0.550028,0.09977642
1.016374,-0.5021222,0.1324731
1.128761,-0.4024885,0.1663199
1.209804,-0.2162965,0.1992769
1.135376,-0.05750968,0.2154154
1.013918,-0.1043802,0.197227
0.9473019,-0.1748286,0.1886284
0.8680159,-0.1408624,0.1926321
0.8327411,-0.1180235,0.18822
0.7902497,-0.06262562,0.1871539
0.7462123,-0.02339072,0.1827959
0.7832717,-0.08633995,0.1909959
0.778359,-0.1295136,0.203767
0.7779115,-0.1955894,0.207537
0.7956269,-0.2546408,0.2404341
0.7636557,-0.2142501,0.2942616
0.7870213,-0.1879621,0.3196899
0.8307035,-0.1490863,0.3099852
0.9078571,-0.1373716,0.3033816
1.050742,-0.2106051,0.2925246
1.157271,-0.2327776,0.2535363
1.217837,-0.1914572,0.234794
1.228863,-0.07041084,0.2512318
1.231335,0.07734048,0.2881994
1.242212,0.1028983,0.3674337
1.271505,0.05585603,0.4190865
1.311565,-0.07753858,0.3239188
1.205821,-0.3529154,0.1773418
1.075611,-0.5218195,0.1588387
1.036434,-0.4697401,0.2033913
0.9187131,-0.4644658,0.2020798
0.8001015,-0.4206689,0.1713016
0.7678543,-0.2079279,0.1271746
0.7650255,-0.1870143,0.1085798
0.8358665,-0.265568,0.1124845
0.9261551,-0.2250563,0.1079838
0.9427228,-0.2781608,0.1103793
0.9032874,-0.3080285,0.104917
0.8541341,-0.261756,0.09502244
0.8609021,-0.2630644,0.08744506
0.9019331,-0.2098925,0.07457092
0.9167666,-0.1767612,0.07458163
0.9270623,-0.1788558,0.07803771
0.9343677,-0.1011824,0.07861834
0.9566918,0.006592239,0.07486341
0.9925742,0.08496625,0.06341589
1.020371,0.09054853,0.0508322
1.054108,0.04695988,0.03799717
1.050179,-0.02935794,0.06894065
1.048779,-0.1423931,0.1471016
1.064096,-0.1740013,0.1834906
1.044536,-0.08849546,0.1468466
1.059429,-0.005304209,0.1154247
1.111232,-0.02172154,0.1350346
1.21014,-0.1443177,0.1429256
1.301078,-0.3280533,0.1361818
1.231223,-0.4583086,0.1410557
1.090463,-0.4630743,0.08726613
0.9756375,-0.4760241,0.03446708
0.9456182,-0.5524991,0.09367453
1.036648,-0.5858902,0.1679429
1.109972,-0.5275505,0.1873934
1.164809,-0.3525448,0.2208038
1.1696,-0.1412683,0.2519263
1.065193,-0.08314208,0.2227848
1.014022,-0.1672245,0.1990484
0.9821173,-0.1817952,0.2113291
0.8716385,-0.1114614,0.1890335
0.7336586,-0.06888541,0.1625931
0.651778,-0.02211026,0.1786408
0.6910031,-0.01513847,0.1939794
0.6916605,-0.0641607,0.2185031
0.6731982,-0.1001758,0.2699063
0.7484224,-0.1581371,0.2923821
0.7764602,-0.1577434,0.2961464
0.7958185,-0.08507792,0.3331124
0.8378781,-0.0399168,0.3568086
0.8951842,-0.01905667,0.3509799
1.011623,-0.07403745,0.3430817
1.100669,-0.1405043,0.3101496
1.197847,-0.1318384,0.2885895
1.300582,-0.1178185,0.3090023
1.366865,-0.09162323,0.3495289
1.42334,-0.07043339,0.4098801
1.421183,-0.1043191,0.408574
1.299079,-0.2238448,0.2622371
1.094447,-0.4049404,0.1215323
1.047338,-0.4596925,0.1612058
1.021068,-0.3657005,0.2026767
0.7997239,-0.2715507,0.1200532
0.7410671,-0.189733,0.1044501
0.8286788,-0.1652865,0.1158157
0.8489508,-0.2372607,0.08013003
0.9087621,-0.3135002,0.1017891
0.9225679,-0.3816451,0.1062428
0.8679934,-0.3956612,0.09403778
0.8491117,-0.3101837,0.1029033
0.8783385,-0.2364371,0.07732801
0.9203055,-0.1631708,0.06526843
0.9210799,-0.1152346,0.05323164
0.9289583,-0.1409453,0.05371382
0.9500812,-0.09799522,0.07635779
0.9601412,-0.03793227,0.05826745
0.9884588,-0.02771077,0.04777715
1.009717,-0.008484919,0.0363467
1.017845,-0.04750121,0.03883093
1.04323,-0.1395899,0.1060229
1.084471,-0.2168451,0.1595699
1.091373,-0.2207256,0.1628203
1.061856,-0.1627256,0.1265057
1.061285,-0.1453521,0.1073113
1.107362,-0.1622558,0.1281528
1.21447,-0.2180518,0.1359227
1.316733,-0.3388185,0.1525992
1.28029,-0.436262,0.1487911
1.131083,-0.4368236,0.08731578
0.9887921,-0.4326031,0.04486349
0.9780477,-0.522268,0.09122326
1.117446,-0.5795219,0.1730653
1.22944,-0.5263615,0.1840651
1.221565,-0.3687941,0.1978936
1.120551,-0.1222555,0.241591
0.9580677,-0.03825685,0.2099141
0.8757202,-0.1346044,0.1818282
0.917666,-0.1548333,0.2022792
0.9141278,-0.1539261,0.1994569
0.798664,-0.153026,0.1942295
0.6972963,-0.07508831,0.202571
0.6922907,-0.05959537,0.2081603
0.7262968,-0.09122831,0.2204098
0.7561574,-0.08763666,0.2379165
0.7986061,-0.1102986,0.234751
0.8337296,-0.1047901,0.2384757
0.8467681,-0.06860986,0.29503
0.8572869,-0.06289596,0.3443666
0.8815474,-0.06888023,0.334204
0.9643132,-0.1164112,0.3220996
1.051123,-0.1678142,0.324873
1.084295,-0.1952729,0.2694168
1.228492,-0.2241697,0.209728
1.395671,-0.1746743,0.2673843
1.377382,-0.09762205,0.3777482
1.367226,-0.1262842,0.402838
1.316988,-0.2093439,0.2553415
1.118768,-0.3194214,0.0907402
1.074046,-0.4548545,0.1696293
1.048684,-0.4575755,0.2501786
0.8498901,-0.3391043,0.1476481
0.7935801,-0.2675922,0.1237179
0.8606312,-0.2335882,0.104923
0.871948,-0.2262653,0.03819415
0.8930351,-0.2606065,0.08892904
0.8922058,-0.3299239,0.1137451
0.8729407,-0.3933465,0.1052768
0.8709711,-0.3573576,0.1182387
0.8753595,-0.3048502,0.08172699
0.9042559,-0.2551683,0.08224716
0.9322973,-0.1574899,0.06967264
0.9508778,-0.1233345,0.03805635
0.9474786,-0.1100805,0.07419099
0.9451353,-0.05775035,0.08098578
0.9741325,-0.02363943,0.06939026
0.9872792,-0.008502027,0.06834894
1.003812,-0.03105453,0.05136141
1.02389,-0.07864715,0.05599622
1.035977,-0.1439295,0.0792051
1.072996,-0.2030574,0.1233431
1.081254,-0.1839405,0.1496675
1.057247,-0.125228,0.134662
1.053694,-0.0546321,0.1370163
1.075743,-0.01474161,0.1424513
1.151473,-0.1072413,0.1159573
1.241727,-0.2478727,0.09322631
1.241367,-0.3248756,0.1146623
1.177291,-0.3637254,0.1470668
1.117061,-0.3931549,0.1505584
0.9778416,-0.4678081,0.1446212
0.8442728,-0.5722916,0.1416795
1.017923,-0.5607092,0.1551906
1.309371,-0.3843588,0.1771704
1.304173,-0.1446847,0.1817785
1.150122,-0.02269959,0.1867569
1.03674,-0.09724895,0.19286
0.9386268,-0.1607067,0.1904423
0.8996034,-0.1233999,0.1913776
0.8008802,-0.1108599,0.1950447
0.6733631,-0.06434219,0.1988057
0.6757279,-0.02279916,0.2022274
0.6876741,-0.0734981,0.2081214
0.7379861,-0.1165189,0.2309718
0.8406081,-0.1889605,0.2642981
0.835977,-0.206208,0.2768565
0.8149126,-0.1107805,0.2996233
0.8408597,-0.08574648,0.3558416
0.8581728,-0.07685076,0.3611809
0.916103,-0.07674754,0.321677
1.023009,-0.1130161,0.292515
1.08625,-0.1043243,0.2496577
1.116298,-0.1071421,0.2548099
1.206661,-0.07139056,0.2948994
1.263561,-0.02878662,0.2907087
1.31039,-0.07160183,0.318787
1.452824,-0.1552008,0.3371424
1.459515,-0.3220258,0.2565749
1.34482,-0.4836462,0.197602
1.245831,-0.5160981,0.2460192
0.9742409,-0.4194409,0.2944823
0.7208422,-0.2489028,0.2291289
0.7161221,-0.1747227,0.127673
0.7862002,-0.1949871,0.04651624
0.8873707,-0.2210309,-0.003996742
0.9368426,-0.2916575,0.0566026
0.9011047,-0.3936485,0.1090606
0.889619,-0.447082,0.09826736
0.8654228,-0.3987825,0.1161887
0.8944913,-0.324389,0.1030643
0.9673656,-0.2550204,0.08443839
0.9764034,-0.137747,0.07882687
0.9749006,-0.06036943,0.06096346
0.9698941,-0.02829756,0.07456014
0.9676485,0.01997292,0.06988473
0.9594151,0.02892341,0.06560463
0.94262,0.009611881,0.07636843
0.9673034,-0.009203636,0.06066465
0.9902747,-0.0425876,0.0653915
1.027403,-0.1029343,0.08375599
1.086166,-0.1989069,0.1133661
1.097976,-0.2594048,0.1374943
1.078211,-0.2362334,0.1207637
1.054932,-0.1609991,0.1253138
1.045747,-0.08251002,0.1520777
1.081569,-0.09187644,0.1664052
1.183496,-0.2109547,0.1654083
1.290094,-0.3413296,0.1493098
1.283134,-0.3955658,0.1259156
1.143959,-0.3812716,0.06251561
0.9644117,-0.4114448,0.01748899
0.9050496,-0.4966632,0.06220492
0.9888237,-0.5093878,0.1028014
1.059491,-0.4305886,0.1249827
1.077433,-0.2603847,0.2070558
1.060394,-0.08408211,0.2628153
1.023722,-0.09428969,0.2156277
1.043495,-0.1857954,0.1843241
1.051279,-0.1958483,0.209904
0.9673035,-0.1563683,0.2047637
0.853685,-0.08547549,0.1984926
0.7504272,-0.05456781,0.2163894
0.7289242,-0.08551921,0.2172423
0.7746875,-0.1147115,0.2278398
0.7932058,-0.1515278,0.2394277
0.8191576,-0.16846,0.237455
0.8217071,-0.1426059,0.2530267
0.8027133,-0.1095064,0.2710028
0.8422601,-0.07908771,0.2842708
0.8878667,-0.08295788,0.284413
0.9324145,-0.1134634,0.2750408
1.013561,-0.1396496,0.2691926
1.182019,-0.1989969,0.210997
1.364724,-0.2287826,0.146016
1.344549,-0.1772983,0.1783595
1.297839,-0.1012021,0.2605703
1.389658,0.02530419,0.3384631
1.379846,0.07590589,0.3609384
1.234213,-0.06907346,0.2453644
1.086521,-0.2326135,0.1425116
1.031103,-0.3549869,0.2136182
0.9868894,-0.4034026,0.2562408
0.8053127,-0.3320064,0.1590986
0.7510698,-0.3002816,0.08878443
0.849348,-0.3102628,0.07958894
0.854361,-0.3047991,0.1051516
0.8924329,-0.33547,0.1461191
0.9216477,-0.3567898,0.1385847
0.8835529,-0.3402958,0.1207107
0.9024007,-0.2900567,0.1079182
0.9187349,-0.2130763,0.07872663
0.9512432,-0.1542598,0.0703114
0.9934619,-0.1369614,0.07014123
1.000591,-0.1410682,0.06650331
1.013452,-0.1214228,0.06686337
1.009967,-0.08561181,0.06350313
1.041401,-0.0542796,0.05945083
1.080037,-0.05047149,0.05212689
1.049627,-0.085191,0.06526267
1.032056,-0.113344,0.08331506
1.044212,-0.1657023,0.07490153
1.043088,-0.2469598,0.08767266
1.028198,-0.2565747,0.1341304
1.002646,-0.1522753,0.1643538
0.9874594,-0.0267102,0.1448382
1.044265,-0.04149796,0.1202318
1.171948,-0.1872142,0.1415832
1.258437,-0.3607383,0.1602384
1.258215,-0.4872032,0.1607798
1.157438,-0.4761673,0.1401372
0.9671039,-0.439615,0.08338476
0.8219747,-0.4622945,0.07636232
0.8076506,-0.4434606,0.1232743
0.9036508,-0.3969387,0.1568162
1.019631,-0.2949075,0.1955461
1.049444,-0.1496584,0.2370164
1.009933,-0.1250331,0.2578534
0.9921888,-0.1918355,0.2519398
1.018672,-0.2236303,0.2384042
1.016978,-0.1802436,0.2298745
0.9501609,-0.09793266,0.2031641
0.8580117,-0.03956128,0.1960089
0.7919628,-0.01865876,0.216249
0.7736509,-0.0608873,0.2358119
0.7565232,-0.1227456,0.2649624
0.7569884,-0.1484613,0.2677702
0.801657,-0.1598002,0.2759396
0.8275136,-0.1543472,0.3224183
0.852653,-0.150793,0.3251912
0.896259,-0.1410912,0.3031833
0.9505052,-0.1462973,0.2957051
1.040861,-0.1895458,0.2514228
1.130764,-0.1813218,0.2074292
1.215125,-0.1299917,0.222418
1.259007,-0.05909403,0.2610923
1.180686,0.02359907,0.2956492
1.110497,0.04207338,0.3221598
1.229075,-0.06050195,0.3043244
1.444285,-0.3340554,0.2306861
1.499097,-0.5631969,0.1797998
1.219213,-0.5203263,0.2038372
0.8028354,-0.4032144,0.2403537
0.7118413,-0.3473325,0.2423225
0.8485561,-0.2490828,0.1849315
0.8568399,-0.1377752,0.07864481
0.8955627,-0.1597987,0.05356626
0.9628421,-0.2677586,0.1037262
0.9440877,-0.3185147,0.1153752
0.9582284,-0.338486,0.1276241
0.9046321,-0.3281595,0.1367275
0.8431698,-0.29695,0.1249072
0.8866481,-0.2988219,0.1364436
0.9092354,-0.2734817,0.1302399
0.9504319,-0.2282474,0.114825
0.9851882,-0.163219,0.1056052
0.9751316,-0.07978434,0.08605015
0.985781,-0.05514135,0.09214684
0.9792208,-0.02050572,0.09578843
0.9856288,0.02449858,0.09508412
1.008605,0.02093498,0.1091702
1.010891,0.0267749,0.104266
1.004327,0.005552572,0.1089476
0.985893,-0.04483348,0.132208
1.003397,-0.06488805,0.1447662
1.043796,-0.08984859,0.1421823
1.075167,-0.1316819,0.1376567
1.109622,-0.1739499,0.1606666
1.125766,-0.1949317,0.1845675
1.135862,-0.1752127,0.1819904
1.135453,-0.1418577,0.1641573
1.142704,-0.1103558,0.1396121
1.167442,-0.09231639,0.1361031
1.144715,-0.1354674,0.1377972
1.094795,-0.2366432,0.1099576
1.020713,-0.3416297,0.07675245
0.9506425,-0.4297146,0.07439729
1.01308,-0.457643,0.1011345
1.159813,-0.4028643,0.1280296
1.280977,-0.2920974,0.1624822
1.306123,-0.146065,0.1999782
1.154522,-0.09180152,0.2057558
0.9622225,-0.1453115,0.2071985
0.8803355,-0.1300229,0.2123468
0.843302,-0.07718449,0.1935037
0.7909696,-0.04306646,0.1783736
0.7206579,0.0219373,0.1781641
0.6780713,0.02793164,0.1812118
0.6938933,-0.02323065,0.2022886
0.7181387,-0.07556758,0.2350979
0.7363357,-0.1508447,0.2675734
0.7286379,-0.1659252,0.3047601
0.7241395,-0.1438421,0.3359877
0.8158786,-0.1728795,0.3463084
0.9503187,-0.2030199,0.339582
1.08246,-0.2353188,0.3088805
1.27456,-0.2573509,0.2309175
1.405404,-0.2146004,0.1766496
1.316792,-0.1276163,0.2508562
1.191979,-0.02693083,0.3685881
1.18539,0.02032127,0.3893887
1.193915,-0.03095369,0.3187741
1.224976,-0.1748303,0.2296271
1.246208,-0.413836,0.1833501
1.193604,-0.5686039,0.1619332
1.078639,-0.4980262,0.1417285
0.8448277,-0.4005153,0.1502513
0.7037991,-0.3390907,0.1445078
0.7505081,-0.2620996,0.1304746
0.7702743,-0.2838583,0.1448402
0.8382902,-0.3394568,0.1296054
0.9341883,-0.3743774,0.09340251
0.9334523,-0.3907272,0.06504444
0.9233698,-0.2932451,0.05884831
0.9187041,-0.2198717,0.07460134
0.9406203,-0.2004227,0.05831155
0.9640851,-0.1146195,0.05779059
0.9469891,-0.05773091,0.07564177
0.9521105,-0.03613088,0.06919424
0.9679486,0.01988842,0.08462258
0.9863737,0.07495767,0.08527675
1.001582,0.07378881,0.06828272
1.005664,0.0291255,0.06835103
1.028907,-0.03536158,0.07620809
1.064306,-0.1449792,0.1144215
1.102288,-0.2278704,0.1521827
1.097607,-0.2329091,0.1758789
1.054302,-0.1740812,0.1675258
1.019484,-0.06815623,0.1346953
1.002784,-0.008596652,0.15019
1.095,-0.04279538,0.1480837
1.258433,-0.1416769,0.1251961
1.301049,-0.2542295,0.1357734
1.209906,-0.3554901,0.1233292
1.068231,-0.4376604,0.1087523
0.9220846,-0.5128804,0.1041613
0.8770719,-0.6012562,0.1269109
1.027238,-0.608772,0.1810452
1.23267,-0.4907258,0.1821575
1.29226,-0.2889702,0.2030315
1.229743,-0.1392378,0.2513791
1.062947,-0.1467689,0.2182289
0.8770706,-0.1175121,0.1950588
0.8792997,-0.07271934,0.2164356
0.8741559,-0.1156182,0.2062206
0.7162455,-0.05949006,0.1920059
0.6808908,-0.01676968,0.1937792
0.7052912,-0.08025697,0.2080502
0.6913299,-0.1149994,0.2346359
0.7650185,-0.1807425,0.2497111
0.7709661,-0.2026351,0.2770609
0.7506846,-0.1290631,0.323574
0.8385983,-0.09792948,0.3324005
0.933588,-0.09692024,0.3196233
1.064888,-0.1377239,0.3122295
1.143484,-0.2101031,0.2700146
1.164558,-0.2179899,0.2308948
1.220266,-0.1656055,0.2623859
1.176562,-0.1127359,0.3193067
1.155903,-0.1307201,0.3363625
1.266116,-0.1707633,0.3010075
1.33674,-0.2264738,0.1902589
1.29218,-0.3487498,0.0928685
1.14763,-0.4084974,0.18303
0.9943359,-0.4393329,0.3050363
0.9095097,-0.4549484,0.247584
0.8660703,-0.3226385,0.1713716
0.7902285,-0.2180521,0.1104708
0.7739747,-0.214829,0.03038991
0.8676681,-0.2261944,0.08040449
0.8721284,-0.2947637,0.1306359
0.8732661,-0.3633713,0.09993012
0.90263,-0.3972357,0.11125
0.8550904,-0.3549101,0.09116114
0.9033651,-0.253344,0.08063557
0.9490438,-0.1851643,0.09619691
0.9418266,-0.08742077,0.06020235
0.9727895,-0.03555133,0.07551047
0.9472647,-0.03464201,0.08813513
0.9604392,0.009296528,0.06526798
0.9761868,0.006171591,0.07817666
0.9712593,0.007603401,0.06684978
1.025827,0.002283116,0.06590335
1.026074,-0.06216873,0.08014573
1.042415,-0.1178766,0.0929932
1.081333,-0.2088472,0.147844
1.07756,-0.242984,0.1660106
1.076181,-0.1462169,0.1328802
1.050903,-0.04976438,0.1166371
1.088078,-0.04124779,0.1257361
1.201809,-0.1286873,0.1352886
1.290092,-0.2336122,0.1308217
1.269358,-0.3283547,0.1347581
1.1479,-0.4163344,0.1345357
1.030686,-0.46112,0.1325986
0.9058561,-0.5103446,0.1458909
0.9435967,-0.5818222,0.1530027
1.151918,-0.582062,0.1646596
1.241699,-0.4100499,0.1859298
1.269675,-0.1525649,0.2199977
1.213781,-0.05977204,0.2442282
1.046259,-0.1341283,0.222688
0.9199486,-0.1532892,0.2100261
0.8620792,-0.1210561,0.2131392
0.8750836,-0.1138143,0.1970003
0.7713446,-0.05562117,0.1903423
0.6700711,-0.03592871,0.1945927
0.7175395,-0.1018242,0.2070896
0.6833898,-0.1324114,0.2311659
0.7160934,-0.1699085,0.2515959
0.751919,-0.1705326,0.2720915
0.7104825,-0.0963016,0.2932591
0.8075109,-0.05891954,0.3092038
0.9068441,-0.05787042,0.3157839
1.056373,-0.115548,0.303586
1.210068,-0.1937202,0.2461262
1.237534,-0.2201036,0.1727096
1.262629,-0.2024251,0.181583
1.212777,-0.09934204,0.2660325
1.199586,-0.01325033,0.3460852
1.279205,-0.04956682,0.358148
1.309462,-0.1387424,0.2693443
1.282617,-0.2613621,0.1668916
1.208093,-0.4266374,0.1375689
1.154885,-0.5117636,0.1652394
0.9626245,-0.4361807,0.1898123
0.6768015,-0.3431061,0.1762854
0.6419336,-0.2718647,0.1583353
0.7571914,-0.2359837,0.1290546
0.8695687,-0.3291618,0.09897584
0.9291636,-0.4037957,0.1061608
0.8997223,-0.4069766,0.09897067
0.885988,-0.3894551,0.08509971
0.8916661,-0.3143088,0.08220009
0.9108299,-0.2506804,0.06469659
0.9495822,-0.1887205,0.05504831
0.9718819,-0.134972,0.04976536
0.9796158,-0.09856773,0.06815552
0.9736398,-0.01915912,0.09897534
0.9737328,0.002063355,0.09288293
0.9899736,-0.0101422,0.08051383
1.015575,0.01758696,0.0713044
1.026206,0.005460831,0.07200202
1.027536,-0.04690758,0.09121408
1.054889,-0.1488052,0.1146193
1.118021,-0.458566,0.1856002
1.193626,-0.2548723,0.2256811
1.210854,-0.09684261,0.2441707
1.064151,-0.06027982,0.2192274
0.9852555,-0.1119278,0.1873608
0.92122,-0.09433879,0.2085459
0.7920934,-0.03899145,0.2115083
0.7143104,-0.009280745,0.191126
0.6468902,0.01197157,0.1977115
0.6621947,-0.04795187,0.2149993
0.7361114,-0.1443108,0.2543875
0.8052313,-0.21411,0.2863212
0.8497535,-0.2381193,0.2963029
0.7989453,-0.1570042,0.3227838
0.8062992,-0.0699589,0.3293077
0.8671488,-0.04606942,0.3168636
0.9086989,-0.06580076,0.3132417
1.032936,-0.136823,0.2730089
1.177613,-0.2002157,0.2251301
1.244958,-0.2089033,0.2443093
1.246524,-0.1512324,0.2843319
1.296626,-0.08674506,0.2989622
1.324016,-0.02035697,0.3305558
1.260491,0.05420345,0.3493743
1.283383,-0.09199062,0.2921685
1.238352,-0.3832008,0.217896
1.100926,-0.4701298,0.1946271
1.015818,-0.4139881,0.1757087
0.838386,-0.3431169,0.1362779
0.7604689,-0.2322535,0.1240731
0.8416042,-0.1738513,0.1213304
0.8444077,-0.1996902,0.1178481
0.8780083,-0.2548991,0.1240087
0.9376305,-0.3318771,0.1102017
0.9131486,-0.3508465,0.1076372
0.8900146,-0.2905104,0.1115723
0.8977003,-0.2519878,0.1027518
0.8976636,-0.2072707,0.1078203
0.9106557,-0.1489044,0.1091904
0.9476706,-0.13935,0.1174622
0.9600198,-0.102625,0.1158682
0.9676655,-0.02411644,0.09429018
0.9763048,0.02607341,0.08471326
0.9717699,0.04287223,0.06602074
0.9925068,0.02335305,0.05885522
1.026631,-0.0431493,0.06881092
1.081792,-0.1458155,0.08519802
1.111528,-0.1893195,0.1107866
1.070034,-0.1328252,0.1083835
1.04251,-0.05910748,0.1078726
1.034055,0.006017741,0.1169896
1.061098,-0.01789122,0.1115357
1.194016,-0.1543914,0.1179086
1.316381,-0.2387172,0.1188761
1.274409,-0.2729444,0.1069171
1.170031,-0.3388412,0.08452948
1.129767,-0.3884355,0.05210795
1.026673,-0.435832,0.05262782
0.8842239,-0.5200696,0.06707727
0.88847,-0.5432477,0.08319274
0.963959,-0.4573965,0.144
1.047353,-0.3496941,0.1988114
1.153294,-0.1955258,0.213751
1.159875,-0.1081209,0.2171539
1.083528,-0.226303,0.1844538
1.038876,-0.2702148,0.1602503
0.9597164,-0.1980919,0.1892269
0.8231569,-0.164314,0.2060671
0.7165094,-0.08670341,0.2004862
0.6500762,-0.04741579,0.2097227
0.6594544,-0.0672483,0.2330108
0.7318184,-0.08461339,0.2476641
0.7878115,-0.1219362,0.255466
0.8316834,-0.10119,0.2679154
0.8622398,-0.05116031,0.2813764
0.8913932,-0.02131875,0.3185038
0.902417,-0.003818997,0.345152
0.9117482,-0.02620113,0.3280087
0.9859894,-0.08271984,0.2902767
1.082922,-0.1801799,0.2189278
1.224542,-0.2130957,0.1891741
1.329405,-0.1170428,0.2632538
1.286431,-0.06206472,0.3636645
1.285821,-0.09461834,0.4176352
1.326644,-0.1223329,0.3614621
1.230002,-0.1968145,0.2614723
1.107238,-0.3600892,0.2281962
1.069585,-0.4423849,0.2006856
0.9758425,-0.3593419,0.172037
0.7906474,-0.2856569,0.1431468
0.7372135,-0.266333,0.07738915
0.8558184,-0.2448517,0.06967051
0.9508892,-0.2757875,0.09648545
0.9658642,-0.3236571,0.1000648
0.9375613,-0.3559004,0.1315863
0.8771066,-0.3670147,0.1297202
0.8432842,-0.3217389,0.09976537
0.8685004,-0.292137,0.08858036
0.893753,-0.2640443,0.05547714
0.8846657,-0.2065768,0.04883568
0.8853142,-0.1719404,0.07013477
0.9220352,-0.1238027,0.07119587
0.9657181,-0.07799852,0.0687061
0.9984175,-0.06628228,0.06293218
1.017047,-0.08992458,0.0671036
1.030778,-0.1340974,0.07640466
1.04207,-0.1366175,0.08795305
1.045313,-0.1634617,0.1219627
1.083274,-0.2159585,0.1368833
1.128995,-0.2101566,0.1121674
1.130055,-0.1732344,0.07953934
1.117649,-0.08818758,0.07287477
1.100098,-0.01863275,0.1117321
1.123532,-0.07415301,0.1525358
1.21294,-0.1983777,0.1584439
1.283416,-0.3057705,0.1657766
1.263804,-0.3477828,0.1693298
1.16887,-0.3753544,0.1241952
1.036704,-0.4298671,0.07773621
0.846499,-0.4558198,0.0746445
0.7542062,-0.4951587,0.0956188
0.8625387,-0.5247513,0.1424201
0.9736285,-0.4722547,0.194006
1.070792,-0.3610137,0.2168146
1.101815,-0.1876354,0.2070399
1.004145,-0.1353433,0.195103
0.9760523,-0.2253077,0.2021119
0.9337245,-0.1889817,0.1988876
0.8268359,-0.1292378,0.2066327
0.7869356,-0.09655373,0.2278066
0.7402972,-0.03179196,0.2322568
0.7224517,-0.07232296,0.2537594
0.7486211,-0.1046979,0.2839028
0.7623222,-0.1096587,0.3010407
0.7914835,-0.1282643,0.3136051
0.7963089,-0.05145075,0.3346577
0.8274513,-0.003905473,0.3639974
0.9191335,-0.01732559,0.3595668
1.015024,-0.06529743,0.3303253
1.128755,-0.1654797,0.2835813
1.23589,-0.1813504,0.2436244
1.286436,-0.08893035,0.293732
1.28782,0.04431228,0.3776416
1.299212,0.07165013,0.3839844
1.302247,-0.1220143,0.2953996
1.246619,-0.3958633,0.2040427
1.167403,-0.5439167,0.2298383
1.014514,-0.4950278,0.261115
0.8192363,-0.402166,0.2075299
0.717639,-0.3069598,0.1707224
0.6934293,-0.1876845,0.112152
0.7813445,-0.2116464,0.05820599
0.9456626,-0.26161,0.07924558
0.9837062,-0.254236,0.07541971
0.9448719,-0.3292352,0.08917308
0.925121,-0.3371372,0.1147506
0.8792746,-0.2856336,0.09436653
0.8844722,-0.2804561,0.1055017
0.9197251,-0.2110012,0.0900455
0.903891,-0.188998,0.07312637
0.9179663,-0.2218467,0.09861618
0.932516,-0.1630165,0.09798541
0.9197053,-0.1230209,0.1196305
0.9542993,-0.1033495,0.1088087
1.019225,-0.03621356,0.04397702
1.080701,-0.01179207,0.01361632
1.097699,-0.04704762,0.02111836
1.11185,-0.09887419,0.06352724
1.150474,-0.1571523,0.09114004
1.111219,-0.1829855,0.1196977
1.056061,-0.0926736,0.1439878
1.025403,0.0543498,0.1302026
1.010174,0.09030617,0.1488501
1.114967,0.006494779,0.1338383
1.231146,-0.1194945,0.1084277
1.239847,-0.2248673,0.1497616
1.189,-0.3012001,0.1524944
1.08227,-0.3743168,0.1293898
0.9500777,-0.443958,0.1047479
0.8801264,-0.5248276,0.08981249
0.9514717,-0.5491783,0.1179189
1.093733,-0.4680175,0.1310637
1.206683,-0.3147681,0.1591822
1.228297,-0.1249875,0.1952061
1.077069,-0.06648753,0.1933321
0.9226402,-0.1727107,0.198287
0.8692457,-0.2338548,0.2079989
0.8211684,-0.2153462,0.2150385
0.7932868,-0.1998614,0.2183422
0.7656384,-0.1863649,0.2179892
0.7729259,-0.191039,0.2264334
0.7988707,-0.2135079,0.238939
0.7801028,-0.2124592,0.2564589
0.7902119,-0.1836477,0.2637623
0.7826839,-0.117162,0.27403
0.7856698,-0.02320365,0.2961268
0.8510606,0.02481004,0.3043381
0.9098058,-0.01105733,0.3074977
0.9965311,-0.08802249,0.298915
1.100484,-0.1570554,0.2541736
1.217291,-0.2143819,0.1934804
1.291169,-0.2047052,0.1807299
1.252547,-0.08340516,0.2457902
1.235777,0.05255634,0.3576645
1.235519,0.0804275,0.4207833
1.224245,-0.06092152,0.2913978
1.29357,-0.3021121,0.1243773
1.318173,-0.5036434,0.164779
1.174848,-0.5381674,0.1919447
0.9272323,-0.3772471,0.1246052
0.6905359,-0.2366699,0.1379142
0.6584183,-0.2166739,0.1064592
0.8188439,-0.243353,0.07854359
0.9075775,-0.3387364,0.1359279
0.9134654,-0.4588916,0.1218794
0.9086502,-0.5061038,0.1194904
0.8856533,-0.4307887,0.132644
0.9176174,-0.3452053,0.1003259
0.9490958,-0.3093327,0.08543875
0.9648519,-0.1889766,0.02839187
0.9741263,-0.1175563,0.008131051
0.9404467,-0.154748,0.05031379
0.9561553,-0.1113007,0.05132371
0.9703519,-0.05202879,0.06263751
0.9841027,-0.0570601,0.07083164
1.054913,-0.06930379,0.07198866
1.075771,-0.06907269,0.08376144
1.085386,-0.08091826,0.0727608
1.090637,-0.1166932,0.07752567
1.057526,-0.1537676,0.1041217
1.024241,-0.1842861,0.1616556
0.9811045,-0.1641303,0.2122433
0.9994096,-0.1214108,0.1708331
1.052325,-0.1294655,0.1116057
1.089439,-0.1833746,0.09925139
1.13337,-0.2905771,0.09019061
1.092548,-0.3748932,0.0723416
1.010924,-0.3915118,0.06492241
0.9880534,-0.4294462,0.0899409
1.010146,-0.4811674,0.1223286
1.068731,-0.4722259,0.1276488
1.135049,-0.3492925,0.1657328
1.21988,-0.1955089,0.226132
1.226199,-0.1871035,0.2120616
1.094635,-0.236767,0.191801
1.020236,-0.214987,0.219795
1.004864,-0.2163566,0.2136263
0.933955,-0.2131462,0.1948687
0.8137002,-0.1485911,0.1925924
0.7284764,-0.1314869,0.1901318
0.7811672,-0.1498172,0.226503
0.806405,-0.158126,0.2664436
0.7884521,-0.194426,0.2679708
0.847152,-0.2231251,0.2719084
0.8276193,-0.2100194,0.2917332
0.8193675,-0.1541741,0.3101945
0.7506058,-0.005403595,0.1359858
0.7678358,-0.02935767,0.1458262
0.8212699,-0.09103837,0.1691064
0.8458121,-0.1245681,0.1945076
0.833687,-0.06820061,0.2323989
0.8637436,-0.04251114,0.2467925
0.9401872,-0.07249021,0.23113
1.012109,-0.1306214,0.2049096
1.102926,-0.2092698,0.1589201
1.244981,-0.2358478,0.1211183
1.356106,-0.1829667,0.1110099
1.36438,-0.0768728,0.1496433
1.409678,0.01792444,0.2312701
1.487571,0.0004016699,0.2465438
1.387352,-0.1923514,0.1406332
1.251532,-0.4739786,0.04145704
1.216883,-0.6129961,0.07500727
1.053069,-0.5040851,0.1319877
0.7793807,-0.3344145,0.1172347
0.6606259,-0.2389663,0.1083547
0.7028791,-0.1788071,0.0740577
0.7854629,-0.2284465,0.01738499
0.8946467,-0.320428,0.004965167
0.9577478,-0.3600491,-0.01669429
0.9057119,-0.4110617,-0.01713089
0.8839212,-0.3472522,0.0008630071
0.9190888,-0.2428897,-0.01291483
0.9065767,-0.1805615,-0.01185646
0.9185292,-0.06794163,-0.02174466
0.946928,-0.05234383,-0.02674847
0.9461826,-0.04405,-0.01447824
0.9797543,0.01172792,-0.03108318
1.01702,-0.002159366,-0.03125733
1.034234,-0.02561398,-0.02414127
1.04759,-0.1307799,-0.01051854
1.062363,-0.2117661,0.02403454
1.080238,-0.1945931,0.02856283
1.070881,-0.1979589,0.02612452
1.053494,-0.1305191,0.02380456
1.030503,-0.03219791,0.01204459
1.038313,-0.006796251,0.01663995
1.174199,-0.1233192,0.02097673
1.344956,-0.3194516,0.02669338
1.350241,-0.3650919,0.03866529
1.163884,-0.3837325,0.0361745
0.9409546,-0.4739993,0.02971369
0.8409636,-0.4858195,0.03535609
0.9241652,-0.4675116,0.04510013
1.09857,-0.4933896,0.05358448
1.2104,-0.4722492,0.05939513
1.225934,-0.3222812,0.07595681
1.177018,-0.1298788,0.1168109
1.064198,-0.0462727,0.1398475
0.8821045,-0.08650056,0.1442
0.8193056,-0.1046778,0.1548602
0.8954581,-0.07051448,0.1301316
0.8080949,-0.06899505,0.103006
0.7375336,-0.02565607,0.1177024
0.78279,-0.006513421,0.1408877
0.7291264,-0.08095934,0.1794133
0.7558121,-0.120158,0.2156846
0.7971462,-0.1374085,0.2182981
0.7985563,-0.09856934,0.2222562
0.8857248,-0.03564294,0.2409124
0.9307363,-0.06331106,0.2452497
1.023329,-0.1173926,0.2131069
1.149256,-0.2013803,0.1463881
1.255903,-0.2323197,0.07499108
1.36593,-0.1265865,0.06362867
1.341978,-0.0009794364,0.1401817
1.356303,0.0488916,0.1905596
1.405472,-0.1057896,0.1165868
1.339112,-0.4053484,0.04491301
1.286502,-0.6009239,0.08022338
1.152425,-0.6120505,0.1074029
0.9144666,-0.4624293,0.1231502
0.7289056,-0.2824054,0.1803148
0.657311,-0.2133221,0.143121
0.7498034,-0.2274279,0.04978298
0.8589471,-0.2562851,0.02594902
0.8847791,-0.2972588,0.01246486
0.9061537,-0.3463283,0.01265332
0.8981741,-0.3198946,0.01126945
0.8930972,-0.2320661,-0.01146281
0.9250636,-0.1789268,-0.003891509
0.9308549,-0.1345717,-0.01461825
0.9354039,-0.1099261,-0.02398577
0.9368832,-0.1158514,-0.004766245
0.9264564,-0.09002526,-0.004601978
0.9421237,-0.04640527,-0.004378195
0.9546424,-0.02349186,-0.01230214
0.9730217,-0.04545782,-0.01460066
1.018385,-0.1001039,0.003386592
1.091427,-0.186252,0.0313081
1.153654,-0.2506308,0.07381756
1.114859,-0.1578857,0.07329071
1.064955,-0.009157931,0.06735288
1.088458,0.03000462,0.0874878
1.13439,-0.03650702,0.05617906
1.201376,-0.1403142,0.02628901
1.223167,-0.2427043,0.05212429
1.217882,-0.4537038,0.09451396
1.215896,-0.601137,0.1232773
1.078456,-0.5037718,0.09359195
0.9504751,-0.5087824,0.04981993
1.030119,-0.5801125,0.06698335
1.188348,-0.4708608,0.06863148
1.307666,-0.3302176,0.04226673
1.277246,-0.1413778,0.07869747
1.050302,-0.03282911,0.1222984
0.8277802,-0.1130263,0.1352862
0.7753484,-0.108964,0.1497964
0.8079367,-0.08656234,0.1369971
0.7632868,-0.09228518,0.1258523
0.6980297,-0.01472069,0.1299039
0.7046903,-0.01544852,0.1345475
0.7162849,-0.07997746,0.1620482
0.7409293,-0.1307589,0.1788647
0.7700141,-0.1656807,0.1834293
0.780543,-0.1183419,0.2052234
0.8461251,-0.09117376,0.2304038
0.9451924,-0.1206998,0.2449751
1.045654,-0.1410415,0.2362216
1.154237,-0.1865517,0.1796389
1.312375,-0.1937925,0.07565875
1.465721,-0.08128664,0.04958758
1.419866,0.02082078,0.1546652
1.378418,-0.05748402,0.2049113
1.45096,-0.2302113,0.1138101
1.313108,-0.3819611,0.0388999
1.100104,-0.5016969,0.09303888
0.9814169,-0.4508944,0.1513028
0.8425627,-0.2946548,0.1276567
0.7952038,-0.2053015,0.09947844
0.8176024,-0.156875,0.04336335
0.8214322,-0.222272,0.008400403
0.8309573,-0.317669,0.05350029
0.8193117,-0.3478254,0.05473551
0.8230802,-0.4001535,0.03344867
0.8381694,-0.3629814,0.01850295
0.867589,-0.2882738,-0.02792841
0.9110923,-0.2121482,-0.04535807
0.9323335,-0.07119636,-0.04981141
0.9804839,-0.02555113,-0.04679561
1.006012,0.02873143,-0.02376859
0.981309,0.1034949,-0.01380425
0.9829166,0.05249558,-0.003959041
1.005838,-0.01311499,-0.001940606
1.040513,-0.1188453,-0.0003738228
1.084072,-0.2237925,0.02252381
1.10151,-0.2395994,0.07078457
1.059807,-0.1981343,0.1178772
1.017814,-0.07459839,0.1082982
1.061292,-0.00990818,0.09093728
1.139557,-0.05573677,0.07436978
1.207485,-0.1417855,0.01337234
1.24315,-0.3114853,0.004089073
1.176406,-0.4559835,0.06601979
1.006374,-0.4671776,0.1077257
0.8694889,-0.4430065,0.1090036
1.006941,-0.4737178,0.06495248
1.349672,-0.4908773,0.01284632
1.508775,-0.3954885,0.007575202
1.416596,-0.2149301,0.03371191
1.159154,-0.05382553,0.07986791
0.8214982,-0.02135031,0.1420746
0.6899933,-0.05738023,0.1752118
0.7309395,-0.05051392,0.1469181
0.7041276,-0.05731886,0.1149494
0.6873782,-0.06181444,0.1251219
0.7174366,-0.04650321,0.1315002
0.7147807,-0.0862695,0.1447435
0.7407953,-0.1260396,0.179885
0.78455,-0.1235522,0.1999072
0.7898699,-0.1044711,0.2187715
0.8517836,-0.04566871,0.2399459
0.9397088,0.0139392,0.2580669
0.9780316,-0.01693842,0.2504028
1.082498,-0.1155237,0.2012941
1.227207,-0.1818072,0.1642664
1.289489,-0.178312,0.1462127
1.303386,-0.08516922,0.1866801
1.312682,0.02855242,0.3033511
1.354771,0.004836588,0.3270009
1.422874,-0.1757889,0.1446177
1.400237,-0.4479626,-0.08361521
1.292056,-0.6252637,-0.08037436
1.101802,-0.5539226,0.0808623
0.7919606,-0.4078522,0.1472327
0.6362545,-0.2802265,0.1585361
0.7001031,-0.1853165,0.1221077
0.7426967,-0.219917,0.05624908
0.8302092,-0.2595012,0.04463638
0.9262416,-0.2798773,0.002820455
0.9120928,-0.3280666,-0.01832964
0.9088829,-0.2868423,-0.0002039247
0.909528,-0.2329173,-0.01152837
0.9030232,-0.1840494,-0.002947127
0.9250086,-0.0830619,-0.00459545
0.9344811,-0.03574149,-0.004193486
0.9431769,-0.001247721,0.0006929057
0.9466991,0.05556198,-0.01910193
0.9528928,0.07714439,-0.02299091
0.9807115,0.02347082,-0.0340305
1.029479,-0.1099053,-0.01956571
1.096147,-0.2133219,0.02723975
1.120567,-0.2745289,0.07362262
1.100825,-0.2594906,0.1093424
1.071052,-0.1150813,0.07411412
1.049426,0.03875226,0.04834451
1.103045,0.08116794,0.0662424
1.225967,-0.08221535,0.03883601
1.310212,-0.3274224,0.01536202
1.266543,-0.477293,0.03787638
1.086199,-0.5342596,0.07805103
0.8620988,-0.5023506,0.10705
0.8135669,-0.5212101,0.09425126
1.051691,-0.5659438,0.0555974
1.302943,-0.4656999,0.03647921
1.319494,-0.2853133,0.05195313
1.169602,-0.09072294,0.07509875
0.9520372,-0.02067482,0.09920056
0.7908695,-0.07533077,0.1206142
0.7853319,-0.08468832,0.1249833
0.8179295,-0.1165423,0.1233124
0.7878834,-0.1215835,0.1207241
0.7629492,-0.07812176,0.1293746
0.7489095,-0.1189566,0.1428315
0.740263,-0.1577084,0.1503801
0.8022751,-0.1970973,0.1858693
0.844966,-0.2263133,0.2299285
0.8268882,-0.1477037,0.2415208
0.8645153,-0.09798888,0.2442552
0.9726643,-0.1161703,0.2324476
1.136421,-0.1470239,0.1579885
1.31141,-0.1777913,0.05245441
1.389389,-0.1169288,0.02906741
1.326667,-0.001656173,0.1195948
1.253823,0.03552523,0.1929138
1.272427,-0.07464437,0.1659579
1.251517,-0.2686946,0.1268658
1.223545,-0.5203092,0.06309866
1.229727,-0.8191922,-0.04510564
1.102922,-0.7574271,-0.01037776
0.8254569,-0.3550805,0.119957
0.5247815,-0.1917386,0.1615176
0.5250119,-0.2113257,0.1660514
0.7570825,-0.2432069,0.1195599
0.8480807,-0.305557,0.03775822
0.9852699,-0.3202295,0.007253278
1.009582,-0.3827628,-0.008482947
0.8616692,-0.3846861,-0.01137213
0.9550707,-0.3000428,-0.03704348
0.925279,-0.1964069,-0.05739292
0.8165228,-0.03426995,-0.03566306
0.9016979,-0.007883874,-0.04142189
0.8865021,0.003260938,-0.02189078
0.9748337,0.06557584,-0.01770939
1.053917,0.05015106,-0.03726515
0.9912077,0.03959537,-0.005526776
1.053161,-0.07372851,-0.00600838
1.065496,-0.2117316,0.006809659
1.103382,-0.2703593,0.04864263
1.144652,-0.2525636,0.06167198
1.06463,-0.09962076,0.07027472
1.067166,0.01408283,0.05677911
1.093466,0.04096303,0.06510795
1.202292,-0.110588,0.06956172
1.360083,-0.3961949,0.05863657
1.323829,-0.5323293,0.08883659
1.130195,-0.5701455,0.09489742
0.9389506,-0.5264237,0.08716809
0.980035,-0.492794,0.07077225
1.173315,-0.5096521,0.03311861
1.273273,-0.3677198,0.0341027
1.253036,-0.158915,0.06245635
1.088317,-0.02866242,0.1012284
0.8854931,-0.04800763,0.1198283
0.7735108,-0.1123853,0.1225996
0.7559935,-0.08193536,0.1248889
0.7543354,-0.09121307,0.1040788
0.6975319,-0.08878908,0.1198453
0.6967637,-0.08949281,0.143456
0.7347439,-0.1703332,0.147599
0.7518562,-0.2092807,0.1953337
0.8007598,-0.2306073,0.2349845
0.8086554,-0.1744425,0.2529606
0.8305963,-0.07478228,0.2639074
0.9282371,-0.09158357,0.2319682
1.045876,-0.136921,0.1739352
1.234672,-0.1908454,0.09599836
1.386737,-0.2266793,0.04099777
1.400745,-0.1778495,0.08261811
1.390992,-0.08265305,0.2172052
1.406791,-0.01025112,0.3074061
1.443156,-0.1705509,0.157628
1.422681,-0.4853658,-0.04513254
1.238149,-0.5765777,0.02165281
0.965477,-0.493591,0.1498704
0.8158081,-0.4584681,0.1642795
0.7915921,-0.3652787,0.1781429
0.6936758,-0.1750523,0.1384099
0.6969553,-0.1314656,0.09738373
0.9099198,-0.2239826,0.06806502
0.9774807,-0.2358865,0.005752846
0.9142546,-0.2694003,0.0513753
0.8661604,-0.3345323,0.07468605
0.8098108,-0.2737052,0.03035308
0.844396,-0.1975418,0.03260585
0.8790479,-0.1280113,-0.01766164
0.8938691,-0.05553722,-0.04033806
0.9379946,-0.08310924,-0.02504803
0.9470941,-0.1202199,-0.04038982
0.9928022,-0.1321266,-0.02008002
1.01598,-0.1429577,-0.02730642
1.016307,-0.1449026,-0.03970365
1.076833,-0.2019639,-0.02602407
1.115091,-0.2369983,-0.01099129
1.13424,-0.204478,0.03441083
1.10571,-0.1462037,0.04293821
1.033414,0.002207507,0.0300934
1.020171,0.1165985,0.04103341
1.122168,-0.03123769,0.04504722
1.333416,-0.3301887,0.0637099
1.409244,-0.5118052,0.09109734
1.189206,-0.5199348,0.1120106
0.8891089,-0.4955555,0.1172975
0.8022876,-0.5417792,0.09711275
0.993317,-0.5613879,0.08289108
1.214163,-0.4984139,0.0835561
1.259381,-0.3744085,0.09301138
1.148087,-0.1489153,0.1073364
0.9499885,-0.02307249,0.1238265
0.7812511,-0.06716317,0.1492547
0.7528977,-0.04926197,0.1597292
0.8083713,-0.03560109,0.1451321
0.8102792,-0.04900217,0.1318328
0.7957735,-0.02051991,0.1270085
0.8064978,-0.04703674,0.148729
0.7804401,-0.0800237,0.1989936
0.7803022,-0.1055012,0.2250275
0.8046432,-0.116084,0.2310191
0.8274735,-0.07245529,0.247517
0.9306425,-0.06761366,0.2469774
1.036748,-0.104532,0.2266752
1.096378,-0.1722587,0.1984629
1.173291,-0.2356984,0.1640089
1.266632,-0.2121354,0.1414499
1.347039,-0.1124914,0.1391716
1.354064,0.04171786,0.1871077
1.348019,0.07218646,0.2313639
1.373096,-0.1788454,0.1305879
1.336494,-0.4751642,0.006655739
1.253405,-0.5716089,0.05715862
1.082477,-0.5531275,0.1366837
0.8422786,-0.4591834,0.1382219
0.7182325,-0.2490531,0.1475785
0.6951726,-0.1609699,0.1234034
0.7595235,-0.2324564,0.06592428
0.8804765,-0.2636892,0.05065212
0.9063757,-0.3515137,0.04060047
0.9072697,-0.4112831,0.0185056
0.9104656,-0.3388435,0.006291663
0.8801171,-0.3128829,0.00185018
0.891271,-0.2231516,-0.003270529
0.8833044,-0.06817102,-0.01329605
0.8736343,-0.06248608,-0.01070227
0.9336353,-0.06867196,-0.009744969
0.9831366,0.02297643,-0.025166
0.9904018,0.0537295,-0.03396615
0.9832066,-0.001894946,-0.02515089
1.011848,-0.05568771,0.00474219
1.05243,-0.1239616,0.03644967
1.060019,-0.1415803,0.0587034
1.092974,-0.1116256,0.09189035
1.108348,-0.1265209,0.1064306
1.084469,-0.04026488,0.07331502
1.09751,0.07201075,0.04760592
1.149357,0.004266421,0.04979299
1.272261,-0.1662785,0.04430018
1.379261,-0.3591062,0.04931952
1.264315,-0.4260133,0.05628754
1.014742,-0.4133879,0.02996647
0.8679485,-0.4971649,0.01131041
0.900684,-0.5392576,0.02684423
1.053158,-0.5471517,0.04334847
1.196104,-0.507174,0.04884731
1.259165,-0.2881415,0.08442443
1.20103,-0.1015843,0.1321324
1.050185,-0.07931318,0.1236681
0.9372881,-0.1315171,0.1177062
0.8694228,-0.1435115,0.1410119
0.823007,-0.07564368,0.1193937
0.7574908,-0.03899446,0.1003919
0.6763793,-0.02375387,0.1230091
0.6832521,-0.03634305,0.1496006
0.6951504,-0.09502485,0.1958618
0.7129799,-0.1224553,0.2294728
0.7719668,-0.1331436,0.2250474
0.804238,-0.0932101,0.2354625
0.9051848,-0.06245705,0.2489833
1.029359,-0.1118817,0.2326285
1.139816,-0.1652153,0.1730525
1.272792,-0.2243799,0.08420776
1.312105,-0.2016087,0.06074574
1.292633,-0.0613494,0.1277933
1.290517,0.09614787,0.2230761
1.313907,0.1688739,0.2815135
1.323405,0.02284587,0.2171682
1.271324,-0.2718988,0.07686529
1.238725,-0.5483935,-0.003434801
1.225134,-0.6174026,-0.008049284
1.115441,-0.4994173,0.03872035
0.8632403,-0.4386064,0.09742166
0.6582057,-0.3075145,0.1358824
0.6629923,-0.2081441,0.1606111
0.7619472,-0.3139327,0.1167579
0.8977668,-0.3229023,0.03357783
0.9760278,-0.3550085,-0.006338914
0.9330901,-0.4051249,-0.02560796
0.9176526,-0.2822014,-0.02232748
0.9043653,-0.2308101,-0.01999109
0.8594575,-0.1654167,-0.03311896
0.8797698,-0.1133265,-0.01640604
0.939844,-0.155475,-0.002015454
0.9957242,-0.05993691,0.001965186
1.030489,0.01648446,-0.00977036
1.03012,0.02446563,-0.04747308
1.035057,0.005754619,-0.04741493
1.05935,-0.09495067,-0.01355845
1.081489,-0.1487986,0.03967213
1.096096,-0.1729592,0.08802901
1.069884,-0.1018052,0.06886887
1.036165,0.02287931,0.05276076
1.08078,0.009189005,0.06602928
1.174421,-0.07555227,0.02998398
1.27435,-0.2185792,0.001351347
1.304833,-0.3368429,0.04046363
1.216802,-0.3589525,0.0932796
1.135861,-0.3833896,0.1152079
1.035996,-0.4233883,0.09472127
0.8662409,-0.5302833,0.0736246
0.8601036,-0.6124951,0.08323664
1.060359,-0.5410849,0.06999076
1.247771,-0.4026316,0.04685252
1.315213,-0.1962105,0.0687383
1.203941,-0.01343581,0.09008858
1.006598,-0.0374235,0.09363506
0.9070829,-0.1099291,0.1201711
0.8671577,-0.08753672,0.1459989
0.8292316,-0.06715952,0.1353652
0.7657695,-0.02647418,0.1202656
0.6963326,0.002756953,0.131954
0.7063679,-0.04493123,0.1425344
0.7177645,-0.06847461,0.1566685
0.7353566,-0.098233,0.1936957
0.7780435,-0.1245454,0.2159988
0.7888285,-0.08326966,0.2342427
0.8824382,-0.06777373,0.2676552
1.03122,-0.08452846,0.259267
1.154108,-0.1502764,0.1672595
1.264096,-0.2306017,0.07289692
1.283531,-0.1763506,0.1032318
1.274655,-0.02636816,0.1740324
1.319453,0.1015106,0.2010884
1.368805,0.09319576,0.2476877
1.423143,-0.09285009,0.2014052
1.406327,-0.3625024,0.06517569
1.287027,-0.6023557,0.02301001
1.155757,-0.6149169,0.05234991
0.9133878,-0.414121,0.1148351
0.6557188,-0.2618104,0.153381
0.6440021,-0.2067981,0.1125141
0.7376586,-0.2373535,0.07026028
0.8348122,-0.3149396,0.0327769
0.919169,-0.3665477,0.006324437
0.9213029,-0.4173781,-0.005418566
0.9133927,-0.3640112,-0.01511521
0.8886086,-0.2550256,-0.007980579
0.90046,-0.1883417,-0.02759463
0.9361885,-0.07886483,-0.03441177
0.9327062,-0.02953972,-0.01007275
0.9857336,0.001789214,-0.002726855
0.9989266,0.07966031,-0.006162281
0.9743718,0.0762704,-0.02339106
0.9940731,0.04537999,-0.01663269
0.9875811,-0.03608963,0.008755809
1.01419,-0.1629725,0.03409539
1.075887,-0.2414143,0.07090117
1.127963,-0.2791687,0.07532961
1.140024,-0.2220978,0.06763432
1.091166,-0.09366855,0.0537188
1.081792,0.03068143,0.032772
1.131,0.02433694,0.03613397
1.226797,-0.1221453,0.01119094
1.302762,-0.2325576,-0.02042384
1.241362,-0.3611117,0.00948076
1.082022,-0.4482747,0.07172639
0.8588705,-0.4370655,0.1088106
0.7415457,-0.4896202,0.09559312
0.9628279,-0.4959928,0.0729432
1.271477,-0.4373767,0.06893041
1.35098,-0.3066345,0.05940339
1.277709,-0.05520114,0.05763315
1.104716,0.001932031,0.08829663
0.8925087,-0.0824037,0.1114674
0.8356078,-0.04522258,0.109956
0.8557043,-0.01691081,0.111647
0.7717288,-0.01621797,0.1081154
0.6995494,-0.001213457,0.1152696
0.7215373,-0.04813668,0.1384591
0.7461562,-0.1266148,0.1538018
0.7897269,-0.1842342,0.1774436
0.8238626,-0.193281,0.2023771
0.8082361,-0.1422672,0.2206758
0.8581612,-0.09669834,0.2309005
0.967667,-0.09379962,0.2298722
1.079863,-0.1021714,0.2176219
1.167952,-0.1120431,0.1599327
1.230332,-0.1123388,0.09381858
1.324361,-0.07065601,0.08561613
1.341263,0.02551336,0.147403
1.322507,0.08919714,0.2406259
1.362435,0.008387627,0.2376839
1.297246,-0.1970779,0.1147297
1.229656,-0.4422265,0.01161343
1.225158,-0.5490188,0.02053228
1.084977,-0.4500813,0.06650131
0.8611718,-0.3489222,0.06763194
0.7102697,-0.2658783,0.1037595
0.7091409,-0.2078983,0.1309938
0.7694849,-0.2908724,0.09235689
0.8060958,-0.3554259,0.09146713
0.8806149,-0.3851692,0.05611527
0.9005967,-0.4224477,0.003885527
0.8830262,-0.3491843,0.01750607
0.921145,-0.239977,-0.02375209
0.9291554,-0.08565996,-0.07009074
0.9341607,-0.004263701,-0.05350002
0.9734734,-0.06295909,-0.02563808
1.015229,0.01446475,0.003058853
1.01733,0.0391045,-0.002883289
0.9767898,-0.0313339,-0.01479179
0.9795031,0.02426506,-0.02200812
0.9903637,-0.01390101,-0.03463244
1.015937,-0.1059631,0.000119753
1.088537,-0.1879338,0.07250871
1.099537,-0.2519951,0.11825
1.053818,-0.1246078,0.08521955
1.016303,-0.05288966,0.04792346
1.023681,-0.1043186,0.06794849
1.085223,-0.09799549,0.05311797
1.187008,-0.1324065,0.0151064
1.311531,-0.2439909,0.01935775
1.316125,-0.3680979,0.04689207
1.176213,-0.4103554,0.07497417
1.007133,-0.4342694,0.0643866
0.8985772,-0.5321916,0.04580175
0.9730876,-0.5545257,0.06223502
1.134254,-0.4867986,0.0621672
1.257014,-0.3333076,0.06765725
1.305271,-0.08853042,0.09909706
1.137712,-0.005068465,0.1075651
0.9412031,-0.1071628,0.1153933
0.9135059,-0.1355732,0.1241688
0.8750853,-0.09849982,0.1223281
0.7931949,-0.08517073,0.1257878
0.7255851,-0.02708363,0.1209773
0.6959288,-0.008388063,0.1352535
0.7176375,-0.07087726,0.1670454
0.7362532,-0.1056031,0.1789783
0.7692891,-0.1274236,0.1818075
0.7865497,-0.08350756,0.1811588
0.8031996,0.006829887,0.1939646
0.8751601,0.0053678,0.2167252
0.9483867,-0.04161796,0.227218
1.059044,-0.1203228,0.2290504
1.196514,-0.2041582,0.1778524
1.306591,-0.1955934,0.08254135
1.380249,-0.1137446,0.06062013
1.354424,0.01537799,0.1363895
1.328241,0.08361913,0.2166589
1.356134,-0.04918522,0.2264202
1.313665,-0.32184,0.1407263
1.255234,-0.5756032,0.02774207
1.19915,-0.6484721,0.0143263
1.027327,-0.4991026,0.08727649
0.8147811,-0.3130431,0.1306478
0.7093676,-0.2008565,0.1255591
0.73112,-0.1564687,0.1187083
0.8085105,-0.235805,0.1078661
0.8888483,-0.3446152,0.05970881
0.9469124,-0.3856448,0.004929166
0.9294377,-0.3865747,-0.0145154
0.8994575,-0.3213265,-0.01956781
0.8970323,-0.2457454,-0.02095471
0.857113,-0.1701623,-0.02741938
0.8556345,-0.1138334,-0.03218531
0.9156629,-0.1399893,-0.008474486
0.9618838,-0.1101247,0.01139301
0.9784985,-0.02914727,0.00612312
0.9651123,0.01861214,-0.002739879
0.9908267,0.0170329,-0.00285451
1.058326,-0.1037701,0.004680026
1.119871,-0.2251769,0.0221639
1.149121,-0.2409804,0.06326472
1.096273,-0.1654711,0.09701908
1.04999,-0.03659185,0.09738317
1.050046,0.04418463,0.09619276
1.093103,0.02454431,0.09319328
1.256847,-0.1127051,0.07391573
1.383991,-0.2506043,0.06146286
1.304863,-0.3191141,0.05172532
1.097526,-0.4152333,0.03839274
0.9038096,-0.4958648,0.04581601
0.8588116,-0.5177704,0.04270249
0.9448116,-0.5297346,0.02699001
1.066923,-0.4979837,0.04024494
1.239066,-0.3575915,0.05069112
1.30662,-0.2177869,0.06024141
1.12862,-0.1639487,0.07909203
0.9646652,-0.08186553,0.09335946
0.9078404,-0.06267985,0.1151015
0.8406573,-0.105459,0.1167911
0.7950116,-0.02395735,0.1192512
0.755222,0.009719918,0.1299054
0.767156,-0.04023815,0.1199939
0.761643,-0.03046227,0.1384391
0.7163119,-0.05299366,0.1588884
0.7780193,-0.06889813,0.1642462
0.7820456,-0.05162201,0.2068838
0.7832455,-0.07102841,0.2323887
0.9293877,-0.06994198,0.2026295
1.089913,-0.1110311,0.1612872
1.215234,-0.2029806,0.124416
1.233869,-0.2211678,0.08871484
1.289485,-0.1935484,0.07356117
1.381785,-0.160661,0.07939015
1.29636,-0.07909489,0.1296705
1.245622,0.07542602,0.2745206
1.319754,0.1312575,0.3490968
1.373197,-0.0964017,0.1942455
1.365854,-0.4579957,-0.01777139
1.311242,-0.6824751,-0.08572484
1.181741,-0.6170823,0.008852472
0.9129531,-0.4331376,0.1097348
0.699163,-0.3222714,0.1145432
0.6661898,-0.1864529,0.1292533
0.7204787,-0.1682657,0.1339912
0.8117305,-0.2941732,0.08866896
0.873112,-0.3553501,0.07016877
0.9109121,-0.4114254,0.03018767
0.9075179,-0.3642722,-0.005967871
0.8873428,-0.2368772,0.01340103
0.9136378,-0.1699811,0.003616904
0.9206737,-0.05800358,-0.001285589
0.960814,-0.01791713,0.01951679
1.017719,-0.002435528,0.01219894
1.0095,0.08423983,0.004508878
1.009551,0.07845137,-0.01145003
1.000471,0.0449104,-0.02499547
0.9892798,-0.02381091,-0.01174318
1.034974,-0.1373923,-0.003102586
1.098745,-0.1794406,0.02347673
1.126964,-0.1732148,0.05614702
1.09658,-0.1149753,0.04003266
1.082292,-0.037886,0.01812111
1.117305,0.002432887,0.03105718
1.179402,-0.07156469,0.03990083
1.281416,-0.2606249,0.05201385
1.313166,-0.3812685,0.09253978
1.192229,-0.4224763,0.1147957
1.003658,-0.4688302,0.09858219
0.8903101,-0.5242465,0.06876263
0.9665741,-0.5339653,0.05711735
1.147488,-0.4692712,0.06510714
1.30119,-0.3372769,0.06487974
1.354649,-0.1050986,0.07815642
1.180689,-0.01126217,0.09973296
0.9483987,-0.1189166,0.1186791
0.8959455,-0.1149379,0.1417573
0.8511889,-0.06123097,0.1369816
0.7362126,-0.04175472,0.1350165
0.660576,0.01606886,0.1465215
0.6481659,0.009134152,0.1488241
0.7031738,-0.04944133,0.1669275
0.7595269,-0.1085051,0.1876503
0.785564,-0.1361456,0.2069821
0.7862122,-0.07585687,0.2203812
0.8138614,-0.02495435,0.223664
0.9419446,-0.04575711,0.2367492
1.084428,-0.1034822,0.2102984
1.217641,-0.1934261,0.1324232
1.350324,-0.2360749,0.07458358
1.39134,-0.1364146,0.0887127
1.314065,0.02138298,0.1723176
1.230121,0.08950217,0.2570349
1.2652,0.03153594,0.2549264
1.281985,-0.1485689,0.1156918
1.233089,-0.4189678,-0.02425967
1.235248,-0.5867907,0.01142264
1.099354,-0.5039602,0.08447401
0.8188303,-0.3633843,0.08982326
0.67671,-0.2934286,0.1268208
0.7000722,-0.2354152,0.1343938
0.7649163,-0.2602993,0.09509512
0.8055538,-0.2870958,0.08648039
0.8405128,-0.2783619,0.06101944
0.8789133,-0.3356291,0.01875684
0.9132558,-0.3434958,-0.01998953
0.9201029,-0.3126992,-0.0279193
0.8767983,-0.2270395,-0.001692184
0.8706395,-0.08549768,-0.02442178
0.8757676,-0.09604434,-0.02502399
0.8869967,-0.1053672,0.01032299
0.9625466,-0.005668673,0.008207682
0.9783704,0.0318342,0.02283604
0.9811955,0.0003895433,0.005739771
1.043429,-0.07621824,-0.02157907
1.084786,-0.1723622,0.01001924
1.127422,-0.2242065,0.0405137
1.143879,-0.1946456,0.07967671
1.122748,-0.1549969,0.07850619
1.086272,-0.0957876,0.05427224
1.048702,0.04506252,0.0865222
1.10178,0.04118634,0.07879593
1.225522,-0.1211783,0.033395
1.308717,-0.2645934,0.01104746
1.264728,-0.4011802,0.02440505
1.095117,-0.4362079,0.06517017
0.8940622,-0.4465826,0.06043393
0.82244,-0.5482195,0.06064249
1.02247,-0.564365,0.07763394
1.269521,-0.4505641,0.06078279
1.299865,-0.2252061,0.07640466
1.207847,-0.007676679,0.08817524
1.065923,-0.01623628,0.07698968
0.9406484,-0.1009855,0.0954713
0.9223081,-0.1025147,0.1006959
0.8981399,-0.1095936,0.09497827
0.8140996,-0.09531936,0.09353596
0.762822,-0.0496941,0.103527
0.7238786,-0.0630051,0.1428337
0.6771021,-0.1086773,0.1817905
0.7018102,-0.1555887,0.2080256
0.7345222,-0.1786794,0.2098826
0.752489,-0.1188686,0.2098936
0.8490833,-0.04915568,0.2281246
0.9558264,-0.03842028,0.2345442
1.053496,-0.09389051,0.2292189
1.154844,-0.1936081,0.1803926
1.236111,-0.2106288,0.1023753
1.308942,-0.1191356,0.0901304
1.298604,0.008058328,0.1612033
1.305658,0.07611695,0.2571364
1.410067,-0.02274824,0.2672051
1.447967,-0.2411791,0.1295493
1.361557,-0.4847359,0.002802073
1.167799,-0.5942402,0.06603943
0.9504645,-0.4659935,0.1677704
0.77869,-0.3151928,0.1542754
0.7023603,-0.2361511,0.1341921
0.7917946,-0.2004158,0.08310326
0.8846116,-0.2734135,0.01771515
0.9256904,-0.3310735,0.04349696
0.9552586,-0.3549024,0.04361426
0.8944425,-0.3918246,0.02616667
0.8543441,-0.3390149,0.03060486
0.8619411,-0.2859231,-0.007814065
0.8708738,-0.2309999,-0.02784765
0.9144758,-0.1390954,-0.03951859
0.9211913,-0.1236364,-0.04546466
0.9538621,-0.08737032,-0.01676611
1.008419,-0.0101623,-0.006449781
0.9818572,0.03322922,-0.006911898
0.9687234,0.06595216,-0.02009907
0.9820323,0.05337784,-0.03075019
1.030116,-0.06859814,-0.005182198
1.115416,-0.2566811,0.04259919
1.107075,-0.2603594,0.09364565
1.072046,-0.15211,0.09316484
1.072991,-0.1129541,0.07402812
1.036994,0.01276467,0.08656283
1.057306,0.00207439,0.07381422
1.189008,-0.1861285,0.03935987
1.33508,-0.2765863,0.0169341
1.376084,-0.3835483,0.01986082
1.231362,-0.3857233,0.04488946
1.056675,-0.3612509,0.04652419
0.9908643,-0.5166853,0.04444033
0.9719361,-0.5630282,0.05893129
1.05175,-0.5657718,0.06347254
1.207546,-0.4951389,0.06952325
1.263214,-0.2174173,0.08410965
1.18365,-0.0635788,0.1044865
1.036221,-0.05927277,0.1067771
0.9299931,-0.1071498,0.1018435
0.9064791,-0.1268137,0.1278711
0.8723115,-0.0524354,0.1284719
0.7776759,-0.02522952,0.1152025
0.7086815,-0.00407795,0.1309989
0.7088162,-0.02232994,0.141084
0.7218254,-0.08544988,0.1674404
0.7595229,-0.1074862,0.1838509
0.7785106,-0.1310841,0.1767335
0.7671186,-0.08447426,0.204369
0.8393174,-0.06657695,0.23221
0.9615553,-0.1308896,0.2403614
1.081915,-0.1874965,0.2241093
1.192305,-0.2695055,0.1486831
1.289807,-0.2704935,0.04914042
1.346155,-0.1799187,0.01875427
1.255549,-0.0093204,0.1179731
1.188564,0.1861247,0.2377251
1.311834,0.1246146,0.2494371
1.400676,-0.1594595,0.1685813
1.352203,-0.4542798,0.03090684
1.303317,-0.6158336,-0.04585591
1.208155,-0.5851272,0.04555972
0.9373503,-0.4667536,0.1511182
0.6736328,-0.2902119,0.1351866
0.6349244,-0.2212512,0.1059073
0.7415,-0.3109444,0.08587693
0.8532304,-0.3432715,0.02221537
0.8972946,-0.4302084,0.004858492
0.8944627,-0.5101888,0.00565463
0.8785679,-0.4100728,-0.02752839
0.8649173,-0.33729,-0.01694894
0.90707,-0.2408682,-0.02022108
0.9525779,-0.1153164,-0.04330164
0.9621772,-0.09625851,-0.02512451
0.9732449,-0.03753415,-0.01830928
0.9844863,0.01803542,-0.009171798
1.008795,0.01923214,-0.006881298
1.032663,0.007783033,-0.02343908
1.036536,-0.04956086,-0.009319047
1.038003,-0.07982785,0.001753044
1.05835,-0.1339728,0.01790676
1.081179,-0.201255,0.05084612
1.06213,-0.1690687,0.05867703
1.02609,-0.1031608,0.06460598
1.012399,-0.05026763,0.08146909
1.058866,-0.06921671,0.08939977
1.169797,-0.1658428,0.04901693
1.246135,-0.2746944,-0.005416432
1.236634,-0.3878472,0.03024887
1.133477,-0.4173484,0.08757855
0.932536,-0.4251041,0.09419749
0.8065956,-0.5217094,0.09099689
0.9626259,-0.5611568,0.05232172
1.247586,-0.5129068,0.002609428
1.378419,-0.408073,-0.004944843
1.338956,-0.1571213,0.02139224
1.152669,0.05476728,0.06818189
0.9319278,-0.01183812,0.09730912
0.8739937,-0.1137649,0.1265709
0.862899,-0.06541226,0.1499527
0.7925542,-0.0661637,0.1224571
0.7416987,-0.05584456,0.105414
0.7059881,0.004676112,0.1100313
0.713402,-0.04560695,0.1133605
0.7578052,-0.08782668,0.1457667
0.767996,-0.1194471,0.1784107
0.7823051,-0.1282288,0.1918363
0.8299919,-0.04135153,0.2153686
0.9080563,-0.04597081,0.2423318
1.017679,-0.09052227,0.2460616
1.083766,-0.123108,0.2379342
1.11623,-0.1827748,0.1813149
1.209154,-0.1935037,0.06729611
1.282507,-0.1799683,0.05043898
1.261584,-0.05117617,0.1374363
1.264659,0.09575179,0.2280721
1.324881,0.06857179,0.2909924
1.357426,-0.09630138,0.1881252
1.35242,-0.3943856,0.02761447
1.310689,-0.6098202,0.0425799
1.175617,-0.5932637,0.07914396
0.9068642,-0.4479438,0.06685234
0.6752256,-0.2614844,0.1007851
0.67231,-0.1867896,0.1104913
0.7539939,-0.2000719,0.08969673
0.830781,-0.2522277,0.07193598
0.94078,-0.3799797,0.03767697
0.9741788,-0.4399269,0.00890733
0.9263939,-0.3856378,0.003838609
0.8854617,-0.3138496,0.01536525
0.8942599,-0.226391,0.006299611
0.9197889,-0.1099733,-0.01222264
0.9364104,-0.03498921,-0.01099656
0.9897312,-0.02924554,-0.01353078
1.001551,-0.01379163,-0.01085169
0.9904328,0.03766233,-0.02148278
1.020636,0.05114412,-0.04317085
1.012518,0.00338163,-0.03773652
1.017928,-0.04593827,-0.03645313
1.049561,-0.1134103,-0.01867104
1.067575,-0.2037221,0.03793646
1.086527,-0.2288495,0.08660897
1.048337,-0.1666495,0.1007072
1.010466,-0.05790598,0.08824405
1.038872,-0.0103402,0.08433969
1.109829,-0.08998101,0.0640616
1.234102,-0.224669,0.01823629
1.302665,-0.3462351,0.019115
1.204594,-0.4050631,0.06308813
1.019815,-0.4207432,0.09492783
0.8676318,-0.4638509,0.08876188
0.8635739,-0.5100055,0.0579622
1.048273,-0.50235,0.03079936
1.225095,-0.412637,0.01805664
1.241861,-0.1960059,0.05271783
1.190597,0.02765232,0.09928611
1.116636,-0.004708939,0.09554912
0.9934121,-0.1461788,0.108344
0.9115174,-0.1403945,0.1428633
0.9069714,-0.1252383,0.1261774
0.8238876,-0.107418,0.1127885
0.699435,-0.0682915,0.136422
0.7012564,-0.1035182,0.1469165
0.7264123,-0.1212978,0.1525602
0.7502129,-0.1536917,0.1636885
0.8031514,-0.1764752,0.1727012
0.8025412,-0.1009766,0.192575
0.8342579,-0.04872185,0.2117863
0.9257432,-0.03268938,0.2223082
1.016658,-0.08659857,0.2158781
1.103115,-0.2117499,0.1674427
1.173953,-0.2814102,0.09491241
1.245013,-0.2703879,0.0514263
1.265101,-0.1110425,0.08354728
1.257833,0.09394828,0.171697
1.331106,0.1027898,0.2205038
1.429881,-0.09030768,0.1522254
1.442651,-0.3618537,0.04353545
1.346232,-0.5301275,0.06001438
1.113248,-0.4912277,0.1348377
0.7620798,-0.3538807,0.146725
0.6024407,-0.2536245,0.133971
0.7312732,-0.2222107,0.06923643
0.8358821,-0.2549564,0.01056039
0.9346172,-0.3155743,0.02519144
1.012788,-0.3842381,0.03693761
0.9332578,-0.4465971,0.05254032
0.908924,-0.400581,0.05911021
0.8993866,-0.3333971,0.05583092
0.8786556,-0.297854,0.04700558
0.9683181,-0.1580859,-0.004424979
0.9672858,-0.07160613,-0.02345505
0.9526662,-0.09907057,-0.01694411
0.9989637,-0.09149016,-0.01937578
0.9794027,-0.07877487,-0.009169094
0.9969144,-0.08392614,-0.0147868
1.004627,-0.1042558,-0.01765925
1.008681,-0.1127529,-0.02446159
1.040064,-0.1157298,-0.03140217
1.013215,-0.1445652,-0.005890201
1.030838,-0.178493,0.02586133
1.044227,-0.2432557,0.05521306
1.017909,-0.2419964,0.0644159
0.7350075,-0.123259,0.1537941
0.7654513,-0.08889041,0.118429
0.7285518,-0.09186847,0.1163504
0.6995702,-0.07555394,0.1225864
0.7221704,-0.07883848,0.1440036
0.7235479,-0.1210529,0.1615624
0.7355438,-0.1529618,0.1722145
0.760595,-0.1777745,0.1958434
0.7591195,-0.124518,0.203996
0.8224973,-0.05397967,0.2247695
0.9596126,-0.06980844,0.2440249
1.081959,-0.1119179,0.2448351
1.162044,-0.1522685,0.2338993
1.229343,-0.1329886,0.1358447
1.347289,-0.06723221,0.02354982
1.38898,-0.04194679,0.04279019
1.359256,-0.05697563,0.08022146
1.429747,-0.1290689,0.03739207
1.432543,-0.227282,0.03659714
1.336792,-0.3920299,0.06359119
1.196016,-0.6104872,0.0669597
0.948191,-0.5961064,0.1113243
0.828686,-0.3732646,0.1260447
0.7313355,-0.2264531,0.1162091
0.5915828,-0.1752726,0.1075457
0.7631103,-0.2153056,0.03080674
0.9086778,-0.31936,0.005482855
0.8699606,-0.4021217,0.02960761
0.9127226,-0.4504982,0.01021128
0.8653613,-0.3788618,0.008196331
0.8706467,-0.278541,-0.005423482
0.9390784,-0.2384024,-0.02849499
0.9108552,-0.1524016,-0.03620264
0.955702,-0.1304538,-0.04480207
0.9405807,-0.1350919,-0.0172091
0.9438213,-0.06279184,0.00113397
1.023155,-0.04558254,-0.008749609
1.00837,-0.04140025,-0.008528697
1.043673,-0.03695785,-0.005005951
1.045485,-0.07213682,0.01037572
1.036013,-0.1445505,0.02422011
1.105405,-0.2546334,0.01779636
1.092479,-0.2395596,-0.001372079
1.067362,-0.11093,-0.0007476684
1.034498,0.009287775,0.0551488
1.034186,0.06024299,0.1019003
1.166251,-0.07584574,0.05176876
1.305734,-0.2770772,-0.008989762
1.335441,-0.3823702,0.02648477
1.179712,-0.4323666,0.05289232
0.9533154,-0.4574686,0.04889391
0.8374696,-0.4943572,0.09304423
0.9106551,-0.5231955,0.0937928
1.137597,-0.4775786,0.05511896
1.327151,-0.3332191,0.04697499
1.366099,-0.1243265,0.05649706
1.167828,-0.04270908,0.09723113
0.9170784,-0.1091489,0.1294133
0.8703198,-0.109382,0.1511641
0.8358801,-0.07853122,0.1498879
0.7642424,-0.06779521,0.1080931
0.7202291,0.0007896299,0.1107468
0.6824809,0.008676794,0.1194052
0.7014791,-0.06061613,0.1271306
0.7013045,-0.1052839,0.166942
0.7041487,-0.1457729,0.1707992
0.7314,-0.1304241,0.1899852
0.7931935,-0.1013239,0.2292395
0.9599578,-0.1330074,0.2395158
1.096478,-0.1470229,0.2327424
1.242285,-0.1821151,0.1501984
1.432397,-0.2000971,0.05631019
1.456011,-0.08626244,0.1008399
1.412876,0.0721755,0.2572705
1.453366,0.1334978,0.3510468
1.43355,-0.04463802,0.2376696
1.348598,-0.3866097,0.06492188
1.274858,-0.6206833,0.06605732
1.120207,-0.6428873,0.1193631
0.9165715,-0.4866655,0.09707883
0.7355022,-0.308855,0.09684375
0.6470282,-0.2288461,0.08020515
0.744632,-0.224099,0.03852379
0.8196002,-0.272045,0.03637212
0.8264408,-0.3213666,0.02858549
0.8832086,-0.3828752,0.03158664
0.8691269,-0.4073394,0.02291989
0.8669367,-0.3346291,-0.0005129596
0.9307932,-0.2693993,-0.004664871
0.9489244,-0.1859698,-0.0360648
0.958936,-0.08832784,-0.03796068
0.9527632,-0.03456816,-0.01381006
0.9483172,0.03318876,-0.009570303
0.9663364,0.04903593,-0.003693735
0.9709496,0.01156331,-0.01487209
0.9956036,-0.03359048,-0.005393145
1.022565,-0.1310951,0.008362623
1.057613,-0.2210979,0.02663152
1.097105,-0.2566202,0.09038195
1.082533,-0.2444698,0.1159901
1.074298,-0.1971472,0.10118
1.092678,-0.07537069,0.09443813
1.100193,0.08128613,0.09197561
1.148453,-0.003917444,0.08470827
1.268657,-0.314524,0.06076639
1.383901,-0.5373104,0.04750996
1.327682,-0.5541685,0.04816755
1.103922,-0.4814955,0.05127786
0.940348,-0.5453699,0.038613
0.9609842,-0.6142008,0.02023262
1.129257,-0.4914224,0.03868847
1.231395,-0.2765071,0.0659764
1.130146,-0.004323388,0.09023464
1.03043,0.02193626,0.09336731
0.9651075,-0.1397447,0.08525769
0.8279998,-0.07717194,0.1142103
0.7809316,-0.1072995,0.1172859
0.8019905,-0.1438227,0.1101766
0.7109985,-0.007007664,0.13593
0.6438225,-0.06570869,0.153131
0.6672121,-0.09833428,0.1884901
0.69155,-0.1017295,0.2093167
0.7598501,-0.1780728,0.1939502
0.7957227,-0.08397244,0.2031706
0.8370542,-0.04598926,0.2166927
0.989516,-0.07557966,0.2202645
1.093525,-0.09717164,0.2098853
1.210136,-0.1898717,0.1632217
1.376607,-0.1744083,0.1146407
1.422942,-0.08273918,0.1161074
1.368723,0.0006379068,0.1733087
1.313544,-0.02352441,0.2149931
1.380968,-0.2535786,0.1756319
1.430073,-0.5312295,0.05658439
1.306416,-0.6656916,-0.0431439
1.136668,-0.5364159,0.00289674
0.8481918,-0.336857,0.1021361
0.5689754,-0.2095187,0.1295512
0.6039049,-0.1492602,0.1230825
0.7768274,-0.2733636,0.06567579
0.8608569,-0.3609323,0.0002003906
0.8953497,-0.3915207,0.007345081
0.9019861,-0.4753716,0.005581609
0.8808822,-0.3894652,-0.007175299
0.8836339,-0.2848356,0.0006116334
0.8891684,-0.2111575,-0.02388175
0.9043551,-0.09464787,-0.04569715
0.9630027,-0.1062953,-0.0421591
1.00041,-0.08528253,-0.04078148
1.008673,0.003422971,-0.03936741
0.9930075,0.02601492,-0.03791563
0.9840567,0.01599982,-0.02928161
1.016308,-0.0636331,-0.01727312
1.035581,-0.1670056,-0.0001509645
1.046979,-0.2374532,0.03937855
1.035388,-0.2243088,0.07998532
1.008155,-0.1099491,0.08041484
1.012928,0.007981919,0.06869036
1.061614,0.04892364,0.07481227
1.190145,-0.0713149,0.03560265
1.295375,-0.245971,-0.008868494
1.278743,-0.3670737,0.03070231
1.162944,-0.4495334,0.09676085
0.9881118,-0.4513488,0.1356949
0.8961319,-0.4958771,0.113089
0.9491677,-0.576776,0.06271967
1.12794,-0.5257419,0.06608605
1.380608,-0.3471421,0.05811575
1.428659,-0.1028592,0.04549153
1.176993,0.02226121,0.07832291
0.9294946,0.007581849,0.1060915
0.8463791,-0.005461982,0.1574727
0.8441257,-0.05638867,0.1839524
0.8176935,-0.06259858,0.1370997
0.7351289,-0.02057595,0.118676
0.6949896,-0.04867387,0.1226364
0.70549,-0.06666149,0.1387566
0.7311405,-0.1164757,0.1781328
0.7898319,-0.1782197,0.1884098
0.8040302,-0.1364117,0.2093073
0.8067963,-0.1038685,0.2413199
0.8822184,-0.09254456,0.2375129
0.9944417,-0.1114695,0.22024
1.120103,-0.2147815,0.1700761
1.220998,-0.263141,0.08379884
1.272404,-0.2045012,0.05225489
1.288639,-0.08921714,0.1191246
1.32755,-0.00749753,0.2023611
1.41086,-0.06704628,0.223595
1.453824,-0.2425774,0.1606075
1.410585,-0.4683183,0.05642219
1.230283,-0.5765349,0.04025112
0.9417177,-0.4713974,0.1146505
0.7370671,-0.3586782,0.1561133
0.6997945,-0.2796859,0.1289178
0.7274469,-0.1790612,0.07689224
0.7804064,-0.214302,0.03592531
0.8837888,-0.2797692,0.001487574
0.9098321,-0.2978907,0.007078458
0.8990946,-0.4364358,0.02962843
0.9373783,-0.476273,0.007435922
0.8769416,-0.3666135,0.01312911
0.8489997,-0.3183201,0.02052189
0.9059579,-0.2086404,-0.01568534
0.9171245,-0.09947591,-0.0353401
0.9730219,-0.07150809,-0.054014
0.9956903,-0.01159404,-0.03552246
0.9836592,0.03465147,-0.008767414
1.003083,0.08468907,-0.03882781
0.9825834,0.1022026,-0.04626807
1.011699,0.02910242,-0.04115523
1.052468,-0.06245182,-0.03156704
1.062272,-0.166945,0.01345312
1.082362,-0.226064,0.06059251
1.060734,-0.2033248,0.09681921
1.057258,-0.1259061,0.08154338
1.075865,-0.03382439,0.05188319
1.13219,-0.05097186,0.05418704
1.26013,-0.1836554,0.02139999
1.307117,-0.3508153,-0.006002222
1.214746,-0.467607,0.03434704
1.042805,-0.4721669,0.07290763
0.8902488,-0.4773249,0.06235661
0.9094731,-0.5295992,0.04564815
1.106714,-0.5161729,0.04433195
1.315686,-0.3793914,0.03292037
1.366986,-0.1373536,0.03884339
1.213269,0.01521685,0.06662108
1.000143,-0.04408634,0.07709656
0.8994833,-0.0884518,0.08655327
0.8625579,-0.06023615,0.09932227
0.8025001,-0.0720879,0.1083576
0.7395008,-0.05010021,0.1120965
0.6902718,-0.0372009,0.1207375
0.6706151,-0.07614498,0.1515544
0.7092041,-0.1131268,0.1646015
0.7952081,-0.1895181,0.1755746
0.8229906,-0.2042609,0.2033828
0.8136743,-0.1214379,0.2097737
0.8665199,-0.06880687,0.2222268
0.9329517,-0.05192211,0.2289477
1.030524,-0.107305,0.208462
1.144591,-0.2057516,0.1636934
1.227263,-0.2329561,0.07847073
1.291255,-0.1894218,0.05655709
1.306915,-0.07714584,0.1335207
1.3588,0.007620054,0.1727596
1.408937,-0.08478182,0.139322
1.36738,-0.3303876,0.1009988
1.315452,-0.5628973,0.06589513
1.161761,-0.584229,0.03501938
0.8935615,-0.4003523,0.09585404
0.7103167,-0.2235821,0.1905939
0.6845013,-0.1636769,0.1572623
0.7741142,-0.1927278,0.09728784
0.8814755,-0.2798882,0.07754114
0.9360889,-0.3865292,0.03959886
0.9265037,-0.4297785,0.05299111
0.8768749,-0.3540605,0.05969457
0.8361625,-0.2512631,0.02450284
0.8323503,-0.2048163,0.01987071
0.8741698,-0.155437,-0.009976046
0.9209688,-0.1246712,-0.02064282
0.9524237,-0.1374967,0.008783047
0.9639553,-0.117163,0.008865981
0.9525864,-0.06046436,0.01854195
0.9595288,-0.008049343,0.02083211
0.9652797,-0.01725624,0.01465837
0.9955994,-0.08968913,0.01835695
1.089357,-0.175752,0.008232014
1.157182,-0.2284186,0.01799574
1.157595,-0.1629293,0.0316078
1.113383,-0.03458213,0.04367576
1.096065,0.02487082,0.07042948
1.191479,-0.08422542,0.08641196
1.339796,-0.3329895,0.08778893
1.375821,-0.4734135,0.06294729
1.202808,-0.4842963,0.03464723
0.9680072,-0.5133176,0.02047742
0.904039,-0.5665643,0.03902597
1.012372,-0.6133538,0.09475261
1.139287,-0.5239227,0.1011848
1.192044,-0.2849776,0.08984034
1.14979,-0.06419792,0.1012466
1.022777,-0.002184932,0.09065144
0.9184658,-0.09577202,0.1010452
0.9139345,-0.1132494,0.1155897
0.8991904,-0.06916902,0.1269053
0.8163478,-0.0965632,0.1587126
0.7784498,-0.06977067,0.1533291
0.7741035,-0.0215408,0.1601526
0.7148892,0.002580203,0.2006468
0.7218175,0.01004334,0.2023973
0.7915104,-0.03533645,0.1984383
0.7917316,-0.03289768,0.2188388
0.7989678,-0.02446441,0.2368514
0.821104,-0.04960313,0.252697
0.8890744,-0.07434276,0.2778843
1.010266,-0.1422107,0.2771689
1.042904,-0.1761976,0.2021818
1.146919,-0.1993879,0.09539863
1.318808,-0.1966891,0.05584805
1.315992,-0.04630494,0.1286395
1.289277,0.1180633,0.2498444
1.335998,0.1366075,0.2818878
1.386991,-0.1052641,0.1253782
1.446815,-0.5171362,-0.06103487
1.398198,-0.7268738,-0.0103569
1.161697,-0.6529792,0.1188334
0.8033696,-0.4635139,0.13767
0.5468475,-0.26502,0.1636579
0.5691196,-0.1611922,0.1227347
0.6839672,-0.189073,0.04363821
0.8072736,-0.2565577,0.04012251
0.9735754,-0.3335426,-0.009194799
1.004834,-0.4191662,-0.03070645
0.9462341,-0.3808801,-0.002049289
0.9210386,-0.2588897,-0.006685714
0.8846469,-0.1416573,0.001609419
0.8921596,-0.03768506,-0.01002447
0.9520468,-0.0475622,-0.008744034
1.005792,-0.04164625,-0.005560053
1.013472,0.01139387,-0.02638397
0.9856016,0.002368245,-0.01765757
0.990872,0.02887111,-0.02795059
0.9934255,-0.004118743,-0.02199286
1.013635,-0.09770689,-0.005407398
1.086324,-0.1498731,-0.001936278
1.111578,-0.2000165,0.05355034
1.085103,-0.1318057,0.08605638
1.066248,-0.005503491,0.0585688
1.080234,0.03208952,0.02982407
1.159405,-0.03289319,0.03675643
1.294653,-0.2160273,0.05255277
1.35763,-0.3863451,0.0526702
1.223338,-0.4873714,0.07629121
1.006263,-0.5265818,0.06789824
0.8654075,-0.5127478,0.0477549
0.8651098,-0.5214451,0.0668988
1.023633,-0.4760121,0.05759051
1.18908,-0.3292583,0.05880881
1.222497,-0.1293658,0.08531638
1.130269,-0.02458754,0.1032321
0.998774,-0.1102144,0.119478
0.929879,-0.1408481,0.1187121
0.8951073,-0.0999271,0.1318697
0.8519142,-0.1175731,0.1374179
0.782677,-0.07840659,0.1248575
0.7019032,-0.05541844,0.1398534
0.6879144,-0.0981497,0.144915
0.7175573,-0.1251906,0.1579785
0.7625189,-0.1649252,0.2118881
0.8092483,-0.1556097,0.2477514
0.8354202,-0.08163594,0.2332592
0.8899477,-0.03643617,0.2020726
0.9904879,-0.06583197,0.1908784
1.13638,-0.1472016,0.1597394
1.270345,-0.1834589,0.1007482
1.307006,-0.154367,0.07742846
1.273529,-0.0667485,0.1364375
1.271578,0.04177888,0.2637422
1.362246,0.02660624,0.295884
1.421747,-0.1288154,0.1738475
1.333338,-0.3618199,0.05517365
1.185255,-0.5450208,0.03026989
1.048619,-0.5001181,0.07731078
0.8866041,-0.3484781,0.1138853
0.7424544,-0.24383,0.1295682
0.7225808,-0.182133,0.1337961
0.7742239,-0.2408422,0.093214
0.8265307,-0.3241003,0.06794583
0.884474,-0.3438175,0.03330404
0.8980292,-0.3789868,-0.006731669
0.8826058,-0.3344637,0.01187177
0.8798671,-0.2488566,-0.003795116
0.8776164,-0.1826375,-0.03172795
0.8813782,-0.07453638,-0.02505798
0.9073459,-0.06642872,-0.02843673
0.9659587,-0.05889512,-0.003564157
1.008538,0.04696879,0.02197194
1.011048,0.03598108,0.001595738
1.02755,-0.02059518,-0.01581618
1.055968,-0.04483333,0.006735303
1.055729,-0.10994,0.0265289
1.056152,-0.1358008,0.02058292
1.083277,-0.1155686,0.03999784
1.093292,-0.09514148,0.05962281
1.094845,-0.07884317,0.05100627
1.140528,-0.09622556,0.04634691
1.246187,-0.1530404,0.03797687
1.331289,-0.2249444,0.02609308
1.270842,-0.3120236,0.02946485
1.135656,-0.4491586,0.04429309
1.048279,-0.5332102,0.04643865
1.03025,-0.5011715,0.04464042
1.046852,-0.5378773,0.05706111
1.046616,-0.582908,0.06443052
1.145728,-0.4468075,0.07456713
1.268481,-0.2250841,0.0971727
1.189066,-0.0164027,0.1134215
1.055067,0.02019651,0.09464318
0.9505333,-0.1065454,0.06949919
0.8566306,-0.1102777,0.09337796
0.8186751,-0.06009807,0.1100963
0.7229939,-0.04120659,0.1037546
0.6507102,-0.005926293,0.1198765
0.6731286,-0.05398735,0.1425441
0.6635386,-0.1129714,0.1760303
0.6944883,-0.1543594,0.194398
0.7811333,-0.1833645,0.1880652
0.8457817,-0.1554244,0.2083907
0.9181695,-0.1768429,0.2371006
1.028267,-0.2041932,0.2474527
1.141766,-0.2092107,0.2246287
1.178911,-0.2179613,0.1556284
1.25932,-0.1712195,0.09053483
1.383139,-0.1350779,0.0980054
1.360828,-0.07425444,0.1988222
1.392695,-0.01683465,0.2636496
1.482342,-0.1757488,0.1536092
1.363844,-0.4537491,0.03652162
1.182024,-0.5628707,0.08805946
0.9724607,-0.4767563,0.1387184
0.7266963,-0.3529354,0.116982
0.680847,-0.2262199,0.1272797
0.7609279,-0.1673941,0.09054873
0.807177,-0.2358928,0.03085599
0.8523747,-0.2842245,0.03803925
0.8792693,-0.3480753,0.02820642
0.8711967,-0.4088012,0.01387332
0.8613355,-0.3143096,0.007859535
0.8649891,-0.2241923,-0.01492035
0.8652241,-0.1630163,-0.03224148
0.882195,-0.08135812,-0.05066455
0.9413194,-0.06652616,-0.02238093
0.9999424,-0.007373036,0.003901156
1.029394,0.07270812,-0.024417
1.041759,0.07600104,-0.04343217
1.063484,0.03365835,-0.05770059
1.075291,-0.08501899,-0.02914369
1.082406,-0.1986279,0.0353039
1.120809,-0.2185817,0.05909042
1.114677,-0.1647451,0.06622579
1.075367,-0.08837875,0.06170031
1.08791,-0.04009973,0.04817165
1.164055,-0.02800961,0.04158454
1.299897,-0.1373489,0.03650692
1.362801,-0.3485467,0.04604351
1.302866,-0.5096331,0.04752757
1.1632,-0.5680005,0.0248565
0.9285269,-0.5718716,0.01406302
0.8516872,-0.5988743,0.05022559
1.025755,-0.5732246,0.1026332
1.148245,-0.4239454,0.1065653
1.17292,-0.1936816,0.09031658
1.138965,-0.009950777,0.08673355
1.006698,-0.05634415,0.07281488
0.8939887,-0.1429747,0.08278066
0.8550059,-0.1180171,0.1126758
0.828336,-0.1171923,0.1159271
0.7495034,-0.06625914,0.1236249
0.672309,-0.03258865,0.1462208
0.6703338,-0.08094158,0.1730036
0.6770042,-0.09156219,0.2046354
0.7087044,-0.1251427,0.2072721
0.7432568,-0.1111098,0.2014077
0.7695433,-0.05035955,0.2229483
0.921572,-0.06748792,0.2441279
1.110524,-0.07383332,0.2448596
1.209009,-0.1112505,0.1983265
1.30238,-0.1824152,0.09258281
1.420224,-0.1551785,0.02932374
1.416973,-0.05958003,0.1251488
1.344392,0.02624414,0.320001
1.386995,-0.009477856,0.3851768
1.381584,-0.2068176,0.1727276
1.334353,-0.4723936,-0.06361093
1.292755,-0.6233632,0.001099768
1.067044,-0.5424293,0.112509
0.8994848,-0.4526316,0.06881707
0.8184303,-0.3425861,0.09992731
0.6553296,-0.09968458,0.1158488
0.690386,-0.1431883,0.07060093
0.8544475,-0.372601,0.07149707
0.9051874,-0.4084679,0.002574803
0.9090924,-0.4534866,-0.01173988
0.880204,-0.3897973,0.01218985
0.8535125,-0.2284444,-0.05478291
0.875273,-0.2228353,-0.05014154
0.8929698,-0.1324771,-0.03419754
0.9281721,-0.004832461,-0.0325368
0.9821437,0.03130287,0.002215525
0.9876541,0.0582934,-0.01261847
1.0013,0.06381369,-0.012132
1.013047,0.07572058,-0.009445047
0.9868342,-0.02478311,-0.02278103
1.022301,-0.1480935,-0.003701507
1.064561,-0.191947,0.01566868
1.069406,-0.2248781,0.04573029
1.08533,-0.1468364,0.06685374
1.076934,-0.06468042,0.06007845
1.08685,0.009743211,0.05626151
1.154323,0.04652989,0.05812576
1.271281,-0.1243279,0.0415139
1.359714,-0.3330434,0.02214743
1.267137,-0.4634772,0.06176195
1.049688,-0.4720989,0.1071095
0.8732482,-0.4937453,0.1002622
0.8823472,-0.6278396,0.088771
1.107382,-0.6094563,0.08250476
1.305573,-0.4752602,0.07456727
1.320594,-0.2497525,0.07532563
1.185986,0.006966073,0.08845404
0.9768139,-1.904341e-05,0.1055153
0.8414144,-0.05778502,0.119724
0.80636,-0.01645329,0.1338284
0.7851972,-0.02518617,0.1340317
0.7225669,-0.02260827,0.131752
0.6670176,-0.01875023,0.153398
0.67545,-0.05475725,0.188347
0.6777743,-0.09856989,0.2092922
0.707527,-0.1252537,0.2084228
0.7878367,-0.09653028,0.2092316
0.882682,-0.07309404,0.2230698
1.036238,-0.1052174,0.2341502
1.176533,-0.147261,0.2262898
1.268139,-0.1720815,0.171434
1.335068,-0.1487925,0.1040398
1.347391,-0.04248716,0.1384004
1.306827,0.09599185,0.2509446
1.263919,0.1240449,0.2839652
1.324419,-0.0787739,0.1514932
1.388261,-0.3985119,-0.007460677
1.320379,-0.5709918,0.03620537
1.171767,-0.5525389,0.1051404
0.9547181,-0.4707083,0.05420399
0.7896663,-0.3572333,0.1156116
0.7261428,-0.2327572,0.1561122
0.6925324,-0.2160074,0.09327076
0.7626836,-0.2896259,0.104994
0.8574704,-0.3341628,0.06021124
0.9060788,-0.3878038,-0.002874337
0.9394262,-0.3961146,-0.006164727
0.9041867,-0.3019993,-0.03224344
0.9025096,-0.2201441,-0.03420082
0.9212998,-0.1310951,-0.0517211
0.9001458,-0.06030121,-0.04975258
0.9440151,-0.0254276,-0.00909915
0.9608069,0.05463602,-0.004464398
0.945169,0.07746947,0.002632237
0.9761461,0.02097502,-0.009164731
1.014627,-0.07918311,-0.002786531
1.087377,-0.2187136,0.03622534
1.119299,-0.2613629,0.06714655
1.093228,-0.1911251,0.1094235
1.073053,-0.09072074,0.1010541
1.051491,-0.008659134,0.08976621
1.087828,-0.00464505,0.0920519
1.166151,-0.0830664,0.03953847
1.265441,-0.2236869,0.003314492
1.345696,-0.3715987,0.0009365923
1.227269,-0.4161844,0.04430291
0.9377554,-0.4139161,0.09923356
0.7768306,-0.4838982,0.07690522
0.9212169,-0.5002985,0.04412752
1.185575,-0.4562953,0.02760182
1.348079,-0.3738288,0.009309747
1.379799,-0.1263478,0.02859963
1.208193,0.008135602,0.06157642
0.9335774,-0.06795717,0.07951269
0.8256145,-0.07225908,0.1017282
0.817801,-0.06719346,0.1042472
0.7727255,-0.07675683,0.0811425
0.725874,-0.05282947,0.09894622
0.6913469,-0.06979936,0.1308688
0.7035934,-0.1002214,0.1508257
0.7384423,-0.1484293,0.1805748
0.7609108,-0.1695546,0.1725
0.7993058,-0.1010776,0.1773112
0.8585032,-0.03245852,0.21921
0.9356326,-0.04483979,0.2337977
1.019559,-0.1201815,0.2244279
1.146482,-0.2018493,0.1738027
1.224963,-0.2379988,0.1355042
1.239479,-0.1825878,0.1597335
1.379836,-0.05179121,0.1979674
1.442843,0.05492538,0.2278408
1.369377,-0.03010951,0.2055466
1.398694,-0.3135495,0.1182308
1.316842,-0.5310259,-0.005109164
1.162077,-0.5656915,-0.05904329
1.117447,-0.5028284,0.05519604
0.9119027,-0.4205138,0.1583493
0.6723597,-0.3129772,0.126612
0.6821776,-0.2050653,0.08951457
0.7721433,-0.2490783,0.06939624
0.838973,-0.3154905,0.03942006
0.8979272,-0.3307344,0.04654569
0.9139362,-0.4074489,0.03921506
0.9071008,-0.3668244,-0.01236215
0.8995856,-0.2770231,-0.03111022
0.9011423,-0.2149607,-0.02949559
0.9105842,-0.0776687,-0.040908
0.919227,-0.03073039,-0.04510829
0.9444842,0.004251363,-0.03711099
0.9627676,0.09796264,-0.01499475
0.956465,0.14391,-0.01208402
0.9655136,0.1527807,-0.02554385
1.0153,0.02531624,-0.0229476
1.088661,-0.1485662,-0.007417386
1.115307,-0.2209354,0.04502302
1.090043,-0.1996396,0.09248629
1.067647,-0.07401763,0.08270923
1.05087,0.04050674,0.07756497
1.108729,0.02656984,0.07963675
1.285015,-0.1382022,0.0258628
1.412841,-0.3200901,-0.02700575
1.321623,-0.3808184,0.002578095
1.079661,-0.4004662,0.06156732
0.8719054,-0.4368335,0.09410841
0.8446839,-0.489137,0.09177416
1.025525,-0.5364562,0.05707087
1.209371,-0.5391642,0.04428234
1.301994,-0.4057458,0.0428711
1.343483,-0.1515502,0.04112885
1.177276,-0.04282528,0.07098614
0.9176212,-0.08115289,0.08161959
0.8372715,-0.08289488,0.09226903
0.8205647,-0.05717802,0.1221966
0.7546052,-0.02849705,0.1133642
0.6955375,-0.01277789,0.1159227
0.6730525,-0.01876065,0.1471523
0.687688,-0.04937304,0.1726832
0.7216662,-0.08333148,0.2003248
0.7685433,-0.08915541,0.2150719
0.8370815,-0.07007728,0.2285114
0.9510328,-0.04179887,0.2221214
1.07515,-0.06790093,0.1799951
1.164313,-0.1332357,0.1464166
1.259008,-0.2076329,0.1149138
1.334483,-0.2368521,0.1054026
1.304331,-0.1144252,0.1617083
1.275126,0.01232813,0.2659582
1.381518,-0.01932387,0.3158074
1.432819,-0.1997053,0.1810148
1.275314,-0.4675805,0.0375086
1.060216,-0.6086509,0.1043361
0.9208018,-0.530261,0.1573802
0.8328253,-0.3577886,0.1004556
0.7549892,-0.1807652,0.0831367
0.7984583,-0.1361587,0.02803452
0.9293797,-0.2201827,-0.007748803
0.9568462,-0.2284619,0.04535693
0.9326755,-0.2479894,0.03617435
0.8807967,-0.3241103,0.03634872
0.8209679,-0.2784531,0.05470097
0.8506612,-0.2372251,0.008405246
0.8971993,-0.2088607,-0.01849627
0.9294954,-0.1039697,-0.05619396
0.9268358,-0.08397404,-0.06734407
0.9022221,-0.08732016,-0.02531394
0.9260836,-0.03708202,-0.01370824
0.9298935,0.03090096,0.01421034
0.9403352,0.07956951,0.01362269
0.9933221,-0.01502636,-0.001105452
1.044508,-0.1435764,0.0433982
1.098326,-0.1959383,0.06685352
1.101229,-0.2040102,0.09125585
1.085361,-0.1360781,0.1176153
1.105361,-0.06700419,0.1199174
1.144209,-0.06188965,0.1254629
1.222383,-0.1108122,0.06280065
1.272519,-0.2246411,-0.03210804
1.256201,-0.3891468,-0.03561649
1.201806,-0.5085226,0.05666448
1.092485,-0.4950443,0.1315007
0.9401942,-0.4740976,0.100466
0.7919593,-0.5036275,0.06679642
0.8633635,-0.4941803,0.06789009
1.236337,-0.4441801,0.003935707
1.553045,-0.2702669,-0.05612559
1.522977,-0.06146893,-0.0196146
1.148525,-0.06553599,0.06591267
0.7737086,-0.09269318,0.1597355
0.7526771,-0.02766702,0.1980242
0.831151,-0.08186825,0.1388856
0.7685431,-0.1152184,0.09870712
0.7171195,-0.07613168,0.1194423
0.7005262,-0.1316967,0.1174587
0.6774752,-0.1483851,0.1225057
0.6940653,-0.1594571,0.1593472
0.7311871,-0.2012105,0.1913136
0.7645975,-0.1370683,0.2156371
0.8508639,-0.08511263,0.2153057
0.9628246,-0.07802517,0.2160131
1.068378,-0.1160109,0.2094649
1.194219,-0.2094281,0.1323736
1.292853,-0.2223225,0.06435979
1.350297,-0.1454229,0.0855805
1.333323,0.005030498,0.1136183
1.289763,0.0905081,0.1043131
1.323951,-0.04511279,0.1224654
1.354103,-0.3037058,0.1238371
1.34452,-0.5627838,0.06592197
1.235335,-0.6429488,0.07702744
0.9866389,-0.5005985,0.1375294
0.7640566,-0.347391,0.1461983
0.6728329,-0.2544215,0.1381333
0.7249794,-0.2186982,0.1013872
0.8064046,-0.2626365,0.05822918
0.8581189,-0.313605,0.04905068
0.9222313,-0.360252,0.03514391
0.8950878,-0.3798371,0.02445711
0.8647095,-0.3146519,0.01321256
0.9034169,-0.2626149,-0.0006776192
0.884832,-0.198019,-0.004282737
0.8908612,-0.1003187,-0.01399977
0.9142839,-0.08207423,-0.01309524
0.9223577,-0.01020819,-0.009039093
0.9854643,0.1020213,-0.01226755
0.9939892,0.09390078,-0.0007245818
0.9865809,0.06356214,0.01029253
1.036581,0.00821282,0.009666539
1.069794,-0.1256213,0.01907071
1.114836,-0.2130366,0.04439154
1.127135,-0.1870335,0.05645758
1.084722,-0.09976652,0.04974436
1.083377,-0.02801475,0.05281294
1.160625,-0.07674126,0.05865821
1.314846,-0.2297566,0.0507799
1.391721,-0.3364534,0.04384259
1.257614,-0.3901612,0.04703151
1.034936,-0.4250653,0.04598812
0.8852468,-0.4869302,0.04070511
0.9025465,-0.6020879,0.04376691
1.070632,-0.6034567,0.04574951
1.231893,-0.4372836,0.04755125
1.256773,-0.1712693,0.05983493
1.152136,0.009584418,0.07399388
1.00507,-0.04902861,0.08349895
0.8808995,-0.1029699,0.09960563
0.8254889,-0.08073073,0.1249936
0.8070333,-0.0720313,0.1271945
0.7322418,-0.01963681,0.1153046
0.6914522,-0.030101,0.1323854
0.7234538,-0.06518913,0.1612345
0.7154542,-0.0623246,0.1844943
0.7465038,-0.1233198,0.1888077
0.8083095,-0.1372956,0.1858565
0.8216026,-0.07595178,0.2249655
0.891154,-0.05328996,0.2588376
1.003327,-0.07585138,0.2567826
1.117687,-0.1412983,0.2271991
1.24327,-0.185153,0.1398344
1.33129,-0.1485641,0.08674264
1.364615,-0.0498971,0.1365182
1.34228,0.06148093,0.2274658
1.327749,0.05791148,0.2725026
1.333288,-0.1449076,0.1504013
1.308433,-0.461185,-0.02413483
1.255842,-0.6518034,-0.007784395
1.097986,-0.5833282,0.08450304
0.8492706,-0.4098535,0.1035089
0.7050126,-0.2600842,0.120623
0.7202968,-0.198286,0.1080389
0.7770353,-0.2741659,0.07194427
0.8250283,-0.3555016,0.06677484
0.87717,-0.429767,0.04172869
0.8882712,-0.4982689,0.02822616
0.864435,-0.4333681,0.02567301
0.8600995,-0.3723074,0.008891437
0.8835303,-0.271223,-0.01400286
0.9134394,-0.06543753,-0.0693461
0.9146421,-0.06989829,-0.05919368
0.9317406,-0.08510888,-0.00407288
0.9747216,0.0781375,0.006684895
0.9701547,0.07831453,0.02299809
0.9724128,0.01865766,0.006007648
1.021126,0.02929341,-0.008801979
1.049414,-0.04128711,0.01278156
1.071582,-0.1140319,0.01620943
1.127924,-0.2063512,0.04811156
1.156588,-0.2721952,0.06518882
1.108078,-0.1457308,0.04653465
1.086427,-0.05735695,0.04753557
1.16117,-0.1119917,0.04006028
1.230234,-0.1465306,0.03884959
1.258331,-0.2748858,0.04326812
1.284024,-0.4532476,0.03605253
1.196209,-0.4354882,0.04458168
0.9595037,-0.4112015,0.06168181
0.846618,-0.5393857,0.07025338
0.987471,-0.5873157,0.06690925
1.169562,-0.5494157,0.08219832
1.266191,-0.4331383,0.1075613
1.257943,-0.1526148,0.09904826
1.110942,-0.01820112,0.09149885
0.9242697,-0.06627633,0.09139737
0.8347464,-0.04822917,0.09771266
0.8196901,-0.03937685,0.129518
0.7733122,-0.03578085,0.1334467
0.7249602,-0.02286037,0.126506
0.7263481,-0.04533061,0.1424982
0.7217824,-0.07017827,0.1460735
0.7509627,-0.1344572,0.1626588
0.8165602,-0.1741882,0.1980411
0.8344016,-0.1485854,0.2255272
0.8606969,-0.1110266,0.2390418
0.9312098,-0.07247016,0.2325577
1.028812,-0.07469057,0.2259764
1.145974,-0.1250571,0.1981949
1.239265,-0.1652712,0.1366733
1.290631,-0.124125,0.108021
1.284382,-0.0200153,0.1532372
1.276493,0.05852046,0.2537812
1.308525,0.02411789,0.29464
1.324297,-0.2068447,0.1196191
1.322158,-0.5209506,-0.07971812
1.264774,-0.6418648,0.01718858
1.077129,-0.5087706,0.146331
0.8016893,-0.3613425,0.1057918
0.6627334,-0.2846294,0.1418496
0.7399945,-0.2283315,0.1272928
0.7934338,-0.2982057,0.0382453
0.8431179,-0.3884705,0.06130513
0.9329129,-0.4195668,0.01614284
0.8951617,-0.4461376,-0.02960492
0.8839408,-0.3420176,0.002958459
0.9236124,-0.2335989,-0.02712929
0.8953315,-0.1771514,-0.03330359
0.9081694,-0.05865937,-0.0299403
0.9125725,-0.0189728,-0.02393106
0.9155464,-0.01198118,0.02139491
0.9608463,0.04984256,0.01916406
0.9658875,0.08558578,-0.002379556
0.9991689,0.05129472,-0.02761864
1.051607,-0.05287973,-0.03710722
1.080321,-0.1569176,-0.005698929
1.109474,-0.2284003,0.03502821
1.093103,-0.1948001,0.08091332
1.055623,-0.08368507,0.07714732
1.037908,-0.005926384,0.06303375
1.105008,0.008944635,0.07932621
1.270235,-0.136727,0.05553425
1.356152,-0.3246198,0.04086299
1.288904,-0.4114471,0.05947538
1.12672,-0.4627956,0.06128229
0.9258264,-0.5393261,0.06161422
0.8607557,-0.6661873,0.05825099
1.005685,-0.6779404,0.04587666
1.111352,-0.5714216,0.04317404
1.104909,-0.3480498,0.07157785
1.162547,0.01525297,0.1092272
1.158831,0.04771067,0.09750051
1.016959,-0.1160255,0.08810572
0.913882,-0.0533301,0.1204072
0.8675007,-0.08167587,0.1272475
0.8476573,-0.1082371,0.115689
0.785961,-0.01305914,0.1139939
0.7050449,-0.07863151,0.1215172
0.7296591,-0.1249126,0.1499622
0.7511891,-0.152597,0.1798816
0.7793624,-0.2346281,0.2027146
0.8542358,-0.1750381,0.2075345
0.8681776,-0.1154563,0.1994321
0.9139677,-0.07063391,0.2061923
0.9974844,-0.01649434,0.2008216
1.077308,-0.1087442,0.1705423
1.205021,-0.2019655,0.1180905
1.305334,-0.2130085,0.07435184
1.348185,-0.1266694,0.1058257
1.335213,0.06129049,0.1852138
1.317886,0.1309245,0.2571325
1.329279,0.06792526,0.2536658
1.26303,-0.04869296,0.1280869
1.195508,-0.3062744,0.01160739
1.198642,-0.5677754,0.01031802
1.127809,-0.5424337,0.06311663
0.9325832,-0.3938286,0.09123765
0.7372777,-0.3659334,0.08856419
0.7017766,-0.2803949,0.09372507
0.7988814,-0.246561,0.09480818
0.8679873,-0.3627253,0.08487219
0.8851085,-0.391462,0.06639063
0.8889991,-0.4178435,0.02660731
0.8866861,-0.3826155,0.008944963
0.9065324,-0.2513182,-0.001736844
0.9354782,-0.2084961,-0.03243322
0.9384877,-0.1275286,-0.0375339
0.9464384,-0.08404655,-0.02156323
0.9619389,-0.0947802,0.001907598
0.9581719,-0.01727875,0.02063985
0.9698964,-0.002474129,0.01526675
1.009966,-0.02404327,0.009431927
1.047086,-0.05198567,0.01154833
1.075358,-0.131323,0.01787829
1.103427,-0.1856891,0.03042858
1.116532,-0.2010735,0.04482069
1.085239,-0.1306279,0.06578215
1.030434,-0.02539196,0.08653409
1.022128,0.00445075,0.0883333
1.10276,-0.06210195,0.06528971
1.241775,-0.2005095,0.03090574
1.313208,-0.3133384,0.02154057
1.223037,-0.3630911,0.05275301
1.057261,-0.3867705,0.07484152
0.9075893,-0.4595208,0.05701402
0.8375096,-0.5512296,0.03964121
0.9502798,-0.5499506,0.04547095
1.128426,-0.4700954,0.05923403
1.212184,-0.2750072,0.07451056
1.216264,-0.03952303,0.08758254
1.10224,0.007179472,0.08889118
0.9537357,-0.08576277,0.08747481
0.9029319,-0.125684,0.09972638
0.8610057,-0.09333593,0.114735
0.7868927,-0.07598451,0.1271315
0.741767,-0.06128092,0.1405587
0.7592948,-0.04464234,0.1457771
0.8129988,-0.09142486,0.1545034
0.8619574,-0.1325537,0.1653032
0.8877786,-0.1331278,0.1660941
0.8640579,-0.1213582,0.1858318
0.8564405,-0.07293306,0.217373
0.872808,-0.03377253,0.2209073
0.8919465,-0.04741096,0.2069034
0.9726702,-0.08891652,0.1944867
1.02225,-0.1205322,0.1780608
1.062318,-0.1742395,0.1470095
1.210615,-0.2207393,0.1138898
1.320352,-0.1125351,0.1320692
1.337944,0.007508447,0.2195783
1.406885,-0.08331079,0.2653805
1.463523,-0.2498585,0.1537609
1.323596,-0.3818051,0.04037531
1.073401,-0.4613965,0.1287514
0.8823407,-0.3842218,0.2193016
0.7681657,-0.2692762,0.1506106
0.7793173,-0.2515997,0.08161824
0.8949511,-0.2655636,-0.0009292288
0.973932,-0.3232788,-0.05039075
0.9168414,-0.3670374,0.05310648
0.8164382,-0.3942917,0.1113652
0.8264362,-0.4447988,0.09581251
0.8349368,-0.3697263,0.07960312
0.8454275,-0.2739204,0.01063757
0.9357355,-0.2362274,-0.0191735
0.9421854,-0.1285344,-0.02750298
0.9302439,-0.05276044,-0.04731228
0.9696344,-0.06146378,-0.02900738
0.974824,-0.05758462,-0.01955811
0.9953312,0.002654564,-0.007115585
1.003158,0.02206907,-0.001742563
1.003993,-0.02907363,-0.01193712
1.004584,-0.04640387,-0.006121908
0.9786918,-0.1193123,0.005207074
1.017137,-0.2257491,0.04707278
1.052253,-0.2391986,0.07824825
1.038761,-0.1708814,0.06120927
1.052001,-0.06314331,0.05244706
