accx,accy,accz
1.198963,-0.2153853,-0.695907
1.236123,-0.2666467,-0.6950822
1.107556,-0.2338858,-0.7036879
0.8740545,-0.2318044,-0.7899783
0.779382,-0.334502,-0.7330895
0.8443663,-0.4070352,-0.6023476
0.8756986,-0.3639121,-0.5391899
0.8431964,-0.2927369,-0.4468626
0.8744308,-0.2466944,-0.4586226
0.9079138,-0.229695,-0.5125915
0.8717858,-0.2254959,-0.4501991
0.8374574,-0.225144,-0.4468246
0.7735457,-0.2771163,-0.4112616
0.7216107,-0.3794229,-0.3099768
0.745374,-0.4095493,-0.2796293
0.7530441,-0.3742647,-0.2308462
0.7761297,-0.3739878,-0.2125071
0.8195768,-0.3539985,-0.2192767
0.8189009,-0.322294,-0.2172812
0.8289317,-0.3169594,-0.264166
0.8189222,-0.3086391,-0.2486307
0.7701757,-0.321707,-0.2021633
0.7573483,-0.3087274,-0.1599471
0.7663132,-0.2832961,-0.09248529
0.7888002,-0.2892255,-0.08556434
0.8468636,-0.272601,-0.09416971
0.9215682,-0.2730389,-0.1271726
1.015916,-0.28973,-0.2166744
1.105271,-0.2952641,-0.2907018
1.142099,-0.3108281,-0.3214236
1.181744,-0.2933682,-0.2582291
1.236732,-0.2542428,-0.1664869
1.238749,-0.2371542,-0.1269237
1.218005,-0.2882143,-0.1209529
1.162581,-0.380994,-0.1847077
1.043949,-0.4124806,-0.2616664
0.987328,-0.4766577,-0.3010327
1.014366,-0.6086438,-0.4024379
0.9880616,-0.632511,-0.5849609
0.8913345,-0.5229676,-0.6940374
0.8133463,-0.375159,-0.6428301
0.7517444,-0.2411396,-0.5591553
0.679546,-0.1147216,-0.4845425
0.6743061,-0.05371966,-0.3789359
0.7457188,-0.1369174,-0.3511965
0.8314218,-0.2308851,-0.3937559
0.9138364,-0.2863849,-0.418492
0.9246197,-0.3403768,-0.4654963
0.8870502,-0.3000501,-0.4862576
0.8926801,-0.2443341,-0.4427912
0.8779095,-0.212441,-0.4145235
0.8303518,-0.1538733,-0.3903178
0.8004075,-0.160551,-0.3513648
0.7884528,-0.1647261,-0.3313102
0.8205584,-0.1217635,-0.3577523
0.8478337,-0.092107,-0.4162395
0.8492071,-0.02679751,-0.4289847
0.863536,0.02388841,-0.4198448
0.8645992,0.02277192,-0.4374025
0.8927603,-0.003123913,-0.4362285
0.9654484,-0.06222002,-0.4076627
1.036903,-0.09723009,-0.38844
1.104086,-0.09113243,-0.4460371
1.144606,-0.06484908,-0.551292
1.164019,-0.001473096,-0.602208
1.176574,0.06975042,-0.6500913
1.184836,0.04781759,-0.7028005
1.171669,-0.05921574,-0.7023777
1.073095,-0.1402036,-0.7483518
0.9395242,-0.2425367,-0.8150522
0.8670469,-0.3970921,-0.711655
0.8512027,-0.5279772,-0.5351548
0.87472,-0.5622548,-0.4703695
0.9304346,-0.4681633,-0.4266111
0.9956609,-0.3677078,-0.3748298
1.031414,-0.2706032,-0.3761005
1.000285,-0.1787602,-0.4109429
0.9247856,-0.1755026,-0.4603622
0.815195,-0.1713443,-0.4130854
0.6609484,-0.1919419,-0.315105
0.6265317,-0.2258629,-0.3090056
0.7159261,-0.2383327,-0.276954
0.7151756,-0.3172669,-0.202345
0.7481477,-0.3296206,-0.173651
0.8179532,-0.3035892,-0.1695844
0.7931355,-0.3534763,-0.165297
0.8109421,-0.3990662,-0.1347171
0.7727148,-0.4331094,-0.1052257
0.7114312,-0.3915932,-0.06388009
0.7595777,-0.3111237,-0.0418572
0.7710767,-0.277166,-0.09739999
0.834289,-0.240708,-0.1388589
0.9298075,-0.2278718,-0.1818335
0.9711116,-0.2068132,-0.2409861
1.077125,-0.1867966,-0.2593967
1.211494,-0.2373298,-0.2464471
1.311459,-0.2710099,-0.2034841
1.295671,-0.276125,-0.2107609
1.246769,-0.3576967,-0.2601197
1.238431,-0.4704533,-0.3279571
1.100195,-0.4702049,-0.4256297
1.004987,-0.4839978,-0.4236338
1.058384,-0.6753382,-0.4631722
1.028737,-0.7712419,-0.6818232
0.9008683,-0.5842975,-0.7956973
0.7601762,-0.3350835,-0.6243413
0.6898588,-0.1948661,-0.3927017
0.6776173,-0.1379984,-0.3676
0.6429178,-0.1187252,-0.3511635
0.6867124,-0.1598229,-0.2745844
0.8178952,-0.2334964,-0.4114776
0.9127685,-0.2787489,-0.5481951
0.9351476,-0.279138,-0.5448597
0.8998394,-0.2434979,-0.536725
0.881202,-0.2411181,-0.479234
0.8689139,-0.2433044,-0.45452
0.8220118,-0.2112969,-0.4268918
0.8118486,-0.1911708,-0.3877563
0.8021185,-0.1512503,-0.4216579
0.7827288,-0.1080954,-0.403379
0.80079,-0.06669937,-0.3921742
0.7982675,-0.01793885,-0.4002139
0.8075049,0.005717182,-0.3749838
0.8248419,0.04844246,-0.3935255
0.8204935,0.03483365,-0.3890907
0.8782682,-0.07026248,-0.3855918
0.9776479,-0.142071,-0.4144958
1.081309,-0.1555412,-0.4556649
1.186004,-0.1142833,-0.5351384
1.234528,-0.08113445,-0.5748943
1.238283,-0.1143344,-0.6258043
1.273221,-0.1810202,-0.7177027
1.300332,-0.2705338,-0.7580517
1.240619,-0.2950705,-0.7795096
1.151244,-0.2847088,-0.7705273
0.9548891,-0.3921644,-0.7120812
0.6936102,-0.5229356,-0.611992
0.7401961,-0.515837,-0.4902195
0.9421888,-0.3911475,-0.4405805
0.9867467,-0.2778849,-0.3789401
1.031907,-0.2446649,-0.322155
1.001877,-0.2295365,-0.4094118
0.8507061,-0.1915738,-0.4668162
0.7744481,-0.191249,-0.4678252
0.7104114,-0.2554736,-0.438317
0.6359986,-0.3041654,-0.2783
0.5945823,-0.3254905,-0.203267
0.6266744,-0.3271069,-0.2134931
0.7062033,-0.3049545,-0.1614631
0.702406,-0.3226524,-0.1686914
0.7274351,-0.3221775,-0.1848605
0.7428712,-0.3111903,-0.1521932
0.7040383,-0.3354129,-0.1088178
0.7491259,-0.3128135,-0.05549097
0.780639,-0.3065901,-0.04730959
0.8620083,-0.3180553,-0.09186455
0.9797551,-0.2938457,-0.2117932
1.02155,-0.2737837,-0.3669069
1.115621,-0.2425684,-0.3875691
1.22315,-0.2515723,-0.278952
1.311314,-0.2767759,-0.2041961
1.33081,-0.27771,-0.1828799
1.276836,-0.3219877,-0.213925
1.209834,-0.3541485,-0.3461975
1.051074,-0.3692985,-0.4386279
1.0176,-0.4841149,-0.4359509
1.08469,-0.6753041,-0.5233248
0.9823468,-0.7058297,-0.6984004
0.8419421,-0.4966039,-0.6942931
0.7265634,-0.3062436,-0.4870959
0.717999,-0.2545057,-0.3339022
0.7702406,-0.2780075,-0.2569652
0.7006423,-0.3293878,-0.2449691
0.7181693,-0.3665621,-0.3199005
0.8094239,-0.3754626,-0.4164719
0.8480331,-0.3068468,-0.5487695
0.8943564,-0.2186679,-0.565365
0.8493181,-0.1812514,-0.4856157
0.812024,-0.1596235,-0.4623702
0.8308652,-0.161182,-0.4138924
0.8053113,-0.1439214,-0.4200088
0.8211757,-0.1245749,-0.4449791
0.8151726,-0.1113442,-0.4078736
0.776797,-0.03284124,-0.4046642
0.7730256,0.03494894,-0.3795528
0.7651738,0.05648606,-0.3871683
0.795247,0.07529056,-0.4373579
0.8168644,0.07265851,-0.4222511
0.854288,-0.002538835,-0.3947787
0.954699,-0.1110702,-0.3789643
1.041346,-0.1289854,-0.4350037
1.177457,-0.1043556,-0.5313588
1.314271,-0.1010637,-0.5331014
1.342797,-0.1157507,-0.5535459
1.319372,-0.1863951,-0.6340233
1.260975,-0.2430948,-0.6641299
1.113397,-0.2367595,-0.713396
0.8769265,-0.2536211,-0.7777441
0.7749512,-0.3607425,-0.7198228
0.8687557,-0.4930288,-0.588202
0.8931664,-0.5192157,-0.4760482
0.8868524,-0.3871762,-0.4057642
0.9817195,-0.2044873,-0.4215283
1.023996,-0.1165317,-0.4623281
0.9402029,-0.08691877,-0.479553
0.8005047,-0.1113086,-0.4933015
0.7015284,-0.2409226,-0.4309204
0.6686273,-0.3826022,-0.313136
0.6400979,-0.4472187,-0.2035583
0.6381185,-0.4061412,-0.1040922
0.67376,-0.3574537,-0.07836421
0.7218729,-0.345743,-0.1224555
0.7577199,-0.3229538,-0.1831826
0.748143,-0.3444207,-0.2048429
0.755344,-0.3339207,-0.151042
0.78809,-0.2976872,-0.1020287
0.8224942,-0.3200846,-0.1051045
0.9067413,-0.3208765,-0.143893
1.044098,-0.3333854,-0.1971431
1.146943,-0.3179229,-0.2400808
1.124214,-0.2561423,-0.2351404
1.145897,-0.2517533,-0.1498001
1.276761,-0.2521463,-0.0971769
1.285279,-0.3012916,-0.1969573
1.202322,-0.3890687,-0.3507338
1.080188,-0.4167386,-0.3825768
0.9607763,-0.4735945,-0.3260816
1.012426,-0.5661522,-0.3670529
1.031848,-0.5991358,-0.5651825
0.8723454,-0.4772973,-0.751384
0.7540416,-0.2604233,-0.6742323
0.7528632,-0.1790115,-0.5312927
0.7686296,-0.1590489,-0.5450395
0.7235903,-0.09922124,-0.3960713
0.7032248,-0.1689116,-0.2304538
0.807299,-0.2776586,-0.3250361
0.9369411,-0.2775284,-0.4113056
0.9773957,-0.277775,-0.5348679
0.9075767,-0.2632292,-0.6224313
0.8098454,-0.2001654,-0.4734066
0.7538485,-0.1525413,-0.379099
0.7309999,-0.1133544,-0.380946
0.7615098,-0.09646257,-0.3790097
0.8013091,-0.08861243,-0.4048398
0.8383808,-0.04845869,-0.4056401
0.881629,0.01848281,-0.4234391
0.859757,0.08679304,-0.4310186
0.8560603,0.09894739,-0.4253008
0.9044995,0.06755826,-0.4417545
0.9317809,0.02957821,-0.4202566
0.9810047,-0.02248654,-0.4149548
1.038093,-0.04048984,-0.4286563
1.097356,-0.01015653,-0.4470411
1.158315,0.0005224724,-0.5039339
1.182532,-0.04508915,-0.5534648
1.22227,-0.1337754,-0.6014858
1.230076,-0.2017788,-0.6490994
1.119762,-0.1923156,-0.7511357
0.9618197,-0.2178404,-0.864439
0.8906418,-0.372665,-0.7483595
0.9203567,-0.5159623,-0.546275
0.93478,-0.5465769,-0.4859214
0.9674101,-0.4379484,-0.434428
1.054749,-0.2321658,-0.3835533
1.064804,-0.1180435,-0.3944742
0.9602775,-0.07664219,-0.432867
0.8088838,-0.04367092,-0.4682155
0.7224552,-0.1140988,-0.423921
0.711056,-0.2169491,-0.3413161
0.6638474,-0.270785,-0.2678651
0.6396552,-0.3020979,-0.182278
0.7008365,-0.3246875,-0.1290668
0.7698012,-0.3370886,-0.1060599
0.8135464,-0.3307312,-0.1131494
0.8274336,-0.3632381,-0.1173626
0.8235827,-0.40079,-0.07727242
0.8219687,-0.3635221,-0.05206236
0.8219737,-0.3058194,-0.0500477
0.8603213,-0.2549926,-0.09935159
0.971275,-0.2232356,-0.207191
1.091761,-0.2287602,-0.2878403
1.156196,-0.2479938,-0.2841848
1.251247,-0.2683775,-0.1414486
1.362773,-0.2664846,-0.01296772
1.329822,-0.2674253,-0.1205684
1.227492,-0.3023054,-0.2859515
1.123325,-0.3406384,-0.3173706
1.032164,-0.4207246,-0.3429044
1.123655,-0.5535475,-0.4041267
1.183813,-0.5849002,-0.4871927
0.9701082,-0.4276758,-0.6611342
0.7803635,-0.24571,-0.7420087
0.7601406,-0.1870476,-0.5677876
0.760047,-0.152981,-0.3647342
0.7319856,-0.1290383,-0.3002003
0.7464007,-0.225519,-0.2980222
0.8399694,-0.3184144,-0.3164634
0.919319,-0.3219415,-0.4061124
0.9219394,-0.3020504,-0.5375279
0.8591807,-0.2425936,-0.5526778
0.8152972,-0.1701327,-0.4451571
0.8110681,-0.101304,-0.3702398
0.7911265,-0.0540672,-0.3536063
0.8176192,-0.0455206,-0.3685009
0.8429221,-0.006703988,-0.3992689
0.826697,0.01066388,-0.4020089
0.8340749,0.01352273,-0.3986831
0.8300726,0.0715334,-0.3820275
0.8305948,0.08558828,-0.3587264
0.8497303,0.05243856,-0.3703716
0.9017545,0.01943655,-0.3637377
0.9686278,-0.02646987,-0.3507553
0.9695797,-0.01588981,-0.3733922
1.015467,0.04167873,-0.4320033
1.116882,0.07489812,-0.5122865
1.136065,0.09288777,-0.5164825
1.180892,0.06374236,-0.4722902
1.292211,0.008519788,-0.4907461
1.3033,-0.02394264,-0.5693147
1.27272,-0.09860101,-0.6777843
1.231872,-0.1430425,-0.7323968
1.018152,-0.1456298,-0.7106154
0.8232379,-0.2935757,-0.6689486
0.8449741,-0.4888916,-0.5683785
0.8972058,-0.5150635,-0.479173
0.9243783,-0.4144931,-0.4598414
0.9906745,-0.3190874,-0.3753931
1.031756,-0.2306035,-0.3267892
0.9612872,-0.1283782,-0.4386398
0.8364325,-0.1156825,-0.4946147
0.7789249,-0.183975,-0.4040528
0.7301267,-0.2488567,-0.300273
0.6624909,-0.2933204,-0.2346478
0.6573041,-0.3013015,-0.1715018
0.7108472,-0.3173738,-0.1227447
0.7841366,-0.3192191,-0.1309422
0.8133394,-0.3060892,-0.1404863
0.7958569,-0.3435579,-0.1235537
0.772568,-0.3554887,-0.1003023
0.7455175,-0.3168576,-0.05294853
0.7705913,-0.2749955,-0.04085799
0.8421367,-0.2567206,-0.08122446
0.9228591,-0.2622287,-0.1271598
1.05876,-0.2412465,-0.2027791
1.199277,-0.2333794,-0.2474728
1.271682,-0.2497937,-0.1838075
1.348413,-0.2682463,-0.1288461
1.41373,-0.3313375,-0.1902274
1.302637,-0.3815834,-0.3020671
1.08073,-0.37589,-0.3792898
0.9948289,-0.412105,-0.3795574
1.047622,-0.5388543,-0.3932318
1.051699,-0.5953681,-0.5756785
0.9132675,-0.4442897,-0.7275072
0.7728697,-0.2544707,-0.6171558
0.7759689,-0.192777,-0.4656272
0.7983058,-0.2008696,-0.4063081
0.7732405,-0.2541896,-0.3163772
0.7899341,-0.3583703,-0.2672873
0.843944,-0.390776,-0.3413624
0.8858301,-0.3300083,-0.4359311
0.8591335,-0.2760778,-0.5090905
0.7917664,-0.2055063,-0.5160766
0.7733615,-0.1466722,-0.4349167
0.7802582,-0.141411,-0.3998235
0.7975468,-0.1220153,-0.4141109
0.8360085,-0.1157455,-0.4252793
0.8569339,-0.1143152,-0.4428004
0.8664403,-0.07744142,-0.4203093
0.8649361,-0.03143126,-0.4014025
0.8466298,0.03487896,-0.4017125
0.8446903,0.07122156,-0.3933975
0.8578562,0.05590983,-0.4023874
0.8940366,0.01840362,-0.4016345
0.9579413,-0.05059549,-0.4020187
1.0315,-0.07266196,-0.4252486
1.112436,-0.03008786,-0.4872381
1.171517,-0.01786024,-0.555684
1.213122,-0.04998055,-0.5465742
1.246086,-0.09914853,-0.5673738
1.234444,-0.1529578,-0.6519725
1.192507,-0.1888873,-0.6664536
1.119394,-0.1965055,-0.6972962
0.9783367,-0.2427536,-0.75349
0.8292935,-0.385228,-0.6389149
0.7810069,-0.4970776,-0.4889501
0.8224126,-0.4420436,-0.4793007
0.8815656,-0.3222324,-0.427236
0.9593115,-0.2430586,-0.3380109
1.010205,-0.1433605,-0.3730523
0.9588851,-0.07777491,-0.4393033
0.8835628,-0.1078669,-0.4645283
0.8516841,-0.1560456,-0.4403958
0.816503,-0.2314121,-0.3676075
0.7800124,-0.297151,-0.3048704
0.7390864,-0.3454305,-0.2083267
0.7203229,-0.3840771,-0.1557286
0.7638638,-0.3102424,-0.1995968
0.7747225,-0.2765509,-0.1619319
0.765273,-0.3171405,-0.1388455
0.7710528,-0.2914155,-0.1508945
0.7381779,-0.2995698,-0.04049367
0.7426193,-0.3021473,-0.0002183366
0.804883,-0.279526,-0.0633853
0.934259,-0.289451,-0.1355425
1.085401,-0.2717817,-0.2333217
1.113833,-0.2618486,-0.2418263
1.158502,-0.2409551,-0.2390162
1.231888,-0.2342932,-0.2605618
1.226869,-0.2724402,-0.2044737
1.32202,-0.3011957,-0.2003853
1.37502,-0.3655993,-0.2689374
1.187376,-0.4037902,-0.3294636
1.035147,-0.4300914,-0.3626909
1.052361,-0.5284699,-0.370739
1.070839,-0.5709306,-0.5169902
0.9584791,-0.4604481,-0.754913
0.7995562,-0.2492454,-0.7736372
0.741316,-0.1443271,-0.592056
0.7327494,-0.1943635,-0.4259799
0.7185746,-0.2694965,-0.301591
0.7205893,-0.3930791,-0.2198301
0.7831242,-0.4678009,-0.2334271
0.878212,-0.4490011,-0.3391424
0.8908707,-0.3974472,-0.4799668
0.8629012,-0.2596312,-0.5429356
0.8484697,-0.1772726,-0.4748921
0.8299367,-0.1377696,-0.4007971
0.8179889,-0.03857955,-0.3892192
0.8168991,-0.03146897,-0.3813638
0.8362942,-0.02550268,-0.3988498
0.8471858,0.02948,-0.4253742
0.8596508,0.01581178,-0.409694
0.8618967,0.03734832,-0.4010242
0.8395282,0.09045985,-0.3948689
0.8548541,0.09701057,-0.3887419
0.862746,0.06717259,-0.399973
0.8702459,-0.009424576,-0.392403
0.9177444,-0.07306963,-0.3994963
0.9826458,-0.09089512,-0.442562
1.097885,-0.08601597,-0.5070737
1.186396,-0.08512034,-0.557093
1.223427,-0.1173651,-0.5469163
1.271307,-0.156623,-0.5645186
1.280114,-0.2033961,-0.610166
1.259206,-0.2432724,-0.6204973
1.174433,-0.2450855,-0.7245948
1.016012,-0.2802106,-0.8525203
0.9159596,-0.3760443,-0.7515614
0.8177273,-0.429873,-0.5612448
0.7424727,-0.3784514,-0.4848006
0.8161965,-0.2855505,-0.4023426
0.8643987,-0.1996653,-0.3129233
0.894494,-0.1286865,-0.3018803
0.9818424,-0.114796,-0.3238243
0.931878,-0.1302268,-0.3538487
0.8516945,-0.1529629,-0.3318298
0.8181591,-0.2152897,-0.3002956
0.7402937,-0.2742555,-0.3079514
0.7479569,-0.3136551,-0.2590008
0.764663,-0.3363511,-0.1985713
0.7339126,-0.31528,-0.1592996
0.7418944,-0.3044529,-0.1354633
0.7075471,-0.3349875,-0.1288938
0.6816848,-0.3653963,-0.06717845
0.7010466,-0.3861331,-0.02856247
0.7434276,-0.3961658,-0.03675226
0.8503129,-0.3940796,-0.07145155
0.956024,-0.3778396,-0.1973819
1.075408,-0.3189116,-0.306404
1.217586,-0.2492997,-0.3280184
1.280117,-0.2506605,-0.2950657
1.304781,-0.2764902,-0.2580528
1.361241,-0.2755132,-0.2744901
1.339284,-0.3552304,-0.2692856
1.143202,-0.4869033,-0.2507809
0.9428131,-0.5161701,-0.2764141
0.9441585,-0.5000098,-0.3220091
1.017814,-0.5130751,-0.4125786
0.9655441,-0.4702874,-0.5382459
0.8708625,-0.3390091,-0.6502763
0.7645291,-0.185717,-0.6547951
0.6606725,-0.08852594,-0.5376159
0.694755,-0.07920726,-0.4356093
0.7358061,-0.1309824,-0.3916486
0.8083898,-0.2641346,-0.4023279
0.9841728,-0.4362431,-0.4051241
0.9703205,-0.4477506,-0.3888159
0.8836748,-0.3460377,-0.4563217
0.8692063,-0.2879646,-0.4978607
0.792583,-0.1924099,-0.4687299
0.7983772,-0.1574977,-0.4530058
0.8222178,-0.1788558,-0.4225152
0.7706282,-0.08675309,-0.4131981
0.7966281,-0.0809175,-0.4218226
0.819465,-0.08226742,-0.4175818
0.8106085,0.02605834,-0.4145673
0.8279049,0.003695366,-0.3994881
0.8170784,0.02050874,-0.3816489
0.8226506,0.1063181,-0.3593223
0.8436813,0.06106447,-0.3862236
0.8641719,-0.001800296,-0.4632289
0.9384049,-0.07814493,-0.500232
1.018759,-0.122061,-0.5082989
1.107039,-0.1113518,-0.5219063
1.198039,-0.1578456,-0.5649353
1.220279,-0.1996983,-0.6266678
1.234676,-0.262277,-0.657956
1.240312,-0.3185744,-0.6796574
1.15665,-0.2763722,-0.7556249
1.022858,-0.2828114,-0.818761
0.8942802,-0.3880081,-0.6738948
0.7849749,-0.488404,-0.4500951
0.764394,-0.50645,-0.4063078
0.8646549,-0.4101099,-0.4031194
0.9532602,-0.2966129,-0.3563662
0.9837433,-0.2039017,-0.3694415
0.9771178,-0.1034075,-0.400093
0.9051136,-0.07458485,-0.4068549
0.8424,-0.1162632,-0.3719081
0.7804224,-0.1534764,-0.3031294
0.7279742,-0.1858863,-0.2605711
0.7308663,-0.2333408,-0.2148573
0.7124713,-0.289852,-0.1598018
0.7316896,-0.3048349,-0.1388093
0.7672934,-0.291922,-0.1194362
0.7560619,-0.3034837,-0.09576008
0.7675569,-0.3161814,-0.07430918
0.7717981,-0.341405,-0.0381794
0.8096858,-0.3790259,-0.03151984
0.8892445,-0.3624736,-0.08812149
0.9804163,-0.316106,-0.21658
1.103045,-0.2973355,-0.3478798
1.159838,-0.2882193,-0.3436442
1.236935,-0.2874184,-0.2562521
1.363753,-0.3003118,-0.2191459
1.347039,-0.3294204,-0.2329061
1.244174,-0.3729509,-0.2529324
1.091299,-0.3731488,-0.254571
0.9345619,-0.3920495,-0.27798
1.003197,-0.5039901,-0.3475189
1.069901,-0.5505483,-0.4659226
0.8918717,-0.4223602,-0.6173085
0.7552691,-0.2264194,-0.6233051
0.737481,-0.1056566,-0.4863634
0.760181,-0.09585814,-0.3924295
0.8162372,-0.1759819,-0.3054144
0.8188766,-0.3131102,-0.2949532
0.8565971,-0.3910589,-0.4000741
0.8875387,-0.3825351,-0.4521309
0.8310898,-0.3331926,-0.5057665
0.816021,-0.2439029,-0.5214213
0.795694,-0.1953367,-0.4385429
0.7797298,-0.1817499,-0.3875192
0.7973279,-0.1360869,-0.3476348
0.7951689,-0.1003465,-0.3637457
0.8361488,-0.06097606,-0.4168641
0.8577807,0.003425557,-0.4364611
0.8523452,0.05319246,-0.4805006
0.8713626,0.07396585,-0.4529606
0.8658264,0.06981875,-0.4170607
0.8778937,0.05253262,-0.4371895
0.8909082,0.01406005,-0.4132541
0.9149919,-0.05593313,-0.4287159
1.011626,-0.108485,-0.4655067
1.10137,-0.1007102,-0.4868197
1.163925,-0.1050401,-0.5267458
1.227562,-0.170181,-0.5717917
1.270915,-0.2229062,-0.6602796
1.284697,-0.2368449,-0.7061944
1.196859,-0.2127708,-0.6956849
0.9489313,-0.1936627,-0.7100699
0.7307042,-0.2982483,-0.6859221
0.7384818,-0.4702193,-0.5891529
0.829056,-0.5397106,-0.4499449
0.875579,-0.4659579,-0.3768365
0.9502761,-0.3395129,-0.3984317
1.025549,-0.2286502,-0.4205305
1.017069,-0.1268913,-0.4738456
0.9512892,-0.1147657,-0.5139938
0.8784796,-0.1827323,-0.4602762
0.7850018,-0.2173994,-0.3849479
0.7331048,-0.2443436,-0.3258655
0.752903,-0.2566275,-0.2785605
0.7343501,-0.2690278,-0.2161783
0.7282804,-0.2910651,-0.1703215
0.7789345,-0.2706554,-0.2028545
0.8048562,-0.2951406,-0.2015397
0.8328585,-0.3445687,-0.1507766
0.8386186,-0.3514283,-0.1299421
0.8126428,-0.3434169,-0.09710308
0.8191844,-0.3084396,-0.1066776
0.8310271,-0.3003003,-0.1460134
0.8437555,-0.2995509,-0.1373935
0.8735271,-0.2827729,-0.1575494
0.9745077,-0.2867223,-0.2059051
1.107473,-0.2664391,-0.2456764
1.094118,-0.2838727,-0.2232511
1.112528,-0.3290456,-0.1545862
1.291151,-0.331286,-0.1980928
1.295039,-0.3665329,-0.2959467
1.116031,-0.4115374,-0.362044
0.9983833,-0.4449689,-0.3764795
0.9743842,-0.4866944,-0.367177
1.009609,-0.4923136,-0.4873656
0.9536541,-0.4734531,-0.594264
0.8241609,-0.3834892,-0.6093763
0.7635503,-0.2059721,-0.6356254
0.7450276,-0.09064282,-0.5675139
0.7770524,-0.08283287,-0.4805591
0.8010682,-0.1097103,-0.4340485
0.8388436,-0.1734596,-0.4003457
0.9211812,-0.256987,-0.4473452
0.8985607,-0.2894087,-0.4796967
0.8539401,-0.2718313,-0.4960886
0.827656,-0.2362297,-0.5032803
0.7945752,-0.1921733,-0.463831
0.8259705,-0.1543749,-0.4388587
0.820985,-0.1339506,-0.3853692
0.8146374,-0.124941,-0.3784775
0.8555331,-0.109385,-0.4340085
0.8752087,-0.07980293,-0.4370104
0.8903911,-0.04223769,-0.4487023
0.8610886,-0.001848396,-0.4480803
0.826487,0.03515419,-0.427051
0.8254264,0.04008248,-0.4270255
0.8270502,0.008956972,-0.400742
0.8539959,-0.0218301,-0.3967462
0.8809056,-0.04210883,-0.4291093
0.947366,-0.03510442,-0.4866365
1.064777,-0.00569451,-0.5687967
1.144712,0.00224958,-0.5985512
1.175752,-0.03508772,-0.5967139
1.190577,-0.1226118,-0.6425231
1.231765,-0.2092587,-0.7126997
1.236182,-0.2576563,-0.725645
1.106196,-0.2819409,-0.751747
0.9250771,-0.3221837,-0.8179175
0.8208506,-0.411995,-0.7130792
0.8123803,-0.4666863,-0.5393764
0.843609,-0.4438161,-0.5017957
0.892447,-0.3842431,-0.4659518
0.9443422,-0.2931151,-0.4242242
0.9552751,-0.2217474,-0.4273105
0.9142056,-0.1918681,-0.4194351
0.8202577,-0.1964128,-0.3957414
0.7369074,-0.2241917,-0.3343698
0.7107497,-0.2481526,-0.2702852
0.6986657,-0.29027,-0.2293712
0.7216381,-0.3040735,-0.2041
0.7859125,-0.2907627,-0.1978302
0.8211279,-0.3023142,-0.1763383
0.8030006,-0.2891208,-0.1811779
0.7788171,-0.2935873,-0.185169
0.7631292,-0.316789,-0.1241046
0.7234752,-0.2941991,-0.07138878
0.72086,-0.2945089,-0.05993362
0.8008081,-0.3119553,-0.09745358
0.9190532,-0.3140156,-0.1697658
1.050014,-0.3214749,-0.2676332
1.154723,-0.3198296,-0.385563
1.220782,-0.3209504,-0.3865412
1.244454,-0.2972878,-0.2950592
1.230032,-0.2869725,-0.2205838
1.221087,-0.3940603,-0.16438
1.15217,-0.5021642,-0.2310002
1.021591,-0.485598,-0.3496239
0.9833702,-0.4882549,-0.4002397
1.024571,-0.5657437,-0.5225324
1.004293,-0.5318866,-0.6498063
0.8906438,-0.3730274,-0.6211754
0.7788146,-0.2156772,-0.513485
0.7748631,-0.1548073,-0.3869624
0.8132585,-0.2211087,-0.288562
0.7937108,-0.2683339,-0.2785766
0.8008945,-0.3286208,-0.3207414
0.8419666,-0.3986425,-0.3879778
0.8285574,-0.3114095,-0.481759
0.8201385,-0.2684063,-0.5454174
0.8193199,-0.2953957,-0.5141934
0.8056813,-0.258138,-0.4559584
0.8209739,-0.2620269,-0.4269686
0.8225268,-0.2391422,-0.3563876
0.8326879,-0.206242,-0.3404993
0.8648337,-0.1738673,-0.4222689
0.8774873,-0.05767663,-0.4282934
0.8808261,-0.009812076,-0.4121748
0.8587633,-0.003087498,-0.4116979
0.8355245,0.07133423,-0.3563506
0.8154198,0.1035463,-0.3353179
0.8021103,0.05318854,-0.3437863
0.817858,0.0008341657,-0.3533923
0.8298601,-0.04075717,-0.3709489
0.9080956,-0.1043141,-0.3894769
1.031733,-0.1331844,-0.4513608
1.108399,-0.1398139,-0.5040675
1.193589,-0.1646959,-0.5171163
1.251715,-0.1718045,-0.5146824
1.253648,-0.1883756,-0.5346224
1.271939,-0.2185732,-0.5823111
1.265524,-0.2438615,-0.6081025
1.125887,-0.244839,-0.7172566
0.9394728,-0.2538442,-0.8316052
0.9025344,-0.3607063,-0.6991603
0.9110938,-0.4519823,-0.4672659
0.9139547,-0.412962,-0.3812528
1.000727,-0.3337192,-0.3836066
0.9672657,-0.2731817,-0.3841106
0.870075,-0.2246731,-0.3858955
0.8694221,-0.1967038,-0.3610573
0.8011262,-0.1932961,-0.3330157
0.7387045,-0.2141145,-0.30971
0.7050361,-0.249509,-0.2638813
0.6473719,-0.2585266,-0.2419218
0.6806209,-0.2664612,-0.1950893
0.7106819,-0.2983015,-0.137144
0.7562062,-0.3021991,-0.1453651
0.8048706,-0.3249827,-0.1452899
0.7536774,-0.3721657,-0.125677
0.7611227,-0.3816327,-0.09469007
0.7712003,-0.3955527,-0.05155753
0.7584767,-0.417423,-0.05757405
0.8352611,-0.4162575,-0.1104743
0.9263559,-0.3755365,-0.1817768
1.037657,-0.319372,-0.2105088
1.153919,-0.3092824,-0.1776584
1.327599,-0.3036073,-0.1706418
1.486259,-0.2908964,-0.205241
1.379668,-0.3073378,-0.2301349
1.161653,-0.3189067,-0.2363654
0.9736475,-0.366109,-0.2454616
0.9248031,-0.4837715,-0.2875235
1.031653,-0.5525869,-0.4097826
0.9472757,-0.4820481,-0.5872798
0.8204177,-0.3353779,-0.6499971
0.8011707,-0.2008703,-0.5740981
0.7522307,-0.1135221,-0.5237981
0.8010185,-0.1288212,-0.4620265
0.8051521,-0.2287362,-0.3696659
0.8227561,-0.3097307,-0.3573853
0.9394471,-0.3424863,-0.354453
0.9050178,-0.3197564,-0.3852239
0.9107472,-0.2893434,-0.4768441
0.8982213,-0.2445471,-0.5065571
0.7850044,-0.1254185,-0.5158888
0.8281918,-0.07970913,-0.4866556
0.8368206,-0.09942396,-0.4159607
0.7906686,-0.08482878,-0.4023864
0.8063242,-0.1218307,-0.4022954
0.7995099,-0.1347881,-0.4197761
0.8147864,-0.09348448,-0.4328024
0.8132135,-0.05436376,-0.4053929
0.81072,0.01280423,-0.3954253
0.8446203,0.0383195,-0.3966433
0.8681645,0.01114426,-0.4063319
0.9144728,-0.04031843,-0.4073972
0.9742035,-0.08816921,-0.4144561
1.06249,-0.06233266,-0.4688742
1.187492,-0.03772068,-0.5249161
1.279308,-0.07879698,-0.5881475
1.312292,-0.1402158,-0.6937546
1.291492,-0.1948316,-0.7785846
1.19214,-0.2207014,-0.7769839
1.007928,-0.2585782,-0.7657771
0.8781017,-0.3948653,-0.6951148
0.8535891,-0.5211435,-0.5072669
0.8319348,-0.4886076,-0.4630929
0.8748923,-0.410502,-0.4637311
0.9902115,-0.3393896,-0.3343396
1.046907,-0.2477686,-0.3463666
1.015331,-0.2148627,-0.4321488
0.9310256,-0.1785395,-0.4463441
0.8566642,-0.1570549,-0.436582
0.7681833,-0.2074878,-0.3573187
0.6667262,-0.1937367,-0.3070717
0.6521365,-0.1913847,-0.261272
0.6888264,-0.245403,-0.1804597
0.7299048,-0.2475842,-0.1518106
0.7624393,-0.2799453,-0.1175636
0.762567,-0.3235347,-0.1013718
0.7594314,-0.3486886,-0.08787022
0.7604479,-0.3783133,-0.05297685
0.7801905,-0.3518261,-0.0541253
0.8159086,-0.3519934,-0.05279895
0.8814874,-0.3580125,-0.1314654
1.013088,-0.3199103,-0.2663213
1.125784,-0.3134374,-0.2750671
1.166536,-0.2984171,-0.1625664
1.244192,-0.314708,-0.07603119
1.360907,-0.3957605,-0.1802775
1.323637,-0.4625603,-0.3546412
1.136998,-0.4765341,-0.3989211
1.001281,-0.464349,-0.3895358
1.021626,-0.5010761,-0.4296147
1.091293,-0.5117242,-0.550838
1.005334,-0.4516966,-0.6246433
0.8688814,-0.3175431,-0.5675631
0.7809381,-0.1072105,-0.5223532
0.7545257,-0.08580574,-0.4856726
0.8282107,-0.1978835,-0.4167873
0.7884152,-0.2187617,-0.3511714
0.8155148,-0.3243919,-0.3216726
0.9451921,-0.4013211,-0.4082135
0.852647,-0.3080696,-0.4978678
0.8085181,-0.2492105,-0.484765
0.7868648,-0.1832681,-0.4603912
0.7154125,-0.1111727,-0.4257239
0.7911347,-0.1088089,-0.3845431
0.7850508,-0.0746031,-0.3789452
0.79012,-0.06242006,-0.4038312
0.8685279,-0.07341358,-0.4501115
0.8741433,-0.03518672,-0.4653935
0.903568,-0.00589385,-0.4482757
0.8845832,0.02952661,-0.4317259
0.8663087,0.04911452,-0.4164149
0.8854796,0.01186516,-0.41624
0.8982159,-0.03652752,-0.4200156
0.9952357,-0.07932074,-0.4294983
1.076778,-0.07785105,-0.4648212
1.129283,-0.05542931,-0.4986088
1.190413,-0.07140992,-0.5107603
1.206655,-0.1096376,-0.5738917
1.245719,-0.1905323,-0.6750973
1.295829,-0.2555618,-0.6593418
1.24715,-0.2216867,-0.6381765
1.063716,-0.1893931,-0.7641604
0.8809188,-0.2356028,-0.8049961
0.8080018,-0.3892959,-0.6250381
0.7537213,-0.5661198,-0.4501652
0.7786195,-0.4948798,-0.4551552
0.9485463,-0.3234066,-0.4420667
1.032891,-0.3136787,-0.3334355
1.008235,-0.2465097,-0.3857201
1.010137,-0.1508527,-0.4557699
0.9456551,-0.165483,-0.4212286
0.8464845,-0.1792626,-0.4097981
0.7709778,-0.2317624,-0.3108947
0.6964047,-0.2481715,-0.2667794
0.6863144,-0.2508062,-0.2618463
0.6861166,-0.3169932,-0.137327
0.7124167,-0.2885126,-0.1240733
0.7553834,-0.2939276,-0.1203902
0.7414194,-0.3578656,-0.0786641
0.7542786,-0.3687765,-0.08244119
0.7582394,-0.4012449,-0.004076063
0.7875082,-0.3745748,-0.0001592404
0.881819,-0.337305,-0.05196591
0.9732628,-0.3135916,-0.1179591
1.109054,-0.2515932,-0.3005459
1.228412,-0.2746357,-0.3470638
1.328249,-0.294831,-0.2100725
1.406082,-0.2906174,-0.1155851
1.355864,-0.340616,-0.1441742
1.224951,-0.3595299,-0.2158052
1.03362,-0.3921382,-0.2550872
0.9049077,-0.4592906,-0.3322155
0.9558771,-0.5064852,-0.4165653
0.9728583,-0.5186922,-0.5015795
0.8775784,-0.4323781,-0.6310534
0.7970582,-0.2888773,-0.6792216
0.7458697,-0.1954435,-0.5929283
0.7691024,-0.1793634,-0.474821
0.8375767,-0.2196729,-0.4288378
0.8565776,-0.2771125,-0.4017747
0.9174306,-0.3330874,-0.3643331
0.9458897,-0.3503742,-0.4158159
0.8645002,-0.312247,-0.4734696
0.8137236,-0.255887,-0.4656915
0.7528339,-0.1703815,-0.4569229
0.7393052,-0.09862096,-0.4445793
0.8038367,-0.09441683,-0.4138983
0.8014259,-0.08139899,-0.3818283
0.8275563,-0.06443018,-0.3907021
0.8830232,-0.05989464,-0.4201177
0.8981761,-0.01246616,-0.4320279
0.8986667,0.01358746,-0.4441467
0.8707704,0.02633195,-0.4410444
0.8716211,0.05912774,-0.4289709
0.863481,0.02713823,-0.4066557
0.8585487,-0.02841829,-0.3715632
0.9211937,-0.07976219,-0.3676752
0.9887954,-0.1428727,-0.3894248
1.060229,-0.1403153,-0.4258464
1.108979,-0.0993324,-0.4896378
1.188471,-0.08023357,-0.5702879
1.277041,-0.1039519,-0.6173599
1.213146,-0.1644473,-0.6374441
1.118893,-0.1824755,-0.6952487
1.023766,-0.1973955,-0.7304039
0.9111188,-0.3199356,-0.696278
0.8865474,-0.5163522,-0.5899643
0.8262103,-0.5864144,-0.4441246
0.7951038,-0.4635592,-0.4250649
0.8645531,-0.3863652,-0.4482154
0.9010941,-0.3520476,-0.3726408
0.9910303,-0.206838,-0.3476733
1.026436,-0.1206282,-0.3839812
0.9149639,-0.1326842,-0.3986585
0.8540205,-0.1343446,-0.3807149
0.7922408,-0.1750919,-0.3247963
0.7225777,-0.2244021,-0.2871461
0.7176019,-0.2488504,-0.2627276
0.7095122,-0.2842973,-0.2281531
0.7304656,-0.2961038,-0.1690971
0.7479229,-0.3108396,-0.1040295
0.7447391,-0.3704401,-0.1081654
0.7545919,-0.4310672,-0.09641982
0.743618,-0.4704143,-0.03913617
0.777304,-0.4650798,-0.04824212
0.8497212,-0.4317826,-0.09492182
0.9322774,-0.4065322,-0.1573767
1.033837,-0.3345635,-0.2287442
1.109936,-0.2465166,-0.2330744
1.202174,-0.2068122,-0.2357449
1.251472,-0.1973437,-0.2700584
1.226238,-0.2338077,-0.2121561
1.244095,-0.3009172,-0.1587086
1.222964,-0.3759351,-0.2543876
1.098555,-0.4167301,-0.3268416
1.012901,-0.4316204,-0.2860105
1.034948,-0.5331782,-0.3181697
1.036098,-0.5842374,-0.5273972
0.8922404,-0.4607196,-0.7125277
0.7392505,-0.3126385,-0.6395211
0.7200928,-0.2238042,-0.4998614
0.7470756,-0.2068434,-0.4677643
0.7473744,-0.22061,-0.3690924
0.788919,-0.2609823,-0.3007789
0.9044193,-0.328684,-0.3613373
0.968827,-0.3229902,-0.4027602
0.9276075,-0.2884187,-0.4898068
0.8756339,-0.2544511,-0.5266484
0.8339156,-0.1909019,-0.4602853
0.8067358,-0.1538796,-0.4880375
0.8080329,-0.1314716,-0.4795441
0.8101893,-0.1201256,-0.4314908
0.8256749,-0.117204,-0.4385129
0.8541354,-0.09163727,-0.4073088
0.8731545,-0.06671194,-0.4115393
0.8658069,-0.03818937,-0.4146469
0.8375762,0.003983713,-0.3980968
0.8339719,0.04305792,-0.4097683
0.8338015,0.05181768,-0.3802885
0.8303264,0.0004067148,-0.3665804
0.872405,-0.07174425,-0.3541985
0.9439819,-0.1004065,-0.3713915
1.038978,-0.09601538,-0.4760652
1.114514,-0.08401338,-0.5313506
1.132529,-0.06507597,-0.5236519
1.168184,-0.07932377,-0.5146425
1.214801,-0.1592027,-0.5489907
1.238923,-0.2446088,-0.5998692
1.205465,-0.2496591,-0.620658
1.044973,-0.2261063,-0.7131719
0.8815046,-0.2922946,-0.7829188
0.8315481,-0.4023342,-0.6708478
0.8166267,-0.4521089,-0.5126701
0.8045808,-0.408937,-0.4477084
0.8479548,-0.3046752,-0.4006016
0.9283687,-0.2189854,-0.3365413
0.9617902,-0.1468136,-0.3547751
0.9413723,-0.1142177,-0.3900523
0.9086594,-0.1578743,-0.3866151
0.8622011,-0.2121599,-0.3799572
0.7930853,-0.2767751,-0.3238131
0.7568024,-0.2898166,-0.2859323
0.7787898,-0.2570793,-0.2578759
0.7733224,-0.2917081,-0.1979791
0.7681896,-0.3077143,-0.1947272
0.7880612,-0.3356244,-0.1761552
0.7639316,-0.4085154,-0.123589
0.7517214,-0.3908048,-0.1158955
0.7484919,-0.3650139,-0.1032667
0.7408959,-0.3650756,-0.08031467
0.780259,-0.3260479,-0.09125055
0.8429322,-0.304391,-0.1249079
0.9572002,-0.27008,-0.1619781
1.093927,-0.2279867,-0.1931185
1.153579,-0.2384654,-0.1964041
1.165961,-0.2502167,-0.1940891
1.223652,-0.2691671,-0.2199706
1.279661,-0.3183115,-0.2609313
1.226326,-0.3395773,-0.3248385
1.155308,-0.354713,-0.3649563
1.108745,-0.3956109,-0.347694
1.046102,-0.4438077,-0.3803855
1.004085,-0.5161047,-0.5156107
0.9397276,-0.5112638,-0.6248974
0.8646685,-0.3334134,-0.5826091
0.7731549,-0.1517991,-0.5042008
0.7183025,-0.1282247,-0.4898335
0.7608097,-0.1893168,-0.4202003
0.7115047,-0.2247235,-0.3253201
0.7076621,-0.2841641,-0.3194777
0.8534034,-0.4034384,-0.3720521
0.9160124,-0.4831279,-0.4518651
0.9338455,-0.4694935,-0.5101289
0.8994121,-0.3881879,-0.5051672
0.8694315,-0.3327183,-0.4756015
0.9026423,-0.2885524,-0.4618038
0.8425171,-0.1799496,-0.4514097
0.8023437,-0.115686,-0.4365855
0.799085,-0.07984023,-0.4560769
0.8121838,-0.02484219,-0.4782592
0.8783665,-0.009945215,-0.4741913
0.8604812,0.005587442,-0.4704283
0.8469353,0.0008809913,-0.4424593
0.8456378,-0.002537709,-0.4056823
0.8083574,0.006059049,-0.3847428
0.8304167,-0.03899983,-0.3657739
0.8679815,-0.08685271,-0.3642254
0.9325488,-0.1193829,-0.3895219
0.9806351,-0.1125094,-0.4238601
1.010192,-0.09130768,-0.4596374
1.093712,-0.1106292,-0.5085668
1.105868,-0.1288188,-0.5231682
1.117968,-0.1973237,-0.5233488
1.19713,-0.2586293,-0.5925505
1.165166,-0.2200688,-0.6657875
1.047388,-0.2156356,-0.7358261
0.935167,-0.3091364,-0.7744228
0.878614,-0.4550009,-0.6497899
0.9117129,-0.5695874,-0.5048208
0.9090608,-0.5507262,-0.4796252
0.900049,-0.2576223,-0.7319291
0.6823894,-0.3355218,-0.6397157
0.6656641,-0.4304158,-0.5067722
0.8464902,-0.5075925,-0.4316195
0.9377835,-0.4068191,-0.3379995
0.993528,-0.2371269,-0.3293319
1.02304,-0.1861838,-0.4187693
0.9069961,-0.1434198,-0.4962284
0.8379711,-0.1274287,-0.5348013
0.7235222,-0.1480106,-0.4389034
0.6059569,-0.1630365,-0.324756
0.6300828,-0.2110038,-0.2865036
0.6183993,-0.2676533,-0.2065142
0.63572,-0.3229518,-0.1209649
0.6778552,-0.3267311,-0.05720216
0.6830094,-0.3122308,-0.02978736
0.6993522,-0.3492639,-0.03590526
0.7004087,-0.3459752,-0.01543104
0.7579065,-0.3286734,-0.002475983
0.8362056,-0.3343476,-0.02583757
0.9682993,-0.3051687,-0.1341626
1.183648,-0.281828,-0.3044883
1.325963,-0.2720247,-0.3790102
1.385113,-0.2729166,-0.2694699
1.310505,-0.3270893,-0.1589638
1.206216,-0.4635013,-0.2414584
1.217824,-0.612995,-0.293905
1.122763,-0.6152327,-0.2895603
0.9842608,-0.6077188,-0.4254196
1.025187,-0.6762054,-0.5864445
1.041901,-0.5516727,-0.7911068
0.9290712,-0.3661316,-0.8928357
0.8612738,-0.2899912,-0.6150788
0.8570203,-0.1875955,-0.3469252
0.8570613,-0.2133974,-0.3538161
0.8523613,-0.3086762,-0.3479699
0.8267826,-0.2962923,-0.3156719
0.8041543,-0.315969,-0.3927446
0.7285689,-0.2580327,-0.4576584
0.6334238,-0.1311149,-0.466658
0.6732711,-0.1350714,-0.4450638
0.7270794,-0.156533,-0.3717822
0.7207676,-0.1534954,-0.3494776
0.7663246,-0.1589694,-0.3615353
0.7934067,-0.1468013,-0.3503323
0.7951198,-0.1213216,-0.3729438
0.846651,-0.03498507,-0.3842158
0.8730084,0.05696694,-0.4086106
0.8792197,0.06355693,-0.4432488
0.9480638,-0.004844904,-0.4356414
1.05142,-0.09169403,-0.4635689
1.144842,-0.1117217,-0.4995341
1.230516,-0.06904791,-0.5210966
1.283317,-0.03436185,-0.5577156
1.284626,-0.06348505,-0.6297453
1.298203,-0.1667218,-0.7362432
1.321666,-0.2401263,-0.7505505
1.255492,-0.2127238,-0.7410822
1.050354,-0.227916,-0.751601
0.7711815,-0.4104569,-0.6301715
0.6917031,-0.5635372,-0.51948
0.808254,-0.5182774,-0.4967092
0.8122597,-0.4512487,-0.4051649
0.8986778,-0.4052954,-0.3282401
1.077845,-0.2364182,-0.3725759
0.9965263,-0.1283048,-0.4436866
0.8710097,-0.1744504,-0.4723102
0.7803048,-0.168167,-0.4273968
0.6483685,-0.2078794,-0.2998792
0.6613962,-0.3043322,-0.2170186
0.6659303,-0.2898373,-0.2007829
0.6391448,-0.2911675,-0.1535334
0.6909514,-0.302428,-0.1124197
0.6812364,-0.2897145,-0.08275195
0.6801329,-0.3242064,-0.06043003
0.6993467,-0.3392741,-0.02765168
0.6932891,-0.3538014,0.02791069
0.7851415,-0.3711337,-0.01269032
0.9586246,-0.376091,-0.1006281
1.140729,-0.3652503,-0.2027236
1.236459,-0.2901712,-0.2982548
1.253073,-0.2111103,-0.2150973
1.28552,-0.2154232,-0.1676209
1.263022,-0.3995338,-0.3547942
1.181144,-0.6136873,-0.5094084
1.032238,-0.5943082,-0.5137315
0.890458,-0.5389406,-0.5336849
0.9454858,-0.5514171,-0.6470951
0.9682183,-0.3863802,-0.7124357
0.8419484,-0.1636145,-0.6388481
0.8149433,-0.1534496,-0.5207187
0.8545024,-0.2490166,-0.4168671
0.8695409,-0.3171504,-0.3406204
0.8483048,-0.4025208,-0.3117005
0.7925123,-0.4547791,-0.3467463
0.7661124,-0.3833681,-0.4114381
0.712035,-0.261895,-0.435762
0.6576021,-0.1887385,-0.426767
0.6598027,-0.1267397,-0.3814902
0.6880242,-0.08012701,-0.3333939
0.7688022,-0.08492709,-0.3564084
0.8057683,-0.07775203,-0.3904456
0.7972244,-0.05547158,-0.423744
0.8340013,-0.02130434,-0.4879112
0.8257996,0.02372422,-0.4723616
0.7952083,0.04569854,-0.3818322
0.7941923,0.09066211,-0.3468869
0.7996476,0.09678186,-0.3613189
0.87434,0.00233742,-0.3896778
1.003156,-0.1256772,-0.4211939
1.093744,-0.216503,-0.4385689
1.16313,-0.1407818,-0.4658097
1.284496,-0.04526548,-0.5314194
1.36702,-0.1429359,-0.6776378
1.385259,-0.2261881,-0.8000888
1.419579,-0.238774,-0.7800735
1.265087,-0.2561299,-0.821895
0.9904523,-0.2427523,-0.921872
0.8786692,-0.339186,-0.7517311
0.7631289,-0.4697731,-0.4716889
0.7290847,-0.4508608,-0.4103578
0.9197358,-0.3523452,-0.3883689
1.029513,-0.2348049,-0.3232363
1.035373,-0.1709156,-0.3768713
1.021856,-0.1406988,-0.4622206
0.9383654,-0.1209456,-0.4827086
0.8130748,-0.1866836,-0.4306072
0.6714043,-0.2480152,-0.3196538
0.6206139,-0.2864633,-0.2413541
0.6250337,-0.3137572,-0.18838
0.6241037,-0.2963473,-0.1327034
0.6787942,-0.3070697,-0.100447
0.6969976,-0.3068714,-0.09143371
0.6891039,-0.3094267,-0.08083899
0.7024132,-0.3478349,-0.0387567
0.7213906,-0.3434272,0.003840436
0.8097928,-0.3529737,0.007714844
0.9465848,-0.3664689,-0.07919992
1.078092,-0.3374794,-0.2667
1.143906,-0.3276221,-0.3710471
1.252697,-0.3440331,-0.2833206
1.478004,-0.4036019,-0.2321758
1.533098,-0.4608246,-0.3908238
1.39384,-0.4480679,-0.4990308
1.184588,-0.4558587,-0.3958698
0.9619923,-0.5463978,-0.3567085
0.9677521,-0.5912122,-0.5049821
0.9870157,-0.467185,-0.6585467
0.7957339,-0.2886965,-0.6726486
0.7538108,-0.1920528,-0.5623247
0.808081,-0.1601816,-0.4312425
0.7525109,-0.2036258,-0.3377817
0.7583313,-0.3098601,-0.3102647
0.8042365,-0.3845703,-0.3324359
0.8422817,-0.3918118,-0.3679611
0.8437864,-0.3220926,-0.4227974
0.7798356,-0.2158137,-0.4529491
0.7631922,-0.174703,-0.4352632
0.7476185,-0.1464398,-0.4075145
0.7562341,-0.07683696,-0.3737006
0.8020101,-0.05387676,-0.3595986
0.8025149,-0.06486626,-0.3831817
0.8395785,-0.05386772,-0.4004539
0.8531969,-0.0148791,-0.4068847
0.8566881,0.03495032,-0.4045301
0.9025618,0.05603052,-0.3842671
0.88359,0.04872428,-0.3854235
0.9072448,-0.01765026,-0.3936821
0.9750076,-0.1221855,-0.3943662
1.011592,-0.1509064,-0.4243757
1.145338,-0.1156727,-0.4840814
1.307125,-0.1210264,-0.5678343
1.315825,-0.1795718,-0.6269732
1.272707,-0.2136127,-0.6692816
1.288177,-0.1881384,-0.7323153
1.156848,-0.1751766,-0.7461569
0.9317129,-0.2728363,-0.7310295
0.8701766,-0.4289707,-0.6216375
0.8306224,-0.4803948,-0.4168395
0.8071277,-0.4202379,-0.4112617
0.8652038,-0.3658201,-0.4629586
0.8662403,-0.333041,-0.3856458
0.9138031,-0.2137218,-0.4278362
0.9887828,-0.04726238,-0.48933
0.9425807,-0.04122292,-0.474622
0.8534616,-0.1515616,-0.4714786
0.7507026,-0.2276315,-0.3704818
0.6861717,-0.2856107,-0.2921148
0.6944194,-0.3029004,-0.2756517
0.6677892,-0.3196201,-0.1979123
0.6620536,-0.3750133,-0.160037
0.7292516,-0.3564554,-0.1361693
0.7512493,-0.3417011,-0.09935344
0.7492598,-0.3897044,-0.1141861
0.7598358,-0.3783375,-0.09871467
0.7550876,-0.3502318,-0.0483773
0.7992616,-0.3219532,-0.04362679
0.8823778,-0.2936907,-0.0904873
0.9833285,-0.2947919,-0.1948414
1.068868,-0.2584909,-0.3049968
1.110664,-0.2581086,-0.2729874
1.246019,-0.2759425,-0.1524865
1.37057,-0.2572382,-0.1267565
1.308251,-0.3043921,-0.2073206
1.186786,-0.3428596,-0.3161897
1.066347,-0.371652,-0.3293945
1.023205,-0.4774077,-0.319211
1.083851,-0.5428772,-0.4650659
1.043013,-0.4713769,-0.6611178
0.906799,-0.2976403,-0.7547099
0.7933724,-0.1382552,-0.6220296
0.7547265,-0.09908898,-0.3801714
0.7867468,-0.1939926,-0.285833
0.7600217,-0.3092849,-0.2165557
0.7919788,-0.3703995,-0.205323
0.9421643,-0.4110796,-0.3470231
0.9812538,-0.3894631,-0.4518558
0.8941437,-0.3234876,-0.4779177
0.746086,-0.2233999,-0.418715
0.6776392,-0.1117114,-0.3667357
0.7398537,-0.07530688,-0.371909
0.7569789,-0.02896385,-0.3484014
0.7969229,-0.003977469,-0.3716813
0.8641794,-0.004863107,-0.3839443
0.8744405,0.05747475,-0.3771168
0.8814306,0.08941362,-0.3870505
0.8647286,0.1284223,-0.353866
0.8617844,0.1465923,-0.379599
0.8635403,0.10928,-0.3959508
0.8796326,0.05470438,-0.3663574
0.9701285,-0.1146489,-0.3865473
1.078028,-0.1903572,-0.4172707
1.226958,-0.1444192,-0.4884425
1.329451,-0.2181286,-0.5432462
1.30558,-0.2774944,-0.5846864
1.29669,-0.2729918,-0.6956179
1.253053,-0.2197623,-0.7724863
1.074398,-0.1545155,-0.8079682
0.8866883,-0.2942967,-0.7687449
0.8106056,-0.4908824,-0.59369
0.823987,-0.5005553,-0.4435776
0.8891636,-0.4073228,-0.419308
0.9998329,-0.2783136,-0.4388492
1.035576,-0.1072193,-0.4208912
0.9199259,0.01718653,-0.4316644
0.7985175,0.0276252,-0.4797603
0.7636397,-0.0148547,-0.4353668
0.7312297,-0.1070462,-0.357266
0.6724418,-0.2486609,-0.2967239
0.6679449,-0.3007251,-0.2071168
0.7012541,-0.2962695,-0.1344204
0.6994629,-0.3437106,-0.07288457
0.7020377,-0.3407558,-0.07575762
0.7196102,-0.3250044,-0.1166031
0.7258901,-0.3852376,-0.07931646
0.7461415,-0.3891889,-0.07672233
0.7783434,-0.3361381,-0.08869432
0.8561337,-0.2959658,-0.08725136
0.9906395,-0.2594731,-0.1917262
1.105339,-0.2244533,-0.2984869
1.190227,-0.155933,-0.3424953
1.253124,-0.1420044,-0.330112
1.299209,-0.2047804,-0.3046944
1.38513,-0.2785597,-0.3427412
1.424658,-0.3825462,-0.3413573
1.264172,-0.4246663,-0.3419771
1.032631,-0.5232961,-0.3773341
0.9533504,-0.7044649,-0.3752304
0.9931048,-0.6378091,-0.4597136
0.9758996,-0.4975316,-0.5643928
0.8551607,-0.4086212,-0.5345367
0.7785288,-0.1828339,-0.4503815
0.777171,-0.106029,-0.3652756
0.7677478,-0.1729341,-0.2872195
0.8070961,-0.167895,-0.2773183
0.8900673,-0.2423872,-0.343039
0.9424941,-0.2614575,-0.4145237
0.9221343,-0.1917689,-0.4739842
0.8230178,-0.1742955,-0.4840713
0.7327916,-0.1237033,-0.4205186
0.707598,-0.128429,-0.3801309
0.7574018,-0.1507805,-0.3761041
0.7882983,-0.110197,-0.3771076
0.7536415,-0.1238437,-0.3782361
0.7682263,-0.1162873,-0.3867282
0.813743,-0.06338222,-0.4307875
0.8671012,0.005347354,-0.454272
0.9155953,0.06214892,-0.4478709
0.9305951,0.006156692,-0.4488905
0.9802284,-0.06116019,-0.4615815
1.001287,-0.1266525,-0.4865927
1.036197,-0.2306889,-0.4944563
1.187694,-0.2267354,-0.531411
1.28681,-0.1925424,-0.633237
1.273549,-0.2078853,-0.7361593
1.213588,-0.1262653,-0.7980087
1.120591,-0.06377321,-0.8262131
1.044176,-0.2191496,-0.7648184
0.9524438,-0.4200759,-0.5495813
0.8453021,-0.4640919,-0.3696729
0.8670565,-0.4317023,-0.3405712
0.9754384,-0.3804772,-0.3260912
0.985447,-0.2466489,-0.3273115
0.9397852,-0.1276474,-0.3800001
0.8712951,-0.1101244,-0.4278061
0.7568788,-0.1086255,-0.3909286
0.709175,-0.1268129,-0.2981944
0.6829181,-0.185503,-0.2605685
0.6590634,-0.2644222,-0.2180974
0.7242307,-0.3502675,-0.1685128
0.7909589,-0.3712312,-0.1376873
0.8106172,-0.3626098,-0.0766049
0.7917253,-0.3753296,-0.0580786
0.7685701,-0.3694804,-0.05824576
0.7462533,-0.3547699,-0.02508542
0.7009885,-0.3374241,-0.001212404
0.7630113,-0.3327963,-0.01208036
0.9042286,-0.3402685,-0.08786165
1.038731,-0.3290133,-0.2121733
1.218304,-0.3191462,-0.3100337
1.328091,-0.314843,-0.2269939
1.343261,-0.3221252,-0.1066795
1.368004,-0.3567463,-0.2269781
1.30157,-0.4091905,-0.3459981
1.093535,-0.471247,-0.3551658
0.9424744,-0.5262907,-0.3858565
0.9985974,-0.5487954,-0.4303975
1.055387,-0.5040728,-0.6368076
0.9168907,-0.3848018,-0.7921484
0.8032545,-0.2378439,-0.6304247
0.7974109,-0.1697489,-0.4702262
0.7708017,-0.2092901,-0.4061826
0.7788944,-0.2527597,-0.3106197
0.8148426,-0.3116615,-0.2866939
0.878671,-0.3559906,-0.3619855
0.9271447,-0.3005865,-0.4373755
0.8373773,-0.2478857,-0.4800274
0.7601346,-0.1800956,-0.4809603
0.7591823,-0.1012551,-0.4127246
0.7620476,-0.1136587,-0.3485927
0.7976989,-0.1182864,-0.3459166
0.8308273,-0.1134709,-0.370966
0.8492832,-0.1022347,-0.3939684
0.8687646,-0.03183944,-0.3917102
0.8873218,0.0210122,-0.3945161
0.8702384,0.08359164,-0.4038121
0.8231363,0.1430339,-0.4208868
0.8213331,0.1453946,-0.4535554
0.8616841,0.07504161,-0.4467212
0.9636375,-0.09206966,-0.4413876
1.069125,-0.1722515,-0.4638979
1.125257,-0.125121,-0.4741072
1.211932,-0.1370658,-0.5051241
1.257317,-0.1866031,-0.5924497
1.265764,-0.2200773,-0.6793875
1.279889,-0.2646838,-0.68712
1.143436,-0.2857839,-0.7644152
0.9465392,-0.3460044,-0.8935434
0.8807417,-0.5208686,-0.7091658
0.8221245,-0.5895812,-0.4173201
0.7790478,-0.4633345,-0.3928358
0.911388,-0.3513229,-0.3767272
1.012822,-0.2346718,-0.3160314
0.9531745,-0.1197331,-0.3551667
0.9041538,-0.09688664,-0.3672167
0.8540342,-0.08617896,-0.3751888
0.7908036,-0.135443,-0.3563029
0.7608347,-0.2421561,-0.2720604
0.7306225,-0.3033027,-0.2508701
0.7369965,-0.3384503,-0.2067081
0.7499795,-0.3420944,-0.114696
0.7385499,-0.3377856,-0.09059208
0.7481086,-0.3560163,-0.1027495
0.7504062,-0.3711112,-0.1014872
0.7559021,-0.3819078,-0.05167292
0.7856904,-0.387803,-0.009810887
0.7994459,-0.3845162,-0.03730146
0.8344002,-0.3480715,-0.09462821
0.9669341,-0.2963966,-0.1916844
1.138283,-0.2769935,-0.2669427
1.189439,-0.279916,-0.2326449
1.167775,-0.3032221,-0.1534919
1.273933,-0.3650192,-0.1392915
1.366278,-0.438595,-0.2673991
1.206914,-0.4638561,-0.4350025
1.040716,-0.4906248,-0.4551022
1.073626,-0.5360142,-0.4748834
1.04243,-0.4613672,-0.5988938
0.8763687,-0.318583,-0.6140746
0.77782,-0.200912,-0.5789399
0.7540525,-0.08714834,-0.5581076
0.7647902,-0.07888346,-0.4535929
0.7703852,-0.17297,-0.38631
0.7675863,-0.279791,-0.347382
0.8322898,-0.3836858,-0.3349145
0.865032,-0.4312689,-0.4082167
0.8374453,-0.387577,-0.4525233
0.8117409,-0.2730987,-0.4853387
0.7619591,-0.1837423,-0.4918071
0.7650041,-0.1218918,-0.4537933
0.7987054,-0.05324787,-0.4243962
0.8025057,-0.04996664,-0.3882834
0.8265403,-0.04422005,-0.4235956
0.8590694,-0.02210408,-0.463407
0.8895122,-0.01929327,-0.4369514
0.8828689,0.009302673,-0.4380258
0.8692867,0.003040274,-0.4196831
0.897285,-2.998568e-05,-0.3875567
0.8977475,0.007775664,-0.4075963
0.9149036,-0.03745314,-0.4604353
0.9985597,-0.06484258,-0.53763
1.082617,-0.06770827,-0.5753932
1.136738,-0.06705363,-0.5204995
1.185949,-0.09511144,-0.4915297
1.22556,-0.15608,-0.5950612
1.208318,-0.2049174,-0.6855901
1.167355,-0.2598196,-0.6767127
1.070376,-0.2723863,-0.7205049
0.9077844,-0.3274207,-0.7728441
0.8275828,-0.5074954,-0.651332
0.7960255,-0.5712714,-0.4928308
0.8144352,-0.4865254,-0.4600503
0.9280434,-0.4161922,-0.4099573
0.9757452,-0.3154183,-0.3454527
0.9662799,-0.2153515,-0.3789713
0.9250628,-0.16994,-0.3862553
0.8269481,-0.1335018,-0.3542563
0.7805039,-0.1721036,-0.320383
0.72526,-0.2488292,-0.23479
0.6619702,-0.2717905,-0.2124071
0.7068889,-0.3039633,-0.2410925
0.7616337,-0.3176538,-0.2060012
0.7825874,-0.304279,-0.179093
0.8039477,-0.3245199,-0.1455542
0.7832862,-0.3386736,-0.06042956
0.7660128,-0.3502113,-0.01341912
0.7978184,-0.3543288,-0.01861855
0.8545746,-0.3240729,-0.05463173
0.9531986,-0.282226,-0.1538798
1.050181,-0.24866,-0.2662093
1.10482,-0.2542663,-0.2776212
1.208967,-0.2657284,-0.2146991
1.339996,-0.2768367,-0.2007834
1.381738,-0.3373561,-0.2386687
1.307438,-0.3913556,-0.2689834
1.097656,-0.4048199,-0.2811755
0.9152848,-0.4589897,-0.3125753
0.9620568,-0.5561419,-0.3939768
1.012159,-0.5558558,-0.5091783
0.8879274,-0.4532504,-0.6412011
0.7908953,-0.3179913,-0.6662099
0.7587084,-0.148316,-0.5539292
0.7635688,-0.1024504,-0.47887
0.8312787,-0.1804282,-0.4076996
0.8571562,-0.2242645,-0.365994
0.9057248,-0.3059901,-0.4383924
0.9425255,-0.3505612,-0.4574936
0.8731106,-0.2970439,-0.4706236
0.84779,-0.281597,-0.4935599
0.7971202,-0.2303725,-0.4408759
0.7675891,-0.139815,-0.4201384
0.8229463,-0.1035054,-0.3682073
0.7766022,-0.08195473,-0.3498853
0.7832777,-0.08305729,-0.4129511
0.8196265,-0.06117911,-0.3925801
0.7858124,0.001065098,-0.3930792
0.8376349,0.03168419,-0.3957555
0.8559535,0.06680333,-0.3686284
0.8783489,0.0906438,-0.4288867
0.9395109,0.07053019,-0.468768
0.9158567,0.01510348,-0.4729006
0.9546792,-0.0936219,-0.4822143
1.051581,-0.1361852,-0.5003028
1.152714,-0.1048803,-0.5372102
1.252753,-0.1568706,-0.5380271
1.247388,-0.2216003,-0.5997265
1.219944,-0.2182222,-0.7070135
1.178414,-0.2266182,-0.7118493
1.021405,-0.2422344,-0.6989395
0.8276978,-0.2689703,-0.7092647
0.722789,-0.3886062,-0.6081537
0.7566511,-0.5035856,-0.4509164
0.8625828,-0.4651807,-0.4020705
1.000298,-0.3731776,-0.3649836
1.113487,-0.2970172,-0.3279553
1.069633,-0.2016323,-0.4121582
0.9761405,-0.1635428,-0.449263
0.8958661,-0.16279,-0.3932638
0.7512447,-0.1621448,-0.3602496
0.6692242,-0.2106343,-0.3157577
0.6527361,-0.2478895,-0.2655474
0.6753125,-0.2645783,-0.1843751
0.7548265,-0.2624132,-0.1086652
0.755498,-0.2400672,-0.1192329
0.7558436,-0.3050906,-0.09942785
0.7850227,-0.3901999,-0.03969866
0.7670813,-0.4075663,-0.03140882
0.8003154,-0.4002196,-0.04801475
0.8576384,-0.3633878,-0.09344412
0.9629771,-0.3280078,-0.1918641
1.121131,-0.3096731,-0.2708047
1.190306,-0.3143302,-0.2463943
1.257591,-0.3262518,-0.1907758
1.370912,-0.30474,-0.182297
1.34842,-0.3157331,-0.1988162
1.12698,-0.3683406,-0.2789075
0.9126322,-0.4477012,-0.3591621
0.9113507,-0.5132884,-0.3561824
0.9787406,-0.5068107,-0.4393075
0.936949,-0.5297987,-0.608863
0.9059661,-0.5196933,-0.6225907
0.8590515,-0.3488967,-0.5551848
0.7264194,-0.1450158,-0.5584703
0.7306178,-0.06607815,-0.5062165
0.790995,-0.1448027,-0.4127394
0.780844,-0.2354914,-0.3641811
0.8895831,-0.2961747,-0.3468451
0.970841,-0.3656214,-0.4121464
0.9167878,-0.3293513,-0.4679407
0.8593945,-0.2666436,-0.4858406
0.7894358,-0.2257506,-0.507912
0.7899324,-0.1537627,-0.4486349
0.8161201,-0.1438466,-0.4152857
0.7754409,-0.1285706,-0.4218223
0.7871922,-0.1123076,-0.4122314
0.8189583,-0.1191024,-0.4370182
0.8208517,-0.04733786,-0.4106355
0.828722,-0.0002519681,-0.3887085
0.8222081,0.02637953,-0.3987516
0.840698,0.06823426,-0.3965628
0.8762205,0.04199138,-0.4326683
0.8955745,-0.01596454,-0.430794
0.9531152,-0.07096144,-0.4379562
1.057626,-0.07907956,-0.496457
1.186373,-0.07773381,-0.5330909
1.277685,-0.1374973,-0.5877856
1.285378,-0.2077988,-0.6621065
1.265477,-0.2410725,-0.7423514
1.173341,-0.2302482,-0.784957
0.9926167,-0.2736332,-0.7597976
0.888896,-0.4039764,-0.6577352
0.8655085,-0.5115559,-0.4978851
0.8362352,-0.4929978,-0.456994
0.8852465,-0.3608465,-0.4453559
0.9855962,-0.2584765,-0.3460887
0.9989138,-0.1719534,-0.3634845
0.9403342,-0.1144808,-0.4331346
0.8547318,-0.148361,-0.4341403
0.7788682,-0.1841816,-0.4074743
0.7303401,-0.2685171,-0.3111511
0.6846165,-0.3338937,-0.2361753
0.6890256,-0.306267,-0.2003734
0.7265386,-0.3057118,-0.140491
0.7533752,-0.2872914,-0.1345516
0.7792467,-0.2993217,-0.135578
0.7653865,-0.3447691,-0.09840576
0.7539822,-0.321321,-0.05721572
0.7717489,-0.3265177,-0.024653
0.7750866,-0.333465,-0.05542754
0.7984419,-0.3208015,-0.1192052
0.8542531,-0.3426032,-0.1684397
0.9944564,-0.3779049,-0.1791498
1.188499,-0.4497904,-0.1631111
1.236822,-0.4765892,-0.1823778
1.301937,-0.4494677,-0.1840057
1.524579,-0.4694039,-0.1955085
1.480332,-0.4846518,-0.2578304
1.145315,-0.4798072,-0.3046447
0.9389416,-0.5057293,-0.3672638
0.9211598,-0.5344976,-0.4033687
0.970047,-0.5055143,-0.493553
0.8765571,-0.4094978,-0.6991634
0.7444286,-0.3118744,-0.6925918
0.7920952,-0.2397723,-0.5532525
0.7540828,-0.1423532,-0.520872
0.7072021,-0.09047325,-0.4094291
0.7775972,-0.2048433,-0.3220903
0.793948,-0.3274644,-0.3473833
0.874388,-0.3322433,-0.3610801
0.8972813,-0.3127772,-0.4559446
0.8137302,-0.2475472,-0.5223827
0.8132,-0.1574758,-0.4800003
0.800878,-0.1120842,-0.4568246
0.8045387,-0.10303,-0.422818
0.8233688,-0.130708,-0.3929759
0.8111938,-0.1287309,-0.3916925
0.8455248,-0.1096896,-0.4059528
0.8684045,-0.08068796,-0.4379568
0.8753343,-0.001841216,-0.4410823
0.8679827,0.04862087,-0.4248442
0.8534258,0.06041476,-0.4049202
0.8975537,0.0230141,-0.4045097
0.9506355,-0.04798325,-0.4222585
1.021446,-0.0583382,-0.4383434
1.135629,-0.02273786,-0.4859483
1.235967,0.006671448,-0.5182597
1.277743,-0.03935804,-0.5393181
1.264597,-0.1370491,-0.6398597
1.264693,-0.207658,-0.7602783
1.219608,-0.2678304,-0.7863332
1.03717,-0.3195331,-0.7534426
0.8403755,-0.4215987,-0.656533
0.7743459,-0.5303583,-0.4424881
0.8175463,-0.4905968,-0.3479338
0.8943595,-0.3704951,-0.4114346
0.9924223,-0.2457262,-0.3849044
1.02251,-0.1331988,-0.3949561
0.9281678,-0.1186309,-0.4694636
0.8378574,-0.1568281,-0.4610162
0.7528636,-0.1981264,-0.4208701
0.6727686,-0.2796291,-0.3162952
0.6833136,-0.3234863,-0.2250612
0.6972355,-0.2998177,-0.1959915
0.7132645,-0.2928349,-0.1436765
0.7711999,-0.3020456,-0.1433848
0.7847943,-0.32903,-0.1546306
0.7700746,-0.3704482,-0.1275729
0.7487647,-0.3616579,-0.07125147
0.720853,-0.3458382,0.01660721
0.7537121,-0.3584643,-0.00813946
0.8865426,-0.327493,-0.1290926
1.056456,-0.2819112,-0.2165239
1.11376,-0.2792927,-0.2334517
1.113846,-0.2848607,-0.1863029
1.227944,-0.2879136,-0.1461306
1.300495,-0.311127,-0.1319854
1.223529,-0.4093185,-0.2492771
1.159154,-0.5600477,-0.4678559
1.103702,-0.5986346,-0.4821847
1.060426,-0.5432333,-0.4282173
1.010682,-0.5118251,-0.5355063
0.8182823,-0.3966223,-0.5965797
0.6878916,-0.2049649,-0.5745262
0.7072818,-0.1351078,-0.55613
0.6983807,-0.1513732,-0.4882571
0.714662,-0.1579421,-0.3711803
0.757963,-0.2040231,-0.2981978
0.8321171,-0.2724451,-0.355003
0.9231764,-0.3100631,-0.4306052
0.8890006,-0.3004686,-0.4737751
0.8275459,-0.2665518,-0.5298742
0.8127445,-0.2358869,-0.5151536
0.8122113,-0.1771204,-0.4671622
0.8338789,-0.1225342,-0.4019931
0.8135808,-0.1076397,-0.3309004
0.8000101,-0.09779532,-0.3545858
0.8241134,-0.07559279,-0.3805694
0.8230431,-0.01607417,-0.3917764
0.8267142,0.05461969,-0.4112241
0.8460256,0.07800423,-0.3957621
0.8766732,0.05102424,-0.4161578
0.9008327,0.007153267,-0.4310013
0.895976,-0.05252285,-0.4422
0.9246212,-0.1468852,-0.4947281
1.005141,-0.1619532,-0.4917778
1.146176,-0.1029075,-0.4682716
1.301155,-0.1244515,-0.492646
1.290486,-0.1633928,-0.5899404
1.253215,-0.2055234,-0.7377947
1.346001,-0.2574407,-0.7864188
1.254308,-0.2126448,-0.7838674
1.001272,-0.2079806,-0.8120907
0.8353434,-0.328183,-0.7088662
0.6842501,-0.4487835,-0.5282371
0.6698694,-0.4860416,-0.470805
0.7988579,-0.4174741,-0.4362136
0.9257082,-0.3354728,-0.3425474
1.042092,-0.2567586,-0.3249992
0.9892423,-0.1904561,-0.4056123
0.8993326,-0.1886891,-0.4484857
0.866399,-0.178886,-0.3981254
0.7314974,-0.2035696,-0.3243777
0.6775423,-0.244135,-0.2742079
0.7050956,-0.243579,-0.2518462
0.6976583,-0.298573,-0.2227946
0.724135,-0.3290757,-0.1600249
0.7433884,-0.32153,-0.1296475
0.7589943,-0.3575927,-0.1184109
0.7637793,-0.3856826,-0.06923259
0.767064,-0.4029555,-0.03749035
0.794016,-0.3923683,-0.04628518
0.8332037,-0.3682154,-0.07790223
0.9390713,-0.3312167,-0.1527671
1.057744,-0.2650566,-0.2617109
1.158565,-0.259175,-0.2953661
1.247027,-0.2979507,-0.2075632
1.316186,-0.3326506,-0.1579503
1.338895,-0.3580633,-0.2206808
1.147153,-0.3762382,-0.3044231
0.9208229,-0.4065823,-0.3507226
0.9445675,-0.4384405,-0.3445508
1.03929,-0.5163674,-0.3911167
1.038114,-0.5469143,-0.5804704
0.9288371,-0.4014108,-0.7143955
0.7760877,-0.2262633,-0.6232274
0.7378764,-0.1427847,-0.4750253
0.7683884,-0.1493243,-0.3763051
0.7579427,-0.2357647,-0.280584
0.7895893,-0.3377237,-0.2852095
0.8631316,-0.3646516,-0.3528537
0.866954,-0.3131315,-0.386282
0.8372106,-0.2720919,-0.4510142
0.8249693,-0.2246764,-0.4437617
0.8336457,-0.1811871,-0.3712537
0.8508066,-0.185913,-0.3605878
0.8364817,-0.1565011,-0.3400224
0.8357933,-0.1350084,-0.3513852
0.8478613,-0.1217739,-0.3812756
0.8529646,-0.02361202,-0.3885762
0.8762713,0.06981092,-0.4430213
0.8653069,0.08847255,-0.4332626
0.8355056,0.07166296,-0.4009339
0.8251831,0.09139733,-0.4244994
0.8361581,0.0889278,-0.4074123
0.9085718,-0.02011524,-0.4027127
1.014026,-0.09817581,-0.4194798
1.122414,-0.09884322,-0.4694155
1.224127,-0.08196168,-0.5593069
1.260979,-0.08958573,-0.5712473
1.245654,-0.1469016,-0.5905755
1.245785,-0.2243268,-0.6407442
1.212886,-0.3008219,-0.6373384
1.074548,-0.2375047,-0.7071464
0.904362,-0.1742365,-0.7755198
0.7913361,-0.3755154,-0.6520881
0.7664983,-0.5477327,-0.5017745
0.8391182,-0.4996446,-0.4592061
0.973249,-0.3961411,-0.3984882
1.074922,-0.2982162,-0.3412662
1.057293,-0.2015476,-0.4048145
0.9833023,-0.1125881,-0.4777447
0.8950586,-0.1025837,-0.4734883
0.7821765,-0.1640846,-0.4224262
0.7179826,-0.2243014,-0.3149172
0.6648303,-0.2730227,-0.250999
0.6275056,-0.294912,-0.2294145
0.6723666,-0.3082424,-0.1648703
0.7140133,-0.3111482,-0.1614479
0.7467448,-0.3197649,-0.1802565
0.7757397,-0.3646195,-0.1472856
0.7612147,-0.3819035,-0.1188569
0.779813,-0.3518004,-0.05637584
0.8378666,-0.316741,-0.01857617
0.8881639,-0.2936418,-0.07864747
0.9673219,-0.2893025,-0.1797977
1.102308,-0.3160529,-0.2794795
1.210504,-0.3626696,-0.2654006
1.204677,-0.3846331,-0.1269763
1.22601,-0.3811542,-0.06629018
1.296021,-0.4024922,-0.1779083
1.198634,-0.4591038,-0.3477299
1.059485,-0.4973988,-0.4034138
1.034345,-0.5038867,-0.3708035
1.01453,-0.510122,-0.4325429
0.9792203,-0.4832247,-0.577354
0.8708251,-0.3467161,-0.6706716
0.7440466,-0.1313756,-0.6319883
0.7531753,-0.04081913,-0.5027082
0.7851256,-0.111409,-0.3949725
0.7751066,-0.1923457,-0.312649
0.8174577,-0.3293068,-0.2917516
0.8923283,-0.4273735,-0.3548517
0.9031876,-0.3398828,-0.4512902
0.8688834,-0.2948266,-0.5313315
0.8319149,-0.2736638,-0.4839561
0.7722799,-0.141798,-0.4155658
0.7687804,-0.1056188,-0.4233162
0.7822189,-0.117952,-0.3755369
0.7251378,-0.04969809,-0.3343733
0.7254574,-0.04040021,-0.3569861
0.7985574,-0.0487438,-0.3934526
0.8450119,0.02868206,-0.4357325
0.8406577,0.08914999,-0.4344159
0.8435392,0.08452827,-0.4257043
0.9151037,0.07390901,-0.4449681
0.953926,0.05419312,-0.4624151
0.9631891,0.003424656,-0.4741436
1.059304,-0.04846239,-0.4763999
1.165214,-0.0749513,-0.4847594
1.202022,-0.08400867,-0.5163329
1.209345,-0.1385239,-0.6063487
1.248163,-0.2513858,-0.6988236
1.282282,-0.2755812,-0.6956456
1.207367,-0.1871282,-0.717059
1.042441,-0.1722729,-0.77983
0.852644,-0.2931193,-0.6904408
0.7394427,-0.4556359,-0.5110624
0.7641903,-0.520079,-0.4023086
0.846389,-0.4639204,-0.3679767
0.966356,-0.3925653,-0.3883741
1.056307,-0.2574566,-0.4053047
1.03335,-0.09957093,-0.4412732
0.9779807,-0.07285846,-0.4943682
0.9010861,-0.09898011,-0.4303051
0.8019361,-0.1270371,-0.3399269
0.7428414,-0.1859302,-0.3112802
0.7129624,-0.263985,-0.2473292
0.7164848,-0.3367874,-0.1791373
0.7306571,-0.3433568,-0.1420042
0.7157117,-0.3412502,-0.1144232
0.7019384,-0.3772172,-0.09056901
0.6788052,-0.3981893,-0.05701089
0.6735454,-0.3927532,-0.02669326
0.7402683,-0.3632791,-0.006479917
0.8442145,-0.3380564,-0.03244996
0.99733,-0.3035016,-0.120002
1.163805,-0.2698841,-0.2407543
1.239823,-0.2918525,-0.3158992
1.314183,-0.3102222,-0.2305932
1.422331,-0.3092227,-0.1622559
1.370392,-0.3358453,-0.3132324
1.182265,-0.3943449,-0.4619946
1.074815,-0.4662554,-0.4615228
1.090048,-0.5163008,-0.4626733
1.121346,-0.559584,-0.5558634
1.033173,-0.5216025,-0.6533395
0.8563598,-0.2873183,-0.6181953
0.7173485,-0.04757988,-0.5418247
0.7087155,-0.04201305,-0.525846
0.7805846,-0.1416586,-0.4372067
0.7063609,-0.2086658,-0.2997163
0.6840085,-0.3223391,-0.257454
0.8317103,-0.378005,-0.319745
0.8523829,-0.3347851,-0.4295784
0.8444294,-0.3254659,-0.5240768
0.83225,-0.2459947,-0.5685484
0.7990765,-0.1836618,-0.5094447
0.821872,-0.1877903,-0.4342472
0.7809375,-0.08800154,-0.4272622
0.8031643,-0.07435285,-0.3854765
0.830021,-0.08326505,-0.3891237
0.825055,-0.01417095,-0.4386077
0.8855398,-0.02055019,-0.4099587
0.8520564,0.0512304,-0.3959444
0.8550818,0.09826837,-0.3831284
0.8867437,0.04157989,-0.3704005
0.8938694,-0.005066021,-0.392403
0.9868951,-0.1061831,-0.3741815
1.021309,-0.1085613,-0.3971561
1.09097,-0.06012022,-0.4704215
1.196174,-0.08743904,-0.528002
1.214202,-0.1112538,-0.5873732
1.268309,-0.1914313,-0.6277355
1.27849,-0.2421326,-0.7019196
1.165897,-0.2138353,-0.8140574
0.9854436,-0.2469013,-0.8470665
0.8313406,-0.3949524,-0.6941435
0.799445,-0.5592901,-0.444686
0.865962,-0.5497568,-0.3738834
0.9958334,-0.408077,-0.4127942
1.050729,-0.2629208,-0.3908628
0.9797732,-0.120371,-0.4113618
0.9041358,-0.06945963,-0.4394515
0.8405245,-0.1108948,-0.420346
0.7803808,-0.1385307,-0.3868296
0.7087014,-0.1902104,-0.3137818
0.6669265,-0.2540003,-0.2442838
0.713675,-0.2707686,-0.1823843
0.7730374,-0.2961084,-0.122561
0.8076055,-0.3185526,-0.1189982
0.8050438,-0.3565286,-0.1311847
0.7697485,-0.4202355,-0.1019504
0.756195,-0.4000182,-0.05409939
0.7538323,-0.3581077,-0.03239428
0.7827076,-0.3447247,-0.06493206
0.8741241,-0.3038457,-0.1477019
0.9946454,-0.2793165,-0.2334749
1.087557,-0.2605921,-0.2633447
1.12409,-0.2545145,-0.2282473
1.234797,-0.2781554,-0.1858025
1.395349,-0.2778301,-0.1775529
1.337948,-0.2875627,-0.1985487
1.123989,-0.3082298,-0.2479423
0.974562,-0.3415346,-0.2944325
0.9779938,-0.4259588,-0.3366101
1.111177,-0.52792,-0.4076879
1.116992,-0.6129469,-0.5223216
0.9515445,-0.5143282,-0.6643185
0.7847396,-0.254784,-0.6775258
0.7201059,-0.1275201,-0.5468979
0.7936161,-0.09937416,-0.4372861
0.7964838,-0.1273031,-0.3716502
0.8024933,-0.2455047,-0.3577741
0.9233734,-0.3360784,-0.369465
0.9280485,-0.4037909,-0.4248936
0.9022868,-0.3912747,-0.5220913
0.8603396,-0.3204107,-0.4895362
0.7747309,-0.2725259,-0.4448658
0.8002232,-0.1865351,-0.47509
0.8155348,-0.1535778,-0.4414645
0.8150559,-0.1289843,-0.4354747
0.8480197,-0.0945044,-0.452528
0.8660106,-0.1256127,-0.4368963
0.9022443,-0.0766332,-0.4550649
0.8957366,-0.03388999,-0.4561933
0.8571742,-0.03366136,-0.4377925
0.6711841,-0.1467047,-0.3871534
0.634491,-0.2195056,-0.3402027
0.5753532,-0.2426199,-0.3019883
0.6409296,-0.2503898,-0.2865933
0.6953617,-0.2930141,-0.2119238
0.7419857,-0.3045359,-0.161229
0.771728,-0.3185261,-0.1541755
0.7130802,-0.3405872,-0.1015631
0.6965204,-0.3429789,-0.05633498
0.7030865,-0.3541824,-0.03852569
0.7656963,-0.3720691,-0.08250481
0.9391239,-0.3907374,-0.1997289
1.083324,-0.3923148,-0.3058845
1.191778,-0.3808131,-0.3556853
1.323894,-0.3562924,-0.3068222
1.408588,-0.3439623,-0.2795722
1.354817,-0.4112033,-0.3862798
1.206782,-0.4817624,-0.4559552
1.051577,-0.515498,-0.4157633
0.9777307,-0.5933637,-0.4320387
0.9587061,-0.6222439,-0.6175756
0.83517,-0.4637594,-0.7880302
0.7525014,-0.2631663,-0.7252136
0.7269553,-0.1969853,-0.6334584
0.6467632,-0.1471316,-0.6245038
0.6976272,-0.1162682,-0.4902721
0.7332694,-0.2353724,-0.3644426
0.7448669,-0.3499954,-0.3830422
0.8595142,-0.3882444,-0.400431
0.8152389,-0.3799256,-0.4679933
0.7346702,-0.2868561,-0.553729
0.715238,-0.2002102,-0.5427434
0.6838631,-0.1220678,-0.5012338
0.7321708,-0.04573145,-0.4284016
0.7337561,-0.02886911,-0.3953187
0.7599157,-0.02973744,-0.4481194
0.8341413,-0.031233,-0.4827564
0.8141653,0.01212693,-0.486815
0.8148092,0.07206,-0.4673109
0.8124155,0.08881713,-0.4580661
0.8273027,0.08315862,-0.4751575
0.9095197,0.007162354,-0.4888192
0.9592696,-0.08095121,-0.5138213
1.04528,-0.1001871,-0.5580965
1.195446,-0.08432131,-0.6439049
1.314099,-0.1055347,-0.7417155
1.335299,-0.215662,-0.8255771
1.334128,-0.2970304,-0.8732743
1.339353,-0.2829955,-0.8464817
1.217032,-0.2757113,-0.8463055
1.003652,-0.3653852,-0.8477594
0.7574129,-0.4909986,-0.7295291
0.6480834,-0.5332263,-0.5490274
0.7198527,-0.5301078,-0.4331677
0.7433545,-0.4630482,-0.4710391
0.903653,-0.3097218,-0.5101183
1.024548,-0.1752953,-0.4815739
0.8475672,-0.09162487,-0.5385778
0.782659,-0.07787257,-0.5399572
0.7228777,-0.124655,-0.428518
0.6130619,-0.2004902,-0.3219827
0.6483243,-0.2799038,-0.2071208
0.634605,-0.3134027,-0.1607466
0.6670656,-0.3249161,-0.1421439
0.7210019,-0.3295998,-0.1244436
0.7041321,-0.3240669,-0.1492061
0.7237694,-0.3271268,-0.1072063
0.7150349,-0.3397947,-0.06181705
0.7474607,-0.3594766,-0.04922461
0.8238798,-0.3630019,-0.06019016
0.9285693,-0.3426972,-0.1595642
1.077053,-0.3063695,-0.2375468
1.172405,-0.2742933,-0.2535123
1.277965,-0.2995148,-0.2703454
1.339671,-0.4083334,-0.3860281
1.311187,-0.5356052,-0.529834
1.214643,-0.6077329,-0.4710653
1.016224,-0.683641,-0.4460113
0.934696,-0.714955,-0.6478399
0.9382319,-0.5566469,-0.7732895
0.7882669,-0.3356131,-0.7029069
0.6778719,-0.1710427,-0.6002374
0.7188188,-0.06768088,-0.5377509
0.7167495,-0.08134317,-0.4532667
0.6953984,-0.1438662,-0.4093353
0.762062,-0.2390674,-0.4410323
0.820413,-0.3299335,-0.4390823
0.8192473,-0.2963742,-0.4740491
0.7623678,-0.2466188,-0.5185621
0.6659241,-0.223764,-0.4837467
0.6505965,-0.1882308,-0.4670628
0.6864304,-0.1500562,-0.4269227
0.6980063,-0.07062377,-0.3795283
0.7505937,-0.04105997,-0.4053285
0.81517,-0.04189455,-0.4431227
0.848418,0.009224666,-0.5139985
0.8627011,0.03641385,-0.5709946
0.839705,0.05398235,-0.5252713
0.8031116,0.02850059,-0.477359
0.8037987,-0.05515939,-0.4879041
0.8753415,-0.1212938,-0.5039003
0.9950432,-0.1838811,-0.5573798
1.094865,-0.1698866,-0.6472687
1.163758,-0.124683,-0.6832639
1.241325,-0.1840024,-0.7515686
1.313887,-0.273532,-0.8534391
1.309847,-0.3513991,-0.833948
1.142789,-0.3368027,-0.8484978
0.8009178,-0.2808788,-0.9252035
0.5722189,-0.4079753,-0.7820409
0.6769435,-0.5321082,-0.5328549
0.8039743,-0.5054637,-0.4494309
0.8345969,-0.4221766,-0.485612
0.9843446,-0.2729442,-0.5074671
1.059257,-0.2018283,-0.4837202
0.9563753,-0.1798241,-0.5049206
0.8685776,-0.0872807,-0.5418594
0.7664282,-0.1179595,-0.4886937
0.6698483,-0.2547961,-0.3822937
0.591831,-0.3279357,-0.2419152
0.5569687,-0.3280945,-0.195115
0.6491456,-0.3055689,-0.2325524
0.7006974,-0.3268773,-0.1618704
0.7361356,-0.3323562,-0.1521107
0.7631302,-0.3058245,-0.1945843
0.6889143,-0.3166215,-0.1148893
0.7011247,-0.3120648,-0.06645047
0.7119649,-0.3108054,-0.04973843
0.7461408,-0.3488037,-0.06770337
0.9303431,-0.353403,-0.1866298
1.003764,-0.3087765,-0.3287471
1.057214,-0.2482842,-0.4358643
1.210169,-0.2448744,-0.3648508
1.306933,-0.3012068,-0.2832011
1.36423,-0.4013391,-0.4029244
1.363105,-0.5681444,-0.4487631
1.189387,-0.6560268,-0.4401355
0.949475,-0.6712347,-0.570777
0.9696601,-0.6362449,-0.6922503
1.001072,-0.4436436,-0.6990967
0.7616809,-0.3033604,-0.6319641
0.7078693,-0.1965582,-0.5662735
0.7832024,-0.07797705,-0.473182
0.7446972,-0.1891678,-0.3786888
0.7785029,-0.297513,-0.3817296
0.8064881,-0.3215982,-0.4035334
0.8180313,-0.3536164,-0.4521381
0.7916271,-0.2538089,-0.5159591
0.6891219,-0.2027639,-0.5136068
0.6693133,-0.1849052,-0.5040941
0.6825138,-0.1267696,-0.4679481
0.7057578,-0.1247091,-0.4139449
0.7486643,-0.07534022,-0.3963907
0.7772659,-0.09101225,-0.4257063
0.8204561,-0.1103915,-0.4870897
0.8290804,-0.02226859,-0.4905055
0.825866,-0.003729709,-0.4744283
0.825504,0.01388569,-0.4486443
0.8227714,0.02803286,-0.3947142
0.8504948,0.0001744232,-0.4220756
0.9308741,-0.05363977,-0.4932864
1.113337,-0.142471,-0.5790796
1.241665,-0.1217143,-0.6533224
1.27108,-0.1235226,-0.6462872
1.354649,-0.1930021,-0.7359095
1.305011,-0.1333427,-0.9267019
1.061521,-0.04662515,-1.024626
0.9411952,-0.04450124,-1.078715
0.9619939,-0.2247423,-0.954136
0.863454,-0.5296224,-0.5923416
0.6929454,-0.6087159,-0.4332369
0.7384257,-0.5048162,-0.4797498
0.9180546,-0.4328472,-0.464494
0.9875906,-0.3040297,-0.4797067
0.9950749,-0.1800633,-0.4852391
0.9216135,-0.1239453,-0.4862995
0.7874089,-0.06168392,-0.515625
0.6976973,-0.1399564,-0.4510423
0.5845939,-0.2742767,-0.3725748
0.5471354,-0.2957455,-0.2979898
0.5879928,-0.3390195,-0.2058161
0.6152254,-0.3487004,-0.1350782
0.7070374,-0.3401003,-0.08653932
0.7417779,-0.3991882,-0.1134429
0.7183423,-0.4072794,-0.1104768
0.7247554,-0.4139051,-0.05320338
0.7167093,-0.4242015,-0.04451444
0.7953923,-0.4222176,-0.06740515
0.965297,-0.4463016,-0.1617372
1.119335,-0.3956866,-0.2916891
1.198395,-0.3387937,-0.358929
1.272539,-0.3509144,-0.370254
1.421597,-0.3777454,-0.4670548
1.433047,-0.4331111,-0.6680821
1.164661,-0.5265413,-0.6623259
0.8779819,-0.620134,-0.531342
0.8866137,-0.602604,-0.5609012
0.9473546,-0.4830895,-0.6370363
0.7804569,-0.3383924,-0.7044512
0.7136606,-0.1848709,-0.6415797
0.7562406,-0.1651787,-0.4739964
0.7379604,-0.2438408,-0.4549516
0.7849002,-0.3070001,-0.4032812
0.7921653,-0.4249797,-0.3355242
0.7778708,-0.4457102,-0.4236776
0.7784752,-0.3264852,-0.4928036
0.7191803,-0.2708217,-0.5436255
0.7032724,-0.2398406,-0.5445974
0.6821524,-0.2104721,-0.4734978
0.684584,-0.1701009,-0.4559636
0.7371018,-0.07959283,-0.444413
0.7489926,-0.07626367,-0.462957
0.7818382,-0.09875583,-0.496752
0.8008356,-0.05306898,-0.4862835
0.8261574,-0.01501986,-0.4769353
0.8593552,0.04098104,-0.4511931
0.8220692,0.08303809,-0.4662906
0.8226372,0.05670819,-0.4935302
0.8791396,-0.02973046,-0.463348
0.9392742,-0.1575509,-0.4638585
0.9844136,-0.194428,-0.4817954
1.073435,-0.1137857,-0.5644254
1.237054,-0.08338299,-0.8015249
1.26574,-0.1696463,-0.9842388
1.219289,-0.2715511,-0.941003
1.21226,-0.3272467,-0.9055932
1.033054,-0.3814818,-0.9544681
0.7878217,-0.4784893,-0.7724848
0.6533241,-0.5767461,-0.4968061
0.5800631,-0.5456957,-0.4576483
0.6944615,-0.399396,-0.5122495
0.927926,-0.2780603,-0.5285802
1.005556,-0.2015278,-0.5089327
0.9511861,-0.1677497,-0.5091687
0.8925436,-0.1190251,-0.543356
0.8545808,-0.07825332,-0.5213195
0.7861429,-0.1838579,-0.4593138
0.6598187,-0.2905284,-0.3276899
0.5898078,-0.316862,-0.240625
0.6262817,-0.3279762,-0.2786445
0.6530897,-0.3092323,-0.2244452
0.6503895,-0.3513236,-0.1486297
0.6864111,-0.3631339,-0.15224
0.6817528,-0.3344557,-0.1274514
0.6493396,-0.3795159,-0.08274708
0.7007419,-0.3724123,-0.02723532
0.7936026,-0.395948,-0.01356704
0.956397,-0.4389221,-0.1035908
1.10222,-0.3768669,-0.2614557
1.130529,-0.3443571,-0.35233
1.250682,-0.3114309,-0.2403838
1.361877,-0.287145,-0.1530821
1.283074,-0.3658481,-0.3260894
1.175613,-0.4629134,-0.506751
1.073509,-0.5064969,-0.5283541
1.029688,-0.5265552,-0.5630008
1.011158,-0.5369189,-0.6509094
0.8436725,-0.4341774,-0.7073652
0.7106308,-0.2907046,-0.6571235
0.6868317,-0.2166605,-0.5268983
0.6629916,-0.1753208,-0.4570156
0.6890983,-0.2126218,-0.4028395
0.6876078,-0.2709283,-0.3598637
0.7209912,-0.3352514,-0.4083142
0.8264233,-0.3881909,-0.4482594
0.811857,-0.3132557,-0.5164023
0.767769,-0.257919,-0.5918291
0.7469301,-0.2661658,-0.5364884
0.7294855,-0.2299104,-0.491057
0.762931,-0.1771032,-0.4854901
0.7601837,-0.1078855,-0.4499213
0.7853776,-0.04658672,-0.4742194
0.8389883,0.02204469,-0.5046969
0.8301245,0.1214422,-0.4787461
0.8072311,0.1645132,-0.4620883
0.7792049,0.1335483,-0.4485977
0.8091855,0.05653511,-0.4348313
0.8929124,-0.05221186,-0.4565451
0.9839142,-0.109247,-0.5076325
1.120291,-0.07716022,-0.5829212
1.23905,-0.07794277,-0.6378303
1.281691,-0.14951,-0.6746264
1.274828,-0.2071377,-0.7978957
1.278316,-0.2402704,-0.9207707
1.202533,-0.2191776,-0.942761
0.9732755,-0.2309348,-0.9306726
0.8105734,-0.4197364,-0.7779679
0.7395175,-0.581687,-0.5242339
0.6701322,-0.5077476,-0.4615833
0.7446692,-0.3580952,-0.4950082
0.913589,-0.2606158,-0.4596367
0.9671316,-0.1460624,-0.4818233
0.9016061,-0.1150887,-0.5103329
0.825791,-0.1923452,-0.481573
0.7612502,-0.2123391,-0.4438096
0.6969964,-0.2831407,-0.3368175
0.6519907,-0.3554499,-0.2610729
0.6263259,-0.30918,-0.2443874
0.6379148,-0.3263176,-0.1685307
0.6697759,-0.33484,-0.1271264
0.6829265,-0.3174919,-0.1172508
0.6815368,-0.3664671,-0.07167898
0.6762245,-0.3961173,-0.02442015
0.7252341,-0.451781,-0.004861348
0.8692739,-0.4779629,-0.08633283
1.042285,-0.4532607,-0.2277072
1.111271,-0.452866,-0.321282
1.107067,-0.3834699,-0.3021672
1.22281,-0.2831204,-0.2528011
1.334228,-0.2729782,-0.3158944
1.278226,-0.3753006,-0.3902127
1.212299,-0.4994615,-0.4643929
1.112858,-0.593939,-0.5424287
0.9757897,-0.6764795,-0.5696225
0.9458572,-0.5657068,-0.6617866
0.8603113,-0.305206,-0.6888633
0.7325658,-0.18645,-0.6126424
0.7578181,-0.159591,-0.5607395
0.7722744,-0.1496894,-0.4521935
0.7397647,-0.2417417,-0.36256
0.7740623,-0.3637299,-0.3225841
0.8118461,-0.3925984,-0.3387962
0.8491151,-0.3268653,-0.4406287
0.8166075,-0.2471918,-0.5021244
0.7150878,-0.1868188,-0.5243627
0.6939656,-0.1367809,-0.4687667
0.6816551,-0.09249286,-0.4050142
0.6752918,-0.02776391,-0.4125228
0.7300536,-0.003853328,-0.3889509
0.7763604,-0.01076166,-0.4375859
0.8478692,0.03445262,-0.5067033
0.8798629,0.06157216,-0.5022421
0.8392367,0.07699363,-0.4940284
0.8440935,0.05399398,-0.4616093
0.878854,-0.09040232,-0.4587498
0.9208049,-0.2122748,-0.4516199
0.9641822,-0.2078723,-0.4598822
1.047233,-0.1054845,-0.5523416
1.199434,-0.03938081,-0.6313561
1.272108,-0.1161331,-0.7505024
1.286874,-0.1964408,-0.890755
1.322517,-0.2077393,-0.9327546
1.18243,-0.1994468,-0.938275
0.8873055,-0.2288856,-0.896925
0.7378172,-0.3582884,-0.694428
0.7225818,-0.4794457,-0.4610065
0.7090184,-0.4531242,-0.4562028
0.8049126,-0.3597259,-0.534516
0.9798245,-0.3002241,-0.5103488
1.027536,-0.215625,-0.5260439
0.9352358,-0.1759267,-0.5472796
0.8141358,-0.2300226,-0.4867924
0.7014432,-0.2519496,-0.4079829
0.6123229,-0.3028796,-0.3233548
0.5982156,-0.3401452,-0.2748898
0.628627,-0.3001209,-0.2429111
0.6687783,-0.3319993,-0.1882254
0.7392882,-0.3538095,-0.1878773
0.7583215,-0.3371699,-0.1943026
0.7141155,-0.3624452,-0.1369147
0.7008669,-0.3633106,-0.0807931
0.7067331,-0.3560843,-0.051857
0.7145217,-0.3463371,-0.06469337
0.777953,-0.3328229,-0.1184149
0.9642821,-0.3085271,-0.178823
1.226973,-0.264424,-0.2129155
1.356668,-0.2796731,-0.1891978
1.328835,-0.3101497,-0.2014372
1.340817,-0.3610648,-0.3189964
1.308685,-0.4703624,-0.4982457
1.090767,-0.5315858,-0.6242419
0.9422391,-0.6145081,-0.5930713
0.9488717,-0.6834191,-0.6258089
0.9009787,-0.5166953,-0.7427313
0.8233045,-0.3196024,-0.6471441
0.7927689,-0.2942521,-0.5237163
0.7894081,-0.2602304,-0.5008766
0.8050078,-0.2454932,-0.4233055
0.807242,-0.3259047,-0.4073078
0.7932404,-0.3632676,-0.4382222
0.7695388,-0.352012,-0.4377131
0.7341032,-0.3125608,-0.4755578
0.6807276,-0.2553357,-0.4877371
0.6386015,-0.2561452,-0.4479677
0.6599318,-0.2639709,-0.3916653
0.7077597,-0.2284989,-0.3469522
0.7742391,-0.1750964,-0.344697
0.863257,-0.1120516,-0.398654
0.913361,-0.04401539,-0.5087639
0.9289151,0.05301823,-0.5384125
0.901466,0.1487891,-0.4885694
0.8274006,0.1698366,-0.4840233
0.781977,0.1327841,-0.4665223
0.7744337,0.08130348,-0.4403265
0.8187064,-0.001693238,-0.4373145
0.9513308,-0.1036752,-0.451688
1.130477,-0.144347,-0.5441538
1.291719,-0.1543696,-0.6740298
1.343395,-0.2167172,-0.7862131
1.306302,-0.2577902,-0.8848073
1.266465,-0.2005169,-0.9440543
1.133038,-0.1621823,-0.9368965
0.9283594,-0.305502,-0.8026519
0.7894114,-0.4889447,-0.5498906
0.683982,-0.4844394,-0.4061506
0.6730719,-0.4284238,-0.4479309
0.7814457,-0.4064801,-0.4672118
0.8433459,-0.2781888,-0.4712858
0.8882318,-0.1148815,-0.5069325
0.9002816,-0.07076255,-0.4959235
0.8217734,-0.1455181,-0.4956338
0.7931678,-0.2488691,-0.4477854
0.7307863,-0.3224728,-0.3505916
0.6434107,-0.3749804,-0.3166551
0.6481776,-0.3821361,-0.2598661
0.619456,-0.3675313,-0.1982102
0.6339116,-0.3670275,-0.1869194
0.6757588,-0.35483,-0.1584395
0.6599065,-0.3726933,-0.1151562
0.6846372,-0.4022351,-0.06538961
0.6871769,-0.3919676,-0.04023404
0.7651178,-0.4035737,-0.09173037
0.9575171,-0.4105029,-0.1806251
1.086064,-0.3288219,-0.2617519
1.189196,-0.2186516,-0.3226113
1.312058,-0.1943125,-0.3153092
1.388386,-0.2447521,-0.2980187
1.324637,-0.3179766,-0.3631123
1.188217,-0.4101467,-0.4377531
1.093958,-0.4591005,-0.4872268
1.013674,-0.5678073,-0.5144114
0.965403,-0.7680243,-0.5963122
0.9302683,-0.7067364,-0.7470084
0.9156275,-0.4681101,-0.6954968
0.8272548,-0.3261618,-0.5979179
0.6831167,-0.1992745,-0.6634929
0.7648517,-0.2509133,-0.5520145
0.831942,-0.3688295,-0.3543244
0.762635,-0.3345306,-0.3268066
0.8239824,-0.3723131,-0.3625182
0.8385478,-0.3521934,-0.4280549
0.7472944,-0.2661188,-0.4667188
0.6893174,-0.2490237,-0.5055553
0.6921191,-0.1894185,-0.5311811
0.7574281,-0.1891476,-0.4707703
0.7788852,-0.1207781,-0.4458564
0.806994,-0.02956168,-0.4226393
0.8624986,-0.0654351,-0.4291304
0.8725962,0.01737167,-0.4855958
0.8724575,0.08817511,-0.4523495
0.8429978,0.1081795,-0.4520033
0.809904,0.1478409,-0.4733294
0.7963516,0.05159282,-0.4444672
0.8223637,-0.07356493,-0.4561323
0.9201678,-0.2106434,-0.4549461
1.044571,-0.2857332,-0.4875907
1.205059,-0.2306895,-0.5488344
1.293369,-0.2422174,-0.5645258
1.263726,-0.2743462,-0.671046
1.305774,-0.2745709,-0.8047293
1.318046,-0.2785512,-0.808334
1.059775,-0.2313871,-0.8779105
0.7693049,-0.2090328,-1.011641
0.7730118,-0.3271257,-0.7999231
0.795723,-0.481982,-0.4646934
0.6972267,-0.4651844,-0.4790519
0.8085676,-0.3518005,-0.5214708
0.9617862,-0.2571008,-0.4517906
0.9632896,-0.1343795,-0.4875535
0.9507655,-0.08305504,-0.5136088
0.8452194,-0.1176684,-0.5093257
0.743679,-0.1692617,-0.4593091
0.7046977,-0.272885,-0.3295188
0.6380011,-0.3379374,-0.2558882
0.6252235,-0.3360468,-0.1998943
0.6167529,-0.3400663,-0.1381906
0.6413646,-0.3301954,-0.1393003
0.6853672,-0.3332702,-0.1401153
0.6576048,-0.3562637,-0.1041234
0.6754638,-0.3811701,-0.07665911
0.7258255,-0.4250816,-0.08322152
0.844086,-0.4442069,-0.1123101
1.031525,-0.4144704,-0.1854454
1.122292,-0.320659,-0.3074194
1.190395,-0.2146375,-0.3638996
1.316016,-0.2285539,-0.3263796
1.424518,-0.2958895,-0.335291
1.416207,-0.3253322,-0.4141768
1.267687,-0.4170782,-0.4543959
1.080584,-0.6041778,-0.4258907
0.9984081,-0.7387577,-0.4252289
0.9927509,-0.6302015,-0.5774528
0.8253332,-0.385789,-0.7289588
0.6452886,-0.2733809,-0.6567366
0.6779084,-0.205544,-0.5515146
0.6992942,-0.1562491,-0.505755
0.6710157,-0.2355398,-0.3796796
0.7126005,-0.3055773,-0.3297321
0.7906247,-0.3654973,-0.3771575
0.8440873,-0.3815166,-0.3951299
0.8075767,-0.2792682,-0.5039014
0.7413938,-0.2232191,-0.5861042
0.7374632,-0.1937,-0.5289894
0.7636595,-0.1438241,-0.4936958
0.7757833,-0.09308587,-0.428341
0.7855152,-0.0550922,-0.365888
0.7916305,-0.08230954,-0.412864
0.8088012,-0.06125502,-0.4502597
0.8392554,-0.03280594,-0.4699441
0.8243663,-0.03315494,-0.478061
0.8075508,0.02318365,-0.4588284
0.8120618,0.01689511,-0.4740782
0.812052,-0.01258295,-0.4766289
0.8713731,-0.03003653,-0.4723223
0.9833639,-0.1041956,-0.5228559
1.099291,-0.1161443,-0.5913103
1.187814,-0.09042121,-0.6563762
1.245196,-0.1216287,-0.7234347
1.290288,-0.1865267,-0.7939064
1.259961,-0.250651,-0.8402781
1.108851,-0.2480968,-0.9229152
0.9239703,-0.2721769,-1.030145
0.8266051,-0.4357612,-0.8071493
0.7093302,-0.5483259,-0.4181553
0.5945481,-0.491107,-0.4115769
0.7767095,-0.3897992,-0.5103059
0.9860019,-0.2749497,-0.4785644
0.9467422,-0.1484166,-0.5470197
0.8979118,-0.07266071,-0.6046876
0.81661,-0.08953425,-0.5676313
0.7247635,-0.2070965,-0.466633
0.696222,-0.3086599,-0.3355379
0.6473373,-0.3306566,-0.2800808
0.6573155,-0.3391808,-0.2186836
0.6658901,-0.3402459,-0.143667
0.6893342,-0.3382183,-0.1413847
0.7512439,-0.3528102,-0.1526346
0.7125985,-0.3762679,-0.1340945
0.7003379,-0.3995198,-0.09697179
0.7323718,-0.4225177,-0.07266134
0.7850092,-0.4334695,-0.1156164
0.9416729,-0.3824375,-0.2259746
1.078848,-0.2975134,-0.3178805
1.182343,-0.2499512,-0.3333636
1.280882,-0.229305,-0.2840279
1.289034,-0.2296206,-0.2729252
1.239214,-0.3207097,-0.4142303
1.183539,-0.4802956,-0.5499669
1.099716,-0.5462756,-0.5120925
1.026742,-0.6167628,-0.4637325
0.986701,-0.7438996,-0.5318505
0.9160167,-0.5778244,-0.6611858
0.8342812,-0.302409,-0.7907361
0.7506965,-0.3033956,-0.7604496
0.7262392,-0.2609996,-0.5963421
0.7869986,-0.1643469,-0.5188634
0.7842768,-0.2686705,-0.4316711
0.8053664,-0.3376686,-0.3536754
0.8497068,-0.3509295,-0.3852963
0.79154,-0.3636353,-0.4071133
0.7418417,-0.2698324,-0.5070839
0.6851408,-0.2129159,-0.55623
0.6635357,-0.1890937,-0.4758237
0.7119773,-0.1317089,-0.4789211
0.7323495,-0.09135972,-0.4417017
0.7875989,-0.0617743,-0.4212249
0.8335697,-0.08017197,-0.4807173
0.845425,-0.05077657,-0.4870725
0.8594435,0.02448352,-0.5075868
0.8224609,0.04780727,-0.4657185
0.7930825,0.09302821,-0.4034565
0.7850899,0.09837077,-0.4164611
0.7927349,0.04059298,-0.429162
0.8509049,-0.03761242,-0.4605838
0.9310193,-0.124658,-0.4690982
1.031768,-0.1343809,-0.5049075
1.160658,-0.1519175,-0.5833931
1.260448,-0.2034601,-0.6076606
1.236578,-0.2228692,-0.7099359
1.194051,-0.2914293,-0.8668361
1.210941,-0.3479181,-0.8766872
1.072097,-0.2875667,-0.8790559
0.8153683,-0.2517796,-0.9597341
0.666331,-0.3604447,-0.806385
0.6750727,-0.4589607,-0.529118
0.8193189,-0.4397368,-0.5072056
0.9732054,-0.3989683,-0.5421327
1.052027,-0.3373576,-0.5161959
1.01456,-0.2142542,-0.5574664
0.89402,-0.109283,-0.5694377
0.7898288,-0.1063479,-0.4973189
0.681152,-0.1874784,-0.3718795
0.6379215,-0.2699547,-0.2962977
0.6150031,-0.2945668,-0.2819693
0.5680417,-0.2885728,-0.2246799
0.6445262,-0.3129468,-0.1935316
0.7085934,-0.3211291,-0.2060136
0.7189843,-0.3205042,-0.205314
0.7452074,-0.3709622,-0.1913257
0.7215479,-0.3883417,-0.1640674
0.7431159,-0.3813216,-0.1262641
0.8098525,-0.4068015,-0.08301515
0.918421,-0.4053137,-0.1345937
1.054877,-0.3754048,-0.264757
1.105863,-0.3522495,-0.3310924
1.163306,-0.3576464,-0.3441313
1.222827,-0.3686548,-0.3311176
1.240073,-0.3705665,-0.3213167
1.305446,-0.4321393,-0.3445834
1.333585,-0.5066132,-0.395619
1.182609,-0.5176586,-0.4820576
1.006189,-0.5292125,-0.5206715
1.004529,-0.5290017,-0.5683031
0.9237016,-0.4351616,-0.6882424
0.7165698,-0.291367,-0.6842789
0.6957712,-0.1776573,-0.6215088
0.7022697,-0.1229371,-0.6040536
0.6566713,-0.1350009,-0.4792398
0.6911587,-0.2116503,-0.3667161
0.7273321,-0.3402805,-0.3596799
0.828688,-0.4117187,-0.3865819
0.8924552,-0.3666729,-0.4924511
0.7915727,-0.3063392,-0.5771664
0.7248947,-0.2415112,-0.5743872
0.7216744,-0.1741748,-0.5156718
0.732918,-0.1281858,-0.4251808
0.7502362,-0.06015361,-0.4095135
0.7503067,-0.04809935,-0.4298876
0.7875556,-0.06986725,-0.4568337
0.8346087,-0.01827761,-0.5157441
0.8517808,0.03386083,-0.5247812
0.8358632,0.07778686,-0.4799124
0.814701,0.09825878,-0.4360438
0.8369708,0.0365165,-0.4475902
0.8816856,-0.05551657,-0.4804602
0.9875621,-0.1612592,-0.5062897
1.126095,-0.2063321,-0.5930719
1.18872,-0.1734453,-0.6778471
1.221117,-0.2080855,-0.7273395
1.268088,-0.2795921,-0.7747183
1.263945,-0.2820192,-0.8110804
1.119583,-0.2148461,-0.9493493
0.9336255,-0.1747262,-1.104599
0.8742086,-0.322114,-0.9018827
0.7579202,-0.5401197,-0.4998525
0.5944622,-0.567817,-0.4082699
0.7350779,-0.4739684,-0.4782659
0.9439993,-0.3951386,-0.4494833
0.9213035,-0.2752068,-0.4475018
0.8845067,-0.1437022,-0.4739625
0.8205181,-0.09783058,-0.4843254
0.703406,-0.1252232,-0.4395914
0.6702501,-0.190328,-0.3440575
0.6491594,-0.2520707,-0.2870992
0.6492559,-0.2685735,-0.2522077
0.6694039,-0.2679892,-0.2059726
0.6774885,-0.2896647,-0.1273173
0.7084152,-0.3007452,-0.1120058
0.7146399,-0.3055578,-0.1432482
0.7369527,-0.3488966,-0.06949488
0.7463045,-0.3592931,-0.03689483
0.7336198,-0.3508842,-0.05954355
0.8196878,-0.3929593,-0.04581521
0.95066,-0.3824962,-0.1420944
1.071521,-0.3177226,-0.3343309
1.149998,-0.2755071,-0.4361812
1.234728,-0.279852,-0.3518591
1.385278,-0.3540403,-0.2894256
1.409256,-0.4270183,-0.4125718
1.290107,-0.504506,-0.4876572
1.128064,-0.6354521,-0.4911973
0.9572236,-0.7103221,-0.5438709
0.8784835,-0.591899,-0.5536507
0.7760579,-0.3710124,-0.5403334
0.632679,-0.2724117,-0.5403458
0.626872,-0.2084093,-0.5081575
0.6611089,-0.1451571,-0.4496097
0.6613958,-0.2278068,-0.3842746
0.7192991,-0.2992595,-0.3759165
0.8361226,-0.3316407,-0.4272665
0.9220546,-0.3644891,-0.4761429
0.8736933,-0.3062159,-0.5555136
0.7722923,-0.2692901,-0.6225255
0.7372021,-0.2466157,-0.5891143
0.7061593,-0.180223,-0.5286584
0.6869162,-0.1021044,-0.4524565
0.7093089,-0.02311316,-0.3744081
0.7307443,-0.03745353,-0.3977858
0.7807954,-0.05572311,-0.4398442
0.8402601,-0.01092044,-0.4696981
0.8737684,-0.01011916,-0.5224359
0.8752872,-0.01524312,-0.504143
0.8615088,-0.03152026,-0.4810569
0.9186463,-0.09981795,-0.4948834
0.9939032,-0.165066,-0.4883387
1.061122,-0.1764159,-0.5672262
1.178874,-0.1613665,-0.6896927
1.234583,-0.2241399,-0.7337734
1.215224,-0.2998932,-0.7789064
1.210178,-0.2772867,-0.8405998
1.164446,-0.2050903,-0.936282
1.027713,-0.1820284,-1.035996
0.909256,-0.3392962,-0.8672847
0.8956913,-0.5202621,-0.5969538
0.825858,-0.4646817,-0.5451722
0.7002641,-0.4133359,-0.4370734
0.7540358,-0.4487055,-0.3790641
0.8983174,-0.2566581,-0.5473172
0.9520144,-0.02752061,-0.5504104
0.932684,-0.04734458,-0.5493574
0.8415548,-0.1200342,-0.580515
0.7319238,-0.1795936,-0.405605
0.6801701,-0.2714772,-0.3589054
0.6845188,-0.2939086,-0.3405314
0.6997631,-0.3073923,-0.2012069
0.6800424,-0.3605507,-0.1509548
0.6978856,-0.3423093,-0.1508671
0.7261813,-0.3314755,-0.1790884
0.6937149,-0.3784797,-0.1249543
0.6882398,-0.3605377,-0.05541362
0.6805938,-0.3571969,-0.05194961
0.7048965,-0.3840277,-0.03761566
0.8346463,-0.36452,-0.1507368
0.9856665,-0.3626863,-0.2548713
1.138962,-0.3250929,-0.3049572
1.234813,-0.2867811,-0.3395619
1.303832,-0.3231382,-0.2891596
1.386074,-0.3689835,-0.3628613
1.344199,-0.4326144,-0.465611
1.179478,-0.4819215,-0.5002616
0.9756591,-0.5319557,-0.4783827
0.9229684,-0.587095,-0.3918656
1.005243,-0.575564,-0.4881801
0.917625,-0.5091447,-0.6087589
0.7708665,-0.3381621,-0.6456177
0.6835493,-0.1785093,-0.6821086
0.6320962,-0.1650129,-0.5706214
0.7199845,-0.1751505,-0.468948
0.7932133,-0.2331691,-0.4311931
0.8394808,-0.3444202,-0.394118
0.9094406,-0.3788025,-0.4243309
0.8584622,-0.3345731,-0.4613668
0.7896821,-0.2567375,-0.5357054
0.726133,-0.1999112,-0.5558294
0.6729323,-0.1708048,-0.4824735
0.7111536,-0.1231287,-0.4538848
0.7138552,-0.04927466,-0.4291857
0.7173647,-0.01966316,-0.4346155
0.7511711,-0.05311343,-0.4582604
0.7841365,-0.03551416,-0.4690483
0.8631643,0.01271149,-0.5133677
0.8475424,0.0510435,-0.4858558
0.8058024,0.08097141,-0.4490824
0.858302,0.02715795,-0.4961799
0.8726423,-0.05495128,-0.511858
0.9276614,-0.1459034,-0.5082167
1.049789,-0.2071479,-0.5332242
1.14262,-0.1516902,-0.5686855
1.241656,-0.1454831,-0.6336171
1.266088,-0.2297703,-0.7284571
1.221225,-0.2675146,-0.8319113
1.148436,-0.2393156,-0.9181275
0.95432,-0.2262605,-0.9409541
0.7871617,-0.3628557,-0.8221492
0.7271705,-0.5233871,-0.5827224
0.6559198,-0.516619,-0.4226575
0.7070931,-0.4556293,-0.4319199
0.9382924,-0.3673259,-0.4899807
1.119448,-0.2018918,-0.5124317
1.073081,-0.1360303,-0.5025376
0.8605265,-0.1641688,-0.4903582
0.7165148,-0.1017593,-0.4803116
0.6942972,-0.09984832,-0.4442773
0.6763269,-0.2088725,-0.3903275
0.6122159,-0.2432794,-0.3122565
0.570222,-0.2674997,-0.2427207
0.6519406,-0.288486,-0.208703
0.7292005,-0.3008937,-0.1340817
0.7369751,-0.3585219,-0.1069054
0.7434752,-0.3689181,-0.1590843
0.7105898,-0.3894945,-0.127014
0.7175046,-0.4025296,-0.09828867
0.739286,-0.3740181,-0.110541
0.7837712,-0.3854714,-0.1070807
0.9835249,-0.3418031,-0.2124747
1.160693,-0.3083628,-0.3156569
1.225336,-0.337237,-0.2951115
1.278121,-0.3465039,-0.270064
1.329392,-0.4006676,-0.285593
1.323377,-0.4802856,-0.3541817
1.242718,-0.5618941,-0.460124
1.147871,-0.6357501,-0.5214392
0.9869484,-0.6625522,-0.5082888
0.8392317,-0.5859894,-0.5462598
0.7505867,-0.3707363,-0.6405116
0.6278205,-0.2300329,-0.6144743
0.6308,-0.19592,-0.5699628
0.6776828,-0.1520595,-0.5454108
0.6602862,-0.1851534,-0.4343772
0.7628449,-0.243603,-0.3927089
0.9140181,-0.2838844,-0.425212
1.002456,-0.302313,-0.4628291
0.9738433,-0.2461205,-0.5682953
0.876886,-0.2068682,-0.6131516
0.8165967,-0.1679468,-0.5494562
0.7095337,-0.1049386,-0.49863
0.6835735,-0.08651917,-0.4315929
0.7321759,-0.06873983,-0.3667067
0.7264599,-0.06682929,-0.4235845
0.8132604,-0.08449963,-0.5061882
0.8343417,-0.04719324,-0.4957659
0.7667023,0.02854721,-0.4729205
0.7930881,0.0908559,-0.4638766
0.7724282,0.09415304,-0.4530833
0.7777629,0.05578333,-0.4620211
0.8638116,-0.00415281,-0.4572178
0.9308998,-0.122443,-0.4612857
1.006089,-0.1951085,-0.5172498
1.058348,-0.1795109,-0.611101
1.150626,-0.185728,-0.6903696
1.235949,-0.1946207,-0.7025131
1.243294,-0.2575304,-0.7441609
1.26043,-0.353059,-0.8474808
1.161119,-0.2995182,-0.9576005
0.9487808,-0.2753724,-1.03845
0.8005442,-0.4188834,-0.8257089
0.7003808,-0.5158208,-0.4678969
0.6612686,-0.4874458,-0.4582905
0.770511,-0.4109688,-0.530722
0.9404778,-0.3233245,-0.4621339
0.9743359,-0.1993652,-0.496929
0.9051621,-0.1121349,-0.5198853
0.8377885,-0.1347895,-0.4960825
0.7414949,-0.1995523,-0.4688647
0.6542071,-0.2954657,-0.3370291
0.6214483,-0.3329585,-0.2644891
0.6329356,-0.3067907,-0.2522916
0.6625244,-0.3483067,-0.1917176
0.6929973,-0.3528248,-0.1841195
0.7231358,-0.3335864,-0.1908616
0.7166093,-0.3671749,-0.1597675
0.701044,-0.3574214,-0.1186898
0.7119024,-0.3541467,-0.07519634
0.7717475,-0.3648638,-0.07701973
0.9212977,-0.3413465,-0.1478306
1.058012,-0.3061268,-0.265898
1.114262,-0.2576701,-0.3297623
1.201388,-0.2738363,-0.2765876
1.320415,-0.3179993,-0.2499972
1.322184,-0.3245215,-0.3583234
1.227341,-0.3822724,-0.4874345
1.14095,-0.4422171,-0.5159459
1.025091,-0.4879119,-0.4480101
0.9552978,-0.5535706,-0.4146535
0.9485075,-0.5113401,-0.554487
0.826382,-0.3886598,-0.6952282
0.680163,-0.2714322,-0.6520132
0.6474778,-0.1776893,-0.5836748
0.6922001,-0.1870887,-0.526048
0.753669,-0.2387884,-0.4078164
0.7687867,-0.3264935,-0.3698378
0.8498855,-0.466877,-0.4017625
0.9385507,-0.474113,-0.4006893
0.865541,-0.369626,-0.4785284
0.8060245,-0.2825284,-0.5800336
0.7839032,-0.2195144,-0.5526557
0.7173518,-0.1831169,-0.5136644
0.7162118,-0.1381003,-0.4960591
0.7329887,-0.09644214,-0.4310882
0.7255739,-0.06148994,-0.4157648
0.7584218,-0.05065589,-0.4708357
0.7931076,-0.06760926,-0.506574
0.8135164,-0.01779835,-0.5109633
0.8299296,0.04583699,-0.4971605
0.8287842,0.06172245,-0.4834656
0.8545198,0.01984491,-0.4935215
0.9237831,-0.08721248,-0.4978642
0.999521,-0.1495267,-0.5057928
1.063655,-0.1588489,-0.5550227
1.119402,-0.1520404,-0.6022016
1.172576,-0.1575233,-0.6186648
1.163589,-0.2033809,-0.6538876
1.11379,-0.2018188,-0.7553735
1.091827,-0.150937,-0.866787
0.9863308,-0.1403846,-0.887773
0.8282687,-0.2973434,-0.7814744
0.7357701,-0.5362849,-0.5810694
0.6680756,-0.5464369,-0.4577761
0.7435916,-0.4387413,-0.4974233
0.9495188,-0.3825361,-0.5340652
1.012907,-0.248739,-0.5168121
0.9558177,-0.1360091,-0.5222902
0.8974772,-0.1378049,-0.4991178
0.8110126,-0.1643474,-0.445875
0.7493366,-0.207897,-0.4232273
0.7042906,-0.2638379,-0.3584012
0.6313567,-0.3263932,-0.2520371
0.6500966,-0.3469896,-0.220695
0.7270539,-0.3197348,-0.2352273
0.7362589,-0.3459408,-0.2168822
0.7799646,-0.3697219,-0.1790133
0.8037276,-0.372168,-0.143663
0.7347216,-0.3951061,-0.1046822
0.7435639,-0.3779649,-0.06511555
0.7626048,-0.3829285,-0.06441037
0.7692644,-0.3874011,-0.1268777
0.8758187,-0.3369723,-0.2194679
0.9708671,-0.3124794,-0.2915881
1.080018,-0.2963295,-0.2934733
1.239129,-0.3098495,-0.2382197
1.342513,-0.3338752,-0.2294388
1.365093,-0.3332952,-0.2916769
1.306026,-0.3550251,-0.3563407
1.137906,-0.3696904,-0.3815758
0.924331,-0.474126,-0.4052275
0.9357244,-0.5887074,-0.50129
0.9727291,-0.4659279,-0.6302396
0.7626803,-0.3042801,-0.7396146
0.7245606,-0.2778751,-0.7271646
0.7536359,-0.2179378,-0.5505964
0.6550815,-0.1588689,-0.4350966
0.721434,-0.2411523,-0.3874182
0.7747337,-0.3455799,-0.35645
0.836821,-0.3937444,-0.4024369
0.9300597,-0.4007282,-0.440625
0.8261491,-0.3246341,-0.5466757
0.7720713,-0.2562356,-0.6054628
0.7607424,-0.2284692,-0.5167446
0.7177607,-0.1819076,-0.5059013
0.7675223,-0.1280969,-0.4739424
0.7852166,-0.07558322,-0.4385178
0.8044143,-0.07108023,-0.4932683
0.8357382,-0.06439989,-0.491329
0.833981,-0.02278506,-0.4983711
0.8503605,0.003530851,-0.5003568
0.8272119,0.04040573,-0.4775921
0.8145319,0.02155451,-0.4863788
0.8374154,-0.05655759,-0.4712051
0.8588785,-0.1343191,-0.482696
0.9154358,-0.1841934,-0.5164078
0.9904446,-0.1434171,-0.5581583
1.074167,-0.1312361,-0.5943942
1.123003,-0.1663204,-0.5708352
1.118453,-0.1754535,-0.5728928
1.153477,-0.2763965,-0.5805868
1.19916,-0.3779282,-0.5849689
1.090899,-0.3513366,-0.7003861
0.9105441,-0.3485555,-0.834881
0.8734267,-0.4308099,-0.810466
0.8344273,-0.4744924,-0.6362004
0.7432402,-0.449015,-0.497023
0.831802,-0.3908416,-0.4952587
0.9629021,-0.2720508,-0.5105667
0.9492128,-0.1534758,-0.4507649
0.9124096,-0.09183752,-0.4213179
0.8848319,-0.0861369,-0.443843
0.8295206,-0.1798347,-0.3801794
0.7830541,-0.2705179,-0.3077254
0.7416289,-0.2936298,-0.3098708
0.7090077,-0.329339,-0.2744971
0.7532503,-0.4376663,-0.4546431
0.8269644,-0.326303,-0.4782109
0.9115708,-0.2481872,-0.4709112
0.892752,-0.161662,-0.4804064
0.8327183,-0.1232873,-0.5367837
0.7525547,-0.1819343,-0.4561773
0.6763996,-0.2467227,-0.3466611
0.6550725,-0.2973395,-0.2989551
0.6159683,-0.3282577,-0.2233534
0.6047666,-0.3228744,-0.1845509
0.634712,-0.3146102,-0.1610455
0.6402673,-0.2939652,-0.1554276
0.6584961,-0.2864141,-0.1404808
0.6629523,-0.3129038,-0.07342436
0.6867114,-0.3491109,-0.06292964
0.7773295,-0.398379,-0.07139241
0.9150398,-0.4060313,-0.1414249
1.096857,-0.3563299,-0.3250675
1.211519,-0.307079,-0.400972
1.269814,-0.2692246,-0.299587
1.348429,-0.2854054,-0.2385088
1.341945,-0.3883795,-0.3664666
1.219711,-0.4903929,-0.4730962
1.036403,-0.5257518,-0.425032
0.9269496,-0.6021929,-0.4513448
0.9559709,-0.6836131,-0.6064399
0.8864409,-0.5223158,-0.7325879
0.721744,-0.2885,-0.7112981
0.6845318,-0.2385916,-0.5825712
0.7374363,-0.2187402,-0.4746695
0.7922298,-0.249436,-0.3673075
0.7828646,-0.3635655,-0.325189
0.7728717,-0.3949013,-0.372023
0.8213032,-0.3686009,-0.4017281
0.7825456,-0.2933062,-0.4982794
0.7208145,-0.1887322,-0.5711571
0.6851441,-0.1635447,-0.5139843
0.6405069,-0.1858946,-0.4875237
0.6788438,-0.1826277,-0.4644328
0.7162677,-0.1416361,-0.4234087
0.7610799,-0.1084231,-0.4244877
0.832307,-0.07826536,-0.441666
0.8308079,-0.02194077,-0.4894593
0.8471569,0.03872984,-0.4948985
0.8350477,0.0899833,-0.4746945
0.7955215,0.07103543,-0.4943935
0.8667577,-0.02118856,-0.467458
0.9588048,-0.1140992,-0.4603749
1.072498,-0.1353929,-0.5428137
1.234884,-0.08170787,-0.6137953
1.309346,-0.08364661,-0.6228426
1.288106,-0.1539776,-0.6515305
1.324877,-0.2667536,-0.7645169
1.402373,-0.3636004,-0.8215221
1.27979,-0.2753197,-0.8414735
1.021181,-0.1756799,-0.9348507
0.8354066,-0.2476556,-0.8843287
0.688688,-0.369336,-0.655142
0.6335773,-0.5192437,-0.4540509
0.7172434,-0.563086,-0.3980839
0.8806988,-0.4281766,-0.4787033
1.041639,-0.3429728,-0.4859561
1.050623,-0.2639066,-0.4711956
0.9481221,-0.1236533,-0.5390221
0.8268732,-0.1039781,-0.5158341
0.6818099,-0.1821407,-0.4495989
0.6025102,-0.2560299,-0.3424401
0.6025533,-0.3094442,-0.1970543
0.6016743,-0.336021,-0.1602003
0.6207966,-0.3591493,-0.1322553
0.6690593,-0.3681395,-0.1030435
0.6829684,-0.3672917,-0.09569731
0.6632306,-0.3586524,-0.08037526
0.641236,-0.3372639,-0.09137812
0.6253488,-0.3265046,-0.07431873
0.676908,-0.3203974,-0.1019244
0.9009345,-0.3249558,-0.1753659
1.250848,-0.3294027,-0.2310854
1.414941,-0.3255538,-0.2544254
1.347193,-0.3514848,-0.2267208
1.344884,-0.4360717,-0.3470019
1.35256,-0.5297218,-0.5493042
1.271839,-0.5364551,-0.6005068
1.184058,-0.6023226,-0.5149797
1.011302,-0.7886654,-0.4127371
0.9146672,-0.7780724,-0.4800518
0.94924,-0.5663726,-0.5897685
0.7859466,-0.3188491,-0.6584101
0.6100768,-0.09960297,-0.7114188
0.7026725,-0.1327285,-0.5654749
0.780322,-0.1951473,-0.430097
0.7696728,-0.1431571,-0.4184555
0.8363492,-0.3068924,-0.3817009
0.8587154,-0.395695,-0.4145271
0.7988133,-0.2920001,-0.4678048
0.7608648,-0.2900481,-0.5002043
0.7098359,-0.2226764,-0.5046097
0.694762,-0.1638654,-0.4512263
0.7195736,-0.1480916,-0.4333471
0.6962801,-0.05142122,-0.4172477
0.7015506,-0.07400846,-0.4243078
0.7240171,-0.09409673,-0.4561468
0.7312522,-0.02546202,-0.4456218
0.7718991,0.01553853,-0.4602913
0.7902516,0.08257577,-0.472166
0.8042227,0.06859639,-0.4808258
0.8711707,-0.02257928,-0.5051406
0.9679325,-0.0989076,-0.5081724
1.050893,-0.1690781,-0.5539662
1.135077,-0.1348492,-0.6088958
1.253803,-0.08966892,-0.6471492
1.295412,-0.1418092,-0.7431334
1.249141,-0.1944024,-0.8326903
1.18414,-0.2438542,-0.8249172
1.044547,-0.2547608,-0.8140779
0.8745214,-0.2947869,-0.8438451
0.7554873,-0.4707857,-0.7089755
0.7444291,-0.5427537,-0.4841039
0.8326954,-0.4673842,-0.4436337
0.9272421,-0.4029183,-0.4624076
1.028447,-0.2841289,-0.4570577
1.034809,-0.1892487,-0.5198001
0.9044233,-0.1836023,-0.5635909
0.7609247,-0.1639559,-0.5199894
0.6089722,-0.1889937,-0.4209779
0.534006,-0.2571769,-0.31566
0.5450269,-0.256524,-0.2177274
0.5560366,-0.2551847,-0.1373687
0.6299914,-0.2977886,-0.111784
0.699627,-0.3085942,-0.1072045
0.723526,-0.3281402,-0.08575677
0.7412238,-0.3713867,-0.0589165
0.733655,-0.3942621,-0.05703408
0.7651931,-0.4236926,-0.0768887
0.8297133,-0.4297717,-0.1158964
0.9036872,-0.4025436,-0.1800641
1.045058,-0.3361479,-0.1919784
1.247982,-0.2481578,-0.1888687
1.344736,-0.2670607,-0.2223945
1.255526,-0.3227718,-0.2649654
1.224748,-0.3587704,-0.4181419
1.226906,-0.4725274,-0.5466091
1.111232,-0.5727695,-0.5148125
1.046688,-0.6874895,-0.6153705
1.016838,-0.7751087,-0.7952439
0.9535164,-0.5676687,-0.758522
0.822955,-0.3212724,-0.7145724
0.6810679,-0.2507419,-0.7255372
0.7294518,-0.1386171,-0.5559619
0.7422172,-0.1006718,-0.4070297
0.6883098,-0.1947031,-0.3913141
0.7849337,-0.2623548,-0.3347875
0.8339323,-0.3066363,-0.3428117
0.8247512,-0.2881191,-0.4190024
0.7914619,-0.2337476,-0.4821548
0.702967,-0.1875447,-0.542274
0.7059245,-0.1309531,-0.5071007
0.7222461,-0.1054743,-0.4660677
0.7274835,-0.08178892,-0.4522717
0.7649579,-0.06422745,-0.4088068
0.7617211,-0.07151908,-0.4374361
0.7837782,-0.05236751,-0.4718031
0.830415,-0.01412632,-0.477233
0.8332547,0.04006842,-0.4977282
0.810923,0.0694806,-0.4785762
0.8017948,0.002254266,-0.4732679
0.8494648,-0.1109572,-0.4860151
0.9544141,-0.1741633,-0.4980901
1.097066,-0.1533473,-0.5503558
1.214269,-0.1337996,-0.6228892
1.26224,-0.1860128,-0.763614
1.293975,-0.2375278,-0.9023872
1.268365,-0.2669672,-0.9025429
1.11223,-0.2749147,-0.9203261
0.944338,-0.2858514,-0.9899278
0.8533586,-0.3926008,-0.8552417
0.711284,-0.4899197,-0.5623481
0.5571831,-0.4919515,-0.4051124
0.6654738,-0.4545228,-0.4228915
0.949169,-0.3452665,-0.4657548
1.070317,-0.2157744,-0.4832178
1.00305,-0.1411895,-0.5419385
0.8879656,-0.1192102,-0.5764599
0.8035704,-0.1523239,-0.4773215
0.6951509,-0.2160985,-0.3568371
0.5965343,-0.2790014,-0.2782034
0.6493193,-0.2727036,-0.233728
0.6730935,-0.2578646,-0.2036216
0.6531895,-0.3020621,-0.1395851
0.6991607,-0.2922529,-0.1541011
0.6613466,-0.2882907,-0.1528741
0.6434799,-0.3411652,-0.04064798
0.6564692,-0.3687688,0.002785675
0.6795578,-0.4285907,0.005053871
0.844834,-0.4703928,-0.06390144
0.982606,-0.415805,-0.2324267
1.100069,-0.3544639,-0.3131696
1.27254,-0.3064601,-0.2986952
1.375916,-0.2942247,-0.2893827
1.378177,-0.3767594,-0.3660418
1.300472,-0.4924516,-0.4747762
1.193958,-0.57935,-0.526673
1.038426,-0.6368848,-0.5270914
0.9729432,-0.6244703,-0.5246797
1.002907,-0.5304851,-0.6509195
0.846107,-0.3901573,-0.7415508
0.6688354,-0.2347477,-0.6819354
0.6405264,-0.1923872,-0.6544281
0.6768702,-0.2503081,-0.5494436
0.7404695,-0.2469678,-0.3720054
0.7669264,-0.2977083,-0.3480302
0.8367142,-0.41293,-0.4081041
0.8631904,-0.3965732,-0.4386522
0.7661611,-0.3170783,-0.5079756
0.7066269,-0.2490523,-0.5652982
0.6849839,-0.2054355,-0.5113796
0.7111,-0.1857007,-0.4864185
0.7359851,-0.09233254,-0.4521958
0.727514,-0.02966206,-0.3762843
0.7551073,-0.07060058,-0.4357078
0.7576197,-0.07036158,-0.478541
0.7790026,-0.04217287,-0.4577286
0.795226,-0.02418679,-0.4675273
0.7775681,0.03690316,-0.4386074
0.8145663,0.05696475,-0.4441479
0.8518405,-0.02152292,-0.4726677
0.9299401,-0.1200877,-0.4963922
1.031678,-0.1692064,-0.5594907
1.1062,-0.1264769,-0.5967782
1.220868,-0.09022772,-0.6356341
1.25947,-0.1615988,-0.7323709
1.215652,-0.2286625,-0.8539238
1.155047,-0.2417744,-0.8919682
1.024828,-0.2448396,-0.8480094
0.8802783,-0.2756221,-0.8329547
0.7387978,-0.3965021,-0.7205454
0.6625751,-0.5139186,-0.5155029
0.7308567,-0.5243489,-0.4766348
0.8684022,-0.4716763,-0.5392452
1.03235,-0.378752,-0.5359223
1.088131,-0.2756424,-0.547387
0.9761861,-0.2224494,-0.5870385
0.8462305,-0.1996058,-0.5581162
0.675581,-0.1655212,-0.4550245
0.5468954,-0.1885695,-0.326539
0.5955119,-0.2430849,-0.2666636
0.6151999,-0.22235,-0.2366283
0.6189738,-0.2417168,-0.1372764
0.7231842,-0.3066247,-0.1142784
0.7368948,-0.3025647,-0.145394
0.6955316,-0.3161187,-0.1172928
0.6965145,-0.3777485,-0.1287885
0.6648298,-0.4391321,-0.1114366
0.6877082,-0.4418435,-0.06739152
0.7890878,-0.413359,-0.08629417
0.9198661,-0.4373407,-0.1343537
1.063363,-0.3818544,-0.2598743
1.127752,-0.2852542,-0.3416977
1.179287,-0.2901983,-0.2837036
1.293962,-0.314944,-0.2639159
1.403946,-0.4033752,-0.359729
1.456533,-0.5330091,-0.5217511
1.304672,-0.5839027,-0.6349428
1.037183,-0.6428436,-0.6031876
0.9752945,-0.6834793,-0.5520956
0.959257,-0.5826178,-0.5738304
0.8133332,-0.4170088,-0.5454941
0.7378963,-0.2414589,-0.5134081
0.6835878,-0.04602348,-0.5094255
0.6271654,-0.01747382,-0.4139236
0.6855299,-0.1482869,-0.3962212
0.7407011,-0.1911779,-0.4408416
0.8202609,-0.2406356,-0.4251514
0.9183887,-0.3248752,-0.5175869
0.8618824,-0.3024183,-0.5851625
0.7645124,-0.2709953,-0.5400189
0.6919483,-0.2439228,-0.5184158
0.6146534,-0.2148971,-0.4705635
0.6281438,-0.2016063,-0.4110392
0.6527039,-0.1541387,-0.3841793
0.6699458,-0.1394149,-0.3959806
0.7629031,-0.1219882,-0.4113405
0.8038145,-0.07706759,-0.4067017
0.7951416,-0.01211357,-0.4547783
0.8288754,0.1254919,-0.4937811
0.8282295,0.1509749,-0.4786109
0.8351929,0.05101074,-0.4759129
0.9538899,-0.05154941,-0.5109555
1.090383,-0.211144,-0.5791488
1.124448,-0.212963,-0.6373279
1.168979,-0.05876229,-0.6843683
1.28544,-0.06650554,-0.7462503
1.266871,-0.1630486,-0.8147797
1.172302,-0.2597539,-0.9030674
1.123228,-0.3252649,-1.051576
0.9839535,-0.3852421,-1.140523
0.8820795,-0.5739186,-0.8954205
0.79063,-0.6512345,-0.4541321
0.6528321,-0.5768972,-0.3053388
0.8041668,-0.4905854,-0.4407533
0.9623162,-0.2956282,-0.4803437
0.8662823,-0.1719012,-0.452798
0.8312527,-0.1180463,-0.5025808
0.7630472,-0.02317302,-0.4785633
0.6871998,-0.04487448,-0.3920104
0.7064056,-0.07602353,-0.3481967
0.6677794,-0.07620936,-0.3149732
0.6831543,-0.1297389,-0.2940039
0.7060715,-0.168216,-0.2355033
0.6912289,-0.2250287,-0.1964296
0.711689,-0.3073451,-0.2392714
0.6746523,-0.3694102,-0.2231919
0.669975,-0.4142065,-0.1650221
0.7138282,-0.4470548,-0.09618241
0.7725583,-0.4619467,-0.01594486
0.8917414,-0.4344989,-0.05536538
1.013761,-0.4028089,-0.1952803
1.173157,-0.3735776,-0.3863716
1.262869,-0.3316305,-0.4901618
1.233,-0.3764728,-0.3672462
1.263111,-0.5167752,-0.3227311
1.264111,-0.6393073,-0.4953759
1.19099,-0.7293251,-0.6320638
1.132822,-0.7846103,-0.6691577
1.015469,-0.7103986,-0.7128879
0.8715279,-0.5146772,-0.7848656
0.7690056,-0.3142386,-0.714582
0.6890047,-0.1269683,-0.549219
0.6787679,-0.04436831,-0.5083543
0.7046001,-0.1415337,-0.4256746
0.6795889,-0.2162177,-0.3185663
0.6777045,-0.2623412,-0.3625988
0.7303392,-0.3395048,-0.3826519
0.7631968,-0.2666454,-0.411352
0.7733796,-0.156665,-0.5071977
0.724527,-0.14278,-0.5286931
0.6517348,-0.1276474,-0.5210826
0.6661402,-0.1252783,-0.5055308
0.7369584,-0.1174044,-0.4809801
0.8305815,-0.1140132,-0.4944444
0.8788073,-0.1215308,-0.5243439
0.8525395,-0.06948416,-0.5554121
0.8364579,-0.006280741,-0.5445399
0.7992026,0.02674338,-0.4999436
0.7729842,-0.002778402,-0.4828512
0.8080193,-0.05772343,-0.5055418
0.8683355,-0.0455269,-0.5527881
1.022713,-0.009938228,-0.5942419
1.220127,0.01301243,-0.6338953
1.305852,-0.04632527,-0.6455154
1.29177,-0.1420861,-0.6553007
1.267956,-0.1165669,-0.7352748
1.204599,-0.1059714,-0.7892612
1.011017,-0.1916581,-0.8058388
0.8482363,-0.346817,-0.8001363
0.860373,-0.5784814,-0.669245
0.8179645,-0.6356343,-0.5322535
0.7088606,-0.5121865,-0.4888979
0.8212319,-0.3744968,-0.4673252
0.971051,-0.1488336,-0.4350344
0.8899485,-0.085163,-0.4059074
0.7798293,-0.1954358,-0.4270504
0.6818015,-0.1598949,-0.3842374
0.5919886,-0.2548085,-0.2640285
0.6217622,-0.4316978,-0.209682
0.5921709,-0.3900576,-0.1808206
0.5688573,-0.3856465,-0.1835021
0.6735114,-0.3839444,-0.1696737
0.739398,-0.3173987,-0.1154128
0.7881394,-0.3150572,-0.1304243
0.7779292,-0.3112162,-0.1217841
0.7479311,-0.3444873,-0.0670437
0.8163105,-0.3658688,-0.03747392
0.8608229,-0.3631734,-0.06373175
0.9178115,-0.3768211,-0.1329979
0.9907515,-0.3195335,-0.1539876
1.132766,-0.2840419,-0.1955464
1.383925,-0.3150357,-0.2265912
1.40907,-0.3943085,-0.2521508
1.259943,-0.4820385,-0.4171032
1.108703,-0.5017863,-0.4893193
0.9364652,-0.5659387,-0.4357912
0.9892202,-0.6352954,-0.5162759
1.08337,-0.5666745,-0.6275972
0.9488934,-0.4605304,-0.6474527
0.7774753,-0.3442196,-0.6175527
0.5929552,-0.1524203,-0.5783347
0.583032,-0.1044952,-0.5362413
0.7644833,-0.22305,-0.4440944
0.7744633,-0.2454186,-0.3226088
0.7969731,-0.3036638,-0.2773935
0.8322588,-0.3478904,-0.4019291
0.7377462,-0.2689028,-0.5762214
0.7700396,-0.3173129,-0.6267769
0.7746325,-0.3028239,-0.5906892
0.7486714,-0.2054969,-0.524111
0.7927359,-0.1950975,-0.4714342
0.7484655,-0.1099606,-0.4459421
0.7825963,-0.0935937,-0.4546751
0.8218618,-0.08590424,-0.5036408
0.7977399,0.02855268,-0.5044726
0.7945502,0.06882377,-0.4790479
0.7214298,0.1099942,-0.4346574
0.7443532,0.103751,-0.3914588
0.831779,0.02955264,-0.4394117
0.9386496,-0.04825394,-0.477641
1.134812,-0.149129,-0.5124302
1.230628,-0.1282616,-0.5963802
1.290622,-0.1180689,-0.68087
1.341377,-0.1846476,-0.7954014
1.28792,-0.1647557,-0.8673985
1.147485,-0.1848735,-0.8980593
0.9406843,-0.2953728,-0.9189767
0.8696558,-0.4671722,-0.745349
0.8065984,-0.604327,-0.4792183
0.6846102,-0.5434535,-0.4340925
0.8544709,-0.4257027,-0.4551973
1.022424,-0.3037519,-0.4089624
0.9525152,-0.1456438,-0.5040276
0.9264318,-0.07776398,-0.5857175
0.8318041,-0.08381619,-0.5314332
0.6739285,-0.139841,-0.4810387
0.6162107,-0.2338311,-0.3716631
0.598488,-0.3123726,-0.2871233
0.6441216,-0.3586847,-0.2253107
0.7016314,-0.3494902,-0.1232744
0.7556787,-0.3697288,-0.1496785
0.794128,-0.4151597,-0.1672419
0.75184,-0.4436448,-0.09970151
0.7514354,-0.4756539,-0.06695036
0.7794097,-0.4471671,-0.04161345
0.8046832,-0.4382841,-0.1155675
0.9073736,-0.4110395,-0.2621158
1.025644,-0.297083,-0.3057151
1.120293,-0.2764699,-0.226784
1.233291,-0.3072561,-0.1585058
1.380268,-0.312678,-0.2368605
1.389884,-0.3266293,-0.3183344
1.101938,-0.3587693,-0.3426691
0.8114681,-0.4192421,-0.4256212
0.8516611,-0.4099902,-0.462967
0.9651736,-0.3779849,-0.5756555
0.893676,-0.360201,-0.8434548
0.88694,-0.2987782,-0.8576738
0.8822299,-0.2829581,-0.6686067
0.768772,-0.2447533,-0.584827
0.8162884,-0.1735851,-0.5015312
0.8423293,-0.259644,-0.4392316
0.7923356,-0.4229731,-0.3724988
0.8447843,-0.4884426,-0.2908858
0.8173668,-0.4314831,-0.3932242
0.774752,-0.2976235,-0.4803688
0.7414021,-0.1825648,-0.4689065
0.6824232,-0.1105103,-0.4728325
0.7285466,-0.09318293,-0.4165577
0.7531122,-0.1124165,-0.4488627
0.7726521,-0.08366809,-0.5218921
0.8342939,-0.06408136,-0.5187062
0.8375601,-0.04024524,-0.5345195
0.8354018,0.03118176,-0.481978
0.8152761,0.058032,-0.4317641
0.7806346,0.08293759,-0.4224754
0.7924731,0.06947514,-0.4131086
0.8666717,-0.04815441,-0.4751598
0.9871832,-0.1280602,-0.5033243
1.080169,-0.1016017,-0.5468701
1.180038,-0.0619831,-0.6300401
1.244724,-0.1242961,-0.6424818
1.203292,-0.1802602,-0.6772202
1.223825,-0.1701869,-0.7330659
1.24462,-0.2062041,-0.7503716
1.070989,-0.2121357,-0.7416398
0.8922434,-0.263201,-0.7240002
0.8325942,-0.4260596,-0.6413145
0.75189,-0.5026581,-0.4980477
0.7333511,-0.4810557,-0.4969559
0.8923748,-0.4082387,-0.5301325
1.02393,-0.3003998,-0.4541158
1.02999,-0.2227251,-0.4475507
0.9818805,-0.189649,-0.4784357
0.8667087,-0.1730376,-0.4613778
0.7542195,-0.1638284,-0.4105234
0.671037,-0.2281703,-0.3119666
0.6337777,-0.295967,-0.2466827
0.685135,-0.2945673,-0.1942398
0.7126724,-0.3090508,-0.1103549
0.7265169,-0.321021,-0.09143916
0.7278173,-0.3322627,-0.1092326
0.6752692,-0.3781668,-0.08842552
0.6574001,-0.4057439,-0.07036374
0.6588031,-0.4081249,-0.06966421
0.7414268,-0.4028756,-0.1038023
0.9387064,-0.3794658,-0.1909913
1.099319,-0.3274846,-0.2558924
1.20113,-0.2721836,-0.260525
1.305253,-0.2483426,-0.2551894
1.40563,-0.2745161,-0.309456
1.414536,-0.3533167,-0.4545541
1.29373,-0.4486704,-0.5508323
1.086468,-0.5408596,-0.4474632
0.9584538,-0.6077612,-0.3653768
0.9964398,-0.5767916,-0.5452608
0.8966125,-0.4345796,-0.6970684
0.6985119,-0.2920366,-0.6214063
0.6988415,-0.2027516,-0.5626676
0.7093869,-0.137676,-0.5165136
0.6795687,-0.1561736,-0.3860426
0.7245982,-0.2588533,-0.3233445
0.7789932,-0.3422324,-0.337198
0.8565187,-0.3526063,-0.3858459
0.8775339,-0.2912177,-0.4919321
0.7903389,-0.2280512,-0.5420112
0.7291541,-0.1994338,-0.494025
0.7163478,-0.1665096,-0.4527206
0.7326294,-0.1087702,-0.4292949
0.7736348,-0.05281183,-0.3933991
0.8000541,-0.05212311,-0.4022262
0.8306239,-0.0574083,-0.4477057
0.8611201,-0.007722824,-0.460667
0.8733841,0.05629084,-0.4646945
0.8646189,0.1102422,-0.4631949
0.8446377,0.09114595,-0.4554985
0.8927675,-0.02366348,-0.4753421
0.9916687,-0.1072153,-0.5026362
1.103963,-0.09554277,-0.5778554
1.229079,-0.0937989,-0.6829139
1.272957,-0.2013958,-0.7371043
1.274438,-0.2863421,-0.8000567
1.25069,-0.2437227,-0.8541278
1.060028,-0.2139797,-0.8948885
0.8311277,-0.2525941,-0.9451087
0.7694822,-0.3698943,-0.7501521
0.7313807,-0.5370207,-0.4205878
0.6883046,-0.5443278,-0.4176972
0.8467182,-0.4299277,-0.5205329
0.9882171,-0.374519,-0.4772645
0.9447255,-0.2525764,-0.5415718
0.9731775,-0.08797761,-0.6316107
0.9684613,-0.125159,-0.595877
0.7941604,-0.2215254,-0.5024031
0.6642984,-0.220824,-0.3726466
0.6385106,-0.2853693,-0.2822095
0.6269802,-0.3577821,-0.1771694
0.6115044,-0.3270688,-0.1112122
0.6543492,-0.3170315,-0.1734146
0.6747872,-0.3377864,-0.1543036
0.6537264,-0.336111,-0.1305461
0.687494,-0.3434293,-0.1644624
0.6686258,-0.3479813,-0.08225046
0.6762069,-0.3446869,-0.009578919
0.7822981,-0.3594371,-0.005389532
0.9076594,-0.3742165,-0.0990932
1.082201,-0.378264,-0.3284671
1.175086,-0.3818142,-0.439641
1.272905,-0.3835419,-0.3989721
1.450038,-0.4132212,-0.3888648
1.440894,-0.4650044,-0.4140095
1.272231,-0.5168373,-0.3891127
1.096508,-0.6469161,-0.3911907
1.00267,-0.7601502,-0.5625518
0.9519153,-0.6133556,-0.7071009
0.8659924,-0.3612671,-0.6601784
0.8292729,-0.2319547,-0.5999407
0.7357918,-0.07391363,-0.5992755
0.6343676,0.03809372,-0.5151098
0.6459928,-0.05536644,-0.3946696
0.6699614,-0.1250372,-0.4058082
0.7815388,-0.1863609,-0.4257082
0.871388,-0.2935734,-0.4399964
0.8374507,-0.2566002,-0.5346692
0.7950359,-0.217448,-0.5664632
0.7148567,-0.2286353,-0.5446909
0.6819984,-0.1799215,-0.5063972
0.6933899,-0.1556995,-0.4355433
0.6998522,-0.1170566,-0.3956059
0.7595944,-0.08521611,-0.4008094
0.7828111,-0.08260656,-0.438223
0.795213,0.001947765,-0.458345
0.811793,0.08049791,-0.4773392
0.7982642,0.06719807,-0.4947171
0.8310045,-0.02296317,-0.5002801
0.892377,-0.130484,-0.5508713
0.9756703,-0.1534121,-0.6064773
1.059419,-0.1300391,-0.6615331
1.145106,-0.1505732,-0.686149
1.258751,-0.2340722,-0.7260767
1.254452,-0.2889272,-0.8659804
1.179574,-0.2229043,-0.9288573
1.154799,-0.1722523,-0.954177
1.048098,-0.2823665,-0.9779465
0.9432431,-0.3946429,-0.8615444
0.860133,-0.3876379,-0.7288375
0.6262802,-0.4272746,-0.5202426
0.5865441,-0.4646834,-0.3720714
0.8549169,-0.3654953,-0.4907602
1.001323,-0.268097,-0.4812176
0.9949581,-0.1846861,-0.4448639
0.9426557,-0.1359804,-0.5507989
0.8650415,-0.1821539,-0.497497
0.7687843,-0.2120872,-0.428755
0.6436861,-0.2737106,-0.347315
0.6285443,-0.3515669,-0.2380537
0.6373027,-0.3472895,-0.2473735
0.6238194,-0.3553769,-0.1761615
0.6634782,-0.3418284,-0.1317321
0.6432451,-0.2964721,-0.1583653
0.6463777,-0.3229361,-0.08290296
0.6916726,-0.3549017,-0.02527932
0.7373671,-0.366563,-0.003400256
0.8799032,-0.3821407,-0.06555122
1.017248,-0.3603538,-0.2231602
1.101829,-0.3117267,-0.3168768
1.219706,-0.2620165,-0.3137129
1.384325,-0.2777201,-0.2957121
1.449485,-0.3837416,-0.4038135
1.345321,-0.4766428,-0.4936934
1.196427,-0.554882,-0.4191183
1.001834,-0.6660171,-0.4124742
0.926793,-0.6923323,-0.5635814
0.9124712,-0.5059212,-0.707684
0.6792822,-0.2510454,-0.6884998
0.6113797,-0.1621361,-0.6068439
0.7162548,-0.160053,-0.5606397
0.6605665,-0.1614519,-0.4266284
0.6978121,-0.2704263,-0.3406502
0.7972976,-0.4157244,-0.3656296
0.8528565,-0.461127,-0.3831557
0.9062166,-0.3993026,-0.4710798
0.8123032,-0.3076421,-0.5419974
0.728537,-0.2402072,-0.5397906
0.7422767,-0.1800048,-0.5192633
0.7375781,-0.1331848,-0.4299285
0.7440813,-0.08586961,-0.3958454
0.7500035,-0.07103042,-0.4275307
0.7701239,-0.07563145,-0.4401038
0.7991315,-0.01594939,-0.4863579
0.805273,0.0505978,-0.4913869
0.7949083,0.1059635,-0.4547345
0.7684651,0.1012595,-0.4449763
0.7925051,0.02448233,-0.4491124
0.8768237,-0.0449778,-0.4950883
0.9943654,-0.1634026,-0.5594467
1.08126,-0.1647191,-0.600272
1.123007,-0.08588959,-0.6046872
1.228541,-0.1717823,-0.6442249
1.280323,-0.1886521,-0.7639701
1.273198,-0.1768189,-0.8295223
1.331562,-0.2374855,-0.8259751
1.196926,-0.2074887,-0.8259079
0.8852865,-0.2838417,-0.8092529
0.7204188,-0.4312591,-0.7133613
0.718026,-0.501155,-0.5229088
0.7749281,-0.562607,-0.4286614
0.7862939,-0.4908767,-0.4751954
0.8422413,-0.2603323,-0.4888766
0.9443285,-0.04762163,-0.5175272
0.8422971,-0.0866017,-0.5798445
0.7187991,-0.2262124,-0.5424968
0.7062521,-0.2043241,-0.4365242
0.624422,-0.288145,-0.3201235
0.5883159,-0.3647886,-0.2022159
0.6558524,-0.2883301,-0.1386014
0.7079422,-0.3433048,-0.1139579
0.7224033,-0.3608683,-0.1414131
0.7024837,-0.3483265,-0.2164764
0.6880511,-0.4104456,-0.1897551
0.7175039,-0.3742395,-0.1095406
0.7577047,-0.3870475,-0.0806384
0.7997247,-0.407555,-0.1030779
0.9459402,-0.3508732,-0.2623683
1.144486,-0.3170543,-0.4341065
1.185945,-0.2618224,-0.442805
1.226866,-0.2957815,-0.3648244
1.454468,-0.3914443,-0.3259644
1.494645,-0.4337493,-0.3558491
1.169092,-0.4896631,-0.3647492
0.9115057,-0.5927047,-0.404985
0.9347687,-0.7323728,-0.5050874
0.9927395,-0.7098943,-0.5403992
0.8862552,-0.5155616,-0.6061211
0.7379526,-0.3392042,-0.7106988
0.6861792,-0.2030923,-0.6841795
0.7047409,-0.1773728,-0.6022945
0.7615099,-0.1493663,-0.5605481
0.7513587,-0.1655097,-0.4556251
0.7663356,-0.3599773,-0.3410737
0.8427155,-0.3788208,-0.3548197
0.7882772,-0.310074,-0.4111023
0.7647673,-0.3330603,-0.4622878
0.7761137,-0.2237647,-0.4864775
0.7302105,-0.1496059,-0.4551431
0.7639737,-0.1291707,-0.4393083
0.7642695,-0.07340159,-0.39101
0.7606884,-0.0872614,-0.3492514
0.8086011,-0.07629715,-0.3998947
0.8340663,-0.0633352,-0.4406389
0.8768423,-0.02342314,-0.4522936
0.8407327,0.07052853,-0.4654441
0.7837368,0.08288176,-0.467966
0.8030088,0.03993174,-0.4831637
0.8571475,-0.06116176,-0.5113774
0.9645369,-0.1612278,-0.5141187
1.047823,-0.1778256,-0.5110183
1.166934,-0.1900952,-0.5763728
1.312026,-0.2135887,-0.6928672
1.326117,-0.2432239,-0.8137489
1.345303,-0.2475046,-0.9073075
1.290338,-0.1827698,-0.9655736
1.05922,-0.1338803,-0.9838551
0.8904742,-0.2422341,-0.7879114
0.6859895,-0.4002858,-0.460047
0.5515733,-0.3870888,-0.4016726
0.7798867,-0.3407664,-0.4826646
0.9645981,-0.3100458,-0.4198963
0.9624473,-0.1751484,-0.4298782
0.9848187,-0.09968929,-0.5230729
0.9246727,-0.1220031,-0.5256946
0.8173625,-0.175823,-0.4944227
0.6989056,-0.283761,-0.3999007
0.6377609,-0.3375152,-0.2951172
0.6587696,-0.3504669,-0.2200614
0.5959357,-0.3896668,-0.09870716
0.6209682,-0.3539692,-0.07991701
0.7064471,-0.2824398,-0.11957
0.6952064,-0.2695252,-0.08383113
0.736708,-0.2608246,-0.07797827
0.7325288,-0.2633141,-0.07225366
0.7159005,-0.3007894,-0.07872923
0.8378561,-0.3339836,-0.1743984
1.012511,-0.3542041,-0.3027288
1.223651,-0.346495,-0.3954809
1.384214,-0.348793,-0.365851
1.486207,-0.3879336,-0.3384053
1.547738,-0.4003135,-0.4447066
1.427959,-0.4090596,-0.4798256
1.132937,-0.5087826,-0.3821623
0.8394898,-0.7064251,-0.2972191
0.8663797,-0.7911497,-0.3412504
0.9984482,-0.5786293,-0.5782185
0.8099092,-0.3110656,-0.7781205
0.7209591,-0.2237532,-0.7059086
0.7741538,-0.1678597,-0.5525295
0.7005627,-0.09522974,-0.5100592
0.7508891,-0.176071,-0.4531602
0.778419,-0.3436643,-0.3713609
0.7834586,-0.3981584,-0.3716514
0.8575632,-0.3816813,-0.4153247
0.7781401,-0.3520898,-0.5042266
0.7444906,-0.2858561,-0.5481973
0.7404159,-0.230429,-0.5167837
0.7005906,-0.1565059,-0.5040017
0.7515782,-0.05104801,-0.4189191
0.7621917,-0.0001889466,-0.3778351
0.8088463,0.001686308,-0.4561891
0.8483839,0.01264137,-0.48819
0.8165163,0.0355401,-0.4932066
0.8378772,0.05468885,-0.4750534
0.8059978,0.07191545,-0.4482475
0.7754019,0.0496401,-0.4314916
0.8255983,-0.03112571,-0.4300227
0.8831323,-0.1278281,-0.4800272
0.9684879,-0.1860856,-0.5126648
1.097098,-0.1493579,-0.5779139
1.224227,-0.1257427,-0.6595851
1.269459,-0.1872491,-0.7376726
1.313208,-0.2001385,-0.8704934
1.355426,-0.1749503,-0.8740436
1.233717,-0.1736847,-0.8309974
1.022776,-0.207046,-0.8680307
0.8303427,-0.3030621,-0.7539417
0.7114736,-0.3919748,-0.5579165
0.6811847,-0.4333756,-0.4855362
0.7298982,-0.4230927,-0.5100565
0.8946456,-0.3640383,-0.5215437
0.9787548,-0.2910871,-0.4842246
0.9330163,-0.2271763,-0.5080753
0.8919378,-0.2287568,-0.5272234
0.7719446,-0.2597716,-0.4543709
0.6630905,-0.292481,-0.3826368
0.6155733,-0.3603546,-0.3113367
0.5664882,-0.3746362,-0.260683
0.6119443,-0.3516608,-0.2156975
0.6669364,-0.3604259,-0.1464473
0.6986197,-0.3455223,-0.135807
0.7354303,-0.3258383,-0.1215359
0.7059299,-0.333224,-0.08882156
0.7121045,-0.3366992,-0.09440533
0.7910028,-0.3343495,-0.09732393
0.9095731,-0.3358424,-0.1576748
1.0331,-0.3297343,-0.2836251
1.089473,-0.314045,-0.34623
1.197338,-0.3097479,-0.2761056
1.342673,-0.329197,-0.2163573
1.336902,-0.4032418,-0.3457193
1.25757,-0.4781495,-0.5167642
1.204995,-0.4719873,-0.5716921
1.081529,-0.5292577,-0.5805771
0.9076359,-0.6171617,-0.6745787
0.8375365,-0.4495626,-0.820567
0.8164658,-0.2211334,-0.7416513
0.7410554,-0.2048184,-0.5662786
0.738089,-0.1914302,-0.5176964
0.7780068,-0.2015872,-0.3853005
0.7508118,-0.359508,-0.3083086
0.7741166,-0.4326183,-0.3751347
0.7929664,-0.3992698,-0.36387
0.7528829,-0.341089,-0.4290489
0.7522309,-0.2430436,-0.5368161
0.7322089,-0.234828,-0.5110365
0.721882,-0.243243,-0.4823855
0.7323902,-0.1744413,-0.480786
0.7242988,-0.1490162,-0.4772681
0.7860627,-0.1066302,-0.4766191
0.8428292,-0.01698265,-0.4739325
0.8376934,0.009786664,-0.4754165
0.830346,0.02829622,-0.4696597
0.817377,0.08336635,-0.4667596
0.7941895,0.09910198,-0.4513224
0.775546,0.0773206,-0.4377165
0.8338533,-0.00734408,-0.4442749
0.9259588,-0.1608316,-0.4520686
0.9969219,-0.1868487,-0.4805676
1.140625,-0.1235167,-0.5540979
1.262162,-0.1500634,-0.6548878
1.259663,-0.1769993,-0.7261426
1.282191,-0.2346179,-0.7820645
1.304879,-0.3205558,-0.8378194
1.13027,-0.276453,-0.9252338
0.8925,-0.2649021,-1.021923
0.778636,-0.4171688,-0.8028232
0.688058,-0.5394291,-0.4363478
0.6562817,-0.5029513,-0.4500702
0.7892196,-0.3833077,-0.5360721
0.9630093,-0.2622613,-0.4681806
1.008075,-0.1440961,-0.5133962
0.9111011,-0.09508665,-0.5470942
0.8115257,-0.1263895,-0.52225
0.753943,-0.1905364,-0.4722731
0.7015226,-0.3128251,-0.327536
0.6570878,-0.3817879,-0.2625856
0.6171485,-0.3665144,-0.2322979
0.6230686,-0.3790568,-0.1437069
0.6585449,-0.3619285,-0.1361603
0.6757561,-0.3402745,-0.1440369
0.6913492,-0.362004,-0.1132557
0.6919991,-0.3583145,-0.106809
0.7095734,-0.3571727,-0.1038069
0.8107135,-0.3571133,-0.1120491
0.9636604,-0.34708,-0.1677229
1.062118,-0.3339905,-0.2381993
1.12402,-0.2733402,-0.2452555
1.27554,-0.2160215,-0.2384795
1.373782,-0.2424475,-0.2803396
1.343796,-0.3273237,-0.3421624
1.365723,-0.4002853,-0.4644155
1.226496,-0.4914029,-0.533363
0.9540576,-0.6456516,-0.499848
0.9750206,-0.7136002,-0.5703913
0.9705037,-0.551649,-0.6672994
0.741211,-0.31407,-0.6941925
0.6924362,-0.2154682,-0.692552
0.7330044,-0.1846215,-0.5850409
0.7064112,-0.1650945,-0.4579493
0.7171327,-0.2527556,-0.3663401
0.7399748,-0.3782339,-0.3207018
0.8095109,-0.4232347,-0.3833776
0.8682611,-0.3743758,-0.4601018
0.7946911,-0.2907555,-0.5644643
0.6990587,-0.2213365,-0.6250595
0.6965865,-0.1676975,-0.554904
0.7245373,-0.1309336,-0.522476
0.7332767,-0.06225604,-0.4866943
0.7719316,-0.03274058,-0.4460998
0.8096691,-0.05950609,-0.4976881
0.8115473,0.0004679283,-0.5064394
0.7922882,0.06453833,-0.4666632
0.7539656,0.06779428,-0.4283442
0.7608374,0.04377977,-0.3839452
0.7901929,-0.01699329,-0.3922915
0.8417317,-0.08053984,-0.4440823
0.9639505,-0.1633619,-0.5217063
1.035041,-0.1652932,-0.5821883
1.115311,-0.1194467,-0.6084283
1.262989,-0.1785168,-0.6877332
1.24977,-0.1933536,-0.7552003
1.204446,-0.2247602,-0.7596046
1.283677,-0.3235875,-0.8118968
1.161691,-0.2743645,-0.8515816
0.8390745,-0.2430781,-0.8561365
0.6507531,-0.3448669,-0.8752449
0.6644056,-0.4335555,-0.703861
0.7263678,-0.4823087,-0.4747839
0.7490644,-0.4183731,-0.5223794
0.9258871,-0.3078037,-0.5858842
1.10127,-0.255481,-0.5402755
1.020056,-0.1768031,-0.5977008
