accx,accy,accz
1.68628,-0.3677589,0.05314341
1.501319,-0.3475594,-0.1760394
1.241031,-0.4287402,-0.1994473
0.9815022,-0.4696807,-0.0179402
0.6764271,-0.3931293,0.0959095
0.5681425,-0.2072902,-0.04409996
0.7893654,-0.1022217,-0.2259644
0.8888904,-0.1845063,-0.165451
0.7856474,-0.4289543,0.04113129
0.7249293,-0.706848,0.2234374
0.702212,-0.7188673,0.1965223
0.690889,-0.5581324,-0.004156573
0.6936866,-0.4664382,-0.08971921
0.7445537,-0.3486172,-0.1161438
0.8956309,-0.1713555,-0.1065056
1.067431,0.02147835,-0.05785775
1.091552,0.1927456,-0.08663801
0.9666326,0.2035773,-0.02996337
0.8492284,0.1321556,0.02492606
0.8234381,0.06967054,-0.01044128
0.8884435,-0.1011156,0.008832362
0.9669072,-0.2377208,-0.01858578
1.051034,-0.2484871,-0.04649455
1.20484,-0.2511553,-0.04698215
1.327479,-0.2180376,-0.08071974
1.395141,-0.21277,-0.07531533
1.472585,-0.3172577,-0.08333307
1.395323,-0.5017802,-0.112332
1.148834,-0.5951008,-0.2128668
0.9749419,-0.4237332,-0.3693226
0.9206236,-0.2508182,-0.3577224
0.9567411,-0.2713189,-0.1628363
1.072349,-0.2702142,0.02620921
1.211411,-0.1311686,0.006718236
1.273576,0.07875502,-0.1469725
1.081479,0.2111786,-0.2219807
0.8622724,0.1550636,-0.2394078
0.8924135,-0.003327916,-0.2133615
0.9038336,-0.1954859,-0.1365328
0.858775,-0.398321,-0.02306414
0.8696642,-0.4587048,0.09407542
0.7823987,-0.3824529,0.1370036
0.6705487,-0.2603335,0.1615655
0.6491298,-0.07260939,0.1606451
0.6612108,0.00537051,0.1163079
0.7011157,-0.05628092,0.1125226
0.7933679,-0.06215077,0.1062861
0.9414512,-0.08590425,0.09725677
1.099555,-0.1931346,0.08964158
1.237564,-0.3493309,0.0646999
1.377164,-0.5173238,0.09504723
1.576622,-0.5489685,0.1703194
1.784856,-0.5185108,0.2018474
1.749709,-0.5157751,0.006773328
1.522762,-0.4416545,-0.2387202
1.236528,-0.4493417,-0.1274417
0.7536695,-0.4864604,0.0190782
0.541024,-0.3186032,-0.04740395
0.8237392,-0.1964281,-0.1035811
0.930861,-0.2366478,-0.180711
0.8991156,-0.320379,-0.09102731
0.8658717,-0.4503233,0.145381
0.6499143,-0.5324135,0.1235408
0.5760061,-0.5273365,0.01526238
0.5659321,-0.4336969,-0.08369708
0.5869781,-0.2935046,-0.2012172
0.8576226,-0.1713367,-0.1390873
1.091722,-0.01153985,-0.1036682
1.186016,0.1379391,-0.1241178
1.072524,0.1846885,-0.05549204
0.8641982,0.122192,-0.04260268
0.8828109,0.01005051,-0.02046705
0.9397663,-0.1504046,0.05063427
0.9887605,-0.2946782,0.08908504
1.059214,-0.2554518,0.04096067
1.139787,-0.1778339,-0.1099377
1.327359,-0.09648972,-0.1631489
1.403373,0.002911002,-0.1139571
1.397707,-0.2189161,-0.1107551
1.28281,-0.6447365,-0.1387752
0.972266,-0.822452,-0.1814888
0.8679894,-0.6486685,-0.2124801
0.8679355,-0.394941,-0.2119789
0.9642993,-0.315756,-0.1069433
1.404701,-0.2036475,0.01635231
1.584986,0.002727484,-0.08432215
1.320238,0.1540087,-0.2185454
1.032091,0.2144057,-0.1905435
0.760262,0.04187353,-0.1499541
0.5749971,-0.1913354,-0.08960123
0.5424953,-0.3277601,0.003327241
0.5844372,-0.403219,0.04508008
0.6432291,-0.2978955,0.0594858
0.750597,-0.2188071,0.07455934
0.88832,-0.2364124,0.1295265
0.906858,-0.2124162,0.1932423
0.8857116,-0.231326,0.188139
0.8657147,-0.190536,0.1651889
0.8424072,-0.1010157,0.1420032
0.9889826,-0.08455692,0.1107799
1.200874,-0.175334,0.09298762
1.277411,-0.3223266,0.07805358
1.326934,-0.3099851,0.08457225
1.61524,-0.3013315,0.03987536
1.878521,-0.399721,-0.1525304
1.615641,-0.4369515,-0.3747184
1.250079,-0.5050672,-0.3744898
0.9853667,-0.4865528,-0.1383565
0.571755,-0.3123792,-0.0155127
0.6952401,-0.1678291,-0.1410895
1.118299,-0.1007997,-0.2225555
0.9103939,-0.2377969,-0.06532932
0.7910218,-0.4465015,0.1386228
0.8627882,-0.4883019,0.157678
0.6102012,-0.452196,0.05191666
0.5697233,-0.3571144,-0.07181105
0.5781657,-0.2731767,-0.1181638
0.576599,-0.2303257,-0.1003538
0.8044022,-0.1220696,-0.1488571
0.934053,-0.04022558,-0.1413839
1.111326,0.004527157,-0.07497308
1.133507,0.0697493,-0.05836314
1.006015,0.09529661,-0.02187491
1.056452,0.03763052,-0.02071831
0.9947876,-0.09325859,-0.03163214
1.036477,-0.2066224,-0.01935363
1.152224,-0.2498627,-0.04520385
1.169513,-0.2402473,-0.04579161
1.264003,-0.1710134,-0.05594622
1.257896,-0.0854452,-0.08369272
1.274105,-0.1704989,-0.08494022
1.199183,-0.423164,-0.142171
0.9404883,-0.5677482,-0.2212782
0.8537796,-0.5595034,-0.2211894
0.899048,-0.4861711,-0.1562955
1.148083,-0.39781,-0.1102821
1.445126,-0.2714939,-0.1167219
1.388026,-0.03842973,-0.1258971
1.134709,0.1380871,-0.1289248
0.8859265,0.2180287,-0.1529771
0.7204321,0.2398617,-0.179973
0.7176523,0.1298427,-0.1631869
0.8082294,-0.05771853,-0.08471331
0.8545987,-0.2791878,0.05306569
0.8392704,-0.3819944,0.1784994
0.8077219,-0.318778,0.1789148
0.7530388,-0.2351439,0.1345943
0.7289597,-0.1413115,0.1373894
0.7487619,-0.1329055,0.1283723
0.7735575,-0.1755375,0.1199504
0.796294,-0.1468638,0.0859459
0.9160605,-0.1826281,-0.01619379
1.167709,-0.3334053,-0.06878855
1.278103,-0.4732598,-0.03137484
1.284275,-0.4730994,-0.01529943
1.58006,-0.3966809,-0.07700827
1.932926,-0.3494103,-0.175687
1.731353,-0.2932648,-0.2392285
1.172015,-0.3942045,-0.1928552
0.7773226,-0.546395,-0.1060945
0.6248115,-0.3873418,-0.1271023
0.7624277,-0.2187773,-0.1951492
0.8762987,-0.2580939,-0.2136966
0.8197568,-0.3232029,-0.1107374
0.8579948,-0.4456095,0.1003085
0.7551906,-0.4840605,0.1550491
0.6757796,-0.4153271,0.06102018
0.7143046,-0.379518,-0.04315438
0.63888,-0.273072,-0.1892449
0.7566368,-0.2121491,-0.1934317
0.8901268,-0.2043618,-0.1062498
1.016594,-0.06898828,-0.1263463
1.151976,0.02248624,-0.1029984
1.007833,0.01693041,-0.06348553
1.022995,0.0616459,-0.06815363
1.037334,0.06442429,-0.02823474
0.9330859,-0.0329917,-0.01566508
1.043188,-0.1074131,0.004888138
1.024642,-0.1566461,0.04236314
1.046707,-0.2043712,0.01365552
1.185687,-0.2024118,-0.006541908
1.216754,-0.1393053,-0.03479262
1.314424,-0.03353335,-0.07242551
1.334166,-0.07861305,-0.08698503
1.276837,-0.3970077,-0.1702931
1.160472,-0.7220558,-0.2652828
0.9286718,-0.7186685,-0.2806712
0.7733317,-0.451919,-0.2268332
0.7556625,-0.3109648,-0.1290549
1.044249,-0.3011058,-0.05033182
1.472716,-0.1942617,-0.05386166
1.544755,0.02018666,-0.1663968
1.266314,0.2338528,-0.2584464
0.9608748,0.1914446,-0.2183439
0.8049414,-0.03418091,-0.115621
0.7185892,-0.2463385,-0.001848435
0.7150313,-0.44125,0.07133358
0.7400134,-0.4473736,0.1083801
0.66163,-0.3413092,0.1728214
0.664619,-0.2001671,0.1974262
0.710496,-0.03297198,0.1599067
0.7125088,-0.02878321,0.1433997
0.79247,-0.04643579,0.1320219
0.8916898,-0.0531335,0.1034507
1.049347,-0.1165292,0.07499544
1.184824,-0.1722786,0.04271365
1.212456,-0.3365766,0.1041422
1.354136,-0.5034845,0.2809581
1.43679,-0.4910056,0.3485351
1.392454,-0.4285546,0.08234438
1.486726,-0.4659793,-0.3560341
1.427969,-0.4793843,-0.4773012
1.036047,-0.4332016,-0.289495
0.5916318,-0.4723122,-0.07347705
0.427137,-0.4286717,0.1272913
0.7338917,-0.2756574,-0.008097877
1.007312,-0.1647214,-0.2633283
0.9716758,-0.1728961,-0.07050812
0.922469,-0.3711451,0.1305128
0.8180191,-0.5023467,0.1462419
0.7677947,-0.4957302,0.1617922
0.7792459,-0.3764444,-0.005924005
0.7094388,-0.1015635,-0.06789517
0.7369529,0.03398016,-0.006898805
0.7738939,0.01738181,-0.05797311
0.8407001,-0.01463875,-0.01825921
0.9396808,-0.03176296,-0.007225518
0.8997253,-0.02024534,-0.01623901
0.9311732,-0.05276999,0.009787656
1.015647,-0.05627791,-0.06175897
1.072817,-0.1100871,-0.06290992
1.131315,-0.1851664,-0.06063619
1.120653,-0.1659697,-0.0653997
1.202875,-0.1651267,-0.01606643
1.330552,-0.1046302,-0.05010115
1.371166,-0.09975979,-0.08238232
1.329065,-0.3168771,-0.1661995
1.198376,-0.5788838,-0.3085704
1.094354,-0.6611757,-0.3474605
0.9154751,-0.5302375,-0.2543205
0.8278725,-0.4696323,-0.06244406
1.147561,-0.4153803,0.01127047
1.432277,-0.1874473,-0.08578047
1.382169,0.02914503,-0.1921349
1.197052,0.1692688,-0.217063
0.9245647,0.1258646,-0.1573454
0.663812,-0.01695291,-0.1079022
0.6185443,-0.1100137,-0.04939398
0.6908513,-0.281283,0.03199934
0.6607847,-0.3794286,0.1148509
0.6893361,-0.3496272,0.1638705
0.7878206,-0.295935,0.139577
0.7518039,-0.2096687,0.1528964
0.753501,-0.1857396,0.143046
0.8057404,-0.1633533,0.1073859
0.8460236,-0.1420182,0.1292261
0.9665156,-0.1709397,0.0741939
1.078001,-0.1774458,0.002265091
1.182866,-0.2557987,-0.05286342
1.227718,-0.3892028,-0.09149269
1.25311,-0.4635495,-0.01503719
1.547196,-0.4668111,-0.01511776
1.820119,-0.4432224,-0.1859313
1.534676,-0.4619876,-0.3091409
0.9993072,-0.4546313,-0.1681921
0.7562862,-0.4016167,0.009176024
0.705676,-0.3100717,-0.1141368
0.8271698,-0.1700953,-0.1892828
1.010934,-0.1460003,-0.09817607
0.8798963,-0.2821384,-0.05247872
0.7791526,-0.451027,0.1074805
0.7900789,-0.5115988,0.1730807
0.6252273,-0.385023,0.01987149
0.6030326,-0.1771636,-0.06417172
0.6800575,-0.00851049,-0.1199925
0.7053228,0.01760339,-0.1355981
0.8249677,-0.07825533,-0.07097132
0.9717088,-0.09508049,-0.02791483
1.096059,-0.04692217,0.006142543
1.086074,-0.04204378,-0.01085187
1.021841,-0.06396455,-0.03075353
1.04965,-0.1006088,-0.01499143
1.050911,-0.146484,-0.02343603
1.111546,-0.2927909,0.008179903
1.197385,-0.4355783,0.0285859
1.17919,-0.2967485,-0.0310211
1.201758,-0.08992372,-0.08637316
1.265945,-0.1146266,-0.1103545
1.272885,-0.3260833,-0.1646373
1.194861,-0.605208,-0.2547132
1.027549,-0.6651396,-0.2602468
0.8743066,-0.4997099,-0.1861224
0.8632276,-0.4297314,-0.1118394
1.046881,-0.3725414,-0.05013719
1.378683,-0.2360682,-0.0838309
1.55032,-0.08580599,-0.1456131
1.216791,0.08610651,-0.1654693
0.76678,0.1237799,-0.2050979
0.7307251,0.02601509,-0.1704962
0.7678575,-0.1222231,-0.08840709
0.6807901,-0.2974425,-0.02598834
0.6932161,-0.3588173,0.1110562
0.6792062,-0.3359368,0.2177423
0.6830034,-0.2641903,0.1959181
0.7737101,-0.1497563,0.1597024
0.7905756,-0.09346494,0.1547972
0.8408569,-0.09540122,0.1325947
0.9203295,-0.1193689,0.09019608
0.9813647,-0.1235258,0.04591921
1.120511,-0.2098435,-0.02635069
1.215273,-0.3924578,-0.04373606
1.273209,-0.4727783,0.1161721
1.485503,-0.4602664,0.2314125
1.725082,-0.4267999,-0.02492388
1.638342,-0.4274923,-0.3300511
1.270986,-0.4817801,-0.1970247
0.9238395,-0.5166869,0.05727886
0.7454686,-0.49728,0.1375864
0.8553473,-0.3707509,0.0992065
0.9338907,-0.1843839,-0.1429607
0.849403,-0.08259372,-0.2777162
0.9155623,-0.2002173,-0.1253094
0.8823349,-0.4518445,0.06709628
0.8008151,-0.5638204,0.2054389
0.7991714,-0.5129086,0.1210611
0.6132864,-0.3927803,-0.03274669
0.5709405,-0.2843167,-0.04303921
0.7043134,-0.1634759,-0.07364604
0.8287768,-0.0079501,-0.06994681
1.013164,0.02544997,-0.05401322
1.040214,0.04941147,-0.07104975
0.9992769,0.09831063,-0.04051193
0.9773703,0.02225131,-0.0379543
0.9050313,-0.06903321,0.0009688906
0.9365907,-0.144189,0.05129163
1.044117,-0.2069377,0.008877531
1.208273,-0.2362471,-0.03191166
1.35742,-0.2484084,-0.05265344
1.333798,-0.2263024,-0.05672685
1.293756,-0.2727978,-0.08063259
1.268327,-0.4628107,-0.1936889
1.077455,-0.6471597,-0.2897662
0.8825267,-0.5446653,-0.2780683
0.8565514,-0.3218494,-0.2095394
1.010575,-0.3244355,-0.1270075
1.443116,-0.3368246,-0.06662454
1.735121,-0.2622264,-0.0970682
1.404554,-0.08755806,-0.1715878
0.951584,0.2097721,-0.2052938
0.8600037,0.2018846,-0.2077308
0.7877573,-0.008054984,-0.1409236
0.5977529,-0.1148207,-0.03717802
0.6336642,-0.2708383,0.009439173
0.7404118,-0.3399177,0.05225549
0.6894827,-0.3740086,0.1394529
0.7060004,-0.426029,0.2005894
0.7269328,-0.2538167,0.1583221
0.7124215,-0.1219355,0.097722
0.7734438,-0.1176161,0.08724882
0.8105192,-0.0977297,0.072729
0.932151,-0.135571,0.08693509
1.138569,-0.1481631,0.08215388
1.23789,-0.2641427,0.06154419
1.263778,-0.4441629,0.08779579
1.32279,-0.4471103,0.0586605
1.589019,-0.4318569,-0.02182748
1.852761,-0.4405354,-0.1907333
1.584006,-0.4691532,-0.3105183
1.046907,-0.5152993,-0.07599906
0.7869209,-0.4689896,0.1861613
0.7002268,-0.3447179,0.1148254
0.7116566,-0.1335263,-0.1303267
0.91919,-0.05427051,-0.29549
1.08808,-0.2280168,-0.1652312
0.966705,-0.4317537,0.08288123
0.7383082,-0.6300463,0.1070804
0.6466953,-0.6954959,0.03307519
0.541564,-0.4828204,-0.02036898
0.5173549,-0.2066835,-0.09466826
0.7542763,-0.03239065,-0.08816402
0.9489218,0.09339291,-0.07558609
1.057492,0.1861576,-0.08697498
1.043801,0.1677577,-0.01907666
0.8897046,0.04411865,0.01451961
0.8745217,-0.108349,0.01493691
0.8815987,-0.2195851,0.03744387
0.9766822,-0.2350523,0.03344941
1.184396,-0.228373,0.006018912
1.244163,-0.2471995,-0.03528815
1.291955,-0.2251355,-0.009261043
1.333532,-0.1947553,0.02378364
1.362499,-0.2223207,-0.04567198
1.303165,-0.3195832,-0.1686077
1.112594,-0.4492123,-0.3330567
1.03996,-0.4808289,-0.3789032
0.8800722,-0.4257163,-0.2159795
0.7650067,-0.4250631,-0.04866142
1.027788,-0.4064107,0.009361145
1.373865,-0.2579751,-0.06429098
1.559451,-0.06449948,-0.1713519
1.324091,0.05938911,-0.1941859
0.909729,0.0790095,-0.2060395
0.8066171,0.0106413,-0.1601411
0.7149137,-0.1499117,-0.03920322
0.6431319,-0.3373447,0.02631457
0.7311333,-0.4085674,0.08832528
0.6881351,-0.3741958,0.1704063
0.6718816,-0.3098584,0.2116255
0.7163119,-0.2073803,0.213961
0.6879016,-0.09413002,0.1787312
0.7666928,-0.07065122,0.1511654
0.8573885,-0.1100294,0.11418
0.9374022,-0.1018093,0.05322213
1.121046,-0.1486908,0.00972634
1.264904,-0.3082498,-0.02780259
1.305433,-0.4581862,0.0009187734
1.354057,-0.5255858,0.0453595
1.630848,-0.4874412,-0.05106213
1.894128,-0.4430097,-0.2297137
1.551497,-0.4338514,-0.3077819
0.903727,-0.4339863,-0.1361745
0.5827674,-0.4531959,0.05633704
0.4971004,-0.3724213,-0.05783537
0.5540589,-0.2744977,-0.1536843
0.85279,-0.2819415,-0.08131313
1.08318,-0.2650184,-0.1224192
0.9428423,-0.2996724,-0.04415397
0.7322881,-0.4408185,0.1692422
0.7767509,-0.4807252,0.1526805
0.7563496,-0.368889,0.0139503
0.6194726,-0.2327607,-0.09711666
0.6931749,-0.1430835,-0.1253693
0.7377757,-0.08147508,-0.1088441
0.7740299,-0.06107793,-0.1512772
0.9416763,-0.08261295,-0.08948928
1.005757,-0.05656604,-0.009066661
1.064288,0.007770572,-0.03490554
1.053171,0.02732207,-0.02272235
0.9978755,-0.01721471,-0.0183396
1.041346,-0.1132531,-0.01533505
1.022614,-0.2012884,-0.005540911
1.135898,-0.2193332,-0.04221273
1.329556,-0.1109152,-0.058121
1.383536,-0.010604,-0.08576264
1.382648,-0.224485,-0.1191428
1.237738,-0.5641721,-0.1790346
1.044884,-0.637368,-0.2967573
0.9470034,-0.5499695,-0.316092
0.9180672,-0.4795203,-0.2092179
1.008952,-0.4064242,-0.048836
1.227357,-0.2797718,0.03769063
1.396958,-0.0910248,-0.08614564
1.293234,0.07423714,-0.2166635
1.07494,0.1077267,-0.1705344
0.866417,-0.02481845,-0.0966857
0.6418856,-0.1861503,-0.03311031
0.5899764,-0.2676415,0.05529518
0.6114365,-0.2780979,0.06675422
0.6144158,-0.2177623,0.08974611
0.6933082,-0.1636231,0.1784968
0.719491,-0.1443199,0.1745811
0.7359105,-0.1532819,0.1494168
0.8161246,-0.1936353,0.1693365
0.8504516,-0.2031243,0.1534335
0.8768246,-0.1979852,0.1230766
0.9928555,-0.1782202,0.05238977
1.145604,-0.16339,-0.02610495
1.17091,-0.2237857,-0.01483509
1.161053,-0.3305048,0.02561272
1.342244,-0.4446603,0.07047558
1.640989,-0.4653886,0.08670974
1.776956,-0.3650051,-0.1138515
1.437097,-0.3113466,-0.3405633
0.9085208,-0.3846213,-0.2016164
0.769854,-0.4613998,-0.02169712
0.8134643,-0.4121525,-0.0991635
0.8822843,-0.3223345,-0.1379286
1.022522,-0.2819165,-0.1426846
0.894851,-0.3241494,-0.09594517
0.718613,-0.4697084,0.1062088
0.7577028,-0.5228877,0.1494745
0.6935205,-0.4193338,0.04292256
0.5923829,-0.2554552,-0.03583411
0.5990019,-0.08875992,-0.09752151
0.6769442,-0.05373413,-0.05959954
0.9069145,-0.04826854,-0.03629092
1.120888,0.01069396,-0.05558766
1.142469,0.009480172,-0.0186331
1.016811,0.03473345,-0.0009687338
0.8700295,0.04891579,0.02732107
0.8439011,-0.02164132,0.04026934
0.8835165,-0.0555843,-0.01308169
1.011315,-0.08617629,-0.05566221
1.279959,-0.1397464,-0.08692688
1.418174,-0.1854082,-0.0996134
1.355493,-0.2692836,-0.08600536
1.302606,-0.3994596,-0.09252746
1.183142,-0.5295244,-0.1664954
0.9577697,-0.5160063,-0.2812176
0.9148013,-0.3869877,-0.2961151
1.02022,-0.3122749,-0.1759814
1.09263,-0.2097484,-0.04090479
1.283266,-0.05591106,-0.01565158
1.422386,0.0900718,-0.1242944
1.282091,0.1912722,-0.2088202
1.07016,0.08936235,-0.1709172
0.8788649,-0.04832939,-0.1481834
0.8499703,-0.07138245,-0.1684929
0.9324906,-0.2164751,-0.1207958
0.8316006,-0.3927529,-0.05944672
0.8098743,-0.3867433,0.0006543046
0.8468105,-0.307439,0.110616
0.6908754,-0.2288525,0.1613524
0.6405768,-0.100834,0.1497047
0.6379851,-0.02328047,0.1515115
0.6183123,-0.08151712,0.1241291
0.7480489,-0.09331426,0.1074763
0.8702634,-0.08157073,0.1092455
1.016998,-0.1245845,0.02038092
1.16629,-0.1563245,-0.134462
1.267329,-0.3518449,-0.1525849
1.458809,-0.5741978,0.1282127
1.659347,-0.556479,0.3468754
1.74821,-0.4268624,0.01103935
1.544686,-0.2629656,-0.3932488
1.154227,-0.1960493,-0.261559
0.8302305,-0.3137872,0.01680108
0.4874905,-0.3898536,0.119153
0.4212641,-0.288435,0.05734605
0.7570657,-0.2203381,-0.1296648
1.006363,-0.3444593,-0.1004419
1.007994,-0.4484939,0.04426517
0.8506386,-0.4811797,0.07926188
0.6713555,-0.5719058,0.1301634
0.5796064,-0.6009114,0.05083919
0.5690891,-0.4522352,-0.01749975
0.7526461,-0.180532,0.0002092
1.047511,0.08172299,-0.1179224
1.150002,0.2045061,-0.153769
1.006543,0.118219,-0.1060941
0.8667508,-0.04499704,-0.05059356
0.8769796,-0.1315661,0.03606214
0.9184179,-0.2054514,0.02278446
0.9990055,-0.208942,-0.02143634
1.112351,-0.1727044,-0.1013152
1.134825,-0.2277141,-0.1340462
1.134856,-0.2596075,-0.05673552
1.14819,-0.2918251,-0.03401718
1.176345,-0.3071749,-0.04199861
1.24707,-0.2900694,-0.07106295
1.258646,-0.4123078,-0.1124808
1.136584,-0.5366535,-0.1986024
0.9498557,-0.559495,-0.3241102
0.893483,-0.534086,-0.287415
1.022821,-0.4665033,-0.1232734
1.233967,-0.3979535,-0.005759158
1.402323,-0.2063954,-0.07816739
1.290349,0.05161887,-0.2187994
1.009176,0.1757355,-0.1953635
0.8701066,0.1797924,-0.1863972
0.7917918,0.06461216,-0.1821784
0.7528697,-0.1523721,-0.06155214
0.7559818,-0.384605,0.03072249
0.697705,-0.5036957,0.1477027
0.6911693,-0.4589243,0.2371828
0.6994063,-0.2975695,0.1905677
0.6777158,-0.08763221,0.1652819
0.7319065,-0.05560105,0.1504561
0.7865589,-0.1535118,0.09050024
0.8218423,-0.1376234,0.07917132
0.9042373,-0.1280388,0.08665477
1.090627,-0.1666963,0.02413985
1.249929,-0.1876052,-0.03750666
1.203694,-0.2911497,0.008805845
1.265183,-0.4432142,0.1209983
1.577881,-0.5574671,0.1530243
1.776628,-0.6007144,-0.06225977
1.627126,-0.5013028,-0.3153977
1.179982,-0.3520131,-0.194947
0.7081483,-0.3318124,0.04378056
0.5083485,-0.3286388,0.06349955
0.6810707,-0.2234834,-0.02796147
0.9166205,-0.1930711,-0.1782013
0.9437589,-0.2629787,-0.1572126
0.9012137,-0.3483662,0.02036885
0.7717929,-0.4717878,0.04271909
0.6731139,-0.5405645,0.03674717
0.6547069,-0.5025289,-0.03354591
0.5696225,-0.4142304,-0.1433212
0.7096359,-0.3112664,-0.1097099
0.9424991,-0.1668134,-0.1331021
1.044539,0.02458469,-0.1403963
1.098397,0.1244131,-0.09571153
0.980382,0.1079787,-0.09105914
0.9352989,0.05642447,-0.04001522
0.9745295,-0.005272783,-0.04554356
1.018102,-0.06146996,-0.04285017
1.191519,-0.1313839,-0.01700979
1.192603,-0.2212629,-0.03961721
1.139374,-0.2869714,-0.02124768
1.203337,-0.2279175,-0.03207024
1.278522,-0.181372,-0.0569339
1.38163,-0.3855469,-0.0987886
1.236701,-0.5937171,-0.1992131
0.9661037,-0.5672116,-0.2646936
0.8879131,-0.4873457,-0.2751619
0.9214036,-0.4669012,-0.2233436
1.18664,-0.3928643,-0.132498
1.587068,-0.2258094,-0.03588604
1.597113,-0.09852378,-0.05266751
1.132756,0.006299114,-0.1799653
0.7266885,0.148729,-0.1973797
0.7263839,0.1198096,-0.1677519
0.8221483,-0.1171866,-0.08965579
0.7455444,-0.3532075,0.06952971
0.7301573,-0.4998411,0.1083195
0.7683943,-0.4246167,0.1160954
0.6650668,-0.2182774,0.185825
0.6412747,-0.1490627,0.2172584
0.6981259,-0.09246341,0.1918377
0.7122929,-0.04088584,0.163762
0.8110479,-0.06731978,0.1740774
0.9279706,-0.06518394,0.1336285
1.07445,-0.1050705,0.04181702
1.177822,-0.1695475,-0.04795687
1.103841,-0.29422,-0.04920398
1.137684,-0.4466751,0.1248942
1.436536,-0.4812012,0.1959917
1.83427,-0.5305795,-0.03864835
1.901259,-0.5027096,-0.299251
1.354812,-0.3914797,-0.2309022
0.6928397,-0.3705913,0.02738351
0.4798696,-0.3000818,0.102492
0.6179466,-0.2063218,-0.006916928
0.7366844,-0.1679283,-0.1797925
0.8678505,-0.1727228,-0.2148564
1.045959,-0.2967531,-0.1197827
0.9820546,-0.4438046,-0.03862726
0.8731787,-0.5041708,0.1318742
0.8431475,-0.4978072,0.0841849
0.6694621,-0.3918712,-0.1049827
0.5862185,-0.2292713,-0.06197237
0.6315533,-0.1821058,-0.1102193
0.7475308,-0.2087668,-0.1429984
1.021352,-0.1529874,-0.08859142
1.139757,-0.07014947,-0.1390457
1.087656,-0.001754673,-0.06808453
1.050373,0.03108245,-0.01402682
0.9899967,-0.03531438,-0.003754283
1.002028,-0.1003257,0.03795189
1.058111,-0.1253871,-0.04170681
1.115343,-0.1614114,-0.0595507
1.184046,-0.1655897,-0.008106534
1.168021,-0.163017,0.01650629
1.160795,-0.2216343,-0.004283236
1.225847,-0.3900227,-0.1462436
1.226834,-0.5421671,-0.2943725
1.131324,-0.44638,-0.3768715
1.036489,-0.3081677,-0.3443398
1.064545,-0.3463415,-0.2221708
1.225149,-0.3366723,-0.1021725
1.326711,-0.2212213,-0.0554905
1.234147,-0.06919511,-0.1622065
1.060037,0.08394495,-0.2141528
0.9598191,0.05269488,-0.1832492
0.9314147,-0.08810003,-0.1814264
0.9030165,-0.1849421,-0.1103667
0.8147584,-0.3052813,-0.03571797
0.6715361,-0.3987146,0.05932212
0.6504172,-0.3706045,0.1063422
0.744286,-0.2156621,0.05631818
0.7550157,-0.09058651,0.1122853
0.7524146,-0.103209,0.1238377
0.7763475,-0.1345794,0.09722821
0.7890071,-0.1754917,0.1627391
0.8301116,-0.2019766,0.1336497
0.8917057,-0.1910939,0.0774989
1.069166,-0.2060718,0.0164
1.232506,-0.2335335,-0.06593686
1.19752,-0.3132201,0.0269434
1.214243,-0.4000323,0.2603911
1.351103,-0.4046749,0.4298908
1.547489,-0.3531484,0.2476989
1.761926,-0.2824022,-0.1280448
1.528584,-0.2399601,-0.1843562
0.978946,-0.308798,-0.1229842
0.7996288,-0.452462,-0.1255151
0.8054772,-0.4297266,-0.06184491
0.8097248,-0.2899565,-0.1553223
0.9166111,-0.2379967,-0.2542955
0.8897083,-0.2870579,-0.1325719
0.8447618,-0.4732317,0.008039218
0.7885588,-0.5839988,0.1015221
0.6493659,-0.4963901,0.07436756
0.6722559,-0.3560754,-0.04647875
0.6895723,-0.1778515,-0.1238947
0.7045289,-0.09085497,-0.1574551
0.8738285,-0.1011209,-0.09359527
1.039767,-0.06080755,-0.03596206
1.118315,-0.003514705,-0.0573813
1.021446,0.0235254,-0.02897313
0.9115386,0.02110393,0.0001930457
0.9290469,0.01167288,-0.01395216
0.9676856,-0.05379348,-0.02317974
1.051677,-0.1839111,-0.02796789
1.083388,-0.2894719,-0.006819048
1.075465,-0.3116519,0.01610269
1.149766,-0.2186691,-0.005243136
1.238162,-0.1467196,-0.07034299
1.30742,-0.2286619,-0.1575641
1.281279,-0.4138865,-0.2226322
1.155038,-0.5750736,-0.2572884
1.00661,-0.5649461,-0.271802
0.9296517,-0.4504842,-0.2215272
1.097375,-0.3911503,-0.1076278
1.335835,-0.316029,-0.04392761
1.359508,-0.1567012,-0.09303358
1.172307,0.003089559,-0.159317
0.9113629,0.06344325,-0.1567485
0.8251742,-0.02586414,-0.1425766
0.8651306,-0.1752014,-0.1285161
0.828642,-0.3179682,-0.05297638
0.80241,-0.4087831,0.04107985
0.7709866,-0.3533507,0.1144147
0.7372483,-0.2754011,0.1488628
0.763863,-0.1881456,0.1335818
0.7480039,-0.05893099,0.1269965
0.7366136,-0.06714635,0.121815
0.7621871,-0.08945014,0.1109767
0.7980864,-0.06851883,0.1143537
0.942125,-0.1251441,0.1041498
1.090241,-0.1531504,0.08088592
1.05983,-0.1832382,0.05891558
1.060316,-0.3053506,0.0989868
1.353723,-0.4636348,0.2072771
1.604602,-0.4739676,0.2037269
1.504392,-0.3174753,-0.070697
1.374018,-0.2725563,-0.3923711
1.270255,-0.320638,-0.3319941
0.9433784,-0.3692348,-0.06804273
0.6563535,-0.4038243,-0.01135362
0.6824504,-0.2926838,-0.07379564
0.8541608,-0.1877574,-0.1845862
1.02747,-0.22992,-0.2329906
1.085531,-0.3203059,-0.1120003
0.9898695,-0.3737823,-0.05718603
0.8707751,-0.3357699,-0.07291583
0.7342732,-0.2183441,-0.07679123
0.7201959,-0.06008432,-0.1171665
0.8546771,0.008650287,-0.1436602
0.8843896,-0.04655117,-0.1086009
0.9140369,-0.0651988,-0.02098384
0.9584777,-0.05122547,-0.02078515
0.9290674,-0.05900513,-0.04431954
0.9626149,-0.05085208,-0.01395902
0.9628806,-0.06314103,-0.0520501
0.947645,-0.09488786,-0.04419904
0.9770698,-0.08937648,-0.02677256
0.977295,-0.127534,-0.05385405
1.061521,-0.2363131,-0.02305913
1.153918,-0.3001665,-0.02918577
1.226587,-0.3531331,-0.04255803
1.373117,-0.4561452,-0.06836595
1.39458,-0.4949388,-0.1390992
1.240726,-0.418745,-0.18937
1.065096,-0.3598536,-0.2894964
0.9648421,-0.3629141,-0.3161674
0.9897567,-0.3866986,-0.1679096
1.028418,-0.4118505,-0.03156608
1.048637,-0.2839779,-0.02057334
1.174051,-0.05280836,-0.1120689
1.259835,0.04294821,-0.1784804
1.198586,0.01137384,-0.1406728
1.129727,-0.1474979,-0.06818103
0.9536461,-0.3441095,-0.01720652
0.7177983,-0.3360667,-0.01454273
0.6582499,-0.2020689,-0.02078558
0.7033191,-0.1277232,0.02656581
0.8085773,-0.1001131,0.06987404
0.9266638,-0.09946096,0.1014672
0.9394165,-0.0940184,0.1437918
0.8745889,-0.05481131,0.1209868
0.8399584,-0.07459563,0.09000497
0.9054563,-0.1467489,0.0999246
0.9423604,-0.1955432,0.0650186
0.9040928,-0.223021,-0.0173189
0.9219192,-0.235186,-0.06764271
1.131702,-0.2737529,0.05352096
1.601516,-0.2336623,0.1764052
1.888621,-0.09567153,-0.004983636
1.567292,-0.07953744,-0.2064827
1.146914,-0.2223702,-0.1776647
1.043719,-0.4613425,-0.09289776
0.8509813,-0.5829282,-0.02842198
0.6585773,-0.4718964,-0.04529661
0.8159916,-0.3587126,-0.1410435
0.9230339,-0.2778592,-0.1891653
0.8958467,-0.2853793,-0.1574731
0.9123087,-0.4228693,-0.04482204
0.8494455,-0.502449,0.08318908
0.8073771,-0.5273092,0.1196478
0.7644703,-0.4220591,0.0635837
0.6959684,-0.2138782,-0.03333533
0.7256416,-0.1416189,-0.1144396
0.8132304,-0.1097067,-0.1130989
0.9819262,-0.09296432,-0.06429904
1.057825,-0.1368902,-0.05568051
0.9482305,-0.1222405,-0.01008155
0.9180677,-0.08418634,0.03613196
0.9518322,-0.02986772,-0.02227071
0.9490234,0.001649211,-0.0413866
0.9549746,-0.05649935,-0.0494192
0.9585884,-0.1076404,-0.08197849
0.9888349,-0.1315448,-0.04152738
1.088447,-0.08761314,-0.0324931
1.242469,-0.06023064,-0.04965804
1.406594,-0.2781221,-0.1207888
1.517441,-0.5248133,-0.2443486
1.439386,-0.4937965,-0.2185327
1.186304,-0.3628826,-0.1728798
0.9591154,-0.3440135,-0.192083
0.7809428,-0.3575804,-0.123227
0.7516851,-0.3455548,-0.01910795
0.955859,-0.2658561,0.02394007
1.175167,-0.03755039,-0.02965581
1.279016,0.1559177,-0.1045924
1.199959,0.1478831,-0.1185327
1.092792,0.0690156,-0.1452409
1.10261,-0.0790019,-0.1405537
0.9943049,-0.3316144,-0.05789371
0.8639579,-0.3838611,0.01048118
0.8065091,-0.2279443,0.07052118
0.7089519,-0.183876,0.1061774
0.6863525,-0.104656,0.1061668
0.6400064,-0.02480852,0.1315584
0.595801,-0.1209216,0.1420765
0.7102315,-0.1312774,0.1502975
0.8390474,-0.1506926,0.1632226
0.9653469,-0.2118621,0.1085847
1.074023,-0.175376,0.02855888
1.115448,-0.2452972,-0.03601085
1.218118,-0.3427068,-0.05084695
1.530308,-0.4519981,0.03872858
1.894978,-0.5563636,0.104443
1.827368,-0.4224553,-0.02902618
1.437725,-0.3164644,-0.1702836
1.151512,-0.3927478,-0.06990106
0.869243,-0.4035424,0.0355041
0.6561211,-0.3166744,-0.002621804
0.6772978,-0.216139,-0.06695383
0.7845188,-0.1587248,-0.1586339
0.8654955,-0.2373684,-0.1220058
0.8914718,-0.4291584,0.01419235
0.9031514,-0.5700425,0.02966466
0.87484,-0.611068,0.01755379
0.7909444,-0.5406203,-0.02840074
0.7332601,-0.4001383,-0.1034911
0.7603856,-0.2836441,-0.104138
0.9035538,-0.1214482,-0.1080959
1.006329,0.0155183,-0.1013528
1.015656,0.0379599,-0.09139234
0.9817634,0.005325977,-0.07745678
0.9132075,-0.08875025,-0.0211713
0.9299727,-0.1800154,-0.008734741
0.940273,-0.2235394,-0.003170443
0.9443734,-0.1860714,-0.006760889
1.045355,-0.1273168,-0.04957123
1.136015,-0.1474882,-0.07217857
1.216392,-0.118409,-0.09335482
1.253488,-0.1366977,-0.1089212
1.279807,-0.3222649,-0.1537181
1.28537,-0.493388,-0.2036213
1.112142,-0.5305454,-0.1939706
0.8958859,-0.454982,-0.1788816
0.8079051,-0.4388404,-0.1138857
0.9066621,-0.4219069,0.02383887
1.081578,-0.2861549,0.1208982
1.209651,-0.1490198,0.04498951
1.314196,0.0825872,-0.1331506
1.197789,0.2228841,-0.1702953
0.9759784,0.024646,-0.1118493
0.8746321,-0.1947062,-0.05553701
0.7259276,-0.3072817,0.01357033
0.6561893,-0.3432383,0.04362826
0.7080241,-0.2723356,0.07635762
0.7312332,-0.2289697,0.1021842
0.8112291,-0.2016747,0.1125546
0.8690095,-0.1725367,0.1290042
0.8633448,-0.1995221,0.1112193
0.8726647,-0.2191324,0.1157232
0.8943732,-0.2545161,0.1119132
0.9614113,-0.3472698,0.07927643
1.044631,-0.4657985,0.02536231
1.097528,-0.554203,-0.06869676
1.186392,-0.5004599,-0.08400345
1.527767,-0.430422,-0.1790526
0.8244317,0.1569949,-0.140038
0.8139469,0.03760216,-0.08540417
0.8232588,-0.161105,-0.002839997
0.8678403,-0.3474749,0.07794422
0.8110006,-0.3447902,0.1332246
0.7383586,-0.2792205,0.1931305
0.687318,-0.2321133,0.1845155
0.6878071,-0.1034733,0.1320897
0.744338,-0.05569514,0.1081336
0.8054629,-0.1029461,0.07003214
0.9285934,-0.1506032,0.06563054
1.117258,-0.2777436,0.08524109
1.250359,-0.4305056,0.08244167
1.26361,-0.4723082,0.1699327
1.395282,-0.4020533,0.2202084
1.698648,-0.376316,-0.008162903
1.763989,-0.3905242,-0.3325914
1.438093,-0.4815261,-0.3609293
0.9248406,-0.6516131,-0.06288732
0.5419269,-0.5353965,0.1106795
0.5214931,-0.3015595,-0.08145335
0.7481037,-0.2508081,-0.2581625
0.9506948,-0.2308687,-0.1571335
0.9270714,-0.2987163,-0.04563292
0.7729461,-0.3903737,0.02143516
0.6604929,-0.4553872,0.1261553
0.5800031,-0.50523,0.01600929
0.6476995,-0.3903378,-0.1489058
0.8198733,-0.3082496,-0.1392199
0.9422613,-0.2553347,-0.1476381
1.054248,-0.03275699,-0.122027
1.061516,0.1968117,-0.08533231
0.9656196,0.2472366,-0.06858067
0.8966984,0.08878915,-0.01027846
0.9290676,-0.0684993,-0.02538214
1.046525,-0.1732177,0.004331143
1.083418,-0.2607773,0.02954293
1.140623,-0.2175277,-0.02760183
1.251277,-0.1885342,-0.01719044
1.291195,-0.1354649,-0.03477383
1.336631,-0.07965477,-0.08232105
1.294659,-0.2885232,-0.1747447
1.189025,-0.5259533,-0.3304045
1.086125,-0.5592711,-0.3957507
0.9759236,-0.5033655,-0.3927424
1.040492,-0.4853387,-0.2967331
1.13646,-0.4748841,-0.09156753
1.163885,-0.3912447,0.06484396
1.220614,-0.2504009,-0.01286918
1.22093,0.04917912,-0.2095161
1.188635,0.2424341,-0.2148015
1.012584,0.05155637,-0.1741373
0.7359757,-0.1524881,-0.1283897
0.6811168,-0.2682105,-0.003472512
0.6847665,-0.3514221,0.02021963
0.5642033,-0.3371133,0.09267281
0.517029,-0.3098278,0.1774223
0.5602947,-0.169068,0.1641752
0.6062904,-0.04964369,0.2099273
0.7232542,-0.08218619,0.1681164
0.8494034,-0.08428153,0.07688514
0.9497455,-0.139201,0.05036385
1.119261,-0.1923348,0.02076025
1.196133,-0.2341495,0.05225678
1.187737,-0.3442996,0.08589841
1.31811,-0.327523,0.1773465
1.573079,-0.3708721,0.2610867
1.805853,-0.4937395,0.03594321
1.683588,-0.4753893,-0.1982203
1.188433,-0.5046186,-0.1033783
0.7170148,-0.519762,0.04073391
0.5583938,-0.4028677,0.03092435
0.7938848,-0.2633391,-0.1028274
0.9957229,-0.194489,-0.2607616
0.9902699,-0.2635094,-0.1648766
0.9364533,-0.3667688,0.0533176
0.7295977,-0.5186897,0.06375472
0.69399,-0.6129792,0.0684428
0.7424442,-0.4136354,0.04795723
0.5707154,-0.1724084,-0.06236935
0.5922746,-0.05968215,-0.03845822
0.7372308,0.05337591,-0.05372862
0.8967621,0.09829122,-0.1025465
1.028237,0.04693341,-0.07712142
0.9291928,0.01943759,-0.07475016
0.958454,0.0002661727,-0.01919855
1.053338,-0.08167097,-0.008002871
1.058443,-0.1504969,-0.0244136
1.120422,-0.1759364,-0.006546871
1.133076,-0.2005423,-0.05415826
1.255943,-0.1351409,-0.05517637
1.419444,-0.06113531,-0.06695282
1.418873,-0.1919151,-0.1376454
1.276469,-0.3883933,-0.1960143
0.9925265,-0.4496748,-0.2741546
0.8569994,-0.4407509,-0.250839
0.841033,-0.4489677,-0.1403478
0.9021747,-0.4506983,-0.07621995
1.343359,-0.3415049,-0.09440849
1.707718,-0.1126115,-0.168405
1.452364,0.0578513,-0.1714074
0.9830966,0.06676312,-0.1434922
0.7982173,0.01329216,-0.1185253
0.7255157,-0.05508857,-0.05490415
0.6243282,-0.1702157,-0.03039077
0.5991545,-0.211278,0.006865475
0.5070089,-0.1987367,0.06564214
0.4812707,-0.2284734,0.07161192
0.6065941,-0.1487361,0.08346313
0.6729854,-0.0802989,0.1110949
0.7557181,-0.1410807,0.1120612
0.8337848,-0.1609735,0.09823032
0.9648898,-0.1966991,0.1195418
1.12268,-0.2172273,0.1343744
1.133671,-0.2147619,0.1001869
1.244737,-0.278002,0.07799471
1.34401,-0.2700079,0.05942267
1.401473,-0.2985209,0.04915315
1.751365,-0.4261619,-0.02291318
1.900402,-0.4788638,-0.2254571
1.454695,-0.5266497,-0.3065836
0.8638838,-0.5814721,-0.1161385
0.5662481,-0.4967505,0.04319885
0.6447864,-0.313977,-0.08593348
0.8636542,-0.2176423,-0.2230854
0.9977245,-0.234714,-0.1611904
0.9451452,-0.3157288,-0.07649208
0.7998916,-0.470241,0.06788668
0.784213,-0.5448527,0.1556069
0.7586158,-0.4357836,0.03159561
0.6720194,-0.2570892,-0.03506222
0.6527296,-0.112982,-0.04629695
0.6454299,-0.01394516,-0.0855314
0.7712446,0.08158806,-0.06726404
0.9607702,0.06462357,-0.06650403
1.000782,-0.05427088,-0.04684909
1.009824,-0.04170612,-0.008828943
1.041111,-0.009550991,-0.02155091
1.064313,-0.05002203,-0.0135223
1.045525,-0.03271902,-0.004062927
1.022479,-0.07801691,-0.01888224
1.116168,-0.1231495,-0.02980785
1.264738,-0.0164405,-0.05061896
1.357942,0.009122927,-0.07935956
1.308782,-0.2152297,-0.1130538
1.186547,-0.4978314,-0.1719643
1.095889,-0.525734,-0.2621483
0.9715677,-0.4530856,-0.3153557
0.9055962,-0.5154871,-0.2775232
0.9883619,-0.4831279,-0.1685088
1.247511,-0.4062849,-0.05503632
1.565519,-0.3365177,-0.05474601
1.519561,-0.1066447,-0.1525043
1.181891,0.08895301,-0.201001
0.9554579,0.1128352,-0.1718899
0.832832,-0.04138517,-0.1237339
0.7396594,-0.2377338,-0.06989504
0.6520212,-0.2601733,-0.01957734
0.5762267,-0.2339575,0.03765035
0.5443352,-0.1910954,0.1371264
0.5377892,-0.1024389,0.1967273
0.6244231,-0.08865672,0.1701961
0.7654205,-0.1416118,0.1455806
0.894899,-0.2235971,0.09993817
0.9995596,-0.2749815,0.06191127
1.047509,-0.2784849,0.09004334
1.139885,-0.3059078,0.06693585
1.192851,-0.3483829,0.05848314
1.188226,-0.3523004,0.1772504
1.401029,-0.3432747,0.2331774
1.728537,-0.3616952,0.0132659
1.773792,-0.3704172,-0.3411303
1.37818,-0.4276552,-0.3819589
0.8456096,-0.5015933,-0.08261737
0.6043689,-0.4326009,0.08464465
0.6905079,-0.3149639,-0.06570138
0.9024098,-0.2484962,-0.2296422
1.025922,-0.2501415,-0.1521742
0.9551984,-0.3659387,-0.03173003
0.8103058,-0.512936,0.07046921
0.7515221,-0.5694138,0.168309
0.6833562,-0.4542101,0.02419776
0.5844101,-0.2334772,-0.09001578
0.6203694,-0.05771055,-0.02705116
0.6575326,0.02545764,-0.06612279
0.7164474,0.0273696,-0.07376514
0.9448415,0.03673454,-0.04414968
1.119882,0.07222697,-0.06347521
1.084434,0.07599693,-0.032903
0.9514426,0.04785622,0.001059785
0.9461363,-0.02875715,0.0446469
0.9656365,-0.08417832,0.05427072
0.9633412,-0.1146301,0.003975945
1.176373,-0.2160467,-0.0355458
1.337184,-0.2767277,-0.07889205
1.308586,-0.2509376,-0.07357827
1.300382,-0.2883663,-0.05594665
1.295928,-0.3733864,-0.1060386
1.185211,-0.4098749,-0.1851102
0.9875813,-0.4511268,-0.290722
0.9786623,-0.4668417,-0.2836354
1.056515,-0.4204636,-0.08217237
1.115939,-0.4238758,0.03959599
1.457435,-0.3446585,-0.06181203
1.747921,-0.1330902,-0.1766628
1.45755,0.01080476,-0.1604267
0.9600473,0.1028364,-0.1402809
0.8306804,0.07887598,-0.1424598
0.7348233,-0.06896906,-0.04911123
0.5385936,-0.1746441,0.01935487
0.5668533,-0.2351449,0.03261941
0.5155032,-0.1952228,0.08167265
0.5398514,-0.1415753,0.10336
0.7359189,-0.1644216,0.1247296
0.7631642,-0.1630497,0.1140144
0.9235451,-0.2323471,0.07706208
1.02004,-0.2989128,0.106067
0.9326239,-0.2639236,0.1023084
1.044909,-0.2802597,0.07968802
1.197023,-0.3160353,0.06638257
1.343747,-0.3340794,0.03178961
1.46523,-0.3309022,0.0342695
1.649195,-0.2935264,-0.01425243
1.888418,-0.3183606,-0.1210958
1.592811,-0.3965002,-0.1469132
1.007646,-0.4796317,-0.09689284
0.7491115,-0.4886175,-0.02131623
0.7053704,-0.3449263,0.02154944
0.7855548,-0.1794025,-0.07470199
0.8532741,-0.1779483,-0.1873193
0.8162967,-0.3167597,-0.06307009
0.8239354,-0.4346869,0.1236717
0.7926812,-0.4980554,0.1465343
0.7455291,-0.4726653,0.1093223
0.738052,-0.340202,-0.01047327
0.6788566,-0.1923093,-0.1546115
0.6944661,-0.0689136,-0.1456935
0.7785117,-0.07967232,-0.09311786
0.8842688,-0.1561157,-0.09549624
1.023064,-0.1353831,-0.1021217
1.041405,-0.06668903,-0.08861166
0.9941351,0.07749616,-0.05440981
0.9709103,0.1455404,0.001171958
0.9822872,0.05594181,0.03989445
1.074148,-0.004579869,0.02402116
1.1914,-0.1175153,-0.01063205
1.27944,-0.1936225,-0.07263775
1.266446,-0.09637026,-0.1179911
1.225228,-0.08365421,-0.0961657
1.184835,-0.2687399,-0.1367052
1.024888,-0.4678707,-0.2452992
0.9189172,-0.4688655,-0.2957863
0.9641577,-0.3708543,-0.2658046
1.17634,-0.3512196,-0.1947412
1.588869,-0.282,-0.106962
1.769851,-0.1190633,-0.04411936
1.557484,0.06566015,-0.1027642
1.395684,0.1543276,-0.1706508
1.240368,0.0617848,-0.1182236
0.7774837,-0.05001499,-0.08021627
0.4765174,-0.2029288,-0.01679325
0.6137363,-0.370389,0.1027207
0.6232792,-0.3286481,0.1093103
0.5567388,-0.2469536,0.06457895
0.6866708,-0.1821745,0.05314695
0.6925895,-0.08178332,0.05191403
0.6600871,-0.1120994,0.05585942
0.7282221,-0.146052,0.04461902
0.7888233,-0.1465404,0.08099185
0.9389071,-0.1999452,0.1113219
1.170598,-0.2440006,0.02458216
1.398293,-0.3227814,-0.04945992
1.426384,-0.3214234,-0.02133663
1.470434,-0.2801142,-0.02550061
1.880658,-0.3608297,-0.148007
1.973788,-0.386052,-0.2423878
1.529292,-0.4000545,-0.1885064
1.020469,-0.494134,-0.08079748
0.6066711,-0.4988751,-0.01978713
0.7170103,-0.3619883,-0.04521066
0.8934391,-0.1514572,-0.1232066
0.7133008,-0.08305035,-0.1473268
0.9338624,-0.2261362,-0.07684451
1.122421,-0.367749,0.03380855
0.908479,-0.4465284,0.1032616
0.8650492,-0.4681195,0.1189886
0.7682886,-0.3971279,0.07676513
0.609589,-0.2626475,-0.03425511
0.5920509,-0.1284225,-0.1027459
0.656796,-0.06297578,-0.08901725
0.8392433,-0.01430978,-0.08584172
0.9405237,0.04234427,-0.09086203
0.9607059,0.0250166,-0.06845327
0.9542143,0.007398178,-0.02705068
0.9544476,0.03097427,0.008092983
1.034627,0.0262599,0.01203842
1.054565,0.04310516,-0.005689347
1.113305,0.04103766,-0.03434528
1.230152,-0.04132915,-0.05619743
1.317766,-0.09490574,-0.06896832
1.38145,-0.1020496,-0.0682046
1.349315,-0.1759499,-0.06024561
1.282563,-0.350187,-0.1158925
1.125271,-0.4644087,-0.2143823
0.9886757,-0.4713522,-0.276444
1.009603,-0.4859594,-0.2754344
1.060991,-0.4644928,-0.2041297
1.293938,-0.4167415,-0.1096361
1.503859,-0.2767215,-0.06241487
1.382656,-0.006358237,-0.110765
1.184733,0.09686441,-0.1673871
0.9603981,0.04216882,-0.1327898
0.6997222,-0.0295326,-0.08275557
0.5557293,-0.1569054,-0.02279022
0.4828608,-0.1803939,0.02424272
0.4574211,-0.07843446,0.001881232
0.579075,-0.03409966,0.01954786
0.7576331,-0.1026432,0.06812157
0.8476887,-0.2185666,0.1247972
0.9178905,-0.3024955,0.2151229
0.9385034,-0.3148434,0.2172995
0.8833113,-0.2062802,0.1734764
0.9157367,-0.109094,0.1432316
1.09337,-0.1923281,0.01010534
1.284395,-0.2812309,-0.107771
1.357018,-0.2734029,-0.00164764
1.611001,-0.3383664,0.123431
2.001338,-0.4262617,-0.006477041
1.7394,-0.3961738,-0.1942701
1.067221,-0.3748003,-0.2425486
0.7665083,-0.4055139,-0.1578638
0.7468262,-0.3808032,0.001158003
0.8475308,-0.3592143,-0.01370057
0.8877182,-0.379005,-0.06771829
0.8642638,-0.4105395,0.03036889
0.8632947,-0.4823898,0.05737158
0.683802,-0.5177291,0.1075389
0.6548253,-0.4476818,0.1506263
0.6544609,-0.2855755,0.01444528
0.4875147,-0.05274402,-0.121521
0.6613589,0.04728359,-0.1982434
0.8516292,-0.04054336,-0.1638989
0.955293,-0.04711848,-0.09239522
1.097105,0.01658825,-0.06086331
0.9878089,0.03146387,0.03243731
0.9861764,0.07587248,0.02591069
1.020235,0.06037821,-0.0096186
0.9457346,-0.03959665,0.04037141
1.037599,-0.1431029,0.02381419
1.089502,-0.2955543,0.01943763
1.133317,-0.3549184,0.001309777
1.25959,-0.2398012,-0.06645296
1.359959,-0.1132999,-0.09061921
1.373537,-0.09956261,-0.1595355
1.207593,-0.3175628,-0.2798377
1.05447,-0.6101412,-0.3467868
1.013242,-0.6471895,-0.284532
1.022939,-0.5306468,-0.1446308
1.191415,-0.4484537,-0.0748631
1.444935,-0.2590923,-0.1139405
1.431984,0.00894812,-0.1818488
1.121206,0.1198716,-0.1510181
0.8430815,0.08756158,-0.1091735
0.6462341,-0.06262004,-0.08339224
0.5468849,-0.2998772,0.06426339
0.5443416,-0.3912209,0.1425912
0.5172728,-0.3248961,0.1269877
0.5578715,-0.2470056,0.1708356
0.6033571,-0.1471163,0.1688922
0.6840242,-0.04424006,0.1509261
0.8386144,-0.01994085,0.1317683
0.8830661,-0.0725317,0.07249089
0.9680982,-0.1281966,0.05557214
1.081263,-0.1569627,0.06280405
1.154613,-0.2655879,0.05901373
1.277737,-0.4301447,0.05013253
1.340635,-0.4225536,0.07875054
1.5876,-0.369381,0.100725
1.917442,-0.4312055,-0.03583113
1.698952,-0.4456151,-0.2878584
1.247486,-0.4830899,-0.3861089
0.9714483,-0.5182913,-0.1254704
0.6291765,-0.4223007,0.1106743
0.5735095,-0.3215539,-0.09350127
0.874543,-0.2357935,-0.2595291
0.9133064,-0.2364957,-0.1182833
0.8106217,-0.3319389,-0.01292796
0.7246298,-0.428702,0.1320558
0.649612,-0.5079209,0.2394038
0.7020827,-0.4106672,0.04959764
0.6408093,-0.2466748,-0.09356184
0.6012012,-0.18813,-0.07360615
0.6794119,-0.1426768,-0.08047651
0.7425742,-0.1038,-0.06646191
0.8936513,-0.0690657,-0.07095279
0.9588459,-0.05851683,-0.06933903
1.005166,-0.006160772,-0.04582386
1.068916,0.06846968,-0.06630046
1.009159,-0.01573954,-0.05846774
1.083313,-0.1195176,-0.05583948
1.167597,-0.2016819,-0.0550112
1.163393,-0.2610902,-0.03309917
1.277385,-0.126272,-0.0560763
1.376069,-0.02378924,-0.07828418
1.378106,-0.1434457,-0.1363585
1.236177,-0.3729868,-0.2624904
1.037419,-0.6057436,-0.3561716
1.028161,-0.6685368,-0.3382953
1.064285,-0.5985403,-0.1681683
1.101938,-0.5753635,0.01377095
1.316539,-0.4519805,-0.0075354
1.468023,-0.1558173,-0.1390027
1.250777,0.04073806,-0.1675664
0.87394,0.08564592,-0.1478857
0.681255,0.06476264,-0.1262833
0.6168374,-0.07095866,-0.06017569
0.5412511,-0.2363256,-0.008706477
0.5025115,-0.2858326,0.05276935
0.5116662,-0.1940767,0.1194638
0.544366,-0.110636,0.145535
0.6528826,-0.1225965,0.1512213
0.8653935,-0.164211,0.1300749
1.031929,-0.270908,0.1294142
1.081804,-0.332313,0.1366549
1.131439,-0.2809896,0.1172418
1.157005,-0.2703322,0.06189294
1.104607,-0.2734434,0.004698753
1.102532,-0.278929,0.1084505
1.365247,-0.3502503,0.1837771
1.762878,-0.4631637,-0.08250555
1.763181,-0.5313862,-0.4249928
1.251312,-0.4874215,-0.4162865
0.6815209,-0.4347994,-0.07452904
0.5345234,-0.398051,0.1413149
0.7949287,-0.343589,-0.08268291
0.9909218,-0.3496677,-0.3117819
1.030255,-0.3933825,-0.1384031
0.9355452,-0.4483278,0.02786055
0.6769998,-0.5191662,0.04477788
0.5953756,-0.52736,0.1084691
0.5895297,-0.4038674,-0.0003477556
0.507685,-0.1916229,-0.1175526
0.60794,-0.06711959,-0.09271993
0.7463677,-0.05243212,-0.1410202
0.9076686,-0.02034762,-0.12376
1.084837,-0.008317202,-0.07931351
1.060208,-0.0129707,-0.05315087
1.017768,0.02356605,0.002025239
0.9918614,0.02265704,-0.03853248
1.001851,-0.04848101,-0.02597971
1.110968,-0.1552574,0.0005022097
1.161819,-0.2099284,-0.04351402
1.277229,-0.1538985,-0.06953463
1.403988,-0.073684,-0.1424356
1.367983,-0.03544087,-0.1514414
1.282498,-0.1632204,-0.1479722
1.094593,-0.4555401,-0.2476638
0.8637018,-0.5628888,-0.2787197
0.9171182,-0.4243746,-0.229237
1.171717,-0.3434387,-0.1249698
1.362898,-0.3560111,-0.02435178
1.577697,-0.2577495,-0.07548372
1.575474,-0.02232597,-0.151809
1.193787,0.1456841,-0.1161021
0.8430071,0.1457873,-0.1039174
0.5751497,0.01738106,-0.1036049
0.476254,-0.1794716,0.006826648
0.5164422,-0.2987917,0.09071973
0.4699833,-0.2898166,0.1090587
0.5642378,-0.2329939,0.1637621
0.6376695,-0.1666186,0.2117592
0.6609316,-0.09738066,0.2029335
0.8488388,-0.06380005,0.1245955
0.9787978,-0.1110479,0.05967784
1.044809,-0.1599571,0.07139547
1.09838,-0.1725442,0.06510554
1.239026,-0.2612373,-0.01764201
1.362449,-0.3687592,-0.06985845
1.32046,-0.3681407,0.06187454
1.481684,-0.3470239,0.1518701
1.667743,-0.3697415,-0.107724
1.51501,-0.3954867,-0.3670086
1.189706,-0.4409937,-0.2325607
0.8740952,-0.4542233,0.03138248
0.7662118,-0.3702587,0.1213497
0.8487007,-0.2699236,-0.005649407
0.8653385,-0.250496,-0.1879624
0.8146859,-0.3285127,-0.07338745
0.8336881,-0.3853628,0.0682382
0.7703403,-0.3540899,-0.0361787
0.6603618,-0.3112987,0.00268558
0.7104202,-0.1905721,-0.01869835
0.7133668,0.007752444,-0.1635246
0.6984616,0.08377529,-0.07436628
0.8047272,0.07603724,-0.0525722
0.8917027,0.08653208,-0.08211315
0.9481545,0.02422997,-0.03054142
0.9764398,-0.04888687,-0.06546378
1.022244,-0.0769216,-0.05678919
1.077022,-0.1442916,-0.05700846
1.103612,-0.1837078,-0.08619484
1.152998,-0.1807152,-0.07608411
1.214265,-0.169446,-0.124426
1.310392,-0.1413967,-0.1533605
1.302902,-0.2115869,-0.1512785
1.226038,-0.4386438,-0.180453
1.254393,-0.6761123,-0.2304432
1.173103,-0.6842667,-0.2795382
1.007387,-0.6096638,-0.2847506
0.9339418,-0.6156504,-0.1935562
0.9577546,-0.4111221,-0.004631549
1.132685,-0.1691345,0.03563065
1.260849,-0.03940226,-0.09440443
1.1976,0.1541455,-0.1416114
1.054785,0.1368237,-0.1445222
0.8879454,0.002178405,-0.1295922
0.7393688,-0.1302799,-0.09075934
0.6374143,-0.3542454,-0.05069845
0.5824943,-0.3431297,0.04427168
0.5553595,-0.2401796,0.1034057
0.583509,-0.1947137,0.1391648
0.6907754,-0.08824018,0.1647033
0.8559317,-0.1043325,0.1250407
0.999895,-0.1501508,0.1327504
0.9926847,-0.1822855,0.1532453
0.9769095,-0.234744,0.1426127
1.046483,-0.2326645,0.1417278
1.131506,-0.316395,0.1324108
1.250964,-0.3970092,0.2045954
1.295087,-0.3323437,0.2822813
1.469731,-0.2328114,0.1481401
1.764104,-0.2195031,-0.1989133
1.535183,-0.336217,-0.464627
1.007059,-0.4973693,-0.2666804
0.7476509,-0.5759958,0.09940629
0.6823915,-0.5167453,0.09654015
0.8163782,-0.4178277,-0.07011585
0.9495013,-0.3452474,-0.1471821
0.9082636,-0.3458075,-0.06948299
0.858885,-0.4714561,0.1447651
0.6891987,-0.5132462,0.1761469
0.5324662,-0.3789571,0.0955673
0.5316101,-0.167992,0.01980479
0.5685827,-0.006382601,-0.1324227
0.7458538,-0.02457372,-0.1460075
0.9161132,-0.05414514,-0.1109582
1.006137,-0.01823012,-0.1123696
1.029109,0.007015694,-0.03287321
0.9522993,0.04871339,-0.01031097
1.008641,0.002203852,-0.01730675
1.03352,-0.08872906,-0.003219838
1.025632,-0.1116966,-0.0003639507
1.18811,-0.140418,-0.007601996
1.333793,-0.1557712,-0.04556667
1.470982,-0.1600126,-0.06099196
1.439821,-0.2794979,-0.1168923
1.185298,-0.5295479,-0.2032994
0.9613578,-0.667423,-0.2455218
0.8183722,-0.5118924,-0.3016516
0.9235571,-0.3462863,-0.3131655
1.262339,-0.3601379,-0.2106172
1.701721,-0.2947968,-0.1034283
1.856453,-0.1177979,-0.1511415
1.401493,0.01035268,-0.226345
1.015789,0.08250006,-0.1769407
0.8396828,0.007792588,-0.1569013
0.5017444,-0.2098603,-0.09804472
0.362326,-0.4023141,0.04361705
0.4390662,-0.4209305,0.1035114
0.4737636,-0.2531918,0.1539091
0.5406404,-0.1185676,0.1608664
0.6974732,-0.04410667,0.1188285
0.7944176,-0.01075281,0.1502186
0.7974486,-0.07028246,0.15856
0.9109214,-0.0681368,0.1602992
0.962954,-0.09863397,0.1627936
0.9165419,-0.1826287,0.1083357
0.9957597,-0.1968941,0.08835377
1.027184,-0.2822416,0.05562375
1.023028,-0.3554177,0.02724933
1.171343,-0.4391886,0.1050972
1.522908,-0.6599268,0.1059875
1.836464,-0.7983527,-0.1677686
1.572445,-0.7230003,-0.4154067
0.9901028,-0.4696817,-0.1810444
0.6850842,-0.1974998,0.08074624
0.6004199,-0.0719253,-0.113713
0.7425666,-0.1252022,-0.1835703
0.8967532,-0.2297421,-0.04786681
0.7629222,-0.3039132,-0.05758194
0.7338557,-0.4713348,0.01518955
0.7885631,-0.5261558,0.0157665
0.6968611,-0.4129354,-0.1200477
0.6556406,-0.349224,-0.09465881
0.6133854,-0.2237415,-0.06443379
0.696682,-0.1075607,-0.03944948
0.9212789,0.00574679,-0.01380203
0.9958497,0.1685099,-0.07267795
1.01019,0.1813275,-0.06389624
1.000019,0.1271923,-0.06459068
0.9865009,0.03991564,-0.03750819
1.017553,-0.1364262,0.0601111
1.036498,-0.3168465,0.0497217
1.131982,-0.3458894,0.01587757
1.252008,-0.234346,-0.02747554
1.347173,-0.19833,-0.08048918
1.350305,-0.1228212,-0.07619387
1.158723,-0.1679744,-0.140324
1.002552,-0.4083068,-0.2562885
1.016961,-0.3877999,-0.2869004
1.162586,-0.3879918,-0.191491
1.405548,-0.5054405,-0.09124762
1.567033,-0.4405844,-0.09385926
1.47149,-0.356995,-0.108075
1.113155,-0.1216047,-0.1086394
0.7542425,0.1149407,-0.1160129
0.6624264,0.1023133,-0.1070133
0.6769173,0.03626232,-0.06478702
0.536762,-0.1671467,0.02559414
0.4841072,-0.3405436,0.08548268
0.6054493,-0.2626569,0.08638413
0.5735473,-0.1574553,0.103016
0.6137524,-0.1127834,0.1267785
0.7660814,-0.08394484,0.1233704
0.7718074,-0.09889076,0.1384623
0.871594,-0.1546175,0.1593031
0.9682512,-0.1521963,0.1390701
1.027305,-0.157679,0.1116165
1.178004,-0.228785,0.03546874
1.208656,-0.318074,-0.05750255
1.323473,-0.5180893,-0.05298353
1.654429,-0.7353705,-0.1205633
1.823475,-0.8357481,-0.3249718
1.42911,-0.6983003,-0.3307248
0.7481471,-0.3490404,-0.03141097
0.5022328,-0.164944,0.1918522
0.5470235,-0.1429299,0.06716986
0.6807302,-0.1314726,-0.1222864
0.9590363,-0.1450795,-0.0992178
0.9930718,-0.1857429,-0.03285428
0.8254591,-0.3250113,0.04219271
0.700431,-0.426456,0.1289682
0.6196682,-0.4727164,0.05968115
0.6110924,-0.4763884,-0.02602257
0.5970089,-0.3058618,-0.08032295
0.6436608,-0.1057254,-0.1228792
0.8352745,0.07379458,-0.06773509
1.083473,0.1788775,-0.09154551
1.179389,0.1410174,-0.1127508
1.026832,0.05875525,-0.06636877
0.9596171,-0.1176935,-0.08038644
1.041257,-0.2603239,-0.02254529
1.072226,-0.2696984,-0.006402406
1.150949,-0.2721375,-0.07307882
1.240271,-0.2548105,-0.08889035
1.274278,-0.2073423,-0.1501293
1.299844,-0.1998866,-0.213391
1.234703,-0.4340521,-0.2393487
1.088369,-0.7707575,-0.2304617
0.9627767,-0.7382703,-0.1911708
0.9555242,-0.5181441,-0.1663864
1.123671,-0.4267634,-0.1094083
1.407071,-0.3185027,-0.1064795
1.547958,-0.1512494,-0.1406794
1.191742,0.002707193,-0.1268654
0.62974,0.06789212,-0.1306356
0.4496792,0.02769766,-0.09255311
0.4677862,-0.05680812,-0.01964608
0.4926257,-0.2007825,0.03160013
0.6599917,-0.2709683,0.06583539
0.7990343,-0.2566232,0.06728379
0.8824208,-0.3103979,0.0923889
0.945027,-0.2944007,0.1062005
0.9010549,-0.2373732,0.09747637
0.8459716,-0.1963132,0.1293018
0.7894647,-0.05312617,0.1476511
0.8423242,-0.01662446,0.1110238
1.106268,-0.1284505,-0.05317247
1.304377,-0.2633449,-0.3297183
1.262483,-0.4449161,-0.3984832
1.237509,-0.5814656,-0.0633431
1.523033,-0.8117345,0.2972455
1.751494,-0.9877202,0.2014392
1.556139,-0.6256617,-0.2516008
1.234842,-0.2401228,-0.5393519
0.9041517,-0.2784631,-0.284158
0.6328697,-0.2424439,0.04468036
0.620381,-0.1866166,-0.1256592
0.7699409,-0.289667,-0.2229622
0.891555,-0.2775797,-0.07590045
0.81428,-0.3199565,-0.05759747
0.7198788,-0.4500651,0.1131128
0.8034567,-0.4275804,0.1371548
0.7992741,-0.3587188,-0.0602782
0.7232711,-0.2847994,-0.0110162
0.6973363,-0.2035869,-0.05409264
0.655539,-0.1530397,-0.0906609
0.7473902,-0.09969622,-0.01142523
0.937868,-0.07533275,-0.07705013
1.04401,-0.02044117,-0.04677578
1.046739,0.02327196,-0.04958099
0.9856869,-0.05345328,-0.06107834
1.003082,-0.1462718,0.02124972
1.091667,-0.2342377,-0.02561022
1.184661,-0.2833667,-0.01178105
1.273872,-0.2273225,-0.01046679
1.343286,-0.2024654,-0.09821214
1.488894,-0.2746189,-0.1499438
1.506524,-0.4640406,-0.2671632
1.264978,-0.7192236,-0.3381969
1.004764,-0.751291,-0.3142521
0.8124825,-0.5702501,-0.1825404
0.8809546,-0.4388344,0.02753991
1.134936,-0.2685989,0.07378951
1.214423,0.004962349,-0.04592861
1.116847,0.2064757,-0.1451007
0.8808176,0.2491628,-0.09365987
0.7145811,0.1023989,-0.02410313
0.6731316,-0.09298653,-0.007072947
0.6070356,-0.1903472,0.08557656
0.656419,-0.2376899,0.1309132
0.7109708,-0.2403521,0.105267
0.782837,-0.258447,0.1034841
0.9255318,-0.2977858,0.1025702
0.9239612,-0.3023701,0.1049406
0.8963987,-0.2996022,0.09439055
0.8267739,-0.2019528,0.1149949
0.7721189,-0.04053666,0.1231338
0.8896002,0.004557844,0.02022392
1.018754,-0.151293,-0.1604214
1.136964,-0.4073911,-0.237606
1.174245,-0.5596138,0.02848642
1.366587,-0.7029511,0.2410516
1.749698,-0.8383094,-0.1004824
1.631291,-0.6776536,-0.4085631
1.106593,-0.4103159,-0.1963432
0.6273245,-0.3658879,0.007571442
0.4160655,-0.3493275,-0.008026636
0.7056371,-0.2296299,-0.05145863
0.9606974,-0.1869228,-0.1674529
0.9329294,-0.2299594,-0.1213129
0.9090248,-0.3082066,0.06552472
0.7475557,-0.4095127,0.0773271
0.6335152,-0.4452239,0.05071607
0.6385121,-0.3745768,-0.03217004
0.6564769,-0.2312768,-0.1041579
0.9037551,-0.1232848,-0.0542554
1.094092,-0.01824858,-0.08384783
1.111873,0.1053296,-0.05384143
1.081567,0.1006679,-0.0004378328
0.9026274,0.03051818,-0.0008545991
0.8019738,-0.05385019,0.07502048
0.8510098,-0.1258996,0.05241415
0.9917371,-0.1307971,-0.006727894
1.10897,-0.1848432,-0.02055763
1.100334,-0.2286455,-0.04513819
1.184092,-0.205583,-0.04641792
1.261173,-0.1366399,-0.08986643
1.267932,-0.06795677,-0.0853559
1.283514,-0.3015134,-0.08614352
1.176288,-0.6481586,-0.2049639
1.014681,-0.6472221,-0.2994825
0.9043238,-0.5690209,-0.2998585
0.8779384,-0.5977155,-0.1431036
1.010039,-0.4682708,0.03591159
1.36509,-0.2458289,0.01860548
1.597288,-0.0551113,-0.07156816
1.25266,0.1307041,-0.1057738
0.7962803,0.2192801,-0.1003858
0.7150292,0.1752878,-0.08131932
0.6930583,0.06647485,-0.06062951
0.6178121,-0.05618161,-0.02492793
0.6935408,-0.211349,0.02311119
0.7803788,-0.3232467,0.07210723
0.774363,-0.295957,0.1060976
0.8289415,-0.2554694,0.1092274
0.8573635,-0.1920584,0.1033593
0.827275,-0.1234733,0.1196373
0.8688047,-0.1408598,0.1352023
0.919207,-0.07146553,0.1320067
0.9804499,-0.009883947,0.05668957
1.062102,-0.1346757,-0.1405509
1.085383,-0.3645663,-0.2096698
1.151592,-0.6344565,0.05541705
1.464286,-0.7030397,0.2297102
1.776911,-0.4254279,-0.1364083
1.492307,-0.1023881,-0.4735341
0.9202794,-0.04558269,-0.1625406
0.7282074,-0.1501324,0.1062803
0.7055095,-0.2267237,-0.05645551
0.8092104,-0.3382846,-0.1044572
1.026085,-0.3803216,-0.1198369
0.9719014,-0.3165711,-0.1552173
0.8951968,-0.3679094,0.01299201
0.9088469,-0.4722811,0.0874593
0.880892,-0.5412526,0.04549873
0.916289,-0.5141041,0.03957035
0.8065793,-0.2564501,-0.001575673
0.689077,-0.006751831,-0.03906474
0.7708516,0.001832613,-0.05369064
0.8375255,-0.05436937,-0.03085162
0.8912142,-0.01693312,-0.03300344
0.888761,-0.008346299,-0.05300009
0.8626495,-0.09439772,-0.02069489
0.9287225,-0.1399714,-0.02741949
0.9764771,-0.1558272,-0.007137959
1.011189,-0.1245936,0.0181811
1.050512,-0.03322921,-0.02244557
1.117904,-0.01155284,-0.0440333
1.292053,-0.02072235,-0.08502308
1.416748,-0.1601908,-0.08855038
1.318079,-0.3760713,-0.1216048
1.165741,-0.3490455,-0.3174594
1.146081,-0.262175,-0.4297673
1.171099,-0.2780909,-0.2927258
1.195432,-0.2557035,-0.0832911
1.194238,-0.1634391,-0.03489954
1.170248,0.04247941,-0.106219
1.193802,0.2247855,-0.16054
1.164832,0.1737238,-0.2156394
1.07476,-0.009425649,-0.2224897
0.9474163,-0.1844093,-0.1882004
0.7937892,-0.2701721,-0.1701045
0.7273487,-0.2159697,-0.1535911
0.6686864,-0.1614863,-0.1421808
0.6729377,-0.1299769,-0.1305643
0.8038478,-0.08685319,-0.1627453
0.857035,-0.130704,-0.198599
0.8425726,-0.1561241,-0.1779688
0.829592,-0.1847065,-0.1735543
0.8348465,-0.2872689,-0.172572
0.8549666,-0.2744348,-0.1455874
0.9848169,-0.11988,-0.04481442
1.12342,-0.2972922,-0.1999302
1.171967,-0.3406763,-0.23343
1.333197,-0.2868828,-0.09626992
1.746038,-0.2665723,-0.09881751
1.952912,-0.2453263,-0.109271
1.607161,-0.2719706,-0.06697192
1.105223,-0.3956523,0.0179376
0.759048,-0.4994461,0.1582998
0.6347324,-0.3974318,0.06965151
0.6338946,-0.1897165,-0.1093675
0.725802,-0.1184539,-0.1974726
1.025217,-0.1716613,-0.2249389
0.9786217,-0.314671,-0.06015014
0.7090511,-0.4672935,0.08032168
0.7547241,-0.4705061,0.01636334
0.6184025,-0.3771005,-0.07481228
0.5644833,-0.265742,-0.1518768
0.743191,-0.09088928,-0.2074386
0.747447,0.057455,-0.2082353
0.9460792,0.09792571,-0.2125555
1.039367,0.1674524,-0.1939549
0.9162851,0.2244815,-0.1075417
0.9249632,0.1688814,-0.07239112
0.8849446,0.08701745,-0.1006951
0.9699368,-0.06031276,-0.1192184
1.104632,-0.176286,-0.1720187
1.21676,-0.1317384,-0.2043826
1.375774,-0.07441475,-0.1967549
1.378642,-0.05409231,-0.1905261
1.426964,-0.1962487,-0.1658879
1.462407,-0.5149276,-0.2041598
1.29111,-0.6096924,-0.3010281
1.043823,-0.406337,-0.3870099
0.923666,-0.2135394,-0.4114965
1.095616,-0.1655596,-0.2676995
1.292757,-0.1367171,-0.0801373
1.332593,-0.008076587,-0.05540775
1.151621,0.1330057,-0.1396975
0.7883762,0.1944799,-0.1845042
0.6185959,0.1562438,-0.1598023
0.6066917,0.07183173,-0.1309629
0.6596454,-0.06000909,-0.1108485
0.8060659,-0.2746466,-0.07156274
0.8293755,-0.3675435,0.03684703
0.7998272,-0.309648,0.1652615
0.8305655,-0.1751465,0.1357046
0.8440561,0.03301362,0.07060157
0.8515127,0.06060883,0.1123235
0.8505054,0.02433204,0.08958998
0.8960602,0.08308182,0.04131934
1.002651,-0.05936974,0.0005986193
1.132513,-0.2464847,-0.07212132
1.438574,-0.3462165,0.03553659
1.85127,-0.5096699,0.1067711
1.908739,-0.4585275,-0.2017619
1.618443,-0.3224764,-0.4857369
1.344115,-0.4893767,-0.355223
1.006591,-0.6162751,-0.06852382
0.83807,-0.5018472,0.03497248
1.012397,-0.2505648,-0.101788
0.9805683,0.05079278,-0.2942778
0.8765992,-0.05061,-0.2214892
0.7691896,-0.4252077,0.02890758
0.3937571,-0.5657775,0.18815
0.3464258,-0.5912487,0.2630298
0.5684703,-0.4848464,0.06557176
0.6660666,-0.3410633,-0.3254591
0.8315385,-0.297614,-0.5126079
0.9038592,-0.0674921,-0.3527844
0.9734736,0.2094587,-0.04377704
1.045576,0.3124122,-0.06967505
0.8581262,0.2381603,-0.09711097
0.7776412,0.1411372,0.09028218
0.9117337,0.1234814,-0.01214449
1.063304,-0.05659885,-0.09059409
1.23005,-0.1636739,-0.1342883
1.288206,-0.1833186,-0.2635745
1.28185,-0.2631347,-0.1606268
1.295135,-0.04439027,-0.1279069
1.296152,0.09500492,-0.130587
1.334648,-0.1721253,-0.1424865
1.339357,-0.4707017,-0.3125423
1.230294,-0.5399218,-0.370717
1.062966,-0.402896,-0.4440565
1.009454,-0.3708845,-0.4451398
1.195642,-0.3650358,-0.2089888
1.353604,-0.1993514,-0.02002541
1.251182,0.02361915,0.0262663
1.045444,0.2270812,-0.1041077
0.8302448,0.2364084,-0.2269976
0.660592,0.1253717,-0.1982026
0.6081966,0.004435912,-0.1607905
0.5172817,-0.1332898,-0.08690061
0.4309662,-0.1885289,-0.02055212
0.4933478,-0.1923096,0.07269247
0.5841923,-0.1488857,0.2133139
0.7803991,-0.1282447,0.1888356
1.022176,-0.1900797,0.08242275
1.087895,-0.2300479,-0.01381446
1.134623,-0.2548238,-0.08380628
1.173864,-0.2783942,-0.06252785
1.184994,-0.2912494,-0.08507299
1.299327,-0.2708899,-0.08727015
1.500142,-0.2306858,-0.01260458
1.728453,-0.2000429,-0.08891144
1.74301,-0.1832918,-0.3926375
1.470104,-0.3114448,-0.6574289
1.094798,-0.5163305,-0.4065771
0.7925649,-0.5631026,0.0354878
0.7867252,-0.3903107,-0.01843893
0.8947126,-0.1618566,-0.1699537
0.8899646,-0.1596114,-0.141645
0.8424757,-0.3199867,-0.07499739
0.6815235,-0.4507733,0.1532469
0.5377933,-0.4795934,0.1834529
0.5841162,-0.3260213,-0.0741787
0.6219485,-0.1960049,-0.3230394
0.5776366,-0.2061163,-0.4747493
0.6566545,-0.1250349,-0.2971704
0.9159258,0.06575029,-0.1461552
1.118332,0.1490471,-0.2628023
1.060017,0.148616,-0.2059161
0.9070062,0.233627,-0.04162816
0.9135264,0.2336983,0.05347496
0.9567368,0.07382576,0.01485905
0.9854797,-0.0531691,-0.1271982
1.119494,-0.1625878,-0.1407233
1.284923,-0.182679,-0.1942329
1.428595,-0.08807413,-0.2878919
1.342102,-0.0848002,-0.2429167
1.150178,-0.2455099,-0.2458949
1.163462,-0.4725292,-0.2989787
1.027174,-0.5028691,-0.3573061
0.8944533,-0.4090372,-0.4573165
1.153808,-0.4012015,-0.4341864
1.561296,-0.2422043,-0.2670101
1.828453,-0.01223933,-0.1438226
1.551462,0.08034043,-0.1670037
1.0264,0.1952324,-0.2221788
0.7888888,0.2540064,-0.1897195
0.5436189,0.1477607,-0.1496998
0.3880953,-0.005811425,-0.1171512
0.3999613,-0.1273878,-0.07051252
0.3280515,-0.1741097,-0.007757562
0.4269564,-0.1697337,0.1478252
0.6403545,-0.1537135,0.2336343
0.8367444,-0.1334561,0.1631815
1.083153,-0.1630884,0.1073635
1.139852,-0.2068168,0.01667613
1.117427,-0.162978,-0.04432121
1.15752,-0.1474812,0.0009861556
1.148203,-0.2564379,-0.0447981
1.206152,-0.3458403,-0.06991569
1.394895,-0.3386931,0.07695293
1.633919,-0.3044964,0.1116226
1.640907,-0.3220022,-0.2615383
1.391708,-0.3653613,-0.6494479
1.198684,-0.3946288,-0.4218934
1.010923,-0.3885762,-0.06198139
0.9116187,-0.2726003,-0.09235991
0.9186928,-0.1706509,-0.1104964
0.8142115,-0.214438,-0.096497
0.7305143,-0.3180691,-0.02971713
0.6033473,-0.4130964,0.1937617
0.5205264,-0.4299618,0.1559147
0.6755882,-0.3619201,-0.09032726
0.7152186,-0.2735787,-0.3150377
0.6487678,-0.1382766,-0.3738318
0.6843056,0.04393766,-0.156565
0.8008553,0.1472591,-0.08048113
0.9543615,0.1418684,-0.1412121
0.9337148,0.1818454,-0.09732705
0.8934798,0.2503702,-0.02463729
0.9749348,0.2035621,0.06751541
1.035187,0.0338297,-0.01548999
1.258951,-0.2339276,-0.2053036
1.458065,-0.3950442,-0.2705893
1.346805,-0.218821,-0.2230011
1.273862,0.07112686,-0.121755
1.277682,0.1565932,-0.1509064
1.166457,-0.0426866,-0.1936397
1.091088,-0.3984369,-0.2222885
1.091154,-0.5359114,-0.3876086
1.14139,-0.4795204,-0.4267476
1.320046,-0.4786326,-0.3628682
1.542302,-0.2934411,-0.3122681
1.526939,0.03868952,-0.1847357
1.170002,0.179392,-0.1414258
0.7852312,0.1514641,-0.1509539
0.5845401,0.07622027,-0.09642347
0.4711149,-0.04478973,-0.05860064
0.4122093,-0.2334289,-0.01845708
0.4173997,-0.2923156,0.01278686
0.44821,-0.2133899,0.008815549
0.5113868,-0.2022955,0.04046292
0.695392,-0.1439042,0.07929913
0.9360605,-0.1058872,0.05770624
1.110604,-0.1747872,0.03824885
1.247186,-0.1799867,0.05571103
1.251976,-0.1812909,0.02602747
1.165574,-0.2291528,-0.09162482
1.153718,-0.2624466,-0.150522
1.221817,-0.2290939,0.08046606
1.468079,-0.172157,0.2535004
1.751207,-0.23318,-0.2423745
1.724247,-0.3539231,-0.7603169
1.409686,-0.4773534,-0.4853075
1.056143,-0.5185162,-0.1132667
0.8402071,-0.3470108,-0.06391423
0.7914409,-0.1856045,-0.0411075
0.8209315,-0.2086825,-0.1382258
0.7919295,-0.3289582,-0.1050142
0.6922733,-0.4568945,0.04129989
0.6401328,-0.480995,-0.007781739
0.6498871,-0.4571983,-0.002605121
0.6459664,-0.4702071,-0.1396372
0.6314978,-0.3962382,-0.3849352
0.6695949,-0.224584,-0.3574361
0.7386436,-0.03719725,-0.2658311
0.871774,0.1805422,-0.1687088
1.06825,0.3154018,-0.168932
1.094586,0.2739055,-0.1911523
0.9561282,0.1992034,-0.05801335
0.8920666,0.1066985,-0.03893995
0.9380932,-0.02425657,-0.05192761
1.031795,-0.08885218,-0.1117493
1.195342,-0.1401416,-0.2614863
1.406814,-0.1780661,-0.2783674
1.418541,-0.1284647,-0.2596441
1.225807,-0.07618931,-0.1800626
1.149138,-0.1380531,-0.1117404
1.172924,-0.3209728,-0.2245942
1.144453,-0.4521502,-0.3977044
1.050539,-0.424132,-0.5270156
1.002284,-0.3267032,-0.5147088
1.19337,-0.2282743,-0.3913864
1.445804,-0.06183583,-0.2216105
1.442796,0.1677815,-0.0903072
1.161577,0.2716696,-0.08569174
0.8248707,0.2361645,-0.08603039
0.7153856,0.1113613,-0.1113514
0.7285086,-0.1059118,-0.1459004
0.6383542,-0.2760492,-0.05966883
0.542984,-0.3208702,0.05888733
0.5186628,-0.2520943,0.1386024
0.5353486,-0.1594189,0.1922641
0.6225215,-0.09453266,0.2085293
0.7697215,-0.04662994,0.1688175
0.9079828,-0.06658859,0.1153097
1.000362,-0.06373932,0.08395775
1.056203,-0.0469461,0.02349341
1.085577,-0.1253555,-0.06862026
1.086524,-0.27917,-0.1722349
1.156841,-0.4361946,-0.2074958
1.490661,-0.4040765,-0.2351036
1.951289,-0.3168628,-0.5318491
1.984869,-0.3781928,-0.8147821
1.50057,-0.3568899,-0.5182065
0.9505781,-0.2862434,0.02713931
0.5006219,-0.2229694,0.1603574
0.3717408,-0.05652729,-0.02977265
0.6952847,-0.03008138,-0.1632927
0.9339274,-0.1782383,-0.1222449
0.8773143,-0.3553466,-0.0134776
0.796593,-0.5286179,0.05706367
0.7697342,-0.5438459,0.08317987
0.7530944,-0.4478218,-0.1134572
0.6694034,-0.3168748,-0.3339568
0.5960306,-0.1119445,-0.2002189
0.7098881,0.07496099,-0.129114
0.9920189,0.1883326,-0.2915322
1.155071,0.2238822,-0.3150272
1.052255,0.2242371,-0.1950942
0.9730299,0.1940202,-0.05193537
1.029725,0.1086063,-0.01512692
1.090453,-0.0195833,-0.1095562
1.200325,-0.1930195,-0.1920077
1.312516,-0.1870126,-0.2427201
1.297794,0.01692831,-0.2427542
1.266926,0.05275339,-0.2001365
1.24158,-0.1616482,-0.1996425
1.140975,-0.4519482,-0.2997641
1.091519,-0.5484875,-0.5059883
1.071823,-0.4676041,-0.6274652
1.138403,-0.4563108,-0.4925708
1.432636,-0.2978413,-0.250263
1.589565,-0.01593029,-0.105304
1.315764,0.09206228,-0.107332
0.8610372,0.1796307,-0.1501821
0.6526507,0.2103069,-0.122435
0.6671742,0.05836237,-0.1288282
0.6004262,-0.1160093,-0.1390148
0.5636455,-0.2353931,-0.0732075
0.5672777,-0.2576325,-0.07440859
0.529176,-0.2123697,-0.03284479
0.5866643,-0.1587792,0.08710813
0.6771712,-0.07911588,0.1183965
0.7495118,-0.04779222,0.1342977
0.8770969,-0.08808883,0.1106663
1.105764,-0.1270017,0.03469388
1.243006,-0.2013556,-0.04434061
1.107099,-0.2861246,-0.09921881
1.017109,-0.2550356,0.01353689
1.157861,-0.2233375,0.071509
1.552674,-0.2913698,-0.2087813
2.014243,-0.3271847,-0.6324519
1.86657,-0.3537434,-0.8184285
1.362724,-0.4282773,-0.6088276
1.037145,-0.4608676,-0.2645554
0.6188663,-0.336934,0.02588608
0.5247685,-0.06960726,0.1253391
0.8614815,0.03390984,-0.05988922
0.9206011,-0.13065,-0.1211403
0.8009949,-0.3464194,-0.009836113
0.6777012,-0.5343943,-0.02161978
0.6539649,-0.585615,-0.06472312
0.6837994,-0.4974514,-0.2069634
0.5488703,-0.3967106,-0.3674782
0.6655094,-0.1625512,-0.2705962
0.9217975,0.1104918,-0.1637514
1.069746,0.1795789,-0.2158931
1.167842,0.2476677,-0.2721957
1.012565,0.381102,-0.2883317
0.9110824,0.3114324,-0.1899372
0.8910277,0.1091905,0.003498252
0.9043644,-0.04293566,0.01777309
1.15196,-0.1366583,-0.1701567
1.302452,-0.1603442,-0.3345468
1.368896,-0.1756081,-0.3854202
1.317797,-0.1358677,-0.2738531
1.143348,-0.08337685,-0.1706661
1.143313,-0.2491951,-0.2389752
1.048768,-0.4003668,-0.373455
0.9580912,-0.3273935,-0.5568922
1.063807,-0.2954875,-0.5878022
1.256505,-0.3280533,-0.3636018
1.594168,-0.248811,-0.2027827
1.609713,-0.0631731,-0.2015668
1.249594,0.1353183,-0.2645976
0.9653854,0.2033463,-0.2863547
0.7088101,0.09826877,-0.239637
0.5845324,-0.04545055,-0.1946854
0.5648484,-0.2030192,-0.09686694
0.4773517,-0.31927,-0.0128322
0.4513233,-0.2610143,-0.008482875
0.4536791,-0.1888273,0.03452571
0.533265,-0.1162122,0.1221657
0.6934798,0.008899423,0.1589139
0.8092979,-0.01284948,0.1080626
0.9974778,-0.07245213,0.05083122
1.186585,-0.1009787,-0.004258613
1.221249,-0.1624123,-0.1115185
1.228716,-0.1787451,-0.1575758
1.370159,-0.2206179,-0.05508527
1.607882,-0.2680999,0.01618943
1.819051,-0.3193629,-0.2071893
1.796353,-0.3842545,-0.4450171
1.288634,-0.3634473,-0.3012164
0.7117302,-0.318613,-0.09782126
0.5437326,-0.1883126,0.01206047
0.5074437,0.005392055,0.1117276
0.6098982,0.03807094,-0.0348949
0.9313751,-0.1213368,-0.2274379
0.9995402,-0.3783919,-0.2078297
0.8586563,-0.5768924,-0.09073728
0.8502644,-0.6304952,0.02648697
0.736985,-0.5317996,-0.09738172
0.5208486,-0.345854,-0.2680901
0.5116473,-0.1228172,-0.189077
0.6930231,0.1407366,-0.2310034
0.9757349,0.2354405,-0.3667856
1.116424,0.1869123,-0.3477331
1.036774,0.1866066,-0.2829383
0.9658975,0.141346,-0.132211
0.9171209,0.0430875,-0.03444267
0.9579506,-0.06375296,-0.09791445
1.086508,-0.1154201,-0.2134339
1.189069,-0.07948223,-0.4109929
1.28859,-0.07856005,-0.4589165
1.261096,-0.09508021,-0.2578586
1.161021,-0.1217463,-0.1471736
1.145548,-0.2092389,-0.2218804
1.080916,-0.2968534,-0.3345895
0.9834508,-0.336843,-0.3963108
0.9478845,-0.330701,-0.4257173
1.000147,-0.3164213,-0.4332252
1.351417,-0.2427731,-0.3645883
1.804646,-0.04532502,-0.2814021
1.716859,0.09915476,-0.2685966
1.131598,0.09216244,-0.2308386
0.6812851,0.1187506,-0.1270951
0.6442229,0.1360586,-0.1421447
0.7510352,-0.03331952,-0.1938352
0.6719211,-0.2385824,-0.1264473
0.6177022,-0.3222733,-0.1206998
0.661224,-0.2373663,-0.07219649
0.544754,-0.05269159,0.09054615
0.5572597,0.01669179,0.1252125
0.6686579,-0.006573923,0.09061981
0.6587406,-0.04718091,0.05057872
0.8190573,-0.1396432,-0.02138402
0.9983998,-0.2621332,-0.07154388
1.156875,-0.3380705,-0.1024936
1.308608,-0.3269465,-0.169539
1.201607,-0.3440272,-0.2364352
1.217919,-0.3058814,-0.05316046
1.479682,-0.2060788,0.1178983
1.737942,-0.2175371,-0.2103154
1.817114,-0.204852,-0.6064155
1.480696,-0.2979516,-0.5699164
1.00593,-0.4746609,-0.2518855
0.6255452,-0.3667828,0.02522728
0.4812779,-0.1819021,0.009490291
0.7668052,-0.06086611,-0.1435098
1.035039,-0.00906791,-0.146253
0.9835696,-0.2042898,-0.08244338
0.8124782,-0.4617341,0.05202742
0.6907518,-0.5805309,0.1934232
0.7118285,-0.5382766,-0.01045029
0.7146814,-0.4258268,-0.2943101
0.6293351,-0.3379093,-0.2600524
0.7124383,-0.1318364,-0.1827739
0.9292488,0.08236779,-0.1916897
1.056298,0.1688294,-0.2047679
1.070457,0.2619048,-0.2264425
0.9593835,0.2739825,-0.139055
0.8831615,0.2042473,-0.001095182
0.970098,0.1132544,0.002894739
1.057723,-0.04081406,-0.1253496
1.156257,-0.13743,-0.2883134
1.235823,-0.15026,-0.3346967
1.194339,-0.01202421,-0.2122115
1.173002,0.1566034,-0.08686819
1.197049,0.01456817,-0.1107882
1.201454,-0.2204329,-0.3442152
1.202125,-0.3364103,-0.6903179
1.208957,-0.4371056,-0.7874256
1.250099,-0.4589555,-0.5331509
1.338021,-0.3930146,-0.2775419
1.362709,-0.1782335,-0.1673053
1.156821,0.1768364,-0.1176179
0.8468768,0.3297104,-0.1189408
0.7250726,0.2243408,-0.1480908
0.7589508,0.04616774,-0.1887531
0.7532967,-0.177486,-0.1904766
0.7026737,-0.2574891,-0.1356178
0.6263989,-0.1703937,-0.06300268
0.5349843,-0.1831803,0.06863598
0.5730818,-0.1921154,0.139242
0.7231156,-0.1622428,0.07451165
0.8756873,-0.2405543,0.03773852
1.036576,-0.269687,0.01373136
1.118166,-0.2585875,-0.02181709
1.122591,-0.2129273,-0.01542016
1.129825,-0.09753202,-0.07431088
1.102733,-0.1292289,-0.2084246
1.084277,-0.1925552,-0.2669995
1.229446,-0.2293806,-0.2316764
1.621255,-0.3708183,-0.2921561
1.898985,-0.4527737,-0.5849908
1.594796,-0.4592374,-0.7736746
0.9574179,-0.3383426,-0.3426087
0.4308819,-0.04330897,0.2196987
0.21851,0.1515696,0.09106465
0.5309211,0.1820741,-0.1795765
0.9887492,0.02989386,-0.1762787
1.08139,-0.332736,-0.2659308
1.035193,-0.653123,-0.1060201
1.017023,-0.7824219,0.1419003
0.9779638,-0.675015,0.01127277
0.7946756,-0.3138284,-0.07843275
0.4878588,0.08131186,-0.1273332
0.5153083,0.1817095,-0.162472
0.6807063,0.03860419,-0.104474
0.7496765,0.06061898,-0.2218245
0.9540151,0.1096482,-0.2654765
0.9865863,-0.004962214,-0.1888413
0.9609395,-0.008213613,-0.1874213
1.071338,-0.03499617,-0.1697133
1.035284,-0.1021097,-0.203795
1.082091,-0.09269707,-0.2417001
1.160444,-0.122178,-0.2699904
1.146287,0.02331635,-0.2915443
1.284282,0.1922002,-0.2182444
1.343768,0.1244325,-0.1918841
1.311109,-0.06628379,-0.2351616
1.293709,-0.2904378,-0.3094009
1.112845,-0.2767583,-0.4269709
0.9820565,-0.2067999,-0.5305778
1.046147,-0.3418193,-0.5418139
1.239552,-0.3845897,-0.3826832
1.42208,-0.3262972,-0.223866
1.294526,-0.1801015,-0.1870667
1.000944,0.1133084,-0.1759531
0.8189752,0.2533935,-0.1850852
0.753563,0.1513088,-0.1971835
0.7417413,0.07486093,-0.188521
0.6587597,0.01651806,-0.1665726
0.5792329,-0.1590204,-0.128917
0.546577,-0.1810337,-0.04273484
0.4845431,-0.08531533,0.08474673
0.5708286,-0.1577439,0.1189255
0.7795695,-0.1961991,0.06767493
0.9228649,-0.2344979,0.01992619
1.057362,-0.3128829,-0.02539323
1.13194,-0.222954,-0.04818349
1.129916,-0.1865389,-0.1087547
1.15382,-0.2219401,-0.2520254
1.192456,-0.2014226,-0.3196633
1.413303,-0.2557122,-0.2373883
1.816524,-0.3359029,-0.2304893
1.91066,-0.4156128,-0.4370642
1.514266,-0.4821164,-0.565884
1.011391,-0.522135,-0.3029199
0.7484151,-0.5098093,0.009506257
0.7536881,-0.2799015,-0.08389467
0.8317554,-0.04260523,-0.2245943
0.8612712,-0.09229441,-0.1813017
0.8831367,-0.2822337,-0.1828693
0.7965113,-0.3985908,-0.08335968
0.6184189,-0.4158371,0.04576084
0.6193335,-0.4092776,-0.01071487
0.7519692,-0.3955917,-0.1987148
0.8537962,-0.3101644,-0.4202694
0.9007412,-0.1041768,-0.3182958
0.8656772,0.1072162,-0.1313871
0.8801737,0.1905369,-0.2356876
0.9377592,0.2343488,-0.1954765
0.9305697,0.257004,-0.1178715
0.9360487,0.1529015,-0.1739314
0.9605297,-0.02097067,-0.1219742
1.079676,-0.1295928,-0.1764179
1.312954,-0.1574719,-0.2374073
1.393469,-0.1365409,-0.1695599
1.283198,-0.1086538,-0.1669921
1.228406,-0.1594751,-0.183858
1.259383,-0.2644602,-0.3266582
1.189625,-0.3642893,-0.5459985
1.065948,-0.4107285,-0.5604843
1.098177,-0.4032697,-0.4374944
1.288885,-0.4010728,-0.2995124
1.435129,-0.1770289,-0.1657764
1.274595,0.2238678,-0.1183667
0.9452854,0.3093857,-0.181183
0.7838068,0.1670977,-0.221502
0.7032123,0.04838215,-0.2237346
0.6566415,-0.1879955,-0.2033157
0.6446081,-0.3865209,-0.08940155
0.5287303,-0.3539606,-0.01922626
0.465024,-0.3138743,-0.004150096
0.5245467,-0.2950404,0.04362345
0.6365695,-0.1416093,0.08042128
0.794497,-0.00375026,0.1411998
0.8384146,-0.02357738,0.1235816
0.9038368,-0.06413404,0.01860629
1.148734,-0.002991185,-0.0288201
1.236173,0.00478411,-0.04689986
1.111098,-0.1578192,-0.04259012
0.9937672,-0.315713,-0.05700681
0.9702125,-0.3736059,-0.07310178
1.382161,-0.41318,-0.1018335
1.981311,-0.4905616,-0.3591474
1.868134,-0.4523269,-0.6438615
1.329923,-0.3187688,-0.5458977
0.9232546,-0.3582299,-0.184059
0.4934872,-0.3063117,0.0516281
0.4283564,-0.0892996,-0.005135485
0.7623195,-0.07736315,-0.1652189
0.9527404,-0.205526,-0.1790235
0.9218228,-0.3933427,-0.06420714
0.7150408,-0.4978748,0.08599729
0.6148054,-0.4214655,0.1374651
0.655333,-0.3572734,-0.08429883
0.6303643,-0.218011,-0.3243047
0.6720257,-0.02461729,-0.3075274
0.7630982,0.08494437,-0.2641444
0.9681672,0.1358494,-0.3007355
1.129966,0.1136906,-0.2923777
1.043997,0.1213412,-0.2142389
0.9974689,0.1219611,-0.09539627
0.9788967,0.001717864,-0.03873236
1.014215,-0.159448,-0.1282193
1.181182,-0.3071059,-0.2579097
1.257922,-0.3178672,-0.2724082
1.224188,-0.09941461,-0.2060068
1.180829,0.09163818,-0.1224042
1.204576,-0.0561167,-0.1101281
1.201065,-0.3371095,-0.3020107
1.143968,-0.4069137,-0.5071232
1.153706,-0.3955081,-0.4878396
1.21471,-0.4188122,-0.371888
1.375996,-0.4082569,-0.2986395
1.469666,-0.2981081,-0.2091466
1.327686,-0.06393125,-0.159269
1.092322,0.08102473,-0.1830517
0.8138057,0.107341,-0.1551115
0.6415456,0.1039032,-0.1485387
0.6256275,-0.004536075,-0.1386709
0.5883232,-0.1329861,-0.06943725
0.55911,-0.2251887,-0.08601342
0.5608099,-0.240533,-0.06234953
0.5774634,-0.1693772,0.02971859
0.6513251,-0.1208303,0.07562695
0.7481099,-0.08683798,0.1290938
0.8877594,-0.1185497,0.1101202
1.059235,-0.1745273,0.03072216
1.176212,-0.1937428,-0.06074576
1.240445,-0.2779112,-0.196886
1.285081,-0.3216949,-0.2175341
1.394051,-0.2564522,-0.02543684
1.589893,-0.1973033,0.0995449
1.712437,-0.208716,-0.2094734
1.643852,-0.2698482,-0.5488147
1.343601,-0.3370492,-0.3549679
0.9141578,-0.3961559,-0.1001898
0.6552293,-0.3322769,-0.08902211
0.6987218,-0.170679,-0.1055975
0.898156,-0.09896653,-0.2009816
1.012755,-0.1853272,-0.1285268
0.8502099,-0.414995,0.1023797
0.6043237,-0.5680552,0.179256
0.6184454,-0.5181066,0.1756471
0.6718854,-0.4182075,-0.117698
0.5965846,-0.3241422,-0.4436998
0.6603346,-0.2004587,-0.3089916
0.8158177,-0.00905068,-0.2073125
0.980665,0.1475728,-0.2696323
1.080384,0.1753986,-0.2194563
1.009695,0.2179878,-0.2052607
0.9562739,0.2448449,-0.1597412
0.8662473,0.1509647,-0.03288262
0.8420705,0.05725858,-0.03723082
1.053652,-0.07344751,-0.1614262
1.223959,-0.3129778,-0.2637305
1.309059,-0.3554708,-0.2748093
1.244787,-0.08833129,-0.1556669
1.131732,0.1096884,-0.04453091
1.193851,0.0520935,-0.068901
1.164685,-0.1583822,-0.1841374
1.102905,-0.3909664,-0.4068378
1.099242,-0.4554531,-0.5755113
1.097081,-0.3435382,-0.4747563
1.261543,-0.2571765,-0.2681214
1.372097,-0.218182,-0.1614759
1.321621,-0.1005223,-0.1723358
1.242489,0.07583054,-0.2141653
1.058097,0.1948573,-0.2016533
0.7951105,0.1841794,-0.2356332
0.6355808,0.08793293,-0.2967805
0.6698268,-0.05122618,-0.186395
0.7016694,-0.2391129,-0.02828709
0.7113475,-0.3491724,0.02600375
0.7743707,-0.3586318,0.01957231
0.7769595,-0.3249393,0.006554943
0.7969488,-0.2324006,0.08383915
0.7929342,-0.1495875,0.1280758
0.7800613,-0.04314145,0.1135884
0.8701631,0.01354959,0.1309142
0.9938175,-0.09484741,0.01159101
1.177202,-0.2538233,-0.1894385
1.255137,-0.4405741,-0.2520003
1.345732,-0.4692595,-0.03981759
1.683742,-0.3163991,0.1369363
1.822233,-0.2676747,-0.2361524
1.642142,-0.2224431,-0.5997764
1.350566,-0.2423916,-0.3967941
0.9274107,-0.3501477,-0.1141211
0.6399807,-0.2592425,0.000873572
0.6897386,-0.1550212,-0.04731268
0.8677979,-0.1284548,-0.2388256
0.9617594,-0.1959912,-0.2212719
0.8531143,-0.4440848,-0.02115522
0.6815827,-0.521232,0.1203332
0.7241437,-0.4457236,0.1346192
0.7529101,-0.3646128,-0.134365
0.6467656,-0.1348959,-0.3459311
0.67653,0.07154087,-0.2113371
0.750465,0.161311,-0.1415658
0.8771244,0.1678375,-0.1995632
1.020361,0.1306374,-0.1645971
0.981875,0.1433338,-0.07975191
0.9933718,0.09546287,-0.03138357
1.042074,-0.01797304,-0.0502009
1.049697,-0.1256714,-0.1325387
1.153915,-0.2127054,-0.2365737
1.251871,-0.2014254,-0.2484501
1.282008,-0.0762852,-0.1994518
1.224839,0.04794712,-0.1718351
1.184985,-0.09831109,-0.1813823
1.220886,-0.4404937,-0.3028566
1.176066,-0.5602043,-0.4405018
1.104303,-0.4038879,-0.4478919
1.077593,-0.2247235,-0.385633
1.19695,-0.1944081,-0.3344614
1.4581,-0.1100976,-0.2440822
1.518251,0.07375584,-0.1926755
1.260635,0.08401396,-0.2522909
0.8977267,0.1218844,-0.2410155
0.6858562,0.1627829,-0.213347
0.6267364,-0.02163389,-0.1910069
0.5698756,-0.1733567,-0.06022289
0.5350258,-0.2739688,0.01452644
0.5161775,-0.2916893,0.06646768
0.5781924,-0.1786352,0.1266399
0.7243106,-0.1220189,0.1053252
0.8175616,-0.07118172,0.1059525
0.9171748,-0.07168253,0.08824829
0.9949268,-0.06565912,0.02728913
1.043376,-0.01554565,-0.05545269
1.129078,-0.1585419,-0.1846781
1.179515,-0.3286934,-0.1713377
1.296158,-0.3578673,0.1096879
1.454244,-0.3286421,0.2806939
1.580834,-0.2978809,-0.2081541
1.768394,-0.3012506,-0.8480232
1.669732,-0.2875697,-0.7359228
1.100939,-0.2892439,-0.3419166
0.5428173,-0.2630679,-0.137273
0.4035323,-0.1955609,0.03783919
0.6403765,-0.1680101,-0.1057761
0.8513418,-0.1105974,-0.311611
0.9503259,-0.1492571,-0.2275409
0.9955646,-0.3790346,-0.1119983
0.890612,-0.6123147,0.06816633
0.9145925,-0.6513861,0.04695415
0.8513108,-0.4373023,-0.1350882
0.5407171,-0.1981552,-0.07179824
0.5440597,-0.02861933,-0.1039924
0.7103543,0.139685,-0.1538047
0.8525728,0.2132189,-0.1417958
0.9692806,0.181023,-0.2329414
0.9700307,0.1140644,-0.1427966
1.057319,0.09135021,-0.08514985
1.022749,0.04420892,-0.1057492
0.9811432,-0.08618723,-0.07906169
1.067147,-0.1419913,-0.1843025
1.06164,-0.1526902,-0.2301007
1.225056,-0.1062781,-0.2390574
1.34059,0.005110554,-0.2169187
1.293991,-0.03090066,-0.1404895
1.350554,-0.2319519,-0.2354237
1.27851,-0.4697094,-0.3605233
1.096673,-0.492177,-0.484624
0.9891652,-0.3677846,-0.5319253
1.063414,-0.3828177,-0.3499198
1.275512,-0.3173234,-0.2063749
1.35196,-0.1651806,-0.193815
1.208303,0.01776327,-0.2233608
0.9431765,0.2944691,-0.228042
0.8624026,0.2387249,-0.211183
0.8753154,-0.008153789,-0.2194884
0.7200706,-0.1037281,-0.1398027
0.66439,-0.2729618,-0.04913034
0.6420433,-0.2854705,-0.03007168
0.5424738,-0.1732708,0.02187694
0.5841034,-0.2275369,0.08152172
0.6696717,-0.1404416,0.09088718
0.7674491,-0.08925677,0.04317279
0.9103736,-0.1919682,0.003749007
0.994648,-0.1477832,0.009178353
1.078264,-0.1483456,-0.01114572
1.132633,-0.1616981,-0.1015262
1.070697,-0.1494318,-0.1902716
1.102346,-0.2195418,-0.1300141
1.453727,-0.1945468,-0.07278041
1.902124,-0.1926174,-0.2394423
1.937994,-0.2130544,-0.4399012
1.507173,-0.1975971,-0.453631
1.053978,-0.3210376,-0.2369643
0.792359,-0.4142426,0.006457999
0.7105107,-0.3386185,-0.04159896
0.7324907,-0.1979078,-0.2162736
0.7825958,-0.1382648,-0.2559404
0.8861581,-0.2383509,-0.1888382
0.832617,-0.4119726,0.0225909
0.718092,-0.5273411,0.1737215
0.7945154,-0.463742,-0.02311267
0.7598696,-0.3525911,-0.320487
0.687702,-0.2803772,-0.3952296
0.7395755,-0.1289366,-0.2778998
0.7965042,0.02245072,-0.190199
0.9880284,0.1476396,-0.2256344
1.087782,0.2127783,-0.2320311
0.976569,0.1469841,-0.1677762
0.9074601,0.07295751,-0.0921057
0.8721803,-0.03792226,-0.01558857
0.9258942,-0.154958,-0.04239945
1.06084,-0.1420778,-0.1763778
1.182239,-0.1289231,-0.2999898
1.294174,-0.1407682,-0.3513572
1.305001,-0.1311123,-0.2732731
1.289276,-0.2158565,-0.1917693
1.294097,-0.406076,-0.2304883
1.149778,-0.5606325,-0.2961403
0.9865802,-0.5308272,-0.3645204
1.0309,-0.4588194,-0.3459235
1.202049,-0.4425222,-0.2513557
1.363883,-0.2075308,-0.2323971
1.360706,0.1485408,-0.1699241
1.12479,0.3694373,-0.08613572
0.8383848,0.4388393,-0.08466158
0.6613234,0.2473385,-0.0911335
0.6246293,-0.03112953,-0.1129083
0.6291881,-0.2129842,-0.09989805
0.6430157,-0.3739811,-0.05188354
0.7380392,-0.4157637,0.003291834
0.8302015,-0.3803247,0.07418271
0.9177118,-0.3543057,0.08878781
0.9563595,-0.265904,0.1083684
0.8664856,-0.1610302,0.136303
0.8511121,-0.09570044,0.1215701
0.9005562,-0.0730472,0.05757926
0.9066189,-0.06196727,-0.1019614
0.9320442,-0.108833,-0.1867442
1.03409,-0.241819,-0.1408248
1.448941,-0.3794698,-0.2426386
1.976606,-0.6139532,-0.6832992
1.881249,-0.7837608,-1.036971
1.069411,-0.5224788,-0.5441902
0.166504,-0.1572556,0.1714933
-0.2352805,-0.1017273,0.07595401
-0.04161149,-0.1712104,-0.09249585
0.4964591,-0.3603468,-0.008566387
1.187976,-0.6658293,-0.2955289
1.468992,-0.6749419,-0.4949718
1.180415,-0.5163572,-0.5453475
1.144775,-0.5196159,-0.745238
1.085187,-0.445159,-0.5604221
0.6943712,-0.2832616,-0.3108311
0.8017186,-0.1715914,-0.5030982
0.9531494,-0.02604149,-0.5992976
1.027796,-0.300046,-0.1449308
0.8350376,-0.3559249,-0.08225481
0.563637,-0.3849272,0.005890233
0.6971271,-0.3494226,-0.08230549
0.6895145,-0.2837574,-0.2846
0.6485495,-0.2979984,-0.3039281
0.7723341,-0.224394,-0.2827036
0.8383836,-0.09138215,-0.2826022
1.005054,0.05684455,-0.269981
1.064897,0.240165,-0.2538184
0.9493749,0.2864235,-0.142752
0.96192,0.2113406,-0.07494235
0.9780546,0.08159344,-0.086201
1.004105,-0.09428814,-0.1370392
1.11777,-0.1859139,-0.2417378
1.235522,-0.1587492,-0.2968526
1.297626,-0.09566546,-0.3220975
1.239948,-0.08333964,-0.3077326
1.184333,-0.2419592,-0.3096737
1.128525,-0.45653,-0.4465249
1.035534,-0.4238388,-0.6047666
1.062201,-0.3516273,-0.6502098
1.20405,-0.4482977,-0.5460547
1.417582,-0.438789,-0.3874304
1.519218,-0.3518878,-0.2581897
1.296761,-0.1170097,-0.1929989
0.9829703,0.3221162,-0.1798561
0.8332754,0.4056748,-0.1599802
0.8314999,0.1854826,-0.2494992
0.8195913,0.06773681,-0.3238146
0.7446249,-0.1036747,-0.2492558
0.7088886,-0.2449665,-0.1981174
0.5733669,-0.234971,-0.09040406
0.4040161,-0.2568042,0.03571158
0.4381718,-0.2293336,0.09516533
0.4956122,-0.1307971,0.1645239
0.5995322,-0.1151162,0.1143906
0.805973,-0.1309944,0.01783541
0.9827005,-0.182923,-0.05700083
1.260504,-0.354861,-0.1898976
1.484582,-0.5416729,-0.3020246
1.491394,-0.5329228,-0.3318749
1.542529,-0.3753643,-0.1930449
1.632308,-0.2964097,-0.1276979
1.599854,-0.2487993,-0.4459543
1.506351,-0.2748336,-0.6779695
1.2581,-0.4539211,-0.3644917
0.841424,-0.5107879,-0.04879917
0.6968195,-0.3129387,-0.2231193
0.762092,-0.03408701,-0.3341423
0.7631177,-0.0340933,-0.2170373
0.8871065,-0.2985004,-0.1930924
0.8301145,-0.4759881,0.03042286
0.6648724,-0.5651278,0.1681022
0.8036202,-0.4437735,-0.1127907
0.7713307,-0.2160482,-0.2371977
0.5632288,-0.1185417,-0.1291901
0.4942166,0.07133148,-0.06485082
0.5652964,0.1848994,-0.09308006
0.8076191,0.1530976,-0.1458486
0.9200914,0.1597867,-0.1394819
0.9964211,0.1245397,-0.1590657
1.076051,0.131638,-0.1425803
0.9658267,0.1258538,-0.1635911
1.026121,0.08308059,-0.2741207
1.181629,0.04601428,-0.3304089
1.341361,-0.0495228,-0.3765322
1.500302,-0.09108001,-0.321141
1.373961,-0.2480089,-0.2553061
1.271528,-0.5458003,-0.3029557
1.204116,-0.6086518,-0.3391192
1.084733,-0.4718007,-0.4465836
1.189325,-0.3990753,-0.5095572
1.336889,-0.3652738,-0.4606178
1.474723,-0.2166597,-0.4265178
1.413308,0.03672135,-0.2495012
1.051054,0.2926224,-0.02569278
0.834904,0.2910175,-0.0685707
0.7445318,-0.01612028,-0.2381019
0.7147233,-0.237516,-0.2598758
0.6526115,-0.3459626,-0.2164572
0.443158,-0.3576409,-0.1474088
0.3888374,-0.2402299,-0.01688991
0.3893206,-0.2198966,0.07979824
0.4627189,-0.1439545,0.1992311
0.7000459,-0.03980822,0.2287344
0.8226566,-0.04175422,0.07746717
0.9902085,-0.009324711,-0.04201474
1.190424,-0.09976312,-0.1028659
1.273843,-0.263759,-0.1239009
1.368588,-0.3679619,-0.1077871
1.488774,-0.3830524,0.007251801
1.707368,-0.3049976,0.09966078
1.796105,-0.339351,-0.2876464
1.61853,-0.3294412,-0.7951544
1.463248,-0.3038638,-0.7827584
1.26975,-0.3826365,-0.5634245
0.8787823,-0.3186748,-0.2859554
0.4279754,-0.2580668,0.1136312
0.3927186,-0.2253469,0.06664725
0.8243556,-0.2058345,-0.1835688
0.988733,-0.3086974,-0.03569642
0.8462276,-0.3350271,-0.03850688
0.737143,-0.4096299,-0.07854783
0.6084768,-0.5158878,0.08243462
0.6236742,-0.4315403,-0.1431633
0.6437435,-0.3066368,-0.3442721
0.5512941,-0.1574739,-0.2968885
0.6358287,0.02011683,-0.2811324
0.8258828,0.1523885,-0.1850283
1.023824,0.2352508,-0.2269283
1.100968,0.2715191,-0.2257115
0.9627864,0.2671418,-0.07540188
0.9236233,0.1093825,-0.04804432
1.038344,-0.1286712,-0.08550843
1.192157,-0.246068,-0.2187729
1.364935,-0.2168038,-0.2516644
1.385779,-0.02566479,-0.1911054
1.274085,0.1355109,-0.2160514
1.19122,-0.06250386,-0.1990888
1.106014,-0.3743558,-0.3111401
1.001029,-0.3791069,-0.4856405
1.002108,-0.3420147,-0.506869
1.265913,-0.4041839,-0.4431513
1.67018,-0.335161,-0.3311355
1.741076,-0.2212509,-0.2777577
1.383188,-0.05395186,-0.2808144
0.9859533,0.08142203,-0.2705963
0.7136937,0.04233164,-0.2133171
0.5478921,0.008381292,-0.1357384
0.4744864,-0.07534898,-0.09096319
0.3944259,-0.1412843,-0.01484528
0.2990903,-0.1156854,0.04991917
0.3326003,-0.1701305,0.1431571
0.5322125,-0.1311432,0.2171344
0.7329851,-0.06456186,0.110283
0.9214809,-0.1437746,-0.01196647
1.163968,-0.1825275,-0.09234067
1.307188,-0.207124,-0.1578306
1.285416,-0.2810242,-0.193759
1.214186,-0.3318273,-0.2806864
1.253208,-0.3211979,-0.332841
1.54874,-0.2925592,-0.3208252
1.886355,-0.3073765,-0.3575869
1.8433,-0.2887437,-0.4546611
1.583257,-0.2946169,-0.5573491
1.337069,-0.3922231,-0.6031753
0.8971365,-0.4692933,-0.4067653
0.662155,-0.4544584,-0.06140693
0.7818609,-0.2818198,-0.07281537
0.7809333,-0.108825,-0.2476938
0.8621246,-0.168093,-0.1920334
0.8642559,-0.3466906,-0.09836432
0.6796015,-0.4839962,0.05927958
0.7388309,-0.4975269,0.09582207
0.7199694,-0.3674475,-0.15219
0.6408225,-0.1981638,-0.2795587
0.6575367,-0.007964351,-0.2445087
0.6156488,0.1742954,-0.1801279
0.731063,0.2079933,-0.160913
0.8826984,0.1075429,-0.2222502
1.045399,0.03569699,-0.2256835
1.138024,0.05170506,-0.206211
1.047273,0.02802738,-0.1718798
1.119864,-0.1062833,-0.1872797
1.176587,-0.2085284,-0.2778575
1.231337,-0.1741356,-0.3012654
1.358347,0.02674194,-0.2898841
1.261821,0.2180757,-0.1989004
1.240718,0.05506954,-0.1404451
1.240713,-0.2680549,-0.2667274
1.075508,-0.4003925,-0.3988134
0.9950989,-0.4257565,-0.44066
1.02368,-0.3805617,-0.4036679
1.294092,-0.2839143,-0.3734725
1.611854,-0.1576539,-0.30357
1.557792,-0.02388755,-0.164588
1.243295,-0.04295722,-0.1384617
0.8827815,-0.06266203,-0.139612
0.6265729,-0.03141715,-0.1337348
0.4940041,-0.1181257,-0.1544789
0.379344,-0.1441012,-0.09337976
0.3298313,-0.1165067,-0.01733696
0.3898648,-0.1300933,0.07854641
0.4689129,-0.09974223,0.1981194
0.6154381,-0.1097525,0.1926694
0.8853319,-0.1449863,0.07612714
1.073817,-0.1618928,-0.001992042
1.182043,-0.1642788,-0.02767483
1.264241,-0.1507855,-0.1270387
1.204559,-0.2126904,-0.2032096
1.216674,-0.2705385,-0.09846285
1.497189,-0.2812894,-0.03417905
1.849007,-0.3518456,-0.2294581
1.891716,-0.4960166,-0.5003416
1.459403,-0.6090458,-0.5327158
0.8736248,-0.5231793,-0.2241679
0.5109847,-0.3397643,0.06974691
0.5344175,-0.250305,-0.03731808
0.7951685,-0.1927185,-0.1676792
0.9340437,-0.136109,-0.07994875
0.8816772,-0.1830661,-0.1218202
0.8075395,-0.4116883,-0.1493166
0.8130708,-0.615968,-0.1254372
0.7919979,-0.5341762,-0.2202537
0.6627628,-0.3122863,-0.1801178
0.5507061,-0.01141818,-0.1334263
0.5599568,0.2927479,-0.1745665
0.7689517,0.2138718,-0.1743759
1.014152,0.06750004,-0.2453957
1.054782,0.1940095,-0.2080396
0.9893419,0.1387288,-0.05743944
0.9569256,0.01801791,0.004106804
0.9839456,-0.01237662,-0.02233529
1.001051,-0.1722868,-0.1476852
1.094679,-0.1838864,-0.2134445
1.338133,-0.133549,-0.2459106
1.441436,-0.1025426,-0.2821215
1.37658,-0.001418044,-0.2331745
1.317279,-0.1738214,-0.2858063
1.234643,-0.3373226,-0.3641989
1.102455,-0.2722026,-0.4153952
1.017394,-0.3285543,-0.4842337
1.141436,-0.4334568,-0.3829421
1.383532,-0.4093642,-0.2373978
1.477871,-0.2513257,-0.162392
1.254716,-0.0746368,-0.1694345
0.889793,0.01884239,-0.2352879
0.736813,0.03935204,-0.1862107
0.6627348,0.01967914,-0.1452317
0.5381564,-0.005716003,-0.1090281
0.4924081,-0.08583353,-0.02006032
0.4731525,-0.1336805,0.007097747
0.5061932,-0.09888714,0.08983557
0.6109587,-0.08336363,0.1352688
0.7837828,-0.1074305,0.08113846
0.9880513,-0.156355,0.04238702
1.074781,-0.1797727,-0.0521712
1.181997,-0.2096259,-0.1159888
1.295677,-0.2699469,-0.1853997
1.29814,-0.3318819,-0.2705688
1.407358,-0.379719,-0.1167371
1.620581,-0.3768722,0.04518301
1.767994,-0.3822096,-0.1014987
1.619057,-0.3972297,-0.3475488
1.176691,-0.4365334,-0.4232764
0.8975044,-0.4817968,-0.2112016
0.841891,-0.3935482,0.02990516
0.8650369,-0.2477256,-0.1409749
0.8771775,-0.1690506,-0.3100864
0.7376689,-0.2178808,-0.07040607
0.5838685,-0.3460731,0.07339953
0.5192044,-0.3954414,0.07594189
0.6585809,-0.3623163,0.01824559
0.8496128,-0.2498778,-0.2986585
0.7418305,-0.07893494,-0.455006
0.6129266,0.1031632,-0.285294
0.5944699,0.2080073,-0.1479685
0.6745515,0.1154391,-0.1953749
0.93972,0.01140582,-0.2321263
1.019032,-0.009320025,-0.1548738
1.006736,-0.03518502,-0.2103814
1.186075,-0.03971847,-0.2515811
1.274857,-0.07816425,-0.2308025
1.225571,-0.05593208,-0.2755373
1.208606,0.0844711,-0.1860463
1.233903,0.1419253,-0.158091
1.227417,0.006219768,-0.2153681
1.217037,-0.2920135,-0.2541851
1.221272,-0.4799919,-0.3952692
1.105019,-0.4589503,-0.458599
1.016487,-0.4424429,-0.5101736
1.177382,-0.4188562,-0.5281049
1.492241,-0.3314257,-0.3754009
1.651338,-0.1853495,-0.2534775
1.399223,-0.07448863,-0.1600211
0.9934833,-0.05756422,-0.09106598
0.7368521,-0.004529662,-0.06272939
0.5321491,-0.03007556,-0.05263358
0.4009464,-0.130411,-0.05700962
0.4194419,-0.1237485,0.01108493
0.4376293,-0.1380765,0.02392296
0.4430246,-0.1509677,0.02122932
0.5489614,-0.08391676,0.1073637
0.6639171,-0.04763487,0.1405302
0.7509748,-0.03302475,0.14018
0.894151,-0.05466955,0.06000924
1.091807,-0.1248654,-0.1016455
1.318323,-0.2209498,-0.1950161
1.422296,-0.3744507,-0.2570508
1.398745,-0.4800263,-0.2800624
1.561579,-0.4972202,-0.2423746
1.874727,-0.5111865,-0.2706918
1.90315,-0.4900837,-0.4948192
1.493744,-0.4472919,-0.6587205
0.9218837,-0.4230856,-0.2932074
0.5470653,-0.3335656,0.1027533
0.5283168,-0.1570867,-0.1342913
0.7639573,-0.03750993,-0.3363351
0.9736015,-0.06223316,-0.1761827
0.9201775,-0.1854624,-0.1567124
0.7370852,-0.4008805,-0.02712309
0.6859874,-0.5459923,0.158442
0.7247851,-0.4373652,-0.05669861
0.7432868,-0.282642,-0.247727
0.6464693,-0.1385034,-0.2450954
0.5337791,0.1080053,-0.2092746
0.671496,0.2039996,-0.1250143
0.8626646,0.121204,-0.1718551
0.9499475,0.09254469,-0.1914505
1.048512,0.05308985,-0.1052658
1.104338,-0.007036544,-0.1118854
1.151261,-0.05739287,-0.1657815
1.18199,-0.1703459,-0.2417907
1.221995,-0.1934994,-0.2354032
1.299242,-0.0258618,-0.1771852
1.262108,0.09913674,-0.2040253
1.236561,-0.06102916,-0.2275395
1.242631,-0.3564667,-0.3231062
1.1315,-0.4775162,-0.4532288
1.053874,-0.4713347,-0.4626759
1.133629,-0.4528482,-0.427827
1.392556,-0.3876764,-0.3260038
1.60376,-0.2395155,-0.1809011
1.409541,-0.02698698,-0.1454215
1.032146,0.06558209,-0.182761
0.8208651,0.0422453,-0.1765699
0.6459744,0.004352722,-0.1616196
0.4887015,-0.1178027,-0.1636222
0.4495226,-0.1961827,-0.06610955
0.4068657,-0.1811499,0.0673735
0.4037811,-0.163378,0.1027735
0.4931532,-0.1054576,0.101974
0.6672786,-0.07422009,0.0872772
0.9303789,-0.07856881,0.02400357
1.054247,-0.0895227,-0.0527967
1.127229,-0.1383405,-0.07127408
1.277712,-0.1819861,-0.06584444
1.266515,-0.2717432,-0.07833089
1.255996,-0.3581189,-0.02846618
1.497576,-0.353225,-0.01628377
1.829374,-0.4167547,-0.1775637
1.912646,-0.5106927,-0.329153
1.517546,-0.4852603,-0.2675901
0.9682526,-0.4764185,-0.1337322
0.7876708,-0.4592113,-0.1114396
0.9213543,-0.2349277,-0.1341846
0.9697343,-0.0212902,-0.2206974
0.928435,-0.08442345,-0.3127765
0.9148301,-0.2103886,-0.2056444
0.7043224,-0.345292,0.01960952
0.4688039,-0.5837099,0.1762972
0.5769839,-0.5360503,0.0494765
0.6757505,-0.2692786,-0.2875058
0.5748886,-0.215368,-0.3934155
0.577563,-0.0581663,-0.2322479
0.621774,0.2190948,-0.09565918
0.7325857,0.2629697,-0.1696632
0.9967733,0.2015044,-0.2422605
1.045937,0.1484763,-0.1081928
0.9566338,0.1462353,-0.06079233
1.046619,0.06011873,-0.08288941
1.127678,-0.1166487,-0.1251717
1.204083,-0.1798607,-0.2870631
1.319446,-0.2112686,-0.2832249
1.295739,-0.07326596,-0.1838686
1.257218,0.07543767,-0.1694228
1.251956,-0.1238096,-0.2336325
1.15789,-0.3265317,-0.4098846
1.042728,-0.3739314,-0.498045
0.9913009,-0.4181549,-0.5395276
1.119813,-0.4178183,-0.5623789
1.46809,-0.3405266,-0.3986756
1.685389,-0.2206538,-0.2035909
1.445741,-0.08275033,-0.1009026
1.028661,0.05077291,-0.09377457
0.7930549,0.117164,-0.136059
0.6304016,0.1200195,-0.1749814
0.5070068,0.01976431,-0.1965404
0.4635191,-0.1093174,-0.1273204
0.3926381,-0.126959,-0.01777116
0.4144307,-0.1388413,0.1362576
0.5261709,-0.1143805,0.2582661
0.6486829,-0.0543762,0.1502479
0.9078987,-0.06893042,-0.001768828
1.113828,-0.09778859,-0.03313504
1.167788,-0.1487023,-0.04701689
1.202616,-0.2245049,-0.06577709
1.164116,-0.3386705,-0.09802494
1.21701,-0.4308735,-0.134567
1.525444,-0.3660409,-0.1375343
1.884373,-0.3245609,-0.2533393
1.920473,-0.4102899,-0.5965955
1.574273,-0.4465224,-0.8075762
1.208437,-0.4012445,-0.5024299
0.8094264,-0.3219894,-0.05456551
0.5038212,-0.2057769,-0.008921954
0.7080452,-0.1309893,-0.1957344
0.9569594,-0.1463537,-0.265227
0.8998291,-0.2247793,-0.1590051
0.8230976,-0.3937556,0.03324535
0.7394146,-0.528626,0.07473353
0.7325183,-0.4750893,-0.06713155
0.7486604,-0.3458778,-0.2114266
0.5645942,-0.17132,-0.2206153
0.4779303,0.06955341,-0.09232399
0.6432443,0.2046503,-0.05957008
0.8598248,0.2019013,-0.1651712
1.032898,0.1760978,-0.2377283
1.053422,0.1539764,-0.1679948
1.010699,0.09387729,-0.04866568
1.043114,-0.03390798,-0.09424536
1.091585,-0.130071,-0.175898
1.201248,-0.1262802,-0.2366218
1.31299,-0.09137431,-0.2801869
1.276323,-0.06617104,-0.1711095
1.23099,-0.1177578,-0.1487834
1.281927,-0.3056187,-0.299358
1.254577,-0.5056043,-0.4699545
1.111202,-0.5093237,-0.5802098
1.03412,-0.3897743,-0.5387554
1.171973,-0.353384,-0.417772
1.463043,-0.2533627,-0.224781
1.551564,-0.06721944,-0.1332875
1.333357,0.01028259,-0.2373495
1.009663,0.08664577,-0.2381046
0.7067756,0.1474667,-0.2209721
0.5895391,0.03555972,-0.2338385
0.5149518,-0.1680387,-0.1118672
0.40192,-0.2851049,0.004896086
0.4562069,-0.2506707,0.0703641
0.4810709,-0.1980788,0.1211
0.5277465,-0.130134,0.1403086
0.7598609,-0.0195934,0.1046369
0.8919306,-0.009215279,0.01445759
1.017909,-0.04831388,-0.03518111
1.205814,-0.05486947,-0.03741782
1.229251,-0.1047359,-0.03136986
1.183756,-0.2578373,-0.08878452
1.113076,-0.4136996,-0.1611089
1.136844,-0.4051078,-0.1706287
1.576309,-0.429674,-0.3915516
2.045333,-0.6013142,-0.8106206
1.849541,-0.5791952,-0.9258854
1.259354,-0.4171788,-0.5692837
0.6959569,-0.288344,-0.09812296
0.2809687,-0.1088794,0.0724922
0.5632881,-0.131215,-0.104395
1.036594,-0.2172231,-0.264303
0.9358309,-0.1509166,-0.1613294
0.8309105,-0.3424947,-0.04764237
0.7045035,-0.5430399,-0.01096069
0.6525071,-0.4451623,-0.01170088
0.812336,-0.3336245,-0.2393317
0.5912657,-0.164082,-0.3925555
0.5358902,0.01574001,-0.2567229
0.6948597,0.1281576,-0.1515831
0.736106,0.2230342,-0.1554683
0.9850642,0.1582359,-0.1787623
1.01344,0.05868841,-0.1450807
0.986596,0.05248294,-0.1076779
1.066713,-0.02869382,-0.1140541
1.016984,-0.1905537,-0.1568274
1.192294,-0.2396641,-0.2788301
1.371295,-0.1209665,-0.3061317
1.434339,0.009906255,-0.2737454
1.42722,1.071444e-05,-0.2539949
1.30689,-0.160286,-0.2063901
1.303717,-0.3460841,-0.3924046
1.217222,-0.4477406,-0.6821449
1.121664,-0.5181703,-0.7091487
1.162183,-0.6147244,-0.5083857
1.180141,-0.5501244,-0.2597522
1.193319,-0.2579192,-0.1216307
1.012416,0.03794668,-0.08038072
0.7377433,0.2250572,-0.07644055
0.6384779,0.2094328,-0.1425703
0.6331722,0.08517002,-0.2509395
0.6540186,0.007693905,-0.2662155
0.6575768,-0.1340785,-0.1083329
0.6483741,-0.1921727,0.0650281
0.6168637,-0.1371074,0.1299935
0.5920651,-0.1151778,0.1797115
0.6210885,-0.02960659,0.254101
0.678338,0.01106344,0.2222201
0.8446944,-0.01514127,0.05407257
1.117706,-0.09466645,-0.1403375
1.388984,-0.3294836,-0.3034746
1.492908,-0.4959613,-0.299379
1.457832,-0.5059633,-0.118256
1.627185,-0.5201292,-0.01212935
1.886049,-0.5665188,-0.1851312
1.838091,-0.5565575,-0.5769509
1.484909,-0.460357,-0.7033989
0.9743757,-0.3264063,-0.3189479
0.5771382,-0.1195822,0.01324021
0.5905995,0.06796786,-0.1546268
0.8655992,0.09148509,-0.3193909
1.003973,-0.04748312,-0.163277
0.8103201,-0.3015214,-0.1624392
0.5944394,-0.518178,-0.09882469
0.7370531,-0.5752773,0.09961174
0.81752,-0.4538972,-0.203699
0.6189466,-0.2510216,-0.4389969
0.5850949,-0.05769416,-0.1576085
0.6520761,0.1201876,-0.01641993
0.7840632,0.1394941,-0.1465674
1.016966,0.0795205,-0.2037124
1.031752,0.09955826,-0.1107335
0.9567342,0.04570222,-0.09178069
0.9780771,-0.06633432,-0.1234492
1.059067,-0.1532092,-0.1596959
1.248498,-0.2184102,-0.3114478
1.388461,-0.2029154,-0.3353767
1.330741,-0.1465802,-0.2610832
1.263804,-0.1363163,-0.2439234
1.310651,-0.306976,-0.2384278
1.25604,-0.534397,-0.3783861
1.151022,-0.5081972,-0.5451579
1.170763,-0.4439763,-0.5299317
1.195592,-0.4885212,-0.3794577
1.241795,-0.3478614,-0.2348617
1.244862,-0.05760744,-0.1700316
1.165709,0.1436571,-0.1251846
1.031982,0.1860032,-0.1169301
0.758011,0.1618912,-0.1301129
0.6743955,0.06652465,-0.1560128
0.7631242,-0.1783921,-0.2172938
0.6887564,-0.2172329,-0.1946776
0.6709883,-0.1290872,-0.08698174
0.662213,-0.2442194,0.02309036
0.5799451,-0.1606537,0.1046809
0.6497431,-0.04312139,0.1458869
0.73309,-0.1177391,0.1808091
0.7794749,-0.04738526,0.1460938
0.8972001,-0.02740586,0.03533491
1.051021,-0.06263992,-0.05898273
1.246477,-0.1648375,-0.1956763
1.348986,-0.4043301,-0.2714693
1.372385,-0.392375,-0.0747706
1.585902,-0.3267388,0.05939995
1.822249,-0.3673499,-0.2761777
1.739058,-0.3275196,-0.6393062
1.371475,-0.3543608,-0.4983014
0.9006194,-0.4103891,-0.1854193
0.636402,-0.3945465,-0.05708434
0.7197594,-0.2808463,-0.1012879
0.8387988,-0.1177553,-0.2551948
0.8693187,-0.1388814,-0.2269402
0.7803084,-0.3054826,-0.06866427
0.6181971,-0.4302122,2.373311e-05
0.7462881,-0.4552299,-0.002488531
0.8682252,-0.3634698,-0.2466445
0.6782277,-0.2448414,-0.4247709
0.5879946,-0.1611143,-0.2385918
0.5909538,-0.08091306,-0.1161288
0.6522448,0.01788874,-0.181562
0.8747644,0.1427221,-0.2149821
0.9977874,0.1490764,-0.1564693
0.9760907,0.07173472,-0.1039984
0.9675666,0.09220306,-0.05778982
1.061852,-0.009947414,-0.0731285
1.151615,-0.1828358,-0.2326939
1.189143,-0.1810452,-0.2616494
1.280751,-0.1612837,-0.2177949
1.282827,-0.03874916,-0.1961391
1.247518,0.09482355,-0.111923
1.260629,-0.1160733,-0.2111387
1.219157,-0.412538,-0.4220476
1.202925,-0.5097453,-0.6280187
1.198522,-0.5617124,-0.7121272
1.293844,-0.6214042,-0.4874354
1.46805,-0.4935575,-0.268734
1.394363,-0.193183,-0.1561022
1.111232,0.0501376,-0.05334249
0.7990078,0.1615197,-0.02714452
0.5971322,0.1425174,-0.04648361
0.5377054,0.08328174,-0.08357132
0.4896269,-0.01121993,-0.0562537
0.5450751,-0.1858528,-0.0119274
0.6213842,-0.2623275,0.004601736
0.6461621,-0.2469627,0.04838133
0.7785915,-0.2059381,0.0616016
0.8173109,-0.1008593,0.1178879
0.7902528,-0.05798811,0.1644946
0.8894757,-0.07316932,0.06245769
0.9681046,-0.07544963,-0.05251907
1.068617,-0.1392415,-0.1106963
1.133503,-0.2734711,-0.1914424
1.148241,-0.385365,-0.1664153
1.4239,-0.3890704,0.2854128
1.723916,-0.3570737,0.6177585
1.618846,-0.3676578,-0.1243243
1.408406,-0.3362358,-0.928095
1.343281,-0.2809941,-0.5254259
1.01954,-0.2536217,-0.01493916
0.5070095,-0.1640627,-0.01162225
0.4168041,-0.08378647,0.07316892
0.722379,-0.163858,-0.04464935
0.9129633,-0.3199462,-0.1182281
0.8049803,-0.4400707,0.02709207
0.7342801,-0.4987813,-0.08698659
0.756096,-0.5184375,-0.06951995
0.6696248,-0.497681,-0.1541894
0.7027448,-0.3005727,-0.3846746
0.7981621,0.03483163,-0.1831376
0.8374868,0.2516346,-0.1316421
0.9834984,0.2173803,-0.286019
1.064085,0.1509737,-0.2983677
0.9914152,0.2490517,-0.2083786
0.9032842,0.1994771,-0.02952615
0.9471072,0.02102807,-0.0727463
1.078724,-0.05030797,-0.1468533
1.159173,-0.1504003,-0.1715766
1.264947,-0.09166854,-0.2806764
1.279852,0.02878334,-0.2389105
1.262337,-0.03537262,-0.2089537
1.311442,-0.176493,-0.240606
1.2194,-0.4682403,-0.3109345
1.120902,-0.5381606,-0.502793
1.064202,-0.3978408,-0.5530074
1.113869,-0.4653258,-0.3969458
1.37804,-0.4112184,-0.2097851
1.479368,-0.2872534,-0.1367034
1.282306,-0.1016242,-0.1843883
0.9658783,0.2477485,-0.2013625
0.7984687,0.2116925,-0.1816665
0.7403418,-0.008638601,-0.1752568
0.5423371,-0.04305181,-0.1170045
0.5524478,-0.1395276,-0.02558296
0.6700869,-0.199922,0.004406555
0.5998417,-0.2232862,0.04186847
0.6686334,-0.2725861,0.07749994
0.7491179,-0.1615301,0.03387998
0.7821247,-0.07783443,0.03136288
0.903685,-0.08885753,0.03603235
0.9045365,-0.06266082,0.01654058
0.9924129,-0.09613424,0.06789845
1.183701,-0.1649457,0.02907181
1.165675,-0.3379028,-0.2118296
1.147363,-0.4968835,-0.4442984
1.280339,-0.3886537,-0.4395493
1.585734,-0.3273633,-0.4895731
1.836802,-0.3723716,-0.7212709
1.413325,-0.3116699,-0.4654014
0.7260897,-0.276354,0.04175235
0.5876037,-0.2433351,0.06031483
0.6683216,-0.1047976,-0.1428394
0.7203022,-0.002095256,-0.3389281
0.8326671,-0.1259046,-0.3135924
0.7200682,-0.377285,0.008524122
0.5915935,-0.5230422,0.1814036
0.7279094,-0.5437032,0.1121475
0.7800619,-0.4932787,-0.2218572
0.7042843,-0.3858878,-0.4782409
0.7071527,-0.1444396,-0.2682352
0.7870565,0.1221956,-0.1116824
0.9551988,0.1669623,-0.2060869
1.069181,0.1611622,-0.2099158
0.9616717,0.1992451,-0.09667114
0.8650508,0.1092835,-0.02836902
0.9954018,-0.04262041,-0.01192857
1.114374,-0.1458332,-0.05567962
1.145926,-0.1590174,-0.1984532
1.258048,-0.1307852,-0.2518823
1.303124,-0.1381912,-0.2685117
1.243374,-0.1629755,-0.2620582
1.227006,-0.2608653,-0.1521853
1.210859,-0.3939198,-0.173762
1.181044,-0.4651077,-0.2626166
1.157771,-0.5186221,-0.3437263
1.193173,-0.4650434,-0.3534232
1.360224,-0.2285373,-0.1813834
1.526909,-0.008685845,-0.076201
1.493356,0.09575203,-0.07518601
1.263509,0.1513539,-0.1387544
0.9847757,0.1895817,-0.2082477
0.7506985,0.2128417,-0.1786118
0.6614959,0.1320971,-0.172512
0.6811497,-0.05291862,-0.1287244
0.6412304,-0.2474375,-0.07715188
0.6014497,-0.2973442,-0.09238877
0.6013501,-0.1824058,-0.0360252
0.6035855,-0.1908492,0.09306098
0.6572977,-0.172328,0.196616
0.759419,-0.0728956,0.08147771
0.8986525,-0.1522974,-0.09177831
0.9997899,-0.1316324,-0.03364808
1.080912,-0.128248,-0.04553255
1.157858,-0.2971599,-0.2402538
1.100349,-0.3560753,-0.3155836
1.145045,-0.379795,-0.1193194
1.534541,-0.3384802,0.02894753
1.904058,-0.2980847,-0.406255
1.778729,-0.3313446,-0.8347542
1.289828,-0.331389,-0.4570344
0.8207568,-0.3687194,0.01509328
0.4537155,-0.307223,0.05220165
0.4664147,-0.2202322,-0.02965393
0.8644762,-0.245317,-0.1738641
1.066103,-0.3404336,-0.1814001
0.9045743,-0.5411578,-0.023608
0.7027747,-0.5777104,0.0001638703
0.7855339,-0.4034804,-0.1098497
0.8026208,-0.2213884,-0.2837772
0.5694676,-0.05307168,-0.2855205
0.6022652,0.06615887,-0.1304737
0.7011421,0.1200219,-0.126221
0.8612278,0.03710086,-0.1848138
1.176446,-0.03114227,-0.2565549
1.145116,0.03911072,-0.2476071
1.063416,0.04671895,-0.1683394
1.036315,0.02193468,-0.1775015
0.8744749,0.01100832,-0.09594963
0.9341738,-0.02118941,-0.1092807
1.218221,0.004846425,-0.2726245
1.458987,0.07722793,-0.3029797
1.388964,0.1298498,-0.3099838
1.192686,0.01795679,-0.2912406
1.182671,-0.3162787,-0.3162778
1.135404,-0.5728519,-0.3915768
1.062033,-0.5012623,-0.3953889
0.9969963,-0.4044264,-0.4731555
0.9764041,-0.4781839,-0.4411795
1.204902,-0.3313481,-0.2697682
1.369243,0.002020949,-0.1967429
1.27181,0.211782,-0.1986264
1.074939,0.3193305,-0.246522
0.8559153,0.2398372,-0.2104776
0.7496969,0.09571655,-0.1681155
0.6887525,-0.02728469,-0.1632141
0.5954283,-0.1862264,-0.04064529
0.5861388,-0.1633632,0.02168671
0.6128338,-0.1304646,0.05055653
0.6587193,-0.1412579,0.07506467
0.7861639,-0.02715548,-0.02469156
0.907086,-0.03337946,-0.08364439
0.9494523,-0.09308916,-0.09006346
0.9692524,-0.1032481,-0.03624217
1.00477,-0.1271443,0.02713492
1.025152,-0.1412487,-0.05114585
0.9965553,-0.3011911,-0.06787161
1.043927,-0.4430831,0.0684427
1.402645,-0.325274,0.1368083
1.771596,-0.106922,-0.1055352
1.649359,0.01738096,-0.4973649
1.416603,-0.02791136,-0.5407119
1.343478,-0.1643459,-0.2980564
1.062407,-0.2443627,-0.1694209
0.9139712,-0.15501,-0.2450947
1.021751,-0.04853533,-0.3524701
0.9336866,-0.1359475,-0.3212828
0.9356119,-0.3077804,-0.1740297
0.9538761,-0.5380493,0.04847784
0.8313014,-0.7004461,0.1052368
0.8769522,-0.5647603,-0.1197196
0.7308487,-0.3361552,-0.2147249
0.5375087,-0.1172089,-0.1052937
0.6821024,0.0604912,-0.06581516
0.8793915,0.03587884,-0.1665993
1.124618,0.04994474,-0.266783
1.226125,0.1377604,-0.1980976
1.062371,0.1297167,-0.1212628
0.9792789,0.1452169,-0.09305359
0.9653876,0.06997237,-0.03624692
0.891027,-0.03342476,-0.03729465
0.9093275,0.004639223,-0.04138696
1.126173,0.01650859,-0.09768844
