accx,accy,accz
1.406423,-0.4465672,-0.01997212
1.346074,-0.443768,-0.02528561
1.303719,-0.3536675,0.01507556
1.317312,-0.198742,0.05678388
1.188177,-0.120423,0.02390371
1.031113,-0.0996005,0.04152965
0.8106907,-0.1031956,0.07134364
0.670779,-0.1218765,0.05716099
0.6800885,-0.1374023,0.08389472
0.5874894,-0.1492706,0.1089547
0.5732345,-0.1461996,0.1201544
0.6563947,-0.1863694,0.151949
0.6464524,-0.2052028,0.1811024
0.7069939,-0.1587743,0.2038526
0.7373548,-0.1078809,0.2192069
0.6919538,-0.008788845,0.2584007
0.7273748,0.0809587,0.327467
0.7812415,0.09574586,0.3786932
0.9364338,0.08373124,0.3781941
1.140195,0.03761033,0.3453389
1.262206,-0.0792199,0.309161
1.37673,-0.168845,0.3040551
1.397839,-0.03685429,0.4856286
1.360234,0.2216115,0.6735992
1.389998,0.2708191,0.4247211
1.442597,-0.119631,0.02560063
1.428323,-0.6134027,-0.03792308
1.178282,-0.5790842,0.07061544
0.8699472,-0.3770907,0.1231991
0.8654774,-0.3610632,0.08880436
0.8849178,-0.09655559,0.02099877
0.7782848,0.02975964,0.004218059
0.8934026,-0.188845,0.002071899
0.9624264,-0.1968169,0.01270902
0.7998899,-0.1744116,0.02214287
0.7415986,-0.2047287,0.006329533
0.7268552,-0.152349,0.01723131
0.7828719,-0.170406,0.02034151
0.9308677,-0.1304801,0.02631075
0.9696183,-0.0476214,0.04053097
0.948569,0.02858149,0.02737557
0.8982872,0.1055828,0.03983288
0.9250421,0.08715311,0.05091578
0.9738843,0.09066741,0.06390384
0.9482856,0.07829795,0.1139609
1.003048,0.04436831,0.1634505
1.016515,0.05414728,0.2023293
1.035009,-0.007835468,0.1925971
1.139145,-0.09705473,0.1721592
1.158007,-0.1526304,0.1797083
1.123701,-0.07867064,0.1646965
1.07955,0.04943,0.1770684
1.125115,-0.003975637,0.2067263
1.169797,-0.1176049,0.1499054
1.074305,-0.2039855,-0.01640013
1.068782,-0.2241918,-0.181417
1.230575,-0.2265856,-0.1489366
1.461127,-0.3938358,-0.05652788
1.542329,-0.4609461,-0.09650767
1.4474,-0.3342684,-0.04027809
1.430226,-0.2616183,0.05923502
1.345425,-0.2180182,0.02553418
1.068579,-0.1814978,0.0439381
0.7668027,-0.1289612,0.07337233
0.6219601,-0.0867249,0.07167039
0.6528805,-0.1307023,0.1067704
0.6101021,-0.143315,0.104697
0.5881169,-0.1552613,0.1289428
0.669672,-0.2109565,0.1647343
0.6673351,-0.2190863,0.1956063
0.7047014,-0.1931236,0.2571425
0.7257186,-0.1274322,0.263439
0.6802056,-0.03731817,0.2693457
0.7293909,0.04781927,0.2816464
0.8222093,0.1178581,0.2856214
1.030609,0.1197077,0.3101201
1.232666,0.0772435,0.2622844
1.243691,0.010164,0.2022347
1.261046,-0.0727878,0.2475066
1.311224,-0.09308789,0.4492095
1.343121,0.00928709,0.6684393
1.375841,0.07600042,0.5358604
1.485219,-0.2056565,0.1158423
1.605799,-0.6233595,-0.141157
1.329349,-0.6853564,-0.04285498
0.9051704,-0.5268537,0.1338552
0.8531316,-0.3950242,0.07217045
0.839258,-0.1954731,0.004796485
0.7264986,-0.0612994,0.0220254
0.8486227,-0.1405621,-0.04680038
1.022496,-0.1987298,-0.03711164
0.9947514,-0.1802635,-0.03531869
0.8935104,-0.2131635,-0.06559968
0.8091705,-0.2125656,-0.0106593
0.808743,-0.2081754,-0.04644084
0.8827422,-0.2214771,-0.03331691
0.9399303,-0.1689476,0.01651324
1.012356,-0.1415809,-0.01220308
0.9979357,-0.08935988,0.0218668
0.9235147,0.02123511,0.01867558
0.9617214,0.04428104,0.04492164
0.9527322,0.02920242,0.09314444
0.8981019,0.06913363,0.06138685
0.8939078,0.1247365,0.09126921
0.8775837,0.1070701,0.1246901
0.9546679,0.04092079,0.1602322
1.060817,-0.003911137,0.1865126
1.116044,-0.05701746,0.1557545
1.171018,-0.05933006,0.1589321
1.14794,0.01158899,0.150647
1.131121,0.05210344,0.1658248
1.155787,-0.03649038,0.1615734
1.142354,-0.1732527,0.01020249
1.166508,-0.1639397,-0.1305745
1.270544,-0.182674,-0.1097098
1.410159,-0.3236966,-0.03399881
1.447798,-0.3633495,-0.03067743
1.386824,-0.3404563,0.009051151
1.394891,-0.2836558,0.06242186
1.37093,-0.1883231,0.04422352
1.158703,-0.1698143,0.07355252
0.8733486,-0.1523741,0.06909181
0.7538659,-0.1050925,0.05159056
0.7838528,-0.09179354,0.09676356
0.7080723,-0.07907839,0.08723425
0.6239359,-0.08429511,0.1006583
0.6438543,-0.1232574,0.1253872
0.6156548,-0.1446566,0.1401456
0.6508893,-0.1490424,0.1956494
0.7128021,-0.1453396,0.2095002
0.6557281,-0.1044106,0.2379513
0.6271139,-0.03543277,0.2661905
0.6231825,0.02819316,0.275123
0.7278741,0.05076561,0.3192465
1.032069,0.02159921,0.3065358
1.274245,-0.02935567,0.243235
1.343443,-0.07031991,0.2329552
1.383456,-0.02627222,0.4323169
1.486539,0.1339779,0.7028908
1.498483,0.2690604,0.6519283
1.453595,0.1852044,0.427446
1.588013,-0.1265375,0.2321388
1.579374,-0.4521997,0.06344311
1.182698,-0.542003,0.09389221
0.8021106,-0.3811131,0.09311714
0.7841529,-0.252287,-0.05290311
0.8446101,-0.1680313,-0.01572024
0.6943089,-0.03182853,0.004212519
0.7748999,-0.1262545,-0.04928522
0.9731206,-0.2822723,0.03049496
0.8763433,-0.2233876,0.01210209
0.8350245,-0.2037503,-0.01473725
0.7664229,-0.1833803,0.03109729
0.7161847,-0.1359965,-0.003451808
0.9118842,-0.1469705,0.02649765
0.9643741,-0.0771816,0.04567357
0.9367548,-0.0075387,0.01894396
0.9224938,0.0756557,0.04231686
0.8911679,0.1690144,0.03297253
0.9348309,0.1359234,0.05124043
0.9149884,0.1270983,0.07917813
0.9571131,0.1388228,0.1001579
1.036181,0.07909002,0.1635017
1.103298,-0.007032835,0.1975214
1.208555,-0.08658517,0.2174751
1.150004,-0.01813492,0.2041043
1.124146,0.109159,0.1759012
1.224374,0.08001124,0.186957
1.276048,-0.06093845,0.1527133
1.303191,-0.2101655,0.08452085
1.281103,-0.2509014,-0.003758624
1.280242,-0.2562424,-0.1067535
1.312037,-0.3112142,-0.09583325
1.358415,-0.2807046,-0.03242753
1.439319,-0.2866593,-0.0224654
1.421443,-0.3176058,0.03405757
1.380001,-0.2214033,0.0563734
1.332614,-0.180101,0.0100474
1.062907,-0.1451746,0.0580116
0.7373327,-0.08417132,0.07310205
0.6643322,-0.09638976,0.05550955
0.6978438,-0.08102305,0.1049301
0.6155362,-0.102326,0.08718642
0.5319095,-0.1388425,0.0943178
0.5413439,-0.1510552,0.1411275
0.5865343,-0.1848131,0.1692667
0.6405667,-0.156418,0.2376763
0.6559714,-0.1185559,0.2226076
0.6529241,-0.04058885,0.2068894
0.6984808,0.05029813,0.2723379
0.795942,0.037383,0.2958254
0.9925261,0.02979647,0.3100494
1.245887,-0.00750602,0.276126
1.396123,-0.07973782,0.2235854
1.414726,-0.06731458,0.3018241
1.406696,0.04159531,0.4894181
1.397468,0.2430089,0.6401554
1.315301,0.3090377,0.5084881
1.269043,-0.0355661,0.1665411
1.286343,-0.5465911,-0.01627007
1.154907,-0.6851399,-0.008724805
0.9761002,-0.48749,0.04495985
0.8965038,-0.346699,0.05141441
0.8016638,-0.2002241,0.00990896
0.7700851,-0.07090374,0.01757384
0.9217297,-0.156043,0.01268467
1.04052,-0.2246048,-0.008106405
0.9344351,-0.1938201,-0.006362994
0.8040498,-0.2000053,-0.02116862
0.7734063,-0.148953,0.002394031
0.7544204,-0.08799015,0.0203561
0.8056319,-0.09225009,0.029814
0.8786672,-0.07660284,0.03729158
0.8797995,-0.05070433,-0.009159214
0.8845828,0.01567656,0.00134665
0.9242347,0.1030332,0.05172561
0.9740175,0.1456146,0.1028227
0.9717651,0.1644762,0.1513188
0.952732,0.1214144,0.1494008
0.9974818,0.06782584,0.16903
1.044946,0.01176319,0.1608219
1.106842,-0.0706477,0.1442132
1.165876,-0.05847609,0.1964633
1.147594,0.02321142,0.1976624
1.162138,0.0722192,0.1310897
1.20572,-0.0493913,0.03974649
1.15713,-0.2585437,-0.04962458
1.146041,-0.2528043,-0.09567401
1.311967,-0.2058198,-0.07740059
1.474876,-0.2519726,-0.053411
1.449013,-0.240228,-0.08217398
1.40822,-0.2487979,-0.04149581
1.460201,-0.2582224,0.005647399
1.387019,-0.229093,-0.002162458
1.160545,-0.2095105,0.04318586
0.9427363,-0.1652658,0.03589928
0.7729055,-0.1504537,0.02157489
0.6280785,-0.1482666,0.06738722
0.5708985,-0.1321569,0.07385243
0.6202144,-0.1543952,0.09341306
0.5629762,-0.1606292,0.1221696
0.5242987,-0.1603914,0.1403969
0.6590435,-0.1682453,0.1664865
0.6939416,-0.1413352,0.1894115
0.7399503,-0.1229231,0.2056821
0.762841,-0.08376904,0.2098407
0.6806409,-0.003802953,0.2695481
0.8075405,0.03238912,0.332514
0.9654436,0.02403918,0.3383448
1.177231,0.001668357,0.3180847
1.414779,-0.02397642,0.239116
1.351276,-0.02486354,0.236297
1.340253,0.02885053,0.4091531
1.409878,0.1775195,0.5489006
1.406414,0.2597282,0.4122222
1.495167,-0.06279769,0.09050009
1.476473,-0.5433122,-0.0582517
1.196597,-0.5758138,0.005677525
0.8567562,-0.3990959,0.08390049
0.8083358,-0.3513023,0.1038278
0.8711914,-0.1701438,0.0776882
0.8072494,-0.06325231,0.02869781
0.9527209,-0.2047527,-0.03544093
1.029774,-0.2323748,-0.01710504
0.8424748,-0.1677034,0.01905664
0.7703653,-0.1446986,-0.01357055
0.7446817,-0.1285987,0.01225936
0.7862474,-0.1363428,0.01721475
0.8963292,-0.1159477,-0.005809224
0.9430072,-0.07642685,0.02118674
0.9695941,-0.0213632,0.01413518
0.9156996,0.07108356,0.03137864
0.922529,0.1259665,0.06252045
0.9492251,0.1142806,0.0674741
0.9048255,0.09821719,0.09972458
0.9599456,0.1144303,0.120389
1.001947,0.07272092,0.1350597
1.090671,-0.05619727,0.1617461
1.20383,-0.1848017,0.1803836
1.162301,-0.2027326,0.1639494
1.142168,-0.02600227,0.1390523
1.14595,0.1044954,0.1752244
1.201814,-0.02310698,0.1766014
1.281489,-0.1752534,0.05083708
1.169403,-0.2013177,-0.1113869
1.095049,-0.2210441,-0.1598404
1.246509,-0.2900134,-0.09063424
1.392027,-0.3494018,-0.05066396
1.374924,-0.3652144,-0.0221644
1.340273,-0.3238877,0.02557607
1.359428,-0.2468044,0.03142899
1.260838,-0.2081562,0.04544997
1.016228,-0.1681265,0.04562894
0.755822,-0.1000957,0.03095696
0.6617387,-0.08182773,0.05021446
0.6759461,-0.09773066,0.06180256
0.5897655,-0.1115369,0.09412066
0.5759418,-0.1465152,0.1274974
0.6305967,-0.1993035,0.1617882
0.6269947,-0.2166944,0.2309147
0.7161251,-0.1713932,0.2464972
0.7527904,-0.1044132,0.2487386
0.7124007,-0.05083651,0.2890965
0.7624886,0.009659189,0.3296156
0.7855839,0.08145439,0.3563529
0.8774111,0.06929413,0.3360045
1.127945,-0.0168735,0.3106445
1.312903,-0.06491302,0.2647518
1.326917,-0.1140923,0.2272232
1.334035,-0.09564565,0.3580901
1.415955,0.1120609,0.5169
1.344002,0.2725876,0.4755002
1.232416,0.06990912,0.2836256
1.306934,-0.4039046,0.0538701
1.285056,-0.6634285,-0.06735449
1.10799,-0.5211834,-0.01140427
0.93834,-0.3530044,0.01086099
0.7956304,-0.2754275,-0.03902086
0.7407624,-0.1077272,-0.007944674
0.8043188,-0.07843523,-0.00138761
0.9879106,-0.2396202,-0.007946755
1.075884,-0.2284735,0.04416787
0.9397315,-0.1515817,0.03302661
0.8247751,-0.1203656,0.02597304
0.797359,-0.06004805,0.04186414
0.818851,-0.09046596,0.0243456
0.890393,-0.04959445,0.03515687
0.9470196,0.01054628,0.03778055
0.9491009,-0.01838212,0.04142798
0.9034182,0.05664895,0.05348187
0.909267,0.07248104,0.05676399
0.9249507,0.05506173,0.08813283
0.9205542,0.1058461,0.1050193
0.9782306,0.1019511,0.1299796
1.044163,0.08107024,0.1656738
1.152752,-0.02379956,0.1565841
1.224222,-0.08787432,0.1504897
1.156336,0.05450472,0.147879
1.153287,0.1534785,0.1357348
1.263861,-0.009165905,0.1515761
1.327379,-0.2196556,0.1422724
1.217646,-0.1910573,0.01563509
1.057008,-0.1642816,-0.1229475
1.080835,-0.2734517,-0.0904629
1.19734,-0.3565557,-0.01108773
1.29307,-0.4273899,-0.009447592
1.351075,-0.3658694,0.03315328
1.364302,-0.2245246,0.06560394
1.39106,-0.150858,0.0407326
1.246119,-0.08615351,0.05916063
0.9195768,-0.09860162,0.06562979
0.7459224,-0.1243442,0.0617682
0.6755187,-0.1128343,0.09764388
0.5846629,-0.1234836,0.1190098
0.5750809,-0.09801387,0.1377324
0.5934997,-0.1091782,0.1502408
0.6291958,-0.1531761,0.1729906
0.7058893,-0.1653498,0.2153665
0.7213143,-0.1674475,0.20676
0.6865288,-0.1101255,0.2164771
0.6727672,-0.03746691,0.2920793
0.706743,0.01543366,0.3416575
0.8440731,0.0530875,0.3653786
1.023638,0.06399405,0.3958788
1.128841,0.04734226,0.3573927
1.289684,-0.04303118,0.2413201
1.455229,-0.06341198,0.2422163
1.400233,0.03623676,0.4691152
1.419337,0.1055957,0.6343854
1.584191,0.06681682,0.3937238
1.559992,-0.2470872,0.1085133
1.371117,-0.5701865,0.2059226
1.001128,-0.4647671,0.2066489
0.6925811,-0.2951583,0.01765257
0.7746918,-0.268443,0.03356166
0.8667906,-0.1098574,-0.02128543
0.8930913,-0.08117963,-0.09755643
1.01024,-0.2408681,0.01357005
0.9530586,-0.2250987,0.04507222
0.8008197,-0.1946395,0.05051652
0.7489146,-0.185078,0.05250761
0.73014,-0.1255165,0.02836537
0.7863965,-0.1666083,0.05520308
0.8891341,-0.1354893,0.03032759
0.942246,-0.07368028,0.02130524
0.9456949,-0.03291298,0.01699871
0.9020526,0.0819091,0.004545293
0.8982427,0.08143471,0.04779561
0.9328057,0.05581228,0.04828385
0.9454538,0.06906516,0.08193468
0.9985351,0.04971349,0.1438216
1.051733,0.05126689,0.1590624
1.091628,-0.005294054,0.1712287
1.144702,-0.1069687,0.1536334
1.173667,-0.1892773,0.1588071
1.161884,-0.09855138,0.1701336
1.11811,0.1036668,0.1770369
1.181935,0.07761967,0.2095756
1.24189,-0.03491577,0.1259626
1.124588,-0.09300714,-0.07991396
1.067334,-0.1622129,-0.2190106
1.141794,-0.236597,-0.1310277
1.230947,-0.4052395,-0.00695687
1.275425,-0.4562798,-0.0658768
1.278224,-0.3121534,-0.04796399
1.349944,-0.2359324,0.0267871
1.376982,-0.1983101,0.002894886
1.177111,-0.1811548,0.06214008
0.867977,-0.1556423,0.09963882
0.7245645,-0.07368241,0.08683254
0.7359596,-0.07108774,0.1181665
0.6774776,-0.07667217,0.09794993
0.6308475,-0.06843631,0.1217383
0.6508411,-0.1167536,0.1565116
0.6460396,-0.1409739,0.1673688
0.6744383,-0.1532508,0.2263981
0.6892104,-0.1310799,0.2206328
0.6455738,-0.0771105,0.2389806
0.6320551,-0.0479858,0.3017562
0.6881393,0.02794352,0.3139428
0.8140741,0.0988837,0.3386478
1.058145,0.05228302,0.313339
1.366936,-0.04046882,0.2587666
1.43148,-0.08455862,0.2572456
1.383444,-0.09052736,0.3518088
1.538745,0.008955741,0.5504336
1.549091,0.1368516,0.5724819
1.514229,-0.04029851,0.2955719
1.63165,-0.3468957,0.06282585
1.341648,-0.4242992,0.1244274
0.8788302,-0.3937543,0.1781281
0.7484738,-0.3325544,0.0102827
0.7654377,-0.2440826,-0.0436161
0.8492425,-0.169004,0.0005692279
0.9220662,-0.1459409,-0.02826628
0.9711456,-0.2031717,0.02512969
0.9423795,-0.195039,0.06304262
0.8041517,-0.1468588,0.04200024
0.7837085,-0.1302439,0.04803218
0.7897857,-0.1064342,0.04796901
0.8360027,-0.1087982,0.0623716
0.950707,-0.05830477,0.04648554
0.9333236,0.01088174,0.03167359
0.9060135,0.05441312,0.0350088
0.8990632,0.1094319,0.03150609
0.90871,0.09293839,0.07922452
0.9512114,0.09370813,0.1080045
0.9271108,0.1288744,0.1224271
0.9565012,0.1123695,0.1612379
1.045828,0.05561693,0.1840098
1.145107,-0.08203446,0.1806558
1.21046,-0.1384108,0.1441995
1.125483,-0.02218218,0.1425318
1.084135,0.02244172,0.1571904
1.217562,-0.1213057,0.155934
1.305207,-0.246384,0.1317075
1.208703,-0.1589944,-0.009681123
1.128662,-0.09893564,-0.1357226
1.228553,-0.2412859,-0.079312
1.312468,-0.37872,-0.004244718
1.30866,-0.4391961,-0.04348073
1.325382,-0.3851688,-0.02695007
1.364941,-0.2383009,0.05580895
1.418262,-0.1769519,0.04597461
1.33257,-0.164808,0.04527943
1.001501,-0.1296132,0.0646688
0.7137763,-0.1019558,0.05771566
0.7239153,-0.1002108,0.08449076
0.7469909,-0.1121842,0.1032289
0.5957917,-0.1072915,0.1481949
0.6102006,-0.1422699,0.1668968
0.6788382,-0.1668387,0.1582076
0.6285928,-0.1449488,0.2252769
0.7199743,-0.1480457,0.2454563
0.7178759,-0.0989172,0.2492575
0.6224303,-0.02030974,0.2892874
0.6751408,0.04546769,0.3097919
0.7376085,0.1095179,0.3605568
0.9925822,0.07156715,0.360883
1.323325,-0.05561797,0.297212
1.433131,-0.1771622,0.2931631
1.420591,-0.1228029,0.4207599
1.375521,0.1132301,0.5508337
1.439355,0.1949102,0.3773734
1.467356,-0.07737051,0.0676581
1.386828,-0.4706449,-0.01513008
1.170916,-0.5143925,0.03433905
0.7966987,-0.3524374,0.06111409
0.8160211,-0.3455653,0.05134582
0.9591098,-0.2268883,0.04023516
0.8573729,-0.0990567,0.01588937
0.9952532,-0.1328918,-0.03459352
1.035179,-0.1039982,0.009786147
0.8384087,-0.1276956,0.06307596
0.792275,-0.1448726,0.0298474
0.7348269,-0.115682,0.03481986
0.7428448,-0.1538476,0.04204595
0.8370671,-0.094249,0.02925356
0.912126,-0.03629885,0.03764974
0.9813318,-0.02972401,0.03175999
0.9128509,0.01992435,0.04397958
0.8977548,0.04319953,0.06605666
0.9419537,0.04700948,0.07017308
0.9124349,0.01067266,0.08160013
0.9561814,0.001252218,0.1162917
0.9678285,0.02005934,0.1578608
0.9894089,-0.002793694,0.1651902
1.111749,-0.005634313,0.1768493
1.183965,-0.05036436,0.1879789
1.194374,-0.05586516,0.1372698
1.157906,0.08140731,0.1063718
1.162809,0.1772997,0.1426974
1.228941,0.07063105,0.1575085
1.247338,-0.1549022,0.08506596
1.175714,-0.2583051,-0.0586652
1.085698,-0.2809344,-0.1378644
1.18476,-0.3543844,-0.05269566
1.321016,-0.4217252,0.02189532
1.296263,-0.4406396,-0.06015446
1.300402,-0.3472373,-0.09720162
1.338899,-0.2391081,0.002513355
1.315407,-0.2091942,0.0590051
1.128357,-0.1962121,0.05774599
0.8019079,-0.1851988,0.07251697
0.686322,-0.1255169,0.09865666
0.7336727,-0.08690513,0.119552
0.7002908,-0.0894699,0.1207536
0.6900192,-0.0679318,0.1307949
0.6802594,-0.09983784,0.1464178
0.6413275,-0.1421462,0.1796406
0.6754579,-0.1523111,0.227247
0.7063182,-0.135682,0.2270571
0.7029014,-0.08210481,0.2390749
0.7048544,-0.05551271,0.2727288
0.7044971,-0.02904673,0.2670268
0.8015196,0.01512819,0.269096
1.055444,0.04182202,0.26703
1.319709,-0.004388276,0.2204015
1.386155,-0.08045317,0.213671
1.326766,0.004164618,0.3547488
1.380292,0.1582256,0.4961026
1.49433,0.1524364,0.3649909
1.586387,-0.1529137,0.1261736
1.586341,-0.6318524,0.07950548
1.300388,-0.7205483,0.1468459
0.8949964,-0.4604814,0.1794355
0.7006877,-0.3412656,0.09492384
0.7380653,-0.2281219,-0.02084304
0.8285987,-0.1243349,-0.01147246
0.9050873,-0.1929926,-0.006753803
0.9955365,-0.2248842,-0.01448908
0.9561409,-0.2206925,0.03987615
0.8724742,-0.2242914,0.03695436
0.8594678,-0.1580299,0.02676064
0.7618561,-0.1122439,0.03751024
0.7803657,-0.1185654,0.02971474
0.9303341,-0.0918213,0.050702
0.9561718,-0.01636405,0.05937625
0.9506656,0.01268,0.05539836
0.9095822,0.02123786,0.0566544
0.8784181,0.08618725,0.05782904
0.9160229,0.08865109,0.06973608
0.9167436,0.06105851,0.07722472
0.9561259,0.09888673,0.1120728
0.998796,0.09989414,0.1545679
1.043642,0.05790141,0.171397
1.139519,-0.007775315,0.1839665
1.165524,-0.07393166,0.1789331
1.165543,-0.04115637,0.1461913
1.169505,0.04065091,0.1031741
1.197795,0.06236516,0.09973274
1.247528,-0.058761,0.07672233
1.201411,-0.2572606,-0.05408809
1.17177,-0.2923111,-0.1416633
1.21011,-0.2573441,-0.08233778
1.25606,-0.3432715,-0.02520954
1.336254,-0.3810308,-0.05009186
1.37129,-0.2991497,-0.03530374
1.358889,-0.2041446,0.01995985
1.320571,-0.1649201,0.01023685
1.131191,-0.1918381,0.02660981
0.89582,-0.1876768,0.0698597
0.8402032,-0.1607933,0.05991919
0.7475334,-0.1442346,0.07619443
0.5660434,-0.1063972,0.09433333
0.6302512,-0.1107692,0.1025924
0.6808536,-0.1440446,0.1514621
0.6148438,-0.1693939,0.1920804
0.7263667,-0.1875356,0.2293303
0.7392748,-0.1385906,0.2616229
0.6737015,-0.06326282,0.273301
0.7084608,-0.01297642,0.2973957
0.6771538,0.04185559,0.3184655
0.7248647,0.07157886,0.3191924
0.9171822,0.05021383,0.302916
1.236553,0.008292779,0.2568383
1.480576,-0.04409352,0.2148673
1.401622,-0.08059623,0.2938056
1.391415,-0.02621032,0.5006103
1.471589,0.1200168,0.5957754
1.44766,0.1648279,0.3895412
1.501266,-0.1583234,0.09714647
1.381698,-0.5577081,0.05492567
1.005464,-0.4729179,0.1190769
0.7624571,-0.2984609,0.04337597
0.7758575,-0.3280131,-0.01707869
0.8519227,-0.1350854,-0.008103263
0.8691291,-0.07537155,-0.01651374
0.9664944,-0.257636,0.01453543
0.9759349,-0.2071057,0.05764101
0.8034392,-0.1646534,0.0453715
0.7569043,-0.1296872,0.0263022
0.7508901,-0.05823415,0.04253942
0.8098371,-0.09656903,0.045588
0.9663677,-0.006788955,0.03470978
0.9495197,0.04694881,0.04031289
0.9042086,0.05406093,0.02975539
0.8889814,0.1318551,0.04079892
0.8980445,0.06568658,0.07119075
0.9683766,0.04687944,0.08247911
0.9464375,0.09097805,0.1121473
0.9968832,0.05879455,0.1498698
1.112945,-0.007395196,0.2005444
1.174561,-0.1602411,0.2503079
1.227998,-0.2049883,0.2445967
1.162285,-0.06775122,0.1663049
1.106342,0.1089257,0.07518832
1.14111,0.18028,0.09648113
1.209902,-0.0667546,0.1087233
1.297752,-0.3562244,-0.0294469
1.222403,-0.3169925,-0.1454465
1.130918,-0.2468804,-0.1423467
1.203985,-0.3433311,-0.07958053
1.256309,-0.3480983,-0.03585111
1.277688,-0.2984721,-0.03785159
1.306375,-0.2714749,-0.009563046
1.303283,-0.1745423,0.02877285
1.282423,-0.1624446,0.03339555
1.078838,-0.1803022,0.04753247
0.7463476,-0.1150072,0.07712712
0.6588697,-0.1035539,0.08110592
0.6885237,-0.09712931,0.06891306
0.5997827,-0.09047477,0.09884307
0.5896154,-0.1179848,0.1343992
0.630983,-0.1444476,0.1628495
0.6425029,-0.1888537,0.2127044
0.7112479,-0.164311,0.2319635
0.7204416,-0.09346682,0.2519125
0.6950808,-0.03094356,0.290723
0.7579233,0.06237365,0.3180429
0.8704009,0.1085322,0.3551759
1.072538,0.0914263,0.3506637
1.276418,0.03208035,0.268523
1.341175,-0.03557514,0.2186763
1.389079,0.002381219,0.3510294
1.475561,0.0984673,0.496348
1.494517,0.1094761,0.3601406
1.483003,-0.09295066,0.1338327
1.453469,-0.4416069,0.04428116
1.151361,-0.5457476,0.0199461
0.7507126,-0.3883663,0.0168361
0.7755931,-0.28847,-0.01757344
0.9057293,-0.1822191,-0.05010955
0.8491239,-0.1010029,-0.04559524
0.972108,-0.2040125,-0.02467151
1.032093,-0.2522143,0.0382956
0.85009,-0.1674781,0.03256313
0.778077,-0.1194751,0.005751993
0.7652455,-0.1071981,0.04022882
0.8053471,-0.1108847,0.027256
0.8986236,-0.1003285,0.03846461
0.9005727,-0.04567628,0.05276553
0.9245573,0.01214727,0.02797598
0.9255942,0.03866682,0.05025184
0.9126815,0.02742037,0.06164017
0.9595281,0.0310918,0.08232379
0.9506937,0.06517169,0.1057387
0.962946,0.0969811,0.1196075
0.9988906,0.1052099,0.1705466
1.029849,0.03857172,0.1673656
1.111345,-0.06991124,0.1676744
1.142542,-0.104247,0.2034421
1.111248,-0.01874724,0.1841882
1.094666,0.06089972,0.1824901
1.167203,-0.01654633,0.1791369
1.235733,-0.1508867,0.08658781
1.154902,-0.2340553,-0.05047072
1.112617,-0.2852537,-0.1084742
1.207379,-0.2999365,-0.02346037
1.283137,-0.3232023,0.03518186
1.304592,-0.3125155,-0.005516876
1.345299,-0.2463414,5.337e-05
1.369013,-0.2128857,0.02833143
1.2923,-0.166733,0.0372827
1.142229,-0.1167814,0.07616579
0.9521333,-0.105919,0.08122516
0.8185442,-0.09653161,0.06644503
0.7066441,-0.08435537,0.1017458
0.580971,-0.07369815,0.1196333
0.6428245,-0.09250631,0.1104441
0.6586899,-0.1018972,0.12402
0.5858718,-0.115606,0.1494911
0.7048513,-0.1636484,0.1923918
0.7231747,-0.1586558,0.2333573
0.6807979,-0.135828,0.2353481
0.6991314,-0.08565643,0.249996
0.6426555,-0.002398064,0.3012663
0.7571275,0.03290099,0.3141606
0.9568388,0.06156238,0.3100349
1.12605,0.03691565,0.3251791
1.290763,-0.02613805,0.2751274
1.312286,-0.02955054,0.2412158
1.351581,-0.002292986,0.3438446
1.431148,0.1044445,0.4260559
1.474935,0.178218,0.3446941
1.502219,-0.08078638,0.1842807
1.427661,-0.5003899,0.08444626
1.201363,-0.5882245,0.0539414
0.8785352,-0.3987504,0.02228578
0.78051,-0.2859192,-0.00773929
0.8440856,-0.2181224,-0.01668913
0.8290063,-0.1659999,-0.02017292
0.9586284,-0.2060197,-0.01192929
1.023173,-0.2206075,0.01338712
0.8697595,-0.1659231,0.03069583
0.7971204,-0.1133387,0.03910635
0.7745222,-0.08875457,0.04825946
0.8347276,-0.08529392,0.0704865
0.9528698,-0.05635093,0.09232505
0.9643469,0.001254434,0.06641074
0.9434443,0.04980865,0.0460053
0.8912763,0.09995233,0.05070694
0.8680636,0.1117331,0.04860541
0.9017176,0.05702885,0.08095455
0.9021948,0.04366809,0.1109118
0.9224164,0.0746872,0.1231917
0.9566672,0.07688004,0.1525173
1.007252,0.0549028,0.1674924
1.074076,-0.02550764,0.157004
1.14229,-0.1363242,0.1424297
1.19499,-0.1644038,0.1549188
1.139536,-0.04061871,0.1860587
1.129362,0.07805789,0.2278179
1.246045,-0.03020331,0.246387
1.290755,-0.1344686,0.1216142
1.185208,-0.09200582,-0.08807048
1.071364,-0.1580865,-0.1484398
1.170515,-0.2751458,-0.06181305
1.298222,-0.3306004,-0.03484469
1.265358,-0.3703654,-0.05432439
1.293555,-0.3052081,-0.0161817
1.3447,-0.2175595,0.02498353
1.306331,-0.2061904,0.04876572
1.138648,-0.174524,0.05853822
0.8282003,-0.136913,0.06392485
0.6901604,-0.1198045,0.07929138
0.7181384,-0.102086,0.07169441
0.6617958,-0.08056073,0.08147524
0.6313914,-0.06110853,0.1026406
0.6548739,-0.1040169,0.1238285
0.6860071,-0.1622281,0.1883262
0.7474514,-0.1668276,0.2233245
0.7396526,-0.1332153,0.2299329
0.6863113,-0.0664683,0.2703211
0.6907442,-0.02404937,0.3113647
0.7562886,0.004168403,0.3436141
0.9105014,0.04045809,0.3703902
1.089105,0.02843625,0.3629373
1.218251,0.01636674,0.2603582
1.329279,0.02116724,0.1553727
1.368057,0.008228968,0.2549005
1.43191,0.01979241,0.4303598
1.581912,0.02298891,0.4437645
1.582189,-0.1057766,0.3237753
1.483841,-0.3905994,0.1959271
1.262541,-0.5699073,0.1550604
0.8361427,-0.4055519,0.1258683
0.746759,-0.2113109,0.06531992
0.9256853,-0.1922733,0.01762045
0.8701902,-0.07159062,-0.1066095
0.8878513,-0.04223585,-0.1224497
0.9503856,-0.2178986,0.0207176
0.8738413,-0.2159234,0.0623995
0.9046729,-0.188305,0.1207972
0.8539326,-0.1845151,0.1108708
0.7575739,-0.07552083,0.01307767
0.8303321,-0.09670822,0.08344369
0.880651,-0.09032807,0.06965687
0.9238344,-0.002596819,0.007936988
0.9323643,0.01170051,0.0387857
0.8963754,0.05333791,0.009999717
0.950592,0.06839591,0.0470756
0.9643181,0.08690499,0.07277967
0.9406611,0.1200665,0.07946478
0.9511543,0.1254016,0.1482201
0.9585658,0.1279572,0.1484222
1.034041,0.02066192,0.1809817
1.176075,-0.1368264,0.2170045
1.260126,-0.2042912,0.2078613
1.160715,-0.03554096,0.1689448
1.05725,0.1725193,0.07050071
1.17167,0.02228745,0.08697278
1.249542,-0.2028951,0.06208377
1.199472,-0.2936545,-0.07955364
1.199772,-0.3031526,-0.06387707
1.195776,-0.228321,-0.01463398
1.208572,-0.3105116,-0.02220213
1.272922,-0.3664084,-0.006237201
1.30568,-0.261764,-0.001193071
1.359835,-0.2228221,0.02575874
1.381972,-0.1483322,0.03645224
1.182836,-0.12977,0.0344064
0.8619726,-0.1731143,0.07752153
0.7199815,-0.1252965,0.09435726
0.7196481,-0.1444898,0.08713655
0.6564102,-0.1445624,0.09750613
0.6287206,-0.1181295,0.1246545
0.6583007,-0.1711402,0.1737285
0.6643823,-0.1727261,0.2122933
0.7068011,-0.1435463,0.2218123
0.7035126,-0.07856363,0.2189439
0.6568236,0.0003547213,0.2405356
0.6734679,0.02544894,0.2845272
0.7344265,0.05982019,0.3100146
0.9079335,0.05581732,0.3142062
1.14667,-0.004091699,0.2818591
1.301047,-0.07558962,0.2114147
1.377526,-0.08596332,0.1941504
1.419847,0.02119418,0.3721803
1.434582,0.1579671,0.5652968
1.33886,0.2506346,0.4072318
1.242684,0.1416456,0.1813077
0.9134351,0.1047356,0.07588918
0.8986852,0.1129641,0.08023951
0.9171883,0.1228187,0.1153364
0.969203,0.08736143,0.1403407
1.069776,0.001971709,0.1729886
1.246336,-0.1150632,0.1955927
1.290617,-0.1614147,0.2037951
1.223195,0.01955983,0.2026729
1.203618,0.1877387,0.169146
1.302984,-0.0002625235,0.1594866
1.376463,-0.221615,0.06034097
1.217064,-0.1981179,-0.1236077
1.079833,-0.2149435,-0.1486241
1.1564,-0.3293463,-0.08126938
1.223482,-0.4101359,-0.08081432
1.212148,-0.434429,-0.08328557
1.244534,-0.338123,-0.03171528
1.319349,-0.2370333,0.02556198
1.337083,-0.2148604,0.03763837
1.166591,-0.1802119,0.04912414
0.8815377,-0.1469966,0.08621469
0.7843974,-0.1103346,0.0858527
0.738375,-0.08162071,0.0802469
0.6005693,-0.07597596,0.1194974
0.6103681,-0.07829008,0.1309266
0.6043254,-0.1337685,0.1407898
0.5607263,-0.1767228,0.1944308
0.6445763,-0.168676,0.2191601
0.6439444,-0.1295249,0.231223
0.6222571,-0.05427004,0.2554149
0.6566634,0.01522023,0.2866656
0.7405245,0.07853953,0.3309828
0.9935959,0.08332428,0.3536847
1.222348,0.01473338,0.3533107
1.340185,-0.06190302,0.28041
1.415908,-0.09885954,0.2375504
1.475302,-0.02304942,0.4518993
1.611264,0.02683311,0.6095203
1.679832,-0.1249015,0.2888785
1.560181,-0.3811056,-0.04670917
1.222409,-0.5211914,0.06279606
0.7616863,-0.4310336,0.1084117
0.6762837,-0.3342994,-0.01944717
0.8758364,-0.3206856,0.05816712
0.8665101,-0.1927869,0.02328592
0.9335697,-0.1379944,-0.07457239
1.077719,-0.2362105,0.03534701
0.9729406,-0.2155501,0.03539594
0.8918459,-0.1672155,0.01091645
0.7768731,-0.1441393,0.04361403
0.6456569,-0.08721802,0.0156256
0.7838449,-0.1142769,0.03812482
0.8813751,-0.09910562,0.02841713
0.9130899,-0.01299186,0.01984145
0.950235,0.03441898,0.03245463
0.8579169,0.08776591,0.001846336
0.8541411,0.07412354,0.02695566
0.9192097,0.03856054,0.04025607
0.9728662,0.05592166,0.06324603
1.026163,0.07858598,0.1222517
1.016594,0.1184978,0.1361417
1.072273,0.06081263,0.157297
1.159321,-0.08274591,0.1668434
1.201813,-0.1240175,0.1631161
1.189287,-0.03465264,0.1527033
1.142338,0.03805194,0.1303474
1.185967,-0.09678637,0.1142777
1.195918,-0.2529603,-0.001244458
1.169088,-0.2118724,-0.1427922
1.217145,-0.2016519,-0.1267738
1.263018,-0.2843517,-0.08327352
1.334596,-0.3418948,-0.143919
1.375413,-0.3694288,-0.1396422
1.43932,-0.3208305,-0.01290047
1.554067,-0.2725405,0.07063787
1.374925,-0.258852,0.05486245
1.01609,-0.1708466,0.01960656
0.8321738,-0.08560887,0.04576066
0.7403011,-0.0784913,0.05122766
0.6542006,-0.08233697,0.02865391
0.5660742,-0.08689123,0.07828592
0.4851364,-0.1223916,0.1024881
0.476526,-0.1855585,0.1514429
0.5258354,-0.2162437,0.2361607
0.6035306,-0.1668535,0.2301976
0.6573386,-0.08340846,0.2624516
0.6995473,-0.0004494727,0.3271578
0.8246135,0.06951748,0.3687865
0.997734,0.07913399,0.4320409
1.155265,0.04265737,0.4396063
1.285505,-0.006606359,0.3753431
1.395258,-0.0545486,0.3345621
1.460592,-0.02186183,0.4606437
1.474524,0.1106824,0.5579273
1.543404,0.1438683,0.3068067
1.565111,-0.1800376,0.04312259
1.353804,-0.5647897,0.09521871
0.999803,-0.4815963,0.150088
0.7596019,-0.3259723,0.05108296
0.8138431,-0.3618035,0.003569632
0.8934788,-0.1306219,-0.01281737
0.8714909,-0.008017423,-0.02259649
0.9820483,-0.1892462,0.02424988
0.9839068,-0.1559487,0.01914235
0.7989051,-0.1168722,0.02604663
0.7253302,-0.1434058,0.03867326
0.7633772,-0.09773749,-0.004012952
0.8762815,-0.1213044,0.02719998
0.936502,-0.0589885,0.03557548
0.8898396,0.01248639,0.01614679
0.8622494,0.0418082,0.04422462
0.8329629,0.1105761,0.02503151
0.8573301,0.0824991,0.03286479
0.9386091,0.08220285,0.07039704
1.004551,0.1067816,0.09766467
1.032283,0.08869671,0.1245839
1.031586,0.08016539,0.1311293
1.118914,-0.04306384,0.213139
1.16594,-0.1594203,0.2709047
1.119177,-0.08924059,0.1900788
1.147263,0.08853043,0.1355854
1.166288,0.1644554,0.1628674
1.180382,-0.04945882,0.1543797
1.205285,-0.2990487,0.05279794
1.113408,-0.2443945,-0.0684726
1.044944,-0.164774,-0.1240208
1.179328,-0.2768792,-0.09435469
1.350177,-0.2967066,-0.05775052
1.347952,-0.2961045,-0.06142312
1.343991,-0.3384617,-0.006996534
1.420476,-0.2646048,0.06037032
1.339942,-0.252718,0.06667217
1.070487,-0.1821907,0.06297516
0.7956288,-0.05602839,0.04753837
0.7372872,-0.1149704,0.04883686
0.73158,-0.1207278,0.06200079
0.5442344,-0.1050077,0.07492037
0.5236577,-0.1425348,0.102607
0.5943323,-0.1414647,0.1279664
0.5380697,-0.1923808,0.1887394
0.6297682,-0.1739942,0.2299665
0.6843342,-0.1006439,0.2305741
0.6850159,-0.04459484,0.2604316
0.8302262,0.0381991,0.2949879
0.9496933,0.05258803,0.3466459
1.134917,0.0438782,0.3621527
1.294907,0.02049304,0.2663345
1.341413,-0.02793285,0.2200532
1.493226,-0.01176871,0.3935688
1.614136,-0.006664189,0.5408154
1.595397,-0.09364461,0.3172188
1.479805,-0.3386807,0.07689259
1.217189,-0.5854088,0.1361656
0.8613614,-0.4765047,0.1243897
0.7585095,-0.2670776,0.04720726
0.9331104,-0.2414271,0.04723179
0.9183135,-0.1137296,-0.03601894
0.9115893,-0.05308181,-0.009950337
0.9995861,-0.1727388,0.07651832
0.8496512,-0.12631,0.0317903
0.7509425,-0.1169291,0.05434495
0.7365141,-0.1740961,0.0471501
0.744974,-0.1264741,0.006707536
0.8650164,-0.1466591,0.04470041
0.9088762,-0.09878791,0.01112409
0.9504561,-0.02195703,0.008885922
0.9117864,0.008686658,0.02058053
0.8306481,0.1105627,-0.01101826
0.9342051,0.07564226,0.01771746
0.9968887,0.02164326,0.03123501
1.022557,0.0848558,0.09528842
1.057804,0.06790766,0.1799987
1.052401,0.0127531,0.2020131
1.123516,-0.02478346,0.2305839
1.156939,-0.01235953,0.1563828
1.144476,0.05694792,0.06439347
1.189718,0.04640227,0.09698469
1.223017,-0.1210372,0.0815064
1.170003,-0.3107334,-0.04293455
1.100038,-0.2963554,-0.11678
1.170111,-0.2692985,-0.0603678
1.269094,-0.410445,-0.008492599
1.308112,-0.4332633,-0.03509071
1.360845,-0.3307916,-0.01530045
1.394773,-0.2454426,0.04375629
1.446319,-0.1898258,0.04298311
1.377825,-0.2306926,0.04910657
1.025798,-0.2147606,0.0787199
0.7128968,-0.1578652,0.0755802
0.7115119,-0.1585475,0.08389855
0.7219979,-0.09324963,0.08983373
0.5689604,-0.0935082,0.09639834
0.5884721,-0.1587409,0.1387733
0.6729659,-0.1670664,0.1805512
0.6307323,-0.1799567,0.2201003
0.6979487,-0.1318157,0.2248224
0.6904391,-0.07080475,0.2249662
0.6404367,-0.01814983,0.2715428
0.70496,0.09842444,0.2995768
0.6905369,0.1347262,0.3037587
0.8852267,0.05770881,0.2616995
1.281878,-0.07059456,0.1309057
1.485257,-0.2026396,0.04956284
1.520623,-0.1517274,0.2566555
1.562611,0.03461903,0.5246809
1.617564,0.08065281,0.3875875
1.514142,-0.05378059,0.1643584
1.420376,-0.3419922,0.1417928
1.213632,-0.5819271,0.1083192
0.7896522,-0.4788239,0.1383756
0.8005701,-0.3093635,0.0970314
0.9553019,-0.2157615,-0.02357002
0.8668688,-0.06516751,0.0002231911
0.9541473,-0.105813,-0.01947404
0.984737,-0.1909293,-0.01664019
0.8393356,-0.1294843,0.01056265
0.7579354,-0.1751761,-0.03007351
0.7368007,-0.2007115,0.01161462
0.8002598,-0.1658811,-0.005357629
0.8638847,-0.1707747,-0.02082148
0.9133681,-0.05827107,0.01641957
0.9317816,0.03613205,-0.009355053
0.9075649,0.04101084,0.0266579
0.9790848,0.06513782,0.04372037
1.021913,0.06743078,0.04320657
0.9891938,0.09241346,0.09241712
1.006783,0.1069707,0.1398929
1.037936,0.03622179,0.2054431
1.102888,-0.09872938,0.1881057
1.154605,-0.157484,0.1363387
1.131392,0.03579375,0.1254913
1.127978,0.2186471,0.1486966
1.14069,0.1139634,0.1852227
1.120862,-0.08520756,0.04134145
1.068025,-0.1901545,-0.1489172
1.051398,-0.2082548,-0.1501382
1.210752,-0.2825911,-0.0897409
1.434929,-0.4522294,-0.07349772
1.44729,-0.4340064,-0.07650139
1.390354,-0.2802417,-0.01848496
1.504175,-0.2562927,0.08238384
1.526784,-0.1923322,0.1090739
1.253577,-0.1620194,0.07824702
0.8910169,-0.2020861,0.06729807
0.7193203,-0.09979241,0.075778
0.7166828,-0.1023597,0.07098063
0.6178376,-0.1426092,0.07904109
0.5435381,-0.1050038,0.09720514
0.5887995,-0.1705867,0.1093334
0.5946112,-0.1837557,0.1520775
0.6681274,-0.2004112,0.1975577
0.7119353,-0.2044673,0.2328148
0.6334925,-0.1113393,0.2601534
0.6308362,-0.06000003,0.2630301
0.7054973,0.07925608,0.2984154
0.8647199,0.2023698,0.3623962
1.108153,0.157708,0.355063
1.355809,0.05543496,0.2453891
1.469002,-0.02177037,0.2105666
1.381141,0.07327472,0.4619855
1.35689,0.2368533,0.7184226
1.370543,0.2218202,0.53962
1.30108,-0.1374228,0.2022494
1.314364,-0.669218,0.0705265
1.243932,-0.7658427,0.01230605
1.022475,-0.4629244,0.04364937
0.8844263,-0.2650198,0.08788546
0.8510975,-0.1284329,0.04342782
0.8917144,-0.02305566,0.07676269
0.962869,-0.09604514,0.03641542
1.00032,-0.1537885,-0.03509003
0.9211697,-0.1242708,0.01333515
0.7459762,-0.1306655,0.00479969
0.7113832,-0.1113688,0.01782619
0.7847701,-0.0836973,0.02560887
0.8593883,-0.07022936,-0.01134432
0.9828977,-0.02195652,0.01450545
0.9876411,0.01754044,0.01012443
0.8857773,0.0720828,0.03377076
0.8681124,0.1112064,0.0694809
0.8924777,0.09390621,0.06584504
0.9266755,0.1148881,0.09769096
0.9627387,0.1450007,0.1035788
1.003513,0.1130857,0.122035
1.094394,0.008669161,0.1635931
1.186737,-0.163915,0.178261
1.209238,-0.2126175,0.1773592
1.134747,-0.01903876,0.1613647
1.092569,0.118816,0.1943206
1.189491,-0.02161677,0.188302
1.245184,-0.1962608,0.02802948
1.154522,-0.2161283,-0.1495906
1.089495,-0.2029513,-0.1596962
1.190039,-0.2338805,-0.06714753
1.33712,-0.3029141,-0.06158964
1.378163,-0.3490613,-0.05908386
1.364175,-0.2984438,-0.02632608
1.36951,-0.2375808,-0.04123612
1.356415,-0.2138318,-0.009603144
1.150945,-0.1988486,0.02225796
0.8267075,-0.1952402,0.0445236
0.74606,-0.157827,0.08660612
0.7662681,-0.1208015,0.06667711
0.6417743,-0.1092975,0.06735614
0.5828647,-0.100626,0.0844175
0.6018091,-0.140182,0.09848254
0.604083,-0.1744715,0.1636202
0.6432773,-0.1623417,0.1898452
0.6474503,-0.1244566,0.192047
0.629702,-0.05039804,0.2226745
0.6700791,0.003776671,0.2703745
0.7702162,0.02653644,0.3194504
0.991384,0.0249638,0.3228423
1.24635,-0.01876596,0.3051932
1.360384,-0.04155521,0.2948459
1.362979,-0.009350726,0.3107506
1.358871,0.02764689,0.3333595
1.39345,0.02452503,0.3095556
1.449026,0.02484849,0.2702484
1.508627,-0.03299497,0.2274268
1.452816,-0.342829,0.1972198
1.169296,-0.6558682,0.1856895
0.9253033,-0.5593459,0.1561625
0.9060382,-0.335775,0.09682384
0.8601437,-0.2462839,0.002839378
0.7467132,-0.05154386,-0.02341426
0.8206654,0.0223809,0.002594417
0.9794747,-0.1420901,-0.02258552
1.01347,-0.150485,0.01129625
0.9362489,-0.1269508,0.04789014
0.7551394,-0.1510374,0.02757526
0.7224986,-0.1099966,0.05560178
0.8288418,-0.1100111,0.04745569
0.8379601,-0.05777375,0.03583979
0.9426154,-0.02806741,0.05049019
0.965053,-0.02429773,0.01611487
0.8840908,0.0561351,0.01914345
0.9719792,0.04997797,0.03261142
0.9796733,0.05136553,0.05224059
0.9941471,0.09989341,0.1151676
1.055068,0.1064498,0.1534157
1.034629,0.07529217,0.1775664
1.123253,-0.02197718,0.180276
1.164494,-0.04069145,0.1879162
1.124156,0.02081076,0.1961555
1.137888,0.03939606,0.175497
1.155762,-0.01283751,0.2009008
1.17337,-0.1380836,0.178987
1.089888,-0.2002642,0.01338306
1.02037,-0.1923576,-0.1340318
1.142436,-0.231982,-0.08331651
1.313852,-0.3206185,0.002226782
1.386888,-0.3567816,-0.07802301
1.381587,-0.2919406,-0.07531746
1.417148,-0.2498523,0.03883556
1.42538,-0.2355658,0.06654982
1.230279,-0.2064871,0.0817116
0.9385826,-0.1873645,0.06246265
0.7826253,-0.1425395,0.06354803
0.7086888,-0.1124059,0.1010141
0.6204336,-0.09932189,0.07512914
0.6269794,-0.1035193,0.09575405
0.6210578,-0.1493463,0.1125975
0.5912346,-0.174069,0.1390753
0.67067,-0.185179,0.215249
0.6826125,-0.1370252,0.2091001
0.65683,-0.03605341,0.2199235
0.6725471,0.005973373,0.2511439
0.6961534,0.03254541,0.2724616
0.865853,0.04573303,0.3350943
1.109113,0.02024965,0.3302743
1.298976,-0.002167845,0.2519321
1.383736,-0.02770086,0.222406
1.409496,-0.02102468,0.4166229
1.513308,0.09046679,0.620871
1.563482,0.1705907,0.4117935
1.516662,-0.104338,0.1019546
1.37711,-0.4846512,0.05507158
1.023393,-0.4589316,0.08599942
0.7265507,-0.3404945,0.08076882
0.7786655,-0.3295554,0.03578367
0.8983562,-0.1471602,-0.01531303
0.8822961,-0.06093457,-0.01927544
0.9657568,-0.1819157,-0.004221569
1.021589,-0.1892948,0.03368807
0.8957847,-0.1510127,0.03821398
0.8169952,-0.1564766,0.01003905
0.7506907,-0.149646,0.01876164
0.7764691,-0.1507042,0.003984292
0.9242037,-0.1126414,0.003202296
0.9529841,-0.05867103,0.02050318
0.9325547,-0.02306655,-0.005590523
0.8737538,0.02126729,-6.243656e-05
0.8466612,0.03389082,0.02292399
0.9334508,0.02899134,0.05853233
0.985777,0.0674984,0.1120438
1.043614,0.1285385,0.1377452
1.060359,0.1297966,0.1735122
1.065913,0.0509801,0.1842224
1.147342,-0.03731298,0.1721443
1.161054,-0.06585298,0.1776865
1.142523,-0.03774312,0.1639217
1.136948,-0.06324441,0.1558302
1.170909,-0.1851444,0.1358065
1.222639,-0.2836869,0.07770545
1.208209,-0.2571751,-0.005778395
1.267832,-0.1992937,-0.09605322
1.346684,-0.2463203,-0.0868489
1.316676,-0.3132294,-0.0359087
1.297046,-0.354432,-0.05347001
1.314503,-0.3643538,-0.0211918
1.288467,-0.2896895,0.03400813
1.191829,-0.2471865,0.03389893
1.077618,-0.2143888,0.04830774
0.9525583,-0.1731771,0.03018862
0.7969653,-0.1830817,0.02377697
0.7074847,-0.1411049,0.07155672
0.6784066,-0.131834,0.08555527
0.5931561,-0.1268426,0.1098472
0.5769941,-0.08446561,0.1268766
0.6715642,-0.1474293,0.1501322
0.6795058,-0.1551021,0.1967822
0.7004208,-0.0961987,0.1780256
0.7390667,-0.05604286,0.1915552
0.6954187,-0.003855637,0.2368123
0.7388924,-0.01836616,0.2522942
0.8314408,0.001242137,0.2911224
0.9977303,0.03021944,0.2916704
1.21751,-0.03042336,0.2566481
1.279718,-0.09340505,0.2465664
1.318897,-0.1131511,0.3174061
1.358284,0.0007190014,0.4738091
1.377242,0.1118924,0.5188071
1.49355,-0.02260638,0.3441936
1.537218,-0.33863,0.1258783
1.303535,-0.568379,0.04675177
0.913547,-0.4370973,0.02769401
0.7323094,-0.2111089,0.01664255
0.75542,-0.2221608,0.04139694
0.8124468,-0.1826111,-0.01289495
0.9812565,-0.1261327,-0.03981854
1.062572,-0.2058309,0.03037789
0.9575562,-0.1566211,0.0418721
0.8560326,-0.1119891,0.04258003
0.7922183,-0.1322971,0.03865704
0.8036578,-0.0826426,0.03155143
0.86161,-0.1083073,0.04898209
0.9016617,-0.07568098,0.02678587
0.9140173,-0.004408723,0.02914091
0.8937779,-0.007202536,0.02614327
0.8999015,0.0369974,0.0180857
0.9096148,0.01792591,0.05115554
0.9130589,0.01831601,0.04679804
0.9438922,0.06952274,0.07705105
0.991124,0.05973092,0.1303893
1.086559,0.06335374,0.1512046
1.171526,-0.008599968,0.2047903
1.18213,-0.04818489,0.2395945
1.185999,0.05665242,0.1992026
1.215798,0.1188059,0.1399321
1.274113,0.03866369,0.1600911
1.31472,-0.1598112,0.1508842
1.225485,-0.278917,0.005165539
1.091372,-0.2620254,-0.07881762
1.105111,-0.2496878,-0.02862516
1.20084,-0.2893157,0.02294708
1.264913,-0.3237808,0.003604292
1.317487,-0.2663973,0.005846614
1.342049,-0.2016048,0.06940308
1.337114,-0.1609241,0.07305975
1.193863,-0.1491265,0.06332745
0.887109,-0.1774613,0.05276769
0.7358923,-0.138759,0.03726363
0.7334309,-0.1268384,0.09036291
0.6510716,-0.1331189,0.1104899
0.6120397,-0.1083445,0.1116722
0.632246,-0.1540958,0.1427345
0.6313514,-0.1742444,0.1743935
0.6861525,-0.1728968,0.2091322
0.7264302,-0.1574698,0.2083962
0.6883653,-0.07637325,0.2411627
0.6819439,-0.0135425,0.3058892
0.7658586,0.04182909,0.3524739
0.9554401,0.04167063,0.3758087
1.194448,0.006089407,0.3382615
1.303564,0.01487948,0.2806395
1.305369,-0.003515089,0.2506387
1.38715,0.00120118,0.4521501
1.48799,0.02542827,0.6560559
1.526423,-0.0503956,0.2785982
1.537503,-0.3106339,-0.09730009
1.324263,-0.5925395,0.09768293
0.9359464,-0.4880492,0.1768209
0.8247573,-0.2747208,0.01598249
0.8892758,-0.2803901,0.03328483
0.8446049,-0.1091515,-0.01154646
0.8663713,-0.001902997,-0.08572517
0.9277233,-0.1851306,0.03821912
0.9247978,-0.1769355,0.0838643
0.8761076,-0.1245728,0.065284
0.7428628,-0.1505247,0.09110948
0.7225498,-0.1073511,0.07078387
0.8271476,-0.1199258,0.07369568
0.9068944,-0.05442079,0.04712185
0.988382,0.0229383,0.02490045
0.9528187,0.02693765,0.05053289
0.888248,0.07340503,0.03398201
0.9167923,0.05095546,0.05025947
0.9160216,0.04739003,0.06919898
0.9617317,0.06028188,0.09159678
1.027288,0.02911793,0.1512585
1.062636,0.0304917,0.1634434
1.153636,-0.04489429,0.187649
1.180043,-0.09180376,0.2089767
1.129545,-0.02556598,0.1395264
1.123244,0.01555493,0.06746031
1.167559,-0.02913821,0.1026565
1.206235,-0.2010828,0.1208986
1.175151,-0.3458573,-0.01082687
1.152371,-0.2877209,-0.09787011
1.196579,-0.2138263,-0.04733808
1.240946,-0.3235374,-0.01590169
1.274404,-0.3926507,-0.03405086
1.303432,-0.3147442,-0.007521258
1.353136,-0.2645196,0.0477104
1.412093,-0.1833596,0.03021918
1.341019,-0.1555823,0.02033932
1.073933,-0.1954695,0.05034499
0.7768998,-0.1325119,0.04333276
0.6789005,-0.1472603,0.06095482
0.6670159,-0.1838119,0.09655943
0.5565436,-0.1424976,0.1232268
0.5557007,-0.1768908,0.141489
0.6224333,-0.1929566,0.1499548
0.5991762,-0.1866439,0.1983348
0.6700185,-0.1669027,0.2274535
0.6886791,-0.06110644,0.244274
0.6357173,0.0354769,0.3062119
0.7327035,0.09837765,0.3722372
0.8672747,0.1027614,0.4197153
1.102322,0.04956828,0.3909854
1.321836,-0.01797858,0.3006434
1.353777,-0.1083659,0.2681267
1.4521,-0.08761289,0.4162151
1.567049,0.07679813,0.5604887
1.599759,0.128336,0.3012576
1.564921,-0.1639008,0.03009754
1.298501,-0.4991193,0.1858598
0.9017764,-0.4014278,0.2317975
0.7274572,-0.2592192,0.04505678
0.8131172,-0.2973817,0.004202548
0.8672437,-0.09630047,-0.004920976
0.9343338,-0.01605834,-0.03205798
1.02432,-0.1625733,0.01853261
0.9011099,-0.1015856,0.07606946
0.7958629,-0.1053255,0.09387145
0.7843779,-0.1521514,0.05938444
0.7449004,-0.1087587,0.04556426
0.8149093,-0.1483231,0.06068581
0.893832,-0.09704362,0.04093213
0.9012398,-0.03554221,0.03253336
0.8772409,-0.02212229,0.02352829
0.8543194,0.02005005,0.01239345
0.9201392,-0.01872211,0.03190197
0.9802906,-0.00593987,0.0594152
1.003489,0.05321499,0.1051014
1.052526,0.0784453,0.1409143
1.107017,0.05372779,0.1505794
1.15983,-0.08010226,0.1880588
1.177984,-0.1173565,0.2336713
1.141519,0.02911767,0.188476
1.106905,0.1413831,0.1223122
1.159749,-0.02355042,0.1336315
1.209864,-0.2764845,0.02980896
1.157342,-0.2605496,-0.1504314
1.150048,-0.2307486,-0.1409691
1.230015,-0.3116856,-0.06560711
1.287203,-0.3300466,-0.04767546
1.281338,-0.3323963,-0.01475101
1.278178,-0.2727971,0.0186913
1.327347,-0.2022044,0.06141239
1.290515,-0.1812066,0.0899218
1.088774,-0.1436405,0.06147046
0.8278534,-0.1047413,0.05450062
0.706872,-0.05584092,0.06601042
0.7438968,-0.06255978,0.0584061
0.6787394,-0.09035341,0.09739611
0.5880074,-0.09794463,0.1519072
0.6220661,-0.161927,0.1805793
0.6278167,-0.1776815,0.206128
0.647482,-0.1564851,0.2129967
0.6890386,-0.1566123,0.2314835
0.6657847,-0.1043127,0.2571038
0.6555696,-0.01689379,0.2769489
0.6945951,0.0823847,0.3261039
0.8495961,0.1190226,0.3625442
1.126795,0.06648587,0.3651111
1.320005,0.00288173,0.3393669
1.33722,-0.04748805,0.3206588
1.346574,-0.02176993,0.4045843
1.396773,0.1127182,0.5059081
1.38981,0.2067492,0.4521711
1.414528,0.00783021,0.2563054
1.433883,-0.4152305,0.06156675
1.26782,-0.6041234,0.0314009
1.007454,-0.4289481,0.08480013
0.8363602,-0.24134,0.0196176
0.7865988,-0.2024696,-0.01238454
0.8031966,-0.1471958,0.03951115
0.9050459,-0.1232771,0.0135599
1.014321,-0.193238,0.02653812
0.9651119,-0.1780537,0.05771974
0.8545498,-0.1484552,0.03203293
0.7840672,-0.1444262,0.05287262
0.7674193,-0.0922327,0.05134884
0.8614613,-0.08303672,0.04651856
0.9392449,-0.0431986,0.06495416
0.9149607,0.007471944,0.04220168
0.8945427,0.01186299,0.04461919
0.8992571,0.04163353,0.04927922
0.9131832,0.03984571,0.06027668
0.9372743,0.07962977,0.1102299
0.9412559,0.1380042,0.1485549
0.9676621,0.1065855,0.1812881
1.062593,0.05257861,0.1852611
1.16721,-0.04982455,0.1755738
1.212805,-0.1051257,0.176784
1.201523,-0.004164274,0.1697007
1.20285,0.08462976,0.1835052
1.226436,0.0358274,0.1782702
1.203965,-0.07614397,0.07594665
1.156853,-0.1420745,-0.105066
1.131924,-0.1623603,-0.1870679
1.156273,-0.242928,-0.07819566
1.224507,-0.4071194,-0.007883064
1.233058,-0.4193505,-0.05580139
1.21443,-0.305846,-0.04247537
1.251252,-0.3008878,0.009298776
1.302165,-0.2355176,0.01807429
1.298408,-0.1723061,0.0381619
1.062593,-0.2100845,0.06818214
0.7499751,-0.1394095,0.08782315
0.7319609,-0.1057908,0.09579336
0.7416206,-0.1178601,0.08956604
0.6125224,-0.08722576,0.1117077
0.6391074,-0.1240101,0.1463733
0.6795385,-0.1504915,0.1827345
0.6588428,-0.1858192,0.2287202
0.7245946,-0.1831854,0.2324195
0.6882319,-0.08289759,0.2353112
0.624435,-0.02251384,0.2689079
0.6836409,0.03241738,0.3048318
0.7736701,0.08422027,0.3570369
0.9646913,0.09501117,0.3827528
1.158621,0.0525937,0.3551238
1.293314,-0.04481218,0.2898506
1.408582,-0.07583528,0.2685325
1.394181,-0.04599912,0.4319097
1.42885,0.05743541,0.576437
1.541306,0.1220716,0.3697782
1.528315,-0.1615293,0.1163914
1.350717,-0.4829281,0.1694711
0.9880365,-0.3979726,0.1773337
0.76659,-0.2536274,0.03833409
0.8179389,-0.2467974,0.007649651
0.8368115,-0.1015464,-0.02641197
0.895686,-0.0473221,-0.04786963
0.9816417,-0.1803813,0.01441502
0.9156088,-0.1721443,0.06583853
0.8264297,-0.146148,0.1032535
0.7744864,-0.1475636,0.06882983
0.7578301,-0.1276381,0.04181924
0.8343537,-0.1607048,0.05330821
0.9352636,-0.1050145,0.02559613
0.9352671,-0.04348766,0.04212844
0.8888571,-0.003326376,0.04471827
0.9043599,0.06101937,0.03670445
0.9388883,0.04119666,0.06710509
0.9780676,0.0486719,0.07365666
0.9932959,0.06933188,0.1128659
1.005734,0.06372489,0.1439033
1.092671,0.03692427,0.1499606
1.144288,-0.07979918,0.1826851
1.14978,-0.1201747,0.1922499
1.153104,-0.02633112,0.1720053
1.130863,0.08259381,0.1390112
1.152903,0.07436425,0.1581529
1.146554,-0.1169777,0.1512075
1.049036,-0.2873153,-0.02601083
0.9994845,-0.2804442,-0.1750563
1.124181,-0.2419177,-0.1165566
1.319185,-0.3412078,-0.03745316
1.328324,-0.4049367,-0.06791979
1.284699,-0.3282065,-0.02027888
1.378365,-0.2870649,0.08428481
1.410058,-0.244585,0.07291626
1.282348,-0.1817644,0.07510775
1.005927,-0.110651,0.09086618
0.7523728,-0.0373017,0.07669186
0.7427874,-0.07979864,0.1039993
0.7260544,-0.09033597,0.109451
0.6118261,-0.05894445,0.1230043
0.6216574,-0.1080739,0.137576
0.6282407,-0.1289925,0.1510411
0.6093067,-0.1492791,0.2105442
0.6813211,-0.1356745,0.2207428
0.6816288,-0.05422582,0.2350098
0.6537931,-0.01272796,0.2871979
0.708134,0.03817482,0.3199964
0.8127879,0.07658583,0.3703723
1.059247,0.05598486,0.3852429
1.271207,0.009419019,0.3382957
1.312308,-0.0712276,0.2970593
1.37627,-0.09504524,0.3205497
1.442491,-0.0198596,0.4251316
1.469216,0.03810983,0.473623
1.491638,-0.0493408,0.2843207
1.452444,-0.324896,0.05216483
1.246705,-0.5603227,0.09083279
0.9025148,-0.4432014,0.1109624
0.7746576,-0.2284879,-0.02561707
0.8485702,-0.2558222,-0.006925513
0.855389,-0.2039593,0.0002477445
0.9468819,-0.1143399,-0.02120275
1.013432,-0.208314,0.09733913
0.879441,-0.139813,0.1026265
0.7791686,-0.06467259,0.0617732
0.7618181,-0.1126675,0.07961101
0.7969423,-0.06897212,0.06893558
0.8653951,-0.09556368,0.09883279
0.8957017,-0.07064829,0.07732967
0.9243036,0.02513006,0.0489373
0.9131437,0.04398126,0.07185276
0.9009987,0.08698221,0.04977628
0.928863,0.06642935,0.0637985
0.9219738,0.06439978,0.08178334
0.9427183,0.08697887,0.0892281
1.010617,0.03899835,0.1239021
1.113183,0.01297725,0.1236284
1.20731,-0.08255104,0.1372072
1.192847,-0.1155127,0.154197
1.146201,0.02860377,0.1492085
1.128558,0.1018095,0.1609031
1.171696,-0.02322056,0.1617757
1.218852,-0.1896989,0.09228773
1.090707,-0.1829604,-0.06349173
0.9931457,-0.1963203,-0.1459277
1.153486,-0.3191185,-0.07572467
1.299249,-0.3583763,-0.02178043
1.254195,-0.3712814,-0.01807295
1.239788,-0.2963186,0.03903391
1.340499,-0.1608262,0.07228185
1.349221,-0.111332,0.0419436
1.16194,-0.08438744,0.07179804
0.8882933,-0.1069592,0.09842982
0.7699596,-0.1093625,0.0808017
0.7969156,-0.08535952,0.101909
0.7008618,-0.1054334,0.1017162
0.6407986,-0.07097493,0.1002154
0.6924813,-0.0701357,0.1273571
0.6453192,-0.1174457,0.1584841
0.6845403,-0.1317515,0.2153198
0.7625279,-0.1267192,0.2296237
0.691326,-0.06662873,0.2353236
0.6697149,-0.02343676,0.2840742
0.7009821,0.006250492,0.3188485
0.7903397,0.05859887,0.3522157
1.010265,0.07065585,0.3635704
1.173256,0.02785949,0.3373923
1.234087,-0.07268935,0.2933852
1.317007,-0.109633,0.2670202
1.485597,-0.07027333,0.3286373
1.672314,-0.09148762,0.3752323
1.675706,-0.1863884,0.286349
1.439972,-0.325314,0.2044466
1.079899,-0.3591106,0.2163916
0.7611533,-0.2475867,0.1182102
0.7102972,-0.1450671,-0.07899638
0.862147,-0.1007443,-0.09447748
0.9487419,-0.1617001,-0.01976072
0.9972868,-0.2701036,-0.004493779
0.9703326,-0.2836846,0.05677135
0.8378144,-0.2187595,0.06899428
0.8127882,-0.1373011,0.01673198
0.8258398,-0.1008765,0.03956196
0.8525475,-0.09473521,0.05414977
0.945354,-0.07257587,0.05596713
0.9420413,-0.05553354,0.06741681
0.9082922,0.0002356383,0.02684785
0.906076,0.05405098,0.01555986
0.9286125,0.03906796,0.02952737
0.9855668,0.03943254,0.03719086
0.9705478,0.05753557,0.07714516
0.9652823,0.07119417,0.1080451
1.010108,0.07594423,0.1371582
1.062541,0.003585436,0.1507275
1.155615,-0.1106353,0.1325011
1.184323,-0.1351509,0.122624
1.133937,0.01017329,0.1114298
1.122922,0.1230988,0.1483216
1.207915,-0.03210183,0.2362274
1.268787,-0.1784667,0.2340599
1.126522,-0.09888688,0.03233953
0.9675179,-0.06673543,-0.2054915
1.024849,-0.1518109,-0.1697367
1.170924,-0.2864385,-0.01155271
1.254575,-0.4848056,0.003671619
1.246102,-0.471936,0.00710736
1.225796,-0.2930648,0.03416124
1.324663,-0.2229837,0.05530702
1.384593,-0.1163955,0.07625888
1.197965,-0.1129107,0.04800366
0.9199635,-0.2063876,0.0742258
0.7722812,-0.1281861,0.105308
0.7666317,-0.1419531,0.08342661
0.7258477,-0.1644197,0.1118103
0.6392589,-0.1044653,0.1282067
0.6688704,-0.1818741,0.1668691
0.7040489,-0.1807716,0.2233267
0.7147633,-0.1424279,0.2074515
0.7498741,-0.1185944,0.2128693
0.7058097,-0.02061222,0.2351163
0.6961317,-0.006768212,0.2604017
0.7563417,0.02741701,0.3039551
0.8382271,0.04998878,0.3219469
1.039086,-0.007445968,0.3187332
1.263812,-0.03347533,0.2641978
1.335058,-0.117164,0.1845287
1.268446,-0.1976129,0.1934772
1.252611,-0.156336,0.3859837
1.280641,0.1137405,0.5618237
1.259631,0.3824245,0.3773902
1.351051,-0.06288011,0.1715192
1.409774,-0.1045113,0.1389394
1.490088,-0.06339624,0.3521653
1.567988,0.1083319,0.6175527
1.547885,0.2008658,0.4436763
1.540384,-0.06860256,0.1512376
1.485937,-0.5403925,0.1240883
1.270593,-0.6569273,0.1086928
0.8941227,-0.4036174,0.06263688
0.67712,-0.2653825,-0.02113915
0.8186695,-0.2491711,-0.08442456
0.9060409,-0.1674099,-0.03800517
0.851575,-0.1177051,-0.07199811
0.9278993,-0.1629867,-0.0530802
0.9360403,-0.1723959,0.01603313
0.788837,-0.1195688,-0.00855455
0.7274404,-0.1214002,0.03430804
0.7491799,-0.1221081,0.01610906
0.8519085,-0.1025906,-0.02763413
1.000196,-0.08560647,0.002380184
1.016744,-0.0175368,-0.02533199
0.9412138,0.07433476,0.004434109
0.8861618,0.1890883,0.03312456
0.9080902,0.189233,0.02341202
0.9327982,0.09990464,0.05608127
0.9023495,0.1231095,0.07991162
0.9333211,0.1007147,0.1319204
1.003472,0.04045901,0.1255645
1.124091,-0.001169828,0.1076594
1.226814,-0.09659768,0.1538925
1.160332,-0.07235894,0.122717
1.110013,-0.04516625,0.07836878
1.109204,-0.1084711,0.05021278
1.086715,-0.1296417,0.01282806
1.109051,-0.2664912,-0.03745836
1.085939,-0.4148122,-0.137584
1.112058,-0.3479425,-0.1264423
1.364869,-0.2674324,-0.09508016
1.632422,-0.2936663,-0.228507
1.611919,-0.2897635,-0.2745227
1.444544,-0.2396439,-0.1223007
1.408058,-0.208312,0.008489665
1.287234,-0.1651244,-0.01667746
1.011904,-0.146669,-0.03964394
0.8262226,-0.1454303,0.04758099
0.6875205,-0.1119607,0.03007847
0.6264837,-0.1166794,-0.002500714
0.6050903,-0.1139021,0.07952011
0.5213406,-0.1062144,0.08869716
0.5644949,-0.146528,0.1048775
0.6454131,-0.1612982,0.1449602
0.6685047,-0.1457846,0.1570882
0.7488306,-0.0958232,0.2072093
0.7641871,-0.04461633,0.2033462
0.7281336,-0.02036999,0.223884
0.7577175,0.01926675,0.2831548
0.8658375,0.04741939,0.2810693
1.099963,0.06191599,0.2418085
1.308054,0.04725201,0.09432569
1.346748,0.00923923,0.02491325
1.336261,0.01692653,0.2476422
1.37929,0.1073922,0.4413798
1.484031,0.1778072,0.2690582
1.610176,-0.07608656,0.002524575
1.610032,-0.5657236,-0.01261898
1.266082,-0.7532091,0.03655888
0.807393,-0.5327147,0.06141264
0.7923088,-0.2715341,0.0680081
0.9506791,-0.1469316,-0.01795288
0.8833264,-0.07468058,-0.03481417
0.9758298,-0.09298718,-0.03593733
1.110568,-0.1676607,-0.06128666
0.96881,-0.1723995,-0.02539087
0.826929,-0.1924625,-0.03230901
0.7219267,-0.1831155,-0.04194989
0.7011853,-0.1367903,-0.04663895
0.8286061,-0.1457899,-0.04445661
0.89389,-0.1028721,-0.006921627
0.9350026,-0.0554224,-0.01768454
0.924661,-0.002445199,-0.0140412
0.8752828,0.09364633,0.0027155
0.9242415,0.1080324,0.00967376
0.9172791,0.1062031,0.03091609
0.8899846,0.1125419,0.02886779
0.9192873,0.1073962,0.06215607
0.9684734,0.1000215,0.09826703
1.125719,0.02347287,0.1092134
1.227186,-0.07779133,0.1324619
1.185018,-0.1057244,0.1086075
1.151894,0.05709787,0.09434595
1.150043,0.2069778,0.1528783
1.212054,0.0456462,0.1901972
1.269959,-0.09672616,0.09902217
1.179268,-0.02387889,-0.1043418
1.08941,-0.05695533,-0.2442796
1.195697,-0.2403254,-0.2215543
1.361274,-0.4098165,-0.1686855
1.409362,-0.4792763,-0.1589418
1.343278,-0.3886694,-0.0876039
1.251745,-0.2801044,-0.02902708
1.247636,-0.2304247,-0.04721685
1.164202,-0.1618097,-0.01130495
0.8979492,-0.1504928,0.02388909
0.7221963,-0.1275878,0.04800611
0.697368,-0.06689781,0.08583984
0.709622,-0.07461334,0.06181671
0.6634095,-0.04497682,0.0807373
0.5808429,-0.04709062,0.1030295
0.6133446,-0.0958382,0.09061849
0.6654004,-0.09708302,0.1542816
0.70349,-0.1471128,0.1979191
0.7327198,-0.1356499,0.2052799
0.6856057,-0.04644496,0.2346466
0.6896094,0.02385091,0.2854919
0.7188053,0.09335841,0.3210181
0.8251934,0.0572823,0.2698758
1.136479,4.285504e-05,0.1977978
1.354884,-0.01446324,0.1304288
1.339959,-0.09891339,0.1522319
1.397516,-0.1159926,0.3073938
1.552505,0.05966435,0.3786271
1.535208,0.2180306,0.3123827
1.527556,-0.00354842,0.1411612
1.564968,-0.4732566,-0.006337943
1.24583,-0.6369023,0.0301674
0.8374808,-0.4410458,0.04016682
0.7584927,-0.2363237,-0.03344748
0.8479756,-0.1995994,-0.04170434
0.8815943,-0.1746948,-0.05231236
0.90903,-0.1229628,-0.05237582
1.012068,-0.2062824,-0.002888126
0.9371815,-0.2115654,-0.002898635
0.7610581,-0.1460843,-0.01429282
0.7443421,-0.1689549,0.006599208
0.7553062,-0.1347909,-0.00942309
0.8505877,-0.127752,-0.01404922
0.9573481,-0.07559508,-0.01123402
0.9298519,0.04203231,-0.03803133
0.9266737,0.06626009,-0.02770497
0.9456267,0.1186941,-0.007419551
0.9545772,0.1294516,0.01545972
0.9346261,0.1190402,0.03306143
0.9130944,0.1475819,0.04734841
0.9704793,0.1028911,0.1119596
1.055578,0.04069778,0.1288052
1.165013,-0.07344193,0.118156
1.212687,-0.1143743,0.1485629
1.14312,0.0188855,0.1472732
1.107352,0.09102728,0.1438095
1.165966,0.01243516,0.1319885
1.209643,-0.1474604,0.07535375
1.158463,-0.2353518,-0.04224784
1.12953,-0.2125712,-0.1775848
1.186084,-0.215317,-0.1517563
1.301616,-0.2800929,-0.09839443
1.423151,-0.3315297,-0.1539617
1.36406,-0.3065293,-0.1041964
1.261815,-0.2709716,-0.02813675
1.29446,-0.2394942,-0.02817594
1.173219,-0.206191,0.01679463
0.8952114,-0.1910442,0.03369988
0.7449675,-0.1347767,0.03006029
0.704026,-0.09210998,0.03995932
0.6799169,-0.07701742,0.03424095
0.6152118,-0.07349164,0.07711561
0.560848,-0.1206448,0.1098797
0.6066453,-0.1528903,0.1326975
0.649439,-0.1637403,0.1777348
0.6688955,-0.1437222,0.1968384
0.6758612,-0.08375347,0.2307042
0.6612403,-0.01331287,0.2733513
0.7421785,0.07605897,0.3095332
0.9167731,0.1034451,0.3107083
1.1403,0.08569314,0.2522211
1.336175,0.06721862,0.1469336
1.402598,-0.00741046,0.06785464
1.436616,-0.03782233,0.2544833
1.500242,0.06288843,0.4578095
1.581453,0.118367,0.2428213
1.622442,-0.1159235,-0.01168298
1.439377,-0.443428,-0.01200031
1.030649,-0.4689574,0.01011844
0.7293775,-0.3545976,0.03186741
0.7933016,-0.2982236,0.03331679
0.925383,-0.1657455,-0.03554349
0.91301,-0.08060791,-0.04604921
1.013256,-0.146917,-0.01966536
1.061271,-0.1753912,-0.02499698
0.8853914,-0.1577973,-0.004358102
0.7541935,-0.1654569,0.02124975
0.7053836,-0.1481304,-0.004403029
0.7685005,-0.1511998,-0.03157734
0.896276,-0.1671557,-0.01734404
0.9198544,-0.1182591,-0.01995768
0.9031345,-0.04659267,-0.03707326
0.8657798,0.03714085,-0.02272457
0.9030308,0.1007596,-0.01523699
0.9866047,0.1132283,-0.007862088
0.974748,0.1565162,0.02478873
0.9924864,0.1765853,0.06606984
1.013803,0.08934435,0.113024
1.062792,-0.01412292,0.1419335
1.174318,-0.07192514,0.1520155
1.188976,-0.08425862,0.159791
1.143632,0.02127921,0.156534
1.090057,0.1725416,0.1501474
1.101742,0.104898,0.135645
1.121476,-0.1337387,0.05151356
1.028655,-0.2793558,-0.1077356
1.002538,-0.2660798,-0.1876098
1.105643,-0.21,-0.1586363
1.365341,-0.2792504,-0.1859943
1.605312,-0.3283636,-0.2206235
1.487898,-0.2741786,-0.1590902
1.333772,-0.2985984,-0.08244765
1.367909,-0.2577176,-0.00680729
1.297957,-0.1720539,0.02714771
1.088205,-0.1778419,-0.002656742
0.8251165,-0.1359178,0.01989605
0.6648141,-0.1125703,0.0401068
0.7191317,-0.1177757,0.02637244
0.6885759,-0.1099513,0.06844581
0.5728747,-0.1406591,0.09905393
0.6219644,-0.159273,0.1155157
0.6733653,-0.1854682,0.1591959
0.7027993,-0.1725835,0.191282
0.7396785,-0.1047498,0.22378
0.6919402,-0.02706842,0.2567756
0.7132186,0.06920757,0.297393
0.8294162,0.08891429,0.3303731
1.023747,0.06560312,0.3121726
1.251231,0.05963487,0.2153994
1.328333,0.02834636,0.0473187
1.349224,0.02011532,0.04799112
1.380432,0.06736335,0.4055761
1.396819,0.1756133,0.6905157
1.444874,0.1744401,0.3716784
1.494039,-0.2203468,-0.0856885
1.50508,-0.6822125,-0.05779632
1.242048,-0.6151045,0.0293678
0.8215377,-0.3516509,-0.02917727
0.7884121,-0.3134827,0.00951562
0.9133509,-0.1690263,-0.03216044
0.869384,-0.0718812,-0.06764054
0.9460784,-0.1859148,-0.02028799
1.033899,-0.1714711,-0.03769757
0.9269077,-0.1812906,-0.004847575
0.8138847,-0.1884908,0.0126887
0.7546585,-0.1029343,-0.007568338
0.768548,-0.1342732,0.01086135
0.8580834,-0.1044239,-0.005342755
0.9273784,-0.04206884,-0.00464171
0.9474549,-0.01373088,-0.002841322
0.9210258,0.08616564,-0.009564085
0.9199091,0.1116401,0.009989245
0.9376811,0.1043027,0.01348584
0.9239128,0.1162856,0.04370577
0.9523616,0.1071652,0.08953672
1.028905,0.07755614,0.1192386
1.147782,0.003299874,0.1307462
1.219685,-0.0196728,0.1145385
1.145652,0.02707376,0.08673044
1.113765,0.1234219,0.05066032
1.168088,0.1711069,0.08223844
1.174771,-0.01455293,0.1079728
1.15668,-0.2518291,-0.03730831
1.095146,-0.2700636,-0.2061488
1.035606,-0.2207818,-0.226798
1.141834,-0.2890045,-0.1817031
1.348665,-0.3595954,-0.1727848
1.432954,-0.406924,-0.1435192
1.367304,-0.3834788,-0.06810012
1.328328,-0.208047,-0.03026913
1.347897,-0.1152526,-0.01698356
1.221714,-0.1280972,-0.01441596
0.8897571,-0.110266,-0.004864205
0.6328571,-0.1012114,0.03914358
0.657857,-0.09421258,0.03837821
0.69833,-0.1081959,0.04104252
0.5741897,-0.1102718,0.09378707
0.5654079,-0.135034,0.1296601
0.6559832,-0.202762,0.1653223
0.6694784,-0.1901678,0.1869782
0.7094687,-0.1495885,0.1995663
0.7027154,-0.09628582,0.2213957
0.6931041,-0.006480409,0.2417967
0.7842567,0.08426039,0.2928824
0.8565285,0.1172902,0.2985624
1.061227,0.04367836,0.2261007
1.351957,0.002291317,0.145539
1.408397,-0.05713361,0.0908324
1.389474,-0.1149463,0.1626886
1.605146,0.0313282,0.3868182
1.822784,0.07351199,0.5450964
1.636339,-0.2383176,0.3642104
1.203907,-0.5155432,0.07567222
0.8311834,-0.384561,0.117352
0.722644,-0.2161886,0.1703752
0.8695939,-0.2905681,0.00482294
0.8612045,-0.1446839,-0.08700435
0.8404944,0.001797016,-0.1402276
1.00479,-0.1668971,-0.112592
1.026289,-0.2012657,-0.0177622
0.961074,-0.1904126,-0.01201635
0.8378453,-0.2119158,0.05017224
0.6844667,-0.1316709,0.04860707
0.7005293,-0.1381048,-0.0007335466
0.7884694,-0.1244724,0.04920003
0.928171,-0.07620983,0.006356644
0.9718991,-0.03864369,-0.023318
0.8840402,0.0530928,-0.01212892
0.9032387,0.07111624,-0.04393065
0.9265021,0.06950498,-0.004956167
0.9405343,0.08216257,0.01110279
0.9597121,0.1032107,0.01335523
0.9688647,0.1434791,0.05309591
1.084422,0.05775386,0.08160658
1.174906,-0.07014463,0.1157837
1.207541,-0.08230262,0.1114241
1.199828,0.0347021,0.1106037
1.159822,0.1297349,0.1267867
1.202191,-0.0232358,0.1031053
1.191496,-0.2635817,0.004079769
1.098167,-0.3487638,-0.1748014
1.07465,-0.3342565,-0.2349589
1.230884,-0.3288615,-0.1871567
1.492197,-0.3728653,-0.2219145
1.508281,-0.3951284,-0.2148628
1.364328,-0.3177204,-0.09357985
1.333833,-0.1805011,-0.0003982989
1.303766,-0.08613632,-0.005517092
1.194397,-0.1065525,-0.0293894
0.9380357,-0.1468679,0.02468403
0.6656441,-0.1276206,0.06417292
0.6298652,-0.1265216,0.04290923
0.6487908,-0.119823,0.05367789
0.6091331,-0.09971997,0.07049413
0.6146824,-0.1434074,0.09246971
0.64293,-0.1874865,0.1497877
0.6772526,-0.1877007,0.1806312
0.6809286,-0.1351395,0.1905733
0.6697493,-0.02984609,0.2162742
0.7132261,0.03222605,0.2454183
0.8217173,0.03945289,0.279522
1.017496,0.02625842,0.307662
1.220603,0.00855466,0.2443018
1.324393,0.006885882,0.09542973
1.361615,0.001714233,0.08407311
1.418278,0.02001667,0.3245092
1.553796,0.06924136,0.5020836
1.675051,0.03057817,0.2380933
1.63204,-0.2619091,-0.05926235
1.386252,-0.5985687,0.09710561
1.005348,-0.5220185,0.1640721
0.7454658,-0.3068561,-0.001346676
0.7262159,-0.2988529,0.02440731
0.8094397,-0.186299,-0.02516424
0.9724868,-0.09658926,-0.1225592
1.084232,-0.1811821,-0.04528953
1.036985,-0.1781438,-0.01825256
0.9439537,-0.1888436,0.01023531
0.7856092,-0.1637697,0.03246195
0.7014152,-0.06129958,-0.01837651
0.7949633,-0.07987341,-0.02191516
0.8741032,-0.07890365,-0.02290282
0.9229604,-0.05111145,-0.02415419
0.9126176,-0.03194589,-0.02815613
0.8699212,0.05335385,-0.0353736
0.936177,0.0874912,-0.01359205
0.9752869,0.09159889,0.0001749541
0.9470777,0.1258726,0.05242122
0.9679192,0.153122,0.1030184
1.023906,0.1085511,0.116989
1.1154,-0.004377894,0.1337247
1.175709,-0.0375226,0.1173464
1.138699,0.001186066,0.08830354
1.12109,0.04109393,0.06288152
1.158115,0.03049193,0.1004008
1.190374,-0.1282593,0.1407667
1.22071,-0.2914528,-0.02704835
1.177243,-0.2664003,-0.2171731
1.119615,-0.2449091,-0.1919694
1.23219,-0.3847778,-0.1038087
1.340794,-0.4311556,-0.06194973
1.292462,-0.3327417,-0.03457489
1.282965,-0.2298284,-0.02500444
1.326457,-0.1083419,-0.02050463
1.305538,-0.09162377,-0.02271879
1.196703,-0.1319466,-0.04496466
0.9321718,-0.1146561,-0.01358942
0.6573183,-0.14155,0.05420472
0.6294875,-0.139623,0.06753116
0.6963872,-0.1143831,0.07208114
0.6628917,-0.1338854,0.08886438
0.6655769,-0.1532437,0.1316042
0.7197838,-0.2009231,0.1881157
0.72869,-0.1957958,0.1707214
0.715194,-0.1040211,0.1614486
0.6775726,-0.01811655,0.2100361
0.6636112,0.01899273,0.233229
0.7219392,0.01416341,0.2534525
0.8677776,0.0447736,0.3090936
1.058979,0.05171054,0.3389001
1.148044,-0.02531666,0.2554242
1.273127,-0.1073851,0.1248997
1.438541,-0.1556024,0.1361268
1.409808,-0.04656621,0.3620483
1.480479,0.1394333,0.5336496
1.66266,0.08885633,0.2853678
1.607716,-0.1968749,0.002042324
1.371381,-0.4603091,0.1442732
0.9455473,-0.4303168,0.1852067
0.7058083,-0.2604977,-0.03771539
0.8830577,-0.2358496,-0.08960421
0.9031942,-0.1405965,-0.08891285
0.8793191,-0.08603726,-0.08060988
0.9889638,-0.1965333,-0.01554276
0.9132263,-0.1617801,-0.0038778
0.8489111,-0.1378786,0.04144101
0.8159063,-0.1447199,0.02044582
0.7420384,-0.08465034,-0.03144201
0.8301956,-0.1204162,-0.002566734
0.9245544,-0.0908797,-0.02030554
0.9158427,-0.03936539,-0.002824879
0.9040451,-0.02667432,0.004722264
0.8894344,0.05172024,-0.02410888
0.8871826,0.06953174,0.006717574
0.9092609,0.06604332,-0.0004460976
0.9376036,0.05604391,0.02465618
0.9522834,0.07230221,0.08254007
0.9931916,0.1163566,0.09956183
1.105908,0.02400485,0.112244
1.1849,-0.06938513,0.1081711
1.158745,-0.07644608,0.1419139
1.122689,0.009273196,0.1407215
1.131563,0.1019656,0.1089343
1.178274,-0.04247445,0.1203213
1.221502,-0.2172045,0.007532442
1.145916,-0.2322118,-0.1733812
1.073315,-0.2382711,-0.2344109
1.223611,-0.2917665,-0.1834921
1.375779,-0.3790817,-0.1296881
1.333108,-0.4191543,-0.1241
1.289498,-0.3434084,-0.06774133
1.299512,-0.2080626,-0.01749265
1.269693,-0.1309374,-0.037109
1.15578,-0.1262517,-0.03030913
0.902064,-0.1193634,0.003056408
0.6749111,-0.1195257,0.04850248
0.6671393,-0.1069319,0.07176886
0.6973803,-0.08348135,0.07043902
0.6459753,-0.09133072,0.09395098
0.6404157,-0.119777,0.1244373
0.670606,-0.1649764,0.1684357
0.6809342,-0.1623806,0.1950219
0.6743088,-0.103559,0.2009173
0.6627802,-0.03310363,0.2384555
0.7116251,0.04401539,0.2796137
0.8500198,0.06023887,0.3122146
1.048007,0.03328888,0.3333942
1.176429,0.0216235,0.318173
1.231844,-0.01548222,0.2507689
1.389589,-0.07867927,0.1813312
1.474656,-0.05914372,0.2050751
1.413279,0.1475399,0.2562583
1.489095,0.3445752,0.255313
1.544472,0.2076167,0.2441728
1.42591,-0.2025012,0.1928602
1.24168,-0.5422411,0.1313098
0.9789813,-0.5271669,0.1296332
0.8530606,-0.2704216,0.04794672
0.814219,-0.1507681,-0.1033226
0.7346684,-0.1389409,-0.1031783
0.8625392,-0.1376579,-0.03943614
0.977292,-0.2219552,-0.04179656
0.9931798,-0.2342149,-0.008651463
0.9544787,-0.1898572,0.005997713
0.7314644,-0.1576528,-0.02479597
0.7641562,-0.1152383,-0.004220169
0.9058996,-0.139965,-0.008729036
0.8810252,-0.09978434,-0.02148458
0.9712541,-0.0328083,-0.0005577973
0.9128768,-0.0001372266,-0.0243514
0.8523538,0.07809008,-0.02971772
0.9437918,0.06556508,-0.01427569
0.8978378,0.04830884,-0.01045612
0.9257792,0.07082751,0.02181193
0.9780046,0.06290267,0.04372184
1.029061,0.08034623,0.07291535
1.147417,0.007707425,0.1070449
1.149281,-0.1011955,0.1119887
1.138079,-0.09947497,0.09982063
1.12146,-0.001361953,0.07247306
1.167833,0.06723358,0.08287408
1.250364,-0.06581974,0.0567181
1.165068,-0.1971766,-0.1175317
1.117625,-0.150005,-0.2742632
1.142085,-0.1721522,-0.2358847
1.194458,-0.3061444,-0.1579754
1.316144,-0.350784,-0.168597
1.347042,-0.3414279,-0.1101349
1.317492,-0.3306709,-0.07636422
1.292852,-0.2374841,-0.1136929
1.243736,-0.150508,-0.02489772
1.144863,-0.1599914,-0.005895498
0.8953081,-0.1685667,-0.01630495
0.6217111,-0.1100226,0.08511188
0.6428684,-0.07311217,0.04852589
0.7628049,-0.09776349,0.03732536
0.6446665,-0.08469736,0.1199502
0.6275024,-0.08625893,0.1177823
0.72797,-0.1455819,0.1498583
0.6780112,-0.1694188,0.180821
0.6931775,-0.1416404,0.1892989
0.6635089,-0.05522567,0.217678
0.6106106,0.03265857,0.2348705
0.74379,0.07921013,0.2743439
0.9045625,0.08115793,0.2839084
1.155678,0.01768442,0.2509153
1.352067,-0.02819118,0.1246225
1.367552,-0.05131031,0.01320257
1.421039,-0.03515333,0.2273563
1.504944,0.08050745,0.4393486
1.605064,0.1360549,0.2264007
1.585244,-0.09054185,0.01110586
1.375296,-0.4830012,0.07149724
1.073898,-0.5831691,0.06694471
0.7935405,-0.3932397,-0.02215769
0.8152236,-0.2675211,-0.05109285
0.8921045,-0.1623669,-0.08789354
0.8240696,-0.1044652,-0.08530063
0.9344,-0.1902224,-0.04789027
1.010047,-0.2393272,-0.002747713
0.8860965,-0.2007901,0.01994065
0.7925113,-0.1677304,-0.005308644
0.7530854,-0.1512685,0.03285359
0.8185108,-0.1151712,0.02986562
0.9369237,-0.06309066,-0.01071565
0.9833036,0.01073533,0.01100744
0.9632647,0.09398949,-0.02486396
0.9186682,0.1423945,-0.02432095
0.9460246,0.1841454,0.001489025
0.9569723,0.1701069,-0.02372373
0.9347362,0.1253966,0.02170599
0.9928241,0.1448753,0.08159495
1.04185,0.1125578,0.1257096
1.113969,0.01742695,0.138051
1.197005,-0.06231531,0.1064963
1.17723,-0.07580345,0.08397537
1.132754,0.05310803,0.03486204
1.114071,0.1055415,0.07964215
1.180149,-0.1180369,0.1385232
1.244639,-0.3275611,-0.03447172
1.126384,-0.2482157,-0.2191725
1.053655,-0.1806164,-0.2257001
1.246684,-0.3423137,-0.171928
1.43017,-0.4115083,-0.1127953
1.372333,-0.3694653,-0.05153711
1.312266,-0.3090209,-0.03500502
1.356356,-0.1538445,-0.05355275
1.304741,-0.1276208,-0.02223534
1.139869,-0.1577498,-0.003230913
0.849643,-0.09739589,-0.00371255
0.5964166,-0.1151259,0.05813173
0.6315214,-0.1194349,0.06558708
0.6744142,-0.09362372,0.05868491
0.6214863,-0.1212595,0.1190169
0.6613123,-0.1363938,0.1604993
0.6905352,-0.1459904,0.2039855
0.72858,-0.138617,0.2179619
0.7666459,-0.1148377,0.2173883
0.7129264,-0.0664781,0.2599707
0.7058793,0.05908852,0.2827062
0.7738509,0.1878651,0.3063394
0.9253572,0.1686689,0.3161604
1.161174,0.04793397,0.2834523
1.32208,-0.02443852,0.2153335
1.397868,-0.08042177,0.1688105
1.452547,-0.03704747,0.3535399
1.496561,0.1064294,0.5310194
1.547187,0.05596683,0.2655368
1.544258,-0.2349858,-0.02064665
1.35279,-0.5195067,0.07637239
0.9712722,-0.4504526,0.117133
0.7368387,-0.2298365,0.002170509
0.813997,-0.2226609,-0.01774192
0.8590016,-0.07883717,-0.06753232
0.8310382,0.008592414,-0.07718103
0.9337326,-0.1875541,-0.002315722
0.948826,-0.1981135,-0.002206083
0.8342189,-0.1580351,0.02792087
0.7789928,-0.1375158,0.0270395
0.7554066,-0.08280635,-0.02449997
0.8312359,-0.1186941,0.003989931
0.9349665,-0.04777629,-0.007743353
0.909574,-0.006573859,-0.01510313
0.8851297,-0.008467902,0.006363253
0.888101,0.04664889,-0.01577766
0.9144849,0.008251665,0.001024931
0.9725198,0.01182832,0.006349661
0.9770719,0.02310735,0.01688067
1.023577,0.005208091,0.08002897
1.117836,0.02310025,0.1320394
1.123314,0.004779193,0.1571126
1.095747,0.04481013,0.1208654
1.109464,0.1644901,0.0772634
1.115304,0.2719852,0.04805793
1.118822,0.1540965,0.02090249
1.154028,-0.197868,-0.006830897
1.151831,-0.3780265,-0.1029867
1.107117,-0.3098443,-0.1423861
1.12088,-0.2546229,-0.1432183
1.276272,-0.3332497,-0.185853
1.458146,-0.3892144,-0.125333
1.418133,-0.3604089,-0.08093635
1.331812,-0.3185493,-0.06265533
1.368539,-0.1682943,0.01920933
1.259702,-0.1027377,0.005107209
0.9963543,-0.1626053,-0.007400226
0.7329158,-0.1288526,0.02943744
0.6327009,-0.142771,0.01563573
0.7046711,-0.1447716,0.02537964
0.6179567,-0.1067973,0.04498608
0.5659399,-0.1489898,0.0729256
0.6703799,-0.1627336,0.1251045
0.6651578,-0.1885228,0.1555087
0.7324438,-0.1792897,0.1728736
0.7606503,-0.09900032,0.1854941
0.6940108,-0.03494407,0.2171897
0.751901,0.03968668,0.2560985
0.7761316,0.03915917,0.2871465
0.9311192,0.02569487,0.3100049
1.180367,0.06004238,0.2468508
1.242813,0.01550328,0.09797825
1.31828,-0.05980352,0.04635842
1.402399,-0.08364229,0.2596807
1.434727,0.04564593,0.4675013
1.488101,0.1968332,0.285419
1.538932,-0.01724128,0.02953211
1.533322,-0.4652071,0.02609765
1.257048,-0.6821927,0.02891739
0.8380132,-0.4901003,0.0007214058
0.7388375,-0.2071557,-0.004845975
0.8610558,-0.1923143,-0.05903918
0.8535981,-0.1650435,-0.06359193
0.8816558,-0.09998985,-0.04345558
1.017173,-0.2224386,-0.0344833
0.9844922,-0.2159365,-0.01055101
0.8659652,-0.1594986,-0.0201162
0.7939233,-0.1772838,-0.01482837
0.7656509,-0.1104756,-0.01134764
0.8641834,-0.1187672,-0.01908554
0.9416129,-0.08116882,-0.007717886
0.9194636,0.004143875,-0.02082697
0.8966009,0.01755493,-0.02197313
0.8769387,0.07814491,-0.01200217
0.9219846,0.04255132,0.0007000711
0.9748916,0.02069488,0.03268046
0.9622003,0.0935116,0.06207873
0.9930276,0.09424526,0.1033089
1.062395,0.08186521,0.1115764
1.126331,0.0203673,0.09289862
1.176497,-0.0254877,0.1080496
1.143358,-0.00397313,0.1259325
1.091633,-0.002646013,0.1356506
1.138408,-0.01295329,0.1263506
1.192824,-0.1273404,0.08355302
1.186525,-0.2462329,-0.008287512
1.14917,-0.2053699,-0.1503148
1.105602,-0.155668,-0.203484
1.205938,-0.1977231,-0.1587304
1.35474,-0.2684669,-0.150688
1.328162,-0.3438662,-0.1253667
1.302645,-0.3606674,-0.09520507
1.329416,-0.2642559,-0.1012679
1.280339,-0.1858905,-0.04265318
1.18697,-0.1456654,-0.009866865
0.9960263,-0.1199999,-0.009280377
0.7626064,-0.1448104,0.05268257
0.6875094,-0.1119795,0.04652458
0.7257153,-0.09278233,0.02426544
0.706956,-0.1107669,0.06086828
0.6512954,-0.09402187,0.08347144
0.6449964,-0.1425648,0.1396963
0.6711172,-0.1807636,0.1756744
0.7011795,-0.1814606,0.1826564
0.6900382,-0.1469827,0.2186144
0.6721954,-0.03564386,0.2190455
0.7306204,0.02437585,0.2504843
0.8547931,0.04469604,0.3097585
1.073294,0.03397014,0.3045941
1.269744,0.007842951,0.2665962
1.292503,0.03350921,0.1901178
1.300339,0.02576569,0.1612263
1.443354,0.02283678,0.2576718
1.685864,0.01492726,0.3048789
1.796134,-0.1237022,0.1699587
1.538031,-0.3607807,0.03418721
1.070503,-0.4898561,0.0895988
0.7189515,-0.3189824,0.1128164
0.6748089,-0.1107108,-0.03041849
0.8409343,-0.08025699,-0.111339
0.9428536,-0.05048276,-0.1096568
0.9836312,-0.1047682,-0.07429245
0.9887949,-0.2266022,0.00712452
0.8613119,-0.1947658,0.04834581
0.725494,-0.1428723,0.03182934
0.7011434,-0.1330273,-0.004670132
0.791274,-0.1008574,0.007665716
0.9346825,-0.08802898,0.02142154
0.9847028,-0.03643679,-0.01344675
0.9274402,0.02484819,-0.008912092
0.8773635,0.04153128,-0.01926826
0.9242077,0.05765523,-0.02276732
0.9632453,0.06111342,0.009362176
0.9126218,0.0735413,0.004832711
0.9252142,0.0723508,0.04112152
1.000865,0.03929733,0.08470149
1.087853,0.005519768,0.1097651
1.143845,-0.0442498,0.1301358
1.099056,-0.01220943,0.08463138
1.092735,0.1029908,0.03644363
1.112028,0.1667736,-0.003755014
1.121511,0.1133712,0.04804658
1.223247,-0.08519681,0.1430921
1.260041,-0.2327041,0.006481721
1.139358,-0.193187,-0.1701321
1.053202,-0.170862,-0.1834027
1.166519,-0.2765653,-0.1553887
1.32363,-0.3859634,-0.122297
1.312427,-0.3902034,-0.127512
1.292695,-0.2995234,-0.09037817
1.329148,-0.1595388,-0.002667592
1.309234,-0.09372049,-0.01754317
1.205657,-0.1407493,-0.02749401
0.9540204,-0.1415557,0.004342618
0.7265944,-0.112813,0.006576006
0.7127251,-0.1177606,0.04314869
0.7400307,-0.1088057,0.08322055
0.692469,-0.1155308,0.1043463
0.6648636,-0.1335291,0.1403938
0.7081745,-0.1454475,0.1702127
0.7438645,-0.1466763,0.1883575
0.7287919,-0.1002446,0.1944135
0.6990964,-0.02167463,0.2028935
0.6745332,0.04430765,0.2407407
0.7198384,0.08086105,0.2919541
0.8733295,0.09665392,0.3160994
1.086486,0.08883207,0.3061251
1.266304,0.04958475,0.2748848
1.365322,-0.03936871,0.2568732
1.452635,-0.1144599,0.3385655
1.487267,-0.01986116,0.4671264
1.450955,0.1651244,0.4434599
1.475071,0.1620488,0.2339953
1.473215,-0.1671897,0.02023125
1.327542,-0.5459739,-0.002701064
1.04618,-0.4992347,0.06972721
0.7664886,-0.2579055,0.02354586
0.7904034,-0.1968324,-0.02018714
0.8964279,-0.07057182,-0.01476071
0.842829,-0.02410106,-0.05672516
0.9531008,-0.1852834,-0.03150275
1.045384,-0.2285854,0.009895546
0.9244104,-0.2278917,0.009060761
0.8228225,-0.1895761,0.02356569
0.699692,-0.1218906,-0.001824018
0.740796,-0.1411933,0.01067004
0.8909746,-0.09233234,0.02761895
0.8427928,-0.05790608,-0.02027529
0.8854948,-0.04261655,-0.02441801
0.9393938,-0.003123727,-0.02067009
0.8838371,-0.02485244,-0.006720876
0.9763149,0.01475188,0.02017266
0.9839257,0.06730101,0.02871597
0.915153,0.1434673,0.08103452
0.9520417,0.2067517,0.1270667
0.985266,0.08108261,0.1524105
1.120649,-0.02397838,0.1578694
1.228767,-0.02039517,0.1144553
1.180948,0.03020633,0.09009647
1.186656,0.08942773,0.1053955
1.231907,0.0155427,0.1355321
1.249473,-0.1001702,0.1113399
1.211882,-0.1523869,-0.02802257
1.101355,-0.1579299,-0.2006334
1.048009,-0.208351,-0.2357804
1.151927,-0.3782953,-0.1451903
1.298885,-0.4346193,-0.1049568
1.291705,-0.3200106,-0.0603245
1.247621,-0.2141433,-0.01297509
1.260007,-0.1154414,-0.02772628
1.192245,-0.08037555,0.0118738
1.099109,-0.1126532,0.01892772
0.9118889,-0.09802423,0.03065558
0.662276,-0.07682536,0.1123491
0.6898203,-0.06060972,0.09350761
0.7488957,-0.04511365,0.1067216
0.6082756,-0.08863336,0.1687079
0.6364417,-0.1246736,0.1594335
0.7195219,-0.105632,0.1773165
0.6779663,-0.09353593,0.1917635
0.7166181,-0.08727396,0.2075671
0.6763824,-0.03885203,0.2304225
0.6242968,0.0376828,0.2436337
0.7866422,0.07399765,0.2980871
0.9983658,0.05295552,0.2914292
1.217991,0.01494963,0.2237784
1.332662,-0.04197468,0.177449
1.356496,-0.08304583,0.2175983
1.498134,-0.02898141,0.4268621
1.609766,0.04984707,0.5571338
1.630812,0.03358046,0.3297063
1.584752,-0.1142876,0.05961763
1.314316,-0.3372382,0.1077484
0.8731449,-0.404285,0.1126241
0.6951622,-0.277372,-0.06252674
0.855348,-0.1691201,-0.07002559
0.8898035,-0.09571368,-0.08429053
0.9105724,-0.1038629,-0.100002
1.032583,-0.2177405,0.01228326
0.9774433,-0.2453665,0.01274874
0.9052666,-0.1932059,0.01664179
0.8054322,-0.1346481,0.01417037
0.7210277,-0.1002343,-0.01987959
0.8371675,-0.1170178,0.02237882
0.9019093,-0.08912661,-0.01672771
0.9328176,-0.04232815,-0.01774193
0.9370611,0.02227338,-0.001695531
0.8740388,0.1115849,-0.03366952
0.9373047,0.1044119,0.01466382
0.9581531,0.07222802,0.02468348
0.9252212,0.06669124,0.07111838
0.9719562,0.06167764,0.1302859
1.027951,0.06661921,0.1077043
1.147682,0.02096662,0.1180071
1.199142,-0.02925006,0.09953252
1.111318,-0.03053955,0.08694376
1.080083,0.008966193,0.1004624
1.140188,0.0231128,0.1013095
1.231556,-0.1124157,0.0923736
1.262012,-0.248806,-0.05518707
1.189034,-0.2151001,-0.240064
1.139451,-0.1980019,-0.2530798
1.236077,-0.3001598,-0.1642534
1.333287,-0.3543222,-0.1114002
1.261256,-0.3291162,-0.0631463
1.22898,-0.2490519,-0.03455427
1.314881,-0.1098368,-0.07210806
1.302043,-0.06542098,-0.0487647
1.142437,-0.0886504,-0.01676219
0.9520689,-0.07088157,-0.01312534
0.8448888,-0.09216055,0.04851063
0.7236621,-0.1109818,0.07125578
0.6243245,-0.09633912,0.0762631
0.6878112,-0.09473905,0.08454132
0.6576505,-0.09577744,0.1041541
0.6271467,-0.1292889,0.1708798
0.752756,-0.1586342,0.1697298
0.7306307,-0.1175806,0.1709701
0.6992627,-0.04781096,0.2058951
0.7251307,-0.01460222,0.2123279
0.7008554,-0.005587506,0.2430701
0.813955,0.002744208,0.2492571
0.9682546,-0.003332478,0.2490138
1.137967,-0.008044836,0.2232439
1.305595,-0.03299002,0.0978971
1.3321,-0.06970654,0.04344168
1.360032,-0.0406634,0.2356103
1.432522,0.06360991,0.4373179
1.534877,0.1231656,0.2610136
1.586661,-0.09693141,-0.01355024
1.547614,-0.4685626,-0.02811741
1.410248,-0.5455407,0.007123903
0.9803619,-0.4000497,0.03476766
0.6624572,-0.3198635,0.0281484
0.7884135,-0.2320301,-0.03028484
0.8833651,-0.1479941,-0.02890058
0.9075944,-0.1799158,-0.06929193
1.048754,-0.2174098,-0.06608726
0.9731831,-0.200949,-0.009251789
0.7503906,-0.1831607,-0.02663692
0.7801217,-0.1476666,0.0004839051
0.8827538,-0.1368816,0.001760242
0.9680684,-0.1555241,-0.01973501
1.05858,-0.1210308,0.003616756
0.9645666,-0.05514346,-0.02048123
0.9116134,0.02572851,-0.01776404
0.9266062,0.05752708,-0.005093655
0.8748482,0.00527753,0.01202084
0.8735631,0.009912762,0.05725987
0.8322282,0.02952978,0.04538397
0.8638434,0.01772208,0.06810218
0.9756365,0.04606571,0.1143736
0.9887123,0.02956143,0.09186527
1.001335,-0.03412054,0.06495437
0.4970989,-0.1557901,0.1022536
0.5606388,-0.1392925,0.1197604
0.5801037,-0.1463583,0.1648918
0.6111898,-0.1139762,0.1834209
0.6401685,-0.03673179,0.202937
0.6527171,0.05604091,0.2222242
0.8017065,0.1309644,0.2331696
0.9855154,0.08883494,0.2501902
1.209199,0.01815786,0.2199518
1.363148,-0.05713362,0.2406829
1.420437,-0.1055869,0.3749304
1.598661,0.01437677,0.491235
1.67981,0.1806159,0.3866907
1.617589,0.1361183,0.08150531
1.537164,-0.2614554,-0.08048534
1.187326,-0.6497523,-0.007885897
0.7621786,-0.4756261,0.06158291
0.7046368,-0.2306651,0.006321329
0.8764057,-0.3384499,-0.0426171
0.9790363,-0.1857576,-0.0509983
0.9935304,-0.006278643,-0.1052641
0.9978589,-0.1506811,-0.058878
0.9337726,-0.0961328,0.01116135
0.7904347,-0.06980808,0.0007691914
0.7181866,-0.1740839,0.04488416
0.7461676,-0.1404298,0.02492114
0.8340014,-0.1887058,-0.008934334
0.9368835,-0.1425377,0.00368716
0.9438186,-0.005904095,-0.03449892
0.8799454,0.06649544,-0.02036405
0.8584961,0.181682,-0.01794367
0.8824587,0.1576832,-0.02300147
0.9237232,0.1076122,0.03506387
0.980849,0.09765591,0.07488686
1.027948,0.02346606,0.1129743
1.11397,-0.01754326,0.136805
1.242428,-0.1169222,0.1768347
1.229224,-0.1218326,0.1886878
1.139687,0.04720485,0.1481342
1.153389,0.1383564,0.1806456
1.151756,0.09601577,0.1664275
1.117328,-0.1273405,0.05558489
1.05912,-0.3264131,-0.1025657
0.9571387,-0.2626769,-0.2391872
1.037243,-0.2106171,-0.1838273
1.260397,-0.2989961,-0.1456234
1.401596,-0.3320125,-0.175148
1.427369,-0.3262757,-0.07342522
1.369087,-0.3072065,-0.03799374
1.370622,-0.189716,-0.04162255
1.319755,-0.1295483,0.01994584
1.043335,-0.1601579,0.003664923
0.7569689,-0.1415711,0.02466321
0.631483,-0.1360489,0.05966746
0.6574191,-0.1337603,0.0322204
0.6394907,-0.1340857,0.07541849
0.5580796,-0.1571125,0.1136991
0.5989047,-0.1378278,0.1314166
0.6183104,-0.1155599,0.1547381
0.6211355,-0.05833732,0.1499426
0.6506149,0.01500667,0.1999183
0.6427876,0.03278901,0.2334953
0.7824492,0.03946902,0.2352993
1.009697,0.01821714,0.2515872
1.201425,-0.02559175,0.2015979
1.314782,-0.08060213,0.1716625
1.33569,-0.1125772,0.2321417
1.497438,-0.05750005,0.3154556
1.762908,-0.04246638,0.289967
1.922536,-0.199009,0.02010354
1.775586,-0.4291822,-0.1975918
1.174183,-0.5005808,0.04918243
0.5846845,-0.3895972,0.3179921
0.5803607,-0.2971042,0.07003445
0.8986624,-0.1938926,-0.1417187
0.9554479,-0.04817532,-0.05550288
0.9383003,-0.06847091,-0.09009816
1.021255,-0.1723976,-0.06747351
0.9246317,-0.1679386,0.01383605
0.8466286,-0.167448,-0.02159316
0.788014,-0.1820491,0.02172938
0.6983977,-0.1673388,0.02727312
0.8045174,-0.1565188,-0.006347266
0.8802103,-0.07582535,0.002156831
0.9163751,0.0161594,-0.04412445
0.9010624,0.06692562,-0.04999465
0.8124256,0.104594,-0.03826237
0.9352982,0.07286214,-0.02679805
1.032582,0.06452525,0.01282104
1.033263,0.1190345,0.04607224
1.089626,0.1280253,0.1152605
1.091266,0.05359848,0.1529187
1.114364,-0.04066498,0.1404005
1.123329,0.007799444,0.09196624
1.080948,0.1635128,0.02830486
1.080837,0.1890806,0.06035991
1.156166,-0.1024664,0.05960281
1.25608,-0.4474679,-0.09989348
1.232096,-0.342005,-0.2225353
1.243594,-0.2131381,-0.1435365
1.376333,-0.4053818,-0.03995366
1.39722,-0.3845284,-0.07555281
1.350316,-0.318527,-0.07210096
1.342665,-0.3437073,-0.02174564
1.334932,-0.1551573,-0.04231606
1.263578,-0.08658737,-0.03153494
1.010916,-0.1386402,-0.01554397
0.6744541,-0.116732,0.0006654845
0.5560869,-0.1345083,0.05519404
0.6467114,-0.1142092,0.03908551
0.6414982,-0.1224724,0.03421836
0.5746733,-0.1616724,0.1025816
0.622599,-0.2047672,0.1579283
0.6532139,-0.2515823,0.2017245
0.6715717,-0.1565644,0.2105107
0.7094662,-0.04601864,0.2155525
0.683598,0.02949641,0.2498769
0.7419911,0.09023862,0.2728782
0.8813354,0.07752995,0.3064498
1.006008,0.05974213,0.2933836
1.21889,-0.05444962,0.1869852
1.457019,-0.2439707,0.1044107
1.500048,-0.2449362,0.1271391
1.424941,0.04056436,0.1747738
1.534357,0.2963352,0.1610663
1.625218,0.1335408,0.1552241
1.435138,-0.2533607,0.1547891
1.066967,-0.4865814,0.1205329
0.6534205,-0.4484737,0.1226361
0.7171538,-0.2904544,0.06835864
0.9777781,-0.2072774,-0.05224609
0.810695,-0.06153655,-0.07555801
0.880557,-0.04168422,-0.04323088
1.056651,-0.2329223,-0.0281231
0.9294383,-0.1967922,-0.01908929
0.8787205,-0.1572339,-0.01106956
0.6699125,-0.1941915,-0.006884753
0.605727,-0.1115446,-0.01503815
0.8391584,-0.1630351,-0.02145342
0.8738171,-0.1471797,-0.03514032
0.9339154,-0.06828356,-0.03672229
0.9255725,-0.04112279,-0.02873091
0.8840897,0.1236032,-0.03507849
1.007099,0.1507723,-0.02127856
0.9998615,0.1164667,-0.002564777
1.008537,0.1418651,0.04168641
1.035658,0.07284515,0.1263402
1.052574,0.02059798,0.1727312
1.144562,-0.06138861,0.162716
1.122982,-0.06258385,0.09509516
1.088602,0.08950415,0.02725651
1.063715,0.1405546,0.05770577
1.12844,-0.1059922,0.06542598
1.260889,-0.4279021,-0.08009213
1.187473,-0.3411786,-0.1991835
1.19546,-0.2376527,-0.1518765
1.371061,-0.3776042,-0.1033699
1.46096,-0.3251431,-0.09789877
1.441868,-0.3053778,-0.01807636
1.380044,-0.2973148,0.03035722
1.397287,-0.1119391,0.002761092
1.294858,-0.1040256,0.005278553
1.012527,-0.144577,-0.01206627
0.7525357,-0.1099657,-0.0009647094
0.5557474,-0.1254883,0.05718904
0.5933363,-0.1087596,0.0409006
0.6459281,-0.1261219,0.0631804
0.5288947,-0.1605119,0.1272694
0.5730283,-0.1722351,0.1353308
0.6337701,-0.1949817,0.1646887
0.6353509,-0.138097,0.1852286
0.711111,-0.04242973,0.1983968
0.6929064,0.03978496,0.2370334
0.7582671,0.1012634,0.2636438
0.9831656,0.1006229,0.2860055
1.185186,0.04885171,0.249119
1.355985,-0.03643893,0.1562654
1.393357,-0.0662918,0.1527087
1.400759,0.006412615,0.391722
1.485189,0.08691952,0.601247
1.533758,0.022248,0.2629437
1.548979,-0.3065429,-0.1373566
1.385274,-0.6250247,0.01111071
0.9809651,-0.520969,0.1053313
0.7151549,-0.2991852,-0.0178373
0.8407983,-0.2788346,0.02451292
0.9734962,-0.1283981,-0.04376505
0.8883107,-0.04322279,-0.1217678
0.9332557,-0.2179216,-0.02609985
0.9530398,-0.2186832,-0.03832653
0.785394,-0.1794581,-0.02351134
0.71838,-0.178033,0.01873375
0.6912942,-0.08270626,-0.02209161
0.7858818,-0.07673604,-0.007377022
0.9743727,-0.0318039,-0.03287893
0.9709589,0.03623494,-0.04786985
0.9308264,0.08436756,-0.007310882
0.9092451,0.1615934,-0.01167163
0.913663,0.1096953,0.004525496
0.9625606,0.09890902,0.02471033
0.9593944,0.1247363,0.07255327
1.025263,0.05904438,0.1348915
1.087452,0.02780322,0.146046
1.085325,0.008356047,0.1441159
1.097023,0.037162,0.05667557
1.086008,0.1140782,-0.02425753
1.118111,0.1771698,0.06724778
1.141668,0.1384711,0.1297846
1.131463,-0.1284434,-0.04102087
1.145402,-0.3484547,-0.2509324
1.15803,-0.2877079,-0.2688944
1.250317,-0.2307659,-0.2169517
1.369992,-0.3644757,-0.219604
1.382833,-0.4233788,-0.2119653
1.356641,-0.33343,-0.1414341
1.408054,-0.2567694,-0.0339871
1.454352,-0.1529495,-0.004453218
1.313119,-0.1379862,-0.02445149
0.9898372,-0.1573923,0.02631296
0.7099617,-0.06193229,0.07146244
0.7294633,-0.08206981,0.05248941
0.7693218,-0.09240591,0.05196066
0.5828671,-0.0348345,0.07710893
0.5496232,-0.0966985,0.08248225
0.5643717,-0.1165544,0.09798163
0.5057688,-0.1371635,0.1272744
0.600331,-0.1632447,0.1462991
0.6244547,-0.08898315,0.1724563
0.6609408,-0.03614184,0.1976259
0.7912174,0.03325144,0.226946
0.8771973,0.06805375,0.2605366
1.109622,0.01927114,0.2449561
1.347622,0.01035375,0.1276368
1.480836,0.005832345,0.03982637
1.538652,0.01375231,0.254494
1.624259,0.03058981,0.469457
1.906265,-0.03493286,0.2204348
1.80956,-0.2167953,0.02299467
1.204398,-0.4151526,0.2558496
0.7090012,-0.3933744,0.3338017
0.6332587,-0.284331,0.09326233
0.8849207,-0.2677917,-0.06224692
0.940091,-0.1407576,-0.07832435
0.9710078,-0.06106902,-0.1002777
1.108873,-0.1825355,-0.07655481
0.900526,-0.2134018,0.0365989
0.774785,-0.1650493,0.04725736
0.7331756,-0.1530691,-0.007819088
0.630415,-0.135211,0.02805656
0.8100021,-0.1242536,0.002994567
0.9112335,-0.06797922,-0.03035426
0.9293896,0.01092789,-0.008588183
0.9168072,0.07259462,-0.04033749
0.8253874,0.1026268,-0.03231802
0.9406486,0.05898852,-0.01973323
0.9825325,0.04338067,-0.01121533
0.9715203,0.07796609,0.06036697
1.054399,0.0833193,0.1020561
1.075609,0.03698319,0.1224793
1.134649,-0.04815391,0.1136121
1.137377,-0.05388287,0.09176639
1.100603,0.07725068,0.1016895
1.102393,0.166186,0.1013436
1.125722,-0.008907757,0.1327164
1.184451,-0.2592508,0.1231343
1.124765,-0.2596759,-0.04812239
1.100124,-0.2051445,-0.2301959
1.262232,-0.2779494,-0.2232187
1.472478,-0.3845401,-0.1689165
1.574377,-0.4881489,-0.1819811
1.461088,-0.4141854,-0.06307942
1.379661,-0.2327698,0.04165846
1.352057,-0.1979446,-0.0148412
1.053098,-0.1500327,-0.008326404
0.6986672,-0.07556795,0.01354269
0.6485353,-0.09768172,0.002801625
0.6823531,-0.09511414,0.02146131
0.5933102,-0.1062403,0.02699626
0.5695237,-0.161276,0.05630514
0.5736819,-0.1935383,0.1075677
0.5862873,-0.2144397,0.1623572
0.7165167,-0.1752058,0.1820389
0.7255829,-0.1049532,0.1797632
0.6752867,-0.04981648,0.2296842
0.7300639,0.03988318,0.2756483
0.8054821,0.1429969,0.3139235
1.047306,0.1561956,0.3180629
1.320901,0.06616753,0.2318673
1.429541,-0.02609175,0.1774551
1.485364,-0.09142569,0.3038025
1.482867,-0.02674752,0.564685
1.477824,0.09299281,0.6204125
1.497439,-0.0805541,0.2589808
1.501456,-0.4186497,-0.1290597
1.450308,-0.6092533,-0.08313623
1.181345,-0.5309695,0.0815859
0.8275306,-0.2938089,0.01372793
0.7658196,-0.253559,0.0148895
0.9364723,-0.2281206,0.01189513
0.996379,-0.08237581,-0.09580298
1.007941,-0.07968493,-0.04451747
1.029046,-0.1390026,-0.02398257
0.9204176,-0.2044363,-0.03334887
0.8365111,-0.1828617,0.0240534
0.7710492,-0.116124,-0.009479711
0.7140368,-0.1509482,-0.01064751
0.8017923,-0.09324421,-0.01588327
0.8783026,-0.05413453,-0.04844108
0.9137945,-0.04489874,-0.03002889
0.888514,0.03552081,-0.05210212
0.8346033,0.02075799,-0.04011575
0.9230095,0.02837774,-0.01232908
0.983311,0.04906443,0.006957627
0.9841807,0.06578155,0.06543839
1.030358,0.1267313,0.09085198
1.082104,0.04627579,0.1240956
1.15347,-0.06107236,0.140992
1.169293,-0.05732635,0.09165206
1.149279,0.04056115,0.05586119
1.17236,0.1126645,0.08887968
1.208416,-0.08426532,0.1154039
1.229887,-0.2851109,-0.02099558
1.176872,-0.1967418,-0.1975117
1.148737,-0.1472019,-0.2304455
1.289789,-0.2683543,-0.1906412
1.427519,-0.3437327,-0.1365479
1.381688,-0.3945064,-0.07716771
1.332939,-0.3482186,-0.03722444
1.360874,-0.1791708,-0.02486908
1.258117,-0.1530259,-0.01010864
1.033745,-0.1480917,0.001938958
0.751271,-0.07958295,0.004248795
0.5461653,-0.08818124,0.02820014
0.5968806,-0.06312427,0.03320515
0.60961,-0.07772179,0.05490547
0.5318598,-0.1481738,0.1051061
0.5797357,-0.1679814,0.1342785
0.6201621,-0.1929724,0.1790108
0.6712865,-0.1624349,0.2008369
0.702235,-0.09233046,0.2155765
0.6886224,0.01765819,0.2530352
0.8082995,0.1177122,0.2755227
0.9717554,0.06227636,0.2913713
1.197116,0.03389639,0.2472727
1.399191,0.04441464,0.1223575
1.382664,-0.04105114,0.042729
1.393822,-0.05342872,0.2513406
1.488509,0.0587435,0.4953369
1.593362,0.08306923,0.2474552
1.650109,-0.2152141,-0.01073117
1.368665,-0.5636041,0.1091857
0.8819458,-0.4853102,0.136657
0.6696529,-0.3349227,0.1141243
0.8433944,-0.3363918,0.1291157
1.006139,-0.1275009,-0.03786077
0.9690308,-0.03762086,-0.1532518
1.002701,-0.2214295,-0.07024042
0.9679378,-0.2362238,0.01577592
0.7957347,-0.2002184,0.00522945
0.7567223,-0.1946734,-0.008531136
0.736164,-0.1380626,0.01754956
0.7785367,-0.1185193,-0.01308544
0.9287315,-0.04845931,-0.03668989
0.9513981,0.01621583,-0.03280756
0.903553,0.06259379,-0.03878859
0.8690905,0.1088606,-0.002280231
0.9062179,0.07617713,0.004342167
0.9812825,0.1077053,0.02260912
0.9801881,0.1717571,0.08358056
1.023502,0.1698551,0.1028467
1.091183,0.09335246,0.1278638
1.136571,-0.04354645,0.1497823
1.158992,-0.02128655,0.1579266
1.097155,0.1379307,0.141126
1.077567,0.2072122,0.1055599
1.093801,0.04880818,0.1161035
1.081674,-0.2776901,0.05555382
1.072183,-0.4001723,-0.1077247
1.036635,-0.2927945,-0.2273489
1.095483,-0.2626157,-0.2308642
1.357606,-0.3153481,-0.1759772
1.619619,-0.3604623,-0.1614485
1.544831,-0.366845,-0.1276713
1.325153,-0.2354928,-0.05733205
1.322836,-0.04736243,-0.01630936
1.286134,-0.06766292,-0.006763035
1.090976,-0.1475879,-0.01462449
0.7724667,-0.0933867,0.03206932
0.4978108,-0.1200021,0.05242964
0.6180456,-0.1248773,0.01244583
0.6621809,-0.04807779,0.04115861
0.5212851,-0.08950884,0.06684217
0.6182592,-0.1266686,0.1048232
0.6327962,-0.168911,0.1724448
0.6307615,-0.1974952,0.1790534
0.7068684,-0.09763175,0.2053733
0.6572927,-0.01586519,0.225042
0.7716407,0.04429914,0.2448893
0.9827499,0.04803865,0.3157134
1.150757,-0.01093489,0.3156484
1.28655,-0.01303122,0.2454501
1.284956,-0.02870765,0.1571542
1.35234,-0.0173214,0.1212235
1.516345,0.04217632,0.1469233
1.721027,0.05373086,0.09880269
1.808127,-0.08027884,0.0527728
1.417664,-0.4322449,0.09994891
0.8661318,-0.6316029,0.1280928
0.647254,-0.4215928,0.08525368
0.7445858,-0.2117399,0.01988665
0.8703636,-0.2047692,-0.04797164
0.9085591,-0.1303962,-0.111998
1.0254,-0.06022487,-0.09906212
1.045931,-0.1771852,-0.02261056
0.8991686,-0.206441,0.03278194
0.7864744,-0.1246283,0.05006368
0.6964316,-0.1092153,0.02502175
0.7909767,-0.08540303,0.01893452
0.955262,-0.07243629,0.02412716
0.9470751,-0.03473873,-0.01078558
0.9172997,0.02141695,-0.0124971
0.8693962,0.05709838,0.004336604
0.8926087,0.1143436,0.005142688
0.9745275,0.09037093,0.01871292
0.9671621,0.09435187,0.0494658
1.011719,0.1370793,0.1012577
1.064747,0.04271447,0.1160593
1.118903,-0.06771485,0.1335084
1.169137,-0.09819336,0.1849074
1.096478,0.01253401,0.1558337
1.067778,0.1263784,0.1255284
1.093294,-0.025463,0.1342336
1.122447,-0.2586248,0.01848412
1.176617,-0.3495285,-0.1674467
1.17844,-0.3055304,-0.2357264
1.264852,-0.2619527,-0.1829473
1.43078,-0.3461678,-0.1490985
1.444252,-0.3771212,-0.1416033
1.339778,-0.2933728,-0.07640106
1.29483,-0.2431957,-0.02741504
1.291289,-0.1868496,-0.01423577
1.175968,-0.1194841,0.01687372
0.9790297,-0.1133352,0.02370518
0.7769952,-0.1222405,0.02106865
0.5791837,-0.08941072,0.04025132
0.5774008,-0.08028871,0.05472284
0.6859958,-0.1234602,0.06591167
0.5936783,-0.151101,0.1157148
0.5665944,-0.1937893,0.1739222
0.6787721,-0.190307,0.1728628
0.6458727,-0.1123844,0.187962
0.6571179,-0.0803479,0.2270062
0.6937999,0.01172032,0.2379406
0.7396593,0.1421067,0.288611
0.9636289,0.1340687,0.3123126
1.168497,0.04138002,0.2402443
1.361233,-0.04677426,0.1284921
1.436752,-0.08086061,0.06155768
1.405236,-0.05592999,0.238627
1.535162,0.09400343,0.4399071
1.556154,0.2423754,0.2302302
1.52054,-0.003682707,-0.03168026
1.441953,-0.4343329,-0.0111018
1.041622,-0.5399558,0.01600247
0.773082,-0.4056051,0.0266821
0.8202336,-0.2992884,0.03049258
0.8776215,-0.2188278,-0.0535951
0.9208615,-0.1217027,-0.07967595
1.005651,-0.1067694,-0.04966342
1.072581,-0.1693087,-0.01211957
0.9565243,-0.1680867,0.03950958
0.7941514,-0.1318581,0.04978761
0.7687995,-0.1017,0.02646019
0.7841862,-0.05923239,-0.004983535
0.8426828,-0.0475444,-0.00337201
0.8833315,-0.02818996,0.0002214535
0.8406149,-0.01092881,-0.0233169
0.8137061,-0.02637729,-0.02299331
0.8651829,-0.03219243,-0.02386698
0.9641859,-0.03503106,-0.006520642
1.025276,0.04543216,0.04233222
1.065585,0.1631975,0.08515337
1.09147,0.1289989,0.1192439
1.105181,0.003467541,0.152455
1.151099,-0.06340193,0.1987446
1.152545,-0.001403414,0.1700066
1.118386,0.08335969,0.1167905
1.111613,0.004814603,0.1599187
1.139993,-0.1718278,0.1297081
1.181507,-0.2993812,-0.04484464
1.169949,-0.2713833,-0.1903524
1.204368,-0.1935296,-0.1673025
1.344551,-0.3099502,-0.09828028
1.431757,-0.3998172,-0.1443238
1.39189,-0.3269813,-0.1034069
1.332449,-0.2673232,-0.005688923
1.33286,-0.1398623,-0.02365399
1.245901,-0.08265888,-0.004407064
0.91061,-0.1482685,0.01872905
0.5311915,-0.111089,0.03776267
0.5186685,-0.1074335,0.07008203
0.6739267,-0.1287496,0.03509076
0.5634945,-0.09740804,0.07146477
0.5392498,-0.1239456,0.1073413
0.6455068,-0.1502154,0.1108057
0.604016,-0.1732462,0.1844512
0.6816141,-0.1596821,0.2000644
0.7107982,-0.07734328,0.2126188
0.6659296,-0.002598406,0.2582731
0.8247515,0.07343182,0.2789587
0.9970165,0.08108144,0.3076425
1.2389,0.02852141,0.2656881
1.395928,0.01862289,0.1435935
1.33262,0.02001962,0.07816577
1.386022,0.02896976,0.2583287
1.545141,0.03187871,0.4347676
1.774252,-0.02628525,0.1395019
1.838879,-0.1821747,-0.1401386
1.460329,-0.3744035,0.04996783
0.8926991,-0.4005362,0.1330169
0.5250072,-0.3273517,-0.002636367
0.6934308,-0.3151001,0.006138339
0.9559652,-0.2169026,-0.03464552
0.9294503,-0.1057941,-0.1352104
1.047563,-0.1616853,-0.08715582
1.056239,-0.2115137,-0.02883641
0.8604368,-0.2022317,0.01204473
0.8192101,-0.2009211,0.04101537
0.7305321,-0.1614802,0.0008992358
0.7728504,-0.144364,-0.005552193
0.9119822,-0.1248319,-0.001817821
0.8787788,-0.03627566,-0.02204725
0.9012274,0.03269169,-0.01968693
0.8652119,0.07795432,-0.02932276
0.8596172,0.09316337,-0.01778662
0.9422726,0.06797731,0.01416008
0.9083986,0.08192493,0.02745632
0.9774085,0.1105522,0.06092247
1.052386,0.1129125,0.09042756
1.110812,0.04087059,0.1188386
1.196199,-0.08016826,0.1817122
1.125919,-0.06992079,0.2020004
1.139168,0.02171424,0.1593687
1.217528,0.01643955,0.1406535
1.291412,-0.134831,0.1381384
1.368039,-0.2960017,0.04078978
1.165958,-0.2121953,-0.1662564
0.9915653,-0.1238159,-0.2913869
1.168161,-0.3185749,-0.2295875
1.34625,-0.4556825,-0.1861247
1.332077,-0.4172676,-0.2023019
1.313179,-0.3402865,-0.09628126
1.34335,-0.2182894,0.005397058
1.327767,-0.1913963,-0.02355986
1.304947,-0.2042001,-0.03465375
1.179116,-0.1281987,0.001005083
0.8997975,-0.08734926,0.02089666
0.7145372,-0.08858814,0.0272027
0.6825067,-0.08469198,0.03950737
0.6538405,-0.08944518,0.07540492
0.5910681,-0.1116486,0.1254071
0.6019179,-0.1542805,0.1614745
0.6754465,-0.1732783,0.1623491
0.6926189,-0.1496313,0.16894
0.6530783,-0.09325559,0.199842
0.599613,-0.01722583,0.2263276
0.6552174,0.06918035,0.2621537
0.8519921,0.09973797,0.2976385
1.110158,0.03113199,0.2998262
1.349335,-0.03633335,0.2053677
1.430646,-0.08438192,0.108052
1.51113,-0.1085538,0.2532875
1.682828,-0.03613531,0.3818649
1.732561,-0.006615564,0.1482195
1.657917,-0.2003315,-0.02188284
1.417135,-0.4364147,0.1585841
1.02884,-0.4191862,0.2431996
0.7666015,-0.2822066,0.05517584
0.7008173,-0.2304558,-0.06867264
0.7795969,-0.1690905,-0.03417786
0.9432644,-0.1297972,-0.03878477
1.044834,-0.1388181,-0.06669609
1.023853,-0.1304878,-0.00649216
0.9087773,-0.1567308,0.04341097
0.7433504,-0.1617926,0.03118571
0.6825294,-0.1531136,0.0238025
0.7827993,-0.1704325,0.01640471
0.8750466,-0.1199549,0.003963882
0.9010117,-0.04156998,-0.0008873929
0.8752888,0.03195558,-0.002742959
0.8426669,0.08326561,-0.0007060635
0.8997706,0.07171113,-0.002467468
0.9455174,0.06521467,0.001567133
0.9311285,0.06971236,0.02749229
0.9604193,0.08300657,0.06710161
1.013503,0.09926823,0.08636506
1.056642,0.06998139,0.07559265
1.090617,0.04430042,0.07553438
1.11529,0.06055199,0.07408546
1.151792,0.08977954,0.03966508
1.16762,0.08691713,0.01184365
1.207521,-0.0168195,0.01426735
1.329522,-0.2144905,0.00574215
1.367608,-0.3173281,-0.02461826
1.297334,-0.2626546,-0.02343089
1.291641,-0.2802076,-0.01226695
1.306264,-0.3523195,-0.02745925
1.284929,-0.315845,-0.01780336
1.246374,-0.2965477,-0.003723576
1.198552,-0.3022324,-0.003690367
1.229863,-0.2216166,0.003208486
1.230356,-0.1328922,-0.0102298
1.000176,-0.09404205,-0.008090494
0.6871723,-0.09102994,0.01787085
0.5960777,-0.09094871,0.03667134
0.6794836,-0.08621823,0.06046594
0.6391036,-0.1165181,0.08881794
0.5650589,-0.1459067,0.1373257
0.6307762,-0.1613338,0.1687107
0.6672995,-0.1660597,0.1774143
0.6722614,-0.116358,0.2132419
0.6923651,-0.02980754,0.240156
0.6913373,0.07300533,0.2714665
0.8195248,0.1307715,0.3069825
1.076476,0.09989325,0.2912239
1.3093,0.03859519,0.2189064
1.426187,-0.04875136,0.1548282
1.435073,-0.08738581,0.3023508
1.486373,0.007799967,0.6300034
1.554267,0.04388136,0.7063208
1.540907,-0.196012,0.2946138
1.531955,-0.5558569,-0.1150482
1.445314,-0.6399878,0.01442855
1.023914,-0.3880791,0.1273217
0.5730252,-0.2017683,-0.07576738
0.7022559,-0.2404803,-0.01326616
0.9838371,-0.1889361,-0.003899417
0.9292503,-0.04396776,-0.1779106
0.9791323,-0.09886969,-0.05868268
0.9894945,-0.192033,0.005928615
0.8021444,-0.1763144,0.01709351
0.784779,-0.1961869,0.08607396
0.7867961,-0.1813853,0.001222024
0.8349367,-0.1456573,0.02623316
0.906871,-0.1431168,0.02990186
0.8568724,-0.0755474,-0.03518595
0.9103092,0.006706259,0.007098471
0.9052146,0.09773539,-0.03336061
0.8807432,0.139833,-0.02273002
0.9404354,0.08760845,0.009149613
0.9026932,0.0906658,0.001902061
0.93133,0.09903994,0.1029947
0.9875201,0.07021766,0.1419248
1.071488,0.02568378,0.1583707
1.196032,-0.04048591,0.1703962
1.173005,-0.003018413,0.08635695
1.16241,0.09387353,0.05385229
1.192726,0.1063066,0.1044284
1.248498,-0.06347253,0.1373245
1.31878,-0.2800686,-0.01556808
1.204855,-0.2375932,-0.2202236
1.11285,-0.2039235,-0.2077286
1.262715,-0.3788399,-0.150709
1.385005,-0.4231872,-0.1139516
1.29414,-0.3706895,-0.02544068
1.240249,-0.3058545,-0.000598171
1.295022,-0.1620519,-0.002034001
1.231244,-0.1065167,0.0195578
1.05103,-0.1112659,0.003261428
0.801042,-0.09971297,0.02440473
0.6557638,-0.09891251,0.07652306
0.7164201,-0.0722605,0.06221612
0.659581,-0.07177253,0.07498317
0.5527639,-0.0799328,0.1102043
0.5969769,-0.08308963,0.1042364
0.612367,-0.09910028,0.1393997
0.633596,-0.08364966,0.1703525
0.6838959,-0.06382116,0.1715539
0.6855311,-0.008837321,0.2029453
0.7538132,0.07000521,0.2474749
0.9319962,0.0826887,0.2899882
1.178783,0.02935152,0.2772246
1.367292,-0.04380767,0.1657682
1.408787,-0.07437403,0.09557515
1.444126,-0.04566064,0.2916666
1.518099,0.08885903,0.496691
1.528323,0.2005331,0.2754297
1.491867,-0.06522132,-0.0161424
1.41964,-0.5122308,-0.01908629
1.139691,-0.6018207,0.02366438
0.7885329,-0.4151051,0.04030804
0.7805992,-0.2849524,0.02012685
0.894753,-0.1977396,-0.06940624
0.8570953,-0.119713,-0.1041103
0.9510921,-0.1350435,-0.0698188
1.060049,-0.2025778,0.003462652
0.9418831,-0.2142799,0.02890607
0.7885228,-0.162521,0.001055456
0.6989172,-0.09684355,0.01066284
0.7774672,-0.06813157,-0.01767564
0.9658522,-0.06409039,-0.03983139
0.9670577,-0.02208569,-0.01701747
0.893346,0.02575621,-0.02070596
0.8860087,0.07104805,-0.01205277
0.9026589,0.1083001,-0.01038093
0.9564963,0.08671854,0.01039223
0.9500717,0.1035284,0.07207699
0.9718773,0.1328076,0.1053612
1.06402,0.07256412,0.1112588
1.066245,0.01495264,0.09955776
1.067444,-0.05159463,0.1013159
1.084343,-0.107595,0.09511015
1.069048,0.01522538,0.06460635
1.094546,0.1320342,0.06319884
1.175713,-0.09408616,0.04708679
1.273385,-0.3529,-0.0267387
1.253862,-0.2773123,-0.1044626
1.219435,-0.2349956,-0.0879159
1.310514,-0.3282604,-0.03575184
1.339819,-0.3053542,-0.05655315
1.309518,-0.2971617,-0.04895769
1.297054,-0.2946704,-0.02237002
1.273335,-0.2377306,-0.02599091
1.303063,-0.2068857,-0.00418854
1.293882,-0.1386661,-0.003993395
1.091393,-0.1096283,0.006974165
0.786051,-0.122724,0.03086099
0.6553862,-0.0738262,0.02155254
0.7172477,-0.06367975,0.0455601
0.6875388,-0.08129646,0.07256341
0.6215709,-0.09504419,0.1029965
0.6561481,-0.1534069,0.1596312
0.6723234,-0.1711522,0.1820786
0.6880098,-0.1291303,0.1894855
0.7014553,-0.0682571,0.2076127
0.6827112,0.009849558,0.2408481
0.7230928,0.05701317,0.2754352
0.8473175,0.05947502,0.2929392
1.082201,0.03586874,0.2772456
1.320169,-0.009442931,0.1833342
1.390624,-0.06905783,0.1284478
1.409854,-0.09073288,0.2863185
1.502281,0.02159845,0.4346012
1.587895,0.1228143,0.2240622
1.564186,-0.08216402,-0.03374624
1.431617,-0.4478303,0.02205235
1.172446,-0.56831,0.07365278
0.8273626,-0.3961478,0.02852384
0.7465372,-0.1855651,-0.0009223526
0.8806117,-0.09586897,-0.1044802
0.8556155,-0.07009741,-0.1195284
0.9126749,-0.1219455,-0.03906266
1.021324,-0.2434889,-0.009088371
0.8764785,-0.2463295,0.03326675
0.7930239,-0.204522,0.03599345
0.7725923,-0.1904511,0.01100585
0.6829932,-0.1245136,0.0201451
0.7825693,-0.1249604,0.007708117
0.9499559,-0.1166043,-0.001091022
0.9763935,-0.02527227,-0.012688
0.948001,0.02250507,-0.02720435
0.9524038,0.05762866,-0.01317295
0.963704,0.05378151,-0.002287619
0.9401206,0.03456833,0.01873294
0.9456882,0.07143394,0.04446484
0.986037,0.07189356,0.08520515
1.039559,0.04272792,0.1575977
1.089561,-0.0003007363,0.1602498
1.1084,-0.04289666,0.09137841
1.117673,-0.01157481,0.04689411
1.084314,0.02863172,0.05195133
1.073877,0.004566303,0.1370688
1.161484,-0.124102,0.1931496
1.225256,-0.2649281,0.009841128
1.183736,-0.1941707,-0.2594329
1.150622,-0.1284457,-0.2948602
1.252948,-0.3559104,-0.1762429
1.334527,-0.5758512,-0.1197197
1.283281,-0.5596416,-0.09519982
1.275566,-0.4045196,-0.05007471
1.326321,-0.2145563,-0.02388475
1.317637,-0.1426939,-0.02341901
1.172053,-0.1388493,-0.01209509
0.8969746,-0.09771635,0.02691005
0.7231574,-0.1059444,0.05362828
0.742879,-0.1240741,0.05521234
0.7405073,-0.1171113,0.06320315
0.6560794,-0.1482173,0.08464537
0.6396836,-0.1818267,0.1231085
0.6931334,-0.1902307,0.1554665
0.7378059,-0.1609761,0.1563066
0.7514123,-0.08306393,0.16068
0.7238197,-0.02533946,0.1922738
0.7230212,0.005087993,0.2280358
0.8008798,0.06753879,0.253413
0.9560462,0.09372612,0.2654398
1.135283,0.05571706,0.2612054
1.207032,0.03394173,0.2617669
1.216122,-0.04594803,0.2815325
1.267688,-0.1613831,0.3429136
1.290044,-0.1292039,0.4183888
1.337178,-0.07505156,0.3556865
1.51447,-0.1109785,0.1369152
1.611415,-0.1351358,-0.03153861
1.448484,-0.278107,-0.005898618
1.068747,-0.4654962,0.0567293
0.6905711,-0.3876832,-0.007967267
0.7339793,-0.2326303,-0.02749758
0.8960369,-0.1828376,-0.01271656
0.7584909,-0.1516915,-0.06082537
0.8851323,-0.2096842,-0.03197439
1.079904,-0.2598757,-0.031096
0.8962048,-0.2189034,-0.01949571
0.8432886,-0.2151271,0.08168471
0.8210577,-0.1875423,0.05883576
0.7724307,-0.1427047,0.03469911
0.9040117,-0.1154905,0.05055448
0.937902,-0.01640159,0.02052633
0.971053,0.09342785,0.03860449
0.9659734,0.1641367,0.02660519
0.8956584,0.1582179,0.02170262
0.9437267,0.1070241,0.04691167
0.907016,0.1097986,0.04170445
0.8839162,0.09799268,0.0737715
0.9163392,0.1073616,0.09633914
0.9017904,0.1274066,0.1210594
0.9665782,0.04423339,0.1477563
1.037898,-0.03353594,0.1118768
1.123779,-0.052816,0.07462318
1.158074,-0.03758662,0.05047024
1.087246,0.02163307,0.04853106
1.102334,0.05690278,0.07627789
