accx,accy,accz
0.6570508,-0.3261276,0.1449012
0.7363576,-0.2674384,0.1524977
0.8019556,-0.2082586,0.1532428
0.8872232,-0.1941084,0.1081921
0.9706275,-0.1846396,0.1177715
1.128016,-0.1833522,0.1132236
1.237372,-0.1611776,0.07648225
1.217035,-0.1387891,0.1069139
1.412615,-0.1144803,0.1524134
1.599486,-0.1001085,0.1791118
1.465493,-0.2626478,0.1522293
1.397219,-0.586352,0.05012151
1.419671,-0.8980478,-0.06018255
1.20981,-0.9961468,-0.1466223
0.8727105,-0.7706429,-0.09428581
0.6676385,-0.4187337,0.01511941
0.6571466,-0.1324466,-0.04012545
0.8129846,-0.03680775,-0.1018168
0.9943104,-0.1339897,-0.1408481
0.9994655,-0.2214395,-0.2076091
0.9097006,-0.3563924,-0.1164817
0.8333511,-0.5301965,-0.0162076
0.7266192,-0.5056965,-0.01368997
0.7325623,-0.4234638,-0.02842334
0.852347,-0.2997042,-0.1443989
0.8902725,-0.03497858,-0.2406469
0.8865278,0.02760312,-0.2169674
0.9041909,-0.04273706,-0.1784123
0.9378905,0.01611961,-0.1581487
0.9652599,-0.01503376,-0.1244801
0.9627297,-0.08172983,-0.07527488
1.02715,-0.1101292,-0.06829713
1.112375,-0.2198783,-0.05960393
1.146923,-0.2608585,-0.0499258
1.202588,-0.2399618,-0.06603736
1.241058,-0.1627441,-0.04648628
1.265185,0.02713432,-0.054952
1.29042,0.09603684,-0.07110282
1.272776,0.02124622,-0.07964422
1.229886,-0.09845752,-0.1192209
1.107453,-0.3026432,-0.1101308
0.9536292,-0.4330009,-0.1221192
0.9592518,-0.399155,-0.1945759
1.098029,-0.4110687,-0.2592923
1.231239,-0.4721868,-0.2730569
1.335778,-0.413466,-0.1900259
1.328981,-0.3273661,-0.09002148
1.128436,-0.218628,-0.01625084
0.8668269,-0.1061408,0.004570455
0.722723,-0.1407025,-0.03997673
0.723084,-0.137967,-0.0566201
0.7315561,-0.1123239,-0.07255436
0.7074658,-0.1937266,-0.06080284
0.6962345,-0.2332504,0.02019193
0.6271167,-0.2869927,0.07984503
0.567071,-0.3275912,0.1289219
0.5790321,-0.3115769,0.1531279
0.6425688,-0.3259295,0.1466487
0.8070133,-0.2764179,0.1390374
0.9876627,-0.2308947,0.08327177
1.169012,-0.2400402,0.03392226
1.346989,-0.207686,0.0006260979
1.448863,-0.1635139,-0.02499503
1.567452,-0.1327817,0.03107134
1.575358,-0.1511847,0.09294098
1.306891,-0.2410376,0.1362097
1.072953,-0.3772272,0.2013583
1.126772,-0.5159722,0.1417991
1.196412,-0.7405722,-0.1189402
1.110396,-1.032744,-0.3373126
1.071027,-0.923011,-0.2573712
0.9449697,-0.4380198,-0.06391333
0.7230911,-0.08830849,-0.008755456
0.7900442,0.03129724,-0.002750565
0.8897259,-0.1104831,-0.03148703
0.8420591,-0.3264587,-0.08287281
0.905751,-0.4399703,-0.06257307
0.8605461,-0.5552812,-0.05667929
0.7443704,-0.525094,-0.05087871
0.7898069,-0.3978885,-0.05817969
0.797448,-0.1344758,-0.1335205
0.8389388,0.1905944,-0.1664133
0.9694933,0.1941531,-0.1945415
1.006402,0.1752472,-0.1860439
1.008791,0.106533,-0.1068726
1.016711,-0.1295373,-0.06123406
1.025637,-0.1951457,-0.003449658
1.086777,-0.2556912,0.004232924
1.17974,-0.2619896,-0.03252946
1.232783,-0.1956574,-0.02327919
1.215788,-0.1316505,-0.03443653
1.225131,0.05294409,-0.03113941
1.259828,0.03944779,-0.04572614
1.252877,-0.1177963,-0.1055049
1.217813,-0.2070161,-0.133312
1.096869,-0.2921428,-0.1494738
0.9632852,-0.3374201,-0.1613839
0.9941717,-0.4612405,-0.1867155
1.153824,-0.5745855,-0.1949037
1.314126,-0.5637086,-0.1548492
1.351369,-0.4847204,-0.08196315
1.198801,-0.3016149,0.02719227
0.968178,-0.1214288,0.0401306
0.8051725,-0.02312745,-0.03339843
0.7741822,-0.009231934,-0.07304197
0.832888,-0.05100545,-0.1095662
0.82679,-0.1231771,-0.07854372
0.7380157,-0.2696051,0.01213832
0.6432519,-0.3544766,0.07583941
0.5683225,-0.3352893,0.1424451
0.5874133,-0.3386835,0.1698829
0.6506119,-0.3316354,0.1612446
0.7312577,-0.2755761,0.156206
0.8791724,-0.201908,0.1312681
0.981032,-0.1640263,0.115809
1.071118,-0.1970532,0.08130862
1.155605,-0.2218981,0.03969097
1.168862,-0.2017206,0.07927088
1.356415,-0.1980396,0.1710121
1.60345,-0.1754404,0.2589325
1.487254,-0.09619957,0.2656206
1.245256,-0.09195804,0.1943117
1.213893,-0.3068981,0.1360681
1.251301,-0.6983846,0.01748736
1.265253,-0.950547,-0.1093367
1.113671,-0.8395062,-0.1102174
0.7974753,-0.534185,-0.1114301
0.7144469,-0.2081248,-0.1409484
0.8274707,-0.07162705,-0.129204
0.859756,-0.222395,-0.08748805
0.8260513,-0.3049979,0.003868766
0.8272363,-0.3157182,0.01909539
0.9522634,-0.3864514,-0.13324
1.014908,-0.2538766,-0.2488608
0.8651803,-0.05533801,-0.1790217
0.743738,0.02930423,-0.1052016
0.8810106,0.02882988,-0.1524399
1.052152,-0.1213918,-0.1254521
0.977982,-0.1951647,-0.05046443
0.9240945,-0.151964,-0.06040443
0.9292077,-0.1353016,-0.02006879
0.8803193,-0.1233263,0.002602651
0.9782838,-0.1826668,-0.03687904
1.07719,-0.2630014,-0.02136978
1.128477,-0.3522557,-0.03412303
1.20339,-0.4140492,-0.04467305
1.177643,-0.2966474,-0.01522668
1.195974,-0.08200207,0.001884655
1.264164,0.04357188,0.03857751
1.25532,-0.06162527,-0.0009125195
1.220945,-0.2141139,-0.0918356
1.147549,-0.2354501,-0.106815
1.040143,-0.309976,-0.1277514
0.9960473,-0.4179277,-0.1784213
1.079711,-0.4903948,-0.1797009
1.191185,-0.5449089,-0.08950321
1.251039,-0.5002552,0.04806701
1.265158,-0.3563657,0.0838571
1.145713,-0.1297873,-0.01738069
0.9516987,0.01790876,-0.1099358
0.8438278,-0.005490464,-0.1092516
0.8200209,-0.01537456,-0.09676966
0.8008613,-0.09105112,-0.06969925
0.749241,-0.2840479,0.01918315
0.7126667,-0.3699717,0.05403921
0.6883477,-0.3793096,0.05747831
0.6187257,-0.3886442,0.1037786
0.5656047,-0.3679429,0.1217296
0.598738,-0.3566548,0.1432713
0.679769,-0.311446,0.1370431
0.8118879,-0.2044164,0.08037988
0.9987977,-0.1352966,0.07309124
1.138534,-0.1672417,0.05253315
1.249867,-0.191844,0.02655476
1.426619,-0.1419333,0.04784012
1.590436,-0.1319062,0.07833242
1.58065,-0.1554823,0.1770417
1.360613,-0.1981913,0.2457697
1.183662,-0.3054673,0.1842976
1.230535,-0.4217201,0.1100959
1.258127,-0.6675362,-0.02099195
1.141582,-0.9671521,-0.1929778
1.042336,-0.8703441,-0.1632634
0.9222859,-0.4800665,-0.05982181
0.7665947,-0.1991725,-0.1073642
0.81069,-0.07633003,-0.104775
0.9126021,-0.1797246,-0.06512165
0.8287319,-0.3768414,-0.08831088
0.8164759,-0.4813049,-0.03496515
0.8773223,-0.551443,-0.05633911
0.8678718,-0.4537094,-0.1544133
0.9278521,-0.3023564,-0.1750842
0.9250223,-0.1432417,-0.1644517
0.8791798,0.120197,-0.08179465
0.9395731,0.1476131,-0.05829396
0.9578263,0.1168606,-0.09306687
0.9920864,0.1284389,-0.05947444
1.035335,-0.05613723,-0.06054127
1.009234,-0.1780421,-0.02805022
1.04016,-0.2695433,-0.0009974022
1.087556,-0.3202861,-0.02889287
1.136131,-0.2917263,-0.0070569
1.168806,-0.3081204,-0.007226589
1.147937,-0.1544395,-0.005148075
1.194943,-0.04122926,-0.00781118
1.234211,-0.1087453,-0.08187936
1.169027,-0.1796393,-0.1414537
1.033639,-0.3069342,-0.1368435
0.9094098,-0.3611657,-0.1309994
1.015685,-0.3762908,-0.1966681
1.291196,-0.4732241,-0.2055226
1.443095,-0.5327772,-0.1202407
1.365849,-0.4590124,-0.0416749
1.092763,-0.2260139,0.06671587
0.8420702,-0.01920195,0.1028606
0.7896727,-0.01124228,0.02708435
0.801729,-0.08293149,-0.03919258
0.7766212,-0.08953186,-0.06248332
0.7841584,-0.16979,-0.01952547
0.7848781,-0.3099276,0.03990304
0.6916976,-0.3122474,0.09673329
0.5787918,-0.3374597,0.1377065
0.5384833,-0.3513981,0.1263557
0.6225584,-0.2866011,0.1196511
0.7723528,-0.2760699,0.08487293
0.8706671,-0.1836392,0.05532217
0.977602,-0.1385018,0.1049479
1.072724,-0.2026499,0.1495008
1.14709,-0.1793315,0.1558227
1.309073,-0.1337641,0.1288465
1.467607,-0.09339042,0.1034064
1.539144,-0.1659922,0.1177305
1.476128,-0.3461305,0.1275796
1.348777,-0.4998883,0.1008994
1.292108,-0.7068085,-0.01206869
1.145337,-0.825124,-0.139837
0.8959675,-0.7531392,-0.1097251
0.6797853,-0.5611056,-0.0217955
0.6029534,-0.2600718,-0.02473751
0.7921454,-0.09021779,-0.03364468
0.984675,-0.1181953,-0.04187529
0.9988626,-0.1403464,-0.07016687
0.9647924,-0.2223947,-0.05904379
0.8712378,-0.371167,-0.05828393
0.7752839,-0.3917318,-0.05065796
0.7550658,-0.338536,-0.02379649
0.7781785,-0.3338605,-0.03979027
0.783151,-0.3428974,-0.03831458
0.7921419,-0.2852949,-0.04701692
0.9363271,-0.05547239,-0.1185663
1.064632,0.1818763,-0.169262
1.012701,0.1116679,-0.1176091
0.9717892,-0.05013486,-0.01059786
1.048006,-0.05097945,0.0004196102
1.122602,-0.1385982,-0.04095074
1.166302,-0.258579,-0.04456208
1.211279,-0.2691839,-0.03789525
1.19214,-0.2964626,-0.01695976
1.180539,-0.1980004,-0.02937343
1.218078,-0.09918632,-0.05072685
1.181611,-0.1857464,-0.05452809
1.083066,-0.2764009,-0.09499662
0.9550013,-0.38189,-0.1412982
0.9498337,-0.4062726,-0.1774281
1.143829,-0.4112449,-0.1633364
1.364801,-0.5786368,-0.1239156
1.505768,-0.6110927,-0.1113219
1.328334,-0.4314997,-0.03580185
0.9428629,-0.165457,0.03345553
0.7903657,0.04450919,0.0002099695
0.8089059,-0.01009375,-0.05844358
0.8119772,-0.06905467,-0.08814032
0.7631805,-0.04835584,-0.06666665
0.7312257,-0.21229,-0.0009741371
0.6787356,-0.3325856,0.09456475
0.5261602,-0.3002848,0.1636287
0.5262062,-0.3209296,0.1589181
0.5833047,-0.3040447,0.1459785
0.588457,-0.2781182,0.1406903
0.7387852,-0.2754196,0.1241036
0.8716265,-0.196698,0.1211735
1.003703,-0.176446,0.1139985
1.187879,-0.203765,0.07479277
1.310797,-0.2125307,0.04628023
1.457407,-0.2168562,0.0808265
1.511221,-0.1743944,0.1607235
1.410196,-0.1752427,0.2230333
1.26638,-0.2880457,0.1867013
1.162901,-0.5550024,0.06073483
1.192172,-0.8731592,-0.06867875
1.186603,-0.9601587,-0.1570614
0.9898238,-0.7359266,-0.1583115
0.7495381,-0.3630281,-0.1169947
0.6714492,-0.1411518,-0.09321259
0.7456978,-0.1371309,-0.05573502
0.7891451,-0.1912954,-0.0524068
0.8236075,-0.2873671,-0.07026104
0.9086434,-0.4298931,-0.08247241
0.9235328,-0.5244295,-0.1446282
0.902478,-0.4514038,-0.1631965
0.9090942,-0.2427063,-0.1169117
0.8942738,-0.001902111,-0.09699902
0.919257,0.1154431,-0.09331805
0.9628952,0.08654692,-0.10693
0.9610991,0.1499542,-0.1129676
0.9698905,0.1192749,-0.08996745
0.9739966,-0.05694576,-0.06821339
0.9820132,-0.1014774,-0.04653168
1.030224,-0.2069275,-0.03315737
1.101813,-0.2882548,-0.02900497
1.169788,-0.2461062,-0.02998402
1.180353,-0.2498969,-0.03298677
1.176842,-0.1377819,-0.03447392
1.216215,-0.05067613,-0.04202703
1.268419,-0.1374733,-0.04494716
1.268211,-0.2539489,-0.05891901
1.150095,-0.3482984,-0.08891833
1.02938,-0.3472792,-0.1531675
1.065039,-0.3903561,-0.2759609
1.186922,-0.5208756,-0.3097016
1.24719,-0.5570638,-0.1433238
1.203317,-0.4897734,0.04819034
1.091806,-0.316172,0.06746546
0.9772095,-0.0984484,-0.03936066
0.905906,-0.00827344,-0.1201933
0.8651181,-0.05636037,-0.130563
0.8145083,-0.1227233,-0.08947879
0.7430809,-0.2270732,-0.005355964
0.6842507,-0.3523372,0.09089528
0.6405374,-0.3474065,0.135377
0.5948852,-0.316377,0.1234602
0.5758388,-0.3247534,0.1343451
0.5905599,-0.2821726,0.1468165
0.6519892,-0.2432452,0.120097
0.7673152,-0.2020282,0.1114267
0.9046603,-0.1818342,0.1005098
1.05525,-0.2236047,0.08774709
1.207042,-0.2460273,0.0991891
1.34674,-0.2319706,0.08663891
1.464441,-0.1776072,0.09584611
1.532559,-0.1007161,0.1484807
1.451763,-0.1036404,0.1844469
1.252555,-0.3153695,0.1591125
1.186426,-0.6820035,0.02350707
1.203473,-0.8973951,-0.1384533
1.076325,-0.8556603,-0.1858865
0.8820734,-0.6518506,-0.1266544
0.7883214,-0.3448119,-0.09074356
0.7866118,-0.1460275,-0.08482283
0.7659395,-0.1713656,-0.01000799
0.76974,-0.2434904,0.01801111
0.831216,-0.3191838,-0.03374065
0.8864854,-0.4050283,-0.07277695
0.9277613,-0.358883,-0.1468713
0.8905304,-0.2353902,-0.1514679
0.8609531,-0.1042086,-0.06897184
0.8888315,0.05261469,-0.03478067
0.8776782,0.1116249,-0.009165058
0.8979935,0.116726,-0.02183008
0.9034339,0.1169092,-0.06935928
0.8911173,0.03414357,-0.07651541
0.9457119,-0.05358989,-0.07043916
1.013229,-0.1445389,-0.04679443
1.12757,-0.2276021,-0.05020086
1.212508,-0.2445669,-0.06234864
1.211382,-0.2416223,-0.03075526
1.220168,-0.1622322,-0.03015256
1.235503,-0.02608623,-0.02610326
1.281788,0.01887999,-0.0133402
1.311433,-0.1048044,-0.03870822
1.258301,-0.2947811,-0.05329893
1.137403,-0.3431651,-0.070877
0.9535218,-0.3155417,-0.0833425
0.8808565,-0.3392455,-0.09786494
0.9829772,-0.412955,-0.15376
1.14562,-0.5385574,-0.1785944
1.359696,-0.5717351,-0.1121912
1.404439,-0.4316952,-0.03109873
1.159539,-0.2167623,-0.06479684
0.9645081,-0.06866914,-0.1053521
0.8949059,-0.0854152,-0.06055504
0.8100945,-0.1285807,-0.07469809
0.7763177,-0.1342466,-0.07661599
0.7495692,-0.226218,-0.01215452
0.66671,-0.2986071,0.03190616
0.5872741,-0.282421,0.09024543
0.5410977,-0.3135911,0.112212
0.5452213,-0.3362724,0.1145776
0.5925943,-0.3138081,0.1427276
0.6669999,-0.3145406,0.1388837
0.7491251,-0.2435895,0.1319519
0.8409619,-0.1177685,0.1111942
0.940491,-0.08552392,0.09394471
1.078373,-0.1523468,0.0648962
1.308211,-0.2211162,-0.01227598
1.469423,-0.2270465,-0.0003453901
1.498455,-0.1810453,0.07946411
1.491816,-0.08259241,0.1516297
1.337948,-0.04879342,0.2112568
1.159754,-0.275195,0.1714499
1.208923,-0.6604337,0.03525739
1.260332,-0.9333434,-0.1739917
1.154994,-0.9839829,-0.2859959
0.9976975,-0.7960492,-0.1614923
0.7384572,-0.4396077,-0.05648014
0.5821003,-0.1780208,-0.03152243
0.7154063,-0.1078364,0.007906507
0.8194335,-0.09357285,-0.02554388
0.8986952,-0.1891851,-0.06735381
0.9951606,-0.3752702,-0.1034006
0.8746518,-0.4201788,-0.1403798
0.7847112,-0.3089727,-0.08049967
0.8033546,-0.1677343,-0.04561787
0.8054032,-0.03023929,-0.07972082
0.9123068,0.05608347,-0.1088624
0.9748621,0.06659469,-0.1502377
0.9904229,0.07653025,-0.1344926
1.051749,0.0481364,-0.09031543
1.059111,-0.08034192,-0.07098493
1.075303,-0.1984662,-0.0275269
1.087797,-0.2238118,-0.02903176
1.127491,-0.2144285,-0.0630887
1.214328,-0.2367688,-0.05460731
1.215338,-0.1742222,-0.04769036
1.220953,-0.02697956,-0.03810148
1.267811,-0.03118258,-0.03564896
1.237941,-0.1574868,-0.07400289
1.11214,-0.3017757,-0.1097623
0.9787724,-0.41612,-0.1444272
0.9911689,-0.438552,-0.1949752
1.122878,-0.4995428,-0.2254993
1.251173,-0.5518183,-0.1920921
1.336273,-0.4998701,-0.07665337
1.285382,-0.3945004,0.03621866
1.09577,-0.171319,0.03362911
0.8889452,-0.02956216,-0.02941145
0.7525273,-0.07325864,-0.04309126
0.7448006,-0.04256038,-0.06801825
0.7481723,-0.07543307,-0.09631506
0.7118401,-0.2627693,-0.02229562
0.7145028,-0.3355973,0.05905021
0.6202693,-0.3453807,0.09435491
0.5201413,-0.3617323,0.1358966
0.5781164,-0.3216983,0.1612468
0.6580483,-0.3029903,0.1395298
0.7856067,-0.2473599,0.08630253
0.9630341,-0.1590763,0.1019069
1.124659,-0.153477,0.1102652
1.301907,-0.161802,0.02293844
1.42733,-0.1534499,0.0006619234
1.50183,-0.1323155,0.06924819
1.508201,-0.121457,0.156801
1.3522,-0.1820767,0.1760852
1.202891,-0.3089682,0.09970229
1.289382,-0.6236254,-0.02762909
1.401425,-1.0091,-0.2227021
1.307497,-1.009624,-0.2517312
1.111235,-0.7504165,-0.1419611
0.7941703,-0.5355779,-0.1469597
0.5958869,-0.2349915,-0.07578699
0.7578079,-0.118007,-0.007268899
0.8176132,-0.1806035,-0.0363015
0.7580634,-0.08556973,-0.002673211
0.8640928,-0.2599656,-0.07476381
0.8904207,-0.4602734,-0.1537729
0.851573,-0.3394274,-0.1195873
0.846305,-0.3471001,-0.1187493
0.832741,-0.2124874,-0.07065129
0.8914808,0.01313731,-0.05027019
0.9488665,0.05975723,-0.09747273
0.977172,0.1525132,-0.103094
0.9860125,0.1094184,-0.105097
0.9931853,0.0113803,-0.08380538
1.060729,-0.1083358,-0.07320514
1.091441,-0.266426,-0.06209199
1.115216,-0.2611823,-0.02894289
1.156268,-0.2852668,-0.03784354
1.138719,-0.2546241,-0.03343654
1.142618,-0.1158207,-0.03582339
1.187853,-0.008371611,-0.05789925
1.24493,0.03180031,-0.0978262
1.256521,-0.1421835,-0.1571535
1.138645,-0.3103835,-0.109346
0.9950282,-0.3651028,-0.06416942
0.9956854,-0.4503408,-0.1515373
1.155235,-0.5237683,-0.2259008
1.306518,-0.5639477,-0.2040687
1.307774,-0.4968579,-0.07952444
1.19538,-0.3417063,0.08543796
1.045621,-0.1463446,0.1186453
0.8718509,-0.003397049,0.01853243
0.7572971,-0.007542078,-0.04892774
0.791594,-0.01876977,-0.06229568
0.81092,-0.1155359,-0.05216271
0.738996,-0.274787,-0.00169991
0.6862903,-0.3175209,0.04701872
0.5971046,-0.3555363,0.1039458
0.5352285,-0.3577455,0.1540722
0.5819417,-0.3251311,0.1656061
0.629361,-0.3111018,0.177402
0.7419136,-0.2187142,0.1522453
0.9104595,-0.1233406,0.112
1.039926,-0.09183891,0.08341015
1.216829,-0.1306551,0.02487504
1.398979,-0.1855433,0.01698412
1.518375,-0.1650104,0.09710359
1.56175,-0.1398573,0.1885499
1.446548,-0.1586213,0.2022108
1.294257,-0.3433329,0.1261588
1.258612,-0.7341358,0.02768363
1.238751,-0.9720511,-0.08754331
1.064897,-0.8668121,-0.1335799
0.7572463,-0.5677112,-0.0522562
0.6144969,-0.1924893,-0.01026448
0.744953,0.01064349,-0.06998388
0.9048674,-0.08047421,-0.1200074
0.9995952,-0.1678447,-0.1127011
0.9574189,-0.2608234,-0.07397862
0.7564431,-0.4767638,-0.02113994
0.69822,-0.5221736,-0.007750338
0.806445,-0.3696268,-0.101978
0.8916218,-0.1701568,-0.2082143
0.9466793,-0.02514021,-0.2109837
0.9296389,-0.01729789,-0.1774466
0.9243264,0.0745654,-0.1526112
0.9522414,0.1996385,-0.1008944
0.9500131,0.1300877,-0.06947159
1.006548,0.0324571,-0.07067224
1.070156,-0.02682047,-0.05264544
1.121414,-0.156981,-0.0435433
1.153948,-0.2639863,-0.02474644
1.149675,-0.2417945,0.001833159
1.214385,-0.1942789,-0.02194535
1.260624,-0.1217816,-0.02717138
1.256312,-0.02927763,-0.02888678
1.255762,-0.07542381,-0.07528031
1.198494,-0.1757446,-0.1026061
1.093391,-0.272535,-0.1144793
0.9912117,-0.3769217,-0.1420449
1.025699,-0.4421834,-0.2085718
1.198068,-0.5409678,-0.2416238
1.350631,-0.566651,-0.1784302
1.37614,-0.4874298,-0.0766389
1.166663,-0.3522772,0.05366185
0.8951989,-0.08515548,0.07163271
0.7834361,0.05924927,-0.04219761
0.7674468,0.01056434,-0.09332437
0.7667875,-0.001950872,-0.1214224
0.7262769,-0.1147161,-0.08731702
0.6884388,-0.3237453,0.03438463
0.6661721,-0.3873251,0.08645387
0.5964205,-0.3641923,0.1291488
0.5543068,-0.3569303,0.1697509
0.5855366,-0.3251117,0.1582801
0.6957147,-0.2677016,0.1329974
0.8320789,-0.2218312,0.08922489
0.944195,-0.1778044,0.09415338
1.106708,-0.1368451,0.07799578
1.280887,-0.1410203,-0.01918844
1.429948,-0.1459351,-0.03926248
1.580534,-0.1151952,0.06135183
1.615983,-0.1183791,0.1682844
1.409461,-0.2127553,0.1465368
1.159544,-0.4499282,0.08201192
1.16981,-0.7653438,0.0201219
1.206323,-0.9126226,-0.1522903
1.041313,-0.8069033,-0.1910884
0.8722763,-0.5430206,-0.07550824
0.7623404,-0.1988134,-0.07462992
0.795149,-0.01936025,-0.06798487
0.8907241,-0.1047256,-0.03800672
0.8445269,-0.2380049,-0.03473302
0.8498169,-0.4282491,-0.0004069141
0.8526707,-0.5503153,-0.0427261
0.7799583,-0.4155512,-0.1042126
0.8236728,-0.2759051,-0.1105193
0.8407609,-0.08779675,-0.1179901
0.8525079,0.1268945,-0.12683
0.9251066,0.1078096,-0.1547151
0.9315325,0.1122191,-0.1373908
0.9594024,0.1270726,-0.08668313
0.9986315,0.01312054,-0.06617788
1.054626,-0.05893371,-0.03528523
1.134097,-0.1783136,-0.05221669
1.169401,-0.3022044,-0.08259713
1.242464,-0.3336063,-0.0551062
1.275705,-0.2868778,-0.03486996
1.270171,-0.1308318,0.006833005
1.304801,-0.02033451,0.02959652
1.284595,-0.0337079,-0.05452629
1.229994,-0.1493121,-0.131984
1.114471,-0.2621639,-0.1373691
0.9841945,-0.3036704,-0.174793
1.01588,-0.4022961,-0.2519888
1.157481,-0.5068676,-0.2473791
1.309391,-0.5578301,-0.1944051
1.350846,-0.5352283,-0.1651303
1.189368,-0.3672298,-0.06316168
0.965415,-0.143789,0.04465592
0.8077139,-0.02796791,0.00123933
0.7489671,-0.06045542,-0.07386402
0.7557372,-0.07151496,-0.06700383
0.7326177,-0.08891578,-0.06081613
0.7089041,-0.1759848,-0.05314644
0.6967096,-0.2122479,0.02574916
0.623334,-0.3054707,0.1289505
0.5549772,-0.3598288,0.180895
0.5526166,-0.2878214,0.1680999
0.5969232,-0.2911502,0.1582122
0.6798104,-0.2748133,0.1603651
0.8091606,-0.2109088,0.114993
1.016951,-0.1995121,0.09350136
1.188532,-0.2204086,0.07241531
1.261477,-0.2703104,-0.02295395
1.391903,-0.2482502,-0.03644389
1.560152,-0.1557344,0.1346477
1.613617,-0.07074049,0.2891932
1.452495,-0.07794806,0.1825802
1.177452,-0.3596632,0.02870683
1.119252,-0.7854576,0.007391595
1.176996,-0.9954174,-0.1333687
1.059922,-0.883278,-0.2246331
0.916643,-0.5784886,-0.1192355
0.8426234,-0.2593067,-0.1058722
0.8191542,-0.1326662,-0.06898224
0.8237072,-0.2008801,0.03822669
0.7815918,-0.2564277,0.01304348
0.7932796,-0.3999905,-0.03282026
0.8151751,-0.5367743,-0.061987
0.7722719,-0.3826494,-0.1093124
0.7800877,-0.2128922,-0.1048461
0.8123526,-0.06015959,-0.1032902
0.8757497,0.1004862,-0.142409
0.9598931,0.06944366,-0.1604653
0.9709845,0.09322015,-0.136445
0.9723773,0.1177919,-0.09754096
0.9962549,0.02359469,-0.06497589
1.037127,-0.02601846,-0.04474432
1.104844,-0.1332558,-0.03173115
1.172668,-0.2269377,-0.0169224
1.2227,-0.248301,0.003789138
1.238152,-0.24353,0.02493237
1.25739,-0.1280732,0.02368081
1.271627,-0.03240666,-0.003854625
1.250689,-0.1080839,-0.05690252
1.195041,-0.2637226,-0.1110483
1.067557,-0.3159927,-0.1209427
0.9887101,-0.3479111,-0.1553396
1.049963,-0.4727523,-0.2335671
1.166535,-0.5298485,-0.2359257
1.332298,-0.5190722,-0.2006867
1.413485,-0.4866869,-0.182508
1.236851,-0.3556424,-0.07623574
1.007366,-0.1777545,0.04833286
0.8923421,-0.1288107,0.02896802
0.8002012,-0.1571832,-0.05715219
0.7908651,-0.09840984,-0.09848652
0.8311186,-0.1442947,-0.1045835
0.7600693,-0.2483462,-0.0296781
0.6626065,-0.2519415,0.09083975
0.5605959,-0.2959649,0.10733
0.5056865,-0.2793269,0.1007861
0.6023871,-0.2683986,0.1429042
0.6633605,-0.3118041,0.1384699
0.6994391,-0.2595027,0.1429187
0.8681568,-0.2565644,0.1690033
1.081725,-0.2541008,0.1355958
1.244347,-0.2316714,0.03209851
1.316522,-0.2411535,-0.07281982
1.387227,-0.1608638,-0.001629699
1.481854,-0.07932554,0.1566642
1.458776,-0.03785639,0.1749477
1.341871,-0.1539525,0.1433619
1.218436,-0.5232136,0.09333541
1.155768,-0.9137636,-0.04974863
1.146575,-1.089135,-0.1809564
1.031898,-0.8459669,-0.1885181
0.8223514,-0.4066599,-0.1182668
0.7332467,-0.1272628,-0.1103496
0.8426397,-0.002859951,-0.1188849
0.9270059,-0.08798805,-0.0644918
0.8629534,-0.279618,-0.02942237
0.8400354,-0.4833102,-0.0125988
0.8411079,-0.6045272,-0.0257303
0.7787862,-0.4154387,-0.0456919
0.749201,-0.225755,-0.04337657
0.7475241,-0.1072288,-0.1001223
0.8556526,0.1037746,-0.1717372
1.022791,0.1501464,-0.2264645
0.9925603,0.1444737,-0.1773223
0.9104224,0.1375179,-0.03275171
0.9307789,0.03134378,-0.03525349
0.995889,-0.05455532,-0.08263126
1.144821,-0.2087745,-0.07347768
1.242372,-0.3278841,-0.09109261
1.2127,-0.3211945,-0.06044203
1.196343,-0.2299753,-0.01051188
1.187489,-0.05529436,0.04520694
1.197296,-0.02584523,0.05653451
1.270416,-0.06510326,-0.06390559
1.296961,-0.05564489,-0.1404071
1.166099,-0.1831981,-0.1262143
0.9781729,-0.391115,-0.1773571
0.962314,-0.5224337,-0.3022925
1.080417,-0.5554421,-0.3255328
1.272066,-0.5666655,-0.2176469
1.516618,-0.5706021,-0.157436
1.433219,-0.4881894,-0.07474888
1.108534,-0.3016514,0.072912
0.9281495,-0.1056329,0.09139533
0.7666786,-0.05105212,-0.006740609
0.7555045,-0.05363057,-0.08420632
0.8408199,-0.04478673,-0.09470315
0.7360811,-0.1288743,-0.05450303
0.7007246,-0.2443444,0.0253261
0.6368306,-0.3302961,0.106519
0.5005893,-0.3570839,0.1445656
0.5318713,-0.3304224,0.1647839
0.5801845,-0.3172029,0.1600705
0.7188946,-0.2697863,0.1315242
0.8874208,-0.2024649,0.09938548
0.9995224,-0.1724671,0.08220594
1.21425,-0.186086,0.05118939
1.353222,-0.2052633,-0.003225669
1.477032,-0.1551007,0.07450413
1.598525,-0.09927867,0.1947213
1.477769,-0.1235598,0.1751693
1.277119,-0.2952099,0.1363784
1.181748,-0.6052054,0.08033479
1.192478,-0.8753038,-0.06566246
1.12127,-0.9840158,-0.1842534
0.8767056,-0.7255459,-0.1405779
0.7391274,-0.207244,-0.0646217
0.7947819,-0.01690384,-0.1468935
0.8796431,-0.08790133,-0.1754149
0.9203452,-0.1466092,-0.08661353
0.9031506,-0.3655424,-0.05279978
0.8388945,-0.5407495,-0.01529465
0.7971401,-0.5027167,-0.03644992
0.8043643,-0.3671679,-0.1038783
0.8236643,-0.1442286,-0.1080105
0.8526595,-0.008651613,-0.1208977
0.8856233,0.05582901,-0.1064084
0.9302104,0.1798976,-0.100227
0.94492,0.1680519,-0.1057407
0.9237603,0.02214681,-0.04520028
0.9668827,-0.05272766,-0.02158582
1.010704,-0.09816311,-0.03090967
1.042885,-0.1675078,-0.05292275
1.163703,-0.2421597,-0.08448294
1.252287,-0.3120609,-0.0811709
1.238344,-0.231354,-0.06186006
1.248811,-0.06304474,0.004657505
1.279368,0.01839193,0.02865315
1.248152,0.001763427,-0.04485291
1.227468,-0.1419011,-0.1050455
1.185386,-0.2541988,-0.1334507
1.015962,-0.3469077,-0.1883191
0.9241416,-0.4913769,-0.2791871
1.068197,-0.5190397,-0.2676515
1.24829,-0.5448379,-0.1844896
1.271963,-0.5041155,-0.1043833
1.209439,-0.2864842,0.04267046
1.101514,-0.09421949,0.03372419
0.8925944,0.01522756,-0.06899251
0.7898343,0.01538086,-0.04449185
0.8128958,0.005181137,-0.1074044
0.7490266,-0.03397808,-0.131857
0.7046402,-0.1997118,-0.04248868
0.6811053,-0.3218699,0.008490801
0.6276595,-0.4093329,0.1573837
0.6408321,-0.4334025,0.1867288
0.6498132,-0.36361,0.07395852
0.671915,-0.3275204,0.1027095
0.7488881,-0.2664538,0.08373417
0.8455599,-0.1943615,0.05078681
0.9792089,-0.1468343,0.07451486
1.081295,-0.121926,0.02900951
1.216355,-0.1210285,0.02662578
1.397603,-0.07504381,0.01300066
1.434426,-0.086651,0.01241429
1.428066,-0.135879,0.1220807
1.413422,-0.182869,0.1755732
1.291933,-0.4361303,0.1042666
1.286947,-0.7874195,-0.08070354
1.312745,-0.9585832,-0.2435904
1.136606,-0.9393766,-0.2502443
0.9417755,-0.7990904,-0.2001548
0.7823236,-0.5270825,-0.1536983
0.6872108,-0.2410468,-0.09595944
0.720301,-0.1776503,-0.02916127
0.7404869,-0.2120077,-0.01767858
0.7703889,-0.2417194,-0.04336033
0.8697357,-0.3890579,-0.06144908
0.9542371,-0.4430271,-0.1508331
0.952077,-0.3393608,-0.1950641
0.9009986,-0.2258544,-0.1230435
0.8906422,-0.05325847,-0.06793307
0.9058703,0.07544342,-0.05384518
0.9382703,0.1012016,-0.08562036
0.9501088,0.1103151,-0.1136533
0.9422698,0.05498306,-0.09594932
0.9877142,-0.04571722,-0.08311163
1.038102,-0.1207373,-0.07184853
1.07286,-0.1698923,-0.07222374
1.092875,-0.1978434,-0.09199814
1.115477,-0.2195755,-0.1048003
1.14299,-0.2071001,-0.09084236
1.131932,-0.1088807,-0.04119093
1.170839,-0.02111867,-0.002072887
1.233992,-0.07508202,-0.01758878
1.233457,-0.1525148,-0.05171215
1.190711,-0.1660443,-0.07777413
1.12231,-0.2283668,-0.1285027
1.104884,-0.2990086,-0.1844349
1.093233,-0.423336,-0.2899347
1.080352,-0.6246328,-0.3941829
1.162155,-0.5966982,-0.1950564
1.196254,-0.4851281,0.1186311
1.136412,-0.4145219,0.1203539
1.075031,-0.09695374,-0.02983435
1.011948,0.07833761,-0.132017
0.9610083,-0.01390768,-0.1549229
0.9091775,-0.005799064,-0.1005876
0.8666694,-0.1349151,-0.05729329
0.8066949,-0.3071337,0.0460884
0.7125965,-0.3093501,0.1220774
0.6656537,-0.3209938,0.07046961
0.6639203,-0.2999376,0.07585278
0.7011751,-0.3187896,0.08344667
0.7408105,-0.337885,0.0528914
0.7590433,-0.2666332,0.09853233
1.295804,-0.1120066,-0.04502603
1.200507,-0.2201829,-0.08369465
1.070709,-0.3104217,-0.1183116
0.976145,-0.3517599,-0.1777791
1.030821,-0.3953455,-0.2336412
1.193911,-0.4782593,-0.2004271
1.346661,-0.5132072,-0.07918572
1.402142,-0.4117477,0.01465782
1.200419,-0.2597639,0.04881804
0.9455054,-0.1282508,0.02368411
0.8348378,-0.02866575,-0.03125369
0.7246147,0.01117161,-0.05111793
0.7057802,-0.001752851,-0.05322033
0.7394657,-0.1163568,-0.0197344
0.6574387,-0.243895,0.02581127
0.6001752,-0.297993,0.08341093
0.5526324,-0.3633029,0.17679
0.4999336,-0.3759421,0.1871461
0.5785907,-0.3302512,0.1534998
0.706343,-0.2861371,0.1326121
0.8510008,-0.2130533,0.09857283
1.038652,-0.1673511,0.09839716
1.180595,-0.1650411,0.05981477
1.291395,-0.1558775,0.02068932
1.452709,-0.1137413,0.1015404
1.640865,-0.07380751,0.2130385
1.616717,-0.1529741,0.2440331
1.364274,-0.4698776,0.1779836
1.261604,-0.9050576,0.0378805
1.297454,-1.053123,-0.13317
1.251592,-0.9444853,-0.1890137
1.078327,-0.8890633,-0.1304474
0.8310957,-0.7110825,-0.1410128
0.7931679,-0.3940963,-0.121058
0.8594512,-0.1638068,-0.03472093
0.819109,-0.03291055,-0.05142724
0.8555048,-0.08967966,-0.0770201
0.8713378,-0.23609,-0.06601792
0.8160048,-0.3733944,-0.09310458
0.797678,-0.4873534,-0.09673244
0.7680961,-0.3618268,-0.1076232
0.8135584,-0.1771021,-0.1700103
0.9177546,-0.02675996,-0.2238901
0.9916401,0.1487644,-0.2372425
1.02104,0.1217935,-0.2017323
0.9566453,0.09565514,-0.1428588
0.8783527,0.09668383,-0.08041782
0.8631644,-0.03612947,-0.05518896
0.9451374,-0.09929898,-0.09413077
1.114547,-0.1728308,-0.1248995
1.224439,-0.2499651,-0.1461831
1.253437,-0.2567553,-0.1531759
1.262375,-0.2522151,-0.1060768
1.269823,-0.1424625,-0.08100624
1.312527,-0.06764191,-0.09366852
1.336548,-0.1273241,-0.1127462
1.296872,-0.2073692,-0.1335221
1.168776,-0.238839,-0.1378053
0.9679412,-0.239247,-0.192776
0.9290301,-0.3105833,-0.2912747
1.110956,-0.3982356,-0.3063494
1.270728,-0.4692318,-0.2327265
1.301055,-0.5102672,-0.1375919
1.20367,-0.4300293,-0.02585034
0.9968822,-0.2830921,0.05244318
0.8181033,-0.1437912,0.02127366
0.7967301,-0.08051373,-0.04889034
0.8283204,-0.05116536,-0.1141634
0.7698792,-0.02170957,-0.1683903
0.7264157,-0.1304592,-0.09677042
0.6773005,-0.2882339,0.03159843
0.5555727,-0.371008,0.09579906
0.5261943,-0.4004783,0.1470373
0.5388597,-0.3684842,0.1567648
0.5740836,-0.3430257,0.1332704
0.7259493,-0.3063457,0.1280765
0.8882085,-0.2375707,0.102947
1.098641,-0.2111323,0.05385853
1.30198,-0.1675521,-0.04430544
1.373601,-0.1088742,-0.09498815
1.479281,-0.08587157,0.04311206
1.58613,-0.08558932,0.1674939
1.455688,-0.2287955,0.1162987
1.25618,-0.5340626,0.06304245
1.31206,-0.82106,0.01644224
1.313207,-1.009291,-0.12571
1.010164,-0.9830683,-0.1610666
0.7495343,-0.6430984,-0.06356787
0.6689999,-0.221214,-0.06252292
0.8208458,0.01783128,-0.09752521
1.014409,0.01230607,-0.110325
0.9783053,-0.09360926,-0.1234535
0.957882,-0.1635206,-0.09405992
0.8721475,-0.3817469,-0.07013922
0.697718,-0.6089664,-0.03467769
0.7190226,-0.4431609,-0.03742283
0.7777186,-0.1346413,-0.1092013
0.8290976,0.009517654,-0.1483335
0.9212622,0.1215561,-0.1909505
0.9804502,0.1705147,-0.1908361
1.013965,0.1065111,-0.133616
1.006561,0.06728898,-0.09769378
1.020051,-0.04322748,-0.04339587
1.069415,-0.2201948,-0.02503334
1.139969,-0.2936313,-0.02316402
1.20749,-0.3298983,-0.00234056
1.222438,-0.242966,-0.01832997
1.250474,-0.0517416,-0.004268028
1.292758,0.00036323,-0.006470006
1.296322,-0.09814058,-0.06808341
1.195632,-0.24936,-0.1046267
1.008455,-0.2803501,-0.1183471
0.9225264,-0.2937135,-0.1596532
0.9874021,-0.4143865,-0.2374565
1.16335,-0.4768299,-0.2171265
1.386456,-0.5413369,-0.1028667
1.41643,-0.506212,-0.03416543
1.201727,-0.2823231,0.01023308
1.011397,-0.1075202,-0.006478259
0.903481,-0.03173094,-0.03247728
0.7851324,-0.02226149,-0.02097806
0.7469129,-0.01280806,-0.06313395
0.7445052,-0.08315023,-0.04762988
0.6626774,-0.2576704,0.005518325
0.5914669,-0.3170857,0.0349755
0.5575768,-0.3655294,0.1197805
0.5304765,-0.4053159,0.1699231
0.5696158,-0.3570019,0.1800588
0.6651704,-0.3372435,0.1571589
0.7982353,-0.2478837,0.09998816
0.9954192,-0.1612527,0.09859539
1.185644,-0.1772361,0.08639034
1.343922,-0.1732654,0.06595006
1.489305,-0.1492714,0.07729688
1.560388,-0.1320704,0.1190808
1.556829,-0.1659856,0.1923283
1.503584,-0.285171,0.1416617
1.40072,-0.602268,-0.03259761
1.28962,-1.020741,-0.1978308
1.209238,-0.9883847,-0.2286942
0.9301646,-0.5782958,-0.05095199
0.4787862,-0.3436157,0.05863999
0.5506869,-0.2578998,-0.01763448
0.9287959,-0.1715533,-0.08871816
0.9920189,-0.06393355,-0.1411005
1.058071,-0.07188412,-0.1372467
0.9700965,-0.3355052,-0.05840738
0.7550835,-0.4888894,-0.01967199
0.8025589,-0.4478247,-0.03476784
0.7408642,-0.3742655,-0.06173132
0.751862,-0.1741191,-0.07782862
0.8832849,-0.0264609,-0.09637952
0.8273293,0.0322134,-0.1276409
0.908766,0.1118187,-0.14658
0.9773788,0.1232753,-0.1245226
0.9825821,0.04146436,-0.07450689
1.091962,-0.08296467,-0.07166973
1.104042,-0.1714621,-0.0664357
1.153482,-0.2800836,-0.008237026
1.204817,-0.3075454,0.01132818
1.185441,-0.1982721,0.007288796
1.24788,-0.1559932,0.01577187
1.283665,-0.1804321,0.02639618
1.253585,-0.2811866,0.02699273
1.168012,-0.3766167,-0.06948403
1.067117,-0.4193626,-0.2239793
1.049006,-0.485322,-0.272595
1.06668,-0.4889306,-0.1780932
1.112282,-0.5024283,-0.06261731
1.206233,-0.5195041,-0.02727495
1.257365,-0.4848278,-0.0410045
1.217691,-0.4066641,-0.07022178
1.17224,-0.2275762,-0.1258485
1.026756,-0.09797032,-0.181245
0.7155396,-0.07651686,-0.1225939
0.5865559,-0.1124441,-0.01837381
0.7261977,-0.1737956,-0.06096566
0.7725522,-0.2017829,-0.05603414
0.6208716,-0.2837054,0.0739619
0.5053672,-0.3775722,0.1036026
0.5474696,-0.360543,0.07599907
0.6598323,-0.2989866,0.05842874
0.7593307,-0.2602565,0.1167164
0.796457,-0.2109911,0.283439
0.8780209,-0.1689762,0.3685693
1.065593,-0.1787144,0.3010572
1.189496,-0.163855,0.186994
1.322734,-0.1302119,0.1925324
1.492174,-0.1355264,0.286819
1.478558,-0.1758881,0.3413693
1.386283,-0.3337143,0.353762
1.338714,-0.5860574,0.2325376
1.2443,-0.7915681,0.04095567
1.088755,-0.8494848,-0.06824524
0.905073,-0.6776573,-0.05045808
0.7928956,-0.3547891,0.004453808
0.8127632,-0.111335,-0.05735625
0.9106033,-0.07363133,-0.05366025
1.011654,-0.1519649,-0.01705983
1.001738,-0.2520233,-0.06913867
0.8736925,-0.3984037,-0.02944994
0.742002,-0.4966031,-0.02647873
0.6998812,-0.4514913,-0.04383151
0.7540473,-0.3561475,-0.02032568
0.821131,-0.2083487,-0.09993101
0.9055194,-0.04516298,-0.1538211
0.9831021,0.01223032,-0.1733451
0.9684802,0.06562067,-0.1592047
0.9662582,0.111795,-0.09048721
0.9984183,0.07805224,-0.04721111
1.001593,-0.009742963,0.01017645
1.055351,-0.18314,0.002167592
1.125257,-0.2664539,-0.01406386
1.164557,-0.2451624,0.01884467
1.201187,-0.2804973,0.002669834
1.201272,-0.1907575,0.01553205
1.219236,-0.04225117,-0.004333189
1.281805,-0.08607275,-0.07594367
1.27535,-0.2295104,-0.09442979
1.148928,-0.3480723,-0.1011769
1.033552,-0.3642605,-0.1040174
1.092859,-0.3445424,-0.1532018
1.24402,-0.4579971,-0.2015203
1.318596,-0.5612531,-0.1283992
1.302483,-0.5041102,-0.0319505
1.228781,-0.3849962,-0.001059768
1.099579,-0.2176645,-0.008729697
0.8853585,-0.07543332,-0.01019576
0.7293403,-0.08269974,-0.008620597
0.7610568,-0.1192443,-0.0239448
0.7661086,-0.1493299,-0.0201654
0.708686,-0.2406274,0.02980076
0.6797793,-0.3047666,0.1046268
0.5958491,-0.3112108,0.1431668
0.5423273,-0.3055401,0.164544
0.5458804,-0.2875489,0.1861243
0.6142561,-0.2431383,0.1619216
0.8052398,-0.1835124,0.1486738
0.957124,-0.1611577,0.1344188
1.062318,-0.1779799,0.1023406
1.193956,-0.1848455,0.1139795
1.320402,-0.1625302,0.1164989
1.456106,-0.1259428,0.1539774
1.51727,-0.1242487,0.2280334
1.450808,-0.2561271,0.1915607
1.400072,-0.5666507,0.08161122
1.38755,-0.8800746,-0.04490454
1.150002,-0.9467814,-0.109811
0.7620884,-0.6786855,-0.03903668
0.6684774,-0.2261535,-0.01440524
0.8151794,0.04788049,-0.07215297
0.8792531,-0.005446446,-0.07669398
0.9427929,-0.1054417,-0.06364083
1.067738,-0.151618,-0.04831124
0.9686153,-0.3451323,-0.01701318
0.7597162,-0.5108208,-0.007460625
0.7671769,-0.4410336,-0.02226367
0.776076,-0.3319733,-0.04782838
0.7664644,-0.1930817,-0.05384655
0.861595,-0.05801867,-0.06958896
0.8804471,-0.00843243,-0.1131474
0.8950904,0.1157772,-0.1156142
0.9419481,0.1184017,-0.09348521
0.9696803,-0.03045455,-0.07790074
1.049673,-0.07741122,-0.04890357
1.118288,-0.1869069,-0.02067614
1.176029,-0.272304,-0.00846913
1.21508,-0.2487373,-0.01679116
1.217699,-0.2926321,-0.01550622
1.226662,-0.2049973,0.01093386
1.207917,-0.05259322,0.01659083
1.209488,-0.06606102,-0.0335273
1.198222,-0.1426323,-0.1085015
1.1168,-0.2572916,-0.1273014
1.045456,-0.3407114,-0.1197805
1.053175,-0.3891994,-0.1689185
1.229597,-0.4694854,-0.2284752
1.442102,-0.4893428,-0.2302099
1.451712,-0.4513296,-0.1337117
1.268874,-0.3317806,0.003798459
0.9885423,-0.1497913,0.03138091
0.7397496,-0.06622351,-0.01733147
0.6511927,-0.072871,-0.02695982
0.6830856,-0.07952857,-0.02858035
0.6664026,-0.09579751,-0.03760164
0.6180833,-0.1734481,0.004592095
0.6268902,-0.2743659,0.08644725
0.57797,-0.3274338,0.1442263
0.5272031,-0.3226017,0.1737717
0.5790701,-0.2812397,0.1879083
0.6788263,-0.2452083,0.1652853
0.8651398,-0.213034,0.1206385
1.072603,-0.2156971,0.08712366
1.190495,-0.2361647,0.05785161
1.294321,-0.202428,0.05933246
1.504407,-0.1693697,0.1344724
1.6773,-0.1705455,0.1915564
1.530796,-0.3261294,0.1248306
1.329791,-0.6812308,0.02904469
1.352732,-0.9343347,-0.01331081
1.276321,-0.9616868,-0.09526028
0.9811146,-0.8264659,-0.1583013
0.6657413,-0.5174615,-0.06250729
0.5867213,-0.1515657,0.008654091
0.8348095,0.0634109,-0.07962203
1.017214,0.03516223,-0.1505294
1.028368,-0.1476245,-0.1340763
0.993358,-0.3819717,-0.07261668
0.8295775,-0.4987068,0.0005378397
0.7242037,-0.3987077,0.001883675
0.7276101,-0.2738562,-0.03801459
0.7609575,-0.1015854,-0.0560449
0.8539989,0.08826408,-0.1100773
0.9041072,0.07800292,-0.1662316
0.9555352,0.06285671,-0.1508834
0.9710522,0.06226246,-0.1102277
0.9471275,-0.039229,-0.0687178
1.007466,-0.0968897,-0.04287036
1.085027,-0.183338,-0.03330912
1.201077,-0.2769589,-0.02513764
1.256768,-0.2824767,-0.04316138
1.215366,-0.2738021,-0.02604928
1.234012,-0.2264796,-0.003609371
1.241556,-0.1493043,-0.0561579
1.245348,-0.06732401,-0.09012143
1.223386,-0.1022597,-0.09743162
1.067334,-0.3067845,-0.1330213
0.9179405,-0.4284876,-0.1788681
0.9781681,-0.4203107,-0.1923679
1.244435,-0.4472031,-0.1604965
1.495196,-0.5556128,-0.1460435
1.554003,-0.5710438,-0.1068249
1.335503,-0.3797683,-0.01927748
0.9610992,-0.1457187,0.03910177
0.7433483,0.02379763,0.03542146
0.7456865,-0.004807666,-0.03949798
0.7473311,-0.0874229,-0.07430665
0.631919,-0.05362775,-0.04763848
0.6236018,-0.2087651,-0.01117776
0.6484903,-0.3454928,0.08175131
0.5472441,-0.3221826,0.1380932
0.5729408,-0.3854518,0.159078
0.5777835,-0.3268872,0.1960438
0.5853751,-0.2575858,0.1711852
0.79499,-0.2572285,0.1379155
0.9698007,-0.187599,0.09958896
1.186119,-0.2260812,0.02273202
1.326279,-0.2364498,-0.003836512
1.342211,-0.1806312,0.07215173
1.535368,-0.1526659,0.1887335
1.616183,-0.1031796,0.2156682
1.446463,-0.2250986,0.1589154
1.272936,-0.522312,0.08528069
1.206816,-0.8412428,-0.03821942
1.167141,-1.00517,-0.1613642
1.005564,-0.8625191,-0.1599229
0.8541926,-0.5451633,-0.1070802
0.7890644,-0.2132864,-0.1201884
0.8472596,-0.1233074,-0.08553649
0.9567127,-0.2156173,-0.01629143
0.8942738,-0.2052802,-0.01246948
0.8632302,-0.346314,-0.009008592
0.8803302,-0.4891509,-0.04575465
0.7693469,-0.3441898,-0.07492126
0.7158568,-0.2258747,-0.03341301
0.726338,-0.0429779,-0.03486465
0.7881534,0.1400835,-0.06930261
0.9305395,0.09127548,-0.1229638
0.9716977,0.1074414,-0.1407295
0.96031,0.09350557,-0.07410908
1.016151,-0.02007046,-0.03078099
1.084238,-0.09232467,-0.0138239
1.137252,-0.2187293,-0.004136828
1.180272,-0.2636733,0.009700165
1.223572,-0.2440624,0.02686212
1.235868,-0.2026878,0.01483922
1.235396,-0.0388742,0.01759282
1.260027,0.03313288,0.002051689
1.238137,-0.09178254,-0.03431699
1.153148,-0.2731288,-0.05228687
1.051008,-0.3591894,-0.0877282
1.02129,-0.3744624,-0.1421228
1.110248,-0.4464727,-0.1991731
1.233644,-0.5007279,-0.1871712
1.414306,-0.5118346,-0.1173247
1.525884,-0.4948497,-0.05770026
1.277358,-0.3441413,0.01902059
0.8787998,-0.08239672,0.03337279
0.7192952,0.03796816,-0.01870326
0.7398192,-0.05149971,-0.04270445
0.7305575,-0.07742166,-0.06290427
0.6911783,-0.1080971,-0.03058776
0.6863985,-0.2914923,0.05054794
0.6420333,-0.3890923,0.08724746
0.5647371,-0.4067212,0.1192925
0.5501661,-0.4197645,0.1847639
0.575893,-0.3618191,0.2281141
0.6848229,-0.2938757,0.1798582
0.8810112,-0.1958552,0.1089245
1.060363,-0.1270859,0.07849983
1.197397,-0.168109,-4.845635e-05
1.281438,-0.1809165,-0.03134365
1.418533,-0.1535174,0.1048013
1.64513,-0.1454644,0.2750426
1.670107,-0.1302896,0.3305814
1.375012,-0.1466649,0.2740477
1.136969,-0.2617629,0.2219322
1.198233,-0.5925003,0.08482137
1.227873,-0.9991314,-0.175941
1.10162,-0.9507066,-0.229867
1.002368,-0.5386992,-0.1323694
0.8365403,-0.3124495,-0.1680156
0.7708761,-0.2267195,-0.1655637
0.8807457,-0.1979943,-0.05458003
0.8234472,-0.1846016,0.01333367
0.7953865,-0.1542431,0.02146727
0.8714636,-0.3364513,-0.02460189
0.8208629,-0.4532968,-0.06002032
0.8204024,-0.3818441,-0.07374215
0.8096739,-0.2912537,-0.09440556
0.7940978,-0.03090042,-0.07712498
0.9104317,0.1405901,-0.09727636
0.96916,0.1539586,-0.1265169
0.987404,0.1679647,-0.09081279
0.9753199,0.07629478,-0.05485611
0.9718601,-0.02484703,-0.005909328
1.069505,-0.1540324,-0.005787275
1.143846,-0.245542,-0.04958353
1.204508,-0.2306649,-0.03814388
1.19897,-0.2136263,-0.02878206
1.174037,-0.1219196,-0.002008314
1.230766,-0.06749543,0.02090883
1.256362,-0.1093105,-0.02749629
1.29277,-0.182347,-0.06259311
1.211774,-0.2805015,-0.07876607
0.9840907,-0.3381853,-0.1321881
0.9181301,-0.4102186,-0.1994656
1.077701,-0.4704043,-0.2001114
1.338197,-0.5064962,-0.1348234
1.423056,-0.5370224,-0.05816185
1.264,-0.4267785,0.05169477
1.080821,-0.2297505,0.09870815
0.9177309,-0.0832352,0.03794684
0.836383,-0.01558632,-0.02497871
0.8252726,-0.01401146,-0.08976418
0.784772,-0.05312524,-0.09079891
0.7223389,-0.1481815,-0.03011599
0.6271952,-0.257573,0.01476867
0.5508277,-0.3237263,0.1182381
0.5191822,-0.3496573,0.158039
0.5188912,-0.350671,0.1207454
0.58319,-0.3452371,0.1779579
0.7126987,-0.3195579,0.1706511
0.9032077,-0.2513405,0.1124854
1.074164,-0.1846898,0.1090293
1.165269,-0.1796025,0.05753364
1.287848,-0.1728121,0.06765459
1.48509,-0.1163204,0.1190676
1.572484,-0.09788818,0.160736
1.506889,-0.1246375,0.2519236
1.427197,-0.2576654,0.1935735
1.290833,-0.5778822,0.0500114
1.204114,-0.8562595,-0.03642119
1.192462,-0.9484846,-0.1366285
0.9997144,-0.855161,-0.1135511
0.8561337,-0.4945997,-0.06632359
0.8785682,-0.113324,-0.1337042
0.8761284,-0.05104098,-0.1145134
0.9248999,-0.1558311,-0.05067151
0.8869225,-0.1994764,-0.01744106
0.7951071,-0.3554064,0.01925627
0.7899603,-0.5524686,0.002365304
0.7343399,-0.4616667,-0.009715245
0.7543634,-0.2753152,-0.04102528
0.8350555,-0.04908646,-0.0957587
0.9064879,0.2333379,-0.1032257
1.016628,0.2499338,-0.1305364
0.9995516,0.1951836,-0.09937964
0.9559507,0.1569028,-0.01326199
0.9777144,-0.02461038,0.01572766
1.00274,-0.1511982,0.03233632
1.115376,-0.2565694,0.002551398
1.212413,-0.3315956,-0.02730318
1.22206,-0.2812676,-0.01004414
1.215895,-0.1796272,-0.01770763
1.228493,-0.02061552,-0.01654927
1.293935,0.01661531,-0.02576244
1.315437,-0.1355393,-0.05733109
1.210037,-0.2711753,-0.08464142
1.043935,-0.341887,-0.1397548
0.973385,-0.4072657,-0.2055725
1.058921,-0.4925168,-0.24616
1.140499,-0.5493686,-0.2042323
1.201953,-0.5407332,-0.06326436
1.284231,-0.4604988,0.07216578
1.225371,-0.2798034,0.06011496
1.042525,-0.06528751,-0.02946883
0.9031201,0.03056,-0.02234446
0.8271358,-0.009732904,-0.03381229
0.7731649,-0.05459501,-0.0600959
0.7057749,-0.1378404,0.02115799
0.6555136,-0.3020229,0.08401775
0.6422625,-0.3664418,0.1238201
0.6209063,-0.3324524,0.1314167
0.5986198,-0.3245258,0.1195969
0.5777296,-0.2958169,0.1741001
0.6344904,-0.2353539,0.1631851
0.7985395,-0.1838251,0.1351901
0.9449439,-0.1524411,0.1359398
1.100821,-0.1548886,0.0664185
1.265911,-0.1530863,0.0280289
1.417917,-0.1254815,0.06647193
1.568693,-0.1059824,0.1693274
1.522107,-0.1121943,0.2599821
1.334961,-0.2188162,0.2431648
1.239002,-0.487171,0.1648894
1.228249,-0.7730102,0.008759217
1.221606,-0.8749146,-0.1377392
1.050318,-0.7284508,-0.1229554
0.7672728,-0.4108947,-0.05114727
0.6658826,-0.112826,-0.05014113
0.7888504,-0.02299292,-0.05626696
0.9042414,-0.1080671,-0.03275852
0.8494036,-0.2496598,-0.01425039
0.8093116,-0.4830156,0.01597935
0.8137688,-0.5769879,-0.01149146
0.7528427,-0.4100954,-0.1000985
0.7918171,-0.3361774,-0.1451862
0.8424805,-0.2327144,-0.1515471
0.8473907,-0.04464638,-0.1324046
0.9357062,0.01043957,-0.1302948
0.9864965,0.1779604,-0.1161438
1.002071,0.2351587,-0.06884822
1.044423,0.02152214,-0.0654263
1.105282,-0.08401306,-0.02074505
1.123638,-0.1591335,0.02184058
1.083385,-0.2053163,-0.01933911
1.152275,-0.2231558,-0.03527336
1.204944,-0.2957065,-0.04340438
1.196861,-0.2090573,-0.03364873
1.278934,-0.1231363,0.00201664
1.305937,-0.1442664,-0.01204654
1.260351,-0.1922193,-0.02239774
1.155404,-0.3164573,-0.03945936
0.9869335,-0.3232435,-0.1306305
0.9706258,-0.3265669,-0.2483884
1.149554,-0.4722032,-0.2943025
1.322315,-0.5481117,-0.1924695
1.303016,-0.5688509,-0.01822801
1.147941,-0.4342269,0.07210731
0.9813505,-0.1595774,0.04540144
0.8603915,-0.03057145,-0.03157801
0.8681504,0.01912427,-0.09397876
0.8835375,0.02994424,-0.1094287
0.8031497,-0.05592366,-0.06052319
0.6980147,-0.1752045,0.02816307
0.5974274,-0.2918289,0.1025258
0.5738307,-0.352026,0.1385946
0.6042437,-0.3766252,0.1287403
0.6112076,-0.3768847,0.1312995
0.6501717,-0.3402786,0.1648403
0.7151223,-0.3017007,0.1581736
0.8283389,-0.2447628,0.1440111
1.044942,-0.2122458,0.1088742
1.22325,-0.216259,0.008558491
1.305359,-0.2013114,-0.02226331
1.422359,-0.1753376,0.08419226
1.512278,-0.1506795,0.1935687
1.419413,-0.171084,0.1862279
1.264877,-0.3245895,0.1370461
1.230892,-0.6410681,0.07379496
1.24062,-0.9230964,-0.07191128
1.133532,-0.9242009,-0.131782
0.8905784,-0.6655106,-0.08249761
0.717119,-0.2843497,-0.1113976
0.7854706,-0.01957228,-0.1525718
0.8834969,-0.02560118,-0.1580217
0.8829051,-0.1307486,-0.1183021
0.8933457,-0.2830461,-0.01168673
0.8534241,-0.4900412,-0.000305759
0.8171821,-0.5545472,-0.07379886
0.8606197,-0.4688608,-0.1158939
0.8837208,-0.3346303,-0.1433249
0.9206953,-0.1435108,-0.1391555
0.9596498,0.002373485,-0.126559
0.9839922,0.08856419,-0.1053824
1.013889,0.1776986,-0.06227417
0.9771933,0.13794,-0.04899137
0.9602729,0.05094096,-0.03574624
0.9954729,0.0006912051,-0.02784259
1.022913,-0.1535738,-0.04002041
1.081505,-0.2547222,-0.03738286
1.123415,-0.2852001,-0.03837773
1.132862,-0.3244175,-0.02427348
1.146154,-0.2071642,0.003937566
1.178675,-0.06696053,0.007973164
1.25741,-0.02478288,-0.005450141
1.284248,-0.06710538,-0.02793993
1.175336,-0.1715502,-0.0503842
1.030143,-0.2098772,-0.1023344
0.9807788,-0.2761438,-0.2147645
1.021362,-0.3799234,-0.3177051
1.10746,-0.4832563,-0.2977337
1.230908,-0.5864281,-0.1422802
1.256449,-0.517605,0.04230252
1.14373,-0.3494473,0.1169317
1.034686,-0.1415577,0.0352037
0.9411805,0.03126955,-0.04514911
0.8830994,0.004405799,-0.07129695
0.8814271,-0.03686953,-0.1156534
0.8415191,-0.1110252,-0.05434226
0.7863281,-0.2811237,0.05810499
0.7272413,-0.3713514,0.09197687
0.6364316,-0.4279524,0.1436946
0.5986069,-0.4104766,0.153585
0.6079221,-0.3327308,0.1349102
0.6325538,-0.3220311,0.1688298
0.7182482,-0.2713532,0.1378241
0.8482254,-0.202523,0.1002038
0.9898966,-0.1800614,0.1097788
1.101455,-0.1639382,0.0747297
1.149292,-0.1302308,0.03517624
1.234703,-0.04542887,0.03820309
1.409682,-0.02235674,0.1056863
1.471789,-0.06381134,0.2226922
1.304089,-0.0928223,0.2834509
1.156639,-0.2172565,0.2713239
1.195693,-0.3929041,0.2225819
1.22479,-0.6131546,0.06073166
1.177826,-0.9212775,-0.1476853
1.146726,-0.9339909,-0.1460457
0.9760462,-0.5291727,-0.07900116
0.7231173,-0.2012871,-0.1613846
0.7224624,-0.1568574,-0.1439294
0.8255693,-0.2179751,-0.0499995
0.8199814,-0.2347039,-0.02900394
0.8658978,-0.2174815,0.02778548
0.9175145,-0.3112107,-0.01137889
0.9269321,-0.3825727,-0.1273427
0.9719521,-0.3201896,-0.1718894
1.36748,-0.07809822,0.1081295
1.476062,-0.06919707,0.1558271
1.426917,-0.1724154,0.2518819
1.347392,-0.3431723,0.2663405
1.285601,-0.5586074,0.1169915
1.281613,-0.7796256,-0.07463373
1.245422,-0.8560021,-0.1617657
1.013143,-0.749327,-0.08447357
0.716629,-0.491043,-0.02781489
0.6421152,-0.1976792,-0.05538509
0.8364871,-0.08758507,-0.03648019
0.9952875,-0.1642207,-0.03296641
0.95387,-0.253194,-0.03085792
0.891645,-0.3603092,-0.004954737
0.8636407,-0.4728072,-0.06106889
0.852224,-0.4386434,-0.1221412
0.911608,-0.3530344,-0.1397668
0.9557108,-0.2489291,-0.1481222
0.9442592,-0.07142591,-0.1288867
0.9451409,0.01515435,-0.1193421
0.9466455,0.04790649,-0.09181495
0.929125,0.03505556,-0.04137769
0.8992037,-0.06051556,-0.005167163
0.8856865,-0.1125941,0.03789927
0.9187917,-0.186895,0.02960989
0.9989935,-0.2461657,-0.02029586
1.100758,-0.2636945,-0.04247324
1.149608,-0.2856648,-0.03451857
1.153311,-0.2240761,-0.004248611
1.168545,-0.170112,-0.005743088
1.161419,-0.07889484,-0.01488641
1.151197,0.02854588,-0.01344238
1.177221,-0.06504588,-0.05282192
1.181179,-0.2397701,-0.08908611
1.127714,-0.3868782,-0.1382684
1.041886,-0.4213322,-0.2275714
1.002516,-0.3734986,-0.272697
1.073893,-0.5034927,-0.2355957
1.194047,-0.6348889,-0.1521982
1.266421,-0.5694437,-0.04977233
1.223611,-0.4206865,0.06344168
1.081968,-0.1738101,0.1152563
0.9384479,0.0446516,0.08085961
0.8624152,0.07063447,0.02060346
0.8955021,0.03485145,-0.05102056
0.9306547,-0.0363307,-0.07404106
0.8937202,-0.2268254,-0.003030438
0.86117,-0.3931866,0.09543518
0.7556407,-0.4256967,0.1514179
0.6430131,-0.4089707,0.161983
0.6571183,-0.3801365,0.1570738
0.6875425,-0.3395111,0.1328739
0.7506119,-0.2904395,0.1042738
0.8281561,-0.2339893,0.09892171
0.8569542,-0.1894154,0.118655
0.9010973,-0.1495542,0.1366958
0.9446277,-0.1351127,0.1256367
1.055114,-0.1133242,0.1168536
1.230791,-0.05164667,0.09596884
1.326374,-0.04197811,0.07199258
1.326258,-0.07696293,0.1250777
1.273284,-0.1166836,0.1938062
1.247028,-0.2081711,0.1907647
1.261714,-0.3176639,0.1428113
0.8004941,0.1950082,-0.2241742
0.9687334,-0.03328113,-0.2865608
1.121851,-0.2140289,-0.3388242
1.310609,-0.3468769,-0.4184227
1.451939,-0.3649429,-0.464625
1.393975,-0.1129908,-0.3610229
1.321112,0.2315977,-0.2751438
1.310267,0.3277624,-0.2896558
1.305382,0.1739556,-0.4278885
1.253262,0.1054756,-0.6623437
0.9946774,0.1238295,-0.782138
0.7124973,0.07170941,-0.6841322
0.7815579,-0.01022257,-0.563209
0.9392096,-0.1429073,-0.573697
1.021736,-0.2579258,-0.5666454
1.290163,-0.3299559,-0.523203
1.275451,-0.3208459,-0.4844926
0.8530008,-0.1004998,-0.3763901
0.6441113,0.07978252,-0.2765495
0.5941053,0.08073508,-0.2399873
0.584361,0.0380968,-0.2514991
0.5574024,-0.05765821,-0.2217189
0.4992061,-0.1531689,-0.1666485
0.6164164,-0.2493871,-0.1813105
0.6057872,-0.3739431,-0.1164599
0.5424499,-0.4317702,-0.05488688
0.6070141,-0.3803071,-0.07452469
0.6629383,-0.2919593,-0.05751279
0.9099772,-0.2443576,-0.112435
1.046935,-0.21477,-0.1723737
1.092238,-0.2534376,-0.2622265
1.383892,-0.2814042,-0.5133291
1.494418,-0.2411252,-0.5970191
1.430724,-0.277485,-0.3061392
1.433627,-0.2965607,-0.05536427
1.377471,-0.3841836,-0.2880974
1.223803,-0.633601,-0.667691
1.048884,-0.7977366,-0.8099224
0.9363704,-0.8008823,-0.8143953
0.8552651,-0.6114861,-0.5893923
0.884449,-0.3081996,-0.3684019
0.9389047,-0.06644667,-0.4201841
0.8668779,0.03224938,-0.4008999
0.7976412,-0.03160357,-0.2995985
0.6958072,-0.1538624,-0.2858985
0.6377884,-0.3072523,-0.2522508
0.6790216,-0.3397939,-0.2219309
0.6416845,-0.2007347,-0.2605061
0.638425,-0.06145282,-0.286617
0.6712403,0.170031,-0.2697612
0.6550115,0.329571,-0.2811878
0.7105624,0.2660329,-0.2729528
0.7719582,0.2620875,-0.2370279
0.8374838,0.2656416,-0.2083681
1.005954,0.1660238,-0.1925449
1.196413,0.04884488,-0.3318335
1.346318,-0.1189624,-0.5189342
1.414784,-0.1976119,-0.5114954
1.412883,-0.08036219,-0.3680906
1.383667,0.02187745,-0.275484
1.297773,0.01248161,-0.367611
1.166136,-0.01547124,-0.5752285
0.9920591,-0.02591304,-0.7449032
0.8505563,0.005304394,-0.7575071
0.8786013,0.03545109,-0.623904
1.021687,-0.05144637,-0.5611585
1.149146,-0.1971357,-0.5695271
1.180357,-0.2564773,-0.5116607
1.08287,-0.2113784,-0.4406839
0.9158845,-0.1383392,-0.3816358
0.7165331,-0.06107303,-0.29199
0.5296501,0.05395604,-0.2143097
0.4533408,0.0963676,-0.1925531
0.451579,0.006411702,-0.144576
0.487322,-0.1228896,-0.08392554
0.5784268,-0.2839743,-0.09592252
0.6252666,-0.3943169,-0.0907796
0.6292056,-0.4052479,-0.05768619
0.6789105,-0.4068594,-0.03037453
0.7967634,-0.3523022,-0.0155564
0.9814229,-0.2599854,-0.1339825
1.21426,-0.2027702,-0.3977746
1.532422,-0.1508766,-0.6153318
1.772072,-0.1630817,-0.506455
1.745587,-0.2085887,-0.1840535
1.596057,-0.2410593,-0.08204668
1.324344,-0.4469567,-0.3265819
1.006294,-0.7693467,-0.7503489
0.9203459,-0.8573514,-0.8666956
0.9225289,-0.6693691,-0.6288252
0.9211961,-0.3557903,-0.5385396
0.9996492,0.01351244,-0.5114856
0.9754973,0.1870116,-0.4811519
0.9104611,0.04468764,-0.4941677
0.8630075,-0.1757866,-0.372389
0.6847062,-0.4097129,-0.2724372
0.6080543,-0.4977436,-0.2484984
0.6187292,-0.2753412,-0.2658166
0.5089832,-0.1063766,-0.2905255
0.5219197,-0.04382074,-0.2567554
0.6016902,0.1077835,-0.2781602
0.5953244,0.3043467,-0.2457869
0.672124,0.4788056,-0.2018982
0.8063286,0.336418,-0.2552801
0.9727646,0.09993411,-0.271358
1.079605,0.0851788,-0.3084847
1.10086,-0.07154592,-0.3838405
1.311781,-0.2584926,-0.5152605
1.477954,-0.2637137,-0.6112855
1.40384,-0.1121819,-0.4758883
1.419272,0.1403218,-0.2751714
1.407566,0.1506272,-0.1980713
1.243959,0.008813687,-0.4190003
1.081755,-0.0676957,-0.7894294
0.8907459,-0.03620848,-0.7954408
0.8091588,0.02832649,-0.5907416
0.9199139,-0.1230088,-0.5310915
1.100016,-0.2884697,-0.5476555
1.300769,-0.3414715,-0.5691511
1.365763,-0.2897566,-0.5244769
1.135844,-0.1275511,-0.4503832
0.7744281,-0.09203667,-0.353039
0.5872742,-0.03847311,-0.2152757
0.523964,0.03481986,-0.2130739
0.4754312,-0.01952692,-0.1972038
0.5372097,-0.07962877,-0.1003757
0.5949554,-0.2369612,-0.1244625
0.5959613,-0.353477,-0.1050551
0.5920084,-0.3234098,-0.04051355
0.5584986,-0.3124484,-0.0261595
0.5919605,-0.2741247,0.01522976
0.720651,-0.2517871,-0.04524113
0.9629679,-0.2605025,-0.2317796
1.277121,-0.2334192,-0.5225722
1.547317,-0.2116867,-0.687873
1.788049,-0.1996708,-0.3731738
1.800744,-0.1959926,-0.04653276
1.523296,-0.2688449,-0.1554595
1.241038,-0.6150569,-0.4334628
1.077727,-1.007749,-0.7239762
1.085793,-0.9193186,-0.8725116
1.085419,-0.6241586,-0.7889427
0.9564986,-0.3984946,-0.6600181
0.9207673,-0.02088971,-0.4824838
0.8529744,0.1031189,-0.3603953
0.7475242,-0.08908494,-0.3475879
0.7684109,-0.1234987,-0.2366176
0.7392616,-0.2873616,-0.2131806
0.7338856,-0.4220241,-0.2649405
0.7446938,-0.2177645,-0.2117121
0.6483322,-0.09026303,-0.2531967
0.5928059,0.1009348,-0.2489358
0.5447417,0.3102038,-0.192453
0.5479154,0.2732234,-0.2449821
0.6656387,0.2527477,-0.2294237
0.8343897,0.1686146,-0.2396562
1.057437,0.04982678,-0.2714504
1.194777,-0.00447133,-0.2961292
1.297517,-0.1253304,-0.4503241
1.423066,-0.1575829,-0.4930244
1.427384,-0.05278732,-0.3371602
1.387336,0.09483807,-0.1870562
1.329582,0.1338012,-0.2361457
1.266478,0.02814172,-0.5297452
1.220017,-0.007063629,-0.8029203
0.9881597,0.03069646,-0.8191942
0.7277016,0.05518493,-0.6494981
0.8423358,-0.008594984,-0.5893754
1.089062,-0.1820536,-0.6103589
1.136649,-0.3204066,-0.5513688
1.164603,-0.3077911,-0.5325031
1.063038,-0.1963774,-0.474519
0.8066534,-0.1589185,-0.3666181
0.6888351,-0.09819672,-0.2852781
0.546556,0.03434404,-0.2055546
0.4540288,0.0482064,-0.2174027
0.52148,-0.01938415,-0.195296
0.5203106,-0.1596876,-0.1512146
0.5850927,-0.3244929,-0.1690938
0.6452212,-0.4095905,-0.09608357
0.6282005,-0.4490689,-0.03691127
0.7120912,-0.4106489,-0.03033221
0.8228803,-0.3594848,-0.04489611
1.016333,-0.2924198,-0.1595341
1.237242,-0.1921756,-0.3253751
1.397316,-0.1710681,-0.4647415
1.588219,-0.1604015,-0.3891853
1.633199,-0.1554969,-0.1605874
1.456848,-0.2282094,-0.08136896
1.181986,-0.4379691,-0.2689821
0.9821284,-0.7409332,-0.6714515
0.9695567,-0.8357476,-0.9374173
0.9786004,-0.6950657,-0.9475695
1.004727,-0.4421124,-0.7738118
1.076672,-0.1351222,-0.4800218
1.007585,-0.06708932,-0.4134784
0.8240913,-0.1379426,-0.3091835
0.6816944,-0.08750496,-0.0853924
0.6653564,-0.2210289,-0.2128935
0.7301021,-0.4068082,-0.2625567
0.72219,-0.2930316,-0.18861
0.7008541,-0.1618232,-0.3085976
0.7108227,-0.02559702,-0.2614067
0.6338499,0.2210344,-0.1874952
0.5921696,0.3789223,-0.2067773
0.7200409,0.3175434,-0.1951868
0.9016512,0.1037896,-0.2570157
0.9993816,0.0779515,-0.2061578
1.043968,0.08455724,-0.1760552
1.203964,-0.06336526,-0.3837322
1.408428,-0.08809839,-0.5712629
1.440376,-0.1147141,-0.5763945
1.374935,-0.0757496,-0.4252214
1.383605,0.01211807,-0.3426924
1.380585,-0.06632448,-0.440617
1.235759,-0.05152969,-0.6403875
1.024622,-0.05181196,-0.8363283
0.8666703,-0.0776472,-0.7465089
0.9052718,-0.0481943,-0.5435715
1.078449,-0.2226128,-0.5424767
1.209025,-0.3707583,-0.5349385
1.29376,-0.3206712,-0.491367
1.137341,-0.1709943,-0.479286
0.859736,-0.0316034,-0.4225959
0.7197493,-0.02183322,-0.3358108
0.5305955,-0.01470928,-0.2061777
0.4744958,-0.0122521,-0.1542054
0.542355,-0.08083379,-0.151623
0.4948174,-0.1795048,-0.07711713
0.5746587,-0.249344,-0.1041736
0.6542445,-0.2776989,-0.121404
0.6450445,-0.3339851,-0.04785565
0.7183002,-0.3395539,-0.05694241
0.7863326,-0.2923649,-0.05629389
0.9762162,-0.21627,-0.130497
1.227908,-0.1029478,-0.3282075
1.371621,-0.09341035,-0.4277624
1.557758,-0.1998985,-0.3743393
1.656192,-0.3169274,-0.177953
1.501405,-0.3461168,-0.07328149
1.234625,-0.4619143,-0.3231353
1.038589,-0.7505983,-0.7042863
0.9840722,-0.8018843,-0.814159
0.9695195,-0.6295702,-0.6961887
0.9600777,-0.4086036,-0.606011
0.989686,-0.08236244,-0.4604815
0.9914624,0.03336997,-0.3644222
0.9216752,-0.05299543,-0.3845585
0.8059008,-0.1173996,-0.3007591
0.6999985,-0.3151855,-0.2645067
0.6642026,-0.4253788,-0.2409284
0.6509867,-0.2861658,-0.1768568
0.5948154,-0.1320562,-0.2307944
0.5698278,0.0904369,-0.2115056
0.5919173,0.2637273,-0.1955037
0.635156,0.2804333,-0.2535096
0.7223037,0.3275349,-0.2330863
0.8045393,0.2500565,-0.2413042
0.9075286,0.08761038,-0.2393684
1.063128,-0.01255755,-0.2611516
1.239281,-0.1559026,-0.3609633
1.410969,-0.1534214,-0.4172952
1.443137,-0.0103819,-0.4379481
1.371949,0.1076883,-0.3092485
1.370175,0.1558492,-0.2020262
1.351895,0.03316768,-0.4847238
1.22385,-0.03451354,-0.8317825
1.016984,0.01356805,-0.8171131
0.8380918,-0.02272326,-0.6343806
0.8676735,-0.1411078,-0.5588335
1.032727,-0.3180968,-0.5377393
1.152812,-0.3477126,-0.5090021
1.165612,-0.1668387,-0.4779543
0.97562,-0.02779066,-0.4261984
0.7086997,0.01577607,-0.3551677
0.5792417,0.0636321,-0.2698366
0.5341694,0.1021734,-0.2622774
0.5241721,-0.008750955,-0.2597756
0.5443996,-0.1908737,-0.1689986
0.5794527,-0.3210619,-0.136058
0.6338219,-0.4519305,-0.1069121
0.6408109,-0.4552884,-0.06485896
0.6297077,-0.3956837,-0.07428846
0.6897302,-0.4135756,-0.04257781
0.7963511,-0.3265441,-0.0637465
0.9370572,-0.2163253,-0.1491744
1.124378,-0.1849779,-0.2637703
1.32256,-0.1133253,-0.4852051
1.502152,-0.1024239,-0.5510583
1.61986,-0.1860457,-0.300913
1.576414,-0.2908362,-0.1228103
1.366538,-0.4708343,-0.3163881
1.139135,-0.7212116,-0.628781
1.016761,-0.8487271,-0.7814557
0.9528682,-0.6943383,-0.7971892
0.8779523,-0.426867,-0.6160822
0.9013742,-0.1459935,-0.3931318
0.9630361,0.06744476,-0.3941426
0.8697744,0.01096703,-0.3808008
0.7638744,-0.09364607,-0.282793
0.7018991,-0.2159423,-0.2815739
0.6466146,-0.4305482,-0.2522622
0.676936,-0.4133446,-0.2033037
0.6689977,-0.3024405,-0.2398861
0.6515414,-0.1689181,-0.2477469
0.6727259,0.1495391,-0.2232033
0.637713,0.3411628,-0.2340815
0.6586962,0.3437362,-0.2263347
0.7250974,0.332254,-0.2199984
0.8297254,0.2602983,-0.2449842
0.9744239,0.09075752,-0.2562737
1.049547,-0.07151717,-0.2829919
1.194942,-0.1404412,-0.3393086
1.383743,-0.1759367,-0.4166566
1.424037,-0.06987416,-0.4587531
1.375492,0.1619919,-0.3550857
1.341348,0.2370407,-0.2841588
1.315173,0.1080781,-0.5035798
1.17509,-0.0484771,-0.7977959
0.9392718,-0.04290892,-0.809646
0.8262873,-0.03870494,-0.6399621
0.9148793,-0.1985277,-0.5544993
1.056544,-0.3493567,-0.5477037
1.160785,-0.4280816,-0.5099771
1.201551,-0.3027544,-0.436325
1.016426,-0.05204875,-0.3978736
0.7501375,0.06022458,-0.3403421
0.6488125,0.1062445,-0.2552511
0.5991174,0.07455525,-0.2583712
0.595607,-0.02194057,-0.235413
0.6122325,-0.1652254,-0.1828734
0.5785953,-0.3484068,-0.1858769
0.5698432,-0.376568,-0.1130958
0.5678254,-0.3793236,-0.0409668
0.6302581,-0.4035412,-0.03014406
0.7620665,-0.3375696,-0.0307663
0.89018,-0.2791348,-0.09967492
1.030297,-0.1837841,-0.1595605
1.10943,-0.1326272,-0.2139438
1.206743,-0.1826396,-0.3151033
1.497881,-0.2201437,-0.3928261
1.736074,-0.2667642,-0.3957583
1.572213,-0.299767,-0.3507573
1.268197,-0.4274937,-0.3936436
1.153226,-0.6234343,-0.4537659
1.09999,-0.6317401,-0.5359235
1.049953,-0.5908131,-0.7314386
0.9905485,-0.4959745,-0.7148979
0.9890485,-0.1562357,-0.5176521
1.043682,0.03099338,-0.4362899
0.9635572,-0.06769694,-0.4005107
0.8887633,-0.09641239,-0.337271
0.7858383,-0.180439,-0.2184014
0.6524913,-0.3561557,-0.2049501
0.675334,-0.3834198,-0.2720439
0.641816,-0.2980319,-0.2317507
0.6313532,-0.111821,-0.2986598
0.6592016,0.09836716,-0.3478719
0.6054243,0.2246237,-0.2566078
0.6733085,0.2961302,-0.2461666
0.736439,0.3230076,-0.2136821
0.7941852,0.331363,-0.2126918
0.8831223,0.2479885,-0.2631221
0.9297134,0.08628162,-0.2621819
1.13898,-0.07217481,-0.361947
1.368402,-0.2316669,-0.484128
1.447519,-0.2557343,-0.5167027
1.422746,-0.1023041,-0.3922528
1.337195,0.08503942,-0.1930394
1.280482,0.1497004,-0.2523529
1.186462,0.09097012,-0.4607154
1.074246,0.08585391,-0.6447817
0.9009588,0.104794,-0.7567533
0.7578126,0.06482915,-0.700045
0.9070793,-0.01193594,-0.6978222
1.062687,-0.1702985,-0.7130391
1.147841,-0.3239637,-0.5693289
1.274684,-0.344173,-0.4552136
1.127291,-0.2446373,-0.4070651
0.823891,-0.04802455,-0.3569598
0.6571963,0.1493636,-0.2848318
0.5831617,0.2114905,-0.2472521
0.562275,0.1862525,-0.2733615
0.5357316,0.08340105,-0.2354785
0.5374399,-0.2143305,-0.2392995
0.5584264,-0.5314552,-0.2565024
0.5601205,-0.6419836,-0.1546261
0.6348495,-0.6458553,-0.1011102
0.6856443,-0.5898637,-0.06395952
0.7081484,-0.4373764,-0.0214351
0.8359841,-0.2503582,-0.06727637
1.043912,-0.07257442,-0.1678891
1.289242,0.02887516,-0.3371556
1.458355,0.01352852,-0.5440928
1.583222,-0.08150767,-0.6389262
1.632674,-0.2253067,-0.3934361
1.404634,-0.3869282,-0.1300479
1.189633,-0.5847754,-0.3553264
1.184351,-0.8158634,-0.6274689
1.147597,-0.8838448,-0.6428543
1.015291,-0.6236636,-0.6360299
0.8384023,-0.2428883,-0.5372329
0.6959661,-0.01337019,-0.4065241
0.643422,0.05118281,-0.3358646
0.747185,-0.02460079,-0.2855311
0.9229306,-0.1635087,-0.3278913
0.9068361,-0.2617915,-0.3462772
0.8084342,-0.2933471,-0.2972319
0.7175632,-0.1805621,-0.2887051
0.5979749,0.007246078,-0.2835761
0.5990416,0.1343146,-0.2669567
0.651522,0.2095895,-0.240329
0.7283351,0.2078883,-0.2350053
0.8565137,0.1868534,-0.2402172
0.9132001,0.1983702,-0.1875177
0.9382171,0.1819369,-0.1619584
0.9778809,0.1552885,-0.2087511
1.092673,0.05127076,-0.3553595
1.28079,-0.1132882,-0.5563887
1.366135,-0.1328748,-0.5445283
1.386689,-0.06592949,-0.346382
1.393399,-0.0742234,-0.2133129
1.281773,-0.09708931,-0.2343851
1.142427,-0.07938086,-0.4902737
1.051736,-0.02961494,-0.8134245
0.9259906,0.03555391,-0.8440117
0.8672385,0.002454377,-0.6736926
0.9644562,-0.1489587,-0.5904978
1.076189,-0.3218638,-0.5521395
1.133353,-0.4061097,-0.471128
1.131069,-0.2708422,-0.4257595
1.022881,-0.09940646,-0.4235231
0.811157,-0.03010461,-0.3531224
0.6137324,0.105671,-0.2469399
0.5825294,0.1387002,-0.2372584
0.6099001,-0.01542538,-0.2158365
0.5659097,-0.1355297,-0.1191062
0.5859716,-0.2525406,-0.1196423
0.6255451,-0.3644536,-0.1385328
0.5930549,-0.3954056,-0.07317412
0.6197659,-0.3809476,-0.04916405
0.6876669,-0.3494542,-0.04030904
0.8180661,-0.3042982,-0.06761773
1.056227,-0.225403,-0.2173149
1.236712,-0.1596736,-0.4370307
1.362357,-0.1045672,-0.653718
1.445446,-0.08237285,-0.637781
1.433912,-0.1976271,-0.3470699
1.416186,-0.3886453,-0.1819259
1.282132,-0.6038998,-0.4109231
1.031789,-0.7583526,-0.771545
0.9625217,-0.7342229,-0.8137996
0.9567194,-0.5786336,-0.6453762
0.8655681,-0.302564,-0.5363753
0.9057811,-0.06016924,-0.4398033
0.9418554,-0.001081627,-0.3978643
0.8700779,0.01593971,-0.328939
0.8365033,-0.07732624,-0.2512901
0.7297302,-0.3266723,-0.2723307
0.6794613,-0.4146581,-0.2070458
0.7447537,-0.2875887,-0.1951395
0.7014945,-0.1198951,-0.2723346
0.6741572,0.1045562,-0.2429093
0.6643178,0.308476,-0.2416303
0.6267594,0.3657329,-0.2178694
0.682208,0.3648548,-0.1760323
0.7502089,0.3381686,-0.2003289
0.8629822,0.2405836,-0.1795779
1.038503,0.1122982,-0.2358923
1.204802,-0.03032847,-0.3769621
1.386737,-0.1662395,-0.4659707
1.460456,-0.2079907,-0.4523683
1.391503,-0.09141464,-0.2761932
1.304557,0.0321345,-0.1594698
1.213741,-0.03201227,-0.3461913
1.121131,-0.10061,-0.6718933
1.015302,-0.06962086,-0.7918856
0.8952053,-0.1055534,-0.6831385
0.8993848,-0.1290163,-0.589964
1.038668,-0.1502044,-0.5500587
1.161707,-0.2532878,-0.5438448
1.268847,-0.2777017,-0.5432408
1.237769,-0.220257,-0.4611747
0.9460017,-0.09846669,-0.3336879
0.7030965,0.04812711,-0.2166128
0.6725285,0.04397947,-0.2261646
0.6281378,0.01832751,-0.2979681
0.5406815,0.03760931,-0.2308424
0.6079672,-0.08372154,-0.1897865
0.6878431,-0.23931,-0.1884889
0.6412901,-0.3028558,-0.1081604
0.6503785,-0.3529839,-0.1045526
0.6054129,-0.3655316,-0.08541503
0.568117,-0.3432191,-0.02706378
0.7112117,-0.3007185,-0.06833773
0.8628525,-0.2039881,-0.1062842
1.098624,-0.1518065,-0.2281458
1.338362,-0.1331174,-0.4535837
1.480206,-0.06654024,-0.5280892
1.614458,-0.04397998,-0.380074
1.583385,-0.1247754,-0.1924302
1.420225,-0.3300494,-0.2000254
1.179703,-0.6219477,-0.3635844
0.9959231,-0.7405995,-0.6278352
1.000506,-0.6340767,-0.9174356
0.9607732,-0.5872373,-0.9228589
0.941792,-0.4745412,-0.685602
0.9611572,-0.135606,-0.4552194
0.8902734,0.01164298,-0.3187882
0.8663558,-0.06594878,-0.2747303
0.8085708,-0.1016342,-0.2211816
0.7062359,-0.2395722,-0.2103306
0.6991209,-0.408014,-0.2432623
0.6836248,-0.3658584,-0.2263923
0.641032,-0.183383,-0.2574647
0.6415062,0.04860378,-0.2895184
0.6630089,0.2643905,-0.2659675
0.7316864,0.3378351,-0.2775395
0.8548413,0.3158261,-0.2891726
0.9257875,0.2988852,-0.2900101
0.9214556,0.2093277,-0.2746544
0.9632484,0.02759199,-0.2519838
1.096282,-0.1334757,-0.3181551
1.280993,-0.1745102,-0.4187732
1.40942,-0.1228594,-0.4497831
1.345487,-0.03058865,-0.4202042
1.247208,0.1579673,-0.3913684
1.237351,0.2356563,-0.4107944
1.128312,0.08211343,-0.5231632
0.9997466,-0.002112519,-0.7509299
0.9292985,-0.008600863,-0.8653437
0.8527674,-0.06639645,-0.7166272
0.9818477,-0.1700883,-0.5950625
1.183341,-0.3470182,-0.599242
1.201575,-0.4194433,-0.5237596
1.146415,-0.2937489,-0.4306293
0.9575322,-0.1137293,-0.3960911
0.678651,0.0439956,-0.3040308
0.5297971,0.1147069,-0.226612
0.5199866,0.07920574,-0.235313
0.5422781,-0.01896115,-0.2021073
0.5320087,-0.1944499,-0.1422809
0.5624987,-0.3703402,-0.1234484
0.5913282,-0.423618,-0.08816212
0.6130897,-0.42312,-0.05413548
0.7037459,-0.4013007,-0.05601186
0.7914784,-0.30645,-0.06555266
0.9383464,-0.1885908,-0.09984861
1.08005,-0.08639297,-0.22284
1.195051,-0.0512261,-0.517244
1.440511,-0.07092279,-0.7658782
1.593272,-0.1246471,-0.5116746
1.595435,-0.2233449,-0.01879025
1.49902,-0.2527168,0.05929279
1.17095,-0.4063907,-0.2032285
0.9440641,-0.780515,-0.5237925
0.9999195,-0.8899376,-0.797776
1.039249,-0.6798039,-0.8921915
1.030791,-0.4209949,-0.7988042
1.038105,-0.1134813,-0.5705091
0.9806991,0.01559318,-0.4068318
0.8274548,-0.07960901,-0.3273007
0.6601683,-0.09373283,-0.2011607
0.6137512,-0.1665014,-0.196346
0.6952754,-0.3260035,-0.2416557
0.7644724,-0.2659808,-0.2338655
0.7332154,-0.1027514,-0.2575121
0.6804465,0.09120966,-0.2320556
0.65255,0.3108595,-0.2067292
0.6546585,0.341086,-0.2134653
0.7452153,0.306377,-0.213199
0.8548689,0.2821529,-0.2191231
0.9272629,0.1662322,-0.2206238
0.9750913,0.05484276,-0.2652879
1.033329,-0.03812038,-0.3277996
1.235088,-0.1193221,-0.4141798
1.467826,-0.1858543,-0.5098782
1.456818,-0.1773669,-0.4775704
1.292782,-0.02322105,-0.3676976
1.209354,0.05537033,-0.3243663
1.148317,0.01112805,-0.3934637
1.028311,-0.01303981,-0.6111185
0.8887291,-0.03127176,-0.8284125
0.802419,-0.0353926,-0.7621771
0.9194757,-0.09651673,-0.5994266
1.111818,-0.2667644,-0.5825973
1.208752,-0.3932833,-0.5332205
1.207397,-0.3229709,-0.508002
1.049278,-0.1513443,-0.490688
0.8556044,-0.03987298,-0.3294092
0.6393269,0.05993867,-0.256139
0.5376745,0.07414312,-0.278232
0.6178737,0.01260901,-0.2544679
0.5448847,-0.03248194,-0.2052548
0.5653537,-0.202511,-0.1499931
0.660493,-0.3255301,-0.1521707
0.5893984,-0.3345244,-0.1203874
0.6532731,-0.3691516,-0.06526533
0.6886342,-0.3146635,-0.05487378
0.7423662,-0.2924081,-0.0347704
0.9192846,-0.2839549,-0.08892448
1.004982,-0.1906723,-0.2020365
1.169599,-0.1482258,-0.3888826
1.312457,-0.08535966,-0.5325781
1.467136,-0.08282066,-0.3502338
1.624369,-0.1586789,-0.136887
1.446139,-0.2491056,-0.1795303
1.213018,-0.5401841,-0.3486124
1.110201,-0.8536163,-0.6177205
1.089368,-0.9299994,-0.8308326
1.071808,-0.7190266,-0.7761986
0.8893682,-0.2946439,-0.5809125
0.809285,0.01759568,-0.4183078
0.8343673,0.106149,-0.3585626
0.7939788,0.02700152,-0.3715486
0.8244982,-0.1559099,-0.2974871
0.8298249,-0.35051,-0.2436718
0.7979636,-0.4922072,-0.2758803
0.7966345,-0.4135537,-0.223854
0.7318734,-0.2132488,-0.2354997
0.6419218,0.02457859,-0.2789045
0.5823369,0.26438,-0.2156452
0.61068,0.2464401,-0.2170809
0.7122981,0.2552766,-0.2205827
0.7999491,0.3490123,-0.2237993
0.8848334,0.2086248,-0.2811899
0.975525,0.1082392,-0.2911584
1.14616,-0.0001443055,-0.3356731
1.342272,-0.2019951,-0.4088499
1.385479,-0.2019993,-0.4307257
1.330756,-0.05086597,-0.3508145
1.297743,0.1060445,-0.2503495
1.317512,0.07056515,-0.3743774
1.273177,-0.03824071,-0.6190062
1.079871,0.001876348,-0.7833047
0.8608317,-0.02669274,-0.794772
0.7826714,-0.07182558,-0.6701996
0.9623034,-0.1659889,-0.6210942
1.186144,-0.3809394,-0.5889904
1.215793,-0.4043551,-0.4870163
1.105606,-0.2723641,-0.4434919
0.8750666,-0.1077965,-0.391528
0.6593118,0.0422808,-0.3099583
0.5903614,0.09437907,-0.2646349
0.6189851,0.1105388,-0.2574155
0.6622268,0.02431238,-0.2544909
0.6430334,-0.1181416,-0.2045982
0.6155467,-0.218992,-0.1833936
0.5562977,-0.3201957,-0.1620763
0.5187156,-0.3817249,-0.1004483
0.6486834,-0.4367224,-0.09855151
0.8231266,-0.4644952,-0.1128205
0.9612751,-0.4120855,-0.1260847
1.022373,-0.3478793,-0.1722842
1.087702,-0.2482579,-0.2676455
1.279948,-0.08967201,-0.434974
1.377498,-0.02514552,-0.4794274
1.426158,-0.1311037,-0.3050034
1.513087,-0.2079603,-0.1865505
1.383492,-0.2948835,-0.2908924
1.167684,-0.5289216,-0.4890258
1.05866,-0.6654999,-0.7046564
0.9739407,-0.6790955,-0.8304817
0.920926,-0.5784455,-0.6897466
0.8835866,-0.2581569,-0.4955648
0.8682878,-0.03208554,-0.439977
0.8665745,0.02865891,-0.3758844
0.8012452,0.08353777,-0.3218283
0.7411673,-0.06078817,-0.2780871
0.7102107,-0.3519147,-0.2344797
0.7167919,-0.4332621,-0.2722264
0.764229,-0.249161,-0.2959483
0.7469781,0.005727713,-0.3377912
0.7225924,0.2100366,-0.3739745
0.7169278,0.2847781,-0.2795729
0.7247568,0.2202372,-0.1983982
0.8135269,0.1744049,-0.1734033
0.8889021,0.1381267,-0.1748524
0.9564838,0.03823118,-0.1986686
1.043289,-0.000187226,-0.2262191
1.117565,-0.009279598,-0.3381394
1.217133,-0.05155332,-0.4166431
1.271393,-0.03569521,-0.3754127
1.318435,0.04201144,-0.3314536
1.36204,0.1181441,-0.3141907
1.270633,0.07222656,-0.4049262
1.117322,-0.07128915,-0.645978
0.9777352,-0.1274008,-0.8111651
0.8701887,-0.09914908,-0.7204132
0.8390873,-0.0811678,-0.6076997
0.9445875,-0.1721828,-0.6371032
1.148313,-0.3307317,-0.586065
1.192948,-0.3656755,-0.4853477
1.066726,-0.276111,-0.4372806
0.9132825,-0.1335257,-0.3475369
0.7180318,-0.007438723,-0.2996859
0.6259214,0.05730237,-0.2912225
0.6651566,0.05804931,-0.2717887
0.6659256,-0.05210109,-0.2633947
0.6620553,-0.1878785,-0.2068364
0.6691863,-0.2869652,-0.1676526
0.642802,-0.3355933,-0.1435193
0.6338954,-0.3199732,-0.09055154
0.6606907,-0.3204301,-0.07970607
0.7316253,-0.2944847,-0.08720575
0.8623802,-0.2523482,-0.1254299
1.019085,-0.2335951,-0.2076017
1.145165,-0.1773231,-0.3114728
1.246063,-0.1262879,-0.3851386
1.384674,-0.1027271,-0.3181766
1.50841,-0.1330395,-0.236775
1.503413,-0.2216302,-0.284641
1.39115,-0.3723437,-0.4324729
1.277741,-0.6170913,-0.6428462
1.177978,-0.8171449,-0.7792011
1.008733,-0.8577892,-0.785115
0.828186,-0.5964798,-0.6506732
0.7822689,-0.115022,-0.4218632
0.8404301,0.1283476,-0.3979721
0.9066332,0.1341255,-0.4581378
0.9280472,0.100685,-0.3539276
0.888777,-0.06586382,-0.3194713
0.8144376,-0.3310418,-0.2606632
0.7482591,-0.4850144,-0.1620766
0.7682306,-0.3405791,-0.2536578
0.8222959,-0.07887,-0.305171
0.8147785,0.04013144,-0.3349998
0.7982323,0.1156452,-0.360378
0.7609612,0.2010432,-0.2407137
0.7147673,0.2594805,-0.1876258
0.7199943,0.2187039,-0.1527479
0.7207498,0.1578,-0.1371171
0.7308069,0.2028884,-0.2007761
0.784911,0.128616,-0.2121156
0.9187813,-0.01716012,-0.3076549
1.153702,-0.1251741,-0.4027647
1.315783,-0.2374956,-0.413107
1.320992,-0.1840056,-0.4411909
1.270837,-0.07905062,-0.3779404
1.233339,0.09078701,-0.3062319
1.226472,0.2570723,-0.3192398
1.221157,0.02197249,-0.4628499
1.176209,-0.228469,-0.7215697
1.061181,-0.1665138,-0.7953959
0.9221853,-0.1399994,-0.7247545
0.8669417,-0.1868856,-0.7133456
0.9191122,-0.2236106,-0.6465117
1.01131,-0.3505059,-0.4924907
1.088721,-0.4476984,-0.4008833
1.139562,-0.3245446,-0.4096804
1.074885,-0.142871,-0.4164414
0.9258095,-0.03307888,-0.4055961
0.8616388,0.07189322,-0.3970322
0.8339182,0.09237722,-0.3680676
0.8257384,0.02138667,-0.3319153
0.8479503,-0.08798573,-0.287265
0.8034515,-0.2216726,-0.2570739
0.7518289,-0.2608496,-0.2287995
0.6928118,-0.2214667,-0.1733555
0.6315571,-0.204908,-0.1530945
0.6461472,-0.1928928,-0.1650125
0.6709527,-0.1987989,-0.168599
0.7162573,-0.24189,-0.1870646
0.7858839,-0.2504667,-0.2231983
0.8877028,-0.1906221,-0.2593847
1.058849,-0.1106013,-0.2957672
1.158986,-0.07619857,-0.3223824
1.195525,-0.07638626,-0.2989197
1.258209,-0.2853177,-0.4697106
1.119461,-0.1858141,-0.4462276
0.8133034,-0.03830978,-0.3657442
0.6399695,0.07790423,-0.2622082
0.5534005,0.1143953,-0.2571272
0.5691301,0.04184785,-0.2595658
0.6223855,-0.08871994,-0.1957329
0.6231706,-0.252997,-0.1702745
0.6520945,-0.3629836,-0.1438041
0.6247581,-0.3564903,-0.08889029
0.6005795,-0.3650575,-0.08610246
0.6398566,-0.3550241,-0.06932341
0.6817579,-0.2799952,-0.05445186
0.8223901,-0.1915641,-0.09810589
0.9792896,-0.1126646,-0.1729837
1.128438,-0.1068369,-0.3199619
1.343838,-0.1090985,-0.4767625
1.475596,-0.1182827,-0.4581867
1.538989,-0.2098048,-0.2113926
1.548403,-0.3038359,-0.02357279
1.394603,-0.4618701,-0.1610308
1.221955,-0.6965002,-0.4335355
1.129305,-0.7569881,-0.656149
1.017906,-0.6485302,-0.7681542
0.9012509,-0.5235718,-0.6449055
0.8835893,-0.27226,-0.4669749
0.9578666,0.005957982,-0.424947
0.974777,0.03283905,-0.3759551
0.8849778,-0.03661902,-0.3098908
0.7610096,-0.125083,-0.2602882
0.6441552,-0.3415037,-0.1893561
0.6246625,-0.4026439,-0.1762059
0.682066,-0.2390711,-0.2121163
0.7275507,-0.06674136,-0.2728644
0.7751533,0.1555328,-0.2963384
0.7716497,0.3334481,-0.2478042
0.7459043,0.3619841,-0.2287563
0.7628535,0.3625046,-0.188281
0.7914164,0.3137512,-0.176603
0.8919427,0.1604989,-0.2374159
1.080503,-0.08951376,-0.2953215
1.274689,-0.3099614,-0.4101493
1.402114,-0.2907246,-0.4617048
1.446073,-0.1637638,-0.4077062
1.416044,-0.02466492,-0.2889305
1.319232,0.1976793,-0.102147
1.267498,0.2188996,-0.1784849
1.208507,0.07522735,-0.5393452
1.009837,0.09476872,-0.7898897
0.8870752,0.09933432,-0.7579118
0.9568356,0.01910311,-0.5907847
1.019655,-0.09098044,-0.5792644
1.028601,-0.2464124,-0.6108389
1.074399,-0.2564676,-0.5484458
1.109628,-0.2645303,-0.5119157
1.054931,-0.3056593,-0.4161084
0.8720148,-0.1421625,-0.3348131
0.5883395,0.04189282,-0.2783822
0.4777341,0.1404709,-0.2149704
0.5645579,0.1084798,-0.2727878
0.5454941,-0.0573671,-0.2197377
0.5479606,-0.1902584,-0.1349039
0.6689082,-0.372042,-0.1615218
0.6924604,-0.4613301,-0.08393357
0.6911553,-0.4132665,-0.03956093
0.7395375,-0.4144893,-0.03159877
0.8068294,-0.2946757,-0.03193757
0.9375187,-0.167848,-0.1092487
1.065194,-0.1299968,-0.1775975
1.225594,-0.0280802,-0.4086322
1.446441,0.01108187,-0.5921516
1.563271,-0.0564297,-0.3796769
1.57305,-0.2183698,-0.1354656
1.44437,-0.4372707,-0.1800827
1.15686,-0.6937242,-0.4037601
1.026672,-0.8816259,-0.6784915
1.072882,-0.7693695,-0.8628436
1.044731,-0.5876702,-0.8020646
1.030175,-0.3626133,-0.6330344
1.029333,-0.04882217,-0.4641741
0.9050535,0.01256198,-0.2868899
0.7436625,0.02241177,-0.219427
0.6625899,-0.01782975,-0.1637623
0.702675,-0.2765243,-0.1599231
0.7661065,-0.3274949,-0.2701942
0.7659233,-0.2332114,-0.3119999
0.7221876,-0.1257999,-0.3387012
0.6148391,0.1739058,-0.2669131
0.5765455,0.3892493,-0.1362818
0.673845,0.4085318,-0.1486177
0.7625176,0.3776869,-0.1638894
0.8301496,0.3008506,-0.1828216
0.8971836,0.1986062,-0.1970356
1.067154,-0.01140675,-0.2545997
1.358994,-0.3077967,-0.4684461
1.450797,-0.4008099,-0.565952
1.349912,-0.1797396,-0.4658961
1.355541,0.005078686,-0.3909464
1.362404,-0.01420014,-0.4383668
1.21555,0.06462266,-0.4962573
1.052173,0.1244065,-0.5621312
0.9559247,-0.01408748,-0.7159334
0.9376712,-0.06056302,-0.7170301
1.029904,-0.07195521,-0.6166787
1.127826,-0.2010783,-0.6077202
1.122074,-0.3062066,-0.5404787
1.106021,-0.334138,-0.4457771
1.111222,-0.2742964,-0.3780181
0.9796384,-0.1586572,-0.3352248
0.7561228,-0.01217624,-0.2888759
0.6268856,0.08805374,-0.2147366
0.5796969,0.0476585,-0.231485
0.536493,0.008205906,-0.1874046
0.5077124,-0.04166718,-0.09102857
0.5687308,-0.1938248,-0.1260229
0.6328722,-0.3311241,-0.1274869
0.6063181,-0.3996547,-0.1078677
0.6216999,-0.3748477,-0.1095661
0.6935937,-0.3076547,-0.0578777
0.8379628,-0.2419007,-0.06169794
1.078357,-0.1469433,-0.1832868
1.313389,-0.1060515,-0.4077866
1.554627,-0.08955604,-0.5119908
1.673057,-0.1021571,-0.3243218
1.558938,-0.245895,-0.1727931
1.351801,-0.4916528,-0.2723683
1.145907,-0.7558901,-0.4670088
1.064764,-0.8088886,-0.7253097
1.096026,-0.6673188,-0.8911972
1.058467,-0.4828281,-0.6742352
0.9766938,-0.1066539,-0.3985354
0.8658489,0.1991978,-0.3476424
0.7151945,0.2001782,-0.2636579
0.7012326,0.149991,-0.2187422
0.7770448,-0.09639514,-0.2726931
0.7860936,-0.4645871,-0.2713506
0.7710396,-0.4416115,-0.2827673
0.6931198,-0.2468539,-0.286506
0.5942209,-0.1706285,-0.2825746
0.5807603,0.04075462,-0.2793711
0.6112415,0.2565606,-0.2460781
0.6958719,0.2809556,-0.2538251
0.832531,0.3157722,-0.2495653
0.948181,0.3225945,-0.2382289
1.012219,0.2086529,-0.2654989
1.12354,0.01117098,-0.3402829
1.284576,-0.2312365,-0.4763797
1.318813,-0.280465,-0.4888059
1.289361,-0.09162903,-0.341038
1.324054,0.08731548,-0.2742519
1.340341,0.1071792,-0.4490501
1.203372,0.03529054,-0.725243
0.9440701,0.02480961,-0.7913593
0.8323362,0.02147909,-0.6903552
0.9348071,-0.04682843,-0.6372131
1.068057,-0.1716105,-0.6046707
1.183141,-0.3175417,-0.5467274
1.24545,-0.3137906,-0.4741218
1.132219,-0.1837392,-0.4214544
0.9076853,-0.06808274,-0.3889524
0.7338491,0.004414659,-0.3180788
0.6216163,-0.001255516,-0.2712196
0.5965039,-0.02963064,-0.2603225
0.6037658,-0.09412523,-0.2085115
0.5721957,-0.2339679,-0.1793465
0.5639797,-0.3165361,-0.1703667
0.5382647,-0.3219537,-0.1400679
0.554173,-0.3225469,-0.1276011
0.6640018,-0.326127,-0.09152655
0.8205715,-0.3215687,-0.0742946
1.017143,-0.2761611,-0.1212066
1.074641,-0.2046706,-0.1775117
1.089606,-0.1598192,-0.2495884
1.266002,-0.1637534,-0.2816982
1.431821,-0.1697836,-0.2929117
1.494534,-0.1806111,-0.317349
1.436953,-0.3246128,-0.3079951
1.346362,-0.527134,-0.3952994
1.299255,-0.5748813,-0.5249838
1.153915,-0.5441515,-0.5795369
0.9513813,-0.5810187,-0.6703537
0.8299525,-0.5534482,-0.6532432
0.8913792,-0.3244765,-0.4741023
0.9807788,-0.04515989,-0.3652484
0.9098916,0.05712007,-0.3407987
0.8835506,-0.02100358,-0.3435507
0.8255314,-0.1463289,-0.3276746
0.7439733,-0.3181515,-0.2983387
0.8004503,-0.4273923,-0.3153992
0.7387871,-0.2889085,-0.2948048
0.65923,-0.09796681,-0.2728616
0.64632,0.08744646,-0.2796597
0.5968739,0.2916152,-0.2445361
0.6464911,0.2867178,-0.2535758
0.6933874,0.2445031,-0.256624
0.78179,0.2389204,-0.2161989
0.9489689,0.1047285,-0.2252303
1.064492,-0.00507944,-0.2459448
1.237316,-0.1018936,-0.3304857
1.355211,-0.2037089,-0.466637
1.356885,-0.207491,-0.4717947
1.378194,-0.1350565,-0.3296762
1.379371,-0.02080087,-0.2433669
1.345604,0.01400119,-0.400371
1.227175,-0.0001894761,-0.623109
0.9858147,0.04668921,-0.6840113
0.7892398,0.09328206,-0.690271
0.853055,0.04778801,-0.6834649
1.061133,-0.1555129,-0.6305472
1.156511,-0.3702386,-0.5978659
1.15389,-0.3540394,-0.5237295
0.9825125,-0.149949,-0.4294819
0.7751675,-0.02335923,-0.4270421
0.7697144,-0.001455488,-0.3708177
0.6786812,0.09382385,-0.2627392
0.5661841,0.1424015,-0.2805409
0.6332104,0.007376655,-0.2797536
0.6257746,-0.1790709,-0.1796526
0.6123753,-0.3224226,-0.1320048
0.640887,-0.3957893,-0.1081972
0.6057251,-0.3901615,-0.05835147
0.6430483,-0.3561467,-0.02411772
0.7351285,-0.3126406,-0.009175491
0.866369,-0.243516,-0.09654538
1.049711,-0.2019816,-0.2973132
1.189376,-0.1743265,-0.4748776
1.352143,-0.120672,-0.5156519
1.518983,-0.132491,-0.3358083
1.558761,-0.1921319,-0.1159877
1.463324,-0.2742724,-0.1355959
1.289224,-0.5036647,-0.3595892
1.183507,-0.7912927,-0.6264056
1.166587,-0.8381896,-0.7203177
1.04349,-0.6223655,-0.5999909
0.8520084,-0.3691053,-0.5033357
0.8505501,-0.08601393,-0.4322529
0.9177084,0.1846755,-0.3473331
0.8594523,0.1831036,-0.3395995
0.859239,-0.04565505,-0.2956441
0.8452339,-0.2711566,-0.2230871
0.7455813,-0.3621801,-0.2098272
0.7600476,-0.2601919,-0.1831165
0.7706694,-0.1073657,-0.2143675
0.7407005,0.03678703,-0.2634108
0.7103654,0.1803942,-0.2189864
0.6230903,0.1950923,-0.1936182
0.637428,0.1871886,-0.1863293
0.7487945,0.2168524,-0.2130624
0.8848848,0.1608496,-0.3000608
1.047186,0.08560633,-0.340337
1.185668,-0.03997899,-0.3897607
1.306746,-0.1778074,-0.4438495
1.321903,-0.1384647,-0.4160138
1.292983,0.01568611,-0.3463559
1.320045,0.1761764,-0.284796
1.26753,0.2019738,-0.3521801
1.170406,0.07722334,-0.5495497
1.045827,-0.003387847,-0.7010113
0.8704591,-0.07291222,-0.7286548
0.8297857,-0.1273753,-0.6548357
0.9071828,-0.1267782,-0.6008102
1.011808,-0.2472646,-0.5675964
1.153665,-0.4130203,-0.4682877
1.176109,-0.3901924,-0.4409259
1.074147,-0.2232321,-0.4420252
0.9719484,-0.05413517,-0.3396728
0.8206358,0.05962132,-0.3129542
0.701103,0.1248417,-0.3497034
0.6421472,0.1758928,-0.3054008
0.585169,0.06201178,-0.2320026
0.6279989,-0.2274654,-0.1578199
0.627322,-0.3494074,-0.1442752
0.584601,-0.3742479,-0.1806337
0.6392605,-0.3934769,-0.1611482
0.6111789,-0.2772903,-0.1590181
0.6249729,-0.2879839,-0.1752244
0.7520252,-0.2723977,-0.1398421
0.8882406,-0.1162021,-0.1380364
1.105535,-0.1515172,-0.2081834
1.279698,-0.1571821,-0.3394664
1.48264,-0.1164916,-0.4134793
1.63499,-0.1490452,-0.2895798
1.526004,-0.1802574,-0.1902809
1.391662,-0.4712823,-0.3185653
1.216436,-0.8348402,-0.5643818
1.08217,-0.8766785,-0.8350882
1.1173,-0.6799031,-0.9330283
1.038494,-0.4142164,-0.6877406
0.8952415,-0.1062288,-0.3842008
0.774328,0.1324991,-0.2631642
0.7018445,0.07839058,-0.2585596
0.8218228,-0.1257564,-0.3524562
0.9387919,-0.3602734,-0.4236796
0.9258127,-0.489502,-0.3794354
0.8132476,-0.3176868,-0.3216899
0.6251462,-0.2017116,-0.2629473
0.5482704,-0.08814203,-0.2239847
0.5500748,0.2007254,-0.2148301
0.5631823,0.3041305,-0.2196902
0.6720407,0.2750967,-0.300722
0.7555063,0.2670538,-0.3725848
0.8069397,0.269193,-0.3203581
0.8881778,0.2210875,-0.1858425
0.9684421,0.06139483,-0.06522333
1.160002,-0.05038348,-0.07445872
1.35545,-0.1441445,-0.2303982
1.401596,-0.1960138,-0.3888703
1.421105,-0.09713922,-0.4328851
1.430039,0.03143556,-0.4270293
1.352232,0.1010618,-0.5120474
1.144879,0.05734175,-0.6391222
0.8943561,0.001155995,-0.6374409
0.8189344,0.006586617,-0.566558
0.9552609,0.02041165,-0.5353079
1.115371,0.04888432,-0.512973
1.163946,-0.05019459,-0.5282974
1.184003,-0.2605639,-0.5533316
1.154159,-0.3840524,-0.5715133
0.999827,-0.3724659,-0.5800645
0.8085333,-0.1993985,-0.4321341
0.5756311,0.01189882,-0.2298183
0.4577649,0.05629464,-0.1779358
0.4902302,-0.03761493,-0.1658317
0.4319896,-0.1241328,-0.1103377
0.4578029,-0.210498,-0.09943959
0.5700191,-0.3150834,-0.09335731
0.5884084,-0.3126609,-0.02205839
0.7203298,-0.2712479,-0.02184969
0.9128196,-0.285021,-0.1792038
1.010521,-0.2579438,-0.3206319
1.036802,-0.222653,-0.2469066
1.049896,-0.1958359,-0.1584344
1.200923,-0.1475261,-0.3172116
1.408455,-0.09619339,-0.3910078
1.534682,-0.02480056,-0.229004
1.480558,-0.04677002,-0.1271863
1.261598,-0.2499299,-0.1607262
1.17001,-0.5789904,-0.4224185
1.175577,-0.8588376,-0.8527776
1.156854,-0.8423784,-1.029478
1.091977,-0.5893467,-0.7583988
0.8867363,-0.2777336,-0.4168048
0.7369588,-0.01911422,-0.3382942
0.7283358,0.04155521,-0.2877544
0.7886358,-0.01582429,-0.2539721
0.8707959,-0.128122,-0.3248223
0.8612226,-0.2916648,-0.3158167
0.8179577,-0.3462217,-0.3222926
0.745914,-0.3220863,-0.3287697
0.674427,-0.2316371,-0.2845459
0.6257167,0.02424339,-0.2507771
0.5514599,0.242865,-0.1772005
0.5806766,0.2930164,-0.209318
0.6456483,0.3199099,-0.2774516
0.7463158,0.2879711,-0.2618669
0.9550474,0.1300326,-0.2785523
1.078493,-0.0002707503,-0.2692874
1.14523,-0.07937157,-0.2886408
1.242762,-0.1914074,-0.3994876
1.352752,-0.2709002,-0.4646068
1.429108,-0.1724631,-0.3711889
1.413434,0.04302544,-0.2083174
1.376306,0.05784561,-0.2698219
1.223498,-0.0400778,-0.5431351
1.011059,-0.01830057,-0.8086792
0.9595305,-0.02832328,-0.8670018
0.9566778,-0.04170952,-0.6762984
0.9915403,-0.09521945,-0.5900566
1.094198,-0.2748746,-0.5793952
1.156467,-0.3338006,-0.4741069
1.141994,-0.2212739,-0.4540166
0.9612812,-0.05962189,-0.3906221
0.7063161,0.0171351,-0.269041
0.5723692,0.01684276,-0.2314169
0.5313923,0.04322114,-0.1965347
0.5239685,-0.02503763,-0.1726332
0.5739166,-0.162974,-0.1497941
0.662015,-0.2735092,-0.1350647
0.6999343,-0.3255565,-0.1073303
0.7096815,-0.2983957,-0.07451656
0.7235172,-0.2937557,-0.1073957
0.7600659,-0.2382542,-0.1110502
0.9049207,-0.1162608,-0.1762612
1.08816,-0.07256315,-0.3342317
1.270877,-0.08009908,-0.3846113
1.499289,-0.08257704,-0.3214686
1.650445,-0.06096829,-0.2211509
1.55122,-0.1144222,-0.1697941
1.275629,-0.4182944,-0.1991026
1.127501,-0.8047313,-0.3660468
1.121471,-0.8762986,-0.7009788
1.091231,-0.7502776,-0.9033357
1.045682,-0.620162,-0.7973997
0.9944886,-0.1934581,-0.6010916
0.9241094,0.1607736,-0.4305592
0.7952547,0.05628628,-0.2433433
0.6878182,-0.00573039,-0.1647043
0.676717,-0.1177777,-0.1928217
0.718307,-0.4104497,-0.2078145
0.8077189,-0.4391896,-0.2923635
0.7825586,-0.2972022,-0.3424262
0.6550319,-0.1440649,-0.2886542
0.5457946,0.04849153,-0.2553564
0.4821866,0.1651852,-0.2294884
0.6476586,0.2117492,-0.2545786
0.8665972,0.2624328,-0.2916373
0.9599626,0.2874902,-0.3008413
1.071945,0.183924,-0.3449217
1.189583,-0.007689077,-0.3789804
1.297252,-0.1725492,-0.4176536
1.303799,-0.2005775,-0.4210228
1.270422,-0.01102275,-0.3350822
1.309138,0.1963176,-0.2515588
1.236891,0.2108986,-0.2807083
1.11809,0.09087607,-0.4736418
1.005301,0.01206708,-0.7187187
0.8800572,0.008223356,-0.8187318
0.9131816,-0.04068488,-0.7007676
1.040918,-0.1047689,-0.5903883
1.147481,-0.1424744,-0.612281
1.175943,-0.2111586,-0.5935554
1.162972,-0.286174,-0.5558985
1.159513,-0.2898608,-0.49335
0.9588123,-0.1778473,-0.3670232
0.6812753,-0.04871564,-0.285741
0.5801198,0.01163278,-0.2361664
0.560946,0.0281471,-0.2408286
0.5981409,-0.058952,-0.2323968
0.6551316,-0.2340113,-0.1753489
0.6782431,-0.340715,-0.1691047
0.6753099,-0.3460343,-0.1270284
0.6299942,-0.3181925,-0.09985365
0.6273026,-0.2921324,-0.07098555
0.7071448,-0.2588294,0.009507312
0.8614705,-0.2008053,-0.07574182
1.035549,-0.1637824,-0.2658597
1.189016,-0.1545394,-0.4646585
1.421126,-0.1117638,-0.557421
1.650826,-0.09478217,-0.3298513
1.697161,-0.1281878,-0.1063102
1.531158,-0.2132394,-0.158821
1.228404,-0.5343505,-0.3545228
1.007052,-0.9382774,-0.6750273
1.040403,-0.9957683,-0.9649995
1.116435,-0.8783376,-0.9887455
1.015163,-0.8093553,-0.8544048
0.9222175,-0.3730363,-0.6148952
0.8129996,0.1591355,-0.2616117
0.666134,-0.03370159,-0.1639597
0.6997737,-0.3422041,-0.2655974
0.709068,-0.18706,-0.2082442
0.696228,-0.2030846,-0.2554559
0.7407602,-0.1950363,-0.3395843
0.6831292,0.03285023,-0.2581566
0.6931691,0.09711981,-0.2594973
0.6844838,0.2772221,-0.2146873
0.6632503,0.3258928,-0.1742525
0.78715,0.1415898,-0.2353654
0.8562301,0.183906,-0.1858237
0.9249986,0.10249,-0.2038289
1.045985,-0.03203887,-0.3001187
1.285112,-0.1001769,-0.4521174
1.504057,-0.275163,-0.6401181
1.377811,-0.1319044,-0.5021565
1.303488,0.09757155,-0.2240862
1.339846,0.1383987,-0.1357897
1.222326,0.1137412,-0.3183998
1.142875,-0.03375752,-0.7143375
1.017217,0.01546843,-0.8324013
0.9071534,0.06073016,-0.6654161
0.9594855,-0.1121199,-0.573022
1.001996,-0.2114718,-0.5042552
1.089965,-0.3640476,-0.4715169
1.176124,-0.3599837,-0.4739926
1.103781,-0.166228,-0.4596411
0.9533539,-0.082793,-0.4611344
0.7787045,0.05045341,-0.3827374
0.6190486,0.1322037,-0.2649434
0.5329718,0.1559255,-0.2186316
0.5356489,0.09213218,-0.1951358
0.5908796,-0.2051042,-0.1532069
0.6145158,-0.3431071,-0.1145955
0.6138468,-0.3441888,-0.09645681
0.6227423,-0.4034,-0.04786732
0.6232064,-0.396522,0.006829289
0.6719494,-0.3719629,-0.005571647
0.8220204,-0.2905294,-0.07559936
1.032672,-0.2070023,-0.235052
1.241961,-0.1929262,-0.4629341
1.435469,-0.1819569,-0.5562169
1.62661,-0.1677336,-0.3459065
1.662414,-0.1370833,-0.09448371
1.449757,-0.2397908,-0.175892
1.233442,-0.5333224,-0.4458779
1.153007,-0.8657232,-0.7128504
1.058257,-0.9119114,-0.8209037
0.8787738,-0.4588174,-0.5644383
0.8048174,-0.008967336,-0.3743466
0.8897682,0.1016933,-0.4708996
0.8949855,0.1064862,-0.4054041
0.8450237,-0.03742914,-0.2532851
0.8214708,-0.3505461,-0.2320078
0.7438808,-0.4590001,-0.182065
0.7245998,-0.3308062,-0.1513907
0.7306199,-0.263016,-0.2198596
0.6673361,-0.1251312,-0.2502687
0.6225904,0.1388444,-0.1883183
0.5718149,0.3196528,-0.1471678
0.5820521,0.3334021,-0.1701969
0.7192572,0.1879647,-0.1892585
0.871222,0.1749746,-0.1916028
0.9784457,0.1914199,-0.2102397
1.034154,0.02364498,-0.2964386
1.211211,-0.1241204,-0.4820005
1.429625,-0.2648805,-0.6122135
1.358281,-0.1062176,-0.5140381
1.331121,0.196755,-0.3516091
1.466369,0.1175862,-0.3322872
1.345605,0.02637551,-0.5010495
1.136768,-0.0234941,-0.7817424
0.9475388,-0.05746401,-0.8155278
0.8079479,-0.01004293,-0.6184927
0.9493621,-0.1724942,-0.5659769
1.070239,-0.2879199,-0.5746126
1.114444,-0.2903719,-0.5331982
1.176015,-0.2450942,-0.4813574
0.9760056,-0.06052823,-0.4205453
0.7152035,-0.002224249,-0.3500564
0.6047011,0.02559839,-0.2492102
0.5713711,0.05541845,-0.2563816
0.6099358,-0.06059683,-0.252054
0.6128917,-0.1920316,-0.1384325
0.6165852,-0.3275296,-0.1305119
0.6181296,-0.3734116,-0.09935751
0.5765827,-0.3494868,-0.03289245
0.6050374,-0.3504034,-0.03059089
0.6774938,-0.2870535,-0.001144595
0.8157523,-0.2254306,-0.06003028
0.9907538,-0.1827577,-0.1796998
1.110577,-0.1621444,-0.2884663
1.325204,-0.1743172,-0.3920447
1.614038,-0.1544442,-0.3778366
1.694789,-0.1776202,-0.2950617
1.52753,-0.2549586,-0.2386546
1.35329,-0.3768894,-0.311977
1.205534,-0.5684191,-0.5485305
1.012546,-0.7659281,-0.769802
0.9148109,-0.8078423,-0.7880354
0.8634338,-0.4969178,-0.5364037
0.8123144,-0.1146461,-0.3348097
0.8823405,-0.02392898,-0.398597
0.934872,-0.01087369,-0.3850404
0.9150529,-0.004169757,-0.2675157
0.9082933,-0.1334838,-0.3019884
0.8598096,-0.3102578,-0.320809
0.8020463,-0.4760961,-0.2612728
0.790257,-0.3926213,-0.2975876
0.7473935,-0.02994175,-0.2987987
0.6028698,0.1982644,-0.1977158
0.462473,0.3156645,-0.1246191
0.4858586,0.34505,-0.1053994
0.6762239,0.2229425,-0.1748332
0.9225809,0.2118585,-0.2229293
1.038138,0.1678584,-0.1914038
1.034407,0.04149803,-0.2413698
1.163813,-0.005382659,-0.3680961
1.382129,-0.06289792,-0.4700587
1.436178,-0.05179849,-0.4159351
1.345996,0.003066222,-0.2335199
1.263454,0.08440521,-0.1571001
1.204248,0.1466155,-0.3010948
1.103773,0.1034957,-0.6378371
0.9662783,0.1105502,-0.8269397
0.9190372,0.01441989,-0.699024
0.9909403,-0.1899818,-0.5956315
1.042867,-0.3259405,-0.5659941
1.103656,-0.4093411,-0.4526907
1.223861,-0.3513934,-0.3692631
1.237581,-0.233647,-0.4323816
1.1488,-0.05960187,-0.5009272
1.017517,0.05391007,-0.4208603
0.7328741,-0.0001208741,-0.3125238
0.4321918,0.02912001,-0.1967568
0.3341085,-0.05914281,-0.05182792
0.3937271,-0.2632943,-0.04618262
0.5110996,-0.3349441,-0.09478957
0.6239127,-0.4080635,-0.06826451
0.7155705,-0.3924655,-0.04424275
0.7786379,-0.3202718,-0.02640897
0.8613081,-0.2682484,-0.08874945
1.015137,-0.1710571,-0.2776035
1.147652,-0.1209953,-0.4106243
1.225489,-0.07912327,-0.4153572
1.278524,-0.0852195,-0.3967155
1.452142,-0.1333482,-0.3265239
1.712519,-0.1793912,-0.1383162
1.617132,-0.2988039,-0.06253585
1.277518,-0.4691238,-0.2236512
1.10432,-0.7510522,-0.4032132
1.087374,-0.8738952,-0.5265682
1.120537,-0.6714003,-0.5755322
1.006567,-0.4422409,-0.5889657
0.8946429,-0.1549804,-0.6150124
0.8767875,0.02161159,-0.4927132
0.707583,0.03925325,-0.3496457
0.7064755,0.09690845,-0.2974886
0.8400156,-0.1156422,-0.2497533
0.8039325,-0.3273698,-0.2769701
0.8477194,-0.2913249,-0.2690932
0.8521114,-0.2835027,-0.2640644
0.7485821,-0.103865,-0.360322
0.6626468,0.07664739,-0.374701
0.5031594,0.1674829,-0.3002171
0.455657,0.3627357,-0.199345
0.6033616,0.3795271,-0.1936357
0.8655281,0.2816107,-0.2721747
1.095525,0.1811482,-0.2627956
1.135082,0.06486498,-0.2578752
1.174117,-0.02620456,-0.2678108
1.268724,-0.169073,-0.324083
1.322893,-0.1777302,-0.4160024
1.349781,-0.05216123,-0.3457164
1.35179,0.03294756,-0.3194586
1.290934,-0.004972975,-0.5198625
1.118495,-0.08572504,-0.7740464
0.9765091,-0.01915558,-0.864132
0.9247176,-0.01901582,-0.705856
0.9517509,-0.07528678,-0.579422
1.065481,-0.1051013,-0.5986814
1.148533,-0.2936265,-0.5493728
1.238008,-0.3860135,-0.4661599
1.157572,-0.2631599,-0.4377952
0.8407957,-0.1288854,-0.386364
0.6765907,-0.04534821,-0.3239232
0.6178546,0.01263858,-0.2971645
0.5212373,0.06654091,-0.2302093
0.4686798,-0.002075961,-0.1428639
0.4752992,-0.1486345,-0.1385096
0.5396177,-0.2533018,-0.1315544
0.5779209,-0.3028375,-0.08437778
0.6514326,-0.2624078,-0.06101139
0.7190089,-0.2508287,-0.02223707
0.756815,-0.2463182,-0.02628637
0.930739,-0.1850784,-0.109263
1.074212,-0.1990691,-0.2399794
1.184083,-0.2150679,-0.4210881
1.343279,-0.1862183,-0.4557064
1.460385,-0.1818603,-0.3632691
1.560322,-0.1779036,-0.2967472
1.432561,-0.2673167,-0.1750841
1.174247,-0.4851289,-0.2382694
1.102579,-0.6736823,-0.512072
1.084986,-0.727345,-0.6975011
1.078423,-0.6193382,-0.8191729
1.040212,-0.3496523,-0.6892433
0.9302095,-0.02945018,-0.4338347
0.8358112,0.0922997,-0.4058432
0.7329754,-0.002588339,-0.3087442
0.7332563,-0.1142971,-0.2119502
0.7777631,-0.2913035,-0.2882286
0.7598517,-0.4066813,-0.2943817
0.7865099,-0.2639089,-0.3065902
0.7452017,-0.1324453,-0.3288539
0.6519682,-0.006297034,-0.2849392
0.6277351,0.1757099,-0.2468404
0.6477174,0.2055346,-0.2271727
0.7630764,0.2225555,-0.2759874
0.9166314,0.2133001,-0.3260751
1.034711,0.1091276,-0.3291276
1.120759,0.02523432,-0.3354216
1.183132,-0.1122752,-0.3660187
1.216327,-0.144513,-0.420592
1.208937,-0.00586713,-0.3862689
1.285407,0.1045026,-0.2560264
1.345778,0.1270707,-0.1864262
1.189916,0.01233459,-0.3525032
1.001989,-0.07006568,-0.6879124
0.9463843,-0.01475709,-0.8625453
0.9493087,-0.008032163,-0.8637361
0.9986277,-0.1058203,-0.7895982
1.122953,-0.2669452,-0.6465877
1.162061,-0.3659807,-0.5887125
1.086339,-0.3091541,-0.5149504
1.028976,-0.2081833,-0.3659256
0.896936,-0.1389137,-0.354399
0.705897,-0.03513633,-0.3373522
0.5543137,0.07932032,-0.2221278
0.5389443,0.06658904,-0.2427729
0.6903017,-0.0407394,-0.2961704
0.7330113,-0.1676176,-0.2480151
0.7361304,-0.2918696,-0.2591103
0.7369382,-0.3187334,-0.2324799
0.5848335,-0.3268868,-0.1192542
0.5720037,-0.3758281,-0.1111462
0.6575469,-0.3346095,-0.1153105
0.7405251,-0.2829776,-0.08996266
0.8878916,-0.2440248,-0.1125982
0.9325076,-0.1393324,-0.1423687
1.037445,-0.1061467,-0.2467843
1.18124,-0.09478686,-0.4210934
1.237034,-0.07360959,-0.4814785
1.379053,-0.1447,-0.2954604
1.469682,-0.2215792,-0.1357862
1.428648,-0.3596607,-0.3288119
1.330165,-0.5603209,-0.5554732
1.178456,-0.7283183,-0.6129085
1.032708,-0.8349704,-0.6915585
0.9177292,-0.686244,-0.6814264
0.8729746,-0.3258717,-0.5627737
0.8672122,-0.01631161,-0.4969578
0.8583919,0.09884488,-0.4421712
0.8434181,0.006676746,-0.3915426
0.8191933,-0.1311408,-0.3567354
0.8007961,-0.2791028,-0.3272856
0.7691748,-0.3796377,-0.3201374
0.7645964,-0.2834698,-0.2887216
0.7520344,-0.1564775,-0.3124107
0.7144154,-0.03825265,-0.3643803
0.6965837,0.1432521,-0.3003332
0.6670417,0.2092008,-0.2527358
0.7264439,0.2313698,-0.256004
0.8643186,0.2540066,-0.2569833
0.9743242,0.1703259,-0.288158
1.055683,0.1060676,-0.2859849
1.076431,0.01661644,-0.3034689
1.127439,-0.09330131,-0.3480469
1.210324,-0.1247653,-0.3411207
1.235141,-0.1270126,-0.3207153
1.273629,-0.01929883,-0.2760899
1.304098,0.06764303,-0.2626318
1.261913,-0.007655029,-0.4015521
1.158407,-0.04870616,-0.6358583
1.012815,0.02186013,-0.7552506
0.9130524,0.06765464,-0.709131
0.950415,-0.03405971,-0.667103
1.032326,-0.1935821,-0.6387616
1.054274,-0.3023176,-0.5929069
1.140224,-0.3705462,-0.5686797
1.217426,-0.3982509,-0.4943653
1.066282,-0.3084193,-0.4132691
0.8212935,-0.06767228,-0.3626526
0.6859921,0.03351397,-0.2905478
0.6883133,-0.01136111,-0.2936717
0.738594,0.01108508,-0.3243642
0.7598661,-0.07558458,-0.284102
0.7608225,-0.1947692,-0.2670024
0.7115947,-0.2570394,-0.2193481
0.6472883,-0.3517732,-0.117312
0.6328099,-0.347814,-0.08174663
0.6695941,-0.3244816,-0.08056861
0.7537891,-0.3136069,-0.1013223
0.8531611,-0.2345531,-0.1453808
0.9314637,-0.1889721,-0.1517378
0.9877677,-0.1755657,-0.1786331
1.102093,-0.1418963,-0.2742298
1.245325,-0.05830625,-0.3582887
1.326071,-0.009505094,-0.3306908
1.441051,-0.09040818,-0.2201868
1.524273,-0.2020399,-0.1693737
1.406154,-0.3284958,-0.2502193
1.229592,-0.5195421,-0.4071568
1.150956,-0.7179144,-0.5542818
1.070748,-0.7846434,-0.6832401
0.909495,-0.5856773,-0.7077582
0.8009733,-0.2199117,-0.5774903
0.8386988,-0.006656033,-0.4941191
0.9236935,-0.0642541,-0.4509009
0.9514243,-0.1701505,-0.3152584
