accx,accy,accz
1.080456,-0.09935027,0.1233657
1.023459,-0.1315713,0.04401104
1.03871,-0.2470499,0.1421137
1.126034,-0.3178526,0.3114231
1.216859,-0.3235842,0.4110893
1.165197,-0.281043,0.4251914
1.054695,-0.1677569,0.36212
0.9529793,-0.04052735,0.2614864
0.8398795,0.004412997,0.2063056
0.7800776,-0.02062188,0.19801
0.7299259,-0.05604539,0.22739
0.6969245,-0.1012877,0.2840373
0.7290128,-0.1478653,0.3321003
0.7467212,-0.1672493,0.351063
0.7613222,-0.1874717,0.329498
0.7721039,-0.1880027,0.3411123
0.7517324,-0.1287916,0.394046
0.756558,-0.06618077,0.4279837
0.7796787,-0.01143345,0.4460121
0.8572249,0.04050242,0.4367701
1.005189,0.05315484,0.4488129
1.079112,0.02982621,0.4619213
1.05087,0.007328788,0.4524746
1.03662,0.01763634,0.5112506
1.040097,0.02869072,0.5696757
1.023428,0.01947698,0.5998188
1.063184,-0.04212783,0.6132556
1.134795,-0.1839191,0.5107955
1.137563,-0.3273977,0.3643624
1.137948,-0.4714612,0.3015453
1.102901,-0.5506705,0.2934374
0.9323052,-0.438643,0.2368932
0.7768923,-0.2885038,0.1762025
0.7771854,-0.2172947,0.1919254
0.8633278,-0.1503035,0.1755901
0.9455922,-0.09087455,0.1439838
1.009318,-0.1087911,0.1694139
0.9951905,-0.1954407,0.2057679
0.8909337,-0.2312149,0.2569024
0.8131258,-0.2210553,0.2679463
0.7875601,-0.213243,0.2338368
0.8211943,-0.1512494,0.22606
0.8881358,-0.09407099,0.2174232
0.9213343,-0.04024076,0.2071062
0.971684,0.03692511,0.1983029
0.9969328,0.06722742,0.1793022
0.9896823,0.1009881,0.1821596
0.9965887,0.1105473,0.2046094
0.9704398,0.0756734,0.2373682
0.9749465,0.06151558,0.2763447
0.9914195,0.02753613,0.3018921
0.993608,0.001904068,0.3159618
1.023469,-0.02208553,0.3369168
1.013344,-0.04575644,0.374786
1.012999,0.01684173,0.4008258
1.031272,0.09169729,0.3961512
1.029511,0.1199768,0.3846084
1.104751,0.1110697,0.3542015
1.243871,0.03084545,0.2913381
1.308342,-0.05439429,0.2081742
1.197291,-0.05527161,0.09291016
1.040054,-0.06624623,0.01184964
0.9972296,-0.1617156,0.07832391
1.019828,-0.1918155,0.194764
1.121486,-0.1724086,0.2556963
1.230777,-0.215248,0.3528679
1.162815,-0.1843669,0.3584752
0.9770497,-0.06125585,0.2218791
0.820858,0.02836136,0.2001626
0.7870063,0.009087191,0.2079391
0.828811,-0.0952251,0.2000708
0.7920475,-0.1363261,0.2706796
0.773651,-0.1427213,0.2734958
0.8189426,-0.1694823,0.2907252
0.7917689,-0.1881816,0.3409545
0.7873021,-0.2106358,0.3363103
0.7907051,-0.1614582,0.3557247
0.7336564,-0.09965037,0.3541025
0.7604,-0.07316598,0.3628782
0.8475499,-0.004123719,0.3713809
0.9455866,0.04255538,0.3631701
0.9929369,0.04051619,0.4006819
0.9863274,0.02041967,0.3948305
1.095433,0.02733508,0.4016634
1.154518,0.03116993,0.429768
1.073068,-0.01159635,0.4521083
1.053998,-0.009372331,0.5290792
1.078228,-0.07454214,0.5178825
1.129492,-0.2487911,0.4276719
1.194592,-0.3746429,0.3613338
1.193863,-0.4492668,0.3181646
1.15621,-0.4774138,0.3130674
1.033773,-0.4393292,0.2699513
0.8438362,-0.2973518,0.2066189
0.8294243,-0.1310398,0.1640368
0.9827421,-0.07079033,0.1187078
1.041275,-0.09314003,0.1245537
1.012196,-0.1761488,0.1800402
0.9385714,-0.2343232,0.2613721
0.8076638,-0.2537539,0.2988217
0.7769473,-0.2293219,0.2404518
0.820581,-0.145919,0.1939077
0.8493948,-0.1211238,0.1811571
0.9057793,-0.05918382,0.1712944
0.9583196,0.02344374,0.1778841
0.9844852,0.04367558,0.1755236
0.9908772,0.102616,0.1808286
0.9941166,0.1089092,0.197286
0.9888467,0.08705527,0.2200718
0.9733367,0.07524813,0.2625412
0.9769672,0.02625089,0.2733815
0.9815901,0.01720815,0.2657881
1.007579,-0.03049537,0.2971212
1.033456,-0.07920165,0.3222027
1.020796,-0.03834719,0.3170501
1.017195,0.007251612,0.3320139
1.01908,0.08477108,0.3569081
1.02975,0.1659978,0.3476963
1.107172,0.1515748,0.3154158
1.252739,0.07365036,0.2712989
1.323691,0.01283457,0.2192202
1.232808,0.005824461,0.1437002
1.13359,-0.01181092,0.03981907
1.092833,-0.139691,0.04760693
1.078355,-0.3029162,0.2193657
1.144286,-0.3222874,0.3658285
1.197524,-0.2415484,0.3767198
1.108431,-0.1751516,0.3013482
0.9712592,-0.09074606,0.2207756
0.8911531,-0.02964905,0.1680322
0.850978,-0.06115721,0.1570141
0.8166541,-0.1026946,0.207252
0.7766806,-0.107555,0.2440724
0.7618745,-0.1306416,0.2733402
0.7782745,-0.1417647,0.3124163
0.7829892,-0.1307372,0.2985888
0.786914,-0.1368904,0.3174592
0.7914113,-0.1081692,0.3646975
0.7751817,-0.05161185,0.390816
0.7708348,0.001718527,0.4245031
0.7954982,0.04888319,0.4089281
0.8628425,0.05022934,0.4033269
0.9644037,0.03446767,0.4204802
1.035553,0.005285298,0.4009088
1.081286,-0.02969823,0.4076909
1.113431,-0.00440897,0.4251155
1.109383,0.008060689,0.4555217
1.14757,-0.09164238,0.4868887
1.241429,-0.2522551,0.4369376
1.261275,-0.3843339,0.3602322
1.204111,-0.4679562,0.3209463
1.109915,-0.4878743,0.3056935
0.9351258,-0.4235804,0.2600555
0.8050504,-0.3075564,0.1848538
0.8592173,-0.1605864,0.1644754
0.9724679,-0.06265744,0.1502753
1.027028,-0.09712946,0.1205928
1.009576,-0.1561893,0.1734639
0.9124165,-0.1849978,0.2419049
0.8197889,-0.217135,0.250501
0.7882772,-0.1888883,0.2425916
0.8026771,-0.1472568,0.2197391
0.8487747,-0.1428943,0.1913752
0.8800513,-0.1088162,0.1685554
0.9174021,-0.07427798,0.1553919
0.963709,-0.04188249,0.1547888
0.9606978,-0.01390378,0.1574285
0.9368349,0.003204766,0.1899314
0.9301079,0.07887373,0.209492
0.9502673,0.1012793,0.2039349
0.9848266,0.05286508,0.2238317
1.027464,0.03944572,0.2301895
1.078172,-0.02871176,0.2446686
1.097213,-0.0698666,0.2815357
1.087874,-0.001120972,0.2921876
1.060462,0.07430287,0.2985536
1.039468,0.1837964,0.3040433
1.078251,0.2266457,0.3065258
1.184182,0.09629844,0.3025866
1.270001,-0.03559125,0.2708771
1.192534,-0.07092969,0.2026606
1.070239,-0.09429256,0.1111001
1.064065,-0.1980832,0.08616628
1.064454,-0.3113905,0.1681512
1.125799,-0.3226195,0.3148396
1.245355,-0.3054154,0.4402412
1.181576,-0.267478,0.423035
1.042561,-0.1352008,0.318953
0.9520133,-0.01131775,0.2377771
0.8399517,0.002637664,0.1784343
0.7916058,-0.04278046,0.1907751
0.7371583,-0.1009692,0.2403148
0.6677173,-0.1738426,0.2540664
0.7272458,-0.2191514,0.2924362
0.7762329,-0.228592,0.3221236
0.7801586,-0.239505,0.329372
0.7974273,-0.2063338,0.371466
0.7730761,-0.1340922,0.3990315
0.7725883,-0.06163626,0.4315108
0.8087673,0.03348394,0.4586271
0.8733459,0.09304933,0.4169089
0.974337,0.09514533,0.3813832
1.058335,0.06615148,0.387934
1.118565,0.005337144,0.4011127
1.115974,-0.0159877,0.4355764
1.073845,0.005887413,0.5136088
1.074723,0.0001782833,0.5536327
1.114313,-0.07882101,0.4974918
1.156101,-0.2220669,0.4375942
1.13897,-0.3441067,0.378736
1.111269,-0.4096765,0.3179871
1.104844,-0.4133375,0.3056884
0.9786137,-0.4047274,0.2549943
0.8379991,-0.385957,0.1891127
0.8951892,-0.1963634,0.1892245
0.9927996,0.01268247,0.1552511
0.9968844,-0.03389431,0.1181125
0.9854966,-0.1420718,0.1729937
0.9211483,-0.1790798,0.2435111
0.8392907,-0.2579926,0.2992197
0.8295355,-0.2482354,0.2874714
0.8086252,-0.1528181,0.2161816
0.8264,-0.121065,0.220113
0.9132505,-0.05045576,0.2104873
0.938813,0.001766542,0.187595
0.9704077,0.01486089,0.2240674
1.010509,0.09379665,0.2034162
0.9713005,0.1036224,0.2118357
0.9381942,0.1184999,0.2634901
0.8989325,0.1640564,0.2619119
0.8626589,0.1149908,0.2648787
0.9138686,0.09278669,0.2474056
0.9832632,0.04079598,0.2583122
1.050336,-0.05066689,0.3001786
1.0925,-0.07341465,0.3130949
1.065442,-0.07779449,0.3538686
1.055312,-0.003270123,0.3617908
1.048604,0.1091266,0.3528074
1.043553,0.1416544,0.3585219
1.133361,0.09935287,0.3198283
1.22274,0.02559591,0.2887643
1.201057,-0.003754582,0.2414169
1.120537,-0.01365758,0.1378613
1.054327,-0.07036808,0.05308032
1.040016,-0.2008769,0.1021563
1.101816,-0.3387697,0.2713303
1.217745,-0.3961437,0.4077883
1.258487,-0.3531041,0.4528068
1.128658,-0.1886602,0.3795065
0.9749779,-0.07344104,0.3044379
0.9512687,-0.05584366,0.2810759
0.9019146,0.0006834116,0.1829547
0.7984528,-0.02598296,0.1868692
0.7859051,-0.1157924,0.2748991
0.744237,-0.1231029,0.2728309
0.7336253,-0.1270671,0.3252297
0.8032769,-0.1630307,0.3514311
0.7808217,-0.1764934,0.3248481
0.7933073,-0.1554345,0.3687198
0.7970348,-0.1168069,0.3927992
0.7444633,-0.05133991,0.4207991
0.7883898,0.01776852,0.4396054
0.8263626,0.06526514,0.4162011
0.9129213,0.1030089,0.4213928
1.0336,0.08014984,0.4157711
1.082867,0.01326049,0.4261027
1.136221,-0.03970423,0.471634
1.109511,-0.0680837,0.5185913
1.098349,-0.0792754,0.562842
1.164614,-0.1405992,0.5343456
1.176377,-0.2314638,0.4405365
1.187039,-0.32912,0.3451035
1.152579,-0.4450304,0.3124631
1.031685,-0.4706373,0.3155642
0.8645125,-0.3934048,0.2343067
0.7806825,-0.2464212,0.168101
0.897225,-0.07128884,0.1670544
0.970902,-0.03076728,0.1531465
0.996726,-0.1069368,0.1831933
1.084986,-0.1503845,0.2165575
0.9810316,-0.1567493,0.2462883
0.8006013,-0.1780967,0.2975801
0.8017285,-0.1687,0.2556689
0.829505,-0.1093254,0.20159
0.8464027,-0.0837738,0.2228078
0.9230804,-0.04159795,0.2159053
0.9593666,0.0078791,0.1979683
0.9654447,0.008667775,0.2143943
0.9894559,0.07387039,0.2207766
0.9625526,0.1279381,0.2291918
0.9268087,0.126228,0.2458449
0.9205435,0.1370647,0.2428693
0.9132177,0.08628571,0.2483148
0.9433989,0.03157227,0.2588626
0.98217,-0.003399152,0.2676687
1.017176,-0.0680223,0.300188
1.070104,-0.1246597,0.330561
1.069269,-0.1362471,0.3435093
1.047165,-0.04665628,0.335503
1.071484,0.06388574,0.332584
1.102282,0.122593,0.3418959
1.182857,0.1077795,0.2953683
1.292453,0.0512951,0.1847019
1.262317,0.08207523,0.07043071
1.167114,0.03220862,0.04286763
1.117222,-0.130739,0.05644985
1.060755,-0.2184176,0.1119736
1.116272,-0.2744772,0.3724147
1.193763,-0.2490617,0.5396192
1.081456,-0.1418912,0.3627106
0.9734171,-0.01636582,0.2104027
0.9262733,0.05382065,0.2045061
0.8563919,-0.03364268,0.1933628
0.8289501,-0.09228233,0.2089708
0.7923051,-0.1311523,0.2554786
0.7580545,-0.2081849,0.2824813
0.762934,-0.1959285,0.2970624
0.7703699,-0.21159,0.3049072
0.7900414,-0.2145565,0.3029629
0.784868,-0.1553647,0.3406297
0.7669132,-0.1212035,0.3912543
0.7508099,-0.0608372,0.4030965
0.7497722,-0.03629554,0.4200054
0.8404552,-0.01886238,0.4306529
0.9499082,0.01012802,0.4274944
0.9866776,-0.01928338,0.4257505
1.016282,-0.008428072,0.4136742
1.062558,0.001040388,0.4133116
1.0482,-0.01009119,0.4458206
1.033045,0.006611366,0.5052868
1.118452,-0.04636987,0.5160592
1.210725,-0.1523161,0.4514374
1.254996,-0.2851276,0.3747436
1.238237,-0.4268696,0.3266192
1.135058,-0.473567,0.3318183
0.9680113,-0.4168619,0.309108
0.7522048,-0.3238711,0.2286258
0.7060153,-0.2442393,0.1929143
0.8908214,-0.127914,0.1637155
1.030116,-0.01209219,0.1076712
1.066328,-0.08382446,0.1167783
1.013506,-0.2292249,0.1964557
0.896266,-0.2346532,0.2685392
0.8245139,-0.2218486,0.2811584
0.7926442,-0.2131789,0.2539915
0.8351515,-0.1106393,0.2359274
0.8959909,-0.0407776,0.2193963
0.911059,0.009455629,0.1936525
0.959206,0.08683949,0.1934526
0.9748835,0.0956658,0.2049365
0.9663865,0.1043476,0.2073143
0.9765899,0.1088385,0.2292676
0.9493644,0.07967277,0.2448273
0.9462966,0.05943411,0.2407304
0.9580282,0.01153796,0.2468534
0.9818732,-0.009389127,0.2599537
1.042306,-0.0386502,0.2859242
1.048637,-0.09150238,0.303893
1.033947,-0.05280311,0.3020459
1.041604,0.01283838,0.3166803
1.046348,0.0768105,0.329096
1.096611,0.1182187,0.3095621
1.205903,0.06728404,0.282387
1.275519,0.03846892,0.2691511
1.223056,0.05625438,0.2386089
1.152016,0.004125259,0.1570841
1.12026,-0.1518043,0.1068136
1.069969,-0.3354916,0.2119241
1.071976,-0.3615924,0.3796157
1.093854,-0.2414595,0.4079584
1.04751,-0.147589,0.3383523
1.006903,-0.04521175,0.2920231
0.9661023,0.002635899,0.2614183
0.9036829,-0.07782438,0.2355701
0.8523466,-0.1034312,0.205608
0.8198209,-0.1062064,0.2155761
0.7887898,-0.1536465,0.2937023
0.7100573,-0.1637221,0.3433787
0.7050005,-0.1671265,0.3383124
0.7707226,-0.1438589,0.3335013
0.7601752,-0.1256994,0.3487689
0.7927245,-0.1301108,0.3629895
0.7960018,-0.07939038,0.3965013
0.7214505,-0.01909404,0.4763721
0.7551865,0.02570252,0.4876527
0.80303,0.03239626,0.4360033
0.8878871,0.03150521,0.4344331
1.016228,0.0367593,0.4365981
1.066141,-0.03730422,0.4421645
1.136369,-0.07011151,0.4646823
1.116832,-0.03448914,0.493357
1.049287,-0.03929947,0.5461439
1.13626,-0.07801715,0.5351035
1.191009,-0.196346,0.4505571
1.187765,-0.3472999,0.3760728
1.186554,-0.4325534,0.3403211
1.074856,-0.4336924,0.2979929
0.9009885,-0.3453799,0.1939287
0.8101063,-0.2042699,0.14788
0.9011699,-0.0747619,0.1678883
1.020757,-0.06419864,0.1458078
1.009626,-0.1457903,0.1759923
0.9773542,-0.2007951,0.239646
0.9138987,-0.2142711,0.249125
0.8403606,-0.1891865,0.2339268
0.8485407,-0.1622514,0.1955164
0.8598745,-0.1192862,0.1799518
0.8907563,-0.05117685,0.1788402
0.9521883,-0.01608086,0.1664744
0.9936787,0.02604707,0.1753804
1.011559,0.06858311,0.1742728
0.9817989,0.08384875,0.1819333
0.9555205,0.09440726,0.2057216
0.9360681,0.08163062,0.2227772
0.9218808,0.06656874,0.2419913
0.9579264,0.04272893,0.2353726
0.9958803,0.01316931,0.2414591
1.036593,0.002823708,0.2709971
1.057012,-0.04364787,0.2817501
1.044407,-0.07135746,0.3034737
1.064018,0.01250328,0.3246662
1.078108,0.1308237,0.3210237
1.091216,0.1792895,0.3059385
1.134962,0.1464572,0.2882583
1.201705,0.06501438,0.2661348
1.271192,-0.0131096,0.2076321
1.222722,-0.008222504,0.1219723
1.118671,-0.009231966,0.08267432
1.068429,-0.1990713,0.1543602
0.9731164,-0.4207514,0.2926918
0.9536288,-0.434988,0.3573898
1.038105,-0.318721,0.325505
1.009183,-0.1509035,0.3051791
0.9920911,0.03241705,0.3105546
0.9944132,0.06319031,0.2637001
0.8997136,0.02489533,0.1992333
0.8764597,0.04451536,0.2003915
0.8622507,-0.06537676,0.2335387
0.810492,-0.1607331,0.260482
0.8103235,-0.1275456,0.2853463
0.7880685,-0.1929321,0.3122086
0.7842037,-0.2014397,0.3499896
0.789288,-0.1507098,0.3623787
0.7775738,-0.1530812,0.3500942
0.78444,-0.07971609,0.3600676
0.7666024,-0.03473605,0.380656
0.7800317,0.008934115,0.391119
0.8300371,0.03363855,0.3769773
0.9138786,-0.02303247,0.3547028
1.022411,-0.009369051,0.368284
1.07485,-0.02016956,0.3843354
1.130529,-0.03350782,0.3888644
1.14207,-0.01143031,0.4344449
1.108818,-0.05425058,0.5009063
1.160594,-0.08988441,0.5207404
1.178608,-0.1695213,0.4677589
1.138251,-0.2742595,0.4004444
1.118884,-0.3478516,0.3769075
1.059698,-0.4113684,0.3357075
0.964861,-0.3742111,0.2588384
0.8723196,-0.2765674,0.1959403
0.8844507,-0.1616566,0.1358656
0.9921014,-0.09961959,0.1044681
1.016077,-0.1767257,0.1375859
0.9901405,-0.2213093,0.2075781
0.9427003,-0.1981181,0.2761832
0.8753129,-0.1979694,0.2923286
0.8870447,-0.1611591,0.2550714
0.9000628,-0.1107937,0.2330729
0.8895577,-0.09545069,0.2324767
0.9034948,-0.07962054,0.2165904
0.9145295,-0.04898636,0.2038106
0.9427143,-0.01419837,0.19686
0.952376,-0.006884291,0.1968179
0.943478,0.00367934,0.2283044
0.9525331,0.06778189,0.2554159
0.9454811,0.1067714,0.2591156
0.9229205,0.09905915,0.2531266
0.8997383,0.1171146,0.2391071
0.9037676,0.1171322,0.233382
0.9430398,0.05889019,0.232656
1.00301,-0.02955857,0.2372024
1.06586,-0.1169514,0.2463198
1.079258,-0.1330315,0.2647427
1.076025,-0.1053058,0.2984437
1.081139,-0.0622264,0.3177877
1.065135,0.05409853,0.3322397
1.103987,0.1103281,0.3308053
1.203909,0.05302827,0.3050986
1.265368,0.04637485,0.2908659
1.260044,0.05496362,0.2308028
1.197375,0.02256754,0.1197273
1.115737,-0.03586956,0.06811864
1.035055,-0.1789698,0.1213684
0.9836057,-0.3116899,0.240586
1.005069,-0.3273512,0.3598296
1.013211,-0.2619144,0.4018833
0.9824363,-0.1548994,0.3232293
0.9816796,-0.08178277,0.2465434
0.9839338,-0.07645469,0.2485612
0.977315,-0.09633912,0.2354687
0.9498545,-0.1181468,0.2481856
0.8790583,-0.1348581,0.2921087
0.8107109,-0.1559703,0.2929016
0.7711822,-0.1728641,0.3061827
0.7637824,-0.1771847,0.3275655
0.7849934,-0.1772805,0.3383571
0.8021053,-0.1621954,0.3433932
0.7934493,-0.1348301,0.341325
0.7808497,-0.1000048,0.3697885
0.7824396,-0.07928193,0.3808329
0.7955385,-0.0743755,0.3748504
0.8458132,-0.0512094,0.3933477
0.9006678,-0.04950151,0.3960182
0.9233804,-0.05976,0.3944315
0.9974825,-0.03018948,0.3985745
1.088679,-0.000520928,0.4009496
1.069102,0.04788707,0.4230735
1.010045,0.1217717,0.4610571
1.008783,0.1345931,0.4888094
1.0729,0.07285588,0.4852203
1.184841,-0.04595913,0.4653805
1.230648,-0.2155332,0.4099522
1.241559,-0.3885009,0.3183752
1.273887,-0.5045694,0.2874856
1.091924,-0.5181398,0.3070801
0.7752487,-0.4338494,0.2843587
0.7149683,-0.2886152,0.2324162
0.8576004,-0.1379601,0.1692485
0.9817841,-0.08401546,0.09498511
1.055117,-0.1356299,0.09255459
1.02745,-0.183527,0.1877533
0.930857,-0.2277416,0.2842218
0.8874464,-0.2643589,0.307946
0.8910907,-0.2086163,0.2609462
0.9106603,-0.135871,0.2274037
0.9306258,-0.09530261,0.2315292
0.9240534,-0.05691354,0.212559
0.9327281,-0.05738612,0.2104357
0.9497948,-0.02536758,0.225439
0.9679893,0.04625048,0.2176321
0.9909393,0.08484251,0.2356343
0.9740201,0.1060954,0.2521002
0.960947,0.08763283,0.2456291
0.9429084,0.08248949,0.2563731
0.9155682,0.09486127,0.2594115
0.9499128,0.05163943,0.2453785
0.9940274,0.009243056,0.2393846
1.021835,-0.04416364,0.2555966
1.036558,-0.09404676,0.2804947
1.026461,-0.08381983,0.2867286
1.033865,-0.04692192,0.2920482
1.04267,0.02108194,0.3083344
1.044658,0.05869072,0.3165498
1.068498,0.04561843,0.3096918
1.123663,0.03944107,0.300148
1.187866,0.02602411,0.2960568
1.188567,0.03814429,0.2643003
1.155407,0.04405078,0.1837756
1.150744,-0.04010878,0.09826274
1.113656,-0.1903641,0.07897901
1.051793,-0.3271838,0.1580964
1.029163,-0.3552327,0.2933008
1.022979,-0.2920295,0.3951045
1.013632,-0.1955764,0.3786507
0.9888046,-0.07739205,0.3004763
0.9637094,-0.04113507,0.2686254
0.9701391,-0.1001962,0.2488351
0.9555224,-0.1214671,0.2569427
0.8898377,-0.1108574,0.2986476
0.8104494,-0.1175337,0.3027431
0.7608223,-0.108972,0.323658
0.7624678,-0.1112149,0.3399003
0.7805937,-0.1275382,0.3320445
0.7900535,-0.1248194,0.369974
0.7922192,-0.114535,0.3978975
0.7903609,-0.07850917,0.4054777
0.799856,-0.03697798,0.3984404
0.8294734,-0.02084325,0.3738396
0.8800235,-0.0013834,0.3702823
0.9427524,0.01036278,0.3609937
1.028439,-0.01540185,0.3702746
1.120084,-0.05067013,0.3893193
1.127025,-0.02331146,0.4021888
1.074122,0.0291644,0.4473755
1.07214,0.03587871,0.4840595
1.086748,0.04168111,0.50672
1.080711,0.004547912,0.4837576
1.079873,-0.1200145,0.3972035
1.068226,-0.267276,0.3331483
1.069344,-0.4111391,0.3139105
1.060502,-0.5020908,0.3169371
0.9777225,-0.4580248,0.2825519
0.8723631,-0.2797485,0.2136732
0.8443081,-0.1023256,0.1675002
0.9358273,-0.04221889,0.1333624
1.04094,-0.07686037,0.1486274
1.049512,-0.1246895,0.2055755
0.9828785,-0.1552934,0.2679507
0.9107619,-0.2054767,0.3010029
0.9003328,-0.1968378,0.2527281
0.8873814,-0.1581091,0.2314787
0.863815,-0.1768296,0.2491283
0.8989667,-0.1020002,0.2323553
0.9046453,-0.006142301,0.2339889
0.916916,0.004424375,0.2287224
0.9610874,0.02808844,0.2205378
0.9562802,0.05721135,0.2326771
0.9783015,0.1033433,0.2302904
0.9754303,0.1088561,0.239364
0.9348208,0.08771895,0.248513
0.9639427,0.1046774,0.2507822
0.9767458,0.06141248,0.2522535
0.9848423,0.01680946,0.2506126
1.012813,-0.01852054,0.2736887
0.9918893,-0.08148686,0.2916082
0.992798,-0.0785914,0.2882975
1.028626,-0.0400499,0.2795071
1.072827,0.02105947,0.2672165
1.128738,0.07779489,0.2579926
1.166023,0.07402281,0.2522687
1.207703,0.07205261,0.2614327
1.224906,0.07902649,0.2544301
1.194438,0.07156952,0.1986705
1.164467,0.008985085,0.1316829
1.088222,-0.1624103,0.1345811
0.9972821,-0.3283233,0.2585392
1.017777,-0.3246559,0.4074502
1.052,-0.19833,0.4420424
1.010577,-0.09007639,0.3539373
0.9978754,-0.007357412,0.2675967
0.9792559,0.03113876,0.2453502
0.9274804,0.01427,0.2259748
0.9154746,-0.008375468,0.2410218
0.8667461,-0.07199218,0.2773158
0.8050141,-0.1242376,0.2685375
0.7916715,-0.1360583,0.2932548
0.7609325,-0.1800887,0.3300229
0.7637485,-0.205576,0.3287448
0.7998301,-0.2070475,0.3513678
0.8100554,-0.1866234,0.3730058
0.8098461,-0.12758,0.3754706
0.7871032,-0.09143591,0.3823359
0.7829771,-0.05569989,0.3844738
0.8273402,-0.02030323,0.3933245
0.8970024,-0.01233109,0.4002145
0.9649824,-0.01284755,0.3960733
1.038211,-0.03445781,0.3950716
1.148276,-0.05004613,0.3907295
1.164926,-0.04487356,0.4056207
1.108146,-0.0358582,0.4750794
1.150313,-0.02847494,0.5454499
1.161814,-0.04041916,0.5275311
1.117928,-0.07455483,0.4536703
1.115335,-0.1343226,0.4028568
1.081311,-0.2227065,0.3587873
1.075212,-0.3533767,0.3306707
1.041549,-0.4512124,0.3225065
0.8786867,-0.4017992,0.2695858
0.7956191,-0.2898561,0.2024579
0.8734801,-0.1726191,0.1508883
0.9885185,-0.07925254,0.1053561
1.045768,-0.1214172,0.1132435
1.019622,-0.1663816,0.1721367
0.959766,-0.1619863,0.2444496
0.903507,-0.2202552,0.2788564
0.8958325,-0.2217509,0.2565985
0.9205465,-0.1757568,0.2401989
0.9244769,-0.1446883,0.2212742
0.9237663,-0.06848863,0.1871088
0.9328167,-0.02791753,0.1867576
0.9519803,-0.01756397,0.1978137
0.9673829,-0.002180764,0.203661
0.9790401,0.005798764,0.2280691
0.9772644,0.04457762,0.2438706
0.9530162,0.07341252,0.2405668
0.9418362,0.09155071,0.2399943
0.9469126,0.07591858,0.2371044
0.9829033,0.02234867,0.2334575
1.033638,-0.00805199,0.244572
1.047168,-0.06770192,0.2654447
1.050957,-0.09128847,0.2744195
1.052246,-0.03257081,0.2717701
1.044118,0.00855993,0.2726027
1.057596,0.06908737,0.2763907
1.104582,0.1365708,0.2869681
1.181142,0.1109719,0.297179
1.226983,0.06337124,0.2935773
1.196605,0.08891221,0.2861093
1.155669,0.08860432,0.2534482
1.127731,0.01984645,0.1606142
1.087061,-0.07802287,0.07679442
1.059124,-0.2679062,0.1103602
1.043999,-0.4028983,0.2460394
1.074332,-0.369088,0.3919603
1.120181,-0.2877602,0.4341255
1.047712,-0.1426724,0.3413831
0.9603163,-0.03610854,0.2713353
0.9642987,-0.05505939,0.2588924
0.9505649,-0.0741268,0.2268233
0.9152413,-0.1074342,0.2401549
0.8740309,-0.1342844,0.2726422
0.8123826,-0.1283416,0.2832666
0.7709197,-0.1446078,0.3213203
0.7470682,-0.1470805,0.346843
0.7550758,-0.1423683,0.3557352
0.7795275,-0.136512,0.3557279
0.7674435,-0.1117493,0.3544232
0.7568686,-0.08007542,0.3905243
0.7744171,-0.04324313,0.4178243
0.8216779,-0.0394385,0.4287323
0.9014461,-0.04899963,0.4393151
0.9507425,-0.03110752,0.4398746
1.012538,-0.01825849,0.4392265
1.110574,-0.009335736,0.432318
1.091927,0.03015953,0.4493628
1.028369,0.09346614,0.4859318
1.044795,0.1038338,0.512993
1.073657,0.01790499,0.5183649
1.128616,-0.1207628,0.4799027
1.163103,-0.2939009,0.4139543
1.189025,-0.4458659,0.3346177
1.228852,-0.4858333,0.3056901
1.049572,-0.4439046,0.3139168
0.7783905,-0.3692311,0.2547914
0.7556966,-0.2280521,0.2096477
0.9061214,-0.07888608,0.1988538
1.045842,-0.06363133,0.15589
1.079147,-0.1316159,0.1599824
1.008463,-0.1732108,0.2223292
0.9070986,-0.2216304,0.2782729
0.8216801,-0.2493509,0.2845177
0.8175681,-0.230308,0.256742
0.8616703,-0.1996614,0.2428251
0.8854987,-0.1338728,0.2103646
0.9310354,-0.0734192,0.1961984
0.9824258,-0.04109892,0.2204771
0.9878195,0.007062018,0.2157688
0.9866436,0.0490648,0.2234894
0.9840967,0.0836473,0.2362459
0.9634878,0.110092,0.2238781
0.9433951,0.1098413,0.2401005
0.9157647,0.1170656,0.2510321
0.9226437,0.1140166,0.2434555
0.9673007,0.06183879,0.2479447
0.9896649,0.01536335,0.2483943
1.029168,-0.002731992,0.2558973
1.083231,-0.04641515,0.2698766
1.094082,-0.08022237,0.2946317
1.078088,-0.03949337,0.3358677
1.061591,0.00827306,0.3559956
1.060407,0.009830629,0.3603128
1.113999,-0.002675158,0.3706576
1.216845,-0.02670247,0.3593053
1.243791,-0.03580191,0.2812288
1.179254,-0.02163877,0.1325219
1.128584,-0.04235447,0.0183159
1.072775,-0.1176745,0.04453175
1.042712,-0.2243307,0.1519259
1.085716,-0.2746094,0.2984542
1.09629,-0.2488466,0.4283472
1.019654,-0.192776,0.3419107
0.9323558,-0.079432,0.2065642
0.9230821,-0.03097031,0.2474495
0.933626,-0.08936389,0.23652
0.8859331,-0.1143876,0.2064488
0.8444061,-0.1510664,0.2607031
0.811205,-0.1653814,0.2660967
0.7716685,-0.1290277,0.3051747
0.7753406,-0.1543611,0.3325994
0.7855302,-0.1532018,0.30439
0.7795559,-0.1236628,0.3398913
0.78459,-0.1180327,0.3712059
0.7795205,-0.06726972,0.4009021
0.7727827,-0.01971481,0.4261104
0.7998925,0.03002287,0.4163022
0.8553426,0.05629803,0.4295224
0.9295486,0.008715318,0.4267081
1.001153,0.002746568,0.4296221
1.048505,0.01780639,0.4356522
1.08429,0.01419683,0.42288
1.086365,0.03137183,0.4625122
1.080887,0.02144666,0.5102816
1.160901,-0.01902801,0.5187343
1.239152,-0.1179606,0.4669422
1.221012,-0.2854647,0.3816614
1.187185,-0.4296257,0.3647916
1.093062,-0.499244,0.3635181
0.9005977,-0.4653669,0.3117261
0.7933831,-0.3470084,0.2377086
0.8531742,-0.1870986,0.1542425
0.9765942,-0.06914677,0.08727527
1.063858,-0.1026656,0.07133071
1.047157,-0.1858338,0.1337998
0.9411518,-0.2255081,0.2316702
0.8542473,-0.2521571,0.2742997
0.8377564,-0.2239679,0.2516552
0.8719712,-0.1800879,0.222493
0.9149837,-0.1316289,0.2167717
0.9200395,-0.07178373,0.2133294
0.9221308,-0.06992657,0.2083277
0.9349607,-0.03652724,0.2004213
0.9427484,0.003826713,0.1960057
0.9707718,0.009312197,0.2046157
0.9775066,0.08020193,0.1969728
0.9572544,0.09673296,0.198125
0.9477063,0.07204586,0.2170937
0.9515502,0.08575935,0.2196628
0.9874789,0.03689916,0.2257483
1.032431,-0.00963008,0.2446398
1.055231,-0.04373574,0.2910834
1.051703,-0.06388621,0.326816
1.047699,0.007905985,0.3060858
1.060616,0.09211331,0.3047877
1.075318,0.1343844,0.3226511
1.136311,0.07815214,0.3190814
1.214145,-0.02862575,0.3186014
1.220234,-0.04078879,0.2911754
1.186002,-0.01352634,0.2117065
1.165873,-0.01049649,0.1247792
1.140423,-0.09385183,0.1115578
1.056255,-0.2768396,0.1843976
0.9814454,-0.3995632,0.2866669
1.008353,-0.393976,0.379903
1.027054,-0.2904704,0.3810434
0.9857835,-0.1497176,0.3137306
0.9769846,-0.04744249,0.285848
0.9685961,-0.0246803,0.2536098
0.937132,-0.06880529,0.2352714
0.9311254,-0.09473014,0.2684508
0.8904935,-0.1063738,0.2866955
0.8147242,-0.12094,0.3146079
0.7944514,-0.1128316,0.3274273
0.8138962,-0.1287133,0.3021936
0.8280461,-0.1485829,0.3082364
0.834501,-0.1453618,0.3262899
0.8258733,-0.1379327,0.3577989
0.7934507,-0.106754,0.3877665
0.7676834,-0.06052775,0.3769581
0.7753399,-0.02112032,0.3773277
0.8086428,-0.009135607,0.3832234
0.8616823,-0.01686509,0.3802063
0.9042769,-0.02900786,0.3894456
0.97666,-0.05691552,0.3947537
1.087189,-0.06417592,0.4046012
1.101795,-0.02520857,0.43607
1.076548,0.05074362,0.4860557
1.11018,0.114062,0.5194139
1.113601,0.08299742,0.4973907
1.123683,-0.01372975,0.4598609
1.163773,-0.1192362,0.4408074
1.146554,-0.2433024,0.3934343
1.137141,-0.3755092,0.3311664
1.120773,-0.4623119,0.3188125
0.957471,-0.433463,0.3108826
0.727866,-0.3195807,0.2514664
0.6958553,-0.2028153,0.1764056
0.9303128,-0.09553759,0.119462
1.10582,-0.05109214,0.08880583
1.055034,-0.09469508,0.103903
1.029763,-0.1700891,0.1681258
1.020852,-0.2275925,0.2413056
0.89589,-0.2386505,0.2777194
0.8669157,-0.2400519,0.2562987
0.9266095,-0.2090336,0.2264333
0.8935665,-0.1225983,0.2169208
0.8888,-0.06982624,0.1794884
0.9131544,-0.0615052,0.1681605
0.9171527,-0.06202281,0.195194
0.9915673,-0.04274223,0.1897339
1.033457,0.004884263,0.191763
1.026854,0.03971318,0.1965095
1.024627,0.06905833,0.2005492
0.9809693,0.08361125,0.2282015
0.9688585,0.04693486,0.2384375
0.9784656,-0.001498212,0.2517527
0.985697,-0.01929139,0.2621711
1.021178,-0.05516635,0.2591941
1.033665,-0.09867317,0.2717704
1.03336,-0.07182035,0.2719076
1.034001,-0.01677137,0.2734264
1.037819,0.07167803,0.2824526
1.04645,0.1747531,0.2749411
1.070178,0.1649635,0.271659
1.147267,0.106327,0.2733026
1.19297,0.05511382,0.2696532
1.172455,0.00187243,0.2621147
1.160375,-0.02251622,0.2416036
1.131872,-0.1321011,0.1745793
1.043711,-0.3136563,0.116875
0.9468867,-0.3887601,0.208029
0.9174202,-0.3532847,0.3307952
0.94639,-0.2643833,0.3243645
0.9690642,-0.1339099,0.3432019
0.9562813,-0.06516954,0.3754758
0.9530079,-0.08381356,0.2966823
0.9804202,-0.04593792,0.2496669
0.9827542,-0.03070501,0.2371317
0.9647045,-0.1094276,0.2375094
0.9163408,-0.1392261,0.293726
0.8378852,-0.1740364,0.2907677
0.8105848,-0.1981825,0.3107529
0.8170803,-0.1639796,0.3596083
0.8251769,-0.1693585,0.3371161
0.832808,-0.1383713,0.3627856
0.8168927,-0.09150029,0.3751959
0.7952298,-0.0726687,0.3571604
0.7801987,-0.02528734,0.3804239
0.7856406,-0.01260196,0.3658311
0.8191567,-0.009800823,0.3649757
0.881835,-0.01896684,0.3714328
0.9791436,-0.06480722,0.3590799
1.078466,-0.0853938,0.3758238
1.12534,-0.09536725,0.3857996
1.0966,-0.07225882,0.4197018
1.080475,-0.02973846,0.4598233
1.116796,0.01490889,0.4911217
1.152719,0.07252797,0.5431264
1.196638,0.006741172,0.5202852
1.182204,-0.1639357,0.4491742
1.131957,-0.3169958,0.4090344
1.134352,-0.4691349,0.3613917
1.005912,-0.5190328,0.3341629
0.7820974,-0.4263167,0.3047551
0.7574392,-0.3328608,0.2092636
0.8732081,-0.2071792,0.1255284
0.9702658,-0.07540701,0.09390672
1.024883,-0.1056358,0.1117614
0.9918149,-0.1828582,0.190666
0.9170101,-0.1971848,0.2715427
0.8834901,-0.2240388,0.3121027
0.8791917,-0.2009364,0.2800367
0.8925359,-0.1431635,0.2380613
0.9020535,-0.1210988,0.2507264
0.8946222,-0.05812412,0.2280476
0.9098825,-0.009596913,0.2177745
0.9302785,-0.01310843,0.2423583
0.951695,0.01412024,0.2324107
0.9764172,0.04684796,0.2408479
0.964338,0.07579116,0.2357033
0.9544848,0.09013811,0.2238092
0.9493627,0.07316269,0.2399396
0.9465114,0.05345965,0.2337795
0.9808298,0.003118953,0.2349079
1.022233,-0.04817099,0.2345907
1.077904,-0.06755817,0.2363113
1.106094,-0.08362568,0.2660485
1.087639,-0.07811762,0.2909562
1.094911,-0.03166633,0.3168734
1.093409,0.04228712,0.325802
1.082497,0.07720514,0.3124516
1.100403,0.04753336,0.293771
1.146246,-0.01096826,0.2525604
1.205374,-0.07785045,0.1815113
1.190138,-0.08943783,0.1104374
1.136979,-0.1259782,0.05727218
1.100942,-0.308977,-0.01947121
1.043112,-0.4381607,0.001162627
1.050509,-0.4151182,0.2046287
1.080644,-0.4240659,0.3784411
1.029203,-0.3807676,0.3964857
0.9761981,-0.1544204,0.2805725
0.9198829,0.01448796,0.1770313
0.9137356,-0.006227955,0.201745
0.9684528,-0.06498208,0.2220211
0.9409175,-0.1052031,0.2311798
0.9220508,-0.1610322,0.252793
0.8990141,-0.222103,0.2490203
0.8031889,-0.2568979,0.2704355
0.787036,-0.2645741,0.2784382
0.79374,-0.2675755,0.3113257
0.7795938,-0.2371554,0.3734513
0.7877646,-0.1602091,0.3710722
0.7765696,-0.08764773,0.3615644
0.7909622,-0.05201572,0.3528161
0.8105651,-0.03849264,0.3377071
0.8616038,-0.02996592,0.3537548
0.9520403,-0.04260343,0.3668294
0.9868333,-0.06988205,0.3612278
1.038474,-0.08092165,0.359305
1.074982,-0.0453646,0.389831
1.023309,0.03297806,0.4386176
1.015159,0.05936663,0.4742234
1.109228,0.005364426,0.4741751
1.249295,-0.08257305,0.4381685
1.324547,-0.2216596,0.3935353
1.282848,-0.3807926,0.3456094
1.208513,-0.4839351,0.3399417
1.034502,-0.5023483,0.3317611
0.7445241,-0.4303177,0.2502936
0.6892111,-0.2882592,0.1843277
0.9068642,-0.1411049,0.124638
1.055973,-0.1037137,0.07198117
1.091661,-0.1979321,0.108648
1.008623,-0.2870352,0.1858866
0.8610643,-0.3018209,0.2763275
0.8522102,-0.2848316,0.3084446
0.887308,-0.2390387,0.2418484
0.9082584,-0.1634242,0.2104042
0.9457449,-0.1085764,0.2067646
0.9322084,-0.07954087,0.1840717
0.9363934,-0.03248416,0.1791739
0.9527108,-0.0160765,0.1797357
0.9535762,-0.04665352,0.2016558
0.9791286,-0.02406514,0.2222527
0.9811419,0.006167475,0.225636
0.971036,0.01193097,0.2490139
0.967198,0.05675963,0.2590044
0.9598932,0.05374416,0.2605178
0.9635337,0.02102644,0.2725131
0.9686761,0.0190762,0.2712724
0.9781948,-0.01116907,0.2673651
0.9956836,-0.04224757,0.2682258
1.021391,-0.1001038,0.2981554
1.030255,-0.1447821,0.353221
1.012094,-0.06261279,0.3796675
1.010625,0.04187891,0.3771051
1.047222,0.0678397,0.36006
1.128789,0.02774931,0.3388825
1.203629,-0.01054044,0.323249
1.199179,-0.002466114,0.2634355
1.167586,-0.02226502,0.1379974
1.157359,-0.08572661,0.03087317
1.118033,-0.1838119,0.01652339
1.064008,-0.2997454,0.12144
1.05062,-0.3241502,0.3047288
1.039423,-0.2679127,0.3934976
1.000426,-0.1884549,0.3338218
0.9573228,-0.07781709,0.2811292
0.9317044,-0.0394966,0.2609836
0.9543623,-0.09858055,0.2227988
0.9809389,-0.1376818,0.2283091
0.9316587,-0.1654588,0.2649691
0.8558018,-0.1909939,0.286739
0.8093879,-0.1800133,0.3099942
0.772574,-0.1845507,0.308395
0.7678343,-0.1906034,0.3114132
0.7861797,-0.1649684,0.3426302
0.790442,-0.1302911,0.3512554
0.7985795,-0.07029928,0.3583617
0.7977018,-0.01569507,0.3598386
0.7990244,0.005718815,0.3626021
0.833658,0.02040835,0.3985342
0.8721405,0.01590526,0.410624
0.9290299,-0.004173076,0.4003924
1.02616,-0.02523058,0.3892348
1.08197,-0.0267049,0.3799419
1.056801,0.01537907,0.4038306
1.056995,0.05245146,0.4389061
1.101611,0.03196129,0.4559461
1.161839,-0.06560909,0.4418722
1.268101,-0.2103296,0.4144757
1.261943,-0.2909141,0.3997247
1.122528,-0.3161156,0.3933549
1.030879,-0.4212505,0.3920709
0.9503116,-0.4974402,0.3664099
0.8670558,-0.405914,0.3138826
0.8113522,-0.311143,0.2282802
0.8934319,-0.2116743,0.1090718
1.114494,-0.08484012,0.04506238
1.108049,-0.1341545,0.07973248
0.9772147,-0.2136503,0.1701329
0.9342937,-0.2079461,0.2453784
0.8454261,-0.251465,0.2737523
0.8623035,-0.2300936,0.2605891
0.9154647,-0.1624128,0.2302975
0.8998575,-0.1270897,0.2287352
0.9392997,-0.05215244,0.2059203
0.9230051,-0.02315309,0.190035
0.9350107,-0.01324584,0.2250616
0.9877214,0.02522797,0.2201047
0.9695374,0.04608772,0.2221464
0.9783296,0.09853449,0.2327529
0.9602376,0.1138167,0.2185469
0.9391802,0.08637665,0.2375701
0.9560944,0.0707926,0.2344464
0.9595955,0.01400196,0.2329223
0.9952607,-0.02312814,0.252498
1.018789,-0.04298462,0.2532528
1.036795,-0.08580524,0.27282
1.053142,-0.07994914,0.281592
1.039888,-0.03046561,0.2968141
1.051957,0.0224547,0.3207921
1.067737,0.04332395,0.3057086
1.119722,0.02757763,0.3019206
1.199279,0.01313275,0.2993577
1.205049,-0.001022858,0.2763984
1.182743,-0.001530019,0.2450953
1.17271,-0.005535026,0.1600599
1.142972,-0.08611075,0.04508897
1.090502,-0.2377564,0.03656511
1.023762,-0.3666256,0.1884463
0.9935273,-0.3890316,0.358805
1.046475,-0.3227649,0.4300494
1.080674,-0.2446156,0.4063335
1.010576,-0.1211014,0.3076676
0.9568517,0.02654549,0.2160222
0.9657376,0.0006681256,0.2252621
0.9487596,-0.1012644,0.2880683
0.899061,-0.08804351,0.297586
0.842384,-0.1404638,0.2862722
0.7905428,-0.2203315,0.2919552
0.7655002,-0.1939378,0.27946
0.7768343,-0.2149094,0.2924695
0.788581,-0.2305319,0.3283345
0.7833526,-0.2248241,0.358323
0.7877942,-0.232727,0.3726048
0.7901394,-0.1362709,0.357763
0.8006639,-0.05550034,0.3753761
0.8266143,-0.04397236,0.3784399
0.8611334,-0.01278793,0.3503559
0.9515755,0.02822827,0.3540309
1.037713,0.02732961,0.3423423
1.053926,-0.04435294,0.3533272
1.074286,-0.05652623,0.3881096
1.047235,-0.009107742,0.4280626
0.9650349,0.04671966,0.5171709
1.003903,0.1026529,0.5365334
1.086112,0.03754864,0.4793835
1.129771,-0.07059307,0.4351728
1.211667,-0.1866467,0.3733866
1.185616,-0.3290772,0.3526229
1.078591,-0.4081537,0.3769189
0.9961266,-0.4396903,0.3546396
0.8320029,-0.3678689,0.3094984
0.7595096,-0.2511685,0.2374072
0.8865999,-0.174717,0.1284312
1.031495,-0.1172157,0.06451424
1.093497,-0.1763869,0.06681349
1.029174,-0.2564764,0.1370786
0.9431281,-0.283079,0.2459204
0.9176681,-0.2981,0.2801537
0.9147274,-0.240297,0.245612
0.9479855,-0.1794596,0.2228378
0.9627536,-0.1133009,0.2034637
0.9375744,-0.05887661,0.1741275
0.9267522,-0.09348199,0.1754675
0.9424432,-0.09930591,0.1948179
0.9745755,-0.09392935,0.1896392
0.9918417,-0.09766,0.2050069
0.9953709,-0.04818821,0.229569
0.9851772,-0.01274466,0.2343698
0.9667871,0.01519632,0.2596135
0.9655496,0.02442158,0.2676186
0.9583339,0.002257388,0.2610256
0.9564708,0.002166881,0.2668116
0.9781002,-0.01805906,0.2618464
0.999392,-0.05794154,0.2704099
1.016713,-0.08425031,0.2886477
1.02597,-0.08898574,0.3190561
1.029906,-0.0444772,0.3470363
1.025579,0.02014863,0.3341434
1.026634,0.0474662,0.3269217
1.079948,0.005681681,0.329974
1.15038,-0.06296029,0.3218361
1.169119,-0.09190932,0.2966735
1.166409,-0.07458939,0.2084053
1.175829,-0.0534508,0.09913603
1.131839,-0.08260236,0.06285997
1.044357,-0.1350742,0.101128
0.9788579,-0.2389602,0.208011
0.889836,-0.3792993,0.349159
0.8641284,-0.3295719,0.3659632
0.9528344,-0.14589,0.2874663
0.9765054,-0.04841308,0.2811667
0.9771197,-0.02094533,0.2685822
1.014707,-0.06057697,0.2543177
1.011706,-0.09658563,0.3007231
1.010108,-0.09858822,0.2998092
0.9539425,-0.133179,0.3069583
0.8562424,-0.1210074,0.3306647
0.8165267,-0.1180443,0.3084741
0.7960279,-0.1308031,0.3149096
0.8121253,-0.09703216,0.3281274
0.8423961,-0.1137733,0.3521478
0.8593928,-0.1025427,0.384475
0.8698963,-0.06676176,0.3789217
0.8502829,-0.06600901,0.3901898
0.8618203,-0.03039406,0.4023767
0.8798447,-0.01645514,0.4042361
0.8892247,0.003561669,0.4011629
0.9192862,0.0131845,0.373793
0.937247,-0.03746178,0.3654445
0.9971905,-0.06707692,0.372108
1.037352,-0.08399878,0.3909051
0.9962421,-0.0533509,0.4299078
0.9929558,-0.00254346,0.4539613
1.039293,-0.001795496,0.4433194
1.102623,-0.01006035,0.4011441
1.148093,-0.05911405,0.3603255
1.126871,-0.1243549,0.340732
1.101969,-0.1731022,0.3465572
1.073923,-0.2280468,0.3425308
0.967351,-0.2547647,0.3081536
0.8522386,-0.2553788,0.2877662
0.8425461,-0.2326655,0.2341231
0.9130204,-0.187195,0.1382569
0.9870265,-0.1354454,0.07595558
1.049305,-0.09365326,0.02759808
1.09246,-0.07868959,-0.002325728
1.074431,-0.09248088,0.03031501
1.026943,-0.1360713,0.1071779
1.018175,-0.1525886,0.1664984
1.010926,-0.1480003,0.1795819
0.9993353,-0.1575838,0.179897
0.9946606,-0.1217257,0.1614571
0.9564809,-0.07592213,0.1253052
0.939643,-0.06183692,0.1153657
0.9565595,-0.03841836,0.1183077
0.9603753,-0.008221714,0.098077
0.9775371,-0.002823269,0.07517238
1.010616,-0.02001177,0.07274358
1.041626,-0.00928363,0.061386
1.039149,-0.002889459,0.05769342
1.021047,-0.01586024,0.08160175
1.035095,-0.004816901,0.08954795
1.115104,0.02249552,0.4339017
1.137503,0.03004423,0.4914557
1.087072,-0.005120652,0.5349011
1.060912,-0.03223284,0.5750656
1.143327,-0.09955068,0.5610397
1.215289,-0.2218146,0.4760524
1.179611,-0.3239458,0.3829022
1.139693,-0.4207953,0.3230575
1.084019,-0.4612497,0.3199705
0.9185404,-0.409577,0.2918724
0.8317034,-0.2923868,0.1951765
0.9299215,-0.1383072,0.1089215
1.031135,-0.06783801,0.06056272
1.073071,-0.132652,0.08519498
1.025716,-0.2049399,0.1714495
0.8822382,-0.2426598,0.2487482
0.8005417,-0.282113,0.2916984
0.7888076,-0.2468808,0.2658685
0.8070602,-0.1687279,0.2417891
0.8774732,-0.09985539,0.2353425
0.9274892,0.01036132,0.1851802
0.9549823,0.05713625,0.1827193
0.9723227,0.07170376,0.1842122
0.9709111,0.133711,0.161836
0.9613869,0.1115266,0.2053436
0.9224188,0.08910357,0.225253
0.9031726,0.1060702,0.2320761
0.9027004,0.06132023,0.2685607
0.9175401,0.03618711,0.2760817
0.9840255,0.005222851,0.2726034
1.041457,-0.04998414,0.2589381
1.072648,-0.06729816,0.2725238
1.070155,-0.08057678,0.3086779
1.061931,-0.04339735,0.3218743
1.081246,0.08286688,0.3369834
1.068846,0.2472173,0.3224933
1.086379,0.3151233,0.2983239
1.175681,0.1863762,0.2824539
1.243998,0.01396475,0.2515663
1.203992,-0.08186954,0.2035068
1.092431,-0.1239122,0.08097562
1.075086,-0.1665994,0.009735234
1.1569,-0.2714683,0.13682
1.272074,-0.313241,0.3111533
1.322209,-0.2517055,0.3808262
1.162141,-0.185189,0.3640358
0.95487,-0.045825,0.3089969
0.8678637,0.06201203,0.2364172
0.83666,0.01955626,0.2142299
0.7991379,-0.03666122,0.238428
0.7337592,-0.1040811,0.223138
0.7210008,-0.1466384,0.2275459
0.7529209,-0.1410519,0.2784664
0.7475427,-0.2221057,0.312561
0.7621814,-0.269038,0.3187722
0.7959887,-0.2203869,0.3099467
0.8085158,-0.2024317,0.3428651
0.8107738,-0.1650826,0.3851956
0.8012007,-0.09174188,0.3980923
0.8047876,-0.0054939,0.4462149
0.8313818,0.05580606,0.4687947
0.9119436,0.03685861,0.4229537
1.026385,0.04158844,0.4033464
1.043157,0.02609875,0.4217728
1.058895,-0.06948043,0.4352228
1.144542,-0.06500232,0.4596188
1.090421,0.0105796,0.5101784
1.023298,0.03028845,0.5323206
1.109913,-0.02735432,0.4845551
1.157173,-0.1997416,0.3987869
1.206303,-0.392405,0.3174408
1.265801,-0.5123957,0.2772933
1.111119,-0.5152847,0.2519331
0.8781187,-0.3958129,0.1962146
0.8336464,-0.2514302,0.1534481
0.9300841,-0.1084015,0.1270207
1.011336,-0.07553423,0.112066
1.039017,-0.1817797,0.160776
0.9788142,-0.2496241,0.2344574
0.8517802,-0.2695562,0.2740266
0.8125381,-0.2431519,0.2561137
0.8403272,-0.1801211,0.2109554
0.8608179,-0.131075,0.2071937
0.9104067,-0.05794118,0.196479
0.9397358,-0.02127935,0.1823787
0.9623048,-0.005798898,0.1947855
1.004588,0.03354543,0.1809207
1.000031,0.0467419,0.194482
0.9642203,0.07273656,0.2283086
0.9275095,0.09215853,0.2421968
0.9131015,0.08396038,0.2689969
0.9438491,0.06909469,0.2771202
0.9750682,0.03119808,0.2893017
0.9896251,-0.005760149,0.2999166
1.006215,-0.07031551,0.29367
1.007927,-0.1318716,0.3259839
0.9948527,-0.1047551,0.3567896
0.9940301,-0.008789778,0.3703533
0.9968718,0.1377295,0.3653108
1.029448,0.2231132,0.3291712
1.145358,0.1392068,0.2975613
1.258271,0.01887602,0.2392356
1.252789,-0.06190403,0.1469882
1.201701,-0.1492903,0.05283018
1.166468,-0.2211661,0.03625927
1.118802,-0.3026588,0.1847211
1.181174,-0.3461512,0.3699998
1.280105,-0.2716934,0.4224202
1.157291,-0.1602151,0.34781
0.977326,-0.005389483,0.2647182
0.8759022,0.124798,0.2204527
0.7821275,0.08943726,0.1863489
0.7830744,-0.002272867,0.2047101
0.8079325,-0.1165398,0.2263726
0.8043524,-0.2354779,0.233355
0.8241416,-0.2655715,0.2961039
0.8171285,-0.2913872,0.3234737
0.8241244,-0.302258,0.3173848
0.8178936,-0.2370759,0.3416153
0.7879194,-0.1511107,0.3578381
0.7955463,-0.06547381,0.3674225
0.7832204,-0.02260301,0.3558796
0.7848185,-0.01957954,0.3510165
0.8372318,-0.02230908,0.3594947
0.9044236,-0.05263527,0.3534766
0.9655528,-0.08189341,0.3766138
1.010092,-0.080022,0.4004171
1.058902,-0.04514274,0.4091806
1.050765,0.02645401,0.420224
1.030619,0.1065123,0.4254546
1.106781,0.1201228,0.4357834
1.213767,0.02853248,0.4198359
1.294941,-0.08498986,0.4026445
1.27255,-0.2441029,0.4137164
1.195896,-0.4733384,0.4130394
1.172264,-0.5184021,0.411208
1.01603,-0.3972077,0.392976
0.7619065,-0.3513504,0.3092326
0.7115386,-0.2577345,0.2077167
0.8953314,-0.1458701,0.160638
1.123981,-0.1393534,0.1022971
1.18199,-0.1201763,0.05910853
1.046288,-0.1908083,0.1847932
0.8756132,-0.2716488,0.3211085
0.8078532,-0.2264671,0.313368
0.8374714,-0.206356,0.2727852
0.863569,-0.1177493,0.2267857
0.8974531,-0.03601352,0.2086421
0.9169929,-0.04463965,0.2098606
0.9091174,0.01229009,0.1874222
0.9389941,0.03643231,0.2090094
0.9497276,0.03766491,0.2329808
0.9415457,0.04874635,0.2369028
0.9379851,0.06650875,0.2467742
0.9183028,0.1196902,0.234712
0.9255166,0.09991614,0.2269607
0.9481234,0.07008006,0.2122246
0.984144,0.01228477,0.2086248
1.03158,-0.0902346,0.2444658
1.050101,-0.1338277,0.2763638
1.068785,-0.1739939,0.3067426
1.09154,-0.1576259,0.326036
1.076176,-0.05574557,0.3243606
1.043655,0.09877429,0.3218065
1.051646,0.1958532,0.3228583
1.117257,0.1010187,0.3200123
1.195101,0.02717541,0.302512
1.200451,0.03039295,0.2696402
1.154188,0.006218967,0.1669454
1.147929,-0.02251714,0.02345155
1.135511,-0.1619382,0.01184226
1.116686,-0.3250097,0.1745314
1.155858,-0.3479798,0.3655425
1.167528,-0.2949496,0.4134459
1.090451,-0.1993162,0.3407244
0.9742325,-0.09325873,0.2936559
0.9032759,-0.04742923,0.2492935
0.8878181,-0.07196221,0.2004529
0.854878,-0.09955347,0.2228266
0.8125769,-0.1147303,0.2549619
0.7745978,-0.1510702,0.2854498
0.7559583,-0.1629409,0.3351183
0.7722221,-0.1828006,0.33028
0.7787822,-0.2100436,0.3218867
0.7924757,-0.1838954,0.3515102
0.7983662,-0.1478846,0.3707051
0.7748541,-0.08573915,0.4045194
0.7740468,-0.03252018,0.4279321
0.7986904,-0.0008298554,0.4210808
0.8526553,0.06966195,0.4185686
0.9351118,0.04672947,0.4048496
1.032716,-0.03702081,0.3945048
1.095044,-0.02742233,0.4105113
1.062543,0.001676048,0.4463826
1.042527,0.03283842,0.4872825
1.070955,0.05076291,0.5200926
1.07772,-0.009624644,0.5339595
1.129765,-0.133284,0.475321
1.215367,-0.3536829,0.3594214
1.252657,-0.53565,0.2955739
1.208879,-0.5203858,0.3008859
1.016652,-0.4704194,0.2745487
0.7873818,-0.3973177,0.1976567
0.7678888,-0.1864827,0.1610518
0.9384112,-0.02522586,0.1478665
1.073768,-0.02919507,0.1299489
1.090774,-0.09345833,0.1702438
1.00863,-0.1755223,0.2436272
0.8746796,-0.2226543,0.2848522
0.8225392,-0.1945437,0.2707444
0.8389712,-0.1572549,0.2375182
0.8461569,-0.1074415,0.2294235
0.8752473,-0.04178585,0.2105216
0.9000529,-0.02007123,0.1966425
0.9417266,0.009462118,0.1948071
1.000471,0.06915585,0.1733079
0.993462,0.07940367,0.1811455
0.9654477,0.05948963,0.2051128
0.9620536,0.06798287,0.2199794
0.9586861,0.07194967,0.2385407
0.960929,0.05542427,0.2330004
0.98096,0.05093066,0.2331485
0.995506,0.04095521,0.2416692
1.007159,0.008336286,0.2391895
1.041962,-0.04687963,0.2693351
1.065817,-0.08731482,0.3058924
1.074916,-0.03601701,0.3170175
1.078402,0.0553063,0.3306515
1.056283,0.1243646,0.3403864
1.027959,0.1850797,0.3330841
1.031517,0.1893417,0.315222
1.115434,0.0960557,0.2899113
1.230174,-0.06025155,0.266466
1.237418,-0.1302191,0.2189527
1.133462,-0.08360531,0.09618944
1.040774,-0.1141248,0.007026484
1.048031,-0.21218,0.1180886
1.153063,-0.2869113,0.3277465
1.234946,-0.3295046,0.4269758
1.1667,-0.2471669,0.3816909
1.035094,-0.1107248,0.3051774
0.9524476,-0.03517717,0.2781339
0.8930246,-0.001874536,0.2413827
0.8729656,-0.03795913,0.2058554
0.8423003,-0.08976078,0.2159144
0.7670498,-0.1110009,0.2327105
0.7636074,-0.1583356,0.2905944
0.7871994,-0.2125824,0.3307792
0.7728032,-0.2526255,0.3118163
0.7840506,-0.2567427,0.3366549
0.7886595,-0.2027596,0.3648123
0.7802396,-0.1283798,0.3802341
0.7924847,-0.05172586,0.4048467
0.8120127,0.007517481,0.4078063
0.8656855,0.05210234,0.4193362
0.9489997,0.07256427,0.4149378
1.03345,0.03117212,0.4087389
1.112034,-0.01304317,0.4250988
1.124003,-0.009261276,0.4394508
1.040785,0.04143057,0.4942896
0.976558,0.09030611,0.5511226
1.019128,0.03195212,0.5381895
1.094144,-0.1116213,0.4792157
1.139848,-0.2490417,0.4147729
1.166191,-0.3651825,0.3538176
1.169767,-0.4795025,0.3063688
1.118566,-0.5389119,0.2854
0.9684912,-0.4411313,0.24947
0.8461398,-0.2676297,0.2019047
0.9006682,-0.116268,0.1723976
0.995195,-0.008997884,0.1397344
1.024784,-0.04552835,0.1345931
1.012829,-0.1225777,0.1873962
0.9299605,-0.1601594,0.2517477
0.8472717,-0.2255221,0.2660623
0.8234179,-0.1974068,0.2463635
0.8330207,-0.1448028,0.2434994
0.8716394,-0.1381133,0.2333026
0.9113951,-0.0543138,0.2055273
0.9543329,0.0006022132,0.1863796
0.9686361,0.04156801,0.1776522
0.9491853,0.1165863,0.1902507
0.9486022,0.1244044,0.2147944
0.9276608,0.1223845,0.2293924
0.9198324,0.09911514,0.2467822
0.9476946,0.04195345,0.2568178
0.9652511,-0.005101337,0.2562442
1.008823,-0.06085174,0.2799593
1.041414,-0.08098764,0.3031883
1.042635,-0.07486716,0.3167739
1.052548,-0.02792802,0.3446992
1.057495,0.08999759,0.3471506
1.075894,0.1809838,0.3308545
1.118779,0.1923604,0.3171855
1.171566,0.1516843,0.2968208
1.213802,0.08590504,0.298835
1.243664,0.0166426,0.2956676
1.237985,0.008253467,0.2455837
1.149238,-0.0197678,0.1393779
1.075772,-0.1865383,0.02485415
1.078118,-0.2650179,0.08146006
1.098262,-0.2154281,0.3037381
1.140344,-0.2447079,0.4528808
1.161832,-0.2379123,0.4359427
1.082761,-0.1310039,0.3281192
0.957073,-0.03179463,0.2502701
0.9140116,-0.0006245778,0.2082886
0.8895175,-0.04785966,0.1761885
0.8052862,-0.07519177,0.2194747
0.7731815,-0.1029753,0.2585234
0.742237,-0.1563858,0.2806038
0.7096585,-0.1601039,0.3298051
0.7617477,-0.1661929,0.3186925
0.7821676,-0.1591454,0.3197438
0.7890982,-0.1117776,0.3539875
0.794493,-0.07207812,0.3765894
0.7630797,-0.005347338,0.416472
0.7925517,0.05757282,0.4134996
0.8583025,0.09249221,0.4038813
0.9469664,0.1054943,0.4106695
1.038132,0.04904958,0.4036046
1.110273,-0.02060871,0.4195977
1.176769,-0.0417884,0.4470073
1.142773,-0.03121577,0.4978534
1.133461,-0.04701687,0.5173578
1.202631,-0.1417593,0.4396088
1.204122,-0.2577365,0.3510736
1.199069,-0.3426099,0.3227684
1.12284,-0.4014243,0.322467
0.9670024,-0.4227641,0.2660077
0.9052718,-0.353967,0.1788074
0.9235953,-0.1908621,0.132595
0.9842274,-0.09468269,0.1000256
1.002333,-0.1584817,0.1184808
0.9626933,-0.2635295,0.2283688
0.9204729,-0.2988755,0.3210464
0.8342233,-0.2701533,0.2984985
0.8019595,-0.2087801,0.2305132
0.8328544,-0.1287989,0.2083941
0.847378,-0.04794944,0.1919525
0.8783386,0.0320951,0.1773455
0.9235625,0.07945121,0.1863593
0.9838252,0.09076223,0.1845994
1.001234,0.1100853,0.2026318
0.9726321,0.1223229,0.2326809
0.9481733,0.1303788,0.2376362
0.9061031,0.126485,0.2475778
0.9040061,0.1001698,0.2580115
0.9347159,0.06942479,0.2656857
0.962509,0.009694742,0.2751507
1.006157,-0.04554458,0.2846639
1.019905,-0.08179755,0.3044475
1.020935,-0.1044253,0.3275793
1.042082,-0.0470796,0.3559022
1.051891,0.06480771,0.366307
1.061618,0.1461312,0.3611526
1.134989,0.1422387,0.3605781
1.248753,0.06343239,0.3297472
1.266939,0.007388405,0.25793
1.181637,0.002670199,0.1291498
1.105267,-0.03783725,0.01987025
1.083232,-0.1605288,0.08371213
1.12737,-0.2670814,0.2606283
1.207889,-0.272464,0.4122947
1.235229,-0.2047478,0.447116
1.156333,-0.1064859,0.3419779
1.007397,-0.03769539,0.2461004
0.8994788,-0.01884488,0.1947961
0.8604232,-0.05906701,0.180295
0.7909748,-0.1541618,0.2490553
0.7123427,-0.1833958,0.2725724
0.713785,-0.1493578,0.2847417
0.734315,-0.1396278,0.3349509
0.7398229,-0.1300603,0.3153639
0.7849845,-0.1244426,0.3204989
0.8162883,-0.116233,0.3558086
0.7998463,-0.0911641,0.3964486
0.8000742,-0.06435497,0.4677732
0.8046386,-0.03340813,0.4630026
0.8207326,-0.004122236,0.4314818
0.8550883,0.0351619,0.4076146
0.8627297,0.03551821,0.3874166
0.9398759,0.001863169,0.4264972
1.074101,0.01566748,0.4664244
1.085661,0.01640035,0.4921786
1.055262,-0.005821312,0.489909
1.12545,-0.03315196,0.4763539
1.17996,-0.1125655,0.4754848
1.171808,-0.2171192,0.391962
1.232084,-0.3726354,0.2972633
1.285682,-0.4660581,0.2877801
1.128091,-0.3881887,0.2527478
0.8919458,-0.3213068,0.172038
0.855298,-0.2099142,0.1662921
0.9455318,-0.04383815,0.2078942
1.001797,-0.06881645,0.2088627
1.040294,-0.1560764,0.2257137
0.9945872,-0.2051581,0.2491321
0.8807853,-0.2518323,0.2393074
0.8414873,-0.1892959,0.2320107
0.8298253,-0.1174463,0.2125014
0.8169931,-0.08261432,0.2038158
0.8518989,-0.03165712,0.2100082
0.903146,-0.0057122,0.2018062
0.9515039,0.0330889,0.201344
0.9725495,0.06952308,0.1980067
0.9689368,0.1329575,0.1991143
0.9557047,0.2088098,0.2135428
0.9244059,0.1887278,0.2332131
0.9229471,0.1583112,0.2589437
0.9417524,0.1080329,0.2671717
0.9592925,0.01457938,0.272936
1.011214,-0.03660575,0.2904395
1.050306,-0.08388579,0.3092667
1.046499,-0.09132731,0.3302245
1.036228,-0.036295,0.3389547
1.029664,0.06255869,0.3302377
1.038338,0.1987881,0.3044935
1.088534,0.220848,0.2696166
1.200264,0.09598044,0.2515821
1.281734,-0.0363474,0.2386422
1.212372,-0.07039067,0.1669619
1.096445,-0.06204217,0.05188983
1.068275,-0.1548332,0.04191442
1.112972,-0.2670453,0.204491
1.218345,-0.2788885,0.3989371
1.275696,-0.2233707,0.4357505
1.156115,-0.1167773,0.3386845
0.9878975,0.003967177,0.2689792
0.9178135,0.04345434,0.227928
0.8727742,-0.01767426,0.2080593
0.7931574,-0.07918783,0.233211
0.7641687,-0.1254056,0.2360939
0.7678546,-0.1895204,0.2635035
0.7267013,-0.2135297,0.314863
0.7223642,-0.2122542,0.3137503
0.7502606,-0.2032674,0.3365692
0.7444547,-0.1590734,0.3694374
0.7448023,-0.08101299,0.3853847
0.7447326,0.002643363,0.4295981
0.7804352,0.0287794,0.4267605
0.8844321,0.05831465,0.3991032
0.9907974,0.07428489,0.4110139
1.074735,0.006613208,0.40904
1.1204,-0.009427079,0.4125683
1.113342,-0.002555947,0.4537363
1.064225,-0.0006843305,0.5152161
1.040672,0.03213665,0.5506431
1.115234,-0.07775269,0.4752036
1.204487,-0.265561,0.3491016
1.232311,-0.3987214,0.2899941
1.217494,-0.5020712,0.2742508
1.080706,-0.4958336,0.2441944
0.8503563,-0.3921435,0.1795204
0.8192998,-0.2432053,0.1482445
0.9783436,-0.1115594,0.1768331
1.058262,-0.1064405,0.1779956
1.073719,-0.1746919,0.2066704
1.012606,-0.2377537,0.2751552
0.8977343,-0.2565374,0.2677753
0.8483947,-0.2086991,0.2355123
0.7606419,-0.1628533,0.2290472
0.7501131,-0.1571347,0.2237069
0.8535435,-0.1304195,0.2158993
0.8802772,-0.05115741,0.184522
0.9519828,0.0008237199,0.1713355
1.002115,0.01149624,0.1873962
0.9793019,0.06078136,0.1900293
1.013881,0.09805762,0.2035107
0.9547442,0.07843385,0.2340702
0.9094159,0.08674108,0.2633625
0.9633172,0.09440555,0.2751559
0.9648089,0.0508219,0.2709765
1.00277,0.02451894,0.2862969
1.018138,0.0005832942,0.2945156
0.994082,-0.03744803,0.2891753
1.020984,-0.04468793,0.3079166
1.018432,-0.02157804,0.322036
1.03258,0.05256119,0.330714
1.051534,0.1359696,0.3430725
1.071475,0.1377396,0.3445616
1.151204,0.06424434,0.3463394
1.180666,-0.009878761,0.2980434
1.15641,-0.04007404,0.1761081
1.137107,-0.09465103,0.07000755
1.122044,-0.207088,0.07274695
1.122784,-0.2954634,0.2137502
1.176197,-0.3096985,0.3897522
1.241069,-0.2632298,0.4378056
1.133799,-0.1703854,0.3597609
0.9482477,-0.04357601,0.2898823
0.8749545,0.01967531,0.2477877
0.8299072,-0.02260937,0.2172299
0.8066139,-0.07789921,0.245863
0.8061884,-0.1433966,0.2656793
0.7693116,-0.1973939,0.2658799
0.756938,-0.1860144,0.3108055
0.7793263,-0.1925487,0.3227317
0.7914637,-0.2000163,0.314782
0.7803276,-0.1417883,0.346296
0.7675312,-0.07483972,0.3807508
0.7779597,-0.01987702,0.4044538
0.791136,0.008492012,0.3981375
0.8242713,0.0222576,0.3975258
0.9112415,0.03406333,0.4161902
1.030289,0.001462295,0.4103939
1.105041,-0.009834891,0.4132858
1.09857,0.01958349,0.4263567
1.082922,0.05710265,0.4560094
1.085886,0.1003761,0.5171765
1.108937,0.05223704,0.5355024
1.155684,-0.06935065,0.5015343
1.158761,-0.2134729,0.4469951
1.136787,-0.3897684,0.3699128
1.1118,-0.4900407,0.3227908
0.9952292,-0.5056759,0.3061062
0.8171133,-0.457794,0.2571346
0.7638343,-0.2991479,0.2072273
0.9024532,-0.141376,0.1750566
1.041659,-0.10154,0.1501569
1.048273,-0.156669,0.1792423
0.9831929,-0.2046632,0.2383845
0.8937014,-0.2010968,0.2756684
0.8427432,-0.1917396,0.2713682
0.8478456,-0.1428262,0.2444898
0.8525854,-0.06677667,0.2524467
0.8701256,-0.01952474,0.2435497
0.9167125,0.02506529,0.2095303
0.9700282,0.05731762,0.2063398
0.9851506,0.09454778,0.1992101
0.9597727,0.1257424,0.2090674
0.9458436,0.1181109,0.2317556
0.9391768,0.1165339,0.2395727
0.9442742,0.09243244,0.2609026
0.9808432,0.03966708,0.2665253
1.027861,-0.001075066,0.270271
1.055328,-0.01691858,0.2855321
1.046191,-0.001862195,0.2941173
1.040029,-0.001587237,0.3131724
1.048426,0.0156886,0.3117295
1.047904,0.06550306,0.3029262
1.075486,0.1038937,0.3095749
1.127993,0.1534607,0.2971487
1.149096,0.1258847,0.2869401
1.13595,-0.0194066,0.2787483
1.127985,-0.117205,0.2248991
1.121402,-0.09251482,0.1646311
1.061831,-0.07075236,0.1869863
0.9784917,-0.1550414,0.2492703
0.9718503,-0.2131881,0.2757005
1.043322,-0.1815926,0.3199669
1.090535,-0.1881011,0.3663571
1.059428,-0.1855562,0.3471904
0.9967147,-0.1070205,0.3010767
0.9293488,-0.02383307,0.2561407
0.8669336,-0.00417591,0.2294266
0.8367596,-0.05315112,0.238305
0.8077366,-0.0799525,0.2513852
0.78638,-0.09800213,0.2704185
0.8068372,-0.1409372,0.31769
0.8204656,-0.151187,0.3500622
0.8125935,-0.1557148,0.348829
0.7956507,-0.1347748,0.3633569
0.7703963,-0.07255814,0.3771493
0.7753254,-0.02157456,0.3700525
0.8110881,0.01809644,0.3717907
0.8702803,0.01666617,0.3733974
0.9620189,-0.01755464,0.3850204
1.041963,-0.05178141,0.408954
1.086815,-0.08240946,0.4153099
1.100186,-0.05882312,0.4187084
1.060317,0.03201827,0.4535922
1.022785,0.1107749,0.507974
1.06368,0.04518155,0.5102266
1.113838,-0.1302366,0.4610028
1.125852,-0.2547483,0.4179021
1.166219,-0.3621262,0.3667856
1.188718,-0.4625005,0.306836
1.086996,-0.4588169,0.2501758
0.915943,-0.3627717,0.1898784
0.843164,-0.2189596,0.1635754
0.9195958,-0.1063211,0.1780624
0.98711,-0.08875098,0.1830704
0.9675063,-0.1241751,0.1895723
0.9383842,-0.1460008,0.2256565
0.886974,-0.1461815,0.239637
0.832401,-0.1527193,0.2257223
0.8385293,-0.1405476,0.2189298
0.8624215,-0.1161189,0.2017198
0.9047923,-0.0954831,0.1951888
0.9618053,-0.06093539,0.1991829
0.9810731,-0.03112074,0.1935568
0.9757616,0.02400554,0.211824
0.9541854,0.09353898,0.2261655
0.9275459,0.1288631,0.2196598
0.9183964,0.1406191,0.2221726
0.9379214,0.1128153,0.2220548
0.9834314,0.06800853,0.2238803
1.019949,0.02086208,0.2331328
1.053384,-0.03762046,0.2536016
1.073332,-0.06287731,0.2901276
1.064931,-0.05110849,0.3111468
1.06775,0.01101439,0.3130843
1.081575,0.103788,0.3092122
1.132849,0.1157554,0.3026037
1.221254,0.05361747,0.302743
1.244775,0.01112974,0.2852741
1.207239,-0.004380167,0.2185467
1.177927,-0.03647013,0.1191858
1.121086,-0.148429,0.0737949
1.046982,-0.3124307,0.1738538
1.039788,-0.3708606,0.3416527
1.048255,-0.3375329,0.4141672
1.022821,-0.2748982,0.3818057
1.020566,-0.1218688,0.3145961
1.016447,-0.03567455,0.2466018
0.9840748,-0.07235378,0.2192501
0.9368397,-0.06608418,0.2395623
0.8665233,-0.08511642,0.2508266
0.7954429,-0.1236323,0.262255
0.7243335,-0.1307735,0.3116
0.712178,-0.1622728,0.3253391
0.7775966,-0.1584875,0.3108752
0.7945365,-0.1682967,0.3403831
0.7946671,-0.1648926,0.3620237
0.7975634,-0.0920615,0.3797557
0.7457487,-0.0670512,0.4053306
0.7499868,-0.02610455,0.4051023
0.8019575,0.02541615,0.4088625
0.8723899,0.02046722,0.3957177
0.9895127,0.02394227,0.3800189
1.048997,-0.0006276846,0.3986865
1.06795,-0.02848721,0.4215536
1.068016,-0.02562426,0.4751834
1.050116,0.002015246,0.5411887
1.088788,0.0431865,0.5548138
1.154651,-0.004240101,0.5248356
1.216346,-0.09773365,0.4745739
1.179223,-0.1994175,0.4151796
1.08707,-0.3372079,0.370667
1.074317,-0.4134568,0.3652039
0.9436973,-0.412386,0.3389632
0.7491023,-0.3603057,0.2627884
0.7673812,-0.2620339,0.2058222
0.9282323,-0.1625618,0.1410778
1.096769,-0.1004527,0.07859167
1.113822,-0.1442433,0.120708
0.9643323,-0.2237601,0.2250301
0.8685074,-0.2165466,0.2947637
0.8404497,-0.2051794,0.296359
0.8360338,-0.203996,0.2608175
0.8811632,-0.1419294,0.2431379
0.922168,-0.07580586,0.2092101
0.9188534,-0.04775729,0.1882774
0.9075418,-0.03989814,0.2235255
0.9477828,-0.01344124,0.2245613
0.9834173,0.03268999,0.2243699
0.9815584,0.07905796,0.24334
0.9722674,0.1415146,0.225704
0.9348659,0.1622863,0.2398705
0.9353361,0.1480144,0.2463258
0.961846,0.1361801,0.2329586
0.9792779,0.0647996,0.2614226
1.038365,-0.02311223,0.2737465
1.059707,-0.06909483,0.2906222
1.048435,-0.06622448,0.3032802
1.057996,-0.02362258,0.2954132
1.05089,0.03214055,0.3177623
1.048677,0.125314,0.3236224
1.067343,0.1537834,0.316926
1.15509,0.0598554,0.3115317
1.254365,-0.01003527,0.2823404
1.206055,-0.01620429,0.2029187
1.111239,-0.02320868,0.05439241
1.078617,-0.09228409,0.003289672
1.062846,-0.2127318,0.1443407
1.144389,-0.2921277,0.3220386
1.280221,-0.3088605,0.4222382
1.25877,-0.2736677,0.424557
1.109838,-0.1770785,0.3456606
0.9719519,-0.05695261,0.2631042
0.9100982,-0.01224706,0.2353905
0.8802226,-0.034831,0.218675
0.8093829,-0.05075283,0.2048442
0.8006047,-0.1090123,0.249968
0.8009098,-0.1540199,0.3034844
0.7526397,-0.1408126,0.318758
0.7976127,-0.1592818,0.3160311
0.8284273,-0.1509298,0.3108393
0.8122396,-0.1172884,0.3357032
0.811664,-0.08446439,0.3733487
0.7536594,-0.004857022,0.4070043
0.7397533,0.04177093,0.4263068
0.7907164,0.06180294,0.4056046
0.8630625,0.06686088,0.398065
0.9712525,0.0243456,0.4021476
1.049058,-0.01174386,0.3946025
1.112527,-0.0416159,0.419551
1.126447,-0.02822216,0.4676593
1.09945,0.008652935,0.5260822
1.136899,0.005527368,0.5466336
1.17856,-0.01037478,0.4978255
1.187618,-0.08405909,0.4479956
1.166292,-0.214219,0.3892307
1.12904,-0.3739266,0.3356397
1.108297,-0.4944472,0.3301513
0.9791925,-0.4625447,0.2815921
0.8207869,-0.3721078,0.1946946
0.8965496,-0.2246142,0.1581932
1.045544,-0.06388799,0.1326282
1.049959,-0.1155143,0.1348905
1.010101,-0.1880681,0.217272
0.9221959,-0.1513136,0.2868632
0.8207964,-0.1916612,0.2891386
0.8238113,-0.171452,0.2609662
0.8450133,-0.07635907,0.2361156
0.870222,-0.05359592,0.2304603
0.9106441,0.02340134,0.2150419
0.9266135,0.08771113,0.2080735
0.9492842,0.07667417,0.2159752
0.9446708,0.1034504,0.2062414
0.9377684,0.1051746,0.2148254
0.9473147,0.1015177,0.2331725
0.9465337,0.109652,0.2484769
0.9652063,0.07840138,0.2675409
0.9614915,0.05536476,0.2612129
0.9662619,0.01905803,0.2609595
1.018463,-0.01771549,0.2705133
1.074335,-0.02400368,0.2748261
1.123696,-0.01323456,0.2884153
1.121693,0.02138434,0.2874517
1.108156,0.0805324,0.288819
1.128506,0.15817,0.3004868
1.142168,0.1310193,0.2913847
1.190009,0.01518589,0.27247
1.237019,-0.02436422,0.2459351
1.180701,-0.02316437,0.1872712
1.098073,-0.04756886,0.09238151
1.078512,-0.1486796,0.05572965
1.064437,-0.2726268,0.1690272
1.085349,-0.3011378,0.317703
1.150129,-0.2948467,0.3628286
1.107737,-0.2127114,0.3308824
1.009544,-0.06225793,0.2896131
0.9391381,-0.003118777,0.2509455
0.8665948,-0.01269575,0.2141113
0.8595192,-0.04784373,0.2227774
0.8474662,-0.09429806,0.2500149
0.8042475,-0.127875,0.2509238
0.8114636,-0.1586144,0.2770358
0.8008136,-0.1818318,0.2956244
0.7960928,-0.1971603,0.3057539
0.7984523,-0.1774592,0.3559424
0.7717461,-0.1379307,0.3755464
0.7686889,-0.08761877,0.3770313
0.7590633,-0.0304207,0.385353
0.7769985,-0.01714523,0.3821254
0.854873,-0.007791725,0.3955902
0.9607934,-0.0115989,0.3997723
1.066837,-0.04410948,0.4019226
1.101301,-0.04111611,0.407151
1.106786,-0.0217159,0.4085605
1.096083,0.02586257,0.446733
1.065326,0.07553661,0.4929182
1.10778,0.04402022,0.5096264
1.132554,-0.03336234,0.4823491
1.066185,-0.1415696,0.4284456
1.022597,-0.2703467,0.3861897
1.035118,-0.4216079,0.342157
1.007852,-0.5802536,0.2879687
0.8784538,-0.5159117,0.2359842
0.8003566,-0.3119528,0.2203037
0.911266,-0.2264453,0.2100879
1.043923,-0.06976974,0.1768044
1.031904,-0.02951331,0.2021594
0.9549016,-0.2191988,0.2783405
0.9069719,-0.1776868,0.3345617
0.8597457,-0.1460122,0.30984
0.8044518,-0.2019735,0.2414911
0.7918097,-0.08908803,0.2445611
0.8419135,-0.09363905,0.2393446
0.901135,-0.07850635,0.2104249
0.9462873,-0.02757659,0.2228472
0.9878979,-0.05391704,0.214242
0.9760422,0.05811611,0.2223924
0.9526273,0.1054119,0.2455149
0.9520536,0.1378961,0.2489395
0.9357521,0.192627,0.269929
0.9523739,0.1138602,0.2660744
0.972439,0.08345463,0.260067
0.9935969,0.01760049,0.2764453
1.057594,-0.05621496,0.2827423
1.078762,-0.04137558,0.306829
1.057696,-0.02772345,0.3412874
1.043596,0.04983618,0.3583173
1.055347,0.1116699,0.3449742
1.117188,0.1157401,0.3283481
1.200381,0.0318348,0.3363876
1.230432,-0.1110115,0.3060825
1.153693,-0.1074388,0.1953182
1.065852,-0.09585216,0.06356607
1.02772,-0.1730239,0.06525611
1.028099,-0.2300474,0.2322827
1.127148,-0.2731228,0.3879767
1.20384,-0.2408237,0.4321095
1.106187,-0.1437866,0.3528878
0.9730606,-0.04633024,0.249347
0.9408684,0.01310778,0.2365313
0.9089527,-0.0236483,0.2328547
0.8404265,-0.05941953,0.2385619
0.8123041,-0.09072695,0.2742693
0.7631623,-0.1578066,0.2833147
0.7387441,-0.1449193,0.2959967
0.7976994,-0.1428168,0.2951974
0.8042,-0.1906905,0.3095484
0.7906579,-0.1590875,0.3545932
0.7904752,-0.1152398,0.3810634
0.7629026,-0.07058417,0.4089819
0.7700128,-0.01702435,0.4030637
0.7840282,0.004236851,0.4013851
0.7964423,0.03880516,0.4156972
0.8384013,0.02673214,0.3884257
0.9247457,-0.01312858,0.3863004
1.076105,-0.03723146,0.3853675
1.164435,-0.07727699,0.3898986
1.130236,-0.01839671,0.4518967
1.110847,0.04825221,0.507976
1.143659,-0.03136468,0.5136395
1.130747,-0.1429444,0.4341478
1.076255,-0.2660965,0.3499962
1.050915,-0.3907849,0.3419663
1.044187,-0.4714979,0.334245
1.031007,-0.5306757,0.2828777
0.9875328,-0.4414446,0.2106195
0.9801202,-0.2167872,0.1793302
1.041472,-0.1071095,0.1620974
1.051983,-0.1458492,0.1470502
1.020665,-0.1969808,0.2168353
0.941812,-0.2250425,0.3043337
0.8200874,-0.2527466,0.3400516
0.7898285,-0.2244453,0.3036317
0.8075857,-0.1332082,0.2266694
0.8225719,-0.0783951,0.2093243
0.8645699,-0.03271937,0.1916226
0.9219231,-0.0003550904,0.1754966
0.9772891,-0.01375577,0.2076773
0.9867126,0.02141576,0.2236609
0.9731322,0.06975008,0.2506274
0.9529855,0.1149935,0.2698062
0.9178006,0.1678816,0.2635071
0.9097535,0.1511841,0.2738932
0.944657,0.110108,0.2749511
1.00083,0.0441797,0.2887359
1.046562,-0.05607513,0.3095568
1.082988,-0.1217357,0.3268972
1.069975,-0.1137815,0.3626796
1.020144,-0.01598202,0.374981
1.028555,0.07978368,0.3682035
1.062709,0.1139104,0.3542716
1.145304,0.06249047,0.3315118
1.244426,-0.0170293,0.3029168
1.189627,-0.0149078,0.2104496
1.098754,-0.05048051,0.05707104
1.096676,-0.0983426,-0.0001620136
1.10934,-0.1370261,0.1525069
1.171229,-0.2857156,0.3418371
1.235635,-0.316647,0.3862254
1.187075,-0.224166,0.35037
1.073288,-0.1618141,0.3121841
0.9762124,-0.04486832,0.2926514
0.9329296,-0.04783743,0.2610313
0.867603,-0.1163776,0.2141006
0.769595,-0.05777905,0.2134327
0.7668175,-0.09043976,0.2400905
0.759135,-0.1423977,0.2799022
0.7340132,-0.121307,0.3185135
0.8070728,-0.1859255,0.3249744
0.806824,-0.2025665,0.3270671
0.7707406,-0.1466385,0.3473395
0.7895582,-0.09680391,0.3836088
0.753238,-0.024714,0.3997097
0.793757,-0.01186251,0.3994988
0.8970105,-0.001017046,0.4029738
0.9480414,0.02569411,0.3958937
0.9942127,-0.01372057,0.3994252
1.023906,-0.03692175,0.4021051
1.071224,-0.03926453,0.4120738
1.067014,-0.03811503,0.4535892
1.036561,-0.007864262,0.4886336
1.095938,-0.007232893,0.4986463
1.137643,-0.08736361,0.4740314
1.18114,-0.2561456,0.4194762
1.196686,-0.4259239,0.339399
1.141585,-0.5203522,0.27248
1.07763,-0.5392512,0.2812936
0.9030665,-0.4564004,0.276084
0.7968801,-0.3017764,0.2132844
0.8952649,-0.1288413,0.1732515
0.9981052,-0.03125121,0.1288127
1.079389,-0.09113803,0.1058485
1.056079,-0.1842243,0.1779124
0.9136277,-0.253478,0.2594895
0.8158593,-0.2985563,0.2736979
0.772296,-0.2335468,0.2384893
0.8245538,-0.1734704,0.2008418
0.9000717,-0.1703588,0.187509
0.8934212,-0.1360745,0.1715804
0.9266338,-0.1125014,0.1725613
0.966011,-0.07471724,0.1913517
0.9610761,-0.04119717,0.1897103
0.9840313,-0.02494643,0.2090258
0.991335,0.05095006,0.2408802
0.9798794,0.09045559,0.2535103
0.9657421,0.0959957,0.2694123
0.9306814,0.1066793,0.2742365
0.9139444,0.07370984,0.2751709
0.9528977,0.07096743,0.2782456
1.02605,0.04774333,0.286544
1.057231,-0.03564589,0.3215841
1.053562,-0.07824042,0.3497041
1.045754,-0.01179099,0.3600876
1.031856,0.1319795,0.3540005
1.06967,0.1412229,0.3333367
1.15231,0.03965078,0.3175688
1.21122,-0.01900952,0.283304
1.194651,-0.0678425,0.2133604
1.142747,-0.06872662,0.08731224
1.125481,-0.1012976,0.006666886
1.095639,-0.2241359,0.1154134
1.09251,-0.3065638,0.267272
1.138222,-0.2961926,0.3362516
1.137086,-0.2007744,0.3698709
1.088322,-0.1122631,0.3260633
0.9908188,-0.03625572,0.2439524
0.9035153,0.015891,0.2117317
0.8736522,-0.03684227,0.1990429
0.8254301,-0.09245199,0.2239225
0.7860402,-0.1439925,0.2770686
0.7690775,-0.1825557,0.2911246
0.7593186,-0.167019,0.2964618
0.7631157,-0.1937893,0.3104824
0.7570189,-0.1969707,0.3179225
0.7752942,-0.1556463,0.3300398
0.7799844,-0.1186504,0.3568475
0.7710231,-0.0386557,0.404445
0.8146782,0.02344731,0.4233999
0.8762976,0.05110843,0.4003423
0.9605079,0.06547401,0.3861164
1.032408,0.01992113,0.3872119
1.078752,-0.05948473,0.3992453
1.132707,-0.1064544,0.4307155
1.106735,-0.07954829,0.4877985
1.071801,-0.04090309,0.527301
1.128613,-0.07082197,0.5003672
1.156084,-0.1398668,0.4236669
1.128882,-0.2668448,0.3359604
1.107231,-0.4257508,0.3124695
1.061435,-0.4820354,0.321956
0.9663272,-0.4233597,0.2448688
0.8831391,-0.2889211,0.1515411
0.9407414,-0.1345393,0.1201198
1.090227,-0.07974523,0.1133135
1.126896,-0.1431671,0.1516368
1.047776,-0.2021027,0.2170208
0.9082286,-0.1978581,0.2653078
0.7618914,-0.2070686,0.2867305
0.7598325,-0.1822779,0.2496296
0.8195225,-0.1048304,0.2055238
0.8327508,-0.07932957,0.1954884
0.8929047,-0.03377234,0.175851
0.9578829,0.008881523,0.1719112
0.9820561,-0.002947647,0.1978153
1.006289,0.03691631,0.2227731
0.998732,0.0774698,0.2541715
0.9706835,0.1008999,0.2762392
0.9480232,0.1367123,0.2808164
0.9235575,0.1357417,0.2880891
0.9282885,0.1229905,0.2822473
0.9600173,0.08278642,0.2754167
0.9939172,-0.001275232,0.2952224
1.023791,-0.08837358,0.318669
1.023404,-0.1242914,0.3423126
1.017363,-0.05531369,0.3657378
1.032448,0.03651542,0.3644978
1.062079,0.05190443,0.3467737
1.145825,0.01457371,0.3299381
1.221181,-0.01704155,0.3009875
1.207975,-0.02327698,0.2183312
1.179217,-0.05007243,0.0951128
1.141024,-0.1330237,0.04570157
1.077056,-0.2512203,0.1368286
1.079799,-0.3284206,0.2933448
1.126404,-0.2924034,0.3944951
1.111713,-0.177434,0.3824631
1.036588,-0.03636699,0.3170729
0.9535062,0.03712153,0.2867886
0.9191215,-0.02000958,0.2541304
0.8950211,-0.06111935,0.2082926
0.8449321,-0.07913094,0.2349768
0.8477931,-0.1360907,0.2774953
0.8181212,-0.124426,0.2800514
0.7498398,-0.1284408,0.3050647
0.786341,-0.1694755,0.3133445
0.8137756,-0.1514247,0.2994509
0.8127018,-0.1575771,0.3366381
0.8355116,-0.129534,0.3667274
0.8112928,-0.05328731,0.3638295
0.8105834,-0.01949588,0.375629
0.8261384,0.009076865,0.3735453
0.8308205,-4.65279e-05,0.3675153
0.8722058,-0.0260877,0.3701387
0.9249641,-0.04284748,0.3567127
1.031545,-0.06163939,0.3520446
1.1333,-0.03047495,0.3504606
1.114232,0.009338666,0.3630283
1.064559,0.07620724,0.4164377
1.068875,0.1311649,0.4603583
1.103803,0.03679889,0.4616139
1.145628,-0.1102798,0.4389909
1.168391,-0.2194034,0.4090238
1.175961,-0.3513194,0.3569735
1.155948,-0.4971153,0.3128816
0.9918213,-0.5256369,0.3018463
0.7609137,-0.3778863,0.2447584
0.7483418,-0.1978164,0.1680084
0.9406122,-0.09497314,0.1398738
1.099816,-0.09129765,0.127803
1.108294,-0.1659655,0.1734824
0.9898117,-0.2225186,0.2699528
0.8679442,-0.2327274,0.3043716
0.8414773,-0.21023,0.2713757
0.8878521,-0.1786302,0.2440742
0.9145496,-0.1577572,0.245496
0.9078623,-0.1001733,0.2285732
0.9276023,-0.03830843,0.2014453
0.9482387,-0.03468232,0.212814
0.960972,-0.02992351,0.2223098
1.002882,0.02320518,0.2228751
1.009215,0.05030485,0.2382772
0.9723883,0.04483512,0.2447119
0.9502265,0.09390254,0.2629576
0.9236853,0.121881,0.284918
0.9300757,0.09246865,0.2651184
0.9699994,0.09036168,0.2383116
0.9824515,0.0731728,0.2370703
1.013906,0.02052212,0.2539602
1.058884,-0.06976201,0.2879533
1.067907,-0.1684441,0.3171391
1.056266,-0.1603585,0.3422844
1.04438,-0.0913588,0.371125
1.045493,-0.02875279,0.3701569
1.048255,0.03505963,0.3613677
1.09043,0.05449912,0.3584457
1.161038,0.02795805,0.3130598
1.162362,-0.01505846,0.2283726
1.12901,-0.06157741,0.1087308
1.101089,-0.1356545,0.01482201
1.036513,-0.2552891,0.05381815
0.9643341,-0.3510042,0.1751077
0.9587045,-0.3723401,0.3130387
1.015031,-0.2982841,0.3933394
1.038925,-0.1564739,0.3275882
1.009773,-0.04467892,0.2728696
0.988965,0.003462005,0.2844447
0.9923963,-0.005357705,0.25332
0.9856283,-0.03731697,0.2660047
0.9417294,-0.06501377,0.2918447
0.8800168,-0.1011357,0.2727361
0.8220693,-0.1143765,0.2925203
0.8081682,-0.1297776,0.3026423
0.8384952,-0.1644466,0.3259283
0.8410304,-0.1610322,0.3792914
0.8325343,-0.1334862,0.3839834
0.8371231,-0.0802498,0.3854358
0.837356,-0.02050518,0.3784375
0.8487269,-0.01156699,0.3667573
0.8593235,0.002062409,0.3916257
0.8756412,0.03122089,0.4048106
0.9055687,0.01750007,0.4014513
0.9327699,-0.01167789,0.3914637
0.9621283,-0.02978784,0.3858969
0.9965535,-0.04399761,0.3936647
1.032183,-0.0410571,0.4060628
1.013613,-0.001181413,0.437263
0.9605264,0.08023698,0.4602682
0.9765549,0.1239301,0.4603425
1.028118,0.08293514,0.4382534
1.087054,0.03335466,0.3976243
1.164296,0.04557089,-0.0129161
1.126037,0.08160504,0.0192849
1.099796,0.1107688,0.02795874
1.127303,0.104909,-0.007393745
1.213941,0.034828,-0.03278053
1.288655,-0.05619345,-0.01181009
1.231768,-0.07081534,-0.01469879
1.132716,-0.03278523,-0.08724377
1.122227,-0.06604101,-0.1514491
1.120344,-0.2156393,-0.1083982
1.120422,-0.4084393,-0.002034581
1.15219,-0.465602,0.07592469
1.122568,-0.3799149,0.1045424
1.043071,-0.3271332,0.08652023
0.9557083,-0.2377133,0.0705842
0.9000692,-0.1408976,0.05679115
0.9117315,-0.1812399,0.02633852
0.8848494,-0.1798222,0.04560057
0.8498398,-0.1536432,0.07354406
0.8525416,-0.1864597,0.08277334
0.8221491,-0.1668088,0.1306674
0.8333799,-0.1780244,0.1634665
0.869962,-0.1898802,0.1705748
0.8929758,-0.1460653,0.1753417
0.9340262,-0.1201748,0.1764057
0.9218225,-0.07636468,0.1973417
0.8912979,-0.04703952,0.2116046
0.8662928,-0.01361638,0.2324536
0.8521763,0.0390148,0.2563344
0.9367157,0.04012002,0.2587487
1.049318,0.02513388,0.2810271
1.095727,-0.01600902,0.2916551
1.089184,-0.06312943,0.2763063
1.100851,-0.0741613,0.2764774
1.161442,-0.09049466,0.2784385
1.22627,-0.1222713,0.2664347
1.304126,-0.1947067,0.2139883
1.311785,-0.2879429,0.1187558
1.223052,-0.3594694,0.0712548
1.132972,-0.4122302,0.1114841
0.9703964,-0.4245312,0.130785
0.8116145,-0.3633114,0.08355752
0.8247667,-0.2378626,0.0208402
0.9499579,-0.1726752,-0.07829697
1.078947,-0.2123221,-0.1411966
1.080205,-0.2681935,-0.07144777
0.9750918,-0.3214671,0.02681682
0.8901662,-0.3247684,0.08525907
0.8195839,-0.2724642,0.09802153
0.8118305,-0.2460803,0.06080562
0.8513281,-0.216179,0.04419318
0.8905308,-0.1263323,0.007556297
0.9670371,-0.01357818,-0.06340847
0.9795523,0.008111547,-0.05216634
0.9580198,-0.04162845,-0.01750516
1.002661,-0.02308434,-0.02073832
0.9962947,-0.009004267,-0.005011903
0.9774078,-0.02059769,-0.001670339
1.007539,0.03323399,0.004903549
0.9995571,0.0468917,0.03564971
1.013426,0.01380049,0.02900958
1.050846,-0.009731949,0.02275667
1.045489,-0.0479731,0.03693368
1.050705,-0.056155,0.03782608
1.067109,-0.06435684,0.06425572
1.075347,-0.03937274,0.08819252
1.076059,0.08334241,0.06708152
1.079308,0.1948538,0.05007711
1.130549,0.2156472,0.03527633
1.218609,0.112498,0.008311427
1.280647,-0.04614779,0.002644446
1.249947,-0.1327284,-0.01860425
1.179092,-0.1707335,-0.1086003
1.141693,-0.2171407,-0.172115
1.093828,-0.2888677,-0.08765006
1.089291,-0.3471095,0.06657725
1.11602,-0.3415905,0.153656
1.080339,-0.2539854,0.155416
1.042583,-0.09243451,0.09919616
0.9914946,5.148642e-05,0.04762038
0.945349,-0.02483057,0.04296112
0.9371692,-0.06712431,0.0500558
0.879629,-0.1318411,0.06675923
0.8408862,-0.1844156,0.1024467
0.8281087,-0.1955909,0.1298518
0.7977088,-0.2169821,0.1385387
0.8326134,-0.2166086,0.1424943
0.8693391,-0.2048038,0.1605205
0.872554,-0.203667,0.1846988
0.8772942,-0.1603961,0.2111178
0.8674225,-0.1044305,0.2342341
0.8784428,-0.06826446,0.2289972
0.9007494,-0.006807999,0.2174983
0.9581511,0.06032074,0.2063833
1.054761,0.06152616,0.1699205
1.102469,0.02232896,0.1400334
1.137483,0.001087679,0.1505439
1.17292,-0.009638836,0.2000157
1.165081,-0.0130682,0.2561891
1.189223,-0.0387145,0.2637504
1.245416,-0.09340884,0.2530398
1.258682,-0.1459521,0.2362455
1.266014,-0.270295,0.1464654
1.249811,-0.4359917,0.07022155
1.173222,-0.5124082,0.07295005
1.082533,-0.52035,0.08413885
0.9102573,-0.4485563,0.1004089
0.7790349,-0.2914801,0.07102984
0.8996236,-0.158155,-0.01864065
1.030686,-0.1070697,-0.09803988
1.051526,-0.1654412,-0.1210958
1.052551,-0.2609492,-0.01901312
0.9444551,-0.3011631,0.09408041
0.836694,-0.3100955,0.0927429
0.8249861,-0.2586213,0.05891777
0.8385978,-0.1790737,0.02237559
0.8776113,-0.1372082,-0.01056835
0.9238404,-0.07910036,-0.02146946
0.9954433,-0.03056996,-0.02352946
1.023612,-0.01515924,-0.0205535
1.002266,0.02628246,-0.01355885
1.023026,0.08906654,0.00320262
1.001826,0.1180057,0.009488755
0.990656,0.1034889,0.02555807
1.008873,0.08965588,0.056484
0.9854558,0.04864917,0.0560851
1.009247,-0.02095177,0.05141533
1.037279,-0.05653741,0.06081506
1.066184,-0.06696163,0.06765273
1.110699,-0.02541207,0.06934341
1.096919,0.0886906,0.07266776
1.098958,0.2088472,0.07887866
1.119316,0.2442815,0.063808
1.170933,0.1572803,0.04470509
1.274003,0.0342611,0.02866934
1.286098,-0.07066276,-0.03052365
1.21338,-0.146287,-0.1332014
1.13498,-0.1946927,-0.1994143
1.055992,-0.2978847,-0.1495576
1.035504,-0.4034369,-0.008463753
1.104232,-0.4040107,0.1475151
1.160374,-0.3250973,0.2053523
1.103083,-0.1674433,0.1215724
1.021976,-0.002239888,0.06838489
0.9941562,0.02516561,0.07211958
0.9521965,-0.02628451,0.028604
0.8977749,-0.04719204,0.02709338
0.8523994,-0.1000768,0.06553064
0.799583,-0.1898913,0.09507323
0.7793992,-0.2232034,0.138156
0.8110741,-0.2387074,0.1409314
0.8409253,-0.2642409,0.1575396
0.8473741,-0.2457609,0.2016675
0.8597842,-0.2031334,0.2047292
0.8640979,-0.1416613,0.2185976
0.8642806,-0.07791582,0.2322234
0.8944867,-0.04340555,0.230877
0.9472128,0.008402303,0.2379521
1.037875,0.04107304,0.2193558
1.11674,-0.002855293,0.1867881
1.115315,-0.05279939,0.1742284
1.108389,-0.05914893,0.2071345
1.11883,-0.02805193,0.2593842
1.122643,-0.001462402,0.2666408
1.1814,-0.06300527,0.2423215
1.25322,-0.1861666,0.1924585
1.244229,-0.3062429,0.1032991
1.213403,-0.4419576,0.04882563
1.157993,-0.5248645,0.06932126
0.9754005,-0.4940165,0.09067065
0.8005905,-0.4009427,0.08154534
0.8251331,-0.2490378,0.03359257
0.9821794,-0.1208712,-0.08696741
1.117308,-0.1342338,-0.1753521
1.124073,-0.2008634,-0.1269864
1.007881,-0.2526639,-0.001209202
0.8909808,-0.300099,0.1112565
0.8508765,-0.2720254,0.1086312
0.8766506,-0.1972165,0.03012007
0.9104262,-0.1383878,0.01301636
0.9363744,-0.06783665,-0.01253656
0.9795001,-0.02422713,-0.05936942
0.9944012,-0.01759868,-0.04624933
0.9896122,-0.02144506,-0.02963842
1.007604,-0.02312707,0.002214508
0.9975445,0.01141031,0.03415267
0.9819719,0.04023403,0.02305085
0.9878672,0.04991659,0.03095052
0.98386,0.03766303,0.0302568
0.9974548,0.003643198,0.01843935
1.013806,0.001913124,0.03162551
1.031234,-0.03927336,0.06801244
1.062667,-0.1028793,0.1308146
1.062786,-0.08859423,0.1356786
1.066217,-0.03860994,0.10087
1.096369,0.09535543,0.09973771
1.102916,0.2569362,0.08632567
1.120414,0.1943446,0.07051552
1.222274,0.01376329,0.05007646
1.318833,-0.03602019,0.01568436
1.265152,-0.05219355,-0.01557588
1.158006,-0.1009375,-0.1117056
1.104171,-0.1673873,-0.1922475
1.055557,-0.2988688,-0.1095612
1.083456,-0.3863233,0.03523807
1.178151,-0.3864297,0.1368658
1.192161,-0.3098427,0.1708326
1.128406,-0.1563205,0.1117202
1.02629,-0.0523145,0.07082937
0.955524,-0.01036858,0.06776467
0.9214347,-0.0009395503,0.03422997
0.8551939,-0.04817061,0.04743368
0.8209426,-0.137206,0.08933876
0.8009071,-0.1961609,0.1172487
0.8152537,-0.196721,0.1594437
0.8727215,-0.2271945,0.178723
0.854476,-0.2217863,0.1936808
0.8646395,-0.1643512,0.1938453
0.8872746,-0.1325107,0.1809432
0.8581112,-0.06020634,0.212536
0.8813845,-0.009862638,0.2329579
0.9049396,0.01283519,0.2363629
0.9713259,0.06426726,0.2309041
1.068384,0.05439294,0.201252
1.084535,-0.01354294,0.2036178
1.100438,-0.1036213,0.233645
1.112868,-0.140394,0.2778906
1.116445,-0.09195383,0.3062884
1.164872,-0.08282197,0.2903517
1.215463,-0.112411,0.2508544
1.211128,-0.1574968,0.1756553
1.171998,-0.2601707,0.1389098
1.157232,-0.3616993,0.1424988
1.100355,-0.4063766,0.09478108
0.9765027,-0.389763,0.06403145
0.8515218,-0.3134525,0.04029353
0.8121201,-0.1991469,-0.05150465
0.9447354,-0.1093449,-0.1506555
1.058747,-0.1218592,-0.181993
1.031526,-0.2044864,-0.09269111
0.9889129,-0.2585396,0.03609221
0.9426384,-0.257591,0.06676754
0.9258357,-0.23523,0.04426765
0.9466784,-0.2186579,0.02286345
0.9483579,-0.1687073,-0.01145009
0.9542524,-0.09198804,-0.02328761
0.9557838,-0.04481744,-0.01624505
0.9623828,-0.01176954,-0.02236364
0.9907923,-0.01593139,-0.02273528
1.018097,-0.02978493,-0.01950256
1.032343,-0.004607382,-0.02269242
1.022137,0.01135967,-0.01385489
0.9992012,0.05111068,0.003987713
0.9775865,0.07044022,0.03212826
0.9815064,0.02866699,0.05550795
1.007537,0.02056525,0.03440507
1.024521,-0.004639538,0.01118208
1.043903,-0.05283082,0.02350654
1.061301,-0.05670335,0.03477882
1.085307,-0.04552747,0.05010888
1.117074,-0.003312556,0.06630815
1.12691,0.06044199,0.05731398
1.158501,0.07384942,0.05000889
1.22306,0.01926445,0.04687856
1.253015,-0.03272623,0.02415886
1.214394,-0.04623309,-0.03980374
1.146769,-0.08232551,-0.1440373
1.101515,-0.1829497,-0.1759275
1.043745,-0.3247027,-0.07230859
1.011542,-0.3980389,0.06557303
1.057281,-0.3835949,0.1475011
1.063108,-0.3308515,0.1418817
1.024508,-0.176134,0.09098681
1.01444,-0.02982275,0.0663817
1.01374,-0.043275,0.05110409
1.021379,-0.08948603,0.04523277
1.002677,-0.1128345,0.0649129
0.9639963,-0.1756441,0.09003701
0.9331808,-0.1919293,0.1182253
0.8800826,-0.1646592,0.1252153
0.8313091,-0.1983119,0.1271363
0.8240251,-0.2002389,0.1399142
0.8497153,-0.1675738,0.1420724
0.8536924,-0.1735012,0.1795405
0.8473067,-0.1363268,0.2138793
0.8648693,-0.1078721,0.1943323
0.8590025,-0.08808583,0.194682
0.8727811,-0.04054706,0.2056621
0.9091234,-0.05829105,0.1964141
0.9487708,-0.05712467,0.194276
1.02889,-0.05846707,0.1877275
1.078085,-0.1217802,0.1748787
1.113844,-0.1154085,0.1728189
1.143991,-0.07597593,0.203403
1.13685,-0.03345423,0.2590046
1.184817,0.01471476,0.2719285
1.252233,0.002793268,0.221982
1.276615,-0.03123177,0.1522173
1.253207,-0.1354154,0.09541568
1.193329,-0.3493991,0.08246093
1.148756,-0.5170906,0.1063853
1.035947,-0.5256004,0.108884
0.8773049,-0.4538303,0.08061645
0.8584241,-0.3571629,0.03991111
0.9454512,-0.1966777,-0.04370095
0.9958702,-0.1452744,-0.1361867
1.020146,-0.235496,-0.1157599
1.031806,-0.2379758,-0.01683906
0.9791904,-0.2498399,0.02857279
0.924505,-0.2935972,0.04142998
0.915594,-0.2429048,0.03504817
0.94484,-0.2067688,-0.0007242317
0.9912068,-0.1278243,-0.01796285
0.9695829,-0.01481071,-0.03264506
0.9543722,-0.005806082,-0.0265598
0.9821363,-0.008747595,-0.0169597
0.9892638,-0.01172566,-0.03520698
1.036351,-0.01785864,-0.02176482
1.054743,0.007367379,-0.01416111
1.014677,0.02005405,0.004631967
0.9964706,0.03105551,0.05561769
0.9655647,0.02386399,0.05641579
0.953086,0.016243,0.03945892
0.9686898,0.01663816,0.02203791
0.9771608,-0.02137963,0.003658258
1.008863,-0.07488478,-0.005233017
1.049897,-0.1377414,-0.02572584
1.092513,-0.1574759,-0.02607303
1.118814,-0.1123559,-0.01749121
1.097037,-0.05817708,-0.005649843
1.07141,0.02851506,0.007035411
1.070314,0.1046306,-0.001134304
1.091501,0.1075451,-0.001361231
1.151008,0.06796885,-0.002091526
1.196076,0.02500469,0.01278079
1.161089,0.02271322,0.0316079
1.113656,0.02821375,-0.0141657
1.109733,-0.01582017,-0.07867669
1.103861,-0.1001858,-0.105763
1.092881,-0.2297305,-0.1021005
1.084431,-0.3533852,-0.06749497
1.066232,-0.3793233,0.0122055
1.047692,-0.3598338,0.1084888
1.023249,-0.3473892,0.1343603
1.008024,-0.2748694,0.1017888
1.008837,-0.1921131,0.08934134
1.015476,-0.1605409,0.07609523
1.03578,-0.1256953,0.03533506
1.021596,-0.1201475,0.02043652
0.9633938,-0.1347922,0.04995565
0.9080388,-0.1321559,0.08982821
0.8788168,-0.1632037,0.1305697
0.9070175,-0.192682,0.1450447
0.933078,-0.1959345,0.1302482
0.9262356,-0.1816382,0.1295016
0.93567,-0.1499431,0.1249549
0.920548,-0.1480724,0.1157334
0.895759,-0.1502602,0.1292846
0.893011,-0.1356039,0.1463671
0.8993646,-0.132548,0.1675773
0.9335444,-0.1491965,0.1831993
0.9564485,-0.1697546,0.1853786
0.9728625,-0.1371021,0.1927501
0.9909813,-0.07913863,0.1843905
0.9871743,-0.04652625,0.1616413
1.001822,-0.02070419,0.1384011
1.009712,-0.02076628,0.1241779
1.031974,-0.06208435,0.135807
1.10951,-0.126896,0.1325641
1.163639,-0.1922816,0.1215125
1.228256,-0.3073295,0.1319318
1.319746,-0.4730066,0.1301213
1.265414,-0.4798339,0.1307721
1.018255,-0.3581702,0.1327923
0.7545293,-0.3039581,0.1173271
0.6885058,-0.2427363,0.09786292
0.853454,-0.2301334,0.03036474
1.028926,-0.2869352,-0.07895395
1.10241,-0.2808439,-0.1180966
1.099729,-0.3366575,-0.06016577
1.006221,-0.3611838,-0.003941781
0.9628562,-0.2695229,0.01836007
0.9979993,-0.2378693,0.02365513
1.015014,-0.1728752,-0.0125146
1.046456,-0.125725,-0.03110935
1.018136,-0.1455264,-0.008214088
0.9691607,-0.098431,-0.003226269
0.9811823,-0.09285727,-0.0005942205
0.9870028,-0.09606833,0.0123832
1.018038,-0.07645084,0.03307619
1.033994,-0.09241712,0.04258246
1.018447,-0.06358523,0.0361848
1.022007,-0.03460696,0.04962993
1.013142,-0.003830167,0.05028519
1.008693,0.03538728,0.04006588
1.002806,0.03748832,0.03678725
1.000427,0.04410139,0.02140824
1.003965,0.02699686,0.01350516
0.9984763,0.009937208,-0.006455322
1.013583,0.01600168,-0.03026551
1.024482,0.009977968,-0.02997774
1.034551,0.008768704,-0.03113027
1.047573,-0.001874309,-0.02604891
1.053244,-0.00731273,-0.01262433
1.072158,-0.01367536,0.00414932
1.079309,-0.04076064,0.02449507
1.097796,-0.05662478,0.03394886
1.122961,-0.06498211,0.03855267
1.11079,-0.03873188,0.04671702
1.110505,0.0063966,0.0785141
1.122864,0.01041535,0.1277964
1.122952,0.01858089,0.1533346
1.136206,0.05528541,0.1453078
1.147437,0.07310369,0.09794955
1.143821,0.05043786,0.02410648
1.127229,-0.01033194,-0.0296229
1.079938,-0.1207984,-0.04855674
1.012379,-0.2572037,-0.04155287
0.9446021,-0.3482339,0.01674419
0.8891187,-0.3803059,0.1143675
0.8796253,-0.3652624,0.1607955
0.9321646,-0.3136106,0.1465938
1.014659,-0.2508756,0.1216103
1.065912,-0.1865227,0.09161816
1.063709,-0.1697538,0.08999877
1.047624,-0.1966539,0.1173025
1.01185,-0.1977267,0.1339353
0.9326452,-0.1770851,0.1482066
0.8658814,-0.1479623,0.1511428
0.8504179,-0.1351041,0.1447542
0.8607146,-0.1613839,0.1589738
0.8962216,-0.2047737,0.1787326
0.9472539,-0.2554859,0.1998409
0.9582253,-0.277707,0.2238796
0.9426697,-0.2688855,0.2318756
0.9327945,-0.2437359,0.2273291
0.8952686,-0.166415,0.2206604
0.866383,-0.09284303,0.2266761
0.8884701,-0.08175869,0.2385015
0.9098038,-0.07456821,0.250319
0.9225837,-0.06791483,0.2745354
0.934594,-0.0921029,0.2815247
0.9354101,-0.09734202,0.2814694
0.9649378,-0.08146054,0.292833
1.014105,-0.07444184,0.2775362
1.04335,-0.05456262,0.2657519
1.069139,-0.03658747,0.2929645
1.077155,-0.02022876,0.3278237
1.046694,0.01038686,0.3537513
1.028263,0.02735041,0.3607162
1.073488,0.02181519,0.3262273
1.161791,-0.03759388,0.2626713
1.220006,-0.1422866,0.2237375
1.215513,-0.2311567,0.2081031
1.19138,-0.3320798,0.1823387
1.136834,-0.419535,0.1664393
0.9682295,-0.4008326,0.1500022
0.77441,-0.3408987,0.120921
0.7579528,-0.3054657,0.09401593
0.8969465,-0.2190443,0.003461939
1.020467,-0.1192844,-0.1206228
1.043315,-0.1264103,-0.10747
1.022322,-0.1821639,0.0007072323
1.041981,-0.1858411,0.05031688
1.037774,-0.1760581,0.05975036
0.9709242,-0.1804726,0.06165355
0.9323498,-0.1620608,0.06888037
0.9428393,-0.1400795,0.0767302
0.9551583,-0.1147862,0.04506242
0.9434084,-0.07998862,0.02777222
0.9415809,-0.08709363,0.02825848
0.965756,-0.09950723,0.01810703
0.9840003,-0.08029362,0.0202946
1.015784,-0.06029023,-0.003783128
1.032027,-0.01610631,-0.01698784
1.010341,0.04202109,0.01724385
0.9928219,0.0586962,0.04821068
0.9690929,0.04306634,0.06066107
0.9685422,0.01257542,0.05565356
0.9911881,-0.04048855,0.06198187
1.005059,-0.08443239,0.06286947
1.042262,-0.1033117,0.05241476
1.069395,-0.1123555,0.05909373
1.091734,-0.07694304,0.05032971
1.140578,0.01111742,0.04893384
1.154629,0.1024663,0.05360894
1.149106,0.1486982,0.04332527
1.174279,0.1343245,0.04596282
1.209537,0.1131379,0.04109473
1.224976,0.1066482,0.03078261
1.212451,0.08935316,0.004159984
1.196188,0.04847044,-0.05574336
1.163594,-0.07212034,-0.1299195
1.08488,-0.2396786,-0.1806216
0.994488,-0.3545333,-0.09045619
0.9368116,-0.4441201,0.08922272
0.956561,-0.4670322,0.1614451
1.022484,-0.3490919,0.1443743
1.036484,-0.1940056,0.1099944
1.027829,-0.08622849,0.06600849
1.030639,-0.0700634,0.05285744
1.019722,-0.1061598,0.05371304
0.9945103,-0.09239685,0.07866923
0.9202003,-0.1166138,0.1471949
0.8435307,-0.1501546,0.1768017
0.8235053,-0.127815,0.1765172
0.8366494,-0.1652803,0.1893897
0.8795944,-0.1832981,0.1842578
0.9074964,-0.1683855,0.1914169
0.9066114,-0.1696442,0.2059028
0.8957793,-0.112596,0.1921374
0.8727612,-0.08264336,0.1871061
0.8608865,-0.06100873,0.1965539
0.85584,-0.01946831,0.2087983
0.883974,-0.03871479,0.2210964
0.957616,-0.06786847,0.2140255
1.055117,-0.1030429,0.1968759
1.137297,-0.1008474,0.1909424
1.136203,-0.03634199,0.2051192
1.115759,0.02243512,0.2321991
1.117836,0.08458011,0.2545317
1.118394,0.1054134,0.2687028
1.160863,0.06365847,0.2599495
1.218879,-0.0672015,0.2127134
1.250008,-0.2651382,0.1607216
1.241045,-0.3606288,0.1486697
1.191638,-0.4354119,0.1624085
1.081593,-0.5144939,0.1561722
0.8703272,-0.4301339,0.1369038
0.7286677,-0.3527846,0.1162783
0.8226315,-0.2999737,0.04318542
1.004387,-0.1290159,-0.08158164
1.093987,-0.07972342,-0.1421721
1.070205,-0.1759697,-0.05490778
0.9877867,-0.213657,0.06380411
0.9374558,-0.2116136,0.0756356
0.9348729,-0.2123162,0.05131247
0.9366875,-0.2256472,0.04263288
0.9434561,-0.1921965,0.02671041
0.9218817,-0.1140859,0.02752255
0.9029134,-0.07080198,0.02687853
0.9419348,-0.0387859,0.02194317
0.9907499,-0.01727834,0.01523643
1.041898,0.02776077,0.003947923
1.048872,0.07534848,0.01217424
1.002719,0.07015688,0.01338813
0.9736337,0.07856253,0.01623413
0.9558528,0.06202738,0.02998713
0.9841189,0.01844621,0.02975341
1.034569,0.001261489,0.03485534
1.06033,-0.03623612,0.04891819
1.085027,-0.07507127,0.07373663
1.085001,-0.08434498,0.09336922
1.093293,-0.04166046,0.09112452
1.111261,0.03478481,0.09723668
1.102006,0.07765598,0.1061199
1.117278,0.0924028,0.09881805
1.182808,0.04136335,0.0709756
1.267779,-0.0518891,0.03773852
1.274257,-0.06287062,0.01344817
1.178072,-0.04464072,-0.07666762
1.105511,-0.07941695,-0.2220597
1.099098,-0.1203996,-0.2439429
1.106539,-0.1950537,-0.1304252
1.095391,-0.3397746,0.02482235
1.08776,-0.4036032,0.1825436
1.088457,-0.2858339,0.1712308
1.040189,-0.1392863,0.09123254
0.9925416,-0.06780959,0.1396064
1.000733,-0.04894753,0.08364576
1.001701,-0.0945251,0.02283191
0.9672165,-0.1343754,0.09684922
0.896944,-0.1313193,0.08195652
0.8274001,-0.1446632,0.1234767
0.8181222,-0.1573381,0.1895881
0.8435149,-0.173966,0.1565977
0.8643184,-0.1866112,0.1933248
0.8840789,-0.1672225,0.194873
0.892935,-0.1442327,0.1885388
0.8710576,-0.1013744,0.2296572
0.8522958,-0.05559646,0.216261
0.8654785,-0.03120497,0.22175
0.9031769,0.005307884,0.2092939
0.9749312,0.03346413,0.199315
1.051056,-0.00919545,0.2149592
1.10324,-0.09450688,0.1993665
1.127314,-0.09451326,0.2255647
1.121354,-0.03695623,0.2550286
1.131736,-0.02893238,0.2683724
1.17907,-0.07249742,0.2456567
1.26064,-0.1761291,0.1664795
1.306765,-0.2627667,0.1558327
1.218679,-0.3069737,0.1788089
1.103621,-0.3892926,0.1808602
1.037616,-0.4381733,0.1739368
0.9460158,-0.4122841,0.1279998
0.8956187,-0.347282,0.04567844
0.9426197,-0.2397643,-0.09465823
1.00533,-0.1549168,-0.1871922
1.035908,-0.1575758,-0.1465866
1.002567,-0.2053287,-0.06066584
0.9211576,-0.2326863,0.04940613
0.8829687,-0.2349189,0.1085816
0.8940393,-0.2169073,0.06750421
0.9209669,-0.1808888,0.04499383
0.9538078,-0.1278052,0.03936507
0.9428032,-0.07779566,0.01412676
0.929403,-0.07371954,0.02290679
0.9626484,-0.06650274,0.02419718
0.9870552,-0.02849848,0.005150436
1.012665,0.0149691,0.009804262
1.025844,0.06334591,0.003031233
0.9952715,0.07237229,0.004426061
0.9758619,0.05905801,0.01914652
0.974279,0.04257637,0.009851644
0.9794874,0.002436866,0.01336069
0.9983598,-0.01744275,0.01883561
1.046768,-0.0293178,0.01643304
1.113818,-0.05614464,0.02094156
1.124974,-0.07379388,0.02529498
1.122146,-0.07435169,0.05474683
1.153426,-0.0482327,0.08586119
1.145059,0.002844431,0.08943224
1.139184,0.06164194,0.07685249
1.198373,0.0723295,0.05983446
1.260371,0.02487161,0.03710436
1.273846,-0.009904415,-0.03306431
1.209816,-0.03290148,-0.1416344
1.099712,-0.1102445,-0.2075263
1.011663,-0.2596327,-0.1575242
0.9768535,-0.3820531,-0.01573859
1.030197,-0.393539,0.1204905
1.079152,-0.3449296,0.1741034
1.028818,-0.2448358,0.118813
0.9886369,-0.1051944,0.06914138
0.9882755,-0.05169371,0.05327455
0.9686972,-0.09131263,0.01678999
0.9392693,-0.115599,0.06522258
0.8838944,-0.1326331,0.1268255
0.8387617,-0.1669572,0.1225916
0.8384597,-0.1816947,0.1458558
0.837003,-0.2032401,0.1497941
0.8473854,-0.2136161,0.1590602
0.8659169,-0.178887,0.18604
0.8532583,-0.148496,0.1829093
0.8364747,-0.09683605,0.2128862
0.8352525,-0.03799096,0.233738
0.8637987,-0.02912801,0.2295634
0.9276975,-0.01626763,0.2324049
0.9760141,-0.002214752,0.2252604
1.026169,-0.02603698,0.2227533
1.13959,-0.07146096,0.2108982
1.223863,-0.0977556,0.2272479
1.191804,-0.05524928,0.2814771
1.180299,-0.01248461,0.3030197
1.254478,-0.06924867,0.2512514
1.29163,-0.154082,0.156966
1.269501,-0.190889,0.1326468
1.201836,-0.2780669,0.131719
1.11564,-0.4780272,0.08138036
1.085927,-0.6099623,0.07674758
0.9877669,-0.4880146,0.08065196
0.8034982,-0.2667576,0.01710394
0.8081042,-0.1643293,-0.05111909
0.9782171,-0.1432637,-0.09658988
1.084537,-0.1494962,-0.1320911
1.100904,-0.185683,-0.07819181
1.005429,-0.2560686,0.06939861
0.8710562,-0.2793918,0.1154989
0.8514697,-0.222445,0.06203408
0.8808461,-0.2241402,0.0419829
0.9102073,-0.1875581,0.001469795
0.9560545,-0.1119832,-0.03241025
0.979873,-0.1235529,-0.0240653
0.9972124,-0.08089623,-0.03403973
1.016001,-0.05611072,-0.03737915
1.039289,-0.04565213,-0.03722859
1.050596,0.02749383,-0.03495806
1.028098,0.01430846,-0.0001788257
0.995469,0.01329905,0.04244081
0.9715661,0.03331541,0.05956159
1.005432,0.006645327,0.03507535
1.067425,-0.001117576,0.01858762
1.084839,-0.04689492,0.03729677
1.067314,-0.08916714,0.05307124
1.042879,-0.09617983,0.0713529
1.047601,-0.07004934,0.08491838
1.053108,0.004359278,0.08853341
1.04676,0.02989628,0.1089631
1.073921,0.02133888,0.1143299
1.13204,0.009938603,0.08167469
1.213018,-0.02705251,0.04479249
1.236423,-0.05411543,0.004019028
1.166398,-0.07467398,-0.0815339
1.111302,-0.12835,-0.1884368
1.089935,-0.258718,-0.189139
1.077189,-0.3938783,-0.04568736
1.095729,-0.4110544,0.1111942
1.111737,-0.3490312,0.1608549
1.073692,-0.2463142,0.09501657
1.013638,-0.1169158,0.03269162
0.9921837,-0.0739497,0.02233587
0.98075,-0.1177004,0.003329726
0.9392305,-0.1325057,0.03605705
0.8895513,-0.1450061,0.1098509
0.8592509,-0.1820072,0.1375409
0.8509669,-0.1745655,0.1439313
0.8443141,-0.1631007,0.1332939
0.8503044,-0.1607913,0.1362638
0.8676293,-0.1214663,0.1545472
0.8691167,-0.1014944,0.1688069
0.8724513,-0.09916072,0.2054324
0.8771409,-0.08031308,0.2001994
0.8825569,-0.06818698,0.1861445
0.9077159,-0.06244287,0.200669
0.9473566,-0.06283668,0.1790697
0.9958631,-0.06592487,0.1747931
1.05106,-0.07264015,0.1797842
1.133126,-0.06774524,0.1699682
1.191737,-0.04086692,0.2025115
1.180437,-0.02772165,0.2390485
1.213406,-0.0367952,0.2383724
1.27146,-0.07925145,0.1985057
1.241848,-0.1709172,0.1462497
1.188048,-0.3009605,0.1239065
1.130976,-0.4254726,0.1224245
1.031777,-0.4919776,0.1314351
0.8965254,-0.4934655,0.1309006
0.8080465,-0.4045609,0.08261136
0.8877267,-0.2572337,-0.02861387
1.007599,-0.1514589,-0.1389313
1.048178,-0.1361219,-0.1418965
1.057234,-0.1990904,-0.05052113
0.9775287,-0.2408612,0.0550408
0.8877797,-0.2333495,0.1199182
0.8825985,-0.2186157,0.110344
0.8987424,-0.174482,0.07561083
0.9282478,-0.1158999,0.05605765
0.9213386,-0.07165493,0.02850935
0.9190389,-0.05756357,0.008210842
0.9658084,-0.03504112,-0.01284397
0.9825523,0.01606247,-0.0451579
0.9947316,0.006296923,-0.03589592
1.004664,-0.009383751,-0.003639078
1.021129,0.02582321,0.01084448
1.03084,0.02464055,0.02265865
1.000777,0.01921141,0.02124946
0.9992814,0.03577825,0.0188992
0.985166,0.03148655,0.02549121
1.003494,0.009866366,0.01420867
1.096565,-0.06034446,0.003710307
1.126854,-0.1314687,0.003379744
1.120284,-0.104178,0.01403861
1.119686,-0.04227294,0.04818762
1.113051,0.01080892,0.07393801
1.106298,0.07675258,0.08119742
1.111442,0.06688947,0.07283222
1.194076,0.002195313,0.04125659
1.258033,-0.02150641,0.004688207
1.207493,-0.04399854,-0.05839323
1.126386,-0.06416626,-0.1639341
1.071244,-0.13661,-0.2104272
1.03899,-0.2972418,-0.08968911
1.048037,-0.3688795,0.08203527
1.115184,-0.3361203,0.1178064
1.143041,-0.2658799,0.0744389
1.078351,-0.1447382,0.05207238
0.9986782,-0.1065863,0.03751868
0.9518526,-0.179511,0.03808493
0.9094752,-0.2088378,0.05889896
0.8348494,-0.1785226,0.08477404
0.8125145,-0.1663973,0.09836847
0.8322789,-0.1664188,0.10285
0.8315849,-0.1577792,0.1233929
0.8766605,-0.1603646,0.1466577
0.9070834,-0.1541693,0.1469458
0.9109011,-0.1231775,0.1483627
0.9255961,-0.08664377,0.1690308
0.8969724,-0.0483444,0.1686904
0.8742202,-0.003908905,0.1724491
0.8815276,0.02717032,0.2067695
0.9317219,0.004873522,0.2123865
1.02345,-0.04243071,0.210978
1.069589,-0.08768253,0.214581
1.077578,-0.1187081,0.1969157
1.101058,-0.05561888,0.1995358
1.129837,0.04501373,0.2191863
1.142674,0.06891694,0.2336117
1.200953,0.02580342,0.2191991
1.289297,-0.08173788,0.1521404
1.297286,-0.235609,0.08440199
1.270731,-0.412876,0.06753816
1.191086,-0.5520137,0.08784884
0.9773027,-0.5525915,0.09088746
0.7709923,-0.4592343,0.07915507
0.7511296,-0.3287526,0.04970942
0.9040157,-0.1964292,-0.03535363
1.038928,-0.1573216,-0.06947521
1.05262,-0.2009948,-0.007781575
0.9851872,-0.2322647,0.04823914
0.8966152,-0.2266954,0.07373615
0.8816569,-0.2125234,0.05912392
0.9122034,-0.1803722,0.0302162
0.9354625,-0.1437182,0.01864592
0.9739637,-0.124699,-0.008461331
0.9816841,-0.09756856,-0.02609549
0.9778096,-0.0898402,-0.02183985
0.9907368,-0.09250467,-0.0137281
0.9875349,-0.07307228,0.001392431
0.9831948,-0.04939682,0.008755575
0.9775203,0.001990693,0.01817288
0.9785647,0.0440752,0.02624309
0.9962265,0.04911573,0.02011899
1.015592,0.04953619,0.01992283
1.036111,0.02019727,0.01953356
1.051943,-0.01983242,0.01835742
1.064016,-0.05669244,0.0309848
1.066,-0.07810246,0.05431674
1.067092,-0.02971828,0.08354142
1.085511,0.03983974,0.08973556
1.122913,0.06815609,0.05933013
1.217752,0.02685926,0.03391899
1.328879,-0.07831771,0.03164255
1.325286,-0.1719364,0.00617754
1.208427,-0.2142281,-0.07933397
1.076699,-0.2117206,-0.1622533
0.9906041,-0.2527936,-0.1425186
0.9930055,-0.3485778,-0.02413033
1.082436,-0.3601094,0.1019191
1.174859,-0.3248638,0.1474517
1.157044,-0.2899779,0.1107948
1.031792,-0.1575533,0.07125535
0.9441851,-0.01991157,0.03652985
0.9559604,-0.05080438,0.01262733
0.9726719,-0.1393387,0.04411156
0.9237944,-0.1477855,0.07413559
0.8785431,-0.1864741,0.1004762
0.8743101,-0.1992412,0.1389221
0.8341644,-0.1414294,0.1428224
0.8137942,-0.169923,0.1513721
0.8519954,-0.1692012,0.1537371
0.8563656,-0.140325,0.1576996
0.8496985,-0.1572786,0.1872015
0.8382709,-0.09697751,0.1858479
0.8164401,-0.06754447,0.19836
0.8441187,-0.06123915,0.2024985
0.8971163,-0.01690375,0.1798375
0.9588745,-0.02365688,0.1806459
1.031011,-0.04079978,0.1519956
1.106211,-0.08546133,0.1444068
1.187139,-0.1001582,0.1787611
1.213261,-0.03099154,0.212435
1.193893,0.04197126,0.2533758
1.223694,0.08464434,0.2416529
1.268359,0.02729797,0.194476
1.259177,-0.1108465,0.1302301
1.249809,-0.3342038,0.06757686
1.227414,-0.5870731,0.07141366
1.070765,-0.6405359,0.07893642
0.8302812,-0.547949,0.07581692
0.7478847,-0.4372872,0.06799799
0.8677791,-0.3046646,-0.004534499
0.9728483,-0.2358577,-0.08746519
1.002501,-0.2587167,-0.08555054
0.9836803,-0.284445,0.002838303
0.8929132,-0.2779881,0.07976293
0.8454079,-0.2681613,0.07901408
0.8567428,-0.2285802,0.03665804
0.8770387,-0.1777595,0.006748175
0.9308037,-0.1588739,0.01132141
0.9563886,-0.1198922,0.01324005
0.9857872,-0.07843371,0.008322678
1.012712,-0.05657419,0.02035722
0.987279,-0.03236654,0.03015311
1.001014,-0.00507764,0.04171548
1.010367,0.04144493,0.04020843
0.9994116,0.07036932,0.01926102
1.012475,0.07092099,0.01359855
1.001833,0.05352515,0.01538399
1.013596,0.01131395,0.02541109
1.035967,-0.037573,0.05960527
1.033685,-0.08717928,0.1109111
1.040807,-0.0794105,0.1401918
1.043418,-0.01418079,0.1145411
1.062686,0.04867226,0.09481439
1.105888,0.07754755,0.1029115
1.183927,0.01772609,0.08950556
1.273832,-0.0570515,0.05970112
1.267335,-0.09594186,-0.01501052
1.221808,-0.1761606,-0.1361425
1.21414,-0.278772,-0.1855441
1.174881,-0.3643044,-0.1113634
1.119892,-0.3957061,0.02394008
1.08919,-0.3545556,0.130576
1.039679,-0.2629735,0.1317337
0.9641397,-0.1199084,0.06375854
0.9195461,-0.05381952,0.03077057
0.9386875,-0.123147,0.02467395
0.9488337,-0.1710402,0.0185766
0.9175847,-0.1917291,0.03581782
0.9013557,-0.2203317,0.05407103
0.8561939,-0.2036503,0.1033952
0.7971667,-0.2083642,0.1717563
0.8305466,-0.2205175,0.164731
0.8779302,-0.188911,0.1498008
0.8731453,-0.1826599,0.1799759
0.8814547,-0.1700762,0.1975687
0.8756872,-0.1385175,0.2233538
0.8567058,-0.1060584,0.2429679
0.9046171,-0.04100431,0.2154091
0.9783574,-0.004964149,0.1907458
1.016095,-0.009661684,0.1831178
1.034697,-0.05834687,0.1766908
1.049619,-0.1502826,0.1873098
1.06696,-0.1717853,0.2016822
1.065735,-0.1256939,0.2350338
1.061029,-0.06392954,0.2883406
1.104179,-0.003522973,0.2853428
1.190931,-0.02249019,0.2062569
1.271498,-0.1508045,0.1030334
1.266125,-0.3488877,0.05925012
1.217017,-0.5060299,0.0906179
1.147167,-0.5109967,0.1073994
0.9379204,-0.4130474,0.1063344
0.7801759,-0.2959335,0.09776772
0.8650787,-0.1789839,0.02379579
0.9936113,-0.14199,-0.08416851
1.092907,-0.2311858,-0.1372793
1.12213,-0.3438484,-0.07221838
0.9958558,-0.3890858,0.04960077
0.8839142,-0.3684726,0.09064176
0.8573032,-0.3054254,0.06809236
0.877453,-0.202973,0.04360659
0.9386367,-0.1005408,0.02084154
0.9611163,-0.05263376,-0.00774862
0.9785739,-0.03305783,-0.04887836
0.991764,-0.02789334,-0.04157583
0.9803116,-0.02842774,-0.006980623
1.007241,-0.004928084,-0.002082187
1.002823,0.009784993,0.01859535
0.986528,0.01197994,0.04033668
0.9981238,0.01493383,0.04978322
0.9906498,0.01016411,0.04926748
1.004534,0.007342165,0.03441776
0.9935775,-0.01979633,0.05850379
0.9690668,-0.05918109,0.09296095
0.9923732,-0.06089598,0.1035281
1.036343,-0.04263906,0.1018956
1.105697,-0.02138717,0.08367687
1.119137,0.01715808,0.08295613
1.100766,0.07721183,0.08421393
1.13637,0.1317285,0.0766314
1.147116,0.1121267,0.07786068
1.186772,0.02376512,0.04256294
1.26256,-0.0218246,-0.02209594
1.231626,-0.005361145,-0.07626828
1.150553,-0.03828957,-0.1345975
1.073096,-0.2062275,-0.2023154
1.000502,-0.390513,-0.1859817
1.036585,-0.4131128,-0.04008242
1.100499,-0.4119135,0.08691972
1.088686,-0.4058021,0.1094053
1.068855,-0.2115915,0.06164525
1.01857,-0.07011851,0.01674284
0.9915684,-0.0803599,0.01973767
1.016026,-0.06854184,0.005198301
0.9701402,-0.1056322,0.02046489
0.9190115,-0.1459197,0.06953946
0.886081,-0.17349,0.07126269
0.8437586,-0.2294817,0.0926339
0.8529195,-0.2322989,0.1246036
0.8544708,-0.2464343,0.1587999
0.8459923,-0.2365769,0.1973619
0.849714,-0.1790146,0.1870183
0.8466572,-0.1379305,0.1840253
0.8670686,-0.0738036,0.1815055
0.8816889,-0.04675502,0.1773895
0.899291,-0.03621962,0.1921585
0.9557535,-0.01002699,0.1838741
1.025647,-0.01649118,0.1876449
1.058913,-0.02546941,0.1910177
1.060459,-0.06172809,0.1912006
1.099218,-0.08063597,0.2251373
1.133556,-0.04321307,0.2507787
1.147586,-0.001611619,0.2523599
1.200647,0.01769529,0.2246117
1.260458,-0.06295744,0.1783003
1.291837,-0.2277076,0.1410174
1.272935,-0.3911581,0.1272232
1.221264,-0.5058648,0.1364477
1.0983,-0.5190884,0.1266401
0.8422619,-0.4355557,0.1128754
0.7093572,-0.2874393,0.07778018
0.8488954,-0.1505783,-0.02936087
1.005976,-0.1011059,-0.1265701
1.095503,-0.1288536,-0.1315871
1.115676,-0.1857897,-0.03189557
0.9906964,-0.2292806,0.1016261
0.8805796,-0.2437538,0.1413075
0.8606574,-0.2103891,0.088645
0.8695419,-0.1506881,0.03939407
0.907773,-0.09658314,0.02033083
0.9071803,-0.067506,0.003198847
0.9222839,-0.08818949,0.001338908
0.9635053,-0.08875435,0.008053853
0.9703992,-0.07158128,0.003076063
1.017593,-0.06134406,0.01460023
1.027842,-0.005353036,0.02001443
0.9962384,0.02106002,0.02072914
0.9991484,0.02033845,0.03284962
0.9865525,0.02310821,0.02631512
1.001958,-0.02902988,0.03117983
1.037677,-0.06915011,0.0392622
1.070448,-0.08506433,0.03867368
1.092181,-0.08981716,0.06676621
1.072724,-0.04645373,0.09213809
1.089044,0.02360955,0.09339678
1.115978,0.1067668,0.08049656
1.139683,0.1147865,0.06048317
1.22655,0.01868507,0.04217768
1.287271,-0.08395954,0.01238634
1.248142,-0.1341106,-0.06686242
1.185428,-0.1218215,-0.1946704
1.143406,-0.1654626,-0.2245848
1.058055,-0.2893588,-0.08783646
1.005267,-0.3588711,0.06306672
1.05463,-0.3599654,0.1147379
1.050704,-0.2729741,0.08908859
1.009233,-0.1303588,0.06367051
1.007734,-0.0785821,0.03799906
0.9993644,-0.1008511,-0.001018187
0.994315,-0.1215715,0.02373033
0.9356543,-0.1461301,0.08270499
0.8364135,-0.1679808,0.1263351
0.789432,-0.1813889,0.1494113
0.7838248,-0.1936265,0.1232146
0.8143856,-0.192039,0.1224635
0.8433327,-0.1746508,0.1478025
0.8568269,-0.1552913,0.1598158
0.8707027,-0.1259532,0.1990652
0.8622146,-0.1094233,0.1994807
0.864897,-0.1114552,0.1805211
0.8813933,-0.08245749,0.1984288
0.8946991,-0.04608688,0.1899086
0.9132306,-0.04075427,0.1901915
0.9517514,-0.05631665,0.2038018
1.053462,-0.08584813,0.1940861
1.163594,-0.1152451,0.1988232
1.204126,-0.1141986,0.2105742
1.203941,-0.04925841,0.2365172
1.206801,0.02000269,0.2601908
1.224403,0.009680138,0.2303508
1.227264,-0.06128174,0.1912691
1.192609,-0.1900105,0.1703689
1.159586,-0.372191,0.1271706
1.149609,-0.5138468,0.06835803
1.073977,-0.5380246,0.03934617
0.8955004,-0.4504625,0.03633755
0.8061965,-0.3079404,0.007386586
0.9153145,-0.1871598,-0.0673299
1.041066,-0.1431892,-0.1113996
1.051793,-0.1798007,-0.05330207
0.9878584,-0.2322555,0.03592927
0.9014966,-0.2388056,0.07452499
0.8667722,-0.2345222,0.06220317
0.8960924,-0.222346,0.03289437
0.9112407,-0.1784984,0.02737749
0.922417,-0.141065,0.02139051
0.9403789,-0.0979993,0.0138554
0.9447377,-0.04707411,0.02478234
0.9663162,-0.002532582,0.02327486
0.9692266,0.03285813,0.03603249
0.9560665,0.05330854,0.05352849
0.9667956,0.08417347,0.03865534
0.963536,0.06629399,0.02394051
0.977224,0.01740998,0.007784119
1.01263,-0.009175248,0.007143139
1.016226,-0.08395255,0.02905639
1.016008,-0.1364324,0.03883839
1.043657,-0.1420331,0.04742526
1.11083,-0.1415406,0.04641419
1.175216,-0.04469191,0.03993044
1.179559,0.1016417,0.04244976
1.169276,0.1833959,0.03571759
1.190086,0.1596467,0.03334469
1.240454,0.06978156,0.02766914
1.288512,-0.003227637,0.01137868
1.269583,-0.04956224,-0.009011238
1.191423,-0.08576747,-0.09291679
1.108216,-0.1814012,-0.1932959
1.056889,-0.2694668,-0.1432904
1.078367,-0.3020785,0.02897612
1.105775,-0.4051066,0.1544251
1.08109,-0.3949795,0.1594122
1.064682,-0.2417626,0.09701285
1.015517,-0.1541981,0.07912042
0.9662263,-0.06971921,0.07433378
0.9981648,-0.09055312,0.05538671
0.9962829,-0.1563976,0.0852063
0.9659815,-0.1031824,0.08283011
0.9265543,-0.1405185,0.08069625
0.827832,-0.1925429,0.1309515
0.8008805,-0.2039196,0.1396171
0.843457,-0.253318,0.1523418
0.8609255,-0.2163248,0.1613632
0.8871768,-0.2099976,0.1582307
0.8868016,-0.2109654,0.1744098
0.8644615,-0.1322199,0.1603523
0.883871,-0.1055585,0.1812854
0.8916705,-0.06000585,0.2092549
0.8810585,-0.01685239,0.199344
0.9058456,-0.02042761,0.1963863
0.9435479,-0.01277594,0.1698215
1.001758,-0.0408341,0.1637828
1.073448,-0.05422402,0.1676142
1.099377,-0.03552598,0.1627385
1.101503,-0.01079196,0.1936599
1.120978,0.01152085,0.2141334
1.173352,-0.02765735,0.2249406
1.253231,-0.1174778,0.2060485
1.299769,-0.2388732,0.1635598
1.255717,-0.3530366,0.1578254
1.17505,-0.4586235,0.1400776
1.102185,-0.5398266,0.1366146
0.9302299,-0.476943,0.1517755
0.7743585,-0.3479519,0.09333665
0.8283234,-0.2449091,0.002214546
0.9278556,-0.1619357,-0.06302645
1.022659,-0.1873062,-0.08892783
1.112162,-0.2475942,-0.07348411
1.040099,-0.2764784,-0.03448561
0.9490115,-0.3151561,0.04380514
0.9200631,-0.2951604,0.08934316
0.8713982,-0.2640025,0.0453869
0.9020441,-0.2333168,0.01187668
0.9363751,-0.1639383,0.00135695
0.9106204,-0.1494186,-0.0206119
0.9425754,-0.143083,-0.01537187
0.9762611,-0.1286069,-0.01131356
0.9957926,-0.1236418,-0.01754371
1.023337,-0.05220056,0.001652372
1.005628,0.02878375,0.01778912
0.9886736,0.09062508,0.02670327
0.9764845,0.1138821,0.04508879
0.9717514,0.08299505,0.05365327
1.003144,0.06946083,0.05120507
1.029122,0.02734829,0.05182015
1.059215,-0.04592398,0.06404818
1.075319,-0.09665057,0.08450989
1.067093,-0.1128984,0.1011366
1.075556,-0.03928305,0.1100818
1.069382,0.06043707,0.117289
1.07549,0.07689813,0.1255122
1.15676,0.0232637,0.1058993
1.270086,-0.03513794,0.05709109
1.309382,-0.05848347,0.005421746
1.257971,-0.07604213,-0.08387298
1.213514,-0.1217482,-0.183859
1.138231,-0.2334831,-0.1892531
1.027522,-0.3907284,-0.1106132
1.032087,-0.4298361,0.04305521
1.07069,-0.3261459,0.219389
1.041599,-0.2029678,0.1672208
1.021059,-0.06650972,0.02379372
0.9977677,-0.01191833,0.08128954
0.9832976,-0.1096539,0.078032
0.9680867,-0.1627605,0.01808958
0.9038324,-0.155986,0.08123364
0.8686143,-0.1867199,0.08260021
0.81557,-0.2013171,0.1224796
0.7444854,-0.2174052,0.1753674
0.7965011,-0.2194189,0.1265008
0.8562771,-0.2120407,0.1612995
0.8673086,-0.2219106,0.1804597
0.8944919,-0.1736457,0.1772119
0.8837483,-0.1148719,0.2199385
0.8949226,-0.08401679,0.1993232
0.9173177,-0.05813344,0.1957417
0.9085843,-0.01441619,0.1998138
0.9374918,0.06798933,0.1849558
0.9722483,0.05935687,0.1953744
1.035643,-0.02533324,0.194133
1.104614,-0.08289354,0.2118456
1.121427,-0.1268685,0.2519299
1.139742,-0.07788192,0.2944322
1.147818,0.001496355,0.298864
1.197804,-0.0127252,0.2333929
1.256193,-0.0997401,0.154871
1.237445,-0.2947582,0.09898884
1.240479,-0.4864678,0.08419328
1.224857,-0.538798,0.08241856
1.100624,-0.5289751,0.08242298
0.8833558,-0.4423002,0.09545927
0.7275639,-0.2878361,0.05953981
0.8346801,-0.1896302,-0.02965461
1.002171,-0.1228153,-0.1306102
1.041039,-0.09603671,-0.1604921
1.037175,-0.1750226,-0.0622046
0.9668781,-0.2406245,0.04689168
0.9079708,-0.235011,0.09356625
0.9250782,-0.2214335,0.09179541
0.9546006,-0.1744314,0.0451125
1.002567,-0.1098641,0.0101404
0.9825719,-0.06281545,0.01222527
0.9481552,-0.02520849,0.02396637
0.9873253,-0.009551623,0.0284875
0.9899828,-0.001051154,0.03412461
1.003183,-0.001474286,0.04150676
1.013129,0.005808541,0.03340251
0.9656577,0.02892097,0.03198585
0.952625,0.02730974,0.03223683
0.9501915,0.01221895,0.03308354
0.9732759,-0.01417681,0.05077652
1.023784,-0.03917425,0.04620155
1.04339,-0.057479,0.03935388
1.061321,-0.09241478,0.04687363
1.07289,-0.1031975,0.04874014
1.099994,-0.08625186,0.06590541
1.119672,-0.05669675,0.08095409
1.096135,0.005918487,0.09302023
1.097,0.09074287,0.09968625
1.118235,0.1305841,0.08536886
1.172596,0.06920406,0.07624483
1.248349,0.000176097,0.03301537
1.245103,-0.01774938,-0.05932539
1.201751,-0.05917468,-0.1468319
1.158834,-0.151291,-0.1830329
1.068681,-0.2820588,-0.1148932
0.993702,-0.3775604,0.01468251
0.9945904,-0.3807327,0.1140006
1.01887,-0.3085663,0.1273208
1.037766,-0.1661507,0.06698059
1.042943,-0.05133414,0.04198954
1.048487,-0.03765292,0.04184242
1.067661,-0.05966752,0.02458586
1.032766,-0.07375733,0.04535587
0.9555279,-0.08466667,0.07525398
0.883654,-0.110469,0.1023949
0.821346,-0.1361264,0.1247257
0.823356,-0.1613172,0.1221906
0.8669217,-0.2034273,0.1376224
0.9052669,-0.2186732,0.1428819
0.9266098,-0.2082508,0.1390894
0.9103236,-0.1772811,0.1569745
0.9100644,-0.1260784,0.1617255
0.9190101,-0.1096857,0.1635368
0.905098,-0.08168113,0.1642581
0.9067816,-0.01890412,0.1731361
0.9128378,-0.01582353,0.1877091
0.9356866,-0.03609964,0.1773751
0.9888259,-0.01763309,0.1744905
1.035159,-0.04298188,0.1731189
1.073763,-0.100203,0.1671564
1.095765,-0.1049784,0.174673
1.09449,-0.08008406,0.1784703
1.094445,-0.03153147,0.1924016
1.109655,0.006863479,0.2001602
1.153563,-0.02830462,0.1768365
1.214019,-0.1057936,0.1457364
1.246861,-0.2309782,0.1270443
1.258258,-0.3940082,0.1315201
1.239604,-0.4683479,0.1271485
1.076285,-0.4129533,0.09450031
0.8212184,-0.3216099,0.06651367
0.7580236,-0.2212675,0.04107123
0.9174903,-0.1280227,-0.03211969
1.054127,-0.141413,-0.1394111
1.077418,-0.2244871,-0.1454799
1.022461,-0.307806,-0.03868874
0.9432938,-0.3738142,0.03771595
0.9397407,-0.3455262,0.06060188
0.9734942,-0.2914831,0.03998921
0.9743729,-0.2271521,0.0006190288
0.9781564,-0.08884868,-0.001390602
0.9755184,-0.01397352,-0.01535183
0.9771814,-0.01368819,-0.02948099
0.9867941,-0.02517038,-0.02740076
0.9841074,-0.06282061,-0.03415746
1.001983,-0.07937028,-0.01286882
1.015286,-0.09485321,-0.009764419
1.015206,-0.08656056,-0.01150302
1.014051,-0.04695507,0.01974933
1.002249,-0.04703415,0.03354905
1.001125,-0.04301845,0.05067229
0.9986515,-0.0289316,0.05093007
1.010631,-0.01526849,0.03683444
1.034829,-0.001594108,0.04279138
1.031719,-0.0331931,0.04126593
1.032507,-0.07179536,0.05456677
1.045608,-0.0942613,0.05908867
1.061109,-0.09886348,0.04681714
1.072155,-0.08838649,0.05062774
1.064849,-0.09905863,0.05264639
1.06067,-0.1026671,0.07306225
1.05999,-0.09155456,0.09222274
1.062522,-0.06288702,0.08970393
1.081349,-0.01835463,0.09944114
1.0994,-0.01929298,0.1079471
1.103513,-0.02488944,0.09600665
1.107508,0.004541233,0.06175135
1.115308,-0.0009253586,0.02910602
1.108926,-0.05908011,0.007615349
1.100592,-0.1408238,-0.0521184
1.089858,-0.199307,-0.1137401
1.028858,-0.2352171,-0.06870089
0.9039402,-0.3393799,0.03528107
0.787343,-0.4306795,0.1072658
0.7794893,-0.3923289,0.1536647
0.8388228,-0.3499752,0.1349193
0.9112376,-0.3193403,0.1045592
1.065611,-0.2547068,0.1118255
1.198512,-0.2499906,0.06569184
1.180661,-0.2424997,0.04232643
1.116367,-0.1861468,0.05994104
1.039063,-0.1437617,0.06746354
0.9328548,-0.1040696,0.1278646
0.8973851,-0.1024701,0.1501407
0.9324902,-0.1365217,0.1465278
0.9739408,-0.173312,0.1985855
1.012868,-0.2001109,0.2122556
0.9746331,-0.1732256,0.188034
0.8691497,-0.1418365,0.1642886
0.828173,-0.1267828,0.1564428
0.8312583,-0.115704,0.1521364
0.8488039,-0.1409302,0.1262973
0.9322379,-0.1521188,0.115797
1.060709,-0.121667,0.08308507
1.182908,-0.06540904,0.05094211
1.238545,-0.01401128,0.05205331
1.229765,-0.03726248,0.0319094
1.157538,-0.1089743,0.05973689
1.028117,-0.1788336,0.1170757
0.9542543,-0.2432531,0.1084255
0.9160559,-0.2754381,0.09361969
0.8965017,-0.2790103,0.08257234
0.9287082,-0.2726147,0.05095892
0.9143524,-0.2536994,0.04958925
0.9106743,-0.2283105,0.06057465
0.9719334,-0.2164743,0.0449098
1.045299,-0.2259175,0.03145566
1.15697,-0.2202527,0.01722
1.195243,-0.2016033,0.000917173
1.105372,-0.1910041,0.02434102
1.001625,-0.1608064,0.06284786
0.8427022,-0.2571696,0.08107837
0.8036625,-0.2341255,0.1143656
0.8472238,-0.1868383,0.1240403
0.886628,-0.1522792,0.1267159
0.8544636,-0.1207775,0.1511315
0.8678005,-0.09735984,0.1469332
0.8658944,-0.06664563,0.1706478
0.855331,-0.07172237,0.1953078
0.8826556,-0.06822907,0.2090659
0.9240633,-0.02532476,0.2340127
0.9985668,-0.03068098,0.2077104
1.058463,-0.04817739,0.1943295
1.092616,-0.09035748,0.1909651
1.116711,-0.1356547,0.2005901
1.115847,-0.1163416,0.2645553
1.122214,-0.1105955,0.2802339
1.172874,-0.1185041,0.2353158
1.266365,-0.1695015,0.1494098
1.316577,-0.3093423,0.06489537
1.275032,-0.435024,0.05701135
1.167721,-0.4654737,0.0843636
0.9601207,-0.4038466,0.1016548
0.7378438,-0.319029,0.07820514
0.7256519,-0.2150558,0.01621359
0.9144896,-0.1111496,-0.08436787
1.088823,-0.1176436,-0.1805957
1.125312,-0.2067089,-0.1512486
1.030533,-0.3071662,-0.04550504
0.922155,-0.3582965,0.05626008
0.8751545,-0.3135602,0.1062821
0.8605233,-0.2592391,0.05396347
0.8927879,-0.2009462,0.01523628
0.932284,-0.1008691,-0.01070181
0.9442314,-0.04606112,-0.06356306
0.9494637,-0.05473413,-0.03455187
0.9361929,-0.069119,-0.001982182
0.9555943,-0.06022435,-0.01463021
0.9871456,-0.02878718,-0.005112177
0.9957117,0.01498462,-0.02131905
1.014389,0.05748307,-0.02663177
1.017441,0.04419672,-0.003700417
1.057573,0.004252165,-0.002368876
1.107573,-0.006245498,0.007086466
1.081126,-0.01961592,0.01485874
1.059659,-0.03097482,0.03663501
1.058809,-0.04396938,0.07098462
1.061253,-0.03024423,0.07632335
1.090306,0.03837349,0.08931358
1.11759,0.08839671,0.08952083
1.14938,0.09009639,0.05188238
1.207187,0.004169233,0.01566221
1.251963,-0.1286228,-0.006500575
1.19487,-0.1689083,-0.05058509
1.071129,-0.1505281,-0.1486043
1.031038,-0.1931735,-0.1873753
1.083498,-0.3187849,-0.1156506
1.177469,-0.4100251,-0.03867139
1.248452,-0.395819,0.03846232
1.17005,-0.3101774,0.08311291
1.010148,-0.1638662,0.05201521
0.9354637,-0.06739476,0.03300924
0.923955,-0.07196963,0.02875477
0.9229679,-0.0921638,0.01440701
0.9225078,-0.1100571,0.02437315
0.9108881,-0.129537,0.02732615
0.9012634,-0.1771136,0.03212781
0.8631854,-0.2364514,0.07017236
0.8213013,-0.2627153,0.0950867
0.8287002,-0.2761109,0.1103032
0.8441706,-0.2552913,0.1410064
0.8662107,-0.2026605,0.1640422
0.8916707,-0.1456022,0.1811651
0.9021672,-0.08777611,0.1998132
0.9172259,-0.05662668,0.2069816
0.9358975,-0.02352435,0.1992068
0.993177,0.004447245,0.1832713
1.054599,-0.02311892,0.1628531
1.059366,-0.05888091,0.1613373
1.065157,-0.07712324,0.1977635
1.073259,-0.07761608,0.2366919
1.073225,-0.04476251,0.2492727
1.121254,-0.0383858,0.22255
1.20459,-0.1181848,0.156426
1.244022,-0.2726983,0.09805054
1.214095,-0.409065,0.07806982
1.178089,-0.4703762,0.05754221
1.107165,-0.5105636,0.006787788
0.9691158,-0.4640768,-0.008224094
0.9150006,-0.2998413,-0.01874474
0.9593552,-0.1959878,-0.09401615
0.9967308,-0.1871397,-0.1164035
1.043863,-0.2014598,-0.09118291
1.028047,-0.2436852,-0.04562428
0.9280412,-0.2848588,0.07346414
0.8624247,-0.2803066,0.09524275
0.8331817,-0.2291634,0.02805921
0.8626117,-0.176218,0.01038282
0.914621,-0.1255261,-0.03037138
0.9164829,-0.08943869,-0.04818791
0.9586119,-0.09490842,-0.03048976
1.003342,-0.06616271,-0.0458886
1.009774,-0.01383309,-0.03200286
1.022064,0.03099896,-0.001740199
1.000261,0.08741846,0.01175323
0.989567,0.08957498,0.01458402
0.9882833,0.05684714,0.009694399
0.9828469,0.02021856,0.02890537
1.013807,-0.02188641,0.04307238
1.032457,-0.04660539,0.05319543
1.051321,-0.0807391,0.08774626
1.057749,-0.07161688,0.1068071
1.056082,0.01006988,0.102024
1.109909,0.1049742,0.08883232
1.176429,0.1359008,0.06672756
1.262195,0.0354889,0.02400149
1.306673,-0.08151947,-0.04274203
1.227037,-0.1182999,-0.1266835
1.149403,-0.1467434,-0.2060394
1.116628,-0.2426096,-0.1808249
1.105624,-0.37748,-0.04332702
1.203957,-0.3896732,0.08155427
1.305058,-0.2973021,0.1201868
1.167199,-0.2090485,0.07285355
0.9572908,-0.08063424,0.03702758
0.9313472,-0.0205913,0.02326732
0.921268,-0.06468996,-0.007064996
0.855072,-0.08416518,0.02968421
0.8238732,-0.1214689,0.06236634
0.8073837,-0.1412571,0.05737337
0.8190139,-0.1296464,0.1074897
0.7992835,-0.1761088,0.1406497
0.7838503,-0.1841278,0.1385169
0.844249,-0.1639916,0.1334317
0.8719895,-0.1740656,0.1345329
0.8740486,-0.130991,0.1575716
0.8498051,-0.07691595,0.1822657
0.8184797,-0.03978939,0.2397429
0.8814546,-0.0005722858,0.2647055
0.9772783,0.003655093,0.2234162
1.054683,-0.01608037,0.190685
1.08947,-0.06769951,0.1598195
1.142044,-0.1082222,0.1744865
1.239577,-0.07405327,0.2160157
1.235285,-0.04312366,0.2226264
1.273322,-0.06704923,0.2161121
1.367788,-0.1161839,0.1685477
1.233647,-0.2313167,0.1141777
1.081694,-0.4269453,0.08737248
1.089953,-0.566201,0.0445894
0.994212,-0.5689129,0.008149798
0.8577397,-0.467451,0.002450641
0.8943581,-0.309276,-0.019972
0.9745386,-0.2249385,-0.0730824
1.002639,-0.2465232,-0.07141678
1.006531,-0.2653925,-0.008496178
0.9578188,-0.2606056,0.03238771
0.8926509,-0.2365132,0.03163408
0.831204,-0.1875809,0.01466296
0.8005506,-0.1567621,0.02353962
0.8578647,-0.1467414,0.02206624
0.9203972,-0.1012603,-0.01026753
0.9653159,-0.03851197,-0.02238634
1.003249,-0.003839141,-0.03835268
0.9988276,0.04485152,-0.04035895
0.9983578,0.08203036,-0.01742988
0.9747738,0.06943873,0.004195008
0.9547955,0.06704085,0.04316265
0.9986756,0.05607988,0.05370937
1.041152,0.01236122,0.03589758
1.07421,-0.01882273,0.03158937
1.072735,-0.04147215,0.04806363
1.055745,-0.05435396,0.0926115
1.075876,-0.02947786,0.1268182
1.086008,0.04189416,0.1410272
1.109957,0.1381701,0.1242014
1.151859,0.1570908,0.06440637
1.229431,0.006633264,-0.023303
1.316422,-0.1942519,-0.1234134
1.208409,-0.2505584,-0.1486213
0.9948847,-0.2332655,-0.1079777
0.9637539,-0.2798093,-0.06606872
1.138012,-0.2948005,0.008846719
1.306703,-0.2575223,0.06382607
1.237238,-0.2193156,0.05224024
1.079189,-0.09854294,0.02772742
1.027151,-0.01079036,0.01120445
0.9299948,-0.07225808,0.0001602641
0.8261989,-0.1145925,-0.008406227
0.8118773,-0.1382501,0.006153279
0.8092889,-0.2202327,0.0819583
0.7999211,-0.2724412,0.1667168
0.7831895,-0.2708018,0.1648676
0.8035746,-0.2336239,0.1277734
0.8058594,-0.1859463,0.1369483
0.7858881,-0.1372493,0.1388062
0.8186061,-0.1029241,0.1356949
0.8125202,-0.09620065,0.1664612
0.8385778,-0.06081452,0.1882179
0.9387101,-0.05938107,0.1981254
1.047109,-0.0858643,0.1943936
1.138666,-0.06766044,0.1759219
1.122768,-0.06843532,0.1773158
1.128095,-0.0277057,0.2016918
1.169416,0.03902505,0.2559539
1.17718,0.03214884,0.2755816
1.30193,-0.05103311,0.193516
1.397474,-0.22301,0.1027982
1.296939,-0.3801925,0.06790695
1.166391,-0.5102695,0.04572419
1.094165,-0.572091,0.02617309
0.9564282,-0.47692,0.02221564
0.8185315,-0.386453,0.01283907
0.8877474,-0.2720378,-0.006939803
0.989105,-0.1570175,-0.05307818
1.025067,-0.1877112,-0.1080041
1.050022,-0.2204796,-0.04739092
0.9338446,-0.2718166,0.07563956
0.821993,-0.3121852,0.1128319
0.7954587,-0.2355397,0.09859096
0.7670785,-0.186689,0.06391023
0.8365002,-0.1417604,0.02179491
0.9426032,-0.09258591,-0.03135128
0.9998005,-0.05914971,-0.07875071
1.008089,0.02546946,-0.04800048
0.9813518,0.05665659,-0.007608915
0.9790497,0.06168002,0.02126805
0.9628685,0.06892041,0.06260471
0.9641278,0.03514041,0.06099847
1.001689,0.03648929,0.06048125
1.033314,0.01874247,0.07050903
1.077609,-0.02166788,0.08259106
1.080429,-0.038218,0.122236
1.074789,-0.04001633,0.1384037
1.109926,0.02227495,0.1332708
1.141705,0.06012137,0.1130808
1.215694,-0.01341007,0.07457057
