accx,accy,accz
1.349438,-0.06967125,0.01295455
1.403326,-0.08871837,-0.02165956
1.324907,-0.0597172,-0.05047888
1.095399,-0.1025269,-0.05652726
0.8091156,-0.213332,-0.04421323
0.745015,-0.3512225,-0.0297293
1.009023,-0.4641837,-0.01529838
1.238886,-0.4852083,-0.02503525
1.230881,-0.2909622,-0.04911885
1.165878,0.06174999,-0.04205704
1.080313,0.2344072,-0.01865781
0.9742725,0.1410642,0.006539618
0.8919599,0.04123529,0.0305551
0.8597842,-0.05011759,0.03263535
0.8550391,-0.160149,0.0458884
0.8047406,-0.1462833,0.08830738
0.8026359,-0.1210501,0.1404973
0.8287189,-0.1333883,0.1701629
0.8268027,-0.06568387,0.1297699
0.8626135,-0.005515232,0.07869249
0.847231,0.01056855,0.07190578
0.8192046,0.03673065,0.07574621
0.8396675,0.07306692,0.08759192
0.852597,0.08673097,0.09632218
0.9115254,0.05110887,0.1127896
0.9683781,0.03796836,0.1249979
1.014819,0.04040796,0.08579151
1.146523,0.02853438,0.06062575
1.276195,0.06917552,0.07537201
1.323533,0.1612671,0.07243926
1.34426,0.2348008,0.03904252
1.354999,0.171281,-0.02002747
1.376738,-0.01325356,-0.08586722
1.431622,-0.1679927,-0.1318038
1.395909,-0.2924329,-0.1313044
1.223963,-0.4283347,-0.1098079
0.9870336,-0.4631993,-0.07356489
0.7731872,-0.3206325,0.001003916
0.7509578,-0.2012411,0.0004202465
0.8471231,-0.1809044,-0.05984589
0.9599514,-0.1634297,-0.06837466
1.10277,-0.230581,-0.1024807
1.058558,-0.2778655,-0.12587
0.9061748,-0.2395549,-0.1016695
0.859729,-0.2287316,-0.1170099
0.8365495,-0.1805429,-0.1296279
0.8964755,-0.141217,-0.1461247
0.9730674,-0.1240052,-0.1694065
0.9656209,-0.093298,-0.1553314
0.9981024,-0.1053973,-0.1507457
1.005156,-0.09818039,-0.1451217
0.99242,-0.08120171,-0.1496699
1.011665,-0.0590827,-0.1670573
0.9878888,-0.02382858,-0.1427839
0.9739684,-0.01692302,-0.1049896
0.9635996,-0.0002734732,-0.0607217
0.9571609,0.001204711,-0.0327107
0.9910274,0.00731246,-0.04563293
1.028438,0.04998465,-0.05095482
1.103872,0.07482275,-0.05323597
1.169433,0.101077,-0.04698356
1.177926,0.1456482,-0.00792271
1.184409,0.1716855,0.03506368
1.221592,0.1445978,0.05634477
1.30013,0.1012663,0.04823848
1.305617,0.08944939,0.02830136
1.178276,0.06409132,-0.0129833
1.005696,-0.03492929,-0.08921457
0.8759605,-0.2433009,-0.1257228
0.8728565,-0.4573131,-0.08719129
0.9280564,-0.5074078,-0.03157468
0.9974657,-0.4040024,0.008214197
1.121407,-0.2042452,0.01588057
1.158111,0.03974529,-0.0111465
1.107005,0.1558132,-0.0197173
1.092043,0.1012197,0.009276986
1.04937,0.05482919,0.03236916
0.982349,-0.0334436,0.04669799
0.9027527,-0.2268399,0.07415614
0.7966053,-0.2346909,0.1072069
0.7696404,-0.1278522,0.1434733
0.7789515,-0.1281276,0.169478
0.7779264,-0.0469339,0.1548549
0.8096743,0.03450602,0.1259766
0.7991834,0.02700253,0.1082068
0.7834053,0.07388542,0.079613
0.8067978,0.06612969,0.07209281
0.8575581,0.01111077,0.07913973
1.017647,-0.05020354,0.04884907
1.188141,-0.1446924,0.02866059
1.248367,-0.1575497,0.04132023
1.265507,-0.1020617,0.0728116
1.321216,0.08643605,0.1147154
1.412681,0.3884889,0.1121058
1.431518,0.4345338,0.06477471
1.443723,0.1446126,0.01033683
1.490143,-0.1708067,-0.02622881
1.294819,-0.3574003,-0.03285714
0.8941299,-0.4961438,-0.03017414
0.6865964,-0.5294028,-0.0299211
0.7526321,-0.3926333,-0.05114562
0.8539796,-0.2522716,-0.09521564
0.9180349,-0.1616144,-0.1252294
1.007761,-0.1224177,-0.1173682
0.9894939,-0.1505108,-0.08587368
0.8788551,-0.1482988,-0.07826091
0.855574,-0.1452852,-0.1112862
0.8657622,-0.1536298,-0.1600902
0.909091,-0.1294176,-0.1842249
0.969888,-0.132991,-0.1813541
0.9752747,-0.1262299,-0.1806847
0.9921813,-0.0870583,-0.1572006
0.9858346,-0.05457851,-0.1188112
0.970279,-0.02713727,-0.09648845
0.9705721,-0.02957802,-0.08409401
0.9570784,0.01045269,-0.08947454
0.9783552,0.0913568,-0.08681744
0.9809855,0.08655752,-0.08003332
1.020854,0.04890705,-0.08396186
1.127521,0.04396816,-0.06123648
1.16832,0.04832291,-0.04054798
1.174252,0.08076111,-0.03886886
1.180201,0.1248852,-0.01666909
1.163562,0.1341496,0.02052267
1.142313,0.09617937,0.04006434
1.202062,0.009861268,0.02387297
1.288723,-0.09500553,-0.03558295
1.207681,-0.1435869,-0.1141971
1.029482,-0.1752826,-0.1192265
0.8234658,-0.3089649,-0.06181518
0.7439083,-0.4539175,-0.05149422
1.047596,-0.4639573,-0.07088334
1.409299,-0.326713,-0.1100934
1.441059,-0.07670466,-0.1491963
1.218834,0.1186566,-0.08266094
0.9545141,0.1407959,0.03248651
0.8373943,0.08259403,0.07085447
0.848181,0.005506171,0.04483297
0.8628772,-0.07925621,0.0221127
0.8504192,-0.134991,0.02329047
0.8246121,-0.1466189,0.0351335
0.8024326,-0.1495286,0.0598045
0.7845436,-0.1556494,0.06467011
0.7897905,-0.1327411,0.04907191
0.7945249,-0.1079552,0.05760051
0.7923849,-0.07916958,0.06930462
0.8198643,-0.04507521,0.09306706
0.8657872,-0.03281843,0.1245073
0.9561809,-0.006320605,0.115013
1.070934,0.01477174,0.08947736
1.149967,0.02840348,0.04494667
1.198003,0.0458302,-6.268403e-05
1.240701,0.05371512,0.02193276
1.317951,0.1411609,0.05900988
1.340762,0.288618,0.07213059
1.223367,0.3433774,0.08694091
1.131249,0.2362016,0.06930309
1.196611,-0.008585062,-0.001254904
1.290538,-0.3212919,-0.1110325
1.279392,-0.5514016,-0.190346
1.183143,-0.5557604,-0.1570754
1.025678,-0.4775222,-0.08474668
0.915645,-0.4464086,-0.03650594
0.8903158,-0.3520237,0.0122033
0.8072753,-0.2167651,0.05019208
0.8196206,-0.1540481,0.06089178
0.9609398,-0.1698885,-0.01568867
0.9704184,-0.148332,-0.1310339
0.9388037,-0.08855569,-0.1728214
0.9126035,-0.09001098,-0.1840945
0.8603485,-0.07034057,-0.1739969
0.9057584,-0.0757446,-0.1627507
0.9490011,-0.1264244,-0.1670729
0.9641872,-0.1061914,-0.144489
1.006179,-0.07717881,-0.1480819
1.007501,-0.01401565,-0.1458704
0.9992325,0.04564,-0.1018136
0.9747785,0.04652093,-0.05497131
0.9297977,0.07762368,-0.008977755
0.9254779,0.0606703,-0.01561724
0.977433,0.02153809,-0.04557304
1.083874,0.01325518,-0.05682684
1.179987,-0.00119753,-0.06103617
1.199176,0.05885028,-0.03304336
1.154342,0.1499552,0.00179045
1.138298,0.181071,0.04963295
1.20443,0.1093894,0.08088768
1.290327,-0.01848884,0.03793037
1.316588,-0.07161616,-0.02212627
1.206918,-0.1296654,-0.09491796
1.04504,-0.2375993,-0.1475872
0.9801349,-0.3261516,-0.09627924
0.9759559,-0.4217963,-0.01452022
1.043351,-0.4346186,0.01086232
1.177709,-0.2653398,-0.01655782
1.201734,-0.02536385,-0.04901561
1.095424,0.128858,-0.02910158
0.9843836,0.1325425,0.008538794
0.9173629,0.009877057,0.02789958
0.9042729,-0.1461511,0.04112777
0.8981738,-0.2181192,0.03175967
0.8521512,-0.192558,0.04705828
0.8087967,-0.143844,0.102134
0.8035871,-0.08385675,0.130149
0.8205525,-0.02600472,0.1346464
0.8243796,0.002652948,0.1148518
0.8169216,0.0377303,0.08907042
0.8216611,0.06063411,0.08446143
0.8337334,0.04992149,0.08018228
0.8848391,0.0385255,0.09320733
0.9818616,0.01695505,0.09730032
1.069848,0.01264269,0.08423417
1.145919,0.03249521,0.07581287
1.236137,0.06034851,0.06371076
1.32167,0.1604683,0.09478306
1.337415,0.298566,0.1351539
1.25539,0.3467913,0.1254341
1.174503,0.2588429,0.09050965
1.200578,0.06639285,0.02174169
1.266787,-0.2532188,-0.09733177
1.277802,-0.6005223,-0.2238019
1.227997,-0.6225936,-0.2321576
1.081106,-0.4314328,-0.1192819
0.9108271,-0.3761671,-0.03470559
0.8294679,-0.2592386,0.0167262
0.7882677,-0.09411451,0.05819027
0.8218009,-0.08793627,0.04209524
0.9257476,-0.09444446,-0.0332112
0.9627751,-0.1118083,-0.1450972
0.9517824,-0.1309585,-0.1981693
0.9265922,-0.1030904,-0.1713026
0.8916406,-0.1005161,-0.1787156
0.9025271,-0.08205952,-0.1949563
0.9321532,-0.08441655,-0.1672974
0.9729053,-0.0887349,-0.1635344
1.029202,-0.0534379,-0.1690909
1.031163,-0.046739,-0.1441633
0.9853628,-0.02274717,-0.1146198
0.9428986,-0.008091766,-0.07624234
0.9259475,0.0001786795,-0.0522296
0.9514933,0.04702539,-0.05768492
0.9935703,0.05353075,-0.06110097
1.06169,0.05006123,-0.06929922
1.169656,0.08065155,-0.07047154
1.217526,0.1284272,-0.06196809
1.174697,0.1889059,-0.05228563
1.146931,0.2140534,-0.01231078
1.17069,0.1382192,0.03064784
1.22728,-0.01533946,0.03320098
1.276318,-0.1052938,-0.02786934
1.182323,-0.1231281,-0.1219132
0.9712434,-0.1742291,-0.1357266
0.8729677,-0.2895169,-0.07001529
0.9532904,-0.4393331,-0.02933073
1.177317,-0.4668756,-0.04840914
1.40035,-0.3076969,-0.1037495
1.337557,-0.1369868,-0.1314979
1.090015,-0.009311942,-0.06487421
0.9148018,0.1218026,0.0355348
0.8145952,0.0670444,0.04100869
0.8392522,-0.1401591,-0.004382859
0.8734626,-0.1505146,-0.002230611
0.8012627,-0.1260253,0.02053037
0.7928235,-0.1818888,0.06897702
0.784498,-0.09843793,0.123348
0.7619251,-0.05889951,0.1210239
0.8095222,-0.04759948,0.1005796
0.8033543,0.03157166,0.08328549
0.8125702,0.04655626,0.06936346
0.8556445,0.07795106,0.07600501
0.9186667,0.04687556,0.08634247
1.066774,-0.01564598,0.08972416
1.149346,-0.02768406,0.06882268
1.183989,-0.05763305,0.04324564
1.226609,0.01712299,0.05995711
1.251289,0.1487872,0.1036135
1.294901,0.3457524,0.1387933
1.246091,0.4645768,0.1349492
1.142756,0.3063955,0.08992219
1.117363,0.1620509,0.02882303
1.193571,-0.1001088,-0.08142612
1.341571,-0.5101679,-0.2546113
1.374172,-0.6701224,-0.3490208
1.231304,-0.6688037,-0.241873
0.9906634,-0.5303771,-0.05559128
0.7406589,-0.2814103,0.06118415
0.6657256,-0.1442699,0.1228468
0.780538,-0.08542621,0.1074009
0.9365415,-0.08320321,-0.01212969
1.055554,-0.1225728,-0.1598214
1.070296,-0.1348269,-0.228266
0.9591306,-0.1097246,-0.1783058
0.8674323,-0.07668336,-0.1595657
0.8814477,-0.08058675,-0.1820784
0.9085798,-0.06379217,-0.1289774
0.9402586,-0.01521003,-0.1138058
0.9836326,-0.003574236,-0.1301526
0.987641,-0.0122711,-0.11427
0.9913219,-0.009480317,-0.1110962
0.9971688,-0.000966357,-0.08105771
0.9638836,0.02060022,-0.05831561
0.9194574,0.08356174,-0.03542441
0.9070529,0.1568918,-0.01662362
0.9634357,0.1812403,-0.05207792
1.08388,0.1691295,-0.05791747
1.181142,0.1597257,-0.06023223
1.207889,0.1580576,-0.05510326
1.218011,0.1341919,0.001311568
1.2405,0.08473523,0.02461914
1.281318,0.02146665,0.02654496
1.312958,-0.04026718,0.01483298
1.230006,-0.07530755,-0.02323195
1.068256,-0.1747934,-0.06479818
1.006586,-0.346185,-0.0896106
1.061772,-0.408227,-0.05318806
1.130477,-0.3585958,-0.03124105
1.166054,-0.2257841,-0.04959051
1.120996,0.0373,-0.03418174
1.012591,0.1919759,-0.01273469
0.9403821,0.1053222,0.005354489
0.9105204,0.008977785,0.01377014
0.9034102,-0.07588606,0.002496754
0.8902438,-0.1794073,0.01015841
0.8243634,-0.1494477,0.04127738
0.7995788,-0.09793211,0.08475926
0.8396122,-0.08909819,0.09565496
0.8616254,-0.00846214,0.06380974
0.8938603,0.02608029,0.04533893
0.911637,0.01948782,0.04388945
0.8991168,0.03408168,0.06133638
0.9169502,0.001607332,0.1002622
0.9513318,0.002948364,0.134459
0.9939352,0.01591385,0.1466962
1.034258,0.000419352,0.1027954
1.101152,-0.0007846623,0.04321854
1.19838,-0.0197905,0.05443089
1.209848,0.02823075,0.09293817
1.187034,0.1349124,0.1100226
1.200922,0.1966792,0.1123792
1.18937,0.1893534,0.05322738
1.222771,0.03947368,-0.0538099
1.2655,-0.199862,-0.1377404
1.166981,-0.3630407,-0.175855
1.023923,-0.3688012,-0.1668507
0.9411983,-0.2611385,-0.1460561
0.8976696,-0.130377,-0.114401
0.9104338,-0.0500455,-0.06618021
0.9688473,-0.0900848,-0.06362662
1.022024,-0.1369736,-0.07142364
1.027819,-0.1216242,-0.05783433
0.9854767,-0.1311739,-0.09132067
0.9234299,-0.1006617,-0.131192
0.8684719,-0.05664334,-0.1350398
0.8805639,-0.04730295,-0.142111
0.9207242,0.005294629,-0.1569183
0.9185699,0.0179563,-0.1817207
0.9574459,-0.02563891,-0.1934259
1.015615,-0.05060131,-0.1963222
1.004342,-0.07803999,-0.2038736
0.9912214,-0.08075959,-0.1702868
0.98734,-0.05833893,-0.132518
0.9692623,-0.04590851,-0.1193134
0.9724677,-0.03430989,-0.1175832
1.000238,-0.02394952,-0.1399099
1.062673,-0.007289113,-0.1461503
1.15356,0.0314535,-0.1442037
1.210125,0.0870446,-0.1341228
1.164502,0.1181504,-0.07893893
1.108932,0.1029678,-0.02114548
1.181637,0.04038248,-0.004181089
1.289748,-0.05538646,-0.03548481
1.337232,-0.07696859,-0.05683098
1.263223,-0.05369341,-0.06643313
1.042596,-0.1417114,-0.1166234
0.8953972,-0.2679112,-0.1236772
0.9239762,-0.3492427,-0.06827936
1.029885,-0.3959081,-0.03512252
1.141295,-0.3045732,-0.04562972
1.15763,-0.1035204,-0.0606534
1.069043,0.03671742,-0.04224925
0.9622726,0.06126274,-0.02845828
0.9126124,-0.01116311,-0.01562395
0.9046385,-0.1006421,0.002871709
0.8755553,-0.1263514,0.0007841084
0.853749,-0.1180136,0.03621829
0.8378397,-0.09759727,0.09241707
0.8327133,-0.05727892,0.1276707
0.8515437,-0.0204686,0.1446457
0.8536405,0.00894648,0.1161784
0.8595967,0.02699656,0.0977501
0.8639844,0.0399883,0.1109957
0.8779545,0.06927295,0.123563
0.935041,0.1013643,0.1387545
0.9938968,0.1124215,0.117654
1.054826,0.07644929,0.08951709
1.139058,0.00776022,0.1017977
1.23433,-0.02190771,0.1124536
1.277957,0.06010395,0.1198763
1.256684,0.2397699,0.1313687
1.238797,0.3568024,0.1139983
1.208754,0.2926909,0.06593461
1.200136,0.07007274,-0.005302447
1.222904,-0.2334395,-0.094701
1.178835,-0.4337775,-0.1530249
1.099307,-0.4136038,-0.1433214
1.002221,-0.3006685,-0.08394975
0.9155181,-0.1782699,-0.01141135
0.9024239,-0.07828597,0.02535618
0.8976562,-0.08937321,0.01873768
0.9140552,-0.1176836,-0.01702192
0.9310183,-0.1116361,-0.09528975
0.8901494,-0.1300888,-0.1673971
0.8680169,-0.09823316,-0.1858476
0.8617014,-0.05284688,-0.1884186
0.8681883,-0.04995027,-0.1775012
0.9056286,-0.05334792,-0.1456909
0.9562664,-0.07484575,-0.1406863
1.012994,-0.07994517,-0.1583667
1.010724,-0.07838355,-0.1582923
0.9762871,-0.06075188,-0.1279839
0.9558172,-0.004394327,-0.0751124
0.9526455,0.02358754,-0.04464443
1.008971,0.04379399,-0.04331609
1.083553,0.07001836,-0.03756691
1.139404,0.1108344,-0.03907991
1.157382,0.1959059,-0.03484844
1.153455,0.2346218,0.008775899
1.191119,0.1914865,0.0499837
1.259256,0.1097597,0.03714753
1.335882,0.01110834,0.01163487
1.300274,-0.03737218,-0.007539453
1.122155,-0.06492582,-0.1064676
0.9980075,-0.1789072,-0.2182175
0.9892301,-0.2728818,-0.1738689
1.050415,-0.3301592,-0.05232231
1.132688,-0.4631111,0.02140199
1.206428,-0.4199299,0.04393764
1.19337,-0.1474328,0.004006701
1.05316,0.0717682,-0.01648355
0.9965325,0.1680423,0.01193699
0.9819851,0.09033319,0.01208058
0.889557,-0.004389917,0.03145864
0.8528085,-0.03466916,0.05826667
0.8211872,-0.1303453,0.05924738
0.794442,-0.08378485,0.08695489
0.8058105,-0.01877738,0.09368707
0.8072631,-0.07248158,0.08778034
0.8363244,-0.03055816,0.09904277
0.8495485,-0.04061439,0.09935394
0.8650362,-0.0447093,0.1144081
0.8983958,0.03000545,0.1129154
0.9510178,0.04302151,0.1032366
1.046847,0.09766817,0.1122517
1.097312,0.09185416,0.09822617
1.133852,0.02141194,0.09686001
1.189947,0.01880177,0.1220781
1.24736,0.06874396,0.1375411
1.289856,0.2021797,0.1236137
1.26258,0.2448745,0.08514057
1.255741,0.1582184,0.05345621
1.264898,0.009127548,6.842746e-05
1.218936,-0.2450105,-0.06624743
1.167635,-0.3522895,-0.08765252
1.052257,-0.2923883,-0.07728747
0.9009005,-0.3226131,-0.06967295
0.893378,-0.3194937,-0.07242921
0.965843,-0.1500892,-0.04983697
0.9601132,-0.01944613,-0.02091495
0.9656071,-0.05500967,-0.03429633
1.000905,-0.1141045,-0.04344748
0.9819222,-0.1140163,-0.05047031
0.9691218,-0.1174815,-0.08001007
0.920408,-0.1044968,-0.09688852
0.8702234,-0.05072832,-0.1218862
0.9119664,-0.02771098,-0.1615305
0.9298965,-0.02805253,-0.1758464
0.9474141,-0.02960071,-0.1693901
0.9722039,-0.06604852,-0.1543845
0.9403646,-0.09756507,-0.1315617
0.9402703,-0.1027538,-0.1229472
0.9669882,-0.08620589,-0.1345976
0.9941628,-0.05967415,-0.1341892
1.01477,-0.04181761,-0.1078982
1.010269,-0.012043,-0.08212805
1.015262,-0.0101818,-0.07991005
1.023074,-0.009083552,-0.08541752
1.076344,0.03880713,-0.08611191
1.175459,0.09920381,-0.09320382
1.213151,0.1987245,-0.07458458
1.194785,0.2447307,-0.007915692
1.204092,0.1487505,0.05626502
1.239551,0.0586864,0.06322796
1.237303,0.05186879,0.002508553
1.1892,0.03715751,-0.07786827
1.091946,-0.06518353,-0.1351342
0.9721615,-0.2653133,-0.1425038
0.9246274,-0.4830358,-0.05815302
0.9575438,-0.5378749,0.0503302
1.077112,-0.3697776,0.06581717
1.212543,-0.159774,0.01453184
1.182996,0.006663509,-0.01678304
1.083588,0.1538699,-0.01237445
1.034868,0.1609129,0.02187538
0.9459165,0.0274643,0.06579356
0.8790659,-0.06853466,0.06626183
0.8462519,-0.1053938,0.06972728
0.7725342,-0.1010819,0.126685
0.7792951,-0.06193229,0.161055
0.8339181,-0.05105247,0.1620685
0.840269,-0.0296921,0.1506512
0.8469954,-0.0004465912,0.1251962
0.823942,0.01887161,0.1245105
0.813426,0.06412253,0.1225752
0.8397099,0.07112021,0.1102954
0.8913789,0.04553926,0.1058479
1.029127,0.01783936,0.07096609
1.121981,-0.01109768,0.03374483
1.116408,-0.008039873,0.04622086
1.145721,0.01359905,0.1057264
1.211573,0.1261244,0.1804142
1.273795,0.3209059,0.203611
1.333947,0.4007219,0.1526826
1.386581,0.2758545,0.07512111
1.394479,-0.007387875,0.001900773
1.307081,-0.3545288,-0.05353671
1.095993,-0.5732525,-0.0826312
0.8622197,-0.5554035,-0.1019854
0.8091546,-0.4936244,-0.09204605
0.8799523,-0.3840099,-0.04973875
0.9081627,-0.1388866,-0.02387574
0.9718658,-0.07584913,-0.01355789
1.054127,-0.1434378,-0.02266854
1.018513,-0.1005776,-0.04866456
0.956802,-0.09590271,-0.07636352
0.8977668,-0.07764413,-0.1065037
0.8013097,-0.009762485,-0.1107441
0.8037777,-0.009966332,-0.1357953
0.8615875,-0.02735405,-0.1800844
0.9187562,-0.06290017,-0.1797335
1.027057,-0.09369146,-0.1808568
1.031035,-0.06775749,-0.1690642
0.9781785,-0.01660235,-0.1263127
0.9928332,0.04368154,-0.09589001
0.9532323,0.07290447,-0.07104247
0.9237028,0.07132926,-0.06178884
0.9633887,0.07224859,-0.05875643
0.999626,0.06083031,-0.04965136
1.091279,0.05699275,-0.04251571
1.210008,0.098839,-0.03267285
1.263536,0.1740115,-0.03165463
1.272838,0.208796,-0.02039448
1.292715,0.1393022,-0.001976889
1.318208,0.03836715,-0.01427821
1.253903,0.01186761,-0.0494081
1.089215,0.009565002,-0.09373257
0.9251304,-0.1116301,-0.1295376
0.8702569,-0.3716254,-0.1008762
0.9788596,-0.5352767,0.02589647
1.094002,-0.4518003,0.1344835
1.142882,-0.3016004,0.05698864
1.235815,-0.1140274,-0.09060311
1.226287,0.13131,-0.1093181
1.08266,0.1818648,-0.09439274
1.001469,0.07734523,-0.08779378
0.89614,-0.007778001,-0.02841914
0.7850497,-0.1305419,0.008743442
0.7582396,-0.1794596,0.05531741
0.7186126,-0.1282495,0.1102096
0.7439161,-0.1077335,0.1047633
0.7959413,-0.05535401,0.09934636
0.8074364,0.001423041,0.08730159
0.8526845,0.01224178,0.08074771
0.8438826,0.04714691,0.09260713
0.8606976,0.05641173,0.08544309
0.9541086,0.02370756,0.09304621
1.025295,0.008576809,0.07829885
1.13657,-0.01288095,0.02785424
1.244679,-0.04069084,-0.0134986
1.294728,-0.02299809,-0.01548754
1.303308,0.07943996,0.04095452
1.308076,0.2485321,0.07488577
1.323785,0.3339919,0.05981304
1.283199,0.210023,0.01799094
1.269118,-0.04432889,-0.05518596
1.20061,-0.3017104,-0.105994
1.003266,-0.4598436,-0.1065083
0.9274974,-0.4570547,-0.07304116
0.9586155,-0.3730557,-0.03624424
0.9616756,-0.2645715,-0.008896139
0.9565551,-0.1775213,0.0007787467
0.9564057,-0.1415921,-0.02134941
0.9529666,-0.07431146,-0.04303998
0.9141436,-0.04645443,-0.08289556
0.8859701,-0.04458487,-0.149293
0.8471144,0.01717672,-0.1822449
0.817744,-0.009645908,-0.1728535
0.8796297,-0.05941769,-0.1485011
0.9220592,-0.05304886,-0.1336137
0.9496168,-0.05903786,-0.1218141
0.9916123,-0.003998611,-0.1172398
0.9805468,0.04970208,-0.1157492
0.96356,0.06476771,-0.08788666
0.9513154,0.07428554,-0.07453331
0.9596963,0.03757647,-0.07336469
0.9991446,0.01925691,-0.05926604
1.045511,0.03636,-0.0629423
1.142875,0.1074244,-0.05739439
1.23596,0.2193118,-0.02141144
1.221855,0.2381008,0.01245796
1.188284,0.1698607,0.01499104
1.249047,0.05610654,0.01075338
1.282212,-0.04880552,0.008851351
1.23089,-0.04161084,-0.05790421
1.160214,-0.04937081,-0.1290339
1.008216,-0.1818582,-0.1039993
0.8785435,-0.2991777,-0.03985468
0.9042674,-0.4090588,0.01303613
1.097686,-0.4571543,0.02000177
1.373685,-0.2262215,-0.06427317
1.370668,0.06846058,-0.1326409
1.145726,0.1906638,-0.06302463
0.9964373,0.1876774,0.03968483
0.8307926,0.07754594,0.06393065
0.764727,-0.02750355,0.05851472
0.8079425,-0.09497681,0.0460226
0.7866459,-0.1266037,0.03958596
0.8195284,-0.1154748,0.06302913
0.8267356,-0.1389746,0.08817665
0.7803124,-0.1285451,0.1106972
0.7906841,-0.09351116,0.1221469
0.7821892,-0.04207912,0.1151258
0.8012589,0.05154807,0.1008947
0.8367566,0.08745975,0.07191014
0.8951834,0.08930826,0.0475675
1.051272,0.02153087,0.03425238
1.153417,-0.1005519,0.02147671
1.166425,-0.1076627,0.03922233
1.235939,0.01628969,0.1076558
1.37734,0.2181299,0.1672306
1.386756,0.405041,0.1450243
1.250594,0.4856353,0.1102228
1.218377,0.3001593,0.1077804
1.256172,-0.1965915,0.02055657
1.25661,-0.5990553,-0.1156203
1.152062,-0.6259142,-0.1478015
0.9563608,-0.4646754,-0.1129501
0.8762896,-0.3140048,-0.06052566
0.8342312,-0.1239407,0.02790193
0.7978278,0.01444302,0.06438588
0.8732236,-0.04781994,0.0368061
0.9165369,-0.06291336,0.02497062
0.9130473,-0.0584769,-0.04876404
0.9274157,-0.1511742,-0.1636136
0.9199138,-0.1116256,-0.1540578
0.8675,-0.08628718,-0.1187491
0.8184825,-0.112927,-0.157503
0.8592952,-0.06555123,-0.1620464
0.9465075,-0.08506327,-0.1636695
1.038756,-0.07740039,-0.1947418
1.083835,-0.02669901,-0.1830947
1.014596,0.008648685,-0.1438175
0.9424239,0.08901116,-0.08725446
0.9170868,0.113708,-0.04904329
0.8951661,0.1044164,-0.05847446
0.9177252,0.09355718,-0.05701029
1.029136,0.05068932,-0.06910718
1.211024,0.06610048,-0.0994386
1.297435,0.121734,-0.08017348
1.195113,0.1642697,-0.00582154
1.123933,0.1628547,0.07440703
1.166601,0.04720948,0.0684254
1.179839,-0.08624332,0.01015285
1.184859,-0.1224318,-0.0557209
1.146137,-0.1811015,-0.1591424
0.9979892,-0.3152782,-0.121484
0.9347944,-0.4081798,0.02890631
1.102076,-0.4283463,0.03062669
1.378174,-0.3299172,-0.06304615
1.474597,-0.09717347,-0.1529966
1.276714,0.09667922,-0.1421213
1.003562,0.1372016,-0.02482356
0.818142,0.07080414,0.01535258
0.7328649,-0.01619046,0.03203174
0.7255762,-0.1124765,0.0171018
0.7275175,-0.203738,-0.02262493
0.7235382,-0.1957113,0.05055178
0.7331436,-0.1379003,0.104075
0.7528473,-0.07320452,0.1323156
0.7871155,0.01462926,0.1388613
0.8254221,0.051526,0.08442267
0.853128,0.09115559,0.09286705
0.8962527,0.1214596,0.09287418
0.9749819,0.0845592,0.1045578
1.078766,0.06559985,0.1312954
1.18587,0.02824703,0.07377604
1.261506,-0.007262541,0.0522833
1.294183,0.03891617,0.06662829
1.281763,0.1629822,0.08444391
1.247853,0.3725699,0.09840913
1.221348,0.4954427,0.06331787
1.196363,0.3632795,0.02066824
1.215789,0.001895009,-0.07808651
1.244835,-0.3801075,-0.1805035
1.218095,-0.4751134,-0.1575669
1.166349,-0.4821142,-0.08353165
1.020712,-0.5702587,-0.01108811
0.8528837,-0.4407219,0.09518808
0.8284858,-0.2910453,0.1472526
0.8002019,-0.1526574,0.1267374
0.7779132,0.09212933,0.08448542
0.8850643,0.03071348,-0.08955388
0.9227803,-0.03326643,-0.2186688
0.892962,0.02868632,-0.1757364
0.8841359,-0.08555153,-0.1737405
0.8170624,-0.04732758,-0.1227861
0.8324041,-0.02581134,-0.07340446
0.9359468,-0.0591504,-0.1131824
1.003278,0.03857292,-0.09823429
1.038263,0.02166611,-0.1176187
0.9833827,0.05765196,-0.1036192
0.9351201,0.07478941,-0.03984834
0.9306544,0.02192759,-0.03123535
0.9373199,0.06542936,-0.01038274
1.054776,0.05137874,-0.03960391
1.187247,0.1207327,-0.06894506
1.262196,0.2236939,-0.05512546
1.254611,0.2053082,-0.0386135
1.205038,0.1621725,0.02439847
1.241737,0.03448656,0.03024318
1.219999,-0.1157519,-0.02602545
1.113423,-0.2090833,-0.05487934
0.9526971,-0.2440292,-0.03418679
0.8166001,-0.2866228,0.0128545
1.030421,-0.3461536,-0.009803861
1.370766,-0.231478,-0.0798703
1.454134,-0.01485006,-0.1386219
1.316667,0.1301333,-0.1161916
1.047703,0.1573638,-0.006622498
0.8353549,0.08479027,0.05507976
0.7489485,0.02634915,0.06874739
0.7554792,-0.04175476,0.03317986
0.7994383,-0.136629,-0.01042738
0.7685282,-0.168533,0.02757205
0.761186,-0.1385,0.05000548
0.7600338,-0.0933675,0.07090472
0.7470109,-0.05324721,0.08974748
0.8083915,-0.02867421,0.04638742
0.8318048,-0.02171625,0.0433226
0.851587,0.02491255,0.06375641
0.8934346,0.07577418,0.07911825
0.9531934,0.0331326,0.09784354
1.093727,-0.02428945,0.07841553
1.159145,-0.04396107,0.06438601
1.192292,-0.04509769,0.04852952
1.332594,0.04881158,0.03540421
1.482118,0.2177347,0.03022684
1.509987,0.2862382,-0.0009415449
1.405328,0.2068999,-0.004650129
1.352048,0.06022037,-0.01922544
1.303811,-0.1495298,-0.06857696
1.142208,-0.3467964,-0.08810192
1.003601,-0.4460511,-0.09450728
0.9446795,-0.4805064,-0.07277655
0.9861659,-0.4045932,-0.03579398
0.9952093,-0.2801407,-0.01705376
0.9043627,-0.1931506,0.01732612
0.8595417,-0.09026687,0.02561265
0.8146369,-0.05481481,-0.01525775
0.8187997,-0.04474983,-0.07644656
0.8488288,0.02025016,-0.1471302
0.8125512,0.03049622,-0.1692761
0.8542583,0.02103131,-0.1589767
0.9157684,0.009789111,-0.1712624
0.9787204,-0.006266745,-0.1757263
1.038927,0.008955376,-0.1757307
0.9889059,0.0002318064,-0.1602376
0.964455,-0.001193726,-0.1037734
0.9333882,-0.008334379,-0.06391019
0.8798089,-0.03367785,-0.05137394
0.9659123,-0.02017098,-0.05044797
1.107998,0.005435124,-0.06751275
1.207188,0.07468447,-0.07611372
1.220209,0.1856563,-0.06956915
1.191124,0.2504288,-0.01229793
1.214185,0.2154403,0.08982288
1.21993,0.1006881,0.1065353
1.238684,-0.002085365,0.001517891
1.277827,-0.05378017,-0.1036104
1.193035,-0.0839638,-0.1090475
1.034898,-0.2004274,-0.06305322
0.959403,-0.3671388,-0.02271612
1.056399,-0.3971294,0.02192572
1.283015,-0.3050606,-0.01565552
1.413348,-0.1271402,-0.1184327
1.301421,0.05167299,-0.1253806
1.041539,0.07864636,-0.04524115
0.8138906,0.02485945,0.04432998
0.6947452,-0.0350896,0.0714558
0.6738239,-0.09100516,0.03685678
0.6851869,-0.1216211,0.06011774
0.679219,-0.1226148,0.1055814
0.7270974,-0.08800627,0.1260105
0.7842953,-0.05101362,0.1383909
0.8060932,-0.02007237,0.09955567
0.8509262,-0.007124924,0.07209005
0.8612269,0.02200752,0.07553614
0.8889804,0.0740293,0.08154252
0.9793642,0.06836223,0.1009377
1.063518,0.05307668,0.07708998
1.133597,0.04429137,0.05270998
1.192822,0.01620451,0.05050168
1.305574,0.02190266,0.03308784
1.381217,0.1120986,0.0654676
1.374007,0.2754315,0.1016892
1.408434,0.2959143,0.05886573
1.390605,0.07225671,-0.01532426
1.326625,-0.2305418,-0.08717423
1.195717,-0.4521436,-0.1336701
0.9497346,-0.468954,-0.1056476
0.8873546,-0.3715784,-0.05263123
0.9573875,-0.2983188,-0.03136672
0.9403516,-0.223342,0.01169981
0.9467634,-0.1732028,0.03390106
0.9175766,-0.1371804,0.001139451
0.8406121,-0.1064004,-0.01996404
0.8525292,-0.1083121,-0.07806244
0.8700427,-0.07754047,-0.1591091
0.8533444,-0.04810147,-0.1776035
0.8689954,-0.07080091,-0.168005
0.8923448,-0.08839301,-0.164343
0.9326882,-0.09775977,-0.1559163
0.9986002,-0.0947796,-0.1403367
1.013925,-0.03918464,-0.1323182
0.9993491,0.05297686,-0.1019483
0.9917696,0.1112006,-0.0490673
0.9464687,0.09749476,-0.04058347
0.931882,0.07622685,-0.04545362
1.019925,0.08091725,-0.05062846
1.147828,0.07591722,-0.07580325
1.219922,0.1101233,-0.06387021
1.187077,0.1921109,-0.01982849
1.12761,0.2111326,0.03432147
1.106721,0.1425416,0.08236492
1.111769,0.06736091,0.07098741
1.154283,0.001090296,0.01430218
1.178335,-0.1449759,-0.06535633
1.147668,-0.2831714,-0.1039395
1.085593,-0.2970496,-0.008604234
1.074259,-0.3516482,0.05645286
1.313867,-0.371634,-0.07345511
1.572119,-0.2273704,-0.1829618
1.391944,-0.04894999,-0.1279635
1.078744,0.1757642,-0.1025043
0.9973833,0.1878974,-0.1203784
0.8851815,-0.004778404,-0.005581669
0.7251007,0.004699494,0.09712552
0.7206995,-0.07151271,0.0258971
0.7736604,-0.1797795,-0.02703754
0.7743482,-0.09120184,0.02439233
0.7505927,-0.1272015,0.06087034
0.7435052,-0.08835052,0.08117248
0.720518,-0.005210565,0.08706513
0.7254226,-0.04219884,0.05630769
0.8027224,0.03341351,0.06104071
0.8616278,0.03513901,0.08361974
0.9444588,0.01465147,0.08808248
1.060337,0.04912991,0.1024658
1.169501,0.006714326,0.06136397
1.272509,0.03624044,0.01400847
1.332,0.06722464,0.03919891
1.411039,0.1294876,0.05487312
1.408359,0.2701266,0.06476019
1.312951,0.3115388,0.07276603
1.290583,0.1984557,0.04000989
1.25347,-0.09691755,-0.01486199
1.178835,-0.3675116,-0.08278449
1.053852,-0.4594037,-0.1277225
0.961615,-0.4467879,-0.1347293
1.01552,-0.350191,-0.09411345
0.9613701,-0.2352381,-0.008744836
0.8533599,-0.1516465,0.03403189
0.858544,-0.1553178,0.01428511
0.8455799,-0.1545205,-0.02793357
0.8697316,-0.09342525,-0.09192285
0.9152565,-0.08527262,-0.1617653
0.8852605,-0.03346475,-0.2078844
0.8565223,0.004321712,-0.2084905
0.8660017,-0.02997399,-0.1750238
0.9148281,-0.008044448,-0.1520168
0.9922941,-0.0082027,-0.1419184
1.021783,0.003430321,-0.1345727
0.9765646,0.05956698,-0.1187288
0.9363959,0.08571916,-0.065084
0.9169085,0.108921,-0.0256125
0.9295463,0.08622795,-0.04034452
1.047104,0.05210031,-0.06536409
1.211314,0.05506264,-0.09159592
1.28865,0.09022645,-0.09075223
1.214919,0.1688177,-0.02452354
1.133875,0.1692337,0.06180565
1.167656,0.05880647,0.07871365
1.209376,-0.06767411,-0.0009463623
1.252682,-0.1273709,-0.07047575
1.22879,-0.1166479,-0.08623505
1.05399,-0.163542,-0.1173673
0.9021397,-0.234211,-0.1067841
0.9278629,-0.2826277,-0.0217846
1.218623,-0.3515294,0.000120384
1.501702,-0.2804337,-0.07169325
1.416686,-0.08087705,-0.1241302
1.206213,0.05963564,-0.09348169
1.030342,0.1055349,-0.01531153
0.8185493,0.03873002,0.04532144
0.7467077,-0.03328255,0.07348492
0.762932,-0.0705138,0.06108484
0.7071001,-0.1351713,0.05545415
0.6981758,-0.123571,0.0905131
0.7292202,-0.08540528,0.09693298
0.7421343,-0.06442001,0.09917471
0.7899975,-0.01345385,0.09651173
0.8150969,0.01056394,0.07186399
0.8409661,0.07647333,0.09066391
0.9185352,0.1225186,0.0921651
1.0221,0.06848528,0.07335001
1.162682,0.0382109,0.06535767
1.259365,0.0179378,0.03134912
1.297731,0.02820699,0.03347857
1.30926,0.1190785,0.07264888
1.283251,0.2180938,0.09549189
1.295556,0.2349536,0.05856528
1.331011,0.08954807,-0.03018191
1.364229,-0.1399855,-0.0894604
1.355019,-0.3009765,-0.127693
1.179297,-0.3531615,-0.1194392
0.9730916,-0.3931987,-0.07646419
0.9353163,-0.3812195,-0.06276014
0.952076,-0.2356937,-0.01544635
0.9069341,-0.2077091,0.01394387
0.8850779,-0.2316155,-0.01674515
0.8712712,-0.1419809,-0.03865408
0.8403125,-0.1505383,-0.09754442
0.866712,-0.1161035,-0.1699823
0.8676109,-0.02909695,-0.1933572
0.8716654,-0.05049316,-0.1949815
0.9396637,-0.02084631,-0.1872572
0.9489699,-0.02407359,-0.1829889
0.9631969,-0.04038701,-0.1582504
1.002864,0.002046944,-0.1093398
0.9929442,-0.01201577,-0.09247934
0.9673738,0.01903907,-0.09089034
0.9099017,0.06429406,-0.05473641
0.8795689,0.07204395,-0.0198804
0.9327554,0.07744594,-0.04394382
1.034899,0.05917578,-0.06881678
1.134789,0.08852992,-0.05660357
1.159248,0.1411839,-0.05660278
1.139596,0.206113,-0.02110837
1.131116,0.2182986,0.05736164
1.141799,0.09097083,0.07983753
1.178694,-0.02691486,0.03826051
1.200927,-0.1063031,-0.04061286
1.090074,-0.1763488,-0.1079449
0.8627653,-0.2277921,-0.07260975
0.7995075,-0.3203285,-0.006706112
1.014722,-0.3906206,-0.03161845
1.324973,-0.3584115,-0.07977412
1.455678,-0.1952104,-0.102948
1.253537,0.02824752,-0.08971858
0.9661424,0.1097185,0.002406322
0.8515119,0.04709188,0.05836623
0.8555841,-0.00930617,0.02593284
0.8678921,-0.08948004,-0.002212483
0.8349299,-0.178512,-0.005762552
0.8052353,-0.1672865,0.01720853
0.8016436,-0.1524091,0.0409187
0.7921871,-0.1170271,0.05788577
0.8008944,-0.0150252,0.08030532
0.8013015,-0.00914051,0.07463967
0.8083311,-0.01365826,0.05768428
0.8416807,0.03893216,0.05283094
0.8492296,0.03359917,0.06009961
0.9046723,0.01459741,0.07903796
1.032742,0.008199978,0.102068
1.106812,0.01138341,0.1039095
1.110561,0.03593307,0.06714015
1.175885,0.08620584,0.04114128
1.27591,0.1602857,0.04612519
1.230438,0.22635,0.06424292
1.157259,0.3230366,0.07550364
1.166572,0.3353056,0.05469673
1.177887,0.08766281,-0.006204639
1.282706,-0.2885751,-0.136382
1.371557,-0.5863134,-0.2724716
1.288058,-0.7054113,-0.2688871
1.123578,-0.6618478,-0.0937388
0.8809966,-0.5076828,0.1243792
0.7247516,-0.237303,0.1867761
0.7917681,-0.0205202,0.08978212
0.9160838,0.01983965,-0.02959259
1.053885,0.01444773,-0.1736158
1.114301,-0.01374262,-0.2560346
0.9824228,-0.06042414,-0.1799198
0.8653178,-0.07406753,-0.1352676
0.8564632,-0.07960551,-0.1346459
0.8504115,-0.05714849,-0.08502242
0.9121549,-0.02253545,-0.1254806
1.056783,0.009110374,-0.1977387
1.133743,0.04604314,-0.2069077
1.058648,0.04110311,-0.1636956
0.9401469,0.02937825,-0.03742873
0.9185021,0.04108712,0.008021442
0.9135222,0.05450621,-0.03629496
0.9091634,0.08486502,-0.03940589
0.9914483,0.1123364,-0.05788684
1.093699,0.1189918,-0.06097557
1.139293,0.1317582,-0.02661834
1.079905,0.1712529,0.02182474
1.028619,0.1961327,0.0771824
1.093308,0.1148015,0.06939072
1.178446,-0.05268016,0.03448271
1.282257,-0.1828076,0.02050707
1.286287,-0.2400756,0.009844047
1.082601,-0.2709779,-0.01713194
0.8763913,-0.316968,-0.07114894
0.7582173,0.004897082,0.06621472
0.7496719,-0.09685154,-0.0007221976
0.7878639,-0.194591,0.01493836
0.7855242,-0.178827,0.001661803
0.749138,-0.1530055,0.03632302
0.7322707,-0.1175053,0.08777991
0.6943486,-0.07896283,0.08004486
0.7083852,-0.07495926,0.08227394
0.7319658,-0.01551375,0.05672823
0.7279204,0.02188647,0.04780372
0.821945,0.02467111,0.0844617
0.9465239,0.06328354,0.1105309
1.023911,0.05716449,0.1096942
1.106483,0.02563394,0.06960011
1.289233,0.02079549,0.04833865
1.431899,0.03315474,0.04063946
1.345743,0.1380694,0.05129436
1.318678,0.3465593,0.08593044
1.374349,0.4271268,0.06984648
1.319131,0.1987418,0.03207449
1.311894,-0.1836976,-0.05653289
1.276183,-0.4849176,-0.1774108
1.168383,-0.6014712,-0.1922228
1.092862,-0.5657034,-0.1113181
0.9953628,-0.4895284,-0.0137949
0.9530035,-0.3542256,0.03051584
0.9151266,-0.1740437,0.04675978
0.8615329,-0.1072098,0.04566492
0.8716653,-0.09375645,-0.01831822
0.8168906,-0.07436951,-0.06462811
0.7903559,-0.1299529,-0.1080836
0.8184222,-0.1452131,-0.164014
0.7848562,-0.1143215,-0.1784169
0.8202556,-0.1106807,-0.1986538
0.8986396,-0.06694165,-0.1810847
0.977434,-0.03866422,-0.1419763
1.046431,-0.01226247,-0.1400501
0.9962626,0.03586629,-0.1073961
0.8849275,0.06376617,-0.04446822
0.7646227,0.1352289,0.03295783
0.7904941,0.1519628,0.03491413
1.050383,0.09433254,-0.06066071
1.251377,0.09594549,-0.08903582
1.305115,0.1018021,-0.06853863
1.346122,0.1114829,-0.03276713
1.304272,0.1705859,0.05935515
1.172505,0.2116221,0.1496763
1.18656,0.1716829,0.167856
1.278875,0.06166731,0.0398177
1.221434,-0.05273097,-0.1319566
1.150839,-0.2002054,-0.1806031
1.082572,-0.3815411,-0.1337339
1.10437,-0.4878572,-0.06789327
1.315869,-0.4607839,-0.03511716
1.372404,-0.2582227,-0.04402167
1.256056,0.02962936,-0.06337863
1.076908,0.1768801,-0.03245889
0.8982772,0.1621459,0.00851041
0.8707656,0.1137208,-0.01914992
0.8168547,-0.02228474,-0.01427188
0.7243546,-0.2294231,0.01864537
0.6480486,-0.2423884,0.04420119
0.5919128,-0.1460964,0.1024809
0.6185425,-0.1454714,0.1060292
0.6353626,-0.08685017,0.07990981
0.7310042,-0.01694122,0.06693389
0.820941,-0.01242957,0.04780267
0.8144468,0.03896443,0.07141504
0.8884852,0.06374061,0.1058693
0.9729888,0.07740296,0.1248245
1.066897,0.1038808,0.1216778
1.206775,0.0786895,0.100453
1.339945,0.05801123,0.09193257
1.465489,0.02026853,0.06538703
1.531449,0.009607817,0.04036734
1.544107,0.02009043,0.007409699
1.513581,-0.1047046,-0.06506826
1.425801,-0.2767034,-0.09985373
1.187807,-0.3510011,-0.08227417
0.891365,-0.2914906,-0.03798977
0.8426155,-0.1969932,0.004844375
0.9528126,-0.1874121,-0.02571766
1.047413,-0.188012,-0.07582112
1.105314,-0.2071723,-0.0740648
1.001508,-0.2272165,-0.07558331
0.8046584,-0.2013683,-0.07942939
0.7282243,-0.186213,-0.07380564
0.73716,-0.1171797,-0.1151451
0.7420808,-0.05670585,-0.1699134
0.8074723,-0.07065225,-0.1787696
0.8947123,-0.08595622,-0.1647767
0.9251064,-0.1151831,-0.1582341
0.9228597,-0.1000431,-0.1488675
0.9175024,-0.04734602,-0.1133675
0.9208973,0.01442344,-0.07863636
0.8998434,0.1072283,-0.05917548
0.9245588,0.130176,-0.04331339
1.02637,0.1116073,-0.05118943
1.137502,0.1083614,-0.06302283
1.261652,0.1047331,-0.06156257
1.264012,0.1700948,-0.03685758
1.147402,0.2764928,0.02977648
1.100496,0.2934661,0.08097675
1.142681,0.1568002,0.07380208
1.25372,-0.03018149,-0.008673082
1.300211,-0.1364471,-0.1238816
1.165729,-0.2271904,-0.1306138
0.9707741,-0.3767227,-0.04792307
0.9434043,-0.5125273,0.01530938
1.210185,-0.5150912,0.02593551
1.499635,-0.3297903,-0.08570924
1.492675,-0.06225287,-0.1979123
1.257019,0.08948381,-0.09848528
0.9886456,0.07896101,0.04014137
0.7856436,0.04011303,0.04213394
0.6871571,0.01049183,0.02269165
0.6598292,-0.0440677,0.01527417
0.6347266,-0.07294364,0.01924264
0.6566985,-0.08858737,0.05943263
0.6887615,-0.1071027,0.09830163
0.6667138,-0.07805435,0.1320758
0.6900342,-0.04303414,0.1278215
0.7529208,-0.009267588,0.1132127
0.8420933,0.07962634,0.1317842
0.9268998,0.1486885,0.1158899
0.9704851,0.1416157,0.0942198
1.10929,0.1217303,0.06299433
1.265719,0.1017638,0.005999996
1.316024,0.06103133,0.02498632
1.366948,0.04132738,0.07346444
1.394837,0.1185067,0.1142702
1.332895,0.2459198,0.1656817
1.286175,0.2389384,0.1224478
1.281291,0.08320158,0.01627581
1.255778,-0.1340579,-0.06729256
1.234875,-0.3974536,-0.1649196
1.166694,-0.5294195,-0.2088044
1.071356,-0.4312831,-0.1159036
1.027293,-0.3146743,0.003539379
0.9611876,-0.2424521,0.03253564
0.9202028,-0.1094346,0.02912958
0.8894823,-0.03527394,0.0248981
0.8410346,-0.08577354,-0.03698603
0.8517091,-0.1005088,-0.08343536
0.8351706,-0.1119326,-0.09682411
0.8068298,-0.1407904,-0.1373446
0.7881778,-0.1106305,-0.1518271
0.8003897,-0.1189415,-0.1629801
0.9212814,-0.1168687,-0.1732638
1.01173,-0.06908979,-0.1601372
1.015406,-0.04299469,-0.1636402
0.9716982,0.03305762,-0.1271257
0.9197169,0.106173,-0.06378052
0.8923299,0.1465477,-0.01762642
0.8959196,0.1734343,-0.006226387
1.044061,0.1409562,-0.05149125
1.242153,0.125641,-0.07358345
1.307546,0.1400116,-0.06582738
1.248479,0.1672918,-0.01193214
1.18903,0.1921152,0.09076954
1.218511,0.1010844,0.1034479
1.208348,-0.04703577,0.00720631
1.175101,-0.1119868,-0.1178293
1.137761,-0.1608873,-0.1681755
1.05273,-0.3162291,-0.1158623
1.117423,-0.5126784,-0.05541943
1.267753,-0.5639025,-0.009266372
1.342016,-0.3609484,-0.01141032
1.29841,-0.03978618,-0.05656786
1.121173,0.1218102,-0.05895988
0.9829325,0.1213992,-0.04616787
0.8637621,0.07866631,-0.02542824
0.7677698,-0.02775317,0.01352987
0.7575823,-0.1279574,0.01466038
0.6864614,-0.1584925,0.03463486
0.6397763,-0.15339,0.1048952
0.65321,-0.1337273,0.1269119
0.6655695,-0.08995332,0.1029308
0.72881,-0.002232692,0.09286717
0.7654172,0.04808846,0.08834689
0.8043321,0.07556762,0.08477546
0.865071,0.1301978,0.08863198
0.960979,0.1104047,0.0875995
1.154592,0.08590836,0.08118677
1.234704,0.09686892,0.07811067
1.250021,0.03681439,0.06847845
1.406854,-0.004282048,0.06150615
1.470305,0.04836705,0.07549507
1.414738,0.1489376,0.08888055
1.439138,0.1807979,0.06776219
1.367849,-0.02408422,-0.006119593
1.152591,-0.2975669,-0.08332922
1.009609,-0.3216228,-0.08016214
0.9596353,-0.2460624,-0.04198564
0.9768839,-0.2858657,-0.04652145
1.024347,-0.2837037,-0.04019545
1.037843,-0.2430012,-0.02477491
0.9989857,-0.2289498,-0.04314873
0.894309,-0.1505927,-0.04437935
0.8430557,-0.1352914,-0.05621305
0.8366,-0.1399795,-0.1001118
0.7781057,-0.05540268,-0.129401
0.7781902,-0.06395607,-0.1449419
0.8287395,-0.0941745,-0.1440956
0.8697631,-0.07677028,-0.1618449
0.9226613,-0.1037732,-0.1680954
0.954218,-0.07031988,-0.1335886
0.983882,0.0071669,-0.1295498
0.9803542,0.04591186,-0.1099514
0.9047147,0.0871982,-0.06608904
0.8572607,0.1325112,-0.03338908
0.8829367,0.1452117,-0.01399324
0.9814737,0.1192047,-0.04500979
1.157407,0.1172068,-0.05307167
1.270478,0.1338974,-0.04797265
1.218946,0.1714507,-0.04753106
1.117764,0.2405604,0.02876356
1.078962,0.1803029,0.08441598
1.135364,0.01984459,0.05902153
1.215311,-0.1003051,-0.04086075
1.174252,-0.2000106,-0.1720858
1.084321,-0.2493101,-0.1769086
1.030529,-0.3125172,-0.08090493
1.01613,-0.4044565,-0.001506063
1.208834,-0.3788157,0.009008576
1.425862,-0.2274425,-0.07626812
1.340284,-0.004609885,-0.1373848
1.15683,0.1241508,-0.06151028
0.9980837,0.09172751,0.03076208
0.8555906,0.05903329,0.01596353
0.856741,-0.009266357,-0.01070834
0.8535078,-0.119495,-0.009304342
0.7758799,-0.1492631,-0.01388071
0.7259969,-0.1287679,0.03866221
0.6468062,-0.08666921,0.1014116
0.6226316,-0.03800429,0.1000765
0.6991278,-0.01027345,0.07096956
0.7494492,0.02165407,0.04117062
0.7949823,0.06881282,0.03376304
0.8244433,0.1054117,0.05818947
0.8577249,0.09857792,0.09447423
0.9970606,0.04955616,0.09551043
1.15628,-0.01512151,0.05781112
1.272044,-0.02983948,0.03881766
1.362857,0.0333756,0.04656224
1.423206,0.129088,0.0574686
1.448462,0.2383431,0.04770369
1.415133,0.2548178,0.02351324
1.377295,0.08772029,-0.01454298
1.30335,-0.1437089,-0.05764389
1.08017,-0.2827768,-0.04550852
0.8682441,-0.2764262,-0.03781621
0.8768886,-0.2340341,-0.0676624
0.9767241,-0.2425637,-0.06627665
1.00434,-0.2449786,-0.06359582
0.9996289,-0.252141,-0.04342407
0.9273962,-0.2575208,-0.00659205
0.8158301,-0.2131519,-0.02503085
0.8140094,-0.1389826,-0.06758187
0.8403484,-0.04427451,-0.1335259
0.8285597,0.01904724,-0.2085875
0.8555168,0.01759485,-0.2196377
0.9038038,-0.0160163,-0.2042263
0.9467026,-0.06179329,-0.1890868
0.9768632,-0.06969236,-0.1535857
0.9787665,-0.03364729,-0.1354974
0.963365,0.007142245,-0.1266162
0.9410598,0.06787582,-0.08078991
0.9169548,0.1461563,-0.03373321
0.9420497,0.1538681,-0.04443538
1.073402,0.07186456,-0.1081311
1.224583,0.01302064,-0.1547458
1.255352,-0.00484986,-0.1342783
1.186805,0.01454011,-0.07052516
1.123486,0.1002429,0.03492573
1.076852,0.1429283,0.1286747
1.108941,0.06111047,0.08366693
1.266071,-0.08823893,-0.02464736
1.33441,-0.1616437,-0.0700723
1.215384,-0.1755628,-0.104463
1.037395,-0.3266303,-0.1126428
0.9383185,-0.5129602,-0.04236727
0.9870368,-0.5497059,0.03111553
1.041186,-0.4578282,0.005210743
1.135376,-0.192871,-0.08738332
1.275826,0.1429709,-0.1046244
1.099838,0.1894069,-0.04919981
0.7835129,-0.01208004,0.01974213
0.7453349,-0.08761523,0.0429674
0.7748,-0.138837,-0.01177063
0.7205784,-0.2527045,-0.01082982
0.6945245,-0.2254019,0.03146576
0.66147,-0.1671208,0.06902591
0.6496121,-0.1012614,0.1178728
0.7091932,-0.01832998,0.09678436
0.7885623,-0.004911834,0.07743495
0.8550889,0.07032087,0.06762762
0.8869459,0.1334568,0.04658173
0.9278004,0.1282111,0.08349387
1.016685,0.1254303,0.109162
1.132388,0.08076798,0.1264345
1.267783,0.06086339,0.116762
1.396835,0.0609007,0.07242414
1.494272,0.08071663,0.06610002
1.51803,0.1108926,0.02017874
1.490411,0.01682519,-0.04495053
1.490773,-0.1592855,-0.07430948
1.435437,-0.2878851,-0.08661528
1.194562,-0.2934173,-0.04356056
0.8945395,-0.2704173,-0.009692007
0.8314032,-0.2385199,-0.033124
0.9266581,-0.1045521,-0.06885947
0.9722526,-0.1172009,-0.1005818
1.073154,-0.2557773,-0.09987213
1.032593,-0.2799982,-0.06564935
0.807636,-0.2939926,-0.04494135
0.762629,-0.2258654,-0.06322906
0.7560326,-0.08807372,-0.110549
0.7615158,-0.01848272,-0.1777602
0.8758037,0.04802121,-0.2285501
0.9119382,0.04096892,-0.2293354
0.9658842,0.009995331,-0.2177673
0.983974,-0.02231896,-0.1838025
0.9565658,-0.09612447,-0.1194105
0.9853329,-0.02064676,-0.09372128
0.9139413,0.08945257,-0.07885684
0.8960264,0.0962564,-0.04032226
0.9378954,0.1031142,-0.03012366
0.9633266,0.08095885,-0.03113089
1.105951,0.06691169,-0.02658833
1.195094,0.1288025,-0.04004727
1.219635,0.2270787,-0.0443026
1.206198,0.2647142,-0.01888101
1.144228,0.1812045,0.0634992
1.199564,0.07257263,0.1414806
1.224717,-0.01111278,0.03899872
1.165354,-0.1075612,-0.142743
1.116028,-0.2204111,-0.1716094
1.053548,-0.3618226,-0.1197285
1.123922,-0.4880312,-0.07294429
1.289666,-0.4752426,-0.02581371
1.342923,-0.3037643,-0.05436907
1.240676,-0.07791794,-0.09426491
1.050623,0.07288621,-0.05507702
0.9210138,0.06896436,-0.02552519
0.8559931,-0.003765009,-0.02343095
0.8116021,-0.08288747,-0.01356851
0.8006343,-0.1576269,-0.007925073
0.7413786,-0.1483555,0.03466114
0.6851454,-0.1207992,0.09312362
0.7037389,-0.1153194,0.1023884
0.7472243,-0.07507866,0.09179716
0.8123981,-0.03818649,0.08896886
0.8424693,-3.212308e-05,0.08974111
0.848646,0.05032467,0.09095959
0.8873251,0.1130184,0.09223936
0.9312797,0.1640019,0.09691272
1.038949,0.1353061,0.09147202
1.184285,0.06576028,0.07684161
1.265051,0.02309824,0.06630489
1.303949,0.08424372,0.0832168
1.35095,0.2440618,0.1067035
1.394062,0.3458013,0.07159567
1.371624,0.3035214,0.009557565
1.344277,0.08631067,-0.05065066
1.32738,-0.2387119,-0.1151683
1.17976,-0.4405814,-0.1260171
0.9838425,-0.4249969,-0.08958266
0.9252218,-0.3216844,-0.05097379
0.9764093,-0.2270686,-0.02085313
0.9800763,-0.1706234,-0.0131301
0.9287702,-0.1746182,-0.006413982
0.9042217,-0.1757207,-0.004290422
0.8418997,-0.1672117,-0.03235667
0.8188525,-0.1704197,-0.06841413
0.8634483,-0.1291975,-0.1114251
0.843398,-0.09037718,-0.1606877
0.8557701,-0.082469,-0.1824379
0.890442,-0.08020492,-0.1818994
0.9260279,-0.08705826,-0.1820396
1.017478,-0.07056282,-0.1796233
1.003733,-0.03832255,-0.1613958
0.9585665,0.01865382,-0.1316435
0.9870729,0.07332673,-0.1218665
0.9850338,0.07326882,-0.1289055
1.018288,0.05790742,-0.1221807
1.072067,0.02319141,-0.1103351
1.072112,0.003265725,-0.08991103
1.076226,0.05241617,-0.04456485
1.068174,0.1377885,-0.006836179
1.048894,0.2200771,0.008622884
1.070459,0.2182496,0.03260384
1.150695,0.08547481,0.05045054
1.283263,-0.1171475,0.01421642
1.320513,-0.2372925,-0.05717359
1.143421,-0.21591,-0.09650666
0.9645128,-0.2459599,-0.08055346
1.026836,-0.373666,-0.04053336
1.251424,-0.4033221,-0.02613887
1.401891,-0.2739961,-0.06569869
1.309267,-0.0836501,-0.1017829
1.076932,0.05367162,-0.04856318
0.9262291,0.1093334,0.03633817
0.8338214,0.06571052,0.05901629
0.7902922,-0.07411616,0.06019248
0.7966472,-0.1628539,0.0587868
0.77,-0.170913,0.04706018
0.7920048,-0.1662273,0.05557602
0.8090977,-0.1279365,0.0585433
0.7853362,-0.07905302,0.05915764
0.8056346,-0.03974594,0.07423147
0.7742627,-0.01491094,0.08829042
0.767462,0.03002895,0.1139648
0.8209079,0.1033751,0.1254698
0.8940191,0.1061416,0.1131056
1.056705,0.06650838,0.09762144
1.144404,0.04250586,0.08034965
1.200398,0.04560328,0.07958616
1.33539,0.06625755,0.07987958
1.346098,0.07380633,0.07467463
1.31365,0.1757533,0.08036201
1.367713,0.3158323,0.07804857
1.336322,0.281212,0.06171265
1.260979,0.04727019,0.008379915
1.275839,-0.2855887,-0.1058681
1.221112,-0.4951345,-0.1994897
1.109308,-0.488647,-0.1787446
1.070845,-0.4310131,-0.08632735
0.9847841,-0.380452,0.004469924
0.9015835,-0.3064162,0.06216895
0.8904405,-0.2312339,0.04066062
0.851142,-0.160974,-0.01821841
0.8372141,-0.1371427,-0.05942484
0.8661348,-0.1438617,-0.1080846
0.8671712,-0.09364428,-0.1494823
0.8437533,-0.05360132,-0.182086
0.8410604,-0.059368,-0.1828913
0.9013579,-0.0550215,-0.1534317
0.9831217,-0.0598617,-0.1606607
1.009184,-0.03244777,-0.1455585
1.004909,0.01603101,-0.1146567
0.9951,0.04064706,-0.103927
0.9307038,0.0816953,-0.04509508
0.8896741,0.0969307,-0.009954313
0.9494752,0.08755383,-0.03414133
1.068708,0.1059809,-0.04777576
1.205817,0.1388512,-0.04809916
1.221967,0.1876931,-0.04038976
1.133675,0.236588,-0.006777154
1.102921,0.2301613,0.0651101
1.093615,0.1171446,0.09117949
1.140003,-0.05421635,0.02484683
1.221788,-0.1647125,-0.0551482
1.162285,-0.2051349,-0.09287914
1.036744,-0.2739084,-0.06477359
0.9630687,-0.3869232,-0.0227968
1.043046,-0.4295601,-0.02562741
1.348612,-0.3545945,-0.08448638
1.560954,-0.1684847,-0.1741418
1.435525,0.07415891,-0.1596745
1.150274,0.1758142,-0.02854462
0.8835074,0.1194159,0.06849145
0.7296618,0.06942758,0.06220824
0.7392552,0.007558679,-0.003647715
0.7530046,-0.06800477,-0.02676645
0.6861884,-0.0629557,-0.003318008
0.6726986,-0.05030138,0.04685087
0.657575,-0.06168436,0.136212
0.6714238,-0.03768003,0.1493529
0.8039504,-0.01997014,0.09820045
0.8550559,0.01300079,0.08761375
0.8891087,0.06791649,0.08351382
0.9832416,0.09654791,0.0995691
1.044692,0.1110388,0.1186282
1.151149,0.07611733,0.09261828
1.229272,0.02498657,0.06716831
1.2675,0.03860531,0.06633906
1.304894,0.1304226,0.1057421
1.317089,0.2783738,0.1437024
1.355241,0.3290817,0.1056016
1.336342,0.170071,0.02308171
1.306442,-0.1178068,-0.06866279
1.24422,-0.3818025,-0.1528204
1.065696,-0.4535396,-0.1650331
0.9969421,-0.359456,-0.1097617
1.018612,-0.2882681,-0.04637132
0.9879003,-0.2120559,0.0223285
0.956061,-0.1188499,0.06435212
0.9217215,-0.1274095,0.05369896
0.8728352,-0.1291893,0.008810085
0.8234779,-0.0929769,-0.06279628
0.850223,-0.08128171,-0.1110872
0.894694,-0.03246817,-0.1487509
0.8252956,-0.02504925,-0.1711477
0.77781,-0.03677009,-0.1417239
0.8078074,-0.01124426,-0.1559587
0.8307321,-0.02970083,-0.1672529
0.9236401,-0.01373453,-0.1377501
1.030845,0.03658128,-0.139752
0.9590827,0.0741147,-0.07652434
0.8611428,0.1177717,-0.001906002
0.9355094,0.1081396,-0.003527606
1.046584,0.1014772,-0.02203171
1.176263,0.1309273,-0.07213085
1.283917,0.1821225,-0.08566954
1.223453,0.2739149,-0.04751332
1.211669,0.2779045,-0.003224305
1.270219,0.1528867,0.03457768
1.247922,-0.01630757,-0.01991511
1.255344,-0.1871251,-0.08157628
1.141032,-0.3131347,-0.06138646
0.9026595,-0.4178099,-0.02719838
0.8947299,-0.4828945,0.01317934
1.158922,-0.4240449,0.02328049
1.407419,-0.2594717,-0.03446333
1.329864,-0.04868008,-0.07976732
1.117346,0.1000522,-0.04359411
1.025433,0.1297043,0.004316104
0.8877635,0.08598671,0.009978794
0.7780211,-0.02355737,0.02668193
0.7258858,-0.09216202,0.04225793
0.6542282,-0.08539863,0.04778744
0.6757099,-0.09986201,0.07315508
0.6971166,-0.07944204,0.1074015
0.721712,-0.05853772,0.1456603
0.7821809,-0.0668781,0.1400797
0.8110784,-0.02706282,0.106862
0.8658201,0.01358163,0.1136292
0.8818826,0.08196541,0.1092386
0.9168361,0.1531831,0.1048774
1.017516,0.1454038,0.1204306
1.110677,0.1056775,0.09319495
1.236264,0.045684,0.080613
1.279059,0.04164923,0.1139613
1.26763,0.1566491,0.1306867
1.284121,0.3158208,0.109368
1.263897,0.3635259,0.04781914
1.274174,0.1454226,-0.02721872
1.264221,-0.2187326,-0.1111007
1.232875,-0.4880539,-0.1877857
1.223676,-0.5534985,-0.1964911
1.149942,-0.4599392,-0.1145766
1.040873,-0.319902,0.01521579
0.9111562,-0.1065062,0.07362857
0.8272292,0.07131696,0.04778527
0.8382793,0.04614647,0.01085997
0.8644245,-0.01573003,-0.05837826
0.8960198,-0.05064025,-0.1245976
0.8766636,-0.1083983,-0.1368506
0.8192906,-0.1107775,-0.1362298
0.7985681,-0.1161178,-0.1399751
0.810885,-0.09889075,-0.1400809
0.9045357,0.009014976,-0.141383
1.002607,0.08620536,-0.1488359
0.9847519,0.10976,-0.1390179
0.9142502,0.1068618,-0.08235338
0.8901812,0.08186546,-0.02178741
0.9646087,0.05329071,-0.03112153
1.101055,0.03980438,-0.07299243
1.207456,0.08554659,-0.08205721
1.228097,0.1570483,-0.08969903
1.169555,0.2512145,-0.0721448
1.131781,0.2974338,-0.03366007
1.193737,0.1791412,-0.04754226
1.268439,0.02412876,-0.05341612
1.239108,-0.07185172,-0.05612744
1.090049,-0.1339609,-0.09046284
0.8726482,-0.2059112,-0.07776951
0.8267308,-0.2871566,-0.06594598
1.123162,-0.272606,-0.08541605
1.460237,-0.2557655,-0.08861167
1.4973,-0.2438737,-0.1033929
1.277778,-0.02492391,-0.1050291
1.08851,0.2013671,-0.09238141
1.059007,0.1570517,-0.09119376
0.9490002,0.04658009,-0.04658248
0.7265639,0.009819059,0.002388538
0.6944081,-0.07797386,-0.007553394
0.7772642,-0.1171767,0.005039056
0.748647,-0.09470363,0.0587081
0.7502532,-0.1446595,0.06004151
0.7990615,-0.1083148,0.04028823
0.7828747,-0.05011691,0.0545551
0.8109627,-0.05606122,0.05184995
0.8579863,0.03648499,0.05031909
0.8972985,0.0810488,0.06942654
0.9750493,0.06789491,0.07387793
1.031164,0.06646016,0.07950047
1.123797,0.01188958,0.06529307
1.205335,0.02790978,0.02722322
1.2753,0.0841105,0.01406081
1.404544,0.1668266,0.02328039
1.402996,0.2792658,0.03421037
1.351481,0.2805193,0.02402232
1.355001,0.129581,-0.006480303
1.264188,-0.1671341,-0.05754036
1.139077,-0.3605248,-0.1141717
1.004119,-0.355085,-0.1133569
0.9092284,-0.3465348,-0.07931566
0.9208738,-0.2946904,-0.03590963
0.9040742,-0.2102976,0.02376622
0.901076,-0.1385514,0.0316752
0.9360118,-0.0787544,-0.01225483
0.925717,-0.07380729,-0.07172128
0.9290758,-0.05704221,-0.1351032
0.9152196,-0.03706259,-0.1519751
0.8690685,-0.02140076,-0.1386084
0.855172,-0.01318576,-0.1429781
0.8681066,-0.02988088,-0.1453915
0.9225686,0.005837258,-0.1429253
0.9843374,0.02946332,-0.155595
1.009595,0.01676693,-0.167975
1.001819,0.02925528,-0.1528683
0.9430168,0.03421732,-0.08871066
0.8881189,0.04481009,-0.01886343
0.9232758,0.04469922,-0.03231086
1.010119,0.0381038,-0.07431041
1.074182,0.06429351,-0.06562275
1.160213,0.1155968,-0.06096055
1.235698,0.2018997,-0.0479184
1.210606,0.2341916,-0.001467104
1.195555,0.1599886,0.03702238
1.226541,0.07294217,0.06427329
1.24228,0.001971604,0.02267063
1.2578,-0.06296688,-0.0733345
1.17984,-0.1234024,-0.1144998
0.9947494,-0.2210851,-0.1089153
0.9038564,-0.341319,-0.0717764
1.021289,-0.3915489,-0.03924767
1.261736,-0.3439321,-0.06937056
1.419217,-0.1860079,-0.1179676
1.315774,0.05725674,-0.1359465
1.066128,0.1694641,-0.07217385
0.9014284,0.1063144,0.02771825
0.8077813,0.04212717,0.03006553
0.7821068,-0.04772678,-0.01147474
0.7996645,-0.1299973,-0.007542304
0.7502517,-0.113681,0.01928915
0.7389374,-0.1176715,0.07234733
0.7488284,-0.1193933,0.1176693
0.7498701,-0.06150819,0.1083371
0.8359249,-0.01606213,0.08409524
0.8705267,0.04222057,0.07352951
0.8706351,0.07580293,0.08063
0.9277705,0.07520892,0.09373395
0.9981383,0.07587197,0.07694073
1.097904,0.01444387,0.0417834
1.172878,-0.02381064,0.01894619
1.249811,0.01137763,0.03889784
1.324627,0.08668002,0.08602507
1.310566,0.2783541,0.09779369
1.249828,0.4987636,0.1044457
1.171981,0.5177017,0.1085819
1.155501,0.2244114,0.05051525
1.191712,-0.2415068,-0.05333204
1.1997,-0.5289976,-0.1683151
1.24532,-0.519267,-0.2399189
1.258566,-0.4873633,-0.2495571
1.08666,-0.4356423,-0.149635
0.8020868,-0.1758683,0.07747966
0.6729824,-0.05187246,0.1687091
0.7792766,-0.119632,0.08519195
0.8948733,-0.06566599,0.00883528
0.9827507,-0.09272117,-0.1352132
1.048538,-0.1555557,-0.2304803
0.9489906,-0.08703716,-0.1677618
0.838403,-0.08124917,-0.1496213
0.8318939,-0.08610673,-0.1537928
0.8246916,-0.07355533,-0.127381
0.8900644,-0.06265122,-0.1484279
1.00204,-0.01106598,-0.1579072
1.022584,-0.005925947,-0.1407776
0.9396229,-0.007588483,-0.1042473
0.8546187,0.01253383,-0.04176557
0.9160934,0.03155618,-0.04789439
1.004017,0.05768218,-0.07695207
1.085851,0.09301466,-0.05802913
1.247201,0.1623114,-0.07354841
1.231188,0.185759,-0.07481018
1.129104,0.1822693,-0.02257339
1.165126,0.2152718,0.01909227
1.139695,0.1685583,0.05720859
1.154525,0.05743445,0.04570248
1.258174,-0.001341498,-0.01715857
1.223332,-0.03039114,-0.08189801
1.121267,-0.09807574,-0.1345528
0.9529929,-0.2318639,-0.1127766
0.8292038,-0.3764077,-0.05201913
1.001352,-0.434522,-0.01709932
1.300034,-0.378323,-0.05282319
1.492437,-0.1995756,-0.1652885
1.39728,0.05402408,-0.1878193
1.094752,0.1664019,-0.07725105
0.9029738,0.08304496,0.05296875
0.7766933,0.01080762,0.09551284
0.7545115,-0.04385846,0.03757513
0.8092325,-0.09764698,0.02688669
0.7472451,-0.0406154,0.04146511
0.7532558,-0.01210093,0.04576524
0.7678569,-0.0337864,0.1088428
0.7352838,0.001717391,0.1261626
0.8105056,-0.001937453,0.08782151
0.8425389,0.0344981,0.06121275
0.8573571,0.1045423,0.05161551
0.9001946,0.07205325,0.08729844
0.9353908,0.0631412,0.1183593
0.9959233,0.06799193,0.1145543
1.04287,0.0005432162,0.07936672
1.196626,-0.04504933,0.04627026
1.33254,-0.004778938,0.07290873
1.340836,0.06987201,0.09080776
1.415303,0.1487176,0.05913852
1.45606,0.2829009,0.0211125
1.402343,0.28943,-0.01179176
1.326922,0.04192876,-0.03139283
1.226549,-0.2191964,-0.03532353
1.068483,-0.3571927,-0.03391665
0.8870068,-0.3471286,-0.04140575
0.8993584,-0.2624671,-0.07042601
0.9846049,-0.2165104,-0.09601699
0.9772296,-0.1691835,-0.06656169
0.9709809,-0.1736918,-0.01277016
0.8961744,-0.186652,-0.007589818
0.8466022,-0.1405404,-0.04182049
0.8771176,-0.112369,-0.09487644
0.8680826,-0.04020262,-0.1450248
0.8690923,0.01406481,-0.1654708
0.8698267,-0.002347962,-0.1665201
0.8841486,-0.0038468,-0.1480656
0.9301741,-0.02104721,-0.1272108
0.9641558,0.007877026,-0.1202966
0.9838321,0.06772975,-0.117016
0.9557722,0.08268797,-0.11263
0.9273686,0.09559369,-0.08512309
0.9104303,0.07786724,-0.0543692
0.9198298,0.06441346,-0.06031297
1.046088,0.08490779,-0.07323276
1.225618,0.1125881,-0.07023008
1.312238,0.1667327,-0.06608357
1.24785,0.2232696,-0.04604186
1.200498,0.2662544,0.002812495
1.241092,0.2144581,0.04408714
1.231336,0.06986665,0.0385479
1.227644,-0.0126385,-0.03770224
1.170234,-0.09262097,-0.1299624
0.9841488,-0.2353974,-0.1183329
0.8918817,-0.359618,-0.04163146
0.968438,-0.4353079,-0.0004886594
1.187887,-0.3772006,-0.004746893
1.414108,-0.183712,-0.0972625
1.371045,0.03278456,-0.1845255
1.148712,0.1576922,-0.1057573
0.9611274,0.0897107,0.01074068
0.8090906,-0.01654209,0.04257027
0.7544376,-0.07965033,0.05558997
0.7542688,-0.1426592,0.05239918
0.6903108,-0.0983171,0.05132117
0.6871358,-0.07601971,0.07838181
0.7275741,-0.08182438,0.08872084
0.7261255,-0.00566191,0.1001783
0.7677874,-0.001590836,0.1059129
0.7958607,0.05544484,0.08939235
0.815818,0.1635684,0.09574322
0.8742474,0.1449595,0.09498197
0.9549649,0.1450964,0.0750045
1.093493,0.1197052,0.05160428
1.203876,0.02051994,0.02675162
1.301339,-0.009950925,0.05955748
1.408725,0.05485332,0.0928381
1.429082,0.1789,0.05263381
1.407079,0.2078889,0.003427128
1.358251,0.02815704,-0.02947331
1.234803,-0.2391274,-0.03279594
1.028254,-0.3580966,-0.01534538
0.9164306,-0.3156585,-0.03668743
1.015825,-0.272113,-0.09034777
1.077194,-0.2020511,-0.1391557
1.06307,-0.1573343,-0.1185131
1.009982,-0.151729,-0.02730465
0.8654391,-0.08143689,0.01987061
0.8465115,-0.08634311,-0.0007538561
0.8714557,-0.1175189,-0.04657355
0.7972496,-0.05316617,-0.09937544
0.8216504,-0.02871604,-0.1444325
0.8621489,-0.01417632,-0.1796288
0.8639578,0.002478198,-0.1858241
0.9318299,-0.04114029,-0.1719295
0.9594271,-0.05749709,-0.1549199
0.9685976,-0.02987951,-0.1409989
0.9873416,0.02028268,-0.1288745
0.9377432,0.07382818,-0.09623529
0.8908631,0.09466631,-0.07717417
0.8830118,0.09377752,-0.0663828
0.9508688,0.06800498,-0.05536009
1.114402,0.05073746,-0.07186798
1.231909,0.08459574,-0.07116669
1.239177,0.1670457,-0.07026799
1.178923,0.2329686,-0.06683764
1.151291,0.1679026,-0.01851343
1.237993,0.02571342,0.01099809
1.318803,-0.05501032,-0.02582385
1.28028,-0.07157913,-0.09652771
1.139928,-0.1004248,-0.1103322
0.928035,-0.2055492,-0.05898758
0.8147541,-0.3336326,0.0046442
1.008304,-0.3827672,0.04202988
1.344992,-0.3169519,-0.05025079
1.486709,-0.1377322,-0.1775663
1.357332,0.05788918,-0.1575121
1.086388,0.1254369,-0.0442357
0.8514785,0.06975415,0.06821809
0.7245247,0.02685944,0.0945626
0.7105232,0.0006996072,0.03806852
0.7490371,-0.04379641,0.02811185
0.7387471,-0.03220872,0.04808255
0.779933,-0.04256829,0.05610473
0.8180661,-0.08055145,0.0816783
0.7649827,-0.04667375,0.0782976
0.771173,-0.02242191,0.06301755
0.7808102,0.03491759,0.07305759
0.8008169,0.1072897,0.06592668
0.8993832,0.07985835,0.07295575
1.008753,0.04566243,0.08788285
1.142426,0.01457091,0.05216817
1.243844,0.008125616,0.006542096
1.328976,0.07421218,-0.01094403
1.392267,0.1494109,0.002236286
1.381576,0.2181447,0.02354831
1.409491,0.2443152,0.04600621
1.422848,0.2076801,0.07159953
1.329228,-0.02018901,0.0115043
1.134672,-0.3678681,-0.0719482
0.9111616,-0.380033,-0.03959557
0.8507345,-0.2507228,-0.0261875
0.9080219,-0.2887244,-0.08927724
0.9259378,-0.2008135,-0.1020767
0.9639141,-0.1722192,-0.08939541
1.037787,-0.2761561,-0.07357144
1.014626,-0.2229906,-0.037111
0.9283458,-0.2397006,-0.02765201
0.8839001,-0.2151086,-0.04717586
0.8301679,-0.04634207,-0.09253243
0.8364313,-0.02277243,-0.1476478
0.8893188,0.01686509,-0.1841835
0.8821047,0.05373705,-0.2033824
0.9383075,-0.0001597324,-0.1828677
0.9860117,-0.01069517,-0.1382973
0.9638112,-0.04119588,-0.1102826
0.9755916,-0.02188826,-0.1089189
0.942446,0.02431907,-0.1041287
0.9205377,0.03023904,-0.06794835
0.9434787,0.05300166,-0.06045562
0.9824608,0.03579403,-0.08799093
1.120597,0.04778248,-0.09879594
1.222206,0.1086656,-0.09886134
1.202729,0.1897341,-0.0659373
1.138983,0.2659892,-0.0001329399
1.100497,0.2081663,0.04806569
1.183798,0.09943481,0.05006483
1.293061,-0.007922368,-0.01002729
1.274383,-0.1379968,-0.08597622
1.11175,-0.2249844,-0.09982048
0.8752685,-0.3597936,-0.0489958
0.800081,-0.510064,0.01048223
1.053683,-0.507153,0.02286964
1.357965,-0.3346354,-0.04293985
1.377138,-0.0355979,-0.1108756
1.231935,0.191044,-0.06837606
1.076641,0.1928689,-0.00199879
0.9042276,0.09304453,0.007939299
0.817016,-0.02244956,0.02721728
0.8053065,-0.1188771,0.02432992
0.7716147,-0.1430767,0.01811615
0.7490643,-0.1287833,0.06763813
0.7500404,-0.10636,0.1111164
0.7510938,-0.065733,0.1344998
0.7658867,-0.006266103,0.1166414
0.788049,0.05516405,0.08002398
0.8046416,0.1142456,0.08437472
0.8385959,0.1440511,0.076551
0.9274173,0.09544483,0.07173634
1.063956,0.01080822,0.07038715
1.155975,-0.06019577,0.03866291
1.172655,-0.0864348,0.02780515
1.191359,-0.05166392,0.02751239
1.212296,0.0114888,0.03729858
1.235932,0.2109339,0.07197128
1.289952,0.4535087,0.09008835
1.318751,0.3666477,0.04189431
1.363014,0.08443744,-0.05884314
1.410425,-0.165191,-0.1091511
1.273136,-0.4439672,-0.1206083
1.044531,-0.485488,-0.1058596
0.9449137,-0.3491345,-0.04405555
0.9406284,-0.3287116,-0.0366876
0.9722657,-0.2173765,-0.04163705
0.9068566,-0.17745,-0.1041957
0.9775009,-0.1702724,-0.09479059
1.010171,-0.114742,-0.08975775
1.019278,-0.0530209,-0.05949171
0.9752133,0.02979503,0.009239927
0.9882928,0.05388207,0.03361695
1.098215,-0.003099295,0.02308377
1.213385,-0.005843331,0.006663558
1.312769,0.08070749,0.005735357
1.28916,0.165819,0.06866567
1.265334,0.129985,0.1499142
1.344199,-0.09697466,0.1422966
1.3311,-0.3868899,0.01423223
1.237779,-0.5135166,-0.1123616
1.085821,-0.4746604,-0.1170529
1.024816,-0.4370972,-0.02934186
1.213142,-0.3648827,0.01769215
1.341049,-0.2080796,-0.03222469
1.278019,-0.140085,-0.07198692
1.11762,-0.1581565,-0.05778203
0.8632848,-0.1565663,-0.0132358
0.6200263,-0.1489436,0.05087481
0.5149588,-0.1104687,0.07872357
0.5251965,-0.06486068,0.08373886
0.5262456,-0.04393656,0.09575908
0.5522953,-0.05557002,0.0904927
0.6197252,-0.09404132,0.0879883
0.6589605,-0.1159924,0.105792
0.6941942,-0.119159,0.1405874
0.7376799,-0.05402807,0.2021628
0.8309997,0.03127962,0.2410785
0.947097,0.04340289,0.2173802
1.120995,0.03188665,0.1821998
1.388283,-0.02140546,0.1451181
1.591722,-0.07741695,0.1201805
1.702508,-0.02559717,0.144573
1.603949,0.03234033,0.1492937
1.357221,-0.04260639,0.1012724
1.264402,-0.2314788,0.0004051207
1.213079,-0.4520427,-0.1585015
1.176538,-0.5232494,-0.2241721
1.175296,-0.3835543,-0.1315468
1.093393,-0.3092055,-0.03767377
1.059147,-0.3143567,0.0176566
1.027297,-0.2316387,0.0805253
0.8884473,-0.1870728,0.08651171
0.6955455,-0.1839782,0.03351097
0.5567057,-0.1866818,-0.0210423
0.5748167,-0.2099234,-0.08431819
0.6353904,-0.2054495,-0.1253823
0.7180103,-0.2339717,-0.1338178
0.8252305,-0.2423224,-0.1402401
0.8862467,-0.1921619,-0.1188095
0.9542277,-0.1062803,-0.07852993
0.9634679,0.0395196,-0.03875381
0.9455603,0.1250213,-0.001890742
0.9949887,0.1310855,0.03483837
1.060893,0.1185925,0.09602265
1.158243,0.08481811,0.1139496
1.266156,0.06866127,0.08406075
1.336725,0.0954678,0.1014195
1.295976,0.1323925,0.1341041
1.17437,0.06409918,0.1585759
1.154697,-0.09444151,0.1385899
1.194307,-0.2729425,-0.01528336
1.195512,-0.4610985,-0.1573681
1.119057,-0.5237429,-0.1224751
1.033316,-0.4966304,-0.06508344
1.169141,-0.471754,-0.07668335
1.402772,-0.3559186,-0.03646435
1.466471,-0.195377,-0.04512437
1.332482,-0.08705964,-0.1139008
1.056148,-0.05764416,-0.02978399
0.7906297,-0.07036128,0.05142848
0.6105447,-0.05487713,0.03982991
0.5386306,-0.062989,0.06778147
0.5638608,-0.09491212,0.06862039
0.573025,-0.1124108,0.08161754
0.5884439,-0.1341794,0.09804291
0.5880866,-0.1226615,0.06504768
0.5586176,-0.09796649,0.07267418
0.5982952,-0.08387666,0.08768912
0.6911593,-0.05334931,0.1379727
0.8434143,-0.03469087,0.2157581
1.014149,-0.03727748,0.2115597
1.208895,-0.07419963,0.1443304
1.452351,-0.117608,0.06091542
1.602094,-0.07600175,0.05611538
1.68668,0.05296429,0.1260932
1.569591,0.2024986,0.1823371
1.228739,0.203051,0.1963483
1.140042,-0.0676274,0.07332587
1.215249,-0.4226391,-0.1395043
1.237471,-0.6171637,-0.2336563
1.305814,-0.6104463,-0.162658
1.187311,-0.5093093,-0.0481439
0.9183113,-0.3625029,0.07162791
0.7583532,-0.1984404,0.1728892
0.7393362,-0.1623909,0.1069965
0.7750054,-0.184485,-0.01041556
0.7238471,-0.159152,-0.04175974
0.7224253,-0.1893817,-0.1138921
0.752879,-0.1941411,-0.1415115
0.7140686,-0.1618463,-0.1181281
0.7781105,-0.1706082,-0.1399238
0.8576165,-0.1271852,-0.1176075
0.921585,-0.0710805,-0.1148322
0.9840395,-5.981708e-05,-0.1025385
0.9551791,0.1014719,-0.02627394
0.9685294,0.1188324,0.01080946
1.002202,0.1032939,0.06764793
1.053891,0.09046649,0.1285537
1.188823,0.07876063,0.1444769
1.282218,0.130491,0.156627
1.29851,0.2138193,0.1594325
1.244369,0.21765,0.1673986
1.213931,-0.01091816,0.1178934
1.233026,-0.3803972,-0.0166585
1.168042,-0.5645178,-0.1193568
1.034945,-0.519805,-0.09070923
0.964605,-0.416636,-0.01439003
1.197952,-0.3075561,-0.03397571
1.577996,-0.2323393,-0.09648454
1.593862,-0.1932508,-0.1470269
1.327433,-0.100471,-0.1058297
1.044911,-0.02397183,0.01210896
0.7849896,-0.007989681,0.01406647
0.6381154,0.004503516,0.01577443
0.5611697,-0.06042236,0.06284932
0.5174733,-0.1416514,0.06561286
0.527576,-0.1609652,0.1190537
0.5529095,-0.1726974,0.1278562
0.6303632,-0.1604717,0.1016592
0.7147515,-0.1531194,0.1209278
0.7762979,-0.1322262,0.1030975
0.8770998,-0.08141511,0.1164467
0.9811235,-0.06923256,0.1377428
1.086781,-0.08804511,0.12667
1.17188,-0.1464017,0.120999
1.239605,-0.185942,0.09668854
1.420447,-0.1146427,0.1216718
1.571598,0.02237071,0.1647055
1.433786,0.1439447,0.16274
1.207772,0.168862,0.1346876
1.173222,0.01834953,0.05409471
1.183447,-0.267563,-0.05071029
1.162492,-0.4547434,-0.1311625
1.215983,-0.5045149,-0.1310566
1.25255,-0.6071756,-0.1067098
1.221575,-0.6250416,-0.123101
1.12493,-0.4637304,-0.02880834
0.9704872,-0.2850425,0.1090814
0.8887868,-0.115563,0.109745
0.8633518,-0.1303153,0.03938836
0.7782109,-0.2639807,-0.04361095
0.7109792,-0.2030534,-0.08085363
0.744457,-0.1875136,-0.07583527
0.7330839,-0.2000096,-0.1128399
0.7048978,-0.09779046,-0.1334722
0.8102009,-0.1425106,-0.1175123
0.9170416,-0.1221617,-0.120629
0.9910233,-0.02008125,-0.1191633
1.012053,-0.01799437,-0.07299738
0.9371028,0.04069857,0.01029966
0.9213962,0.02350306,0.08686331
0.9630543,0.01390369,0.1092855
1.087788,0.1120845,0.07708042
1.283421,0.1844277,0.06423197
1.329956,0.2841959,0.08704104
1.235053,0.2613962,0.1288815
1.145917,0.09411966,0.1995305
1.135154,-0.1378199,0.1802323
1.163973,-0.3893222,0.01228112
1.152194,-0.4679976,-0.1310389
1.049323,-0.4803008,-0.09741775
0.966312,-0.4545111,0.01632378
1.184596,-0.3256467,0.01532055
1.487953,-0.2097775,-0.09683718
1.462135,-0.08813416,-0.1883004
1.260019,-0.0485322,-0.1175174
1.0579,-0.09460834,0.03171896
0.807988,-0.08739768,0.05476596
0.6064219,-0.09329457,0.08573303
0.5946064,-0.1116142,0.1041331
0.6866164,-0.1297046,0.03613977
0.702368,-0.1630019,0.08237101
0.6903569,-0.1504019,0.1021326
0.6906126,-0.12474,0.07830077
0.6518291,-0.1070243,0.1284751
0.6782332,-0.08663876,0.1090443
0.7692711,-0.06816434,0.1196313
0.8866261,-0.03727693,0.1454821
1.057254,-0.03632414,0.1256736
1.158552,-0.0905713,0.1552749
1.232831,-0.1627409,0.1375251
1.378299,-0.1731474,0.1306698
1.465966,-0.01560407,0.1721524
1.405745,0.2388649,0.1828663
1.240173,0.3206884,0.1824313
1.105095,0.1269129,0.10494
1.062131,-0.1870996,-0.04985717
1.11294,-0.4933893,-0.2261724
1.24823,-0.695571,-0.3036336
1.330307,-0.711138,-0.2004152
1.230045,-0.6306173,-0.04911291
0.9664961,-0.4993184,0.1269416
0.7694494,-0.2444845,0.226555
0.711744,-0.01416346,0.1231747
0.6959528,-0.00809179,0.02194101
0.7842883,-0.07561275,-0.05079892
0.8654953,-0.05548638,-0.1701321
0.8548556,-0.09739023,-0.1609791
0.8201414,-0.1741209,-0.09557413
0.7839563,-0.1440077,-0.1119953
0.8381019,-0.119026,-0.09195119
0.927649,-0.07835254,-0.08338493
0.9951403,-0.005094059,-0.1051175
1.013693,0.01335728,-0.05942906
0.9629405,0.05665706,-0.0201643
0.9831968,0.08584618,0.01445928
1.07284,0.07847722,0.04252817
1.200293,0.09286826,0.05062497
1.26868,0.101829,0.1121659
1.175412,0.1295556,0.1616991
1.11179,0.1260875,0.2041881
1.107463,0.08579134,0.2416698
1.115745,-0.02035424,0.1581089
1.198845,-0.2817165,-0.05327878
1.240777,-0.4332812,-0.2612952
1.142705,-0.3542734,-0.1870106
0.9829447,-0.3349062,0.03047928
0.9850398,-0.3677909,0.05089405
1.255477,-0.2895111,0.03820851
1.530752,-0.2044327,-0.06462449
1.504572,-0.1169487,-0.2314327
1.227299,-0.01485393,-0.1036512
0.9407815,-0.02736359,0.03909574
0.7062236,-0.04171341,0.04560485
0.5863842,-0.03718498,0.1019615
0.5852549,-0.1143092,0.09058361
0.5649769,-0.1371112,0.08441616
0.601857,-0.1296083,0.116691
0.6634294,-0.143829,0.1059604
0.6869052,-0.12646,0.1218486
0.7644611,-0.1066274,0.1216952
0.8091002,-0.04014464,0.123324
0.8706702,0.01619387,0.1441505
1.029907,-0.004314863,0.1369674
1.195263,-0.0598574,0.1314657
1.287624,-0.160078,0.1158155
1.325427,-0.1936044,0.1245029
1.433258,-0.0608709,0.1715106
1.43947,0.1272949,0.1898146
1.336989,0.1690728,0.1371578
1.344621,-0.04610962,0.01687518
1.266938,-0.3489911,-0.0805111
1.112231,-0.4730102,-0.1179767
0.9946701,-0.4191589,-0.09208991
0.9238641,-0.3843388,-0.02823212
1.033774,-0.3834984,-0.01490665
1.133774,-0.3288973,0.008125311
1.142837,-0.259965,0.03615324
1.110613,-0.2085309,0.001920753
0.8966259,-0.185192,-0.02767205
0.685438,-0.1549855,-0.0748591
0.6834329,-0.1094839,-0.1022875
0.7506227,-0.1132971,-0.08660025
0.7273116,-0.09249722,-0.1205148
0.7266525,-0.07358655,-0.1211518
0.8326753,-0.1063266,-0.100496
0.9139111,-0.07629379,-0.1275224
0.9821332,-0.05427347,-0.1150787
0.9611695,-0.0246927,-0.06176682
0.8908379,0.08627087,0.03740071
0.9384469,0.1216844,0.1179975
1.001147,0.1151116,0.07410192
1.1842,0.1584799,0.04192146
1.377411,0.186263,0.07290176
1.3362,0.1727684,0.1064225
1.269748,0.1076626,0.1969378
1.211414,-0.02150112,0.2381297
1.181817,-0.2021789,0.110781
1.166204,-0.3248439,-0.03902019
0.9765446,-0.3416341,-0.06294504
0.8714465,-0.3634215,0.04720973
1.161718,-0.356101,0.1163187
1.575149,-0.224976,-0.03456922
1.593424,-0.07103173,-0.1941739
1.336301,-0.008088777,-0.1600507
1.210666,-0.01466865,-0.1102839
1.030214,-0.03865727,-0.06288
0.6768814,-0.05970897,0.08610517
0.4729355,-0.09277226,0.1411965
0.5566145,-0.1172504,0.09140251
0.5852652,-0.127531,0.1282259
0.4958679,-0.1627756,0.1403031
0.6086996,-0.1608229,0.1075814
0.6727005,-0.1487655,0.1308379
0.6729813,-0.149322,0.1239352
0.8584119,-0.06735233,0.1255841
0.9572816,-0.002347934,0.1541483
1.012528,0.02608473,0.1376888
1.099002,0.08158812,0.1352559
1.16447,0.08537172,0.124866
1.305205,0.05806512,0.109658
1.408214,0.05406153,0.1702018
1.440497,0.1115912,0.2250681
1.38367,0.1552755,0.1814216
1.326947,0.002592704,0.06352499
1.33021,-0.2931635,-0.09902918
1.244108,-0.5280573,-0.2403042
1.177011,-0.5650314,-0.224034
1.117396,-0.4535549,-0.0900813
1.030818,-0.3496455,0.02860034
0.986967,-0.25889,0.106522
0.9189102,-0.1708077,0.07656111
0.8674409,-0.1546793,0.00252821
0.7868443,-0.1725806,-0.04122929
0.7213923,-0.1431535,-0.1130634
0.7376998,-0.1005438,-0.1235999
0.7249596,-0.08538695,-0.1091684
0.7412461,-0.08688743,-0.1248898
0.7846898,-0.09804863,-0.09690203
0.8588078,-0.08983269,-0.1002597
0.991863,-0.05133915,-0.102276
1.050839,0.005441222,-0.07765635
0.9999766,0.0581187,-0.05053525
0.9026091,0.08660511,0.04891529
0.899504,0.08971053,0.1082061
1.043748,0.03897947,0.08213081
1.253479,-0.001666367,0.0521845
1.407894,0.03830967,0.03182249
1.37936,0.06700672,0.06311042
1.305089,0.02669899,0.1041909
1.259632,-0.1006837,0.07663766
1.184271,-0.2948441,-0.03475269
1.127824,-0.4033799,-0.1567853
1.025616,-0.4230298,-0.1350648
0.9969862,-0.4585112,0.005821472
1.17971,-0.4001535,0.08064508
1.35951,-0.2005307,0.02899288
1.363502,-0.01362726,-0.05875893
1.195534,0.05863927,-0.0906251
0.9807573,-0.007768485,-0.06855818
0.7882996,-0.09106559,-0.0405868
0.6337061,-0.1393158,0.01500083
0.5597443,-0.2098307,0.1010298
0.5204451,-0.187373,0.1278139
0.5553586,-0.1311807,0.1208403
0.6371993,-0.106799,0.1522715
0.6898996,-0.03419561,0.1555075
0.7798113,-0.006370977,0.137702
0.8706798,0.05626186,0.1445321
0.9385803,0.1451959,0.1199576
0.991205,0.1032178,0.09663309
1.057904,0.03085166,0.09361154
1.201022,-0.08967266,0.0840207
1.360422,-0.1822574,0.1236267
1.505982,-0.07247503,0.1701171
1.500963,0.104234,0.1658071
1.34257,0.2378098,0.1250066
1.281801,0.1911535,0.03583487
1.256932,-0.1644355,-0.06850387
1.184794,-0.4997873,-0.1264741
1.082538,-0.4541329,-0.1084028
0.9661571,-0.2878821,-0.06422968
0.9554518,-0.2970712,-0.02835414
0.9785743,-0.2729208,0.0157995
0.985908,-0.2334633,0.02219322
0.960129,-0.2790536,0.008238365
0.8522672,-0.2143397,-0.002016636
0.7654256,-0.1280928,-0.04079304
0.7080363,-0.04109397,-0.07159991
0.7094295,0.08260326,-0.08622931
0.7661695,0.06592294,-0.1058638
0.8353636,0.01518148,-0.1202551
0.9615542,-0.02605736,-0.1102981
1.023521,-0.05924551,-0.07884455
1.004702,-0.005865807,-0.04563609
0.9476422,0.01519786,0.0175607
0.8581,0.0326399,0.08768159
0.9000647,0.0349606,0.08881057
1.083183,-0.01236081,0.02264749
1.297419,0.009342291,-0.0345491
1.404123,0.08958392,-0.01029091
1.36242,0.1719185,0.08373236
1.281459,0.08693885,0.1709342
1.141085,-0.1203825,0.1656875
1.082905,-0.181742,0.08739153
1.149618,-0.1956031,-0.0510833
1.106173,-0.2610984,-0.2325975
1.072455,-0.3010155,-0.1957101
1.153867,-0.2829579,-0.03100817
1.310098,-0.2468479,-0.04456235
1.501534,-0.239411,-0.0461335
1.39197,-0.145343,-0.02559394
1.039536,-0.02564451,-0.05084499
0.8379935,-0.02868348,0.01040272
0.7360185,-0.06741157,0.04336334
0.600762,-0.09921328,0.09069655
0.5070215,-0.1219922,0.1201398
0.5777753,-0.1290779,0.06541397
0.6785926,-0.1355457,0.1209944
0.6834919,-0.1430042,0.1417526
0.7310851,-0.1276887,0.1241423
0.7445337,-0.05750949,0.1786453
0.7816961,-0.007950784,0.1577454
0.8945622,0.02525432,0.1374079
0.9524967,0.06132162,0.1136088
1.095817,0.03385429,0.07894019
1.217773,-0.02402682,0.1093913
1.347346,-0.101652,0.1238662
1.535156,-0.122009,0.1659716
1.46794,-0.004202835,0.2006196
1.375962,0.09706451,0.1539791
1.366163,0.03560262,0.0704617
1.32484,-0.2054304,-0.06824589
1.326297,-0.5044687,-0.1818761
1.183994,-0.5977948,-0.1763819
1.030126,-0.4666593,-0.08549696
0.9865206,-0.3894922,0.01607755
0.9420495,-0.3354899,0.05271531
0.9710233,-0.1939385,0.02760924
0.9426969,-0.1634387,-0.00344877
0.8389133,-0.1787901,-0.03978447
0.757275,-0.1414185,-0.08805189
0.6911473,-0.1446502,-0.1064381
0.7067985,-0.121563,-0.1116553
0.7249207,-0.1194449,-0.1138869
0.7690983,-0.1360736,-0.09974941
0.9090751,-0.09950335,-0.108821
0.9977278,-0.06078874,-0.100792
0.9865344,0.05499152,-0.05394073
0.932104,0.1796026,0.0005840032
0.9130477,0.194689,0.05068996
0.9655013,0.1809284,0.0553901
1.09935,0.1592511,0.0510175
1.295334,0.135783,0.03777914
1.362271,0.1439967,0.01096811
1.281856,0.1527497,0.06187479
1.234771,0.06828462,0.1232723
1.225428,-0.1249197,0.09709333
1.204185,-0.3071478,-0.001721315
1.149058,-0.3834093,-0.1134733
1.036752,-0.4035137,-0.1033366
1.002779,-0.4799052,0.01566357
1.179603,-0.4983449,0.07245187
1.401623,-0.3766635,0.02956756
1.43162,-0.2636227,-0.0113514
1.243868,-0.1265578,0.003392683
1.011797,0.03662123,0.003037369
0.9013832,0.03340284,-0.004675568
0.7733964,-0.06898114,0.05926895
0.5598036,-0.07557872,0.1045875
0.5463969,-0.08075502,0.08427356
0.6679501,-0.1315845,0.08384268
0.6727317,-0.1265238,0.1024168
0.7258709,-0.1461171,0.1096488
0.7729032,-0.1497881,0.109245
0.7188224,-0.1140784,0.122089
0.7944407,-0.1016195,0.1419203
0.8519894,-0.004284297,0.1492247
0.8775298,0.03687587,0.1585348
1.039017,-0.01595283,0.1432958
1.167524,-0.02771102,0.09544972
1.326722,-0.06895333,0.05716829
1.436801,-0.03214442,0.08193306
1.362712,0.09534749,0.1629784
1.303846,0.1601572,0.182983
1.253259,0.09135271,0.1031171
1.245584,-0.1655374,-0.02284991
1.241001,-0.4473679,-0.1123455
1.131506,-0.5385839,-0.1203812
1.082966,-0.4391064,-0.1056063
1.074983,-0.3583706,-0.05926332
1.057821,-0.3277906,0.01917785
1.068121,-0.2239946,0.07078129
1.031497,-0.1962309,0.07938693
0.9437904,-0.1937184,0.04358882
0.8087827,-0.1195721,0.003392664
0.6922551,-0.09363069,-0.04177114
0.7069646,-0.04418291,-0.07830058
0.750348,-0.02127352,-0.07993167
0.7408418,-0.04617656,-0.08814957
0.8078265,-0.04017546,-0.07678693
0.9341609,-0.05996032,-0.06863068
1.003974,-0.01359577,-0.07919236
1.032826,0.06763732,-0.05809766
1.007066,0.08580664,-0.04197429
0.9582631,0.07735697,-0.003996014
0.9678835,0.04364609,0.04336123
1.11241,0.04003616,0.02625782
1.373258,0.0561102,0.01473966
1.439431,0.1078314,0.0592466
1.283025,0.1682684,0.1296226
1.203381,0.08672923,0.1825175
1.190501,-0.06765503,0.1473068
1.186956,-0.2378768,-0.0004189294
1.173409,-0.4283429,-0.1181935
1.078595,-0.4968179,-0.03874874
1.013899,-0.4080946,0.1114849
1.105737,-0.2770974,0.1109801
1.31819,-0.1542794,-0.0302105
1.431551,-0.06007711,-0.1689607
1.300307,-0.0694775,-0.1571815
1.092147,-0.1132717,-0.04565633
0.8783623,-0.1219327,0.02963173
0.5995594,-0.1531462,0.131037
0.4737654,-0.1423044,0.1708062
0.5830276,-0.1073703,0.1110122
0.6494737,-0.1013574,0.1437855
0.7033455,-0.07066788,0.151601
0.8032093,-0.05963336,0.114304
0.7691607,-0.04546831,0.1330312
0.7703488,-0.02222055,0.1033732
0.8532288,-0.03573699,0.1073077
0.9044411,-0.02196618,0.1329787
1.050135,-0.007451633,0.1214127
1.18783,-0.01326557,0.1363183
1.297504,-0.02439423,0.1232832
1.432564,-0.0355582,0.1446839
1.429043,0.04238654,0.2079903
1.360707,0.1236255,0.2321782
1.330919,0.04308712,0.1919899
1.329415,-0.1935841,0.04119653
1.295867,-0.486561,-0.1080952
1.127462,-0.5970278,-0.1445227
0.972829,-0.4810745,-0.05793255
0.9670652,-0.4167011,0.04230207
1.030273,-0.3396159,0.04168226
1.057993,-0.1365727,0.04990296
1.036331,-0.09031839,0.04094116
1.006619,-0.141949,-0.01555215
0.8697175,-0.1154192,-0.02789125
0.6725011,-0.1358531,-0.07071144
0.6570604,-0.1363988,-0.09257914
0.7315086,-0.1061625,-0.06388369
0.7269718,-0.1148279,-0.09891909
0.7675746,-0.103785,-0.1246858
0.8717546,-0.109832,-0.123608
0.9803261,-0.1031919,-0.1470414
1.077683,-0.07285466,-0.1338313
1.001572,-0.01744897,-0.06154598
0.8475547,0.1307483,0.06397182
0.806201,0.2157098,0.155867
0.8492473,0.1544605,0.1194463
1.075937,0.08960285,0.08254523
1.378809,0.0575092,0.08237508
1.519914,0.04057665,0.0270903
1.476358,0.04534094,0.04371598
1.312039,-0.01738563,0.106333
1.175571,-0.1907219,0.05694279
1.050832,-0.3515775,-0.003882103
0.9509028,-0.4325393,-0.04557573
0.8888823,-0.4535431,-0.02881014
0.8794886,-0.4497874,0.06813305
1.1975,-0.4303237,0.03636625
1.593221,-0.3309882,-0.1081621
1.632789,-0.1881419,-0.2348024
1.41252,-0.1017588,-0.230556
1.065571,-0.07184266,-0.0631819
0.7135325,-0.03910376,0.03783199
0.5516523,-0.02316414,0.07448036
0.564542,-0.06232477,0.09921419
0.5132126,-0.06798068,0.09279371
0.534333,-0.06349321,0.1386713
0.6801474,-0.08176248,0.1241537
0.6490156,-0.04090552,0.09777229
0.7007914,-0.001648138,0.1147103
0.8029206,0.01784226,0.08985635
0.7926387,0.04927339,0.1194892
1.008335,0.08266803,0.142633
1.168914,0.100074,0.1398866
1.18521,0.01787354,0.1162537
1.369616,-0.08823578,0.04767487
1.49107,-0.1082438,0.1063221
1.460868,-0.05635751,0.1755822
1.435318,-0.01265218,0.1459723
1.427591,-0.1156296,0.07528561
1.406499,-0.2854176,-0.09707058
1.353372,-0.3729693,-0.195943
1.210574,-0.3682337,-0.1316579
1.006438,-0.3213113,-0.05839739
0.9281986,-0.3265792,0.02176192
0.9622033,-0.3284404,0.09299621
0.9730593,-0.29351,0.07962919
0.9314509,-0.274137,0.02201124
0.8612111,-0.2440513,-0.0421796
0.780145,-0.2196375,-0.1099583
0.7028022,-0.1448371,-0.1180248
0.6768145,-0.0335798,-0.09863561
0.660505,-0.01407585,-0.1122149
0.7192005,-0.04496942,-0.1217592
0.8955722,-0.0845016,-0.1444431
1.017871,-0.100371,-0.1512492
1.054285,-0.03555482,-0.1076497
1.00799,0.06531477,-0.03641777
0.9601648,0.1213283,0.06862494
1.001775,0.1049783,0.1263762
1.075294,0.08181053,0.1112994
1.221984,0.08091693,0.08503355
1.333997,0.1224787,0.06033955
1.338577,0.1669151,0.06716315
1.314254,0.01901868,0.06754478
1.247134,-0.2857217,0.004040792
1.253365,-0.4824933,-0.07376725
1.220316,-0.477007,-0.09615462
1.005909,-0.4367772,-0.04728547
0.9097971,-0.4416149,0.02778767
1.095764,-0.3392137,0.05401632
1.417336,-0.2182173,-0.0491802
1.53937,-0.1628959,-0.1737114
1.306916,-0.08208385,-0.1140988
0.994932,-0.09246394,-0.001599588
0.7630531,-0.1210249,0.04494174
0.6138577,-0.08337801,0.1035427
0.5607525,-0.09949605,0.08912713
0.5618083,-0.07878119,0.07537385
0.5917878,-0.05024475,0.1294043
0.6349731,-0.06118926,0.1118119
0.685947,-0.03568422,0.1209874
0.7315208,-0.04621616,0.1503497
0.7958166,-0.0525161,0.1366655
0.8885247,-0.02593321,0.1704153
0.982639,-0.02430748,0.1543033
1.092886,-0.04049978,0.1017788
1.206588,-0.1061345,0.0783957
1.372965,-0.1448022,0.06761078
1.528617,-0.03936893,0.1327091
1.48973,0.159563,0.1859385
1.374812,0.2421035,0.172808
1.302035,0.06703895,0.1228737
1.215206,-0.1964806,0.02435081
1.167471,-0.4062401,-0.07421326
1.147855,-0.5737308,-0.1532373
1.144446,-0.5787517,-0.1545576
1.168027,-0.4215659,-0.0788521
1.074456,-0.25268,0.005545385
0.9402917,-0.09845695,0.09327892
0.8847198,-0.08324531,0.08457963
0.7851791,-0.1716748,0.01683801
0.7253784,-0.1531919,-0.005101724
0.7598313,-0.1713006,-0.06759433
0.7490016,-0.1970771,-0.1193486
0.72816,-0.1381364,-0.1155237
0.7426275,-0.1639467,-0.1273334
0.7990672,-0.1389738,-0.1199631
0.9194954,-0.06032895,-0.123579
1.007745,-0.02142781,-0.1343259
1.004223,0.07453862,-0.09321844
0.970576,0.1130012,-0.03878797
0.9555341,0.1108874,0.03096198
1.011893,0.1129393,0.0808921
1.190501,0.09479756,0.07603605
1.398009,0.1392721,0.04904925
1.451983,0.1455403,0.03005489
1.339153,0.04581383,0.08899079
1.249173,-0.1256488,0.1523762
1.231463,-0.2575391,0.09377707
1.176541,-0.2947581,-0.04438443
1.103232,-0.3974797,-0.1580898
1.072692,-0.448966,-0.1215185
1.123362,-0.4189974,0.004116404
1.253845,-0.4985561,0.03712272
1.360458,-0.4724824,0.002973546
1.340119,-0.2854615,-0.08132957
1.21171,-0.1506477,-0.1581202
1.027691,-0.07367149,-0.06267986
0.7323376,-0.06407831,0.06804542
0.5326479,-0.04532029,0.07403664
0.5648955,-0.01910504,0.06026397
0.5389063,-0.07585774,0.07110987
0.5427514,-0.09459958,0.08015888
0.629405,-0.1179912,0.08979241
0.6417848,-0.1500968,0.1050059
0.7429302,-0.1200072,0.1312695
0.8255796,-0.1237246,0.1553353
0.8569289,-0.06744468,0.1583603
0.9981437,0.01694432,0.1425628
1.105427,0.01306841,0.1192557
1.18985,-0.02778867,0.05908621
1.355462,-0.09297729,0.02491954
1.521149,-0.0459222,0.1227215
1.487667,0.1242072,0.2323724
1.25112,0.2776336,0.224605
1.07544,0.2700146,0.1550678
1.064245,-0.02621139,0.02381981
1.173989,-0.4039475,-0.1934274
1.280781,-0.6510427,-0.3145147
1.336678,-0.6991785,-0.2404738
1.253497,-0.6010114,-0.1290062
0.9850911,-0.4716696,0.01682771
0.8657735,-0.208754,0.1723054
0.8362291,-0.009615026,0.14835
0.7518773,-0.03362049,0.0578923
0.7757101,-0.02886791,0.01265237
0.7662308,-0.05354448,-0.08019542
0.7461438,-0.1213783,-0.1480231
0.726628,-0.1192292,-0.1146809
0.6748849,-0.1511469,-0.06438417
0.7969225,-0.1673208,-0.09686998
0.910517,-0.1484769,-0.1294843
0.9152643,-0.1357282,-0.0919225
0.9943986,-0.03776025,-0.09752998
1.062047,0.08589739,-0.06253949
0.9978626,0.1187647,0.03688475
0.9407738,0.1038977,0.08297323
1.039069,0.119517,0.1269613
1.222162,0.1759455,0.09366213
1.426514,0.222682,0.03070167
1.458652,0.1772566,0.07223837
1.340825,0.006449112,0.06801909
1.36243,-0.1992331,0.005656533
1.269583,-0.2879782,-0.05087679
1.048103,-0.2753618,-0.1107028
0.9320479,-0.3710026,-0.1068798
0.8396924,-0.5342631,-0.05579511
1.019331,-0.5477687,-0.007541222
1.364594,-0.4474439,-0.01413005
1.464962,-0.2671793,-0.1198214
1.361058,-0.06347198,-0.1913791
1.106193,-0.00262007,-0.09281981
0.8261286,-0.01556699,0.05719278
0.6297607,-0.01929455,0.0944367
0.5604826,-0.04702804,0.08598042
0.5954863,-0.07949718,0.09894994
0.5796831,-0.104097,0.09647859
0.6170751,-0.1056954,0.1253675
0.673622,-0.09660821,0.1655867
0.6824251,-0.09075689,0.1662854
0.7749763,-0.07119101,0.1670138
0.8804451,-0.02574549,0.1603264
0.9998809,0.02908277,0.1488732
1.108371,0.01531635,0.1226291
1.218032,-0.06998569,0.0729496
1.366269,-0.1525655,0.06550004
1.394484,-0.150512,0.1233845
1.399219,-0.002258537,0.2055103
1.334816,0.1869394,0.2074444
1.195008,0.2190098,0.1109777
1.287413,-0.01460505,-0.02370689
1.367214,-0.3818136,-0.1879695
1.274875,-0.6041371,-0.2498009
1.210334,-0.6218083,-0.1569326
1.071984,-0.5402529,-0.05525407
0.9657776,-0.4148961,0.01948909
0.9984577,-0.2670013,0.07390186
0.9285854,-0.1594796,0.06847823
0.7801006,-0.1502379,0.02087014
0.7007785,-0.150323,-0.03189561
0.6758542,-0.1244882,-0.08450542
0.6955439,-0.1215156,-0.1205719
0.7153787,-0.1077296,-0.1389285
0.7564211,-0.1202085,-0.1568129
0.8702154,-0.1473763,-0.1468453
0.9784956,-0.1151553,-0.1310908
1.054624,-0.04798177,-0.1229374
1.091447,0.0482659,-0.08076127
1.022533,0.1095203,-0.01596126
0.9089506,0.1134821,0.06736459
0.8999095,0.1207295,0.1011062
1.044,0.08058356,0.04885254
1.252681,0.03906687,0.002933738
1.351354,0.04500948,-0.01658373
1.273689,0.01351738,0.0525982
1.19359,-0.06423675,0.1596296
1.160331,-0.2156167,0.09477981
1.090536,-0.3765546,-0.03356142
1.064668,-0.4038723,-0.0901774
0.9898783,-0.4047885,-0.09019471
0.8859939,-0.4468188,0.01463031
1.078261,-0.4238894,0.0658891
1.405061,-0.3183125,-0.03763253
1.514407,-0.143136,-0.1410553
1.392213,-0.002160135,-0.1550885
1.135016,0.008180833,-0.05906959
0.8753303,0.00396304,0.04308878
0.6749489,-0.005621168,0.06966994
0.5969747,-0.0700137,0.07031012
0.6030103,-0.1045217,0.06475372
0.5859542,-0.1325239,0.0857521
0.6317477,-0.1535644,0.1087542
0.6898503,-0.1222574,0.1209987
0.7311802,-0.08971634,0.1402364
0.821087,-0.02765362,0.1387258
0.8782628,0.05387948,0.1413616
0.958062,0.08289816,0.1303835
1.058284,0.07190707,0.1062307
1.141106,0.0216411,0.08246877
1.283388,-0.04609668,0.06088762
1.402486,-0.05297324,0.1274347
1.401408,0.0534077,0.2151728
1.255456,0.1971805,0.210608
1.128096,0.1980003,0.1457003
1.206219,0.02093546,0.03739546
1.278258,-0.1790386,-0.06980104
1.217105,-0.3493668,-0.1348441
1.198114,-0.5313737,-0.1985782
1.178515,-0.5230761,-0.1827304
1.048381,-0.3283039,0.0005374551
0.9561184,-0.2792597,0.1593792
0.9798091,-0.2599564,0.1611724
0.9978677,-0.2099834,0.09095541
0.9434258,-0.2517291,-0.02392969
0.9055549,-0.2090949,-0.11629
0.9030573,-0.1727141,-0.1112573
0.7952206,-0.1058878,-0.08772963
0.6917884,0.02924519,-0.1094306
0.7306256,-0.04032842,-0.09273528
0.7657308,-0.07922542,-0.05337917
0.8325959,-0.05666849,-0.08730662
0.994649,-0.1111508,-0.08248311
1.049397,-0.03661893,-0.04221358
0.9812551,0.007548135,-0.03585823
0.9738066,-0.03791549,-0.004500922
0.9784281,-0.05012281,0.01184375
0.9947349,-0.05298338,0.02898601
1.139752,0.03603044,0.01833278
1.241547,0.1960355,-0.007127275
1.221189,0.2794946,0.0597274
1.176458,0.1468325,0.1086336
1.135103,-0.1090391,0.09643384
1.148417,-0.2895988,0.01720988
1.12364,-0.3869297,-0.09769266
0.9994213,-0.4090904,-0.06737739
0.9167176,-0.4396409,0.08594321
1.064148,-0.4399457,0.1756501
1.420536,-0.305159,0.01806051
1.597935,-0.1511944,-0.2072338
1.440055,-0.02380314,-0.1487061
1.168379,-0.009698006,0.02962692
0.9143665,-0.1019042,0.1651998
0.5298367,-0.0139301,0.09066739
0.5697488,-0.02167643,0.1154469
0.6197311,-0.08280868,0.1054382
0.6490562,-0.1075466,0.1289326
0.6495821,-0.1070259,0.1413145
0.7227352,-0.09215487,0.1376354
0.8694239,-0.0586355,0.1766667
1.011482,-0.05353324,0.158728
1.168358,-0.0630028,0.1034542
1.327804,-0.1349991,0.0663977
1.535385,-0.1963224,0.1023506
1.679596,-0.08016909,0.191131
1.554413,0.1395041,0.1887584
1.392343,0.2592539,0.1607364
1.355096,0.1513616,0.1232793
1.213816,-0.2108645,-0.03257253
1.005138,-0.6033812,-0.1987637
0.9862185,-0.6189474,-0.1907299
1.123652,-0.4418754,-0.06935372
1.211444,-0.4813176,-0.03829594
1.195744,-0.4363952,-0.02856016
1.084935,-0.2337994,0.03066687
0.8529089,-0.1217873,0.06162025
0.663612,-0.05320171,0.08436295
0.6249327,-0.1050925,0.03368819
0.5577981,-0.1165457,-0.04870512
0.5292706,-0.05396607,-0.08834519
0.6545177,-0.1331139,-0.1328897
0.7377594,-0.1444548,-0.1340634
0.8299541,-0.1824338,-0.1273823
0.9735155,-0.2415988,-0.08816565
1.003899,-0.106246,-0.04030345
1.01776,-0.002796139,-0.04698823
1.03186,0.09236864,0.03679564
1.048189,0.1411904,0.1104858
1.153583,0.09396708,0.1032795
1.266447,0.1408961,0.08084089
1.418457,0.1993733,0.03478894
1.44844,0.2431429,0.0938097
1.275115,0.1162539,0.1455842
1.196315,-0.2117024,0.06650332
1.148688,-0.4307733,-0.04146257
1.085716,-0.5690054,-0.1176524
1.090042,-0.614684,-0.02894825
1.138915,-0.5176755,0.0678692
1.340489,-0.4053828,-0.06675066
1.521914,-0.2667752,-0.2098165
1.518876,-0.1585714,-0.2071731
1.285286,-0.1647816,-0.1339497
0.7964488,-0.1706593,-0.005814989
0.4998862,-0.09086382,0.07661575
0.4836593,-0.04865306,0.06051363
0.4206649,-0.03795718,0.07638004
0.4144544,0.01079409,0.1158918
0.5201751,-0.02358923,0.1075543
0.6003344,-0.05702352,0.1204799
0.6591709,-0.05342931,0.1605145
0.7398423,-0.09090591,0.1858711
0.8501498,-0.04460855,0.212536
0.9653562,0.02302645,0.2117419
1.066938,0.03913934,0.1456885
1.270702,0.006141943,0.07152778
1.643885,-0.08285438,0.07500821
1.899775,-0.08311406,0.1454014
1.807029,-0.06199087,0.1836384
1.442479,-0.09218971,0.1323241
1.078243,-0.1488389,0.005028326
1.082925,-0.3411293,-0.1638558
1.258099,-0.5251388,-0.2558255
1.245611,-0.5185234,-0.1855194
1.259086,-0.4467022,-0.06597912
1.214415,-0.3897246,0.05082995
0.9965961,-0.2632697,0.1658454
0.9236663,-0.1336349,0.14576
0.8067785,-0.1250988,0.06156857
0.6001233,-0.1233106,0.03448087
0.602866,-0.1130228,-0.02565505
0.5782232,-0.1488621,-0.07511738
0.5207419,-0.1483135,-0.09859071
0.6085237,-0.175899,-0.1289289
0.7185359,-0.2362023,-0.1196161
0.8729176,-0.2357624,-0.136806
0.9935409,-0.1918117,-0.1219763
0.9881429,-0.07938975,-0.06368096
0.9844085,0.08230686,-0.03770294
1.02281,0.2143156,0.04187457
1.116767,0.2756288,0.09099682
1.280295,0.2690863,0.07194857
1.397533,0.2540092,0.09157799
1.372338,0.1830428,0.1360846
1.271127,-0.0624792,0.167364
1.171042,-0.4061529,0.06985202
1.122675,-0.5883125,-0.1163975
1.15193,-0.5348985,-0.1539605
1.16509,-0.3991704,-0.009267896
1.178367,-0.2630302,0.1108323
1.288587,-0.2160924,0.03211517
1.49701,-0.2046563,-0.1255342
1.682368,-0.1006059,-0.2043996
1.4672,-0.1160042,-0.1655124
0.9329035,-0.1906319,-0.01019397
0.676145,-0.1061622,0.07707842
0.6239441,-0.07787798,0.05952804
0.50987,-0.0809832,0.07324019
0.479847,-0.04417212,0.1025345
0.5232905,-0.07487088,0.1299057
0.5592025,-0.04130159,0.1197042
0.565167,-0.00797702,0.09093053
0.5678687,-0.02435791,0.09560032
0.6202854,-0.0003121933,0.08990411
0.7460281,-0.05497029,0.1090501
0.9937198,-0.1428875,0.1210659
1.256997,-0.1879818,0.09403524
1.447831,-0.2056447,0.0910096
1.516367,-0.135179,0.09715769
1.45754,0.001332143,0.1274621
1.427097,0.09273157,0.1387444
1.398659,-0.01669575,0.06056586
1.375813,-0.2758794,-0.07779704
1.377177,-0.4870599,-0.2156509
1.285647,-0.558866,-0.2372087
1.168873,-0.4841169,-0.09366447
1.051076,-0.4347679,0.1098035
0.9858813,-0.3848094,0.1740106
1.028329,-0.2191327,0.07795481
1.000151,-0.1732585,-0.03015357
0.9155978,-0.23005,-0.1394235
0.8204935,-0.2286719,-0.1506271
0.6606254,-0.251226,-0.04876309
0.5469591,-0.2541441,-0.02840993
0.5327863,-0.2292542,-0.0411622
0.6616348,-0.2117363,-0.07131252
0.9144971,-0.1348963,-0.1540361
1.067515,-0.03638948,-0.1576582
1.063796,0.05206563,-0.1041811
0.9832198,0.1171225,-0.02434586
0.8851314,0.1198364,0.07660941
0.8718748,0.09449364,0.1099775
0.9754059,0.07834642,0.1034646
1.138855,0.09644545,0.09300343
1.23299,0.1719901,0.08897105
1.204009,0.2249418,0.1099341
1.169228,0.0819516,0.1205217
1.173633,-0.2314177,0.08380798
1.191961,-0.4717017,-0.007761187
1.210226,-0.5964211,-0.06847108
1.16984,-0.6726796,-0.04747307
1.16278,-0.5969092,-0.0382821
1.369787,-0.3882978,-0.07992153
1.591998,-0.2306497,-0.1061756
1.545191,-0.1390132,-0.09948145
1.415301,-0.07331473,-0.07683466
1.213761,-0.05698644,0.01395664
0.7776054,-0.03869788,0.1173848
0.5777903,-0.0248474,0.09325505
0.6856087,-0.05752918,0.03450124
0.6293917,-0.08009375,0.05028438
0.6184227,-0.1042692,0.06421896
0.6666817,-0.1400388,0.08719749
0.5770251,-0.1423245,0.1340112
0.5959093,-0.1356908,0.1328909
0.6254961,-0.117076,0.1286496
0.6565897,-0.08504208,0.139289
0.8006375,-0.05755813,0.1424958
0.9445519,-0.03522984,0.1666758
1.140655,-0.07044151,0.1562199
1.263861,-0.1323008,0.08903141
1.380548,-0.1368916,0.03424243
1.556237,-0.06537325,0.07617081
1.500195,0.09196899,0.1706991
1.325018,0.2422576,0.1991133
1.143146,0.2448996,0.2082774
1.04528,0.04994969,0.1076065
1.14921,-0.2839908,-0.1427097
1.236848,-0.5826253,-0.2782082
1.326833,-0.74287,-0.2658877
1.318363,-0.7654416,-0.1402976
1.070403,-0.6276659,0.07486712
0.878707,-0.3949623,0.1545213
0.8199243,-0.2135579,0.0972985
0.8631126,-0.1418586,0.02070993
0.8964251,-0.1517564,-0.08389975
0.8246789,-0.1848208,-0.1479182
0.8046601,-0.1961256,-0.1354599
0.7191269,-0.1904504,-0.1181667
0.6538067,-0.1836748,-0.1036658
0.7629202,-0.1811233,-0.08949865
0.8377757,-0.1580565,-0.1015242
0.931027,-0.08542111,-0.09097146
0.968251,0.00214799,-0.05581836
0.9076337,0.05672508,-0.01641411
0.9505122,0.06393413,0.04511934
0.9890754,0.07315168,0.06020673
1.076477,0.1411648,0.03981815
1.240139,0.2248556,0.0471023
1.296108,0.2603723,0.07024099
1.287923,0.1996425,0.1319631
1.226175,0.00663546,0.1814153
1.161326,-0.2805582,0.1170545
1.154158,-0.4915399,-0.04400993
1.093688,-0.4909641,-0.1565153
0.9489425,-0.4444087,-0.09957774
0.8088183,-0.4571931,-0.0008220041
0.9026116,-0.4067009,-0.01653477
1.351207,-0.2831664,-0.09492228
1.73873,-0.1384565,-0.1782879
1.60327,-0.08545111,-0.1968543
1.258037,-0.06991707,-0.1181234
1.0655,0.06579501,-0.04978369
0.8037422,0.06827283,0.02135404
0.6228877,-0.0612395,0.07364226
0.6344073,-0.068145,0.04881871
0.5746702,-0.1114577,0.06776652
0.5912681,-0.1812677,0.0847277
0.6223192,-0.1889922,0.07158966
0.6066094,-0.2074464,0.09445753
0.6692316,-0.189365,0.0800435
0.6786366,-0.1798979,0.08248695
0.805697,-0.1493095,0.1148106
0.962681,-0.07062029,0.1315114
1.015407,-0.03919907,0.1496297
1.163613,-0.0281236,0.1233861
1.268474,-0.06319718,0.09738298
1.400522,-0.1074324,0.09548849
1.505256,-0.07889444,0.1418722
1.389628,0.008796479,0.2087398
1.297477,0.1073604,0.1358484
1.262998,0.04481389,0.03842498
1.238504,-0.171403,-0.01452426
1.147789,-0.3881293,-0.1179235
0.9574149,-0.5017861,-0.1046878
0.9123706,-0.4523132,-0.02044517
0.9969471,-0.4243731,-0.05375596
1.071277,-0.4115357,-0.04475628
1.12468,-0.2673964,0.01691963
1.121897,-0.1728316,0.0331422
1.003511,-0.1649385,0.06319012
0.7997307,-0.1518515,0.03949263
0.6762582,-0.1179653,0.002868813
0.6721216,-0.04765814,-0.02134925
0.6918533,-0.05771296,-0.1189922
0.7371711,-0.1366918,-0.1370182
0.8703089,-0.2007947,-0.1090291
0.9969001,-0.2215865,-0.144371
1.010125,-0.1337304,-0.1319142
0.9932699,-0.03741939,-0.09650557
0.9626013,0.01208583,-0.03778518
0.9385972,0.04066607,0.04267307
1.027707,0.03347605,0.06342263
1.198762,0.08891654,0.06450901
1.327776,0.2158657,0.05472031
1.314825,0.2849559,0.0572761
1.213518,0.2012282,0.1396275
1.143695,0.03968816,0.2094099
1.14092,-0.0951962,0.1115875
1.168762,-0.262492,-0.0909723
1.122312,-0.4104017,-0.1658614
0.9827894,-0.5311996,-0.04805997
0.8993609,-0.6370552,0.1178435
1.14062,-0.5533834,0.126109
1.593677,-0.3599691,-0.0927529
1.67911,-0.1462479,-0.2800917
1.375923,0.02483391,-0.1852624
1.029369,-0.02617519,-0.0005872752
0.7212691,-0.07198346,0.06069082
0.6075376,-0.05247935,0.1082472
0.5943675,-0.1355959,0.1097086
0.4935845,-0.1556752,0.07527361
0.516569,-0.1307123,0.1239995
0.6362108,-0.1108522,0.1005887
0.6538529,-0.07598357,0.0785171
0.6954707,-0.09731746,0.11858
0.7906367,-0.09562892,0.09396273
0.8583834,-0.09549955,0.1346453
0.9635482,-0.07089732,0.1639072
1.046493,0.003961088,0.1386674
1.089272,-0.01833909,0.1462527
1.206759,-0.0824202,0.1172027
1.373499,-0.1263643,0.1537982
1.501462,-0.07312079,0.1964711
1.461703,0.1327167,0.1602907
1.362504,0.273295,0.1374037
1.339875,0.1669751,0.05469939
1.222995,-0.1836011,-0.0654845
1.13006,-0.5153013,-0.1144876
1.109647,-0.5722243,-0.07684798
1.034491,-0.5164263,-0.03678187
1.058625,-0.5052644,-0.04627008
1.081659,-0.4062164,-0.0189579
1.039022,-0.2744005,0.02258997
1.016731,-0.2668868,0.04691816
0.8981157,-0.2347514,0.03709444
0.7788087,-0.1807136,-0.02977127
0.7170387,-0.1553218,-0.06660458
0.6544892,-0.07347562,-0.1006956
0.6632076,-0.08390328,-0.1344668
0.7373652,-0.1488451,-0.1336798
0.8641758,-0.1826788,-0.1620235
0.9631073,-0.1996504,-0.1459655
0.9566981,-0.09563048,-0.08416361
0.9208091,0.02546505,-0.04337201
0.8997085,0.1279221,0.02718915
0.9508965,0.1934752,0.06213361
1.086513,0.1749353,0.0325111
1.241269,0.198269,0.01297515
1.370419,0.2122359,0.001439243
1.383475,0.2088472,0.03100477
1.28755,0.1388685,0.118629
1.184886,-0.1291028,0.1618614
1.136265,-0.3816698,0.07831004
1.136619,-0.4505817,-0.06438921
1.04017,-0.4656639,-0.1147827
0.8807554,-0.5194581,-0.03803382
0.9439107,-0.4706045,0.03874301
1.271371,-0.3291015,0.001735758
1.607965,-0.2227008,-0.1282118
1.620381,-0.09415996,-0.2268534
1.284563,-0.0789253,-0.14732
0.9405264,-0.1229387,0.0397441
0.690768,-0.05999942,0.115319
0.5486654,-0.074951,0.1104018
0.561016,-0.1000881,0.0935006
0.5711864,-0.08965845,0.05813117
0.5909621,-0.1171079,0.07243205
0.647187,-0.0953187,0.0777368
0.6784536,-0.09487876,0.06960976
0.7113652,-0.06646874,0.0930372
0.7363734,0.02905762,0.09636805
0.8444115,0.07766575,0.1154008
0.9863554,0.08051675,0.1158128
1.103858,-0.005653485,0.09262762
1.250817,-0.1412751,0.08844293
1.302565,-0.1995701,0.06480427
1.415539,-0.1447215,0.1028624
1.598477,-0.04783724,0.1651801
1.525437,0.0187472,0.1446431
1.358364,0.1498021,0.08198242
1.285811,0.2498599,-0.02349134
1.241367,0.02580168,-0.1201433
1.20536,-0.414219,-0.1762755
1.122059,-0.6248963,-0.2077436
1.0613,-0.515811,-0.1092366
1.070078,-0.359299,0.04366982
1.052038,-0.2225104,0.05427416
1.049885,-0.156534,0.02801039
1.028527,-0.2079955,0.06074273
0.9130981,-0.2362961,0.03143764
0.834944,-0.272161,-0.04009731
0.8036593,-0.2621,-0.09969053
0.7674716,-0.139148,-0.1488455
0.7175223,-0.06745975,-0.1393172
0.6908468,-0.02154984,-0.1348774
0.8283601,-0.01186113,-0.1520398
0.9585177,-0.04716309,-0.1358616
0.9260601,-0.01504342,-0.1147685
0.9243016,-0.007169001,-0.05839074
0.9553245,0.01082722,0.02580601
0.9429284,0.06056406,0.08649747
1.005328,0.04982966,0.1078893
1.172456,0.09666066,0.06632979
1.307007,0.187614,0.04449251
1.326537,0.2248761,0.1038498
1.246774,0.156522,0.2088871
1.184015,-0.05298083,0.306343
1.230907,-0.2984014,0.246516
1.236855,-0.4623124,-0.02787813
1.12558,-0.4079789,-0.2374908
0.9963651,-0.3114067,-0.08704229
0.9903041,-0.3682303,0.1099739
1.268686,-0.3072995,-0.02065302
1.564357,-0.1967479,-0.132074
1.479973,-0.1610003,-0.1129426
1.183814,-0.07451569,-0.1064008
0.908607,-0.07509079,0.05377816
0.6664058,-0.06472006,0.1187343
0.5801798,-0.00546023,0.05802156
0.5809966,-0.0448015,0.1074538
0.5545535,-0.05233127,0.06654187
0.6212684,-0.0890669,0.06225583
0.6915631,-0.1500288,0.1085749
0.729071,-0.1369081,0.06740616
0.7882078,-0.1455695,0.1060639
0.8063319,-0.1155913,0.114412
0.8908998,-0.04861606,0.1230305
0.9978434,0.006732144,0.1575791
1.098864,0.03386175,0.1136293
1.24525,-0.01901672,0.1155502
1.29902,-0.05416583,0.09596584
1.358435,-0.0324474,0.1047862
1.415178,0.07340801,0.1646725
1.354146,0.2350253,0.1273716
1.3358,0.199209,0.0761268
1.358926,-0.1114564,-0.05353891
1.330487,-0.4464353,-0.2043589
1.196005,-0.5206246,-0.1827629
0.9767246,-0.4484657,-0.1321836
0.9140185,-0.442798,-0.08584891
1.057958,-0.3228174,0.00605942
1.142094,-0.1414915,0.006943324
1.056504,-0.09527831,-0.01799784
0.9107118,-0.07588071,0.05087752
0.7181452,-0.1209575,0.04459138
0.5770525,-0.1849011,-0.03793003
0.6086896,-0.1557183,-0.08267652
0.6613574,-0.1393174,-0.1456727
0.7274843,-0.1021045,-0.1509125
0.8625665,-0.07356153,-0.1349739
0.9532093,-0.07480652,-0.1550154
1.023866,-0.01360242,-0.1105129
1.060322,0.02999191,-0.09334528
1.030843,0.06245589,-0.07372819
1.003799,0.104988,0.010025
0.9714854,0.1341462,0.07051105
1.008954,0.1528242,0.09238204
1.165555,0.1372143,0.03188019
1.348507,0.1937701,-0.001772339
1.429992,0.2374177,0.04704115
1.321028,0.07870006,0.1002643
1.213076,-0.1926464,0.1566168
1.219816,-0.4096173,0.04420744
1.167301,-0.4464972,-0.140159
1.05042,-0.4176748,-0.1108561
0.9876968,-0.4662487,-0.0006366514
1.113205,-0.4503002,0.04955751
1.381372,-0.3064394,0.009479833
1.470711,-0.08929677,-0.1066568
1.318923,0.06614505,-0.1440544
1.067497,0.0306835,-0.07086355
0.792441,-0.04313898,0.03546008
0.6003431,-0.08269559,0.09785778
0.5310491,-0.1421495,0.09522437
0.5416205,-0.1436287,0.0943069
0.581958,-0.1325246,0.1005343
0.6552355,-0.136085,0.1137534
0.7308578,-0.08367416,0.1294273
0.7703353,-0.04485869,0.1232404
0.8340292,-0.01620178,0.1394253
0.8909633,0.03326232,0.1568132
0.9553175,0.05021818,0.1423653
1.09323,0.02920947,0.1201348
1.243232,-0.06661943,0.09742496
1.392438,-0.1613969,0.1186739
1.486438,-0.09381587,0.1744179
1.444171,0.07189303,0.1920497
1.334441,0.1500488,0.1364701
1.268167,0.01941316,0.02263311
1.277509,-0.2727079,-0.08701029
1.250666,-0.4930926,-0.1439815
1.106152,-0.5037034,-0.09967944
0.9659125,-0.4048382,-0.007162948
0.9434722,-0.3000958,0.02560393
0.9835998,-0.1897153,0.04894675
0.9919794,-0.1362917,0.04666848
0.9133647,-0.1963517,-0.01135168
0.7927456,-0.2316796,-0.03599583
0.7422669,-0.1656058,-0.06169045
0.7433118,-0.1005568,-0.08944607
0.7501943,-0.04591948,-0.09471055
0.7856823,-0.01859952,-0.1120143
0.8547988,-0.04215583,-0.09510727
0.9440982,-0.02621024,-0.07176363
0.9931475,0.01088172,-0.04686729
0.9660583,0.03941163,-0.002842182
0.9185974,0.0776761,0.0229914
0.9247957,0.08317553,0.05960182
0.9758907,0.06827347,0.04613234
1.052622,0.06373686,0.01252025
1.213297,0.1077767,0.03850037
1.3556,0.1805229,0.04287064
1.267733,0.1619583,0.0923549
1.091696,0.02743328,0.1681603
1.101454,-0.1498276,0.1110351
1.137346,-0.2409124,-0.0003260202
1.071935,-0.2394153,-0.07206702
1.008749,-0.2970261,-0.06019048
0.890394,-0.3801234,0.07529738
0.9076804,-0.4131034,0.1802067
1.19369,-0.3917555,0.1012912
1.515235,-0.2518376,-0.09354004
1.670225,-0.05230562,-0.2435043
1.412011,0.08323384,-0.2134531
0.9827192,0.1049652,-0.02270651
0.7095498,0.08552768,0.1434673
0.4872814,0.1041412,0.1934657
0.4791751,0.07026631,0.1693389
0.5616507,0.008871444,0.1429662
0.5890289,-0.03019052,0.1403043
0.7697875,-0.0811393,0.1136743
0.8558096,-0.07521874,0.1032894
0.8083814,-0.04586548,0.1164067
0.8059366,0.01896533,0.1072651
0.7919401,0.1076014,0.1140015
0.9139181,0.02987008,0.09478971
1.154839,-0.1233746,0.05161723
1.274517,-0.2041742,0.0302
1.228164,-0.2482856,0.01288003
1.213291,-0.2006329,0.02743467
1.350988,-0.03106179,0.04095445
1.479537,0.08433132,0.02433779
1.520338,-0.1186185,-0.05553988
1.417241,-0.4597433,-0.1769686
1.152853,-0.4870268,-0.1573456
0.8984057,-0.379632,-0.03789645
0.7989666,-0.4046956,0.05066991
0.9351677,-0.3874402,0.1057218
1.086439,-0.3355271,0.07262174
1.067688,-0.2763515,0.0121571
0.978109,-0.2029916,-0.02574128
0.8009549,-0.2013174,-0.06876759
0.6903036,-0.1465345,-0.05508401
0.695296,-0.04018058,-0.06401633
0.6712288,0.01594581,-0.1128603
0.7646453,0.02790335,-0.102456
0.9235795,-0.02712736,-0.1181575
1.019873,-0.06763629,-0.127706
1.053695,-0.06696917,-0.06309198
0.9583329,-0.04521438,0.01163365
0.8567812,0.0006853296,0.09874347
0.8123084,0.01089468,0.135935
0.851333,0.02736406,0.1148138
1.081885,0.08428527,0.09102517
1.373646,0.17,0.04104916
1.464247,0.2178629,0.04069242
1.319202,0.1254686,0.1445766
1.228957,-0.02920666,0.2452848
1.229682,-0.1576923,0.1997183
1.182762,-0.2428009,0.02240038
1.15759,-0.3116982,-0.1320037
1.039859,-0.353269,-0.1592253
0.8669912,-0.3180434,-0.0569088
0.8627429,-0.339888,0.01254859
1.127319,-0.3442711,-0.02249713
1.559701,-0.2175398,-0.09923372
1.611023,-0.1400225,-0.193342
1.26259,-0.0775822,-0.1345829
0.9555002,-0.04212493,0.02093246
0.6813922,-0.06868868,0.07831559
0.5443078,-0.04593395,0.1205317
0.5420844,-0.07627659,0.1158532
0.5393489,-0.1063694,0.09604875
0.6232195,-0.09772583,0.1338278
0.7035122,-0.1252108,0.1325193
0.7656571,-0.1022259,0.1595393
0.8295084,-0.07854085,0.1873502
0.8898817,-0.0312442,0.1659592
1.011212,0.03843741,0.149421
1.09427,0.02856545,0.08764422
1.179388,0.009264678,0.04953389
1.296344,-0.03657185,0.06019237
1.402937,-0.06656724,0.1175058
1.486593,0.01200342,0.2215992
1.386771,0.07759429,0.1929613
1.289123,0.002415313,0.08269355
1.341407,-0.2068685,-0.03067355
1.271045,-0.4181241,-0.1901428
1.119757,-0.4780396,-0.2183632
1.041346,-0.3863886,-0.1195463
0.9801835,-0.3309928,-0.02433204
0.9423892,-0.3161337,0.08035773
0.9696638,-0.2346712,0.09896927
0.998831,-0.2073226,0.03729842
0.9227128,-0.1996602,-0.006543418
0.8147344,-0.1634187,-0.05575707
0.7639879,-0.1439553,-0.07043249
0.7273251,-0.07116234,-0.05029331
0.7197132,-0.04785387,-0.05806903
0.7524518,-0.07092857,-0.06599113
0.8328073,-0.05550802,-0.075936
0.9569964,-0.06048165,-0.0956021
1.023509,-0.02395124,-0.08942237
1.005945,0.03836502,-0.05893839
0.9588273,0.06978658,-0.00434564
0.9202795,0.07220661,0.06454151
0.9510125,0.04261748,0.1000921
1.097447,0.0522257,0.09416469
1.294777,0.1209053,0.06956756
1.363767,0.2246333,0.05632951
1.273925,0.2320843,0.1001902
1.214187,0.04666544,0.1473886
1.210749,-0.1752296,0.09462372
1.173928,-0.2986221,-0.02258709
1.113935,-0.3404551,-0.09513614
0.9682041,-0.4083307,-0.0410449
0.8767453,-0.4648858,0.1003267
1.149719,-0.4061628,0.127503
1.556001,-0.3047862,-0.05679445
1.629715,-0.1562888,-0.2388456
1.358698,-0.02856989,-0.1608962
1.012615,-0.01112302,0.02261196
0.7668523,-0.003279735,0.08879776
0.6015618,-0.02359894,0.1312734
0.4820128,-0.04032368,0.1198108
0.4859722,-0.03845266,0.08857729
0.5794305,-0.09046076,0.1267933
0.6282372,-0.09523962,0.1029145
0.6944168,-0.08956493,0.1253573
0.7794244,-0.1021779,0.1773668
0.7960781,-0.05739283,0.1483144
0.8493068,-0.01216874,0.1650213
0.9226249,0.03754875,0.1495564
1.031027,0.04592738,0.1135497
1.23671,-0.02345847,0.07292392
1.374378,-0.1035429,0.003442563
1.436601,-0.1322042,0.05683941
1.414871,0.009003059,0.1403995
1.317167,0.186123,0.1923303
1.300977,0.1385972,0.1745381
1.285528,-0.1289208,0.01854026
1.199687,-0.4219647,-0.08823264
1.043464,-0.4643367,-0.09508295
0.9202768,-0.3384165,-0.06726619
0.9692116,-0.3431625,-0.06657844
1.019802,-0.3470161,-0.08070275
1.054217,-0.2568841,-0.01389135
1.065444,-0.2350178,0.03105975
0.9303728,-0.233296,0.04108449
0.8178558,-0.2088927,0.04365693
0.7321605,-0.1715368,-0.02112992
0.6225861,-0.1042748,-0.07497286
0.6404045,-0.0804372,-0.09869639
0.7261229,-0.05276102,-0.128717
0.782614,-0.03375529,-0.1543884
0.8800922,-0.09507346,-0.1340911
0.9843057,-0.1099466,-0.09732011
0.9950423,-0.05192878,-0.09995602
0.985124,0.03773216,-0.04671416
0.9578169,0.1378384,0.02840011
0.9018005,0.1648271,0.06236218
0.9531965,0.1449384,0.07815145
1.093741,0.1180863,0.0509432
1.287215,0.08974907,0.04192957
1.404173,0.09493285,0.03866282
1.328059,0.08494417,0.07490856
1.267593,-0.01326958,0.1610524
1.220422,-0.1573523,0.1163509
1.151685,-0.230625,-0.0171748
1.161725,-0.2694109,-0.1315124
1.122094,-0.3933873,-0.1251716
1.085309,-0.4740676,0.054596
1.170074,-0.4048702,0.131464
1.349909,-0.3034613,-0.02326707
1.537957,-0.1530796,-0.1881742
1.397622,-0.0120633,-0.1727372
1.011349,-0.040774,-0.08441062
0.7604522,-0.05647769,-0.004269057
0.5767106,-0.01996371,0.1503487
0.5338425,-0.08405952,0.1355251
0.6263666,-0.1138774,0.02877982
0.6318151,-0.1092789,0.1163527
0.7017806,-0.1255002,0.1102176
0.7495633,-0.09587225,0.08370194
0.7123784,-0.09285668,0.1554138
0.7980255,-0.08063222,0.1207911
0.8714624,-0.0293435,0.1480127
0.9380223,0.01033423,0.1632206
1.042934,0.04045366,0.0969158
1.131914,-0.02108289,0.08272393
1.323629,-0.1157836,0.04344345
1.47994,-0.1154625,0.1142854
1.459645,-0.003195192,0.2224322
1.336006,0.132121,0.1923034
1.245507,0.06547457,0.1220252
1.332145,-0.1632794,-0.01042945
1.388563,-0.3371801,-0.08852652
1.217546,-0.4254511,-0.07630245
1.04807,-0.4637293,-0.1043735
1.033917,-0.4256708,-0.06358341
1.032792,-0.280339,0.02967118
1.019228,-0.2098574,0.04438272
1.027251,-0.2143878,0.04561628
0.8904203,-0.1584963,0.06406445
0.692203,-0.1851869,0.03146509
0.6764495,-0.1780507,-0.01706655
0.7227401,-0.126633,-0.06429806
0.7261456,-0.1360915,-0.1181061
0.7641804,-0.04604786,-0.1318529
0.8065289,-0.05783615,-0.138257
0.8661523,-0.1034631,-0.1130264
0.9734885,-0.001071317,-0.07948504
1.014742,0.03660271,-0.08038267
0.9919414,0.1219705,-0.02172379
0.9699879,0.1747449,0.04153332
0.9346899,0.101,0.07848101
0.990621,0.0772048,0.08555708
1.165598,0.0274013,0.03395257
1.335725,0.03625859,0.01412031
1.388603,0.1039818,0.01360209
1.280839,0.08357711,0.07475762
1.199252,-0.03130669,0.159529
1.207189,-0.2627172,0.1019784
1.149637,-0.4013277,-0.02873383
1.045563,-0.4007634,-0.1172394
0.9807715,-0.4317362,-0.0358558
1.0817,-0.421045,0.09012024
1.347697,-0.3704568,0.0019045
1.517962,-0.2945298,-0.09990319
1.448243,-0.1623671,-0.113329
1.17431,-0.06930874,-0.09925681
0.8845367,-0.009877961,-0.008289951
0.7358033,0.004147274,0.02641582
0.6327472,-0.05172788,0.05938206
0.558542,-0.07745853,0.1167505
0.5907349,-0.09659177,0.06830582
0.6455939,-0.1145798,0.09715704
0.6897736,-0.08227193,0.1348428
0.7686744,-0.08084899,0.09198303
0.8055023,-0.08578904,0.1387835
0.8424063,-0.05274733,0.1420126
0.9417154,-0.009904511,0.1215723
1.000957,0.0562163,0.1385972
1.084478,0.0582063,0.09883284
1.224185,-0.03787645,0.1057442
1.36422,-0.1151211,0.138524
1.454039,-0.07485944,0.1893622
1.366062,0.06583357,0.2288281
1.294695,0.1373413,0.1252637
1.345989,0.01243175,-0.02378437
1.31196,-0.2662802,-0.1578306
1.245215,-0.4885852,-0.2213429
1.176292,-0.504717,-0.1441689
1.058109,-0.417043,-0.04078286
0.9698286,-0.3240392,0.01674035
0.9293125,-0.2535782,0.04394291
0.8974041,-0.2041367,0.05511053
0.8171629,-0.1808532,0.03714903
0.7721577,-0.1978104,-0.01147336
0.8065703,-0.1781143,-0.07462712
0.7958421,-0.1105066,-0.1349905
0.7993163,-0.0357225,-0.145386
0.8416532,-0.01163335,-0.1300555
0.8740944,-0.06354994,-0.113998
0.9518059,-0.0743462,-0.07572684
0.9931268,-0.03440555,-0.04411945
0.9794634,0.01310264,-0.02987929
0.9681972,0.0683162,-0.00576793
0.9436102,0.09051021,0.03223739
0.9674669,0.102137,0.05284176
1.064811,0.1075378,0.04128995
1.256817,0.1208922,0.01424422
1.425995,0.1699374,0.004131393
1.359346,0.1522969,0.05697124
1.245528,-0.0009223521,0.1292192
1.226732,-0.1730815,0.1121924
1.169583,-0.209675,-0.006214203
1.119401,-0.2207375,-0.128307
1.016811,-0.3529084,-0.135816
0.8214764,-0.455578,-0.03414721
0.8395701,-0.4717137,0.02305245
1.210046,-0.4108663,-0.02276798
1.616262,-0.2328253,-0.09719505
1.607087,-0.1180127,-0.1534727
1.356332,-0.07774055,-0.1448277
1.199499,-0.002997781,-0.08613474
0.8497215,-0.02246093,0.003509816
0.5776896,-0.09448729,0.1258632
0.6676868,-0.09668296,0.1302612
0.6085152,-0.1155329,0.08777634
0.6154493,-0.1256798,0.1493214
0.8321724,-0.06522846,0.1324168
0.8256332,-0.05186246,0.09809661
0.8125726,-0.05911917,0.1348702
0.8631227,-0.02798512,0.09682091
0.8374298,-0.02709456,0.09217528
0.8858441,0.007114908,0.1098657
0.9582489,0.03197578,0.1041111
1.039229,0.001177299,0.1503457
1.134956,-0.02154218,0.1344566
1.219283,-0.09843384,0.127851
1.330618,-0.1074099,0.173853
1.314407,0.04242597,0.1820284
1.215694,0.2168961,0.1882372
1.226635,0.2618811,0.09694574
1.319512,0.006034938,-0.08688789
1.425192,-0.3726821,-0.2379862
1.337992,-0.5552037,-0.2732947
1.073209,-0.529129,-0.125208
0.8821881,-0.4307299,0.03600503
0.8145056,-0.3565241,0.06840349
0.9639541,-0.2832473,0.05304532
1.118045,-0.2403332,0.04548444
1.037097,-0.2306337,0.002917522
0.9639309,-0.1935061,-0.07625665
0.8706206,-0.1660946,-0.1023873
0.7495671,-0.1131943,-0.09924442
0.7480146,-0.05878981,-0.1060562
0.7519846,-0.06149507,-0.09222324
0.8303689,-0.05865491,-0.09363272
0.9832142,-0.04982841,-0.105526
1.059836,-0.0260367,-0.1126401
1.07078,0.009924181,-0.1143539
1.004849,0.02830724,-0.06460647
0.9067555,0.03535739,0.01973579
0.836028,0.01313653,0.06854868
0.8484335,0.008077495,0.05460373
1.019646,0.05354377,0.01841036
1.245973,0.1143998,-0.0001021261
1.321384,0.1437736,0.01864068
1.227984,0.1137089,0.09237461
1.180965,0.03517499,0.1657374
1.180358,-0.1295926,0.1699104
1.12261,-0.2752867,0.09835019
1.113109,-0.2620815,-0.03950608
1.075239,-0.2664859,-0.1903258
0.9611672,-0.3892443,-0.2100068
0.9235571,-0.4979007,-0.04291438
0.9949452,-0.5115627,0.1179426
1.181415,-0.3494257,0.1053896
1.36755,-0.05458894,-0.03087401
1.376778,0.1561732,-0.1365404
1.235385,0.1869724,-0.09564279
1.060418,0.07809226,0.006056763
0.924478,-0.06662523,0.07122318
0.8237544,-0.1550602,0.1046023
0.7727312,-0.2023151,0.08439816
0.7694434,-0.2122595,0.08629947
0.7761169,-0.1883871,0.1247421
0.7939928,-0.1550471,0.1162128
0.8055263,-0.09538856,0.1143952
0.8157084,-0.0255296,0.1062234
0.8302775,0.03144241,0.05706561
0.8760105,0.05371854,0.02640961
0.9807738,0.01964052,0.02024536
1.097998,-0.04805894,0.05745723
1.168515,-0.1154777,0.09370962
1.089705,-0.111637,0.08237613
0.9891933,-0.049761,0.09517144
1.071003,0.0006582969,0.1213732
1.152277,0.1147079,0.122928
1.172168,0.241154,0.102586
1.255454,0.206138,0.0298301
1.359813,0.05752705,-0.09936335
1.446954,-0.1015284,-0.187071
