accx,accy,accz
0.7827202,-0.1492299,0.07376454
0.7390286,-0.1231486,0.09254965
0.6596048,-0.1032201,0.05125684
0.6591401,-0.1105709,0.05141235
0.6752303,-0.1436601,0.07759115
0.6916566,-0.1784929,0.1106588
0.782343,-0.221316,0.1257791
0.8508258,-0.2553033,0.1380423
0.872754,-0.2530574,0.1763603
0.9064131,-0.1874952,0.1889903
1.046961,-0.1141466,0.1554034
1.228983,-0.1411508,0.09054183
1.272462,-0.2246811,0.03329119
1.314438,-0.2595113,0.03967974
1.460299,-0.2059624,0.0997757
1.564957,-0.157549,0.1665114
1.572395,-0.2784317,0.1981649
1.425822,-0.4528103,0.1607929
1.121978,-0.5141837,0.06320032
0.8831527,-0.5315849,-0.01969407
0.777408,-0.4243073,-0.0293067
0.7190441,-0.1560343,-0.0666355
0.7628189,0.03679155,-0.1994355
0.8661546,0.05421857,-0.2295406
0.9558195,-0.1211799,-0.124473
1.054119,-0.3815074,-0.07502002
1.067092,-0.4310534,-0.05756351
0.9505666,-0.2903858,-0.05764781
0.8040361,-0.1559413,-0.07727955
0.7692639,-0.05666559,-0.06697714
0.8734272,-0.03377022,-0.103754
0.9465676,-0.07577675,-0.1278773
0.9484173,-0.09376308,-0.1064049
0.9492441,-0.07992506,-0.1179791
0.9438393,-0.02161194,-0.1207885
0.9312236,0.068414,-0.1244736
0.9096882,0.09171317,-0.1191851
0.9321773,0.08456285,-0.09068359
0.9804579,0.1104521,-0.0713033
0.9813331,0.05676764,-0.04882467
1.013131,-0.05735072,-0.06031467
1.084007,-0.1077566,-0.1017177
1.116276,-0.104127,-0.1948779
1.114987,-0.04597615,-0.3168981
1.13673,-0.01434493,-0.2977106
1.225904,-0.1294717,-0.260334
1.307507,-0.2371876,-0.3572268
1.330207,-0.1777759,-0.4004627
1.33615,-0.1315442,-0.4110036
1.284544,-0.230129,-0.4592528
1.14023,-0.3217971,-0.3256007
1.015223,-0.3912196,-0.06706508
1.011436,-0.4317704,0.0380924
1.082836,-0.2976207,-0.02568253
1.147829,-0.1259848,-0.07471611
1.144259,-0.08733457,-0.04068731
1.060368,-0.1094039,-0.0590887
0.9070143,-0.1077098,-0.08874971
0.727883,-0.09523132,-0.06357413
0.7013648,-0.1293465,-0.08031106
0.7535533,-0.17333,-0.05015126
0.6921177,-0.241274,0.06984527
0.6774306,-0.3029904,0.1682594
0.7167518,-0.2502791,0.1533765
0.7188453,-0.2101184,0.09198844
0.7928031,-0.1969056,0.1433651
0.8586697,-0.1465231,0.1560978
0.8592423,-0.1490319,0.1403841
0.8670945,-0.1231574,0.232556
0.889299,-0.04151074,0.2343218
0.9990678,-0.008488144,0.1746176
1.199394,-0.04835093,0.1460811
1.359742,-0.15876,0.1396517
1.389437,-0.2307754,0.1728204
1.38403,-0.1934891,0.1439488
1.468846,-0.1766504,0.1334164
1.496704,-0.3117375,0.1278863
1.362368,-0.4938711,0.04054545
1.121259,-0.571621,-0.03782666
0.8385252,-0.5887359,-0.1095467
0.7603885,-0.4859054,-0.1165677
0.9373537,-0.2418571,-0.1854016
1.037275,-0.1231673,-0.3138484
0.9742189,-0.2019222,-0.1397999
0.9579988,-0.2734722,0.03831205
0.9934819,-0.2662704,-0.09121164
0.9561699,-0.2391818,-0.1426248
0.8848327,-0.1579921,-0.07041185
0.8341778,-0.05952541,-0.09018342
0.8434333,-0.05096472,-0.1011059
0.9163822,-0.05033581,-0.09157476
0.9314401,-0.02432751,-0.1298951
0.9096082,-0.01028595,-0.1285624
0.9112916,0.02114728,-0.1197014
0.9144019,0.03696083,-0.1360834
0.9494773,0.03900644,-0.1112838
0.9736376,0.04272303,-0.1009047
0.9933671,0.04798488,-0.102018
1.013162,0.05904335,-0.08739928
0.9957785,0.0226488,-0.09800027
1.027155,-0.06471217,-0.1225954
1.075837,-0.1538629,-0.1767188
1.105081,-0.1741531,-0.2187208
1.151702,-0.1343101,-0.190131
1.178801,-0.1379384,-0.1404048
1.201294,-0.1702948,-0.09801039
1.221517,-0.185861,-0.1155803
1.253128,-0.1929332,-0.2816515
1.301755,-0.2136312,-0.4926219
1.291077,-0.2696833,-0.5068557
1.181635,-0.318892,-0.3228909
1.042165,-0.3581871,-0.1265913
1.053826,-0.3448847,-0.02551044
1.195146,-0.2178992,-0.06626547
1.247498,-0.1227915,-0.1057912
1.138142,-0.1118828,-0.05671774
0.9719821,-0.08874289,-0.08295605
0.9231121,-0.09904178,-0.1130904
0.8952441,-0.1528398,-0.0765111
0.7683974,-0.1702623,-0.05691044
0.7094154,-0.1772283,0.03369324
0.6883838,-0.2015135,0.1020935
0.6502061,-0.187449,0.07322813
0.6800879,-0.1751044,0.07509185
0.7254394,-0.2053721,0.06787722
0.7964428,-0.2245584,0.06927302
0.8700761,-0.2564961,0.1138558
0.866947,-0.2668156,0.1655017
0.8643287,-0.2060639,0.2329642
0.9113472,-0.138118,0.2497858
1.024105,-0.102626,0.2080252
1.174433,-0.137755,0.1317552
1.233634,-0.1755976,0.06978034
1.221135,-0.1461094,0.1165888
1.277273,-0.1008653,0.2051079
1.404986,-0.06208996,0.2494821
1.472719,-0.1369827,0.2273145
1.361821,-0.311682,0.1378535
1.145311,-0.4326732,0.01920859
1.051809,-0.5507873,-0.1056747
1.073421,-0.6281107,-0.1650099
1.007812,-0.5196463,-0.1636386
0.8376333,-0.2380413,-0.1984499
0.7211261,0.01463546,-0.2065569
0.8444148,-0.09059562,-0.09479594
1.057723,-0.3399503,0.02054635
1.086165,-0.3272176,-0.01565092
1.096179,-0.297945,-0.07302158
1.044636,-0.2461704,-0.04179421
0.8063834,-0.05822616,-0.07565407
0.7533604,-0.05742782,-0.09631405
0.8345418,-0.07094432,-0.05542195
0.8313335,0.00370477,-0.09661743
0.8894416,-0.06411099,-0.09501046
0.9109006,-0.110775,-0.07343771
0.8957648,-0.09438478,-0.115266
0.9460845,-0.05508642,-0.1247561
0.9598566,0.02021278,-0.1589065
0.9600822,0.04007421,-0.157851
0.9638922,0.05269905,-0.1150828
0.9728511,0.0630571,-0.1252166
1.002472,0.04070949,-0.1007991
1.024193,-0.03318959,-0.08218192
1.068711,-0.158311,-0.09406297
1.099811,-0.1983377,-0.1183479
1.093985,-0.1360543,-0.1910629
1.116025,-0.09425671,-0.2175812
1.192608,-0.0896937,-0.2105941
1.254901,-0.05640915,-0.2549909
1.259029,-0.06207627,-0.3223601
1.28313,-0.1560498,-0.358414
1.274259,-0.252328,-0.359194
1.151855,-0.3438124,-0.3502988
1.028129,-0.3842454,-0.2566813
1.000636,-0.3611206,-0.07603981
1.051605,-0.3233557,0.01812684
1.091722,-0.1976298,-0.04480488
1.106292,-0.05974006,-0.09780345
1.093205,-0.06096488,-0.05403169
1.014273,-0.1507181,-0.06274367
0.9533913,-0.2092921,-0.07689089
0.8937998,-0.2062554,-0.01891076
0.803407,-0.1960875,0.01486815
0.7591219,-0.1900783,0.0649227
0.7141552,-0.175196,0.07868521
0.695152,-0.1664221,0.04736232
0.7305759,-0.1806065,0.08480968
0.7553281,-0.2154145,0.1103005
0.8047957,-0.245501,0.1355444
0.8522229,-0.269158,0.1645853
0.8712091,-0.256863,0.1652951
0.8939011,-0.1786694,0.2351267
0.9156486,-0.06576968,0.2918044
0.9528078,-0.007535165,0.256342
1.042569,-0.07686546,0.1662879
1.205949,-0.2093292,0.04706123
1.282963,-0.3090712,0.006532754
1.277119,-0.2615256,0.07822249
1.459706,-0.1250642,0.1321486
1.607804,-0.1548446,0.1028227
1.408462,-0.2847986,0.1082299
1.110305,-0.3881352,0.1317531
0.936755,-0.4609729,0.05283191
0.8950239,-0.4351944,-0.03368621
0.9254024,-0.3289724,-0.1351841
0.9017796,-0.1097491,-0.3098663
0.8869819,0.007306078,-0.3550871
0.9458454,-0.1150805,-0.2110769
0.9835333,-0.183412,-0.08289315
1.038397,-0.3076436,-0.03016065
1.081256,-0.4224709,-0.01681049
1.011248,-0.2714294,-0.07212775
0.9225267,-0.1535542,-0.1048197
0.8629407,-0.07883661,-0.08484485
0.8579826,0.02343698,-0.09694936
0.9075124,0.01167757,-0.1012651
0.9167642,-0.01323426,-0.08823628
0.9187657,-0.04435183,-0.07588278
0.9206835,-0.06403027,-0.07411668
0.9127747,-0.006998355,-0.1016281
0.9356141,0.05087386,-0.1179538
0.9475923,0.07137629,-0.1211174
0.9626321,0.05561824,-0.1056015
0.9914997,0.03267771,-0.0794387
1.015794,-0.02995127,-0.07210893
1.040423,-0.1412574,-0.09896171
1.039882,-0.179842,-0.1747433
1.053199,-0.1145522,-0.2065154
1.1303,-0.07197343,-0.1597414
1.272722,-0.1645288,-0.1154053
1.367352,-0.249563,-0.1258751
1.31304,-0.1955936,-0.2183711
1.27561,-0.1440608,-0.3194362
1.293384,-0.1481843,-0.3698054
1.22083,-0.2238365,-0.4042519
1.095401,-0.3730228,-0.3422613
0.9690846,-0.4191954,-0.1215786
0.9340377,-0.3928352,0.04656191
1.057511,-0.3591557,0.03612842
1.151786,-0.1749937,-0.001957635
1.130509,0.03653045,-0.01613177
1.081924,0.06778723,-0.04393955
1.012225,-0.01368078,-0.08021284
0.9106293,-0.07876318,-0.08682532
0.8278097,-0.09979701,-0.02600424
0.7980223,-0.1608241,0.03966222
0.7659032,-0.234404,0.08651262
0.7206493,-0.2379202,0.1036713
0.7137944,-0.2360657,0.09495125
0.7471511,-0.2394917,0.1243478
0.8179724,-0.2466477,0.1465299
0.8858881,-0.2676932,0.1512133
0.9077547,-0.2614773,0.1569863
0.8883921,-0.24021,0.1603893
0.8599001,-0.1636279,0.2120319
0.8708836,-0.04559854,0.2509163
0.9457028,-0.03187599,0.1953286
1.140348,-0.1478907,0.06850709
1.325781,-0.2961337,0.008775122
1.306005,-0.3479681,0.1478561
1.318845,-0.2280587,0.2938994
1.442462,-0.1186919,0.2623562
1.390838,-0.2007624,0.249333
1.271626,-0.280522,0.2716611
1.115372,-0.3145707,0.1093183
0.8545071,-0.463796,-0.04877397
0.8902383,-0.5029294,-0.02821066
1.030861,-0.3664424,-0.06406554
0.9145769,-0.257843,-0.2030372
0.9423113,-0.149766,-0.24862
0.9963764,-0.15028,-0.1306301
0.928219,-0.2809353,-0.001717668
1.01485,-0.3194494,0.003704738
1.000942,-0.2738353,-0.04934855
0.9048392,-0.1859433,-0.09914141
0.8666023,-0.08800914,-0.1057597
0.8038123,-0.02373716,-0.09543028
0.8797404,0.01575494,-0.1093428
0.9284988,-0.02295192,-0.09292289
0.905068,-0.05288892,-0.07320466
0.9312759,-0.04350685,-0.06654085
0.9029189,-0.04683915,-0.06876188
0.9390363,0.008718867,-0.09870212
0.9773187,0.04823175,-0.113749
0.9605293,0.04356791,-0.11813
1.005711,0.05268387,-0.1171969
1.032524,0.03302497,-0.1079437
1.052493,-0.01560249,-0.1033077
1.059204,-0.09611272,-0.1029047
1.061796,-0.1579763,-0.1291002
1.103742,-0.1610767,-0.1464816
1.13495,-0.1214719,-0.1414584
1.199922,-0.0627891,-0.1579771
1.238891,-0.08917452,-0.2043928
1.221269,-0.1435288,-0.2817476
1.256405,-0.1590093,-0.3442845
1.294048,-0.2287541,-0.3927538
1.234312,-0.3252451,-0.423775
1.101228,-0.3835665,-0.2667856
1.031655,-0.3741017,0.006193747
1.0944,-0.3377049,0.06495706
1.191076,-0.281345,-0.02394859
1.206473,-0.1306631,-0.0184474
1.126252,-0.06681014,-0.004971843
1.009653,-0.124988,-0.05144662
0.9007981,-0.101539,-0.07695143
0.8287698,-0.0939448,-0.06490556
0.7842645,-0.1456677,-0.009083135
0.7435797,-0.1779453,0.06789568
0.7004327,-0.2188288,0.1124813
0.6795758,-0.2182156,0.1180056
0.7139457,-0.1998502,0.1232684
0.7469656,-0.2013424,0.1456174
0.7849135,-0.1798062,0.1515412
0.8407247,-0.1752145,0.1646778
0.8762453,-0.1654283,0.2123015
0.9382922,-0.09444889,0.24714
0.9969556,-0.01039144,0.2114026
1.093944,0.01190329,0.09093889
1.238078,-0.06025232,0.01889641
1.266751,-0.1762816,0.1282907
1.301226,-0.2512544,0.2867755
1.415578,-0.2416504,0.3030299
1.484865,-0.2521494,0.2584627
1.489424,-0.3601459,0.233123
1.269296,-0.3987663,0.1120145
0.9250207,-0.3698577,-0.003492404
0.8054571,-0.3757017,-0.005886723
0.8235966,-0.2818447,-0.07691632
0.875072,-0.1210437,-0.2130137
0.9723058,-0.06707865,-0.2421686
0.988974,-0.1624739,-0.1485319
1.007733,-0.332893,-0.02765729
1.081651,-0.4010668,0.004994861
1.051082,-0.3124557,-0.05978096
0.9571062,-0.1568333,-0.1065808
0.8624331,-0.04362328,-0.08328055
0.7795468,0.01548087,-0.07843196
0.820919,0.05001106,-0.102861
0.8944738,0.01207929,-0.09634878
0.9110294,-0.03245693,-0.1030742
0.9238296,-0.05978472,-0.1114065
0.9035602,-0.05983259,-0.1017223
0.9272384,0.02423359,-0.1279301
0.9748403,0.06132583,-0.142481
0.9660875,0.05487227,-0.1165047
0.9847734,0.07097677,-0.09985846
0.9818285,0.05889949,-0.1065608
0.9731173,0.001732327,-0.1274026
1.00034,-0.1047241,-0.1395203
0.9985414,-0.1417911,-0.1513417
1.024645,-0.1604541,-0.1836169
1.064269,-0.2460594,-0.2183518
1.119488,-0.2293516,-0.2165028
1.22366,-0.1961766,-0.1881667
1.293967,-0.2250965,-0.207527
1.317314,-0.1751736,-0.2684234
1.316912,-0.1334089,-0.3443174
1.307902,-0.1799203,-0.443987
1.233495,-0.2360191,-0.4907375
1.05851,-0.2942903,-0.3911243
0.9330209,-0.3588267,-0.1712466
0.9641172,-0.3783978,-0.01695006
1.108128,-0.3229788,-0.02516561
1.245962,-0.2154033,-0.06768094
1.271342,-0.1140426,-0.07153446
1.139593,-0.06645977,-0.08871078
0.9407079,-0.06449076,-0.1135018
0.8113533,-0.06218427,-0.05120059
0.7351405,-0.05015148,0.06235753
0.7181746,-0.06856365,0.1166328
0.7393144,-0.09291682,0.1369515
0.7351044,-0.08103742,0.127884
0.7536441,-0.08504727,0.09351334
0.764198,-0.1293232,0.07503334
0.7563948,-0.1872722,0.07689973
0.7651696,-0.2470948,0.1217687
0.7699675,-0.2854569,0.180687
0.7984653,-0.2741109,0.2301096
0.8739384,-0.1920034,0.2807211
0.9987494,-0.0993598,0.2844513
1.138982,-0.09816444,0.1752186
1.28481,-0.1517914,0.00154833
1.371685,-0.1816566,-0.02451816
1.334369,-0.1961606,0.1095051
1.362184,-0.1987644,0.1876768
1.435688,-0.223557,0.1869318
1.378613,-0.3161897,0.1702388
1.230858,-0.3962067,0.106044
0.9872143,-0.4292022,-0.00464181
0.8401644,-0.4606217,-0.09168907
0.8795878,-0.4056895,-0.1160499
0.8743407,-0.254471,-0.1153232
0.933029,-0.171946,-0.1077343
1.041441,-0.1967793,-0.05679748
1.029242,-0.2510651,0.0134235
1.038054,-0.279194,-0.004578689
1.011753,-0.2215126,-0.06701998
0.8746343,-0.1015876,-0.07040582
0.7500555,-0.01650068,-0.0647295
0.7227672,0.0001890121,-0.05684291
0.8405729,-0.03951966,-0.07371727
0.9404839,-0.07823867,-0.118145
0.9145598,-0.06873864,-0.1043534
0.8966916,-0.04383856,-0.09963117
0.9189509,0.02920676,-0.1072816
0.9389438,0.1370477,-0.09291596
0.9784435,0.1380312,-0.1010909
1.012742,0.09275547,-0.08157147
0.9913228,0.07689343,-0.06526296
0.9856348,-0.04017613,-0.0951954
1.02731,-0.1662248,-0.1387118
1.083912,-0.1549736,-0.1844574
1.180739,-0.145715,-0.1843805
1.232658,-0.1935959,-0.1712049
1.225123,-0.2092955,-0.2086947
1.265508,-0.1514628,-0.2856379
1.316845,-0.09013232,-0.3632344
1.323798,-0.1672662,-0.3746628
1.250366,-0.3186578,-0.3167857
1.134813,-0.406099,-0.163714
1.115942,-0.4200016,0.04077249
1.158487,-0.364614,0.04578547
1.188111,-0.2591526,-0.08020509
1.209684,-0.1178398,-0.08552337
1.106881,-0.07696364,-0.08198402
0.9002344,-0.1720145,-0.1169729
0.8165779,-0.1680339,-0.1059086
0.7984186,-0.1169384,-0.05190295
0.7041464,-0.1286055,0.05820425
0.6774424,-0.1429323,0.1028264
0.7045159,-0.2002119,0.08550187
0.6651043,-0.2021765,0.119305
0.6794117,-0.1713992,0.1314052
0.732055,-0.1977343,0.1506123
0.7583559,-0.1719727,0.1747179
0.8433596,-0.1662667,0.1691819
0.9094511,-0.1759382,0.2047757
0.9345681,-0.1201856,0.2277652
0.9856544,-0.07095544,0.2177862
1.049719,-0.06014107,0.1493192
1.185164,-0.1549617,0.05915279
1.284364,-0.2507241,0.1235995
1.293146,-0.2157605,0.2522842
1.409327,-0.203477,0.2933657
1.539471,-0.2701959,0.2226876
1.470573,-0.3600583,0.094913
1.201946,-0.4454059,0.03119841
0.8888167,-0.4352973,-0.04686308
0.8112047,-0.3224958,-0.1116365
0.9077928,-0.1931982,-0.1287023
0.8964721,-0.08727442,-0.2345104
0.90643,-0.09125433,-0.1688222
1.00817,-0.2434403,0.02447086
1.039018,-0.3668187,-0.02021375
1.050057,-0.3347466,-0.0639249
0.993129,-0.2232527,-0.05478303
0.8793293,-0.1365727,-0.08699776
0.8649403,-0.05939173,-0.0437396
0.8545215,0.006318314,-0.06244413
0.86267,-0.009615898,-0.07215863
0.8981745,-0.03041927,-0.04308025
0.885396,-0.03055106,-0.0916983
0.9201881,-0.05080836,-0.1007539
0.9622373,-0.02611569,-0.1187611
0.9796419,0.01645714,-0.1157716
0.9864494,0.04866666,-0.06918162
0.9592146,0.09020466,-0.08376442
0.9675158,0.1015364,-0.06194664
1.003948,0.05679352,-0.03740792
1.043939,-0.01530155,-0.03187099
1.047177,-0.0427007,-0.02476778
1.027228,-0.01613334,-0.08624979
1.067661,0.02905881,-0.1342062
1.097422,0.05964128,-0.1591184
1.147401,0.02947857,-0.2036155
1.269471,-0.01286765,-0.2811699
1.323871,-0.009366335,-0.3519434
1.301051,-0.05173628,-0.3444795
1.305848,-0.1791452,-0.4307282
1.290478,-0.2609522,-0.5277284
1.12814,-0.3086494,-0.3312687
0.9380819,-0.4089256,-0.04135792
0.9614672,-0.4181186,0.04059747
1.138365,-0.2768327,-0.03995074
1.244073,-0.1481038,-0.08407552
1.205147,-0.08190705,-0.04565648
1.115482,-0.06350771,-0.06067607
1.029218,-0.1212656,-0.09550629
0.9098611,-0.1848371,-0.08681651
0.817817,-0.188934,-0.06536658
0.7868058,-0.1862873,0.02096335
0.7446581,-0.2040094,0.11371
0.6893184,-0.2047707,0.1429806
0.648092,-0.1845373,0.1570295
0.6549143,-0.1659219,0.1624302
0.721433,-0.1463095,0.1738397
0.8005252,-0.1437526,0.1676104
0.8789612,-0.1579918,0.1556756
0.9139567,-0.1475224,0.1945234
0.9254834,-0.1106413,0.2158617
1.008515,-0.07283849,0.1906028
1.126062,-0.09372699,0.1248983
1.227942,-0.1585143,0.05776681
1.28725,-0.1711401,0.0992503
1.349142,-0.1373881,0.201857
1.510294,-0.125225,0.2493833
1.602421,-0.2350459,0.1963771
1.393608,-0.417839,0.0827237
1.027098,-0.4841605,0.01302447
0.861106,-0.4733065,-0.01339589
0.883824,-0.4104004,-0.03714904
0.8788395,-0.2364201,-0.1010306
0.8956974,-0.1087287,-0.1915699
0.9183824,-0.1128928,-0.1517152
0.931676,-0.1739362,-0.068091
1.008168,-0.262271,-0.09518845
1.034369,-0.3068233,-0.08332216
0.9426029,-0.2102556,-0.05260762
0.8133281,-0.06605399,-0.08079316
0.8147501,-0.03987177,-0.07609119
0.9232982,-0.02903096,-0.0920172
0.9740494,0.03466359,-0.1105679
1.005629,-0.0003170532,-0.08354519
0.9847363,-0.04699384,-0.08248308
0.9408997,0.01543772,-0.09106259
0.9433899,0.06926394,-0.106963
0.9239408,0.08496024,-0.1188403
0.9411795,0.08479071,-0.1103293
0.9454504,0.06952057,-0.1168752
0.9321138,0.07839484,-0.1191517
0.9799995,0.06044524,-0.116691
1.007581,-0.02463545,-0.1121607
1.04558,-0.1104976,-0.1051244
1.079241,-0.1518244,-0.1162501
1.099051,-0.1647092,-0.1425346
1.131924,-0.1329502,-0.1726445
1.124741,-0.05564358,-0.1715496
1.17531,-0.06103481,-0.1733941
1.230208,-0.1141279,-0.2225012
1.237202,-0.1240446,-0.2875888
1.290903,-0.2006504,-0.3637357
1.269919,-0.2717141,-0.3830296
1.174115,-0.3228526,-0.31778
1.096569,-0.4072802,-0.2119738
1.07995,-0.3690445,-0.05584064
1.197635,-0.2834574,-0.02086094
1.278416,-0.1711199,-0.09786046
1.195243,-0.05238797,-0.03843012
1.051698,-0.1097862,-0.01176417
0.8906721,-0.1249309,-0.07039753
0.7523759,-0.04614885,-0.04016018
0.7047884,-0.05854059,-0.01536124
0.7157738,-0.08890616,0.03617674
0.7097275,-0.1434085,0.09191896
0.7032438,-0.1882707,0.08362122
0.7204296,-0.1917899,0.1094756
0.7553437,-0.2264563,0.1090508
0.8246937,-0.2335614,0.1242509
0.8690343,-0.2291705,0.172588
0.8709101,-0.231474,0.1807784
0.9004923,-0.1805195,0.2398085
0.9532975,-0.1017369,0.2722621
1.04484,-0.04048735,0.2062837
1.187662,-0.06410559,0.1227026
1.260753,-0.1454618,0.09240814
1.262736,-0.1830671,0.1521226
1.34959,-0.1669161,0.1890599
1.51249,-0.1447237,0.1659623
1.615736,-0.21748,0.1520757
1.449139,-0.3432278,0.1239563
1.038881,-0.3955016,0.05022377
0.8162583,-0.3947736,-0.008107009
0.8274339,-0.348599,-0.02260602
0.9131312,-0.2502142,-0.1382924
1.047595,-0.1437209,-0.2726161
1.029516,-0.1574969,-0.1614377
1.001636,-0.3075414,-0.005318057
1.038234,-0.3655524,-0.04278274
0.9369139,-0.2981324,-0.07762711
0.8497535,-0.2014035,-0.06138711
0.8012541,-0.1139337,-0.09349254
0.817522,-0.04837382,-0.1069861
0.9305863,0.0355755,-0.1303171
0.9527204,0.03271617,-0.137111
0.957514,-0.007785189,-0.08551709
0.9538941,0.02204245,-0.08782352
0.9425459,0.01946316,-0.08900698
0.9775571,0.05515043,-0.08238897
0.9573927,0.1133448,-0.1049666
0.9583856,0.1051428,-0.0921282
0.9637976,0.1149212,-0.09557782
0.9703103,0.1049602,-0.07385306
1.026199,0.04530869,-0.02812573
1.011936,-0.01878368,-0.05316592
1.040336,-0.07365356,-0.1055682
1.115611,-0.1168054,-0.1605944
1.112352,-0.1254093,-0.1622936
1.127678,-0.09835225,-0.1364536
1.174368,-0.1352768,-0.1638698
1.211496,-0.1702116,-0.1891726
1.237421,-0.1570105,-0.293671
1.291185,-0.2406127,-0.4888764
1.322771,-0.3326013,-0.528373
1.202248,-0.3515334,-0.3517113
1.054119,-0.3877924,-0.1286225
1.036829,-0.3831207,-0.01576032
1.150882,-0.2556563,-0.05479578
1.252483,-0.0811438,-0.08592556
1.179624,-0.009925832,-0.02634016
1.049158,-0.05240606,-0.02966966
0.9306436,-0.0683419,-0.07751073
0.7910778,-0.03803156,-0.07706705
0.7341978,-0.05855481,-0.05016042
0.7196819,-0.1146021,0.04245186
0.6855075,-0.1761492,0.119902
0.6720686,-0.2442016,0.1324237
0.6694833,-0.2415674,0.1452768
0.730657,-0.2171858,0.1342974
0.8346542,-0.2201321,0.1466388
0.8827419,-0.2043559,0.1637523
0.8853528,-0.2115274,0.1663466
0.8788809,-0.1882849,0.2377068
0.8996271,-0.1137856,0.29073
0.9539686,-0.04534196,0.2413591
1.079627,-0.001929657,0.1303548
1.251825,-0.05634214,0.06312319
1.307443,-0.1370763,0.1006281
1.339334,-0.1700183,0.1608879
1.503882,-0.2024669,0.1877237
1.614338,-0.2732569,0.1532326
1.453697,-0.4056449,0.07204413
1.119274,-0.4794855,0.01097004
0.8934612,-0.4769839,-0.007946823
0.8175142,-0.4311275,-0.007348978
0.7972433,-0.251707,-0.06546886
0.8466763,-0.08268228,-0.1570159
0.9011728,-0.06057058,-0.1598755
0.9418143,-0.1620229,-0.1072149
1.004675,-0.330628,-0.08028578
1.021262,-0.3684997,-0.06160164
0.9316484,-0.2563839,-0.06246948
0.788772,-0.1307664,-0.076971
0.7585832,-0.05232117,-0.06861469
0.8381084,-0.04645961,-0.0959431
0.9182838,-0.04390417,-0.1408161
0.9962973,-0.05487418,-0.138031
1.002486,-0.09724988,-0.1245293
0.9751214,-0.09602872,-0.1115783
0.9845407,-0.04971416,-0.1119779
0.944762,0.0302225,-0.1217643
0.9173139,0.08018827,-0.1181924
0.9481789,0.07893374,-0.1215147
0.9632116,0.07705915,-0.1103719
0.9981204,0.02259207,-0.08585362
1.044285,-0.07635036,-0.07511243
1.057218,-0.1291443,-0.09891763
1.06493,-0.115499,-0.1745358
1.086222,-0.1094779,-0.2207009
1.166097,-0.1543572,-0.1742849
1.257961,-0.1663559,-0.1458677
1.248861,-0.1147284,-0.2545514
1.240832,-0.07461591,-0.3717988
1.295587,-0.1317363,-0.3906699
1.288741,-0.253129,-0.4489691
1.245795,-0.3130109,-0.444451
1.164607,-0.3414819,-0.1874192
1.036789,-0.3854587,0.05073893
1.069875,-0.3534338,0.02317083
1.164766,-0.1969153,-0.04586095
1.142869,-0.04160901,0.006289046
1.140985,-0.04682026,-0.003589842
1.063288,-0.09260418,-0.07272192
0.8648018,-0.04947083,-0.08116333
0.7701396,-0.05440651,-0.08866261
0.773444,-0.1241828,-0.007247743
0.7475776,-0.1817326,0.1157177
0.6815394,-0.2268998,0.1100569
0.6764595,-0.2260319,0.1095629
0.6869932,-0.2385722,0.1410436
0.6787291,-0.2708665,0.1440297
0.768768,-0.2417244,0.1626218
0.8155298,-0.2283968,0.1960293
0.8431677,-0.2063955,0.2422549
0.9369507,-0.1238976,0.2556477
0.9666609,-0.06690482,0.2131598
1.104293,-0.04260053,0.1030208
1.26683,-0.110731,-0.001396708
1.26427,-0.2059415,0.0556265
1.32356,-0.1721523,0.1846184
1.429797,-0.1429603,0.2448566
1.499283,-0.1864958,0.2274043
1.511179,-0.3045522,0.1897448
1.289774,-0.5153841,0.1863707
0.9686913,-0.5718067,0.08179155
0.8509476,-0.4344455,-0.09792396
0.8833247,-0.3099388,-0.1417142
0.8909688,-0.1679305,-0.1515856
0.9011779,-0.08847774,-0.1695792
0.92914,-0.1912913,-0.08916843
0.9525809,-0.293979,-0.05106263
0.9882664,-0.3315206,-0.07041051
0.9627098,-0.3083448,-0.06678546
0.8812343,-0.1964544,-0.08506816
0.8320861,-0.1114811,-0.08135625
0.8499705,-0.04946931,-0.08769215
0.9295409,-0.02304333,-0.1169979
0.9818024,-0.05679023,-0.1033784
0.9903186,-0.03655816,-0.0999319
0.9733019,-0.01239011,-0.09835827
0.9379982,0.008727286,-0.08895547
0.9488254,0.04825357,-0.0898715
0.9445292,0.03457927,-0.07419028
0.9271216,0.05053162,-0.06989989
0.958485,0.07059276,-0.06632136
0.9859928,0.02310315,-0.03957853
1.023373,-0.03648817,-0.01615343
1.027558,-0.1008178,-0.03926322
1.012399,-0.1124855,-0.1140629
1.074153,-0.06644894,-0.1674477
1.14282,-0.05122475,-0.1814723
1.194405,-0.09096377,-0.2010526
1.220922,-0.139493,-0.2602335
1.235026,-0.1387002,-0.3247556
1.285956,-0.166767,-0.3662545
1.275005,-0.2698166,-0.422243
1.200889,-0.3450333,-0.367278
1.099679,-0.3700146,-0.1520265
1.013904,-0.3646744,0.02258435
1.085788,-0.2881851,0.05858149
1.169378,-0.1248287,-0.01253722
1.132992,-0.004708869,-0.06436462
1.100589,-0.04835587,-0.07695351
1.029596,-0.1184449,-0.1305387
0.9384341,-0.1298365,-0.1231308
0.9266774,-0.1634386,-0.08293344
0.8795819,-0.194137,-0.02893508
0.7917052,-0.2215949,0.09071655
0.7642138,-0.2313059,0.09435158
0.7086902,-0.1889303,0.06443809
0.6062526,-0.1933122,0.1282985
0.6275947,-0.2040126,0.1267669
0.7189247,-0.1853453,0.1320687
0.7447844,-0.1967614,0.187112
0.8212627,-0.1659217,0.1859868
0.9002894,-0.1220541,0.2007936
0.8898926,-0.07794347,0.2217083
0.9414726,-0.02558707,0.1770295
1.103004,-0.1062162,0.104614
1.342367,-0.2572007,0.04848562
1.490239,-0.3120825,0.09394113
1.463092,-0.2580437,0.1798221
1.498644,-0.2251605,0.1620717
1.476143,-0.3374116,0.1368986
1.217437,-0.4725103,0.09165675
0.9645692,-0.501784,-0.01437074
0.8012737,-0.4379175,-0.02695414
0.7525148,-0.2976258,-0.0654229
0.8934753,-0.1318114,-0.1732835
1.030781,-0.05457111,-0.153288
1.018031,-0.1424032,-0.08807418
0.9908114,-0.2569976,-0.05602688
1.017386,-0.2831758,-0.04309553
0.9705814,-0.2620713,-0.06444587
0.8691665,-0.1700642,-0.05514057
0.831979,-0.06426867,-0.05397924
0.8556636,-0.01018526,-0.08308531
0.9143342,0.001443376,-0.08800653
0.9303263,-0.03929931,-0.0843722
0.9074257,-0.04845311,-0.07476374
0.9173444,-0.03254129,-0.0857071
0.9351414,-0.009414589,-0.1136537
0.967757,0.0596603,-0.1189193
0.9708429,0.08589506,-0.1208149
0.9586283,0.08639212,-0.1110023
0.9799376,0.07997937,-0.08919652
0.9700511,0.002027941,-0.07062897
0.9901066,-0.1290399,-0.0640096
1.041089,-0.2160592,-0.07775273
1.090048,-0.1238728,-0.08439367
1.18257,-0.02200211,-0.1069075
1.224532,-0.07050942,-0.1597531
1.232689,-0.07688882,-0.2230721
1.283814,-0.06883391,-0.2844439
1.31536,-0.1264382,-0.3011734
1.286755,-0.2003034,-0.3100793
1.18611,-0.338311,-0.3290908
1.099752,-0.3721393,-0.2833543
1.127894,-0.2970502,-0.1289468
1.18589,-0.3203337,0.03122748
1.210085,-0.2640803,-0.0138904
1.225672,-0.1570972,-0.09773954
1.146748,-0.1620711,-0.03238174
1.019317,-0.1147143,-0.06417348
1.0066,-0.0985766,-0.1147858
0.93384,-0.1467328,-0.04262277
0.7648247,-0.1239096,-0.00771172
0.7608244,-0.138363,0.05426402
0.7656207,-0.1478957,0.09833592
0.6518658,-0.1132284,0.08479621
0.6496608,-0.1318318,0.1189562
0.704256,-0.1504506,0.09729067
0.7283748,-0.189311,0.1013781
0.8043298,-0.2365567,0.1475966
0.829023,-0.2120934,0.1451067
0.8490856,-0.1845683,0.2268899
0.9618159,-0.1307901,0.2675022
1.031383,-0.0406729,0.1977045
1.122757,-0.05437207,0.1502479
1.233494,-0.1310069,0.1065612
1.250251,-0.1679274,0.1165315
1.324043,-0.1921489,0.1749453
1.439375,-0.2191526,0.2091888
1.51663,-0.3032915,0.1876048
1.492918,-0.4278552,0.1167919
1.239661,-0.4758554,0.05681615
0.962425,-0.4817788,-0.02460169
0.820096,-0.423291,-0.06248056
0.7923148,-0.2457675,-0.07160702
0.8466986,-0.1086956,-0.1752914
0.8853378,-0.08410614,-0.192061
0.9746252,-0.1556818,-0.1079834
1.057427,-0.2928876,-0.08496188
1.054082,-0.3440068,-0.06200468
1.008246,-0.279071,-0.05347848
0.8691767,-0.1822098,-0.05948154
0.8043859,-0.09584918,-0.04658021
0.8678886,-0.03459146,-0.07805398
0.8973324,-0.009340123,-0.1034776
0.9045935,-0.02914963,-0.09404395
0.9021833,-0.03797341,-0.09756892
0.9231744,-0.03623645,-0.1082892
0.9681716,-0.03099649,-0.1131098
0.98242,0.01833538,-0.1079652
0.9629275,0.04871821,-0.09608099
0.9349339,0.06219167,-0.07099594
0.9576206,0.07528358,-0.06466622
0.9963609,0.02695134,-0.08015804
1.02787,-0.04607133,-0.0729322
1.041311,-0.08442317,-0.08025701
1.018218,-0.08292285,-0.106134
1.041496,-0.08117327,-0.1443558
1.092554,-0.05445327,-0.1880367
1.168269,0.005364638,-0.1810929
1.273032,-0.0286872,-0.208105
1.302033,-0.09699437,-0.2891649
1.312169,-0.1066333,-0.3155196
1.329143,-0.1473061,-0.3639775
1.245748,-0.220783,-0.4304916
1.088931,-0.3128576,-0.3054576
1.005665,-0.4011963,-0.05643798
1.087343,-0.4128482,0.03450665
1.211504,-0.3282901,-0.03327789
1.24867,-0.1396286,-0.06383908
1.192188,0.01840654,-0.03699048
1.046333,0.007042545,-0.06105852
0.9028612,-0.07051281,-0.09136967
0.8100054,-0.1167642,-0.04360503
0.7625229,-0.154338,0.01232984
0.7627431,-0.1859146,0.06236919
0.7225722,-0.1860286,0.1105452
0.6719468,-0.174892,0.1101732
0.6732413,-0.1795867,0.109678
0.7072026,-0.2032394,0.1196815
0.7997029,-0.2469561,0.1379597
0.8789272,-0.262346,0.1692973
0.9008228,-0.2389599,0.1817716
0.9097671,-0.2008524,0.2194371
0.9193097,-0.1104202,0.2536947
0.9856694,-0.007512095,0.2101637
1.113418,-0.01189,0.1068201
1.228502,-0.1193481,0.03095301
1.259256,-0.1903694,0.1000786
1.307729,-0.1662251,0.2095359
1.510419,-0.1589576,0.1977015
1.626689,-0.2607349,0.1480677
1.438276,-0.4189944,0.08103625
1.112799,-0.5304926,-0.01473299
0.8718723,-0.5188013,-0.0192788
0.791503,-0.386345,-0.0227204
0.8253979,-0.2016053,-0.1487817
0.8826425,-0.02694752,-0.239201
0.9238448,-0.0136995,-0.1851853
0.9909994,-0.221157,-0.08644633
1.057584,-0.4091948,-0.04645647
1.071589,-0.4195039,-0.03780715
1.046539,-0.3496128,-0.0354517
0.9236802,-0.2550168,-0.05018516
0.7633533,-0.0945608,-0.03504999
0.7500191,-0.01881286,-0.04090084
0.8596483,-0.0561019,-0.08485353
0.9156848,0.01710602,-0.103138
0.8956497,0.01424391,-0.1071925
0.9141625,-0.08757797,-0.09585396
0.9467378,-0.02929521,-0.1164033
0.9690349,0.008959047,-0.1390472
1.002145,0.04786403,-0.1126593
0.994693,0.1083494,-0.1002253
0.9879358,0.05641361,-0.07179163
1.004609,0.06867606,-0.06464439
1.020969,0.03549352,-0.08787084
1.047675,-0.08955488,-0.07505279
1.046759,-0.1339895,-0.09516156
1.044741,-0.1504344,-0.120963
1.097714,-0.07231815,-0.1380201
1.168729,0.008343729,-0.1779973
1.211267,-0.06284271,-0.1865416
1.23004,-0.1116067,-0.2079632
1.251304,-0.09805989,-0.2522113
1.273835,-0.1579719,-0.2879831
1.27135,-0.2495409,-0.3399168
1.198065,-0.2403649,-0.3445115
1.047403,-0.2269555,-0.2353821
0.9725913,-0.2891259,-0.09056479
1.085923,-0.3084408,-0.0604513
1.196352,-0.2931705,-0.1044507
1.168697,-0.236754,-0.08873121
1.127593,-0.1516738,-0.08525118
1.04805,-0.1535786,-0.1027937
0.9126055,-0.1577851,-0.08033931
0.8851236,-0.1445191,-0.07494693
0.838179,-0.1942164,-0.03428868
0.7058664,-0.2074141,0.04361209
0.7157385,-0.1894933,0.06935672
0.7458195,-0.2092717,0.08103364
0.7242949,-0.2158939,0.08836184
0.8044198,-0.225907,0.09967377
0.8540445,-0.2301012,0.1279512
0.8696389,-0.2052645,0.1429891
0.9004707,-0.1940916,0.1818419
0.8791519,-0.1447504,0.2395601
0.9034999,-0.05415177,0.2679167
0.9404828,-0.0118135,0.2480694
1.001197,-0.03637467,0.1779229
1.145461,-0.08618213,0.1144142
1.236026,-0.120355,0.1195186
1.30706,-0.1430782,0.1803483
1.403459,-0.146904,0.2070287
1.476485,-0.1953471,0.1703479
1.473115,-0.3280789,0.1262977
1.261787,-0.4162342,0.06382326
0.986086,-0.4475671,-0.01093844
0.8672734,-0.4265744,-0.02814026
0.8494417,-0.3095632,-0.06342623
0.8814051,-0.1752287,-0.1986083
0.9356359,-0.09700729,-0.2398791
0.9697485,-0.1726332,-0.1289696
1.027969,-0.3325652,-0.07171553
1.066491,-0.3767594,-0.06387408
0.9675055,-0.3016034,-0.06078608
0.8350793,-0.1690913,-0.06483036
0.8289683,-0.0849067,-0.04460412
0.8809586,-0.01779522,-0.08229178
0.9167367,0.06164865,-0.1213195
0.9351925,0.02154123,-0.09736313
0.9256032,0.009112464,-0.08974928
0.9258205,0.03508225,-0.08527464
0.9444356,0.005607518,-0.09188679
0.9594416,0.05693787,-0.1052642
0.9700078,0.08393301,-0.08907273
0.9740035,0.073939,-0.07000219
0.9860038,0.08880161,-0.05814583
1.009989,0.03056143,-0.06313254
1.03489,-0.04904432,-0.07922031
1.048256,-0.1470318,-0.1067051
1.044631,-0.1763288,-0.1408644
1.060529,-0.04967892,-0.1447715
1.144056,0.03912059,-0.1612539
1.26358,-0.01290424,-0.2376521
1.313245,-0.0786947,-0.3109842
1.304197,-0.05979507,-0.3350643
1.315361,-0.1053176,-0.3720968
1.247829,-0.2345223,-0.4050845
1.080464,-0.3003452,-0.3335245
1.014121,-0.3445061,-0.226194
1.066883,-0.3570807,-0.1174382
1.123476,-0.3267823,0.02245493
1.201638,-0.1664296,0.008349074
1.252024,0.09776244,-0.08708615
1.173966,0.1050681,-0.04830959
1.0585,0.005242448,-0.06567658
0.9269817,-0.01760932,-0.0775901
0.7305979,-0.1682401,0.04425426
0.7111482,-0.2017036,0.05844176
0.8164065,-0.1243053,0.05458243
0.7521293,-0.1974929,0.09381166
0.7393841,-0.1762421,0.06070253
0.787518,-0.1254714,0.0629259
0.7462289,-0.1827738,0.06801204
0.8116009,-0.1784684,0.07801854
0.8602598,-0.2273005,0.1276499
0.849389,-0.2856042,0.1581871
0.8898104,-0.2394341,0.2048615
0.8783529,-0.1803878,0.2481911
0.9191358,-0.05359816,0.2835516
1.026567,0.01897086,0.2259253
1.155973,-0.06791966,0.06255874
1.267054,-0.1759478,0.02780612
1.263728,-0.2501673,0.1595389
1.358255,-0.2148745,0.2810184
1.523827,-0.1581325,0.2326334
1.537864,-0.2579462,0.1411268
1.357727,-0.3795795,0.1137984
1.004489,-0.4089685,-0.005579565
0.7852143,-0.3715635,-0.06148552
0.7974833,-0.2649315,-0.0610538
0.8790567,-0.1456282,-0.1976721
0.9883904,-0.08084261,-0.2220269
1.007155,-0.1865451,-0.09887347
1.003555,-0.3986184,0.009206095
1.029612,-0.4215488,0.04892226
0.9632554,-0.3046061,-0.03980492
0.8850912,-0.1963737,-0.09305178
0.8504551,-0.1014219,-0.06569519
0.8571237,-0.06885296,-0.07195632
0.8882864,-0.02403332,-0.0778846
0.893082,-0.005438462,-0.07349667
0.9238525,-0.02949148,-0.0738389
0.9488781,0.004531852,-0.08352417
0.9447668,0.01370855,-0.08989955
0.9606641,0.0472491,-0.08551849
0.9651234,0.0975043,-0.07569877
0.9682442,0.07670042,-0.05580075
0.975847,0.08485381,-0.07129416
0.995036,-0.3232657,-0.1573607
0.9015665,-0.3919525,0.0177755
1.026742,-0.3387756,-0.04804027
1.125795,-0.2648539,-0.0819113
1.074237,-0.1767876,-0.01550514
1.049348,-0.05915871,-0.04671494
1.033499,-0.1128572,-0.08603515
0.9697403,-0.1698807,-0.07220957
0.910959,-0.146809,-0.04672261
0.8353227,-0.186862,0.04261262
0.7858138,-0.1598622,0.1001464
0.7648754,-0.1327292,0.07686865
0.7426672,-0.1474753,0.08593299
0.7730849,-0.1198001,0.08835001
0.8021964,-0.1421516,0.0798718
0.831512,-0.1602797,0.1003233
0.8716813,-0.1824911,0.1134241
0.8517406,-0.2243514,0.1540213
0.8486403,-0.1977422,0.2085161
0.8688181,-0.1574784,0.2630945
0.9020849,-0.1103606,0.2712365
1.078926,-0.1375409,0.1358527
1.277544,-0.2465644,0.03420199
1.298204,-0.2671565,0.146345
1.362577,-0.230823,0.2571217
1.574817,-0.2065227,0.1790007
1.545438,-0.2651766,0.1100406
1.25885,-0.3740723,0.09973623
0.9779666,-0.3821034,0.02149064
0.7460406,-0.3610459,0.006069773
0.7465998,-0.2972237,-0.02204754
0.8557882,-0.1497135,-0.1704
0.8824265,-0.09234727,-0.2233731
0.9802351,-0.1813685,-0.166481
1.026739,-0.3348377,-0.0805426
1.032757,-0.4197878,-0.02080158
1.033297,-0.3574558,-0.04176016
0.9070642,-0.2171991,-0.0524254
0.8404752,-0.07872518,-0.05018683
0.844284,0.01303364,-0.06419817
0.881638,0.02060866,-0.07386125
0.9363124,-0.01833736,-0.07717694
0.9117704,-0.0248207,-0.07282462
0.9302982,-0.03763356,-0.08594407
0.9481739,-0.04019519,-0.09381923
0.9387008,0.002598069,-0.0982816
0.9734897,0.01912134,-0.1106854
0.9854826,0.05864094,-0.1133116
0.9994945,0.07865775,-0.1188751
1.007296,0.06204252,-0.1166632
1.029001,0.08551402,-0.1212477
1.075008,-0.01762649,-0.1186154
1.083959,-0.1472241,-0.1039018
1.065368,-0.1032328,-0.1226944
1.021585,-0.06672897,-0.1321304
1.056097,-0.02003467,-0.1256558
1.152825,0.08744127,-0.1305768
1.219216,0.03123723,-0.135927
1.282186,-0.07661049,-0.1761392
1.256825,-0.04861276,-0.2561798
1.223125,-0.1158815,-0.3248182
1.224651,-0.2638426,-0.354893
1.117873,-0.302441,-0.3529056
1.017545,-0.3466114,-0.2573141
0.9985637,-0.3748875,-0.07528809
1.061645,-0.3439313,-0.01364929
1.167414,-0.2915367,-0.06232903
1.14095,-0.1548392,-0.03209364
1.064604,-0.0713897,0.001645237
1.016559,-0.1087684,-0.04484169
0.9564795,-0.134231,-0.06605387
0.9299843,-0.1455828,-0.02988042
0.8703239,-0.1529646,0.01377514
0.8016205,-0.1504308,0.05667553
0.7670929,-0.1629379,0.08719854
0.710828,-0.173951,0.09544883
0.7035623,-0.1825457,0.1265689
0.7209727,-0.1974192,0.178276
0.738415,-0.1945821,0.1892929
0.8061981,-0.1923626,0.1843989
0.8437554,-0.2083171,0.212995
0.8706853,-0.1926079,0.2561854
0.9342254,-0.1347433,0.2775481
1.023578,-0.06971269,0.2064669
1.191992,-0.06884895,0.05264851
1.325108,-0.1513631,0.005207697
1.317876,-0.1875993,0.1514201
1.325964,-0.1341848,0.3288103
1.427308,-0.1013972,0.3516479
1.484342,-0.1796048,0.2421303
1.31559,-0.3129121,0.1432783
1.006131,-0.3811149,0.03886643
0.9071849,-0.3979069,-0.08391202
0.984114,-0.3679083,-0.1115039
0.9688377,-0.2673708,-0.1308273
0.9337958,-0.15108,-0.1939268
0.9462773,-0.1127308,-0.117759
0.9773386,-0.2305146,-0.02645137
1.029972,-0.3304799,-0.08413839
1.019326,-0.2758508,-0.0885201
0.9380554,-0.2117065,-0.05856728
0.8424519,-0.1291905,-0.08292598
0.7939178,-0.02145034,-0.06133993
0.849797,-0.008316937,-0.07140071
0.912968,-0.01663423,-0.09467057
0.9167587,0.00517201,-0.06235597
0.9209295,-0.009043607,-0.06205636
0.9374546,-0.02058203,-0.07517801
0.9571031,0.009685459,-0.08414244
0.9537409,0.04550595,-0.08621748
0.9324408,0.07210573,-0.07701237
0.9521814,0.07322607,-0.08467157
0.9767304,0.05429431,-0.07377422
1.002247,0.02161908,-0.06174852
1.04279,-0.06688709,-0.06203275
1.0434,-0.1648437,-0.07339382
1.066555,-0.1768237,-0.1330586
1.120481,-0.07363877,-0.196091
1.160812,0.03309625,-0.2236144
1.239267,-0.02364548,-0.2302634
1.286973,-0.1010664,-0.2622585
1.265575,-0.07152412,-0.3317372
1.24535,-0.1078682,-0.378167
1.192102,-0.1961212,-0.3993456
1.106165,-0.2871682,-0.3234556
1.05874,-0.4103188,-0.108746
1.074934,-0.4375784,0.03057767
1.153041,-0.357694,0.001034493
1.214568,-0.2047072,-0.04298026
1.187848,-0.03273559,-0.0342784
1.118818,-0.01043555,-0.0440651
1.003518,-0.07663181,-0.06147884
0.8538215,-0.09158359,-0.03007281
0.8081576,-0.09336845,0.00265397
0.8065819,-0.1229512,0.05171946
0.7258051,-0.1482236,0.1081509
0.6928572,-0.1583975,0.1033091
0.6980873,-0.186109,0.1161967
0.675327,-0.2080098,0.1504781
0.739546,-0.2191213,0.1595425
0.8144541,-0.2351445,0.1828371
0.8365242,-0.2232588,0.2021513
0.875713,-0.190564,0.2286347
0.9105605,-0.1308752,0.2564699
1.002024,-0.06795697,0.2054309
1.156754,-0.1031448,0.07107458
1.278978,-0.2312598,-0.04877358
1.329117,-0.3083521,-0.01894981
1.386271,-0.2058178,0.1249591
1.5656,-0.04469795,0.1957773
1.608332,-0.08731739,0.1565591
1.297771,-0.3089101,0.07809488
0.9639529,-0.4800558,0.02859601
0.9061903,-0.4643916,0.0447749
0.958771,-0.3503544,0.02316049
0.8905041,-0.255637,-0.1113123
0.8793535,-0.1079172,-0.2278304
0.9753502,-0.1018278,-0.1747493
0.9686954,-0.2499315,-0.043505
0.9664785,-0.2110147,0.002608039
0.9786543,-0.23967,-0.008248884
0.9511849,-0.332186,-0.03678061
0.9621549,-0.2243829,-0.04597116
0.9124742,-0.1183629,-0.03885594
0.8731479,0.04157123,-0.07837156
0.9143586,0.08476268,-0.08931345
0.9276101,-0.02331573,-0.08301712
0.9229984,0.02902848,-0.08585626
0.9110094,-0.008820375,-0.06146667
0.9203262,-0.0360608,-0.08053464
0.9406725,0.053021,-0.1080883
0.9598531,0.0288566,-0.1212651
0.9862085,0.06360688,-0.1202468
0.974339,0.07926418,-0.08348622
1.006054,0.01792841,-0.09030527
1.063387,-0.03783273,-0.09371957
1.063765,-0.1627244,-0.08978886
1.049839,-0.1695101,-0.1409913
1.04863,-0.05624099,-0.171513
1.135131,0.00304656,-0.1738577
1.257366,-0.02148893,-0.2002156
1.286799,-0.07770382,-0.2695879
1.291922,-0.06389082,-0.3217
1.325924,-0.1190081,-0.3548224
1.291677,-0.2568728,-0.415338
1.133614,-0.3245429,-0.3366777
0.9674607,-0.3621692,-0.1259606
0.9343928,-0.3542884,0.006034379
1.067867,-0.2893127,0.01515346
1.207968,-0.1706802,-0.06088513
1.192915,-0.06238138,-0.08560051
1.134793,-0.05169895,-0.05665765
1.070225,-0.0177518,-0.07432165
0.956446,-0.04515655,-0.06906229
0.8970463,-0.182435,-0.05427642
0.8904315,-0.2121203,-0.01071366
0.8698872,-0.2194852,0.08583114
0.8081932,-0.2467913,0.1183529
0.7337403,-0.1907946,0.1156612
0.7147862,-0.1601158,0.1210533
0.7278728,-0.1548471,0.1220143
0.7559319,-0.1494974,0.1330318
0.7972697,-0.1738849,0.141692
0.8222216,-0.1753789,0.1690365
0.8511068,-0.1813157,0.2099979
0.9064549,-0.1512639,0.2328807
1.00852,-0.07295105,0.1897434
1.183713,-0.0678623,0.06606767
1.322236,-0.1136746,0.001549689
1.302969,-0.1698867,0.1161623
1.277882,-0.1951174,0.2774043
1.340672,-0.139837,0.2802587
1.366438,-0.1161687,0.2271472
1.341676,-0.2092055,0.212734
1.195824,-0.3581295,0.08970963
0.9619532,-0.446927,-0.02825436
0.9113519,-0.4408081,-0.005728006
0.9465678,-0.3631983,-0.03836475
0.9195574,-0.2196844,-0.1357796
0.9604025,-0.1368277,-0.1077168
0.9900266,-0.1943735,-0.04286295
0.9815847,-0.2792641,-0.0480306
1.019362,-0.3146099,-0.02300768
0.9855279,-0.2739198,-0.04310061
0.8944039,-0.1649504,-0.1007045
0.8383832,-0.08050352,-0.06567016
0.8373112,-0.04693588,-0.08034379
0.919362,-0.04251894,-0.1203814
0.9673504,-0.0554977,-0.09955529
0.9395261,-0.03980999,-0.09842344
0.9258036,-0.02652462,-0.08098023
0.9263157,0.002928403,-0.09056664
0.9337693,0.07336525,-0.1162703
0.9397411,0.06906173,-0.09542983
0.9530432,0.04496525,-0.09242192
0.9830247,0.05341678,-0.08044614
1.003532,0.01839157,-0.06758802
1.010942,-0.03715762,-0.07011302
1.022243,-0.1199613,-0.06741572
1.06341,-0.1540764,-0.1058597
1.099311,-0.08946291,-0.1539462
1.144373,-0.0663003,-0.1852614
1.224723,-0.1034457,-0.230969
1.272672,-0.1395879,-0.2993425
1.324407,-0.1523281,-0.3715235
1.344254,-0.1632707,-0.4178924
1.259085,-0.2333845,-0.4422955
1.182396,-0.317483,-0.3846563
1.111761,-0.3553064,-0.1727287
1.03734,-0.3819565,0.04834351
1.102374,-0.3500574,0.04398433
1.203583,-0.1773378,-0.0488379
1.136241,-0.0143873,-0.002226393
1.036295,0.0002464043,-0.03775128
0.9642261,-0.04810914,-0.136664
0.8153773,-0.09239288,-0.07535669
0.7661938,-0.1244295,-0.01990291
0.7825443,-0.1601623,0.05969121
0.7019733,-0.1749259,0.1436768
0.6920199,-0.1610433,0.09803689
0.7277953,-0.188504,0.1154922
0.7503497,-0.2095507,0.1401451
0.805709,-0.2061832,0.1226379
0.8254869,-0.2175458,0.1584879
0.8568281,-0.2213908,0.1719552
0.8659437,-0.2261787,0.1985598
0.8612453,-0.1917226,0.1956935
0.9787759,-0.09350165,0.162516
1.101447,-0.01266051,0.1495752
1.169777,-0.07596473,0.0318095
1.272371,-0.2347894,-0.06005651
1.320596,-0.2607326,0.06048674
1.315134,-0.1582685,0.2252804
1.441021,-0.07655267,0.2209837
1.533074,-0.1264494,0.1507316
1.302429,-0.2974026,0.1380857
1.004294,-0.4194136,0.06073115
0.9407866,-0.4347462,-0.03925573
0.9592536,-0.3258821,-0.08323452
0.916808,-0.1751821,-0.1303829
0.9351316,-0.1216728,-0.1319844
1.015594,-0.1733158,-0.06047917
1.038056,-0.3143685,0.02965367
1.073953,-0.3633616,0.03917262
1.06698,-0.2983757,-0.02369532
0.927723,-0.2071013,-0.05290781
0.7973736,-0.04028121,-0.05739714
0.7511009,0.009029763,-0.05408793
0.8464658,-0.02600992,-0.07749917
0.9457283,0.02079413,-0.110252
0.8987596,0.01368217,-0.09107628
0.8987943,-0.02161527,-0.07727547
0.9269483,-0.02361263,-0.07369541
0.9136833,-0.01251208,-0.07472206
0.9496658,0.04146696,-0.1034097
0.9674022,0.1079466,-0.1203134
0.9628841,0.1225361,-0.111189
0.9766678,0.09275668,-0.08417868
1.004653,0.08039093,-0.06590907
1.033691,0.03002464,-0.0709814
1.032432,-0.05429195,-0.08906541
1.039656,-0.07645051,-0.1261843
1.072865,-0.06949637,-0.1609572
1.185761,-0.07698002,-0.1769892
1.327741,-0.122934,-0.2232036
1.318533,-0.1662663,-0.2989739
1.296694,-0.1566401,-0.3219827
1.355927,-0.1879637,-0.3713699
1.276644,-0.2870277,-0.4493555
1.104341,-0.3677751,-0.2960029
1.014889,-0.4071043,-0.02463936
1.009497,-0.4111092,0.05721571
1.093294,-0.3128847,0.01242118
1.158281,-0.1122955,-0.02791119
1.123952,0.0219883,-0.04260155
1.066179,0.01459387,-0.09303077
0.96082,-0.05188274,-0.1367004
0.8540698,-0.1241768,-0.06055949
0.8262886,-0.192943,0.02923623
0.8012159,-0.2405651,0.09479999
0.7501536,-0.2430402,0.1444062
0.7084101,-0.2125381,0.1329413
0.7061166,-0.1861931,0.1356936
0.7432086,-0.1837709,0.1459146
0.7998917,-0.1930796,0.1441973
0.8433737,-0.1905336,0.1508155
0.8360008,-0.182557,0.1564871
0.8356013,-0.1699141,0.2028383
0.8784924,-0.1308543,0.2637694
0.9577588,-0.0613896,0.2657216
1.098445,-0.0332242,0.1649313
1.241056,-0.1198398,0.06326756
1.292284,-0.1976081,0.1219871
1.305053,-0.1417407,0.2280287
1.442796,-0.05359561,0.2453804
1.58299,-0.04562481,0.2003007
1.458229,-0.1766426,0.1385242
1.259051,-0.3490139,0.1369495
1.073669,-0.3504608,0.09460029
0.7987225,-0.3115994,-0.06456196
0.8388145,-0.2635201,-0.1712598
1.033411,-0.04579421,-0.2282351
0.8967755,-0.01196402,-0.2135352
0.9165497,-0.2230549,-0.0871757
1.071166,-0.3386363,-0.05171156
1.002485,-0.3940056,-0.05644588
1.018197,-0.319103,-0.04771563
0.9731581,-0.1970219,-0.08864946
0.8706267,-0.1455667,-0.06518987
0.8752702,0.01308526,-0.06383694
0.8349546,0.02751586,-0.08926106
0.9177965,-0.06707114,-0.06395656
0.9532467,-0.01354205,-0.08395154
0.904552,-0.04908719,-0.0818917
0.9723064,-0.06281088,-0.07989609
0.974703,0.02994518,-0.112698
1.012096,0.0393035,-0.1041109
1.022528,0.06683037,-0.106766
0.987046,0.1015854,-0.1043298
1.049796,0.09668571,-0.09541556
1.022294,0.05286058,-0.08467993
1.021396,-0.06711636,-0.0593134
1.039942,-0.1300907,-0.09853399
1.001307,-0.1203105,-0.1477806
1.070811,-0.09925784,-0.1561623
1.140553,-0.08126713,-0.1616624
1.211833,-0.1137228,-0.1656847
1.274495,-0.1536363,-0.2086201
1.260778,-0.1831219,-0.2687222
1.265678,-0.197974,-0.3036524
1.216227,-0.2102769,-0.3598718
1.098008,-0.2540758,-0.3619446
0.9902662,-0.2764454,-0.1847814
0.9374446,-0.2916935,-0.0004940089
1.038766,-0.2756584,-0.01874342
1.203884,-0.1705226,-0.07025898
1.212303,-0.06934583,-0.02146263
1.115533,-0.06092831,-0.03324704
1.049839,-0.1141489,-0.08221675
0.9523073,-0.1166568,-0.06862966
0.8538076,-0.08908335,-0.05447864
0.8065326,-0.09678069,0.004231619
0.7666041,-0.09871913,0.06564615
0.7495075,-0.1295607,0.06007042
0.7323793,-0.1703761,0.07071391
0.7480222,-0.1923293,0.07598878
0.7969422,-0.2233192,0.1065372
0.8316832,-0.2216564,0.1501261
0.8723196,-0.2201096,0.1402871
0.8622394,-0.2091969,0.1694337
0.8731424,-0.154927,0.2013094
0.963179,-0.1095568,0.193568
1.06029,-0.09012708,0.1464566
1.186665,-0.1348,0.05859086
1.241092,-0.1821545,0.0602624
1.203694,-0.1627984,0.1297143
1.241865,-0.1570009,0.1942914
1.358531,-0.1788227,0.2269487
1.448539,-0.2470542,0.1566399
1.393928,-0.3655975,0.08237151
1.239024,-0.4183127,0.06923109
1.091329,-0.4176348,0.02838273
0.884853,-0.4221846,-0.02205393
0.728274,-0.3007881,-0.06219657
0.7548388,-0.08205044,-0.1530334
0.8714358,-0.04532548,-0.2053851
1.025549,-0.1940164,-0.1304643
1.093409,-0.336927,-0.05454193
1.056378,-0.392678,-0.03602454
1.008557,-0.305227,-0.04015208
0.8697066,-0.1658537,-0.05902502
0.8059837,-0.08376027,-0.06289255
0.9093651,-0.01966137,-0.08655948
0.9477069,-0.01293029,-0.1090026
0.9480582,-0.05776581,-0.08088192
0.9508383,-0.06646496,-0.07371898
0.9347741,-0.06625647,-0.09127681
0.9484338,-0.04649186,-0.09702942
0.945815,0.0390769,-0.09409244
0.9512618,0.1243232,-0.08037836
0.9570427,0.1261252,-0.07339919
0.9461266,0.1153982,-0.06080473
0.9683153,0.1601559,-0.044281
0.9881243,0.08922229,-0.04459952
1.003874,-0.07509251,-0.05787954
1.012503,-0.1216898,-0.09290465
1.038527,-0.1149149,-0.1235431
1.11855,-0.09607601,-0.1149165
1.168235,-0.07255898,-0.09691995
1.191765,-0.09948086,-0.1041517
1.224731,-0.1186197,-0.1339358
1.269597,-0.1438483,-0.230553
1.320781,-0.1669812,-0.3688118
1.216115,-0.2141761,-0.3564071
0.9891902,-0.3307347,-0.1900137
0.9277623,-0.3766006,-0.04450153
1.085393,-0.3465764,0.006676473
1.306225,-0.2838801,-0.03557818
1.393816,-0.1321046,-0.04602681
1.282833,-0.0003111109,-0.004281795
1.120375,-0.01276646,-0.02182536
0.9518088,-0.07339671,-0.03447599
0.7839685,-0.07357172,-0.04006237
0.7241963,-0.0836223,-0.04105258
0.7389909,-0.1162633,0.05014584
0.7301439,-0.140544,0.1312512
0.6989909,-0.1730392,0.1298613
0.6836242,-0.1590282,0.1065351
0.7297716,-0.1667282,0.1099257
0.8161374,-0.2246809,0.1298002
0.8623012,-0.2403656,0.1357325
0.8649701,-0.2438327,0.1733576
0.8654869,-0.1993288,0.2181282
0.891649,-0.09798434,0.2446227
0.9770061,-0.02975667,0.2170761
1.117435,-0.03761616,0.0636168
1.255707,-0.1284724,-0.03326381
1.310534,-0.1791355,0.07482996
1.315936,-0.1353192,0.2418364
1.398912,-0.1181373,0.2871254
1.49064,-0.2205073,0.2371366
1.451875,-0.3722254,0.212953
1.224745,-0.4033762,0.161248
0.8720494,-0.3492533,0.08735806
0.7558842,-0.3109971,0.04486369
0.8964181,-0.2466366,-0.03593152
0.9083137,-0.1326753,-0.1600662
0.9016185,-0.03595204,-0.2503543
0.9766474,-0.07486461,-0.2079706
0.9941453,-0.2264662,-0.1146911
1.055332,-0.3391738,-0.07433296
1.052927,-0.3356895,-0.01500964
0.9737543,-0.3072309,0.02257707
0.9785612,-0.3050189,0.008361867
0.9050094,-0.12688,-0.03897872
0.8197236,0.09795327,-0.09463341
0.8559961,0.05958604,-0.08772827
0.8993267,-0.009224021,-0.0853256
0.9338422,-0.005916817,-0.09663269
0.9252909,-0.08146377,-0.08847252
0.9151512,-0.07314465,-0.09427728
0.9538323,0.01299108,-0.08972469
0.9647935,0.02282614,-0.09255771
0.9609092,0.05723569,-0.09612438
0.9564351,0.1122936,-0.09322177
0.9611785,0.1018426,-0.1022159
0.9846523,0.04594478,-0.1081942
1.013495,-0.06123176,-0.1378149
1.043142,-0.1531051,-0.1524314
1.053233,-0.1615723,-0.1344748
1.108514,-0.08342624,-0.1345205
1.202431,0.009367059,-0.1507881
1.244953,-0.0249824,-0.1908955
1.261739,-0.07558586,-0.2323073
1.278684,-0.07315392,-0.2702563
1.274644,-0.1560471,-0.3408853
1.193431,-0.25167,-0.3806761
1.039978,-0.3069013,-0.3203997
0.9675936,-0.3620244,-0.1837511
1.054335,-0.3980438,-0.03985505
1.202457,-0.3906959,-0.01103584
1.280495,-0.2481439,-0.07087937
1.244902,-0.04327666,-0.04640095
1.142957,0.01691265,-0.02900453
1.034431,-0.05341638,-0.06657656
0.9150941,-0.08872911,-0.03397274
0.8040675,-0.07339489,-0.02327079
0.7820645,-0.1062206,0.0008874468
0.7622285,-0.1335724,0.06683944
0.6836729,-0.1450662,0.05994143
0.6744037,-0.1867262,0.09326274
0.7030767,-0.1944762,0.1463224
0.724358,-0.2063413,0.1488475
0.8016459,-0.2303053,0.1674306
0.8627489,-0.2323676,0.1669608
0.8727519,-0.2398119,0.1734893
0.8940925,-0.2051933,0.212149
0.9331377,-0.1291165,0.2326876
1.025887,-0.0587274,0.1595428
1.17411,-0.05757521,-0.01449325
1.257269,-0.145496,-0.08044971
1.257698,-0.1926685,0.06640354
1.309373,-0.1435442,0.2314834
1.452059,-0.1080016,0.2290379
1.52793,-0.2070556,0.1542668
1.338657,-0.3793108,0.08788734
1.028191,-0.4878253,-0.034187
0.9197117,-0.5082348,-0.07349683
0.9069893,-0.4225469,-0.05942388
0.864577,-0.2825318,-0.1581021
0.9015278,-0.1612336,-0.1964697
0.9180529,-0.1140124,-0.1535417
0.9339295,-0.1985928,-0.1420125
1.010237,-0.2840745,-0.1104408
1.003795,-0.29587,-0.09144051
0.9433639,-0.2731322,-0.07826648
0.8617309,-0.2072939,-0.04250869
0.8193533,-0.1646097,-0.04081667
0.8976017,-0.1108239,-0.06980149
0.9495934,-0.02042088,-0.09597511
0.950311,-0.01396015,-0.09878296
0.9625651,-0.04531002,-0.09987069
0.9628824,-0.02710253,-0.1126729
0.9661485,-0.009122289,-0.1142801
0.973648,-0.005061489,-0.1188873
0.9769678,0.00573407,-0.1207227
0.9717528,0.005944722,-0.1120795
0.9777117,0.01160356,-0.1079236
0.9991834,0.01915231,-0.1031928
1.020515,-0.006411515,-0.1082532
1.048579,-0.03645153,-0.1166209
1.059708,-0.0648522,-0.1114736
1.079589,-0.07540027,-0.1124174
1.112256,-0.06753036,-0.1195822
1.107376,-0.08227776,-0.1212776
1.107336,-0.07930223,-0.1185601
1.146263,-0.09419258,-0.1039315
1.181065,-0.1296024,-0.1104137
1.185112,-0.1206205,-0.220389
1.214116,-0.1563418,-0.4180043
1.248227,-0.212053,-0.509397
1.152479,-0.2317385,-0.3842172
1.019256,-0.3345909,-0.1542666
1.041526,-0.4484367,0.01891265
1.179541,-0.38313,-0.009801951
1.298881,-0.2245119,-0.09553211
1.293122,-0.0992638,-0.02994381
1.182389,-0.02359798,-0.03775617
1.051394,-0.08556384,-0.08984935
0.8753553,-0.1465918,-0.01965152
0.7445894,-0.08852453,-0.0103136
0.7316474,-0.1072445,0.0466194
0.7016671,-0.12701,0.1285873
0.6818689,-0.1013507,0.08447778
0.7084692,-0.1473077,0.09943756
0.7200398,-0.1568538,0.09846482
0.7766816,-0.1694806,0.086132
0.8339488,-0.2139561,0.1341986
0.8384994,-0.2243073,0.1289203
0.844386,-0.2395292,0.1703294
0.8625204,-0.2109654,0.2145681
0.9459435,-0.1410507,0.2027562
1.109525,-0.0823724,0.1567837
1.242912,-0.1032249,0.04220941
1.262862,-0.1918606,0.02634998
1.268883,-0.1965547,0.102503
1.36161,-0.1458679,0.1513295
1.51302,-0.1197873,0.1762278
1.63918,-0.2019087,0.14852
1.434318,-0.3854858,0.09461997
0.9912172,-0.4650783,0.01230352
0.8403271,-0.4613835,-0.03957546
0.8608071,-0.3997941,-0.0317927
0.8631854,-0.2301807,-0.1272428
0.9498568,-0.09644581,-0.2437083
0.9891061,-0.08860445,-0.176668
1.006214,-0.2406013,-0.06625338
1.040651,-0.4117046,-0.06264604
1.045798,-0.392972,-0.06428686
0.986236,-0.28275,-0.05735483
0.8210044,-0.1649119,-0.07014038
0.7727014,-0.03769297,-0.06340694
0.8506049,0.01742142,-0.09338978
0.8960546,0.001647698,-0.1183671
0.9263351,-0.02376405,-0.08473325
0.9185389,-0.04369267,-0.06290619
0.9247653,-0.0394649,-0.05807712
0.9408038,0.01968424,-0.07341558
0.9434436,0.09965765,-0.08338685
0.944185,0.1389316,-0.07354738
0.9232344,0.1192621,-0.07806054
0.982362,0.06364902,-0.08252745
1.070489,-0.02178392,-0.1099532
1.083375,-0.1384746,-0.1404923
1.031188,-0.1672745,-0.1364908
0.9882011,-0.03335428,-0.1375261
1.121086,0.06935872,-0.1578562
1.317036,-0.04769088,-0.1965961
1.376858,-0.1702448,-0.2532295
1.365248,-0.09217988,-0.3306634
1.362605,-0.08339774,-0.4188052
1.333307,-0.2081261,-0.4781948
1.231229,-0.265711,-0.474361
1.107238,-0.3505519,-0.3187398
1.015772,-0.4635177,-0.006490566
1.105866,-0.4525098,0.1485962
1.323553,-0.2652912,0.02778487
1.29578,-0.004397515,-0.02920441
1.160745,0.07824292,-0.03052829
1.061569,-0.002806843,-0.1086839
0.8563372,-0.04800932,-0.06506012
0.8014422,-0.05075712,-0.008918247
0.8215882,-0.0952469,-0.008584
0.7091894,-0.1597478,0.1009675
0.6768908,-0.1715828,0.154519
0.6908456,-0.1575555,0.1063753
0.6765629,-0.1438461,0.1011856
0.6836094,-0.149775,0.1005915
0.7302669,-0.1877495,0.1145732
0.8141989,-0.2384975,0.1770735
0.8429409,-0.2788876,0.2180626
0.8586089,-0.2416503,0.2223628
0.9036518,-0.1697995,0.2563856
0.9600046,-0.09166842,0.2734349
1.093939,-0.02792863,0.1582699
1.269256,-0.08718155,0.02989064
1.321948,-0.1691206,0.07073395
1.286062,-0.1953465,0.2081903
1.380607,-0.1772577,0.2867072
1.496984,-0.1459394,0.2485157
1.506062,-0.2740804,0.1690072
1.42176,-0.4312834,0.1421711
1.10483,-0.4385486,0.07583812
0.8078087,-0.4461868,-0.01792804
0.8242596,-0.4044728,-0.02221741
0.9225263,-0.2099454,-0.1130911
0.9396533,-0.05390219,-0.2671118
0.9629097,-0.09198823,-0.2012871
1.033981,-0.2654887,-0.06432727
1.067459,-0.4100019,-0.04043066
1.04904,-0.4046697,-0.03554809
0.9850877,-0.2998517,-0.04770396
0.8620718,-0.1995981,-0.05036997
0.8046952,-0.08550153,-0.04502764
0.8372836,-0.0006714567,-0.09460352
0.8919717,-0.01462971,-0.107167
0.928601,-0.03422949,-0.09256925
0.9276812,-0.05280858,-0.09938683
0.924264,-0.06622113,-0.09053408
0.9292554,-0.002003742,-0.1083499
0.9537856,0.06490015,-0.1150031
0.9646726,0.09165406,-0.08530787
0.9719172,0.08754058,-0.06349922
1.007648,0.06797663,-0.0541011
1.023058,0.03159997,-0.065389
1.030567,-0.06575419,-0.0620852
1.029804,-0.1174221,-0.07501452
1.050421,-0.08048361,-0.1182516
1.126311,-0.01975952,-0.1559474
1.198658,0.0380822,-0.2094652
1.228568,-0.01800576,-0.2390811
1.234924,-0.116707,-0.2630189
1.299237,-0.1191732,-0.2773961
1.31882,-0.1543237,-0.249678
1.184807,-0.2686027,-0.2546873
1.034094,-0.3568247,-0.2015269
0.9784515,-0.3673224,-0.05189905
1.111402,-0.3200928,0.01750347
1.278853,-0.246673,-0.02153151
1.249626,-0.08737395,-0.05778628
1.14033,0.01779511,-0.04281442
0.9858146,-0.06126252,-0.0526661
0.8229871,-0.0805473,-0.07335616
0.7749379,-0.06863231,-0.02940432
0.765505,-0.1331171,0.001095247
0.7637718,-0.1328363,0.03220933
0.7594673,-0.1608826,0.08768297
0.739232,-0.1821912,0.08561916
0.7537124,-0.143895,0.07006757
0.7679785,-0.1845338,0.08021957
0.7812441,-0.2001685,0.08856169
0.8155781,-0.210935,0.113454
0.8387789,-0.2636793,0.1681469
0.8453062,-0.235646,0.2065543
0.8508317,-0.1904268,0.2353429
0.8980555,-0.1348548,0.2756727
1.017031,-0.05535095,0.2017529
1.17752,-0.04925374,0.06309371
1.26241,-0.1139112,0.04881077
1.249462,-0.1857437,0.1092828
1.307195,-0.1886199,0.2098362
1.44394,-0.1672471,0.3070062
1.510795,-0.2231928,0.2181519
1.359672,-0.3362696,0.03401216
1.066921,-0.451746,-0.01679298
0.9472567,-0.4660509,0.01276273
0.8759565,-0.3977218,-0.0007667758
0.7850611,-0.3251984,-0.08488967
0.9006161,-0.1622146,-0.1897467
0.970719,-0.08308464,-0.1868713
0.9753215,-0.2405908,-0.09359073
1.060748,-0.3591957,-0.02722682
1.045574,-0.3584087,-0.01912328
0.9849722,-0.2793569,-0.04022041
0.8770896,-0.1204645,-0.02987819
0.7898875,-0.0338558,-0.02570206
0.8536939,0.007410139,-0.06428868
0.8742484,0.03805775,-0.08990777
0.8787319,0.00655869,-0.09261021
0.9127698,-0.007858787,-0.05657988
0.9177192,-0.01257228,-0.02367675
0.9532047,0.003250835,-0.04726884
0.9506607,0.07461213,-0.05964562
0.9363853,0.1272654,-0.05589849
0.9684798,0.1348994,-0.07737179
0.9958174,0.08395939,-0.09645631
1.034741,-0.003007542,-0.08870829
1.048301,-0.07168538,-0.08029951
1.020159,-0.1204834,-0.09066306
1.010282,-0.1164322,-0.1053285
1.035504,-0.03037453,-0.1574294
1.129233,0.05156466,-0.2218618
1.278472,0.0001437084,-0.2362768
1.362293,-0.1021721,-0.2812933
1.380587,-0.1113962,-0.3394325
1.406564,-0.1230646,-0.3224854
1.32079,-0.2147354,-0.354337
1.11636,-0.335587,-0.3965529
0.9972885,-0.4010831,-0.2165038
1.000526,-0.410199,0.03328816
1.111679,-0.4351512,0.07029918
1.25906,-0.3031684,0.001799551
1.259295,-0.03046299,-0.0007263173
1.167844,0.05597256,-0.0196272
1.064843,-0.01010003,-0.09533657
0.9026287,-0.07147721,-0.09909034
0.7919076,-0.1355041,-0.01970069
0.7830448,-0.2001069,0.07847133
0.7686594,-0.2116928,0.1635144
0.7293638,-0.1658012,0.1608314
0.6897201,-0.1445074,0.1184537
0.6762783,-0.1221917,0.1172065
0.7216175,-0.1415926,0.1315869
0.7787875,-0.2176551,0.1662099
0.8124661,-0.2222558,0.1982006
0.8674494,-0.2062414,0.2205382
0.9337125,-0.1518108,0.2561434
0.9932901,-0.05920206,0.2420919
1.124539,-0.06790422,0.1365055
1.273513,-0.1466299,0.03673805
1.272593,-0.2269408,0.1000979
1.214696,-0.2313116,0.2151569
1.270402,-0.1694073,0.1985102
1.429105,-0.1666732,0.1847599
1.568144,-0.2573688,0.1868025
1.40872,-0.39164,0.113189
1.021908,-0.4287966,0.05182974
0.8454393,-0.3868709,0.006435858
0.8670715,-0.3627179,-0.03004752
0.9255738,-0.2533475,-0.09763864
0.9725217,-0.1072255,-0.2120987
0.9441711,-0.08981507,-0.2134062
0.9749766,-0.2022074,-0.1185406
1.036392,-0.358617,-0.03810583
1.023562,-0.4151847,-0.003856313
0.9558592,-0.3323074,-0.02430344
0.8214482,-0.2167416,-0.03072933
0.7814048,-0.1094725,-0.05296133
0.8494076,-0.02337701,-0.112799
0.881743,0.004848338,-0.1180006
0.9013121,-0.004271421,-0.0935599
0.9187469,-0.02426414,-0.09766467
0.9568317,-0.03251963,-0.1131688
0.992159,0.02042562,-0.1227602
0.9816374,0.105235,-0.1097163
0.9702132,0.1424681,-0.0827036
0.9715223,0.1350176,-0.07873645
1.006478,0.106459,-0.09034949
1.058939,0.03653762,-0.09853323
1.064912,-0.0485369,-0.1068435
1.027093,-0.08760423,-0.1072612
0.9998271,-0.08247231,-0.1116679
1.002726,-0.01825629,-0.120979
1.033582,0.06263701,-0.1212684
1.150401,0.01795545,-0.1358006
1.292135,-0.0551284,-0.1786526
1.295494,-0.05632984,-0.242602
1.262355,-0.1197421,-0.3071994
1.303102,-0.187393,-0.3800246
1.2157,-0.2367114,-0.4371324
1.017382,-0.3371387,-0.3178828
0.9665613,-0.3603673,-0.071235
1.068258,-0.3693129,0.004926714
1.223669,-0.3656757,-0.05982821
1.291565,-0.2080446,-0.0585989
1.197502,-0.07320199,-0.04232488
1.068031,-0.04290135,-0.06959001
0.9426747,-0.06445631,-0.0774347
0.8501511,-0.1047828,-0.04273532
0.8253448,-0.1142294,0.00960808
0.8043467,-0.1677455,0.06319473
0.7592216,-0.1792746,0.1060272
0.6988705,-0.1486544,0.1126999
0.6708009,-0.185561,0.1144735
0.679205,-0.1757501,0.1392919
0.7060437,-0.1746029,0.1471681
0.7738526,-0.2017906,0.159135
0.8427715,-0.1884628,0.2048172
0.8890164,-0.1950255,0.2395209
0.944169,-0.1375935,0.2516329
1.032938,-0.04651723,0.2354714
1.167371,-0.04559171,0.1432877
1.280885,-0.1106561,0.03947093
1.264907,-0.1766092,0.07096656
1.247793,-0.175494,0.2056349
1.380118,-0.1851547,0.277532
1.478498,-0.2675096,0.2262899
1.456936,-0.3783595,0.1287057
1.275515,-0.4632508,0.06609114
0.9264497,-0.4373953,0.01080438
0.8064028,-0.3907591,-0.04486846
0.9281921,-0.3431143,-0.09599687
0.9425451,-0.1843356,-0.2003986
0.9337834,-0.1031566,-0.2273604
0.9811015,-0.2005685,-0.1193533
0.9990167,-0.315919,-0.05305626
1.002963,-0.3843214,-0.02826555
0.9718076,-0.3310709,-0.03496409
0.8858829,-0.202122,-0.06219344
0.8250629,-0.131393,-0.04375012
0.8238015,-0.04914262,-0.06463114
0.8702363,-0.003735938,-0.08260635
0.9429719,-0.03187584,-0.0668503
0.93803,-0.01271172,-0.08145224
0.9183589,-0.02433028,-0.07333806
0.969237,-0.02452734,-0.08980316
0.975004,0.05679845,-0.1193917
0.9683689,0.08290416,-0.1003636
0.9781933,0.09054314,-0.1024977
0.9694684,0.08253448,-0.1081367
0.9993765,0.03587711,-0.1018666
1.032303,-0.02147739,-0.1003058
1.045673,-0.1166733,-0.09153009
1.032602,-0.1117773,-0.09851744
1.014041,-0.06036809,-0.1059471
1.055644,-0.07596218,-0.1065005
1.097783,-0.05762957,-0.1096233
1.154252,-0.07877794,-0.1175915
1.230806,-0.1153208,-0.1566485
1.22862,-0.1037803,-0.2118438
1.25075,-0.1671534,-0.2715989
1.351264,-0.2523967,-0.3651749
1.329796,-0.2679466,-0.4106939
1.154095,-0.2602786,-0.3069003
1.003616,-0.2659787,-0.1667534
0.9964271,-0.2563756,-0.06941994
1.126007,-0.221478,-0.005864404
1.22007,-0.1748198,-0.05167597
1.171222,-0.1210755,-0.09541001
1.011639,-0.1451371,-0.05964616
0.816992,-0.1969464,-0.0747031
0.7966498,-0.1799895,-0.06867477
0.8371112,-0.2005108,0.01588395
0.7445499,-0.2315309,0.07362992
0.7483935,-0.2014664,0.0714912
0.7716346,-0.1635891,0.05627684
0.692906,-0.1232881,0.09311021
0.7184479,-0.1324854,0.1164792
0.7607791,-0.1792217,0.1229866
0.7684751,-0.1942918,0.1829426
0.8075717,-0.2085908,0.1951738
0.8182469,-0.1925993,0.1942823
0.884062,-0.137167,0.2428063
1.009716,-0.1018444,0.232615
1.14755,-0.1037314,0.153685
1.276263,-0.1403345,0.03985782
1.291784,-0.1571593,0.008730734
1.339665,-0.1522166,0.1394474
1.511437,-0.1620628,0.2325756
1.609432,-0.1976557,0.1971675
1.521477,-0.335947,0.1531468
1.224685,-0.5111674,0.09147167
0.9161736,-0.5295902,-0.002464985
0.8062602,-0.3700692,-0.0002417382
0.7654216,-0.1792129,-0.01874246
0.7879677,-0.1171046,-0.1915232
0.9467576,-0.1599147,-0.2413325
1.038851,-0.1960624,-0.1400105
1.031802,-0.2970974,-0.0666052
1.055753,-0.4413879,0.01042493
0.9997977,-0.3791543,-0.0007962679
0.8689302,-0.2000409,-0.04464962
0.8324392,-0.1177496,-0.025319
0.8666526,-0.01322102,-0.07176839
0.8913245,0.03508533,-0.1018826
0.8780627,-0.01251136,-0.07683915
0.8771496,0.003646168,-0.08849319
0.904353,-0.0265941,-0.1024935
0.9197292,-0.03410376,-0.127365
0.9702584,0.03617342,-0.1471466
0.9887974,0.05552707,-0.134779
0.9535805,0.09470859,-0.12383
0.9651451,0.08962904,-0.1157595
1.013263,0.03423425,-0.118087
1.07858,-0.02383083,-0.1194292
1.088424,-0.1399467,-0.09761761
1.050744,-0.1766714,-0.08084024
1.073906,-0.109611,-0.103419
1.133376,-0.02609643,-0.1491397
1.20361,-0.01142563,-0.1773345
1.239857,-0.1059016,-0.2019911
1.253201,-0.1650146,-0.2534422
1.291097,-0.1658652,-0.3101344
1.258928,-0.186225,-0.362171
1.167979,-0.2646272,-0.3927119
1.042572,-0.3273132,-0.2813241
0.9583871,-0.3095235,-0.06663851
1.104335,-0.313123,-0.006186412
1.275555,-0.2580236,-0.0639391
1.26327,-0.1207428,-0.05338716
1.177075,-0.06739499,-0.04105638
1.027272,-0.08428469,-0.06288455
0.86951,-0.1014831,-0.06190287
0.7657498,-0.1002361,-0.0408584
0.704227,-0.1330524,0.0003993148
0.7108353,-0.1804787,0.0517934
0.7036413,-0.1809709,0.08062412
0.6869387,-0.2048043,0.07352583
0.7108595,-0.2294156,0.0637226
0.7222849,-0.2355689,0.08176331
0.7687549,-0.244611,0.1355814
0.8543218,-0.2395951,0.2053937
0.9011038,-0.2428212,0.2192421
0.9362034,-0.1941598,0.2202853
1.020055,-0.1110871,0.2494532
1.148899,-0.0888699,0.1550314
1.26094,-0.133654,-0.00603379
1.295117,-0.2079953,-0.02392155
1.296521,-0.2181033,0.03451126
1.408985,-0.1870051,0.1125605
1.569393,-0.1823864,0.2094569
1.546218,-0.2007362,0.1945957
1.322087,-0.2833219,0.1374155
1.023848,-0.3598804,0.1269276
0.8708696,-0.3405765,0.04723644
0.9598117,-0.3000194,-0.0634748
0.9999593,-0.2665171,-0.1982879
0.9471746,-0.2020026,-0.3175154
0.9992054,-0.1934095,-0.1904742
1.026644,-0.2503295,-0.04118068
1.027587,-0.2896711,-0.0591086
1.070315,-0.3607018,-0.0287558
1.013821,-0.3220567,-0.04181748
0.9224801,-0.1350752,-0.08146452
0.8384993,-0.04208983,-0.04788287
0.7788117,0.009876348,-0.08131906
0.8541155,-0.001684153,-0.09720644
0.9172178,-0.0816866,-0.08698631
0.9074374,-0.06638602,-0.1050572
0.9017305,-0.05657128,-0.09600545
0.8824041,0.01563887,-0.1128494
0.8944418,0.1229201,-0.120881
0.9201989,0.1115234,-0.108447
0.9527059,0.1264341,-0.09467588
1.009333,0.0985788,-0.06665954
1.031693,-0.006274061,-0.07267925
1.062867,-0.1004711,-0.08371513
1.116154,-0.178512,-0.1129922
1.14068,-0.1038397,-0.1585726
1.163367,-0.01630916,-0.1522874
1.180462,-0.07612305,-0.1617961
1.197773,-0.09436522,-0.2165154
1.250454,-0.07376391,-0.2636303
1.265764,-0.1533,-0.3503691
1.213642,-0.2799765,-0.4332296
1.140586,-0.3846544,-0.2981151
1.072536,-0.4349061,-0.03519305
1.154064,-0.4028754,0.04676732
1.333009,-0.3022795,-0.02677512
1.345014,-0.1331093,-0.07318074
1.242108,-0.03638095,-0.05036004
1.082298,-0.09818274,-0.06643528
0.849678,-0.1206986,-0.1152585
0.7113648,-0.1135447,-0.03284521
0.6871143,-0.1545226,0.08613657
0.6919137,-0.148222,0.1465867
0.6820612,-0.1514099,0.1724673
0.6515107,-0.16094,0.1316606
0.6453116,-0.133786,0.1158954
0.6552825,-0.1464157,0.1153992
0.7148646,-0.1768576,0.1094967
0.8040227,-0.2164688,0.1532531
0.8532604,-0.2421996,0.1789084
0.9054387,-0.1929501,0.2155582
0.9679826,-0.1199289,0.2537179
1.036987,-0.04354717,0.2267797
1.146771,-0.02342765,0.1402072
1.274048,-0.1193957,0.03867484
1.313758,-0.1893569,0.1043013
1.293121,-0.1665638,0.2771141
1.377243,-0.1565478,0.3258675
1.452132,-0.205307,0.2528259
1.367874,-0.289135,0.1187348
1.176997,-0.3865169,0.002330217
0.9482874,-0.4352516,-0.0845795
0.8740396,-0.4005062,-0.1168793
0.9169489,-0.3343681,-0.1092119
0.8753922,-0.2278282,-0.1900894
0.8839338,-0.1576063,-0.1507021
0.9411756,-0.2357404,-0.03142373
0.9670811,-0.3384323,-0.08827627
1.039226,-0.3953849,-0.08486673
0.9996412,-0.3582814,-0.06244426
0.8593413,-0.1955496,-0.09582865
0.8051795,-0.09299085,-0.05284431
0.8291749,-0.05784981,-0.0910488
0.9313843,-0.02601901,-0.1186944
0.9871063,-0.0374164,-0.0900238
0.9706265,-0.0253887,-0.1049828
0.975397,0.02087006,-0.07832081
0.9395511,0.08005276,-0.07626139
0.9300099,0.1081016,-0.07379233
0.9450637,0.08378325,-0.05192082
0.9495744,0.09470229,-0.06628802
0.9806825,0.110659,-0.05315384
0.966789,0.09662377,-0.05533564
0.9832362,0.03314415,-0.06302358
1.060467,-0.1291086,-0.05998683
1.111504,-0.2351183,-0.08474326
1.108167,-0.1481509,-0.1132626
1.082558,-0.009475603,-0.151232
1.130231,0.01549336,-0.1595567
1.170892,-0.07554127,-0.1888339
1.194284,-0.2024833,-0.2803069
1.268127,-0.2401714,-0.3043854
1.268005,-0.2393683,-0.2877285
1.135254,-0.3515409,-0.2703055
0.9775738,-0.425925,-0.1782083
1.017321,-0.3952801,-0.03931207
1.141467,-0.3784032,0.0840409
1.169839,-0.2825473,0.05447879
1.281375,-0.09189262,-0.07140716
1.274672,-0.01119553,-0.06078137
1.093091,-0.09022019,-0.09498993
0.9749527,-0.1168337,-0.1746026
0.8160733,-0.07706523,-0.07698423
0.7611553,-0.1061098,0.005790495
0.7635602,-0.1170337,0.07945827
0.6755466,-0.1414999,0.1567294
0.6939935,-0.1935159,0.133192
0.6705344,-0.1730436,0.1612571
0.6707733,-0.1703847,0.1614332
0.7701561,-0.1792633,0.148463
0.7658863,-0.1673521,0.2036659
0.8248299,-0.1655694,0.2170233
0.8969992,-0.1174028,0.2702877
0.9370664,-0.0546401,0.2717616
1.0698,-0.04348254,0.1557984
1.182941,-0.1001792,0.06614671
1.288164,-0.180165,0.05351613
1.360831,-0.2076072,0.1557489
1.476381,-0.2004856,0.2010235
1.605372,-0.2345953,0.1163422
1.385283,-0.3427274,0.06953482
1.042879,-0.423061,0.09167675
0.9614723,-0.4054995,0.1184914
0.9672004,-0.3505453,0.06963273
0.9402395,-0.2510576,-0.01335423
1.387586,-0.1892898,0.08656125
1.356511,-0.2609834,0.1623134
1.351326,-0.208802,0.2959213
1.610186,-0.1425547,0.2928273
1.753349,-0.2525148,0.2372435
1.427255,-0.4358741,0.1680944
0.8953329,-0.4947438,0.04099558
0.6881868,-0.4213418,0.02793485
0.800537,-0.2487464,0.01229075
0.9669568,-0.118939,-0.1030132
1.132837,-0.09000719,-0.0852245
1.081799,-0.1660652,-0.008890293
0.9531208,-0.3028354,0.0238502
1.018686,-0.2801098,0.003864471
0.9570468,-0.2274601,-0.07848913
0.820899,-0.2111444,-0.06726201
0.7658537,-0.06515689,-0.05111122
0.6746987,-0.001924126,-0.09362911
0.8063927,-0.07057118,-0.1005718
0.9876314,-0.1018885,-0.1382261
0.9419685,-0.08451668,-0.1421468
0.9614585,-0.04837966,-0.1198657
0.993774,0.01420194,-0.131124
0.950703,0.141312,-0.08740464
0.9728719,0.1661764,-0.059355
0.9675834,0.1307031,-0.06130788
0.9430493,0.2008494,-0.03578988
0.9603008,0.1675257,-0.0115643
0.9804848,0.04694862,0.01258566
1.053929,-0.05393033,-0.01159092
1.131039,-0.1295335,-0.09730138
1.118996,-0.06738899,-0.1692994
1.111873,-0.04276049,-0.1592373
1.15938,-0.1154772,-0.1454391
1.207572,-0.1405969,-0.2338969
1.258836,-0.1880165,-0.3054369
1.277256,-0.2583244,-0.3598223
1.274124,-0.3715775,-0.4280162
1.297147,-0.468151,-0.3044117
1.278904,-0.3954697,-0.07262628
1.265282,-0.2917212,0.0114532
1.285557,-0.1587797,0.005388726
1.237809,-8.061121e-05,0.02009124
1.115913,-0.02865862,0.03450825
0.9266261,-0.09490769,0.02872728
0.7969549,-0.09014818,0.02515077
0.7582564,-0.1101028,0.03382797
0.6465155,-0.1010773,0.04471012
0.6104195,-0.1265908,0.07451416
0.653281,-0.1864068,0.1211841
0.5935764,-0.1935079,0.1622758
0.6006381,-0.1927992,0.1920253
0.6867233,-0.1801243,0.1995382
0.7522917,-0.1804539,0.2138259
0.8224559,-0.1761957,0.255553
0.8402453,-0.1208233,0.2851359
0.8721697,-0.05042009,0.2979418
0.9542251,0.02263247,0.2834664
1.094394,-0.01329579,0.1998126
1.293578,-0.1609312,0.1195467
1.322648,-0.2437166,0.1833898
1.3355,-0.2003586,0.3424184
1.605599,-0.1404355,0.3996352
1.731637,-0.2584157,0.2766288
1.409597,-0.4610906,0.07512692
0.9620224,-0.5313534,0.002173755
0.772245,-0.4351058,0.04608504
0.8277294,-0.2321001,-0.01628346
0.9345902,-0.1344264,-0.1050023
1.044203,-0.1245653,-0.07380586
1.058313,-0.128775,-0.03508921
1.003698,-0.2506741,-0.02265948
1.011131,-0.3353219,-0.0001671963
0.950372,-0.3088764,-0.008722646
0.8160718,-0.1866399,-0.02784031
0.7447858,-0.03283922,-0.02810016
0.7935133,-0.04801467,-0.06636751
0.9011058,-0.09144119,-0.1091248
0.8850778,-0.06977305,-0.09361326
0.884465,-0.04817742,-0.09637727
0.9734149,0.0171306,-0.1342013
0.9755156,0.06534392,-0.1371872
0.9759681,0.1210903,-0.08707531
0.9611229,0.2063768,-0.04307218
0.9241035,0.2080724,-0.0783203
0.9500637,0.118172,-0.1262046
0.9854792,-0.02377563,-0.1179927
1.102101,-0.2097242,-0.1043072
1.178283,-0.2947032,-0.0990082
1.111797,-0.2125165,-0.09925501
1.104514,-0.1604739,-0.1178548
1.163424,-0.08440195,-0.1276375
1.215448,0.03130578,-0.1296317
1.226542,-0.01268179,-0.1464165
1.216984,-0.05435763,-0.1917422
1.250283,-0.1141103,-0.2807454
1.271435,-0.2986375,-0.3571803
1.258175,-0.3834367,-0.3627851
1.218217,-0.4263055,-0.28697
1.185981,-0.4475097,-0.1149231
1.199565,-0.3351377,0.05316795
1.221051,-0.204984,0.0831804
1.221038,-0.0432054,0.05158512
1.154706,0.0474496,0.0658271
1.022296,-0.04880456,0.04870893
0.8629899,-0.07553696,0.01027098
0.6892689,-0.03360655,0.06714855
0.5905289,-0.0624717,0.1188094
0.6265373,-0.0701463,0.09017196
0.654447,-0.09576569,0.1006469
0.6269978,-0.1799298,0.1714465
0.6976394,-0.2636038,0.2387801
0.7816561,-0.275957,0.2543719
0.8007725,-0.2014225,0.2362955
0.8646832,-0.1657982,0.2515384
0.8712925,-0.1444926,0.2574911
0.86528,-0.07091692,0.2370396
1.028217,-0.007070722,0.2293605
1.185101,-0.005149482,0.197892
1.210551,-0.1150072,0.1592529
1.253991,-0.2385164,0.167226
1.349484,-0.268322,0.2777533
1.466288,-0.2097932,0.4074296
1.64331,-0.1572895,0.3054811
1.632442,-0.2660896,0.1474626
1.222084,-0.3711006,0.1433251
0.797715,-0.3267461,0.03133893
0.7588261,-0.2514613,-0.07901805
0.9473644,-0.1388808,-0.04645177
0.9865246,-0.08733314,-0.0916039
0.9495088,-0.1961282,-0.03509441
1.011691,-0.3060771,0.1070333
0.9938038,-0.3215781,0.05510998
0.9384339,-0.2905284,0.02600289
0.8643943,-0.2395828,0.05750905
0.7569961,-0.1560018,-0.006636073
0.8037102,-0.1197611,-0.0553112
0.8460397,-0.1458649,-0.09077436
0.8387716,-0.1152095,-0.1045356
0.876532,-0.05145016,-0.08590597
0.9112414,0.01953577,-0.1566167
1.007358,0.1075998,-0.2077661
1.02718,0.1207942,-0.1421618
0.9753252,0.1103766,-0.06964204
1.008964,0.1427592,-0.03813153
1.024219,0.1148933,-0.05081344
1.039113,0.04142842,-0.05738675
1.059598,-0.04219907,-0.0417021
1.042117,-0.1452386,-0.05237832
1.058529,-0.1537266,-0.0616513
1.083613,-0.08974894,-0.08248227
1.120709,-0.05674814,-0.1107367
1.181829,-0.04618743,-0.0983843
1.208056,-0.04636553,-0.1052251
1.215013,-0.05380756,-0.1661379
1.249325,-0.1513448,-0.2373889
1.29094,-0.3216891,-0.2947594
1.247939,-0.4129779,-0.305035
1.159054,-0.4239403,-0.1716884
1.155987,-0.3837004,0.05310822
1.211518,-0.2859156,0.1039444
1.251336,-0.09424911,0.03144677
1.215519,0.134105,0.05707725
1.12668,0.1742971,0.05623922
1.05256,0.05189435,0.006885329
0.9287478,-0.03097794,0.02009712
0.8016272,-0.07351972,0.02211183
0.7350726,-0.1481019,0.0434467
0.6407739,-0.2165346,0.1198021
0.5446631,-0.2134717,0.1901912
0.518826,-0.1861742,0.2304598
0.5813852,-0.1809691,0.2194845
0.6874794,-0.17695,0.2204389
0.7723102,-0.1783951,0.2430541
0.843828,-0.1648801,0.2519656
0.869302,-0.1080214,0.2953686
0.8713255,-0.05790454,0.3266877
0.9626015,-0.0743504,0.2925849
1.21712,-0.1231875,0.2113233
1.476126,-0.1679253,0.135945
1.46205,-0.2141335,0.1831946
1.468793,-0.2016908,0.3406457
1.724307,-0.1698268,0.4473123
1.745953,-0.2302123,0.3879079
1.436433,-0.3563535,0.1920794
1.03481,-0.4821549,0.02109507
0.7527809,-0.4539122,-0.01843496
0.8776819,-0.2766987,-0.01672611
1.015582,-0.1391133,-0.08153232
0.9381542,-0.0488762,-0.09335872
1.00903,-0.1576614,-0.008476347
1.030327,-0.3614211,0.01386046
0.9797091,-0.3312053,0.01637211
0.9891942,-0.3058941,0.01365723
0.8237784,-0.2570811,-0.0353684
0.7147337,-0.06701284,-0.0270194
0.7792293,-0.02242801,-0.05941619
0.8546141,5.812169e-05,-0.1227274
0.9412469,0.03856624,-0.0957532
0.9277941,0.001859412,-0.08701077
0.9162616,0.02655246,-0.08206506
0.9647291,0.04180865,-0.05852563
0.9635619,0.06918318,-0.04719367
0.9779712,0.1336189,-0.02750424
0.9857228,0.1438613,-0.03959566
0.9811832,0.1560751,-0.05089264
1.009898,0.1318424,-0.05875883
1.056158,0.03286152,-0.06295971
1.081238,-0.08085406,-0.01196085
1.031681,-0.1301574,0.01536537
1.005453,-0.07196488,-0.04917363
1.089561,-0.05063479,-0.1113102
1.17608,-0.112877,-0.05964749
1.17093,-0.1337822,-0.02430066
1.159182,-0.1068512,-0.1273737
1.20415,-0.09157296,-0.2142368
1.22334,-0.1486004,-0.2450088
1.214269,-0.3062678,-0.2909482
1.206224,-0.4512556,-0.2810074
1.202469,-0.4442567,-0.1537585
1.232301,-0.3649309,0.02423737
1.277863,-0.2947024,0.09651392
1.306773,-0.1103183,0.04655271
1.216035,0.02088579,0.02693886
1.015514,-0.05458661,0.03956424
0.8784073,-0.04788629,0.01918199
0.7957417,0.006336816,0.04207028
0.7595042,-0.02867644,0.0959776
0.7797255,-0.03247559,0.1108687
0.7406281,-0.06731157,0.1375076
0.6682682,-0.09690403,0.1730422
0.6200345,-0.09456498,0.2041819
0.6235428,-0.1303397,0.2233864
0.6884429,-0.1384165,0.2081476
0.7250493,-0.1898356,0.2470938
0.7615926,-0.2304991,0.297682
0.8107723,-0.1615336,0.2902666
0.8638533,-0.08537715,0.3123807
1.022716,0.002232775,0.3014409
1.25258,-0.002265789,0.1857003
1.392641,-0.1399848,0.09903841
1.291502,-0.2062314,0.1832423
1.20398,-0.1776569,0.3474198
1.441882,-0.1589371,0.3763763
1.569178,-0.244423,0.2849558
1.326422,-0.3923306,0.1840725
1.036529,-0.4555025,0.1277616
0.9048878,-0.4197447,0.1148972
0.9514067,-0.3254973,0.05269638
0.9716232,-0.2342015,-0.03057261
0.9348054,-0.1481016,-0.07500318
0.9670907,-0.1028949,-0.0746787
0.9761821,-0.1898784,-0.02228674
0.9846275,-0.2818031,0.01242005
0.9748025,-0.2754553,0.030131
0.8838419,-0.1880645,0.02422031
0.832378,-0.07187087,-0.02551743
0.8720864,-0.03097818,-0.06086259
0.9305179,-0.02386738,-0.08297317
0.92243,0.005471975,-0.06305751
0.9161648,0.01614625,-0.04020485
0.9509358,-0.004168689,-0.05843804
0.9456351,-0.00947376,-0.04899666
0.9516383,0.03183742,-0.05339587
0.9624898,0.07630816,-0.05891005
0.9553372,0.1062027,-0.04058697
0.9767386,0.1125997,-0.04296962
0.9949436,0.09041566,-0.02940546
1.030173,0.02420252,-0.02574978
1.053505,-0.09188201,-0.02985365
1.024103,-0.1334003,-0.02839203
1.026861,-0.07245617,-0.0820937
1.087763,0.006808524,-0.1445535
1.178433,0.05835804,-0.1555395
1.222206,-0.01512103,-0.1396736
1.19777,-0.1438527,-0.1458266
1.219632,-0.1620125,-0.1637043
1.261333,-0.1921968,-0.1934968
1.236356,-0.3067379,-0.2770381
1.19909,-0.3719637,-0.2959819
1.185452,-0.3929635,-0.1601502
1.206284,-0.3741659,0.01953283
1.282791,-0.2967199,0.09987447
1.326427,-0.1634835,0.06439373
1.253495,0.02109923,0.05757655
1.114245,0.05842834,0.05924182
0.9570795,-0.03964412,0.00230218
0.7930603,-0.07201101,0.02226544
0.674659,-0.1046917,0.08334011
0.639828,-0.1634927,0.1322054
0.6361421,-0.1882902,0.2112634
0.6201138,-0.1671197,0.2075113
0.6346735,-0.1318279,0.1681867
0.6992951,-0.1397388,0.1851762
0.7703528,-0.1482704,0.1958686
0.8005198,-0.1607641,0.2459246
0.8093014,-0.1608322,0.3087914
0.8548654,-0.1060386,0.3268015
0.9490457,-0.02323347,0.3187051
1.141303,0.05662256,0.2052429
1.356401,-0.01110709,0.08247253
1.366895,-0.1637154,0.137212
1.293604,-0.1962416,0.263013
1.345112,-0.1844166,0.3230394
1.420032,-0.1975179,0.3342312
1.440943,-0.2697537,0.3008205
1.249374,-0.3859104,0.2243831
0.8847654,-0.4348442,0.109305
0.798737,-0.4312289,0.01570188
0.9107915,-0.3562438,0.01928057
0.9315531,-0.2239113,-0.02643687
0.9851575,-0.1448388,-0.1129546
1.005833,-0.1621414,-0.0369764
0.9890534,-0.2519298,0.04408623
1.048179,-0.2968704,0.0162044
0.9958657,-0.2562648,0.005877714
0.8574345,-0.146496,-0.007831917
0.8045852,-0.005213389,-0.04823166
0.815333,0.02840519,-0.08335748
0.874338,-0.03509797,-0.09504088
0.914953,-0.08558333,-0.08251187
0.9326527,-0.09528257,-0.08668682
0.9736034,-0.07373043,-0.1012361
0.9755922,-0.009757811,-0.1020012
0.9642184,0.08679475,-0.08747114
0.9660361,0.1257981,-0.06363508
0.9727034,0.1151118,-0.05248102
0.997079,0.1062086,-0.0389181
1.008923,0.06027342,-0.0160476
1.050726,-0.06798706,-0.02833606
1.10216,-0.2190935,-0.05852716
1.088752,-0.1909989,-0.07054439
1.078083,-0.02592968,-0.08397409
1.098251,0.03629972,-0.1140287
1.103802,0.002759587,-0.1532376
1.142073,-0.07003665,-0.1571378
1.238903,-0.156293,-0.1691464
1.276369,-0.2099456,-0.2273336
1.243165,-0.2966207,-0.2013075
1.240554,-0.4129339,-0.122491
1.242705,-0.4272133,-0.07558477
1.249152,-0.3268916,0.01506331
1.300652,-0.2214715,0.08648492
1.335444,-0.09223228,0.06005186
1.280471,0.01861306,0.01691283
1.137396,-0.03896637,0.0231889
0.9563953,-0.1195004,0.0158678
0.770728,-0.1312785,-0.01603687
0.6234669,-0.1197507,0.03051848
0.5610385,-0.05775328,0.08399526
0.5781969,-0.08598842,0.1202668
0.6056694,-0.1477334,0.1807938
0.6111881,-0.1584811,0.1761186
0.689224,-0.2207891,0.1737624
0.8153806,-0.2202822,0.1829078
0.8654795,-0.1992617,0.1668301
0.8656064,-0.216581,0.2187415
0.8714501,-0.1510733,0.2908405
0.8967007,-0.04936325,0.3304016
0.9590396,0.04626853,0.286177
1.126661,0.03443174,0.125254
1.359717,-0.09608366,0.01665762
1.449956,-0.1804558,0.1288456
1.489542,-0.2038474,0.3213145
1.637357,-0.1868468,0.3143835
1.664717,-0.2462431,0.2595887
1.467265,-0.4070186,0.2648467
1.148695,-0.4856527,0.139148
0.8242415,-0.4601132,0.06005302
0.7329833,-0.3238809,0.07012834
0.8083433,-0.1125972,-0.05198947
0.8733371,0.02318518,-0.1771185
1.014453,0.001566324,-0.1240822
1.056812,-0.1855068,-0.0003271595
0.9855663,-0.3757706,0.0283445
0.9869016,-0.3885034,0.04159877
0.8675796,-0.25052,0.03040891
0.7755156,-0.1171199,-0.05320588
0.860778,-0.03544999,-0.0638156
0.8708224,0.009601719,-0.08422439
0.8919431,-0.0240955,-0.09887736
0.945992,-0.03169976,-0.06756323
0.9755967,-0.006308152,-0.1207936
1.039532,-0.003748242,-0.1263932
1.008762,0.05700693,-0.09801372
0.9695911,0.08968288,-0.09561409
0.9903442,0.1035704,-0.06202209
0.9640753,0.1448024,-0.05771314
0.9692695,0.1201161,-0.02124274
0.9949335,0.08319003,0.005806585
1.011994,0.005400541,-0.02737509
1.051916,-0.1206723,-0.06383651
1.060157,-0.1342749,-0.1371954
1.082296,-0.02519404,-0.168907
1.148364,0.04556292,-0.1510735
1.185126,-0.06705802,-0.1623677
1.188627,-0.210659,-0.1929622
1.23865,-0.2082826,-0.2406827
1.357992,-0.2454946,-0.2811309
1.387034,-0.3728503,-0.3033128
1.268648,-0.396179,-0.2434244
1.166016,-0.3287189,-0.07215576
1.142312,-0.2516155,0.05499117
1.167903,-0.1374601,0.05783644
1.166241,-0.04007135,0.03917785
1.068043,-0.04549064,0.05794764
0.9459977,-0.09601154,0.02685608
0.8518019,-0.1113641,-0.03781823
0.7799773,-0.1137719,-0.01941611
0.7242664,-0.1303568,0.06045689
0.688461,-0.1622035,0.1623397
0.6717056,-0.1898135,0.2141329
0.6475202,-0.1835463,0.1799339
0.6795554,-0.1755796,0.1824702
0.7612144,-0.1833231,0.2027632
0.8110991,-0.1874451,0.2054187
0.8419975,-0.1849842,0.2606477
0.8540941,-0.1291282,0.3109644
0.9092879,-0.01943509,0.3163048
1.069119,0.017901,0.2510639
1.272811,-0.08670219,0.1165939
1.367606,-0.223365,0.07809206
1.301324,-0.2636722,0.1572154
1.339515,-0.2193203,0.2186394
1.547032,-0.1503064,0.2642214
1.648797,-0.1300639,0.3027081
1.443932,-0.2796456,0.2023891
1.015747,-0.4830539,0.04111774
0.7878605,-0.4503821,0.04931462
0.7937453,-0.306716,0.05704154
0.8058638,-0.26516,-0.009284469
0.9144073,-0.1808199,0.02400803
0.9963925,-0.09317064,-0.002405662
0.9716708,-0.1437561,-0.03340755
0.9834437,-0.2557047,0.01847578
1.016456,-0.340094,-0.03782686
1.000322,-0.3015942,-0.05116075
0.8806885,-0.1818921,-0.02401121
0.7720341,-0.06407624,-0.06607114
0.7700847,0.01607735,-0.05893802
0.8546031,-0.03645725,-0.0777868
0.9354327,-0.08090613,-0.09330368
0.8958723,-0.04289194,-0.07967866
0.891457,-0.0534886,-0.1043882
0.9405076,-0.01630017,-0.1100273
0.9532863,0.07619128,-0.1218539
0.9933458,0.1099371,-0.1072349
1.001859,0.1248679,-0.08567705
1.004122,0.114432,-0.09481497
1.015693,0.0481245,-0.05829069
1.012863,-0.08336878,-0.03102982
1.038501,-0.176956,-0.03850907
1.040926,-0.06672967,-0.08831537
1.093936,0.03777879,-0.1482295
1.234055,-0.04149153,-0.121197
1.303628,-0.06990456,-0.107353
1.281775,-0.03847446,-0.1610448
1.309993,-0.0970239,-0.2206762
1.378596,-0.1786492,-0.3111597
1.300689,-0.2922294,-0.3678093
1.15583,-0.3991366,-0.2222075
1.130303,-0.3953769,0.04361661
1.183013,-0.369421,0.1551111
1.242281,-0.2572055,0.1228947
1.215369,-0.00604884,0.0962034
1.112458,0.09512519,0.04451663
0.9860293,0.006633455,-0.02853306
0.811505,-0.0263793,-0.02928775
0.705109,-0.02407078,0.03366848
0.6789162,-0.0814786,0.093743
0.6671565,-0.1266093,0.1532612
0.674158,-0.1541865,0.1785481
0.6512163,-0.1825996,0.1573164
0.6697359,-0.1732745,0.1620987
0.7411683,-0.1851461,0.1633006
0.8205343,-0.2313387,0.1707897
0.890339,-0.2615263,0.211008
0.8639137,-0.2588972,0.2258901
0.8539568,-0.1812758,0.2717068
0.8953723,-0.08415225,0.3069054
0.9707765,-0.03068719,0.2079464
1.188522,-0.04048221,0.04023723
1.331687,-0.1660981,-0.03466206
1.292543,-0.2651768,0.1288404
1.302416,-0.1553859,0.3726939
1.416529,-0.04063992,0.4014075
1.509634,-0.1751503,0.2956126
1.432778,-0.3455641,0.2034359
1.167626,-0.3802515,0.1149455
0.8655926,-0.3992363,0.07953444
0.7822704,-0.3652627,0.06725842
0.9366505,-0.2618931,-0.03798071
0.9795248,-0.1118559,-0.1680345
0.9258524,-0.02936751,-0.1538286
0.976445,-0.1907461,-0.03673598
1.002872,-0.3439984,0.02944667
1.000423,-0.3421227,0.03467921
0.9290701,-0.2697596,0.01578217
0.7539373,-0.1217276,0.004581959
0.7385387,-0.05138261,-0.01143467
0.8605245,-0.02237133,-0.06546064
0.9291367,0.02877446,-0.07506302
0.939448,0.0001029769,-0.05448718
0.93474,-0.02240923,-0.0628665
0.9826761,-0.02018604,-0.06631874
1.001719,0.01137627,-0.07663641
0.9689364,0.1016302,-0.06079765
0.9747666,0.152945,-0.03181513
0.9731117,0.1603254,-0.0364814
0.991355,0.1458915,-0.03128593
1.034759,0.0755582,-0.03242067
1.047215,-0.0456197,-0.05143418
1.06834,-0.1137523,-0.08820602
1.094164,-0.06917179,-0.1276521
1.149735,-0.02442699,-0.1112161
1.224196,-0.01599839,-0.08981022
1.217885,-0.03995899,-0.1119697
1.198073,-0.1217513,-0.1482991
1.244367,-0.1933318,-0.1935409
1.263709,-0.2911296,-0.2715687
1.203695,-0.417146,-0.3212849
1.09332,-0.4268883,-0.1801653
1.028469,-0.3558051,0.03980688
1.163482,-0.2499377,0.07041115
1.342858,-0.08861211,0.004066907
1.293288,-0.001810376,0.00120797
1.128005,-0.05070679,0.01972624
0.9646683,-0.1320602,0.02701243
0.8174221,-0.1619276,0.02373044
0.7529635,-0.1333894,0.04233975
0.6875481,-0.09805362,0.0937146
0.6420193,-0.1223825,0.1332674
0.6462874,-0.1671516,0.146955
0.6127177,-0.1729221,0.1520139
0.6505521,-0.1985481,0.1706861
0.73483,-0.2028119,0.1806145
0.7710243,-0.1690325,0.1941856
0.8126609,-0.1763409,0.2448897
0.8290138,-0.1583577,0.2780829
0.8723165,-0.1137342,0.2917515
0.9604918,-0.02243103,0.2713125
1.105988,0.1025173,0.1563525
1.27964,0.05753656,0.06801076
1.265061,-0.06079713,0.1639261
1.249947,-0.08656525,0.3608477
1.341017,-0.08636138,0.4423079
1.360684,-0.1088195,0.3594814
1.452806,-0.2659659,0.2125784
1.41639,-0.4429498,0.1024612
1.084124,-0.3870892,0.09827249
0.8048052,-0.3210654,0.1052236
0.733481,-0.3573658,0.04677611
0.8689691,-0.2409091,-0.03734758
0.9539639,-0.112076,-0.1372897
0.9299606,-0.1709466,-0.09064954
1.032665,-0.2779821,0.07081167
1.041935,-0.3529206,0.06903799
0.9693879,-0.3257099,0.0105018
0.9123237,-0.2008829,-0.006887822
0.8051519,-0.08282783,-0.03965029
0.8521328,0.03038491,-0.04377408
0.8967448,0.06004419,-0.083541
0.8637049,0.02916375,-0.07145856
0.9150319,0.04772505,-0.02264094
0.9583386,0.03707907,-0.08253786
1.019769,0.03442928,-0.08918537
1.015018,0.07586892,-0.06632141
0.9545093,0.09647777,-0.07182623
0.9897656,0.1200775,-0.03885978
0.9840521,0.1125423,-0.04747722
0.975623,0.09603869,-0.0431952
1.017023,0.06713321,-0.0136731
1.018723,-0.0591408,-0.002773857
1.035212,-0.1802059,-0.00615954
1.039145,-0.1861131,-0.07775901
1.051827,-0.06027486,-0.1402719
1.141686,0.05098301,-0.1392833
1.212279,-0.04409806,-0.1362264
1.255219,-0.1656418,-0.1935258
1.341472,-0.1866124,-0.281605
1.412713,-0.2708408,-0.3185315
1.358842,-0.3764764,-0.3363243
1.202145,-0.3955999,-0.2437793
1.036449,-0.3695675,-0.009180215
0.9657073,-0.2911146,0.1218764
1.059391,-0.1464315,0.1014056
1.109927,0.003334268,0.06416069
1.047945,0.03735052,0.04373136
1.044442,-0.0616874,0.02191119
1.001187,-0.1277255,0.009441771
0.9224657,-0.1293776,0.02258308
0.8740882,-0.1358873,0.04678548
0.7804516,-0.1364912,0.1066807
0.7269695,-0.1428099,0.1708682
0.6902917,-0.1456797,0.1652061
0.6628818,-0.1488421,0.1331449
0.7197247,-0.1642684,0.1146934
0.7791526,-0.1863229,0.1167351
0.8330519,-0.2288276,0.1494529
0.8496314,-0.2359851,0.1948701
0.8163561,-0.1934487,0.2586161
0.8244159,-0.1105979,0.3232316
0.9102333,0.01307302,0.3240764
1.106971,0.04500849,0.2219107
1.265159,-0.03079088,0.1068452
1.260835,-0.07226278,0.1276257
1.352075,-0.07891191,0.2209592
1.650177,-0.129622,0.2435353
1.777385,-0.2671618,0.1948726
1.48206,-0.4480178,0.1407727
1.022251,-0.5042383,0.1592152
0.7080081,-0.4222146,0.1715189
0.6524516,-0.3149537,0.05413224
0.8186291,-0.1303312,-0.1195581
0.9724016,-0.009011952,-0.2284474
1.005444,-0.1541234,-0.1642854
1.040985,-0.3206293,-0.03508376
1.053284,-0.3846478,0.004915428
0.9688587,-0.4172025,0.06375139
0.8774037,-0.305954,0.05494743
0.8131103,-0.1145766,-0.02555508
0.786976,0.01997388,-0.02736652
0.8539148,0.04149079,-0.08788881
0.9328341,-0.01103822,-0.1216795
0.9325412,-0.004813748,-0.08204592
0.9227669,-0.05687993,-0.110876
0.9687733,-0.1128883,-0.1027617
1.001347,-0.02033659,-0.08563853
0.9881456,0.02750905,-0.07216724
0.9835022,0.05278544,-0.03283252
0.9810797,0.1085866,-0.04912422
0.9790734,0.1084551,-0.04803776
1.000143,0.08342674,-0.04513214
1.025473,-0.01615448,-0.06202069
1.043527,-0.1258819,-0.06013906
1.060979,-0.1482916,-0.09673702
1.073332,-0.1022761,-0.1406097
1.093986,-0.05632087,-0.1521238
1.168166,-0.1106082,-0.1348919
1.237989,-0.1402513,-0.1306803
1.23884,-0.1068113,-0.1744158
1.246641,-0.126231,-0.2280002
1.253295,-0.1799334,-0.3000788
1.216276,-0.2584843,-0.3663253
1.198977,-0.2902539,-0.3389234
1.198493,-0.288154,-0.1406697
1.185562,-0.3332644,0.09122721
1.186406,-0.3116016,0.07846682
1.189341,-0.1948972,-0.01115118
1.173217,-0.0607471,0.03767371
1.137949,0.0026421,0.03389656
1.025293,-0.07431305,0.007723699
0.8280149,-0.1449944,0.05692612
0.7175146,-0.1432925,0.07985051
0.7423439,-0.1610803,0.1240495
0.7313184,-0.14178,0.1556761
0.6855386,-0.09854237,0.1477545
0.6927406,-0.1014357,0.170113
0.7036801,-0.1030689,0.1403483
0.7338255,-0.1244371,0.1318514
0.7964659,-0.1699108,0.1892299
0.8349629,-0.207,0.2262719
0.8611265,-0.2240959,0.2810805
0.8779698,-0.1706028,0.3099137
0.9010513,-0.07218717,0.3210445
1.009692,-0.005439605,0.2676564
1.190707,-0.05270453,0.07246123
1.305463,-0.1964848,0.001133262
1.355385,-0.2720651,0.1891458
1.488791,-0.224317,0.3712454
1.597068,-0.1703323,0.3256156
1.497991,-0.2510097,0.2273644
1.273612,-0.3941115,0.1674464
0.9679722,-0.4319948,0.03199576
0.6652567,-0.3265568,0.03113135
0.6318752,-0.1122435,0.01683839
0.8492814,0.002271155,-0.1543111
1.048218,-0.04812062,-0.1097466
1.083037,-0.1865318,-0.03305489
1.019738,-0.4089025,-0.0133103
1.006615,-0.4453804,0.07978184
0.9436051,-0.3037135,0.02292858
0.7893807,-0.2138723,-0.01026071
0.7578055,-0.08626247,0.006410887
0.8313951,-0.02977982,-0.05806154
0.8950795,-0.04630188,-0.03695587
0.9107151,-0.005675936,-0.03214077
0.9020362,-0.02746247,-0.05509718
0.948905,-0.02045548,-0.04673805
0.9715776,0.03545282,-0.07343837
0.9600952,0.06270747,-0.0649109
0.9623609,0.1386923,-0.05208224
0.9543423,0.1523308,-0.05171204
0.993576,0.09237664,-0.04280714
1.0471,0.02289086,-0.04701391
1.057999,-0.09713299,-0.02836408
1.034601,-0.1355583,-0.03697513
0.9893877,-0.07123554,-0.09580568
0.9955072,0.005320099,-0.1446214
1.111117,0.06197147,-0.1454038
1.279067,-0.008121689,-0.1434648
1.328541,-0.1376474,-0.2126303
1.333276,-0.1795016,-0.2628584
1.435297,-0.2213772,-0.2836875
1.41916,-0.3408198,-0.3332509
1.266175,-0.4412916,-0.2931002
1.140906,-0.4495626,-0.1528718
1.046412,-0.4095047,0.02867539
1.046503,-0.3475452,0.1656423
1.099948,-0.1967237,0.1102957
1.121644,0.001392737,0.03204199
1.082044,0.05985338,0.03106031
0.9661615,-0.01557737,-0.03502238
0.8864958,-0.07159399,-0.02076279
0.8099624,-0.1001016,0.07750818
0.7356288,-0.1459606,0.1164767
0.7370808,-0.1940989,0.1847617
0.6876248,-0.214008,0.2021579
0.6515929,-0.2007885,0.1776409
0.7033056,-0.1690855,0.2068133
0.7394727,-0.1251469,0.1931732
0.773675,-0.09332236,0.204736
0.7910515,-0.09844754,0.239633
0.8003343,-0.09950361,0.2694525
0.8423203,-0.05519528,0.3388328
0.9341889,-0.0156934,0.3059105
1.148824,-0.02922797,0.1883903
1.356078,-0.1053073,0.1176123
1.375904,-0.2285086,0.178645
1.389753,-0.2880585,0.311946
1.567338,-0.2261855,0.3201033
1.654232,-0.2078579,0.2725177
1.417477,-0.3594625,0.1539464
1.053312,-0.4820198,-0.004149277
0.8396726,-0.3903073,0.02055061
0.7631438,-0.2138601,-0.006116779
0.7852425,-0.08335817,-0.1180818
0.9431034,-0.04935153,-0.1040012
1.052495,-0.148199,-0.0995389
1.049359,-0.2772464,-0.04817057
1.046945,-0.3731818,0.01837246
1.015351,-0.4082641,-0.01546629
0.9349001,-0.2917396,-0.004177953
0.7806735,-0.1277141,-0.01971575
0.7029731,-0.03536644,-0.06962663
0.793452,0.007754831,-0.09657139
0.8258293,-0.01655811,-0.1357483
0.8451468,-0.05959142,-0.1014668
0.9240906,-0.1023625,-0.0873619
0.9472176,-0.1359904,-0.108307
0.9660311,-0.07402781,-0.08501115
1.013555,0.02392853,-0.08332325
1.014076,0.09190668,-0.06418531
0.980271,0.1030714,-0.0574804
0.9997307,0.06895453,-0.06420751
1.01089,0.03000028,-0.02648106
0.9984796,-0.06628461,-0.01847977
1.018076,-0.1185728,-0.03438309
0.9962785,-0.1311495,-0.06796973
1.004115,-0.1583269,-0.106675
1.080087,-0.007633768,-0.1112643
1.167885,0.1163953,-0.1312657
1.25337,0.02979904,-0.1564289
1.259276,-0.0007263928,-0.1780684
1.245882,0.02297902,-0.2054696
1.24314,-0.04205905,-0.2175569
1.220798,-0.2241795,-0.2618018
1.197092,-0.4091193,-0.3037505
1.119893,-0.4153261,-0.2259746
1.070094,-0.3774732,-0.05512622
1.100386,-0.3915171,0.07810271
1.17333,-0.2858042,0.08763149
1.252558,-0.09053319,0.03892998
1.222289,-0.01258928,0.02274091
1.126954,-0.0587184,-0.03686916
1.006033,-0.09954429,-0.09817959
0.8442828,-0.1068079,-0.04202037
0.7671022,-0.1172748,0.05203095
0.7441046,-0.1308329,0.1518015
0.6832537,-0.1425078,0.1840074
0.6371728,-0.1576707,0.1220439
0.6183001,-0.151537,0.1412492
0.6196321,-0.1549315,0.1757355
0.6623156,-0.1814868,0.1986148
0.7371414,-0.1692593,0.2830906
0.8233077,-0.1418288,0.2946026
0.8868852,-0.100106,0.2906035
0.9700111,-0.02667302,0.3012825
1.182359,0.02240263,0.2087294
1.398502,-0.02072256,0.1344957
1.423443,-0.1370122,0.1870941
1.43573,-0.198513,0.2889001
1.614034,-0.2569909,0.3223122
1.693996,-0.3659416,0.2651562
1.440377,-0.4959298,0.1547133
1.104959,-0.622295,0.06453612
0.9254177,-0.4622647,0.07566704
0.7963453,-0.1434014,0.0178521
0.8376773,-0.04592973,-0.1479309
1.033899,-0.02428719,-0.2039907
0.9923789,-0.08298072,-0.2022428
0.9412342,-0.2874431,-0.1454279
1.007869,-0.4474565,0.01607737
0.8675577,-0.4400297,0.06023191
0.7687842,-0.274279,0.02020688
0.796158,-0.1502313,0.002174029
0.8439745,-0.03087396,-0.09478147
0.9526541,0.0639601,-0.1185835
0.9318361,-0.004574428,-0.04463325
0.9300673,0.00222174,-0.03848105
1.009841,0.01742011,-0.0275849
1.009291,0.009860455,-0.02586341
1.001701,0.1226399,-0.03818563
0.955212,0.1590965,-0.01976668
0.9511859,0.1797692,-0.03626607
0.993125,0.1902454,-0.04137219
1.005922,0.1052874,-0.04480591
1.067118,0.02635222,-0.05616588
1.058071,-0.08183485,-0.04327363
0.9893473,-0.1369001,-0.08109368
0.9615547,-0.1284402,-0.1379856
1.001662,-0.04873117,-0.1689208
1.150141,0.074122,-0.1675654
1.255055,-0.04680093,-0.1555875
1.268811,-0.1861237,-0.1839151
1.284168,-0.1275224,-0.1916304
1.316018,-0.1829084,-0.2303048
1.307638,-0.3312447,-0.30177
1.196357,-0.3977762,-0.2354247
1.077229,-0.410584,-0.07466647
1.047371,-0.3880277,0.09284157
1.131712,-0.3183621,0.1811836
1.206771,-0.1275298,0.1054375
1.141575,0.08804593,0.04880388
1.070726,0.09900439,0.0404247
0.9794373,0.001627622,-0.03006266
0.8258814,-0.0322502,-0.02699751
0.743103,-0.07591579,0.03393169
0.7091949,-0.1544243,0.08111524
0.714204,-0.2079375,0.1651476
0.7337075,-0.2221546,0.1778896
0.7395612,-0.2019518,0.148383
0.812018,-0.1945976,0.1759691
0.8866592,-0.2126969,0.1930182
0.905482,-0.2223468,0.2261053
0.9065016,-0.2135447,0.2669235
0.8897255,-0.154506,0.286361
0.8609811,-0.03052673,0.3193656
0.8702923,0.05350094,0.281865
1.043527,-0.02306804,0.1458762
1.274577,-0.1905755,0.03711317
1.311455,-0.2889968,0.1041889
1.381872,-0.2561459,0.2847321
1.625617,-0.1618874,0.3541627
1.664219,-0.1246246,0.3394818
1.521181,-0.1481136,0.2975603
1.291746,-0.2908109,0.1504452
0.8552629,-0.4783955,0.008580685
0.7202872,-0.3849921,0.006839893
0.9279835,-0.1581687,-0.02054525
0.9392417,-0.07390901,-0.165457
1.004681,-0.07802188,-0.1238632
1.082759,-0.169063,-0.001472146
0.9540084,-0.2718457,-0.0531192
0.9597447,-0.3806643,0.01078114
0.9388423,-0.3895063,0.04051217
0.8479716,-0.1951809,-0.0712856
0.8660513,-0.07571577,-0.06027564
0.8375405,0.01133719,-0.1145548
0.8892159,0.02886998,-0.1291357
0.9638034,-0.06104251,-0.0745516
0.9674075,0.0175373,-0.1426472
1.009458,-0.001378759,-0.1111088
0.989814,-0.04848209,-0.09224709
0.9959278,0.05250789,-0.1141917
0.9981817,0.04609981,-0.05220425
0.9561611,0.1122464,-0.05836224
0.9813154,0.1413068,-0.04184951
0.9646886,0.0513003,-0.02655379
0.9889253,0.008720402,-0.05470787
1.043988,-0.1200737,-0.05096068
1.041002,-0.1515978,-0.1225416
1.068982,-0.1150247,-0.1894068
1.075418,-0.1414894,-0.1744124
1.139831,-0.1043457,-0.1389928
1.234168,-0.1199867,-0.1218047
1.231293,-0.1367065,-0.1763611
1.266562,-0.1429385,-0.2501804
1.363027,-0.2474897,-0.3061294
1.398358,-0.3609387,-0.3264608
1.285527,-0.408665,-0.239243
1.148251,-0.3543842,-0.05536692
1.140216,-0.3001544,0.08635646
1.154413,-0.2088795,0.08976373
1.125335,-0.02358281,0.06295175
1.059633,0.02006705,0.04699502
0.9465765,-0.05533782,-0.004881137
0.8226544,-0.0939529,-0.01463567
0.7297729,-0.1110614,0.02912022
0.6837522,-0.1328724,0.08063498
0.6742207,-0.1853991,0.1527663
0.6902516,-0.2060065,0.1953283
0.7076529,-0.1832758,0.1677272
0.7773357,-0.1737301,0.1449534
0.8825321,-0.1658331,0.1493865
0.895426,-0.1753096,0.1615144
0.8689831,-0.1883094,0.2131928
0.8464411,-0.1717253,0.2570336
0.8018471,-0.1281038,0.2701771
0.8099227,-0.0478238,0.283472
0.9048427,0.02267078,0.2402574
1.10568,-0.01076466,0.1278209
1.331895,-0.1385349,0.04841007
1.368829,-0.2081825,0.1419513
1.322766,-0.1056115,0.3456891
1.457291,-0.003272219,0.4091782
1.553832,-0.1479114,0.3194507
1.331989,-0.3375758,0.2254779
1.011421,-0.3672291,0.1466724
0.9007802,-0.4270167,0.04427825
0.9762831,-0.4440147,-0.02496082
0.9872299,-0.2898705,-0.08329004
0.9131946,-0.1354783,-0.2041458
0.9151709,-0.09670814,-0.1451179
0.9476341,-0.2452982,0.03772667
0.9978829,-0.4162563,0.03473559
1.047768,-0.4021818,0.01989726
0.9742311,-0.2911598,0.002058494
0.8617939,-0.121941,-0.05715588
0.8254098,0.02273599,-0.0530835
0.8667585,0.03816799,-0.1093041
0.9184068,0.003599859,-0.1098113
0.8990714,-0.03413511,-0.06187138
0.8995997,-0.06808958,-0.07881429
0.9537692,-0.0607898,-0.07071384
0.9787604,0.01887793,-0.09875097
0.9783252,0.117954,-0.07761142
0.9613595,0.1643176,-0.02795352
0.9681487,0.1685474,-0.05172226
1.015225,0.13083,-0.04147933
1.048711,0.0663582,-0.05168641
1.042117,-0.01029996,-0.06407536
0.9908419,-0.08616588,-0.07933562
0.9740485,-0.08842244,-0.1359916
1.049295,-0.01039733,-0.1258404
1.176258,0.04438183,-0.1190947
1.267465,0.0005514959,-0.1508644
1.267895,-0.07852033,-0.177348
1.283648,-0.1269831,-0.206599
1.299737,-0.1978365,-0.249335
1.245347,-0.3336754,-0.3235
1.183953,-0.4313652,-0.2710152
1.075303,-0.3804906,-0.08417604
1.052697,-0.3137793,0.06886818
1.208699,-0.2464811,0.1430074
1.277828,-0.02032958,0.08396408
1.233395,0.1568039,0.04747404
1.176353,0.125423,0.08800198
1.021377,0.02137148,0.02601901
0.7926791,-0.06980347,-0.001721214
0.7094023,-0.0482398,0.03502132
0.7590515,-0.02659525,0.06621518
0.6748199,-0.1188462,0.1651633
0.6378814,-0.1412503,0.199863
0.7447215,-0.1187455,0.1523801
0.7650316,-0.1338606,0.1250932
0.8421951,-0.1341252,0.1231563
0.8848208,-0.1604345,0.1675711
0.8368594,-0.1933872,0.2210124
0.8842997,-0.1981736,0.256616
0.8396216,-0.1739512,0.2698009
0.8074049,-0.08970047,0.3025174
0.8570903,0.01201456,0.3454214
0.9197215,0.02751042,0.2587991
1.159638,-0.05846107,0.06272526
1.313505,-0.1426412,-0.04197757
1.368493,-0.1738965,0.1101615
1.52343,-0.09169826,0.3251879
1.546713,0.008057951,0.3341475
1.460111,-0.1409662,0.2889304
1.296137,-0.3356531,0.225707
1.025381,-0.3524532,0.1033412
0.8947284,-0.3492695,0.04961533
0.9317382,-0.2694246,-0.0679157
0.9427548,-0.1115586,-0.2061888
0.9147391,-0.09331706,-0.163817
0.9310577,-0.2686474,-0.03404481
0.9429334,-0.4795616,0.12173
0.9367543,-0.4842374,0.1451261
0.9139673,-0.3131869,0.008953763
0.839555,-0.1271174,-0.05092257
0.8339877,0.0387859,-0.09219491
0.8972765,0.08828966,-0.1131561
0.9372205,0.03221256,-0.0552015
0.9668914,-0.005193302,-0.03316249
0.9957511,-0.01483647,-0.0214565
1.040049,0.00525913,-0.01889336
1.026041,0.06284038,-0.01664402
0.9719469,0.1315495,0.004456345
0.9623459,0.1954828,0.0006071965
0.9491919,0.2091932,0.004796327
0.9899909,0.1497434,-0.01101799
1.066683,0.06219148,-0.02896055
1.065722,-0.02769386,-0.02641993
1.002387,-0.1018245,-0.04914013
0.9325096,-0.1364936,-0.05255146
0.9656326,-0.1374142,-0.03749236
1.051019,-0.13564,0.005790614
1.093776,-0.1612067,0.03917843
1.197312,-0.1487933,-0.06618534
1.366369,-0.09893073,-0.220151
1.513566,-0.1240767,-0.2883185
1.541439,-0.2209097,-0.3232643
1.427738,-0.3760026,-0.3228546
1.221003,-0.4660189,-0.187132
0.9415557,-0.3811047,0.05763693
0.8462751,-0.3021251,0.277133
0.9964759,-0.174602,0.298078
1.083748,0.09474867,0.1088184
1.094139,0.2073726,-0.03355298
1.075195,0.07942766,-0.0368499
0.9755367,-0.07044739,0.03847957
0.8847531,-0.1556306,0.1290948
0.8399152,-0.22033,0.1514276
0.9784154,-0.109263,0.05002492
0.9368193,-0.09777745,0.01653449
0.971279,-0.1221669,-0.02727545
0.9791017,-0.1478732,-0.02438611
0.8818866,-0.150795,0.04275895
0.7567972,-0.1687341,0.1134071
0.6418925,-0.1342332,0.1648076
0.6106204,-0.09792767,0.1759968
0.6524932,-0.1168309,0.1716115
0.6928536,-0.1498845,0.1843435
0.7671206,-0.1801399,0.2006978
0.8087827,-0.1752752,0.2430526
0.8152224,-0.1265369,0.2946624
0.893805,-0.07726999,0.306466
1.065065,-0.0709845,0.2451247
1.307322,-0.1218911,0.09660707
1.422257,-0.163583,0.016247
1.357409,-0.1422181,0.1624674
1.391253,-0.1208078,0.3396653
1.483841,-0.1490674,0.3207479
1.435093,-0.2499823,0.2550887
1.260688,-0.4268122,0.1891523
0.9578477,-0.5028163,0.04407092
0.7521541,-0.400619,0.01973509
0.7925907,-0.2599398,0.02075938
0.8482778,-0.08438256,-0.09436436
0.9194177,0.006763759,-0.06125904
0.9839213,-0.1352566,0.01706622
0.9987022,-0.2640654,0.01160418
1.110874,-0.2821509,0.0405991
1.118503,-0.2707539,0.01601352
0.9330368,-0.1508331,0.00317119
0.7894692,-0.01278793,0.008879896
0.7928889,0.02274549,-0.03573395
0.9052349,-0.01068673,-0.02540418
0.9407009,-0.04111808,-0.0410164
0.9134736,-0.03571757,-0.05644345
0.9054907,-0.04838571,-0.03012059
0.877134,-0.03252604,-0.07137042
0.913628,0.02204635,-0.1006381
0.9481177,0.07858195,-0.1155034
0.9331639,0.1369437,-0.1108868
0.9454469,0.1158263,-0.05166295
0.9638185,0.08295776,-0.02735809
1.005544,0.03188568,-0.008291131
1.027373,-0.1033282,-0.02108617
1.038411,-0.1407361,-0.1031665
1.096546,-0.06604995,-0.1873849
1.175902,-0.02266108,-0.2402397
1.286593,-0.06985408,-0.2244312
1.330689,-0.1205858,-0.2220336
1.316529,-0.09190017,-0.2619659
1.371612,-0.1374547,-0.2947019
1.37071,-0.2416798,-0.3333045
1.24314,-0.2918919,-0.2637327
1.099565,-0.3310758,-0.08997368
1.04631,-0.3330834,0.0628669
1.121478,-0.285037,0.1156599
1.157801,-0.1803943,0.04681782
1.093065,-0.08075255,0.03771394
1.033248,-0.088696,0.03658086
0.9450219,-0.1144979,-0.04991241
0.8747867,-0.1149623,-0.02713813
0.8403006,-0.1347606,0.03807502
0.7599378,-0.1457633,0.08318001
0.7157312,-0.1534177,0.1521859
0.6750259,-0.1809785,0.1693513
0.6206807,-0.1961958,0.18396
0.657052,-0.1843386,0.1963363
0.6951203,-0.1677204,0.2134808
0.7342354,-0.1393026,0.2462584
0.7953238,-0.1169666,0.2480695
0.8043831,-0.102178,0.2978112
0.8681565,-0.04612035,0.3330783
1.028125,-0.009013551,0.2748203
1.256638,-0.0611344,0.1320221
1.438059,-0.1634983,0.0001282949
1.381072,-0.2224559,0.179388
1.306616,-0.1446479,0.4987857
1.335443,-0.06718326,0.5268284
1.291212,-0.2013214,0.3486176
1.240191,-0.3931217,0.1513928
1.150634,-0.4395486,0.0513074
0.9945885,-0.3943804,0.06665411
0.8976671,-0.3066315,-0.02966381
0.8947641,-0.2408241,-0.1536764
0.9742356,-0.2572282,-0.07898174
0.9629531,-0.2745716,0.01824549
0.9314863,-0.2581427,0.04754859
0.9805986,-0.254386,0.04845006
0.940895,-0.2493822,-0.03655703
0.9294231,-0.2035882,-0.08044904
0.8802382,-0.1163218,-0.05357084
0.7772803,0.01073351,-0.06721945
0.8799696,0.07298449,-0.07519632
0.9525095,0.01283959,-0.07208079
0.9090875,0.00679795,-0.07250819
0.923012,0.02682215,-0.07981998
0.9367168,0.0021564,-0.0971823
0.9512358,0.05695602,-0.0851929
0.9715744,0.1103698,-0.0777361
0.9683665,0.1295337,-0.0616013
0.9509368,0.1559273,-0.0339261
0.9746842,0.135878,-0.04004807
1.010623,0.09817331,-0.03799612
1.011773,-0.004910222,-0.03887084
1.056701,-0.1459532,-0.07311797
1.096979,-0.1831843,-0.1465332
1.111655,-0.1109248,-0.2150362
1.151642,-0.04119482,-0.1701953
1.188658,-0.09092653,-0.1261129
1.216265,-0.1453293,-0.2260355
1.25469,-0.1480347,-0.3147209
1.343984,-0.2352276,-0.3207867
1.357637,-0.3484564,-0.3256551
1.241216,-0.3902218,-0.2136484
1.17001,-0.3336412,0.01532014
1.168189,-0.2194838,0.09419174
1.204371,-0.1044091,0.0311993
1.201188,0.005134701,0.0326094
1.081873,-0.01739771,0.05012287
0.9248912,-0.1000631,0.01274595
0.7990192,-0.1009446,0.008431033
0.7402497,-0.1166969,0.04115219
0.6913941,-0.1294152,0.07940194
0.6595083,-0.1510972,0.1279052
0.677672,-0.1816134,0.1516781
0.6690593,-0.1686719,0.1649202
0.7194306,-0.2149423,0.1802266
0.8076777,-0.2435718,0.1971452
0.817687,-0.2201147,0.2384685
0.811401,-0.2077889,0.260289
0.8054314,-0.117606,0.274411
0.8203063,-0.001511001,0.3200553
0.9013733,0.06567801,0.316183
1.099379,0.02058232,0.2089698
1.328,-0.1513081,0.1141635
1.419948,-0.2499182,0.1648691
1.548857,-0.1945639,0.2460549
1.705516,-0.1307685,0.2599912
1.608923,-0.2375454,0.2668862
1.397321,-0.4210715,0.1876873
1.189838,-0.4834493,0.1277492
0.8340219,-0.4271592,0.1468995
0.4804206,-0.2564901,0.001354778
0.5067753,-0.1500427,-0.07436235
0.8249996,-0.2000839,0.01483459
1.005195,-0.2115421,-0.03461017
1.066816,-0.2098616,-0.03431123
1.072083,-0.2779093,0.02258737
0.9895534,-0.3509927,-7.560208e-05
1.011522,-0.3077332,0.02040698
0.9186293,-0.1509453,-0.01431105
0.7534065,-0.007933984,-0.05725942
0.834524,0.06256646,-0.07417061
0.8844992,0.01184248,-0.1303794
0.9050628,-0.01430754,-0.1181876
0.9387559,0.003256759,-0.1134478
0.9056463,-0.04572568,-0.1256004
0.9695719,0.0112974,-0.1124237
0.9840105,0.08597184,-0.1210092
0.9652977,0.08928335,-0.09981142
0.9872815,0.1240966,-0.08487712
0.9650784,0.1019295,-0.08136417
1.005218,0.04818835,-0.06964829
1.062786,-0.06013165,-0.07448701
1.103074,-0.198773,-0.08284259
1.101508,-0.1859976,-0.1235489
1.07737,-0.05933503,-0.1507255
1.151355,0.05216743,-0.1427606
1.195368,-0.009193933,-0.1651523
1.207675,-0.1534028,-0.2244979
1.27028,-0.1957493,-0.2831608
1.31322,-0.2858838,-0.3097183
1.327223,-0.4016457,-0.3190396
1.278995,-0.4066106,-0.2082041
1.211156,-0.3336726,0.02455322
1.213168,-0.1997772,0.1127656
1.255379,-0.03897396,0.08111327
1.259453,0.08228992,0.09627288
1.153326,0.05392021,0.07442874
0.9951866,-0.01639686,0.00876683
0.857837,-0.001692632,-0.01421184
0.6873857,-0.04197573,-0.002524378
0.5509451,-0.07185211,0.03143021
0.5543865,-0.09787022,0.09916908
0.5626423,-0.2077188,0.1680991
0.5578038,-0.2503949,0.2059866
0.6697149,-0.2770503,0.2285086
0.7961178,-0.2872536,0.2390515
0.8529034,-0.2288297,0.2543112
0.8650381,-0.2000204,0.2925004
0.8895862,-0.1025678,0.3328862
0.9791062,0.04759094,0.3345307
1.088786,0.1205725,0.2444887
1.226602,0.08238292,0.1545965
1.342517,-0.09524598,0.2143697
1.47724,-0.2386198,0.3604138
1.613269,-0.2073228,0.4383494
1.494699,-0.1920144,0.3338112
1.30306,-0.3493411,0.1051448
1.179986,-0.4501954,0.01174122
0.9953242,-0.3464656,0.04089491
0.7659872,-0.1880177,-0.02032561
0.5526183,-0.0340262,-0.08577825
0.7434489,-0.02109483,-0.03698135
1.054172,-0.07637289,0.04427437
0.9685235,-0.04270471,0.09423662
1.028325,-0.2006578,0.08135188
1.141348,-0.3676101,0.0251815
0.9964155,-0.2368114,0.01088114
0.886501,-0.09108008,0.009039659
0.7615675,-0.004752074,-0.04524822
0.7924279,0.02768496,-0.08994212
0.9048876,-0.03333464,-0.09903763
0.8684144,-0.049547,-0.1153853
0.9011093,-0.05114536,-0.1390181
0.8989279,-0.05537122,-0.1522503
0.9120003,0.004457441,-0.1637992
0.9931069,0.07397559,-0.1769905
0.9740643,0.1082755,-0.145587
1.000115,0.1097038,-0.09756357
1.02968,0.08399881,-0.07082857
1.030477,-0.005260901,-0.0239998
1.073949,-0.1631292,-0.01519533
1.075751,-0.2278207,-0.09297169
1.095408,-0.1140665,-0.1621843
1.143812,-0.02602273,-0.1488971
1.18009,-0.0775229,-0.1565643
1.22178,-0.1044814,-0.2613081
1.276447,-0.1035298,-0.3155081
1.353089,-0.2118648,-0.3146962
1.354405,-0.3545586,-0.3268595
1.27025,-0.4078867,-0.1766405
1.212468,-0.3648526,0.08066947
1.221223,-0.2835844,0.1298727
1.248504,-0.1425319,0.03693678
1.220289,0.03150418,0.03242067
1.157384,0.001874295,0.03349848
1.020337,-0.1084511,0.001347439
0.801785,-0.07150365,0.0150048
0.645948,-0.06279505,0.03430205
0.5738609,-0.04872423,0.08599525
0.6166817,-0.01788217,0.147674
0.6939359,-0.0698695,0.1591285
0.6629565,-0.0712537,0.1913478
0.7018039,-0.1023629,0.2210514
0.7658762,-0.1509208,0.2428771
0.7281533,-0.1327271,0.2903311
0.7599732,-0.1531265,0.3159164
0.7984642,-0.1182712,0.3598695
0.8255212,-0.08200439,0.39461
1.021814,-0.1253924,0.3015524
1.330702,-0.156943,0.1161779
1.589944,-0.2155046,-0.0005428275
1.69988,-0.2262232,0.08081985
1.69725,-0.1532543,0.288273
1.711648,-0.1065706,0.4220831
1.655606,-0.1627759,0.3636474
1.221732,-0.3664419,0.1771461
0.7122196,-0.5420698,0.07897966
0.7862872,-0.4907251,0.1037944
0.9865835,-0.3187483,0.05487283
0.9255122,-0.1908756,-0.1166874
1.071078,-0.109646,-0.1946866
1.098366,-0.1668059,-0.03784087
0.935471,-0.3229315,0.09686683
1.044564,-0.3385404,0.03835307
0.9807533,-0.2882584,-0.02026104
0.7576878,-0.1624829,-0.03753913
0.7388899,0.02346293,-0.06285517
0.8017639,0.06284735,-0.09616285
0.9838338,0.1270126,-0.153649
1.001648,0.1493079,-0.1284881
0.8924391,0.03857956,-0.05724404
0.9462614,0.05704064,-0.06241024
0.9308246,0.08148684,-0.06350374
0.9576274,0.08285848,-0.04935779
0.9799921,0.156814,-0.04645463
0.9063568,0.1588964,-0.02285402
0.9413579,0.1467129,-0.02919526
0.958107,0.1134947,-0.03402269
1.051545,-0.02258397,-0.02235063
1.165157,-0.13942,-0.07361202
1.129496,-0.1752483,-0.1398235
1.14326,-0.1519284,-0.1631051
1.160721,-0.1396659,-0.1486099
1.18666,-0.1616639,-0.1555176
1.271744,-0.1620016,-0.246197
1.344274,-0.2101022,-0.337392
1.370804,-0.3155992,-0.352768
1.264081,-0.380166,-0.3048476
1.136151,-0.3942276,-0.1766226
1.098392,-0.3506591,0.02320879
1.155565,-0.2396525,0.1068359
1.226005,-0.08022,0.02978805
1.158473,0.02862102,0.02499229
1.042115,-0.0042884,0.02841107
0.9049896,-0.05112003,-0.02440213
0.795267,-0.04818864,0.01064752
0.7773107,-0.05794646,0.03660292
0.6910043,-0.05882922,0.08273564
0.6890453,-0.0966496,0.163968
0.7824018,-0.1499307,0.1462637
0.7300587,-0.1289563,0.1487491
0.7504573,-0.1194577,0.1681931
0.8211775,-0.1399279,0.1518949
0.7677298,-0.1454701,0.1756585
0.7766477,-0.186446,0.2258735
0.7834633,-0.2170893,0.2934691
0.7433843,-0.1680627,0.3175704
0.777345,-0.09155207,0.3201013
0.9066098,-0.06517628,0.3074496
1.180797,-0.1213717,0.1547093
1.419161,-0.1685139,0.07044112
1.599819,-0.09855459,0.2766204
1.829828,-0.03386631,0.459421
1.771116,-0.1016818,0.3115587
1.474455,-0.2451,0.1246236
1.197346,-0.4211968,0.1045789
0.8071521,-0.4774542,0.01826442
0.6485417,-0.3175206,-0.02187472
0.8739395,-0.1606245,-0.03087594
1.009769,-0.1116852,-0.1715865
1.062573,-0.1812509,-0.05933129
1.054733,-0.3363737,0.1323602
0.9516606,-0.3689984,0.05929627
0.9404285,-0.30433,0.02940263
0.8622141,-0.2095378,-0.01064926
0.779781,-0.07310974,-0.08052074
0.8217529,-0.031966,-0.04391653
0.8311055,-0.01618345,-0.08391144
0.874056,0.04410243,-0.1232368
0.8880222,0.01725804,-0.09924087
0.8983499,-0.02827607,-0.1093982
1.015967,0.0228238,-0.107263
1.028813,0.09534039,-0.07533376
0.9726113,0.1540142,-0.02384248
0.9585198,0.2264222,-0.01475631
0.9506492,0.2321079,-0.03630286
0.9884382,0.1636436,-0.0246671
1.035137,0.03709226,-0.0202084
1.070583,-0.1566707,-0.02489274
1.08232,-0.2012878,-0.06543706
1.106579,-0.06237609,-0.1160171
1.179463,-0.003661143,-0.08442348
1.188174,-0.09423438,-0.0503761
1.193356,-0.1708616,-0.09094312
1.249866,-0.1400397,-0.1914206
1.260421,-0.1647429,-0.334444
1.261232,-0.2655204,-0.3893429
1.215476,-0.3145468,-0.2782626
1.133389,-0.4023209,-0.07420988
1.210234,-0.4268417,0.1171527
1.406864,-0.2183043,0.07275844
1.515376,0.009055804,-0.06358201
1.391443,0.05428331,0.02409874
1.083357,0.002049728,0.02209935
0.8420228,-0.007394212,-0.0559546
0.6683696,-0.01334491,0.02784266
0.5180151,-0.04424197,0.01609873
0.5619781,-0.05562207,0.08523529
0.633649,-0.1313847,0.2287901
0.580195,-0.2088441,0.166014
0.6311696,-0.2151392,0.1881808
0.7603075,-0.2471066,0.2763133
0.8355518,-0.2469252,0.2757374
0.9117259,-0.2145428,0.2913172
0.9299577,-0.1778272,0.3040315
0.9047903,-0.06338372,0.3120792
0.9212113,0.03350049,0.2822323
0.9552045,0.01343646,0.2371003
1.110501,-0.1232165,0.1589339
1.3419,-0.2612907,0.07417209
1.433574,-0.2338215,0.2014225
1.523559,-0.1116702,0.3497167
1.665504,-0.06519866,0.2750533
1.580882,-0.1788488,0.1955971
1.284612,-0.3957225,0.1249804
0.9778793,-0.4827944,-0.02410819
0.7568655,-0.3489515,-0.005145595
0.723652,-0.1759078,0.05001313
0.9092359,-0.03650636,-0.07932955
1.140548,0.06477366,-0.07956044
1.080293,-0.08611872,0.02439669
0.9309334,-0.3490415,0.07069414
1.001895,-0.3354137,0.1113343
0.8767591,-0.2391368,0.02975839
0.6981494,-0.1940775,-0.03267189
0.7357668,-0.0579842,-0.0360967
0.727631,-0.03117342,-0.1064167
0.8470543,-0.09228588,-0.109598
0.9312798,-0.06539742,-0.1029034
0.9296347,-0.034488,-0.1318378
1.051308,0.04266588,-0.1345343
0.9981633,0.1400398,-0.1171181
0.977579,0.1711878,-0.07406308
1.027791,0.1807175,-0.08198379
0.9658845,0.1454959,-0.09017964
1.009396,0.07783626,-0.06607958
1.025169,-0.01529637,-0.05890729
1.038708,-0.1348449,-0.03805757
1.104033,-0.1675219,-0.07551298
1.13828,-0.04512605,-0.157383
1.220457,0.05634997,-0.186647
1.221713,-0.09382604,-0.169776
1.20544,-0.2464052,-0.1631656
1.240848,-0.1764312,-0.2433283
1.255042,-0.2088285,-0.3559386
1.287798,-0.3546573,-0.3715983
1.214231,-0.4005792,-0.2277618
1.133067,-0.4661546,-0.02913865
1.228295,-0.466295,0.04186807
1.328436,-0.2905083,0.05046904
1.331189,-0.07716951,0.06383299
1.270745,0.1132445,0.03642162
1.113728,0.1455302,0.03765605
0.8918164,0.05159034,0.03788337
0.736634,0.02858982,0.02036598
0.6275778,-0.00710076,0.07514117
0.5573977,-0.04639311,0.1397318
0.5964516,-0.05457655,0.1618666
0.5755157,-0.1145088,0.1621632
0.5369272,-0.1607271,0.1781063
0.6587874,-0.2190403,0.2396521
0.7712502,-0.2598121,0.264502
0.8386022,-0.2197966,0.2560313
0.9159194,-0.1906589,0.2816376
0.9508356,-0.102745,0.3179887
0.98997,0.02001602,0.3121894
1.096166,0.008475471,0.2050505
1.262951,-0.1181944,0.09917299
1.341231,-0.2543121,0.1520435
1.418166,-0.2725491,0.2966291
1.625398,-0.1864987,0.3719302
1.656924,-0.1727185,0.296955
1.412365,-0.2786124,0.161912
1.012733,-0.3737001,0.1090326
0.6966292,-0.3393342,0.08753694
0.7444677,-0.2295818,0.03776162
0.9289755,-0.08542915,-0.0371
1.047165,0.05365323,-0.1399081
1.044362,0.006251843,-0.1015422
0.9694172,-0.1106841,0.01725456
1.019892,-0.1942202,0.03253699
0.996875,-0.3711499,0.1078138
0.9149031,-0.3154691,0.09699797
0.8912728,-0.07760705,-0.04599064
0.8066071,-0.05277715,-0.02170416
0.8398784,0.02696375,-0.04830589
0.8750019,0.0797995,-0.1088306
0.8215546,-0.002604403,-0.03592898
0.8700367,0.04696094,-0.05824383
0.8923432,0.00966295,-0.07166635
0.9419966,-0.01479767,-0.05512555
1.001291,0.09859004,-0.09367192
0.9526801,0.1269767,-0.07739628
0.9667302,0.1653984,-0.09238729
0.9864818,0.1391369,-0.1032283
0.9832497,0.0482627,-0.07552063
1.027393,-0.03857481,-0.09588765
1.076152,-0.1423796,-0.1547498
1.193061,-0.09317213,-0.2327897
1.30857,-0.09067317,-0.2026495
1.320933,-0.1812876,-0.1464555
1.308974,-0.1735754,-0.2008197
1.352183,-0.1942573,-0.2716143
1.42388,-0.2299666,-0.4257906
1.396881,-0.3269206,-0.5063338
1.246129,-0.4829564,-0.2460501
1.100864,-0.5225821,0.04750869
1.112535,-0.4623491,0.09746834
1.215183,-0.2908867,0.07773735
1.202937,-0.07995643,0.06754179
1.108511,0.04278205,-0.006151274
0.9775737,0.02375902,-0.03689387
0.8088727,-0.05528252,0.004477205
0.6647784,-0.02295523,0.02592764
0.5792403,-0.02861149,0.1182093
0.6252238,-0.07291473,0.2298974
0.6469677,-0.05091013,0.2259442
0.6013446,-0.07490574,0.2003463
0.6963203,-0.05947272,0.193466
0.7838517,-0.07007946,0.1966604
0.8061948,-0.1429125,0.2219862
0.8160239,-0.156856,0.2505585
0.7817007,-0.1833817,0.2949989
0.8143,-0.122994,0.3544378
0.8602946,0.001387844,0.3951219
1.03917,0.0368158,0.3127712
1.359091,-0.02252782,0.1139557
1.432802,-0.1678086,0.04063558
1.410427,-0.2097531,0.2374101
1.503592,-0.1374785,0.438106
1.506445,-0.1250418,0.3326003
1.399331,-0.2178417,0.2053947
1.156795,-0.313772,0.2147213
0.7655828,-0.2139744,0.1071819
0.6599545,-0.1516897,0.0304329
0.9784485,-0.3453325,-0.177729
1.196914,-0.4786261,-0.5623545
1.163623,-0.4097742,-0.3986397
1.044329,-0.3131336,0.04437806
0.9221465,-0.279749,0.1689499
0.9579081,-0.2340544,0.1246711
0.9693992,-0.1474976,-0.04253339
0.8471511,-0.05160224,-0.06349562
0.809124,0.006253581,-0.004945388
0.8379031,-0.08942727,-0.0940331
0.8866279,-0.1882543,-0.02036738
0.9148513,-0.1338197,-0.01293921
0.9046762,-0.04656914,-0.08594689
0.9378977,0.05766042,-0.05269803
0.96087,0.1340906,-0.1332827
0.9494504,0.1384992,-0.08794416
0.9414169,0.1795555,-0.02707642
0.9577355,0.1950137,-0.09112841
0.9873196,0.12627,-0.04528751
0.9862564,0.04783663,-0.05730583
0.9888405,-0.09149585,-0.06127843
0.9982747,-0.2083362,-0.05235349
1.035803,-0.1776773,-0.1177317
1.141041,-0.1293254,-0.118456
1.235335,-0.07841715,-0.1418138
1.251288,-0.0488763,-0.1508464
1.234817,-0.07695703,-0.1666695
1.278759,-0.06277707,-0.2488517
1.308542,-0.1369014,-0.2871814
1.254946,-0.2538033,-0.3182545
1.210571,-0.2627166,-0.2664658
1.174873,-0.3214442,-0.1130634
1.181028,-0.3411,0.001130592
1.248397,-0.1868736,0.03183378
1.269898,-0.04396847,0.001609435
1.203813,0.01074946,0.01589196
1.069767,0.05504999,0.04051325
0.9733161,-0.008157637,0.02127727
0.9151048,-0.173078,0.03082385
0.8163741,-0.1484227,0.04310781
0.7409121,-0.07117774,0.08535235
0.6700273,-0.1248436,0.1679553
0.5969814,-0.09574875,0.183796
0.5804525,-0.09529802,0.178017
0.5997416,-0.1390785,0.2243455
0.6743199,-0.1060393,0.265273
0.7816625,-0.1297835,0.2814139
0.8430131,-0.1123251,0.3056155
0.8507111,-0.04539727,0.3347666
0.890948,-0.004806523,0.3404269
1.029537,0.0301529,0.2616277
1.143288,-0.007301595,0.1573557
1.16597,0.006283122,0.2184125
1.3513,0.04792546,0.3852764
1.724165,0.01144331,0.452207
1.721987,-0.1101394,0.3263965
1.240163,-0.3734162,0.06799871
0.8997665,-0.4589973,-0.03029271
0.932017,-0.251705,0.01739081
1.059116,-0.08973322,-0.04341962
1.042861,-0.06833225,-0.07424666
1.027575,-0.1827239,0.03064971
1.095042,-0.3263128,0.1521375
1.042849,-0.3465208,0.1614908
1.013935,-0.2991033,0.05051674
0.9581062,-0.2230181,-0.001926738
0.7621919,-0.1136168,0.008809316
0.7169017,-0.03277451,0.005860721
0.8031468,-0.02462418,-0.03589973
0.8945289,0.001467582,-0.09530449
0.8770165,0.04378205,-0.0742511
0.8139894,0.02396889,-0.07646658
0.876829,0.05843771,-0.129354
0.9021632,0.1070743,-0.1323112
0.966734,0.1079076,-0.1211932
1.017411,0.1573933,-0.08986939
0.973911,0.1504321,-0.04900588
1.046005,0.09857455,-0.006451686
1.05587,0.05995997,0.01664129
1.057503,-0.0384885,-0.05150124
1.148615,-0.06398673,-0.169649
1.180142,0.004303568,-0.2537383
1.252263,0.02601817,-0.2319448
1.245881,-0.03276557,-0.1979832
1.187479,-0.1133018,-0.2469085
1.221023,-0.1158441,-0.250236
1.190043,-0.1526279,-0.2350949
1.141781,-0.2883133,-0.210762
1.120908,-0.3432264,-0.05247394
1.198704,-0.284182,0.06783869
1.431791,-0.1899617,0.01141025
1.513924,-0.09465352,-0.02724372
1.355223,-0.03489188,0.05305849
1.170689,-0.04035969,0.08524307
1.045884,-0.07251725,0.02298498
0.8689055,-0.07319926,0.0078218
0.6330638,-0.04842042,0.0408438
0.5316018,-0.02341142,0.09542726
0.5225377,-0.07185109,0.1497594
0.5306759,-0.1536633,0.1463784
0.5789414,-0.1725665,0.1421536
0.6377685,-0.2191076,0.1550281
0.7640269,-0.2588062,0.1838209
0.8315922,-0.2285353,0.2440782
0.8065749,-0.213036,0.2912989
0.8541254,-0.1471389,0.3241773
0.9182769,-0.02578558,0.3313814
1.085323,0.01401646,0.2521124
1.34966,-0.01371535,0.08411335
1.425622,-0.01489272,0.02497465
1.421967,0.01030404,0.2210095
1.528884,-0.003764589,0.3833327
1.535383,-0.09360993,0.2840936
1.335855,-0.263409,0.1824649
1.053112,-0.4034144,0.1636951
0.7882856,-0.3941279,0.03258114
0.7816775,-0.3182295,-0.03617663
0.9548571,-0.2172103,-0.03228225
0.9705787,-0.1004241,-0.1410883
0.9990919,-0.1112006,-0.04546036
1.070687,-0.249127,0.1413625
1.04444,-0.3642411,0.08364409
1.038588,-0.3641444,0.05277251
0.9580983,-0.2942424,0.0454765
0.8394629,-0.2095366,-0.01490844
0.8321005,-0.04803823,-0.0372877
0.8614842,0.05480989,-0.1005931
0.9010897,0.007516321,-0.1086939
0.9255972,0.01517182,-0.09060197
0.8948649,0.03687519,-0.112646
0.8475667,0.01911129,-0.09354016
0.9091607,0.07500873,-0.1003442
0.9837165,0.1261171,-0.08647766
0.9244601,0.1729948,-0.03920694
0.9209649,0.2331248,-0.0174402
0.9663503,0.2250974,0.01803243
0.9890922,0.162953,0.01667913
1.068985,0.06944265,-0.02625117
1.123204,-0.018674,-0.09198157
1.14014,-0.1004856,-0.1409355
1.158387,-0.1064573,-0.1222794
1.190546,-0.0394181,-0.1431007
1.242921,-0.1122167,-0.2268211
1.296818,-0.2009012,-0.2930358
1.354203,-0.212039,-0.3345245
1.331307,-0.3187549,-0.3428486
1.246676,-0.371226,-0.2204407
1.18639,-0.3014473,0.0007075735
1.185369,-0.2664472,0.06022501
1.261212,-0.2326967,0.01172685
1.27218,-0.113714,0.06297299
1.169105,0.01829282,0.08905034
1.037529,0.02580782,0.05830788
0.9233339,-0.01000158,0.04529199
0.8226289,-0.0007233734,0.01781757
0.6858124,-0.009805342,0.02937271
0.6173614,-0.03436525,0.07278325
0.6162926,-0.07813312,0.09427721
0.5984377,-0.1069059,0.1452339
0.6654166,-0.1136259,0.1852319
0.7607271,-0.1570248,0.1755327
0.8016476,-0.1760612,0.2066451
0.8016641,-0.1625019,0.268074
0.7894964,-0.1583434,0.2991473
0.8273227,-0.1128073,0.321292
0.8589037,-0.002458521,0.3321517
0.9575352,0.06314612,0.2647293
1.18618,-0.05087379,0.09986087
