accx,accy,accz
0.9205844,-0.3370832,-0.04280155
0.9177687,-0.3270948,-0.02366342
0.9177607,-0.2871915,-0.02014831
0.9044856,-0.2775289,-0.02677534
0.9065326,-0.2385521,-0.01535912
0.9283839,-0.2449008,-0.0156042
0.9537066,-0.2528243,-0.005956072
0.9554253,-0.2003173,0.0281968
0.9295528,-0.1610009,0.03830128
0.9082529,-0.1150096,0.04742757
0.8918631,-0.09673261,0.05881041
0.8872788,-0.08422988,0.04862737
0.8987884,-0.05009221,0.03251047
0.9231964,-0.0637743,0.01915986
0.9778622,-0.08525383,0.01134131
1.036761,-0.1212337,0.006613329
1.067639,-0.1451407,0.0003240752
1.090454,-0.1177399,-0.01030286
1.125224,-0.1094661,-0.003796465
1.193174,-0.09161916,-0.003221789
1.339783,-0.08529442,-0.08081235
1.476066,-0.1776574,-0.1766625
1.435075,-0.3669885,-0.1916691
1.298526,-0.5145984,-0.145539
1.132689,-0.4410532,-0.05332752
0.923827,-0.3094408,0.04103411
0.891655,-0.2825,-0.02000234
0.9375024,-0.2538661,-0.1792165
0.8690783,-0.2929287,-0.2474284
0.9327161,-0.4061246,-0.3103154
1.023469,-0.4801297,-0.3403608
0.973612,-0.5128234,-0.2458255
0.94089,-0.4251542,-0.1806268
0.8649684,-0.2963143,-0.1405348
0.8192016,-0.2299994,-0.1352049
0.8611882,-0.1773669,-0.1945875
0.8652812,-0.1833627,-0.2145653
0.9045558,-0.1779202,-0.2422388
0.925096,-0.1493425,-0.241156
0.8977675,-0.1552323,-0.2152272
0.9093882,-0.1379934,-0.2346003
0.9089602,-0.1702009,-0.2117547
0.9381756,-0.2238123,-0.1999725
1.00029,-0.2398594,-0.1985203
1.009492,-0.2452239,-0.1670705
0.983206,-0.1900533,-0.1582316
0.9682297,-0.1331781,-0.1241162
0.9792535,-0.1092266,-0.1000391
0.9815698,-0.1102646,-0.09234818
0.9753346,-0.1318703,-0.07498861
0.9777426,-0.1287274,-0.1083504
0.9747574,-0.1444785,-0.147936
0.9868739,-0.1618072,-0.1638345
1.006827,-0.1647237,-0.1711799
1.040121,-0.1694532,-0.1610248
1.146839,-0.1493734,-0.1299862
1.261392,-0.1488051,-0.08721873
1.274357,-0.1603969,-0.07437564
1.303575,-0.1895406,-0.05403916
1.379343,-0.2351059,-0.0351655
1.265222,-0.2250043,-0.1517832
1.080316,-0.2361869,-0.3214915
1.092908,-0.3419925,-0.33062
1.133244,-0.4916953,-0.2642533
1.102351,-0.572322,-0.2391807
1.056578,-0.5150905,-0.1379795
0.9434551,-0.415187,-0.03113636
0.8665646,-0.2746319,-0.04881974
0.8895067,-0.1244744,-0.09848355
0.9293073,-0.1409487,-0.1514045
0.9592845,-0.2239999,-0.1738839
0.9196982,-0.2808968,-0.1289786
0.8418571,-0.3676328,-0.09570396
0.8306759,-0.3544226,-0.0702343
0.8476542,-0.28433,-0.04475737
0.8537955,-0.2692062,-0.03988022
0.8608848,-0.2389927,-0.01631243
0.8593178,-0.2365135,0.01377025
0.859691,-0.2197939,0.01637134
0.864192,-0.1594223,0.01484176
0.8625872,-0.146491,0.02637071
0.8633876,-0.1136153,0.02148978
0.8823814,-0.07619433,0.0003069832
0.9429235,-0.07901698,-0.01035153
1.029118,-0.09925283,-0.02122662
1.075935,-0.1722799,-0.05336968
1.076796,-0.2233627,-0.09462158
1.0918,-0.1883284,-0.07491963
1.157479,-0.06772267,-0.01593534
1.262927,0.07877669,-0.02610092
1.371995,0.08005015,-0.1198844
1.451426,-0.08506695,-0.2634867
1.407869,-0.339,-0.3098881
1.189282,-0.5967135,-0.1899257
0.9513245,-0.6670755,-0.0802819
0.8310591,-0.5448058,-0.0357232
0.8383518,-0.4185771,-0.05027267
0.8545886,-0.2993002,-0.1018497
0.8203149,-0.242787,-0.1135881
0.9380341,-0.3679225,-0.1798284
1.071626,-0.4853872,-0.2511966
0.9911822,-0.4730524,-0.1938885
0.9100944,-0.3855547,-0.1498684
0.8459917,-0.2407657,-0.1947136
0.7774453,-0.1730797,-0.2215273
0.80632,-0.1793105,-0.213183
0.8208207,-0.1678469,-0.239525
0.8449519,-0.1896338,-0.2625744
0.9174627,-0.217687,-0.2410711
0.9285489,-0.2269196,-0.2162282
0.9083411,-0.2143749,-0.1627916
0.9126247,-0.1697289,-0.126114
0.9177213,-0.1398735,-0.1398722
0.9326208,-0.1137479,-0.1281326
0.9622827,-0.1013579,-0.1159384
0.960618,-0.1254109,-0.1148283
0.9444039,-0.1576046,-0.1082224
0.9595238,-0.1953444,-0.1178947
1.005542,-0.2214829,-0.1319708
1.07029,-0.2256133,-0.1475694
1.101567,-0.1890982,-0.1407313
1.130525,-0.1040555,-0.1131868
1.245708,-0.06857896,-0.09214153
1.398004,-0.1530016,-0.06579192
1.478237,-0.3056082,-0.08068529
1.386905,-0.4150616,-0.1778659
1.166071,-0.422511,-0.3002437
1.038075,-0.4083467,-0.357876
1.089129,-0.4377445,-0.3298287
1.137639,-0.4521051,-0.2588557
1.008526,-0.4346869,-0.1619118
0.8458116,-0.4050971,-0.1155261
0.7858323,-0.3301572,-0.1109624
0.7526987,-0.2629462,-0.04322541
0.77348,-0.2544034,-0.03262227
0.7903309,-0.2635735,-0.07991999
0.7985371,-0.3087767,-0.06605936
0.8940608,-0.3619454,-0.09037584
0.9253761,-0.3538709,-0.1040603
0.8974585,-0.3011662,-0.06122225
0.8812961,-0.2311342,-0.03917888
0.8466511,-0.1840537,9.200586e-05
0.8708426,-0.1706409,0.0055622
0.8897042,-0.1541256,-0.01009622
0.8696038,-0.1351035,0.01316615
0.8681704,-0.1235584,0.02030168
0.8560909,-0.08540399,0.04611431
0.8586118,-0.03242287,0.07136588
0.919025,-0.05614959,0.03885642
1.011294,-0.1179076,-0.005929084
1.0809,-0.1843523,-0.05558367
1.158928,-0.3034025,-0.1104756
1.208991,-0.2892892,-0.1110819
1.25887,-0.1036768,-0.09291427
1.51867,0.0008702091,-0.1738792
1.715337,-0.02978175,-0.2433063
1.539617,-0.2035609,-0.1943893
1.229522,-0.5070779,-0.1438345
0.9543688,-0.6820407,-0.09836637
0.8344824,-0.5348209,-0.05025246
0.7975421,-0.2942364,-0.02854755
0.7204848,-0.2302103,-0.04791757
0.8671189,-0.2155135,-0.1718262
1.035668,-0.2984358,-0.3082059
1.03203,-0.5235836,-0.342085
1.073377,-0.5734238,-0.262561
0.9782643,-0.497416,-0.1590653
0.848327,-0.3824321,-0.1673421
0.8248445,-0.2079402,-0.2030112
0.771624,-0.1572239,-0.2168837
0.8293516,-0.1788251,-0.2515917
0.8776508,-0.1931906,-0.2538683
0.8828246,-0.1983238,-0.2602564
0.8994309,-0.1736251,-0.2562722
0.8351746,-0.1527301,-0.2174945
0.8642603,-0.1356697,-0.2120245
0.9059459,-0.1429752,-0.1990847
0.9285631,-0.1097342,-0.1640617
0.9924515,-0.0439608,-0.1377181
0.9712997,-0.01272453,-0.123957
0.9891612,-0.004228887,-0.123276
0.9946189,-0.0618184,-0.105409
0.9636726,-0.1203622,-0.1074161
1.02286,-0.1472416,-0.1445869
1.068858,-0.1703787,-0.1729401
1.12453,-0.1662578,-0.1778281
1.177325,-0.1780898,-0.1253979
1.218138,-0.2247498,-0.04040459
1.321847,-0.3430411,-0.003369302
1.352558,-0.4307608,-0.07277131
1.233914,-0.344948,-0.2535539
1.059951,-0.2496407,-0.4407579
1.023257,-0.2511355,-0.4913743
1.176694,-0.2986818,-0.371734
1.274597,-0.3916951,-0.2413852
1.16313,-0.4340745,-0.1805137
0.9096428,-0.2973122,-0.08686896
0.704467,-0.08336449,-0.009131801
0.7171144,-0.01092359,-0.03446208
0.8534199,-0.08875563,-0.1253133
0.9050522,-0.2146878,-0.1895645
0.8892269,-0.3408243,-0.1423547
0.881706,-0.3625712,-0.07626377
0.844535,-0.2864663,-0.06701872
0.8294725,-0.2571914,-0.04915542
0.8371561,-0.2152719,-0.02803748
0.8352912,-0.134358,-0.02625315
0.8617287,-0.1350512,-0.02221128
0.8634154,-0.1364962,-0.004079232
0.8669018,-0.1192216,0.02469173
0.8895944,-0.1279722,0.03554933
0.9151728,-0.1034264,0.01371887
1.008549,-0.1142282,-0.01495973
1.115024,-0.1483079,-0.04333896
1.184444,-0.1670346,-0.06557699
1.208843,-0.1927347,-0.05846289
1.214789,-0.1303964,-0.05807001
1.296996,-0.03679651,-0.0995624
1.436942,-0.06628804,-0.2145349
1.521692,-0.3145011,-0.3975277
1.433288,-0.6833603,-0.4497588
1.171054,-0.7571202,-0.2654305
0.8373536,-0.4840969,-0.06500068
0.646863,-0.2473446,-0.03669405
0.7318614,-0.1506561,-0.1078335
0.8508017,-0.1643481,-0.1831162
0.9560036,-0.3278557,-0.2648176
1.057904,-0.4939102,-0.2777956
0.9805681,-0.4981454,-0.2079605
0.9401625,-0.4015144,-0.1925822
0.9129419,-0.2456414,-0.215461
0.7619948,-0.03880264,-0.2153646
0.7845924,-0.02857568,-0.2233277
0.8609555,-0.1677625,-0.2267058
0.8839494,-0.1634081,-0.239487
0.9790825,-0.2049267,-0.2454253
0.9493621,-0.2471703,-0.2208113
0.8800283,-0.1606521,-0.2083919
0.9047175,-0.196105,-0.1932349
0.9041093,-0.168869,-0.1756826
0.9454767,-0.09595225,-0.1626115
0.9834377,-0.136324,-0.1410711
0.9356525,-0.08165102,-0.1214024
0.9141135,-0.07892405,-0.09053457
0.9305759,-0.1187909,-0.0945315
0.969393,-0.1346623,-0.1476562
1.031001,-0.2045494,-0.1811665
1.069134,-0.1575633,-0.1861174
1.110826,-0.1123512,-0.1726197
1.173883,-0.1212952,-0.1331341
1.235007,-0.1466563,-0.05598213
1.317055,-0.265976,-0.01700843
1.376833,-0.3029708,-0.1205608
1.301355,-0.3050556,-0.3007187
1.142127,-0.3588537,-0.4475379
1.070577,-0.3813167,-0.4658099
1.117407,-0.4325277,-0.3317547
1.147057,-0.4717525,-0.1795703
1.035568,-0.435114,-0.07731735
0.8764598,-0.339578,-0.04904448
0.8134848,-0.2048709,-0.09337998
0.829121,-0.1381184,-0.1280362
0.8879901,-0.210714,-0.1735995
0.9235578,-0.3085234,-0.2033088
0.8964966,-0.3606047,-0.1516582
0.8466139,-0.3976791,-0.09451744
0.7920661,-0.3451818,-0.04944852
0.7900677,-0.2643677,-0.01139854
0.8243062,-0.2325364,-0.005794768
0.8415184,-0.1866675,-0.007183766
0.8573333,-0.1770313,-0.009289548
0.8494235,-0.1515913,0.005480342
0.8400417,-0.1042619,0.0285145
0.8541931,-0.1037379,0.02865354
0.8762169,-0.06137567,0.026081
0.9337325,-0.03858298,0.008694219
1.020182,-0.08361974,-0.03530821
1.102797,-0.1638754,-0.07476349
1.169799,-0.270861,-0.07616115
1.218894,-0.2676422,-0.02678275
1.264149,-0.1189045,-0.0001395751
1.333047,0.06780472,-0.08992297
1.441295,0.09018142,-0.2527038
1.489421,-0.2126108,-0.3427417
1.322377,-0.6034125,-0.2995564
0.9988296,-0.704435,-0.1603153
0.766596,-0.5283575,-0.02468485
0.7665058,-0.3726183,-0.04459192
0.8738079,-0.285284,-0.1558459
0.9371625,-0.2488961,-0.2119795
1.020511,-0.38864,-0.2577366
1.062393,-0.5424204,-0.2428733
0.9703083,-0.5459444,-0.1745532
0.9003525,-0.4425393,-0.1777154
0.8329901,-0.2744382,-0.1797438
0.7609721,-0.1858629,-0.1900872
0.7896032,-0.1744298,-0.2272422
0.8319779,-0.1598568,-0.2352859
0.9028081,-0.1741016,-0.267887
0.9528439,-0.1718376,-0.2605822
0.8877178,-0.1662187,-0.2239706
0.8614543,-0.1688286,-0.2102873
0.9079155,-0.1520672,-0.1646932
0.9552342,-0.1407099,-0.1555327
0.9804065,-0.1050631,-0.1408998
0.9706251,-0.07635142,-0.0896684
0.9615357,-0.08900711,-0.0731805
0.9503513,-0.1140807,-0.05753985
0.9355095,-0.1571159,-0.08070225
0.9440204,-0.1826367,-0.1169405
0.9927236,-0.1841203,-0.1247596
1.081447,-0.1995022,-0.1625975
1.153115,-0.1969734,-0.1616059
1.177204,-0.1594483,-0.09540724
1.239682,-0.1464638,-0.03725194
1.336373,-0.2126547,-0.03144652
1.336059,-0.3482827,-0.106426
1.277866,-0.431666,-0.2250022
1.160813,-0.3665411,-0.3453571
1.01247,-0.3158655,-0.4138351
1.104341,-0.3886457,-0.3615534
1.261166,-0.4397351,-0.256456
1.187011,-0.4457263,-0.1614022
1.029409,-0.4237246,-0.05826555
0.8164937,-0.2997417,-0.02739113
0.6930982,-0.14351,-0.0641139
0.788755,-0.09536581,-0.07668796
0.8327087,-0.2080611,-0.1037462
0.8625063,-0.367703,-0.1127846
0.9074655,-0.414297,-0.08062693
0.8354155,-0.357802,-0.07311561
0.836481,-0.2813421,-0.04668161
0.86413,-0.2350437,-0.01722396
0.846569,-0.1844962,-0.01073717
0.8818249,-0.1364963,0.009855853
0.8544396,-0.1406824,0.01232438
0.8270645,-0.1059237,0.02191916
0.8490384,-0.05790987,0.03581004
0.8714198,-0.04499104,0.01334352
0.9721665,-0.0307632,-0.004609049
1.074068,-0.09678377,-0.03308812
1.141728,-0.1759817,-0.08038004
1.192915,-0.1868146,-0.09186664
1.21371,-0.1496409,-0.04426875
1.279517,-0.01850989,-0.02204175
1.423055,0.05693221,-0.177436
1.575869,-0.1706925,-0.4091968
1.50462,-0.6045222,-0.4421546
1.187811,-0.788132,-0.2705801
0.8616869,-0.6199346,-0.09648555
0.6662323,-0.4371171,-0.03577621
0.7373645,-0.2664595,-0.06570899
0.8830962,-0.1607391,-0.1276838
0.950481,-0.2769301,-0.2116312
1.053685,-0.4154426,-0.2690839
1.007038,-0.5055379,-0.239297
0.9373128,-0.5441363,-0.2081582
0.9363915,-0.4160722,-0.211505
0.7915596,-0.2675325,-0.1926221
0.7596111,-0.1852215,-0.2042604
0.8245491,-0.1555627,-0.2393754
0.8728057,-0.1903655,-0.2712875
0.9867461,-0.1745076,-0.3072233
0.9490687,-0.1870642,-0.2747169
0.8822568,-0.2401992,-0.2258328
0.8995565,-0.2090643,-0.1970424
0.8872614,-0.1828914,-0.1556204
0.9365883,-0.1202983,-0.1566205
0.9704882,-0.05654254,-0.1377283
0.9559397,-0.06947745,-0.08393777
0.9519222,-0.04976686,-0.07244998
0.9387937,-0.06988075,-0.07638216
0.9567718,-0.1066088,-0.1074259
0.9865534,-0.1139337,-0.1402443
1.05882,-0.1772443,-0.1293108
1.169568,-0.2218886,-0.1262645
1.188624,-0.2147757,-0.1210285
1.191087,-0.2114685,-0.05408762
1.339133,-0.2814543,0.04687587
1.477722,-0.3538102,0.0511661
1.363597,-0.3144738,-0.1237272
1.07445,-0.2822729,-0.3732862
0.8618062,-0.2796993,-0.4782896
0.9398577,-0.279068,-0.3801186
1.177621,-0.3367094,-0.2803572
1.208203,-0.4148794,-0.212706
1.052096,-0.4417943,-0.09849885
0.8341147,-0.3115281,-0.08624838
0.6836402,-0.1127088,-0.1400999
0.746062,-0.07479552,-0.1274041
0.7951567,-0.1341749,-0.1282612
0.8072154,-0.1863295,-0.1136635
0.8405842,-0.3007856,-0.06538845
0.795783,-0.4090612,-0.03992708
0.8219919,-0.3886214,-0.0217504
0.8437954,-0.3131136,-0.02515803
0.8231415,-0.2266453,-0.002601444
0.8597143,-0.1327599,0.03915565
0.8421242,-0.1246353,0.04107294
0.849811,-0.1425138,0.05330619
0.844666,-0.1119188,0.06105753
0.8076031,-0.0860607,0.04258853
0.9042728,-0.05739532,0.01700113
1.018245,-0.06887968,-0.02045511
1.077174,-0.1455237,-0.05043788
1.1024,-0.2094584,-0.05437447
1.166594,-0.2029973,-0.005888717
1.333552,-0.06735904,0.01950346
1.458043,0.07118862,-0.1129563
1.513355,-0.02212084,-0.3157162
1.472007,-0.3609816,-0.3709797
1.271345,-0.7362221,-0.2560405
0.9936819,-0.7865476,-0.1107585
0.773446,-0.5123486,-0.0247726
0.782569,-0.3320927,-0.06437141
0.8665821,-0.2768241,-0.1590726
0.8775584,-0.2607826,-0.1889967
0.9964211,-0.3820307,-0.2411517
1.051,-0.5057663,-0.2524081
0.9405808,-0.5308811,-0.1682894
0.8750122,-0.4246261,-0.1622018
0.790251,-0.229621,-0.1828458
0.7369397,-0.1412211,-0.2005335
0.7830794,-0.1257041,-0.2476158
0.8119451,-0.1499188,-0.2493492
0.8826853,-0.1918308,-0.2599906
0.94261,-0.1787892,-0.2432949
0.9186403,-0.1938219,-0.1898848
0.9100174,-0.1817536,-0.1679936
0.9125262,-0.1353069,-0.1383993
0.92385,-0.1146069,-0.1349805
0.9572468,-0.07390664,-0.1159355
0.9682098,-0.08292018,-0.07770338
0.9609346,-0.1315405,-0.08512956
0.968517,-0.1822494,-0.08169359
1.011235,-0.2267107,-0.1152522
1.088786,-0.1995418,-0.1789515
1.165471,-0.1492608,-0.1858463
1.21556,-0.1215265,-0.1329734
1.294106,-0.198709,-0.02951166
1.400945,-0.4123114,0.01152928
1.405625,-0.5438209,-0.08668113
1.24914,-0.4895199,-0.2610801
1.00968,-0.3707333,-0.3960639
0.9066858,-0.2990789,-0.3975241
1.098537,-0.3162056,-0.3266796
1.295041,-0.405687,-0.256167
1.200711,-0.4848704,-0.1626179
0.9664762,-0.459101,-0.06248071
0.7254035,-0.318814,-0.02185239
0.628171,-0.1372954,-0.04522529
0.7790906,-0.08871888,-0.07287998
0.8578385,-0.2235871,-0.08659717
0.8340482,-0.3382904,-0.08623776
0.8767385,-0.3519762,-0.07276864
0.8719146,-0.3067228,-0.06507925
0.891615,-0.2260063,-0.03890706
0.8884903,-0.1624264,0.005782276
0.8206033,-0.1097168,0.01997823
0.8486905,-0.09761126,0.02333202
0.8342771,-0.1189437,0.04789693
0.8136745,-0.08606527,0.05611618
0.8872029,-0.03947607,0.03706182
0.9518888,-0.02010209,0.01350291
1.037422,-0.04053472,-0.0120206
1.077088,-0.100364,-0.03864585
1.106802,-0.1236534,-0.0647117
1.206307,-0.1212024,-0.04912224
1.279336,-0.1126856,0.02699177
1.353354,-0.09621794,0.041396
1.472812,-0.12146,-0.1337228
1.577432,-0.2317087,-0.3668338
1.391947,-0.4890393,-0.3583338
0.963536,-0.677462,-0.1494556
0.8113677,-0.5133382,-0.05382241
0.850715,-0.3114413,-0.1139754
0.8595798,-0.3309799,-0.1941947
0.9488124,-0.353784,-0.226302
1.006267,-0.4176833,-0.2204606
1.018381,-0.5388978,-0.1664899
0.9791681,-0.4814881,-0.06891097
0.8775197,-0.3591353,-0.07767389
0.8533309,-0.2844212,-0.1264649
0.8341273,-0.1702416,-0.1318882
0.8067384,-0.08944528,-0.2081754
0.8233836,-0.0979689,-0.2163079
0.8634848,-0.1489096,-0.1734587
0.9214209,-0.1470202,-0.207609
0.9214276,-0.1262113,-0.1918091
0.9156301,-0.1565399,-0.1782467
0.9339306,-0.1462465,-0.1756121
0.9263074,-0.1455522,-0.1288519
0.9305057,-0.132969,-0.1231136
0.9398846,-0.05709238,-0.1058485
0.9534767,-0.05870051,-0.08833644
0.9624292,-0.09939214,-0.1113872
0.9696409,-0.1588131,-0.1056791
0.9913449,-0.2265829,-0.1070776
1.025214,-0.2126676,-0.1187846
1.116089,-0.1672365,-0.1153079
1.193678,-0.1205259,-0.1256622
1.255072,-0.1417443,-0.09962542
1.423243,-0.2456785,-0.03071722
1.531292,-0.3885918,-0.01668334
1.399581,-0.5261692,-0.136644
1.17707,-0.4967198,-0.3187929
1.016676,-0.4402834,-0.3557458
1.000549,-0.470676,-0.2670738
1.072099,-0.4138831,-0.2083156
1.016012,-0.3735153,-0.1395789
0.9048054,-0.360691,-0.07927965
0.8265645,-0.2757622,-0.08630237
0.7639276,-0.2341957,-0.08900218
0.8284265,-0.2015973,-0.07874467
0.8455336,-0.1953271,-0.06034251
0.8144698,-0.2668414,-0.03447658
0.8970916,-0.3044354,-0.04390944
0.9133499,-0.3188949,-0.05066851
0.9182691,-0.2975313,-0.03426486
0.9132088,-0.2441717,-0.02773259
0.8429923,-0.2099285,-0.01802371
0.8453939,-0.1535668,0.001325812
0.8137531,-0.1383222,0.02513572
0.7981437,-0.1404418,0.06665868
0.8445639,-0.09750334,0.1010058
0.8580111,-0.07721138,0.06555889
0.9300765,-0.07837657,-0.005024633
1.004576,-0.1433262,-0.02479158
1.040487,-0.2348934,-0.04803471
1.070724,-0.2385259,-0.08430752
1.128849,-0.2099039,-0.04192621
1.2562,-0.1535869,-0.009592837
1.344045,-0.05153118,-0.09148734
1.482227,-0.06719843,-0.238036
1.609629,-0.3437486,-0.3480716
1.365501,-0.6337973,-0.2896113
0.9397194,-0.5722259,-0.1054879
0.7230061,-0.3551833,0.008602157
0.7219612,-0.2723338,-0.02545533
0.8637151,-0.2573325,-0.1413381
1.041215,-0.3719345,-0.2309129
1.118624,-0.5739327,-0.2840675
1.067957,-0.6196651,-0.2563889
0.946225,-0.5106516,-0.1459256
0.8109276,-0.3264696,-0.1107509
0.703981,-0.1841559,-0.1116183
0.7173599,-0.1584775,-0.1314677
0.800789,-0.1768035,-0.2067261
0.8575984,-0.2234173,-0.2283692
0.9276133,-0.2362723,-0.2484823
0.926945,-0.206042,-0.236573
0.8889396,-0.1718027,-0.1699061
0.9139458,-0.1285422,-0.1562661
0.9140856,-0.1120127,-0.1341972
0.9409467,-0.07489684,-0.1357441
0.9747074,-0.05495966,-0.1457492
0.9655665,-0.05677825,-0.1161914
0.9828102,-0.03230387,-0.1180671
0.9634877,-0.08465557,-0.09560447
0.9534917,-0.1607084,-0.09125747
1.000456,-0.2166102,-0.1306791
1.079041,-0.2457229,-0.143086
1.207344,-0.2026323,-0.1353686
1.280323,-0.206165,-0.06002318
1.312088,-0.2695252,0.02702039
1.374926,-0.364054,0.01814614
1.375018,-0.4368469,-0.1061417
1.24005,-0.3898314,-0.3060892
1.069228,-0.3636692,-0.421716
1.073624,-0.3939065,-0.383958
1.192222,-0.3805967,-0.2875537
1.201485,-0.3812226,-0.1857037
1.072504,-0.3837955,-0.08414221
0.8581319,-0.3161666,-0.05263528
0.7214157,-0.200668,-0.07922774
0.7230084,-0.1145935,-0.06600846
0.7331854,-0.1300358,-0.05808221
0.7907961,-0.2334825,-0.06704447
0.8913128,-0.371417,-0.05735491
0.9254413,-0.4611445,-0.05755527
0.9071584,-0.4112596,-0.04085572
0.8508562,-0.2709537,-0.004946809
0.8002568,-0.1349181,0.03873168
0.8100916,-0.08625867,0.05616
0.8520486,-0.1261027,0.03378054
0.8693643,-0.09610661,0.05001708
0.8455722,-0.05131514,0.07629161
0.8384573,-0.04343427,0.0764057
0.8834379,0.0483987,0.05624281
0.9896297,0.05973465,-0.01062012
1.117445,-0.05240162,-0.06674868
1.167345,-0.1633569,-0.08074214
1.152021,-0.2708612,-0.06068715
1.211335,-0.2512375,-0.04993612
1.414934,-0.1715195,-0.1703076
1.651655,-0.204434,-0.3825693
1.721771,-0.4223712,-0.4744294
1.415315,-0.7324292,-0.3336645
0.8922073,-0.7004519,-0.1163396
0.5958025,-0.401508,0.01890556
0.5076867,-0.2302911,0.09783907
0.6159868,-0.1657652,0.02457014
1.001802,-0.2432276,-0.1881557
1.239189,-0.3496736,-0.3180306
1.161186,-0.4067675,-0.3242361
0.9799889,-0.518743,-0.2390778
0.8267594,-0.4584191,-0.1757205
0.7837377,-0.3129737,-0.1777126
0.7629567,-0.2194032,-0.1616582
0.7896776,-0.07854209,-0.2165589
0.8891527,-0.09870552,-0.2805632
0.9349034,-0.1601471,-0.2643085
0.9289481,-0.131011,-0.2399349
0.8875708,-0.1443093,-0.1940128
0.873088,-0.1040841,-0.175491
0.923805,-0.1073336,-0.1529864
0.9954748,-0.1376644,-0.08296186
1.03675,-0.1089744,-0.06307672
0.9924913,-0.1729438,-0.08712094
0.9544174,-0.2290269,-0.1252633
0.9709946,-0.2316828,-0.1550363
1.055081,-0.2211791,-0.157334
1.226724,-0.205002,-0.1377619
1.352926,-0.3072707,-0.0767747
1.429863,-0.473074,-0.02679849
1.471776,-0.5717247,-0.1058612
1.335095,-0.5182314,-0.2510655
1.041657,-0.3820331,-0.2537754
0.8561122,-0.3271719,-0.2066441
1.004915,-0.3412918,-0.2111274
1.24305,-0.4139278,-0.1601403
1.214567,-0.4589976,-0.1343396
1.026557,-0.4163772,-0.0951976
0.7990378,-0.3126593,0.0190692
0.6740998,-0.149609,0.04262686
0.7679015,-0.1329556,0.002041097
0.7978292,-0.2109245,-0.01874781
0.8188767,-0.2383893,-0.03333475
0.9350772,-0.3522747,-0.03943205
0.9045426,-0.3840385,-0.03736194
0.8710361,-0.3100338,-0.01669022
0.8697198,-0.3263356,0.01402971
0.8246056,-0.3005749,0.05243691
0.8691773,-0.2502277,0.07005504
0.8848701,-0.2331259,0.06684881
0.8694459,-0.1629236,0.07785001
0.8809363,-0.09630232,0.06870405
0.871347,-0.04349659,0.03985051
0.9285911,-0.03330611,-0.01364724
1.024447,-0.127855,-0.07953505
1.081191,-0.2464709,-0.09073856
1.081593,-0.2950271,-0.06782014
1.098953,-0.209282,-0.003079179
1.175645,-0.03884332,0.07041396
1.250077,0.05827797,0.002544049
1.480453,-0.02399421,-0.1805573
1.709697,-0.2628264,-0.3276129
1.478476,-0.5389626,-0.3430843
1.034488,-0.7313185,-0.2173815
0.7895377,-0.6694003,-0.09017541
0.6761746,-0.4472928,-0.01979085
0.6676829,-0.3146261,0.04226007
0.7952746,-0.2356663,0.006440544
1.018731,-0.2971357,-0.1199855
1.194376,-0.4427686,-0.2111227
1.129268,-0.4654582,-0.2303976
0.9596382,-0.4400617,-0.1626629
0.801342,-0.2896991,-0.1164818
0.6788999,-0.1497862,-0.1527948
0.7391327,-0.1588897,-0.1739624
0.8393524,-0.1653381,-0.2028083
0.9363581,-0.2432937,-0.2313282
1.037671,-0.2623302,-0.214956
0.9596252,-0.2066536,-0.1911227
0.9054948,-0.1950292,-0.1374158
0.9251039,-0.1320779,-0.08840968
0.8969767,-0.1276613,-0.08180522
0.9448323,-0.1227341,-0.06159114
0.9637794,-0.1113176,-0.0390228
0.9488592,-0.1601718,-0.0412027
0.9758448,-0.1386781,-0.06348479
0.9888453,-0.1427153,-0.09956463
1.073936,-0.1443218,-0.115904
1.161093,-0.1231055,-0.09336729
1.205722,-0.1633686,-0.03794079
1.29141,-0.2152296,0.03506631
1.357164,-0.3338061,0.05849978
1.353972,-0.391608,-0.05748899
1.217309,-0.3115859,-0.2698274
1.026021,-0.282564,-0.4147225
0.9951093,-0.3283275,-0.412635
1.095635,-0.3718283,-0.3487061
1.151617,-0.37825,-0.2961932
1.101929,-0.3955474,-0.1503748
1.030163,-0.4252519,0.03273313
0.9530024,-0.3656691,0.003439977
0.8324273,-0.1667639,-0.08528035
0.7434569,0.02772727,-0.04640311
0.7740059,-0.0663699,-0.07391459
0.8574447,-0.285235,-0.1128585
0.8354788,-0.3420989,-0.04481717
0.8114491,-0.3852065,-0.01804161
0.8495868,-0.3585435,-0.01206914
0.8144168,-0.2177723,0.007676043
0.8232001,-0.1609495,0.009940699
0.8617343,-0.1313066,0.02855895
0.8517868,-0.127876,0.03616914
0.8846581,-0.1337798,0.05577465
0.873968,-0.08873289,0.06172205
0.8820244,-0.07957103,0.02660842
0.9600165,-0.04951817,0.01803778
1.029554,-0.0709501,0.005222899
1.143806,-0.1555658,-0.02174702
1.211368,-0.1872497,-0.04631224
1.233464,-0.2230507,-0.03433572
1.287259,-0.123902,-0.00730349
1.353447,-0.001193594,-0.109675
1.481558,-0.1391221,-0.2651405
1.495612,-0.3856506,-0.3111573
1.19397,-0.5590859,-0.216908
0.7933483,-0.5102318,-0.07421294
0.7110756,-0.3341666,-0.06041403
0.928778,-0.2910261,-0.1435806
1.02641,-0.3155585,-0.2290438
1.007436,-0.4363925,-0.2670033
1.021658,-0.6075453,-0.2143135
0.9938366,-0.5720591,-0.1781423
0.9605958,-0.4012216,-0.175384
0.8883793,-0.2190605,-0.1736098
0.7937996,-0.116221,-0.1923166
0.7678639,-0.1514765,-0.1883523
0.7516485,-0.1540615,-0.198785
0.7869067,-0.1470052,-0.2195945
0.8783863,-0.1987585,-0.209156
0.9300718,-0.2157263,-0.2078213
0.9308516,-0.2320096,-0.1952455
0.8998673,-0.2315491,-0.1589515
0.8928279,-0.1923478,-0.1139567
0.9226297,-0.147371,-0.08250062
0.9581867,-0.08034109,-0.08991862
0.9794449,-0.06900881,-0.08639442
0.9828861,-0.122148,-0.07273183
1.004848,-0.1728505,-0.08747994
1.033525,-0.2089822,-0.1058908
1.057095,-0.1904289,-0.1165234
1.106006,-0.1528404,-0.1115852
1.206875,-0.1551673,-0.07016493
1.334182,-0.2272063,-0.01206237
1.374732,-0.3789426,-0.01761316
1.294733,-0.4516468,-0.1578734
1.137044,-0.3959316,-0.3428891
1.003753,-0.3858977,-0.3878873
1.078197,-0.4254307,-0.3131208
1.255496,-0.4399518,-0.2677945
1.270092,-0.4530648,-0.2219874
1.102809,-0.4125946,-0.1340202
0.8615781,-0.3073385,-0.07823606
0.7685871,-0.2369347,-0.08214001
0.8265419,-0.1774927,-0.1137886
0.7847528,-0.1059646,-0.1046401
0.7966272,-0.1643538,-0.08941506
0.8891914,-0.3299693,-0.104249
0.8345278,-0.4033384,-0.07374491
0.8215358,-0.3859886,-0.06216735
0.8680087,-0.3360206,-0.06599183
0.8455899,-0.2402752,-0.02860427
0.8578348,-0.1709057,-0.02065049
0.8585616,-0.1360877,0.002284732
0.8477578,-0.1081329,0.02602803
0.8493916,-0.09960302,0.02358826
0.8310574,-0.07355795,0.04470662
0.8836533,-0.05851069,0.02692967
0.9815363,-0.07911486,-0.01051518
1.061942,-0.1338006,-0.03329462
1.115358,-0.2382513,-0.06137938
1.137084,-0.2978231,-0.07139021
1.198027,-0.2538475,-0.06359864
1.260093,-0.12721,-0.0272273
1.279377,0.02124279,-0.03825156
1.367437,-0.02109737,-0.2288554
1.468948,-0.3246108,-0.4846311
1.356783,-0.5658056,-0.4765206
1.012206,-0.5218543,-0.196437
0.724687,-0.4394263,-0.03219954
0.7989808,-0.4074833,-0.09730395
1.000554,-0.2676347,-0.1755756
1.005836,-0.2833475,-0.2025674
1.061909,-0.4584738,-0.2470176
1.051013,-0.4360677,-0.2196265
0.8559235,-0.4098953,-0.1224098
0.8796583,-0.3902794,-0.1478688
0.8489242,-0.2249977,-0.1723786
0.7137751,-0.1407451,-0.1449261
0.8010648,-0.1475989,-0.1944771
0.8372983,-0.1954639,-0.1979504
0.8992296,-0.1900391,-0.2254225
0.9897719,-0.1541656,-0.2728214
0.9122075,-0.1994562,-0.2017545
0.8862631,-0.1365043,-0.1590407
0.8870465,-0.1031513,-0.1465187
0.8903423,-0.1193355,-0.1302643
0.9328583,-0.04886228,-0.1190647
0.9442767,-0.06804044,-0.0890358
0.9646018,-0.09837464,-0.1094411
0.9671258,-0.164614,-0.1183529
0.9971662,-0.2696678,-0.1212442
1.069141,-0.2779012,-0.1514928
1.122258,-0.2514557,-0.1354074
1.199267,-0.1555479,-0.1110557
1.311032,-0.1141459,-0.07160012
1.405643,-0.225174,-0.03312727
1.394347,-0.3955292,-0.07223899
1.28467,-0.5041764,-0.185776
1.153316,-0.4379879,-0.3307807
1.065779,-0.4042802,-0.3611111
1.080643,-0.4431661,-0.292589
1.134264,-0.4253054,-0.2686919
1.153958,-0.4504688,-0.1812316
1.058708,-0.4609599,-0.05410792
0.8446289,-0.3677618,-0.05011442
0.7258807,-0.2328558,-0.06864834
0.7537447,-0.1677324,-0.07055901
0.811292,-0.2243217,-0.09712456
0.8630076,-0.2993625,-0.09105178
0.8746728,-0.3684729,-0.07752279
0.8548534,-0.4095341,-0.06984808
0.8414557,-0.3512738,-0.05353291
0.8303523,-0.2812555,-0.0428246
0.8254275,-0.2193208,-0.02547344
0.8411402,-0.131134,0.001510586
0.8566332,-0.09857982,0.04655264
0.8437668,-0.09123162,0.0657527
0.844148,-0.064729,0.04984411
0.8912479,-0.04426502,0.04500661
0.977375,-0.02779187,0.005922818
1.081766,-0.09062386,-0.04126471
1.149035,-0.2016318,-0.05822429
1.191473,-0.2670202,-0.08246959
1.258324,-0.2882851,-0.07699833
1.349936,-0.2118874,-0.08394603
1.519592,-0.1415047,-0.1874062
1.701046,-0.2690414,-0.3229694
1.591545,-0.5268857,-0.3669608
1.199571,-0.68127,-0.2740342
0.8183062,-0.5599626,-0.12576
0.5907226,-0.3232002,0.00390708
0.6723197,-0.2067209,0.0313407
0.8671709,-0.1737379,-0.0720734
0.9549009,-0.2563874,-0.1684083
1.112602,-0.4241405,-0.2462911
1.087822,-0.4747671,-0.2762001
0.9289788,-0.4335081,-0.1972104
0.9071037,-0.3363265,-0.1639893
0.7618779,-0.2014814,-0.1647828
0.7333787,-0.1481598,-0.1609683
0.842435,-0.1627381,-0.2096572
0.8505342,-0.1956623,-0.2286117
0.9515969,-0.2071922,-0.2353985
0.937245,-0.1958273,-0.228415
0.8686964,-0.1799926,-0.1887153
0.9022056,-0.1424111,-0.1667087
0.8731369,-0.1197528,-0.1319358
0.9252871,-0.09757473,-0.1185359
0.9693003,-0.09252585,-0.1063647
0.9683398,-0.1312124,-0.0813805
1.007007,-0.1870889,-0.0889802
0.9937498,-0.2584121,-0.08590884
1.03953,-0.2611033,-0.1224426
1.108051,-0.1942285,-0.1657559
1.155125,-0.1371726,-0.1319041
1.229842,-0.1411024,-0.066288
1.299662,-0.2663184,0.03590051
1.376733,-0.4460184,0.06992276
1.327609,-0.5238829,-0.09633259
1.145182,-0.4035561,-0.3307463
1.015866,-0.2922782,-0.4258451
1.084103,-0.3826437,-0.3853702
1.275828,-0.4691645,-0.3165361
1.270278,-0.4975003,-0.1991633
1.055824,-0.4840377,-0.07465627
0.7830596,-0.3316766,-0.03965255
0.6469643,-0.1674201,-0.04958023
0.7677818,-0.08836743,-0.08090098
0.8326009,-0.1462628,-0.1175646
0.871542,-0.2981661,-0.1096413
0.9465346,-0.3659044,-0.09144407
0.8651769,-0.372978,-0.08552067
0.8525291,-0.3044628,-0.06070811
0.8548139,-0.199554,-0.02170742
0.8016206,-0.1652969,0.005529882
0.8737067,-0.1141804,0.01835747
0.8887735,-0.1034412,0.03086892
0.8742229,-0.1192567,0.04652495
0.8885834,-0.0729979,0.05570964
0.8601998,-0.04764811,0.05990787
0.9043115,-0.03279024,0.0507702
1.006695,-0.05449807,-0.004507001
1.145055,-0.1260008,-0.0760837
1.220697,-0.2157627,-0.0793558
1.235573,-0.2697243,-0.02589018
1.318359,-0.1728682,-0.009195298
1.329395,-0.04611454,-0.07957465
1.396143,-0.04216307,-0.2348721
1.531425,-0.3027072,-0.4073664
1.40845,-0.7370941,-0.4723868
1.232948,-0.8241791,-0.3994509
1.052435,-0.5985283,-0.2433
0.6802774,-0.3741189,-0.04048176
0.5744352,-0.1576236,0.04275037
0.8371183,-0.2079252,-0.1018216
1.043783,-0.4140031,-0.2586629
1.193444,-0.4193257,-0.3098357
1.142384,-0.4562181,-0.2723627
0.8973779,-0.4991942,-0.156988
0.861872,-0.3737682,-0.1342668
0.8088642,-0.245398,-0.1679996
0.7407428,-0.1390742,-0.1683582
0.8631732,-0.1292155,-0.2133835
0.875587,-0.166256,-0.2119681
0.9301499,-0.1355714,-0.2005213
0.9880843,-0.1489693,-0.2231779
0.8902277,-0.1265047,-0.1885162
0.915067,-0.09289369,-0.1717658
0.9204573,-0.1095612,-0.1585194
0.9246875,-0.08572274,-0.1231421
0.9969549,-0.08936346,-0.1064231
0.983281,-0.111324,-0.1013928
1.000629,-0.1525978,-0.1235246
1.006664,-0.2060227,-0.1320927
1.028487,-0.1932121,-0.1550142
1.078808,-0.1578834,-0.1843435
1.100675,-0.1226677,-0.1536326
1.23519,-0.1593082,-0.09935642
1.348512,-0.2916259,-0.0172693
1.365829,-0.4229851,0.00855398
1.327944,-0.4440945,-0.08990973
1.151321,-0.2984556,-0.2365449
0.9526269,-0.2064,-0.3670514
0.934553,-0.3013417,-0.3523761
1.116529,-0.4439054,-0.2561943
1.215743,-0.5446031,-0.2209388
1.111557,-0.5354469,-0.1395167
0.9504388,-0.430859,-0.06663765
0.7646665,-0.2842556,-0.0709404
0.7091323,-0.1270474,-0.05388027
0.8174553,-0.1086324,-0.07427958
0.9076347,-0.2303392,-0.1100705
0.9732291,-0.320755,-0.1014009
0.9903176,-0.3436393,-0.09892616
0.9450195,-0.2933724,-0.07673219
0.9188412,-0.2077342,-0.05322484
0.8961334,-0.1800626,-0.02451512
0.8742607,-0.1649541,0.01748436
0.8859436,-0.1496494,0.02116968
0.8717658,-0.1387656,0.03218818
0.8334173,-0.08361187,0.04730747
0.8375325,-0.03529998,0.04181019
0.8764593,-0.01077273,0.01976076
0.9680305,-0.03208577,-0.02987983
1.083934,-0.1186197,-0.05001327
1.129525,-0.1959931,-0.0570169
1.120362,-0.2269761,-0.06361812
1.135387,-0.155556,-0.01296351
1.175767,-0.009637373,0.03013796
1.188529,0.08163951,-0.005270726
1.276073,-0.007446386,-0.1321143
1.454555,-0.3442182,-0.3474104
1.46855,-0.6381395,-0.4657669
1.300575,-0.6370622,-0.3080959
1.08546,-0.582346,-0.1177277
0.8603732,-0.5132626,-0.1176049
0.7773603,-0.2378037,-0.1372771
0.8338196,-0.1135057,-0.1700545
0.8857678,-0.2738705,-0.2559216
0.9645786,-0.3642385,-0.2328114
1.010388,-0.5427996,-0.1385165
0.9428383,-0.652776,-0.07018346
0.87728,-0.4128381,-0.07028283
0.8443049,-0.2463899,-0.1330434
0.830156,-0.1281796,-0.1562843
0.8590709,-0.03798728,-0.1749505
0.8857528,-0.1103466,-0.1841358
0.9317648,-0.08891545,-0.1613808
0.9755971,-0.1040765,-0.1744902
0.9511993,-0.1511143,-0.1573297
0.9506848,-0.1186037,-0.1346356
0.9828739,-0.131702,-0.147944
0.9827021,-0.0831516,-0.1183642
0.9758911,-0.04709221,-0.08414738
0.9556805,-0.05780938,-0.06498394
0.9441109,-0.04954385,-0.05469705
0.9618986,-0.0978075,-0.07170136
0.9768961,-0.1302565,-0.09716608
0.9988925,-0.1486633,-0.1421022
1.029058,-0.1532585,-0.1749652
1.073174,-0.1367564,-0.1671009
1.134438,-0.1476445,-0.131659
1.185151,-0.139176,-0.07257461
1.226318,-0.1805775,-0.03115654
1.263434,-0.2758512,-0.02886118
1.286332,-0.3235826,-0.05338268
1.229753,-0.3124329,-0.1248093
1.05885,-0.2953623,-0.2801661
0.9451351,-0.3579713,-0.4251525
1.036014,-0.4353495,-0.3922758
1.148965,-0.4897663,-0.2505792
1.102484,-0.5132371,-0.1460063
1.026711,-0.3966969,-0.07741093
0.9619215,-0.1985801,-0.04904841
0.8734301,-0.02085565,-0.05868939
0.8824313,0.02355928,-0.0911747
0.9301988,-0.1070045,-0.1282647
0.9473369,-0.2066515,-0.1148751
0.9538318,-0.2542036,-0.07316983
0.9140221,-0.3232535,-0.043989
0.9064896,-0.2693767,-0.03831183
0.8974488,-0.1437227,-0.03341582
0.8771201,-0.1585474,0.009349092
0.9219616,-0.1905345,0.01943507
0.9257148,-0.1323276,0.0105395
0.9005053,-0.1223687,0.03658525
0.8867137,-0.09478577,0.03272542
0.8821729,-0.01614885,0.02867123
0.9033732,0.03629682,0.03640002
0.8850683,-0.07008021,-0.0891083
0.9585166,-0.1562038,-0.1143786
1.04642,-0.1891496,-0.1150993
1.050271,-0.2821032,-0.1203728
0.976767,-0.3551358,-0.08719269
0.9654187,-0.3496023,-0.06223123
0.9395978,-0.348762,-0.06313679
0.8839437,-0.2782152,-0.03920335
0.9020649,-0.2616629,-0.03733029
0.9259726,-0.3046664,-0.03684168
0.9374381,-0.2498778,-0.01558742
0.9379592,-0.246593,0.003654572
0.9190854,-0.2238225,0.01696303
0.9229473,-0.1512038,0.01182054
0.9242086,-0.1542594,0.01117355
0.925897,-0.09951027,0.01097034
0.918562,-0.06265686,5.224184e-05
0.9074875,-0.07373589,-0.01488018
0.9572634,-0.08144403,-0.03814409
1.031658,-0.1776129,-0.04510906
1.069112,-0.2480792,-0.03481389
1.05831,-0.2545942,-0.02335192
1.03547,-0.1972205,-0.005164797
1.023148,-0.069089,0.01298484
1.024188,0.005685752,-0.0124246
1.138492,0.0006276647,-0.09782047
1.353524,-0.1212272,-0.1845961
1.447271,-0.3153712,-0.2467653
1.321518,-0.4679045,-0.2632747
1.121275,-0.5215048,-0.1735966
0.9654148,-0.4442367,-0.03261465
0.8738821,-0.3431343,0.01270355
0.8676336,-0.250337,-0.04449749
0.8587623,-0.2076449,-0.123451
0.8602569,-0.3043965,-0.2483649
0.9661266,-0.4329599,-0.3358845
1.014013,-0.5374913,-0.2759209
0.9699687,-0.5635471,-0.1980174
0.932364,-0.442441,-0.1287421
0.8854165,-0.2936046,-0.07860395
0.8931128,-0.2006929,-0.1472874
0.9222819,-0.1750599,-0.1937042
0.9271626,-0.1930407,-0.19296
0.9494867,-0.2031776,-0.222142
0.9446884,-0.2330445,-0.1873609
0.9324069,-0.2625796,-0.1522595
0.9368052,-0.2468353,-0.1598888
0.9510747,-0.2181983,-0.1492856
0.9828936,-0.19271,-0.1569414
0.9875741,-0.1830124,-0.1609691
0.9786296,-0.1865156,-0.1526167
0.9784444,-0.1758156,-0.1448866
0.9681828,-0.1704962,-0.1252683
0.9653039,-0.1720512,-0.1238796
0.9768994,-0.1697661,-0.1264419
0.9810886,-0.1762852,-0.1242883
0.9667151,-0.1683532,-0.1293592
0.9526203,-0.1538523,-0.1340603
0.960676,-0.1606221,-0.1441451
0.9965537,-0.1723323,-0.1522506
1.068237,-0.1847291,-0.1528163
1.152152,-0.1854302,-0.1319647
1.208647,-0.1795711,-0.08142544
1.269657,-0.188821,-0.02712275
1.320604,-0.1815513,-0.01291682
1.271167,-0.1505734,-0.09035044
1.193399,-0.1249405,-0.2253738
1.180706,-0.1707789,-0.2942873
1.165483,-0.3773029,-0.2558843
1.092546,-0.628618,-0.2117121
0.981407,-0.6683434,-0.1965692
0.895664,-0.5157076,-0.132404
0.8384692,-0.3104558,-0.075668
0.8332432,-0.07559087,-0.1036729
0.9129646,-0.06298415,-0.1305737
0.9479455,-0.2637799,-0.1207514
0.9802992,-0.30904,-0.1289958
1.008645,-0.3437984,-0.1336107
0.9146196,-0.375926,-0.09861084
0.8872316,-0.2904468,-0.0642787
0.8786722,-0.3118501,-0.03550602
0.8339653,-0.251183,-0.005581576
0.9044098,-0.1544954,-0.0101864
0.9339737,-0.1821242,-0.01979364
0.9429566,-0.1301425,-0.0153401
0.9613662,-0.1483785,-0.003032671
0.9139087,-0.1625907,0.02869515
0.903138,-0.1063931,0.04957765
0.8770015,-0.139227,0.06102578
0.8704895,-0.1171669,0.0674564
0.8877202,-0.113809,0.05833076
0.8744521,-0.1226943,0.04252646
0.935544,-0.09364584,0.01045618
1.007483,-0.1297908,-0.007251246
1.07898,-0.1262716,-0.009203264
1.156386,-0.1386948,-0.02037836
1.20245,-0.1680973,0.005714993
1.288551,-0.1662586,0.02124209
1.399172,-0.2375616,-0.07641203
1.521006,-0.340334,-0.1992256
1.504064,-0.4214248,-0.1979821
1.240708,-0.3843491,-0.1008861
0.9311489,-0.2644213,-0.00576019
0.7680892,-0.1979064,0.03652205
0.8361452,-0.1759508,-0.04266925
0.9055529,-0.287089,-0.2242607
0.8905686,-0.4453856,-0.3626966
1.01301,-0.5202978,-0.3583058
1.058757,-0.5817565,-0.2604371
0.9810921,-0.5402021,-0.1935004
0.9541282,-0.39132,-0.138273
0.8527392,-0.2304709,-0.08918821
0.7882361,-0.1270911,-0.1350835
0.8018404,-0.1688836,-0.1990878
0.8159813,-0.2201462,-0.251049
0.90086,-0.245289,-0.2915069
0.923399,-0.2872622,-0.2508887
0.8785554,-0.247369,-0.2031161
0.8660085,-0.2260465,-0.1565746
0.8620732,-0.2285009,-0.1160387
0.877959,-0.1586422,-0.1311696
0.8802682,-0.1251071,-0.1227248
0.9006032,-0.1290258,-0.1105576
0.9533814,-0.1361886,-0.1043826
0.9784002,-0.1697776,-0.07317338
0.9842876,-0.2109917,-0.0821679
0.9976884,-0.23381,-0.1120993
1.060919,-0.1834696,-0.1443654
1.127241,-0.1168471,-0.1617063
1.181827,-0.09948647,-0.1277942
1.303859,-0.1369982,-0.08451853
1.415966,-0.2572479,-0.04876109
1.405139,-0.3466985,-0.09800816
1.249842,-0.3238557,-0.2610054
1.028056,-0.299572,-0.3926816
0.9375605,-0.3415588,-0.4107164
1.061286,-0.3985548,-0.3110091
1.207317,-0.4656124,-0.1781733
1.193516,-0.5220632,-0.09646868
1.04245,-0.4533291,-0.05544294
0.8364235,-0.3042503,-0.08255767
0.7752186,-0.1690309,-0.1225033
0.87598,-0.1264346,-0.1309785
0.8901238,-0.2134314,-0.1442796
0.8874316,-0.2261373,-0.1304026
0.9050734,-0.2050163,-0.1194206
0.8340807,-0.2885679,-0.08232517
0.7904086,-0.3195392,-0.003321885
0.7732568,-0.2669927,0.001462313
0.7774742,-0.1820416,-0.002353612
0.823285,-0.1399596,0.0205899
0.8377256,-0.1483641,0.003153286
0.8476038,-0.1104369,0.005313645
0.8275983,-0.08459517,0.008741782
0.8222473,-0.06234513,-0.013527
0.9029802,-0.0766639,-0.01723696
1.017191,-0.1483177,-0.03177526
1.128829,-0.1534137,-0.05259363
1.185232,-0.1610879,-0.04357269
1.260434,-0.175588,-0.0107447
1.346146,-0.15223,0.0056425
1.386201,-0.1236874,-0.07416242
1.477594,-0.1286002,-0.2302717
1.404906,-0.3688311,-0.2964582
1.115518,-0.6660115,-0.2005787
0.8796335,-0.6157589,-0.09997754
0.7574139,-0.4433912,-0.1061582
0.8792815,-0.41226,-0.1330419
1.058008,-0.3930569,-0.1717765
1.032057,-0.4476523,-0.2394496
1.048185,-0.5534349,-0.2268522
1.016464,-0.5014021,-0.1531428
0.8728065,-0.3960352,-0.1128229
0.8348935,-0.2578276,-0.1082735
0.7738109,-0.1153793,-0.1420516
0.7368886,-0.1400695,-0.1777258
0.7813752,-0.1690914,-0.1989489
0.7888978,-0.1736658,-0.2296932
0.8380362,-0.2188784,-0.2335477
0.8730194,-0.2156656,-0.2105461
0.873493,-0.2269489,-0.176224
0.8972352,-0.2115524,-0.137375
0.8887976,-0.1463834,-0.107703
0.9098927,-0.0896247,-0.06205708
0.9584159,-0.0442908,-0.04235431
0.9745552,-0.06935365,-0.06195048
0.9818087,-0.09104575,-0.05629479
0.9874107,-0.1234436,-0.06065192
1.027041,-0.2259925,-0.1048395
1.088516,-0.2451487,-0.1385506
1.181656,-0.213274,-0.1082541
1.423261,-0.2345125,-1.723926e-05
1.639722,-0.2790644,0.07362703
1.532371,-0.4184066,-0.03216586
1.299915,-0.5692063,-0.2581567
1.132574,-0.4775693,-0.3986303
1.030893,-0.3302711,-0.3963236
1.224842,-0.3996661,-0.3192613
1.395839,-0.4737355,-0.2065516
1.135582,-0.4882187,-0.104785
0.8349547,-0.4763623,-0.03912698
0.6666644,-0.2995685,-0.02904122
0.631239,-0.1617812,-0.0670162
0.7641982,-0.1874021,-0.09111201
0.7950531,-0.2561035,-0.090692
0.7644287,-0.3331827,-0.06723294
0.7735752,-0.324178,-0.03360583
0.7690092,-0.2695516,-0.007408466
0.7970393,-0.1844556,0.02553439
0.8129258,-0.05435647,0.04790292
0.8343546,-0.0306663,0.05883379
0.8457686,-0.06126478,0.06309026
0.8362748,-0.05973634,0.05813774
0.8801196,-0.07268976,0.05098912
0.941461,-0.1306894,0.02107276
1.040675,-0.2181644,-0.02549969
1.173041,-0.2530203,-0.05713053
1.337594,-0.2287575,-0.054067
1.469162,-0.1282342,-0.02877228
1.417509,0.0651494,-0.03937232
1.378928,0.1258398,-0.1554667
1.383264,-0.1960261,-0.3018969
1.193577,-0.6296343,-0.2707538
0.9277619,-0.6641761,-0.1317933
0.7957219,-0.4409367,-0.09405656
0.9390246,-0.3398964,-0.1496539
1.138995,-0.3392785,-0.2506815
1.043646,-0.3880565,-0.2817851
0.9675231,-0.4583912,-0.2075018
0.9899605,-0.4820543,-0.1680179
0.8754634,-0.4178772,-0.1636801
0.8297194,-0.2796625,-0.1861083
0.7747678,-0.2087299,-0.2242731
0.6961072,-0.2065801,-0.2271621
0.7627332,-0.1900081,-0.2360079
0.778472,-0.1805215,-0.2340749
0.8099115,-0.1559241,-0.219254
0.8523109,-0.1385358,-0.1950388
0.8231262,-0.1370087,-0.1465397
0.8817719,-0.1019143,-0.1196579
0.8819491,-0.06954986,-0.1018875
0.8545527,-0.05433519,-0.1031017
0.9042942,-0.05522131,-0.1102064
0.9344694,-0.09496696,-0.1011754
1.038467,-0.1600432,-0.1253331
1.102944,-0.1891919,-0.1393107
1.103468,-0.1503646,-0.1344914
1.206356,-0.09434562,-0.1408607
1.260804,-0.04643895,-0.1289958
1.262381,-0.0875313,-0.09401244
1.339178,-0.2756081,-0.06664909
1.341443,-0.4784094,-0.1461157
1.163008,-0.53442,-0.2991383
1.007685,-0.3770578,-0.3478209
1.102251,-0.2485074,-0.2922929
1.376867,-0.3556895,-0.2569056
1.533264,-0.4729052,-0.2587098
1.281537,-0.4853741,-0.2044179
0.8180404,-0.3587334,-0.111265
0.6581933,-0.1138635,-0.07653101
0.7222891,-0.0752714,-0.0676529
0.7415391,-0.1883071,-0.0683507
0.7864371,-0.2332417,-0.1034386
0.7789181,-0.3117588,-0.1264281
0.7376063,-0.334684,-0.1036524
0.7475075,-0.2754957,-0.03917184
0.7099582,-0.2555441,0.01861683
0.735003,-0.1945381,0.02796956
0.8239404,-0.1558545,0.02912587
0.8585197,-0.1867327,0.04345606
0.8809988,-0.1576103,0.03150404
0.9041151,-0.09750956,0.0009340277
1.005976,-0.06367872,-0.02477212
1.118339,-0.0792059,-0.07041378
1.151206,-0.1485357,-0.09254769
1.245458,-0.1775963,-0.04634983
1.377183,-0.1142832,-0.02722206
1.470453,-0.01736056,-0.1427166
1.511515,-0.07187277,-0.3550101
1.468875,-0.4205973,-0.4569059
1.30821,-0.8244717,-0.338038
0.9442506,-0.8342785,-0.1494406
0.6526254,-0.5072858,-0.02463989
0.7694406,-0.2843197,-0.002150585
0.9601341,-0.1995959,-0.08456153
1.00463,-0.2247681,-0.186464
1.094104,-0.3856731,-0.2419265
1.052973,-0.453083,-0.2089111
0.9032041,-0.4081143,-0.1398933
0.8480094,-0.2811179,-0.170346
0.7206755,-0.1331979,-0.1974729
0.6971311,-0.1192294,-0.184618
0.8103131,-0.1340541,-0.2366827
0.8353263,-0.1547532,-0.2334042
0.8978974,-0.1664217,-0.1960276
0.8800711,-0.1403526,-0.1802393
0.8369771,-0.1171188,-0.1280853
0.898238,-0.02843509,-0.1249204
0.8885623,0.02708957,-0.1158614
0.9340711,0.001194019,-0.0909309
0.9805489,-0.0767444,-0.1026459
0.9617786,-0.1786492,-0.07708364
1.004841,-0.1942019,-0.1091884
1.043641,-0.1973473,-0.1856313
1.159574,-0.2054026,-0.187621
1.288098,-0.207018,-0.1308622
1.32741,-0.285944,-0.01441305
1.361714,-0.4261094,0.02982162
1.295607,-0.5111952,-0.1213644
1.122368,-0.3985572,-0.3258564
0.9912907,-0.2876167,-0.3990521
1.117425,-0.3712973,-0.3688803
1.40483,-0.4603022,-0.3545995
1.454529,-0.525213,-0.311763
1.302385,-0.552108,-0.221674
0.9352834,-0.4038893,-0.1086898
0.4959441,-0.2203824,0.02759247
0.5882262,-0.1643354,0.01691776
0.8459052,-0.2044501,-0.09354959
0.810705,-0.2811251,-0.09503078
0.8857875,-0.3428174,-0.09929308
0.9054565,-0.3667254,-0.09624963
0.7888736,-0.3151401,-0.008319807
0.8402504,-0.2223348,0.02590485
0.8106321,-0.1645341,0.03463093
0.7764129,-0.1159144,0.04660114
0.8239485,-0.09260604,0.04732844
0.7844595,-0.06742516,0.06006922
0.8697654,-0.02883578,0.01052931
0.9668803,-0.05356963,-0.0299013
1.029475,-0.1109077,-0.03819901
1.174221,-0.2015399,-0.07440603
1.235801,-0.2533706,-0.07716075
1.316831,-0.2007098,-0.07296108
1.39374,-0.1860555,-0.1080652
1.455857,-0.2337133,-0.2731006
1.592829,-0.3358815,-0.5353819
1.477482,-0.454512,-0.5484951
1.029772,-0.4308387,-0.2183492
0.6108492,-0.3762049,0.04987017
0.6047476,-0.4006981,-0.02460732
0.8552357,-0.3210672,-0.1247807
0.9512063,-0.2192533,-0.1022704
1.056736,-0.2966552,-0.2039852
1.070374,-0.4285439,-0.2417641
0.9238283,-0.5146572,-0.1762108
0.978476,-0.4708793,-0.2147452
0.9082512,-0.3095385,-0.1734731
0.7375278,-0.2369359,-0.1695792
0.8001592,-0.197759,-0.2633649
0.7911221,-0.1831603,-0.22766
0.8248117,-0.2246837,-0.2361643
0.8910317,-0.1865881,-0.2477914
0.8224956,-0.1668835,-0.1894364
0.8487913,-0.1456121,-0.1973986
0.8472215,-0.08152159,-0.1616502
0.8477687,-0.09202396,-0.1299135
0.8982784,-0.07014331,-0.1124639
0.8914218,-0.0644114,-0.08463169
0.9815196,-0.1399212,-0.120483
1.05224,-0.1796536,-0.1210096
1.04534,-0.1921992,-0.1542368
1.090917,-0.1548468,-0.2017783
1.167795,-0.09715175,-0.1661957
1.231277,-0.07985584,-0.1147555
1.267285,-0.1644786,-0.006408255
1.322819,-0.3817575,0.007059418
1.285794,-0.4783878,-0.1951663
1.129321,-0.3800479,-0.3908432
1.037288,-0.2690968,-0.4055095
1.147804,-0.2198148,-0.3048714
1.438932,-0.3018247,-0.2795958
1.518419,-0.4657501,-0.2688566
1.191371,-0.5165157,-0.1705463
0.7821859,-0.3561371,-0.08577585
0.6776722,-0.1510956,-0.06276024
0.8340672,-0.1342286,-0.128071
0.8462621,-0.2286985,-0.178588
0.802457,-0.3084026,-0.1466798
0.8143719,-0.3840819,-0.1149974
0.7252125,-0.3817103,-0.04800626
0.7255574,-0.2983116,0.0021136
0.7766867,-0.2239551,0.002202692
0.7756463,-0.1567953,0.01866607
0.8102104,-0.1242209,0.02196636
0.7886767,-0.1060875,0.03971318
0.7928424,-0.04201946,0.05234217
0.8929702,-0.03002471,0.02099299
1.041927,-0.0849879,-0.01725327
1.188099,-0.1324388,-0.06997732
1.215378,-0.1671793,-0.09057905
1.242092,-0.1638,-0.06567229
1.307319,-0.1177376,-0.06363311
1.332457,-0.0268478,-0.1144426
1.490216,-0.02906935,-0.240112
1.64761,-0.3461123,-0.3794823
1.414793,-0.77593,-0.4052746
1.069614,-0.8362014,-0.3146093
0.9258246,-0.5101466,-0.1384476
0.69921,-0.2673809,0.0534023
0.6628698,-0.265757,0.01899611
0.9643257,-0.2952337,-0.1410771
1.043339,-0.2991794,-0.1710643
1.100061,-0.3648694,-0.2447902
1.123919,-0.4965821,-0.2628021
0.9101874,-0.5056107,-0.1432399
0.8939564,-0.3758524,-0.1499059
0.7966773,-0.2645179,-0.1407414
0.6747109,-0.160403,-0.1433501
0.8056282,-0.1381367,-0.2274655
0.7874133,-0.1765673,-0.2177989
0.8687089,-0.1738973,-0.2440444
0.9670046,-0.2017595,-0.2276877
0.8660655,-0.1905533,-0.1611698
0.9000504,-0.1289686,-0.1676767
0.8999181,-0.08215353,-0.11424
0.9015928,-0.03610073,-0.0973035
0.9788593,-0.04629961,-0.09031206
0.9886831,-0.06631525,-0.04585019
0.9990761,-0.09800594,-0.07468143
0.9782275,-0.1851826,-0.08993202
1.028477,-0.2154399,-0.1180665
1.118994,-0.1940841,-0.1390946
1.181602,-0.1898061,-0.08499374
1.287078,-0.2044186,-0.02509875
1.319433,-0.2741107,0.0005141799
1.297364,-0.3635882,-0.09050428
1.208157,-0.3614277,-0.2623837
1.096244,-0.3086778,-0.3720101
1.156075,-0.3268943,-0.3550538
1.322721,-0.3923055,-0.2595375
1.415908,-0.4731639,-0.1646916
1.218965,-0.5021741,-0.05586022
0.8806167,-0.3948798,-0.01551975
0.7958427,-0.2672245,-0.07388
0.8200216,-0.2004034,-0.1070481
0.7876988,-0.2224591,-0.1147594
0.7941624,-0.3297481,-0.09516967
0.7644418,-0.4001984,-0.04851507
0.7219536,-0.4098876,-0.02218021
0.7346806,-0.3354988,-5.057493e-05
0.7516396,-0.2196124,0.003654614
0.8169094,-0.144326,0.01557325
0.8805946,-0.06276198,0.05337898
0.8723463,-0.04948637,0.05653649
0.8602247,-0.04773231,0.07446069
0.8481462,0.02362829,0.1116577
0.857755,0.01488355,0.07378826
0.9477859,-0.02322126,0.01955986
1.100885,-0.07036682,0.006637081
1.204103,-0.1706108,-0.01317226
1.213309,-0.1946316,-0.01148449
1.244053,-0.1549065,0.02678658
1.297695,-0.06386938,0.02234959
1.400027,0.02753246,-0.1166459
1.533384,-0.1482276,-0.357019
1.416474,-0.5051989,-0.4195938
1.063998,-0.6376417,-0.1931961
0.7444944,-0.5124357,0.004706544
0.6555155,-0.361334,-0.01219934
0.8429968,-0.27299,-0.07174658
1.004889,-0.2748083,-0.08743406
1.06428,-0.3753573,-0.1440311
1.094021,-0.4626119,-0.1743934
0.9857078,-0.440113,-0.1186716
0.9104276,-0.3337351,-0.1058305
0.860018,-0.1983312,-0.1337991
0.7851761,-0.1359371,-0.1414079
0.8450444,-0.1625177,-0.1552875
0.8598489,-0.1433728,-0.161852
0.8627303,-0.1235149,-0.160724
0.9248096,-0.1506563,-0.141359
0.9151644,-0.123677,-0.121438
0.9306247,-0.1015805,-0.1282888
0.9194754,-0.08956061,-0.1143814
0.9064264,-0.02139089,-0.08081948
0.9362243,0.001445794,-0.05187371
0.920874,-0.05073257,-0.04845461
0.9488586,-0.1137135,-0.05185691
0.961797,-0.1460207,-0.05099696
1.000813,-0.1216387,-0.1257767
1.128469,-0.07812602,-0.1946173
1.208931,-0.05779424,-0.1386007
1.339521,-0.120674,-0.05288532
1.466717,-0.2985704,-0.02977595
1.40167,-0.4395252,-0.08064991
1.212676,-0.4086012,-0.1949468
1.005015,-0.3283115,-0.2885344
0.959276,-0.323244,-0.2654904
1.143359,-0.3464456,-0.1772714
1.258637,-0.4077367,-0.09902536
1.16157,-0.4605774,-0.0280096
1.015357,-0.3482613,-0.02158463
0.8627422,-0.1666663,-0.05507385
0.7822176,-0.1091093,-0.05755083
0.829252,-0.1618212,-0.07176835
0.8245515,-0.2147145,-0.07855331
0.7994712,-0.2406056,-0.06867101
0.8142018,-0.2780837,-0.05654456
0.7828462,-0.2626209,-0.01232308
0.794105,-0.2025191,0.01149192
0.8260143,-0.179118,0.0230894
0.8168223,-0.1481092,0.05059224
0.8287448,-0.1412104,0.04828222
0.806794,-0.1440588,0.05759674
0.7835887,-0.09575875,0.07419146
0.8377759,-0.08096058,0.05076352
0.9374934,-0.08686328,0.02255045
1.073135,-0.1065722,-0.01044678
1.181719,-0.1664501,-0.04013056
1.244644,-0.1981619,-0.02980488
1.318511,-0.1862185,0.008225899
1.384382,-0.0786403,0.02279534
1.478871,0.02513134,-0.0765588
1.554063,-0.1488272,-0.2517653
1.361603,-0.4942745,-0.2993355
1.004421,-0.6525877,-0.1980016
0.8337653,-0.5519104,-0.1138463
0.8066494,-0.4057268,-0.08866451
0.8527197,-0.339968,-0.08654942
0.971636,-0.3274873,-0.1187906
0.9959955,-0.4135891,-0.1756042
1.000784,-0.5366147,-0.2092658
1.016218,-0.5313256,-0.1994642
0.9404615,-0.4017816,-0.1814517
0.8754256,-0.2142379,-0.1780627
0.8228649,-0.1228004,-0.1861855
0.8108426,-0.14703,-0.2250161
0.8295919,-0.09754747,-0.2721495
0.8045425,-0.08434063,-0.2728786
0.8625775,-0.1517016,-0.2436768
0.9097452,-0.1426154,-0.2118102
0.8767867,-0.1416711,-0.1747958
0.8845218,-0.1470722,-0.1563021
0.8770078,-0.1127645,-0.139942
0.8797127,-0.1026003,-0.1104111
0.9126201,-0.08338494,-0.104083
0.9402575,-0.07702527,-0.087775
0.9728304,-0.1249767,-0.07784624
0.9805713,-0.2191375,-0.1184616
1.019604,-0.2968046,-0.1342386
1.085454,-0.2721013,-0.1313911
1.157083,-0.2291909,-0.11906
1.257556,-0.2179858,-0.06336732
1.338721,-0.2453811,-0.04387895
1.386806,-0.4058593,-0.08834436
1.309038,-0.5478168,-0.1872539
1.100389,-0.4473545,-0.3165882
0.9837855,-0.2942656,-0.3753967
1.094523,-0.3180565,-0.3274959
1.317533,-0.3869116,-0.2399617
1.349656,-0.4648624,-0.167243
1.08592,-0.5545842,-0.08931989
0.7635513,-0.4431,-0.07367946
0.6875658,-0.2412419,-0.1235895
0.8032575,-0.1492774,-0.109818
0.7881483,-0.146522,-0.09113928
0.7679285,-0.2447036,-0.08159217
0.824833,-0.3192869,-0.05138381
0.7890926,-0.3209529,-0.05149033
0.8082021,-0.2834211,-0.02208881
0.8210913,-0.1756972,0.003366939
0.774863,-0.1015655,0.01295865
0.8029002,-0.06618884,0.05459826
0.8045587,-0.06224243,0.07055382
0.8338093,-0.08031888,0.07526231
0.9063199,-0.0362492,0.05155163
0.9898787,-0.0264091,-0.002634521
1.107266,-0.07822038,-0.03211738
1.133767,-0.1690151,-0.05672288
1.191949,-0.2687022,-0.05581468
1.311459,-0.2596441,-0.02054642
1.383522,-0.2108331,-0.0358813
1.56253,-0.2286019,-0.2558269
1.718042,-0.4152234,-0.538161
1.49624,-0.7488153,-0.4750685
0.9820319,-0.8343253,-0.2030477
0.6703047,-0.517492,-0.05954033
0.738021,-0.1980201,-0.02469509
0.866136,-0.1791035,-0.07627397
0.9640581,-0.2910633,-0.1397714
1.093406,-0.3813398,-0.2105253
1.082115,-0.5193873,-0.2798248
0.9509071,-0.561103,-0.1892026
0.8720226,-0.4156078,-0.1295266
0.7755994,-0.2713357,-0.17058
0.723279,-0.1696435,-0.1675881
0.7863417,-0.1310131,-0.2212841
0.8023922,-0.1862098,-0.237828
0.8531694,-0.2086094,-0.1983987
0.9010666,-0.2009055,-0.1957115
0.8509216,-0.1744767,-0.1442361
0.8757494,-0.08165179,-0.1184866
0.8875907,-0.01116945,-0.1179673
0.8874705,0.01387386,-0.0997592
0.9431595,0.006124936,-0.1041826
0.9450771,-0.05784732,-0.1108215
0.9811902,-0.1297973,-0.1479123
1.05358,-0.1511923,-0.1618046
1.125309,-0.1126358,-0.1453487
1.186471,-0.07376554,-0.1324447
1.212533,-0.07098153,-0.05497554
1.331259,-0.190686,0.03939204
1.408591,-0.471308,0.04533069
1.261887,-0.6081453,-0.1182245
1.042683,-0.4599135,-0.3519107
0.9379834,-0.3115337,-0.4031319
1.09287,-0.3124695,-0.3036077
1.406377,-0.4078997,-0.2300639
1.548282,-0.5363884,-0.1693262
1.396423,-0.5338018,-0.1134031
0.9992065,-0.293028,-0.1366795
0.6368158,-0.03190222,-0.1657249
0.6948582,-0.0003012588,-0.1484784
0.8707769,-0.1223082,-0.152322
0.788028,-0.2519641,-0.1181157
0.7855222,-0.3774741,-0.06723809
0.8331183,-0.3978117,-0.07315354
0.7411067,-0.3375625,-0.0551827
0.767268,-0.3466234,-0.02314203
0.7810948,-0.2531346,0.00660176
0.7692806,-0.1184424,0.04447045
0.8616394,-0.1213867,0.02836528
0.8372949,-0.0684538,0.01143434
0.8315041,-0.05777822,0.02369251
0.8998138,-0.108605,0.004889813
0.9596687,-0.1107664,-0.01875601
1.090272,-0.1969751,-0.04004165
1.14801,-0.2232004,-0.06322892
1.19618,-0.1983666,-0.05365818
1.276263,-0.1931632,-0.04963445
1.317122,-0.09419966,-0.08709337
1.510245,-0.04657875,-0.2030361
1.701205,-0.1429063,-0.3747985
1.521974,-0.4453981,-0.3904764
1.122004,-0.7511926,-0.2469151
0.838764,-0.6369035,-0.1279802
0.6982563,-0.3592475,-0.03576555
0.7855224,-0.2468199,-0.03445401
0.9918352,-0.1993924,-0.1272021
1.00887,-0.3082736,-0.19065
1.052906,-0.5082951,-0.243391
1.050833,-0.5346136,-0.2115508
0.8901866,-0.4654211,-0.1356934
0.8586488,-0.334892,-0.1595419
0.7681542,-0.1942099,-0.1728461
0.7138317,-0.1741461,-0.193599
0.8010083,-0.1714505,-0.2361294
0.8052041,-0.2082677,-0.2234829
0.9008851,-0.2556504,-0.2313578
0.934013,-0.2387369,-0.2012949
0.8565273,-0.2136631,-0.1330839
0.8873963,-0.1355513,-0.1084283
0.8842332,-0.08934255,-0.07921449
0.9049847,-0.09072258,-0.06675931
0.9426704,-0.09498291,-0.06668839
0.9346519,-0.1470762,-0.07418742
0.9800028,-0.1900377,-0.1099024
1.036874,-0.2359391,-0.1478814
1.127571,-0.2197963,-0.173719
1.203715,-0.1318184,-0.131006
1.236478,-0.1072425,-0.06343895
1.28795,-0.1703648,-0.03128397
1.304828,-0.336376,-0.01845979
1.285914,-0.4770179,-0.1028128
1.143371,-0.4970146,-0.2557667
0.9306629,-0.4614543,-0.3411823
0.9496334,-0.4193493,-0.3359918
1.171906,-0.444172,-0.2729668
1.356019,-0.4541632,-0.1969974
1.337184,-0.4226644,-0.1436371
1.082334,-0.3893661,-0.1203132
0.8105094,-0.2754586,-0.1339621
0.7319472,-0.2131058,-0.1536281
0.7759046,-0.2531766,-0.1152888
0.7576179,-0.2908559,-0.05266334
0.718709,-0.3599607,-0.02960534
0.7600562,-0.3879674,-0.0234378
0.7766603,-0.3356156,-0.02784409
0.7747347,-0.2750179,-0.02625896
0.801471,-0.1966118,-0.01295353
0.803761,-0.1425675,-0.007643071
0.8277615,-0.1369534,0.0340337
0.8446223,-0.1108031,0.08229661
0.8458118,-0.08256006,0.07468114
0.9093482,-0.09180278,0.02684176
0.982177,-0.1057898,-0.0210375
1.027782,-0.1454258,-0.03421439
1.099974,-0.1900118,-0.04416217
1.27905,-0.1704678,-0.04425512
1.44985,-0.1470893,-0.03617262
1.459775,-0.1544917,-0.1339155
1.526365,-0.2373275,-0.314522
1.593345,-0.4934544,-0.3918897
1.264161,-0.6890503,-0.2743787
0.8079801,-0.5254667,-0.09736837
0.7414154,-0.2723904,-0.03732112
0.8951471,-0.2537128,-0.07646351
0.9580376,-0.3058339,-0.1366535
1.00278,-0.3847279,-0.2023287
1.045523,-0.5463769,-0.2597057
1.014013,-0.6007192,-0.2626466
0.9814358,-0.5396834,-0.221656
0.8983838,-0.3992154,-0.1839086
0.7384864,-0.1979303,-0.1246106
0.7142089,-0.1567783,-0.1323536
0.781875,-0.2351583,-0.2260076
0.7851346,-0.2406464,-0.2594227
0.8257486,-0.2430381,-0.2760051
0.8629388,-0.2585373,-0.2659209
0.8508729,-0.2114243,-0.2093676
0.8738336,-0.1851116,-0.1915708
0.8749073,-0.1656808,-0.1487227
0.8929647,-0.06493763,-0.1022732
0.9336951,-0.001085697,-0.08143572
0.9267476,-0.03448447,-0.0722252
0.9602432,-0.08723776,-0.08480616
0.9835548,-0.131521,-0.07252459
0.9855949,-0.1889232,-0.1088457
1.067761,-0.2320558,-0.1426208
1.157936,-0.2174514,-0.110789
1.266017,-0.231184,-0.09207281
1.401818,-0.3240163,-0.05279334
1.437643,-0.4840972,-0.08722227
1.298198,-0.5974718,-0.2372013
1.044536,-0.4785367,-0.3652096
0.9518443,-0.324424,-0.3688124
1.146596,-0.3450361,-0.2507535
1.313788,-0.4194298,-0.1902852
1.202153,-0.4792401,-0.1591501
0.9671721,-0.4419278,-0.0912868
0.7543659,-0.2938936,-0.09409574
0.65951,-0.1603822,-0.1169558
0.7976485,-0.1005802,-0.1487568
0.8657775,-0.1989906,-0.1610763
0.7764236,-0.3481341,-0.1083892
0.8026969,-0.379466,-0.07149408
0.7999665,-0.3738886,-0.04664534
0.7770291,-0.298933,-0.03175297
0.8183202,-0.1681161,0.002338123
0.7992429,-0.1141916,0.04901977
0.8258596,-0.09282421,0.04675137
0.8502871,-0.08044805,0.04585417
0.8492631,-0.06649611,0.01645573
0.9378081,-0.07250115,-0.02935532
1.055503,-0.1327678,-0.03353479
1.146329,-0.1811691,-0.0617138
1.144371,-0.2061727,-0.08902858
1.165662,-0.1911089,-0.06316034
1.24775,-0.1343349,-0.006563284
1.261989,-0.02216618,0.004502478
1.404314,0.03344985,-0.1701852
1.587657,-0.271918,-0.4505405
1.422718,-0.7107684,-0.4867484
1.035504,-0.7572369,-0.2303062
0.7865746,-0.4876007,-0.02047285
0.8085707,-0.2908132,-0.007961662
0.9426943,-0.2754234,-0.08167811
0.9557621,-0.32765,-0.1138328
0.9655757,-0.4361027,-0.1357248
1.039888,-0.583804,-0.204498
0.9887584,-0.5668753,-0.1896128
0.884096,-0.3680326,-0.1464695
0.7791148,-0.2078809,-0.1695016
0.710382,-0.1664906,-0.1600146
0.77922,-0.2012524,-0.1784787
0.8008864,-0.2134482,-0.2224762
0.8107934,-0.1801471,-0.2198405
0.8759523,-0.2012451,-0.2145638
0.8700434,-0.1987165,-0.1827621
0.8815582,-0.1652382,-0.1478954
0.8773814,-0.1613832,-0.1301065
0.8674878,-0.09461501,-0.08932407
0.9121323,-0.065523,-0.07095651
0.937468,-0.0922886,-0.09883094
1.003067,-0.09205705,-0.1259467
1.035645,-0.1491507,-0.1308905
1.035395,-0.2110811,-0.1476589
1.083126,-0.2192004,-0.170999
1.088332,-0.1665118,-0.1663637
1.165363,-0.104022,-0.1374977
1.328511,-0.1642996,-0.08181291
1.406651,-0.3113391,-0.04188931
1.360936,-0.4745621,-0.07621475
1.172021,-0.5193184,-0.187284
0.9787722,-0.3937993,-0.309892
1.002932,-0.3478229,-0.3211648
1.217614,-0.4296846,-0.2437804
1.331175,-0.513201,-0.1771177
1.156263,-0.5554163,-0.08450285
0.8907162,-0.4527359,-0.02415781
0.777065,-0.2594473,-0.07672068
0.7981612,-0.1698152,-0.1056816
0.8175745,-0.2096025,-0.09265957
0.8113194,-0.2966348,-0.1007666
0.8053631,-0.3783801,-0.07445532
0.7936721,-0.4141017,-0.06006494
0.8157984,-0.3423882,-0.05745356
0.8350433,-0.2285875,-0.01701955
0.8109729,-0.1706526,0.009242341
0.7991708,-0.1268923,0.03313403
0.8142835,-0.1100207,0.05108731
0.8279295,-0.09575904,0.05220556
0.8388888,-0.04454339,0.05293873
0.9287424,-0.03573068,0.01835326
1.09451,-0.03527583,-0.03128982
1.183288,-0.05124594,-0.06298081
1.17851,-0.138397,-0.06171037
1.196469,-0.2025181,-0.03110818
1.261129,-0.1925045,-0.03175699
1.363181,-0.1160482,-0.1086304
1.484477,-0.1147118,-0.2468755
1.480026,-0.4058696,-0.3502551
1.305407,-0.7943029,-0.352795
1.026749,-0.8041846,-0.2305073
0.777242,-0.4726077,-0.06305756
0.844804,-0.2458038,-0.07376692
1.015007,-0.2241023,-0.1662194
1.010009,-0.3252862,-0.1775506
1.084939,-0.4747208,-0.2207096
1.054637,-0.5372407,-0.1996525
0.8893209,-0.4812772,-0.1304085
0.8894447,-0.3106924,-0.1690898
0.797277,-0.1679519,-0.1711811
0.7282954,-0.1296854,-0.1624946
0.8015741,-0.124761,-0.2008668
0.789954,-0.1770439,-0.2033545
0.8707357,-0.2005824,-0.2238973
0.9305151,-0.2043559,-0.2121636
0.8866086,-0.1985163,-0.1560646
0.9086278,-0.121967,-0.1132927
0.8951327,-0.07461283,-0.07425641
0.9059091,-0.001311716,-0.08061468
0.9481931,0.04390467,-0.07449782
0.9801304,-0.03764773,-0.06416483
1.030347,-0.135157,-0.0962008
1.010975,-0.2119381,-0.1044109
1.018231,-0.1960692,-0.1306862
1.098387,-0.1503689,-0.1460997
1.193908,-0.1578684,-0.09484871
1.294127,-0.1837513,-0.02708829
1.313905,-0.3035017,0.04288046
1.270947,-0.40702,0.02282131
1.207293,-0.3808101,-0.1411858
1.137964,-0.3538457,-0.3063874
1.115683,-0.367447,-0.3429472
1.141988,-0.3717495,-0.3458012
1.286219,-0.4313104,-0.3365135
1.44012,-0.5302265,-0.1844321
1.224383,-0.4721552,-0.09007126
0.8281373,-0.2979925,-0.1102557
0.7342139,-0.1287872,-0.07704249
0.7642461,-0.03118456,-0.1157825
0.7760506,-0.1383251,-0.1445006
0.8424834,-0.2670945,-0.1128398
0.8239754,-0.327127,-0.1261719
0.8287945,-0.3966573,-0.07237866
0.8725424,-0.3327709,-0.0253384
0.8402006,-0.2448259,0.002798822
0.854676,-0.174227,0.0383272
0.8739872,-0.05512691,-0.0081562
0.8664026,-0.0579853,-0.01741244
0.8519789,-0.06146878,-0.004989802
0.8089164,-0.01250199,-0.01917231
0.8596837,-0.04944676,-0.02382078
1.009753,-0.1254416,-0.05117634
1.15622,-0.2346625,-0.05981646
1.178331,-0.261426,-0.06999545
1.11005,-0.2105764,-0.06902339
1.146706,-0.1733116,-0.03512268
1.228963,0.02528101,-0.04496601
1.347307,0.1682305,-0.1463081
1.478666,-0.1296884,-0.3470478
1.368201,-0.6447594,-0.4249745
1.073324,-0.8640961,-0.2351459
0.7717634,-0.6341695,-0.04976774
0.6694203,-0.3988629,-0.0547122
0.8425152,-0.3427724,-0.1398253
0.9255202,-0.1672955,-0.2184173
0.9546219,-0.1592059,-0.2791776
1.024356,-0.4609689,-0.2507253
0.9684835,-0.6095025,-0.1659003
0.9784305,-0.6435118,-0.1365005
0.9151075,-0.5111709,-0.1344517
0.7583559,-0.2246716,-0.1454345
0.7989793,-0.1888476,-0.1687674
0.7969313,-0.1220825,-0.2087668
0.7971729,-0.0488653,-0.2651341
0.913495,-0.1902024,-0.2562331
0.9540582,-0.204127,-0.2369489
0.9658082,-0.2222426,-0.2189175
0.9309926,-0.2335682,-0.1518087
0.9081634,-0.1422948,-0.1262415
0.9456044,-0.1473269,-0.1111081
0.9609829,-0.1173662,-0.08146523
0.9974817,-0.1240005,-0.07303724
1.000226,-0.1679117,-0.0573193
0.9827694,-0.1512918,-0.07639666
0.9894597,-0.1798421,-0.1157575
0.9979932,-0.1276067,-0.1407983
1.063073,-0.05451323,-0.1535278
1.171486,-0.05879999,-0.1122839
1.302863,-0.138361,-0.02774216
1.352486,-0.3519597,0.01815918
1.202511,-0.4613063,-0.1041836
0.9614856,-0.3896476,-0.3079713
0.8644386,-0.3511271,-0.3412099
1.064776,-0.3830157,-0.2921065
1.261055,-0.3888289,-0.2850139
1.140814,-0.3865781,-0.1716039
0.9737952,-0.4322293,-0.008435181
0.9168927,-0.3739162,-0.009175121
0.8899797,-0.1722459,-0.09435495
0.9267808,-0.006191916,-0.1114767
0.9132352,-0.04274731,-0.1187724
0.8855707,-0.2158749,-0.1229452
0.9126765,-0.3063473,-0.0905256
0.8616134,-0.3870286,-0.08341624
0.8535198,-0.3801604,-0.06344267
0.8647989,-0.2671968,-0.02939666
0.8296568,-0.2955376,-0.02985587
0.8898573,-0.2567251,-0.01296017
0.9133532,-0.1936706,0.002204046
0.9021655,-0.209809,0.001121374
0.9058408,-0.08901892,0.008747081
0.8681989,-0.02658874,0.01166201
0.8965407,0.002294479,0.003786383
0.9292957,0.05457134,-0.02837626
0.982049,-0.03987089,-0.05404407
1.077263,-0.1629667,-0.05280882
1.083605,-0.2823991,-0.03868282
1.089899,-0.2946301,-0.01137709
1.137762,-0.139758,0.0043763
1.211274,0.002114447,-0.0396928
1.365993,0.01499517,-0.1810967
1.528329,-0.1770048,-0.3609897
1.502556,-0.4391548,-0.4333573
1.227903,-0.5797639,-0.2802608
0.9089692,-0.5170646,-0.06107857
0.707838,-0.3726568,-0.04376149
0.7140009,-0.2972174,-0.1064718
0.8567486,-0.2003719,-0.1606359
0.9655347,-0.234046,-0.3022932
1.053243,-0.4079156,-0.3528384
1.012197,-0.5111005,-0.2289148
0.9116362,-0.5519549,-0.1038085
0.8974286,-0.4034839,-0.07519286
0.8227682,-0.2214214,-0.1241446
0.8179203,-0.1760001,-0.1784349
0.8817371,-0.1296316,-0.217147
0.8841438,-0.1583787,-0.2325433
0.9431303,-0.1624692,-0.2107241
0.9499125,-0.1301666,-0.1880985
0.9295643,-0.1622356,-0.1707607
0.9590466,-0.1448042,-0.1480208
0.9565061,-0.1612379,-0.1331194
0.9871105,-0.1725456,-0.1203276
0.9912089,-0.1483441,-0.09976868
0.9624895,-0.1685057,-0.08466471
0.9593016,-0.1451246,-0.07743004
0.9803852,-0.1086565,0.03130719
1.009747,-0.1166119,-0.01344076
1.014096,-0.1773956,-0.03682388
1.080107,-0.2464513,-0.03683724
1.285897,-0.261297,-0.01132847
1.535271,-0.1620683,-0.01290437
1.618648,-0.03213904,-0.107641
1.542155,-0.05714067,-0.2945244
1.432604,-0.3721963,-0.4176415
1.179334,-0.7273314,-0.3224885
0.8528072,-0.6534424,-0.2268512
0.7674528,-0.4267939,-0.2366653
0.9235013,-0.4232767,-0.1970863
1.084818,-0.4030059,-0.2291413
1.08175,-0.417461,-0.310144
0.9773045,-0.4666914,-0.2523568
0.8788359,-0.3712118,-0.2074039
0.7787854,-0.3243485,-0.2204266
0.7252149,-0.253922,-0.2120313
0.6543413,-0.1344891,-0.2446758
0.6106261,-0.1741209,-0.2544904
0.7049459,-0.2305925,-0.234203
0.7649143,-0.2508252,-0.2413063
0.8360189,-0.2687203,-0.2230507
0.9021632,-0.2222449,-0.2009932
0.8288492,-0.1512343,-0.1623446
0.8362336,-0.09137854,-0.1076944
0.888661,-0.05732693,-0.1013138
0.9233437,-0.04447376,-0.1016747
1.007999,-0.06509218,-0.1049972
0.9958324,-0.1026305,-0.1337043
1.02957,-0.1251581,-0.1797241
1.173713,-0.1372159,-0.2185298
1.26039,-0.1374073,-0.1801451
1.352417,-0.2438597,-0.09549199
1.396256,-0.4896022,-0.06466151
1.270078,-0.6336732,-0.1762762
1.02322,-0.4851608,-0.3751149
0.8941835,-0.2638428,-0.4238505
1.133452,-0.2665436,-0.3462625
1.395321,-0.3732269,-0.31788
1.269306,-0.4663952,-0.2559925
1.049058,-0.4824861,-0.1350489
0.8424783,-0.3133287,-0.07018777
0.5684498,-0.1372437,-0.04013481
0.5747996,-0.07066334,-0.02042901
0.6948666,-0.09659309,-0.05403379
0.6807443,-0.1684083,-0.09879619
0.7985944,-0.2225952,-0.1277637
0.8732752,-0.3144181,-0.154818
0.8445118,-0.3216704,-0.1261679
0.8315627,-0.2267059,-0.04082944
0.7282803,-0.1618951,0.05311819
0.7429364,-0.1118371,0.08268331
0.8480694,-0.1236249,0.03103907
0.9192917,-0.09982727,0.02016759
1.009319,-0.06122382,-0.002749543
1.027576,-0.1723167,-0.09092299
1.085658,-0.2853287,-0.1313264
1.118854,-0.324051,-0.1239571
1.120201,-0.252147,-0.076391
1.307458,-0.01536936,-0.05460779
1.415156,0.1864989,-0.1086088
1.40698,0.08913374,-0.2469744
1.470453,-0.3245219,-0.5002814
1.362431,-0.7652516,-0.5734889
1.050701,-0.9210264,-0.3759223
0.8230326,-0.6164688,-0.2099486
0.8241187,-0.2293469,-0.1389841
0.9249964,-0.215138,-0.1563464
0.9762041,-0.2908183,-0.2194259
1.01997,-0.3577181,-0.2460299
0.9958467,-0.4463595,-0.2591981
0.8830613,-0.4090406,-0.2285548
0.8061765,-0.3584927,-0.2038642
0.7423761,-0.2442228,-0.2231161
0.7307498,-0.1440841,-0.2209778
0.7882082,-0.1197536,-0.2221577
0.8159163,-0.06715041,-0.2230075
0.8753841,-0.1057583,-0.2034797
0.9414696,-0.09966042,-0.1793991
0.9377797,-0.06285687,-0.1434778
0.9091886,-0.07389493,-0.1213616
0.8737387,0.003722043,-0.09740336
0.8862193,0.008035068,-0.06538823
0.9292162,-0.04514189,-0.07926443
0.9697195,-0.09746404,-0.1074086
1.042477,-0.1896455,-0.1339447
1.125339,-0.1849583,-0.1843284
1.235697,-0.1237411,-0.19597
1.328542,-0.08941207,-0.1298333
1.366555,-0.1911783,-0.0112876
1.375855,-0.4510445,0.05302263
1.258385,-0.5974401,-0.09158388
1.042503,-0.5311303,-0.3170921
0.9327036,-0.4391043,-0.3665488
1.046609,-0.3880539,-0.3117024
1.299577,-0.2793683,-0.3088035
1.473549,-0.3022718,-0.3088305
1.417613,-0.4255939,-0.2512212
1.134826,-0.2892759,-0.1827063
0.802231,-0.1516392,-0.1483976
0.5895442,-0.1112156,-0.1167803
0.5675902,-0.0341704,-0.08210709
0.671503,-0.1607712,-0.06715276
0.7461573,-0.300613,-0.05169549
0.8349819,-0.3232125,-0.05031868
0.900299,-0.3376017,-0.06000853
0.8824656,-0.2740274,-0.03941308
0.8880081,-0.2341281,-0.009045684
0.8563175,-0.1595886,0.01835879
0.8445958,-0.08241586,0.03791225
0.8893849,-0.0946158,0.02971416
0.89035,-0.04755142,0.006648102
0.928888,-0.04549482,-0.03139008
0.9985526,-0.1044451,-0.0685362
1.100332,-0.1782301,-0.09093503
1.192756,-0.2844955,-0.1006403
1.202133,-0.2530755,-0.06902728
1.232936,-0.1016275,-0.05414599
1.284144,0.04567228,-0.1193645
1.465152,0.00547709,-0.2394379
1.649232,-0.3379544,-0.3726245
1.326653,-0.6890138,-0.3871001
0.8134554,-0.7174628,-0.2268358
0.7576048,-0.4369867,-0.06643204
0.9237446,-0.2394233,-0.06630984
0.9977403,-0.2981786,-0.1662576
1.061401,-0.3795422,-0.2288053
1.03789,-0.4293174,-0.2524241
0.9375365,-0.4227763,-0.2293399
0.8652577,-0.3344083,-0.1825735
0.7641269,-0.230977,-0.2032557
0.7119568,-0.1197665,-0.227898
0.7199326,-0.09044443,-0.2423983
0.7291811,-0.1271745,-0.2602925
0.7956185,-0.1418471,-0.2410157
0.863711,-0.156651,-0.2443187
0.9300147,-0.1559248,-0.2195736
0.9577559,-0.1298041,-0.1601733
0.8886512,-0.0778352,-0.1442034
0.8717275,-0.0400639,-0.106886
0.9205248,-0.05849261,-0.0819657
0.9831461,-0.08370202,-0.1040038
1.056417,-0.1296731,-0.1175858
1.080839,-0.2081164,-0.1420346
1.099576,-0.2223348,-0.1700501
1.132857,-0.164605,-0.1834667
1.216662,-0.165386,-0.149963
1.390215,-0.3179689,-0.04680689
1.466251,-0.5886124,-0.01029022
1.339782,-0.7186089,-0.1714089
1.116627,-0.5295234,-0.3819277
0.9582747,-0.3622163,-0.3946486
1.022678,-0.3785574,-0.2842275
1.190135,-0.3115943,-0.221136
1.218327,-0.2803353,-0.170024
1.092185,-0.3538019,-0.1574485
0.8688153,-0.2812028,-0.1638709
0.7152942,-0.1815448,-0.1111514
0.7331305,-0.14593,-0.1018841
0.7435846,-0.1340104,-0.1011265
0.7442623,-0.2488514,-0.05062228
0.7786369,-0.3460051,-0.05417108
0.7936729,-0.3573053,-0.07055616
0.829305,-0.3510682,-0.06734415
0.8264916,-0.2875325,-0.05773256
0.824215,-0.2475656,-0.03052358
0.8469068,-0.2210158,-0.02953118
0.8300589,-0.1814581,0.01440423
0.866496,-0.1245247,0.09613092
0.8978294,-0.06076853,0.08778384
0.9186301,-0.1048842,0.02159073
1.028266,-0.1208877,-0.05183279
1.101962,-0.1105288,-0.1051017
1.10043,-0.1883774,-0.08348265
1.159233,-0.2194745,-0.05670919
1.303184,-0.2079417,-0.08479769
1.408907,-0.1390542,-0.1531689
1.545228,-0.1315444,-0.3058671
1.67333,-0.4438228,-0.4282808
1.401881,-0.7884754,-0.3723463
0.9472068,-0.7149078,-0.2539208
0.7619202,-0.3773895,-0.1367523
0.7011896,-0.2098883,-0.08026377
0.8050452,-0.2546227,-0.1697752
1.109047,-0.417557,-0.2737483
1.20939,-0.5610832,-0.3422365
1.074799,-0.5121423,-0.3265569
0.89232,-0.4171551,-0.2100171
0.6752306,-0.2724249,-0.1804154
0.590202,-0.09664959,-0.1855071
0.6928071,-0.1041193,-0.1879334
0.8014641,-0.1568107,-0.2475909
0.8641035,-0.171304,-0.2600161
0.9144949,-0.1897808,-0.2647272
0.91382,-0.1664673,-0.2310161
0.895065,-0.1277133,-0.1501898
0.9231722,-0.08908034,-0.1413144
0.9402995,-0.06245875,-0.1015841
0.9710874,-0.05768558,-0.06920592
1.006562,-0.08543956,-0.1117756
0.9894478,-0.1110146,-0.1342817
1.030932,-0.1106242,-0.1686318
1.087748,-0.1191198,-0.1897504
1.123054,-0.11687,-0.1692423
1.247086,-0.1493617,-0.1430493
1.413704,-0.290786,-0.1020412
1.479279,-0.5243072,-0.1081778
1.2957,-0.6536365,-0.2123319
1.022349,-0.5085383,-0.330157
0.9573383,-0.2998007,-0.3378578
1.038076,-0.2025691,-0.2840495
1.115817,-0.2073796,-0.2732649
1.211787,-0.3057773,-0.2319363
1.314442,-0.368082,-0.1494
1.135813,-0.3684312,-0.1051037
0.7228418,-0.308907,-0.05845085
0.6100126,-0.1833549,-0.02719235
0.7172245,-0.158763,-0.0703992
0.7498052,-0.1972301,-0.1153608
0.8136141,-0.2327723,-0.130227
0.8607667,-0.3173422,-0.1220695
0.8483629,-0.3171612,-0.07854737
0.8286369,-0.2332529,-0.03936244
0.8023843,-0.1567349,0.01418803
0.799091,-0.08996435,0.05450476
0.8180206,-0.09082413,0.0302616
0.868437,-0.1093651,0.03095979
0.9345412,-0.1009354,0.03509035
1.001474,-0.1039002,-0.002266772
1.036096,-0.1130472,-0.01909654
1.038739,-0.168535,-0.03169108
1.141275,-0.2519801,-0.03370787
1.325676,-0.2661611,-0.03225446
1.445509,-0.2403383,-0.08839946
1.485389,-0.2585125,-0.2403168
1.521045,-0.3659438,-0.4794408
1.442201,-0.6516482,-0.5657384
1.111391,-0.9100739,-0.3477758
0.8345027,-0.7041061,-0.1402283
0.8487567,-0.2909815,-0.1604318
0.9403541,-0.1793774,-0.1936666
0.9827721,-0.2557235,-0.1947884
1.021635,-0.3547562,-0.2883039
1.002488,-0.4099391,-0.2980917
0.8897289,-0.3870622,-0.2153232
0.7859911,-0.339506,-0.2146115
0.7018113,-0.2071902,-0.213555
0.6670739,-0.1346916,-0.2127581
0.740794,-0.1638055,-0.2238417
0.7985311,-0.155786,-0.2079917
0.8577659,-0.1826741,-0.2224074
0.908916,-0.1636412,-0.208434
0.8790541,-0.1105273,-0.1862103
0.8998872,-0.09962369,-0.1863142
0.9380976,-0.05367814,-0.1594034
0.9608902,-0.05131281,-0.1450311
0.9935185,-0.06471633,-0.1181773
0.9788394,-0.08932376,-0.1145198
0.9954844,-0.1550896,-0.1507838
1.030453,-0.1468053,-0.1644507
1.071405,-0.1104666,-0.2119906
1.169518,-0.09608897,-0.2468251
1.282335,-0.1408027,-0.2086804
1.440775,-0.3161568,-0.1513085
1.509432,-0.5642404,-0.1418623
1.355064,-0.7090014,-0.2648315
1.202625,-0.598134,-0.3876218
1.08137,-0.3720643,-0.3344342
0.9444722,-0.2265813,-0.2629332
1.122901,-0.2407988,-0.2563468
1.379862,-0.3369622,-0.1883777
1.118415,-0.3029377,-0.1869482
0.7820823,-0.2751139,-0.2507553
0.7371187,-0.2571697,-0.1624841
0.6385166,-0.1282499,-0.08282824
0.6196896,-0.1767513,-0.05853389
0.6878912,-0.2898314,-0.005010295
0.6832025,-0.2980752,-0.03798382
0.7754384,-0.3278858,-0.05183237
0.8105316,-0.2653783,-0.03868423
0.8109099,-0.1712034,-0.04680969
0.9009607,-0.07839846,0.007109508
0.8893751,-0.03432916,0.01673256
0.8789688,-0.08949389,0.01842894
0.9221061,-0.003943327,0.06051111
0.9308499,0.01073716,0.05042257
0.9751618,-0.1125703,0.005691039
1.023663,-0.1692936,-0.05435935
1.057382,-0.2666463,-0.0533856
1.201548,-0.2398808,-0.005772855
1.428618,-0.1612609,-0.02785385
1.480912,-0.1353043,-0.1698967
1.490876,-0.06159941,-0.4235392
1.593302,-0.3093267,-0.5254696
1.332262,-0.5973312,-0.3730378
0.8384757,-0.4089166,-0.2370187
0.6938273,-0.2179949,-0.1833314
0.8635042,-0.2517504,-0.1794724
1.071183,-0.2969946,-0.2642006
1.169096,-0.4231866,-0.363737
1.203226,-0.5257865,-0.4054774
1.077724,-0.4563027,-0.3226702
0.7789808,-0.349464,-0.1815675
0.6727291,-0.1923085,-0.1679653
0.6569375,-0.04203961,-0.2156792
0.6266053,-0.07206029,-0.2455174
0.7396407,-0.1490756,-0.2962016
0.818309,-0.2185304,-0.2996662
0.837612,-0.2582433,-0.2492984
0.8125852,-0.1842371,-0.1849945
0.7776,-0.1184036,-0.1427386
0.8522699,-0.06026305,-0.1530894
0.9239745,-0.0306397,-0.1593415
1.013268,-0.1114052,-0.1607891
1.074035,-0.184838,-0.1644178
1.049406,-0.2056895,-0.1703389
1.066046,-0.1546656,-0.2299544
1.088926,-0.06735966,-0.299809
1.214456,-0.09481877,-0.2874973
1.490664,-0.2819702,-0.1792434
1.632381,-0.5497926,-0.094319
1.428839,-0.6390101,-0.142717
1.066337,-0.5021906,-0.2455733
0.9561168,-0.3756207,-0.2933892
1.132338,-0.2652864,-0.2649337
1.332604,-0.255514,-0.2104413
1.345422,-0.366371,-0.1924885
1.145038,-0.3675622,-0.1657621
0.9100143,-0.3539426,-0.09580039
0.7394459,-0.2861538,-0.03479264
0.6862518,-0.09143573,-0.0009627238
0.6854089,-0.08213747,-0.01505881
0.7078531,-0.1768031,-0.05472001
0.8241577,-0.2199357,-0.08087982
0.866266,-0.2750605,-0.1221787
0.8715656,-0.2510851,-0.1084988
0.9020315,-0.2027047,-0.03481128
0.8405328,-0.1559713,0.01590382
0.8133515,-0.108764,0.06772301
0.8167873,-0.1204291,0.0775309
0.8219388,-0.1038914,0.05449819
0.8833911,-0.09516022,0.03853607
0.9405044,-0.1101891,-0.01099174
1.004394,-0.1216646,-0.03472463
1.040747,-0.1941023,-0.05749839
1.103412,-0.2412969,-0.09944592
1.256188,-0.220185,-0.09182086
1.383178,-0.1781697,-0.1239598
1.466263,-0.1911292,-0.2602765
1.571487,-0.424689,-0.4581932
1.61024,-0.722725,-0.5607216
1.271058,-0.6939071,-0.3614211
0.7560366,-0.4488496,-0.08797578
0.6788297,-0.3370745,-0.0925707
0.878046,-0.2735323,-0.1805304
0.9859507,-0.2081816,-0.2008445
1.051226,-0.3225297,-0.2914928
1.039503,-0.4752578,-0.3048356
0.9336056,-0.426192,-0.2258338
0.8281609,-0.2819034,-0.2280694
0.7718826,-0.1870802,-0.2377969
0.7430173,-0.1106622,-0.2511617
0.7037712,-0.1249536,-0.2600647
0.7052333,-0.1761402,-0.2415061
0.8017795,-0.1625919,-0.2594548
0.9167607,-0.2256445,-0.254661
0.9322781,-0.2250034,-0.2414155
0.8874127,-0.1333155,-0.2141511
0.871243,-0.09769712,-0.1377926
0.8712968,-0.0080587,-0.1193735
0.9089018,-0.02423764,-0.1294034
0.9933609,-0.08524043,-0.107836
1.022215,-0.03852097,-0.1000853
0.9942677,-0.09811771,-0.1217572
1.009759,-0.1335067,-0.1677619
1.073391,-0.1077496,-0.2083366
1.180397,-0.1258702,-0.2051819
1.31205,-0.1259044,-0.1320579
1.40664,-0.2466611,-0.04420471
1.423465,-0.4555279,-0.05847404
1.273691,-0.5299443,-0.2264331
1.022605,-0.3930602,-0.4215829
0.9436691,-0.2414006,-0.4249161
1.121615,-0.290378,-0.329294
1.365793,-0.3817187,-0.3080388
1.449539,-0.4406902,-0.2545738
1.276828,-0.4360092,-0.1807927
0.9211496,-0.2633699,-0.1402321
0.6507417,-0.1153595,-0.07420843
0.678676,-0.1061034,-0.07153905
0.7731992,-0.1502486,-0.1240254
0.7399732,-0.1926716,-0.1421622
0.7879069,-0.2777248,-0.1557076
0.85929,-0.4088216,-0.125682
0.808638,-0.4058774,-0.07210819
0.8030376,-0.3210551,-0.04723817
0.8036666,-0.2423799,-0.009273756
0.8015438,-0.1213983,-0.002493798
0.8798769,-0.07990495,-0.02763056
0.9010041,-0.08030177,-0.02796586
0.9349826,-0.051383,-0.02974084
1.021163,-0.05660875,-0.04034773
1.040426,-0.0874294,-0.06348579
1.053844,-0.1578231,-0.08699627
1.142369,-0.1886137,-0.07828866
1.332964,-0.1216545,-0.08077708
1.449632,0.01227942,-0.146631
1.458861,0.1050643,-0.2814022
1.523032,-0.1590695,-0.439484
1.376775,-0.6549996,-0.4745415
0.9879642,-0.7996367,-0.2966827
0.7906702,-0.5513965,-0.1292752
0.8367983,-0.340289,-0.1875778
0.9255822,-0.308739,-0.267231
0.9907831,-0.3144553,-0.2566306
1.042371,-0.3527923,-0.3035314
1.051145,-0.4240323,-0.305037
0.974098,-0.3910452,-0.226066
0.8575877,-0.3158404,-0.1994884
0.763742,-0.2561798,-0.1915397
0.7314262,-0.1456248,-0.2215781
0.7422299,-0.1098041,-0.2495422
0.7683676,-0.1388939,-0.2312249
0.8377535,-0.1143565,-0.2547598
0.8912976,-0.1104641,-0.2529696
0.8914541,-0.1194846,-0.2206668
0.9002179,-0.1163481,-0.1935985
0.9110026,-0.1165117,-0.1492228
0.916139,-0.08740455,-0.1435864
0.9479787,-0.05497889,-0.1414218
0.9816885,-0.04393546,-0.1420365
0.9913192,-0.07585376,-0.1559989
1.025388,-0.1273212,-0.1539437
1.084581,-0.1400524,-0.1804449
1.117855,-0.1209955,-0.1928954
1.202112,-0.1069857,-0.180428
1.360626,-0.1841984,-0.1699902
1.425312,-0.3816427,-0.1501506
1.369976,-0.6128361,-0.160008
1.299312,-0.6871233,-0.1848541
1.116468,-0.4771571,-0.2349124
0.9087234,-0.258553,-0.2921246
1.06132,-0.2663883,-0.2362827
1.284151,-0.3214382,-0.1445618
1.127895,-0.3180085,-0.1387599
0.9677552,-0.3096241,-0.1226452
0.8746965,-0.2717296,-0.08748312
0.7035073,-0.1962197,-0.0805868
0.7099384,-0.16585,-0.03394333
0.7242338,-0.2222837,-0.0229514
0.7420478,-0.3032093,-0.07904158
0.8867412,-0.3499343,-0.100031
0.8816337,-0.3300191,-0.1070054
0.8619164,-0.2540509,-0.08711725
0.8810473,-0.1892176,-0.05294181
0.8478268,-0.1381267,-0.02645923
0.868937,-0.08124828,0.02876492
0.8531751,-0.07233481,0.02237561
0.8666585,-0.0869731,-0.006939011
0.9042346,-0.04225461,0.007913677
0.9084902,-0.02179365,-0.02074153
0.9786542,-0.0924719,-0.0539314
1.049057,-0.1703441,-0.07411918
1.162809,-0.2344962,-0.09166009
1.307137,-0.2313806,-0.06276602
1.392561,-0.1068773,-0.0814884
1.442077,-0.02829124,-0.2183436
1.444533,-0.2108543,-0.4011356
1.338065,-0.6275642,-0.4518175
1.037075,-0.8581467,-0.2909729
0.7788448,-0.6169827,-0.1456744
0.7254447,-0.3248926,-0.1375295
0.8271214,-0.3218007,-0.1920656
1.08704,-0.341185,-0.2833794
1.16046,-0.3450355,-0.3184028
1.024948,-0.4377787,-0.2641825
0.9159207,-0.389992,-0.1909985
0.7722182,-0.2741772,-0.1600283
0.7345797,-0.2081867,-0.2055078
0.7667671,-0.1105703,-0.2473979
0.7610086,-0.1352085,-0.2485359
0.7973482,-0.1770658,-0.2416098
0.8219753,-0.1474512,-0.2300484
0.8635557,-0.16691,-0.214859
0.890015,-0.1182174,-0.1823776
0.8829282,-0.07638434,-0.163689
0.8996135,-0.06643497,-0.155391
0.9113367,-0.01306435,-0.1330071
0.9619403,-0.04490118,-0.1389125
1.015318,-0.1240038,-0.1624924
1.044146,-0.203896,-0.1768976
1.078819,-0.2291089,-0.1838919
1.111014,-0.1699697,-0.1926972
1.187371,-0.1275069,-0.2055882
1.329723,-0.09150378,-0.171819
1.512644,-0.1934287,-0.09912353
1.540493,-0.3678149,-0.0844157
1.253637,-0.3498983,-0.1780888
0.8687074,-0.3427361,-0.2854628
0.761533,-0.3501781,-0.2781837
1.026397,-0.238208,-0.2421259
1.249817,-0.2796049,-0.2570611
1.183896,-0.3511047,-0.2107461
1.010998,-0.285669,-0.1181218
0.7822355,-0.2721735,-0.03055389
0.6381336,-0.205342,0.04004233
0.6948223,-0.130807,0.006105908
0.7352465,-0.1742175,-0.0402123
0.7951791,-0.2355328,-0.07208728
0.947365,-0.3633665,-0.1695981
0.9336563,-0.3917916,-0.1569494
0.8242812,-0.2658985,-0.05813432
0.812576,-0.2105417,-0.0273105
0.7899443,-0.173103,0.00675473
0.808392,-0.1497201,0.007779874
0.8661901,-0.1185695,-0.001963397
0.8505222,-0.06541,0.02450767
0.8755999,-0.1023499,-0.007375291
0.9515729,-0.09893322,-0.04128562
1.028742,-0.08457314,-0.07443405
1.074457,-0.1508094,-0.1214938
1.093916,-0.1815601,-0.1187211
1.19318,-0.1880265,-0.1029948
1.288673,-0.1583276,-0.07851863
1.399164,-0.1732384,-0.2050118
1.568821,-0.3976741,-0.5363943
1.581328,-0.6812187,-0.6861569
1.283564,-0.7262617,-0.4479173
0.7751785,-0.5215512,-0.1124532
0.5630606,-0.3201866,-0.02142845
0.7240102,-0.1715099,-0.03846243
0.8203895,-0.1468778,-0.07339588
1.058382,-0.3515642,-0.2774208
1.363249,-0.4946741,-0.3717572
1.189721,-0.460292,-0.2749892
0.8746424,-0.3602187,-0.1938358
0.7762243,-0.2321192,-0.1296012
0.6959509,-0.1456626,-0.160575
0.686322,-0.0789619,-0.2092906
0.7393738,-0.0921427,-0.2149941
0.7848126,-0.1673343,-0.2503912
0.9081546,-0.1962659,-0.2414958
0.9282282,-0.2162691,-0.2073258
0.8740145,-0.168445,-0.1635499
0.8970052,-0.09106487,-0.1096011
0.8827964,-0.05508972,-0.0859879
0.9092494,-0.02990362,-0.07530153
0.962261,-0.07007459,-0.084656
0.973862,-0.1409292,-0.09152076
1.017472,-0.2177471,-0.1185463
1.074378,-0.2561738,-0.1854285
1.175763,-0.2036381,-0.2106475
1.269842,-0.1937387,-0.1821723
1.340772,-0.2747975,-0.1436623
1.391039,-0.4831174,-0.1326925
1.307071,-0.7002567,-0.1925515
1.140567,-0.5713649,-0.3061979
0.9753183,-0.3147164,-0.3498247
0.9730508,-0.2796987,-0.2688007
1.162117,-0.2677519,-0.1934264
1.241177,-0.2858608,-0.1914081
1.126492,-0.3569728,-0.2015498
0.9375843,-0.290738,-0.1872278
0.7989002,-0.2216039,-0.1344505
0.7481823,-0.1628369,-0.04676195
0.7193039,-0.1115935,0.02450678
0.7420777,-0.2163111,0.0348498
0.7994916,-0.3139427,0.002717466
0.8753915,-0.3500271,-0.04764976
0.9367057,-0.3444205,-0.08670901
0.9047499,-0.283706,-0.07420761
0.8705639,-0.2346082,-0.02809172
0.8512613,-0.1145513,0.02172015
0.8410568,-0.06600086,0.04278982
0.8655979,-0.09636691,0.03699113
0.8498895,-0.001625399,0.04808659
0.8753254,0.003215161,0.01949767
0.9739552,-0.08498634,-0.069158
1.060744,-0.1500244,-0.1329533
1.128299,-0.2736128,-0.14273
1.173841,-0.2804894,-0.08083731
1.253543,-0.1882403,-0.02550796
1.345651,-0.1710567,-0.1323788
1.486159,-0.2114462,-0.336722
1.61598,-0.4061925,-0.4589893
1.342251,-0.7062776,-0.4361079
0.9022837,-0.7800593,-0.3158884
0.7736588,-0.505225,-0.1651589
0.7307554,-0.2100344,-0.04248633
0.7991707,-0.2049612,-0.0823061
1.105804,-0.3552111,-0.2464281
1.25211,-0.4867565,-0.3324859
1.122933,-0.539157,-0.3278738
0.9226628,-0.4675406,-0.2634551
0.7636813,-0.3571803,-0.2038231
0.6928159,-0.2176864,-0.199366
0.6982267,-0.08050089,-0.2033062
0.7546604,-0.0755365,-0.2424877
0.8141508,-0.1275924,-0.2416522
0.8922221,-0.1477574,-0.2068227
0.9349677,-0.1592162,-0.1994955
0.8813734,-0.1278525,-0.13755
0.8481717,-0.06410372,-0.1047131
0.8364918,-0.01955401,-0.09334904
0.8611818,-0.009000487,-0.07181682
0.9366619,-0.06130506,-0.1129354
0.9755865,-0.1439679,-0.135651
1.060382,-0.1827613,-0.1734876
1.181855,-0.1691252,-0.2149696
1.255686,-0.1140341,-0.1724822
1.301683,-0.08394001,-0.09750221
1.323022,-0.209519,-0.03915679
1.343823,-0.457518,-0.1034247
1.269194,-0.5678022,-0.2466066
1.056645,-0.4407979,-0.3401389
0.9348449,-0.3195533,-0.3839315
1.054022,-0.3108388,-0.296452
1.253291,-0.2855024,-0.1520138
1.31697,-0.2888972,-0.1225372
1.253694,-0.3263551,-0.1203614
1.049138,-0.256934,-0.108578
0.7742,-0.1703321,-0.1282018
0.7368587,-0.1635412,-0.1176988
0.803095,-0.2057245,-0.1055423
0.7290167,-0.296885,-0.1076793
0.732176,-0.3431107,-0.09725668
0.8027792,-0.337029,-0.1055177
0.8054761,-0.3439751,-0.09384038
0.8369165,-0.2805829,-0.06294432
0.834654,-0.1565981,-0.02557176
0.8095282,-0.09206765,0.03464405
0.8582118,-0.08357359,0.05150471
0.8892919,-0.05537694,0.03928942
0.9207342,-0.02743517,0.0132609
0.9610569,-0.02543351,-0.04108798
0.98323,-0.03499789,-0.06774195
1.040059,-0.1012255,-0.1103253
1.068973,-0.1857308,-0.1579719
1.140889,-0.187809,-0.09967323
1.315665,-0.05635873,-0.04448295
1.445187,0.0972932,-0.1448334
1.526186,0.01330889,-0.2947196
1.54531,-0.3104416,-0.3596499
1.339264,-0.6498784,-0.3221067
0.9124708,-0.7167822,-0.1829068
0.6431975,-0.4573369,-0.07192522
0.7301697,-0.2868785,-0.1136482
0.8608004,-0.3009322,-0.1876226
1.003059,-0.3350188,-0.2188209
1.178353,-0.4387039,-0.2698636
1.08725,-0.4774696,-0.249402
0.8816671,-0.397805,-0.146978
0.7661521,-0.280814,-0.1333903
0.6784762,-0.1359135,-0.1569391
0.7332734,-0.06372445,-0.1761608
0.8105677,-0.06436009,-0.2403911
0.8379901,-0.1097634,-0.249548
0.9466312,-0.1457284,-0.2256249
0.9444263,-0.1186402,-0.1964849
0.8934878,-0.09209621,-0.1435127
0.9198385,-0.04216264,-0.1342105
0.8868219,-0.01921162,-0.1343036
0.9209696,-0.04976164,-0.1152958
0.9811565,-0.07036192,-0.08674587
0.9767635,-0.122665,-0.07820357
1.010775,-0.1507471,-0.115632
1.052003,-0.1248239,-0.1656081
1.156639,-0.1040568,-0.2220565
1.273501,-0.09990635,-0.2019605
1.325179,-0.1873122,-0.1015822
1.362148,-0.3931047,-0.04558125
1.312446,-0.543333,-0.09017732
1.183155,-0.484173,-0.2576926
1.000105,-0.3309769,-0.4054846
0.9257901,-0.243329,-0.3839214
1.124332,-0.2664895,-0.2930724
1.273796,-0.3672207,-0.2323802
1.174275,-0.4040207,-0.1616901
0.9876573,-0.3603542,-0.08993676
0.7864236,-0.2582105,-0.07631238
0.6812637,-0.09278216,-0.06623614
0.724194,-0.03831911,-0.05212818
0.7380767,-0.1171736,-0.06598219
0.7486975,-0.2374571,-0.07072546
0.8338987,-0.3845326,-0.08672953
0.8287601,-0.3981243,-0.08592761
0.8001295,-0.2955859,-0.06264553
0.8295929,-0.2402524,-0.04027374
0.8097739,-0.1710085,0.009342858
0.8160303,-0.1328061,0.02329472
0.8444577,-0.1396742,0.03187106
0.8607037,-0.0820676,0.05683472
0.9146314,-0.08703065,0.02415728
0.9700877,-0.111359,-0.0007526836
1.035649,-0.08291695,-0.02128472
1.064428,-0.1351159,-0.06713633
1.110232,-0.1495345,-0.08223911
1.303768,-0.1196249,-0.08760055
1.465077,-0.08048066,-0.1088562
1.469998,-0.02784893,-0.2189817
1.459763,-0.2825789,-0.4492519
1.392366,-0.710285,-0.5677957
1.073146,-0.8008956,-0.3795673
0.7229092,-0.524883,-0.1402363
0.703139,-0.2305958,-0.1562644
0.8654441,-0.1962741,-0.2249553
0.993924,-0.3077599,-0.237498
1.073893,-0.4138143,-0.3214089
1.032523,-0.4838084,-0.3063756
0.9101991,-0.4185758,-0.2274927
0.8021319,-0.2810877,-0.2256888
0.7257483,-0.1698343,-0.2044052
0.7325759,-0.1104348,-0.2290939
0.7752699,-0.1348738,-0.2623668
0.8067538,-0.1649094,-0.2447971
0.8851357,-0.1625198,-0.2608736
0.9127328,-0.1678259,-0.2330666
0.8705082,-0.1541212,-0.1817376
0.8785605,-0.12637,-0.1614341
0.8912261,-0.08965079,-0.1395281
0.9143624,-0.03370166,-0.1418678
0.9653688,-0.04419975,-0.1398239
0.9973602,-0.1199631,-0.1433537
1.029687,-0.1774521,-0.1563917
1.03434,-0.1959911,-0.1544903
1.040713,-0.1810648,-0.1899224
1.080809,-0.1835755,-0.2355522
1.13846,-0.1611519,-0.2268868
1.278731,-0.1341922,-0.1558768
1.424581,-0.3025141,-0.07094159
1.415908,-0.5680663,-0.07639451
1.258322,-0.6230139,-0.2188404
1.013288,-0.4395803,-0.3891589
0.8669571,-0.3030792,-0.4112493
1.046218,-0.3760184,-0.3305651
1.2941,-0.4425399,-0.2898955
1.260892,-0.4219341,-0.2479735
1.050664,-0.3845408,-0.1825264
0.7841747,-0.2653428,-0.1120647
0.6433839,-0.1708934,-0.05249691
0.7092331,-0.1378855,-0.0705259
0.7269407,-0.0907979,-0.0960221
0.7911756,-0.1827564,-0.1001013
0.9330471,-0.3570553,-0.1405419
0.9166851,-0.4079089,-0.1253038
0.8814967,-0.3485362,-0.08797021
0.874703,-0.2392089,-0.0851665
0.8401946,-0.1635309,-0.03093408
0.8571175,-0.1351592,0.005310809
0.867801,-0.1288306,0.002717902
0.8725984,-0.1205912,0.02196378
0.8935387,-0.0524742,0.02334546
0.9162797,-0.03453685,0.01279406
0.9990281,-0.1144501,-0.03305471
1.108901,-0.1976688,-0.1120083
1.143917,-0.2322264,-0.1310049
1.149742,-0.1784301,-0.09242833
1.215187,-0.08297343,-0.02935534
1.227841,0.003805595,0.01659708
1.245509,-0.00467959,-0.08827122
1.427089,-0.1443852,-0.3172668
1.487545,-0.395687,-0.4213531
1.225865,-0.7233693,-0.3602063
0.8758599,-0.7162667,-0.253666
0.7311629,-0.4204964,-0.1280064
0.8184216,-0.3110304,-0.1063591
0.9033243,-0.2399806,-0.2236987
0.9862542,-0.2785798,-0.3024968
1.054926,-0.4555152,-0.2862284
0.9583749,-0.4460526,-0.219867
0.8666907,-0.4262949,-0.1599543
0.8044111,-0.3477381,-0.1642306
0.705975,-0.1954363,-0.1878646
0.7217172,-0.1721546,-0.1982986
0.7878158,-0.1355562,-0.2285872
0.8550101,-0.1568097,-0.2427957
0.9446176,-0.1646351,-0.2351355
0.9561547,-0.112294,-0.2436584
0.9258665,-0.1343345,-0.2094826
0.9173275,-0.08355514,-0.1582454
0.9354673,-0.06244454,-0.1514725
0.9737094,-0.07530584,-0.1146191
0.9834482,-0.06850691,-0.07559901
0.9675025,-0.1569395,-0.09333458
0.9553573,-0.1965145,-0.1194494
0.9877049,-0.2074055,-0.1663918
1.073421,-0.2099141,-0.2239494
1.173398,-0.1845737,-0.2210231
1.263543,-0.2321861,-0.1590491
1.30989,-0.2944035,-0.1079404
1.31585,-0.3859521,-0.131484
1.221374,-0.4148769,-0.2116168
0.9912312,-0.3284054,-0.3228754
0.8842236,-0.3182003,-0.4107033
1.060827,-0.3808791,-0.3398301
1.282185,-0.4660977,-0.1975061
1.296781,-0.4874964,-0.1323283
1.114861,-0.3358755,-0.07716099
0.8969609,-0.1135035,-0.0773545
0.8041683,0.02312522,-0.1284252
0.8340306,-0.0243685,-0.1225989
0.8233952,-0.1497724,-0.1228958
0.7963139,-0.2276599,-0.1096606
0.8317066,-0.3045889,-0.08208162
0.8589915,-0.3662516,-0.07647968
0.8905236,-0.361207,-0.05256176
0.8747657,-0.2585814,-0.05984946
0.8147577,-0.1630095,-0.05234172
0.8441635,-0.1797441,-0.02256596
0.8944057,-0.1883184,-0.0153104
0.9298637,-0.1732995,0.01616883
0.9424688,-0.1608635,0.02069695
0.903998,-0.1078989,0.03186549
0.9120062,-0.07392422,0.04447506
0.9305808,-0.08951355,-0.01991738
0.9802243,-0.139473,-0.06178492
1.123354,-0.1965664,-0.0538266
1.228301,-0.2240866,-0.04147522
1.276,-0.1720453,-0.0593625
1.311255,-0.1031373,-0.1492323
1.414353,-0.1914907,-0.3010324
1.550652,-0.4143332,-0.4199683
1.393277,-0.6067243,-0.3687409
1.005567,-0.5391334,-0.2294211
0.7299534,-0.2691182,-0.1207828
0.648754,-0.1306699,-0.09724111
0.7633194,-0.09635741,-0.2097372
0.9287588,-0.1803627,-0.2947771
1.071075,-0.3759147,-0.316314
1.134272,-0.4505863,-0.3132338
0.9684561,-0.4419076,-0.2246116
0.8380033,-0.3014169,-0.1695513
0.8343054,-0.1196898,-0.1702612
0.8106771,-0.1118176,-0.196313
0.8608715,-0.1406692,-0.2451546
0.8831265,-0.1837807,-0.2469878
0.9028094,-0.2044875,-0.2473061
0.9410223,-0.1712711,-0.2268199
0.8722256,-0.150626,-0.203321
0.8660225,-0.1218881,-0.2183407
0.9048323,-0.1379091,-0.2045275
0.9531384,-0.1276957,-0.2029367
1.017104,-0.1022178,-0.1891119
0.9753038,-0.1058492,-0.1455597
0.9618835,-0.07686042,-0.1163613
0.9788343,-0.1043773,-0.09390862
0.9672161,-0.1303474,-0.1263939
1.004045,-0.1287196,-0.1713828
1.034044,-0.1408531,-0.1977214
1.04494,-0.1204827,-0.2197947
1.078056,-0.1410788,-0.2075039
1.176006,-0.2044428,-0.1828522
1.294161,-0.3212943,-0.1185486
1.327279,-0.42759,-0.08267323
1.238858,-0.3838284,-0.1854667
1.0366,-0.2852453,-0.3193966
0.9300451,-0.22064,-0.3842319
1.038738,-0.2618346,-0.4032525
1.127562,-0.3489744,-0.3848198
1.073799,-0.3344986,-0.2740523
1.021969,-0.3357065,-0.1245633
0.9489268,-0.2743226,-0.09551502
0.7891784,-0.0959272,-0.1277758
0.7766254,-0.09743605,-0.1076406
0.8597777,-0.2040432,-0.1034575
0.8513191,-0.2635684,-0.1193055
0.9073242,-0.3543806,-0.1260025
0.9453413,-0.3705791,-0.1545321
0.907442,-0.3279374,-0.1454189
0.9291622,-0.2903164,-0.0997709
0.9200295,-0.2166245,-0.08412803
0.8891061,-0.1971469,-0.06557646
0.8795914,-0.1758948,-0.04622769
0.8843687,-0.1172826,-0.03626686
0.9200793,-0.1294843,-0.02512726
0.9155572,-0.1322075,-0.01896615
0.9149812,-0.09602544,-0.005158248
0.9316729,-0.04906968,-0.0142841
0.9287971,0.01373768,-0.03512859
0.964594,-0.03209285,-0.05695329
1.009597,-0.1570072,-0.09220758
1.042612,-0.2276839,-0.08916235
1.083396,-0.242739,-0.05741927
1.142579,-0.1873486,-0.02974177
1.213848,-0.08014424,-0.06942218
1.29149,-0.02572139,-0.2234937
1.425671,-0.2247348,-0.4113342
1.459588,-0.5859861,-0.5099842
1.278442,-0.6359031,-0.4004375
1.046612,-0.4669741,-0.2219059
0.8052472,-0.3569397,-0.1448104
0.634561,-0.1700531,-0.109085
0.6334899,-0.09726708,-0.170965
0.7692698,-0.2573542,-0.2819836
0.8639452,-0.2461316,-0.1837917
0.828714,-0.1694739,-0.1471362
0.9066325,-0.08842226,-0.1470623
0.9181162,-0.05166697,-0.1445219
0.9687354,-0.02229184,-0.1130161
0.9888147,-0.07215664,-0.1081541
0.9008492,-0.08234839,-0.09125699
0.8977356,-0.1057482,-0.09887055
0.9664252,-0.1291955,-0.1538345
1.163119,-0.1038142,-0.2225292
1.3202,-0.1214591,-0.2518692
1.291314,-0.09966564,-0.1698323
1.292762,-0.1520015,-0.06614302
1.309821,-0.3045932,-0.03713594
1.235359,-0.3687907,-0.1311038
1.040788,-0.3043747,-0.3476256
0.8799279,-0.2143265,-0.4743869
0.9810587,-0.2848277,-0.3792483
1.186586,-0.3888515,-0.2515392
1.279497,-0.4642873,-0.237633
1.248318,-0.5439003,-0.2003404
1.064318,-0.3743905,-0.1432243
0.8228136,-0.1442423,-0.1748654
0.7461292,-0.1228211,-0.161039
0.7486299,-0.1687473,-0.1145746
0.6983982,-0.2442139,-0.1138755
0.715381,-0.3229225,-0.08990001
0.7798761,-0.3567253,-0.0858766
0.8325569,-0.3188499,-0.08938703
0.8589899,-0.2235826,-0.07083549
0.8095765,-0.137728,-0.05680727
0.7896697,-0.06057955,-0.02748652
0.8514089,-0.07376549,-0.01617945
0.9116184,-0.1305606,-0.00381474
0.9445279,-0.1310368,0.01721925
0.9648089,-0.1250328,-0.005204762
0.9950857,-0.09971699,-0.04632893
1.054318,-0.1409672,-0.07293443
1.180417,-0.2181725,-0.06407552
1.340379,-0.1953859,-0.0460204
1.426606,-0.1490148,-0.09543549
1.516547,-0.1133133,-0.2876206
1.635331,-0.2096862,-0.531789
1.512871,-0.4884118,-0.521257
1.131836,-0.6285773,-0.3009187
0.7888376,-0.4259315,-0.1690991
0.6662817,-0.1958976,-0.1163816
0.809606,-0.293378,-0.1608432
1.011626,-0.4183255,-0.2846174
1.099753,-0.4286244,-0.3419001
1.12024,-0.5178882,-0.3648856
0.9938359,-0.4396618,-0.2940352
0.856796,-0.3118347,-0.2121902
0.7912452,-0.2622944,-0.2397753
0.6384428,-0.07428088,-0.2053678
0.6393499,-0.07552893,-0.1990238
0.7633571,-0.2031593,-0.2525641
0.7799602,-0.1926412,-0.243075
0.8424711,-0.2626944,-0.2480767
0.850872,-0.2383902,-0.2235533
0.8173297,-0.1014469,-0.1875356
0.8842777,-0.07459117,-0.1867346
0.8940624,-0.05022335,-0.1680766
0.9381886,-0.04776992,-0.155882
1.033148,-0.06775611,-0.1370545
1.026597,-0.1019468,-0.1448494
1.033383,-0.1754807,-0.1840317
1.059821,-0.1657832,-0.221047
1.109602,-0.117692,-0.243067
1.265412,-0.1001885,-0.1698507
1.414199,-0.193342,-0.06970662
1.418807,-0.4188365,-0.07240562
1.178526,-0.5036674,-0.2228149
0.8746291,-0.3963615,-0.3913898
0.8627877,-0.2989192,-0.3447336
1.057256,-0.3021618,-0.2439006
1.252703,-0.3588623,-0.2455463
1.377204,-0.4075428,-0.201926
1.241607,-0.4411629,-0.1638619
0.9593578,-0.3529927,-0.129156
0.8155287,-0.1933447,-0.05039959
0.7246587,-0.1401383,-0.05537556
0.6772979,-0.1693932,-0.07379058
0.7099009,-0.2223915,-0.0737758
0.7366133,-0.2732202,-0.1251585
0.8309447,-0.3389245,-0.139211
0.857796,-0.3507378,-0.1096242
0.7822197,-0.2626965,-0.06553508
0.7961539,-0.1967639,-0.0206114
0.8022362,-0.1287722,0.004368869
0.824753,-0.07308993,0.04325801
0.8793947,-0.05723105,0.03846563
0.8899848,-0.03246125,-0.01905694
0.9692821,-0.08715184,-0.06432158
1.051988,-0.1670033,-0.1063438
1.08309,-0.2139518,-0.1194542
1.154008,-0.2477842,-0.1001823
1.291409,-0.2023659,-0.07450373
1.407823,-0.09136655,-0.06305155
1.446461,0.001104934,-0.1893562
1.506819,-0.1700558,-0.4346542
1.386618,-0.5685347,-0.5105271
0.990251,-0.7183383,-0.3212669
0.7206546,-0.5595841,-0.1278974
0.7072345,-0.3817096,-0.1126538
0.8462621,-0.3147777,-0.1662908
1.033454,-0.326403,-0.2045967
1.116267,-0.3826122,-0.2633669
1.067888,-0.4530234,-0.2598804
0.9260642,-0.4011601,-0.1853384
0.803964,-0.3049577,-0.1609072
0.7507493,-0.2606803,-0.1662473
0.726441,-0.1540408,-0.1877751
0.7080386,-0.0654059,-0.2206681
0.7132711,-0.086477,-0.2242164
0.8215232,-0.1466148,-0.2430726
0.8975221,-0.1714896,-0.2425124
0.8987262,-0.1791886,-0.2073095
0.9089251,-0.1893217,-0.1800524
0.8585214,-0.1302558,-0.12517
0.8692441,-0.07539088,-0.1012183
0.9345071,-0.06142355,-0.1200019
0.9745508,-0.07492144,-0.1092701
1.018391,-0.1389863,-0.1194096
0.9910993,-0.1499722,-0.1659302
1.051548,-0.1329535,-0.2244623
1.198417,-0.08997273,-0.2514233
1.299697,-0.04850881,-0.1641238
1.41496,-0.2050551,-0.03885441
1.407533,-0.4756541,-0.02064644
1.219972,-0.5901542,-0.162688
0.9447739,-0.4216445,-0.364479
0.8305249,-0.2443786,-0.4092174
1.068568,-0.3032288,-0.329179
1.301502,-0.354765,-0.3021219
1.302597,-0.3760727,-0.272626
1.180838,-0.4346355,-0.1865789
0.9777436,-0.3598373,-0.1168423
0.7610824,-0.2089556,-0.07054528
0.6343281,-0.09894652,-0.04089974
0.6906371,-0.11542,-0.06966742
0.7997758,-0.2483769,-0.1449337
0.8173596,-0.3133388,-0.1841555
0.8314775,-0.3242409,-0.1498237
0.8135567,-0.3087064,-0.08980237
0.7751159,-0.2372982,-0.05324315
0.779974,-0.1662958,-0.02650907
0.7730157,-0.0931637,0.003610192
0.7989765,-0.08283673,0.01827225
0.8429977,-0.08978152,0.004753955
0.9154485,-0.06055864,-0.0469552
1.049953,-0.1331491,-0.08451175
1.098255,-0.1990605,-0.08867491
1.099247,-0.1670666,-0.1013558
1.181758,-0.1426896,-0.08598611
1.314803,-0.1087419,-0.08714128
1.399701,-0.07256995,-0.1867084
1.457976,-0.1593114,-0.3391589
1.553241,-0.4693459,-0.440584
1.342239,-0.7598732,-0.3964061
0.8426728,-0.6788155,-0.2393775
0.65694,-0.4098107,-0.07267165
0.7846867,-0.256845,-0.05321237
0.9252786,-0.2160451,-0.207417
1.084765,-0.3356698,-0.3104434
1.190862,-0.4997402,-0.3277221
1.050677,-0.4646518,-0.2821607
0.8146575,-0.358091,-0.191692
0.7541966,-0.2238585,-0.2001338
0.7126757,-0.09627906,-0.213061
0.6915525,-0.1309863,-0.2136388
0.7720547,-0.1440756,-0.2669498
0.7967251,-0.1418296,-0.2532352
0.8692406,-0.1976136,-0.2193869
0.9285741,-0.1783914,-0.1985637
0.8892589,-0.14846,-0.1792344
0.9009696,-0.1099662,-0.1855175
0.899505,-0.073082,-0.1451069
0.8972857,-0.0634242,-0.1019061
0.92197,-0.06537556,-0.09491959
0.9583099,-0.1456584,-0.1120504
1.042879,-0.2093482,-0.1667373
1.11377,-0.227713,-0.2162276
1.186676,-0.2021532,-0.2468088
1.268735,-0.1177914,-0.2226285
1.367787,-0.1476186,-0.1597037
1.432548,-0.3210853,-0.126189
1.325501,-0.541227,-0.1532696
1.099376,-0.6035571,-0.2689268
0.8845132,-0.4328873,-0.3373363
0.9025722,-0.3036834,-0.2708017
1.151361,-0.2583604,-0.2139978
1.272913,-0.289957,-0.2291967
1.198215,-0.4112774,-0.2101249
1.019451,-0.4070161,-0.1280522
0.7958583,-0.2858986,-0.08781144
0.6685723,-0.1463973,-0.05711479
0.6592187,-0.1151149,-0.02457138
0.7121517,-0.2362431,-0.07167787
0.778964,-0.2987226,-0.09977167
0.8383114,-0.3362139,-0.09157292
0.8528694,-0.3266782,-0.08318006
0.8157503,-0.2234415,-0.0445636
0.8139603,-0.1862075,-0.01691808
0.8196706,-0.145149,0.02863408
0.8147179,-0.1307693,0.05644263
0.8427307,-0.1336394,0.02153301
0.8953867,-0.05755215,-0.009632429
0.9669388,-0.06743103,-0.04805344
1.005768,-0.130574,-0.06614757
1.054419,-0.1860422,-0.0649577
1.163444,-0.2294869,-0.08657942
1.30203,-0.1911139,-0.08180615
1.446154,-0.1235722,-0.1290763
1.505485,-0.09670839,-0.3144601
1.534381,-0.3615944,-0.5226296
1.430573,-0.7455926,-0.5513964
1.003626,-0.67216,-0.3170792
0.6594955,-0.3778415,-0.09568696
0.6718954,-0.2337799,-0.122891
0.8686425,-0.2043769,-0.2085178
1.138905,-0.3485162,-0.2588486
1.255706,-0.4725948,-0.3390404
1.100358,-0.4460314,-0.3178615
0.8674762,-0.3888187,-0.2164258
0.7540677,-0.2674636,-0.1939077
0.7252416,-0.1757473,-0.1925424
0.6963466,-0.1401565,-0.2186874
0.7297152,-0.1165953,-0.2705995
0.7814444,-0.1774878,-0.2504715
0.8359772,-0.2028486,-0.2476312
0.8801321,-0.1970777,-0.2436407
0.8403213,-0.1843149,-0.1815912
0.8353203,-0.09778081,-0.1482083
0.8766824,-0.06239419,-0.1262155
0.9230062,-0.05485523,-0.1313983
0.9915789,-0.08081493,-0.1573714
1.033036,-0.1637735,-0.1727226
1.090511,-0.1618972,-0.2048607
1.145021,-0.1291558,-0.2001956
1.163264,-0.1070738,-0.1811053
1.244318,-0.1228881,-0.1673154
1.397923,-0.2828997,-0.1303215
1.438121,-0.5162496,-0.1381636
1.208109,-0.6149502,-0.2445207
0.9360549,-0.4717511,-0.3912277
0.9449215,-0.3302463,-0.3987309
1.142217,-0.3146834,-0.2934576
1.280814,-0.2873339,-0.2492695
1.289881,-0.3322887,-0.1963085
1.161755,-0.3834019,-0.1284114
0.9733981,-0.3085134,-0.1183213
0.859171,-0.2569662,-0.1086612
0.7754884,-0.2362214,-0.1090038
0.672744,-0.1918592,-0.1311507
0.6771385,-0.2107834,-0.1420607
0.7769942,-0.3094551,-0.1340048
0.7973457,-0.3780276,-0.1088574
0.787625,-0.3449068,-0.08723215
0.8098344,-0.261875,-0.06032252
0.7859477,-0.1539691,-0.02109276
0.8019837,-0.07329509,-0.0006815143
0.8444348,-0.09462851,-0.01371139
0.8726216,-0.1102484,-0.01902052
0.9510649,-0.07531503,-0.01161666
0.9998635,-0.09590284,-0.04373547
1.03736,-0.1281266,-0.08275768
1.071449,-0.1456772,-0.09371274
1.159888,-0.1776843,-0.08131879
1.373864,-0.1213266,-0.06334145
1.459438,0.004836872,-0.1159796
1.43555,0.04978935,-0.2691314
1.457763,-0.1883959,-0.4664053
1.354852,-0.6618092,-0.5213386
1.063337,-0.8235676,-0.3652668
0.7987149,-0.576796,-0.2210242
0.7980398,-0.3568127,-0.1565458
0.9366875,-0.2508091,-0.1566655
1.016345,-0.2246164,-0.2503788
1.061452,-0.3033804,-0.3051463
1.030103,-0.3805519,-0.28809
0.9584056,-0.3672101,-0.2510584
0.8852829,-0.3088135,-0.2149494
0.7595576,-0.2468058,-0.2191487
0.6988993,-0.1724006,-0.2342702
0.7367964,-0.1418091,-0.2549344
0.7904419,-0.1446454,-0.2584412
0.8571121,-0.1552158,-0.2291923
0.8691829,-0.1771775,-0.2021693
0.8382498,-0.1399077,-0.1625201
0.8561747,-0.06755413,-0.1371426
0.8741172,-0.008334151,-0.1262433
0.9076027,0.007213183,-0.1227465
0.9901684,-0.04472634,-0.1436186
1.031726,-0.1092064,-0.1546404
1.035342,-0.1893472,-0.1808501
1.044889,-0.2278267,-0.1981416
1.070077,-0.1820451,-0.1870456
1.149363,-0.1455017,-0.2016512
1.277047,-0.1221337,-0.1747853
1.393346,-0.1920003,-0.08411999
1.415369,-0.4063342,-0.04308253
1.297174,-0.5174029,-0.1529128
1.072503,-0.4067478,-0.3364749
0.9098865,-0.2760147,-0.3768427
1.014452,-0.2828207,-0.3190887
1.251736,-0.3591112,-0.3019603
1.342226,-0.4097579,-0.2623417
1.224873,-0.396774,-0.2138993
0.9463101,-0.2844269,-0.1881105
0.7165373,-0.1400377,-0.1303199
0.6712766,-0.05819506,-0.0732139
0.6941574,-0.09207112,-0.05559692
0.7440721,-0.2043631,-0.05936882
0.8076804,-0.3007211,-0.06827906
0.8695524,-0.3635418,-0.08214974
0.8969333,-0.321849,-0.09269036
0.8646914,-0.2540064,-0.07129042
0.8547465,-0.2270806,-0.02501531
0.8355533,-0.1136741,0.01820072
0.8344936,-0.07230989,0.03215155
0.8788417,-0.09349006,0.01800859
0.887006,-0.02521577,0.006811904
0.9442731,-0.0336959,-0.03526373
1.024324,-0.08866587,-0.1101467
1.077946,-0.1517634,-0.1332776
1.172023,-0.2372747,-0.09905719
1.27421,-0.2171502,-0.05216445
1.349052,-0.1349938,-0.04003385
1.356556,-0.08021039,-0.1648764
1.441882,-0.2080933,-0.3978305
1.559474,-0.5512949,-0.492391
1.251062,-0.7440626,-0.366457
0.7360113,-0.566477,-0.2040891
0.6153348,-0.298413,-0.09794971
0.7823927,-0.2476865,-0.08952311
0.9621295,-0.2804936,-0.2053189
1.148236,-0.3292016,-0.3069957
1.204837,-0.4510017,-0.3200852
1.011771,-0.4333922,-0.250736
0.8052432,-0.3205365,-0.1552676
0.749627,-0.2103252,-0.1650989
0.7396109,-0.07918083,-0.208194
0.7575146,-0.08719537,-0.2205397
0.790922,-0.1396222,-0.2499524
0.8348875,-0.1475458,-0.2359803
0.8933332,-0.1715807,-0.2175564
0.8821489,-0.1485111,-0.21396
0.8661406,-0.1146824,-0.1593059
0.8789143,-0.06003579,-0.1163255
0.8841102,-0.02085236,-0.1171972
0.9411814,-0.06016191,-0.1280491
1.002753,-0.08546484,-0.1230122
1.033409,-0.1397854,-0.1267504
1.064558,-0.1863178,-0.1719149
1.107534,-0.1175096,-0.2120414
1.1727,-0.03719833,-0.2309349
1.230619,-0.04209244,-0.2013381
1.324267,-0.231677,-0.109152
1.42994,-0.5593057,-0.03561346
1.380262,-0.682274,-0.06734409
1.16465,-0.5346229,-0.2200389
0.9159384,-0.3876999,-0.3912163
0.830695,-0.3141629,-0.4650272
1.078403,-0.3214596,-0.371793
1.394588,-0.4036203,-0.2375587
1.382849,-0.4027101,-0.2247352
1.126189,-0.3588951,-0.1839819
0.8657067,-0.3076885,-0.109463
0.7447419,-0.1742339,-0.1062386
0.7219484,-0.1096569,-0.09467132
0.6765181,-0.1591913,-0.09870145
0.7406002,-0.2564177,-0.1153218
0.831026,-0.3818793,-0.1202335
0.8392418,-0.4155189,-0.1157175
0.8767435,-0.3158648,-0.07876912
0.8162273,-0.1717906,-0.05714195
0.7621765,-0.10707,-0.02865705
0.8283763,-0.111748,-0.01001746
0.848698,-0.09882659,-0.01518416
0.8717038,-0.09141056,-0.001694855
0.9056451,-0.08682281,-0.01833896
0.9699065,-0.09439732,-0.04309915
1.062532,-0.1147046,-0.0682239
1.093802,-0.1224878,-0.09540032
1.210602,-0.127158,-0.07725329
1.391627,-0.08690397,-0.08621445
1.443091,-0.001196594,-0.187133
1.429911,-0.008370428,-0.3685325
1.451651,-0.3465186,-0.5071196
1.310744,-0.8044878,-0.4585273
0.924424,-0.7902066,-0.2881713
0.7021688,-0.4594968,-0.1184725
0.7993479,-0.2650628,-0.07803718
0.9288246,-0.1863806,-0.2045421
1.021166,-0.2727224,-0.3004945
1.098257,-0.4081151,-0.3098832
1.043059,-0.4031819,-0.298696
0.92863,-0.4096629,-0.2500338
0.8470619,-0.3315251,-0.2238327
0.6981131,-0.1776423,-0.2147837
0.660828,-0.1586333,-0.2149101
0.7740662,-0.1517285,-0.2541606
0.8022441,-0.152219,-0.2614745
0.8714586,-0.1786346,-0.2650459
0.9102762,-0.1744981,-0.2460398
0.8405904,-0.1692172,-0.1815061
0.8650896,-0.1036165,-0.1679802
0.8828538,-0.04154067,-0.1607699
0.9203816,-0.02614232,-0.1544369
1.001064,-0.0535336,-0.1595995
0.989909,-0.146024,-0.1410572
0.9989966,-0.2078979,-0.1642143
1.050169,-0.2206702,-0.2011538
1.128304,-0.1467517,-0.2121686
1.204055,-0.04123007,-0.2030937
1.222488,-0.06142587,-0.1646247
1.333235,-0.1913195,-0.1111731
1.439455,-0.4121387,-0.06999005
1.283714,-0.5635845,-0.1799398
1.098647,-0.5060967,-0.3372673
1.158093,-0.4103662,-0.2956139
1.183038,-0.3666686,-0.2710192
1.107588,-0.3688502,-0.3245933
1.145918,-0.3967619,-0.2320776
1.079373,-0.3809224,-0.1307915
0.9499209,-0.3548836,-0.1017027
0.9151555,-0.2786664,-0.1108659
0.7791038,-0.1360926,-0.1642712
0.7330968,-0.131908,-0.1397656
0.8195291,-0.2407917,-0.1292913
0.7988826,-0.3050527,-0.1532864
0.7997055,-0.3477124,-0.1058285
0.8076668,-0.311799,-0.09134028
0.7717333,-0.2392058,-0.05786568
0.8001667,-0.213172,-0.01515423
0.8249359,-0.1504324,-0.02090798
0.8329302,-0.1207886,0.01429225
0.8556318,-0.1223303,0.00810434
0.8829313,-0.07424683,-0.01982498
0.9603114,-0.06881825,-0.04181056
1.022149,-0.08776737,-0.1028663
1.023572,-0.1184346,-0.1103892
1.090453,-0.1867145,-0.1048395
1.248981,-0.1884824,-0.1012224
1.366355,-0.09126321,-0.08503365
1.380679,0.04564922,-0.1389562
1.396904,0.03153415,-0.3006669
1.440822,-0.3523115,-0.5503186
1.333422,-0.8292679,-0.6095471
1.03409,-0.8649021,-0.3560775
0.7640254,-0.6087344,-0.1598575
0.7863934,-0.4684375,-0.1813328
0.9766387,-0.3159023,-0.2146478
1.016726,-0.2376535,-0.2247971
1.048623,-0.3471549,-0.2940704
1.020489,-0.3410725,-0.283
0.820757,-0.3294122,-0.2030859
0.7854609,-0.3433167,-0.222703
0.7770372,-0.2313821,-0.2331939
0.7366142,-0.196095,-0.2383317
0.8020794,-0.1887587,-0.2694793
0.784942,-0.1746422,-0.2319965
0.8328972,-0.1914671,-0.2251075
0.8885884,-0.1299544,-0.2173377
0.8668137,-0.09299597,-0.1792708
0.9220477,-0.06557369,-0.1794716
0.8948075,-0.02761921,-0.1500566
0.9013025,-0.03423412,-0.1393891
0.9786466,-0.05466365,-0.1546495
1.009792,-0.1485631,-0.1671214
1.078934,-0.2093105,-0.2072617
1.080214,-0.1806999,-0.2211719
1.096409,-0.146443,-0.2266089
1.197259,-0.1067028,-0.1980361
1.305341,-0.1595935,-0.1182735
1.411516,-0.303541,-0.09511142
1.344067,-0.4201243,-0.1773154
1.132772,-0.4181895,-0.3518819
0.9180132,-0.3210781,-0.4817765
0.8802546,-0.3035209,-0.4469807
1.177146,-0.3664233,-0.3314262
1.429234,-0.4460101,-0.2493172
1.340452,-0.4837974,-0.2215993
1.014542,-0.4070816,-0.1686989
0.7319328,-0.3592276,-0.08032681
0.8073995,-0.3875858,-0.08771563
0.9081479,-0.3740039,-0.134898
0.7811979,-0.305882,-0.09961939
0.796916,-0.2467597,-0.1167321
0.8471661,-0.2635787,-0.1578132
0.7956373,-0.2796832,-0.1068274
0.8463106,-0.2311482,-0.0833938
0.8402575,-0.1915113,-0.05073516
0.81078,-0.1622156,-0.002781751
0.8713906,-0.1438953,-0.01316199
0.8661,-0.1455795,-0.001066743
0.8897443,-0.1177016,-0.01242092
0.9448805,-0.07335577,-0.04758863
0.9614046,-0.05758313,-0.06224904
1.010019,-0.09428959,-0.08284997
1.083672,-0.1585456,-0.08950841
1.185327,-0.1798676,-0.111099
1.231922,-0.1501799,-0.08829639
1.267929,-0.06128939,-0.04452368
1.326035,0.08743041,-0.09545018
1.344716,0.08324406,-0.2269299
1.423731,-0.3155901,-0.4429818
1.295949,-0.8263194,-0.5232652
0.9366917,-0.866201,-0.3315193
0.8198737,-0.5480532,-0.1860507
0.9132928,-0.3661326,-0.1944244
1.010253,-0.3273102,-0.2177835
1.03985,-0.3855361,-0.2451529
1.03449,-0.462875,-0.2718766
1.013067,-0.3832585,-0.2512814
0.8762542,-0.3033487,-0.2115181
0.7902612,-0.2256017,-0.2289026
0.7467812,-0.12054,-0.2431879
0.6938378,-0.1451631,-0.2298413
0.7592095,-0.1691494,-0.2607003
0.8011905,-0.1861755,-0.2695992
0.84266,-0.2362386,-0.2504372
0.8799423,-0.2092757,-0.2364285
0.8464501,-0.1860986,-0.1863666
0.8797108,-0.1526198,-0.1534872
0.8918687,-0.1006951,-0.1375609
0.9169976,-0.08943698,-0.1013604
0.9994269,-0.08180526,-0.09346877
1.012528,-0.1110955,-0.1249897
1.038299,-0.1401506,-0.1671298
1.083274,-0.1540677,-0.199316
1.135507,-0.1754805,-0.2098649
1.220223,-0.175767,-0.1554769
1.29735,-0.2498719,-0.0648496
1.35157,-0.3934068,-0.06838974
1.285891,-0.4635593,-0.1901251
1.107845,-0.4186199,-0.3648344
0.9651777,-0.3637033,-0.4492921
1.011472,-0.3742848,-0.3482117
1.19266,-0.3775401,-0.2397635
1.243874,-0.3964622,-0.2096479
1.165352,-0.4145365,-0.1586202
0.9837055,-0.3248999,-0.1454996
0.7473446,-0.2037099,-0.166697
0.6887895,-0.1484769,-0.1318865
0.7074505,-0.1920375,-0.1036907
0.7063142,-0.2548591,-0.09799744
0.7720355,-0.3069883,-0.09403142
0.8219217,-0.4010574,-0.09982977
0.809023,-0.3281269,-0.07886517
0.790647,-0.1529119,-0.05667314
0.8340513,-0.1452454,-0.04359548
0.8853286,-0.1436593,-0.02669674
0.8938008,-0.1103031,-0.0164391
0.9074278,-0.1061541,0.001126544
0.9135551,-0.05549235,-0.0125736
0.9634032,-0.06294099,-0.047327
1.027435,-0.1257275,-0.07732144
1.03832,-0.1768213,-0.1189488
1.078972,-0.2109873,-0.1102196
1.185504,-0.1538682,-0.07040539
1.30146,-0.03475836,-0.05711501
1.295113,0.07491645,-0.07861554
1.294693,-0.0269009,-0.2295429
1.444426,-0.4576402,-0.5165259
1.422634,-0.7912436,-0.6578407
1.12669,-0.6765419,-0.4086456
0.7694922,-0.4121841,-0.14658
0.6251171,-0.3270393,-0.2301299
0.8593839,-0.2766929,-0.2717878
1.057298,-0.2717239,-0.2274541
1.074294,-0.4143036,-0.3379623
1.136624,-0.4688243,-0.3224351
1.035152,-0.4447092,-0.2225034
0.8362388,-0.3521295,-0.2185491
0.764865,-0.1792121,-0.1954146
0.7132019,-0.1408096,-0.2215064
0.7194876,-0.1647923,-0.2372849
0.7683293,-0.1930888,-0.2195999
0.8001422,-0.2014976,-0.25344
0.85728,-0.1793543,-0.2272354
0.8614123,-0.1784327,-0.201986
0.8427811,-0.09875142,-0.1838408
0.8684986,-0.0564543,-0.1318811
0.8891694,-0.03792799,-0.1379069
0.9191838,-0.001551633,-0.1295588
0.956463,-0.06767552,-0.1282125
0.9882812,-0.1162515,-0.1681807
1.063815,-0.1720248,-0.1858405
1.150603,-0.1874868,-0.200256
1.185923,-0.0878584,-0.1831971
1.248693,-0.06224481,-0.156814
1.400909,-0.179275,-0.1210297
1.473603,-0.4088192,-0.08588467
1.338329,-0.5288408,-0.1630175
1.15857,-0.4558674,-0.2855177
1.062476,-0.3823952,-0.3659058
1.031417,-0.3275983,-0.3884175
1.105041,-0.3454304,-0.3145888
1.201301,-0.428104,-0.2114918
1.156677,-0.4454669,-0.1522388
0.9808002,-0.3841132,-0.1274302
0.7491793,-0.2375345,-0.0977527
0.6498407,-0.09649862,-0.07717981
0.7620904,-0.08354318,-0.1102241
0.8242089,-0.1671002,-0.1431141
0.8151052,-0.2368928,-0.1422191
0.8545896,-0.2473448,-0.1187396
0.8432227,-0.2655142,-0.07395576
0.8260615,-0.2454312,-0.05978099
0.8239025,-0.1488351,-0.05218619
0.8161033,-0.1193662,-0.0166764
0.8624173,-0.1309528,-0.008724479
0.8703046,-0.09957556,0.00104294
0.8618125,-0.08299882,0.02391508
0.8984019,-0.07279099,0.003553227
0.9509959,-0.09295231,-0.02594999
1.025667,-0.1427964,-0.05266829
1.062846,-0.1474658,-0.08978675
1.169751,-0.1408907,-0.0924988
1.358885,-0.1299891,-0.09084808
1.426604,-0.1166509,-0.1596145
1.492504,-0.1744087,-0.2892821
1.586743,-0.3781777,-0.4037127
1.401379,-0.6270373,-0.3971137
0.9689283,-0.5852691,-0.2401392
0.6841666,-0.3168266,-0.09422701
0.7063644,-0.1671683,-0.1286968
0.8645435,-0.156925,-0.2499364
1.012597,-0.3072953,-0.3219621
1.099131,-0.5061498,-0.3638619
1.045946,-0.5177038,-0.3115037
0.9134349,-0.4329731,-0.1925992
0.8531046,-0.3367229,-0.1652389
0.7907699,-0.2293649,-0.1872563
0.719926,-0.1287345,-0.2162096
0.7747486,-0.1279106,-0.2471928
0.8528899,-0.2300808,-0.2669783
0.8738387,-0.2006527,-0.2841607
0.8887987,-0.179457,-0.250781
0.8822507,-0.2076557,-0.2318482
0.8593516,-0.1118855,-0.2067837
0.8741799,-0.1153944,-0.1588923
0.9081679,-0.1221238,-0.177634
0.9258545,-0.05827337,-0.1492627
0.9702021,-0.07781186,-0.1194361
0.9739928,-0.06045819,-0.143673
0.9516016,-0.0842879,-0.1295301
1.009031,-0.1274726,-0.1554972
1.053107,-0.1312658,-0.1886939
1.105536,-0.1698445,-0.1914617
1.177518,-0.1440237,-0.1816455
1.241766,-0.1711953,-0.1307398
1.393457,-0.3028143,-0.1080806
1.43668,-0.4380477,-0.1484971
1.225963,-0.4895355,-0.2862437
0.9572472,-0.3663134,-0.421058
0.8784205,-0.3148959,-0.3903618
1.092794,-0.3996564,-0.3163401
1.286035,-0.4556873,-0.2778833
1.212162,-0.4779385,-0.1974002
1.021794,-0.3833341,-0.1314337
0.8147061,-0.2255101,-0.1350416
0.7241107,-0.1457446,-0.126522
0.7966859,-0.1629043,-0.1173428
0.8079589,-0.2300807,-0.1432581
0.7992802,-0.2968177,-0.1444527
0.8808998,-0.3891838,-0.1543671
0.892646,-0.3996615,-0.1637571
0.8658144,-0.3132485,-0.1207904
0.8447492,-0.2423129,-0.05791682
0.7843256,-0.1542405,-0.0006527686
0.8106744,-0.1234164,0.004845746
0.8610446,-0.1184055,-0.004014822
0.8680026,-0.05891097,0.0001477885
0.9216962,-0.05507492,-0.03105137
0.9638374,-0.04730178,-0.0527723
1.005296,-0.04372946,-0.08351405
1.062698,-0.1290922,-0.1306914
1.094327,-0.2106007,-0.1185012
1.157822,-0.2401528,-0.06319894
1.222296,-0.1545042,-0.01738879
1.269005,-0.004873393,-0.08269139
1.404977,0.0003379706,-0.270994
1.540196,-0.2689026,-0.445381
1.376678,-0.6952258,-0.4949719
0.9982473,-0.7938198,-0.3248447
0.7905244,-0.4925004,-0.1388674
0.7897426,-0.2732413,-0.1898506
0.8859278,-0.2570519,-0.2543968
1.006628,-0.3306609,-0.2728662
1.081507,-0.4332794,-0.371618
1.097053,-0.4902149,-0.3575148
0.9535172,-0.4610338,-0.2240724
0.7689511,-0.3346459,-0.1570034
0.7170481,-0.2126852,-0.1825908
0.715955,-0.1460395,-0.2479442
0.7610099,-0.1487616,-0.259004
0.828741,-0.2042295,-0.2619386
0.8662453,-0.2034587,-0.2820231
0.8812145,-0.2005948,-0.2487605
0.8891043,-0.1998255,-0.2203692
0.9058592,-0.1698303,-0.1870013
0.8898723,-0.1453755,-0.1722799
0.908809,-0.06744468,-0.1971691
0.9500399,-0.04273947,-0.1713986
0.9630573,-0.09579097,-0.1684565
1.019815,-0.1225874,-0.1636537
1.022235,-0.1742032,-0.1317889
0.9976411,-0.1948783,-0.1729947
1.0509,-0.1522232,-0.2070693
1.117851,-0.09261793,-0.2231369
1.230715,-0.05344419,-0.1990365
1.34352,-0.1593474,-0.09682793
1.368794,-0.3692631,-0.05662679
1.32507,-0.4681058,-0.1115514
1.177456,-0.396914,-0.2621479
0.9903277,-0.3479577,-0.4335409
0.964778,-0.4152147,-0.4468539
1.11784,-0.4728277,-0.3493033
1.193643,-0.509691,-0.2609898
1.079117,-0.4899045,-0.1830092
0.9018917,-0.3539225,-0.1246635
0.7422784,-0.2140494,-0.1186091
0.701137,-0.1033936,-0.123262
0.7849302,-0.08342585,-0.1318677
0.8402284,-0.191364,-0.1609279
0.8567882,-0.2814226,-0.1425328
0.8762791,-0.3281645,-0.1182095
0.8783744,-0.307305,-0.1156787
0.8760199,-0.2338487,-0.08069734
0.861567,-0.1983858,-0.04857221
0.8421825,-0.1623659,-0.02145364
0.8639328,-0.1777077,-0.0106429
0.8900761,-0.1870393,-0.01985671
0.886095,-0.1032063,-0.01354556
0.9090494,-0.05543171,-0.02832146
0.9511906,-0.04201871,-0.06099092
0.9796374,-0.06858659,-0.08722415
1.046863,-0.147702,-0.1032811
1.135217,-0.220658,-0.1100271
1.156107,-0.2565835,-0.1177565
1.188846,-0.1696884,-0.1244023
1.341533,0.01202839,-0.192585
1.446961,0.1533839,-0.3083424
1.442303,-0.06153063,-0.4226238
1.456292,-0.5765119,-0.5318469
1.266373,-0.7291458,-0.4313652
0.833894,-0.5481953,-0.1864795
0.6709991,-0.3932562,-0.1586626
0.8451039,-0.2527515,-0.2234187
0.9960901,-0.2670496,-0.261439
1.087801,-0.4118224,-0.356766
1.115392,-0.5365438,-0.3172373
1.008318,-0.559371,-0.2162363
0.875406,-0.4297163,-0.2102279
0.7402474,-0.268858,-0.1875178
0.670168,-0.1480041,-0.2144012
0.7623287,-0.1556857,-0.2637949
0.8368737,-0.2159701,-0.2661898
0.8849362,-0.1909793,-0.2897907
0.9435659,-0.2138427,-0.2680372
0.8901166,-0.219915,-0.2309484
0.8732288,-0.1730763,-0.211143
0.9181571,-0.165995,-0.1709733
0.9234726,-0.0955531,-0.159028
0.9598799,-0.03223187,-0.1349775
0.9752203,-0.04853084,-0.1089731
0.9711711,-0.0774595,-0.1164214
0.9768217,-0.1473444,-0.1217546
0.9664094,-0.2108494,-0.1507583
1.012093,-0.2218878,-0.1881784
1.107664,-0.1907253,-0.2113824
1.216436,-0.1490595,-0.1947403
1.288635,-0.1793578,-0.1133958
1.30328,-0.2717115,-0.03750543
1.32675,-0.3994131,-0.01488051
1.287608,-0.4537463,-0.07413441
1.101943,-0.3206758,-0.2357754
0.873656,-0.2181734,-0.4060767
0.8409423,-0.2868151,-0.4093445
1.062412,-0.4015871,-0.3056799
1.280003,-0.5429991,-0.2816881
1.323087,-0.6057119,-0.2054749
1.131026,-0.4360185,-0.1220139
0.839972,-0.1894269,-0.1644913
0.7668917,-0.03277256,-0.137633
0.8024659,0.003653931,-0.1256168
0.7968505,-0.1156453,-0.1426509
0.843858,-0.2739038,-0.07534054
0.8748236,-0.360259,-0.08669939
0.8986043,-0.379886,-0.09433939
0.9160399,-0.3119075,-0.07329238
0.8766774,-0.2421758,-0.07697978
0.8745247,-0.2205166,-0.02147524
0.8839951,-0.1853097,-0.01131553
0.8844751,-0.1480183,-0.01712107
0.9000084,-0.09953001,0.006662201
0.8960213,-0.04231767,0.006237239
0.9149815,-0.0246183,0.001765596
0.968039,-0.06886156,-0.03800973
1.035446,-0.1710174,-0.06491556
1.096791,-0.2602145,-0.07052552
1.150282,-0.268561,-0.07056189
1.209703,-0.1914075,-0.03179165
1.215464,-0.03801532,-0.02523437
1.21502,0.1517825,-0.08636864
1.240813,0.1630127,-0.1892233
1.231058,-0.1790758,-0.2991342
1.246421,-0.6142321,-0.4033708
1.227099,-0.7554526,-0.3966153
1.062447,-0.5894483,-0.2535868
0.861048,-0.4200555,-0.1963926
0.7660967,-0.32132,-0.1924558
0.809721,-0.2144782,-0.2185216
0.9079694,-0.2797103,-0.3293095
1.040965,-0.4204761,-0.3255765
1.117065,-0.4736474,-0.2583408
0.9936729,-0.49705,-0.1936851
0.8760832,-0.3497139,-0.1425121
0.8460751,-0.1845834,-0.2092357
0.8112913,-0.1559366,-0.2323117
0.8421926,-0.1447154,-0.2245834
0.8755824,-0.1910037,-0.2574249
0.9079444,-0.1891109,-0.2434586
0.9296804,-0.1544005,-0.2355194
0.8700792,-0.1365418,-0.2150972
0.8668088,-0.07303658,-0.2074204
0.9235092,-0.08913742,-0.2230103
0.9875786,-0.1079338,-0.1984798
1.024706,-0.113232,-0.1748411
