accx,accy,accz
1.444393,-0.8094473,-0.2922446
1.348603,-0.643017,-0.1584741
1.093327,-0.4795513,-0.1239414
0.9614762,-0.5442742,-0.2703753
0.9963694,-0.5250438,-0.3657714
1.025182,-0.4819016,-0.3357745
0.9828536,-0.4926431,-0.2217506
0.9315856,-0.4499412,-0.1203141
0.8044002,-0.3950891,-0.1383661
0.6301373,-0.2734218,-0.1602718
0.5517168,-0.1366927,-0.1237155
0.5481993,-0.1221008,-0.13376
0.5803879,-0.1565356,-0.1355878
0.5987393,-0.1816827,-0.1081312
0.5891384,-0.2077297,-0.10513
0.6340179,-0.1962905,-0.06147589
0.7237311,-0.1441357,-0.02401035
0.8546021,-0.08487583,-0.02990401
1.061236,-0.03757782,-0.01020331
1.274529,-0.03055412,-0.007941668
1.408594,-0.04460126,-0.003041887
1.460688,-0.03684682,0.04047206
1.469833,-0.03680627,0.06043394
1.468853,-0.1007989,0.02916762
1.51938,-0.3146724,-0.1149696
1.57794,-0.5852906,-0.267868
1.516787,-0.655962,-0.2061289
1.352813,-0.6608895,-0.1040644
1.170294,-0.7154975,-0.1478379
1.097103,-0.606423,-0.142455
1.105247,-0.4568436,-0.09735934
1.039772,-0.3785563,-0.1024252
0.9738538,-0.3294307,-0.04100016
0.7854334,-0.3678256,-0.005417464
0.4457534,-0.3699593,-0.0481452
0.3670989,-0.3964225,-0.06409296
0.4304211,-0.4141834,-0.04391166
0.355802,-0.2980627,0.001217672
0.3437957,-0.2491793,0.01483219
0.4038327,-0.1445089,0.03187902
0.4386489,-0.05765212,0.05478476
0.521172,-0.1528029,0.06059271
0.6783601,-0.1977801,0.1489055
0.8654489,-0.3197215,0.2274281
1.000402,-0.4058229,0.2580185
1.106398,-0.326521,0.2805285
1.25993,-0.3547211,0.2255362
1.377703,-0.4204941,0.1078142
1.42994,-0.6004547,-0.05530882
1.568423,-0.8288207,-0.1024489
1.623273,-0.730427,-0.04871675
1.255164,-0.5888255,-0.1551108
0.8920949,-0.6536085,-0.2948352
1.035759,-0.6399921,-0.3422605
1.189738,-0.5611692,-0.3057369
1.06508,-0.5287811,-0.1858917
0.9500668,-0.4292425,-0.1507715
0.7318791,-0.3184379,-0.1677176
0.5674951,-0.1739012,-0.1592781
0.6313533,-0.04135934,-0.1583964
0.5673139,-0.09965496,-0.1518989
0.5247079,-0.1578523,-0.1721654
0.5608796,-0.174964,-0.1508775
0.5339943,-0.1903717,-0.1040152
0.6539625,-0.1267175,-0.07813492
0.7546195,-0.1032483,-0.02368877
0.8421311,-0.03611124,-0.01949221
1.035052,0.06815243,-0.01100701
1.214569,0.09196218,0.05485594
1.406271,0.1118957,0.1114232
1.434885,0.06776683,0.1528234
1.445979,0.002192771,0.1215156
1.573919,-0.1171158,0.03578542
1.627238,-0.4411405,-0.1418036
1.691288,-0.6918088,-0.3410381
1.524036,-0.6419755,-0.2738492
1.176443,-0.5688725,-0.1424313
1.094435,-0.6300032,-0.1744502
1.116623,-0.536009,-0.1498332
1.096254,-0.2933919,-0.08198895
1.034763,-0.1688597,-0.01369847
0.8612378,-0.1795947,0.05624375
0.5666054,-0.3284714,-0.02532516
0.2915191,-0.4292049,-0.09251133
0.2859786,-0.3966275,-0.07255291
0.3754301,-0.3740985,-0.08846264
0.3810182,-0.2820943,-0.04019111
0.4378605,-0.1795802,0.01325954
0.5286631,-0.1271069,0.04068551
0.6581464,-0.1378841,0.1036301
0.8307967,-0.2679301,0.1571792
0.9783966,-0.3840201,0.2282119
1.081972,-0.431806,0.2612488
1.097778,-0.3622745,0.2799529
1.11985,-0.3187692,0.2865884
1.238148,-0.4961445,0.1188564
1.383752,-0.7609757,-0.1388458
1.534887,-0.9345167,-0.2443208
1.562783,-0.7522462,-0.1137009
1.288242,-0.4808961,-0.03986269
0.9663295,-0.5413834,-0.2072401
0.9970865,-0.5948949,-0.3379877
1.206733,-0.573274,-0.3394241
1.221914,-0.5631837,-0.2550191
1.027959,-0.4375314,-0.1448274
0.7475038,-0.3613659,-0.1510645
0.6401172,-0.3009559,-0.1730158
0.7132356,-0.190433,-0.1542865
0.651865,-0.1288769,-0.1596883
0.6279994,-0.1154888,-0.1571653
0.7027123,-0.1721035,-0.1501806
0.6554043,-0.2005782,-0.1309971
0.6391249,-0.2219484,-0.09803434
0.6363266,-0.2256647,-0.08434573
0.6545917,-0.09036179,-0.07400782
0.7895755,-0.01386407,-0.055689
0.8863401,0.02627015,-0.02830832
1.011621,0.07698064,0.02411798
1.142196,0.01400341,0.07280077
1.230913,-0.01111265,0.08628697
1.385515,-0.03928839,0.0994222
1.439181,-0.1253271,0.1054557
1.446539,-0.2459549,0.07174503
1.58356,-0.4760153,-0.0247268
1.650509,-0.6088825,-0.1418495
1.450372,-0.5826806,-0.1201494
1.146186,-0.58981,-0.0707053
1.087642,-0.6234649,-0.1425185
1.153885,-0.4911727,-0.1317772
1.104758,-0.223298,-0.03751078
1.075446,-0.161562,0.01593291
0.9961353,-0.3206333,0.02454001
0.7868383,-0.4406678,-0.04960845
0.5766797,-0.4217329,-0.07889239
0.46838,-0.3713374,-0.0446945
0.5141873,-0.3658497,-0.03786203
0.5701765,-0.2547831,-0.01281347
0.6066365,-0.1260763,-0.009013808
0.6095742,-0.1085128,0.01207639
0.515556,-0.1096801,0.0539613
0.5232897,-0.1328209,0.05041739
0.6170306,-0.133133,0.1204431
0.7250783,-0.1403361,0.244793
0.8425044,-0.1581411,0.3023894
0.8893669,-0.1386703,0.3280387
1.012815,-0.2048814,0.3798706
1.125846,-0.257761,0.400551
1.210737,-0.2284985,0.3685741
1.381833,-0.2629603,0.3328092
1.369315,-0.4399485,0.1650725
1.396276,-0.7506376,-0.03464397
1.555406,-0.8758166,-0.03629986
1.327082,-0.6768537,-0.0824742
0.9843392,-0.5606928,-0.2456753
0.9855041,-0.668932,-0.3229045
1.193399,-0.7006782,-0.3584089
1.345023,-0.5990825,-0.3215356
1.134352,-0.5365909,-0.2228729
0.7991124,-0.4691437,-0.2136424
0.7585109,-0.3518372,-0.2263208
0.7782221,-0.2475261,-0.2215976
0.7376334,-0.1855283,-0.2157563
0.6830366,-0.1991764,-0.1835127
0.5731454,-0.2110259,-0.1810343
0.5903384,-0.1865323,-0.1569401
0.6341043,-0.1393988,-0.09918804
0.5805726,-0.03419118,-0.06040071
0.6117148,0.02656292,-0.02428391
0.6931825,0.03133879,-0.02511301
0.8226799,0.04817414,0.008356686
0.9947485,0.04434029,0.08174713
1.106516,0.0488229,0.1177599
1.257014,0.06208223,0.1499136
1.415419,0.05168039,0.1341159
1.524959,-0.01231377,0.114666
1.617385,-0.1565747,0.1086365
1.60981,-0.2711089,0.009503323
1.599133,-0.3254513,-0.0725083
1.589174,-0.424419,-0.05702801
1.371554,-0.5311076,-0.06727622
1.09632,-0.5397503,-0.1481637
1.029224,-0.4861962,-0.1700398
1.068998,-0.4186841,-0.1211191
1.008407,-0.2788997,-0.1007757
0.961447,-0.2002539,-0.0523185
0.9882402,-0.3052031,-0.03004251
0.8529616,-0.3650133,-0.05212586
0.6807842,-0.3399346,-0.02286449
0.6141304,-0.3349818,-0.03358391
0.4992212,-0.2839326,-0.02836814
0.4895661,-0.2574676,0.01353154
0.5661435,-0.2786389,-0.003745423
0.5167034,-0.2736507,0.01295913
0.5126518,-0.2705618,0.02269633
0.5447573,-0.2598463,0.02221125
0.5094131,-0.2602565,0.09118457
0.5817569,-0.3093838,0.1449875
0.7585575,-0.3557279,0.1887442
0.9538787,-0.3163165,0.2424873
1.099854,-0.2271346,0.2904671
1.157577,-0.2037262,0.3396364
1.303008,-0.2143594,0.3708714
1.467461,-0.2194294,0.3874752
1.499161,-0.2714946,0.3388872
1.510595,-0.4603103,0.2042923
1.563417,-0.7244457,0.08199074
1.620439,-0.7258047,0.09334464
1.392791,-0.4997855,0.1293582
0.8841176,-0.4153083,-0.002635441
0.6963911,-0.4667441,-0.1444366
0.9571634,-0.5173358,-0.2422132
1.204563,-0.5208417,-0.3042807
1.140573,-0.4782026,-0.1859068
0.9103685,-0.431686,-0.1298977
0.6877081,-0.346951,-0.1956742
0.5297812,-0.2462517,-0.1844814
0.5624406,-0.1783941,-0.1819639
0.5958395,-0.1610124,-0.1669221
0.5862662,-0.1675328,-0.1289429
0.635852,-0.1362681,-0.09304926
0.5531707,-0.1325537,-0.04607342
0.5097247,-0.1142036,-0.03244662
0.6243723,-0.03436575,0.0005057578
0.8302535,-0.01702855,-0.01242229
1.111717,-0.01921728,-0.04190383
1.235297,0.009288607,-0.009567973
1.347915,0.03635311,-0.02071014
1.479088,0.05372321,-0.01514178
1.400518,-0.005504875,-0.001489508
1.394851,-0.1583093,-0.0364988
1.47956,-0.3832093,-0.08602215
1.464458,-0.548152,-0.1600924
1.438249,-0.5619822,-0.1332644
1.299076,-0.6094684,-0.04823851
1.115487,-0.6482538,-0.04362272
1.115405,-0.5344134,-0.04891634
1.113309,-0.4022325,-0.06264472
1.037152,-0.2149419,-0.05192243
1.045055,-0.0928722,0.01456443
0.9828491,-0.2552078,0.04765603
0.7892094,-0.3592009,0.0250808
0.6114137,-0.3328509,-0.03284559
0.4525836,-0.3667019,-0.04969096
0.4346497,-0.3155962,-0.0309715
0.5063787,-0.2487068,-0.04840805
0.4596965,-0.231439,-0.04660134
0.4967021,-0.2090283,-0.02381717
0.5745421,-0.2181392,0.01888513
0.5096733,-0.2149025,0.1004615
0.5313885,-0.2548805,0.1686054
0.6508975,-0.2933332,0.2034835
0.7974077,-0.2430089,0.2063534
0.939342,-0.2125588,0.2335091
0.9983999,-0.2202957,0.2757346
1.139985,-0.2363456,0.2895063
1.310832,-0.2426034,0.311447
1.38454,-0.2551333,0.2732345
1.429008,-0.3321805,0.1204046
1.43556,-0.4926508,-0.1064247
1.481759,-0.659708,-0.2050496
1.554109,-0.6871387,-0.03270136
1.483588,-0.6986847,0.06900717
1.063205,-0.758496,-0.03311943
0.6163006,-0.7417661,-0.09851482
0.9472952,-0.7659048,-0.1646484
1.364164,-0.7095375,-0.2192623
1.001298,-0.5313041,-0.1484415
0.8287479,-0.5208296,-0.103498
0.9623519,-0.4452513,-0.1827549
0.8432816,-0.2306551,-0.2435553
0.8632279,-0.1958938,-0.2377149
0.8235829,-0.2438992,-0.2577327
0.6827552,-0.2692895,-0.2532113
0.7223478,-0.2789569,-0.1951839
0.6542987,-0.2372263,-0.1761312
0.6415763,-0.1576654,-0.1655938
0.6911046,-0.03161448,-0.1496235
0.678531,0.06393191,-0.1584967
0.762233,0.1000043,-0.1326124
0.7332115,0.1089764,-0.06455643
0.7185058,0.1136112,0.02129701
0.8540953,0.1151424,0.09499365
0.9913384,0.03751309,0.1272213
1.165123,-0.03625622,0.1894398
1.256758,-0.01702757,0.2857032
1.320914,0.03710374,0.3142107
1.411814,0.05943391,0.2792038
1.437828,-0.01395083,0.2604409
1.492535,-0.1398954,0.2231281
1.523402,-0.3338712,0.07459723
1.497543,-0.5519941,-0.06525444
1.367397,-0.5167597,-0.0398874
1.156084,-0.3681341,-0.04213897
1.169945,-0.4007208,-0.2326261
1.246702,-0.3802919,-0.3232386
1.155702,-0.2955492,-0.167168
1.117379,-0.3403863,-0.03731181
1.073569,-0.385847,-0.04383994
0.9763276,-0.4721636,-0.08449898
0.8898064,-0.5006709,-0.08398031
0.6386312,-0.345454,-0.01991173
0.4708973,-0.2485451,0.02491741
0.5928831,-0.1902568,-0.01317497
0.624759,-0.1522164,-0.0580869
0.5376403,-0.1645244,-0.01366945
0.5278157,-0.148926,0.02715513
0.5274271,-0.1839831,0.02380344
0.5649862,-0.2278596,0.08666693
0.6852649,-0.2764956,0.1361485
0.8158705,-0.2921514,0.1385139
0.9173698,-0.2129315,0.150497
0.9541876,-0.1783858,0.1560945
0.9729532,-0.1719807,0.1973071
1.092424,-0.1845992,0.2265003
1.228372,-0.2264166,0.1816396
1.289236,-0.3437935,0.01031619
1.416653,-0.645026,-0.2386293
1.561189,-0.8502205,-0.2502474
1.518779,-0.7613957,-0.07224481
1.367379,-0.64012,-0.02434284
1.081858,-0.645589,-0.07951963
0.770972,-0.6532515,-0.1791112
1.049226,-0.6362402,-0.2654758
1.445356,-0.5918426,-0.2046353
1.112944,-0.4807383,-0.1133284
0.8070583,-0.4619069,-0.1105522
0.7666838,-0.3950967,-0.1178712
0.5576696,-0.1734505,-0.1097265
0.578252,-0.1084704,-0.1059377
0.6437002,-0.1288061,-0.1026474
0.5991867,-0.1084464,-0.09488382
0.6479629,-0.1172225,-0.07635486
0.5854671,-0.1070661,-0.07024082
0.633778,-0.08956487,-0.0757718
0.7410463,-0.02732898,-0.06919692
0.7990901,0.03523144,-0.06750274
1.028898,0.007707589,-0.05451503
1.142656,-0.01120352,-0.001697437
1.198757,0.03017249,0.07085463
1.36665,0.0672215,0.1252719
1.438617,0.03464599,0.1093748
1.452824,-0.1051151,0.04919894
1.528787,-0.3313237,-0.03278065
1.605482,-0.4826993,-0.1462631
1.466448,-0.5522829,-0.1751681
1.253577,-0.6411966,-0.1592738
1.197897,-0.5932897,-0.2007082
1.186613,-0.485866,-0.1768048
1.184743,-0.4227208,-0.08869573
1.122585,-0.2676255,-0.002569302
1.004325,-0.231183,0.03527452
0.8209972,-0.3299817,-0.01091436
0.5351709,-0.3167379,-0.01110962
0.4048009,-0.2719855,-0.01243063
0.4474498,-0.2389277,-0.04169987
0.4952507,-0.241254,-0.01409068
0.5114889,-0.2643261,-0.02946558
0.4961192,-0.1903764,0.003878246
0.4959915,-0.1306185,0.08951414
0.5055005,-0.1385307,0.08053201
0.5834228,-0.1863796,0.09560961
0.7554145,-0.2921238,0.1578222
0.9232561,-0.3389078,0.2431618
0.988152,-0.2915814,0.3236193
0.9786946,-0.2393041,0.3150235
1.070899,-0.2536586,0.2945369
1.182356,-0.3796592,0.2230892
1.2586,-0.6303727,0.01005875
1.470435,-0.818636,-0.1586101
1.598898,-0.696183,-0.1134186
1.391051,-0.5428289,-0.09146149
1.08199,-0.5686924,-0.2326367
0.954074,-0.5345525,-0.2653672
1.018057,-0.5199034,-0.2287558
1.068585,-0.5327898,-0.1831385
0.941912,-0.4449714,-0.05340833
0.8015681,-0.3790875,-0.09431131
0.7365506,-0.238762,-0.1605622
0.6372884,-0.08203132,-0.08274367
0.6022495,-0.09236375,-0.1104915
0.6184073,-0.1028304,-0.1222219
0.5901663,-0.1184586,-0.09703061
0.5787174,-0.1800717,-0.134658
0.5968184,-0.1934729,-0.09406505
0.6899434,-0.2041624,-0.04030414
0.7957106,-0.2047556,-0.001815589
0.8834977,-0.1600902,0.009296783
1.088229,-0.06101177,-0.02190627
1.270887,0.03830725,0.02262445
1.259196,0.0580232,0.05519711
1.251602,0.07901691,0.07422515
1.383233,0.05223486,0.0944206
1.48458,-0.1776662,-0.01470416
1.576335,-0.4550697,-0.1445816
1.636239,-0.5252284,-0.1980313
1.462933,-0.5057166,-0.1746659
1.262771,-0.5860431,-0.1381812
1.200145,-0.6047871,-0.164625
1.199092,-0.5443645,-0.1369914
1.179371,-0.4800415,-0.08227702
1.086656,-0.3004391,-0.05802762
1.065702,-0.2128883,-0.03261736
1.003927,-0.287041,-0.0181386
0.8240295,-0.2684756,0.0427443
0.667127,-0.2507477,0.02164325
0.4514494,-0.2868407,-0.05384208
0.3973691,-0.2844824,-0.008639195
0.507668,-0.2897259,-0.0115732
0.438668,-0.2584296,-0.01764683
0.4505594,-0.1793517,0.04585971
0.5845348,-0.1435507,0.04491042
0.6085769,-0.2014377,0.0728165
0.6973604,-0.3125643,0.1441055
0.8083645,-0.3723264,0.2113608
0.9007209,-0.3559949,0.2757818
1.0424,-0.2799681,0.3281182
1.096996,-0.2015817,0.3987936
1.162559,-0.256358,0.3303936
1.278739,-0.5171441,0.03577497
1.378721,-0.8136717,-0.218158
1.547105,-0.8242933,-0.129978
1.564741,-0.6414703,0.02463773
1.226519,-0.5639259,-0.1364312
0.8996116,-0.508471,-0.2323003
0.9934899,-0.487503,-0.2201506
1.219017,-0.5302531,-0.3020224
1.20593,-0.4720938,-0.1627177
1.065376,-0.4375827,-0.0532954
0.8278469,-0.3843562,-0.1280319
0.6825517,-0.1978368,-0.1058416
0.7287675,-0.1038394,-0.1182284
0.701109,-0.1014646,-0.133853
0.7044839,-0.1200018,-0.117329
0.6798493,-0.1565203,-0.09341662
0.5752104,-0.1673349,0.0007928179
0.6348838,-0.1737764,0.01649263
0.6614925,-0.1210154,-0.02386923
0.6890204,-0.05675078,-0.04884616
0.827798,-0.008136232,-0.04072817
0.8895915,0.02995794,0.003185933
1.019428,-0.007048356,0.0324833
1.248127,-0.0005390939,0.09327546
1.412192,0.04118835,0.1039097
1.472861,0.03346733,0.08530674
1.525566,-0.05771133,0.08704835
1.62426,-0.2694242,-0.01555672
1.615487,-0.378745,-0.1029327
1.548215,-0.3646937,-0.07346139
1.164905,-0.561194,0.1015127
1.551077,-0.7804536,-0.07477907
1.786872,-0.7257828,-0.06803066
1.451168,-0.498805,-0.08733341
1.000915,-0.4665264,-0.2914188
1.127927,-0.5214322,-0.31791
1.258955,-0.5808516,-0.1833963
1.025826,-0.6326629,-0.1770868
0.9954518,-0.5176319,-0.07299953
0.805697,-0.3534491,-0.05906789
0.5765485,-0.1608688,-0.1575728
0.6257675,-0.06295326,-0.08314577
0.4866324,-0.171689,-0.1178961
0.4670544,-0.1846226,-0.1352223
0.5514348,-0.163102,-0.05590751
0.564295,-0.1873483,-0.0919479
0.7156528,-0.128361,-0.0580018
0.7381173,-0.07775822,-0.0471035
0.8231164,-0.03616154,-0.0612702
1.027762,-0.03984011,-0.0051345
1.145317,-0.06257167,0.004976289
1.286788,-0.01974808,0.08212056
1.324512,0.001889611,0.1268594
1.408175,0.01513922,0.07521425
1.5367,-0.04689057,0.04987817
1.535896,-0.2285964,-0.05458084
1.546951,-0.3958709,-0.1694761
1.420147,-0.5012753,-0.1580167
1.218687,-0.5116571,-0.1236693
1.163879,-0.501214,-0.1515516
1.170987,-0.5281099,-0.1519262
1.198071,-0.4620015,-0.100192
1.208497,-0.3382022,-0.05350921
1.165189,-0.2998536,0.02198905
0.9927577,-0.3478538,0.0368319
0.728501,-0.3742082,-0.008298573
0.534092,-0.3073593,-0.0116888
0.4306889,-0.243888,-0.03233864
0.4433048,-0.2302783,-0.01238583
0.4758212,-0.1996616,0.0275714
0.4324615,-0.1784158,0.01184717
0.4508108,-0.1876308,0.04158488
0.5100935,-0.1932145,0.08730685
0.578661,-0.2195782,0.1232153
0.7891064,-0.2907815,0.2084764
0.9502219,-0.3287124,0.2810801
0.9005913,-0.2610341,0.2899694
0.9461854,-0.1942629,0.3072598
1.123351,-0.2550235,0.2966112
1.244032,-0.4502814,0.1038487
1.49611,-0.7306785,-0.07659136
1.743884,-0.8389078,-0.03027016
1.482504,-0.6286093,-0.0478301
1.073746,-0.4770639,-0.2415149
1.106302,-0.5375296,-0.319133
1.18188,-0.5408142,-0.2848746
1.10107,-0.5148008,-0.2619927
1.108922,-0.5260126,-0.1528829
0.9810239,-0.4643121,-0.07160048
0.7802428,-0.3430784,-0.1295693
0.7302491,-0.2152182,-0.1561369
0.6674492,-0.1470875,-0.1440653
0.6073966,-0.1522007,-0.1655625
0.6019184,-0.1867313,-0.1708545
0.5904809,-0.2301368,-0.1164617
0.5672022,-0.2063828,-0.04309764
0.5818082,-0.1500499,-0.0366312
0.6709776,-0.1071176,-0.03966049
0.8048822,-0.02225883,-0.01150162
1.016217,0.01007134,-0.00990872
1.167572,-0.006003457,0.02148681
1.171563,0.04741517,0.1057739
1.205325,0.07081723,0.1450469
1.269885,-0.0004368466,0.1301518
1.343768,-0.1536397,0.08246558
1.438568,-0.4008032,-0.08677602
1.493552,-0.5768762,-0.2621901
1.453132,-0.5664443,-0.2081841
1.295787,-0.5667193,-0.1332887
1.203173,-0.6575368,-0.2069414
1.222976,-0.6118101,-0.1769851
1.221477,-0.4272547,-0.06280963
1.1977,-0.2653875,0.004429085
1.101875,-0.1989712,0.05642879
0.8784084,-0.3097054,0.01319718
0.5977447,-0.3855485,-0.01746342
0.4415861,-0.3274452,0.005090084
0.4722646,-0.3270311,-0.01089428
0.5241016,-0.2720636,0.03518613
0.552163,-0.175319,0.03694979
0.5642403,-0.1357636,0.02436682
0.5561154,-0.09729346,0.09353181
0.574763,-0.1727685,0.09469929
0.6175233,-0.2857151,0.1755562
0.7578842,-0.2984127,0.3046496
0.9519101,-0.2586217,0.2971548
1.018194,-0.2019704,0.3020556
1.018051,-0.1983457,0.3293638
1.103305,-0.259844,0.287416
1.205203,-0.3979322,0.1353429
1.199265,-0.5314692,-0.0184943
1.235422,-0.5263802,-0.006361555
1.359471,-0.5276384,-0.04008328
1.275415,-0.5730998,-0.1912684
1.006542,-0.576853,-0.2025899
0.883593,-0.6543805,-0.1934137
1.107908,-0.7183212,-0.2507036
1.383133,-0.6400017,-0.1793806
1.156707,-0.5679543,-0.1351234
0.8541166,-0.465336,-0.15717
0.9048731,-0.2780619,-0.1454012
0.8638743,-0.1704601,-0.2185389
0.8359958,-0.1637447,-0.2104397
0.8543223,-0.211145,-0.1385785
0.7017269,-0.247362,-0.1308962
0.6309337,-0.2246599,-0.07379778
0.556148,-0.2061923,-0.09142083
0.5772001,-0.1506431,-0.1035301
0.72381,-0.03880745,-0.05989386
0.6594379,0.03629686,-0.09491161
0.6904689,0.04743404,-0.05894914
0.844727,0.03022059,0.01985858
0.9260234,0.01373522,0.1148639
1.054409,-0.02278578,0.2211194
1.117412,-0.05523313,0.2135981
1.196971,-0.05510763,0.2166693
1.314507,-0.09382779,0.2435763
1.388858,-0.202388,0.2111906
1.520969,-0.344187,0.1045653
1.573217,-0.4553545,-0.07058604
1.514217,-0.496232,-0.1419656
1.391834,-0.5390741,-0.1355352
1.243962,-0.5720556,-0.1732989
1.218955,-0.528324,-0.1745225
1.218123,-0.4841657,-0.1509308
1.171888,-0.4075176,-0.1096819
1.135903,-0.3331164,-0.0318812
1.058939,-0.4347522,-0.03432478
0.8829296,-0.5274689,-0.06268523
0.7089283,-0.4702531,-0.02263227
0.6449541,-0.3636355,-0.004968342
0.5458717,-0.2288318,0.01645587
0.5207637,-0.1575132,0.03260557
0.6199055,-0.09686908,0.004333124
0.5429987,-0.03423912,0.03455483
0.491809,-0.1006555,0.06222002
0.5421101,-0.1421483,0.07617782
0.5151029,-0.1870425,0.1290314
0.6288317,-0.2926323,0.1568392
0.8153182,-0.2864618,0.2301512
0.9348023,-0.2932705,0.3122507
1.009436,-0.3042938,0.3404227
1.036186,-0.2548914,0.3842246
1.199358,-0.3213267,0.3603886
1.393085,-0.4685817,0.221897
1.485621,-0.6466758,0.08060887
1.504292,-0.6886776,0.08363009
1.332944,-0.526354,0.1213734
1.105625,-0.4737327,0.0168246
0.9604648,-0.4919986,-0.08620028
1.001155,-0.4850832,-0.2113258
1.236279,-0.506938,-0.298511
1.31827,-0.4710112,-0.1884043
1.137192,-0.4514346,-0.146514
0.8512586,-0.4278895,-0.1495553
0.711573,-0.3417921,-0.1040627
0.7103745,-0.2641208,-0.1388624
0.64017,-0.1951668,-0.123838
0.661755,-0.1914813,-0.1015194
0.6529799,-0.2158589,-0.1098173
0.5495218,-0.2085645,-0.0664336
0.5944596,-0.1831343,-0.05975395
0.6327392,-0.1303845,-0.0585792
0.7099666,-0.09845398,-0.04892088
0.8746366,-0.02893739,-0.03407694
1.026138,0.04527477,-0.001972974
1.221448,0.01999007,0.01904156
1.277404,0.01099073,0.06938516
1.291991,0.004755859,0.06801966
1.468969,-0.06325827,0.0479212
1.576517,-0.1013711,0.08885252
1.536435,-0.1119851,0.0507144
1.522544,-0.134527,-0.05836984
1.564179,-0.1641433,-0.1416646
1.512575,-0.2724204,-0.1307116
1.356831,-0.4659539,-0.06302084
1.148742,-0.534551,-0.08494241
1.004781,-0.4832855,-0.1087476
1.057202,-0.5264805,-0.106626
1.07976,-0.5200373,-0.1159315
1.072839,-0.3892942,-0.04393912
1.125018,-0.3432506,0.00366069
1.001349,-0.3923917,-0.006561775
0.7890626,-0.4711446,-0.004160025
0.6143334,-0.4867539,-0.01347864
0.5234389,-0.4194069,0.004512653
0.5616657,-0.3719152,0.01445596
0.5372345,-0.2981839,0.0184892
0.4957976,-0.200159,0.03691532
0.5120904,-0.1332804,0.03815222
0.5296971,-0.1332437,0.09259562
0.6110874,-0.2059028,0.1571057
0.6687008,-0.2305243,0.1778892
0.6875306,-0.2192794,0.1932682
0.8005395,-0.214601,0.2249675
0.9600858,-0.209645,0.2851324
1.046118,-0.2275056,0.311976
1.133495,-0.2364364,0.3221663
1.31156,-0.2921252,0.3041905
1.405518,-0.4468904,0.1516928
1.440755,-0.7013857,-0.01067473
1.538422,-0.8580539,-0.008910022
1.441878,-0.6877124,0.005040951
1.101162,-0.5173721,-0.1194022
0.8736711,-0.5492423,-0.208936
1.031169,-0.5721069,-0.2232962
1.280885,-0.5890509,-0.2072958
1.174052,-0.5655407,-0.1096255
0.9756866,-0.4492684,-0.07656366
0.8378947,-0.3061518,-0.1012185
0.6717767,-0.1355438,-0.107801
0.7149088,-0.05645107,-0.1314827
0.7550588,-0.09237951,-0.1093115
0.7013021,-0.124657,-0.09633118
0.6751865,-0.190972,-0.08158565
0.5379601,-0.2390387,-0.05823846
0.572016,-0.1921219,-0.0793332
0.6685744,-0.1457855,-0.07842342
0.6223413,-0.09339865,-0.09713934
0.7284123,0.01321673,-0.06720911
0.8530809,0.06768527,0.01904267
0.9639263,0.03018815,0.02827737
1.0793,0.00350478,0.04793001
1.180829,-0.00433864,0.09826319
1.379951,-0.01196956,0.1311185
1.425222,-0.00137935,0.130173
1.449158,-0.06391397,0.1212283
1.547641,-0.2363997,0.106351
1.571237,-0.43884,-0.09103272
1.644375,-0.5433932,-0.2794482
1.425392,-0.5266485,-0.1303097
1.081126,-0.5707015,0.01418718
1.141907,-0.5949937,-0.1367522
1.197199,-0.4499678,-0.2010667
1.119409,-0.2953135,-0.04583802
1.127645,-0.1961882,0.04566819
1.074549,-0.2514184,0.0689234
0.9095182,-0.4313808,0.02876807
0.6829784,-0.4524032,-0.0348699
0.5280842,-0.3871452,0.01546991
0.5428088,-0.3060006,0.02209626
0.5991989,-0.1808047,-0.01640698
0.6073507,-0.1314503,-0.01169912
0.5881991,-0.1080592,-0.02946184
0.566078,-0.1208804,-0.01115047
0.5773505,-0.1694856,0.02164588
0.6158998,-0.1852771,0.072155
0.670598,-0.1935804,0.1676879
0.772234,-0.1453096,0.2166221
0.8468926,-0.1334924,0.2441323
0.8964318,-0.188844,0.2947132
1.021134,-0.2150901,0.3671777
1.129104,-0.2665643,0.3564679
1.195987,-0.4109493,0.1485006
1.341282,-0.6624319,-0.06001522
1.588633,-0.7522975,-0.08100146
1.708407,-0.6256655,-0.06070423
1.314224,-0.620898,-0.1400015
0.8706573,-0.6729717,-0.2432174
1.121002,-0.6631136,-0.3268598
1.411625,-0.6252928,-0.335922
1.267687,-0.5370953,-0.2283643
1.142271,-0.4915447,-0.1740712
0.9210738,-0.4487868,-0.1758523
0.7930151,-0.3539538,-0.1615298
0.8820931,-0.2788778,-0.17465
0.7198258,-0.243712,-0.1586769
0.658593,-0.2535361,-0.1560464
0.7109123,-0.2460079,-0.1454682
0.6181001,-0.1853714,-0.08541182
0.6623455,-0.1192386,-0.0913129
0.6181903,-0.09617521,-0.1300674
0.5700618,-0.1200322,-0.1584433
0.6837378,-0.1078412,-0.1280936
0.7301812,-0.07489041,-0.04465422
0.8044814,-0.06283615,-0.01766669
0.854758,-0.005121159,0.02183487
0.9897163,0.06348428,0.07947951
1.2135,0.06437092,0.09357265
1.276954,0.006706003,0.0969079
1.353792,-0.06947176,0.1106499
1.426054,-0.1239688,0.1480178
1.474853,-0.1566034,0.1361573
1.564111,-0.2571679,-0.0007234282
1.566407,-0.4510485,-0.1481631
1.472205,-0.5650928,-0.1152938
1.23893,-0.5849362,-0.05312897
1.077735,-0.5755563,-0.1292376
1.129913,-0.4808919,-0.1201539
1.12747,-0.4271676,-0.07798466
1.083228,-0.3495037,-0.07496617
1.102413,-0.2171152,0.0223316
1.047309,-0.3160234,0.02698285
0.8349151,-0.4386674,-0.01295589
0.5913844,-0.4119459,0.02385517
0.4863585,-0.3732953,0.007024891
0.5227071,-0.2536879,0.01313439
0.5393848,-0.1809253,0.0211682
0.4885465,-0.1734125,0.002389382
0.504306,-0.1343144,0.03174147
0.5342523,-0.1702315,0.04933372
0.5445583,-0.1984274,0.0968573
0.6010184,-0.2309601,0.1988359
0.6785212,-0.2850309,0.2797589
0.869178,-0.2398546,0.2662411
1.064098,-0.2246077,0.2283325
1.113701,-0.2783719,0.3351916
1.211569,-0.3143763,0.4195529
1.390394,-0.3640123,0.3328994
1.498938,-0.4941803,0.1441234
1.617485,-0.6924974,-0.05225907
1.741578,-0.702482,-0.01422383
1.457884,-0.4783515,0.0648801
0.9180984,-0.3477892,-0.1055981
0.8163271,-0.4001958,-0.2478836
1.076051,-0.4963751,-0.3068886
1.234848,-0.5495708,-0.3076776
1.11306,-0.5400356,-0.1967864
0.8898282,-0.4723471,-0.1876734
0.7610363,-0.3360621,-0.2000385
0.6099126,-0.1932799,-0.1686317
0.5948724,-0.1250228,-0.1822227
0.6829561,-0.143324,-0.1603292
0.6577653,-0.1901302,-0.165543
0.6619299,-0.2133877,-0.1282564
0.6024002,-0.2242337,-0.04474256
0.557945,-0.1848845,-0.05670469
0.6604004,-0.1092588,-0.05135518
0.765311,-0.048515,-0.04658262
0.9413369,-0.01028101,-0.04829663
1.122357,-0.02581679,-0.01255978
1.251787,-0.02417935,0.005427362
1.335777,0.01360888,0.05906963
1.346366,0.03857819,0.09382897
1.380693,0.04845516,0.07461204
1.397045,-0.04468978,0.05144617
1.440272,-0.1874217,0.007043172
1.44318,-0.3407746,-0.08955187
1.330319,-0.5675946,-0.2050427
1.300577,-0.628316,-0.1800493
1.272386,-0.5343236,-0.1108629
1.221996,-0.5886439,-0.1229889
1.209164,-0.5839473,-0.0785523
1.145475,-0.3908102,-0.05815651
1.096953,-0.258609,-0.07526865
1.04094,-0.2250028,-0.02788395
0.8746893,-0.2787083,-0.02708946
0.6150081,-0.329047,-0.02915726
0.4759891,-0.3320096,-0.01114051
0.4657102,-0.3743935,-0.04526415
0.3897886,-0.3309748,-0.04432734
0.4213916,-0.2729877,-0.03716115
0.4669809,-0.2319218,-0.03016344
0.4367675,-0.1205449,0.04309386
0.5237995,-0.1311737,0.1108531
0.5797343,-0.2102417,0.1567148
0.7415405,-0.2929768,0.2127952
0.9871317,-0.3635892,0.2801196
1.021071,-0.3057068,0.3264179
1.090639,-0.2914738,0.3686157
1.230878,-0.3384642,0.3757854
1.333934,-0.4356931,0.1635047
1.524988,-0.6578403,-0.07560132
1.700212,-0.7481178,-0.05461935
1.559962,-0.6219463,-0.03406513
1.182329,-0.4992287,-0.1890763
1.079224,-0.4754657,-0.3004732
1.198997,-0.4832292,-0.2891349
1.204357,-0.4823979,-0.2306446
1.075736,-0.475099,-0.1388355
0.8481309,-0.4191534,-0.1036979
0.7307332,-0.3079503,-0.1358882
0.6720301,-0.1695966,-0.1248081
0.5902557,-0.1054781,-0.1240715
0.6114045,-0.1402355,-0.1338815
0.5831967,-0.1657235,-0.1071842
0.5303764,-0.2009909,-0.09772671
0.5189616,-0.2155319,-0.09429914
0.5468382,-0.1531794,-0.07960207
0.6795704,-0.09313198,-0.0528997
0.7867842,-0.05774319,-0.04354129
0.9257058,-0.04744211,-0.04151414
1.141902,-0.04757824,0.005191499
1.320725,-0.04528734,0.05037922
1.429843,-0.05918006,0.1020341
1.414117,-0.04490102,0.1487272
1.385449,-0.009697064,0.1436669
1.415174,-0.01880558,0.08720483
1.50058,-0.1570765,-0.0937879
1.608991,-0.4138969,-0.24786
1.483468,-0.5515349,-0.1763468
1.204288,-0.5271522,-0.1138193
1.088597,-0.5325976,-0.175976
1.142787,-0.5719444,-0.1678218
1.19233,-0.5741691,-0.1310999
1.120199,-0.4768832,-0.09441996
1.082682,-0.3093774,0.0203007
1.096819,-0.2774042,0.03310847
0.9681451,-0.3505519,-0.02906616
0.7764865,-0.3534433,0.0006052143
0.6063063,-0.3297927,0.00754936
0.5384624,-0.3147791,0.01898252
0.5797395,-0.2919564,0.04258824
0.539064,-0.2696991,-0.007587935
0.5141166,-0.2154621,-0.02145549
0.5665247,-0.1703184,0.005813343
0.5743983,-0.1905209,0.04948721
0.5848855,-0.2385368,0.1253736
0.629138,-0.2762901,0.1855445
0.7593918,-0.2749668,0.2281798
0.9384843,-0.2349565,0.2599388
1.009562,-0.2150281,0.3182479
1.024207,-0.2263853,0.3656565
1.085793,-0.2713444,0.3171975
1.202575,-0.4485471,0.1262352
1.416928,-0.734177,-0.1011385
1.617167,-0.8211299,-0.0562367
1.406242,-0.5762087,0.03124356
0.9292175,-0.3959143,-0.1438379
0.8642522,-0.5112993,-0.2342024
1.163461,-0.5671089,-0.2315974
1.348599,-0.4627118,-0.2162427
1.212179,-0.4302886,-0.0894902
0.9102115,-0.3748356,-0.0948175
0.786685,-0.252337,-0.1233858
0.7376001,-0.2043249,-0.07513682
0.7139898,-0.1797997,-0.09899474
0.7392249,-0.1660795,-0.06739649
0.6583293,-0.1701486,-0.06601983
0.6404746,-0.1488463,-0.1001342
0.6090925,-0.154749,-0.07444152
0.5761455,-0.1549627,-0.1013237
0.7176458,-0.1299758,-0.1046327
0.7848105,-0.1143951,-0.1080847
0.8019424,-0.08265861,-0.1345447
0.8310965,-0.0781554,-0.1073751
0.8740768,-0.09826095,-0.09322755
0.9507823,-0.1055763,-0.05126645
1.094266,-0.5012337,-0.1575531
0.9355986,-0.4342993,-0.1650212
0.7486686,-0.3659448,-0.1955439
0.672547,-0.2553535,-0.1525201
0.6447533,-0.1442638,-0.1907389
0.6033509,-0.08662883,-0.1755088
0.6138447,-0.1653544,-0.1513818
0.638576,-0.2616337,-0.138889
0.649851,-0.2526206,-0.03372021
0.7000878,-0.2249465,-0.01210594
0.7271387,-0.1250498,-0.03801612
0.8057178,0.02461764,-0.04297977
0.989997,0.06475868,-0.03984754
1.108132,0.07935852,0.0005708124
1.231533,0.1510976,0.0105156
1.332287,0.1208323,0.02811023
1.332916,0.01180757,0.04274755
1.467198,-0.07132497,0.00736199
1.655087,-0.3355222,-0.141682
1.763267,-0.6267471,-0.3111862
1.656581,-0.6466951,-0.1849007
1.296818,-0.6661102,-0.04364679
1.192885,-0.6877507,-0.1702777
1.242338,-0.5654023,-0.1980148
1.15154,-0.4645883,-0.1074712
1.102126,-0.2510074,-0.07624191
0.9398639,-0.04520551,-0.01323849
0.7141854,-0.2117004,0.006960445
0.4810372,-0.39813,-0.04816674
0.26991,-0.3572674,-0.0670645
0.324115,-0.3321646,-0.0797805
0.3696786,-0.29051,-0.08769383
0.3757503,-0.2323912,-0.0768706
0.4702144,-0.2264362,-0.05689712
0.5116242,-0.1618609,0.02303795
0.6262404,-0.1218836,0.1024142
0.7790074,-0.1707148,0.1168145
0.9147003,-0.2236945,0.1481736
0.9922526,-0.2566511,0.2359627
0.9601247,-0.2439064,0.2849681
1.040502,-0.2418754,0.2640602
1.143918,-0.3498004,0.2255735
1.271231,-0.6518736,0.09197441
1.617005,-0.9351198,-0.09543279
1.731324,-0.7681944,-0.1417713
1.280831,-0.504922,-0.1512278
0.897992,-0.5904611,-0.2601472
1.114006,-0.6227881,-0.282361
1.315255,-0.5768632,-0.1840296
1.122331,-0.6270157,-0.1354488
0.9753071,-0.533531,-0.1090338
0.7629732,-0.409436,-0.1248534
0.5679391,-0.2817957,-0.1878343
0.668082,-0.1354862,-0.1788224
0.6234492,-0.1787905,-0.1859292
0.5438425,-0.2245879,-0.1790621
0.5657128,-0.2271338,-0.109104
0.4919154,-0.2312711,-0.1059667
0.5771441,-0.1443596,-0.0874692
0.6524433,-0.07976731,-0.05019801
0.6924151,0.02959724,-0.05853903
0.8735696,0.1281852,-0.04592887
1.015404,0.08069534,-0.02055556
1.255297,0.06179088,0.04796888
1.400202,0.07283254,0.1313798
1.409751,0.009279297,0.1177366
1.620709,-0.1774565,-0.06011448
1.69257,-0.4815822,-0.2776434
1.57155,-0.7591566,-0.2430559
1.412801,-0.9249255,-0.1290681
1.184632,-0.9262293,-0.1683965
1.220983,-0.7572137,-0.1530118
1.320679,-0.5393041,-0.1178017
1.184844,-0.3379557,-0.1077362
1.103147,-0.2498219,-0.03367073
0.9087606,-0.3346835,-0.0139731
0.559506,-0.3642719,0.00349527
0.414452,-0.3079775,0.01506191
0.3544762,-0.2874548,-0.03369068
0.3460582,-0.2015417,-0.0212597
0.3834084,-0.1432799,-0.02331095
0.3461485,-0.1399392,-0.006856296
0.4002957,-0.08394937,0.07766054
0.4798265,-0.09387083,0.09762004
0.5761719,-0.1648106,0.1312581
0.780712,-0.2578939,0.2037943
0.9169392,-0.3169226,0.2707002
1.023676,-0.2568897,0.3223581
1.137904,-0.2287731,0.3187058
1.233952,-0.2435365,0.3494254
1.300295,-0.279664,0.3334002
1.317791,-0.5223287,0.1129632
1.571739,-0.8647936,-0.09551943
1.794397,-0.9116997,-0.06545707
1.342858,-0.6295117,-0.04110531
0.8208476,-0.4413998,-0.1934435
0.9966889,-0.488125,-0.2596839
1.2507,-0.5493883,-0.2859202
1.189465,-0.5643416,-0.3270781
1.113608,-0.5429652,-0.1991728
0.8829393,-0.4769783,-0.1418492
0.7420957,-0.3919287,-0.187697
0.798961,-0.2801852,-0.1683905
0.6411242,-0.136262,-0.1801071
0.6330233,-0.08077201,-0.1703061
0.7211307,-0.1774112,-0.1540742
0.6124589,-0.2047887,-0.130703
0.6615059,-0.1542288,-0.08429108
0.6802667,-0.1464094,-0.0995479
0.6606555,-0.05549825,-0.06795573
0.7997185,0.03336711,-0.03298933
0.8829216,0.0414497,-0.02273162
0.9689839,0.05840273,0.06734828
1.046068,0.05808568,0.1436972
1.137894,0.06674514,0.173696
1.295432,0.04503295,0.1939135
1.341048,-0.07064137,0.1984156
1.387169,-0.2704353,0.1072671
1.462906,-0.4918446,-0.08153623
1.450798,-0.5940459,-0.1548113
1.412482,-0.6474072,-0.1104541
1.323856,-0.6438621,-0.1259092
1.218787,-0.5097954,-0.1714143
1.249983,-0.4147431,-0.1415938
1.320763,-0.2773952,-0.08820696
1.259586,-0.1442593,-0.05945295
1.140014,-0.2754063,-0.02270458
0.9174873,-0.4285577,-0.01692086
0.6306957,-0.4427714,-0.01825713
0.5525226,-0.3949312,-0.008405352
0.5419693,-0.2746373,-0.02476161
0.4893345,-0.2072736,-0.01751767
0.4960481,-0.1659822,-0.01328733
0.4797789,-0.1206876,-0.009003757
0.4867611,-0.1649298,0.03662379
0.5082264,-0.1948058,0.07762636
0.5312526,-0.2110085,0.1468053
0.6474158,-0.2332498,0.2490536
0.8030744,-0.1876745,0.3096834
0.9878452,-0.1567569,0.3166757
1.101004,-0.1697778,0.3634555
1.144759,-0.1945333,0.4465152
1.27903,-0.2517035,0.3905329
1.367414,-0.4173712,0.1986864
1.398361,-0.7584624,-0.007080803
1.487183,-0.9661622,-0.09736985
1.522324,-0.7464423,-0.08871177
1.425011,-0.5471056,-0.1994287
1.126648,-0.6792356,-0.2901333
0.8473964,-0.6936393,-0.2866104
1.041324,-0.5565929,-0.3207175
1.268312,-0.5165134,-0.2324668
0.9537505,-0.4201413,-0.1585607
0.7290938,-0.3824061,-0.195747
0.811253,-0.3952195,-0.1831612
0.6986664,-0.2695109,-0.2179566
0.6560137,-0.2392415,-0.2143533
0.7090392,-0.2669216,-0.1766411
0.5970605,-0.2177183,-0.1922941
0.5998181,-0.1987746,-0.1350224
0.6077378,-0.177107,-0.1108689
0.5241314,-0.1697179,-0.1253239
0.5842235,-0.1565356,-0.1019454
0.6815798,-0.06937111,-0.03858644
0.7969128,0.03315637,0.07520672
0.9524412,0.05381421,0.08731557
1.092721,0.005136288,0.07594534
1.292542,0.018696,0.1298194
1.422258,0.0220388,0.1486042
1.436465,-0.011522,0.1719653
1.478466,-0.03236126,0.1735369
1.532442,-0.157069,0.1360264
1.600966,-0.2617368,0.07476141
1.623125,-0.3305289,-0.0005146437
1.517136,-0.5412058,0.008705356
1.382321,-0.6617534,0.02127674
1.231198,-0.5616069,-0.05693824
1.055834,-0.4907351,-0.1251855
0.9953699,-0.4271139,-0.1240789
1.031056,-0.2504613,-0.06863038
1.058315,-0.211955,-0.01050709
1.122378,-0.3204611,-0.001054308
1.006068,-0.3558611,-0.0146619
0.6434568,-0.4040409,-0.01393507
0.4595833,-0.3708398,-0.0051053
0.4370374,-0.2508454,-0.001655831
0.4491492,-0.2555617,0.001112165
0.5050964,-0.2196504,0.01390562
0.4758777,-0.1598869,0.05286461
0.5205965,-0.1989349,0.1179984
0.6209684,-0.2310721,0.1675313
0.7467487,-0.3211761,0.2054315
0.9081356,-0.3851157,0.2627414
0.873715,-0.3192428,0.3169169
0.8804388,-0.27044,0.3662311
1.007981,-0.2681832,0.3840506
1.097059,-0.358636,0.3041051
1.285293,-0.5868335,0.136227
1.557375,-0.746419,-0.0009279903
1.75531,-0.6611972,0.003682288
1.479936,-0.4612472,-0.02758982
0.9349833,-0.3581802,-0.2106493
0.9011826,-0.4104732,-0.2775403
1.178513,-0.5326939,-0.239563
1.305453,-0.5574992,-0.2395842
1.209641,-0.5333929,-0.1636723
1.004956,-0.5263616,-0.1219939
0.8563785,-0.3656534,-0.1617066
0.6079766,-0.1445165,-0.146533
0.5724602,-0.06483543,-0.1374253
0.7277564,-0.09310566,-0.1357676
0.5314531,-0.1547947,-0.1214859
0.478055,-0.1943186,-0.1013844
0.5954988,-0.1919026,-0.05309883
0.5585284,-0.1424229,-0.04303233
0.6887872,-0.104352,-0.03454509
0.7256278,-0.07624154,-0.01172732
0.7810629,-0.02380626,-0.01634086
1.085221,0.01436466,0.01675322
1.22347,0.08418429,0.05352031
1.278258,0.1198771,0.07064449
1.310979,0.1254426,0.1044087
1.338562,0.1368169,0.1073831
1.460366,-0.04040527,0.06751391
1.497649,-0.3776945,-0.07264753
1.500677,-0.6299011,-0.2412137
1.46315,-0.5999956,-0.1917092
1.354095,-0.5176695,-0.09594314
1.30233,-0.62175,-0.1391225
1.294653,-0.574266,-0.09844559
1.293637,-0.4049705,-0.03103546
1.256465,-0.2655682,-0.03021608
1.135241,-0.1647996,0.00584097
0.8609978,-0.3098234,-0.01384157
0.5565773,-0.3788279,-0.02840197
0.4470566,-0.2810578,-0.002500094
0.4332701,-0.2687368,-0.02045129
0.4237813,-0.1811908,0.008940149
0.4206229,-0.1238757,0.01726686
0.4177346,-0.1336073,0.005739351
0.4730969,-0.1102472,0.05214341
0.519186,-0.1557718,0.08358494
0.5458687,-0.1877467,0.1613643
0.6826746,-0.2004671,0.2517962
0.9330673,-0.2032195,0.2837968
1.110774,-0.1875001,0.2974872
1.138533,-0.2100606,0.2902794
1.206476,-0.2296408,0.2880957
1.305572,-0.3679475,0.2110121
1.380737,-0.672196,0.02217504
1.607273,-0.864741,-0.1344948
1.705053,-0.7289142,-0.189488
1.202659,-0.5195616,-0.2116718
0.6756377,-0.5557737,-0.2230956
0.9591173,-0.6713585,-0.1671785
1.386728,-0.7661531,-0.1566502
1.277073,-0.7647639,-0.1856815
1.074374,-0.5791261,-0.1585521
0.8280692,-0.4350935,-0.1950719
0.7550667,-0.2895317,-0.2139417
0.9287692,-0.1693046,-0.1865856
0.8106589,-0.19231,-0.2074896
0.8172309,-0.1594764,-0.1928361
0.8586501,-0.1876907,-0.1934582
0.6235609,-0.2853301,-0.1954842
0.6471438,-0.2464473,-0.1641374
0.6406458,-0.1462615,-0.1634829
0.6233644,-0.009085793,-0.142208
0.7412072,0.07943006,-0.1226569
0.652387,0.07870827,-0.06482564
0.6563744,0.1297964,0.07146219
0.6809496,0.1985669,0.1712798
0.74658,0.1909012,0.2133606
1.023182,0.1067355,0.2450254
1.159146,0.005180088,0.3080015
1.248314,-0.02778688,0.3625762
1.360668,-0.008790997,0.37294
1.465355,-0.03825265,0.362194
1.597096,-0.1484034,0.2620582
1.668816,-0.3333504,0.05385997
1.709677,-0.4828436,-0.1176869
1.52249,-0.4991577,-0.1022126
1.242633,-0.5280671,-0.06422114
1.235117,-0.5393362,-0.1840943
1.282578,-0.4589732,-0.2329092
1.202422,-0.410425,-0.1398058
1.099423,-0.3424474,-0.04535817
1.02445,-0.3391915,0.006771644
0.9194727,-0.4430892,-0.02546697
0.7929601,-0.4575095,-0.04252529
0.7271382,-0.4347056,-0.02111368
0.6175946,-0.3454235,-0.003490765
0.4609884,-0.219065,0.04760938
0.4796494,-0.2304576,0.03422444
0.5591849,-0.1846331,0.00487188
0.4956223,-0.07708202,0.03100523
0.4990452,-0.09676842,0.02056876
0.5625657,-0.1483482,0.03922406
0.598902,-0.2105928,0.1069807
0.785334,-0.2905497,0.1658988
0.9386019,-0.3117136,0.2356281
1.005499,-0.3032807,0.284419
1.093521,-0.2938972,0.2962913
1.105407,-0.2747755,0.3054343
1.195948,-0.3290894,0.28691
1.318288,-0.6000657,0.1125153
1.531084,-0.9626731,-0.0982224
1.795557,-0.9806734,-0.05161093
1.348347,-0.6165034,-0.022751
0.6862155,-0.3896628,-0.2074496
0.8530477,-0.489021,-0.2508395
1.232853,-0.5653794,-0.2276028
1.313876,-0.5003387,-0.240337
1.179696,-0.5134559,-0.1375287
0.7954869,-0.5154606,-0.1150255
0.6211035,-0.3486325,-0.1546088
0.6125093,-0.1905327,-0.143362
0.4933575,-0.1199877,-0.171437
0.5402324,-0.1625403,-0.1497546
0.5398244,-0.2274627,-0.1151614
0.4834778,-0.1682296,-0.1020576
0.5393388,-0.169058,-0.05539587
0.4918004,-0.1465463,-0.03376962
0.569173,-0.01345255,-0.01073435
0.7931425,0.02701925,-0.02013059
1.017729,0.0452978,-0.0356028
1.261707,0.02636139,0.01645395
1.369612,-0.03973484,0.05407456
1.490174,-0.06630042,0.09079135
1.603616,-0.09763356,0.1218944
1.605402,-0.128247,0.0822707
1.70632,-0.2520417,-0.07958454
1.791706,-0.3904541,-0.2674814
1.649415,-0.4588006,-0.2173518
1.361109,-0.5988287,-0.1257143
1.209741,-0.6546032,-0.1937178
1.231172,-0.5731454,-0.1586915
1.162494,-0.4903418,-0.0891167
1.052419,-0.3383214,-0.067384
1.013219,-0.2227404,0.01278739
0.8993274,-0.2649746,0.004382952
0.6423077,-0.3098863,-0.03570463
0.4041663,-0.3130757,-0.04694469
0.3109735,-0.3054888,-0.08908078
0.3202601,-0.2536572,-0.06210954
0.3789403,-0.23412,-0.05100641
0.4309999,-0.2046559,-0.03819179
0.4863993,-0.1309091,0.0407422
0.5535281,-0.1296953,0.08230512
0.6204168,-0.125219,0.1534289
0.7415036,-0.162093,0.2157805
0.918156,-0.276195,0.2969963
1.073018,-0.2626977,0.4358994
1.076215,-0.2311661,0.4038825
1.130663,-0.3038557,0.3074403
1.343241,-0.4333993,0.1780012
1.375703,-0.6352885,-0.05452387
1.513684,-0.79982,-0.01497854
1.794763,-0.8874718,0.09070724
1.543067,-0.7530463,-0.08488086
1.073245,-0.4100388,-0.1577681
0.960819,-0.3921561,-0.1790042
1.099718,-0.5350288,-0.2669398
1.228329,-0.4663039,-0.1982811
1.059492,-0.4801626,-0.1626912
0.817655,-0.441929,-0.1450216
0.7325591,-0.2713214,-0.09059443
0.5892453,-0.1693404,-0.1360732
0.5335256,-0.0667013,-0.1250736
0.5569288,-0.0951572,-0.1184254
0.4742642,-0.155292,-0.1487636
0.4659567,-0.1381022,-0.1073729
0.5099429,-0.1608689,-0.0946459
0.5531316,-0.1216374,-0.07196338
0.637901,-0.1210415,-0.03501468
0.7990084,-0.1019606,-0.01561459
1.117375,0.02471202,0.01542587
1.335862,0.04909433,0.01671669
1.363106,0.02906439,0.03020264
1.486102,0.01807511,0.05386458
1.662901,0.009369313,0.07480586
1.685494,-0.04667808,0.06539637
1.679222,-0.2476009,-0.0748668
1.732258,-0.4240565,-0.2276662
1.590946,-0.5214914,-0.2299818
1.307576,-0.6087366,-0.1839293
1.179993,-0.6257251,-0.215466
1.198576,-0.5772603,-0.2263283
1.202812,-0.5332141,-0.1698322
1.076234,-0.4190505,-0.09542784
0.9586207,-0.2483642,0.01207345
0.9363429,-0.2614991,0.02005461
0.800764,-0.3175338,-0.04326371
0.5063934,-0.271443,-0.03419954
0.2927839,-0.2976148,-0.06613671
0.3522342,-0.296783,-0.05757031
0.422831,-0.2706675,0.005135858
0.3703156,-0.2772886,-0.0265693
0.4492547,-0.2121035,0.00685718
0.5621515,-0.1731164,0.08109974
0.6347124,-0.1973692,0.07771758
0.7010935,-0.2392231,0.1112024
0.7205319,-0.2613826,0.1900921
0.8693381,-0.2426389,0.2631672
1.021167,-0.2501233,0.2971177
1.049424,-0.2701239,0.3416732
1.158995,-0.3053044,0.4048264
1.293638,-0.3855931,0.3206512
1.418539,-0.5527539,0.1347075
1.577052,-0.7282575,0.02869744
1.61604,-0.6699118,0.04599998
1.393319,-0.4941369,0.0470483
1.0258,-0.4343879,-0.1088634
0.9539268,-0.4789357,-0.2266088
1.239182,-0.562038,-0.234434
1.380316,-0.5363508,-0.2472998
1.141557,-0.4439487,-0.1673925
0.8177792,-0.3837681,-0.0918605
0.7118187,-0.2878119,-0.1329286
0.6737384,-0.2326864,-0.1487985
0.6110281,-0.1909867,-0.1325015
0.6274598,-0.1384691,-0.1344247
0.5814262,-0.1735232,-0.1366294
0.4917641,-0.1851117,-0.1201901
0.4655446,-0.1803123,-0.09898678
0.509004,-0.189899,-0.07789734
0.6493312,-0.1521312,-0.05070501
0.7307097,-0.1072554,-0.05477825
0.7630968,8.95128e-05,-0.05296496
0.8502983,0.07662666,-0.04040552
1.018209,0.02829193,-0.02710342
1.271912,0.01655872,0.01982916
1.334086,0.03686407,0.04691358
1.331394,0.04382851,0.1108047
1.509385,0.06872119,0.2006552
1.525022,0.002853792,0.1383241
1.508659,-0.2237597,0.0006610172
1.670206,-0.451399,-0.092519
1.61328,-0.4752865,-0.1649124
1.333428,-0.4040982,-0.1505111
1.113811,-0.4427196,-0.1192997
1.118899,-0.4593555,-0.1843192
1.211529,-0.3810796,-0.1850192
1.102695,-0.3232785,-0.08468763
1.088698,-0.2809529,0.009694491
1.127491,-0.3385771,0.05161885
0.9165251,-0.4351905,-0.001869575
0.7298886,-0.3897361,-0.02887209
0.7350604,-0.3179286,-0.1512168
0.46188,-0.4297327,-0.1220209
0.5095786,-0.3982427,-0.1080664
0.4988637,-0.3537393,-0.1317824
0.3692187,-0.2426476,-0.09751436
0.4403953,-0.1250241,-0.08108706
0.4483991,-0.1013944,-0.05946609
0.4838525,-0.1681925,-0.0009251126
0.5981079,-0.2529957,0.06191892
0.7301599,-0.2786221,0.1407465
0.9381312,-0.2672142,0.1514634
0.998103,-0.2286848,0.1380006
1.063028,-0.2166673,0.1461924
1.200759,-0.3041663,0.06780034
1.263309,-0.5690065,-0.1364407
1.509339,-0.9219396,-0.3560078
1.730657,-0.9530904,-0.3557818
1.398691,-0.6659923,-0.2712253
0.9090582,-0.4652821,-0.3387419
0.8988278,-0.4359989,-0.3691455
1.111317,-0.4737414,-0.3596105
1.1686,-0.4956355,-0.324795
0.9991556,-0.492387,-0.1893784
0.6817291,-0.4193935,-0.1908056
0.5353781,-0.2248378,-0.2538358
0.4823983,-0.1106344,-0.2248518
0.4471766,-0.1368367,-0.2431955
0.5317907,-0.1692174,-0.2374168
0.5233738,-0.2163484,-0.215798
0.5520324,-0.2276795,-0.2263744
0.6740531,-0.1861251,-0.2038826
0.7110793,-0.1723535,-0.2169707
0.7970105,-0.1842155,-0.2243071
0.9149766,-0.2039421,-0.2071688
1.02565,-0.1895012,-0.1870597
1.113814,-0.1165571,-0.1301605
1.172623,-0.01100246,-0.1268851
1.306872,0.02676452,-0.1355472
1.430972,-0.1046666,-0.148657
1.5102,-0.3158272,-0.3065898
1.545924,-0.504035,-0.4796361
1.492255,-0.6165294,-0.4615977
1.28311,-0.6470822,-0.3357462
1.031411,-0.6649805,-0.2972177
1.125586,-0.6357672,-0.330813
1.269198,-0.5250156,-0.3335161
1.133952,-0.3586451,-0.2749873
1.071135,-0.281389,-0.1555754
0.9583482,-0.3830841,-0.07301029
0.7189565,-0.420901,-0.05803949
0.5233816,-0.3789666,-0.05175145
0.2997754,-0.3534671,-0.04724231
0.3683603,-0.2310623,-0.04962881
0.547278,-0.1582678,-0.07255988
0.4492152,-0.1781037,-0.07479319
0.5282562,-0.1533006,-0.06194511
0.6265087,-0.1711099,-0.0489204
0.5429261,-0.2499322,0.0221825
0.6886886,-0.3218461,0.09964827
0.8573252,-0.3596951,0.1378442
0.9424636,-0.3581424,0.1464132
1.036764,-0.3498845,0.1678675
1.08631,-0.3644027,0.1733988
1.23466,-0.4879583,-0.008740178
1.430139,-0.7756259,-0.2402089
1.614428,-0.9735885,-0.2656106
1.488982,-0.7837703,-0.2213565
0.9684594,-0.5370338,-0.2723969
0.7692289,-0.5685005,-0.3370567
1.022022,-0.5746788,-0.350984
1.23145,-0.5152443,-0.328138
1.098848,-0.5142923,-0.2680545
0.8544433,-0.4273622,-0.2406376
0.7699711,-0.3035852,-0.2480303
0.5839591,-0.1816112,-0.2533622
0.5176637,-0.1392524,-0.2859682
0.600177,-0.252645,-0.2543719
0.5201608,-0.3178704,-0.19411
0.5454302,-0.3156037,-0.1898609
0.5277404,-0.2573153,-0.164302
0.4964715,-0.1285234,-0.1533489
0.6360171,-0.05117652,-0.1609196
0.7202688,0.03147268,-0.160464
0.895438,0.07673738,-0.1687055
1.059626,0.02450328,-0.1467756
1.192145,-0.005057595,-0.1175179
1.384533,-0.03964707,-0.08607105
1.379102,-0.08776713,-0.07414297
1.3802,-0.1206047,-0.09152639
1.48076,-0.2282033,-0.1067687
1.541879,-0.4049144,-0.2280582
1.598823,-0.4895896,-0.4512182
1.568859,-0.4925493,-0.5381748
1.362705,-0.6116127,-0.3828072
1.030404,-0.7469242,-0.2523029
0.9598274,-0.705943,-0.321396
1.160101,-0.5177807,-0.3282471
1.189867,-0.2473931,-0.2295872
1.127826,-0.1377864,-0.1700282
1.009809,-0.2752419,-0.1018407
0.70182,-0.3701999,-0.09781399
0.4343456,-0.3822514,-0.09973575
0.3982862,-0.3607472,-0.02714004
0.5037935,-0.243739,-0.06716014
0.5482822,-0.163579,-0.1219199
0.5278694,-0.1649348,-0.08541827
0.5118989,-0.203304,-0.06886727
0.4598257,-0.2847877,0.0003716641
0.4746747,-0.3190037,0.08343248
0.6208206,-0.331596,0.1061913
0.8205693,-0.3564639,0.1326138
0.9883424,-0.3120019,0.1343265
1.085353,-0.2430079,0.1455523
1.162474,-0.217564,0.1720463
1.233269,-0.228527,0.1544342
1.304076,-0.307808,0.06870299
1.305767,-0.5651209,-0.2030886
1.268806,-0.8323813,-0.4945416
1.258748,-0.7787207,-0.4585226
0.9754434,-0.6944195,-0.2973561
0.6966084,-0.7914,-0.2970699
1.009804,-0.7151546,-0.3073674
1.298441,-0.5959687,-0.3024097
1.043741,-0.585552,-0.3274355
0.8794068,-0.4786894,-0.306004
0.9223489,-0.3576556,-0.316986
0.7699375,-0.2100632,-0.3416247
0.7142193,-0.1711175,-0.3327532
0.732782,-0.3494588,-0.3201716
0.5475301,-0.3761766,-0.2643107
0.5418569,-0.357997,-0.2425685
0.5719697,-0.3929705,-0.2301062
0.4608388,-0.2700099,-0.21372
0.5448004,-0.1104308,-0.2618805
0.5976706,0.04660882,-0.2480785
0.6061883,0.1283648,-0.2139013
0.7020048,0.1340893,-0.1854602
0.8054555,0.1398637,-0.08311157
1.09038,0.05353592,-0.01133425
1.252846,0.003938165,0.02837736
1.226131,-0.0191451,0.04674871
1.368184,-0.03957595,0.03529302
1.468307,-0.04553654,0.002321463
1.511201,-0.2558473,-0.142619
1.570254,-0.5644706,-0.3165186
1.515272,-0.8152545,-0.3660226
1.3817,-0.8849526,-0.336021
1.140645,-0.707317,-0.3883759
1.043504,-0.5968682,-0.477388
1.172702,-0.5567622,-0.4221751
1.163475,-0.3770805,-0.325397
1.080606,-0.1979214,-0.2371826
1.00703,-0.2235285,-0.1496015
0.7861248,-0.3618377,-0.16165
0.4927579,-0.3845869,-0.1146454
0.3459435,-0.2806406,-0.02821736
0.425489,-0.1167323,-0.06950363
0.4845142,-0.0502003,-0.08015679
0.487467,-0.09110263,-0.05780982
0.566626,-0.07078109,-0.0660921
0.5646302,-0.1444875,-0.006138944
0.6015378,-0.3175764,0.06220199
0.7995543,-0.4421342,0.1037096
0.9888346,-0.4950634,0.1599989
1.128587,-0.4248017,0.2095481
1.169753,-0.3905099,0.2462962
1.208653,-0.4196494,0.1994626
1.332295,-0.5309633,-0.01556217
1.493985,-0.8304133,-0.2587665
1.628763,-0.9438096,-0.28154
1.465897,-0.6911948,-0.2446307
1.132762,-0.4599276,-0.3688771
0.8846758,-0.4675146,-0.4021135
0.7513701,-0.4955678,-0.3759752
0.9167595,-0.4663215,-0.387316
1.014286,-0.5219688,-0.2465023
0.7623553,-0.4463883,-0.2023348
0.5444904,-0.2238178,-0.2552
0.4280468,-0.1030123,-0.204918
0.4060611,-0.05020732,-0.2461021
0.4532919,-0.09238572,-0.2615319
0.4633107,-0.1548732,-0.2070372
0.5104175,-0.1974601,-0.1720701
0.5092287,-0.2616455,-0.1004371
0.5404734,-0.1869862,-0.1316787
0.750183,-0.1260412,-0.1754075
0.9457757,-0.1421167,-0.168053
1.093827,-0.07979765,-0.2131803
1.321382,-0.04128456,-0.2312242
1.468398,-0.03577252,-0.2373244
1.41057,-0.07083412,-0.1996543
1.439157,-0.1522714,-0.1529171
1.530152,-0.2601201,-0.2512748
1.496477,-0.4485708,-0.4381264
1.534557,-0.5650169,-0.5725919
1.423323,-0.5760379,-0.5036541
1.077833,-0.6228433,-0.3325029
0.9338446,-0.6754272,-0.2731367
1.020764,-0.615659,-0.2600994
1.118767,-0.4192049,-0.2524771
1.06755,-0.235872,-0.2349679
0.963388,-0.2042675,-0.1856762
0.7891676,-0.3101702,-0.1379019
0.4856853,-0.3814556,-0.07199101
0.4554574,-0.36835,-0.05898129
0.5346458,-0.3479476,-0.08726611
0.4766733,-0.2589686,-0.08989512
0.5303985,-0.1969055,-0.08808643
0.5534754,-0.2016923,-0.04864127
0.5272845,-0.2047603,-0.003654401
0.5739056,-0.2817159,0.05905627
0.6858126,-0.3268749,0.106815
0.8599179,-0.3117378,0.08032448
0.9359062,-0.3143342,0.1070849
0.9985063,-0.3158717,0.1298631
1.059324,-0.3338293,0.107963
1.101443,-0.3819092,0.06174507
1.344083,-0.6174095,-0.1845418
1.468741,-0.884386,-0.4375429
1.294292,-0.7879689,-0.3650248
1.086209,-0.5897323,-0.252545
0.8613451,-0.5777079,-0.351426
0.8919994,-0.5817836,-0.3496815
1.12395,-0.5871727,-0.299444
1.121617,-0.5808311,-0.3584728
1.096589,-0.5137702,-0.2489822
0.9793255,-0.4882357,-0.1660958
0.7082351,-0.3838756,-0.2380118
0.6700925,-0.1899612,-0.2387127
0.6234986,-0.1027451,-0.2695826
0.5366047,-0.08973132,-0.2807248
0.587729,-0.1420472,-0.2271363
0.5388158,-0.1938418,-0.1842022
0.5012093,-0.180077,-0.1567374
0.5462127,-0.1668025,-0.1815472
0.5941801,-0.1123284,-0.1691497
0.7087579,-0.0736363,-0.1731005
0.8556502,-0.07230865,-0.1904709
1.061571,-0.08513715,-0.1300129
1.225062,-0.1273452,-0.08296242
1.242418,-0.1134841,-0.043995
1.309612,-0.1237135,-0.05245756
1.42724,-0.2055324,-0.1035343
1.431041,-0.3267571,-0.1986831
1.489946,-0.5178054,-0.4427266
1.58701,-0.6607253,-0.5901172
1.348447,-0.7323974,-0.4460726
1.018191,-0.7708877,-0.3100819
1.03038,-0.6989997,-0.3919467
1.185602,-0.527868,-0.4209889
1.254651,-0.3469166,-0.3222218
1.205363,-0.288689,-0.275183
1.041034,-0.4018766,-0.183732
0.8078185,-0.5223171,-0.1640868
0.629293,-0.5131984,-0.2154698
0.6483234,-0.3920925,-0.138463
0.6617722,-0.2335431,-0.1596075
0.5514224,-0.1575895,-0.1812047
0.5309751,-0.1567904,-0.09836027
0.5540208,-0.1217024,-0.116527
0.5507972,-0.1275353,-0.1038282
0.5475633,-0.1778387,-0.07136817
0.5230235,-0.1938523,-0.02299922
0.5948871,-0.225546,0.1110135
0.7398403,-0.2084492,0.1770299
0.8732777,-0.1359131,0.1975067
0.9740971,-0.1023026,0.1834491
1.024833,-0.1183661,0.1710584
1.139996,-0.2060927,0.1762826
1.268411,-0.4001486,0.03428677
1.394545,-0.7789338,-0.1841643
1.522954,-1.01483,-0.3129449
1.387005,-0.755487,-0.2983773
1.104201,-0.5668665,-0.2890513
1.012531,-0.6959865,-0.3725801
1.152782,-0.6614035,-0.4152947
1.307081,-0.5690416,-0.4716722
1.149785,-0.5996265,-0.4047579
0.8612692,-0.5617391,-0.2254471
0.7377954,-0.4890086,-0.2732434
0.7194244,-0.3871808,-0.3040944
0.7460104,-0.2455995,-0.2480628
0.6547752,-0.200619,-0.3018336
0.550973,-0.1973823,-0.2620304
0.5642297,-0.1832502,-0.2113016
0.519041,-0.1764394,-0.2163673
0.5802029,-0.1189029,-0.1669746
0.7094252,-0.06120269,-0.1840964
0.8082371,-0.03998819,-0.2037295
1.060832,-0.03015155,-0.1759599
1.255404,-0.04782323,-0.1626526
1.310018,-0.116112,-0.09808478
1.336703,-0.2471052,-0.021839
1.371416,-0.3218443,-0.01961656
1.472557,-0.3211279,-0.165362
1.521011,-0.4034126,-0.4454249
1.517505,-0.4928846,-0.5965346
1.401387,-0.4950316,-0.4896131
1.067587,-0.5719077,-0.3306682
0.8165724,-0.6813397,-0.2563634
0.9349725,-0.5945718,-0.265179
1.169296,-0.4285121,-0.3187426
1.165893,-0.3347445,-0.2846722
1.116794,-0.2023435,-0.2144934
1.090239,-0.09243597,-0.1731334
0.9516446,-0.1794727,-0.09341541
0.7291403,-0.3822141,-0.08023726
0.4463437,-0.4409,-0.06699105
0.4638257,-0.3329083,-0.03232272
0.59665,-0.2695528,-0.1085369
0.4931133,-0.2583876,-0.1180736
0.5765836,-0.2319866,-0.07251168
0.6514846,-0.1901275,-0.04605871
0.5824764,-0.1786437,0.01741883
0.6955734,-0.2522293,0.03090899
0.8212146,-0.3064122,0.06010974
0.9948087,-0.3161211,0.1078797
1.136278,-0.3076251,0.1581116
1.104056,-0.305752,0.204456
1.120292,-0.4502311,0.05760991
1.220361,-0.753125,-0.2064873
1.486486,-0.9660881,-0.3836255
1.643562,-0.7663515,-0.3917473
1.232598,-0.4751249,-0.3638231
0.8317187,-0.5286479,-0.4259601
1.035449,-0.5615589,-0.3839018
1.185075,-0.5108773,-0.2957924
0.9229199,-0.5408787,-0.2116494
0.7906241,-0.434148,-0.09862181
0.6706078,-0.2690881,-0.1821759
0.4968494,-0.1283569,-0.2565309
0.5185114,-0.06891813,-0.2164245
0.4570732,-0.1662315,-0.2550079
0.4971767,-0.2250287,-0.2238962
0.6580269,-0.2582577,-0.1931453
0.6746264,-0.2738991,-0.2253328
0.7898656,-0.2445165,-0.2091896
0.8547982,-0.2595452,-0.221777
0.9262747,-0.178464,-0.2114012
1.136871,-0.04526229,-0.173244
1.183326,-0.02092644,-0.1505409
1.223933,-0.0521626,-0.1052103
1.308007,-0.0821067,-0.07432017
1.358091,-0.1170145,-0.1142214
1.526738,-0.319864,-0.3801403
1.727353,-0.5537234,-0.6945621
1.703343,-0.5114306,-0.6273149
1.364566,-0.5200835,-0.3884739
1.104876,-0.6987925,-0.3088906
1.153822,-0.6198087,-0.2803244
1.209378,-0.4312805,-0.2949831
1.124412,-0.3394142,-0.2978076
1.035727,-0.2023609,-0.1922919
0.9699205,-0.2466371,-0.1485217
0.7684989,-0.387421,-0.1468227
0.5315453,-0.3737572,-0.1222273
0.4042917,-0.3764991,-0.1178581
0.3754601,-0.3110476,-0.08483286
0.42617,-0.2566859,-0.09381093
0.4416877,-0.2898097,-0.1006179
0.5229347,-0.2181449,-0.06383142
0.6068167,-0.2333553,-0.05212758
0.5805074,-0.3016604,0.03019769
0.7106055,-0.3177852,0.1450569
0.9268291,-0.3209936,0.2062248
1.068041,-0.1954022,0.2079407
1.107807,-0.09706796,0.1836497
1.022692,-0.102002,0.1800764
1.070552,-0.2959314,0.02173718
1.429674,-0.7657062,-0.3433415
1.802284,-1.044539,-0.5915999
1.625234,-0.8011879,-0.4792201
1.067932,-0.4229658,-0.3138422
0.8104496,-0.3924316,-0.3565112
0.9321163,-0.5059364,-0.3294513
1.116225,-0.5533747,-0.2564875
1.001731,-0.5931292,-0.2306901
0.7925085,-0.4307396,-0.1722689
0.6902533,-0.2141255,-0.2206425
0.4573377,-0.1322302,-0.22767
0.4558112,-0.1535966,-0.1898071
0.564156,-0.2417756,-0.2219947
0.4921976,-0.2374213,-0.1719333
0.5576568,-0.259532,-0.1850007
0.5324482,-0.2373834,-0.2116243
0.5367831,-0.1414957,-0.1739285
0.7088122,-0.1784131,-0.2190308
0.8189798,-0.1440418,-0.2183483
0.9899321,-0.1212788,-0.1968074
1.125062,-0.1495665,-0.1456838
1.345772,-0.05203833,-0.03237013
1.453729,-0.02638767,-0.03184185
1.342885,-0.05241843,-0.08232859
1.53318,-0.07439393,-0.1587078
1.575679,-0.1476454,-0.2813817
1.420698,-0.3166494,-0.3976496
1.391364,-0.6256449,-0.5152351
1.15797,-0.747723,-0.5082878
1.015409,-0.6440021,-0.4181143
0.9745501,-0.65856,-0.4190826
0.9863799,-0.6751266,-0.3836697
1.204618,-0.4727283,-0.2715924
1.111104,-0.2075567,-0.2046661
0.9295379,-0.1301674,-0.1469092
0.7515151,-0.2837022,-0.1276078
0.3407039,-0.4099236,-0.1237262
0.4351427,-0.3626009,-0.09348364
0.6468102,-0.3748149,-0.1350354
0.4373983,-0.4182674,-0.1365609
0.5101304,-0.2871101,-0.06126261
0.5749475,-0.1786029,0.003803805
0.4640937,-0.2192707,0.05168099
0.6167451,-0.2867035,0.04245656
0.7545639,-0.3541324,0.07445318
0.8991319,-0.4060326,0.1027867
1.024041,-0.3541502,0.1051439
1.028033,-0.2783808,0.2129832
1.106066,-0.3207363,0.2513027
1.1071,-0.4019471,0.1508
1.25978,-0.6491764,-0.07805851
1.532124,-0.9421311,-0.3417829
1.447328,-0.6839841,-0.2912578
1.041834,-0.3289176,-0.2059365
0.6335868,-0.4809621,-0.3916646
0.9342749,-0.5574448,-0.4488222
1.39753,-0.4870704,-0.3813416
1.078644,-0.5545238,-0.3229749
0.8717265,-0.4590068,-0.1627237
0.7788913,-0.2895476,-0.1599394
0.5021237,-0.1523637,-0.2388392
0.6004465,-0.04111285,-0.2100689
0.5610689,-0.1428702,-0.2718475
0.4774745,-0.1896542,-0.2660328
0.5955007,-0.1828832,-0.1935932
0.4769975,-0.2931324,-0.2144574
0.5146848,-0.2638848,-0.1959845
0.6148984,-0.2121558,-0.2168609
0.6455114,-0.2078706,-0.2495823
0.864245,-0.1497222,-0.2262642
0.9457488,-0.1603877,-0.2005928
1.021063,-0.1309852,-0.1069363
1.162741,-0.04330374,-0.06504555
1.236944,-0.0180329,-0.08410945
1.376806,0.01213913,-0.07893861
1.451301,-0.01021386,-0.1193807
1.520038,-0.1734173,-0.1716222
1.550538,-0.3114886,-0.2780002
1.479174,-0.28431,-0.3812916
0.4641862,-0.2162872,-0.1409005
0.5230209,-0.1758581,-0.1139832
0.5983759,-0.1636988,-0.07287192
0.577165,-0.1985782,0.01193108
0.6923406,-0.2604469,0.1010319
0.8355749,-0.2533299,0.1542957
0.9094757,-0.253904,0.1399378
0.9975943,-0.3172276,0.1488472
1.062757,-0.3555564,0.1552996
1.148229,-0.4616279,0.01214881
1.297271,-0.6955979,-0.2440253
1.526626,-0.8684826,-0.4111807
1.59394,-0.7580538,-0.3282246
1.148457,-0.5692918,-0.253867
0.7463108,-0.600392,-0.3458791
0.9845193,-0.6123815,-0.3657867
1.235038,-0.5498104,-0.3842121
1.089537,-0.5137989,-0.3740379
0.9498,-0.3964318,-0.2508737
0.7958854,-0.3412865,-0.2615481
0.6172805,-0.2603191,-0.2687382
0.552958,-0.0790471,-0.2008885
0.4725855,-0.096712,-0.2401148
0.5405427,-0.1928449,-0.2453202
0.6075827,-0.2132144,-0.2335892
0.5413537,-0.2508637,-0.2499496
0.6404008,-0.231483,-0.2041742
0.6831926,-0.1618241,-0.163477
0.7253452,-0.122066,-0.1417836
0.8865821,-0.09645944,-0.1751624
1.026382,-0.07586377,-0.2320741
1.230445,-0.05877869,-0.2180937
1.247397,-0.02931692,-0.2027631
1.287321,0.006073604,-0.1866859
1.425999,-0.03996673,-0.183658
1.344165,-0.2313292,-0.2695718
1.45211,-0.4323954,-0.4099917
1.577543,-0.5017271,-0.5272785
1.482591,-0.5570802,-0.5332474
1.322551,-0.6746607,-0.4352024
0.9962268,-0.660823,-0.3580328
0.9711339,-0.5628461,-0.3789813
1.14365,-0.5450958,-0.3832178
1.079486,-0.4057164,-0.2457174
1.074051,-0.2690219,-0.1259502
0.9753026,-0.3410385,-0.1392877
0.6813045,-0.3376089,-0.1518206
0.4356396,-0.3188512,-0.1082741
0.3376563,-0.3563702,-0.08985545
0.4414512,-0.3172111,-0.1086077
0.4717169,-0.3249052,-0.08924492
0.4286482,-0.2757862,-0.04641678
0.4988985,-0.1732217,-0.007630434
0.5334287,-0.1854562,0.03059391
0.592863,-0.2356231,0.04967753
0.7323031,-0.3111222,0.106614
0.8892601,-0.3609497,0.157139
1.031442,-0.3757645,0.1496557
1.102399,-0.4315273,0.1222179
1.245916,-0.56432,-0.02487075
1.457317,-0.8225747,-0.233482
1.561931,-0.9384977,-0.2970585
1.439111,-0.7132455,-0.3024407
1.13447,-0.5378655,-0.4143314
1.040154,-0.6467347,-0.5251286
1.150122,-0.7278064,-0.5623383
1.190719,-0.6953677,-0.5938183
1.186406,-0.6640786,-0.5026792
1.012673,-0.4836316,-0.3205169
0.7777156,-0.2827991,-0.2486747
0.7432648,-0.2380593,-0.2506743
0.6989205,-0.1572126,-0.2545512
0.5609881,-0.1041108,-0.2329938
0.5188063,-0.1702727,-0.2274842
0.5319817,-0.2176162,-0.240261
0.5319576,-0.2458639,-0.1965197
0.5806537,-0.245302,-0.1786531
0.5982262,-0.1996091,-0.1768673
0.617612,-0.1671257,-0.1517708
0.7659412,-0.1324171,-0.1636412
0.9307023,-0.09718539,-0.2078273
1.112469,-0.09079454,-0.2714711
1.308568,-0.0888404,-0.2632981
1.390029,-0.09111727,-0.1815002
1.383918,-0.1020504,-0.1593947
1.391334,-0.1381238,-0.2898881
1.49665,-0.2823905,-0.5534246
1.549355,-0.5189025,-0.6639209
1.375517,-0.7018843,-0.5080855
1.10525,-0.7562262,-0.34284
0.9808301,-0.7333294,-0.2958649
1.079787,-0.662295,-0.3084824
1.137072,-0.4991025,-0.2915348
1.073658,-0.3210054,-0.2120174
1.0119,-0.3002982,-0.1451939
0.7896943,-0.3800413,-0.1400873
0.4930828,-0.3703791,-0.1358037
0.4209318,-0.3074831,-0.1011504
0.4966979,-0.2645716,-0.092273
0.5166053,-0.2326166,-0.09800169
0.4889382,-0.2361067,-0.07975827
0.507195,-0.1960089,-0.03513078
0.5254178,-0.1438038,0.02307682
0.5408065,-0.1889107,0.02908086
0.6758193,-0.2687325,0.02395258
0.8912749,-0.343634,0.07678072
0.9953467,-0.3421516,0.1028877
0.9609784,-0.2939168,0.1430393
1.045343,-0.2928227,0.2540643
1.209088,-0.2712454,0.2362628
1.242869,-0.4180112,-0.0275863
1.55263,-0.8528736,-0.3964022
1.946281,-1.090336,-0.5521216
1.505926,-0.7851261,-0.3940732
0.8105829,-0.4728581,-0.3313098
0.8353722,-0.6167581,-0.4527102
1.143906,-0.6734052,-0.4529841
1.28019,-0.5369739,-0.3907035
1.123539,-0.6044213,-0.3110657
0.766992,-0.4940465,-0.2214884
0.6654365,-0.2409049,-0.2718286
0.642942,-0.180865,-0.3183558
0.5638483,-0.1508142,-0.2871683
0.6190733,-0.2479501,-0.285118
0.5910617,-0.3409421,-0.2367531
0.5385321,-0.2869485,-0.1596134
0.5249492,-0.2433705,-0.1405731
0.5267716,-0.1316183,-0.1464437
0.6941671,-0.0513947,-0.1617896
0.8771931,-0.004277005,-0.1944399
1.0439,0.04300031,-0.2407233
1.177993,-0.01883667,-0.258733
1.230955,-0.02512791,-0.2022804
1.285046,-0.02371258,-0.1446036
1.277556,-0.1100979,-0.1702146
1.290511,-0.2202952,-0.2351878
1.320603,-0.3768185,-0.3398039
1.363515,-0.5419989,-0.479432
1.437885,-0.7356327,-0.4543745
1.274246,-0.8786838,-0.2235495
1.054396,-0.8671005,-0.07940235
1.107137,-0.7188448,-0.2273296
1.301053,-0.4132208,-0.4298088
1.400098,-0.1869334,-0.3668844
1.172287,-0.2551589,-0.2234896
0.7935989,-0.4205483,-0.1537579
0.6598975,-0.4963374,-0.09076038
0.6167102,-0.4630404,-0.139586
0.4844694,-0.3210305,-0.1508215
0.4517656,-0.1597487,-0.1009216
0.469734,-0.1090942,-0.1346904
0.4350573,-0.1400129,-0.06966639
0.4309671,-0.164794,-0.0006438814
0.4308945,-0.1775754,0.02224535
0.4604915,-0.1798998,0.1144152
0.5709699,-0.1667718,0.1653597
0.7614284,-0.1607228,0.2010603
0.9768071,-0.1703279,0.1924642
1.102184,-0.171294,0.1943549
1.226619,-0.1794375,0.2584266
1.34089,-0.2354514,0.1867107
1.386184,-0.4484929,0.0001583019
1.534274,-0.8056382,-0.2105238
1.605362,-0.9071635,-0.2900592
1.303555,-0.6540573,-0.2625396
0.8657508,-0.5226771,-0.3181445
0.7204511,-0.6561697,-0.3051534
0.968831,-0.727662,-0.3620809
1.188506,-0.6557105,-0.5058945
1.081575,-0.6093396,-0.435149
0.9749524,-0.5519748,-0.3748733
0.9411972,-0.4576335,-0.3619617
0.8234994,-0.4141675,-0.3102037
0.80974,-0.3663923,-0.3408011
0.8283111,-0.3550035,-0.3228798
0.7647648,-0.3830801,-0.2979579
0.7159504,-0.3271287,-0.2910911
0.6405182,-0.2553694,-0.2351087
0.6215529,-0.1626447,-0.2350094
0.6451055,-0.0621146,-0.2253036
0.6378367,-0.03245572,-0.2142912
0.6714063,0.0111488,-0.2277344
0.7308764,0.005871187,-0.1784448
0.8679993,-0.02059012,-0.1261287
0.9901726,0.01388828,-0.08994508
1.074385,-0.02055604,-0.06569492
1.282771,-0.06629963,-0.04268514
1.379719,-0.1003553,-0.02705336
1.357244,-0.1987087,-0.07840424
1.523929,-0.3835041,-0.1575663
1.648438,-0.579283,-0.2596076
1.486722,-0.5155118,-0.3435884
1.166961,-0.402048,-0.4101175
0.8691825,-0.4692844,-0.486362
0.9152582,-0.4727093,-0.4525997
1.130052,-0.5231143,-0.4362955
1.100863,-0.5558838,-0.4205042
1.159084,-0.3629485,-0.2495021
1.220761,-0.243737,-0.1862474
1.011779,-0.2686864,-0.2058552
0.8010427,-0.3143507,-0.1642299
0.5072935,-0.3266108,-0.1250104
0.4257339,-0.3058077,-0.04353022
0.5911424,-0.3426381,-0.07688752
0.4912662,-0.3348467,-0.1428711
0.4907803,-0.2719068,-0.06402639
0.5370708,-0.2065061,-0.04925626
0.4465417,-0.1829147,-0.03331922
0.5584576,-0.27491,0.06986679
0.6834673,-0.3210816,0.1167527
0.8302264,-0.3136291,0.1081646
0.9625719,-0.3086118,0.103601
0.9958687,-0.2861006,0.1443029
1.121535,-0.3283385,0.1382109
1.155193,-0.4280494,-0.01537034
1.282311,-0.6505879,-0.2551657
1.551334,-0.8208935,-0.3849023
1.49843,-0.6794292,-0.3089632
1.146897,-0.55419,-0.3042012
0.8364137,-0.6196556,-0.4010676
0.9736568,-0.6351152,-0.3926127
1.215248,-0.6078105,-0.3846153
1.06394,-0.577863,-0.340723
0.9439499,-0.4498612,-0.2440108
0.8084471,-0.330596,-0.2560156
0.6275654,-0.2686425,-0.2819295
0.6740204,-0.2010525,-0.2811583
0.582333,-0.2047477,-0.2985138
0.508335,-0.2115306,-0.2926828
0.5752179,-0.2020281,-0.2822525
0.5213205,-0.255947,-0.2621022
0.5716443,-0.2841191,-0.2363331
0.5994746,-0.28549,-0.2201164
0.6023386,-0.2238743,-0.1915724
0.770085,-0.08939274,-0.17207
0.9079619,-0.0236742,-0.1931638
1.115801,-0.01747399,-0.2464386
1.302589,-0.02752542,-0.2797863
1.318445,-0.0447282,-0.2672389
1.39148,-0.09258827,-0.2490376
1.492597,-0.2055174,-0.2700717
1.498313,-0.3512057,-0.3494435
1.497525,-0.486807,-0.4748499
1.521849,-0.5046393,-0.534112
1.302497,-0.4908087,-0.4111955
0.9757126,-0.5671867,-0.2817068
0.9953919,-0.5705475,-0.317752
1.081161,-0.533621,-0.3466734
1.03071,-0.5004653,-0.2982175
1.052088,-0.3454631,-0.2360298
1.042255,-0.2612362,-0.1528393
0.9151391,-0.3639348,-0.1619455
0.7095688,-0.4237996,-0.2105134
0.5160318,-0.3535454,-0.1554406
0.4762003,-0.2835777,-0.1439954
0.5158303,-0.2751314,-0.1650082
0.5127481,-0.2707753,-0.1331337
0.5219227,-0.2602475,-0.140703
0.5503551,-0.2454773,-0.1140365
0.5310192,-0.2454566,-0.03408439
0.5275831,-0.2772266,0.04947275
0.6206759,-0.2849976,0.1221211
0.8177932,-0.2984846,0.09890394
1.028049,-0.2887111,0.08814815
1.091095,-0.230974,0.1155855
1.066564,-0.2412436,0.09330188
1.089871,-0.3244037,0.0541723
1.102059,-0.5099024,-0.1332047
1.180246,-0.6994733,-0.3546399
1.551652,-0.7185502,-0.3135713
1.825363,-0.7363822,-0.2521357
1.282037,-0.7133798,-0.3222419
0.6422313,-0.5786428,-0.2935878
0.9669898,-0.6344492,-0.3062445
1.290459,-0.7053752,-0.4338571
1.075808,-0.5785686,-0.4156859
1.023611,-0.5260294,-0.3245862
0.8175177,-0.4611372,-0.2762815
0.6788139,-0.3197311,-0.3133296
0.8409177,-0.2900883,-0.4065474
0.6607193,-0.2950601,-0.347454
0.6133518,-0.2981534,-0.309354
0.6921192,-0.2705922,-0.3270006
0.5749918,-0.2224556,-0.23771
0.6321339,-0.2214793,-0.2361023
0.5755547,-0.1519895,-0.2589106
0.5597206,-0.05664802,-0.2366427
0.6592582,-0.01996633,-0.2606272
0.6304459,-0.0226667,-0.2639044
0.7770883,-0.08036462,-0.2720444
0.8765094,-0.155192,-0.2020001
0.9491241,-0.1819772,-0.04880728
1.115556,-0.08426496,0.003938662
1.154187,0.04023281,-0.02604663
1.261989,0.04957964,-0.04152882
1.379059,-0.06937429,-0.04415058
1.467662,-0.3073417,-0.1581345
1.581845,-0.5067178,-0.3515277
1.578057,-0.6090123,-0.423738
1.440288,-0.6664523,-0.3997436
1.196065,-0.62143,-0.4439678
1.147681,-0.5641527,-0.5359791
1.221628,-0.5803359,-0.4680138
1.090741,-0.5169403,-0.287639
0.999588,-0.3423499,-0.1926964
1.003946,-0.2792853,-0.1896114
0.9550228,-0.3681684,-0.2682121
0.8121079,-0.445522,-0.2906274
0.5935871,-0.4552597,-0.2249619
0.5252985,-0.3984155,-0.2022375
0.5757529,-0.3280827,-0.1743788
0.5651965,-0.2915492,-0.166234
0.5725799,-0.2508984,-0.1592018
0.6344939,-0.2093139,-0.1241913
0.6596154,-0.2066219,-0.1132922
0.6492284,-0.2298688,-0.05922973
0.6834539,-0.2520268,-0.01174747
0.8116611,-0.2980388,0.04579667
0.9659297,-0.3247308,0.1294075
0.9826061,-0.2896676,0.158337
0.9701054,-0.2607136,0.2513383
1.056833,-0.2618296,0.3112263
1.108919,-0.4217825,0.09272557
1.326728,-0.9066717,-0.3174908
1.669165,-1.262516,-0.5502811
1.543641,-0.8557806,-0.4471657
1.047886,-0.3469126,-0.3741449
0.7719289,-0.5307742,-0.4342026
0.9464383,-0.6544632,-0.4198206
1.208184,-0.5155619,-0.4225981
1.060257,-0.6118294,-0.378407
0.8782523,-0.5318059,-0.2344006
0.8547752,-0.3844372,-0.2243379
0.6638299,-0.3288818,-0.2653673
0.5739775,-0.09391211,-0.2483752
0.5657031,-0.1275719,-0.2704889
0.5491421,-0.316445,-0.26244
0.6195701,-0.3357072,-0.2305124
0.5705297,-0.3864574,-0.2263197
0.6282383,-0.3155703,-0.1980015
0.7410142,-0.2193492,-0.1539638
0.7550439,-0.2063875,-0.1130822
0.8737703,-0.1258805,-0.1387576
1.01659,-0.02991322,-0.2202587
1.210684,0.06740768,-0.2608231
1.240106,0.02453611,-0.2488357
1.213689,-0.09954383,-0.2062013
1.366291,-0.1817846,-0.2187618
1.297807,-0.4004721,-0.3110525
1.329008,-0.6095072,-0.4364469
1.454036,-0.685726,-0.5055533
1.274098,-0.6956395,-0.3902444
1.171576,-0.6713715,-0.2586432
1.087705,-0.7067993,-0.2594462
0.9985064,-0.6728767,-0.298087
1.061533,-0.5530806,-0.32675
1.087533,-0.4105066,-0.2412215
1.116274,-0.286994,-0.1121848
1.060898,-0.369031,-0.09933654
0.8234452,-0.4517201,-0.08578689
0.5749896,-0.4347032,-0.04326062
0.5285115,-0.4050893,-0.05184351
0.610036,-0.2816339,-0.08272774
0.5590985,-0.2784915,-0.1030326
0.5750319,-0.2691554,-0.09845146
0.6384329,-0.1045243,-0.06009773
0.5607721,-0.1182645,-0.02505047
0.5571918,-0.2056289,-0.001748108
0.575062,-0.2561175,0.06611681
0.6444347,-0.3239075,0.09584952
0.8359385,-0.3073408,0.09136686
0.9278182,-0.2918371,0.1579043
1.009347,-0.2771635,0.1582698
1.133156,-0.2816655,0.1271972
1.188538,-0.3856923,0.1114454
1.238359,-0.5663995,-0.07283606
1.414076,-0.8076559,-0.2610585
1.630666,-0.8442587,-0.2445198
1.476979,-0.6886578,-0.1678941
1.05138,-0.6648395,-0.175454
0.8735297,-0.6849412,-0.2394677
1.017584,-0.6714541,-0.3676009
1.235506,-0.6365446,-0.511166
1.200222,-0.5215907,-0.4348447
0.9833631,-0.37496,-0.291726
0.8369946,-0.2304666,-0.2958629
0.7271035,-0.1976894,-0.2700306
0.7121603,-0.2006309,-0.2432458
0.6930162,-0.1223398,-0.2367396
0.6300727,-0.1661879,-0.2149016
0.6357033,-0.2549041,-0.2373082
0.6255912,-0.2976056,-0.200234
0.7097,-0.4032803,-0.1594588
0.8200043,-0.4131807,-0.1613324
0.8838466,-0.357373,-0.1967343
0.9877345,-0.3020843,-0.3189201
0.9863603,-0.12187,-0.3320786
1.036468,0.03501056,-0.248444
1.134945,0.09045251,-0.2297845
1.090087,0.08391097,-0.2463167
1.092979,-0.1271049,-0.3212386
1.17628,-0.5303041,-0.4071282
1.21917,-0.7748338,-0.4071367
1.157494,-0.6683011,-0.1966918
1.113599,-0.5743761,0.02939497
1.251669,-0.5909356,-0.1587927
1.346517,-0.4050694,-0.3396261
1.206156,-0.2087472,-0.1351984
1.040749,-0.2141269,-0.05748526
1.01086,-0.3456623,-0.1504052
0.8968784,-0.5298514,-0.1317594
0.655262,-0.5181997,-0.1244241
0.5105657,-0.3693037,-0.1002253
0.464909,-0.2950764,-0.03762254
0.4769312,-0.2011693,-0.07302999
0.4684064,-0.1026112,-0.1037932
0.4175778,-0.07987646,-0.06334695
0.4019087,-0.1395409,-0.01950535
0.3440267,-0.1794433,0.03189208
0.3657224,-0.1736384,0.04727046
0.5913924,-0.2761977,0.0667989
0.8856935,-0.3988435,0.1621808
1.09558,-0.4297036,0.1818281
1.154522,-0.3527012,0.1039182
1.332538,-0.2437259,0.04002716
1.521842,-0.2731225,-0.04749371
1.427646,-0.3589792,-0.132962
1.524442,-0.4912448,-0.206528
1.759741,-0.5950125,-0.2343502
1.646462,-0.5190847,-0.1532891
1.253925,-0.5016719,-0.1337482
0.8109128,-0.5792748,-0.1784968
0.8847592,-0.6063392,-0.2698929
1.231663,-0.598664,-0.4479047
1.149713,-0.502364,-0.4366575
1.017816,-0.3613227,-0.3338227
0.8350834,-0.2942513,-0.3251889
0.6673094,-0.2995201,-0.2251376
0.7915178,-0.285627,-0.1534348
0.7013262,-0.2118558,-0.15006
0.6279234,-0.1166187,-0.1190764
0.6729341,-0.0335243,-0.1755685
0.5538304,-0.04036083,-0.2437337
0.6101867,-0.1266651,-0.251232
0.665701,-0.2142223,-0.2381291
0.7038913,-0.2591415,-0.2195491
0.7964347,-0.2014687,-0.2372224
0.7437952,-0.1253293,-0.2557923
0.4145061,-0.2994215,-0.09974744
0.3954939,-0.2260077,-0.05280842
0.4327823,-0.1181276,-0.063559
0.4645348,-0.07724617,-0.01811262
0.4842203,-0.2028718,0.04222542
0.5554576,-0.3032513,0.1167296
0.7590989,-0.3308949,0.184872
1.013105,-0.3008651,0.1667778
1.152592,-0.2630113,0.1796025
1.192984,-0.2854887,0.1994947
1.2664,-0.3041874,0.1864213
1.393084,-0.3857074,0.09166807
1.507715,-0.5254809,-0.1055866
1.641395,-0.6442148,-0.1885699
1.742049,-0.7016919,-0.1727187
1.540167,-0.5807885,-0.1582536
1.065061,-0.4214996,-0.1342042
0.8077124,-0.4112674,-0.2062546
0.954646,-0.4752994,-0.3525642
1.180871,-0.5166433,-0.4216619
1.24424,-0.4812886,-0.3635006
1.040989,-0.4019282,-0.2857239
0.7078224,-0.3274814,-0.2726005
0.6152909,-0.2644426,-0.2553508
0.6156033,-0.2290249,-0.2546565
0.5353292,-0.2144213,-0.2808054
0.5965165,-0.2301089,-0.2624812
0.6028484,-0.236659,-0.2562359
0.5231395,-0.2251166,-0.2445301
0.5628612,-0.2284469,-0.1865301
0.5629966,-0.1495115,-0.1650749
0.6313762,-0.02439267,-0.1759518
0.7949256,-0.002959761,-0.1952818
0.9710824,-0.06790115,-0.2054614
1.218373,-0.1383457,-0.1757193
1.298152,-0.1454075,-0.139527
1.3054,-0.1000264,-0.124687
1.385551,-0.07125143,-0.1588689
1.422952,-0.1218903,-0.2444925
1.537895,-0.2942444,-0.4015129
1.609979,-0.5071139,-0.5439955
1.419397,-0.6137687,-0.4623322
1.068363,-0.5814305,-0.3434286
0.9293266,-0.5615801,-0.3931003
1.135888,-0.5648431,-0.391732
1.2349,-0.4604743,-0.3374772
1.090079,-0.3298058,-0.299409
0.9851471,-0.2350149,-0.1954786
0.9744187,-0.2389221,-0.1697772
0.8758466,-0.3555895,-0.1913987
0.609644,-0.3991884,-0.1320715
0.4309375,-0.373184,-0.1152179
0.4504308,-0.2905741,-0.1157863
0.4754933,-0.1773003,-0.1066909
0.4741146,-0.179669,-0.1318696
0.5684728,-0.2115968,-0.1199438
0.6463505,-0.2263705,-0.08505661
0.5641116,-0.2531275,-0.02443045
0.5586464,-0.252215,0.0296875
0.7653591,-0.2652906,-0.007673241
0.9639768,-0.2866534,-0.01965196
0.9602001,-0.2787926,0.06067998
0.9023596,-0.2579954,0.1376903
1.030528,-0.2706263,0.1345678
1.19029,-0.3672969,-0.02451977
1.386305,-0.5934214,-0.3034899
1.676979,-0.7877822,-0.4523765
1.637558,-0.6850497,-0.3438618
1.177829,-0.5273826,-0.2246855
0.789306,-0.5408748,-0.2464799
0.877783,-0.5337496,-0.3015789
1.127362,-0.5371228,-0.3685315
1.103998,-0.5381669,-0.3581812
1.070967,-0.4507885,-0.2773197
0.9621786,-0.3729389,-0.2757583
0.6855791,-0.2715442,-0.2343912
0.6188254,-0.2120991,-0.19162
0.5923104,-0.2307043,-0.2481445
0.5464043,-0.2262118,-0.2590916
0.6090505,-0.2647422,-0.2624599
0.597589,-0.2959734,-0.264095
0.572397,-0.2868499,-0.2306687
0.5580385,-0.2841543,-0.2146836
0.5803731,-0.200261,-0.1950633
0.6699066,-0.0519344,-0.2031586
0.76187,0.06627937,-0.1822801
0.9996613,0.06871375,-0.1397284
1.250751,0.01445028,-0.14833
1.328139,0.003203661,-0.1359704
1.363656,-0.04531045,-0.1362954
1.443426,-0.1148231,-0.1613071
1.548478,-0.2379171,-0.2377281
1.583898,-0.4651341,-0.4413045
1.597426,-0.6038622,-0.5748419
1.546974,-0.5938755,-0.4746736
1.224971,-0.5687264,-0.3100679
0.9569752,-0.5783287,-0.2701839
1.111521,-0.5430303,-0.3379245
1.272063,-0.4515952,-0.3984927
1.098268,-0.3790966,-0.3023071
0.9469945,-0.3383556,-0.09491305
0.8751046,-0.3674747,-0.01902137
0.6774008,-0.4047151,-0.06303898
0.5181932,-0.3853906,-0.09373627
0.4211235,-0.3575705,-0.07555949
0.443804,-0.2867722,-0.06705704
0.531761,-0.2548451,-0.1007843
0.4710709,-0.2711682,-0.0725436
0.5148578,-0.2011236,-0.06048161
0.5611711,-0.1573744,-0.06855953
0.5027053,-0.2027928,0.004545175
0.5888842,-0.2490986,0.06582877
0.6534359,-0.2779296,0.1283921
0.8013898,-0.2849912,0.1692806
1.032787,-0.2773252,0.1763167
1.101041,-0.2694467,0.1995626
1.188415,-0.2877234,0.1841201
1.277445,-0.3127383,0.1651514
1.345833,-0.3746108,0.05148958
1.400873,-0.5942606,-0.163468
1.423796,-0.7931043,-0.2386618
1.485944,-0.6942919,-0.1975811
1.257039,-0.5748276,-0.2113208
0.9337562,-0.704514,-0.292474
1.020563,-0.7466889,-0.3619737
1.133922,-0.6535773,-0.3946198
1.077689,-0.6174199,-0.3800008
1.044019,-0.489312,-0.3317019
0.9050392,-0.3734045,-0.297575
0.7663717,-0.2899009,-0.2577521
0.7760873,-0.1547006,-0.2728692
0.7482657,-0.1922469,-0.3237371
0.6928376,-0.2514438,-0.3214316
0.6795062,-0.2499339,-0.309883
0.6634166,-0.3177369,-0.2759863
0.6934562,-0.2947951,-0.2774698
0.7381831,-0.2323078,-0.3089778
0.7530148,-0.1792188,-0.2796961
0.7154995,-0.0797939,-0.2658286
0.6450531,-0.01984482,-0.2229327
0.6615593,-0.01824026,-0.149353
0.7110163,-0.06010355,-0.1195509
0.7582967,-0.05347955,-0.08129626
0.8308173,-0.04196606,-0.06926201
0.8675991,-0.06856041,-0.04619793
0.9599039,-0.02654379,0.01049612
1.126132,-0.04996085,0.008422358
1.294558,-0.1451626,-0.03588997
1.505193,-0.2709138,-0.118183
1.677895,-0.422631,-0.1965557
1.74908,-0.4055702,-0.24179
1.738809,-0.4165083,-0.3339509
1.623515,-0.5368502,-0.4436351
1.421914,-0.5391064,-0.4973201
1.171541,-0.5682568,-0.4577454
1.027653,-0.6042827,-0.3614225
1.009735,-0.5358212,-0.3175943
0.941471,-0.5058821,-0.2961538
0.9259956,-0.4910163,-0.2602019
0.9338161,-0.4347666,-0.2591727
0.8186434,-0.3791083,-0.2449332
0.6949524,-0.3479479,-0.1844732
0.5656229,-0.334043,-0.1225772
0.52127,-0.3005831,-0.09974946
0.5635744,-0.2629145,-0.1239431
0.5389622,-0.2175565,-0.1298239
0.5745702,-0.1440507,-0.1038333
0.5948337,-0.1025846,-0.06846324
0.5383337,-0.1410131,-0.01093142
0.5581874,-0.2307073,0.03450694
0.6576407,-0.3078645,0.07718505
0.8772626,-0.337368,0.1100995
1.056954,-0.3201932,0.1013918
1.080287,-0.2976938,0.1142938
1.121367,-0.3278797,0.107177
1.187379,-0.4604524,-0.01394567
1.266298,-0.7963051,-0.2583114
1.304262,-1.05339,-0.4592383
1.196555,-0.7492494,-0.3543501
0.9428333,-0.3677566,-0.2062843
0.7098706,-0.4660135,-0.2843324
0.9366889,-0.5645841,-0.3470252
1.380787,-0.5312954,-0.4072031
1.364422,-0.5958181,-0.4190942
1.122658,-0.5474586,-0.2881682
0.8921352,-0.4523047,-0.2569186
0.6650155,-0.3810728,-0.2445459
0.6316413,-0.2292651,-0.2276967
0.5243185,-0.1452308,-0.2664316
0.446441,-0.1546429,-0.2289582
0.5838891,-0.2052986,-0.2460206
0.5527716,-0.2174961,-0.2546142
0.5772164,-0.2034015,-0.2120996
0.666687,-0.2185299,-0.2338642
0.6222309,-0.1332258,-0.1883371
0.8195054,-0.1002595,-0.1697998
1.065934,-0.09378872,-0.2227094
1.178622,-0.01451555,-0.2362072
1.309559,-0.08169822,-0.2122585
1.394588,-0.1211213,-0.1463866
1.476985,-0.1455843,-0.1592862
1.488214,-0.3112862,-0.247932
1.526999,-0.427406,-0.3923384
1.57703,-0.4875707,-0.5242788
1.327609,-0.5120059,-0.4310896
1.043174,-0.5549733,-0.3384127
1.022269,-0.5899192,-0.3812813
1.12312,-0.5441721,-0.3566362
1.137277,-0.4903561,-0.3006183
1.092434,-0.3478258,-0.2261871
1.058385,-0.2939479,-0.1550409
0.8571188,-0.4021217,-0.1753967
0.600792,-0.4036023,-0.1657195
0.4849877,-0.3664386,-0.1029332
0.4851572,-0.3463398,-0.08824253
0.525073,-0.3248616,-0.1052317
0.5010195,-0.2894366,-0.1281895
0.5330674,-0.2052321,-0.1174982
0.5668742,-0.2188362,-0.07484885
0.5271374,-0.2511723,-0.03857994
0.5614614,-0.2349983,0.05576187
0.5899066,-0.2767981,0.1560617
0.6562393,-0.2725976,0.1350091
0.8365836,-0.2323633,0.09282495
1.013254,-0.2279761,0.1252014
1.078505,-0.2327156,0.1386946
1.050609,-0.349509,0.07414734
1.17709,-0.6378449,-0.1507963
1.5112,-0.8679002,-0.4401304
1.742485,-0.7453513,-0.3945283
1.320436,-0.5083636,-0.2434026
0.6280931,-0.4986026,-0.3381593
0.8113247,-0.5471442,-0.3408727
1.314015,-0.6023756,-0.3543914
1.395385,-0.6398631,-0.4464314
1.277098,-0.5596409,-0.3087182
0.8416194,-0.4937143,-0.2416487
0.6732079,-0.3723792,-0.2927911
0.7839696,-0.2540134,-0.2667847
0.6120119,-0.2397272,-0.2753985
0.6262161,-0.1954363,-0.2604012
0.6287124,-0.2397346,-0.2380294
0.5260629,-0.284751,-0.2192823
0.559268,-0.2542449,-0.194154
0.4792984,-0.2688982,-0.2122617
0.5303805,-0.1878041,-0.2144476
0.6255677,-0.09120165,-0.2407905
0.6932542,-0.03493797,-0.2332478
0.8259132,0.01815517,-0.1783521
0.848815,-0.02885299,-0.1656664
1.073576,-0.07739485,-0.1463104
1.309962,-0.129924,-0.1439356
1.33086,-0.1691028,-0.1145237
1.430869,-0.1632504,-0.09387363
1.476076,-0.2717861,-0.2165456
1.506568,-0.4427541,-0.3456903
1.594866,-0.5615498,-0.3549485
1.518629,-0.5811671,-0.3276316
1.252267,-0.542552,-0.3926306
1.01951,-0.5596294,-0.4778915
1.068018,-0.5437174,-0.4552278
1.126643,-0.4384917,-0.3524587
0.9842479,-0.3193541,-0.1823115
0.9764806,-0.2865686,-0.1085288
1.031205,-0.3850233,-0.2119132
0.9363294,-0.4757901,-0.2559852
0.8384724,-0.5324917,-0.2000788
0.6669591,-0.560579,-0.1607579
0.5167178,-0.4458444,-0.1522071
0.5694715,-0.3117311,-0.1774545
0.5654001,-0.2992821,-0.2054145
0.541591,-0.299737,-0.1756314
0.6321259,-0.2477541,-0.1316853
0.662505,-0.2027543,-0.1371229
0.6341375,-0.1979684,-0.1175753
0.5942415,-0.231115,-0.04887797
0.6034023,-0.2731635,0.03074932
0.7361426,-0.2564163,0.09719207
0.9204798,-0.2217638,0.09411129
1.026018,-0.22315,0.09284246
1.020706,-0.2153553,0.1337764
1.068835,-0.2358561,0.1317532
1.142946,-0.3501919,0.04910161
1.193357,-0.6217772,-0.1430478
1.475638,-0.8492806,-0.3087742
1.696725,-0.6793152,-0.2833755
1.212898,-0.4988801,-0.2307916
0.6827242,-0.6423974,-0.2904033
1.055181,-0.6502169,-0.3580658
1.406278,-0.5241352,-0.3955966
1.140163,-0.5058337,-0.3792464
1.052938,-0.4374543,-0.3055185
0.9478503,-0.3837098,-0.3085365
0.7708911,-0.3417683,-0.3202193
0.8305881,-0.2808431,-0.2624809
0.6564712,-0.3218958,-0.2542436
0.5611913,-0.299751,-0.2547896
0.6227902,-0.2462179,-0.2512117
0.4973086,-0.2587971,-0.261935
0.5601544,-0.2164008,-0.2523129
0.605134,-0.2034024,-0.2751167
0.5977611,-0.187584,-0.2768858
0.7155869,-0.103614,-0.2575324
0.7004269,-0.05551821,-0.2292927
0.8312511,-0.04289117,-0.1316843
1.066542,-0.04025813,-0.07674682
1.169699,-0.02987583,-0.09903637
1.323802,-0.06403355,-0.1080157
1.424063,-0.1299061,-0.08572347
1.424569,-0.165461,-0.1043658
1.475982,-0.2894843,-0.2357379
1.587958,-0.4647555,-0.4078905
1.5523,-0.5749064,-0.4757157
1.28863,-0.6641054,-0.4015296
1.080431,-0.6693593,-0.3749281
1.069982,-0.5885711,-0.4240896
1.106439,-0.5531055,-0.3796578
1.051745,-0.4288518,-0.2865996
1.036527,-0.2267124,-0.181094
1.012158,-0.2595902,-0.1547671
0.8219832,-0.3742408,-0.2179409
0.6991838,-0.3700817,-0.17343
0.5823551,-0.3335865,-0.1234012
0.424951,-0.2390147,-0.1080561
0.4667228,-0.2247132,-0.08425914
0.5509437,-0.2686534,-0.1205595
0.5597585,-0.231393,-0.09289081
0.5649897,-0.247635,-0.06958928
0.5559935,-0.2652209,-0.07952945
0.5248178,-0.2734171,0.02304059
0.5377194,-0.311516,0.09301796
0.6855993,-0.2834567,0.08816977
0.9342885,-0.2678235,0.09559485
1.109209,-0.2729379,0.1104401
1.06784,-0.2855048,0.1365764
1.095879,-0.3492815,0.1381944
1.274632,-0.4645669,0.02774677
1.33567,-0.7184028,-0.2340339
1.497854,-0.8925556,-0.3763265
1.547371,-0.7016612,-0.2812816
1.089517,-0.4812908,-0.2573312
0.7562202,-0.5141256,-0.3388561
0.9809876,-0.5687998,-0.4126732
1.297575,-0.587152,-0.4769977
1.282456,-0.6102416,-0.4118015
1.021479,-0.5150669,-0.2661393
0.7176566,-0.3853086,-0.2426378
0.569863,-0.2979939,-0.2666999
0.593147,-0.2034219,-0.2353071
0.507276,-0.1503202,-0.228888
0.4976192,-0.180928,-0.2342437
0.5786773,-0.2443987,-0.240397
0.498215,-0.2237784,-0.250795
0.553652,-0.1885988,-0.2348985
0.6409412,-0.1986253,-0.2340496
0.671135,-0.1526221,-0.2155018
0.7829825,-0.1246672,-0.200125
0.8209597,-0.1069312,-0.2329764
1.021571,-0.09037307,-0.2443878
1.287111,-0.119141,-0.2337397
1.383241,-0.08486936,-0.2018777
1.476429,-0.08547129,-0.1570118
1.483015,-0.1807902,-0.1755074
1.518487,-0.3250487,-0.3254235
1.590249,-0.5022886,-0.5115067
1.49506,-0.5767609,-0.5069988
1.281331,-0.6169521,-0.4170718
1.041636,-0.6408221,-0.4311895
1.044996,-0.5957569,-0.4320805
1.174029,-0.5896151,-0.3990189
1.117593,-0.4990636,-0.3487708
1.055,-0.3347739,-0.2287081
0.9682024,-0.3064871,-0.1501475
0.7876827,-0.3792419,-0.1482904
0.5919539,-0.4324953,-0.1406626
0.3644205,-0.3681076,-0.1115427
0.3203564,-0.2714445,-0.0893224
0.4050771,-0.2570634,-0.1174353
0.3905653,-0.2615075,-0.1437712
0.455814,-0.269615,-0.1318389
0.5418088,-0.2443607,-0.1226177
0.5261456,-0.2114928,-0.08566978
0.5455865,-0.2427424,0.001064508
0.6388658,-0.2830649,0.08968822
0.8829513,-0.3251477,0.09199387
1.09763,-0.3225402,0.07079264
1.042791,-0.2884962,0.1362674
0.9957531,-0.315599,0.1372314
1.069774,-0.4009889,0.001487376
1.149859,-0.6611921,-0.2365107
1.468059,-0.9007933,-0.44662
1.753083,-0.7033351,-0.3611094
1.267761,-0.4033068,-0.2624691
0.7411802,-0.413694,-0.3742606
1.152987,-0.5251346,-0.3947134
1.441193,-0.5944277,-0.405325
1.095098,-0.5761222,-0.3776352
1.019768,-0.4755342,-0.2293031
0.8913199,-0.3699248,-0.2624529
0.4984947,-0.1754717,-0.2667942
0.5207887,-0.125652,-0.1764554
0.6162754,-0.2501258,-0.2499815
0.507948,-0.2120072,-0.2586305
0.5389614,-0.2423979,-0.2342881
0.5777422,-0.2938247,-0.2696771
0.5916234,-0.1888954,-0.2268774
0.6741867,-0.2014392,-0.2262928
0.665963,-0.1644905,-0.2325534
0.6670307,-0.07632673,-0.198766
0.8083094,-0.1034474,-0.1903777
0.9730076,-0.09892373,-0.1708129
1.172041,-0.1132675,-0.1793041
1.321381,-0.09449018,-0.1681087
1.313591,-0.06470378,-0.1259126
1.379411,-0.1403794,-0.1409193
1.518512,-0.2408149,-0.2667492
1.598148,-0.3754286,-0.4822473
1.650664,-0.5156337,-0.5528784
1.498049,-0.6518755,-0.4969582
1.193048,-0.6627171,-0.4782127
1.070107,-0.5575734,-0.4176151
1.118949,-0.5878216,-0.3851362
1.12245,-0.4916422,-0.3290506
1.038499,-0.2888019,-0.1630609
0.9663705,-0.3214943,-0.1231034
0.8063724,-0.3488515,-0.1370688
0.5079253,-0.3420213,-0.08328634
0.3526067,-0.3848721,-0.09613045
0.4072044,-0.3474965,-0.09699218
0.4571754,-0.3284412,-0.1013103
0.4517418,-0.336562,-0.1527077
0.5142725,-0.3076967,-0.1092769
0.6102238,-0.2544664,-0.06645669
0.6202128,-0.2296744,-0.08262918
0.6248459,-0.29851,-0.05649781
0.6555903,-0.3655914,-0.01986891
0.7078271,-0.378338,0.009378226
0.8246978,-0.3727069,0.02655303
0.9970939,-0.3764702,0.03653322
1.143056,-0.3867978,0.0469991
1.129402,-0.3872393,0.003258599
1.153049,-0.448355,-0.1021104
1.268922,-0.5556473,-0.2216827
1.327949,-0.7110829,-0.2437765
1.475216,-0.8456972,-0.2193162
1.374497,-0.6525692,-0.2625453
0.8780245,-0.4019632,-0.2452387
0.6334036,-0.5754905,-0.2506299
