accx,accy,accz
0.8744809,-0.1441271,-0.03315073
0.8341617,-0.1221275,-0.02033084
0.7841033,-0.1105906,-0.01118687
0.7381454,-0.09271946,-0.01077487
0.6812021,-0.1111788,0.01278708
0.6916022,-0.1463458,0.03956142
0.6799793,-0.1466944,0.04311843
0.6500115,-0.1208395,0.04714979
0.7141495,-0.1086941,0.059774
0.7568977,-0.09231059,0.06772617
0.839548,-0.08434079,0.09024689
0.9535898,-0.09499412,0.1079642
0.9905397,-0.1122978,0.1117599
1.015295,-0.1620455,0.1281791
0.9903901,-0.1969839,0.1495148
0.9628809,-0.1899519,0.1727486
0.9425217,-0.169849,0.1818942
0.8849114,-0.1392792,0.1781309
0.8890428,-0.1336384,0.2017185
0.9250851,-0.1473622,0.2378592
0.9767825,-0.1612413,0.2425027
1.060228,-0.220827,0.1730451
1.246163,-0.3497651,0.05167836
1.596313,-0.4939908,-0.003573076
1.717536,-0.5390583,0.02666384
1.401588,-0.461842,0.08540103
1.113701,-0.3744968,0.1670749
1.122787,-0.3366434,0.1880114
1.169951,-0.3274712,0.06435599
1.101809,-0.349805,-0.08584141
1.028402,-0.3731632,-0.1221761
0.9726658,-0.3463215,-0.08930282
0.9301769,-0.2926329,-0.07943873
0.9169821,-0.2236002,-0.07764341
0.8837073,-0.1673531,-0.06358754
0.8536136,-0.1723468,-0.06782433
0.8205833,-0.1893994,-0.06780206
0.7567041,-0.2032598,-0.05605373
0.7190743,-0.2202533,-0.0573164
0.6893013,-0.2063442,-0.04199163
0.6731769,-0.1906126,-0.02229657
0.691573,-0.1757299,-0.01072113
0.6918677,-0.1524209,0.002739632
0.7342149,-0.1291496,-0.01386646
0.8573896,-0.06914717,-0.04537097
0.9888087,-0.009997236,-0.0796962
1.066707,-0.001339242,-0.09037829
1.064431,-0.005385124,-0.04473857
1.061209,-0.005588273,-0.0101776
1.08797,-0.0009789772,0.01863467
1.087585,0.01986725,0.07104691
1.077363,0.05877593,0.07632569
1.059984,0.09566391,0.04543406
1.052698,0.08703413,0.03402833
1.111651,0.03204204,0.01598407
1.217682,-0.04826749,-0.03345014
1.333537,-0.109198,-0.1004717
1.436015,-0.1150626,-0.1447678
1.505422,-0.1804485,-0.124059
1.538169,-0.3373014,-0.1154125
1.517709,-0.4292332,-0.1798021
1.395018,-0.4287023,-0.2116159
1.186929,-0.3815183,-0.1731464
1.047544,-0.3027486,-0.1011403
1.016882,-0.2421926,-0.03054514
0.9974878,-0.2029417,-0.01716829
1.002469,-0.1773965,-0.0165753
1.009431,-0.1530638,-0.007102496
0.9499552,-0.1069279,-0.02673288
0.8502696,-0.07307393,-0.0468679
0.726693,-0.06952171,-0.05161545
0.6404066,-0.08088782,-0.04377908
0.6161375,-0.08798264,-0.027606
0.5621346,-0.09586294,-0.000269349
0.5024732,-0.1242514,0.04831051
0.5291954,-0.1445023,0.06427672
0.6465205,-0.1539627,0.02903084
0.7821368,-0.1801923,0.01211744
0.8935625,-0.2308398,0.03059671
1.019219,-0.297406,0.07160318
1.094605,-0.3255371,0.1210099
1.057173,-0.3089936,0.1170768
1.029541,-0.2937819,0.09584658
1.03921,-0.2592168,0.1173503
1.003572,-0.198574,0.1261595
0.9868179,-0.1616414,0.1427044
1.006497,-0.1560874,0.1905433
1.002066,-0.1681868,0.1995627
1.05855,-0.2216389,0.1557933
1.259817,-0.3377005,0.08017082
1.539875,-0.4704457,0.02605837
1.61273,-0.5437786,0.02979847
1.352994,-0.5512105,0.08094129
1.129275,-0.5044178,0.1412694
1.096893,-0.4255986,0.09049369
1.075629,-0.391803,-0.04431564
1.041735,-0.3807102,-0.1408372
1.030459,-0.3434381,-0.1753794
1.022211,-0.3182351,-0.1162463
0.9429227,-0.2893249,-0.06878591
0.8285879,-0.2661901,-0.06896918
0.7484076,-0.2786419,0.005594041
0.6724321,-0.2742174,0.04875705
0.6421359,-0.2285841,0.007587386
0.608636,-0.1370079,-0.0203696
0.5695833,-0.03918544,-0.03782647
0.6255525,-0.002177666,-0.05279875
0.7145936,0.007029313,-0.07456679
0.8308636,-0.01837966,-0.08281936
0.9508858,-0.1107521,-0.06381175
0.994497,-0.1756198,-0.04969654
1.013847,-0.166247,-0.03288982
1.027187,-0.1032003,-0.005543191
1.044028,-0.002991859,0.02988889
1.059433,0.03345186,0.03631582
1.041129,0.0136944,0.01954796
1.038054,0.0343654,0.03181181
1.037798,0.03564053,0.03222792
1.046365,-0.01740186,0.02090928
1.13149,-0.1002614,0.02807466
1.2132,-0.1799055,0.0173514
1.255213,-0.1674801,-0.01752835
1.393395,-0.1427054,-0.07496067
1.561331,-0.1964812,-0.1092637
1.559987,-0.2781241,-0.09446602
1.530652,-0.4148982,-0.1323961
1.495311,-0.477307,-0.2101516
1.241049,-0.373251,-0.2096219
1.038934,-0.3287918,-0.1349737
1.021564,-0.3237752,-0.04774555
0.9898366,-0.2769554,-0.01428986
1.015525,-0.2864912,-0.03547372
1.008287,-0.2806294,-0.028796
0.9523312,-0.2578296,-0.007739931
0.933257,-0.220231,-0.01618687
0.8263604,-0.1205058,-0.02666712
0.7539383,-0.0840839,-0.03334518
0.7165707,-0.1118478,-0.0222073
0.618556,-0.1195206,0.009994219
0.5855693,-0.1176435,0.02546152
0.6067524,-0.1382839,0.03764216
0.6414642,-0.1714036,0.0534017
0.6964664,-0.1704678,0.06180589
0.823064,-0.1798002,0.08552716
0.9746382,-0.2041897,0.1054462
1.036091,-0.2180018,0.1040622
1.063927,-0.2419395,0.1068017
1.038641,-0.2377252,0.1193248
1.001278,-0.2271156,0.1399613
1.011115,-0.2289406,0.1643793
0.9979663,-0.2122683,0.1749619
1.00611,-0.1978731,0.1818948
1.008028,-0.1848323,0.2156608
0.9980791,-0.1904408,0.2345217
1.073357,-0.2630963,0.1727705
1.287902,-0.4086103,0.07557864
1.524367,-0.5248441,0.02252124
1.471949,-0.5081655,0.01800972
1.31998,-0.4624809,0.01914405
1.254764,-0.429897,0.01239637
1.045699,-0.3560162,-0.007487832
1.0375,-0.3687707,-0.09849133
1.178836,-0.4188712,-0.1956344
1.028048,-0.3661753,-0.1588694
0.9948367,-0.3475733,-0.0874779
1.003192,-0.3513457,-0.08047662
0.8510105,-0.3159218,-0.05193042
0.8619484,-0.3094311,-0.01193368
0.7975442,-0.2428685,0.01137402
0.721044,-0.1664681,0.0123808
0.7601652,-0.1501775,-0.04178173
0.6651788,-0.08619037,-0.06695195
0.63675,-0.0414853,-0.06121339
0.6472435,-0.03937425,-0.05470492
0.628591,-0.01313337,-0.008803457
0.7197297,-0.01333196,-0.008103747
0.8701597,-0.03492865,-0.05212873
1.092295,-0.07173342,-0.09208512
1.220574,-0.1615471,-0.1101866
1.204491,-0.2332274,-0.05793451
1.160758,-0.2120254,-0.01415689
1.011606,-0.151766,0.0334851
0.8707566,-0.08687785,0.1010247
0.9292924,-0.03167989,0.0654877
1.054882,-0.009916558,0.007983506
1.03766,0.03341633,0.02026262
1.025958,0.06117107,0.01674601
1.046642,0.03940464,0.0009038175
0.9570555,0.04132792,0.01979212
0.9521214,0.03362687,0.03396893
0.9994335,-0.01002336,0.04651814
1.034559,-0.05805706,0.04504628
1.144279,-0.0871968,-0.005730962
1.215726,-0.0874719,-0.02601973
1.324129,-0.1099938,-0.004328667
1.466821,-0.1952955,0.02951709
1.555202,-0.3443698,0.05014313
1.585373,-0.4185835,-0.03747879
1.477419,-0.3522645,-0.150213
1.326904,-0.3399033,-0.1564932
1.179674,-0.3661174,-0.1177676
1.082277,-0.3359687,-0.1036275
1.05348,-0.3255367,-0.07911408
0.988094,-0.289726,-0.03480228
1.002315,-0.2446478,-0.01541897
1.022772,-0.2452875,-0.00284037
0.980164,-0.221933,-0.008298985
0.9754427,-0.1895151,-0.025877
0.8787332,-0.1460715,-0.01177391
0.7808596,-0.08303707,-0.01640452
0.7708498,-0.05631368,-0.02245231
0.7446844,-0.05157149,-0.01661987
0.7415164,-0.05644216,-0.02828368
0.7294775,-0.06349388,-0.01687859
0.7340398,-0.06758595,0.002969305
0.7753484,-0.08468402,0.03090525
0.7933321,-0.09908293,0.06792178
0.8452948,-0.1462549,0.101526
0.8986197,-0.2216799,0.1602047
0.9041878,-0.2300465,0.1704328
0.8903277,-0.1911333,0.1295848
0.8971201,-0.1695086,0.1329967
0.9348242,-0.1328555,0.1428536
0.9517333,-0.08870027,0.1457576
0.9616407,-0.08378753,0.1669513
0.9616152,-0.084902,0.1796607
0.9785649,-0.08201985,0.2145632
1.052605,-0.1038025,0.2592548
1.117959,-0.1335744,0.2699257
1.169366,-0.1817839,0.2647622
1.183227,-0.2922405,0.1952879
1.24094,-0.4674691,0.1119514
1.553587,-0.6353838,0.1657957
1.833546,-0.695085,0.2167284
1.534345,-0.5967695,0.122787
0.9994785,-0.4316672,0.05844665
0.9317622,-0.3868332,0.04424905
1.049132,-0.4347168,-0.06909582
1.053359,-0.4307682,-0.2105708
1.138045,-0.3930447,-0.2602866
1.136434,-0.3540898,-0.2346107
1.036036,-0.3333748,-0.1814221
0.9386275,-0.3104098,-0.1135592
0.8129043,-0.2341547,-0.04861663
0.7775363,-0.1720312,-0.005693107
0.7418406,-0.1495858,0.01771752
0.6686939,-0.1286457,-0.02175028
0.6279634,-0.1163751,-0.08223396
0.6013628,-0.1073516,-0.07930631
0.6394508,-0.09343183,-0.0684451
0.7061352,-0.08965985,-0.05971062
0.8250357,-0.1100976,-0.04806595
0.9762473,-0.1240526,-0.0534426
1.056723,-0.1101834,-0.04155284
1.082414,-0.07582843,-0.03390537
1.025552,-0.0154071,-0.01365358
0.9688435,0.02613353,0.03254918
0.991106,0.02473421,0.05922086
1.007232,0.03039786,0.07661655
1.012028,0.06292422,0.06217767
1.006049,0.09974507,0.02907204
0.9930806,0.1021037,0.02831745
1.013997,0.05916818,0.02464063
1.051249,0.01218489,0.01409504
1.096064,-0.02547904,0.01696858
1.15003,-0.08050332,0.009056565
1.184907,-0.1199063,-0.01777687
1.225644,-0.1074549,-0.03480607
1.338038,-0.1381816,-0.01703093
1.478289,-0.2580738,-0.01492233
1.558067,-0.3349432,-0.09810309
1.559152,-0.3100093,-0.2088448
1.458173,-0.2697762,-0.2308006
1.271581,-0.2630061,-0.182304
1.101382,-0.2731747,-0.1343339
1.020182,-0.2900467,-0.06394171
1.012312,-0.2990097,-0.0144867
1.012234,-0.2817568,-0.04509102
0.985047,-0.2512818,-0.05757975
0.9465431,-0.209649,-0.04780249
0.9089161,-0.1669468,-0.07120152
0.8487206,-0.1233031,-0.06106709
0.7579665,-0.06345521,-0.04116745
0.7045521,-0.06816128,-0.03612124
0.6662902,-0.1164397,0.004015017
0.5667178,-0.115622,0.04612966
0.5470819,-0.1356179,0.06403485
0.639688,-0.1543121,0.05799481
0.7271636,-0.1487223,0.0559703
0.8568341,-0.1825525,0.06827332
0.9391098,-0.1841116,0.05550715
1.003442,-0.1961685,0.05608285
1.127446,-0.2475253,0.07163851
1.056173,-0.2447497,0.1001766
0.9688013,-0.2589929,0.1671234
0.9967465,-0.2560004,0.1813751
0.9037792,-0.1758727,0.1527398
0.8881322,-0.125921,0.1483682
0.9156763,-0.1074439,0.1284214
0.8737679,-0.1071904,0.1201707
0.9216706,-0.1280033,0.1609419
0.9527168,-0.1545379,0.2035755
1.014629,-0.2039685,0.1924445
1.141042,-0.2747993,0.1205248
1.33334,-0.3992044,0.04274427
1.618836,-0.497698,0.02033394
1.609754,-0.4802847,0.04419141
1.305871,-0.4394769,0.06491844
1.061253,-0.411814,0.1303672
0.9834179,-0.4068129,0.211754
1.099763,-0.4249552,0.1482272
1.170434,-0.408501,-0.003753824
1.117445,-0.3822644,-0.1357394
1.103063,-0.3455963,-0.2156194
1.050186,-0.2984883,-0.1648111
1.010836,-0.2738657,-0.1058991
1.003477,-0.2416436,-0.09914894
0.9192656,-0.2293225,-0.03975564
0.8592532,-0.2379933,-0.02746872
0.7929729,-0.2285631,-0.04203879
0.6980598,-0.228087,-0.01268916
0.6623927,-0.2127115,-0.02796503
0.6231854,-0.1769273,-0.03123809
0.6191839,-0.141053,-0.02385196
0.6563253,-0.0961249,-0.0342398
0.695243,-0.07825252,-0.02070991
0.8327728,-0.07627665,-0.04777475
1.002773,-0.06890967,-0.07477549
1.070566,-0.0677414,-0.05789833
1.054223,-0.04290966,-0.03234766
1.048272,-0.006980543,0.004331275
1.052398,0.009502535,0.01770813
1.020274,0.02549707,0.03269647
1.022187,0.04533221,0.04519008
1.018688,0.04803828,0.02089078
0.9812021,0.0435266,0.01440783
0.9997243,0.03873104,0.0141653
1.056271,-0.002554084,0.01004057
1.171391,-0.05888066,0.007750496
1.308609,-0.07597825,-0.04449558
1.36771,-0.08387378,-0.09298053
1.398593,-0.1768927,-0.06356614
1.45979,-0.342929,-0.04285039
1.564639,-0.4042925,-0.1200798
1.608992,-0.3751411,-0.2339707
1.500293,-0.4206244,-0.2733172
1.303746,-0.456036,-0.1831414
1.070396,-0.4220811,-0.04234661
0.9520707,-0.3992792,0.01422867
0.9885796,-0.343083,0.02158898
0.9679294,-0.2680038,0.02697019
0.9245757,-0.2301035,-0.001159336
0.9328116,-0.1842808,-0.02092651
0.8702088,-0.1559077,-0.035366
0.7584521,-0.1502029,-0.04234012
0.6528812,-0.1296059,-0.02022612
0.5528444,-0.1215148,-0.007482555
0.4954637,-0.1130809,0.02098139
0.4916758,-0.1101601,0.04428276
0.5477328,-0.1201259,0.04220326
0.6492717,-0.1264539,0.06052581
0.8013856,-0.1822276,0.07973328
0.9761513,-0.2586886,0.102423
1.035197,-0.2811154,0.1072969
1.006683,-0.2699006,0.09438081
1.015242,-0.2650175,0.1089184
1.008762,-0.267857,0.1057549
0.9763303,-0.2473248,0.1078869
0.9567965,-0.204939,0.1402388
0.9142334,-0.1528044,0.1586558
0.9068748,-0.1298853,0.1680432
0.9477901,-0.1850696,0.1574829
0.9725472,-0.2974406,0.1504974
1.07318,-0.4367549,0.1536884
1.337104,-0.5245408,0.1315976
1.579207,-0.5755732,0.08754333
1.448495,-0.6199751,0.03852544
1.130699,-0.5631484,0.07844895
1.075604,-0.5314887,0.1310499
1.053532,-0.5374774,0.009181065
0.9913749,-0.5034056,-0.1598388
1.049602,-0.5614505,-0.2398743
1.020801,-0.5676307,-0.2413959
1.031126,-0.5131582,-0.1824163
1.069452,-0.4946123,-0.1486315
0.9847445,-0.3928028,-0.1367431
0.952231,-0.346028,-0.1125464
0.8840929,-0.3168395,-0.07125134
0.8302238,-0.2332594,-0.01411759
0.8164313,-0.2075248,-0.02074133
0.7129242,-0.1387689,-0.04649414
0.6848142,-0.08095171,-0.03932736
0.6869138,-0.07231599,-0.04838262
0.6886716,-0.08076487,-0.04141242
0.7392577,-0.1335534,-0.0306511
0.7939532,-0.1365887,-0.03224358
0.9056337,-0.145107,-0.03076932
0.9470823,-0.1437298,-0.040333
0.9270016,-0.08313477,-0.01847305
0.9544104,-0.05983817,0.01021243
0.9577504,-0.02923602,0.009467279
0.9851946,-0.002460056,0.02206194
1.026368,-0.003838164,0.04162993
1.020913,0.002403707,0.05176918
1.006355,0.0010068,0.0502619
1.002909,0.01139227,0.04983538
1.03809,-0.01016895,0.05954649
1.106618,-0.06516496,0.05428304
1.189722,-0.1132565,0.04524486
1.299758,-0.1625574,0.03742532
1.422148,-0.1752187,0.02837775
1.477511,-0.1810821,0.03860588
1.455356,-0.2226552,0.03117492
1.459331,-0.2895168,-0.04610073
1.451222,-0.3655685,-0.1603885
1.33954,-0.4187151,-0.2060244
1.195221,-0.4391811,-0.1630308
1.109325,-0.3946305,-0.1067109
1.095616,-0.3359571,-0.03626214
1.086534,-0.3257247,0.001115274
1.033239,-0.2890666,-0.045692
0.9587414,-0.2443826,-0.06024018
0.8615872,-0.2294887,-0.04716289
0.7709583,-0.2033842,-0.06581814
0.6880918,-0.1836859,-0.05536471
0.5902186,-0.171485,-0.03866039
0.5582142,-0.1574894,-0.01221917
0.5728391,-0.1395148,0.02502847
0.5769499,-0.1141681,0.01495316
0.6350289,-0.1090095,0.01425513
0.756969,-0.09516102,0.03253128
0.8971791,-0.06135398,0.0386037
0.974267,-0.07008448,0.05014398
1.000682,-0.1225617,0.0625851
1.062794,-0.1806275,0.09209656
1.058569,-0.227702,0.1230787
1.002035,-0.258759,0.1544023
1.003672,-0.268428,0.1840653
0.9878106,-0.2399452,0.1590802
0.9837374,-0.2093997,0.1268583
1.015519,-0.2102317,0.1277316
1.043336,-0.2199751,0.1505853
1.116854,-0.2557103,0.1808738
1.213567,-0.3420795,0.1439291
1.409669,-0.4791426,0.09899764
1.60515,-0.5671705,0.1274472
1.436504,-0.4899307,0.1465164
1.145598,-0.3857743,0.1668679
1.115459,-0.366982,0.1728383
1.119616,-0.367829,0.01165738
1.062393,-0.3797823,-0.2112679
1.069,-0.3753704,-0.2475786
1.058054,-0.3690122,-0.1702963
0.9945956,-0.386296,-0.1382278
0.9274766,-0.3673445,-0.09648223
0.8756674,-0.3356019,-0.07607147
0.7953922,-0.2992037,-0.08824631
0.6956282,-0.2684528,-0.01433825
0.6740921,-0.2577667,0.01145417
0.644467,-0.1947965,-0.04549787
0.6012427,-0.1332713,-0.0459865
0.6296974,-0.09866494,-0.07664424
0.6622026,-0.06065098,-0.1077618
0.7546521,-0.08547212,-0.08750731
0.8742829,-0.1233617,-0.07571599
0.9258244,-0.144327,-0.03888308
0.9868628,-0.1610455,-0.0312657
1.040883,-0.1286257,-0.03875045
1.057325,-0.09274093,-0.01206197
1.038068,-0.0365313,0.0007588858
1.014589,0.03786357,0.02875547
1.023065,0.03995615,0.03580452
1.009821,0.03693885,0.007513867
1.009217,0.05830815,0.0006943946
1.034312,0.03610525,-0.001199547
1.086774,-0.01573513,0.002736059
1.208834,-0.1059986,-0.009252347
1.329052,-0.1952913,-0.06559386
1.449508,-0.2121808,-0.1479297
1.577503,-0.2517753,-0.1930522
1.610481,-0.3452548,-0.1653083
1.531914,-0.3890362,-0.1657308
1.378758,-0.364612,-0.1921328
1.180255,-0.3005533,-0.1669993
1.064788,-0.2546275,-0.1358355
1.092656,-0.238367,-0.09543186
1.074013,-0.2249579,-0.06519169
1.009078,-0.2420395,-0.07481397
1.005674,-0.2336025,-0.04808075
0.9116437,-0.1707546,-0.01727223
0.7756114,-0.09440334,-0.02551194
0.7010516,-0.05337771,-0.02994254
0.617556,-0.1019666,-0.03897226
0.5794166,-0.1259716,-0.03597421
0.5629217,-0.1037938,-0.01815759
0.5413316,-0.1307459,-0.008083054
0.5883819,-0.1621587,0.01938621
0.6850175,-0.2118795,0.04649163
0.8092733,-0.2624004,0.05431431
0.9376036,-0.2746652,0.06514034
1.040618,-0.2911753,0.07784186
1.100778,-0.2700978,0.08067411
1.104651,-0.2356989,0.0951876
1.066718,-0.2261259,0.1335194
1.005573,-0.1887608,0.144195
0.9742974,-0.157533,0.1299539
0.9860152,-0.1664122,0.1372066
1.010989,-0.1825992,0.1578545
1.042339,-0.1902048,0.1886552
1.085937,-0.2235971,0.1851863
1.247615,-0.3381742,0.09890597
1.548625,-0.4770344,0.01421653
1.684726,-0.5138086,0.01389069
1.472055,-0.4786498,0.03659908
1.183372,-0.4471614,0.07017525
1.037927,-0.3807344,0.1310538
1.02616,-0.3578707,0.04319446
1.09456,-0.4155585,-0.1307784
1.101128,-0.41392,-0.1388662
1.063001,-0.3834856,-0.110648
0.970106,-0.3131958,-0.1034511
0.7646113,-0.1834494,-0.0398498
0.7092161,-0.1765376,-0.03357172
0.7165208,-0.2186329,-0.04103921
0.5783292,-0.1933773,-0.01729463
0.5594233,-0.1865877,-0.02801781
0.6073322,-0.1489667,-0.0486269
0.5780881,-0.082538,-0.07510323
0.6552332,-0.09165471,-0.08504096
0.8090187,-0.1288083,-0.07283942
0.9245037,-0.1405853,-0.05643196
1.003626,-0.1539321,-0.01861872
1.050007,-0.1276625,0.006326358
1.082639,-0.05949763,0.01267301
1.08915,-0.02516642,0.01823039
1.06141,-0.00124081,0.01274665
1.047122,0.02333572,0.01145097
1.075134,0.01907212,0.0190171
1.106617,0.007167685,0.02683789
1.106115,-0.008427631,0.03192951
1.10548,-0.04112004,0.02228926
1.142276,-0.1316327,-0.006024539
1.226599,-0.2400545,-0.0516472
1.381744,-0.2669378,-0.1125366
1.559542,-0.2839421,-0.1467736
1.600955,-0.3594095,-0.1401391
1.489159,-0.394626,-0.1762845
1.349352,-0.3580206,-0.25639
1.185898,-0.340267,-0.2591688
1.050027,-0.3467907,-0.1748664
1.036161,-0.3256475,-0.09028259
1.034953,-0.3041845,-0.05528989
1.008282,-0.2969404,-0.07041168
1.00405,-0.2717618,-0.05632124
0.9607402,-0.2184557,-0.004443937
0.8954424,-0.1594794,-0.00021507
0.8472634,-0.1332542,-0.01651373
0.7914064,-0.1288254,-0.03676365
0.7196823,-0.1143542,-0.06925971
0.6724131,-0.1174974,-0.05034745
0.6622902,-0.1491285,-0.007965596
0.6270294,-0.1738901,0.02050693
0.6487887,-0.2021259,0.0448791
0.7333269,-0.2233985,0.03678983
0.7765267,-0.2054993,0.02575915
0.8751496,-0.2026197,0.03698349
0.9694152,-0.2254167,0.05537662
0.9852526,-0.2378729,0.09626113
1.009962,-0.2454581,0.1259473
0.9974966,-0.2231571,0.1253836
0.9891844,-0.179651,0.1326829
1.000733,-0.1530559,0.1369802
0.9801483,-0.1532695,0.1482189
0.9813982,-0.1933925,0.1689415
1.010066,-0.2912575,0.1401329
1.183529,-0.4749529,0.09301572
1.525413,-0.6433439,0.07511609
1.660362,-0.6449956,0.06074828
1.387536,-0.529868,0.05829822
1.123965,-0.418662,0.07343754
1.17264,-0.3909686,0.05726418
1.193337,-0.4377316,-0.05101416
1.082977,-0.4462835,-0.1949158
1.038934,-0.4053755,-0.1987295
0.9498357,-0.3404066,-0.09396678
0.8230428,-0.2400436,-0.05287102
0.7376221,-0.1866514,-0.0488208
0.6685866,-0.1983649,-0.03758962
0.6663293,-0.1941493,-0.04268419
0.6297322,-0.167106,-0.03916405
0.5390506,-0.1291032,-0.0384431
0.5380642,-0.1026175,-0.04662383
0.6087298,-0.1068086,-0.07085854
0.7111879,-0.09779515,-0.1044806
0.8099056,-0.09643843,-0.09398368
0.8704316,-0.1375257,-0.07675673
0.9896753,-0.1704077,-0.06138154
1.106397,-0.1693812,-0.02284948
1.06123,-0.1245191,-0.01883066
1.043273,-0.04925987,-0.01276482
1.109776,-0.001928447,0.03022573
1.084548,0.01186867,0.03859357
1.098759,0.02237403,0.03252891
1.123177,0.03187957,0.032917
1.092159,-0.007798451,0.003497709
1.173775,-0.113545,-0.02929047
1.286525,-0.1873802,-0.09762251
1.451837,-0.1714515,-0.1850379
1.647943,-0.1606153,-0.1798517
1.635945,-0.2270752,-0.1791549
1.503262,-0.2921743,-0.2585329
1.320793,-0.3275691,-0.2873009
1.098164,-0.3860088,-0.2251598
1.013438,-0.4156454,-0.1337039
1.03308,-0.3941051,-0.08650052
0.9979955,-0.371385,-0.0730574
0.9531038,-0.3338164,-0.03209194
0.9461849,-0.2494183,-0.02500442
0.901221,-0.1330042,-0.05329774
0.8469859,-0.05551818,-0.06811255
0.7918465,-0.05819987,-0.09112499
0.7194226,-0.1056517,-0.07226404
0.6789724,-0.1582169,-0.01660664
0.6067887,-0.2042026,0.0205863
0.5699501,-0.2364906,0.05596572
0.6451181,-0.2411917,0.06350227
0.7079226,-0.2244276,0.03994175
0.7783789,-0.2058163,0.02513361
0.8868495,-0.2053561,0.03396742
0.9668593,-0.220451,0.05858326
0.9986798,-0.2370696,0.07515224
0.9866387,-0.2539106,0.1029703
0.9922225,-0.2447682,0.1229581
1.014562,-0.2074027,0.1056773
1.012452,-0.1613342,0.1017679
1.008342,-0.1422963,0.1172823
0.990465,-0.2173238,0.1295385
1.044766,-0.3626679,0.1363653
1.353016,-0.5101129,0.1200706
1.660655,-0.580994,0.05834363
0.7114133,-0.2053049,0.04858492
0.9107331,-0.2956041,0.0690373
1.027995,-0.3627726,0.133237
1.113082,-0.3586594,0.1720272
1.122524,-0.3022941,0.1721214
1.109144,-0.2363208,0.1726747
1.10958,-0.1803283,0.1684996
1.067778,-0.1716901,0.1738758
1.065902,-0.2246492,0.1751615
1.120357,-0.3229406,0.1735197
1.391292,-0.480353,0.1630632
1.683952,-0.6075474,0.1055327
1.464389,-0.5931169,0.04865028
1.099426,-0.5097496,0.06331026
1.088606,-0.4453716,0.06693849
1.113179,-0.3910324,-0.04376636
1.066098,-0.3541063,-0.1681236
1.058629,-0.3270625,-0.180885
0.9339447,-0.2834633,-0.111519
0.7962916,-0.2537843,-0.03588353
0.7040303,-0.2439677,0.01428894
0.606629,-0.2419707,0.03735216
0.6063842,-0.2345364,0.01471978
0.5776221,-0.1754933,-0.03979759
0.5407993,-0.09286079,-0.09346587
0.6036979,-0.05547997,-0.1197431
0.6736875,-0.0750602,-0.1005776
0.7801417,-0.1081249,-0.09816396
0.9381664,-0.1478124,-0.08707688
1.068861,-0.1852063,-0.03815262
1.07793,-0.1298941,-0.04377833
1.084423,-0.03867124,-0.03946037
1.175341,0.01166631,0.009665455
1.16537,0.06580246,0.03056241
1.149618,0.07756782,0.05251672
1.183665,0.03165879,0.05164133
1.19788,-0.07478897,0.009009912
1.300463,-0.2400066,-0.0806842
1.45811,-0.3265902,-0.2245955
1.657206,-0.3230112,-0.2802163
1.736664,-0.3818538,-0.2441625
1.547502,-0.4977982,-0.2693326
1.324723,-0.5037623,-0.2911523
1.121304,-0.4367076,-0.2003868
1.022156,-0.4169612,-0.1094732
1.087327,-0.3523539,-0.09618928
1.05373,-0.274633,-0.06747073
1.008926,-0.2839235,-0.04093988
0.9796344,-0.2571361,-0.05196393
0.7884435,-0.152406,-0.01894218
0.6753214,-0.1084709,-0.01755877
0.6398827,-0.1262683,-0.07615056
0.4921541,-0.1000161,-0.07538507
0.4271425,-0.10332,-0.050875
0.4470472,-0.1550449,-0.0243082
0.4259046,-0.1697441,-0.004922459
0.4931656,-0.2173593,-0.001763769
0.6455956,-0.2619525,0.05791595
0.8105396,-0.2590603,0.0977257
1.023958,-0.2890116,0.1120518
1.209943,-0.2943352,0.1385714
1.299193,-0.259481,0.1116708
1.28859,-0.2304125,0.1120748
1.207173,-0.2100193,0.1224925
1.139813,-0.2300079,0.1055643
1.079536,-0.2630298,0.1338987
1.070731,-0.3170649,0.1544034
1.198349,-0.4472906,0.1690005
1.391064,-0.5799635,0.1574178
1.467857,-0.5912738,0.07831006
1.282311,-0.5008482,0.02462968
1.030676,-0.427458,0.008087887
0.9639467,-0.3974731,-0.04439823
1.01156,-0.4089827,-0.1441697
1.049081,-0.4378944,-0.1672034
1.026364,-0.4152238,-0.11494
0.9688762,-0.3763328,-0.1140692
0.8614275,-0.3348788,-0.06927304
0.7361966,-0.3100934,0.008751053
0.6803608,-0.3193254,0.01509486
0.5914698,-0.250103,0.007205952
0.5253979,-0.1730408,-0.005746743
0.5545015,-0.143414,-0.01765381
0.5516484,-0.0453492,-0.05961239
0.6095886,0.00718202,-0.1252625
0.7709921,-0.0512232,-0.1226846
0.912554,-0.1161988,-0.09050003
1.024391,-0.1991562,-0.05253114
1.091997,-0.2314153,-0.02377748
1.09731,-0.1146197,-0.01706475
1.082772,0.03843134,0.01695314
1.089523,0.1273941,0.048171
1.115706,0.1524969,0.06803074
1.141225,0.1259657,0.06860224
1.160312,0.09070571,0.02653393
1.215862,-0.03260817,-0.03278398
1.331691,-0.2488733,-0.1257703
1.457796,-0.3439564,-0.1947234
1.604436,-0.334935,-0.1736499
1.658348,-0.3803048,-0.1720695
1.500974,-0.4358152,-0.2651547
1.332293,-0.4258843,-0.3303592
1.188417,-0.3981516,-0.2634357
1.021608,-0.380925,-0.1373549
1.011433,-0.3431787,-0.05905076
1.080156,-0.3285489,-0.06942053
1.07532,-0.320676,-0.09806722
1.051626,-0.2674475,-0.07519111
0.9581923,-0.1934447,-0.07209438
0.7459541,-0.1088238,-0.07874714
0.5534895,-0.08906229,-0.04609832
0.4955052,-0.1284031,-0.01881745
0.4686813,-0.1382445,0.02454765
0.4274515,-0.1478363,0.06502564
0.5027808,-0.1585672,0.07114788
0.6452831,-0.1571267,0.07647066
0.7737531,-0.1545846,0.04728127
0.8812552,-0.1644891,0.01907281
0.9434926,-0.2331583,0.04443054
1.081247,-0.3563953,0.0865416
1.180243,-0.4379725,0.1285661
1.09069,-0.3810003,0.1339312
1.072653,-0.2750062,0.1270236
1.095864,-0.2259569,0.1425
1.026929,-0.2220606,0.1322318
1.037782,-0.2719401,0.1260441
1.167417,-0.374977,0.1324715
1.471188,-0.5873422,0.1113855
1.678884,-0.7265666,0.0703024
1.330592,-0.5686638,0.02017965
0.905831,-0.4409742,0.02227547
0.9375521,-0.4485158,0.02478222
1.057479,-0.4057217,-0.08002565
1.058443,-0.4059702,-0.1743086
1.090614,-0.3978266,-0.1882886
1.05066,-0.3462459,-0.1657277
0.9041978,-0.3203956,-0.08016441
0.739882,-0.2983295,0.02910049
0.6044383,-0.3078693,0.06171141
0.5929997,-0.2570869,-0.009271252
0.5827054,-0.1424024,-0.08143243
0.5367235,-0.07556171,-0.1138158
0.6052359,-0.0494191,-0.1468968
0.6923684,-0.1070641,-0.1119538
0.8062257,-0.1970638,-0.05326212
0.949691,-0.2106565,-0.0344142
0.9980522,-0.1618407,-0.01121605
1.028764,-0.07954759,-0.02049032
1.041611,0.03667251,-0.01711981
1.044843,0.1680219,0.01714253
1.090013,0.1488326,0.02599359
1.108297,0.02726557,0.05305148
1.118842,0.01813138,0.06686175
1.119705,-0.02435056,0.03366491
1.138738,-0.1195963,-0.01848625
1.265695,-0.185956,-0.09549293
1.465583,-0.2911487,-0.1740219
1.598082,-0.2993479,-0.2144667
1.522203,-0.3310379,-0.1998053
1.384224,-0.4439861,-0.1952022
1.301533,-0.3697733,-0.2337584
1.164797,-0.3167748,-0.2290325
1.094573,-0.3729894,-0.1679284
1.093503,-0.3437635,-0.08562928
1.058178,-0.3444931,-0.02251454
1.081412,-0.359265,-0.02449015
1.077241,-0.3323173,-0.0434939
1.032005,-0.3094716,-0.05613339
0.9829654,-0.2455768,-0.06903164
0.8405406,-0.1975209,-0.0695144
0.7179649,-0.1756837,-0.08104241
0.6329244,-0.1282845,-0.07819665
0.5409302,-0.1007714,-0.05333838
0.5134613,-0.09880813,-0.02668784
0.5209574,-0.1118195,0.02046049
0.5829998,-0.1355833,0.05567963
0.7027219,-0.1501702,0.07468699
0.8350654,-0.1843971,0.0857886
0.9591296,-0.2377134,0.06657761
1.014211,-0.2665886,0.05867703
1.019091,-0.2802096,0.07525787
1.007982,-0.2814834,0.0995803
0.9948614,-0.2427589,0.131184
0.9763932,-0.1732109,0.1462185
0.9412909,-0.09107103,0.1515924
0.9451795,-0.02333381,0.1711832
0.9749261,-0.0126318,0.196677
1.015561,-0.06664343,0.2063447
1.075417,-0.1707105,0.1916235
1.137589,-0.3203502,0.139733
1.280468,-0.4891001,0.07889746
1.488163,-0.5930967,0.07522761
1.564349,-0.6100732,0.0485198
1.384005,-0.6079555,-0.01981
1.091453,-0.6029284,0.02591889
0.9653361,-0.6056422,0.06287139
1.042244,-0.6133901,-0.0749896
1.143335,-0.5923813,-0.225322
1.168088,-0.5451363,-0.2888288
1.129586,-0.4609592,-0.2875246
1.020719,-0.4067347,-0.2280993
0.8764942,-0.3987192,-0.1442765
0.7868785,-0.3317431,-0.05598377
0.725595,-0.2592748,-0.01900283
0.6608376,-0.2147351,-0.03281449
0.5826925,-0.1513255,-0.04433573
0.5025136,-0.09105272,-0.07196897
0.4979133,-0.02814578,-0.1141229
0.5549174,-0.01157997,-0.1369282
0.6775994,-0.04602078,-0.1108352
0.856364,-0.08156542,-0.06736506
0.9926967,-0.1429352,-0.04157823
1.054917,-0.1639676,-0.008470468
1.051871,-0.1228075,0.01098244
1.043267,-0.06814735,0.03265603
1.047499,0.01842361,0.05404042
1.061779,0.05506575,0.03843989
1.121323,0.02058434,0.04679193
1.174056,-0.0066673,0.05600788
1.208969,-0.0950703,0.03026375
1.252312,-0.2506053,-0.01449117
1.325043,-0.3513881,-0.1059703
1.459306,-0.3574935,-0.1442114
1.581165,-0.3588655,-0.1066676
1.563721,-0.4254489,-0.1248083
1.369126,-0.4257514,-0.1740825
1.160369,-0.3757072,-0.2058658
1.058903,-0.3722894,-0.2065636
0.9957337,-0.2859219,-0.1565048
0.9865847,-0.2298434,-0.117198
1.035076,-0.2615273,-0.09113831
1.04429,-0.2285503,-0.06503567
0.9977704,-0.2278499,-0.06732906
0.9065965,-0.197795,-0.06780274
0.765268,-0.1133667,-0.06594874
0.6395364,-0.1193903,-0.06817587
0.5724591,-0.1355582,-0.05379604
0.5259108,-0.1677288,-0.02790606
0.5226102,-0.2253339,0.00635097
0.5667907,-0.2473835,0.02949128
0.6518609,-0.2505782,0.03843771
0.8279647,-0.2377947,0.04489866
1.012425,-0.2513034,0.04604706
1.111239,-0.2669235,0.05179004
1.136489,-0.2722981,0.05380361
1.107375,-0.2745236,0.0531366
1.065598,-0.2381887,0.06209457
1.018997,-0.219099,0.08031946
0.9755326,-0.2096081,0.1109319
0.970069,-0.2035552,0.1370808
0.9767153,-0.2162589,0.1560745
0.9880368,-0.233698,0.1596608
1.026426,-0.3399906,0.1233989
1.077326,-0.4637766,0.08184355
1.179251,-0.4917442,0.05549784
1.287778,-0.5152122,0.04196892
1.207672,-0.5162418,0.1060781
1.086009,-0.4518112,0.1744228
1.162494,-0.4500311,0.03284237
1.184648,-0.4723965,-0.18619
1.084331,-0.4242706,-0.2142542
1.046869,-0.4052421,-0.1703818
0.9688333,-0.3808866,-0.1594373
0.8877266,-0.3166842,-0.1110231
0.8500019,-0.2841561,-0.06858393
0.7456796,-0.2431701,-0.04041967
0.6502832,-0.2282383,-0.00935831
0.5853165,-0.2198963,-0.01873471
0.5381072,-0.1703365,-0.04214788
0.5149618,-0.1337459,-0.04559649
0.5367076,-0.08217473,-0.06709135
0.6769165,-0.06074771,-0.1105712
0.8183602,-0.09929797,-0.1232336
0.9186536,-0.1568517,-0.0909096
1.021302,-0.200821,-0.03855607
1.064927,-0.1669191,-0.01000856
1.07945,-0.1000437,0.002235188
1.099219,0.00524171,0.03861227
1.117266,0.1312143,0.05639829
1.097327,0.1753587,0.04673278
1.075057,0.1717851,0.03683413
1.125297,0.07229885,0.004963437
1.214284,-0.1627158,-0.07234219
1.369308,-0.3840248,-0.1944837
1.546692,-0.465805,-0.2661657
1.631039,-0.4548906,-0.2204504
1.577011,-0.4775032,-0.1829754
1.413644,-0.4471471,-0.2551164
1.264337,-0.3310318,-0.2959559
1.126555,-0.292946,-0.2071541
1.046557,-0.2786585,-0.1112089
1.033914,-0.2508423,-0.0504872
0.9528422,-0.2766575,-0.008619001
0.9119712,-0.2732193,0.00423281
0.8892836,-0.236655,0.01216678
0.7950223,-0.1949725,-0.004836033
0.7164945,-0.1365367,-0.03691439
0.6136261,-0.1161369,-0.07038222
0.5698724,-0.1132898,-0.07883528
0.5726105,-0.1134151,-0.03526058
0.523801,-0.1340768,-0.008445099
0.5687207,-0.1486177,0.0257707
0.6173687,-0.1595734,0.07530131
0.6219262,-0.1669008,0.06609032
0.8003476,-0.2131774,0.06350175
1.034841,-0.2850149,0.1024881
1.06356,-0.2782136,0.1110594
1.007631,-0.2478845,0.09611041
1.034871,-0.2352426,0.1030758
0.9897325,-0.1683978,0.1107332
0.9010755,-0.108145,0.1149049
0.9114038,-0.1077517,0.1328014
0.9100755,-0.1213626,0.1518527
0.9299203,-0.1948475,0.1783294
1.072306,-0.403104,0.1734258
1.430211,-0.6552793,0.1188405
1.76347,-0.7276493,0.04333548
1.489373,-0.6162958,-0.01270387
1.067416,-0.5617264,0.07488025
1.109105,-0.562881,0.1669025
1.117896,-0.5202149,0.01808289
1.034671,-0.5131444,-0.1741926
1.082391,-0.5101619,-0.2341269
1.045952,-0.4743235,-0.2288178
1.031335,-0.4329414,-0.1634469
1.020839,-0.3387758,-0.1019483
0.9457507,-0.2677357,-0.08513195
0.9461536,-0.2585306,-0.05928374
0.8742758,-0.2271639,-0.03414509
0.7661611,-0.2095574,-0.03950856
0.6726956,-0.1961364,-0.0671342
0.5423776,-0.1571361,-0.07531387
0.5382062,-0.1661746,-0.05696626
0.5541424,-0.1722733,-0.02284116
0.587267,-0.1246848,0.003074453
0.7646697,-0.0829368,-0.0399044
0.9124094,-0.02907294,-0.09667213
0.9979163,0.04769529,-0.104827
1.022341,0.1189886,-0.0973246
0.9877489,0.1459782,-0.04161027
1.000858,0.09368423,0.08506424
1.008715,0.05583585,0.1701215
1.02738,0.05739677,0.127967
1.141921,-0.0005594635,0.07353128
1.283982,-0.1013609,0.07436746
1.3572,-0.1815799,0.05060255
1.405604,-0.2417995,0.0006764202
1.554175,-0.302016,-0.08719196
1.646178,-0.3236468,-0.1484053
1.524081,-0.349595,-0.1140503
1.398006,-0.4705276,-0.1576038
1.28812,-0.5069109,-0.2505965
1.114714,-0.4330511,-0.2315375
1.038418,-0.4207947,-0.1642038
1.024479,-0.3560409,-0.0894315
0.9837422,-0.2935975,-0.06885504
0.964936,-0.3264845,-0.1126013
0.9357379,-0.303495,-0.1116096
0.9023936,-0.2875441,-0.1017622
0.8618429,-0.2775646,-0.1042793
0.7912465,-0.2251547,-0.08795867
0.7453695,-0.2172124,-0.07550153
0.7203775,-0.1999005,-0.04666913
0.6888275,-0.1774578,0.001198259
0.6598557,-0.1534835,0.04143259
0.6769981,-0.1173665,0.05028918
0.7504186,-0.1182519,0.03972454
0.8271549,-0.09705641,0.04493232
0.9127492,-0.09493561,0.04441386
0.9563412,-0.1386062,0.06571871
0.9260456,-0.1946938,0.132691
0.9250218,-0.2706626,0.1702221
0.9366531,-0.2626109,0.1611337
0.9335666,-0.2303029,0.1532465
0.9563574,-0.2537007,0.1653995
0.9716179,-0.2457079,0.178324
0.9887431,-0.275668,0.1760767
1.072945,-0.3863527,0.1416521
1.345972,-0.5267642,0.08186917
1.647258,-0.6321277,0.07557719
1.504337,-0.5917667,0.1046954
1.170679,-0.4766421,0.1403559
1.144569,-0.3852916,0.1940245
1.16679,-0.3444893,0.1064838
1.140415,-0.3952498,-0.08696807
1.125508,-0.4134227,-0.1586401
1.017036,-0.3685514,-0.1403392
0.9727068,-0.3537759,-0.1011067
0.9008931,-0.3013644,-0.06105242
0.7733653,-0.2419886,-0.05806855
0.7448582,-0.2303589,-0.05393928
0.6677543,-0.2119999,-0.04424908
0.6003328,-0.2003318,-0.04065263
0.5593596,-0.1698877,-0.0475085
0.5227034,-0.1281812,-0.06757916
0.6080482,-0.1217671,-0.08179944
0.6892602,-0.1217742,-0.09658104
0.7613728,-0.1264458,-0.09684786
0.8585035,-0.1282957,-0.07323245
0.9672495,-0.1258304,-0.05024792
1.073168,-0.1153806,-0.06622211
1.075438,-0.08653923,-0.09212974
1.076318,-0.06671005,-0.04528683
1.061154,-0.031813,0.01790845
1.026046,-0.004504452,0.05615848
1.066205,-0.009555359,0.08438103
1.057843,0.02200433,0.06718779
1.068962,0.04886193,0.04412208
1.145131,0.0053315,0.01123478
1.239204,-0.09960579,-0.05608056
1.39428,-0.2391111,-0.1387873
1.532576,-0.2979414,-0.2045193
1.659843,-0.2997217,-0.1365452
1.657451,-0.3757333,-0.06986114
1.468298,-0.4033595,-0.2021098
1.284189,-0.3410098,-0.2885395
1.109711,-0.3221591,-0.1784409
1.057121,-0.2882095,-0.07802022
1.100339,-0.2463167,-0.07328676
1.046619,-0.2561158,-0.08859259
1.025728,-0.2398399,-0.08392324
0.985954,-0.2095374,-0.06279085
0.8547031,-0.1602484,-0.03041659
0.7425894,-0.1112139,-0.006431926
0.633806,-0.1394095,-0.007932667
0.5609554,-0.1476141,-0.01659649
0.4845874,-0.1124621,-0.01710682
0.4272146,-0.11062,0.004658585
0.4851423,-0.1253391,0.04021067
0.5704048,-0.1585664,0.04990409
0.7259104,-0.2054947,0.04592298
0.9455646,-0.2562932,0.05542396
1.079392,-0.3077197,0.06289134
1.1422,-0.3179858,0.0700793
1.149934,-0.2894297,0.09618572
1.109937,-0.2514907,0.134321
1.07763,-0.2076246,0.1668379
1.079571,-0.1492089,0.175365
1.120842,-0.09429831,0.1678074
1.156617,-0.09456113,0.1715417
1.153428,-0.170544,0.1667467
1.174011,-0.3532549,0.1434699
1.308529,-0.6218837,0.1313615
1.436284,-0.7461568,0.1217846
1.332542,-0.6074589,0.07680725
1.114411,-0.4701151,0.01897374
1.032699,-0.4819315,0.02428213
1.062673,-0.4824385,0.01787336
1.087279,-0.4474019,-0.08357744
1.058408,-0.3938544,-0.1332527
0.9694001,-0.2751727,-0.1023368
0.8213123,-0.201441,-0.08001887
0.666935,-0.2076067,-0.02952891
0.6056245,-0.2087562,0.01092891
0.5276811,-0.1921066,0.005476001
0.4014089,-0.1706486,0.006553436
0.4276418,-0.1539447,-0.02063401
0.5013146,-0.1077266,-0.09475383
0.5416249,-0.06578608,-0.1408134
0.7100732,-0.1108652,-0.1475169
0.8955774,-0.2040532,-0.1486105
1.02093,-0.2750131,-0.115162
1.15362,-0.2387534,-0.0700803
1.192736,-0.08345604,-0.04428408
1.17937,0.09689718,0.002868075
1.192665,0.2313713,0.03874279
1.166122,0.2245475,0.0333996
1.167757,0.1073368,0.006702309
1.219233,-0.05877199,-0.04583793
1.310612,-0.3262414,-0.1289758
1.475727,-0.5145652,-0.2295099
1.561941,-0.5009393,-0.2461627
1.504612,-0.4630473,-0.139833
1.398416,-0.4330126,-0.07192699
1.280875,-0.3554037,-0.1224414
1.172341,-0.2800914,-0.1735855
1.116053,-0.2538938,-0.1712816
1.121042,-0.2596943,-0.1700008
1.088657,-0.2759977,-0.1373421
1.012155,-0.3054812,-0.06156325
0.947498,-0.3107962,-0.01606018
0.8220398,-0.2882754,0.01649833
0.6571207,-0.2447079,0.02933822
0.5495078,-0.189153,0.001491015
0.4734227,-0.1502888,-0.01222278
0.4276863,-0.09743419,-0.0273724
0.4786257,-0.06646739,-0.01324725
0.5809294,-0.08527098,0.03781933
0.7166161,-0.1188522,0.03045178
0.9279306,-0.2055388,0.02875885
1.111371,-0.3233855,0.05837717
1.218165,-0.3995324,0.07264148
1.252852,-0.4062951,0.1316047
1.195493,-0.3445193,0.1746048
1.151961,-0.2822571,0.1662841
1.121142,-0.2310878,0.1915228
1.042396,-0.1555652,0.2248014
1.020765,-0.156123,0.220653
1.103184,-0.2924421,0.1782082
1.27477,-0.495646,0.1420818
1.452579,-0.6528999,0.1440104
1.37809,-0.5956502,0.09864532
1.102064,-0.4563463,0.004142708
0.9800041,-0.4538846,-0.02362631
1.046046,-0.4412814,-0.03132771
1.143714,-0.4178239,-0.1225921
1.14515,-0.4188243,-0.1808051
1.061848,-0.3512543,-0.1418804
1.000273,-0.297083,-0.1257148
0.8781368,-0.2153488,-0.09954114
0.7541381,-0.1488244,-0.01710145
0.6672704,-0.1565579,0.004950188
0.5321613,-0.1166425,-0.05183363
0.4933589,-0.1047606,-0.09691709
0.5441017,-0.1107364,-0.09341486
0.613824,-0.1155687,-0.07537867
0.7050815,-0.1607106,-0.07348393
0.7977327,-0.1663925,-0.07480108
0.9395077,-0.1628671,-0.07907667
1.054407,-0.1333965,-0.07784205
1.11673,-0.08884099,-0.03886408
1.154927,-0.03685336,0.0347202
1.166008,0.05293166,0.09000924
1.164264,0.08738772,0.07894476
1.148704,0.09705463,0.05360728
1.194576,0.02915892,0.04459614
1.26349,-0.1333815,-0.04235821
1.403075,-0.2295482,-0.2023154
1.629124,-0.2889987,-0.2859821
1.66354,-0.3649117,-0.2304532
1.524807,-0.4718011,-0.182163
1.342162,-0.505392,-0.220854
1.115231,-0.4172868,-0.1933694
1.009531,-0.3851415,-0.123385
1.053765,-0.3366397,-0.1144263
1.060579,-0.2662807,-0.09702279
1.020058,-0.2783684,-0.0841313
0.9982244,-0.2394858,-0.05796701
0.9068674,-0.1853723,-0.01037783
0.8040067,-0.167406,-0.02113847
0.7364024,-0.1503787,-0.04391117
0.6135091,-0.1617556,-0.05629049
0.5593474,-0.1624665,-0.04383411
0.541574,-0.1840334,0.0001889247
0.4822111,-0.1966112,0.02246383
0.5441588,-0.1778702,0.04646414
0.6497966,-0.1936436,0.04768521
0.7761252,-0.1855016,0.03689714
0.9832447,-0.2139462,0.06105771
1.062467,-0.2977562,0.06939545
1.047625,-0.3314008,0.08655805
1.058818,-0.3489027,0.1162836
1.030599,-0.3420348,0.1174398
0.9961855,-0.3127987,0.1233108
0.935432,-0.2651032,0.131846
0.8927174,-0.1792109,0.1342575
0.9180671,-0.1360532,0.1567057
0.9181026,-0.131327,0.2081189
0.9519041,-0.1646805,0.2177083
1.065951,-0.3258788,0.1038244
1.361117,-0.5805382,-0.004295366
1.691483,-0.6925286,0.03284429
1.488103,-0.5664824,0.08174028
1.060454,-0.4559444,0.08093614
0.9952521,-0.415577,0.1336058
0.9758475,-0.3898537,0.114749
0.9536568,-0.4745225,-0.06373305
1.005413,-0.5335164,-0.1924417
0.9264626,-0.5244898,-0.1608366
0.9052315,-0.5224066,-0.08675029
0.8956312,-0.4720143,-0.0919421
0.8272376,-0.4136369,-0.09858189
0.8535223,-0.3159521,-0.06093727
0.8353131,-0.2423109,-0.05914147
0.8467448,-0.2523747,-0.03631405
0.8639364,-0.1991481,-0.03934329
0.731542,-0.1683809,0.02553803
0.8470374,-0.1983744,0.04818502
0.9290654,-0.2505859,0.08627631
1.00176,-0.2686117,0.1211087
1.048175,-0.2566659,0.1187577
1.021154,-0.2353246,0.1004325
1.014421,-0.197411,0.09848297
0.9872077,-0.1642317,0.1133093
0.9714535,-0.1469626,0.1656918
1.009803,-0.1313533,0.2385524
1.045468,-0.1197506,0.2591715
1.0961,-0.1397688,0.1777918
1.187434,-0.262543,0.03217779
1.454003,-0.4729367,-0.04571531
1.713091,-0.5602558,0.02899767
1.515116,-0.486765,0.1433262
1.210813,-0.4493716,0.1888775
1.236751,-0.4246091,0.1994779
1.18808,-0.3421021,0.09388334
1.042561,-0.2924909,-0.08975607
1.104689,-0.290146,-0.1101312
1.100795,-0.3159669,-0.09058284
1.007265,-0.3252809,-0.1570706
0.9917805,-0.3026701,-0.1343371
0.9045428,-0.295429,-0.06728963
0.7821905,-0.2695926,-0.02986582
0.7438575,-0.2676384,0.006441026
0.7481993,-0.2869721,-0.002508725
0.684227,-0.2465171,-0.0008912867
0.5986686,-0.1981022,-0.001194973
0.6046171,-0.1264018,-0.05400207
0.6044735,-0.06391764,-0.06372001
0.6459512,-0.069041,-0.04847478
0.7766485,-0.06678919,-0.05350703
0.889549,-0.08555195,-0.04311947
0.992081,-0.1068832,-0.0435214
1.03415,-0.07500856,-0.04130125
1.033139,-0.03893976,-0.02379056
1.061153,-0.00241957,-0.01188738
1.093848,0.01508314,0.0215247
1.124021,0.0187709,0.06188709
1.111532,0.04507261,0.07590361
1.108936,0.06669794,0.06514485
1.16338,0.04841761,0.04175841
1.247414,-0.04171514,-0.01444567
1.391469,-0.162097,-0.1172438
1.519547,-0.2218175,-0.1649111
1.57929,-0.2596787,-0.1345366
1.589681,-0.3669738,-0.1508957
1.521801,-0.4475493,-0.2299558
1.397175,-0.4190766,-0.2768061
1.212216,-0.3930032,-0.2224917
1.041416,-0.3616175,-0.1262588
1.02503,-0.2936037,-0.09301227
1.052977,-0.2613361,-0.07619069
1.022759,-0.2385784,-0.05863261
1.027372,-0.2124431,-0.07560887
0.9943135,-0.1733026,-0.0612613
0.8442633,-0.1175651,-0.04623582
0.6960718,-0.1108888,-0.05606295
0.5835694,-0.1265217,-0.03853504
0.5145549,-0.1299134,-0.02592864
0.4818116,-0.1290858,0.01335317
0.4621338,-0.1294319,0.06888001
0.5461813,-0.1532628,0.06819898
0.6955505,-0.1825436,0.04909911
0.8478915,-0.218537,0.02908353
1.003969,-0.2769159,0.0340356
1.086708,-0.3359068,0.06462244
1.111832,-0.3627398,0.09430454
1.110012,-0.3384775,0.1397279
1.081869,-0.2791035,0.1495047
1.031831,-0.1865379,0.1489458
0.9574731,-0.1155232,0.1888536
0.9279506,-0.1414298,0.1997914
1.000176,-0.2642058,0.1479887
1.284045,-0.4711412,0.07063501
1.605668,-0.5918135,0.04105398
1.487816,-0.5087571,0.04417712
1.147048,-0.4157139,0.05673157
1.043467,-0.3705081,0.09287969
1.057597,-0.3471811,0.01925564
1.102448,-0.3965712,-0.1217146
1.109328,-0.3966188,-0.1520687
1.053579,-0.3581267,-0.1284599
1.039447,-0.3385642,-0.1012031
0.8839103,-0.2499777,-0.06084823
0.7163256,-0.201371,-0.02341526
0.7039419,-0.218072,-0.008264465
0.6300636,-0.1970659,-0.02173519
0.5835182,-0.1761873,-0.02403675
0.5911548,-0.1459689,-0.0487516
0.5738156,-0.101605,-0.06947717
0.5982551,-0.08128265,-0.05157285
0.6662834,-0.1015662,-0.06859112
0.821163,-0.1369892,-0.08162673
0.9859833,-0.1446857,-0.08773564
1.080699,-0.1492399,-0.1023606
1.10486,-0.1188105,-0.07497876
1.101835,-0.0120366,-0.02870721
1.149826,0.1236068,0.03187446
1.142211,0.1577489,0.04531834
1.090788,0.07500619,0.02424001
1.070199,0.05198114,0.06030044
1.059629,0.03199036,0.05290949
1.134047,-0.0697815,-0.008196138
1.290044,-0.1925927,-0.09231238
1.430477,-0.2989972,-0.1955614
1.485577,-0.2604674,-0.1686377
1.54699,-0.2493617,-0.121982
1.604891,-0.3863589,-0.1769478
1.4559,-0.4116951,-0.1921317
1.256017,-0.3739128,-0.2132753
1.140936,-0.3560996,-0.2083133
1.065844,-0.3400251,-0.1197127
1.100083,-0.3674568,-0.1046008
1.095938,-0.3562551,-0.08009338
1.037856,-0.3401671,-0.002531771
0.9972421,-0.2930969,0.01271304
0.8682669,-0.1798429,0.005077003
0.7518028,-0.1008485,-0.03500438
0.6517682,-0.03759652,-0.06935095
0.5519146,-0.04647711,-0.04186382
0.5058559,-0.09242398,-0.003968841
0.459927,-0.08593258,0.04118883
0.5069275,-0.1325081,0.06345452
0.5819081,-0.1839751,0.05561231
0.6757844,-0.2001217,0.04237122
0.8762561,-0.2533108,0.03401739
0.9933023,-0.3032089,0.06760857
1.068847,-0.330039,0.1259568
1.1273,-0.3210052,0.1662529
1.100918,-0.2609922,0.1622153
1.105964,-0.191358,0.1439415
1.042828,-0.1427933,0.1469443
0.939081,-0.1093155,0.152525
0.9367444,-0.09103781,0.1637327
0.9949024,-0.166682,0.1621798
1.207401,-0.3580163,0.1528893
1.523144,-0.5597234,0.1506899
1.575715,-0.6273351,0.1192692
1.269521,-0.4999128,0.09210489
1.008146,-0.3892611,0.0902506
1.01627,-0.414699,0.03591812
1.07151,-0.4188834,-0.09346794
1.0602,-0.3995837,-0.1789176
1.044899,-0.3798438,-0.155596
1.022624,-0.3066597,-0.1151848
0.9349159,-0.2450211,-0.06929196
0.8374058,-0.2422756,0.001716085
0.7871323,-0.2734063,0.0428206
0.7178265,-0.2771825,0.06175107
0.6777774,-0.2197291,0.03837246
0.6488082,-0.1220694,-0.029106
0.5999438,-0.0421033,-0.05184097
0.6487076,-0.04078262,-0.04100124
0.729137,-0.04380166,-0.03324652
0.8108713,-0.02979126,-0.01308455
0.9424487,-0.05131172,0.005498126
1.013016,-0.03464524,0.01015561
1.008003,-0.002057814,0.002348075
1.008951,0.01233714,-0.0001840679
1.033794,0.05033508,0.004563157
1.033339,0.0225338,0.0232593
1.002528,-0.05273918,0.07639603
1.00224,-0.06676684,0.101919
0.9893796,-0.05847928,0.07537448
0.9759921,-0.05763317,0.05067618
1.032728,-0.07239903,0.02923195
1.115636,-0.10859,0.0154735
1.200687,-0.12624,0.01710794
1.280007,-0.1144233,-0.0004898997
1.361792,-0.1189047,-0.02836483
1.457444,-0.2244152,-0.03099995
1.524512,-0.3678341,-0.06892544
1.510058,-0.3975968,-0.1638655
1.375642,-0.3784818,-0.1955131
1.229618,-0.3871578,-0.1582086
1.144017,-0.3619498,-0.1104371
1.049679,-0.3156671,-0.03053135
0.9893973,-0.281723,0.008283695
0.9985859,-0.2547861,-0.0166297
1.023636,-0.2516637,-0.01489622
1.027506,-0.2410261,-0.01660254
0.9910248,-0.198601,-0.03628305
0.9079965,-0.1604923,-0.03196959
0.8033416,-0.145574,-0.0358259
0.7354837,-0.1595856,-0.03778457
0.704868,-0.1657421,-0.01909253
0.6864623,-0.1467407,-0.005224577
0.678909,-0.1442736,0.008426144
0.7070768,-0.1460417,0.02701097
0.7820116,-0.152743,0.06156888
0.8407282,-0.1700896,0.09545143
0.88652,-0.1728382,0.1015947
0.9265986,-0.1791058,0.1003689
0.922126,-0.1874974,0.101945
0.9038214,-0.1861523,0.1284606
0.8908771,-0.1739404,0.1656928
0.8960465,-0.1490191,0.167065
0.9163858,-0.1125548,0.1656533
0.9369818,-0.04772624,0.1879291
0.965655,-0.01139094,0.2191258
0.9858728,-0.0633109,0.2430402
1.03847,-0.1526733,0.2547541
1.126333,-0.2235008,0.2653601
1.174555,-0.2505037,0.2639156
1.257077,-0.306857,0.2434072
1.533967,-0.5350472,0.1803562
1.887282,-0.7773069,0.1003562
1.835241,-0.698894,0.1092751
1.271868,-0.4229183,0.1490134
0.8555292,-0.3050258,0.1243458
0.9246172,-0.3710915,0.09226425
1.013477,-0.4858984,-0.003606975
1.012317,-0.5361081,-0.1869199
1.187032,-0.5280253,-0.2641379
1.177706,-0.5018742,-0.1953527
0.96294,-0.4111191,-0.1235142
0.9792836,-0.3615136,-0.09734304
0.9310378,-0.3342234,-0.07228757
0.854751,-0.2377351,-0.06386914
0.9082274,-0.1992856,-0.08955738
0.7844624,-0.1797239,-0.092804
0.7450828,-0.1634197,-0.1073915
0.7411989,-0.1886701,-0.1283867
0.6459421,-0.1965173,-0.08554199
0.6950375,-0.2363005,-0.0264948
0.6923131,-0.2410658,0.02252734
0.7513237,-0.1855441,0.02658587
0.8886299,-0.1225318,-0.02095425
0.9221784,-0.02137247,-0.04282435
0.9807054,0.04405744,-0.03959882
0.9841616,0.06664779,-0.02279363
1.006156,0.06467507,-0.002307893
1.057175,0.04978476,0.0284181
1.043816,0.08056599,0.06969314
1.054746,0.1059403,0.07303942
1.045647,0.1158973,0.06791343
1.110839,0.08770952,0.05929971
1.227354,-0.007478315,0.03397401
1.281167,-0.07553503,0.01750335
1.382923,-0.11047,-0.01455996
1.526471,-0.187705,-0.03597345
1.616763,-0.3373411,-0.04701713
1.601488,-0.4746506,-0.1468944
1.541898,-0.5083482,-0.281265
1.37822,-0.4726079,-0.2832135
1.121965,-0.3994013,-0.1979564
1.045985,-0.326125,-0.08539497
0.9946413,-0.2532465,0.07186783
0.9257635,-0.2237691,0.0560083
1.000395,-0.2380922,-0.05709948
0.9269022,-0.1385302,-0.004657176
0.8293264,-0.09109547,-0.01205532
0.8257969,-0.1307814,-0.0601848
0.6327109,-0.05579296,-0.02719305
0.5391881,-0.07090432,-0.06461263
0.5971989,-0.1255042,-0.02779485
0.5244047,-0.1162236,0.04396222
0.513486,-0.1933977,0.05342253
0.6160943,-0.2098734,0.09330026
0.7555855,-0.2012324,0.05813763
0.9156554,-0.2384216,0.03153161
1.008143,-0.2476965,0.03987381
1.050099,-0.3126545,0.03464932
1.042732,-0.3533855,0.1057126
1.013322,-0.3425056,0.1410114
0.9808241,-0.3151654,0.1648587
0.9407976,-0.2363735,0.2006376
0.9636591,-0.2057907,0.1803054
1.005373,-0.225041,0.1974518
1.079335,-0.2725873,0.2081926
1.316194,-0.4087671,0.1897841
1.561224,-0.5590359,0.1721186
1.493774,-0.5902839,0.1340693
1.229275,-0.5567871,0.1217716
1.091072,-0.5407104,0.1254468
1.061765,-0.4629585,0.1018041
1.082295,-0.421922,-0.01969521
1.061635,-0.4344281,-0.1973675
0.9720536,-0.3686447,-0.2395417
0.9869115,-0.3498307,-0.1594066
0.9443454,-0.3043221,-0.1017808
0.8311052,-0.2234351,-0.07293857
0.8242475,-0.2724812,-0.03355269
0.7409033,-0.2567386,-0.002539755
0.6415201,-0.184159,0.01401292
0.6162228,-0.1381629,-0.003273894
0.5786816,-0.0457744,-0.04809626
0.6106535,-0.02194098,-0.06556719
0.6770339,-0.03731743,-0.07821769
0.7734195,-0.08016396,-0.06783934
0.9079202,-0.1844887,-0.03939568
0.9977812,-0.2205433,-0.05059654
1.067872,-0.1989812,-0.04696159
1.086095,-0.1394411,-0.03938393
1.05497,-0.02532817,-0.03207521
1.045217,0.06956366,0.0137695
1.041544,0.0864603,0.03644262
1.039401,0.04737767,0.02323005
1.064305,0.02302682,-0.001591631
1.134635,-0.01668264,-0.01348387
1.219056,-0.08087629,-0.01521238
1.260856,-0.1117672,-0.04680711
1.293112,-0.145832,-0.1078938
1.400632,-0.2212746,-0.1656077
1.531952,-0.3002874,-0.1212495
1.548709,-0.3602682,-0.06497602
1.451714,-0.4275678,-0.1735135
1.290723,-0.4260565,-0.2630006
1.112187,-0.368182,-0.2091855
1.00641,-0.3867727,-0.1268559
0.9661159,-0.3604364,-0.03111985
0.9466346,-0.2998907,0.01784336
0.9527916,-0.3091927,0.006875891
0.9809343,-0.2478235,0.04101729
1.005427,-0.1939388,0.04065621
0.9821863,-0.2051769,-0.02762942
0.9273717,-0.1898607,-0.04997246
0.8689731,-0.2034097,-0.05134346
0.7733275,-0.2026029,-0.0254373
0.6525761,-0.1649183,0.02924984
0.5783383,-0.1171094,0.01923933
0.5787403,-0.06239166,0.007152703
0.6095108,-0.06746259,0.01380005
0.6702671,-0.1087902,0.003059169
0.7806987,-0.1792295,0.05052983
0.8707659,-0.2569644,0.1153737
0.9277452,-0.2770895,0.1221167
0.9865343,-0.2706837,0.101669
1.009105,-0.2308355,0.09737594
1.001378,-0.1758624,0.1096998
0.9994223,-0.1608197,0.1195936
0.9893221,-0.1656594,0.1685129
0.9856283,-0.1640589,0.235655
1.029581,-0.1796536,0.2266261
1.09698,-0.2930144,0.1507899
1.211997,-0.5171306,0.09152138
1.501223,-0.710203,0.07429107
1.697066,-0.6858416,0.05246315
1.361653,-0.5057485,0.03491723
0.9565788,-0.423069,0.02131944
1.022827,-0.4619401,-0.04602544
1.09444,-0.5100077,-0.1276706
0.9914038,-0.5088048,-0.1927327
1.009181,-0.4739149,-0.2140184
0.9984601,-0.4475983,-0.1514636
0.9598657,-0.4028612,-0.1266945
0.9728847,-0.3700935,-0.1446619
0.9187953,-0.3144137,-0.1064706
0.8827797,-0.2337106,-0.08763745
0.8374048,-0.2273786,-0.09925279
0.772846,-0.2007569,-0.1146157
0.7599768,-0.1650925,-0.1342941
0.6931575,-0.1819791,-0.1123342
0.6558163,-0.1786377,-0.07490325
0.6869144,-0.1804337,-0.03982462
0.7100547,-0.1532833,-0.03606607
0.8128265,-0.08701626,-0.0750385
0.9362532,-0.03784523,-0.1022438
0.9860183,0.001603605,-0.1185694
0.9952687,0.03496086,-0.0971833
0.9807427,0.08569276,-0.06156556
0.9780937,0.09218291,-0.04871328
0.9951769,0.04747182,0.004552001
1.010215,0.03545057,0.05705487
1.019991,0.01120412,0.06694314
1.051817,-0.02247545,0.08241649
1.127877,-0.02515365,0.1000489
1.20233,-0.03227225,0.1069264
1.280899,-0.05370139,0.06983786
1.419778,-0.07755951,-0.06165362
1.550332,-0.1170187,-0.1886799
1.541686,-0.2249174,-0.1612536
1.38856,-0.3518191,-0.1190969
1.213166,-0.3567352,-0.2029007
1.121491,-0.2966806,-0.2264942
1.103995,-0.3041939,-0.18287
1.131328,-0.3152067,-0.1695981
1.194803,-0.30539,-0.1102905
1.197822,-0.32299,-0.1045587
1.135823,-0.2930198,-0.1646007
1.074938,-0.2369517,-0.1788905
0.9495348,-0.2104338,-0.1865944
0.7925934,-0.1742459,-0.1445269
0.6664137,-0.1616855,-0.06822797
0.5768714,-0.1591779,-0.01946276
0.5615969,-0.1193326,0.01030942
0.5538825,-0.05567219,-0.005824349
0.5690968,-0.01078042,-0.006983552
0.6268832,-0.01645708,0.004519305
0.6844286,-0.01406164,-0.002878636
0.8157871,-0.01099821,0.02075717
0.925856,-0.05903548,0.04219159
0.9790383,-0.1701047,0.06448178
1.072612,-0.3121649,0.09301811
1.077215,-0.3580745,0.1018919
1.042444,-0.3526933,0.1321649
1.073879,-0.3498362,0.1597912
1.040351,-0.2599251,0.1385894
1.00613,-0.185117,0.1219666
1.036932,-0.1774927,0.1534955
1.064633,-0.1810412,0.1661463
1.13722,-0.2727534,0.1242717
1.257806,-0.484757,0.09156252
1.427837,-0.6709046,0.08133105
1.479692,-0.6064999,0.06833482
1.149596,-0.4068103,0.06131143
0.8174294,-0.3066441,0.05346645
0.8963385,-0.2533606,-0.01557203
1.056398,-0.3057019,-0.1409624
1.07388,-0.3849184,-0.2100665
1.078495,-0.3531674,-0.1881402
0.9886339,-0.3625088,-0.1258925
0.8180523,-0.3428015,-0.04597848
0.739781,-0.3154832,0.0360888
0.6868188,-0.3386653,0.05555561
0.6301425,-0.262733,0.01016357
0.6038922,-0.1825693,-0.02548891
0.5835139,-0.08053405,-0.08167127
0.6266233,0.0121707,-0.1212529
0.6954605,-0.02567068,-0.08464006
0.7891061,-0.06727853,-0.07491024
0.9234745,-0.1309045,-0.07818864
0.99015,-0.1471813,-0.05076294
1.029149,-0.08040442,-0.02758863
1.046639,-0.05495902,0.004452873
1.011807,0.0176104,0.0255987
1.017089,0.08899632,0.05164765
1.028654,0.0947411,0.07927464
1.020203,0.08716082,0.06476772
1.056125,0.04460637,0.04555934
1.131653,-0.03173121,0.01165047
1.244291,-0.1746616,-0.05601907
1.371648,-0.2640493,-0.1372257
1.507289,-0.2208753,-0.1953053
1.659997,-0.2520729,-0.1772975
1.709357,-0.3642509,-0.189223
1.614368,-0.3951749,-0.2512843
1.419458,-0.3494035,-0.2082814
1.131287,-0.2964802,-0.1154191
0.9487823,-0.2525161,-0.04773726
0.9625523,-0.2193147,-0.02311317
0.9640557,-0.2103461,-0.0677374
0.9234378,-0.2045386,-0.0630835
0.8958244,-0.1860395,-0.04556375
0.8341679,-0.1561216,-0.0687638
0.783588,-0.1299813,-0.04258159
0.7627305,-0.1427527,-0.03796856
0.7337624,-0.153319,-0.04520096
0.6760552,-0.1301836,-0.0116191
0.5814193,-0.1254542,0.01564691
0.5450767,-0.1404785,0.05673999
0.570251,-0.1471912,0.07308455
0.5967957,-0.1476995,0.06167045
0.717014,-0.1561454,0.05313056
0.899131,-0.1944225,0.03605423
1.016149,-0.2405106,0.050517
1.06363,-0.262987,0.07905704
1.057013,-0.2658988,0.115909
1.037879,-0.2540048,0.1532192
1.029025,-0.2321582,0.152084
1.021987,-0.2002291,0.1480691
1.031335,-0.1833658,0.152619
1.040942,-0.1943564,0.1842553
1.054636,-0.2179457,0.2164763
1.142294,-0.3257658,0.1683269
1.416202,-0.5105236,0.1012522
1.679467,-0.5764429,0.07646903
1.491654,-0.4832784,0.06566763
1.101114,-0.4025194,0.08818431
0.983431,-0.3868878,0.1148381
0.9868869,-0.3919222,0.03294415
1.03051,-0.4133105,-0.1156304
1.085014,-0.4108649,-0.1850702
1.02695,-0.3704998,-0.1634501
0.9440697,-0.2923157,-0.1029149
0.7785163,-0.210541,-0.02781811
0.6434721,-0.2385425,0.04005551
0.6339264,-0.2702393,0.05340904
0.5561773,-0.1981379,0.01517594
0.5537568,-0.12857,-0.01457542
0.6134734,-0.03862924,-0.05769987
0.6446948,0.01549261,-0.09632711
0.7847389,-0.0483254,-0.096065
0.9045645,-0.09862252,-0.1036157
0.9899766,-0.1396123,-0.09433548
1.043949,-0.1617404,-0.07258514
1.014364,-0.1025833,-0.05424766
1.047808,-0.04835657,-0.0006177794
1.079346,0.009234708,0.03612094
1.077533,0.04617425,0.03289675
1.107997,0.01543938,0.02814144
1.106567,0.008690256,0.01587513
1.129325,-0.01403433,-0.005395135
1.238186,-0.1265961,-0.04957927
1.389833,-0.2528169,-0.1449612
1.470412,-0.2795301,-0.2171475
1.507145,-0.2519367,-0.1856691
1.623164,-0.3488462,-0.1596346
1.604135,-0.4516267,-0.1888349
1.402651,-0.4027416,-0.1897311
1.212546,-0.3757925,-0.2027759
1.036163,-0.3829118,-0.2030844
1.011951,-0.3088983,-0.1372271
1.018321,-0.2394663,-0.09406658
0.9241411,-0.2173108,-0.05810711
0.9699018,-0.1640754,-0.009025794
0.9136462,-0.07796019,-0.01044289
0.7510948,-0.05034346,-0.04287774
0.7318517,-0.06632343,-0.05242055
0.6134134,-0.05539002,-0.02192597
0.5273272,-0.06113028,0.008345053
0.5562472,-0.1054615,0.02505343
0.5599186,-0.1627552,0.04189826
0.6359198,-0.21005,0.04676376
0.7205575,-0.2401761,0.06006499
0.8437524,-0.2879062,0.0784171
0.9101426,-0.2986844,0.08494535
0.9146412,-0.2644681,0.09131213
1.059222,-0.2739618,0.1050761
1.052406,-0.2590937,0.1114608
0.9549206,-0.189623,0.1198858
0.9912059,-0.1287906,0.1730358
0.9513982,-0.08316996,0.2131476
0.9598491,-0.08155504,0.221723
1.033438,-0.06840523,0.2490292
1.069243,-0.08465924,0.2214804
1.281469,-0.2594276,0.1402003
1.603971,-0.4616657,0.09507736
1.712236,-0.5524068,0.09167494
1.445143,-0.5149627,0.126449
1.133807,-0.4392547,0.1582844
1.135896,-0.4074558,0.111537
1.163482,-0.3460347,-0.0156462
1.073211,-0.3160786,-0.1471205
1.019455,-0.3134564,-0.1637639
0.9386545,-0.2641815,-0.08045446
0.8425438,-0.2440974,-0.04338988
0.7705393,-0.2299934,-0.0218683
0.6981873,-0.2357878,0.02460804
0.6392431,-0.2366619,0.007163297
0.5969512,-0.1865271,-0.02125874
0.5668113,-0.1504765,-0.03316617
0.5466548,-0.07679586,-0.07285996
0.6015566,-0.01758231,-0.09275125
0.717742,-0.02010643,-0.09525623
0.8281876,-0.04392899,-0.09380378
0.9409934,-0.1191258,-0.08541263
1.028572,-0.1561593,-0.07627748
1.087463,-0.1415407,-0.04527116
1.109961,-0.08806887,0.005272442
1.109446,0.03606948,0.06800673
1.127007,0.1277311,0.08368711
1.130348,0.1431097,0.0225496
1.1738,0.07265131,-0.03072994
1.29829,-0.08380702,-0.05655626
1.443942,-0.2674228,-0.1031641
1.588916,-0.3655738,-0.1676719
1.662849,-0.3210319,-0.1779724
1.569865,-0.3148274,-0.1542499
1.369322,-0.3596406,-0.2028364
1.198138,-0.3291251,-0.2307741
1.072958,-0.3225852,-0.1612125
1.032553,-0.3266035,-0.1065625
1.059617,-0.2793948,-0.08045988
1.01442,-0.2565818,-0.03973762
1.010952,-0.2595909,-0.02051755
1.045577,-0.2522501,-0.03815426
0.9480965,-0.1978151,-0.03803218
0.8438485,-0.1271041,-0.03706037
0.763387,-0.1197421,-0.07986737
0.6682286,-0.1440675,-0.09261429
0.5678599,-0.1575222,-0.06521503
0.4514011,-0.1575651,-0.01646421
0.9428952,-0.1728488,0.1383262
0.9691015,-0.1742233,0.1997793
1.015395,-0.1662526,0.2367844
1.020203,-0.2015846,0.2044888
1.110423,-0.3168275,0.09121855
1.367668,-0.5186188,0.01486951
1.634698,-0.656448,-0.007589563
1.529464,-0.6378466,0.001384915
1.204987,-0.5579413,0.08122325
1.071202,-0.46242,0.154197
1.02873,-0.4313162,0.07353606
1.078116,-0.4611413,-0.1118863
1.121758,-0.4235621,-0.2003892
1.051099,-0.3893493,-0.1956871
1.044452,-0.3613816,-0.1561218
0.9110287,-0.2847624,-0.08026717
0.7178377,-0.2743739,-0.03165166
0.6625062,-0.2860279,0.03011008
0.5665767,-0.2515832,0.05900958
0.527254,-0.2113836,0.01000722
0.536457,-0.1362499,-0.02085934
0.5558353,-0.05354761,-0.07713408
0.6688265,-0.02802998,-0.1134816
0.7677166,-0.06556921,-0.09023675
0.8962681,-0.125344,-0.09588367
1.00646,-0.1841329,-0.08323566
1.052918,-0.2122869,-0.06498178
1.08909,-0.1495108,-0.07210145
1.063593,-0.0605737,-0.05081209
1.070522,-0.004462084,-0.01605594
1.077754,0.008556651,0.01408392
1.045073,-0.02367728,0.04774262
1.047791,-0.01495859,0.0688663
1.05017,-0.006796763,0.04068485
1.105104,-0.04273561,0.003422782
1.210595,-0.08960374,-0.009020104
1.317898,-0.1636064,-0.07158726
1.417564,-0.1620011,-0.150722
1.4697,-0.1429772,-0.1712232
1.526869,-0.2579717,-0.1656788
1.577798,-0.3952411,-0.1787719
1.509401,-0.4801988,-0.2487662
1.30905,-0.4951356,-0.2963861
1.121034,-0.4511323,-0.212167
1.042438,-0.4088841,-0.0814201
1.028905,-0.3368141,-0.01219838
1.044034,-0.2815677,-0.00254705
1.034933,-0.2541267,-0.01405295
1.003564,-0.1782916,-0.02034576
0.9228099,-0.09688963,-0.03811868
0.7509548,-0.04014404,-0.0640486
0.6213513,-0.02070468,-0.06411087
0.5381272,-0.0433107,-0.04801764
0.4697083,-0.06734627,-0.03212666
0.4774335,-0.1101753,-0.002387024
0.5153745,-0.1748402,0.02733547
0.6249262,-0.2344559,0.02902182
0.8047425,-0.2910135,0.03415213
0.8992268,-0.3274358,0.0760126
0.9393059,-0.346255,0.1073616
1.040488,-0.384706,0.09488408
1.108704,-0.4013122,0.08791236
1.091121,-0.3496498,0.1053095
1.091853,-0.2953492,0.1185731
1.055959,-0.2547079,0.1403388
0.9800152,-0.1969846,0.1709303
1.039282,-0.1983266,0.1696337
1.281076,-0.35524,0.1313801
1.509814,-0.5818699,0.07355678
1.403309,-0.6394652,0.0338608
1.155339,-0.5533762,0.05024793
1.138046,-0.5326232,0.05038133
1.139107,-0.5130128,-0.02921694
1.107524,-0.441193,-0.1155248
1.116235,-0.410606,-0.1399158
1.035515,-0.3621393,-0.1111924
0.9509467,-0.2642225,-0.08061303
0.8738303,-0.2199608,-0.06296476
0.8173955,-0.234172,-0.03812693
0.7230514,-0.221252,-0.009209009
0.5532233,-0.2029115,0.02477198
0.5769429,-0.2111043,0.008931673
0.5699122,-0.1588517,-0.04612411
0.4651739,-0.09941716,-0.05137936
0.5758478,-0.1126897,-0.05152818
0.6527926,-0.1018747,-0.06099263
0.7215159,-0.09003893,-0.06788314
0.9265468,-0.121951,-0.08157807
1.061512,-0.1278022,-0.0589106
1.108654,-0.09901879,-0.0400864
1.056816,-0.02635529,-0.009670782
1.037003,0.05273891,0.04398278
1.071965,0.05255143,0.05789698
1.039428,0.02577989,0.07686636
1.07012,0.02737408,0.08212359
1.076771,0.003911173,0.05669715
1.070732,-0.03753165,0.0469168
1.17721,-0.09735232,0.03108952
1.258769,-0.1873551,0.000325402
1.345929,-0.1908686,-0.06981233
1.455183,-0.1751824,-0.1268905
1.564942,-0.2987489,-0.1166398
1.633177,-0.4179206,-0.1755918
1.507134,-0.4198753,-0.3033714
1.29043,-0.3900533,-0.3087696
1.106407,-0.3843991,-0.1867471
1.027074,-0.3683733,-0.06630325
1.064801,-0.3317939,-0.004923569
1.060196,-0.3303685,-0.006876746
1.043464,-0.3122959,-0.003841973
1.008422,-0.2501281,0.01447983
0.8697358,-0.1736676,-0.02044314
0.7363406,-0.08983229,-0.0545649
0.6395375,-0.09251379,-0.06725104
0.5571283,-0.1295131,-0.06904553
0.4921083,-0.1316982,-0.02715126
0.4230991,-0.1656709,0.007065184
0.4161165,-0.1974694,0.04501225
0.4796513,-0.25257,0.08053965
0.5531975,-0.320604,0.0774879
0.7019557,-0.3250395,0.1154614
0.927696,-0.3286908,0.1542668
1.112041,-0.3080762,0.1181722
1.234805,-0.2531531,0.06815475
1.250222,-0.2424738,0.06226628
1.125754,-0.2323256,0.1091496
0.9944293,-0.2160033,0.1531101
0.9376748,-0.209633,0.1501352
0.9376311,-0.16193,0.1625714
0.954153,-0.1159043,0.2233553
0.9967215,-0.1469095,0.2268384
1.210942,-0.3404473,0.1247584
1.648035,-0.684317,0.03998715
1.936819,-0.8379112,0.06162741
1.697032,-0.6760314,0.1075815
1.216422,-0.4681313,0.1249763
0.9231354,-0.3093978,0.1782053
0.9116864,-0.3093381,0.1423131
1.006979,-0.4206304,-0.03019428
0.9294265,-0.3838663,-0.1248904
0.9397595,-0.4032983,-0.1455461
1.035226,-0.4567019,-0.126093
0.9046001,-0.3604255,-0.08102953
0.8567793,-0.3794099,-0.05421379
0.7936455,-0.3881659,0.03400159
0.7096028,-0.3171908,0.04111326
0.7763071,-0.2919472,-0.03069732
0.6665347,-0.1582948,-0.04133245
0.6827986,-0.07800915,-0.1067768
0.7866505,-0.05407148,-0.1331856
0.71831,-0.02610078,-0.07755463
0.8118555,-0.1130344,-0.05241123
0.8674988,-0.1289436,-0.02931417
0.9093207,-0.1208585,-0.0366372
1.02924,-0.09652338,-0.03600594
1.016894,0.01018155,-0.02258318
1.039669,0.01410103,-0.02465342
1.040874,0.002068718,0.03707689
1.036497,-0.003396486,0.101564
1.082573,-0.02814277,0.1133547
1.050007,0.01134797,0.1194894
1.074294,0.01226981,0.1279072
1.165522,-0.07036562,0.09429885
1.299535,-0.220856,-0.01899578
1.426957,-0.3451386,-0.120837
1.436845,-0.4023243,-0.1249987
1.397361,-0.4563484,-0.1065067
1.285868,-0.4001411,-0.1779316
1.162532,-0.3078429,-0.2787606
1.126551,-0.324854,-0.2786025
1.139391,-0.3458661,-0.1964685
1.184574,-0.3502653,-0.112566
1.204969,-0.3679687,-0.1084233
1.198833,-0.3691162,-0.1281839
1.141134,-0.3642374,-0.07406391
1.043018,-0.3387797,-0.04414992
0.9913011,-0.2939538,-0.04756958
0.8450661,-0.2501444,-0.05045323
0.6391531,-0.1807997,-0.08857279
0.6355336,-0.1477797,-0.09491557
0.6826775,-0.1974338,-0.06181748
0.5894562,-0.208862,-0.03014753
0.5595421,-0.16615,-0.007091766
0.5899095,-0.121774,0.01304852
0.6100966,-0.05229462,0.03244509
0.783365,-0.02482021,0.01772576
0.924711,-0.06172841,0.02416185
0.9527973,-0.1132126,0.04958307
1.013527,-0.1922551,0.05280483
0.9922775,-0.2570508,0.1014548
0.990897,-0.2776645,0.1417159
1.030742,-0.2659793,0.1326811
1.00764,-0.2053878,0.1245138
1.011597,-0.1454045,0.1154395
0.9722934,-0.1236385,0.1384906
0.9515943,-0.1162353,0.1872498
0.9927661,-0.1311568,0.2285785
1.016755,-0.1574124,0.2479954
1.095231,-0.1812165,0.2304274
1.17556,-0.2797588,0.1814123
1.346677,-0.5043363,0.08688018
1.685971,-0.6939187,0.02722009
1.799288,-0.6578116,0.04608536
1.400164,-0.4792244,0.05530702
0.89929,-0.3451305,0.06810122
0.8379697,-0.3337119,0.06885404
1.000489,-0.4111628,-0.03006346
1.054354,-0.4451248,-0.1652207
1.083828,-0.4282072,-0.1914051
1.023927,-0.4219831,-0.1295221
0.8874406,-0.3855289,-0.1109633
0.7801896,-0.3362302,-0.07486788
0.6252737,-0.275173,0.0006645623
0.5849523,-0.2365588,-0.01357225
0.676663,-0.2550964,-0.04285911
0.6286032,-0.1835656,-0.05918413
0.604947,-0.09655481,-0.1366724
0.6783483,-0.1300552,-0.1608504
0.7124933,-0.1473441,-0.1405409
0.8513996,-0.1485703,-0.1608609
0.9567356,-0.199614,-0.1088565
0.9903055,-0.232873,-0.006950554
1.087016,-0.2191544,0.01218763
1.055469,-0.1611765,-0.002311516
1.027785,-0.06912695,-0.01325262
1.054515,-0.001779846,-0.03541176
0.9934158,0.009674347,-0.02705855
0.9987244,0.006379673,0.001460245
0.9876592,-0.01444941,0.01721617
0.9450344,-0.04221947,0.01716059
0.9565461,-0.02799335,0.008409313
0.9330636,0.007496863,0.01214512
0.9577157,0.03738814,0.01910663
1.038076,0.0116794,0.0223877
1.149683,-0.05523798,0.02374385
1.279519,-0.07110099,-0.005670089
1.353955,-0.05459545,-0.05920479
1.436814,-0.06675341,-0.08850648
1.468181,-0.1810694,-0.07989195
1.448701,-0.352572,-0.0953675
1.474157,-0.4001442,-0.1777317
1.405536,-0.3783097,-0.2502637
1.239134,-0.4020177,-0.2515294
1.102991,-0.3959026,-0.2032822
1.05114,-0.3701108,-0.1442822
1.09406,-0.3745181,-0.1171623
1.101986,-0.3572629,-0.1099922
1.057527,-0.3263447,-0.09218756
1.035387,-0.2913327,-0.07543583
0.9636504,-0.2208099,-0.06722494
0.8038282,-0.1456752,-0.06555985
0.6141195,-0.09326201,-0.06629275
0.523423,-0.1024649,-0.05879186
0.5110402,-0.1567352,-0.02498373
0.4380127,-0.1778166,0.02080531
0.4640666,-0.2100407,0.04510096
0.6211611,-0.2397207,0.0578581
0.7395165,-0.2149466,0.04138129
0.8980285,-0.1980366,-0.01045344
1.056267,-0.1911958,-0.02608529
1.132421,-0.2203484,-0.003060063
1.157639,-0.2842905,0.0302385
1.100992,-0.2852336,0.09417047
1.050799,-0.2504061,0.1342003
1.026832,-0.2125778,0.1204991
1.010094,-0.1636745,0.1228057
1.027076,-0.146238,0.1450216
1.021071,-0.1554382,0.1593951
1.026601,-0.1969007,0.1517856
1.109812,-0.3320395,0.09312186
1.413852,-0.5274129,0.0299378
1.727331,-0.6335091,0.01562422
1.468441,-0.6242195,0.02166539
1.042292,-0.5769502,0.05979907
1.065986,-0.4969253,0.1035937
1.095324,-0.4498765,-0.002585319
1.012541,-0.4458323,-0.1791757
1.05862,-0.4041144,-0.1944827
1.002919,-0.3619261,-0.1544335
0.920514,-0.3148371,-0.1755925
0.9027435,-0.2914447,-0.1698121
0.8184041,-0.3261723,-0.1425649
0.7370091,-0.3106391,-0.0863844
0.6377655,-0.300473,-0.002172561
0.5836182,-0.3166013,0.02310836
0.5661879,-0.2618982,-0.0003018193
0.5280503,-0.1868253,-0.03320502
0.5967489,-0.09731298,-0.08483041
0.6813323,-0.05329141,-0.1254001
0.7949915,-0.0969988,-0.1161126
0.9328474,-0.1171844,-0.08662733
0.9927727,-0.143147,-0.0573422
1.087904,-0.1579902,-0.0342102
1.118856,-0.09866097,-0.04882587
1.07608,-0.03400206,-0.05234426
1.076537,0.02657664,-0.02193969
1.052862,0.05438725,0.007073851
1.037663,0.03466001,0.03407987
1.053406,0.01909267,0.01177845
1.11502,-0.05245245,-0.04093272
1.217113,-0.2004426,-0.0886282
1.316815,-0.2862148,-0.1793714
1.440844,-0.2720878,-0.2317668
1.53396,-0.3313178,-0.1807918
1.551148,-0.4658544,-0.1534582
1.480901,-0.4757104,-0.216804
1.325463,-0.4235265,-0.2575257
1.150375,-0.4285151,-0.2036519
1.053283,-0.4320414,-0.1434388
1.078362,-0.4389045,-0.1259721
1.07304,-0.4355882,-0.1152067
1.002734,-0.394833,-0.07919216
0.9414655,-0.3253524,-0.02084001
0.8328165,-0.2080656,-0.01365539
0.7422465,-0.1110997,-0.04661529
0.6823715,-0.08461865,-0.0570147
0.5899878,-0.1015528,-0.06748149
0.5205802,-0.1226549,-0.04805741
0.4667929,-0.1301692,0.01481078
0.4520552,-0.1663488,0.0711493
0.5137682,-0.1839025,0.1033204
0.661846,-0.1743668,0.0816572
0.8907989,-0.2047525,0.04597305
1.006048,-0.2195999,0.01868453
0.9888801,-0.2256494,-0.03383532
1.057645,-0.264495,-0.01066699
1.136235,-0.3060153,0.07360377
1.065143,-0.3261633,0.108042
0.9740259,-0.3037487,0.1425527
0.9662957,-0.2738649,0.1447026
0.9520071,-0.2265617,0.1098145
0.9346055,-0.1691524,0.1192406
0.957017,-0.1640564,0.1189509
0.9631209,-0.1541079,0.1362662
0.9865136,-0.1724247,0.1672876
1.04161,-0.2907756,0.1182106
1.12798,-0.4460592,0.06076865
1.388442,-0.6031977,0.02984974
1.640791,-0.6889859,0.0001726961
1.47001,-0.6474545,-0.005176829
1.105371,-0.5540594,0.02508866
0.9724512,-0.4937588,0.05142033
0.9358238,-0.506997,-0.03918551
0.9543853,-0.5593774,-0.1832043
1.044868,-0.5959263,-0.2174118
1.031718,-0.599726,-0.1879031
1.030654,-0.5581945,-0.171786
1.005339,-0.4702105,-0.1415022
0.9110263,-0.3713132,-0.08407412
0.892752,-0.3059241,-0.06498049
0.8032784,-0.2562519,-0.1034943
0.7076039,-0.1784323,-0.1295491
0.6828692,-0.09751256,-0.1341873
0.6362587,-0.07448863,-0.1330167
0.6464306,-0.09568197,-0.1163165
0.6568377,-0.1165001,-0.08276824
0.7111669,-0.1419684,-0.05767759
0.8325302,-0.1467461,-0.07830698
0.9033904,-0.1032444,-0.1030327
0.9608012,-0.03533955,-0.1026309
0.9768116,0.02796254,-0.09896981
0.9814958,0.03982033,-0.06478107
1.017454,-0.004486433,0.003500588
1.052263,-0.03363358,0.06193415
1.101834,-0.02259061,0.07597316
1.139795,-0.02211565,0.06428327
1.225997,-0.06048254,0.07575127
1.356648,-0.1205607,0.0644681
1.432036,-0.1636347,-0.04139326
1.485114,-0.182902,-0.1571168
1.515957,-0.2783013,-0.1489998
1.440508,-0.439649,-0.1180356
1.28959,-0.4750653,-0.1995269
1.220664,-0.4212098,-0.2492008
1.202629,-0.4191842,-0.2108444
1.133139,-0.3980044,-0.1920333
1.119468,-0.3681561,-0.1748714
1.108069,-0.3642418,-0.1740724
1.009251,-0.3178254,-0.1925615
0.974786,-0.2948824,-0.1848526
0.9334109,-0.2933034,-0.1813447
0.7392936,-0.2385447,-0.1469528
0.5683039,-0.2128519,-0.07281265
0.5222386,-0.218394,-0.03590594
0.5324134,-0.198624,-0.03143581
0.5541773,-0.1637445,-0.002884507
0.5587478,-0.0862769,0.02814862
0.6300165,-0.02646926,0.007108768
0.7697023,-0.04786704,-0.008776487
0.9078138,-0.07763227,-0.007013042
1.052483,-0.1351111,-0.02380263
1.091873,-0.2629853,0.009163697
1.051967,-0.3623034,0.07237696
1.041362,-0.3822992,0.1177223
0.9921989,-0.3627192,0.1393655
0.9359013,-0.3265601,0.09896575
0.9004424,-0.2905408,0.07911515
0.8964347,-0.2667698,0.1356761
0.978585,-0.2670536,0.1592529
1.120152,-0.3427121,0.07348695
1.365401,-0.5204903,-0.03437212
1.59484,-0.6951762,-0.04480554
1.502678,-0.7274167,-0.01499963
1.191544,-0.5992662,0.05285778
0.9704238,-0.4365227,0.155713
0.9065146,-0.4028356,0.06744
1.002825,-0.4538575,-0.1220317
1.082536,-0.444519,-0.1755119
1.022826,-0.3978996,-0.1889627
0.9872929,-0.3354636,-0.1635052
0.8760469,-0.2680959,-0.09298934
0.7161373,-0.2535296,-0.06016081
0.6543512,-0.23996,-0.01309306
0.534421,-0.1979965,-0.008981586
0.4653559,-0.1587288,-0.04687124
0.4770082,-0.1172788,-0.06489495
0.505957,-0.1059202,-0.1142445
0.6546559,-0.1400729,-0.1331626
0.8052948,-0.19141,-0.1374048
0.9726679,-0.2431779,-0.1602786
1.115908,-0.2538299,-0.133237
1.135797,-0.1934223,-0.09651506
1.169873,-0.08369168,-0.03877973
1.186656,0.03488407,0.03192196
1.186826,0.0873178,0.04214163
1.214938,0.04340469,0.01998643
1.265387,-0.06776152,-0.009522174
1.386794,-0.2610328,-0.06679591
1.498677,-0.3972348,-0.2054637
1.542635,-0.3587784,-0.3162682
1.486168,-0.3961264,-0.2276919
1.335527,-0.5256864,-0.1606188
1.183362,-0.5173068,-0.2857521
1.091086,-0.490815,-0.3309175
1.064859,-0.4625173,-0.1796402
0.9884632,-0.3686262,-0.04712353
0.9531039,-0.371075,-0.05016807
1.037762,-0.3713845,-0.06496301
1.026955,-0.2847284,-0.01385564
0.9862877,-0.2490525,-0.02210082
0.916913,-0.1971319,-0.06492971
0.7085831,-0.1017084,-0.05657948
0.5778684,-0.08830875,-0.08139664
0.5123676,-0.1228336,-0.07799741
0.4533244,-0.1116186,-0.01167772
0.4725823,-0.1123742,0.0258557
0.5094519,-0.1583503,0.03623733
0.6758074,-0.1931223,0.01857902
0.9158611,-0.2512629,0.02547395
1.033277,-0.324075,0.04203198
1.14751,-0.3829936,0.04044691
1.224753,-0.4274169,0.09084613
1.156149,-0.3930288,0.1214082
1.107325,-0.3319213,0.1301299
1.079524,-0.2658706,0.1537152
0.97709,-0.1895766,0.1705236
0.9263088,-0.2207901,0.211863
1.015939,-0.4061872,0.1938952
1.35147,-0.6968759,0.1366112
1.689535,-0.7985982,0.1062453
1.371699,-0.5885995,0.03464958
0.8855046,-0.4315507,-0.03194193
1.00007,-0.4034391,-0.0513908
1.115008,-0.3960171,-0.07790291
1.046061,-0.4133342,-0.1472031
1.085901,-0.3756977,-0.1718185
0.9694736,-0.3400444,-0.1202526
0.8646716,-0.2953054,-0.1130706
0.8052822,-0.2211843,-0.06242253
0.6183252,-0.2160497,0.02094282
0.5420927,-0.1911755,-0.01078093
0.4946189,-0.1632012,-0.03806894
0.4792214,-0.1779208,-0.05904419
0.5628452,-0.1560906,-0.1118632
0.6322791,-0.164639,-0.1102422
0.8001057,-0.2063087,-0.1051319
0.9569515,-0.2277676,-0.1024471
1.055419,-0.2223495,-0.0788645
1.14387,-0.1586128,-0.06485484
1.133897,-0.06873539,-0.04022102
1.148077,0.02851895,-0.002503382
1.144874,0.09277432,0.03855752
1.09248,0.0861758,0.08434399
1.084681,0.06457142,0.1118019
1.085173,0.0110123,0.1027651
1.166171,-0.1066247,0.08688402
1.304253,-0.2112336,0.0522132
1.479414,-0.2361302,-0.08288395
1.672061,-0.2695932,-0.225632
1.636641,-0.3751423,-0.2050226
1.439564,-0.4250855,-0.191197
1.30263,-0.4164492,-0.3023039
1.166376,-0.4102249,-0.271314
1.075065,-0.3671152,-0.1312801
1.091586,-0.3457206,-0.07965275
1.079963,-0.3479416,-0.05707139
1.044273,-0.3350426,-0.07560026
1.02496,-0.3120198,-0.06311255
0.9507029,-0.2297062,-0.02499715
0.8328348,-0.1421978,-0.06342607
0.6989945,-0.1174979,-0.05134717
0.5801786,-0.1368778,-0.04833687
0.5059889,-0.1651361,-0.06884905
0.459717,-0.1776757,-0.02893623
0.4580852,-0.2047967,-0.004337453
0.5142309,-0.2296195,0.06105803
0.6336454,-0.2474026,0.08638036
0.8252589,-0.2700862,0.0393694
1.043313,-0.2837707,0.03105886
1.187221,-0.3304563,-0.004651644
1.19978,-0.3539198,0.009344214
1.143336,-0.3257482,0.08287046
1.101472,-0.2997397,0.1206742
1.05493,-0.2130239,0.1551959
0.9693219,-0.1157771,0.1513873
0.9276914,-0.1326427,0.1415042
0.917627,-0.249038,0.1399909
0.9435692,-0.4271937,0.1155414
1.28793,-0.5984285,0.09077607
1.670892,-0.6589535,-0.03329135
1.439282,-0.5854264,-0.1477995
1.066432,-0.4885272,-0.01223333
1.074563,-0.474429,0.123287
1.0202,-0.4898861,0.001945754
0.9747409,-0.4736291,-0.1097764
1.058583,-0.4216354,-0.09931456
0.9592224,-0.3226999,-0.1215951
0.8948044,-0.2285067,-0.1164827
0.8299583,-0.1869112,-0.08100529
0.6647283,-0.1849951,-0.05816866
0.6130482,-0.1956635,-0.0225574
0.5326704,-0.1970883,-0.04822693
0.5246474,-0.2085645,-0.07902235
0.6135162,-0.2107519,-0.09203207
0.6486383,-0.1908094,-0.1176876
0.7699067,-0.1835227,-0.08230485
0.8658774,-0.1544402,-0.06804856
0.9461226,-0.1210552,-0.07671664
1.044202,-0.109873,-0.05359402
1.046789,-0.07349573,-0.04900014
1.083627,-0.03603685,-0.01160842
1.11147,0.0001753171,0.04578638
1.122035,0.04195899,0.08201653
1.166586,0.0469784,0.07809623
1.165408,0.03295256,0.02336403
1.185596,0.0007037505,-0.004422571
1.237956,-0.1013672,-0.06482236
1.360004,-0.2399559,-0.2170091
1.554971,-0.2980198,-0.3101583
1.625894,-0.3460828,-0.2315406
1.499214,-0.4842594,-0.154298
1.303323,-0.520381,-0.2353936
1.222661,-0.4489401,-0.263438
1.169389,-0.4214839,-0.2057655
1.050597,-0.3583703,-0.2080808
1.067854,-0.3119153,-0.1646179
1.119534,-0.3041237,-0.1045438
1.048093,-0.2570876,-0.09769436
1.006819,-0.2659735,-0.07932936
0.9408285,-0.2454151,-0.05101042
0.7870129,-0.1796723,-0.02202043
0.689869,-0.2078737,-0.02525394
0.6370551,-0.2220921,-0.03898183
0.5818289,-0.2170817,-0.04327421
0.549687,-0.2112702,-0.05690433
0.5450461,-0.1629971,-0.03368281
0.6109081,-0.1798793,0.006971679
0.7293903,-0.22189,0.04737724
0.8476295,-0.2586964,0.06886455
0.9305248,-0.3119985,0.054504
0.9445128,-0.3183494,0.063917
0.9486635,-0.3338529,0.07754798
0.9498543,-0.3383639,0.09854148
0.9321661,-0.2866324,0.1381566
0.9413204,-0.2342288,0.1332782
0.9382605,-0.1641297,0.1289626
1.140232,-0.3076655,0.1242624
1.11697,-0.2092791,0.133981
1.093097,-0.1402382,0.1693953
1.093676,-0.1297369,0.1984323
1.125837,-0.1561057,0.1671436
1.213689,-0.3740342,0.08235073
1.464737,-0.6738037,0.0346955
1.643435,-0.6939935,0.06695319
1.384377,-0.5834819,0.1088415
1.016592,-0.5604822,0.07106867
1.005326,-0.4644329,-0.01168758
1.11362,-0.4358891,-0.135274
1.113483,-0.5118249,-0.2446099
1.104105,-0.4431877,-0.1981368
1.057753,-0.3832157,-0.120008
0.9770003,-0.319634,-0.08193213
0.8387659,-0.1732639,-0.02179786
0.6406806,-0.1685164,-0.01184285
0.5648731,-0.1692751,-0.004230341
0.5626657,-0.1093898,-0.02181924
0.5229484,-0.09837568,-0.09223635
0.5209952,-0.07261153,-0.07234975
0.5663038,-0.1118385,-0.05068916
0.6393492,-0.1685903,-0.06066867
0.717263,-0.178218,-0.03485274
0.8006163,-0.2025616,-0.05147792
0.9622994,-0.1983628,-0.06188488
1.122472,-0.1656522,-0.05220289
1.14998,-0.06835821,-0.04139475
1.140958,0.03377302,0.0147026
1.139931,0.05807967,0.05432891
1.10988,0.07526586,0.07587184
1.130343,0.06458917,0.08501031
1.175469,0.02907076,0.05273545
1.250276,-0.08263294,-0.01848307
1.405118,-0.2654517,-0.1570715
1.559858,-0.3031456,-0.2398021
1.648989,-0.3041598,-0.1871579
1.559671,-0.4277179,-0.1771848
1.328634,-0.4930354,-0.2418453
1.141368,-0.4771436,-0.2456062
1.052801,-0.4194504,-0.1579155
1.038531,-0.2387931,-0.0118226
1.01111,-0.1054632,0.07672247
1.055553,-0.1320512,0.03854263
1.14998,-0.1334713,-0.01353468
1.08544,-0.09124264,-0.05771756
0.9691847,-0.09159561,-0.09897906
0.7965282,-0.1142715,-0.07096949
0.6012924,-0.1514252,-0.04907581
0.5618978,-0.192801,-0.05029748
0.4993454,-0.2172013,-0.02892043
0.4230699,-0.2296326,-0.02203828
0.4400725,-0.244363,0.001584831
0.53166,-0.246503,0.01987408
0.7978008,-0.2489319,0.02801589
1.055542,-0.2920704,0.08161742
1.101633,-0.3454845,0.1029701
1.08248,-0.3645357,0.1092768
1.105183,-0.3312588,0.1530522
1.067921,-0.2620515,0.1905284
0.9953643,-0.1906266,0.2381514
1.006087,-0.173128,0.2503677
1.065149,-0.2791943,0.2069116
1.319379,-0.4163371,0.1490505
1.61637,-0.4862465,0.07130374
1.466861,-0.5191804,0.02887788
1.166479,-0.4819239,0.01689908
1.093147,-0.4248153,0.005295663
1.073556,-0.4405133,-0.0127552
1.086054,-0.430994,-0.09044971
1.085807,-0.3794044,-0.1471434
1.041872,-0.3570615,-0.1352576
1.033641,-0.3022858,-0.1087822
0.8888902,-0.2320452,-0.04055923
0.7169507,-0.2011219,0.02608455
0.7280014,-0.1644345,0.02959307
0.6862649,-0.1492897,-0.01014651
0.594457,-0.1482186,-0.05444038
0.5732015,-0.118297,-0.05180699
0.5317929,-0.1175022,-0.03197519
0.5646339,-0.1436655,-0.03164557
0.6899379,-0.1576026,-0.03320642
0.8005554,-0.1503906,-0.05092168
0.9493598,-0.1240176,-0.07959167
1.132685,-0.100683,-0.08966788
1.218705,-0.05127022,-0.05833223
1.185135,0.02302181,-0.00289968
1.168517,0.06330584,0.02095521
1.200697,0.06293511,0.02761029
1.198277,0.06437679,0.04545233
1.215161,0.05870003,0.04548629
1.279604,-0.04948055,0.009588563
1.366436,-0.2252,-0.08427234
1.516823,-0.3108008,-0.2120734
1.593645,-0.3333269,-0.2363135
1.481754,-0.4365918,-0.1661032
1.297081,-0.5442247,-0.1623218
1.148566,-0.4980301,-0.1726338
1.0883,-0.4014441,-0.1165054
1.068998,-0.3100072,-0.04975912
1.04262,-0.1961731,0.01039001
1.050254,-0.1742971,0.008957256
1.055825,-0.1599657,-0.04225859
0.9652532,-0.1106231,-0.07111435
0.7947234,-0.1248745,-0.07852152
0.6608444,-0.1329015,-0.04835542
0.5936508,-0.1628857,-0.02661443
0.5519306,-0.1924321,-0.02103576
0.5170263,-0.1728944,0.001906548
0.4919216,-0.2041071,0.006165207
0.4927172,-0.2280927,0.02835463
0.5713992,-0.2213369,0.06233698
0.8212435,-0.2381041,0.07142975
1.068564,-0.2724133,0.07503867
1.105044,-0.3347604,0.0800744
1.146648,-0.3757881,0.1090984
1.2346,-0.3633164,0.1216129
1.186984,-0.30705,0.1143262
1.149952,-0.2473669,0.1323035
1.14459,-0.2337,0.1482336
1.077505,-0.2549016,0.1706326
1.089113,-0.3212068,0.1798989
1.156156,-0.457317,0.1550549
1.334422,-0.580501,0.1168302
1.531556,-0.5256723,0.05805277
1.202672,-0.3849691,0.02435512
0.7403512,-0.3473355,-0.0002099741
0.8391522,-0.3616336,-0.03648974
1.013589,-0.4161253,-0.05552112
0.9970183,-0.4508366,-0.1310648
1.006478,-0.4201914,-0.1850556
0.9028025,-0.3898632,-0.1318781
0.7824167,-0.3015713,-0.07109855
0.7346529,-0.261078,0.02604119
0.6565858,-0.2826209,0.07986358
0.6389084,-0.218545,0.006229129
0.6411471,-0.1470181,-0.03342631
0.6535429,-0.06327927,-0.06021683
0.7325924,-0.01682361,-0.08023788
0.8404575,-0.06682705,-0.02948741
0.9633945,-0.08571889,-0.00819683
0.9980095,-0.098783,0.0162743
1.005832,-0.08133194,0.04582941
1.02886,-0.002039559,0.03711745
0.9985445,0.03748674,0.06121176
1.019236,0.07089113,0.07964472
1.028828,0.09764916,0.08378276
1.018023,0.06723141,0.07585801
1.04466,0.02252087,0.03891651
1.066373,-0.03868069,0.03971768
1.168273,-0.133432,0.03249671
1.265829,-0.1960408,0.008217662
1.367024,-0.2138704,-0.007293303
1.5526,-0.2669326,-0.05309478
1.566374,-0.3213761,-0.060499
1.42182,-0.3652279,-0.09406052
1.35154,-0.4559548,-0.2103124
1.295353,-0.4520971,-0.2223054
1.163786,-0.3848853,-0.145088
1.032149,-0.4116441,-0.1065555
1.032182,-0.3874983,-0.08135128
1.100307,-0.3394759,-0.05691702
1.076431,-0.3446223,-0.02459071
1.073837,-0.3049283,-0.0276009
1.074536,-0.2849375,-0.08402728
0.9617334,-0.2411745,-0.0923479
0.9030294,-0.1946572,-0.05620328
0.7884363,-0.2111616,-0.02415316
0.5681227,-0.1426071,-0.0140741
0.4968567,-0.1027865,-0.02295167
0.532099,-0.1301726,-0.008797529
0.622256,-0.09965036,-0.01031364
0.6899869,-0.09727506,0.005161453
0.713992,-0.1172158,0.063562
0.8155866,-0.1586652,0.07060557
0.8948913,-0.2270209,0.05740175
0.945194,-0.2802166,0.05802168
0.960865,-0.336319,0.07800518
0.951824,-0.3379676,0.1232273
0.99498,-0.3058165,0.1291096
1.008709,-0.2607791,0.1156719
1.045974,-0.1663064,0.1159234
1.070435,-0.09986068,0.148605
1.071919,-0.09910796,0.2157553
1.150836,-0.1276089,0.2572677
1.185882,-0.1759883,0.247071
1.210854,-0.3268208,0.1364299
1.269198,-0.5690039,0.007514261
1.311509,-0.6534734,0.005039099
1.302592,-0.5384323,0.002064315
1.131667,-0.4466159,-0.04974685
0.9606649,-0.4021741,-0.04705819
0.9682088,-0.3676665,-0.09522198
1.057595,-0.4034242,-0.1921619
1.108703,-0.4257797,-0.2163211
1.094741,-0.4148911,-0.2282797
1.027591,-0.4250274,-0.1821946
0.8874093,-0.3682838,-0.06516415
0.7836495,-0.291703,-0.01579266
0.7395852,-0.2540665,-0.006961451
0.6562257,-0.1964887,-0.0386029
0.6110737,-0.1374696,-0.1061833
0.6105689,-0.08864428,-0.1199746
0.6246502,-0.07536574,-0.1153316
0.6833834,-0.0989649,-0.0976732
0.7782935,-0.1339264,-0.05387972
0.9078293,-0.1806099,-0.02559253
1.006359,-0.1785446,-0.01672259
1.059575,-0.1059503,-0.03392682
1.080361,0.003633986,-0.05021111
1.055459,0.0649361,-0.03170111
1.050587,0.04088477,0.007749438
1.073809,0.02179301,0.05991039
1.08852,0.008637689,0.08761531
1.08874,-0.00884211,0.05373308
1.103903,-0.03074068,0.01110867
1.172144,-0.1256027,-0.01513931
1.251862,-0.2413545,-0.08189433
1.317209,-0.2734,-0.1573279
1.392333,-0.2616829,-0.155375
1.467171,-0.3390213,-0.1057337
1.468576,-0.454187,-0.1040051
1.356536,-0.434086,-0.1731333
1.191247,-0.3495143,-0.2305595
1.039788,-0.2887165,-0.190871
0.9881345,-0.2236342,-0.1066028
1.01813,-0.2198134,-0.07452746
1.013841,-0.2442538,-0.06332989
1.007631,-0.2257416,-0.05164709
1.006288,-0.2035886,-0.05596913
0.9558256,-0.1678351,-0.05401776
0.8694695,-0.1549929,-0.06562324
0.7539885,-0.1816064,-0.06146787
0.6701823,-0.1863558,-0.02667148
0.6301077,-0.2067521,0.01030854
0.6064424,-0.2312335,0.06418502
0.6434022,-0.2308181,0.06701349
0.6943621,-0.2420052,0.0360663
0.7429664,-0.2370986,0.04039343
0.8584491,-0.2261963,0.03666783
0.9816395,-0.2245982,0.03927246
0.9958279,-0.2217522,0.0438673
0.9452528,-0.2434301,0.05756575
0.9623567,-0.266522,0.1177523
0.9739958,-0.2751169,0.1544387
0.9442939,-0.2500037,0.1407528
0.9715997,-0.1804356,0.1271873
0.9663246,-0.135041,0.1357537
0.9528883,-0.1206513,0.1393221
0.9900159,-0.1056732,0.1511174
0.993672,-0.1230414,0.1995606
1.027127,-0.2113867,0.2041157
1.134458,-0.3813235,0.1326268
1.413229,-0.5912925,0.05765209
1.669114,-0.6540775,0.05301241
1.385878,-0.4619165,0.08768845
0.9887079,-0.298262,0.07217779
1.054557,-0.3355108,0.05079656
1.130351,-0.3880754,-0.01573727
1.059488,-0.4031844,-0.1613913
1.076754,-0.4057643,-0.1954046
1.006333,-0.3743282,-0.1349144
0.9184159,-0.3351507,-0.1137946
0.9049,-0.2938969,-0.08114134
0.7857449,-0.2504585,-0.03022164
0.6664011,-0.2013789,0.006996414
0.6514407,-0.1861293,0.007085614
0.6847581,-0.1919469,-0.04499289
0.6844557,-0.1447939,-0.07028717
0.6576625,-0.1324226,-0.05412162
0.6994465,-0.1559981,-0.04644055
0.7326704,-0.1138903,-0.03102156
0.7865689,-0.09459715,-0.01958983
0.8751568,-0.1195026,-0.02682174
0.9418849,-0.1210565,-0.03147635
1.022419,-0.1122972,-0.03423746
1.019216,-0.09632391,-0.03244014
1.031646,-0.09356432,-0.02559823
1.056211,-0.08342079,-0.006930207
0.9803801,-0.05714252,0.01574665
0.9972504,-0.06351478,0.01212376
1.007658,-0.07204503,0.00112286
0.9737462,-0.07528767,-0.0005822956
1.004976,-0.07633403,-0.00556063
0.9873172,-0.05329812,-0.0008155165
1.022562,-0.03367851,0.0126999
1.111368,-0.0395027,0.01623014
1.172314,-0.09464427,0.0156422
1.255527,-0.1513662,-0.01136439
1.311458,-0.1443891,-0.06164541
1.362785,-0.1640098,-0.06367919
1.415786,-0.2845818,-0.05536972
1.495546,-0.4230562,-0.1191779
1.559737,-0.4725019,-0.2238901
1.472874,-0.4523261,-0.2874724
1.311605,-0.4491199,-0.2410984
1.09656,-0.4397068,-0.1334093
0.9446916,-0.3823195,-0.03591385
0.9812275,-0.3171183,0.02739215
1.002334,-0.2550489,0.002524505
1.011358,-0.2091568,-0.02662847
1.031062,-0.1818436,-0.01159528
0.95961,-0.1395947,-0.02679579
0.8807128,-0.1291317,-0.01677663
0.7609022,-0.1472752,-0.003351049
0.6261359,-0.141115,-0.01163811
0.5725494,-0.1439781,0.01718031
0.498883,-0.1408016,0.02823279
0.4533362,-0.1196696,0.04081456
0.5343314,-0.1247014,0.05670399
0.6637566,-0.1578486,0.05168014
0.8094119,-0.2161969,0.08822417
0.9535309,-0.2574735,0.1191072
1.024212,-0.2464683,0.1292197
1.050474,-0.2285097,0.1354274
1.066595,-0.2092265,0.1239741
1.035359,-0.1726024,0.1297139
0.9971376,-0.1446719,0.130181
0.9606017,-0.1184294,0.1328914
0.926087,-0.07630722,0.149803
0.939147,-0.05239927,0.1663663
0.9484589,-0.07516282,0.206158
0.9646889,-0.1268669,0.226714
1.025263,-0.2034561,0.2060697
1.104606,-0.3370571,0.1498149
1.281422,-0.5184667,0.07999707
1.573818,-0.6514193,0.07180026
1.711127,-0.6463763,0.0744587
1.473757,-0.546065,0.06409272
1.138961,-0.4245922,0.1264305
1.017654,-0.3289838,0.1585782
1.021177,-0.3569981,0.03641202
1.022292,-0.4307437,-0.134254
0.9920064,-0.4261798,-0.193301
0.9858289,-0.4358504,-0.1312135
0.9930268,-0.4304509,-0.09199634
0.9329724,-0.3826003,-0.09313643
0.8855204,-0.3555368,-0.05201347
0.8261231,-0.286768,-0.02942546
0.7473909,-0.2352338,-0.03737175
0.7251777,-0.2177589,-0.03577365
0.6872382,-0.1764329,-0.04506906
0.6898317,-0.1472251,-0.06948511
0.7238271,-0.09205317,-0.1031618
0.7189431,-0.07740228,-0.08649569
0.761534,-0.1163939,-0.03124355
0.8062294,-0.1023694,-0.01144197
0.8578001,-0.08320566,-0.01369973
0.9344644,-0.04330539,-0.03049814
0.9601432,0.02031277,-0.03451095
0.9983619,0.03006391,-0.02528209
1.029801,0.01883264,-0.0214568
1.019837,0.01173169,-0.001490226
1.048551,-0.004222052,0.0008381468
1.071539,-0.02143734,0.01047233
1.048117,-0.002679336,0.03279046
1.034933,0.02784863,0.03551191
1.054732,-0.01300719,0.0698287
1.118691,-0.09428432,0.09493252
1.216213,-0.1534575,0.07514501
1.316911,-0.1553583,-0.001072101
1.463105,-0.1492135,-0.1355738
1.580067,-0.2735459,-0.1710302
1.496702,-0.440462,-0.134281
1.364167,-0.4844726,-0.1834238
1.315846,-0.4600054,-0.2250378
1.245211,-0.4328377,-0.1826907
1.223547,-0.3757394,-0.1233579
1.218974,-0.2872874,-0.07264638
1.116201,-0.224509,-0.06253616
0.9917589,-0.1892308,-0.1232073
0.8614472,-0.1763916,-0.1682713
0.7750133,-0.2219806,-0.1317296
0.7041721,-0.2549761,-0.09081778
0.5725132,-0.2611835,-0.06994624
0.4760568,-0.3050925,-0.01956478
0.4372411,-0.3322402,0.01264993
0.5011917,-0.2654472,-0.004559834
0.6512457,-0.1158558,-0.00817096
0.7819801,-0.009422507,0.001010786
0.902533,0.00511751,-0.01169006
0.9912561,0.006076921,-0.01477635
1.072001,-0.03913892,0.007177684
1.096152,-0.1663129,0.0479435
1.061444,-0.2830714,0.1025222
1.075921,-0.3226187,0.1259491
1.027779,-0.3160231,0.1071118
0.9510987,-0.2866616,0.09180289
0.9045887,-0.2377301,0.09425578
0.8403363,-0.1984422,0.1048037
0.8526147,-0.1737969,0.1223481
0.878899,-0.1739517,0.1322187
0.9131133,-0.1895672,0.1391779
0.9937586,-0.1938841,0.1518896
1.085544,-0.2233057,0.115841
1.238537,-0.3054914,0.03082698
1.335761,-0.408277,-0.01121475
1.50357,-0.5058055,0.01011307
1.765393,-0.6076664,0.03477372
1.561833,-0.6069114,0.05235278
1.142201,-0.4648151,0.1243626
1.096746,-0.3871624,0.1869173
1.082063,-0.3892077,0.08283597
1.01755,-0.4121124,-0.09554912
1.044468,-0.4620428,-0.1580126
0.963756,-0.4337792,-0.1382376
0.9201206,-0.404604,-0.1162423
0.862419,-0.3947689,-0.09053661
0.7204216,-0.3406184,-0.07289258
0.7089569,-0.3256812,-0.05961599
0.6472581,-0.270221,-0.0431127
0.5747564,-0.1882843,-0.05202832
0.5992766,-0.1484328,-0.08023197
0.5760723,-0.09182892,-0.1137069
0.6387751,-0.0722151,-0.1433065
0.7620133,-0.06922979,-0.1316447
0.8513997,-0.1028076,-0.07796641
0.9562297,-0.1790498,-0.01882743
1.022885,-0.1707328,-0.01136579
1.078317,-0.1445302,-0.04888921
1.113724,-0.1302726,-0.04772864
1.0615,-0.07876708,-0.02229403
0.9978438,-0.04399409,-0.002490541
0.9914433,-0.03256747,0.01660993
0.9895788,-0.04292764,0.01094648
0.9885775,-0.0672544,0.01862255
1.009391,-0.08204455,0.04086483
1.029891,-0.07456149,0.04894424
1.099603,-0.06192374,0.063168
1.193823,-0.1021577,0.05166721
1.281997,-0.1415681,-0.01351621
1.44825,-0.1340601,-0.1161707
1.613777,-0.1686501,-0.1677523
1.598455,-0.2912155,-0.1473626
1.492649,-0.424409,-0.2220619
1.427834,-0.4294069,-0.3446183
1.238613,-0.3578738,-0.3203512
1.033557,-0.359146,-0.2048206
1.05041,-0.343742,-0.1030645
1.083366,-0.2948628,-0.06672126
1.071089,-0.3030431,-0.09659375
1.06209,-0.2823342,-0.08398212
0.9917962,-0.2227536,-0.04526559
0.9017111,-0.1678132,-0.04699883
0.7663075,-0.1195773,-0.03291426
0.6540691,-0.12153,-0.02024244
0.6212076,-0.1290945,-0.02695466
0.5749533,-0.1259656,-0.02147523
0.5290573,-0.1403332,-0.03155393
0.5430634,-0.1569791,-0.03320514
0.6509857,-0.2116311,-0.01539289
0.768026,-0.283895,-0.005551296
0.817846,-0.2986214,0.002285851
0.8552879,-0.2811925,0.01610482
0.9371546,-0.3005513,0.05248594
1.054662,-0.3177534,0.06976687
1.10959,-0.2926924,0.07773322
1.132446,-0.2710088,0.1193348
1.139751,-0.2335257,0.1267418
1.091008,-0.1873433,0.1232646
1.06318,-0.1501513,0.156773
1.010382,-0.1239889,0.1866185
0.9616405,-0.1868769,0.2020481
1.011087,-0.3133869,0.1815355
1.227537,-0.4951937,0.1306039
1.542203,-0.6477205,0.05264223
1.484446,-0.5722225,-0.02400966
1.138074,-0.4368042,0.01780681
0.9728235,-0.3810373,0.07928052
0.9529183,-0.3470204,0.005576761
1.029477,-0.384381,-0.09405133
1.038726,-0.3786688,-0.1717109
0.9395524,-0.3312716,-0.2013887
0.8916921,-0.3222587,-0.1303582
0.7460231,-0.2545524,-0.08957793
0.6283623,-0.2413724,-0.05756696
0.6140934,-0.269317,-0.005342075
0.5707285,-0.2198714,-0.03729975
0.5855891,-0.1879204,-0.048181
0.5863694,-0.128594,-0.04773419
0.6432742,-0.07466441,-0.09398468
0.7962432,-0.1002379,-0.09544648
0.9130718,-0.1100972,-0.09797133
1.043824,-0.121554,-0.09426938
1.101301,-0.1346105,-0.06875724
1.104917,-0.1222548,-0.06997295
1.112408,-0.1015027,-0.05249388
1.094297,-0.05814784,-0.03300233
1.14198,-0.0193856,-0.01634698
1.171187,0.007233665,0.01226723
1.171771,0.01402806,0.007394133
1.213335,-0.03655113,-0.02191581
1.300927,-0.1706591,-0.09276628
1.480094,-0.3292167,-0.2061939
1.578298,-0.3764099,-0.2360307
1.485654,-0.3872282,-0.1753777
1.342373,-0.4586653,-0.1718493
1.22424,-0.4346127,-0.2133431
1.114916,-0.3463634,-0.2190748
1.053547,-0.3376796,-0.1880647
1.064739,-0.2957462,-0.1194777
1.050026,-0.2524431,-0.07301385
1.011176,-0.2870085,-0.04997685
0.9699289,-0.2651403,-0.01927192
0.8618772,-0.2127693,-0.02091268
0.7166321,-0.16056,-0.02016266
0.5940263,-0.1057883,-0.03198926
0.5444733,-0.1277476,-0.06669833
0.5333588,-0.1343777,-0.05259001
0.529909,-0.1294303,-0.02061721
0.5947146,-0.1861596,0.01465683
0.7097472,-0.2310211,0.04760981
0.859603,-0.2607626,0.04155999
0.9961965,-0.262598,0.02947849
1.062753,-0.2463667,0.01761161
1.0858,-0.2534936,0.01747382
1.038936,-0.2524646,0.06264307
0.9679468,-0.2672415,0.1226678
0.9539253,-0.2741164,0.152166
0.9766773,-0.2299921,0.1527153
0.9947989,-0.1927737,0.1760118
0.9607739,-0.1904685,0.2166427
0.9260411,-0.1952186,0.224927
0.9590347,-0.2159335,0.2004207
1.108372,-0.361044,0.1521176
1.465659,-0.5988702,0.1131571
1.71239,-0.6824869,0.08450779
1.447395,-0.577661,0.06912646
1.147832,-0.4787621,0.1131198
1.243481,-0.4443163,0.1146411
1.261356,-0.4242729,-0.01451677
1.094304,-0.4173851,-0.1791752
1.003868,-0.3969858,-0.2290537
0.8819841,-0.3600039,-0.1350418
0.8072156,-0.3276849,-0.08907629
0.7642788,-0.2727187,-0.1179016
0.6463334,-0.245765,-0.1029107
0.6113022,-0.2362912,-0.096117
0.5731798,-0.2038202,-0.08556966
0.5500481,-0.1946656,-0.07207294
0.6124448,-0.1621515,-0.09830755
0.6446532,-0.1312991,-0.1061168
0.7475515,-0.1397218,-0.09310676
0.8715724,-0.1479131,-0.06195355
0.942947,-0.1723392,-0.02900716
1.017267,-0.1575224,-0.03405866
1.045818,-0.1229886,-0.06101913
1.087197,-0.1185483,-0.08354546
1.10017,-0.1057005,-0.06736597
1.063864,-0.1056299,-0.03409403
1.060548,-0.08662332,0.002038441
1.023107,-0.04821756,0.041884
1.0194,-0.02012141,0.03234134
1.054014,0.01920996,0.01831927
1.042628,0.01535458,0.031623
1.110798,-0.03606226,0.008688617
1.238367,-0.1334354,-0.03961239
1.351679,-0.2490365,-0.1097122
1.486197,-0.2674844,-0.1733272
1.548211,-0.3014888,-0.1488868
1.480118,-0.4220908,-0.1309337
1.347164,-0.4377266,-0.1965033
1.20198,-0.3803233,-0.2646594
1.103279,-0.3612432,-0.3042145
1.112413,-0.3130134,-0.2555326
1.135787,-0.2793318,-0.1636162
1.075495,-0.297248,-0.1514055
1.020965,-0.2935741,-0.09532804
0.9476746,-0.2630208,0.005771837
0.861031,-0.203782,0.01028211
0.8293036,-0.1382839,-0.02553594
0.7504933,-0.1290138,-0.06546174
0.6956483,-0.158671,-0.08139028
0.6711199,-0.168335,-0.05751422
0.6090952,-0.1545587,-0.05118464
1.197255,-0.3000729,0.156857
1.117753,-0.2429514,0.2185299
1.125009,-0.1609374,0.2407613
1.044361,-0.1234723,0.2453213
1.071057,-0.1872909,0.2182826
1.427745,-0.4299664,0.1201726
1.753832,-0.7095446,-0.005480456
1.617743,-0.6446179,-0.02564902
1.258918,-0.3824459,0.01642623
1.140666,-0.3062532,-0.04184479
1.16706,-0.3226195,-0.09605624
1.165475,-0.3385278,-0.09954619
1.068157,-0.3366765,-0.1478508
0.9479782,-0.2999932,-0.1342273
0.9921565,-0.3014428,-0.05694627
0.928542,-0.2451627,-0.00371413
0.804057,-0.1997533,0.02022649
0.8211443,-0.1985083,-0.03636275
0.7145988,-0.1053165,-0.09926428
0.6440295,-0.09715981,-0.09950832
0.6409453,-0.1337738,-0.09800623
0.5293744,-0.1048688,-0.09051703
0.5357257,-0.1501499,-0.05861816
0.6159666,-0.1955163,-0.005106312
0.695794,-0.1977888,0.016792
0.8665608,-0.1631904,-0.0309446
1.016752,-0.0871086,-0.07437453
1.088171,-0.031341,-0.08417057
1.134101,0.03176027,-0.04004393
1.145688,0.07289847,0.06422052
1.144893,0.09620557,0.1454228
1.188492,0.1267292,0.1742684
1.21973,0.1086552,0.1443073
1.251528,0.04363472,0.07091823
1.31885,-0.09140402,-0.02608547
1.379161,-0.2306393,-0.1561202
1.478812,-0.2717032,-0.1965498
1.512051,-0.357032,-0.1260213
1.356957,-0.5235926,-0.1031239
1.165986,-0.5412224,-0.1204518
1.089337,-0.4154319,-0.09896491
1.095399,-0.3153693,-0.04226944
1.077796,-0.2230637,0.001509604
1.06219,-0.1669568,-0.007112135
1.062338,-0.1630808,-0.01725105
0.9948752,-0.1230288,-0.01715149
0.884506,-0.1033552,-0.02988753
0.7684375,-0.1393984,0.002543998
0.6905957,-0.1954797,0.04777023
0.6693489,-0.2397822,0.02659263
0.6421267,-0.2163579,0.01498242
0.6145631,-0.183473,0.0460997
0.6051902,-0.161961,0.04387143
0.6388848,-0.117831,0.01875774
0.7008832,-0.1100475,0.005153949
0.7534876,-0.147143,0.02598541
0.8550296,-0.2201723,0.08246505
0.9618893,-0.3023544,0.1285189
1.004114,-0.3100526,0.1739792
1.025436,-0.2834181,0.1917473
1.055794,-0.2799043,0.1720017
1.088152,-0.2479228,0.1875041
1.078213,-0.2195476,0.2094223
1.055069,-0.2546018,0.2107069
1.125552,-0.3523822,0.1709963
1.392645,-0.5090581,0.08513954
1.664948,-0.565638,0.06258165
1.464862,-0.458886,0.07785358
1.067601,-0.3783095,0.09168819
1.051791,-0.3458426,0.1217782
1.148439,-0.3443012,0.0352758
1.162089,-0.3868253,-0.1206846
1.152721,-0.379443,-0.1648523
1.06,-0.3664896,-0.1342668
1.016344,-0.3476405,-0.09369632
0.9028099,-0.2799451,-0.04476016
0.732151,-0.2541498,-0.0084656
0.7285778,-0.2475371,0.003853436
0.7156864,-0.2265281,0.008085412
0.6811363,-0.1942867,-0.005070407
0.6571743,-0.1366763,-0.05381545
0.5918148,-0.09733108,-0.07685572
0.5906118,-0.08109381,-0.05734582
0.6172388,-0.09676958,-0.03922975
0.6871304,-0.1178692,-0.02690277
0.8141487,-0.1137699,-0.03713906
0.9439642,-0.1198396,-0.05284008
1.047397,-0.09939111,-0.04799466
1.05869,-0.05519286,-0.03247427
1.065578,-0.02534503,0.007404233
1.102084,-0.008991231,0.06031135
1.123206,-0.0154461,0.08717842
1.135096,-0.01308652,0.0801174
1.124445,-0.01360221,0.06309759
1.151379,-0.05297884,0.04219758
1.212742,-0.1347072,-0.01057554
1.303357,-0.2192657,-0.1034725
1.432977,-0.2389048,-0.1578285
1.496803,-0.3037469,-0.08969566
1.486429,-0.4353194,-0.04624715
1.440887,-0.4228007,-0.175827
1.329031,-0.3309098,-0.3020799
1.167946,-0.316259,-0.2746647
1.061784,-0.3152454,-0.1601382
1.03777,-0.3241712,-0.05487671
1.043275,-0.3362234,-0.03866259
1.077857,-0.3276018,-0.05986703
1.068989,-0.3342086,-0.01241591
1.042229,-0.3140457,0.02792829
1.034953,-0.2549839,-0.001789888
0.891661,-0.1678694,-0.02709785
0.7211969,-0.0909621,-0.05830579
0.6634978,-0.07964688,-0.1012918
0.5941254,-0.06273495,-0.07240982
0.5032886,-0.06182283,-0.007862951
0.4780411,-0.1280364,0.0354306
0.5258111,-0.1938973,0.08331819
0.5772729,-0.2333278,0.111521
0.6832598,-0.2430003,0.1149103
0.9078171,-0.2849261,0.1054809
1.089523,-0.3588074,0.07671956
1.093224,-0.372143,0.09145505
1.033693,-0.3655666,0.1440062
1.085017,-0.345702,0.173322
1.10056,-0.2645149,0.1765028
1.047595,-0.1568305,0.1389274
1.089938,-0.08914514,0.1139432
1.057426,-0.1205716,0.1248461
1.0435,-0.2556396,0.102434
1.228087,-0.4902384,0.07624354
1.43689,-0.6726221,0.07586892
1.491699,-0.6001699,0.07323054
1.193556,-0.4357458,0.06418419
0.8884959,-0.3572515,0.04568977
0.9701948,-0.3501026,-0.02280449
1.077607,-0.4342595,-0.1592516
1.072925,-0.477081,-0.2369794
1.090318,-0.4369911,-0.1910542
1.066006,-0.4036778,-0.1249633
1.004112,-0.3275783,-0.05710993
0.9214478,-0.3001902,0.01369403
0.810272,-0.314149,0.01002301
0.7369032,-0.2509607,-0.01273074
0.7083867,-0.1887629,-0.002944927
0.6485202,-0.116801,-0.03831308
0.5956867,-0.0705087,-0.04911249
0.6024268,-0.09015178,-0.01580407
0.6435268,-0.09249988,-0.02945842
0.7230753,-0.1154547,-0.02708201
0.8283933,-0.1231324,-0.03534106
0.9513427,-0.07456486,-0.08276713
1.049179,-0.02783271,-0.1014753
1.058395,0.02463976,-0.09494407
1.042691,0.06860448,-0.02617811
1.057656,0.07915184,0.04724292
1.044347,0.04687995,0.04548919
1.033629,-0.002135667,0.03409703
1.109139,-0.07884183,0.0333028
1.220767,-0.2322226,-0.009516663
1.351123,-0.3247379,-0.1073226
1.484233,-0.3025551,-0.1503717
1.535999,-0.3659235,-0.1150295
1.501785,-0.5345164,-0.1226612
1.375267,-0.6028262,-0.1805007
1.219389,-0.5485022,-0.2099294
1.133533,-0.4946198,-0.1353819
1.062863,-0.4146088,-0.02283029
1.003144,-0.3126066,-0.01068403
1.016322,-0.2765371,-0.03398076
1.008084,-0.2728761,-0.03044794
0.9404325,-0.2779481,-0.04720893
0.905312,-0.298521,-0.05358973
0.8416368,-0.3020611,-0.03582604
0.758207,-0.2838919,-0.03623172
0.7158132,-0.2288695,-0.04812695
0.6387034,-0.1392778,-0.0652442
0.616418,-0.06432866,-0.07071011
0.6453966,-0.03004507,-0.02592098
0.6517003,-0.03387162,0.02770404
0.7206717,-0.06659763,0.04911995
0.7850644,-0.1430884,0.07824014
0.8352208,-0.2442871,0.1128444
0.8699752,-0.2729828,0.1054937
0.8540488,-0.2453505,0.08997999
0.9362378,-0.2577515,0.08450518
1.038731,-0.2687645,0.05351037
1.030051,-0.2425397,0.06434798
1.010335,-0.1923707,0.1285309
1.009029,-0.1154874,0.1717361
1.00248,-0.1011634,0.1963462
0.9960742,-0.1397696,0.2012689
0.9981843,-0.1500287,0.2292337
1.049149,-0.2865913,0.2443735
1.31338,-0.6502691,0.1479539
1.776707,-0.9680984,0.07658742
1.937071,-0.9121645,0.09596571
1.604566,-0.6074463,0.06989166
1.205592,-0.3661342,0.003138355
0.9586296,-0.245033,-0.005841291
0.895568,-0.3135553,-0.02964564
1.046466,-0.4433864,-0.1502159
1.153171,-0.4655677,-0.2158125
1.112216,-0.5240815,-0.1972223
1.064682,-0.4941924,-0.1760633
0.9830393,-0.4146067,-0.1207482
0.9151059,-0.4113232,-0.1024602
0.8802949,-0.2917946,-0.1043377
0.7908117,-0.2491035,-0.08075599
0.7272403,-0.2610536,-0.1097582
0.6854003,-0.176563,-0.1370032
0.6294242,-0.1813716,-0.1275505
0.6043708,-0.1756457,-0.08449632
0.5867138,-0.1765552,-0.01235545
0.6143107,-0.2057375,-0.002490518
0.7295493,-0.1808538,-0.0393364
0.8858484,-0.1851441,-0.06793641
0.9869581,-0.1294726,-0.09675265
1.024724,-0.05979185,-0.1084684
1.076242,-0.03630805,-0.09333441
1.106693,-0.0005568579,-0.05618233
1.15846,0.0296123,0.01408285
1.23783,0.1030109,0.07745774
1.249765,0.116438,0.07418915
1.301844,0.01519376,0.0603206
1.377102,-0.1389064,0.02967501
1.405299,-0.2949234,-0.101524
1.458232,-0.3282653,-0.1938791
1.453247,-0.3685588,-0.148918
1.359962,-0.4652814,-0.1462594
1.238049,-0.425699,-0.2592702
1.151288,-0.3394649,-0.3133525
1.131682,-0.2950316,-0.1901501
1.102657,-0.227537,-0.03420926
1.117414,-0.2166685,-0.02769369
1.133801,-0.247829,-0.07614971
1.031696,-0.206,-0.06340046
0.8816036,-0.1484674,-0.06763673
0.7122043,-0.113024,-0.06510704
0.5868199,-0.119898,-0.01971046
0.5155585,-0.1630261,-0.004506712
0.4385856,-0.1368215,0.008354984
0.4384566,-0.1303963,0.01044814
0.4940231,-0.1619715,-0.006327185
0.5711412,-0.1433957,0.01057211
0.7120492,-0.1646885,0.01811614
0.8644345,-0.1971694,0.03844157
0.9657684,-0.2401864,0.0785544
1.03051,-0.3320103,0.08159794
1.098304,-0.3769377,0.09247491
1.093811,-0.3727834,0.1064935
1.059203,-0.3247365,0.09274846
1.088551,-0.2723795,0.0782458
1.056735,-0.2414361,0.07754862
1.019205,-0.1992523,0.09803664
1.031054,-0.2075214,0.1159063
1.044135,-0.2669097,0.09968163
1.233067,-0.4311115,0.04438708
1.529796,-0.6813529,-0.008153026
1.595686,-0.7294618,0.006369404
1.326937,-0.5456436,0.06623419
1.029015,-0.3945372,0.08948039
0.9931165,-0.3607851,0.02889665
1.02764,-0.345353,-0.09024277
1.014709,-0.3244189,-0.1667569
1.038126,-0.3238938,-0.1422777
1.020951,-0.3012813,-0.07866184
0.9572567,-0.2753177,-0.02012547
0.8741135,-0.2867952,0.02305361
0.768977,-0.2854534,0.02123946
0.6731748,-0.2383509,0.004606549
0.5969103,-0.1661336,-0.01943462
0.5735887,-0.1096292,-0.06371731
0.5891584,-0.09799466,-0.0769418
0.6307104,-0.1043353,-0.06789316
0.7145124,-0.1100388,-0.06032021
0.7961382,-0.1339786,-0.04038541
0.8797757,-0.1440072,-0.02948835
0.9675732,-0.1117842,-0.0243757
1.031809,-0.07194357,-0.007260506
1.091121,-0.04139355,0.01634256
1.097205,-0.002787031,0.04790718
1.075964,0.05769012,0.0763006
1.100679,0.0840199,0.07430516
1.103376,0.03597998,0.05087665
1.127845,-0.04166043,0.0418235
1.206349,-0.1614673,0.02593773
1.256225,-0.2362973,-0.04142277
1.320895,-0.1340215,-0.1298057
1.402918,-0.08848296,-0.1550093
1.500308,-0.307185,-0.1411224
1.616062,-0.5056572,-0.2094238
1.602353,-0.4582866,-0.2873518
1.436829,-0.3986957,-0.2412001
1.187451,-0.4417279,-0.1536026
0.9652021,-0.4123368,-0.1002307
0.9972133,-0.3832281,-0.07529202
1.079432,-0.399696,-0.06974925
0.9802551,-0.3458643,-0.05937688
0.9899802,-0.3252358,-0.06297317
0.9946205,-0.2927806,-0.04953862
0.8686931,-0.208548,-0.01842744
0.8434284,-0.188905,-0.04638947
0.7313783,-0.1343066,-0.06880312
0.6245879,-0.1147508,-0.04907107
0.5949431,-0.1605744,-0.02262462
0.4494792,-0.1292582,0.03544508
0.492675,-0.1385702,0.0737838
0.6261304,-0.1620972,0.08388991
0.6935122,-0.151394,0.09417773
0.8559146,-0.2032883,0.07092258
0.9451637,-0.2458726,0.0583503
1.010589,-0.2761923,0.06999082
1.035278,-0.3049447,0.0868885
0.9723334,-0.298875,0.1291722
0.9837503,-0.2771406,0.1527203
0.9576811,-0.2089033,0.1361942
0.9255859,-0.1258148,0.1134878
0.9251458,-0.07684353,0.1094016
0.9318319,-0.08994858,0.1496713
1.01753,-0.1857601,0.1874285
1.087977,-0.3649982,0.1354203
1.283197,-0.6355142,0.06372476
1.652083,-0.8320006,0.05122136
1.783788,-0.8088783,0.01587832
1.446512,-0.6306131,0.001849817
0.9923144,-0.4276017,0.04627815
0.8698156,-0.3831038,0.01263756
0.8905286,-0.4475389,-0.08700221
0.9100855,-0.4422501,-0.2048935
1.046658,-0.4634941,-0.2614399
1.075218,-0.5127081,-0.1904264
0.9920941,-0.4643112,-0.1483038
0.9352951,-0.4149866,-0.0935858
0.8719391,-0.3954965,-0.01223449
0.8136668,-0.3187886,-0.04882367
0.7046035,-0.2156997,-0.05965541
0.6187852,-0.1276705,-0.05282453
0.6009805,-0.07232619,-0.09494485
0.6128899,-0.04486298,-0.08106001
0.706576,-0.02362257,-0.08882622
0.7820473,-0.0565558,-0.0956396
0.8320086,-0.1353624,-0.06591328
0.8970611,-0.149339,-0.06955723
0.9308935,-0.09165682,-0.04978758
0.963605,-0.05591439,-0.03629763
0.9577954,-0.03030243,-0.04299698
0.9820074,0.02116951,-0.02130911
1.043329,0.03726977,-0.01248539
1.016845,0.018496,0.0006214796
1.011387,0.02263045,0.0426323
1.040055,0.02510884,0.06960598
1.066192,-0.0125282,0.04950607
1.17297,-0.06182192,0.01817084
1.275462,-0.1077204,0.006805126
1.339222,-0.1490329,-0.03161707
1.439681,-0.163599,-0.1015142
1.513099,-0.2069524,-0.1532247
1.481518,-0.3695874,-0.153154
1.413249,-0.562644,-0.1634204
1.326483,-0.5624758,-0.2718788
1.163596,-0.4616729,-0.3612436
1.061588,-0.4685296,-0.3125294
1.072152,-0.4251193,-0.1852076
1.066173,-0.3566118,-0.07830254
1.087243,-0.3926304,-0.07977445
1.120611,-0.3884594,-0.1344145
1.061431,-0.3946981,-0.1368225
0.9597639,-0.4034411,-0.1285139
0.848666,-0.3423217,-0.1181529
0.7327368,-0.3096112,-0.0772034
0.6623633,-0.2447959,-0.05651444
0.6332171,-0.182506,-0.03879987
0.6038449,-0.1627116,0.009422766
0.591357,-0.1095228,0.0348703
0.6267861,-0.06573663,0.02975881
0.6957497,-0.02729728,0.005845229
0.783757,-0.04391193,-0.0151405
0.8466828,-0.116265,0.02397834
0.878984,-0.2163328,0.09876264
0.9487148,-0.3745741,0.1627091
1.043707,-0.4007082,0.1912474
1.116553,-0.3177413,0.1661447
1.141408,-0.3036716,0.1395654
1.1198,-0.2878803,0.1524216
1.098796,-0.269066,0.1952445
1.064823,-0.2713853,0.2371772
1.101948,-0.3513597,0.2105368
1.420776,-0.5425662,0.1444542
1.752662,-0.6497903,0.1246757
1.574567,-0.6095506,0.1154088
1.166297,-0.488717,0.1068178
1.022814,-0.3512639,0.105179
1.015278,-0.3373445,0.04093823
1.044837,-0.3837746,-0.0787877
1.032316,-0.352641,-0.1822567
0.938348,-0.3391781,-0.1806349
0.9192153,-0.3556479,-0.1327853
0.8075798,-0.3089611,-0.1354213
0.6311238,-0.2664125,-0.05377409
0.5763671,-0.2624583,0.03164482
0.5446049,-0.2590075,-0.01493977
0.5158869,-0.2458566,-0.02418181
0.4883952,-0.1889215,-0.03979974
0.5620044,-0.1123099,-0.1267913
0.6899875,-0.07841902,-0.1431219
0.7884225,-0.1103916,-0.1171757
0.9563856,-0.1514775,-0.1011223
1.032442,-0.1568313,-0.07434994
1.067878,-0.1669746,-0.06244176
1.117909,-0.1372148,-0.04045157
1.103254,-0.05239903,0.02276539
1.161554,0.03825992,0.06987663
1.186342,0.1136232,0.07813419
1.189568,0.1130432,0.0743372
1.244884,0.05362532,0.05069718
1.294186,-0.07814126,-0.004612618
1.384852,-0.2673355,-0.1228611
1.427606,-0.3465447,-0.2295473
1.495374,-0.3697207,-0.2207937
1.562125,-0.4923615,-0.1946562
1.448667,-0.5865181,-0.1982518
1.270468,-0.4857657,-0.2061028
1.109241,-0.340745,-0.2283953
1.088646,-0.290451,-0.21227
1.136451,-0.2506155,-0.1723773
1.045472,-0.2649839,-0.1235067
0.9821843,-0.2889142,-0.05816853
0.8815093,-0.2215382,-0.02333603
0.6658922,-0.1697776,-0.004840462
0.5506383,-0.1224014,-0.01710952
0.4616465,-0.0988956,-0.04599332
0.3731391,-0.123044,-0.02812586
0.3661452,-0.1126912,-0.005809983
0.4158586,-0.1499846,0.02379691
0.5786111,-0.22099,0.06160631
0.7930693,-0.2733002,0.05642652
0.974833,-0.3405845,0.05685719
1.075073,-0.3719936,0.07934316
1.116343,-0.3872033,0.09600381
1.199483,-0.3921758,0.106295
1.174001,-0.3679929,0.1020464
1.079893,-0.3247075,0.1089591
1.073855,-0.2471394,0.1299016
1.012573,-0.2046749,0.1651658
0.960289,-0.1947943,0.2287771
0.9808711,-0.2054133,0.2610673
1.045177,-0.3605408,0.2091201
1.343625,-0.6066967,0.1220314
1.647065,-0.699174,0.06839683
1.498202,-0.5976789,-0.001210506
1.229291,-0.5254603,-0.05433836
1.140609,-0.484708,0.01207641
0.9066988,-0.3658621,0.0411991
0.8751328,-0.3680329,-0.03563956
1.127972,-0.4325792,-0.1060321
1.029567,-0.3638011,-0.1606915
0.9615364,-0.3373038,-0.1444821
0.9353573,-0.3150301,-0.08869751
0.6550385,-0.2493137,-0.03983095
0.6178097,-0.2693343,0.04103603
0.5543402,-0.2429854,0.04987037
0.4476956,-0.2021903,0.004051295
0.5755141,-0.1831824,-0.03739968
0.618737,-0.08313258,-0.1233839
0.7499842,-0.05837909,-0.1430741
0.8914955,-0.1063097,-0.08536285
0.9353758,-0.1335779,-0.04609334
1.043614,-0.157221,0.001352332
1.053336,-0.1096943,0.01400316
1.097611,-0.03419713,-3.118048e-05
1.166533,0.01829742,0.03311037
1.16099,0.05237046,0.04576991
1.13912,0.05664124,0.03128995
1.077833,0.0461434,0.03465084
1.143035,-0.02686852,0.01961468
1.253915,-0.1675424,-0.01795915
1.3488,-0.3066034,-0.09974808
1.53003,-0.3657249,-0.1979943
1.614691,-0.3658608,-0.2036841
1.513849,-0.4314354,-0.1745951
1.314814,-0.4934867,-0.2057921
1.176161,-0.4470303,-0.2477956
1.141432,-0.3796243,-0.2616097
1.11516,-0.3304276,-0.2075124
1.093536,-0.2765883,-0.09108635
1.063274,-0.2671304,-0.03343725
1.048969,-0.2825343,-0.02394537
0.9888285,-0.2316319,-0.0001474569
0.8270885,-0.1491072,-0.008635447
0.6794215,-0.1089865,-0.03488583
0.561007,-0.1243654,-0.05722899
0.4965064,-0.1537846,-0.06113584
0.4889387,-0.1523876,-0.04064848
0.4915842,-0.1918513,-0.02486752
0.5298261,-0.2518389,0.04540201
0.6038877,-0.2497045,0.1022492
0.7819872,-0.24685,0.05084618
0.9881844,-0.2611759,0.02536265
1.060201,-0.2884357,0.06078117
1.083883,-0.3269476,0.1018745
1.100118,-0.3203079,0.1522275
1.084416,-0.2571093,0.1574203
1.072713,-0.1707678,0.12735
1.050377,-0.1306451,0.1416843
1.011004,-0.1436433,0.1942193
0.9476235,-0.177715,0.2265622
0.9944,-0.3182276,0.1835626
1.414611,-0.6155612,0.1063574
1.816345,-0.828007,0.08489864
1.47372,-0.7097519,0.07029656
0.9590816,-0.5362471,0.09166106
1.032282,-0.5247683,0.1558501
1.068598,-0.4471719,0.05000667
0.9407888,-0.3611708,-0.1071905
1.016315,-0.3377112,-0.1197324
0.9709023,-0.2411836,-0.1187387
0.9034996,-0.1843849,-0.09571624
0.8642133,-0.1754432,-0.03477934
0.7047944,-0.1789571,-0.001128147
0.6397054,-0.2092175,0.01384367
0.5636354,-0.1807797,-0.01200535
0.5519062,-0.1684137,-0.04930372
0.6218799,-0.145481,-0.09238202
0.6110687,-0.1067114,-0.1033195
0.7283643,-0.1519166,-0.05511674
0.8323988,-0.163498,-0.05193093
0.9015825,-0.1492095,-0.06366811
1.04626,-0.1417289,-0.05578083
1.081276,-0.09091579,-0.04279361
1.10488,-0.04055614,0.006943831
1.100488,0.009498267,0.03108151
1.061357,0.01923827,0.0290089
1.083198,-3.473969e-05,0.02874145
1.05034,-0.003773301,0.01032392
1.041625,-0.02606785,0.002239464
1.083903,-0.0700718,-0.008864026
1.170978,-0.1853356,-0.05098943
1.357695,-0.2880639,-0.126408
1.464463,-0.2271625,-0.1708766
1.478464,-0.1755826,-0.1429374
1.526101,-0.263539,-0.140415
1.558021,-0.3204378,-0.1612753
1.499129,-0.3224284,-0.1677227
1.331599,-0.3536131,-0.2158782
1.137095,-0.3777114,-0.255564
1.035967,-0.403264,-0.2252506
1.036098,-0.4124385,-0.1548166
1.028757,-0.4038921,-0.0560463
0.9897345,-0.4083674,0.02490865
0.9978113,-0.3440628,0.01697671
0.9944324,-0.2453874,-0.03427801
0.9408716,-0.1725023,-0.08207264
0.8777022,-0.1133339,-0.1292506
0.765018,-0.1109567,-0.1070425
0.6705359,-0.1436435,-0.04965431
0.6249179,-0.1859184,-0.0253092
0.5688892,-0.2069924,0.01350273
0.573856,-0.2025524,0.02948759
0.6122595,-0.2173978,0.02525354
0.6637379,-0.2050954,0.03941686
0.8061992,-0.1936982,0.01942066
0.9515493,-0.2163611,0.007159167
1.007676,-0.2365207,0.03702664
0.9919518,-0.2741916,0.07994322
0.979178,-0.284956,0.1165807
0.9974088,-0.2432082,0.1201088
0.9879823,-0.1904294,0.1202317
0.9923878,-0.1494815,0.1277914
1.029073,-0.1422597,0.1436744
1.053876,-0.14449,0.1651566
1.088062,-0.1660798,0.14302
1.203721,-0.2661131,0.1168672
1.513325,-0.4145757,0.1211845
1.75096,-0.4987114,0.0934232
1.513104,-0.5000693,0.06081812
1.160818,-0.5012073,0.1066017
