accx,accy,accz
0.9599337,-0.2482484,0.02457318
1.018087,-0.2174361,0.0192668
1.114402,-0.1763272,-0.1051835
1.094084,-0.2230012,-0.2061982
1.024931,-0.2913198,-0.19725
0.8611935,-0.3173421,-0.095253
0.6817292,-0.3460315,0.01367245
0.5716966,-0.3090675,0.0853038
0.5206667,-0.2482449,0.1072936
0.5752902,-0.1924429,0.09266466
0.6370389,-0.1508426,0.08568774
0.6831192,-0.1818186,0.08730592
0.7471682,-0.1873355,0.09759653
0.7652506,-0.2018472,0.1334685
0.84224,-0.2800095,0.1732161
0.9734622,-0.3022879,0.1929553
0.9837038,-0.2768792,0.2014819
0.9681488,-0.2598299,0.227726
1.046361,-0.2695085,0.2559672
1.134847,-0.2905947,0.2352944
1.204846,-0.3093831,0.1950781
1.245423,-0.3576027,0.1668665
1.212476,-0.4079008,0.1203422
1.10515,-0.454526,0.0806962
0.924674,-0.464444,0.05909384
0.8060985,-0.4603972,-0.002976691
0.8840649,-0.5414995,-0.09039871
1.007393,-0.5836232,-0.1457815
1.083496,-0.5489356,-0.1768406
1.150777,-0.5062289,-0.1924609
1.088794,-0.4070686,-0.1701846
0.9523348,-0.3547443,-0.118716
0.9183085,-0.3530933,-0.08760285
0.9121066,-0.3309169,-0.108224
0.9251036,-0.3519181,-0.1483103
0.954404,-0.3347832,-0.1744312
0.9058205,-0.2808796,-0.1920935
0.8508693,-0.247593,-0.1914794
0.8089749,-0.2089259,-0.1848007
0.7920402,-0.2382573,-0.1915647
0.8049697,-0.2635244,-0.1887282
0.7814618,-0.2282,-0.1839863
0.7944277,-0.1927415,-0.1737746
0.8019043,-0.1176958,-0.1462005
0.7841961,-0.08428036,-0.1375287
0.8360361,-0.09681673,-0.1326339
0.901016,-0.04834822,-0.1154675
0.973185,-0.0317406,-0.1231919
1.045804,-0.06822698,-0.1498858
1.163043,-0.1091629,-0.1673002
1.299913,-0.182304,-0.1738632
1.298865,-0.2738051,-0.2064527
1.34345,-0.4210826,-0.2863536
1.392856,-0.5448591,-0.3284111
1.237726,-0.5240011,-0.2867284
1.141082,-0.5612216,-0.2662175
1.150161,-0.6463226,-0.2947842
1.167036,-0.5796756,-0.2936664
1.190185,-0.5395085,-0.2575297
1.086888,-0.497655,-0.1710698
0.9804043,-0.3417368,-0.03303464
0.9831768,-0.2783673,0.04065668
1.018469,-0.2675005,0.005288483
1.099185,-0.2400237,-0.07688151
1.164581,-0.2413302,-0.1439313
1.100967,-0.2365966,-0.128953
0.935775,-0.2631286,-0.07661857
0.8124514,-0.2614336,-0.05786045
0.6987835,-0.2426636,-0.001765102
0.5754185,-0.2615077,0.06847057
0.5580793,-0.2353019,0.08905812
0.5590529,-0.212477,0.1003996
0.5981921,-0.2046896,0.07892662
0.6864492,-0.2075669,0.06441981
0.6968511,-0.2473409,0.08593016
0.7076371,-0.2424301,0.09696568
0.7363786,-0.2362159,0.1590322
0.8150311,-0.2488839,0.2271634
0.9735085,-0.2449133,0.2360358
1.094413,-0.2626164,0.2374848
1.175345,-0.2620134,0.2371265
1.238423,-0.2580845,0.2345984
1.315914,-0.282249,0.2051877
1.388883,-0.3308419,0.1731322
1.383564,-0.45291,0.1713254
1.303247,-0.5460425,0.1471433
1.099452,-0.493418,0.1069009
0.8605276,-0.4410091,0.05055013
0.8080398,-0.4998609,-0.03440392
0.9096305,-0.5363362,-0.1142177
0.9918796,-0.5299347,-0.163221
1.066484,-0.544837,-0.1932531
1.112132,-0.4994111,-0.2169337
1.025735,-0.4307067,-0.1761308
0.9393825,-0.3875828,-0.1058286
0.8966724,-0.3460905,-0.09052426
0.8599917,-0.3516347,-0.1088944
0.9034114,-0.3463893,-0.1592724
0.9101816,-0.3111282,-0.2180846
0.8516327,-0.2734724,-0.2363649
0.7942617,-0.2143019,-0.2086389
0.7214559,-0.1749952,-0.1634845
0.7065314,-0.1436793,-0.1501028
0.7170642,-0.1367233,-0.1645517
0.7421486,-0.1550141,-0.1950319
0.8419957,-0.1437974,-0.2217
0.9179748,-0.1394516,-0.2362838
0.9078237,-0.1268846,-0.2445696
0.902884,-0.1012281,-0.2010962
0.9851593,-0.08681855,-0.1673393
1.081022,-0.0707701,-0.2058552
1.158834,-0.08898567,-0.2314825
1.235059,-0.117179,-0.2117536
1.260463,-0.1325648,-0.2012821
1.297619,-0.1672379,-0.2258603
1.324451,-0.2356375,-0.2537056
1.303555,-0.3294337,-0.2787474
1.268855,-0.4004343,-0.3007691
1.154944,-0.5224679,-0.3065869
1.093654,-0.6777329,-0.3144349
1.150261,-0.669296,-0.2983999
1.165071,-0.6194135,-0.2659716
1.142058,-0.6283274,-0.2244417
1.076614,-0.5186136,-0.1474271
0.9983186,-0.3633762,-0.09588772
1.035408,-0.2676115,-0.09390289
1.118955,-0.2024597,-0.1325484
1.124332,-0.2079785,-0.1663671
1.050608,-0.2428672,-0.1267002
0.9194528,-0.2975392,-0.07290134
0.7977342,-0.3517002,-0.03321712
0.7359624,-0.3205207,0.005782928
0.6835893,-0.2651602,0.03553922
0.6711041,-0.2143097,0.07683982
0.7013371,-0.1903683,0.1093871
0.7092787,-0.2207579,0.1322548
0.7349222,-0.2165132,0.1378913
0.7443629,-0.2166858,0.108238
0.7263055,-0.256161,0.09692009
0.7067887,-0.2536179,0.1151445
0.6609275,-0.2045206,0.154184
0.7009735,-0.145184,0.2016007
0.8215046,-0.1439382,0.2025113
0.9272214,-0.1764518,0.1877785
1.01896,-0.1680897,0.1954882
1.059295,-0.1745253,0.1733191
1.120819,-0.1937549,0.120135
1.197546,-0.2431774,0.07697528
1.208682,-0.3888848,0.05780849
1.251141,-0.4903835,0.06829673
1.250545,-0.4587032,0.07168765
1.165997,-0.4388627,0.05529284
1.134053,-0.4720338,0.04891464
1.066989,-0.4729065,0.02866929
0.9475656,-0.5329821,0.0005545154
0.8943294,-0.697288,-0.00109078
0.9035264,-0.7869455,-0.01469961
0.9349114,-0.7782399,-0.07160848
0.9411287,-0.7244012,-0.1489161
0.941711,-0.6179163,-0.1884482
0.9532619,-0.5074417,-0.1710538
0.9733884,-0.366612,-0.1670115
0.9977475,-0.2135023,-0.1796701
0.9699762,-0.1492456,-0.164444
0.9436609,-0.1638336,-0.1550785
0.9047114,-0.2039729,-0.142425
0.7923814,-0.2880571,-0.1237875
0.7274653,-0.3945782,-0.1679297
0.738879,-0.3854797,-0.223235
0.752529,-0.2969357,-0.2272837
0.7911355,-0.2209565,-0.2540364
0.9026486,-0.1088489,-0.3045633
1.005178,-0.07240465,-0.3012538
1.005331,-0.132869,-0.2569558
0.981791,-0.1393626,-0.2052158
0.9822719,-0.1173377,-0.1631115
0.9848435,-0.0999007,-0.1624753
0.9929413,-0.08831351,-0.1650481
1.005356,-0.09862675,-0.1354991
1.031029,-0.1043824,-0.1128129
1.039988,-0.1096089,-0.1100703
1.041645,-0.1001881,-0.1055168
1.080056,-0.08856639,-0.0780051
1.128125,-0.1260642,-0.06030777
1.190301,-0.2047283,-0.09193267
1.286419,-0.2693379,-0.1394836
1.377339,-0.2686436,-0.178022
1.423845,-0.2636418,-0.1954785
1.392957,-0.3328552,-0.2007084
1.28121,-0.4849509,-0.2507209
1.188378,-0.6584636,-0.3294155
1.187689,-0.6566872,-0.3353033
1.187228,-0.571737,-0.2809732
1.116622,-0.5985847,-0.2462228
1.022776,-0.4766104,-0.1681124
0.9584161,-0.2677481,-0.07230216
0.9788964,-0.2389184,-0.0870695
1.038493,-0.1804147,-0.1362081
1.021349,-0.120513,-0.1420234
0.9710386,-0.1626665,-0.1322399
0.8931983,-0.2067604,-0.09290107
0.748423,-0.3001152,-0.03132616
0.6462902,-0.3245026,0.02408288
0.6037411,-0.2481598,0.05947078
0.6119353,-0.210332,0.06189441
0.6649618,-0.1768494,0.05396458
0.6803976,-0.1487782,0.08494419
0.6917804,-0.1405224,0.1519722
0.7194472,-0.1664641,0.1958467
0.8072755,-0.2340748,0.1942722
0.9594422,-0.2627906,0.2210996
1.029341,-0.2246295,0.308109
1.037876,-0.1814089,0.3360452
1.056536,-0.2108884,0.304671
1.094458,-0.2471364,0.3157552
1.137915,-0.2529394,0.3033922
1.173145,-0.3306877,0.234315
1.272034,-0.4637365,0.1949014
1.378484,-0.5989378,0.2452562
1.393777,-0.6512225,0.2982933
1.268871,-0.5759689,0.1936391
1.025551,-0.4725693,0.03266527
0.8812367,-0.364297,-0.05275602
0.8876904,-0.366172,-0.09943183
0.9287771,-0.506564,-0.1007923
0.970897,-0.5554505,-0.1132542
1.004266,-0.5298038,-0.133974
1.051365,-0.5137058,-0.1171449
1.049956,-0.4532969,-0.1365852
0.9856446,-0.3555882,-0.1288784
0.9553531,-0.2651925,-0.08467837
0.9255653,-0.2641033,-0.09553228
0.8995654,-0.3005117,-0.1083153
0.8916607,-0.3223377,-0.1313614
0.8474683,-0.3709449,-0.1594186
0.7873726,-0.3825906,-0.1520735
0.6857867,-0.3545289,-0.1523714
0.6143863,-0.2593401,-0.1275085
0.6824709,-0.08774474,-0.1048997
0.7861826,0.0214612,-0.1573797
0.8771069,0.03189801,-0.2045931
0.9279503,-0.02568955,-0.1830329
0.9269949,-0.09076182,-0.1525758
0.9661804,-0.1148064,-0.1493586
0.9962514,-0.09939137,-0.1417172
1.033695,-0.05615872,-0.1593375
1.126157,-0.05532473,-0.1923941
1.217293,-0.130813,-0.1947905
1.389329,-0.287515,-0.2458844
1.512682,-0.4052475,-0.3087537
1.410134,-0.3944739,-0.2895211
1.281447,-0.4551225,-0.2776633
1.196981,-0.600165,-0.3153502
1.158943,-0.6780829,-0.3538295
1.262948,-0.7338028,-0.3909523
1.330941,-0.745693,-0.3949404
1.226253,-0.6173544,-0.2969202
1.020819,-0.3846141,-0.1104434
0.7865969,-0.1791732,0.06194401
0.7456534,-0.09236417,0.09251005
0.9429032,-0.09751085,-0.02420929
1.037267,-0.1433453,-0.1169738
0.9190514,-0.2058452,-0.1023055
0.7518953,-0.2639324,-0.02194459
0.6099222,-0.2938646,0.06028312
0.5461864,-0.2813043,0.06383819
0.5671927,-0.2504094,0.04712818
0.5920788,-0.227051,0.08147882
0.6025959,-0.2200493,0.1023175
0.646077,-0.2266932,0.1126136
0.7202271,-0.2447533,0.1580034
0.7935652,-0.2937694,0.1876652
0.8336655,-0.3304467,0.1833685
0.8490698,-0.3206284,0.2072213
0.9273824,-0.3110311,0.2497007
1.026376,-0.2678878,0.2590983
1.053677,-0.1938773,0.2555143
1.063217,-0.1883875,0.2729894
1.10397,-0.2143727,0.3018549
1.178072,-0.206412,0.3100229
1.238354,-0.2169651,0.2797332
1.307456,-0.3039573,0.2317634
1.435291,-0.4684669,0.2029128
1.449495,-0.5737518,0.1903872
1.254881,-0.4847758,0.1669833
1.003654,-0.3592997,0.1236201
0.8736599,-0.349854,0.04723199
0.8707793,-0.4044966,-0.04047073
0.8516135,-0.5235786,-0.0824646
0.868398,-0.6172036,-0.08100856
0.9504283,-0.5972506,-0.08489105
0.982671,-0.5411971,-0.1255317
1.032685,-0.4465246,-0.1687423
1.033039,-0.3722718,-0.1511961
0.915995,-0.3398886,-0.1024723
0.8786078,-0.2682809,-0.08787549
0.9124639,-0.2724251,-0.1118114
0.9343105,-0.3208138,-0.1507974
0.9323042,-0.285189,-0.1703107
0.8616556,-0.2656132,-0.1738656
0.7666539,-0.2499686,-0.1576044
0.6689105,-0.2119851,-0.1058664
0.6432795,-0.2256093,-0.09993538
0.7139046,-0.2086655,-0.1439042
0.7944084,-0.1553918,-0.1824111
0.903922,-0.13025,-0.232042
0.9694764,-0.09663604,-0.2354214
0.981252,-0.08953232,-0.1975111
1.01266,-0.09111875,-0.1742718
1.021078,-0.06270807,-0.1418448
1.05183,-0.05697738,-0.1368856
1.075094,-0.07146361,-0.142447
1.070868,-0.09614164,-0.115367
1.110375,-0.09982139,-0.09934023
1.130687,-0.1171468,-0.1045678
1.171021,-0.1965841,-0.1338957
1.258928,-0.2370078,-0.174895
1.30649,-0.2485368,-0.1893021
1.311661,-0.2951495,-0.1631734
1.242714,-0.3935566,-0.1379623
1.140812,-0.5431196,-0.1644223
1.121499,-0.614948,-0.1801441
1.170178,-0.6162016,-0.1513188
1.197861,-0.6661519,-0.1117565
1.133514,-0.6942387,-0.0702265
1.011922,-0.5855077,-0.07542237
0.9039053,-0.3830162,-0.09097651
0.8619201,-0.2271486,-0.0645269
0.9045609,-0.1803426,-0.05942196
0.947189,-0.2162772,-0.04875909
0.9690697,-0.2703532,-0.01735709
0.9539541,-0.3143903,-0.03082118
0.8735004,-0.34227,-0.03916861
0.8408227,-0.2889943,-0.0186473
0.8563908,-0.2013076,-0.01463958
0.8701618,-0.1400568,-0.00522497
0.8974462,-0.108205,0.02127881
0.8785086,-0.1549869,0.05615441
0.8505733,-0.1904596,0.08517841
0.851691,-0.1806021,0.08710491
0.8399359,-0.2013499,0.09478639
0.832413,-0.2146406,0.1269279
0.820496,-0.2204927,0.151083
0.8171772,-0.2048945,0.170799
0.8227073,-0.1772866,0.2108296
0.8155124,-0.1974102,0.2318315
0.8350402,-0.2141728,0.2142328
0.8593137,-0.2235233,0.2199203
0.8801148,-0.222593,0.2381342
0.9388145,-0.1861748,0.2429006
1.010654,-0.169783,0.2687887
1.030107,-0.1748483,0.2839984
1.016896,-0.1812688,0.3023863
1.093502,-0.1951107,0.3404821
1.197225,-0.2484,0.3056191
1.234152,-0.3601229,0.2566327
1.334227,-0.444401,0.277588
1.457393,-0.4441002,0.2610684
1.449737,-0.4029181,0.1965573
1.307473,-0.3904163,0.1594078
1.069939,-0.4309492,0.1138639
0.8944738,-0.5098909,0.0490681
0.8346847,-0.6094961,-0.00221676
0.7883765,-0.6668574,-0.06458268
0.8778271,-0.6653859,-0.1466187
1.062784,-0.6156719,-0.2102916
1.070244,-0.5071458,-0.2399629
0.9830108,-0.4164472,-0.2125596
0.9164898,-0.3692197,-0.1423616
0.8388232,-0.3308846,-0.1160332
0.8308755,-0.3143432,-0.1271259
0.8471522,-0.2958552,-0.1636579
0.8296985,-0.2713169,-0.2392354
0.8143803,-0.2487758,-0.2535936
0.7565451,-0.221853,-0.2096743
0.6883702,-0.21508,-0.1804897
0.6779491,-0.2018637,-0.1542855
0.7373954,-0.1727385,-0.1498126
0.8525712,-0.1651028,-0.1765003
0.944928,-0.1557147,-0.223401
0.9694649,-0.1247533,-0.2455599
0.9669426,-0.09778288,-0.2070484
1.031573,-0.08522852,-0.1703774
1.161621,-0.06174395,-0.1644935
1.23467,-0.02605057,-0.1685807
1.260494,-0.0326187,-0.1626242
1.313302,-0.1291457,-0.1554173
1.364847,-0.3092252,-0.1985827
1.370933,-0.4645305,-0.2899263
1.317789,-0.5043117,-0.3468091
1.218571,-0.5220481,-0.2938874
1.117494,-0.6132136,-0.2165579
1.090047,-0.6880353,-0.2178139
1.121646,-0.6207367,-0.2237706
1.099131,-0.4797473,-0.194357
1.024994,-0.3736974,-0.1239382
0.9633092,-0.2482274,-0.01365803
0.9604233,-0.1647811,0.01380336
1.01915,-0.1950958,-0.05438506
1.035864,-0.2216704,-0.1325246
1.003526,-0.2658284,-0.190428
0.9607409,-0.3307608,-0.1739119
0.8723164,-0.343703,-0.1240439
0.7161576,-0.3506739,-0.06528665
0.511503,-0.3400851,0.05284262
0.4668526,-0.3193141,0.08618733
0.5740148,-0.2385978,0.05073605
0.5838056,-0.1022564,0.1090524
0.6352196,-0.1147206,0.1112187
0.741018,-0.1903262,0.08198181
0.7958385,-0.2293589,0.1572727
0.9465581,-0.3179016,0.2030149
1.073188,-0.3386956,0.2520523
1.140194,-0.2933973,0.308625
1.165266,-0.2965777,0.3142372
1.069111,-0.2956419,0.3741504
1.062551,-0.2732807,0.3989624
1.086601,-0.2533919,0.3426788
1.121203,-0.2733308,0.2809887
1.318991,-0.3935649,0.1823286
1.382965,-0.5353754,0.04632282
1.14149,-0.5385876,-0.08707205
0.7963364,-0.4352629,-0.076198
0.7155931,-0.4025229,-0.01536538
0.9157882,-0.4573378,-0.128613
1.048159,-0.5098029,-0.2098833
1.124879,-0.5230643,-0.2001906
1.08678,-0.4918664,-0.1953577
0.9444903,-0.4473152,-0.1008649
0.8894694,-0.3902282,-0.04054774
0.8188656,-0.3353219,-0.05825199
0.8175617,-0.3052157,-0.09070843
0.8581692,-0.2502042,-0.1691903
0.8281715,-0.2001145,-0.1946938
0.8625031,-0.1806268,-0.1828317
0.8446421,-0.1709953,-0.163122
0.7804997,-0.2029021,-0.1204438
0.7646114,-0.233882,-0.1256405
0.7408199,-0.2358918,-0.1310111
0.7906786,-0.2294341,-0.1440965
0.8681618,-0.1970665,-0.1772849
0.9116406,-0.1593179,-0.1703782
0.9286717,-0.1427386,-0.1643065
0.931009,-0.1362669,-0.1634016
1.013614,-0.114162,-0.1593787
1.105242,-0.1108363,-0.1793551
1.177581,-0.1606298,-0.2036971
1.260915,-0.2120297,-0.1995122
1.331595,-0.2815872,-0.2052775
1.462555,-0.3611571,-0.2616943
1.502582,-0.3519043,-0.2920499
1.373711,-0.3442435,-0.2671394
1.222441,-0.4790501,-0.2271785
1.064119,-0.6023096,-0.1998212
1.072903,-0.584388,-0.2255489
1.150356,-0.5799972,-0.2520115
1.04759,-0.5934178,-0.2212311
1.039969,-0.5299594,-0.1859154
1.027242,-0.4654788,-0.1440019
0.8686093,-0.3600974,-0.06080389
0.9123129,-0.2416302,-0.03570869
1.019687,-0.2330764,-0.0912562
1.052512,-0.2116197,-0.12013
1.060666,-0.2010675,-0.1335836
0.9278287,-0.2826779,-0.1018635
0.7898493,-0.3231166,-0.01806705
0.6694571,-0.343793,-0.0028036
0.5950693,-0.3339064,0.0146642
0.6415271,-0.2788856,0.06698645
0.6576261,-0.2838027,0.06653214
0.6914016,-0.2740685,0.06761927
0.7077377,-0.265256,0.08017472
0.6957989,-0.2804916,0.1104124
0.7652575,-0.260123,0.1706558
0.7831361,-0.2921491,0.1913846
0.8278423,-0.3173292,0.2177703
0.960395,-0.2830454,0.2672495
1.059768,-0.2536159,0.2779573
1.142635,-0.2234254,0.2894332
1.152974,-0.2266748,0.321017
1.13383,-0.2198067,0.3437468
1.15417,-0.166244,0.3392175
1.164506,-0.1482541,0.2922788
1.237415,-0.2506286,0.2428564
1.356657,-0.4774244,0.2085047
1.380673,-0.6132002,0.133679
1.231453,-0.5399415,0.03505833
0.9838523,-0.4411727,-0.01845158
0.8761061,-0.41924,-0.07477162
0.9556666,-0.4511063,-0.1580713
1.034613,-0.5312647,-0.1776499
1.075888,-0.5884467,-0.1638671
1.1054,-0.5881172,-0.1708251
1.009025,-0.5301658,-0.1479061
0.8414217,-0.3860828,-0.1096534
0.757445,-0.2927227,-0.07731028
0.7096585,-0.2902181,-0.06778089
0.7035372,-0.2634283,-0.1246824
0.7470666,-0.254084,-0.2060819
0.7740326,-0.2372996,-0.2538367
0.821367,-0.2114542,-0.2465893
0.843399,-0.2419475,-0.1916563
0.8240749,-0.2484605,-0.1419731
0.8278857,-0.2225963,-0.144876
0.8257848,-0.191018,-0.1778788
0.8473536,-0.1730317,-0.1916572
0.8965773,-0.1844099,-0.2052055
0.9312486,-0.1695869,-0.2112476
0.9853366,-0.1548765,-0.1981251
1.058326,-0.1623224,-0.2010273
1.124674,-0.1462543,-0.1922521
1.178451,-0.07112885,-0.1959599
0.653997,-0.1616316,0.1015733
0.6915905,-0.1654334,0.0947756
0.7469022,-0.213853,0.08199091
0.754179,-0.2701875,0.1094322
0.7932423,-0.3086335,0.157793
0.8975871,-0.2927845,0.1900831
1.047656,-0.2646697,0.2252495
1.178056,-0.330686,0.2563039
1.193876,-0.3793693,0.2758875
1.212072,-0.3587547,0.279761
1.252592,-0.3627863,0.2101007
1.317312,-0.3843428,0.1099049
1.404764,-0.4585496,0.06213868
1.229809,-0.5410398,0.03027969
0.8823372,-0.5102206,-0.01203437
0.7612587,-0.4852381,-0.05330378
0.8668131,-0.5633831,-0.1061906
1.043249,-0.6086407,-0.1749278
1.193868,-0.5852893,-0.24011
1.206163,-0.5682674,-0.2409023
1.056571,-0.5078114,-0.1415355
0.9393807,-0.417502,-0.05780905
0.958589,-0.3805297,-0.08651858
0.9432161,-0.3225216,-0.1185884
0.9447743,-0.2391078,-0.1149858
1.006661,-0.2133677,-0.160297
0.9327099,-0.183529,-0.1775977
0.8044762,-0.1636997,-0.1310108
0.7172067,-0.206003,-0.114344
0.641072,-0.2267438,-0.08983872
0.6592016,-0.2491518,-0.06843577
0.7159253,-0.2566079,-0.115003
0.7478639,-0.175849,-0.1645353
0.7991338,-0.1063528,-0.1898476
0.8437181,-0.0713204,-0.1912191
0.89708,-0.06589358,-0.1836534
0.9881776,-0.09197197,-0.192028
1.095633,-0.1132051,-0.1823356
1.189141,-0.1860141,-0.1744469
1.247463,-0.2693998,-0.1802872
1.344901,-0.3444519,-0.219739
1.494298,-0.4163713,-0.3219389
1.547179,-0.4120654,-0.3786546
1.414245,-0.4448854,-0.3477243
1.197889,-0.5717143,-0.3228355
1.05767,-0.6726388,-0.3162179
1.019243,-0.6842861,-0.2916555
1.059481,-0.6222375,-0.2758569
1.094031,-0.5556427,-0.2376133
1.038474,-0.4825659,-0.1346319
0.9941741,-0.3888751,-0.05436976
0.9916743,-0.3063719,-0.02436732
1.030468,-0.2531112,-0.05771031
1.092806,-0.2552894,-0.1474877
1.022285,-0.2633267,-0.1453481
0.9007178,-0.2632341,-0.0700426
0.8176283,-0.2855245,-0.0001823917
0.6885957,-0.2660066,0.05614124
0.5812655,-0.2151714,0.05565771
0.5296783,-0.1691579,0.07243059
0.5266171,-0.1437179,0.09628682
0.5767667,-0.1858621,0.08982887
0.6204599,-0.2414777,0.128775
0.6724357,-0.2958165,0.16651
0.7515139,-0.3399444,0.2009299
0.876122,-0.2992531,0.2439456
1.018241,-0.2480721,0.2483039
1.081959,-0.2420471,0.2545861
1.13185,-0.2560713,0.2593809
1.216964,-0.2912841,0.2536863
1.271372,-0.3259172,0.2382574
1.312398,-0.4206624,0.1876744
1.328602,-0.5497594,0.1414125
1.214211,-0.5425915,0.1371914
0.9897526,-0.421308,0.1480823
0.845749,-0.3427284,0.1099534
0.8688364,-0.4011921,0.01698259
1.024623,-0.533884,-0.1082729
1.198767,-0.5908257,-0.2162879
1.176588,-0.5761673,-0.2099347
1.052024,-0.5314686,-0.1427767
1.012326,-0.4757603,-0.1005136
0.9474642,-0.4323666,-0.08578954
0.8900801,-0.3614215,-0.1116812
0.8886246,-0.326339,-0.1313456
0.8584732,-0.3548677,-0.1455366
0.8505937,-0.3521838,-0.1764051
0.8438148,-0.3188881,-0.1839993
0.8254231,-0.2682865,-0.1966832
0.8363257,-0.2276492,-0.1981869
0.8225859,-0.2270558,-0.1548701
0.7830539,-0.1995657,-0.1194037
0.7409913,-0.1540499,-0.1052612
0.7432829,-0.1649854,-0.1137919
0.7704913,-0.1674026,-0.1249781
0.7788208,-0.1121294,-0.1187289
0.8413331,-0.08980358,-0.1317572
0.899902,-0.09814378,-0.1386881
0.9426109,-0.1042423,-0.1357851
1.042554,-0.1346097,-0.1545467
1.126866,-0.1864952,-0.1583115
1.214222,-0.294587,-0.1594013
1.294464,-0.3980353,-0.1901133
1.291751,-0.4215258,-0.2469043
1.254679,-0.4387695,-0.3122668
1.19995,-0.4784649,-0.3335179
1.165034,-0.5497743,-0.3042172
1.163232,-0.64402,-0.2716747
1.139999,-0.6797875,-0.2708071
1.127308,-0.6284515,-0.2737744
1.098218,-0.5533458,-0.2267856
1.030122,-0.4888596,-0.1370413
1.01279,-0.3774919,-0.05277232
1.043184,-0.2993316,-0.04125363
1.069446,-0.3079691,-0.068973
1.083738,-0.2743932,-0.06730768
1.05311,-0.2712038,-0.08112578
0.9810168,-0.3369116,-0.07509532
0.9217679,-0.3543662,-0.02075181
0.8531917,-0.3512306,0.02596703
0.7420057,-0.3050511,0.08349881
0.6600817,-0.2243045,0.1149503
0.6483105,-0.187335,0.1061287
0.6527915,-0.1729017,0.112056
0.6417872,-0.1859051,0.1099571
0.6225224,-0.200081,0.1141139
0.604672,-0.2121686,0.1416526
0.6110771,-0.2357623,0.1659515
0.6563617,-0.2218943,0.1829018
0.7352969,-0.2163962,0.1934581
0.8496479,-0.2278207,0.2164343
1.006742,-0.2341576,0.2228076
1.202817,-0.2537508,0.1999326
1.356237,-0.2387697,0.184241
1.391583,-0.2336286,0.1583555
1.404573,-0.3336754,0.1424376
1.440632,-0.5116799,0.1424589
1.376008,-0.6273831,0.1319964
1.142606,-0.5916053,0.1355052
0.8242907,-0.5522559,0.1093203
0.6640664,-0.6038412,0.02952833
0.7381983,-0.6983968,-0.03077107
0.8463997,-0.834285,-0.04153166
0.9722617,-0.8534765,-0.07008896
1.073044,-0.7171975,-0.1709591
1.027571,-0.6213461,-0.2325514
0.9985834,-0.5256563,-0.1981433
0.934715,-0.3903438,-0.1551137
0.7730883,-0.2633745,-0.1104128
0.7761188,-0.2110055,-0.09869456
0.8352732,-0.2895396,-0.1587239
0.8222778,-0.2771977,-0.2384088
0.8661363,-0.2475694,-0.2945825
0.8549811,-0.3383313,-0.2739761
0.7788613,-0.3615034,-0.2275355
0.7471174,-0.4008971,-0.2297978
0.7146579,-0.3344585,-0.2240375
0.7117892,-0.1178072,-0.221258
0.8201213,-0.0547819,-0.2381289
1.009195,-0.04458616,-0.2486823
1.084526,-0.0632294,-0.2605473
1.004808,-0.0937176,-0.201989
0.9884702,-0.05753953,-0.09119006
1.014859,-0.08607825,-0.04097519
1.026579,-0.08461005,-0.04213498
1.125776,-0.0743668,-0.05895637
1.191993,-0.1146741,-0.06587031
1.154594,-0.160901,-0.06246837
1.138754,-0.2556245,-0.06914255
1.168524,-0.2609973,-0.08245139
1.235201,-0.2400453,-0.1202408
1.308421,-0.2986221,-0.1529756
1.289825,-0.3354241,-0.1662804
1.212545,-0.4238894,-0.228486
1.185648,-0.5278778,-0.3438159
1.164842,-0.5797509,-0.3945728
1.128955,-0.6556859,-0.2839397
1.091752,-0.6934973,-0.1297674
1.040977,-0.6400517,-0.08508442
1.079933,-0.5316011,-0.1143171
1.135971,-0.383916,-0.1596999
1.099501,-0.2358703,-0.1838938
1.030603,-0.1455272,-0.1183089
0.8870875,-0.1337286,-0.005720014
0.7732937,-0.1949846,0.03117371
0.7753455,-0.2898787,0.01485209
0.756961,-0.3454943,0.01811544
0.7324602,-0.3528213,0.008924178
0.7052637,-0.32091,0.005725183
0.6506866,-0.2596277,0.04610135
0.6305009,-0.2207102,0.1023648
0.6257107,-0.2026246,0.1489361
0.6343382,-0.2082268,0.1513946
0.6773903,-0.2581472,0.142797
0.7504276,-0.3151015,0.1682637
0.8639598,-0.3333879,0.2171573
0.9699809,-0.3193133,0.283126
1.019914,-0.3328909,0.2928486
1.091928,-0.3435632,0.2580508
1.217822,-0.3121677,0.2646797
1.254649,-0.3168431,0.2513955
1.246107,-0.3872045,0.2192699
1.370946,-0.4928178,0.2001373
1.45897,-0.5456858,0.118606
1.270215,-0.5114255,0.03189864
0.9428997,-0.479898,0.01574779
0.771452,-0.4569324,-0.004090089
0.8100094,-0.4816524,-0.06736647
0.954988,-0.562029,-0.1402136
1.122753,-0.5672016,-0.1886029
1.145932,-0.5244111,-0.2003628
1.055618,-0.4866322,-0.1806994
1.0057,-0.4409618,-0.1329631
0.9264536,-0.4103275,-0.08953375
0.872131,-0.3517239,-0.09835343
0.8673238,-0.2865412,-0.1252273
0.8379985,-0.27726,-0.1195637
0.8634377,-0.2598151,-0.1365918
0.8505202,-0.1926367,-0.1786284
0.7998922,-0.167192,-0.1764229
0.7890769,-0.1899291,-0.1370203
0.6904748,-0.1620967,-0.09239533
0.643201,-0.1551749,-0.09266056
0.72405,-0.1831775,-0.1193559
0.7932945,-0.1609711,-0.1319791
0.8682014,-0.1483957,-0.1857726
0.8929221,-0.1346855,-0.2179445
0.9021583,-0.1363729,-0.1976665
0.9693025,-0.1745263,-0.2071525
1.01173,-0.1640955,-0.2064178
1.075712,-0.1677125,-0.2011025
1.157392,-0.199018,-0.2124622
1.216207,-0.2431455,-0.2088293
1.297997,-0.3368301,-0.2299763
1.320412,-0.3884918,-0.251444
1.2677,-0.4191818,-0.2385313
1.217289,-0.4839666,-0.2362656
1.14755,-0.5115568,-0.2604297
1.079791,-0.5019072,-0.2798597
1.064757,-0.5072246,-0.2652531
1.082138,-0.544078,-0.2474455
1.089864,-0.5815541,-0.2421574
1.065046,-0.5855757,-0.2145122
1.040616,-0.5274037,-0.1503767
1.039478,-0.4260731,-0.08363417
1.049842,-0.358998,-0.09151418
1.070581,-0.2962527,-0.1228861
1.078007,-0.2207464,-0.08979678
1.054377,-0.2235431,-0.0644836
0.9950179,-0.2948224,-0.03380006
0.9209056,-0.3492792,0.01191084
0.8756712,-0.3576034,-0.007444202
0.8167674,-0.3219652,0.001355077
0.7217984,-0.2483113,0.04095822
0.6592665,-0.1717087,0.04204301
0.6292181,-0.1517549,0.08878166
0.5996466,-0.1998287,0.1572278
0.5818827,-0.2518575,0.2129922
0.5839485,-0.2741801,0.2443788
0.63632,-0.2854532,0.2132697
0.7694571,-0.2914423,0.2081921
0.8963123,-0.3001341,0.2254174
0.9320263,-0.2883175,0.2241236
1.012286,-0.2711525,0.2375103
1.151495,-0.2859332,0.2192656
1.151688,-0.2804961,0.1970904
1.117705,-0.2655293,0.2223297
1.141128,-0.263281,0.2373485
1.123207,-0.296401,0.2150856
1.178468,-0.4691605,0.1632052
1.281527,-0.6626632,0.1024601
1.276672,-0.637362,0.06530183
1.146423,-0.4875416,0.0263453
0.9328426,-0.4378688,-0.009136334
0.8103946,-0.4603131,0.00243557
0.8098186,-0.5218502,-0.03188369
0.9023259,-0.6333886,-0.1237435
1.058094,-0.6669396,-0.136016
1.04281,-0.6272795,-0.1157606
0.9302259,-0.5495633,-0.106585
0.8959881,-0.3951958,-0.08207606
0.8819825,-0.2578183,-0.1180891
0.9382066,-0.195838,-0.1819433
0.9848132,-0.1936688,-0.2078275
0.9282332,-0.2380931,-0.210053
0.8502289,-0.2975294,-0.1861934
0.7434921,-0.3159691,-0.1590625
0.7014536,-0.2900362,-0.150722
0.7685015,-0.2816602,-0.1671279
0.8044872,-0.2484917,-0.1915988
0.823188,-0.186911,-0.2069226
0.8665466,-0.1406506,-0.2237516
0.9045454,-0.09596648,-0.2180187
0.9318443,-0.08750853,-0.1951311
0.9295849,-0.08593692,-0.1787577
0.9323404,-0.06981376,-0.1486823
0.981292,-0.06152255,-0.1256295
1.045001,-0.05073933,-0.1351236
1.118316,-0.09906672,-0.1491482
1.172581,-0.1918092,-0.1508308
1.158916,-0.2395947,-0.1501136
1.183234,-0.2471766,-0.1528335
1.285372,-0.2626851,-0.1668764
1.320908,-0.3038381,-0.1974359
1.269383,-0.3306349,-0.2178429
1.190442,-0.3595581,-0.2121047
1.102597,-0.4389779,-0.1960662
1.061022,-0.5254829,-0.175609
1.098373,-0.5704156,-0.165792
1.140299,-0.5735274,-0.173594
1.100895,-0.5740915,-0.1742934
1.00293,-0.5546227,-0.1628926
0.8906709,-0.489849,-0.1383127
0.8638229,-0.4723421,-0.09036294
0.9461674,-0.4841635,-0.02411276
0.9745347,-0.4515043,0.03307946
0.9886507,-0.423542,0.007679991
1.02423,-0.3984521,-0.07052869
0.9898993,-0.3735641,-0.07714594
0.9689672,-0.3732244,-0.06361553
0.9440389,-0.3568898,-0.06099425
0.9095403,-0.3014997,-0.0166044
0.9181254,-0.2333586,-0.008198051
0.8848514,-0.2140614,-0.004711382
0.835004,-0.2322064,0.04933567
0.7641171,-0.2064891,0.1040533
0.6712411,-0.1578328,0.1621242
0.6495101,-0.1405593,0.1738139
0.6637636,-0.1504733,0.1604225
0.6901989,-0.1707309,0.1737869
0.7217766,-0.1907152,0.1824863
0.7675478,-0.2027786,0.2281348
0.8560289,-0.1872099,0.2683027
0.9342646,-0.1609068,0.2548815
1.010319,-0.1496,0.2485349
1.098482,-0.1247734,0.2510856
1.137889,-0.09972767,0.2575148
1.110703,-0.1088639,0.2729478
1.107576,-0.1872904,0.2818604
1.191933,-0.4222798,0.2464127
1.346956,-0.6906561,0.1692103
1.474071,-0.7146472,0.1190121
1.286564,-0.5959834,0.09232942
0.9124211,-0.538021,0.04115441
0.7879643,-0.4670819,-0.04172152
0.8105252,-0.5039553,-0.108557
0.8961742,-0.6678611,-0.1354731
1.061509,-0.6646054,-0.16775
1.101255,-0.5745298,-0.2015045
1.078925,-0.4927883,-0.2148055
1.062539,-0.3942693,-0.1997807
0.9757338,-0.367057,-0.1496751
0.8744145,-0.2873486,-0.1036854
0.8545024,-0.2488834,-0.1069344
0.8731189,-0.2896457,-0.1596515
0.8048549,-0.2077433,-0.1903978
0.7827313,-0.2058879,-0.1721104
0.8066498,-0.2569608,-0.1539316
0.724719,-0.2269684,-0.1390925
0.7032778,-0.2654602,-0.1333173
0.7330321,-0.2396661,-0.1409049
0.7306146,-0.1485291,-0.1458012
0.7826222,-0.1205843,-0.1572714
0.8931255,-0.0982102,-0.1838553
1.048184,-0.09854751,-0.2249536
1.097942,-0.09536217,-0.2383414
1.087484,-0.1048885,-0.1967561
1.183235,-0.1388135,-0.1503129
1.213955,-0.1591699,-0.1425463
1.244474,-0.2469526,-0.1832995
1.398065,-0.369003,-0.2431484
1.438932,-0.4593355,-0.2688736
1.332095,-0.5104231,-0.2751175
1.200483,-0.5257293,-0.3028884
1.078499,-0.537571,-0.3291669
1.032572,-0.5117791,-0.336821
1.070863,-0.5047366,-0.3202193
1.090319,-0.5501297,-0.2511418
1.02614,-0.5685062,-0.1676013
0.9355672,-0.5281425,-0.1258201
0.8830871,-0.4336978,-0.1167994
0.9210341,-0.3741162,-0.1141826
1.011802,-0.3465645,-0.12007
1.022436,-0.3191493,-0.137325
0.9849752,-0.3374252,-0.1030551
0.9218789,-0.3414299,-0.02122089
0.8150968,-0.3378425,0.01775657
0.7557077,-0.3306138,0.01703104
0.713128,-0.280335,0.009744355
0.6732173,-0.2517398,0.02039804
0.6629993,-0.2477874,0.05382354
0.6215294,-0.2465159,0.08197409
0.6008883,-0.2465796,0.1086324
0.6723668,-0.2522896,0.1265107
0.8104396,-0.2656302,0.1587274
0.9214042,-0.248819,0.1888384
0.9235198,-0.2414175,0.182869
0.9194198,-0.2705029,0.221973
1.019379,-0.2935215,0.2719813
1.134271,-0.3045644,0.2555973
1.185421,-0.3292758,0.2139048
1.219092,-0.4136793,0.1534395
1.2528,-0.5422356,0.09415634
1.255202,-0.5998577,0.07199484
1.174191,-0.5183966,0.06651194
1.01451,-0.4212429,0.03085931
0.8908241,-0.4249713,-0.02941904
0.8740974,-0.4810586,-0.04761643
0.9506518,-0.5524798,-0.05497785
1.034346,-0.5592418,-0.1082613
1.049096,-0.4748032,-0.1533712
1.025609,-0.4068192,-0.1512893
0.9942628,-0.3530853,-0.1266624
0.9539395,-0.3129516,-0.106843
0.9155419,-0.2935903,-0.1073186
0.9203619,-0.2969391,-0.123115
0.938543,-0.3500422,-0.1370112
0.9044744,-0.3628102,-0.1389327
0.8601185,-0.3496668,-0.1217602
0.7884353,-0.3317047,-0.0973704
0.6985394,-0.2567881,-0.09308342
0.6741529,-0.2012915,-0.106625
0.6732211,-0.1536217,-0.1187906
0.6972603,-0.1200715,-0.1318092
0.7892085,-0.1424111,-0.1706135
0.8917546,-0.1437992,-0.2154628
0.9173846,-0.1441941,-0.2067587
0.9016186,-0.1591374,-0.1875949
0.9638037,-0.1557996,-0.2106495
1.052431,-0.162395,-0.2306955
1.150687,-0.2080627,-0.262801
1.225508,-0.3105955,-0.29926
1.187937,-0.4121727,-0.287437
1.249685,-0.4333049,-0.2865415
1.393204,-0.3885851,-0.2897885
1.417811,-0.3720818,-0.2730219
1.368077,-0.4418824,-0.304378
1.213767,-0.534307,-0.3477009
1.068854,-0.5821731,-0.3525885
1.019793,-0.5931124,-0.3148036
0.9929935,-0.5943409,-0.2564578
1.023261,-0.5714792,-0.2376272
1.014095,-0.5067349,-0.2122176
0.9883528,-0.4357796,-0.1546536
0.977634,-0.3763856,-0.09982253
0.9250279,-0.3406541,-0.05146393
0.965593,-0.3356793,-0.06399863
1.014948,-0.3314475,-0.1066759
0.997688,-0.3463563,-0.1090188
0.9886448,-0.3743308,-0.0823225
0.9174187,-0.3549024,-0.02178679
0.8079066,-0.310842,0.01342305
0.7025226,-0.2726076,0.0106517
0.6398286,-0.229993,0.04316752
0.6486858,-0.1977995,0.07582793
0.6465232,-0.1778682,0.09140484
0.628813,-0.1959537,0.10202
0.6215648,-0.2499141,0.1074768
0.6592145,-0.2765407,0.1419336
0.769601,-0.292097,0.1717921
0.8957789,-0.2936896,0.1833831
0.9834562,-0.2697367,0.2159395
1.022367,-0.2725513,0.2612203
1.076415,-0.2765335,0.2810888
1.143543,-0.2849774,0.2616109
1.170413,-0.324544,0.244808
1.225691,-0.3941245,0.2150829
1.281976,-0.5020971,0.163273
1.237032,-0.5203188,0.1608859
1.143721,-0.4434749,0.162918
1.037113,-0.4222776,0.1045851
0.9153085,-0.4271395,0.02672419
0.8861466,-0.463023,-0.03883792
0.9479764,-0.5596773,-0.06579017
0.9751429,-0.6120076,-0.06522397
0.9832813,-0.596576,-0.08657372
0.9758363,-0.542705,-0.1177942
0.9233171,-0.4615459,-0.1377213
0.9015443,-0.4046376,-0.1415806
0.8940244,-0.3945079,-0.1237645
0.859097,-0.3754665,-0.1189665
0.8448392,-0.3455423,-0.12381
0.8842507,-0.3601151,-0.1167261
0.9470557,-0.35028,-0.1255907
0.9513596,-0.3070295,-0.1473606
0.9145133,-0.2874193,-0.1732487
0.8731671,-0.2559956,-0.1786993
0.8146403,-0.2679765,-0.1443069
0.7775096,-0.2848627,-0.1187999
0.747374,-0.2295272,-0.1115186
0.7405549,-0.1812599,-0.1318812
0.8153377,-0.1323222,-0.1812373
0.9185673,-0.1246426,-0.2194988
0.9920325,-0.1648746,-0.2502755
1.030081,-0.1565813,-0.2383799
1.04066,-0.1439249,-0.2014707
1.043348,-0.1372355,-0.1958966
1.083896,-0.1689134,-0.1779343
1.159673,-0.2529108,-0.1832024
1.216225,-0.3081333,-0.2401774
1.27061,-0.3775536,-0.2989247
1.289145,-0.4463318,-0.3383667
1.225517,-0.5016757,-0.3187893
1.156307,-0.5935819,-0.3046111
1.109624,-0.6294081,-0.33103
1.094432,-0.5962636,-0.318095
1.13539,-0.5661837,-0.3070336
1.158163,-0.5235699,-0.2952169
1.102813,-0.4584777,-0.2306009
1.009841,-0.4051905,-0.1401926
0.9558226,-0.3814056,-0.05986957
0.9706729,-0.3568762,-0.06907315
1.011832,-0.3305306,-0.1186294
1.028826,-0.315427,-0.1158643
0.9955804,-0.3290497,-0.08928412
0.9253072,-0.3860149,-0.03095648
0.8624075,-0.4014692,-0.004574613
0.8145226,-0.3307482,-0.02922656
0.7621436,-0.2291165,-0.01648447
0.7078019,-0.1670314,0.005147413
0.6526665,-0.1571223,0.05404641
0.6076288,-0.1400923,0.1193973
0.6021601,-0.1623171,0.1164019
0.6258894,-0.2336302,0.1341406
0.681033,-0.2756943,0.1911376
0.8024369,-0.3043259,0.1793304
0.9198841,-0.2979567,0.1729039
0.9564988,-0.2722093,0.2415208
0.9623528,-0.2730167,0.2850186
0.9667214,-0.2648374,0.2862865
0.9990798,-0.2754525,0.2851889
1.090341,-0.3082266,0.2759679
1.166308,-0.3528512,0.2713504
1.220634,-0.4038454,0.2507275
1.29446,-0.4159602,0.2227589
1.327928,-0.4712223,0.1918194
1.256281,-0.5394332,0.1477042
1.098637,-0.469137,0.1234434
0.9661923,-0.3987853,0.02666313
0.9406719,-0.4487218,-0.1251715
0.9895574,-0.5145523,-0.1752866
1.027497,-0.5996161,-0.1835983
1.022784,-0.6633913,-0.1750486
0.992973,-0.6093974,-0.1146069
0.9408556,-0.5438331,-0.0955524
0.9382805,-0.4719681,-0.1076718
0.9759188,-0.3458983,-0.1234484
0.9624101,-0.2782697,-0.15897
0.929032,-0.2423734,-0.1408802
0.8662839,-0.2185176,-0.1054194
0.8139767,-0.2417545,-0.1198066
0.8287974,-0.2372054,-0.1402265
0.8145742,-0.2467695,-0.1686791
0.7813963,-0.2763051,-0.1716864
0.7544411,-0.272281,-0.1447653
0.7181889,-0.2880915,-0.1463909
0.7234231,-0.2911737,-0.1413411
0.7744952,-0.23958,-0.1632967
0.8842768,-0.1676955,-0.2175544
0.9865571,-0.1337219,-0.2247513
0.9875144,-0.1603188,-0.2246214
0.9628249,-0.1646579,-0.2136571
0.9705006,-0.145868,-0.1881502
1.003715,-0.1595083,-0.2098162
1.075811,-0.201357,-0.2296458
1.167955,-0.2851897,-0.2259163
1.23634,-0.3646234,-0.2438054
1.258708,-0.3813881,-0.2676851
1.240837,-0.3706609,-0.2813209
1.195008,-0.3709192,-0.2931956
1.144448,-0.4015765,-0.2790812
1.121468,-0.471638,-0.2326672
1.138109,-0.5609907,-0.2214572
1.154256,-0.6166085,-0.2628045
1.139702,-0.6070791,-0.2847083
1.083049,-0.5558706,-0.2417075
0.7717327,-0.2322407,0.1469182
0.8392558,-0.2450513,0.1864144
0.9330039,-0.2298422,0.2125075
0.9965124,-0.2101534,0.2528967
1.038171,-0.196669,0.2419762
1.100293,-0.1884625,0.236409
1.112504,-0.1589004,0.2451707
1.100941,-0.1718492,0.227098
1.14046,-0.3066834,0.2215067
1.206549,-0.5241398,0.1926101
1.237559,-0.648782,0.1293727
1.160203,-0.6033967,0.04237393
1.006895,-0.5464409,-0.04118348
0.9057983,-0.5110529,-0.07344006
0.9339724,-0.4888676,-0.1182037
1.006082,-0.5264431,-0.1624529
1.04314,-0.5228905,-0.1625567
1.089238,-0.4935269,-0.1611105
1.050675,-0.4724524,-0.1444329
0.943845,-0.4131373,-0.1074289
0.9306263,-0.3835692,-0.06790114
0.9229925,-0.3502803,-0.06844311
0.9056903,-0.2766258,-0.1025642
0.9098055,-0.2152966,-0.1080017
0.8474401,-0.165005,-0.1265566
0.7706101,-0.166505,-0.1205447
0.6921269,-0.2094933,-0.07438783
0.6352099,-0.2459875,-0.07454011
0.6536432,-0.264362,-0.07692421
0.6828994,-0.2290361,-0.1262119
0.7579435,-0.1738041,-0.2305105
0.8867342,-0.133972,-0.2536643
0.9799765,-0.1102331,-0.2460163
1.031976,-0.11905,-0.2384086
1.0954,-0.1123841,-0.1945659
1.186666,-0.06248206,-0.1791385
1.23603,-0.02867943,-0.1908464
1.221872,-0.06518729,-0.1961919
1.183379,-0.1649407,-0.2091592
1.180277,-0.2825156,-0.2414421
1.296838,-0.3800998,-0.2875182
1.487394,-0.4221166,-0.313032
1.561322,-0.4750031,-0.3078859
1.407165,-0.6288119,-0.3022904
1.158354,-0.7210497,-0.3010688
0.9805353,-0.6334026,-0.2962137
0.9343739,-0.5451529,-0.2950231
0.9771389,-0.5339769,-0.2780676
0.9891751,-0.5104774,-0.2343653
1.021651,-0.4425556,-0.171514
1.048292,-0.3568579,-0.1028042
1.004631,-0.3284986,-0.08995039
1.020368,-0.3272958,-0.1092636
0.9907353,-0.2815132,-0.09397796
0.8842766,-0.2783659,-0.08973121
0.8269036,-0.295127,-0.06798177
0.7688114,-0.2671319,0.007121636
0.7529236,-0.2626384,0.04878439
0.7203281,-0.2454702,0.05662447
0.6339963,-0.2093302,0.06291485
0.6018805,-0.1832944,0.06916843
0.5763267,-0.1565861,0.1097913
0.5823318,-0.1868664,0.1571146
0.6151023,-0.232059,0.176022
0.671718,-0.249521,0.2079127
0.8287873,-0.2258115,0.2674906
0.9639322,-0.152269,0.2807445
1.028632,-0.1422079,0.2556985
1.115187,-0.1840314,0.2797878
1.223761,-0.2283958,0.2943982
1.234205,-0.2938206,0.2553609
1.210389,-0.412881,0.1632114
1.401772,-0.6902239,0.01955667
1.534547,-0.8680396,-0.008040259
1.270566,-0.6465032,0.05230802
0.9129686,-0.3967147,0.03018319
0.8058947,-0.4081323,0.01067712
0.9158178,-0.4830371,-0.02791837
0.9999397,-0.5578856,-0.1387888
1.014216,-0.5977146,-0.1625671
1.02329,-0.5298581,-0.1228432
0.973312,-0.4709884,-0.1265657
0.9461015,-0.4177304,-0.1227886
0.9259658,-0.3333936,-0.1078633
0.8691726,-0.3044846,-0.1166909
0.8564886,-0.3074619,-0.1429608
0.8264147,-0.318685,-0.1736114
0.8144757,-0.329676,-0.1838224
0.8258647,-0.297937,-0.1843289
0.8018056,-0.2469655,-0.1854558
0.8223667,-0.2126214,-0.1573374
0.8235938,-0.2045297,-0.1278268
0.7982875,-0.203911,-0.1316404
0.7966732,-0.2100099,-0.1382445
0.7756873,-0.207636,-0.1509622
0.8218389,-0.1424597,-0.1746391
0.9298092,-0.06739109,-0.179183
1.019219,-0.0740741,-0.1843458
1.079406,-0.1152071,-0.1984886
1.10702,-0.1197463,-0.1858545
1.178391,-0.1301872,-0.1540686
1.276795,-0.170963,-0.1367725
1.337045,-0.2471582,-0.1467844
1.360623,-0.3780753,-0.190861
1.303273,-0.4761191,-0.256437
1.196244,-0.5102679,-0.2882592
1.103378,-0.5830217,-0.2651848
1.051223,-0.7256034,-0.2549936
1.070922,-0.809137,-0.280095
1.112195,-0.7412807,-0.2786846
1.13269,-0.6304524,-0.2453898
1.096543,-0.5027549,-0.1948096
0.9740276,-0.3417612,-0.1130873
0.9023473,-0.2221155,-0.04023291
0.9831366,-0.1584217,-0.04364449
1.093543,-0.1995171,-0.1204332
1.088854,-0.2431985,-0.1589843
0.9725722,-0.2401267,-0.09803484
0.8301449,-0.348245,-0.01707588
0.7557704,-0.4266712,0.02579414
0.7694159,-0.4094317,0.0366207
0.7494318,-0.3504827,0.03801014
0.6908736,-0.1920661,0.04601188
0.6746628,-0.1011945,0.07020833
0.6610384,-0.100227,0.09823385
0.6635283,-0.1170118,0.1039638
0.6583512,-0.2127983,0.1382056
0.6318356,-0.2901834,0.1934847
0.6691133,-0.2809961,0.1981329
0.7303011,-0.249453,0.2115176
0.8091266,-0.2474089,0.2542609
0.9047093,-0.2151828,0.2659415
0.9582565,-0.1783752,0.2771109
1.024603,-0.2141926,0.2955945
1.106125,-0.2175066,0.2958535
1.162898,-0.2508117,0.3052606
1.204526,-0.3262961,0.3171751
1.254728,-0.3646695,0.3102425
1.355679,-0.4813838,0.2425744
1.414199,-0.5514539,0.1398846
1.287403,-0.4770068,0.1351253
1.089622,-0.4063523,0.1235758
1.003996,-0.4099547,0.009258485
0.9341775,-0.5126897,-0.04952152
0.8319117,-0.6664326,-0.07177377
0.8368319,-0.7950627,-0.1074123
0.871865,-0.819692,-0.128058
0.8701459,-0.7621665,-0.1803056
0.9177151,-0.6980408,-0.2098189
0.9584464,-0.5877989,-0.2122345
0.9667627,-0.4877974,-0.2207889
0.9697847,-0.4200931,-0.2087236
0.9321829,-0.3300296,-0.2158936
0.8963963,-0.2572169,-0.2171204
0.9008095,-0.2241838,-0.2186405
0.9072923,-0.2376831,-0.2450149
0.8885338,-0.2646706,-0.2315909
0.8384018,-0.2842638,-0.2049712
0.7639206,-0.2879942,-0.1782188
0.7125677,-0.2476061,-0.1619774
0.72923,-0.2091629,-0.1819727
0.7810891,-0.1578917,-0.1876681
0.8515258,-0.09712447,-0.1941569
0.929546,-0.1169846,-0.1827792
0.9526178,-0.1448883,-0.1479098
0.9548519,-0.08623405,-0.1485448
0.9915748,-0.03760078,-0.1182413
1.026532,-0.04866702,-0.07460266
1.049819,-0.04472755,-0.0880271
1.085971,-0.03275012,-0.07775358
1.109353,-0.04375838,-0.04989335
1.115565,-0.1025112,-0.06510992
1.19404,-0.2342472,-0.07970137
1.297301,-0.320811,-0.1015985
1.318479,-0.2999534,-0.1406955
1.331679,-0.3074389,-0.1339925
1.31902,-0.4243646,-0.122139
1.25531,-0.5924402,-0.1666924
1.228442,-0.7240631,-0.2442085
1.186476,-0.7525607,-0.3109547
1.120653,-0.7157631,-0.2728017
1.069548,-0.6886613,-0.1777546
1.018863,-0.5959025,-0.1427261
1.028377,-0.4326314,-0.1080721
1.05347,-0.3212384,-0.1071978
1.034387,-0.2747602,-0.1335324
0.9971471,-0.2778575,-0.07456027
0.8855677,-0.2888971,-0.03169456
0.7638475,-0.2899356,-0.02564723
0.7447088,-0.3051083,-0.008857937
0.7543303,-0.2911,-0.009069214
0.7351647,-0.2630386,0.0339796
0.7108124,-0.2296195,0.09551829
0.7069181,-0.2002185,0.1395401
0.7179773,-0.2041876,0.1562837
0.7328879,-0.1938299,0.1409473
0.7624329,-0.2063012,0.1438324
0.7791688,-0.2356576,0.1268222
0.7965607,-0.2236003,0.156384
0.8415777,-0.2234541,0.2317339
0.8938647,-0.2275071,0.2234593
0.9438738,-0.2294226,0.2328791
0.9628993,-0.241924,0.2708244
0.994329,-0.2317033,0.2826703
1.077292,-0.245781,0.3022195
1.166664,-0.338128,0.2572465
1.276744,-0.4461742,0.191157
1.30801,-0.4619564,0.1887567
1.22157,-0.4644094,0.1889786
1.200163,-0.5376242,0.158588
1.171879,-0.5322336,0.1295235
1.042624,-0.5047335,0.07283521
0.9103901,-0.5553609,-0.041339
0.8398824,-0.5328334,-0.1026954
0.9390078,-0.5075685,-0.119885
1.032262,-0.530219,-0.1785458
0.9822758,-0.4785486,-0.1771041
0.9867903,-0.4268535,-0.1361526
0.9674329,-0.4000283,-0.1341877
0.9086428,-0.3801802,-0.1058598
0.9027062,-0.3650754,-0.09114487
0.8761207,-0.2896519,-0.1153499
0.8801182,-0.2217852,-0.1281966
0.8640902,-0.1987329,-0.1507962
0.8153974,-0.2124116,-0.1613858
0.8020384,-0.2424286,-0.1551396
0.7626375,-0.2090033,-0.1601963
0.7447181,-0.1542127,-0.1531882
0.7434353,-0.06955275,-0.1468043
0.7365226,0.02161873,-0.151986
0.7720218,0.01449307,-0.1781805
0.8399022,-0.01890624,-0.2311653
0.9931381,-0.09610827,-0.2550648
1.176598,-0.2369703,-0.2615085
1.235203,-0.2848915,-0.2973976
1.167681,-0.2261337,-0.2999745
1.056209,-0.167853,-0.2081669
0.9754272,-0.1643161,-0.1189059
1.010375,-0.2054175,-0.1555428
1.199374,-0.2900403,-0.2604045
1.403352,-0.3635753,-0.3369192
1.440683,-0.3445093,-0.3713855
1.312908,-0.3556407,-0.3622142
1.167091,-0.4786558,-0.3556921
1.090731,-0.6360135,-0.3520706
1.06202,-0.7623306,-0.3174925
1.082631,-0.7635979,-0.2965721
1.078945,-0.6522656,-0.2489854
1.006343,-0.4830827,-0.1489973
0.9519131,-0.2795768,-0.08179671
0.9390666,-0.1581291,-0.07066469
1.011437,-0.1213118,-0.1083931
1.08245,-0.1149705,-0.1523781
1.016921,-0.1842263,-0.1545971
0.9139529,-0.3063651,-0.09790607
0.8185594,-0.3997862,-0.0105968
0.7770417,-0.4115689,-0.001527485
0.7882454,-0.3817667,-0.01568494
0.7383156,-0.3640795,0.0197956
0.7156667,-0.3145416,0.01639652
0.6929365,-0.2181974,0.03329949
0.6013269,-0.1214247,0.1169319
0.6261297,-0.1220308,0.1559836
0.7299576,-0.2269882,0.1417791
0.7907816,-0.2977531,0.1451287
0.8479424,-0.3256699,0.1783337
0.8510189,-0.3172252,0.2005186
0.872542,-0.2641473,0.2195321
0.9794216,-0.2368033,0.2526955
1.047836,-0.2006336,0.2516074
1.066059,-0.1879876,0.2366373
1.005309,-0.2047223,0.2443694
0.9455078,-0.2040167,0.2323571
1.094791,-0.3458412,0.1856396
1.305575,-0.583332,0.1167664
1.338434,-0.6604299,0.06983776
1.173309,-0.5199911,0.08165545
0.9679728,-0.3405978,0.07050777
0.913685,-0.3199718,-0.009005468
0.9422365,-0.4034084,-0.08647255
0.9809946,-0.534129,-0.1223958
1.064388,-0.6551186,-0.1269518
1.078707,-0.6500137,-0.1333083
0.9909071,-0.5872393,-0.1266585
0.9146324,-0.5026338,-0.09469207
0.8970635,-0.4160067,-0.1070263
0.9412579,-0.3585867,-0.1397449
0.9953213,-0.3014962,-0.1621824
1.008174,-0.288932,-0.1893483
0.9987326,-0.2975753,-0.1759511
0.9467438,-0.3026526,-0.1578447
0.844576,-0.309491,-0.133268
0.7443873,-0.2841266,-0.08513489
0.6878158,-0.2497996,-0.09082754
0.6878276,-0.2025127,-0.1083988
0.7011151,-0.1382039,-0.1282541
0.706081,-0.0829731,-0.1868143
0.729417,-0.06557886,-0.2052146
0.7946022,-0.08792785,-0.1903006
0.9076493,-0.1065126,-0.1954305
0.999472,-0.1406444,-0.1909029
1.038279,-0.163904,-0.1618879
1.082701,-0.1284493,-0.1382046
1.144041,-0.08696816,-0.1304462
1.186567,-0.06827464,-0.1205902
1.179226,-0.1011424,-0.1052359
1.167133,-0.2017855,-0.09853411
1.207791,-0.3145296,-0.1284854
1.250012,-0.3807264,-0.178384
1.263301,-0.3985872,-0.1884923
1.240727,-0.4380114,-0.1619041
1.195023,-0.4777274,-0.1482103
1.177435,-0.4560848,-0.1800143
1.125293,-0.4384433,-0.2334897
1.049247,-0.453363,-0.2594963
1.029921,-0.5318407,-0.2544547
1.002587,-0.6748056,-0.2329057
0.9611838,-0.6974971,-0.1848536
0.9214769,-0.5958643,-0.1025545
0.8923208,-0.5071493,-0.06355401
0.9461646,-0.4101039,-0.114283
1.016134,-0.3616502,-0.1639295
1.030573,-0.399792,-0.1777476
1.006865,-0.4364512,-0.1548234
0.9520242,-0.4683951,-0.09040874
0.907048,-0.4576142,-0.05347718
0.8767445,-0.3422141,-0.03737541
0.855666,-0.1451648,-0.0280403
0.8156656,0.02910556,-0.02926813
0.7393962,0.02972539,0.03498154
0.7305757,-0.04251953,0.1184023
0.7640691,-0.0613817,0.1377038
0.7623775,-0.1456937,0.1481492
0.7820564,-0.2455831,0.1891674
0.8075046,-0.2957499,0.2238854
0.8131099,-0.3071096,0.2150313
0.8161295,-0.2242748,0.2033879
0.8235833,-0.2010025,0.2274469
0.852872,-0.2270521,0.269376
0.8874378,-0.1912411,0.3342683
0.9397777,-0.1955607,0.3683345
0.9994192,-0.1667852,0.3387733
1.032587,-0.1173002,0.333745
1.077926,-0.1247161,0.3447366
1.156205,-0.2009717,0.3129108
1.251064,-0.4309353,0.2632246
1.327458,-0.6139963,0.1852713
1.314123,-0.6297439,0.0866995
1.099116,-0.5999932,0.0274676
0.7909291,-0.5927456,0.0180044
0.7518574,-0.6755125,-0.01682229
0.9248806,-0.7400681,-0.1399669
1.001964,-0.7156083,-0.2287284
1.014222,-0.634394,-0.2169726
0.9789892,-0.494373,-0.1863355
0.9003858,-0.3757776,-0.1394945
0.8963419,-0.3030257,-0.1374161
0.9199542,-0.28646,-0.1680679
0.9351207,-0.2863183,-0.1491004
0.9475714,-0.2578186,-0.1512275
0.9253364,-0.264423,-0.151271
0.8985859,-0.2733556,-0.1433049
0.8603463,-0.2827797,-0.1616634
0.8412033,-0.3102759,-0.1359155
0.8558924,-0.3066527,-0.1025142
0.8357972,-0.2785928,-0.08661206
0.8105607,-0.2220793,-0.09090819
0.7982664,-0.1874085,-0.1232013
0.818603,-0.2060295,-0.1358065
0.9090867,-0.2273168,-0.1712918
0.9759477,-0.2584232,-0.1986875
0.9710149,-0.2663811,-0.1806429
0.952482,-0.2189761,-0.1666786
0.9478635,-0.1564808,-0.1205862
0.9403461,-0.1080207,-0.0959304
0.9501587,-0.1048647,-0.1281867
1.000392,-0.124502,-0.1445327
1.032301,-0.1285381,-0.1606187
1.054405,-0.1531076,-0.1582667
1.086984,-0.2234664,-0.1484677
1.127979,-0.3162885,-0.1919
1.26149,-0.359591,-0.2233399
1.42427,-0.3154962,-0.2101165
1.504542,-0.2897662,-0.2095436
1.538259,-0.3434176,-0.2449696
1.509668,-0.420176,-0.2912202
1.344533,-0.542279,-0.3084941
1.07245,-0.6866612,-0.2901446
0.9084925,-0.7172958,-0.2597339
0.9437204,-0.6662127,-0.2283466
0.9992306,-0.6182819,-0.1795807
1.015781,-0.5031119,-0.130723
0.9877085,-0.3322313,-0.1136384
0.9190014,-0.1951903,-0.1068503
0.9271757,-0.1166442,-0.09855079
0.9376192,-0.1464571,-0.09399164
0.8740873,-0.2453105,-0.09327217
0.8083417,-0.3313725,-0.07955852
0.7167761,-0.4209345,-0.01759983
0.6463785,-0.4563463,0.05378207
0.638094,-0.4048234,0.05977958
0.5963675,-0.30156,0.01357248
0.5399168,-0.1744411,0.005727107
0.5736322,-0.129134,0.0789522
0.6891539,-0.1478217,0.1530257
0.7850014,-0.1846964,0.1570421
0.8308077,-0.2849089,0.1544647
0.8729687,-0.3377798,0.200711
0.9637402,-0.3185922,0.2651908
1.060379,-0.3377849,0.3385848
1.050426,-0.3421976,0.3530804
1.049022,-0.2923734,0.3275258
1.15964,-0.2435225,0.3826017
1.215379,-0.2092696,0.3825464
1.175593,-0.2310553,0.3100612
1.172111,-0.3656699,0.2607844
1.226027,-0.5694991,0.1435397
1.230609,-0.6687167,0.08155297
1.089171,-0.5540792,0.06016236
0.8744084,-0.4147307,-0.03301688
0.8177522,-0.3913128,-0.0547308
0.9673596,-0.41491,-0.1017531
1.119695,-0.4918359,-0.1743667
1.175729,-0.5357721,-0.1516341
1.115853,-0.485169,-0.1357932
0.9850724,-0.4315362,-0.08704025
0.9160904,-0.3590452,-0.04645807
0.8970421,-0.2966878,-0.07951624
0.9189608,-0.2639857,-0.08981234
0.9563564,-0.2282285,-0.1202694
0.9318346,-0.2220535,-0.1555917
0.8827156,-0.2156032,-0.1437679
0.7647026,-0.2175363,-0.1376291
0.634988,-0.2282931,-0.1239544
0.6166641,-0.2169031,-0.08915381
0.6067142,-0.2023693,-0.07702033
0.6378631,-0.164212,-0.1134464
0.7758321,-0.1384112,-0.1622014
0.8892315,-0.1413268,-0.1902659
0.9165103,-0.1464388,-0.2022647
0.9310218,-0.16337,-0.1999588
1.003411,-0.1486307,-0.1870287
1.079537,-0.1304023,-0.1558912
1.141935,-0.1505914,-0.1451631
1.208864,-0.1804571,-0.1937275
1.25608,-0.2486224,-0.2524458
1.352952,-0.338591,-0.2847276
1.497441,-0.4098979,-0.2955907
1.599366,-0.4759693,-0.2931126
1.531487,-0.519619,-0.2863545
1.256175,-0.5540396,-0.285467
1.016145,-0.5976606,-0.2848456
0.9888457,-0.5877291,-0.2760103
1.062266,-0.5208278,-0.2592302
1.010832,-0.4725023,-0.2154495
0.9297183,-0.4465866,-0.1767034
0.9466157,-0.4052261,-0.1422307
0.8730506,-0.3464435,-0.05869381
0.865103,-0.3221684,-0.02411739
0.9261381,-0.3379761,-0.07138149
0.8610121,-0.2959349,-0.08498494
0.873793,-0.2560399,-0.07640679
0.8522511,-0.308533,-0.05638119
0.7781512,-0.3514621,-0.008085527
0.8086805,-0.3593391,0.003278806
0.7594992,-0.3211148,0.0259899
0.704552,-0.2473086,0.09662466
0.7184451,-0.2337141,0.1095085
0.7274576,-0.2130131,0.09362523
0.7527046,-0.182599,0.1146443
0.7623717,-0.2196193,0.1282668
0.7727237,-0.262147,0.1571832
0.7995071,-0.2910119,0.2083389
0.8767109,-0.2916576,0.239618
0.9562353,-0.2648315,0.2598836
0.9580885,-0.2611672,0.2637379
0.9878021,-0.2440217,0.2656019
1.063427,-0.2234857,0.2738819
1.138305,-0.2484149,0.2456341
1.225781,-0.3431723,0.1894168
1.300077,-0.5277495,0.1315978
1.301676,-0.6384467,0.09731435
1.225776,-0.5805609,0.09727217
1.117016,-0.5137733,0.05276225
0.961729,-0.4615272,-0.04413951
0.8934159,-0.4264867,-0.0909103
0.965493,-0.4910693,-0.09599414
0.9867053,-0.5358987,-0.1192231
1.004901,-0.5104644,-0.129452
1.018837,-0.4888039,-0.1241279
0.9415789,-0.4235076,-0.1297665
0.9085198,-0.3519399,-0.1207158
0.8944841,-0.335937,-0.1063309
0.8604713,-0.3068228,-0.1026247
0.857013,-0.2746691,-0.1004435
0.8477629,-0.2779068,-0.1223491
0.8461175,-0.2626237,-0.1535375
0.8152784,-0.2353963,-0.1576917
0.7652259,-0.2379522,-0.1338116
0.7663176,-0.2327358,-0.1130231
0.7813233,-0.2167495,-0.1357433
0.7964938,-0.2014046,-0.1684353
0.8138866,-0.1778307,-0.1808628
0.8456438,-0.1911455,-0.1933377
0.8866623,-0.2089348,-0.1980339
0.9139808,-0.1939973,-0.2021607
0.9774468,-0.1937757,-0.2132221
1.063748,-0.1865671,-0.2176925
1.11244,-0.1619731,-0.2162492
1.118471,-0.1362843,-0.2036476
1.107253,-0.1252302,-0.1829938
1.117057,-0.1936526,-0.179366
1.178782,-0.3012506,-0.2311222
1.303946,-0.3442624,-0.3117093
1.410428,-0.3378824,-0.3184334
1.426489,-0.3650118,-0.2519022
1.410422,-0.4368959,-0.2182854
1.345851,-0.4974597,-0.2722828
1.172905,-0.5278457,-0.3626402
1.031985,-0.5255086,-0.3868589
1.022322,-0.5278052,-0.3239639
1.01696,-0.5547842,-0.2402635
1.00336,-0.5213051,-0.1870534
1.030659,-0.4385525,-0.1545744
1.008262,-0.3677579,-0.1270967
0.9662257,-0.311402,-0.1302171
0.9596268,-0.2797064,-0.1312133
0.9241561,-0.2554826,-0.09986666
0.8682895,-0.2747558,-0.07298816
0.8076609,-0.3160781,-0.03879016
0.7645902,-0.3120093,-0.01902493
0.7615434,-0.3112919,-0.03560113
0.7392105,-0.2883732,-0.03395602
0.6992549,-0.2464676,-0.01376599
0.6594741,-0.2330947,0.04095863
0.6426306,-0.2152821,0.1169859
0.678736,-0.2214041,0.112583
0.7066109,-0.2389995,0.08335915
0.7407717,-0.2787662,0.1090778
0.7935917,-0.3543947,0.1219923
0.7941556,-0.3545567,0.1477566
0.799269,-0.3130042,0.2035344
0.8601637,-0.2878125,0.2119641
0.9310695,-0.2357895,0.2160303
1.022553,-0.201572,0.2193554
1.108937,-0.1875508,0.1958061
1.119472,-0.1582768,0.2100193
1.106657,-0.1549294,0.2192636
1.11861,-0.171071,0.2116884
1.137527,-0.191127,0.2281531
1.218579,-0.2871527,0.205923
1.435033,-0.5388782,0.1278229
1.660756,-0.7985666,0.03704473
1.568463,-0.7139464,0.01275088
1.177733,-0.4146836,0.02670296
0.7802279,-0.2943148,-0.03425531
0.5461728,-0.2857831,-0.06255088
0.6719213,-0.3988607,-0.03489395
0.8951695,-0.6225978,-0.0889673
1.014109,-0.7324051,-0.1695402
1.207652,-0.7618119,-0.2062251
1.089918,-0.6393469,-0.1864586
0.8564302,-0.4376761,-0.1350482
0.9225998,-0.3382931,-0.1288451
0.8847269,-0.2586442,-0.1540642
0.8896282,-0.2869043,-0.1948477
0.9375224,-0.3306683,-0.2101798
0.8509018,-0.3216297,-0.1900501
0.8672958,-0.3692955,-0.2122513
0.7889909,-0.3526973,-0.2222555
0.7468565,-0.3332534,-0.2020736
0.8066762,-0.3121848,-0.1946888
0.7519087,-0.2637447,-0.1689012
0.7825386,-0.2746142,-0.1524056
0.7933359,-0.2431215,-0.1564026
0.7838586,-0.2170272,-0.1673991
0.7765848,-0.2333718,-0.2737153
0.8015723,-0.2127999,-0.2823318
0.8164868,-0.1729628,-0.2610554
0.8664115,-0.1602513,-0.2404178
0.895208,-0.1592397,-0.2211344
0.9372572,-0.1305798,-0.2327016
0.9937951,-0.1338744,-0.241396
1.04728,-0.1760151,-0.2449739
1.166119,-0.2602901,-0.2691928
1.245938,-0.3460565,-0.3029199
1.315691,-0.4038574,-0.3442935
1.398445,-0.4507583,-0.3692486
1.307579,-0.4845813,-0.3606335
1.142458,-0.5879082,-0.3551195
1.068261,-0.7043207,-0.3648795
1.077697,-0.6627389,-0.353496
1.098946,-0.6008411,-0.3236284
1.060187,-0.6110234,-0.2822725
1.008097,-0.5322315,-0.197765
0.9582096,-0.4528067,-0.09562782
0.9421035,-0.4274241,-0.04942195
1.02093,-0.338117,-0.09392206
1.09219,-0.290114,-0.1574963
1.074128,-0.295835,-0.1619402
0.9964775,-0.3244647,-0.1173341
0.8872653,-0.3923424,-0.04493187
0.7985266,-0.3730898,-0.02287568
0.7419386,-0.3035374,-0.02714515
0.6762505,-0.2174765,0.02313358
0.6324075,-0.1225411,0.02895902
0.6343571,-0.1262164,0.05168434
0.6545943,-0.1784452,0.1407967
0.7272084,-0.271569,0.1418551
0.8119108,-0.353841,0.127786
0.8038094,-0.3208891,0.1416762
0.8165074,-0.3009711,0.1328772
0.9572463,-0.3095385,0.2049273
1.079448,-0.2710835,0.2827999
1.088343,-0.2725946,0.2392904
1.082418,-0.3184299,0.175489
1.167893,-0.3588981,0.1308111
1.288882,-0.4368192,0.05755644
1.28959,-0.5239308,0.003650493
1.103921,-0.5678438,-0.03499832
0.868096,-0.5732959,-0.07073226
0.8249281,-0.5566558,-0.07766424
0.9010325,-0.585146,-0.1469469
0.9500748,-0.5967643,-0.2255032
1.074968,-0.5437918,-0.2349724
1.109976,-0.5182563,-0.2581032
0.989482,-0.4562034,-0.222289
0.9432715,-0.3828688,-0.1697368
0.9042277,-0.3734368,-0.1905833
0.888048,-0.3527231,-0.2010822
0.917252,-0.3387426,-0.240258
0.8513323,-0.3196158,-0.2546508
0.7846498,-0.2921072,-0.2041771
0.7232857,-0.2853045,-0.178432
0.6754898,-0.2694131,-0.1632161
0.7065636,-0.2625262,-0.1895777
0.7061063,-0.2263329,-0.212872
0.710779,-0.1743655,-0.1932618
0.7323566,-0.1310288,-0.1985046
0.742283,-0.07027482,-0.2009426
0.82966,-0.09687353,-0.2181931
0.9534373,-0.1516662,-0.2486622
1.077529,-0.1131227,-0.2560142
1.196028,-0.1128505,-0.2851033
1.254637,-0.1923691,-0.3147199
1.267535,-0.2962842,-0.3143108
1.31771,-0.4357495,-0.3425888
1.399478,-0.5240916,-0.4284743
1.376203,-0.5399314,-0.47396
1.243046,-0.5831325,-0.4078296
1.073576,-0.6659054,-0.3021493
0.9874647,-0.7397448,-0.2463233
1.051914,-0.7140816,-0.2595654
1.052018,-0.6127407,-0.2598177
0.992285,-0.5155842,-0.1814996
0.9819076,-0.3786019,-0.079511
0.949162,-0.2942723,-0.04338083
1.026089,-0.2829569,-0.1007184
1.143952,-0.2449288,-0.1561588
1.091049,-0.2793237,-0.1478595
0.9763728,-0.3494009,-0.1234247
0.857952,-0.3655509,-0.07997169
0.7451921,-0.3745142,-0.01767517
0.6438481,-0.339967,0.02630514
0.5530087,-0.2816396,0.05217785
0.5903078,-0.2292132,0.06193166
0.651696,-0.1872955,0.06416009
0.6372166,-0.1952276,0.06132053
0.6351008,-0.2080527,0.06701356
0.6092876,-0.2306727,0.119183
0.6539213,-0.2606414,0.1829015
0.8190589,-0.227068,0.2037675
0.9712978,-0.1880282,0.2015978
1.110656,-0.2015458,0.2121086
1.168451,-0.2224991,0.2238966
1.177537,-0.2670974,0.215933
1.265415,-0.4084664,0.1721221
1.394977,-0.6063571,0.08207295
1.477406,-0.6852759,0.01790353
1.270585,-0.5588653,0.008545181
0.9461989,-0.4212837,-0.001903904
0.9149475,-0.4501734,-0.0459736
0.9481079,-0.5445264,-0.1648713
0.9717115,-0.6458679,-0.2652721
1.095434,-0.7231207,-0.2567086
1.071781,-0.6945389,-0.2369176
0.9918939,-0.6444693,-0.2163774
0.9846238,-0.5612383,-0.1798256
0.9145105,-0.4239867,-0.1707556
0.8770836,-0.3640716,-0.1737716
0.8584714,-0.3389517,-0.1858843
0.7846623,-0.3084407,-0.2043253
0.7714565,-0.2930452,-0.2221057
0.7813253,-0.2634565,-0.2296471
0.7655865,-0.242888,-0.2241506
0.7309707,-0.1980416,-0.2191429
0.6833484,-0.1568937,-0.189334
0.6923829,-0.1676798,-0.1714475
0.7131302,-0.1484593,-0.206114
0.724282,-0.1134494,-0.2286737
0.7550164,-0.1091867,-0.2179288
0.7990561,-0.1229843,-0.2143732
0.9214918,-0.1488232,-0.2320433
1.085051,-0.1535047,-0.2638173
1.192382,-0.1567513,-0.2964211
1.255742,-0.1941936,-0.2972683
1.305254,-0.2446756,-0.2760849
1.331704,-0.3045442,-0.2969644
1.322055,-0.4149866,-0.3572952
1.316964,-0.5608488,-0.4123653
1.290094,-0.607183,-0.4031052
1.136418,-0.6202442,-0.3411939
0.9683292,-0.7325861,-0.3315713
0.9940616,-0.7224083,-0.3386482
1.057462,-0.604045,-0.3071851
0.9972576,-0.5534467,-0.2321665
1.004085,-0.4425193,-0.1404385
1.044937,-0.3922146,-0.1694154
1.041181,-0.3996844,-0.2234632
1.097122,-0.3311512,-0.1987616
1.050142,-0.3806651,-0.2063857
0.9291733,-0.400814,-0.172274
0.889935,-0.3695602,-0.0988521
0.8215719,-0.4271562,-0.06514395
0.790049,-0.3743321,-0.01405216
0.8042683,-0.3269929,-0.009055568
0.7686817,-0.2803726,-0.03061099
0.7402097,-0.1747859,-0.0006565545
0.7065624,-0.2098748,0.02472465
0.6675256,-0.2233738,0.05060135
0.6342727,-0.2131029,0.07120912
0.6182234,-0.2762197,0.08545717
0.6443496,-0.294331,0.1244211
0.6909858,-0.3150804,0.1343906
0.7695818,-0.3132856,0.1269533
0.8208182,-0.2765962,0.1369654
0.8298897,-0.2571286,0.1440915
0.8872531,-0.2486006,0.1604416
0.9962781,-0.2881614,0.1538543
1.09851,-0.3361441,0.1115063
1.172054,-0.3814352,0.07984975
1.298216,-0.4604393,0.05954489
1.454375,-0.5681105,0.03038714
1.473405,-0.635355,0.004848895
1.306981,-0.5783118,0.05768173
1.067888,-0.5439253,0.1238442
0.9372443,-0.6251282,0.05429706
0.891038,-0.6764599,-0.04187771
0.8122761,-0.6717332,-0.08605759
0.7997661,-0.6573777,-0.13384
0.8697511,-0.6459193,-0.1510646
0.9018856,-0.6564154,-0.1624521
0.8779072,-0.6549292,-0.1585792
0.8276953,-0.6216142,-0.1270838
0.7874517,-0.5558266,-0.1554402
0.7855419,-0.464271,-0.2013518
0.8238692,-0.3956342,-0.2399748
0.8688905,-0.3650691,-0.2900526
0.8921213,-0.346171,-0.3128091
0.9100846,-0.3169594,-0.3426128
0.8997214,-0.2890851,-0.3396213
0.8486025,-0.2710741,-0.2934166
0.7910915,-0.235817,-0.2806357
0.7720376,-0.201439,-0.2577717
0.8488893,-0.1877507,-0.2579649
0.9321151,-0.179604,-0.2857508
0.9199716,-0.1711181,-0.2550425
0.9077755,-0.1517887,-0.2186998
0.917997,-0.1395405,-0.1798996
0.9007403,-0.1357417,-0.1572603
0.9123709,-0.1259398,-0.1816807
0.9478196,-0.1141558,-0.1802265
0.969675,-0.05866037,-0.2060425
1.014455,0.01500929,-0.2369955
1.061896,0.01318273,-0.2111118
1.07436,-0.06338557,-0.204444
1.085412,-0.1556239,-0.1802465
1.14888,-0.2209541,-0.1597865
1.292284,-0.2655965,-0.1940157
1.42131,-0.2982091,-0.2124052
1.41632,-0.3058146,-0.2164532
1.328536,-0.3469367,-0.182174
1.258147,-0.4459995,-0.1227338
1.231263,-0.5052891,-0.1240246
1.217967,-0.5315909,-0.1592543
1.163784,-0.6130629,-0.1922436
1.105517,-0.6681425,-0.2024392
1.093877,-0.6320669,-0.178797
1.089073,-0.5834049,-0.1573983
1.080473,-0.5274199,-0.1351282
1.05045,-0.483899,-0.09911444
0.9973855,-0.475604,-0.08593775
0.9755407,-0.4047963,-0.1077503
0.9497842,-0.3114173,-0.11988
0.9030822,-0.2719753,-0.1248042
0.8416027,-0.2479515,-0.1305986
0.733377,-0.26029,-0.07511834
0.6272024,-0.2598532,0.02826387
0.5580834,-0.2209316,0.09746717
0.5427445,-0.2032056,0.1128184
0.5790225,-0.1678054,0.107247
0.6228574,-0.1613603,0.1152544
0.6914247,-0.221578,0.1274013
0.7489331,-0.2793499,0.1314444
0.7837713,-0.3275611,0.1630938
0.8615341,-0.3388166,0.2239911
0.956148,-0.3051096,0.2603232
1.077082,-0.2740828,0.2678463
1.187461,-0.2848317,0.267602
1.191437,-0.3184401,0.2477624
1.220826,-0.342909,0.2172033
1.342838,-0.4466964,0.1629294
1.423352,-0.6221754,0.08112818
1.381891,-0.6867098,0.04134941
1.111429,-0.5541865,0.02534662
0.7415612,-0.4273836,-0.04767185
0.6799179,-0.5139366,-0.1549042
0.8990146,-0.6188809,-0.243533
1.055319,-0.6405826,-0.2851834
1.087168,-0.6621994,-0.2655326
1.02817,-0.5823327,-0.2149628
0.9105966,-0.4660994,-0.151545
0.8556543,-0.3663526,-0.1160616
0.8333343,-0.2691721,-0.155892
0.8057958,-0.276408,-0.1917559
0.8152122,-0.2803758,-0.2007792
0.7984807,-0.2642154,-0.2159899
0.7534462,-0.2759284,-0.2013545
0.6906101,-0.2336329,-0.2043805
0.6456414,-0.2136649,-0.2138297
0.670275,-0.2115239,-0.194746
0.6558794,-0.1808327,-0.2024203
0.6558723,-0.1644425,-0.2024794
0.7507957,-0.1481976,-0.2087507
0.8382225,-0.1400067,-0.2396341
0.9009663,-0.1365904,-0.2439523
1.018921,-0.1483654,-0.2519193
1.287374,-0.1558808,-0.282742
1.456716,-0.1505071,-0.3171284
1.326976,-0.2073384,-0.2999565
1.287183,-0.3280837,-0.270431
1.388955,-0.4782104,-0.3319403
1.406395,-0.5394496,-0.3907383
1.424335,-0.5117948,-0.3861319
1.309776,-0.6019211,-0.3408863
1.0607,-0.7199282,-0.2577832
0.9733569,-0.687583,-0.2220377
0.9880583,-0.6125824,-0.2106922
1.000325,-0.5565175,-0.1507226
1.037311,-0.4604404,-0.09099488
1.050107,-0.3764269,-0.06990591
1.077576,-0.334389,-0.08844373
1.106324,-0.2841779,-0.1290331
1.039508,-0.266625,-0.1634572
0.9072987,-0.2790146,-0.1624914
0.781806,-0.3201766,-0.1228602
0.6940262,-0.408739,-0.06249578
0.63021,-0.4253653,0.01698883
0.568469,-0.3771257,0.05247655
0.544553,-0.3296691,0.0326122
0.5749717,-0.2572321,0.04132631
0.615409,-0.2162236,0.05786137
0.6581379,-0.2175934,0.06442457
0.6962823,-0.2169076,0.08349005
0.6985715,-0.2222723,0.09521269
0.7491993,-0.2417562,0.1502555
0.8776342,-0.2579563,0.2217023
0.9744649,-0.2452243,0.2099882
1.070794,-0.230836,0.1946358
1.152116,-0.2379015,0.215699
1.128397,-0.2455818,0.1924541
1.146657,-0.2934908,0.164797
1.251593,-0.4468186,0.1528533
1.302788,-0.6274314,0.09015325
1.271248,-0.6638278,0.02751753
1.142105,-0.5617276,0.02848523
0.9557415,-0.4819332,0.01460337
0.8258138,-0.4848532,-0.06310361
0.8400814,-0.5576379,-0.1204234
0.9402411,-0.6731276,-0.1420347
0.9605331,-0.7289318,-0.1768043
0.9497642,-0.7021081,-0.1800504
0.9438814,-0.6476384,-0.1671227
0.9075909,-0.5390238,-0.1781894
0.8983859,-0.4079039,-0.1746824
0.8553178,-0.3193431,-0.1771796
0.7922105,-0.2516833,-0.1963109
0.7490705,-0.2176736,-0.214222
0.7206851,-0.2290523,-0.2280005
0.7403597,-0.2606176,-0.2244073
0.7025412,-0.2999838,-0.216456
0.6495942,-0.3040493,-0.2012522
0.6704879,-0.26263,-0.2022258
0.7109711,-0.2101715,-0.2376449
0.7886871,-0.1561763,-0.2561484
0.8639938,-0.1229275,-0.2437151
0.9193427,-0.1205967,-0.2233013
0.991296,-0.1321808,-0.2262384
1.12057,-0.1480447,-0.2493102
1.273454,-0.151736,-0.252059
1.277834,-0.1622277,-0.2193808
1.249842,-0.2003494,-0.1776599
1.311715,-0.263884,-0.1924744
1.312469,-0.354374,-0.2197735
1.311167,-0.4277019,-0.2178121
1.316961,-0.5074097,-0.2499545
1.197133,-0.6010039,-0.2525377
1.062777,-0.6377328,-0.2263831
1.037912,-0.6938587,-0.2385314
1.055624,-0.7306944,-0.2084604
0.990612,-0.6884414,-0.1445164
0.8862561,-0.6897448,-0.08668854
0.8657448,-0.6171176,-0.06252337
0.9324353,-0.469932,-0.1110164
1.041675,-0.4372743,-0.1513553
1.055951,-0.431722,-0.1953878
0.9816655,-0.4123156,-0.2297684
0.9117582,-0.4063042,-0.1729644
0.773833,-0.4023453,-0.1030714
0.7053875,-0.4008525,-0.04352212
0.7749389,-0.3394538,-0.04546006
0.8032206,-0.2254028,-0.1006526
0.7915039,-0.1047615,-0.06631477
0.7462964,-0.04741099,-0.02853396
0.6553199,-0.05351419,0.03289009
0.5971217,-0.06707903,0.1624402
0.5997533,-0.1503459,0.2008925
0.6493924,-0.2575172,0.2160142
0.7566414,-0.2893413,0.241256
0.9205975,-0.2609117,0.2347732
1.034365,-0.2143601,0.2510023
1.062764,-0.1783653,0.2710149
1.095342,-0.1605837,0.3324852
1.130591,-0.1848875,0.3737464
1.123297,-0.2473553,0.3301309
1.138765,-0.4548696,0.2699086
1.276384,-0.7834466,0.1522795
1.39845,-0.8445226,0.0144324
1.288343,-0.6208499,-0.06897398
1.021775,-0.440067,-0.08179019
0.7878007,-0.4064644,-0.05920641
0.7271583,-0.5345135,-0.1238424
0.8966875,-0.7042331,-0.2089144
1.090693,-0.7756221,-0.2609217
1.121481,-0.779251,-0.3023044
1.049817,-0.6729728,-0.2424883
0.9153411,-0.5072601,-0.1526967
0.8008997,-0.4472698,-0.1109274
0.8199741,-0.3487387,-0.1453399
0.8929241,-0.1663387,-0.2715575
0.9313723,-0.1638242,-0.3220339
0.9059559,-0.2513283,-0.2895573
0.804333,-0.2627781,-0.2367245
0.6664502,-0.2844583,-0.1370678
0.5875324,-0.2775197,-0.08739144
0.6233967,-0.263614,-0.1119604
0.6870923,-0.2761322,-0.1691993
0.79541,-0.2378759,-0.2253249
0.9339889,-0.2022406,-0.2416186
0.9421587,-0.1703258,-0.2344455
0.9276437,-0.1445401,-0.2071015
0.9760232,-0.1560051,-0.1920285
1.00532,-0.1282968,-0.2133489
1.089805,-0.1037289,-0.2497817
1.175459,-0.1366551,-0.259498
1.193753,-0.2199799,-0.2470313
1.281662,-0.3749983,-0.2736486
1.378078,-0.5340111,-0.3146345
1.355546,-0.6713133,-0.3538838
1.256443,-0.8205948,-0.3549427
1.125492,-0.8788647,-0.2988182
1.036028,-0.7717595,-0.2719689
1.026756,-0.6283411,-0.2639496
1.068924,-0.538265,-0.2846351
1.111595,-0.4791263,-0.3015483
1.055648,-0.4487642,-0.2004306
0.9610735,-0.4268354,-0.06878986
0.9466787,-0.4270745,-0.02911759
0.9566772,-0.4035769,-0.08075713
0.9413014,-0.3145922,-0.1237732
0.8845079,-0.2858248,-0.1098846
0.8123684,-0.3199146,-0.09186489
0.7839437,-0.3605411,-0.03484496
0.7133491,-0.3828336,0.01829838
0.5923758,-0.314853,0.02103554
0.5622893,-0.2161393,0.05584012
0.6017516,-0.1623424,0.1063993
0.6355232,-0.1714084,0.1309169
0.7010117,-0.2221129,0.1121822
0.7766329,-0.2722974,0.1030316
0.8369199,-0.3080736,0.1923324
0.9435661,-0.2818353,0.2663845
1.037624,-0.2637732,0.2383427
1.079462,-0.298257,0.2129941
1.13855,-0.3223817,0.2292254
1.186602,-0.3872368,0.2239136
1.278997,-0.4947935,0.1921783
1.38532,-0.59268,0.130801
1.30057,-0.5996525,0.05065385
1.078981,-0.479685,0.06232219
0.8752003,-0.4176432,0.081306
0.8359695,-0.4691238,-0.01193943
0.9415774,-0.5223758,-0.1121202
0.9671381,-0.562094,-0.2187485
1.01681,-0.5926442,-0.2709808
1.064029,-0.5957883,-0.191919
0.9583077,-0.5469891,-0.1436624
0.926738,-0.473575,-0.1424861
0.9230562,-0.4090442,-0.1327791
0.8816851,-0.3572787,-0.1396634
0.891149,-0.3416664,-0.1489826
0.8211607,-0.3350619,-0.1739578
0.7533428,-0.3346668,-0.1850975
0.7050432,-0.3375984,-0.1767199
0.6494598,-0.301748,-0.1740091
0.7178513,-0.2481797,-0.1682273
0.7863116,-0.1991819,-0.2021266
0.8095079,-0.1845457,-0.2517109
0.8028691,-0.1845675,-0.280796
0.7602827,-0.1560495,-0.3069909
0.7750263,-0.1482458,-0.263235
0.7839737,-0.1483201,-0.1966197
0.8627796,-0.14331,-0.255865
1.047041,-0.1658215,-0.3329762
1.171316,-0.1789674,-0.333462
1.301956,-0.1972559,-0.3715844
1.394238,-0.2679879,-0.3940007
1.365023,-0.3828333,-0.3645671
1.375801,-0.4942375,-0.3736862
1.349645,-0.5722864,-0.3671426
1.195888,-0.6717912,-0.3428586
1.080074,-0.7411774,-0.3176871
1.039152,-0.6893676,-0.2709409
1.063835,-0.6169005,-0.2667708
1.08877,-0.5459037,-0.2562975
0.9985792,-0.4598818,-0.1775767
0.9243837,-0.4501255,-0.08148674
0.9426263,-0.4497282,-0.0487484
1.001712,-0.4108074,-0.1180783
1.055674,-0.3873627,-0.1659171
0.9815023,-0.3531642,-0.1392653
0.8305972,-0.344895,-0.09764303
0.7162834,-0.3711003,-0.02735991
0.6617306,-0.3715849,0.01228685
0.6706484,-0.344971,0.006428032
0.649902,-0.3046867,0.03624473
0.6423173,-0.2790328,0.06148633
0.6929831,-0.2401327,0.0698065
0.6930085,-0.2073459,0.09610881
0.7011809,-0.2371078,0.1031905
0.7590393,-0.2509749,0.1215592
0.8264035,-0.2635646,0.1785905
0.9256942,-0.2895242,0.2148855
0.9676146,-0.2523851,0.2308467
0.9405625,-0.2308792,0.2612514
0.9456966,-0.2515312,0.3036771
0.9610398,-0.2736907,0.3023605
1.039858,-0.3828451,0.1849323
1.296239,-0.625084,0.02697481
1.518082,-0.8611066,-0.05424057
1.367417,-0.8577913,-0.08664458
1.022328,-0.6518853,-0.04622442
0.8357685,-0.480126,0.03829422
0.8108581,-0.4236838,-0.05954977
0.9481506,-0.4909477,-0.2222113
1.087574,-0.5761218,-0.2256725
1.053753,-0.5933228,-0.2205847
1.018442,-0.5953788,-0.1963126
0.9664245,-0.5257391,-0.1345122
0.8996434,-0.4166823,-0.1467103
0.878041,-0.3322102,-0.1375112
0.7999744,-0.2464575,-0.1344409
0.7711562,-0.2377039,-0.1626848
0.777493,-0.2734718,-0.1748681
0.7652248,-0.305843,-0.2165397
0.797133,-0.3389256,-0.2312065
0.8011156,-0.3169609,-0.2311869
0.8127737,-0.2866941,-0.2430002
0.8178744,-0.255533,-0.2420814
0.7953672,-0.2329089,-0.2555204
0.7992697,-0.2453984,-0.2488077
0.778608,-0.2312429,-0.2382058
0.7967301,-0.2269171,-0.2377417
0.8678177,-0.237458,-0.2289346
0.9185173,-0.2222989,-0.2406953
0.9512842,-0.2015046,-0.2499009
1.009025,-0.1910332,-0.2597184
1.159339,-0.2801581,-0.2875194
1.304244,-0.4489001,-0.3285423
1.396325,-0.5067866,-0.3850431
1.464395,-0.4456289,-0.4067127
1.422148,-0.4419324,-0.3844159
1.310485,-0.5576282,-0.3508082
1.120949,-0.7009055,-0.3177592
0.9446816,-0.7581826,-0.3167866
1.011363,-0.699443,-0.322508
1.068197,-0.6247783,-0.2818706
0.986216,-0.5887898,-0.2316326
0.9836239,-0.5525593,-0.183801
0.94122,-0.5135304,-0.1103644
0.9075194,-0.4651947,-0.09620468
1.013489,-0.4339407,-0.1620909
1.041204,-0.4042105,-0.1943733
0.9960271,-0.3344317,-0.1950038
0.9319677,-0.3206437,-0.1732244
0.8269803,-0.3458678,-0.09882604
0.7825827,-0.3341939,-0.03636715
0.739625,-0.303681,-0.005305823
0.6926801,-0.231198,0.01134711
0.6966763,-0.178914,0.04076384
0.6996909,-0.1894655,0.1019484
0.7034954,-0.2180977,0.11749
0.6870459,-0.2611137,0.09190192
0.669552,-0.2987651,0.08663962
0.6719634,-0.345908,0.1016567
0.6637899,-0.3733356,0.1451128
0.673429,-0.3282317,0.2150702
0.7382761,-0.2826544,0.2805548
0.8952166,-0.2751949,0.2817142
1.047092,-0.2715443,0.2630714
1.118864,-0.2800832,0.2635102
1.270918,-0.3409852,0.1624699
1.459397,-0.4625897,0.0448177
1.463947,-0.6154607,0.05587062
1.363395,-0.6952966,0.08256535
1.22465,-0.5753487,0.08162485
1.003242,-0.4191757,0.08457106
0.9292739,-0.4532452,0.003018146
1.000486,-0.5172312,-0.1409218
0.9530829,-0.5276426,-0.178916
0.906854,-0.5836489,-0.1475021
0.912491,-0.579583,-0.1606664
0.8718902,-0.5567725,-0.146708
0.8723766,-0.5784194,-0.1276251
0.8816569,-0.5096609,-0.1561465
0.8803537,-0.4248847,-0.1789872
0.8958523,-0.3702139,-0.2060127
0.8671236,-0.3050506,-0.2099029
0.8334451,-0.2723079,-0.1948847
0.8196686,-0.2443033,-0.2097227
0.8113128,-0.2507037,-0.2185066
0.8135378,-0.2818284,-0.2278337
0.803633,-0.315758,-0.2317953
0.7862972,-0.3690449,-0.2215356
0.7623698,-0.3608261,-0.2340912
0.7599108,-0.3354136,-0.2443813
0.8072101,-0.3001122,-0.2689064
0.8550001,-0.2258207,-0.321782
0.8656796,-0.2328995,-0.3350976
0.8653813,-0.2630502,-0.3167578
0.8877798,-0.2506927,-0.3053373
0.9064474,-0.2615942,-0.2928263
1.323192,-0.5096443,-0.3317915
1.197344,-0.6144496,-0.3122328
1.073606,-0.7633961,-0.3308074
1.061698,-0.7485934,-0.3323453
1.100135,-0.6944741,-0.3099729
1.041761,-0.6435104,-0.2781992
1.003557,-0.5685506,-0.1972009
0.9408188,-0.4879349,-0.09171712
0.8739517,-0.3733329,-0.004854647
0.9632622,-0.3110296,-0.05097665
1.091555,-0.3234134,-0.1928234
1.071187,-0.2893129,-0.1884971
0.9572191,-0.2837983,-0.1285007
0.8405145,-0.3308969,-0.09046617
0.7212583,-0.3163754,0.005465131
0.6740835,-0.2979982,0.01581181
0.6197557,-0.2671083,0.02551
0.5323505,-0.2189169,0.1041366
0.5566154,-0.2125667,0.116719
0.5682093,-0.1828215,0.1487829
0.5784378,-0.1861056,0.1578531
0.6668553,-0.2223544,0.1199442
0.736332,-0.2287174,0.1465726
0.8685033,-0.2636121,0.1998137
0.9964038,-0.2747783,0.2798556
1.053473,-0.2896064,0.3056781
1.167346,-0.3570199,0.2743089
1.253931,-0.4102913,0.2798093
1.281908,-0.4463467,0.2026122
1.347001,-0.4604735,0.1082014
1.389376,-0.5191177,0.09596783
1.276281,-0.5939313,0.04515107
1.024296,-0.5576681,-0.005641409
0.8217698,-0.5277969,-0.02943029
0.7755874,-0.5720883,-0.08733427
0.8805401,-0.5950486,-0.1340864
1.041449,-0.6004147,-0.1829553
1.123719,-0.5960387,-0.2393612
1.117833,-0.5597438,-0.230108
1.038993,-0.4876558,-0.1784327
0.9488038,-0.3704208,-0.1308533
0.9222789,-0.2948599,-0.126173
0.9238174,-0.3008579,-0.1758794
0.9210231,-0.2822748,-0.1992557
0.8653204,-0.270916,-0.1971585
0.7524764,-0.2883316,-0.1675608
0.6500629,-0.2692842,-0.1027107
0.5910654,-0.2663459,-0.1019967
0.5950428,-0.2447763,-0.1374594
0.6376408,-0.1811726,-0.1732929
0.6876321,-0.1226846,-0.219929
0.7113369,-0.03403566,-0.2179396
0.7289025,0.01638245,-0.2142158
0.8337688,-0.04144616,-0.2414707
1.035067,-0.1678855,-0.2705085
1.274509,-0.2968054,-0.3120489
1.407469,-0.3783187,-0.3539713
1.393696,-0.4252866,-0.3772785
1.322221,-0.420424,-0.3414058
1.232453,-0.4055648,-0.2916703
1.305704,-0.4741227,-0.3247871
1.435055,-0.6128452,-0.3711763
1.342936,-0.7628039,-0.3738712
1.161316,-0.8017504,-0.3477398
0.9230519,-0.6971871,-0.2517379
0.8032999,-0.6092668,-0.1535961
0.9759005,-0.5641078,-0.140812
1.062618,-0.4915217,-0.1447326
1.060127,-0.4423813,-0.1277984
1.087152,-0.4036146,-0.114729
1.018236,-0.3293975,-0.102975
0.9943785,-0.3116286,-0.09132495
0.9574764,-0.3791322,-0.07807346
0.8749324,-0.433819,-0.05549945
0.8507066,-0.4384671,-0.0259259
0.7749244,-0.367413,-0.00363022
0.6865552,-0.222516,0.006761166
0.5981674,-0.1379297,0.005739747
0.5439464,-0.1342455,0.02622253
0.5896868,-0.1361038,0.08974935
0.5913073,-0.1728435,0.1208224
0.5974556,-0.2279907,0.08783936
0.6605447,-0.266604,0.07213396
0.7467663,-0.2972917,0.127368
0.8870064,-0.3102311,0.1939751
0.9595237,-0.2824692,0.2104483
0.9912985,-0.2357903,0.2189219
1.080783,-0.2560928,0.2312066
1.136804,-0.2982674,0.2232775
1.191509,-0.3560399,0.1999617
1.316342,-0.4879681,0.1352775
1.396824,-0.5387915,0.05948067
1.344085,-0.518166,0.05601778
1.170287,-0.5010235,0.09606552
0.9034719,-0.4301023,0.1022167
0.7754887,-0.4645802,0.06677059
0.8867402,-0.5789811,-0.05236436
0.9683789,-0.6332836,-0.2217783
1.041355,-0.6836992,-0.2575307
1.112396,-0.6052786,-0.2115085
1.010621,-0.458307,-0.2099873
0.942725,-0.4216971,-0.1564985
0.9202688,-0.3915416,-0.1134653
0.8669307,-0.3934087,-0.1497788
0.9071666,-0.4029958,-0.1605492
0.9080338,-0.3379768,-0.1991903
0.883929,-0.282552,-0.2414305
0.8601269,-0.220276,-0.2042926
0.7441653,-0.2000439,-0.1864475
0.6886612,-0.2508155,-0.1681078
0.6809157,-0.2786345,-0.1326138
0.7036849,-0.2868291,-0.1661156
0.7947052,-0.2625281,-0.2194806
0.8137106,-0.2279337,-0.2357415
0.8118135,-0.1982866,-0.221207
0.8542194,-0.1447204,-0.2064153
0.9189979,-0.1067378,-0.2208169
1.01759,-0.09082399,-0.2325581
1.068429,-0.1291749,-0.2284788
1.090461,-0.2251809,-0.213912
1.159602,-0.3267079,-0.1991377
1.262304,-0.4216927,-0.2406664
1.35797,-0.461692,-0.3199256
1.357071,-0.4629074,-0.3410807
1.224192,-0.4881379,-0.2986187
1.045575,-0.5629106,-0.2546375
0.9746933,-0.6855105,-0.2447386
1.043793,-0.7749205,-0.2594352
1.086418,-0.7887485,-0.2671573
1.059963,-0.724078,-0.2588036
1.0092,-0.5909503,-0.2048066
0.929556,-0.4514825,-0.1003554
0.9509007,-0.3396388,-0.0521781
1.063028,-0.287873,-0.1116926
1.100574,-0.2892429,-0.1765303
1.070189,-0.3139808,-0.1807635
0.9753999,-0.3734888,-0.1425827
0.8705434,-0.4304657,-0.06452939
0.8298605,-0.4436663,0.0009078888
0.7663859,-0.397579,0.01939454
0.6966374,-0.3339883,0.04283594
0.6887265,-0.3082127,0.05372115
0.7014076,-0.2346683,0.05235006
0.6821161,-0.1400664,0.08888172
0.6588507,-0.1860392,0.1313291
0.6681002,-0.2630878,0.162172
0.663599,-0.2337172,0.1795157
0.6920839,-0.2163196,0.1744679
0.7634586,-0.2185111,0.1802806
0.8322598,-0.1908775,0.1960395
0.9462014,-0.2032908,0.203812
1.046468,-0.2101444,0.1878706
1.111961,-0.2047512,0.144546
1.160574,-0.2277052,0.1270389
1.172839,-0.2554865,0.1252518
1.246964,-0.3720543,0.09318308
1.348549,-0.5406505,0.06237888
1.328015,-0.6223637,0.05342606
1.128626,-0.6314734,0.05631618
0.8065186,-0.6671237,0.05012549
0.5954062,-0.7829262,0.02009453
0.6078909,-0.8637423,-0.02923561
0.7181907,-0.8540822,-0.129576
0.8984468,-0.8200954,-0.2627957
1.107613,-0.776751,-0.3396228
1.152544,-0.7082779,-0.3353309
1.024775,-0.5682976,-0.2614337
0.9152447,-0.4466064,-0.1574846
0.9173262,-0.3982217,-0.1403395
0.9585788,-0.3050335,-0.2167664
0.9453519,-0.2165951,-0.2523257
0.8703975,-0.266784,-0.2286258
0.7713555,-0.3771419,-0.2113417
0.7433732,-0.3787524,-0.2067239
0.7768094,-0.3630782,-0.2099785
0.7602189,-0.3747089,-0.2283515
0.7613753,-0.2648869,-0.2543306
0.7954938,-0.1429291,-0.2584634
0.8168119,-0.0766919,-0.2532536
0.8953346,-0.0792417,-0.2591306
0.9745665,-0.1747971,-0.2375942
0.9805776,-0.1951253,-0.1919113
0.931303,-0.1795387,-0.162585
0.8896827,-0.1768517,-0.1536021
0.9317422,-0.1619921,-0.1322594
0.9815439,-0.1645186,-0.09639013
1.001096,-0.1155354,-0.1116549
1.04727,-0.08695407,-0.1644911
1.087389,-0.06811451,-0.1873229
1.107142,-0.06660891,-0.1863048
1.194735,-0.1935611,-0.1940887
1.353424,-0.2859688,-0.2362603
1.382763,-0.2909291,-0.2634856
1.32144,-0.3254193,-0.2335837
1.364402,-0.5261265,-0.2019714
1.352701,-0.7982381,-0.1840138
1.241728,-0.8516443,-0.2050408
1.144839,-0.895844,-0.2468855
1.071673,-0.9357604,-0.2192252
1.101919,-0.7288696,-0.1824688
1.118475,-0.5623057,-0.1479562
1.093148,-0.4409661,-0.0638435
1.143192,-0.3373419,-0.04825635
1.13249,-0.4246076,-0.1293165
1.098332,-0.4247266,-0.1861277
1.022087,-0.3779014,-0.1591297
0.7742037,-0.4312186,-0.0990982
0.621754,-0.4224748,-0.0586824
0.6539499,-0.449234,0.003389227
0.6534537,-0.4341724,0.05311419
0.5989757,-0.2955789,0.0559765
0.5713382,-0.1476706,0.07725266
0.5695037,-0.007288892,0.1064994
0.5839037,-0.03013841,0.1271431
0.6404061,-0.1153915,0.1327163
0.6994099,-0.1573696,0.1171197
0.7530286,-0.2886722,0.1260707
0.8157391,-0.3220225,0.1760881
0.8761446,-0.2653348,0.2680996
0.9790152,-0.2904232,0.3352865
1.08432,-0.306856,0.3268555
1.160276,-0.3370164,0.3117724
1.22433,-0.4091662,0.2770044
1.310664,-0.5273969,0.1931248
1.46017,-0.7159446,0.1164817
1.449264,-0.7974796,0.06080937
1.15714,-0.6431567,0.03582702
0.8352564,-0.4446393,0.01921424
0.7249332,-0.4444237,-0.05862376
0.848502,-0.527032,-0.161538
0.9713097,-0.5618207,-0.2236357
1.032753,-0.6343722,-0.2352809
1.078878,-0.6381099,-0.2150525
0.9795967,-0.5559862,-0.1852391
0.8801985,-0.4884412,-0.1211967
0.8317972,-0.3780884,-0.08699135
0.735996,-0.306596,-0.1219235
0.7131588,-0.2824432,-0.1399653
0.6765052,-0.2474333,-0.1749557
0.6511218,-0.2671179,-0.2099573
0.7207817,-0.27677,-0.1983623
0.7498579,-0.2705181,-0.2167389
0.7815432,-0.2618337,-0.2332138
0.7702083,-0.2088828,-0.2347765
0.7272406,-0.1777542,-0.2459821
0.7584314,-0.1545248,-0.2397852
0.803311,-0.1595858,-0.2513195
0.9434432,-0.2327038,-0.2619734
1.127117,-0.2770443,-0.2584751
1.23819,-0.2745585,-0.2705431
1.283225,-0.2644563,-0.2676625
1.214854,-0.2797986,-0.2519118
1.198066,-0.3150929,-0.2497669
1.338919,-0.3395069,-0.3013744
1.504362,-0.3851479,-0.4052216
1.536908,-0.4436952,-0.4408315
1.313417,-0.5648793,-0.3552805
1.026305,-0.74995,-0.2367233
0.9346482,-0.7934082,-0.1752604
0.9828953,-0.7024782,-0.1809464
1.027484,-0.6471327,-0.207177
1.040318,-0.5715103,-0.2143495
1.02981,-0.4290048,-0.1837823
0.9865375,-0.3654346,-0.1235909
0.9833594,-0.3978797,-0.07893237
1.006089,-0.3735778,-0.07472196
0.9636873,-0.2942656,-0.05260556
0.8587713,-0.2423179,-0.005691827
0.7016041,-0.2387207,-0.01462125
0.6506709,-0.2949423,-0.03653621
0.6968968,-0.3537726,-0.0194183
0.6307782,-0.3738628,0.006944737
0.6030601,-0.3483071,0.06407145
0.6643693,-0.2810854,0.09263455
0.6939437,-0.2417936,0.05393791
0.7564388,-0.2350631,0.0494625
0.7788174,-0.2642194,0.08139597
0.7410468,-0.3101341,0.1123323
0.7429955,-0.2871067,0.1485021
0.7788671,-0.2742719,0.1734302
0.8511528,-0.2938875,0.1948474
0.9220978,-0.2724743,0.2107748
0.9850353,-0.2520265,0.2192346
1.068467,-0.1944671,0.2255714
1.142209,-0.1044955,0.2247494
1.188579,-0.08774067,0.2239807
1.189073,-0.1354156,0.2092572
1.19417,-0.2064535,0.1939062
1.258158,-0.3511096,0.1887082
1.353166,-0.6145515,0.1617233
1.419544,-0.7485076,0.1092317
1.365693,-0.6036999,0.03120527
1.198772,-0.4875128,-0.0245512
0.9637246,-0.4710995,-0.02359255
0.766985,-0.4917911,-0.04016649
0.77337,-0.6342712,-0.07169815
0.8417876,-0.7117895,-0.0796003
0.8595955,-0.678617,-0.1036781
0.9193638,-0.6408029,-0.1369405
0.9372782,-0.534376,-0.1693564
0.9054182,-0.431692,-0.1886779
0.8865114,-0.3550659,-0.1650252
0.8578121,-0.3089049,-0.1599984
0.8444116,-0.3214806,-0.189839
0.8278118,-0.2897459,-0.2191218
0.8243268,-0.2754917,-0.2498102
0.827529,-0.292734,-0.2416155
0.8029107,-0.2851963,-0.2146302
0.7931493,-0.3035655,-0.2065058
0.7580368,-0.2877363,-0.195374
0.7218234,-0.246613,-0.1974011
0.7437996,-0.2172402,-0.2021596
0.7822947,-0.1579194,-0.2150242
0.832588,-0.1118647,-0.2518835
0.8750373,-0.1155993,-0.2661882
0.9235665,-0.1638317,-0.2621178
0.9889927,-0.209167,-0.2553517
1.004039,-0.2148558,-0.2395402
0.9921339,-0.1903508,-0.2090934
1.005012,-0.1637755,-0.1497282
1.030782,-0.1982433,-0.1211465
1.083305,-0.2486038,-0.15773
1.195688,-0.2633357,-0.1969009
1.308744,-0.2773501,-0.221862
1.342321,-0.2971591,-0.2389839
1.329944,-0.365546,-0.2276899
1.270287,-0.4475879,-0.2036062
1.156225,-0.4690766,-0.1890339
1.107738,-0.5079355,-0.197822
1.139432,-0.6150232,-0.2202706
1.136662,-0.7130545,-0.2040926
1.066035,-0.7252637,-0.1510941
0.9282812,-0.683339,-0.0853162
0.7934235,-0.6010519,-0.04661637
0.8338679,-0.4517762,-0.08951809
0.9997447,-0.3646707,-0.1596793
1.086782,-0.3712286,-0.2338667
1.057265,-0.3549569,-0.2557487
0.913679,-0.3704734,-0.1085798
0.7727325,-0.4118116,0.03878591
0.7959668,-0.3737252,0.01978489
0.8998414,-0.2920076,-0.06062783
0.9999846,-0.1937377,-0.1085717
1.027466,-0.1414029,-0.09796052
0.899694,-0.1553781,-0.03467997
0.7342839,-0.1152185,0.05530961
0.6656881,-0.1062959,0.1139232
0.6475822,-0.1644094,0.1203111
0.6053112,-0.1659759,0.1479829
0.6543884,-0.1931354,0.1638649
0.7687203,-0.2259106,0.1424465
0.7395826,-0.2023827,0.1771207
0.7244263,-0.2142945,0.2365539
0.8370962,-0.2311436,0.2636575
0.9456896,-0.2334631,0.2742561
1.077572,-0.2053098,0.2623814
1.169941,-0.1395536,0.270405
1.210066,-0.1368165,0.2924032
1.291494,-0.1866639,0.2794207
1.353961,-0.3103699,0.2438814
1.456182,-0.532786,0.1575519
1.530217,-0.6936266,0.05780717
1.354642,-0.7061989,0.02028113
1.004205,-0.6033793,0.01864176
0.6949077,-0.5147751,-0.0009874795
0.6700803,-0.6065371,-0.0929747
0.8840091,-0.7484577,-0.2201957
1.008924,-0.753202,-0.3159346
1.0134,-0.7035876,-0.3322102
0.9389026,-0.6110057,-0.2425507
0.8241332,-0.4616561,-0.1874579
0.8046407,-0.3728564,-0.2230495
0.8208912,-0.334245,-0.2561406
0.8527503,-0.3176902,-0.2791225
0.9049811,-0.3265945,-0.2933195
0.8793379,-0.3236076,-0.2838069
0.8391142,-0.3173491,-0.2625536
0.8003951,-0.2994391,-0.2403752
0.6777653,-0.2607943,-0.1783593
0.5663767,-0.216415,-0.1046872
0.6227497,-0.2023682,-0.1296862
0.7720522,-0.179196,-0.1916603
0.8568458,-0.0833427,-0.2292183
0.9155747,-0.05641477,-0.2846725
0.9385435,-0.1308723,-0.3002809
0.9690736,-0.1908544,-0.2758468
1.119457,-0.2531797,-0.2744789
1.20759,-0.3014108,-0.2640838
1.230989,-0.3610914,-0.2501159
1.316347,-0.4638618,-0.2800769
1.375656,-0.490535,-0.3279102
1.40421,-0.4746007,-0.3429538
1.322663,-0.5548295,-0.3171954
1.157711,-0.6799806,-0.301219
1.081607,-0.7210185,-0.3260325
1.070992,-0.6906746,-0.3515071
1.115673,-0.676455,-0.3446808
1.119941,-0.6249377,-0.2741985
1.007652,-0.4840257,-0.1465262
0.8829038,-0.358782,-0.07321556
0.8443572,-0.3113633,-0.09816356
0.9503447,-0.3180726,-0.1437709
1.011559,-0.3523948,-0.1820672
0.9208761,-0.3969306,-0.1900466
0.8267847,-0.4480077,-0.1307308
0.7470063,-0.4621737,-0.06769476
0.6487433,-0.4092361,-0.004707891
0.5229141,-0.3282104,0.0854567
0.497247,-0.263062,0.09462164
0.5983727,-0.2026989,0.06804552
0.6212688,-0.1385337,0.1143179
0.6473641,-0.1825078,0.121261
0.7146038,-0.2975951,0.1132587
0.7361056,-0.2909007,0.1735525
0.8591708,-0.2588751,0.2134684
1.028189,-0.267471,0.2579544
1.081411,-0.2358375,0.2740977
1.095491,-0.2936868,0.2420459
1.158765,-0.4197138,0.290259
1.194087,-0.4751908,0.2928983
1.219093,-0.5244759,0.2150848
1.39754,-0.6144615,0.1626532
1.453236,-0.6500457,0.09545845
1.127042,-0.5029843,0.1025321
0.7705799,-0.3467751,0.1229046
0.7079578,-0.4010986,0.04402213
0.8952114,-0.5293766,-0.0738772
1.030784,-0.6340868,-0.2315191
1.051854,-0.6617582,-0.2627843
1.083879,-0.6059921,-0.1754715
1.000598,-0.579211,-0.1555387
0.8979599,-0.5000958,-0.1113731
0.8854245,-0.3985442,-0.09287879
0.8617001,-0.3842874,-0.1306
0.8534026,-0.3642666,-0.1205192
0.8423918,-0.352711,-0.1548047
0.8271059,-0.3343641,-0.205221
0.784004,-0.2607653,-0.2071418
0.6946436,-0.2175983,-0.1919908
0.6471636,-0.1931439,-0.1504166
0.6281069,-0.1904227,-0.1517207
0.6263981,-0.2112683,-0.1819716
0.6471069,-0.2004443,-0.195566
0.7148187,-0.2045895,-0.2256353
0.832142,-0.2127149,-0.2413283
0.9447049,-0.2121838,-0.2715497
1.094774,-0.2272271,-0.3069438
1.227701,-0.2232988,-0.2978622
1.268553,-0.2336502,-0.2998421
1.269574,-0.2767759,-0.2949419
1.281695,-0.3661358,-0.2905115
1.345463,-0.5129971,-0.3399374
1.392345,-0.6022861,-0.4045146
1.353969,-0.6258259,-0.4332556
1.240618,-0.7047494,-0.3735021
1.087494,-0.7803986,-0.2935825
0.9966977,-0.7154119,-0.2847124
0.9773337,-0.6046819,-0.2790839
0.9796181,-0.5479023,-0.2475065
0.9901788,-0.4504841,-0.1851383
0.9716233,-0.3585532,-0.09994943
0.9586906,-0.3659438,-0.0807871
0.9879672,-0.3802618,-0.1123323
1.000002,-0.3605499,-0.1385756
0.9635386,-0.3617244,-0.1685864
0.877658,-0.3802181,-0.1430718
0.759792,-0.3772639,-0.04915518
0.6793003,-0.3742031,0.01443068
0.6416213,-0.361164,0.03817313
0.5786309,-0.280583,0.0434852
0.5149919,-0.1905098,0.04862558
0.5627377,-0.175901,0.08818152
0.6696213,-0.2129266,0.1017061
0.6901288,-0.247505,0.09247381
0.6943244,-0.2871391,0.1094606
0.7318984,-0.2909037,0.1585978
0.7775769,-0.2450949,0.2519348
0.9180354,-0.2433864,0.2857021
1.072985,-0.2274073,0.2569686
1.156288,-0.2258006,0.2778946
1.232813,-0.3079529,0.3041874
1.271504,-0.3416502,0.2837293
1.312464,-0.4334286,0.1943204
1.425241,-0.6334393,0.07912824
1.478186,-0.7131751,0.0478327
1.247906,-0.6181135,0.04598505
0.8440689,-0.4773954,0.01928393
0.7206895,-0.4391536,-0.005888441
0.8455501,-0.4821471,-0.1141929
0.9383592,-0.572797,-0.2548706
1.062394,-0.706038,-0.267014
1.086379,-0.7471217,-0.2171375
0.9556937,-0.6787982,-0.1536952
0.9044582,-0.553868,-0.09142424
0.8764679,-0.3810119,-0.1259046
0.8281478,-0.1960085,-0.1718107
0.8211135,-0.1366592,-0.1648205
0.7977145,-0.2090272,-0.1744171
0.7732746,-0.2238475,-0.1866893
0.7375722,-0.2681367,-0.1858487
0.6933549,-0.3050625,-0.1721262
0.6626409,-0.2155852,-0.1483207
0.6292093,-0.1964057,-0.1543153
0.6715954,-0.1983812,-0.1765606
0.7430787,-0.2107503,-0.2038301
0.7902464,-0.2716865,-0.2558949
0.8789574,-0.2452214,-0.2783608
0.9812641,-0.2516267,-0.2822765
1.094531,-0.2720501,-0.3090036
1.176728,-0.2367335,-0.2937141
1.217271,-0.2300985,-0.2753553
1.256226,-0.2088192,-0.2807332
1.259829,-0.2600241,-0.272233
1.345985,-0.4096455,-0.3180038
1.452818,-0.5434595,-0.3659898
1.397603,-0.6423975,-0.339508
1.250817,-0.7058955,-0.2882181
1.028915,-0.7598148,-0.2406691
0.8755631,-0.7382954,-0.2394052
0.9206591,-0.6588646,-0.2582825
1.003652,-0.5906159,-0.2412637
1.069768,-0.4480889,-0.2245035
1.057485,-0.39105,-0.1996465
0.9812109,-0.4469659,-0.1418204
0.981996,-0.3888174,-0.09434084
0.9842998,-0.3805527,-0.1007488
0.9633897,-0.434171,-0.1183503
0.9125291,-0.4034445,-0.0819117
0.7998487,-0.4318089,-0.04323521
0.7542761,-0.4377639,-0.02086528
0.7188849,-0.3715594,0.02753054
0.6468033,-0.3209805,0.04876757
0.6490476,-0.2233427,0.04357659
0.6671957,-0.1720444,0.05498743
0.6913482,-0.1770139,0.06197713
0.7353652,-0.1800753,0.06696816
0.7447304,-0.2303107,0.06770358
0.759709,-0.2640437,0.08569211
0.7780922,-0.2937818,0.1498878
0.7874686,-0.315115,0.2136788
0.8133695,-0.2856129,0.2306685
0.857169,-0.2637012,0.2307363
0.9319246,-0.2418096,0.2608368
1.038053,-0.2415133,0.2672313
1.142923,-0.2761367,0.24295
1.204578,-0.371433,0.2088071
1.279919,-0.5655883,0.08889439
1.353117,-0.6807537,-0.008490077
1.280706,-0.6415433,0.02218604
1.114481,-0.5501784,0.03628972
0.9307831,-0.4450977,-0.00842325
0.8232388,-0.4421932,-0.05093437
0.8998572,-0.556814,-0.1077554
0.9750521,-0.6328018,-0.1645162
1.020859,-0.642332,-0.1892082
1.063084,-0.5768994,-0.1964901
0.9423651,-0.4554989,-0.1562833
0.8507189,-0.392099,-0.09121386
0.8760231,-0.3737573,-0.1038266
0.8746691,-0.358799,-0.1515682
0.9057371,-0.346351,-0.198708
0.9292948,-0.3194474,-0.2667584
0.9082507,-0.2833726,-0.2778979
0.8546569,-0.2509103,-0.2305234
0.7609667,-0.2608915,-0.1849107
0.7104762,-0.2806617,-0.172116
0.7076613,-0.292131,-0.199326
0.7381993,-0.3136658,-0.2159631
0.7700573,-0.2770494,-0.2223246
0.777336,-0.2280602,-0.2313081
0.7830541,-0.2008328,-0.2279362
0.7837576,-0.1567199,-0.2326134
0.8256745,-0.1528536,-0.2404802
0.904708,-0.1713498,-0.2467602
1.02975,-0.1917849,-0.2619828
1.177689,-0.2548269,-0.2695343
0.9870166,-0.3730103,-0.134718
1.048899,-0.302925,-0.08866774
1.003459,-0.316758,-0.07024437
1.025914,-0.2832426,-0.1184086
0.9991409,-0.313063,-0.1422728
0.9032135,-0.359502,-0.09639867
0.8111717,-0.3512139,-0.04700478
0.6727093,-0.3558785,0.0156439
0.6082818,-0.3237736,0.05526992
0.5854078,-0.2705813,0.06298838
0.5822003,-0.2346023,0.08322677
0.6279111,-0.2237874,0.09817111
0.6565385,-0.2474464,0.1083687
0.7021298,-0.2568775,0.1164382
0.7102748,-0.2728314,0.1431352
0.7170298,-0.2751512,0.1884749
0.8181777,-0.2341052,0.2262522
0.9772477,-0.2156929,0.247687
1.161409,-0.219642,0.2245585
1.212197,-0.2265812,0.2099324
1.13343,-0.2327256,0.2261738
1.115391,-0.2848737,0.2245817
1.163959,-0.4648707,0.2221651
1.254099,-0.6858528,0.1885798
1.296863,-0.7446347,0.1230064
1.124901,-0.609102,0.09103253
0.858937,-0.5043988,0.05036555
0.8154801,-0.5313378,-0.04850199
0.944371,-0.6009317,-0.1436548
1.016171,-0.6847893,-0.1776251
1.0629,-0.6800111,-0.1760086
1.046893,-0.5767012,-0.154086
0.9703161,-0.4853823,-0.1144309
0.94221,-0.3978391,-0.09409127
0.8765177,-0.3628914,-0.09809674
0.834197,-0.3676024,-0.1126516
0.8613672,-0.3426885,-0.1401735
0.8458487,-0.3193027,-0.175309
0.8335335,-0.2687035,-0.1831014
0.7945092,-0.2259132,-0.146345
0.7162504,-0.2274661,-0.1045687
0.6807334,-0.2280051,-0.08427801
0.6709261,-0.2515131,-0.1035435
0.7046418,-0.2684219,-0.1457043
0.7628027,-0.2437701,-0.1679343
0.8220286,-0.1991444,-0.1916106
0.9008541,-0.1534785,-0.2129452
0.9551758,-0.154695,-0.2258376
1.036275,-0.1986598,-0.2490477
1.168479,-0.2452638,-0.2562838
1.2284,-0.2771576,-0.251976
1.229633,-0.3051215,-0.2369736
1.263076,-0.3432977,-0.2275701
1.33007,-0.382405,-0.2653095
1.417153,-0.4323046,-0.2995419
1.400251,-0.4767697,-0.3004822
1.248987,-0.5342516,-0.3014894
1.115061,-0.6259833,-0.3108029
1.006396,-0.6737112,-0.3163985
0.98767,-0.6845656,-0.3108731
1.032398,-0.6930469,-0.2835747
0.9690772,-0.6631743,-0.207344
0.9111504,-0.5814741,-0.1277572
0.8882678,-0.4460881,-0.09293896
0.9073246,-0.3413433,-0.08704048
1.009443,-0.3226623,-0.119938
1.01979,-0.3306885,-0.1441601
0.9708939,-0.372782,-0.1125722
0.9081688,-0.4445944,-0.06930382
0.8505125,-0.4705312,-0.04893344
0.8735739,-0.4383152,-0.04753673
0.8145337,-0.3738161,-0.01343439
0.703374,-0.2693811,0.04133493
0.6688541,-0.1682599,0.04156549
0.6356081,-0.1307973,0.0481222
0.5949123,-0.1240634,0.1025026
0.585672,-0.1764267,0.1198113
0.6094186,-0.2744303,0.1340023
0.6454656,-0.281373,0.2037164
0.7501249,-0.2540481,0.2603105
0.9125172,-0.25669,0.2807694
1.030035,-0.2368203,0.2813392
1.142208,-0.2537742,0.2785434
1.21901,-0.3007323,0.2861766
1.214557,-0.3393196,0.2734991
1.208254,-0.4249527,0.2619492
1.22511,-0.5095297,0.2527282
1.263035,-0.5265685,0.1944602
1.275848,-0.517715,0.09839645
1.201066,-0.4934185,-0.00267647
1.060898,-0.4581221,-0.07776218
0.9197673,-0.4993702,-0.1090571
0.8534104,-0.5800292,-0.1069821
0.9091641,-0.5822844,-0.1174804
0.981265,-0.5642394,-0.1688884
0.9418709,-0.54562,-0.2052293
0.9080697,-0.4814836,-0.1872097
0.902437,-0.4365823,-0.135778
0.8320765,-0.4235469,-0.1049936
0.8171677,-0.4038116,-0.1168817
0.8344752,-0.3604856,-0.152286
0.8149637,-0.2960933,-0.201936
0.805055,-0.2342056,-0.2078661
0.7551628,-0.1975214,-0.1697421
0.7326069,-0.2286652,-0.1513637
0.7613983,-0.2756327,-0.1580585
0.7661487,-0.2658725,-0.1886973
0.7779833,-0.2163531,-0.2142681
0.7913542,-0.1372398,-0.2209693
0.8163617,-0.1133231,-0.2279866
0.8775827,-0.1634833,-0.2288755
0.9848928,-0.181035,-0.2330017
1.093337,-0.1908583,-0.2442044
1.116373,-0.2262817,-0.2548388
1.135245,-0.2687414,-0.2581982
1.180021,-0.3234907,-0.2698682
1.225764,-0.3722038,-0.3138927
1.314316,-0.438158,-0.3533891
1.330013,-0.5036977,-0.3477718
1.248854,-0.5562633,-0.3248604
1.188622,-0.66301,-0.3134379
1.124798,-0.7725897,-0.2744984
1.049072,-0.8111596,-0.2366527
1.008479,-0.7472429,-0.2536578
0.9828314,-0.6046364,-0.241048
0.9348681,-0.52126,-0.1757872
0.9128608,-0.4608773,-0.1141003
0.9868917,-0.3884751,-0.08300997
1.072634,-0.3993833,-0.1142429
1.082329,-0.3990075,-0.1486115
1.049535,-0.3816013,-0.1402286
1.010152,-0.4204868,-0.1153358
0.9711936,-0.448392,-0.06454127
0.8970229,-0.4587439,-0.02533977
0.7732315,-0.4123013,-0.01826822
0.6575258,-0.3187991,0.01074148
0.6241752,-0.2630952,0.05859817
0.6562292,-0.2298949,0.08351658
0.6446936,-0.2218548,0.08039124
0.5937435,-0.2106596,0.09114849
0.5470954,-0.1925693,0.1403855
0.5247892,-0.2159289,0.1927286
0.6086913,-0.2401797,0.2154497
0.7570468,-0.2428679,0.2057345
0.8889016,-0.2133098,0.2052719
1.026034,-0.1833962,0.2250186
1.148119,-0.2241969,0.2244609
1.190869,-0.2574125,0.2259935
1.137602,-0.2148814,0.2333337
1.089097,-0.1914686,0.2312193
1.09264,-0.2335153,0.2393853
1.127228,-0.3222479,0.2270778
1.296458,-0.5609276,0.1653406
1.476352,-0.831694,0.04862348
1.364032,-0.7725402,-0.03510299
1.019909,-0.6215041,0.009953134
0.7141015,-0.6964238,0.0441062
0.6592503,-0.6907071,0.003668149
0.8061729,-0.6884771,-0.03941264
0.8879323,-0.8554797,-0.1334531
0.9421942,-0.9031156,-0.1878775
0.971313,-0.8733788,-0.1435787
0.8613569,-0.7350441,-0.1482279
0.8496355,-0.492507,-0.159909
0.8856867,-0.4394169,-0.1455261
0.8455544,-0.3833556,-0.1923861
0.8798774,-0.2018814,-0.2505299
0.8682573,-0.1415671,-0.2969307
0.85412,-0.2222442,-0.3150389
0.8638575,-0.2833219,-0.2812525
0.7759476,-0.3172083,-0.2466435
0.7255169,-0.3929477,-0.1988727
0.6924236,-0.3784789,-0.1672737
0.7061036,-0.30217,-0.1931377
0.7928678,-0.2145071,-0.234658
0.8670189,-0.08402715,-0.2843362
0.9592196,-0.08606913,-0.2961437
0.9496965,-0.1237965,-0.2406939
0.8819308,-0.1077834,-0.1862459
0.8787536,-0.128496,-0.1565502
0.9649056,-0.1348841,-0.1500105
1.116117,-0.1523113,-0.1797792
1.102078,-0.1150465,-0.2099568
1.057803,-0.05725952,-0.2032519
1.131262,-0.1233719,-0.1794392
1.170951,-0.2187923,-0.1690115
1.291621,-0.3103793,-0.1846121
1.406326,-0.3635192,-0.222321
1.368637,-0.3469923,-0.2472776
1.326419,-0.4025486,-0.2420114
1.258081,-0.5748626,-0.2423553
1.183936,-0.7681936,-0.2599985
1.157473,-0.8421175,-0.2600611
1.094007,-0.7771493,-0.2238181
1.045751,-0.6901101,-0.1548366
1.032473,-0.554268,-0.09547527
1.012569,-0.3871445,-0.1006264
1.043934,-0.3377291,-0.1463654
1.084782,-0.3342905,-0.1759789
1.041534,-0.309355,-0.1647386
0.9325133,-0.3298785,-0.1176024
0.7919666,-0.3510712,-0.05654957
0.6802556,-0.3650419,0.0008103535
0.6418558,-0.3515078,0.01830281
0.6015716,-0.2648822,0.01080881
0.5697563,-0.1703584,0.02313718
0.6040328,-0.1043929,0.03713142
0.6509304,-0.1114535,0.07730548
0.6998171,-0.1567282,0.1207472
0.7098109,-0.181916,0.1064989
0.6870681,-0.2592213,0.121558
0.7383618,-0.3268066,0.1708304
0.8172549,-0.316318,0.1766955
0.9173441,-0.2901662,0.1911463
1.027599,-0.278512,0.2236463
1.066085,-0.2961628,0.2305874
1.13397,-0.3127569,0.2424744
1.192045,-0.322724,0.2543825
1.156701,-0.3632654,0.2215428
1.192457,-0.440335,0.1739043
1.329936,-0.5450718,0.1368557
1.4194,-0.6077249,0.07376396
1.280679,-0.57826,0.003492373
0.953595,-0.4896164,-0.01251003
0.7763215,-0.4240927,-0.02730583
0.825731,-0.4573703,-0.1097801
0.955659,-0.5312354,-0.1725105
1.086478,-0.5506221,-0.2046518
1.096705,-0.5302609,-0.2375697
0.9907866,-0.4931272,-0.1804264
0.8832887,-0.4319776,-0.1194452
0.840528,-0.3817708,-0.123485
0.8671502,-0.3617082,-0.1173616
0.8821434,-0.3335514,-0.1621709
0.8740974,-0.2804863,-0.2250758
0.8657503,-0.2409815,-0.2253487
0.8130968,-0.2348401,-0.2019092
0.7119492,-0.2389631,-0.1563057
0.6126039,-0.2459606,-0.1028621
0.6035936,-0.226734,-0.09709376
0.6978796,-0.1593297,-0.1607433
0.7928213,-0.09273147,-0.2203825
0.8694029,-0.09270787,-0.2484578
0.9482135,-0.1631145,-0.308534
0.992596,-0.2210166,-0.3519333
1.046853,-0.2609847,-0.3302442
1.140484,-0.3069828,-0.3034587
1.164254,-0.309296,-0.3013462
1.094914,-0.296152,-0.2715196
1.066629,-0.3116586,-0.2399358
1.140848,-0.3942542,-0.2867934
1.253966,-0.5053972,-0.3368425
1.319303,-0.5102058,-0.3419659
1.283862,-0.4987167,-0.3281573
1.219456,-0.5724397,-0.2796178
1.183889,-0.6060003,-0.238986
1.110643,-0.5921784,-0.2390492
1.043501,-0.6130098,-0.2471653
1.05866,-0.6188193,-0.23587
1.069794,-0.6015543,-0.2257201
1.004685,-0.5958475,-0.192088
0.9409201,-0.5483267,-0.1032855
0.95633,-0.4790902,-0.06551758
1.006225,-0.4288123,-0.09164142
1.045297,-0.3456668,-0.1053489
1.026016,-0.2682292,-0.1116097
0.9033185,-0.2597175,-0.09891087
0.7603259,-0.2722043,-0.07421767
0.68688,-0.2862545,-0.05533385
0.6481231,-0.3198041,-0.03452962
0.5833602,-0.3261759,-0.003697866
0.5708588,-0.3029366,0.04205913
0.6041687,-0.2869008,0.08664299
0.5705383,-0.2406999,0.1176613
0.5912732,-0.1975893,0.1285741
0.6712496,-0.2180201,0.1405735
0.7254828,-0.2709921,0.1525347
0.8231632,-0.3313566,0.1671026
0.8746137,-0.3391358,0.2213285
0.9143123,-0.2967133,0.2566827
1.019078,-0.2849379,0.2500771
1.07187,-0.2716348,0.2478939
1.106009,-0.250629,0.2473405
1.127076,-0.2591507,0.2572019
1.145114,-0.3123237,0.2551405
1.27753,-0.483111,0.2072029
1.498683,-0.6989452,0.1260293
1.617393,-0.7326559,0.05182978
1.396211,-0.5371214,0.02464009
0.9967345,-0.3337208,0.02778484
0.7657033,-0.3263193,0.01266637
0.7168514,-0.4432266,-0.06126293
0.8333165,-0.5771051,-0.1507916
0.9989445,-0.7201548,-0.205387
1.04121,-0.7617843,-0.2376542
1.016159,-0.6633177,-0.2149814
0.9151723,-0.5114828,-0.1673215
0.8034985,-0.3348642,-0.1447232
0.833854,-0.2387546,-0.153445
0.9328817,-0.2333687,-0.2199892
1.008142,-0.1879361,-0.2720844
1.007833,-0.2000952,-0.2765849
0.9222264,-0.2711998,-0.2631391
0.8045721,-0.2722414,-0.2090679
0.6815822,-0.2984757,-0.1460344
0.6399888,-0.3174317,-0.1236839
0.6928025,-0.2832827,-0.1662211
0.7569298,-0.2562288,-0.2223343
0.8282111,-0.1603236,-0.2548464
0.8533679,-0.08692788,-0.2756211
0.8064542,-0.1135599,-0.2332422
0.8115206,-0.146389,-0.1868009
0.8987482,-0.186211,-0.1827693
1.012401,-0.1901907,-0.1835826
1.109887,-0.1826485,-0.199512
1.138124,-0.2380573,-0.1827314
1.154578,-0.2923886,-0.171426
1.189603,-0.327352,-0.2047341
1.211149,-0.3558711,-0.2374014
1.256287,-0.3812943,-0.2840173
1.258299,-0.4133954,-0.2877718
1.160515,-0.4690513,-0.2451457
1.064796,-0.5567843,-0.2140501
1.058287,-0.578272,-0.1903366
1.087917,-0.5663258,-0.1952452
1.066049,-0.6397197,-0.1840728
1.057366,-0.7152082,-0.1258211
1.05584,-0.7353588,-0.05962413
1.011104,-0.6777923,-0.02299797
1.011294,-0.5254889,-0.04686803
1.033884,-0.4073724,-0.06981538
1.053004,-0.3512322,-0.08931585
1.063567,-0.3022704,-0.1298232
0.986135,-0.3068849,-0.09942863
0.8548152,-0.373885,-0.04326713
0.7396988,-0.4343389,-0.04071492
0.7148237,-0.429878,-0.03516608
0.7656751,-0.3434884,-0.03694579
0.7984508,-0.1928371,-0.05055608
0.8420403,-0.06954984,-0.0392034
0.8519774,-0.03860505,-0.01173932
0.7943871,-0.04979137,0.06984227
0.7619508,-0.1004066,0.1829407
0.7645931,-0.1990151,0.2229566
0.8037593,-0.2727995,0.201038
0.855109,-0.2734851,0.196621
0.8723235,-0.221309,0.2251555
0.8943523,-0.1729776,0.265018
0.9220099,-0.1618932,0.2984395
0.9335746,-0.1603662,0.2705247
0.9476891,-0.1345145,0.2120787
0.9902851,-0.1451211,0.2227443
1.115364,-0.2592566,0.2146142
1.293402,-0.4114965,0.1252441
1.396397,-0.5300338,0.03493195
1.402718,-0.6265139,-0.0004175815
1.22873,-0.667663,0.06902967
0.8475621,-0.6276152,0.1392274
0.7123296,-0.6326659,0.09754966
0.9276667,-0.6901693,-0.03810836
1.053701,-0.7033771,-0.2365907
1.069814,-0.7151419,-0.2839596
1.002186,-0.6645904,-0.1399388
0.8510914,-0.5656799,-0.07044115
0.8474621,-0.5449927,-0.08952494
0.8903213,-0.5087967,-0.1298015
0.9103516,-0.4202496,-0.2207491
0.9707622,-0.3561631,-0.2804932
0.9510556,-0.3464789,-0.2577979
0.9104463,-0.3151633,-0.2264893
0.9027605,-0.2468839,-0.2323158
0.8503863,-0.2855555,-0.2106456
0.7881729,-0.3158449,-0.1683328
0.7672082,-0.2861038,-0.1687019
0.7800649,-0.3045698,-0.178027
0.7824856,-0.2767394,-0.1944004
0.7818345,-0.2730263,-0.2067156
0.8027407,-0.3143702,-0.2068185
0.813595,-0.3051442,-0.2307921
0.8187611,-0.2842735,-0.2373683
0.8360361,-0.1943497,-0.2284261
0.8732897,-0.1066835,-0.2274054
0.9279508,-0.1053638,-0.226325
0.9533009,-0.09975373,-0.2392728
0.952428,-0.1134863,-0.2406132
0.9969958,-0.1740388,-0.2205839
1.080314,-0.2445219,-0.2038898
1.118244,-0.2840285,-0.2288648
1.141445,-0.3063633,-0.27677
1.216681,-0.3526791,-0.2939815
1.303746,-0.3725405,-0.3157255
1.410961,-0.3843568,-0.3195257
1.517285,-0.4875982,-0.2841645
1.51576,-0.6826069,-0.2847144
1.380688,-0.7808928,-0.3297455
1.152339,-0.6906696,-0.3668839
0.984458,-0.6172145,-0.3163637
0.9683764,-0.5802474,-0.2162874
0.9772962,-0.4995202,-0.1803705
0.9566623,-0.4606747,-0.1514581
0.931835,-0.4148146,-0.1099608
0.9167292,-0.3632355,-0.1146078
0.9295062,-0.3424468,-0.1401397
0.9285212,-0.2882317,-0.1620799
0.8753979,-0.2829901,-0.1458081
0.7698108,-0.3189206,-0.09810676
0.6565929,-0.3217556,-0.04609526
0.5714479,-0.3247396,0.02394636
0.5175605,-0.2852165,0.06579039
0.5330223,-0.2325873,0.07499265
0.6081068,-0.2144107,0.0843491
0.6869282,-0.1984204,0.08606731
0.7165756,-0.2103448,0.09178934
0.7103867,-0.2398784,0.09805996
0.7427644,-0.2638635,0.1411325
0.7834852,-0.2828613,0.2287313
0.8556992,-0.2859983,0.2633362
1.011874,-0.2563979,0.2455663
1.133601,-0.2146229,0.2449672
1.187929,-0.2541222,0.2490226
1.204613,-0.3115486,0.2340318
1.189361,-0.3256358,0.2114084
1.25268,-0.4801008,0.1670706
1.411676,-0.7484464,0.08955458
1.488255,-0.817608,0.01238406
1.265645,-0.6018169,-0.03954903
0.9030469,-0.3789086,-0.05232513
0.8120485,-0.3643937,-0.07511204
0.8836531,-0.4434594,-0.1611068
0.9233039,-0.540516,-0.2214941
1.0087,-0.6825633,-0.2056635
0.9882164,-0.7181749,-0.1637911
0.8788876,-0.588348,-0.1154471
0.8192133,-0.4440776,-0.09325259
0.7393589,-0.3309887,-0.1114321
0.7300937,-0.2424663,-0.1341521
0.7736702,-0.2225333,-0.1678808
0.7800758,-0.2360505,-0.2200225
0.8159495,-0.2485161,-0.247093
0.8007104,-0.2719599,-0.2396706
0.7309437,-0.2763352,-0.1940387
0.6683747,-0.2497103,-0.1286617
0.636625,-0.2206011,-0.1372542
0.73396,-0.2100553,-0.2002651
0.856272,-0.2073877,-0.2434702
0.922979,-0.1971831,-0.2793601
0.9847571,-0.1853209,-0.296147
0.9869514,-0.1644311,-0.2924407
0.9933172,-0.1539259,-0.2623551
1.057451,-0.1673322,-0.2236301
1.140046,-0.1828723,-0.2486108
1.240505,-0.2190868,-0.2725993
1.245242,-0.2715706,-0.2564496
1.233923,-0.3426615,-0.2885851
1.372614,-0.4327059,-0.3498508
1.429008,-0.4484157,-0.3754629
1.344143,-0.5154685,-0.3571435
1.268391,-0.8045139,-0.32926
1.140152,-0.9725198,-0.3238253
1.047091,-0.7906872,-0.3028621
0.9999128,-0.5813842,-0.2642502
0.9597897,-0.5060612,-0.2459737
1.013152,-0.4700328,-0.2278532
0.9678035,-0.4141098,-0.1775646
0.8798853,-0.3480413,-0.1205913
0.9056287,-0.3584695,-0.1156605
0.9003692,-0.3761805,-0.1409257
0.9156185,-0.3463267,-0.1467523
0.8681753,-0.3552941,-0.1340064
0.7456908,-0.3490951,-0.08874797
0.7367619,-0.3486188,-0.02637024
0.7086548,-0.396385,0.01430539
0.6697437,-0.3931391,0.02608398
0.6767417,-0.3480497,0.02869307
0.6610662,-0.2676969,0.0422558
0.6734466,-0.1875506,0.04226391
0.6886078,-0.179518,0.04599724
0.7197923,-0.2028136,0.08543254
0.7647856,-0.2655609,0.1217943
0.7972422,-0.3252928,0.1400945
0.8524384,-0.3181524,0.1700888
0.9048111,-0.2931549,0.219555
0.9904512,-0.2687934,0.2395051
1.065877,-0.252251,0.229547
1.074952,-0.2443117,0.2486009
1.094485,-0.2328234,0.2692797
1.117867,-0.226875,0.255685
1.175954,-0.2919483,0.2075083
1.320551,-0.4832656,0.1194555
1.448438,-0.6846843,0.0362033
1.413237,-0.7256432,0.01359492
1.177404,-0.557415,0.02952704
0.8792093,-0.3903888,0.004765112
0.7616167,-0.4309763,-0.06610025
0.8740561,-0.523795,-0.1375189
0.94388,-0.5719727,-0.1882567
0.9308051,-0.6101542,-0.1912008
0.9702763,-0.5710232,-0.1758798
0.9144961,-0.5125749,-0.1642969
0.8204757,-0.4532222,-0.1207817
0.8092177,-0.3597162,-0.09442768
0.8004312,-0.3353733,-0.1386187
0.8315159,-0.3313327,-0.1948058
0.8383657,-0.2986243,-0.2124928
0.8216041,-0.3065017,-0.2140043
0.8332813,-0.2917178,-0.2193998
0.7947687,-0.2662692,-0.2165396
0.770742,-0.2656841,-0.2028164
0.7382694,-0.2399845,-0.1899288
0.7093349,-0.2330659,-0.1832196
0.7613868,-0.228671,-0.1991019
0.8126448,-0.2107227,-0.2464836
0.8823794,-0.2169306,-0.2913732
0.9135076,-0.2274314,-0.3000303
0.8980294,-0.2551521,-0.2645642
0.9790597,-0.2535186,-0.2345664
1.076764,-0.2005042,-0.2721925
1.122839,-0.1643019,-0.3045493
1.133049,-0.1708312,-0.2766484
1.120017,-0.2552069,-0.2663858
1.172245,-0.3717594,-0.2912459
1.327753,-0.4577586,-0.3448714
1.47403,-0.5210011,-0.4078627
1.409176,-0.5589349,-0.3847666
1.211471,-0.6486742,-0.327215
1.079626,-0.7474116,-0.33218
0.9994798,-0.6960468,-0.3332495
1.025774,-0.6222769,-0.3252485
1.060244,-0.6229532,-0.3117641
0.9950968,-0.5274763,-0.2226779
0.9918484,-0.4214205,-0.1303139
0.9713164,-0.4422174,-0.1128266
0.9489661,-0.4279639,-0.1304643
1.019094,-0.3876419,-0.1472641
1.010215,-0.3928543,-0.1619052
0.9500241,-0.3725174,-0.1574606
0.8292537,-0.3772726,-0.0963378
0.6721247,-0.4089005,-0.02426115
0.6347981,-0.409678,0.01226143
0.6182674,-0.3763582,0.01981414
0.628962,-0.2999684,0.0255234
0.6765126,-0.2507695,0.07040703
0.6939957,-0.2511137,0.08888434
0.7173603,-0.2464174,0.07823866
0.703857,-0.2514713,0.09219477
0.7023986,-0.2623011,0.09617474
0.7155651,-0.2528588,0.1301414
0.7172565,-0.2480623,0.1844417
0.8179362,-0.2611219,0.2179594
0.9529259,-0.2690736,0.2668694
1.010996,-0.267718,0.2848884
1.048751,-0.277334,0.2716449
1.147953,-0.2912139,0.291689
1.20392,-0.2987044,0.290331
1.209781,-0.3592362,0.2238241
1.374909,-0.4984604,0.1356459
1.495354,-0.5786185,0.07006552
1.389409,-0.5298056,0.08505991
1.246204,-0.4781771,0.1118229
1.031232,-0.4454178,0.06947466
0.8266351,-0.4141402,0.03773301
0.8128178,-0.4958277,-0.04771909
0.9045975,-0.615414,-0.1745833
1.053626,-0.6475739,-0.2168377
1.116552,-0.6602739,-0.2507405
0.9952291,-0.6125591,-0.203841
0.8662767,-0.4966937,-0.08658503
0.8126154,-0.4414742,-0.08357806
0.8300402,-0.4081362,-0.1158099
0.8868622,-0.3666294,-0.1544821
0.9183688,-0.3451616,-0.207677
0.9232517,-0.2984696,-0.208435
0.8733566,-0.26146,-0.2139095
0.7935903,-0.2638666,-0.2214262
0.7394373,-0.2810498,-0.1972529
0.7176015,-0.3175414,-0.1720775
