accx,accy,accz
1.030665,-0.144179,0.4703052
1.05454,-0.1553971,0.4966661
1.119768,-0.2282917,0.4831273
1.328083,-0.3680311,0.4777604
1.476519,-0.4045912,0.4847047
1.352929,-0.3513239,0.4267945
1.140018,-0.3398577,0.3503116
1.020346,-0.3232816,0.3224036
0.9933682,-0.3098943,0.3115084
1.00555,-0.3271291,0.2579023
0.9832954,-0.3046191,0.1966977
1.023879,-0.2844466,0.1839388
1.078873,-0.277535,0.1338244
1.011398,-0.2474382,0.09024135
0.961914,-0.2208187,0.1504567
0.9262565,-0.1642627,0.1756323
0.8955981,-0.1419562,0.1590717
0.9043191,-0.1834846,0.1796845
0.8488312,-0.1848036,0.1731931
0.8403446,-0.1884248,0.1546792
0.8570327,-0.1662884,0.1306852
0.8133357,-0.09432244,0.08412364
0.8210173,-0.09520743,0.05768405
0.8325924,-0.1168733,0.04845695
0.8528094,-0.1173827,0.05925402
0.8871744,-0.1258507,0.07667586
0.8942143,-0.09061415,0.07205473
0.9306326,-0.02357086,0.07065288
0.9445214,0.04608082,0.07425848
0.9601583,0.09385605,0.07554193
1.017433,0.1046003,0.08851668
1.059309,0.1058237,0.1032136
1.095341,0.1000476,0.1168432
1.09604,0.08733511,0.1519397
1.088686,0.03950974,0.1918162
1.13391,-0.05539482,0.1928682
1.222956,-0.1395207,0.1684434
1.361195,-0.1695633,0.1400201
1.467447,-0.144994,0.1055304
1.477151,-0.1347016,0.09248104
1.446142,-0.1728721,0.08220741
1.409506,-0.1947816,0.0286368
1.351127,-0.2008028,-0.02091289
1.247529,-0.2322377,-0.007843945
1.130273,-0.2690828,0.06429934
1.029382,-0.2779558,0.1483847
0.9502962,-0.2524075,0.1731834
0.9025062,-0.2145908,0.1490654
0.8512115,-0.194386,0.1469114
0.8321924,-0.21021,0.1520819
0.8360362,-0.2413253,0.1435987
0.779706,-0.2582322,0.171678
0.7492528,-0.2727809,0.226406
0.7526976,-0.2903591,0.2681648
0.7451846,-0.2984851,0.2870235
0.7819873,-0.2728718,0.2588735
0.8296107,-0.2023625,0.2256007
0.8938263,-0.1299123,0.2286835
0.9259254,-0.0887694,0.2399186
0.8725248,-0.08881255,0.2532183
0.8343183,-0.1307429,0.2586602
0.7926862,-0.1916708,0.2700762
0.7534252,-0.2375586,0.3065474
0.7490147,-0.2442394,0.3308301
0.7385126,-0.2354771,0.3432837
0.7665441,-0.2180357,0.357536
0.8048311,-0.1753863,0.3628556
0.8407311,-0.1302146,0.3711337
0.9036267,-0.09730728,0.3818358
0.9203638,-0.09548407,0.3816059
0.9044753,-0.1258484,0.3871136
0.9146026,-0.152535,0.4025103
0.95011,-0.1646903,0.3974046
1.044553,-0.1836444,0.3936664
1.226945,-0.2514875,0.4209084
1.380168,-0.3324253,0.4376504
1.358323,-0.3570847,0.4249182
1.240333,-0.3871364,0.3959642
1.161631,-0.4497471,0.3688844
1.128692,-0.4492299,0.3534928
1.106044,-0.4050502,0.2994226
1.077914,-0.3913378,0.2101596
1.071679,-0.3663537,0.1596602
1.047639,-0.3349155,0.1240923
0.9632494,-0.3140468,0.08525109
0.902895,-0.2586848,0.1002832
0.8963923,-0.2051986,0.1226187
0.9143934,-0.175472,0.1232954
0.9359216,-0.1673824,0.1450625
0.9289785,-0.1800367,0.1443566
0.8976298,-0.1543859,0.1255667
0.8492014,-0.1202989,0.1138209
0.8348431,-0.1152656,0.09973991
0.8530728,-0.1155233,0.1076358
0.8328611,-0.121961,0.09926997
0.8272875,-0.119458,0.08585463
0.8527311,-0.1304616,0.09270696
0.8793516,-0.1483997,0.079459
0.9184487,-0.1367841,0.08026351
0.932013,-0.1254048,0.09029509
0.9431234,-0.1009233,0.09014262
0.9519723,-0.05768858,0.09979696
0.9361172,-0.02421026,0.09654423
0.9675488,0.01320224,0.09227224
1.015074,0.04972274,0.09381015
1.028738,0.066008,0.1003609
1.041637,0.05862021,0.1248198
1.052133,0.037147,0.1376551
1.080283,-0.0006597074,0.1353097
1.122139,-0.06221246,0.1376669
1.179022,-0.1213734,0.1378321
1.322996,-0.1615738,0.1184288
1.481569,-0.1829365,0.09721258
1.494512,-0.202925,0.1062723
1.430246,-0.2337324,0.1107049
1.418661,-0.2330474,0.08292428
1.354702,-0.1989908,0.04530747
1.227588,-0.1923113,0.02295643
1.168728,-0.248648,0.04529318
1.121652,-0.3338926,0.07832113
1.070963,-0.3638295,0.08655507
1.019063,-0.3489532,0.1269213
0.9441073,-0.3437529,0.191819
0.9312844,-0.3125255,0.2218805
0.8889194,-0.2656069,0.2433021
0.8078052,-0.2349518,0.2585375
0.780133,-0.2001196,0.2378739
0.7131891,-0.1870492,0.2182547
0.6871433,-0.1952154,0.2145112
0.7335893,-0.1932879,0.2016045
0.7391321,-0.1934109,0.2005553
0.7567187,-0.1916356,0.2176059
0.7704201,-0.1756649,0.2324986
0.762759,-0.1539515,0.2643272
0.7731169,-0.1512174,0.2947415
0.7757633,-0.1685284,0.3020613
0.7882114,-0.1751468,0.3266319
0.8118924,-0.1775053,0.3513051
0.844427,-0.1916952,0.3495055
0.871641,-0.2084563,0.349106
0.8615575,-0.2111063,0.3547527
0.857378,-0.1947347,0.3689784
0.8585723,-0.170932,0.3893502
0.85043,-0.1419964,0.3978337
0.8499458,-0.1297787,0.3901476
0.8495483,-0.1372226,0.3757281
0.8919643,-0.1314892,0.3709563
0.974773,-0.1300032,0.3681938
1.017619,-0.1591802,0.3605374
1.038387,-0.2352483,0.3629904
1.136674,-0.3223037,0.3868116
1.297143,-0.3368201,0.4102178
1.360591,-0.3319205,0.3860195
1.287567,-0.3293914,0.3564356
1.217321,-0.2847648,0.3645503
1.194939,-0.3150424,0.3189789
1.132268,-0.3832583,0.2134631
1.020287,-0.3882791,0.1713384
0.9506171,-0.4493831,0.2057172
0.9457236,-0.5093242,0.2194269
0.9438511,-0.4845484,0.1864591
0.9293981,-0.4466788,0.1624525
0.9441977,-0.3658704,0.1487161
0.9706402,-0.2817954,0.1364741
0.9589731,-0.2196985,0.1409888
0.9276304,-0.1350029,0.1327483
0.8806347,-0.08473832,0.1222786
0.8368964,-0.05360487,0.1205014
0.839703,-0.02836721,0.1069597
0.8382762,-0.03883689,0.1040113
0.8252159,-0.05454084,0.1012149
0.8402078,-0.1122718,0.1079574
0.8579925,-0.2004335,0.138238
0.8774827,-0.2010056,0.1369387
0.9091453,-0.1362985,0.1113455
0.9382631,-0.1077834,0.09586758
0.9380791,-0.0880076,0.09469984
0.9219262,-0.01667522,0.09132795
0.9347148,0.08998712,0.06699657
0.9458923,0.1338082,0.07044185
0.9696612,0.07964198,0.09580835
1.026481,0.05162801,0.1049515
1.028875,0.04142472,0.116507
1.010548,-0.00670299,0.111427
1.031399,-0.02567794,0.1042119
1.037676,-0.04015702,0.1098
1.044681,-0.04280615,0.1008722
1.06926,-0.03934684,0.1048033
1.111899,-0.09025941,0.1135174
1.213838,-0.136473,0.1123703
1.337809,-0.1602923,0.1182019
1.423198,-0.165912,0.1193398
1.468398,-0.1764549,0.1221072
1.471473,-0.1988929,0.1058455
1.413246,-0.1989484,0.08506985
1.296872,-0.2571649,0.1286297
1.164842,-0.3197613,0.2025421
1.075125,-0.3180101,0.2539685
1.027927,-0.3116593,0.2776501
0.9596453,-0.265272,0.2717346
0.9158658,-0.2100613,0.2565084
0.9576857,-0.1786382,0.2428211
0.9730109,-0.1686676,0.2380259
0.9253358,-0.2011559,0.2330314
0.8641001,-0.234815,0.1990939
0.7647603,-0.2839793,0.1721674
0.6905019,-0.308381,0.188928
0.6939998,-0.2874345,0.2069201
0.7146766,-0.2919007,0.2062163
0.7464334,-0.2816451,0.2100548
0.791197,-0.2517587,0.2088987
0.8144019,-0.2155633,0.1988582
0.8189531,-0.1702173,0.1976817
0.8272655,-0.1602893,0.2040541
0.8390337,-0.1618594,0.2192456
0.8371962,-0.1889496,0.2552061
0.8296628,-0.2520649,0.3187835
0.8263719,-0.2703257,0.36219
0.8290854,-0.2360526,0.3406721
0.8493661,-0.1976212,0.3233723
0.8708558,-0.1744513,0.3295659
0.8735536,-0.1558887,0.3206085
0.8637596,-0.1418947,0.3404918
0.8556641,-0.1456118,0.3685154
0.8494882,-0.1545782,0.3657648
0.8378856,-0.1713212,0.3673176
0.850068,-0.1850132,0.3677734
0.9120751,-0.1743893,0.3651141
0.9972273,-0.1654394,0.3565848
1.058962,-0.1740502,0.3338323
1.113364,-0.2135243,0.3347742
1.190554,-0.2930892,0.3679507
1.20873,-0.3374366,0.4009008
1.167149,-0.3031413,0.4076963
1.149937,-0.2856205,0.4066998
1.116358,-0.3265006,0.3947471
1.097845,-0.3711737,0.3390831
1.13739,-0.412485,0.2928785
1.143733,-0.418754,0.2555355
1.110451,-0.3909481,0.1906394
1.063949,-0.3937522,0.1627994
1.009946,-0.3906941,0.1614133
0.9750303,-0.3815619,0.1534132
0.959315,-0.3891767,0.1630475
0.9674497,-0.3612354,0.1656526
0.9721926,-0.3244352,0.1573498
0.9776202,-0.2735633,0.1380466
1.004446,-0.1906592,0.09623813
1.005792,-0.1555478,0.07316399
0.9820492,-0.1675549,0.08435641
0.9419409,-0.1788675,0.09505351
0.8961172,-0.1897726,0.09921844
0.8763746,-0.2010287,0.1230299
0.8650512,-0.1884598,0.140973
0.8694574,-0.1494052,0.1291502
0.8840805,-0.1224699,0.1219882
0.8929499,-0.1070283,0.1102317
0.9204882,-0.104616,0.09199363
0.9484755,-0.1082769,0.09777115
0.9616854,-0.09534015,0.1018697
0.9647163,-0.08940806,0.09427976
0.9643202,-0.06847759,0.09897097
0.9732515,-0.0376022,0.1138256
0.9758981,-0.0383818,0.1263684
0.9801936,-0.03688834,0.1269221
0.9837148,-0.02968942,0.1291252
0.9739859,-0.02589005,0.1433298
0.9773456,-0.00158536,0.1407469
0.9800526,0.03587533,0.1322797
0.9844019,0.05430693,0.1426969
1.009731,0.04220839,0.1469177
1.026077,0.03197481,0.1550309
1.037724,0.02121974,0.1727332
1.048324,-0.009514752,0.1844006
1.058542,-0.04712321,0.2131857
1.102863,-0.09089931,0.2321561
1.18648,-0.1219762,0.2091766
1.31181,-0.1366491,0.1735298
1.422085,-0.1479773,0.1458862
1.421618,-0.1583777,0.1317715
1.374298,-0.1997858,0.1066525
1.349556,-0.2408738,0.05005377
1.26875,-0.2356122,0.01359714
1.154058,-0.2366667,0.0357157
1.070021,-0.280713,0.0655876
0.9880814,-0.33357,0.07879482
0.971927,-0.3520632,0.09997276
0.9969801,-0.3408952,0.1072634
0.964338,-0.3114874,0.1065706
0.961384,-0.2589648,0.1262924
0.983709,-0.2308915,0.1607845
0.9883186,-0.2411539,0.1955044
1.008153,-0.2493057,0.2098452
0.9617295,-0.257508,0.2361431
0.8796015,-0.259041,0.2628515
0.8418462,-0.2456835,0.2557793
0.8185893,-0.2376298,0.2664153
0.8242191,-0.221363,0.2667507
0.8349301,-0.1825426,0.2483015
0.8268624,-0.1333181,0.2573118
0.8087397,-0.1003808,0.2549783
0.7614398,-0.1083554,0.2584564
0.7121243,-0.1216453,0.2795663
0.6682763,-0.1224384,0.2849327
0.6472343,-0.1405232,0.2860846
0.693514,-0.170493,0.2758998
0.7630858,-0.2135538,0.2714294
0.8180579,-0.2442791,0.2890883
0.8734702,-0.2424837,0.3307092
0.9260316,-0.2547976,0.4008612
0.960945,-0.2370986,0.4351603
0.9685351,-0.1617787,0.4292413
0.9716846,-0.1073254,0.4403406
0.9831415,-0.06864677,0.4479402
0.9834429,-0.05068503,0.427096
0.9886999,-0.08652668,0.3763292
1.01423,-0.123882,0.3277926
1.11607,-0.1770691,0.3546725
1.322068,-0.2989487,0.4049676
1.394296,-0.4018918,0.3883284
1.191348,-0.4007237,0.3763853
0.9899234,-0.3832132,0.3788589
0.9849884,-0.4045465,0.3257702
1.044775,-0.4099306,0.2543011
1.069012,-0.4127933,0.1909353
1.087236,-0.4158887,0.1611122
1.067206,-0.4092173,0.1524981
0.9931989,-0.4084281,0.1344148
0.9396446,-0.3578412,0.1675829
0.9237558,-0.2495529,0.1966266
0.9477641,-0.1444408,0.1802915
0.986683,-0.09336471,0.1710684
0.9784281,-0.1019901,0.1417784
0.9479455,-0.1084821,0.1294398
0.9097798,-0.1103441,0.1446961
0.8776974,-0.1306148,0.1450734
0.8600247,-0.1466135,0.154131
0.8193157,-0.1544951,0.1552138
0.7982756,-0.1534285,0.1393015
0.8002916,-0.1454186,0.1172161
0.8195478,-0.1319794,0.09881091
0.8869427,-0.1042678,0.09389903
0.9225726,-0.07007418,0.08442748
0.9167487,-0.04679661,0.08458207
0.9334917,-0.02385593,0.08558984
0.9643013,0.006111966,0.0762061
0.9930715,0.01087119,0.0858282
1.010138,0.01691473,0.101449
1.01185,0.03598799,0.1153574
1.005303,0.01987334,0.1312339
1.01611,0.01107853,0.1316553
1.026021,0.01350319,0.1283278
1.026971,-0.01122257,0.1319676
1.062375,-0.03282549,0.1311982
1.09038,-0.06673982,0.1324751
1.113298,-0.1076768,0.1385143
1.174666,-0.1316167,0.1403042
1.298123,-0.1610885,0.1518491
1.464918,-0.189516,0.1739379
1.47399,-0.1952233,0.1728115
1.391386,-0.1810109,0.1209082
1.415288,-0.1926819,0.03525147
1.371136,-0.2145394,-0.00366643
1.263215,-0.2396931,0.04097489
1.165731,-0.3344272,0.09351304
1.04471,-0.3952262,0.1100369
1.053064,-0.3593726,0.12463
1.024911,-0.3415255,0.159636
0.9201124,-0.330322,0.1997819
0.9845185,-0.2800361,0.2067613
0.9910373,-0.2426774,0.2028607
0.9228576,-0.2449484,0.2173284
0.8938223,-0.2547829,0.2053797
0.7706109,-0.2589625,0.1932227
0.727927,-0.2635147,0.2017191
0.7428875,-0.2537892,0.1929034
0.7196487,-0.2435699,0.192679
0.7676143,-0.2415425,0.1888377
0.7492421,-0.2239436,0.185273
0.7190001,-0.1848851,0.2150631
0.7515522,-0.1585849,0.2393139
0.730203,-0.1719675,0.2587204
0.7465129,-0.1797517,0.2734483
0.7874899,-0.1753563,0.2704383
0.8068074,-0.1995597,0.2735519
0.8445641,-0.2227653,0.2954511
0.8615753,-0.2208948,0.3298485
0.8939545,-0.2100932,0.3404404
0.9113626,-0.1936923,0.3395923
0.8889152,-0.16318,0.3458897
0.8891689,-0.1294765,0.3389054
0.888658,-0.1339074,0.3420183
0.9299049,-0.1512286,0.3467489
1.00922,-0.137792,0.343703
1.031079,-0.1367593,0.346409
1.04619,-0.1286355,0.3320581
1.117532,-0.07581219,0.3098368
1.171173,-0.06753653,0.2984582
1.140995,-0.1720802,0.313194
1.108754,-0.3248195,0.3586651
1.110257,-0.382443,0.3890874
1.091483,-0.3845634,0.3765389
1.091451,-0.487139,0.3369178
1.10285,-0.5655605,0.2936052
1.093974,-0.5431784,0.2503659
1.059271,-0.5542085,0.216567
0.9757211,-0.5686332,0.1971847
0.922422,-0.5629237,0.1828615
0.9008989,-0.5599791,0.1856836
0.8647193,-0.5067774,0.1675452
0.8800354,-0.431879,0.1188686
0.9337632,-0.3598139,0.09336253
0.997146,-0.2991925,0.08309074
1.04728,-0.276803,0.09180857
1.031402,-0.2562352,0.109881
0.9993086,-0.2261162,0.1184054
0.9749201,-0.1895087,0.1299405
0.9517875,-0.1550447,0.1136698
0.9470766,-0.1592741,0.09645956
0.9104787,-0.1668214,0.1002145
0.8627714,-0.1487231,0.09620133
0.8547414,-0.1419103,0.09892652
0.8518986,-0.1383633,0.09152738
0.8743753,-0.12547,0.07784558
0.9107282,-0.1196752,0.07569104
0.907109,-0.08817576,0.07062822
0.9207496,-0.02230167,0.07184768
0.9667833,0.0293995,0.07468294
0.9899298,0.04154334,0.09675597
0.9905663,0.01893137,0.1352722
0.9789214,0.008083472,0.1451824
0.969067,0.02505045,0.1546973
0.9719357,0.05040145,0.1740841
0.9790125,0.09524761,0.162126
0.9979854,0.1068918,0.1439431
1.024668,0.05011082,0.1512962
1.036839,-0.008291493,0.1612181
1.034213,-0.0262742,0.171626
1.041754,-0.0111547,0.1852603
1.064914,-0.004290604,0.1904395
1.080167,-0.01916397,0.2046049
1.11133,-0.04398777,0.2343244
1.17955,-0.1062214,0.2903441
1.219349,-0.1315054,0.3351538
1.224949,-0.02342711,0.2940852
1.278653,0.09258807,0.251621
1.364802,0.07793791,0.2451486
1.410294,-0.00662904,0.1776673
1.395,-0.127784,0.1176807
1.311369,-0.2985904,0.1129873
1.192157,-0.3903181,0.09343152
1.110708,-0.3976317,0.1111397
1.100431,-0.4332535,0.1549405
1.098755,-0.4219798,0.137483
1.02075,-0.3563264,0.131322
0.921459,-0.2761943,0.1625869
0.8832149,-0.1854696,0.171921
0.8918753,-0.2086857,0.1823092
0.8847604,-0.2493136,0.1854284
0.8284366,-0.2119704,0.1805075
0.8023682,-0.2219946,0.192572
0.8059302,-0.2171645,0.1885677
0.7935258,-0.208591,0.1869778
0.8062824,-0.2579434,0.2018821
0.8036244,-0.2710983,0.214038
0.7933496,-0.2747467,0.2389905
0.789779,-0.2541814,0.2594704
0.754299,-0.2025484,0.2723777
0.7468222,-0.1978796,0.2885331
0.7492073,-0.1939251,0.2937778
0.7568525,-0.1847679,0.3026017
0.8041457,-0.1857785,0.318648
0.8265435,-0.1940641,0.3235934
0.8442177,-0.2252048,0.3295225
0.8707529,-0.231343,0.3542516
0.8702213,-0.2156161,0.3667321
0.8642142,-0.1919802,0.3536184
0.8531013,-0.1623272,0.3518279
0.8491639,-0.1547818,0.3588607
0.8665804,-0.1471234,0.3676732
0.8945091,-0.1417546,0.378047
0.9354523,-0.152252,0.3638519
1.023864,-0.1834873,0.3476675
1.178322,-0.247643,0.3615
1.254447,-0.2868721,0.3749732
1.1718,-0.2653471,0.3713893
1.121804,-0.2634362,0.372775
1.163904,-0.3397482,0.3768163
1.177344,-0.4130749,0.3774812
1.180794,-0.4131033,0.3694603
1.170827,-0.3920725,0.3275326
1.12373,-0.3959055,0.2789527
1.103611,-0.3973948,0.2555663
1.045382,-0.372001,0.218312
0.9575999,-0.3423748,0.1769668
0.9552332,-0.3186336,0.1697917
0.9545984,-0.3043517,0.1543495
0.9300862,-0.3011152,0.1417507
0.9358367,-0.2785408,0.1683726
0.9340641,-0.2392773,0.182616
0.9383713,-0.1924158,0.1946239
0.936838,-0.1524384,0.2091092
0.9162077,-0.1352421,0.1901214
0.9117118,-0.103387,0.1730949
0.9213244,-0.06280042,0.1429957
0.9443589,-0.04635419,0.1077268
0.9430895,-0.06657533,0.1134036
0.9117746,-0.1268185,0.125477
0.89159,-0.1798395,0.133279
0.884115,-0.2085071,0.1303021
0.8967603,-0.2234506,0.1179088
0.9052384,-0.1936258,0.1145304
0.9077662,-0.1242801,0.09424592
0.9168017,-0.06108259,0.06568446
0.913304,-0.0145299,0.05338753
0.9419283,0.009829056,0.05448217
0.9898823,0.001326078,0.05230313
1.00324,-0.005690262,0.04536297
1.002396,-0.003632033,0.05927654
1.003679,-0.01123378,0.0738515
1.018352,-0.01738708,0.07397249
1.03586,-0.04069551,0.08310841
1.052208,-0.07516722,0.103372
1.080746,-0.09981223,0.1198668
1.110197,-0.1281485,0.1139775
1.171592,-0.1397016,0.1052893
1.263147,-0.1332487,0.1102971
1.314426,-0.1298942,0.1031548
1.337388,-0.1398971,0.08026593
1.389563,-0.1832973,0.04586525
1.424127,-0.2471453,0.01500633
1.38745,-0.2905336,0.01270552
1.300902,-0.3048835,0.04448598
1.177998,-0.3298089,0.09811844
1.102903,-0.3484918,0.1197869
1.08156,-0.3345829,0.1178357
0.9993472,-0.3229958,0.1406208
0.9470678,-0.2785978,0.1426957
0.9488726,-0.2157449,0.1395339
0.9219249,-0.2081128,0.1694316
0.9316553,-0.2284256,0.176004
0.9051105,-0.2537001,0.1761509
0.8381307,-0.2708643,0.1876685
0.8275578,-0.2748166,0.1789076
0.8013324,-0.2776685,0.1793237
0.7971768,-0.2606019,0.1894094
0.8068479,-0.2407225,0.2029154
0.7806254,-0.2359239,0.224583
0.7936818,-0.2301387,0.2252685
0.7936853,-0.1902214,0.2432568
0.7832194,-0.1248333,0.2864335
0.7996048,-0.107506,0.2875295
0.799252,-0.1231717,0.2814697
0.8141768,-0.1382953,0.3021904
0.8276472,-0.1789638,0.3059026
0.8219557,-0.2028726,0.3071679
0.8225851,-0.1969712,0.3231594
0.8268291,-0.2096873,0.3406909
0.8380176,-0.2105883,0.35462
0.8527156,-0.1773103,0.3484125
0.8837138,-0.1379701,0.3467505
0.9019405,-0.09434904,0.3584834
0.8939235,-0.08219562,0.3679941
0.9081059,-0.1109265,0.3917631
0.9302737,-0.1236063,0.391966
0.9664786,-0.1334754,0.3659684
1.059764,-0.1750488,0.3647571
1.175224,-0.2280667,0.3790005
1.210454,-0.2508897,0.4027536
1.143351,-0.2569743,0.4126696
1.105758,-0.3091797,0.4014438
1.140304,-0.3641447,0.4019919
1.169416,-0.3798517,0.3777388
1.181808,-0.3890977,0.3114303
1.149021,-0.3802177,0.2367498
1.069754,-0.3766994,0.1766871
1.037041,-0.3832205,0.1527905
1.032689,-0.3677258,0.1439297
0.9950681,-0.3627002,0.127581
0.981309,-0.3642658,0.1252567
0.9884499,-0.3542686,0.1398489
0.9555321,-0.3316216,0.1515593
0.9248764,-0.2801182,0.1649898
0.9216318,-0.2150637,0.1673157
0.9157483,-0.1668882,0.1429754
0.9126673,-0.1547678,0.1351384
0.9099013,-0.1373821,0.1397723
0.9098913,-0.09935092,0.1302933
0.9143763,-0.0931786,0.1235823
0.8964512,-0.09393534,0.116478
0.8759428,-0.09118339,0.1229655
0.8791258,-0.110403,0.1307888
0.8964281,-0.1262749,0.1215093
0.9172482,-0.134079,0.1124353
0.9189972,-0.1270158,0.08390614
0.9070482,-0.1059143,0.05970929
0.9080975,-0.07076058,0.06275099
0.9315925,-0.01370712,0.06115401
0.9744168,0.008716331,0.05745641
1.00712,0.004186582,0.05586193
1.018539,0.02224087,0.0541959
1.021722,0.01596699,0.05531771
1.017932,-0.03074962,0.06817767
1.023617,-0.07580864,0.09141264
1.06086,-0.1038766,0.09302222
1.138862,-0.1238098,0.0734765
1.252183,-0.1442926,0.05601621
1.349486,-0.1471235,0.05523979
1.37119,-0.1381593,0.07335059
1.358729,-0.1495807,0.08432762
1.37933,-0.1935631,0.07101218
1.390283,-0.2520301,0.04835012
1.373663,-0.259883,0.0402121
1.335241,-0.2458873,0.05133049
1.216009,-0.2855925,0.07873727
1.109467,-0.310496,0.1077461
1.116986,-0.3145075,0.1150384
1.093255,-0.3452425,0.1272434
1.008425,-0.3395031,0.1497132
0.9752289,-0.3087485,0.1462433
0.9348177,-0.2886424,0.1515145
0.8990987,-0.2587492,0.1751274
0.9176474,-0.2471034,0.1766329
0.8681561,-0.2507003,0.1798422
0.795416,-0.2510495,0.1880419
0.7806902,-0.2622488,0.1893913
0.7597185,-0.2750853,0.2000752
0.7532868,-0.2894687,0.2057877
0.7453255,-0.2966799,0.2105578
0.7406084,-0.2782029,0.2173058
0.7644669,-0.2498062,0.2214834
0.7703771,-0.216119,0.2357095
0.7985803,-0.1904014,0.2537881
0.823218,-0.1935459,0.2836312
0.8215481,-0.2033028,0.3094687
0.8347882,-0.2149088,0.3274841
0.8320491,-0.2291022,0.3557119
0.8489147,-0.22475,0.3488174
0.8762727,-0.2200974,0.3333209
0.8730119,-0.2253825,0.3469067
0.8767037,-0.2162274,0.3447898
0.8844571,-0.192747,0.3559848
0.8976639,-0.1703495,0.3844555
0.9006335,-0.1639002,0.3908925
0.8882998,-0.1671771,0.3992104
0.890188,-0.1596113,0.3883175
0.9119468,-0.1646774,0.3574893
1.024293,-0.2158811,0.3602122
1.198321,-0.3118849,0.375997
1.233699,-0.388032,0.3825779
1.125249,-0.3858278,0.3862425
1.077038,-0.3880352,0.3780118
1.114292,-0.407982,0.3579816
1.127532,-0.3761078,0.3144734
1.125053,-0.3691466,0.2606659
1.102205,-0.3759204,0.2232575
1.039921,-0.3467681,0.1846738
1.005251,-0.3374868,0.1528685
1.000457,-0.3135454,0.1369308
0.9914791,-0.2968268,0.1265406
0.9860086,-0.3057908,0.1410753
0.9730509,-0.2848551,0.1570526
0.9567463,-0.2764017,0.1517061
0.9490383,-0.2486537,0.1524587
0.9315929,-0.1925702,0.1537156
0.9100402,-0.1823937,0.1496984
0.8936224,-0.1752177,0.1424733
0.8770479,-0.1415155,0.1268245
0.8872675,-0.1111912,0.1217938
0.9059046,-0.1080699,0.1210969
0.8968636,-0.1246441,0.110198
0.8983159,-0.136879,0.1067377
0.9108329,-0.1544278,0.110904
0.9180207,-0.1702291,0.1108759
0.9324775,-0.1779142,0.1122369
0.9322153,-0.166622,0.1119578
0.9304668,-0.1287718,0.09985548
0.9403387,-0.08592591,0.08258448
0.9490995,-0.04015171,0.06687333
0.9790574,-0.009693152,0.05862804
1.012383,-0.007152422,0.06261385
1.033064,-0.01340875,0.06491092
1.048399,-0.02195069,0.06203688
1.039349,-0.0499478,0.06159181
1.027825,-0.09497229,0.05808559
1.01818,-0.1112784,0.05228808
1.002981,-0.1087987,0.04874272
1.013298,-0.09933553,0.0421671
1.024796,-0.06925187,0.03613983
1.028039,-0.06722817,0.0409507
1.045737,-0.09677417,0.05218253
1.062643,-0.1391154,0.06288788
1.083857,-0.1786654,0.06555897
1.107039,-0.1636733,0.05448221
1.138216,-0.1264554,0.04684212
1.19554,-0.1125145,0.04379654
1.245612,-0.1187467,0.02955038
1.289147,-0.1511944,0.02178918
1.336238,-0.195874,0.03421358
1.35857,-0.254355,0.04985083
1.353508,-0.3097169,0.06077337
1.303221,-0.3258115,0.0751237
1.20934,-0.327952,0.09660667
1.13153,-0.3349735,0.1257269
1.405653,-0.03345775,0.1542114
1.496014,-0.05392653,0.1451864
1.544463,-0.09693277,0.1336078
1.5013,-0.1343685,0.1216007
1.372993,-0.1816515,0.1184674
1.221972,-0.2239823,0.1388926
1.115787,-0.2305393,0.1542694
1.077074,-0.2289681,0.1698492
1.031628,-0.2394706,0.1932669
0.9916223,-0.2202086,0.1959263
0.9733839,-0.18535,0.2033578
0.9187833,-0.1511731,0.2281539
0.9222366,-0.1151004,0.2340462
0.935149,-0.1352597,0.2347403
0.8605654,-0.1727282,0.2466137
0.8365838,-0.1872023,0.2426335
0.8275983,-0.2206104,0.2235993
0.7863526,-0.2583782,0.2048235
0.7835218,-0.2970296,0.1920676
0.7917603,-0.3098032,0.2079963
0.8057574,-0.2954295,0.2435956
0.8042984,-0.290957,0.2729096
0.8051041,-0.2556116,0.2924097
0.8095836,-0.2115137,0.29912
0.779468,-0.1687011,0.3122185
0.7669652,-0.1134186,0.3195367
0.7555431,-0.1064591,0.3049264
0.7537783,-0.1281186,0.3076903
0.7774516,-0.1587453,0.322601
0.7875396,-0.2027841,0.3464844
0.8135888,-0.2316302,0.3842457
0.8307662,-0.2435711,0.3990684
0.8469427,-0.2219807,0.4043106
0.8760564,-0.1869088,0.4075853
0.8734854,-0.154997,0.4059392
0.8873874,-0.1095611,0.4267719
0.9154422,-0.07608206,0.4503821
0.9192692,-0.06554623,0.4542996
0.922547,-0.06513383,0.4395129
0.9403585,-0.05413438,0.4171618
0.9816361,-0.06380414,0.3989065
1.036383,-0.1212853,0.3827784
1.144056,-0.1832032,0.4109836
1.312032,-0.2645146,0.4798715
1.359093,-0.3279729,0.5007685
1.195911,-0.3185041,0.4567272
1.029018,-0.3122405,0.4062517
1.005466,-0.3294706,0.3731882
1.030533,-0.3369716,0.3087683
1.032186,-0.3396686,0.2191139
1.027827,-0.3571238,0.1894321
1.018987,-0.3881257,0.1930129
0.9828243,-0.3835901,0.1865503
0.9360287,-0.3488395,0.1979001
0.9319553,-0.300556,0.2047564
0.9465797,-0.2236354,0.205067
0.9521595,-0.1622775,0.201644
0.9588225,-0.1499678,0.1822667
0.9463671,-0.1548409,0.181074
0.9186887,-0.1298848,0.184245
0.8915455,-0.07432213,0.1753514
0.882206,-0.03820042,0.1742493
0.888995,-0.04852548,0.1784499
0.8809592,-0.08390661,0.1856554
0.8699409,-0.1078492,0.1794326
0.871316,-0.1164259,0.1702331
0.8842965,-0.1156915,0.1751859
0.9035565,-0.1069461,0.1720084
0.9194928,-0.0932097,0.1654904
0.9406696,-0.05570644,0.1606804
0.9461123,-0.01691302,0.1586035
0.929121,0.02304336,0.1625309
0.9329998,0.08315909,0.1597705
0.9594391,0.1005788,0.1641285
0.9917534,0.1151648,0.1715117
1.016911,0.1517527,0.1687753
1.020272,0.1151461,0.1791943
1.036706,0.07262388,0.2027389
1.066541,0.0522403,0.2141305
1.077109,-0.009217384,0.1975253
1.114391,-0.03701006,0.1657392
1.242959,-0.05690805,0.1467021
1.438172,-0.129941,0.1528176
1.528269,-0.1920639,0.1883684
1.429393,-0.2290538,0.2113471
1.331636,-0.236361,0.1692217
1.287287,-0.2217908,0.1168738
1.176658,-0.2231962,0.12378
1.102529,-0.2372052,0.141283
1.118453,-0.2638362,0.1373526
1.079602,-0.2883569,0.1527161
1.005601,-0.2906305,0.1739792
0.9866012,-0.2665751,0.1967511
0.990405,-0.2345974,0.2393209
0.9719238,-0.23339,0.2734442
0.9300076,-0.2365101,0.2999508
0.8807337,-0.214747,0.3081049
0.7881352,-0.1781599,0.2914428
0.6915425,-0.124282,0.2781605
0.6994615,-0.08809288,0.2474611
0.7303625,-0.08517529,0.2295228
0.7290692,-0.07982945,0.2430789
0.7669074,-0.08196746,0.2315727
0.7939098,-0.1043578,0.2244806
0.7888515,-0.140561,0.2389763
0.7907289,-0.2043134,0.2574233
0.7740272,-0.2670106,0.3086379
0.7562483,-0.2852167,0.3568544
0.758806,-0.2654099,0.3599442
0.7656179,-0.2268032,0.3490773
0.7851234,-0.1811854,0.3522981
0.8309646,-0.1335144,0.3679959
0.886922,-0.09295198,0.3921396
0.9139913,-0.06549147,0.4229596
0.9254105,-0.05462189,0.4392677
0.9411173,-0.06721627,0.4413031
0.952264,-0.09398769,0.4457998
1.019113,-0.1667568,0.4479463
1.153607,-0.2937888,0.4588338
1.244315,-0.3646666,0.4788676
1.251574,-0.3499817,0.4850379
1.236825,-0.3499039,0.4580351
1.200302,-0.3647296,0.4064799
1.11105,-0.3393801,0.3652629
1.041062,-0.2984609,0.3064587
1.045294,-0.2608423,0.2225577
1.058141,-0.2491202,0.186045
1.045858,-0.2682982,0.1722219
1.024338,-0.2609012,0.1283821
0.9648847,-0.2401655,0.1151054
0.8886977,-0.2090403,0.1432165
0.8774162,-0.1440354,0.1516584
0.9089424,-0.1172317,0.1616772
0.9233283,-0.1372272,0.1808017
0.9373438,-0.1441818,0.1743243
0.9444405,-0.1304801,0.1747922
0.9295997,-0.1080872,0.1789685
0.9172377,-0.08210653,0.1762654
0.9080064,-0.06298797,0.1836406
0.9039319,-0.07177801,0.158751
0.9082488,-0.07788571,0.1224576
0.9052023,-0.07075068,0.116162
0.9026151,-0.07658508,0.1173143
0.9054185,-0.0635302,0.1197306
0.9076673,-0.03957561,0.1153437
0.920925,-0.0192097,0.1073226
0.9462839,0.01073785,0.09655533
0.9688029,0.04510001,0.08768015
0.980042,0.0962714,0.0966542
0.984462,0.112586,0.1109915
0.9841398,0.07487384,0.1430523
0.9846943,0.05617704,0.1736122
1.020426,0.06017386,0.174708
1.103652,0.06682837,0.1778026
1.193,0.06019624,0.1635846
1.28854,0.004916424,0.1275684
1.432764,-0.07625794,0.1198233
1.53518,-0.1326201,0.1267719
1.505716,-0.1890318,0.1161764
1.455432,-0.2663518,0.09270769
1.399924,-0.2904695,0.07191356
1.296366,-0.2772602,0.08161903
1.199373,-0.2915398,0.1364335
1.075142,-0.2934472,0.1936036
1.036113,-0.2878194,0.1999852
1.062754,-0.2722929,0.1869682
0.9170284,-0.2109803,0.2091351
0.8443397,-0.1629131,0.2266102
0.9154517,-0.1649556,0.2188191
0.8697065,-0.1731306,0.2399396
0.8502712,-0.1769778,0.2674571
0.8490476,-0.2141218,0.2640615
0.7799331,-0.2351869,0.2613671
0.7535901,-0.2078624,0.2691856
0.7239677,-0.1942703,0.2813967
0.7192618,-0.1514063,0.2951997
0.7312559,-0.08960149,0.3011668
0.7113202,-0.07642002,0.2965096
0.7362424,-0.06979218,0.2918163
0.769498,-0.08652284,0.2979435
0.794842,-0.1303757,0.3029042
0.8085006,-0.1777035,0.3114122
0.7826924,-0.2325361,0.3325332
0.7764812,-0.2484982,0.3580821
0.8025051,-0.2317108,0.3895227
0.8631018,-0.2003475,0.4124731
0.9298841,-0.1579938,0.4222861
0.9386091,-0.1247984,0.4268267
0.9276795,-0.09311131,0.4290212
0.9353911,-0.08128961,0.4368042
0.9554806,-0.1016995,0.4203535
1.047779,-0.1640712,0.4009822
1.204412,-0.2612508,0.440878
1.246574,-0.3180701,0.474847
1.156673,-0.3341446,0.4523288
1.083446,-0.381707,0.4366591
1.037998,-0.4494082,0.440429
1.04607,-0.4717638,0.4253512
1.100911,-0.444375,0.3663684
1.104968,-0.4119929,0.2794519
1.094602,-0.3827561,0.2388714
1.052297,-0.3242528,0.2191785
0.9689284,-0.2479749,0.1574491
0.9611086,-0.2201488,0.1568105
0.9763991,-0.2110594,0.1903903
0.9609697,-0.1433676,0.136493
0.9645936,-0.1076239,0.1184122
0.9628516,-0.1605054,0.1529062
0.9350573,-0.1944394,0.1522289
0.8823549,-0.2071364,0.1627276
0.8481103,-0.2135407,0.1530525
0.8688066,-0.1778385,0.1277723
0.8896573,-0.1451673,0.1139947
0.8927936,-0.1155842,0.09230527
0.8996771,-0.1075714,0.09398637
0.9017557,-0.1178162,0.08631249
0.905938,-0.08683351,0.08543239
0.929242,-0.08928649,0.1036392
0.9525337,-0.1096458,0.09590657
0.9564275,-0.09712711,0.09800492
0.9586384,-0.09771608,0.08681402
0.9752743,-0.06519037,0.07019185
0.9985183,-0.02422393,0.08536927
1.009011,-0.0133452,0.085948
1.004849,0.01029269,0.08171486
0.9996634,0.02620961,0.07910317
0.9998215,0.01585937,0.07146526
1.00737,-0.01838946,0.06814037
1.015259,-0.0315923,0.06295689
1.013913,-0.01777462,0.06646724
1.011472,-0.01901426,0.06455642
1.025498,-0.003643446,0.05833669
1.051316,0.007207985,0.05855787
1.074788,-0.005441312,0.06670989
1.100889,-0.02832545,0.1027199
1.154205,-0.08453746,0.1397655
1.223862,-0.1155664,0.1491981
1.248237,-0.08291131,0.1436149
1.263622,-0.04884145,0.1366667
1.330909,-0.04974732,0.1155478
1.372065,-0.06910702,0.07289018
1.35434,-0.1236668,0.05513693
1.31099,-0.2149936,0.06700399
1.165144,-0.2930516,0.1007478
0.9505032,-0.3779152,0.1579155
0.9144339,-0.4042471,0.165647
0.9847727,-0.3421072,0.1521829
0.9237176,-0.3497989,0.1775971
0.9029855,-0.356098,0.1689278
0.931785,-0.3076493,0.1618001
0.8616037,-0.3040707,0.230008
0.8479075,-0.2596145,0.297989
0.8580289,-0.2322357,0.3097225
0.8541503,-0.2454109,0.2897716
0.9062178,-0.1814293,0.2769998
0.9330402,-0.1614654,0.2481019
0.9710955,-0.1857747,0.2006224
0.9813718,-0.205007,0.210348
0.9323958,-0.2828799,0.232606
0.8976367,-0.3319039,0.2226894
0.8420387,-0.3434914,0.2147115
0.8296935,-0.3470351,0.181487
0.846166,-0.3187257,0.1686483
0.8324183,-0.3016317,0.2175458
0.8349124,-0.2836096,0.2733348
0.8254646,-0.2549866,0.304071
0.8337514,-0.2056659,0.2885763
0.8653867,-0.129765,0.2590002
0.8952526,-0.1100185,0.2484602
0.9312241,-0.1517596,0.2618934
0.9260645,-0.1974982,0.3223507
0.9135469,-0.239062,0.3786775
0.9152186,-0.2604956,0.3972592
0.9096915,-0.2292872,0.4022306
0.9100819,-0.1637402,0.3850707
0.9016717,-0.1272784,0.3635866
0.9011009,-0.1310735,0.3661041
0.9011859,-0.1624572,0.3805043
0.8852105,-0.1989802,0.3892295
0.8854541,-0.1963178,0.3944506
0.8927921,-0.1846107,0.3866348
0.8949779,-0.1892646,0.3710251
0.8936279,-0.1893775,0.383461
0.8860783,-0.1943027,0.3995593
0.8765268,-0.1943642,0.4038666
0.8574252,-0.1744798,0.409279
0.8426658,-0.1465069,0.4004398
0.8428287,-0.1361665,0.4010875
0.8514555,-0.1555161,0.4105569
0.8727442,-0.1727839,0.4126507
0.8847062,-0.172354,0.4185336
0.8845403,-0.159894,0.414212
0.9135698,-0.1473161,0.4067764
0.978175,-0.1583414,0.3972985
1.039533,-0.1707944,0.3906664
1.051273,-0.1658099,0.4041722
1.015522,-0.178506,0.4140837
0.9709287,-0.22057,0.4272506
0.9467308,-0.2646408,0.4424171
0.9935014,-0.2915355,0.4336761
1.08497,-0.3154999,0.4158374
1.131065,-0.3331053,0.3838646
1.145714,-0.3233091,0.3391318
1.124651,-0.3271529,0.3158132
1.066271,-0.3377697,0.3129608
1.052947,-0.3180777,0.3071892
1.053327,-0.3174214,0.2818415
1.042149,-0.3306699,0.2340549
1.052022,-0.338068,0.1960595
1.046612,-0.3448091,0.1861729
1.050274,-0.3172484,0.1653851
1.057968,-0.2652382,0.1263469
1.028486,-0.1950732,0.09828444
0.9998069,-0.1552599,0.08598329
0.9774535,-0.1873859,0.09906164
0.963734,-0.2233387,0.1334251
0.9474527,-0.2898209,0.1861964
0.9223363,-0.3737413,0.2341436
0.927247,-0.3544435,0.2068888
0.9352069,-0.2884532,0.1389419
0.9392715,-0.2554377,0.1016037
0.9597836,-0.2233661,0.08864434
0.9758072,-0.1898715,0.1027917
0.9816427,-0.1521045,0.1216413
0.974096,-0.1293546,0.1348424
0.9648148,-0.1442824,0.1409105
0.956045,-0.1512098,0.1272626
0.9407451,-0.1721656,0.1492595
0.9351249,-0.214455,0.1725291
0.9337963,-0.2104784,0.1592225
0.934005,-0.193267,0.160231
0.93846,-0.1773281,0.133501
0.9495122,-0.1298208,0.09040139
0.9672933,-0.08161143,0.07807383
0.9714508,-0.03720963,0.07013032
0.9745697,0.005333264,0.06968323
0.9864063,0.02521554,0.07347248
0.9917209,0.02920317,0.0828175
1.000582,0.02956777,0.08893062
1.010783,0.02869862,0.08688353
1.007113,0.02668851,0.0921848
0.9902279,0.02164062,0.08107814
0.9669461,0.00705367,0.07034967
0.9537472,-0.01926678,0.08125204
0.9617986,-0.03601967,0.1018
0.9689385,-0.01392856,0.1202854
0.9631377,0.02371753,0.1123198
0.9734895,0.0326674,0.107126
1.010278,0.02254483,0.1375311
1.072362,0.0133311,0.1807436
1.149136,0.007187003,0.2175391
1.218374,-0.01564802,0.2381544
1.2922,-0.09285581,0.2343663
1.345604,-0.1999439,0.2165167
1.371525,-0.2430058,0.1941002
1.446395,-0.1903982,0.1431854
1.522529,-0.1492618,0.07929632
1.466708,-0.1621842,0.04039011
1.365436,-0.1414084,-0.0257563
1.354358,-0.1261847,-0.08637347
1.30965,-0.1724383,-0.02310903
1.180763,-0.2103146,0.07214861
1.058448,-0.2218604,0.1216605
0.9206288,-0.1952487,0.1846241
0.8555792,-0.1454129,0.1952625
0.8894245,-0.1443392,0.1682248
0.900188,-0.166892,0.1702695
0.9093472,-0.1922363,0.1497886
0.872351,-0.2192017,0.1419893
0.7823753,-0.2239422,0.1480805
0.7615073,-0.2459271,0.1424074
0.7945867,-0.273641,0.1577271
0.8159523,-0.2628137,0.1743719
0.792872,-0.2279449,0.2017934
0.7638782,-0.176759,0.2160962
0.7503484,-0.1366736,0.2155261
0.7251507,-0.1308252,0.2438349
0.7363558,-0.1385842,0.2549127
0.7660585,-0.1501192,0.2617878
0.7887237,-0.1619628,0.2769364
0.8242577,-0.1709301,0.2728947
0.8497873,-0.1748598,0.2862562
0.8874232,-0.1593533,0.3158595
0.9216493,-0.1325401,0.3572972
0.924655,-0.1212658,0.3944588
0.9338528,-0.1198417,0.3926256
0.9494576,-0.1139554,0.3913333
0.9715385,-0.11639,0.390838
1.012642,-0.1463399,0.3619715
1.093322,-0.2197282,0.3434069
1.204694,-0.3027494,0.3519572
1.233411,-0.3314945,0.3612122
1.165245,-0.3534592,0.3611781
1.141008,-0.4062133,0.3610401
1.173194,-0.4276907,0.3546313
1.189856,-0.450702,0.3244275
1.204018,-0.4653117,0.2888031
1.186379,-0.4263753,0.2603672
1.127579,-0.414639,0.2048641
1.079549,-0.3771887,0.1425921
1.016791,-0.2898705,0.1282448
0.9626872,-0.2315726,0.1162586
0.9547014,-0.1577849,0.09849443
0.9497226,-0.1205696,0.1297121
0.9389442,-0.1297914,0.1511665
0.9117654,-0.1383535,0.1458699
0.8708311,-0.1934765,0.1557832
0.848375,-0.2075135,0.1597105
0.8490429,-0.1802486,0.1617643
0.8614097,-0.1695809,0.1412707
0.8622838,-0.1323022,0.1009174
0.8620172,-0.1271961,0.07945742
0.8662323,-0.1381162,0.053152
0.864135,-0.1186926,0.04142754
0.86858,-0.1049757,0.04637563
0.8705662,-0.08078121,0.03880726
0.8782485,-0.05281041,0.03604222
0.9102832,-0.01941106,0.01940336
0.9684101,0.03266558,-0.005046217
1.027285,0.06390204,-0.00704132
1.033348,0.05146402,0.002836693
1.026689,0.01672037,0.02528748
1.040936,-0.008204843,0.05161376
1.035712,-0.01511283,0.06993169
1.042578,-0.01327552,0.08832919
1.071194,-0.0304221,0.106909
1.112044,-0.05628602,0.1233357
1.186354,-0.06071356,0.1272033
1.266945,-0.08332747,0.1128749
1.377066,-0.1399089,0.1052004
1.46229,-0.1912161,0.1161677
1.418798,-0.2097134,0.1164329
1.380452,-0.2376704,0.07633606
1.378013,-0.3134095,0.009537782
1.301316,-0.3509161,-0.01630721
1.213238,-0.3528747,0.03995043
1.116815,-0.3943379,0.1217414
1.031876,-0.4025859,0.1711248
1.004105,-0.350277,0.1873919
0.9349378,-0.2931039,0.1873359
0.8862217,-0.2394316,0.1926369
0.8963588,-0.2194005,0.190366
0.8657067,-0.2338524,0.1778628
0.8303234,-0.2519768,0.1847195
0.7814543,-0.2997231,0.1878843
0.7329331,-0.3539755,0.1826522
0.7460638,-0.3599568,0.1942128
0.7690042,-0.3287883,0.2055195
0.8023154,-0.2680554,0.2178256
0.8150721,-0.188125,0.2294843
0.7862716,-0.113765,0.2305004
0.7833819,-0.06810733,0.2410293
0.7675587,-0.06813062,0.2556697
0.7383826,-0.08705309,0.2584527
0.7300576,-0.1244498,0.257549
0.7171343,-0.1810441,0.2662804
0.7291483,-0.2159376,0.2899598
0.7557238,-0.233573,0.3270653
0.783513,-0.2306477,0.3531307
0.8388734,-0.1882705,0.3420446
0.9039276,-0.1353575,0.3324556
0.962834,-0.1031872,0.338641
0.9937925,-0.1041984,0.3361877
1.015039,-0.1222698,0.3469611
1.046101,-0.1420717,0.3547274
1.073901,-0.1974873,0.3482765
1.159317,-0.3015486,0.3561976
1.2519,-0.3737307,0.3561492
1.218198,-0.360431,0.3308461
1.128966,-0.3620863,0.289264
1.091138,-0.424221,0.262366
1.095655,-0.4609906,0.2661256
1.110487,-0.4941122,0.2505769
1.09564,-0.5423065,0.2089751
1.062955,-0.5384123,0.1761256
1.034584,-0.5145823,0.160916
0.9867532,-0.5008537,0.1656555
0.9310588,-0.4603231,0.169337
0.8718374,-0.4039251,0.1558508
0.8543469,-0.3475411,0.1246713
0.9140016,-0.2810667,0.0755768
0.9581814,-0.2422854,0.04350191
0.9839562,-0.2390795,0.03622783
1.005683,-0.2168567,0.02583514
0.9732919,-0.2135196,0.04382401
0.9383446,-0.2446055,0.07944035
0.9322977,-0.2590221,0.07875814
0.9357194,-0.2804797,0.09333179
0.9238492,-0.2919533,0.1325638
0.8958763,-0.2663359,0.13885
0.8896469,-0.2186998,0.1264252
0.891223,-0.1439391,0.09995507
0.9107439,-0.0738425,0.0712307
0.95055,-0.03000021,0.0650281
0.9661081,-0.01734358,0.06387496
0.971532,-0.02643306,0.0677254
0.9881464,-0.02603154,0.07401313
1.002812,-0.03117126,0.08168184
0.9947617,-0.03489486,0.09505549
0.9752416,-0.0272846,0.1069148
0.9685825,-0.02404825,0.1172907
0.9709781,0.001220239,0.1078791
0.982591,0.03631688,0.09308721
0.9889186,0.04003306,0.09332687
0.9835903,0.03127396,0.09762178
0.9844229,0.03046229,0.1127469
0.9926355,0.02357472,0.1163026
1.003296,0.01285431,0.1113186
1.005702,0.008171577,0.1261912
1.010373,0.004047876,0.1412665
1.031996,0.01050939,0.1517245
1.062584,0.006578992,0.1562318
1.121185,-0.04746164,0.1704316
1.209564,-0.1042562,0.1955453
1.285316,-0.1021474,0.1834646
1.325321,-0.08319674,0.1654933
1.349185,-0.1051987,0.1692521
1.37589,-0.1444907,0.1568319
1.37758,-0.197923,0.1335615
1.35379,-0.2570085,0.1179263
1.316671,-0.278374,0.1378248
1.238931,-0.3155389,0.1850374
1.14472,-0.3510294,0.2123516
1.041189,-0.3277399,0.235366
0.9426985,-0.2980321,0.2369534
0.9075637,-0.2260368,0.2029235
0.8780371,-0.1478789,0.1870944
0.8621594,-0.1593538,0.1798712
0.8877651,-0.1730582,0.1784378
0.8551356,-0.1863269,0.1990061
0.8188296,-0.2419858,0.211084
0.799191,-0.2530543,0.2095343
0.7558048,-0.2298217,0.2036029
0.7748777,-0.2224227,0.2072998
0.7987172,-0.1909192,0.213273
0.8069125,-0.1624583,0.2196832
0.8448503,-0.1708929,0.2485685
0.8431565,-0.1652119,0.2686999
0.8382007,-0.1569745,0.2848672
0.8428445,-0.1691121,0.3101793
0.8336395,-0.1824307,0.3239275
0.8446026,-0.2055134,0.3484079
0.8471216,-0.2162661,0.3666284
0.8485618,-0.2069364,0.3675913
0.862055,-0.196016,0.3704474
0.8829368,-0.1704948,0.3631194
0.9095872,-0.1546406,0.3529331
0.90179,-0.171142,0.3419237
0.8797399,-0.1830515,0.344208
0.8555601,-0.1743701,0.3608793
0.8261868,-0.1709192,0.3630523
0.8369157,-0.1656001,0.3738092
0.8574734,-0.1408685,0.3821311
0.8573222,-0.1174227,0.3627209
0.869697,-0.1049903,0.353363
0.8842935,-0.1121864,0.3679053
0.8983751,-0.1373283,0.3966379
0.9200997,-0.150583,0.4185444
0.9251282,-0.15037,0.4158572
0.9349024,-0.1419877,0.4103253
0.9868427,-0.1327389,0.4151779
1.09767,-0.1348585,0.4250231
1.230258,-0.1529518,0.43307
1.255555,-0.1839988,0.4351055
1.186554,-0.2085713,0.4430673
1.171006,-0.2736333,0.4592461
1.18966,-0.3671856,0.4572415
1.176187,-0.364473,0.43192
1.141884,-0.3290366,0.3810182
1.071826,-0.3504473,0.2770637
1.001591,-0.3544964,0.1717021
0.9763827,-0.3589624,0.1218126
0.9587963,-0.3746236,0.1024454
0.9365244,-0.3544416,0.1182155
0.9143567,-0.3392826,0.1589561
0.8915421,-0.3142841,0.1843213
0.893106,-0.2604518,0.1807933
0.9134008,-0.2125894,0.162684
0.9459368,-0.1565528,0.1701765
0.9875325,-0.1186997,0.1754186
0.9923476,-0.1192088,0.1650665
0.9665729,-0.1209778,0.1706883
0.9524564,-0.1193384,0.1622295
0.9373887,-0.119026,0.1543418
0.9161604,-0.1220909,0.1509727
0.8943951,-0.1252653,0.1274186
0.8755851,-0.1293514,0.1177771
0.8722787,-0.1435716,0.1056365
0.8732472,-0.1536817,0.09158991
0.8952638,-0.1454553,0.09801664
0.9404209,-0.1092082,0.09368815
0.967477,-0.05151748,0.08270682
0.983137,-0.01045394,0.06589492
0.9898097,-0.01332181,0.05204163
0.9824865,-0.03737796,0.06712961
0.9721044,-0.05150435,0.08481822
0.9557652,-0.06168132,0.09763987
0.956084,-0.0573064,0.1053734
0.9782541,-0.03123697,0.08976714
0.9948777,-0.009793353,0.07537666
0.9983951,-0.00554281,0.07422651
1.006972,-0.007694873,0.0674507
1.030341,-0.001428327,0.06940773
1.053919,-0.00892599,0.08765512
1.097947,-0.03337855,0.09900375
1.157119,-0.06226879,0.1108736
1.186773,-0.09829297,0.1320101
1.19871,-0.1002124,0.1324649
1.204482,-0.09403196,0.1039201
1.237252,-0.1194671,0.06897748
1.332433,-0.1538084,0.03590885
1.395558,-0.2076825,0.01199251
1.36457,-0.2432581,0.01032389
1.334206,-0.2611126,0.01271255
1.327001,-0.2836996,0.01170351
1.264846,-0.2739565,0.03262131
1.183656,-0.3006248,0.06532098
1.111378,-0.3458822,0.1079383
1.017177,-0.3248219,0.158988
0.9593315,-0.287941,0.1825827
0.9360933,-0.2351978,0.2010212
0.9290199,-0.202657,0.2087812
0.9359208,-0.2361856,0.1895296
0.8913764,-0.2586664,0.2010347
0.8460746,-0.2773633,0.2123361
0.800454,-0.2967983,0.2080238
0.7381449,-0.2827907,0.222912
0.757845,-0.2663881,0.2165205
0.783168,-0.2047321,0.2174904
0.778554,-0.1146157,0.2305796
0.7925722,-0.09847962,0.2203097
0.7826848,-0.09097258,0.2277709
0.7905194,-0.0679112,0.2374272
0.7954025,-0.1065525,0.252645
0.7761219,-0.1450701,0.2813356
0.7836998,-0.1868214,0.2751979
0.7798707,-0.2393245,0.2709828
0.7819186,-0.2076481,0.289406
0.797016,-0.1708654,0.3067748
0.8138441,-0.1499792,0.3412639
0.8664412,-0.1161082,0.3863149
0.9150254,-0.1401368,0.4224446
0.9600377,-0.1379909,0.4414618
1.022714,-0.1373474,0.4218217
1.109245,-0.2366507,0.3715283
1.204614,-0.3221304,0.3431168
1.216219,-0.3315485,0.3642197
1.203237,-0.3307348,0.3923475
1.214148,-0.3906722,0.3779737
1.169242,-0.4158752,0.350083
1.161502,-0.3491521,0.3087763
1.177721,-0.3207947,0.2154391
1.120792,-0.3157388,0.1431324
1.08268,-0.3202968,0.119842
1.030439,-0.3328828,0.1080343
0.9630672,-0.2894088,0.1197776
0.9491169,-0.2514301,0.1204843
0.919704,-0.2243727,0.118586
0.9146648,-0.2013113,0.1433246
0.9151159,-0.1962433,0.1587504
0.8768418,-0.1859557,0.1558815
0.8803225,-0.1864411,0.1339256
0.8835912,-0.1623357,0.1110169
0.8738797,-0.1444784,0.09315488
0.8631425,-0.1467014,0.07777003
0.8371469,-0.1260399,0.08629313
0.8480243,-0.1328892,0.08724437
0.8728364,-0.130367,0.07213422
0.9077559,-0.1164817,0.0568475
0.9558494,-0.1290004,0.0354266
0.9619039,-0.1164604,0.02331684
0.9486759,-0.1070879,0.01483268
0.9520156,-0.08941757,0.008409601
0.9726426,-0.02175576,0.01215497
1.005661,0.05097825,0.01355695
1.037055,0.06817358,0.01260504
1.055557,0.02523199,0.01630833
1.058527,0.01211464,0.02887205
1.060744,0.005765541,0.0409799
1.078082,-0.05268492,0.04982792
1.110969,-0.1029662,0.0686229
1.143358,-0.1223071,0.07863822
1.198209,-0.1029655,0.05776591
1.296838,-0.0902788,0.03553536
1.34319,-0.1044506,0.03921145
1.315435,-0.1203634,0.04869792
1.33025,-0.1928308,0.05195479
1.348107,-0.2532906,0.04274281
1.302449,-0.268262,0.00968399
1.269082,-0.2959235,-0.01300852
1.240308,-0.3040296,0.006721934
1.195529,-0.3510778,0.04164185
1.144778,-0.4218375,0.07291046
1.064531,-0.4287048,0.132027
0.9911925,-0.4120094,0.1994449
0.9218136,-0.3749522,0.2267269
0.8911349,-0.3140731,0.2442533
0.9130514,-0.2452322,0.2485303
0.8698909,-0.1899103,0.2256086
0.8138746,-0.1775216,0.2139436
0.7831118,-0.1819578,0.1969128
0.7405614,-0.1947115,0.1909615
0.7585107,-0.2132591,0.206413
0.7761292,-0.2475557,0.19506
0.769248,-0.290374,0.1910721
0.7808163,-0.2793835,0.1938151
0.7575918,-0.2400884,0.1871249
0.7373912,-0.2111853,0.2167709
0.7279661,-0.1805188,0.2561448
0.7225413,-0.1728726,0.2802203
0.7527957,-0.1727259,0.2905979
0.7764867,-0.1592272,0.3046995
0.8120166,-0.1693025,0.3544846
0.8688227,-0.1780071,0.3964748
0.9185514,-0.1570858,0.4270561
0.9467559,-0.1407729,0.4511855
0.9373917,-0.1250962,0.4360109
0.9614393,-0.1361207,0.4213832
1.035078,-0.2385229,0.4115165
1.117814,-0.3785661,0.4029642
1.195219,-0.4220983,0.4076024
1.209342,-0.3907458,0.3751751
1.156648,-0.4111932,0.3254142
1.08807,-0.4164174,0.3068919
1.070754,-0.3651436,0.2963527
1.094356,-0.3605505,0.2429629
1.077766,-0.3741989,0.1513121
1.059848,-0.3873135,0.1156075
1.032618,-0.3912078,0.1229136
0.9691166,-0.339816,0.1004905
0.9376005,-0.2752209,0.09255519
0.9225259,-0.2081117,0.1021363
0.9212669,-0.1794911,0.1035614
0.9281736,-0.2024647,0.1270303
0.9093933,-0.2065009,0.1541937
0.9117866,-0.2098314,0.1498623
0.9282249,-0.2122523,0.141237
0.9320934,-0.2004891,0.1508748
0.9211801,-0.1766061,0.1450381
0.8963113,-0.1301462,0.1285464
0.8944035,-0.1045973,0.1173714
0.8935862,-0.0935948,0.09018396
0.8935526,-0.08388216,0.07533541
0.9201789,-0.09363861,0.06459661
0.9288369,-0.0953343,0.03617591
0.9248466,-0.09200256,0.0284664
0.9270207,-0.08896001,0.02872772
0.9266335,-0.07059896,0.03288556
0.9470943,-0.05030088,0.04273491
0.981561,-0.02265252,0.04242233
1.005117,-0.001565769,0.06021379
1.009748,-0.01507729,0.07907151
1.006849,-0.02264582,0.08999674
1.014821,-0.01898533,0.1027127
1.034768,-0.03344898,0.08796569
1.086172,-0.05904485,0.08061867
1.160379,-0.1227127,0.108517
1.221265,-0.1741037,0.1273003
1.286666,-0.1300975,0.1054486
1.373784,-0.08872258,0.06589306
1.434817,-0.124949,0.05321728
1.425394,-0.1867103,0.05616909
1.404122,-0.2535681,0.04526363
1.393109,-0.2724695,0.02299916
1.312515,-0.2435174,0.01795577
1.203274,-0.2762427,0.04893989
1.136495,-0.3250183,0.09329117
1.088177,-0.3249981,0.1369699
1.204356,-0.1942314,0.4203456
1.337836,-0.3119457,0.4304552
1.304867,-0.3317287,0.4024203
1.158263,-0.3278122,0.3448164
1.052951,-0.3711422,0.3001729
0.970045,-0.3945927,0.2647482
0.9634115,-0.3877142,0.2286598
1.009163,-0.4018466,0.1909547
0.9865815,-0.4044982,0.1656078
0.9906046,-0.3662969,0.1616089
0.9803366,-0.2859534,0.1537906
0.9346861,-0.1961594,0.149949
0.9591675,-0.1507857,0.1691914
0.9589138,-0.1023549,0.181933
0.9527422,-0.05935895,0.1706149
0.9619411,-0.06267142,0.1584846
0.9328489,-0.05409376,0.1545753
0.922471,-0.06470717,0.1498536
0.9016352,-0.1159795,0.1451631
0.8617676,-0.1424594,0.1369815
0.8203974,-0.1462625,0.118297
0.8026992,-0.1269481,0.0945146
0.8396508,-0.08440611,0.08344621
0.858856,-0.04667101,0.07992565
0.868626,-0.01957474,0.06265997
0.8896341,-0.01200224,0.05405711
0.9188531,0.007091017,0.05936837
0.977607,0.0470717,0.05515673
1.014261,0.05783997,0.05873661
1.024668,0.05132536,0.07982431
1.017126,0.04653922,0.1301772
1.004775,0.0389275,0.1921063
1.023392,0.04271115,0.1921522
1.049978,0.04750643,0.1820076
1.105764,0.04230836,0.2106565
1.179301,0.01308238,0.1882248
1.242371,-0.05743131,0.1446526
1.349007,-0.1279808,0.1213588
1.489293,-0.150197,0.08054865
1.570598,-0.1691947,0.0720041
1.521488,-0.2459431,0.05355871
1.428656,-0.3257294,-0.01618354
1.341174,-0.3567731,-0.0353875
1.184636,-0.3713122,0.01782139
1.088033,-0.373517,0.08970906
1.071101,-0.3608104,0.1188169
0.9972251,-0.3360083,0.129306
0.9434537,-0.2896491,0.1794119
0.904698,-0.2634967,0.2090075
0.8278229,-0.2667021,0.2148719
0.7698035,-0.2593925,0.2269582
0.7403435,-0.2549537,0.2203552
0.7260743,-0.2508441,0.2127496
0.7115902,-0.2247637,0.2155273
0.740752,-0.1945285,0.2178591
0.7803256,-0.1564626,0.2173746
0.7587826,-0.1089251,0.2204397
0.7452275,-0.09396976,0.2302694
0.7206186,-0.1207957,0.2563068
0.6738956,-0.1514223,0.2951847
0.672825,-0.1769359,0.3013101
0.6909326,-0.2046846,0.2978813
0.742947,-0.2306501,0.3405091
0.8504385,-0.2619464,0.3979942
0.9230638,-0.2575929,0.4169858
0.9346731,-0.1971941,0.4138635
0.9862925,-0.1431347,0.4407658
1.03641,-0.110191,0.4633694
1.007549,-0.1124604,0.4518314
1.0248,-0.1672974,0.4415324
1.081268,-0.2624729,0.4264666
1.108403,-0.3821104,0.425466
1.161885,-0.4128094,0.4279764
1.1817,-0.3777089,0.3718234
1.128652,-0.4054594,0.3010666
1.072553,-0.4037298,0.2631002
1.078945,-0.3449685,0.2260516
1.098829,-0.3137591,0.1613099
1.051058,-0.3055711,0.09649402
1.021979,-0.3047384,0.08167973
0.9871199,-0.2732694,0.09720112
0.9298907,-0.2277136,0.1210971
0.9464748,-0.1955314,0.1488624
0.9510366,-0.1726206,0.1619009
0.944676,-0.1851303,0.1646495
0.9435448,-0.1761243,0.1427863
0.9041447,-0.1371863,0.1200466
0.9002665,-0.1181902,0.1392719
0.8966798,-0.09336573,0.1520412
0.8776329,-0.07416906,0.1219621
0.8738072,-0.07044312,0.09023902
0.8698835,-0.07881538,0.08615871
0.8915454,-0.09195394,0.08660701
0.9064818,-0.08322071,0.07753677
0.9100626,-0.07235153,0.06877494
0.9112346,-0.05749978,0.06411864
0.9107611,-0.0422903,0.06139731
0.9429999,-0.02571372,0.04996369
0.9668802,0.01751154,0.04269552
0.9743982,0.04270061,0.05656143
0.9904403,0.0509402,0.09120749
1.001871,0.06848951,0.1315824
1.00421,0.07700211,0.1387108
1.015885,0.09292293,0.1344843
1.074008,0.09636823,0.1576023
1.144549,0.07345506,0.1747138
1.201258,0.038491,0.1711345
1.270942,-0.04297928,0.1537012
1.351165,-0.1367412,0.1276216
1.399635,-0.1653248,0.1228282
1.348791,-0.1478132,0.1270814
1.273768,-0.1537089,0.09935979
1.262648,-0.1937919,0.04538233
1.250064,-0.2372269,0.01117161
1.217946,-0.2879898,0.0291163
1.166891,-0.3102707,0.06128384
1.121428,-0.289439,0.07791005
1.112665,-0.2895285,0.09486336
1.052082,-0.2779695,0.1037625
0.9546897,-0.2504947,0.1295501
0.9272835,-0.2788425,0.1786326
0.9359827,-0.3180321,0.2159749
0.9020326,-0.3260043,0.2600932
0.8434175,-0.3167109,0.2777016
0.802168,-0.2912164,0.2557633
0.7740241,-0.2556529,0.2499361
0.7763937,-0.2064592,0.238347
0.8125653,-0.1509414,0.2344494
0.8555423,-0.08229677,0.2529132
0.8707077,-0.02957304,0.2514472
0.8275627,-0.04819467,0.2544464
0.7877406,-0.07279368,0.2723839
0.7740547,-0.09643943,0.2954162
0.7506706,-0.1782009,0.3137739
0.7347674,-0.2238255,0.309734
0.7285162,-0.2145086,0.3088268
0.7381921,-0.2271352,0.3010152
0.7567069,-0.2308091,0.290188
0.7921065,-0.2185101,0.3110252
0.8571682,-0.1995996,0.3348727
0.8955061,-0.1614859,0.3502223
0.9088057,-0.142913,0.3572916
0.9109594,-0.1503034,0.3532244
0.9199285,-0.1492164,0.3652566
0.982704,-0.1346012,0.3818956
1.052593,-0.1261409,0.3826953
1.127918,-0.1316769,0.3792641
1.240504,-0.1572015,0.3827527
1.302198,-0.2337137,0.3973779
1.248937,-0.348244,0.4184431
1.12802,-0.4395008,0.4289142
1.026266,-0.4915334,0.4156429
1.030719,-0.5140596,0.3824928
1.105958,-0.5071145,0.3078793
1.112333,-0.4938097,0.2182097
1.086219,-0.4714625,0.1943086
1.064372,-0.4327911,0.1775541
0.9787201,-0.3976119,0.1346316
0.9261846,-0.3176881,0.1409959
0.9257321,-0.1976706,0.1374157
0.9308148,-0.1297018,0.1182548
0.9725952,-0.1204831,0.1481161
0.9829337,-0.1456225,0.1565457
0.9502457,-0.1820789,0.1495316
0.9048829,-0.1916853,0.1605246
0.873447,-0.149041,0.1521848
0.8645515,-0.07176947,0.139809
0.8382517,-0.03803972,0.1225796
0.8525462,-0.04624191,0.1069853
0.8730041,-0.06828905,0.09238315
0.869534,-0.1239596,0.06857845
0.9076254,-0.1631013,0.07199651
0.9198607,-0.172078,0.07303047
0.9016545,-0.169019,0.06304431
0.9014494,-0.1110737,0.06503095
0.9228199,-0.0247809,0.05125696
0.9596755,0.01367364,0.04491214
0.9772523,0.01513709,0.05137128
1.012809,0.03735286,0.05304366
1.035273,0.04373274,0.06208073
1.009357,0.01052435,0.06291153
1.010547,-0.002954715,0.05646745
1.011108,-0.02483086,0.05496702
1.006064,-0.03466487,0.06591187
1.034114,-0.005472881,0.08677197
1.056253,-0.01934727,0.09084655
1.09196,-0.0273376,0.08975438
1.149455,-0.04228096,0.109305
1.205623,-0.1308513,0.1416114
1.282576,-0.1807287,0.1568241
1.350525,-0.1680335,0.1493476
1.377277,-0.143164,0.1452097
1.390593,-0.1374763,0.1213525
1.394713,-0.1822168,0.07062241
1.349408,-0.2444682,0.0575759
1.257125,-0.2927322,0.09877241
1.17224,-0.2964419,0.1510571
1.067317,-0.2883613,0.1843056
0.9307106,-0.2841673,0.1961378
0.8617833,-0.2500867,0.1897845
0.8636154,-0.241642,0.1780458
0.8913173,-0.2422886,0.1847295
0.9373603,-0.2289089,0.1931621
0.9345357,-0.2375444,0.1913839
0.8936338,-0.2451004,0.1946141
0.8331741,-0.2747453,0.1936382
0.7395728,-0.3124061,0.196454
0.7532597,-0.2992695,0.2033192
0.8252587,-0.2737751,0.1998714
0.8193565,-0.2627597,0.2012755
0.8488843,-0.2407805,0.2043866
0.8570949,-0.2172357,0.2107627
0.8195973,-0.1989458,0.2242697
0.8487295,-0.1670389,0.2269599
0.8419855,-0.1531663,0.2366081
0.8358836,-0.1655926,0.2682214
0.8624231,-0.1653737,0.295223
0.8516429,-0.1634618,0.3076547
0.8796913,-0.16538,0.3258548
0.8934295,-0.1675235,0.3380036
0.887797,-0.1789304,0.3232247
0.9029951,-0.1908284,0.3185891
0.8743046,-0.1900082,0.3385281
0.8617259,-0.1680067,0.3534759
0.8649469,-0.1409195,0.3553016
0.8654279,-0.1295013,0.3434126
0.8855065,-0.1435942,0.3362548
0.8882448,-0.1668097,0.3498016
0.9075737,-0.172604,0.3711251
0.9271265,-0.1721161,0.3989429
0.9355757,-0.1718214,0.4145704
0.9939156,-0.1870452,0.3888037
1.085726,-0.2308003,0.3640645
1.15186,-0.2752229,0.3912698
1.151953,-0.3184403,0.4267263
1.137245,-0.3801324,0.4369714
1.121739,-0.4421933,0.4490795
1.078267,-0.4453331,0.4400003
1.084914,-0.3819771,0.3756052
1.11911,-0.3169183,0.2798418
1.115833,-0.3033331,0.2196408
1.090005,-0.3457665,0.1940419
1.037227,-0.3699352,0.1253836
1.016413,-0.3518491,0.09161021
1.037726,-0.3382788,0.1062061
1.037368,-0.308211,0.03664685
1.047141,-0.2705652,0.003997381
1.061123,-0.2605422,0.04230026
1.037285,-0.2688803,0.0225087
1.011124,-0.2791363,0.04698336
0.9855206,-0.266127,0.1150571
0.9328608,-0.2310497,0.1360706
0.8969047,-0.1869262,0.1368154
0.9062322,-0.1631136,0.1135705
0.8929965,-0.1556466,0.1101827
0.8609869,-0.1150673,0.1322468
0.8716014,-0.08376233,0.1388441
0.8709801,-0.07461516,0.1272413
0.8525019,-0.0486998,0.09056292
0.866861,-0.04178246,0.08399511
0.884619,-0.05847918,0.107418
0.9128509,-0.08468006,0.1363361
0.9470097,-0.09792581,0.1687166
0.9531789,-0.06219886,0.1469913
0.9625925,-0.01579663,0.1194981
0.9683519,0.01721141,0.1284095
0.962174,0.0401052,0.1332357
0.9730621,0.03353551,0.1515559
0.9804876,0.01627851,0.1695323
0.9764028,0.01807465,0.1691235
0.975322,0.03550904,0.1709441
0.9735771,0.069027,0.1706226
0.9737674,0.110163,0.1694587
0.982362,0.1179283,0.1755143
0.9992198,0.09845436,0.1873117
1.004443,0.08418124,0.1968984
0.9933999,0.06338225,0.1982024
0.9963153,0.0188074,0.1915228
1.030989,-0.03744989,0.1773539
1.083448,-0.05464028,0.1640697
1.13219,-0.05371563,0.1626097
1.214567,-0.07958111,0.1622052
1.349522,-0.08221157,0.1390527
1.45187,-0.09328304,0.1149277
1.484127,-0.1624086,0.12708
1.458141,-0.2439471,0.1562572
1.366831,-0.3083509,0.1740873
1.244554,-0.3276626,0.1727562
1.134297,-0.3308864,0.1553294
1.085348,-0.3412476,0.1419519
1.091883,-0.331791,0.1345298
1.092615,-0.3397991,0.1236837
1.083459,-0.3466822,0.109989
1.024154,-0.3269596,0.1067595
0.9263147,-0.3034153,0.1435958
0.9005293,-0.259837,0.1937993
0.9210589,-0.2389447,0.2088567
0.9117867,-0.2543017,0.2149502
0.890914,-0.2579039,0.2262132
0.8626844,-0.2627238,0.2174605
0.8005449,-0.281401,0.206977
0.7601486,-0.2935536,0.2208222
0.7765511,-0.2834599,0.2364047
0.7832482,-0.2685175,0.2395241
0.7828154,-0.2429225,0.2449844
0.7790874,-0.1880636,0.2451983
0.7594058,-0.1484985,0.247513
0.7647799,-0.143206,0.266103
0.7654057,-0.158384,0.2876722
0.7585994,-0.1839151,0.3116007
0.7719654,-0.2001619,0.3207225
0.7805614,-0.2177699,0.3172615
0.7982765,-0.253302,0.3380277
0.8229851,-0.2833266,0.3618936
0.8483994,-0.2698843,0.3703776
0.8842591,-0.2327733,0.3822162
0.8963531,-0.1883574,0.3842404
0.8887303,-0.1304357,0.3742602
0.8932351,-0.1172965,0.3758133
0.9041314,-0.1293961,0.381028
0.9276074,-0.1247435,0.3878116
0.972155,-0.1555771,0.4022271
1.028887,-0.2029844,0.4053555
1.139508,-0.2627873,0.4230803
1.278456,-0.3471435,0.4562181
1.278627,-0.3733638,0.43998
1.163401,-0.3366385,0.4041076
1.117023,-0.3196863,0.3926778
1.134154,-0.354272,0.3741807
1.143824,-0.3918657,0.3334428
1.128874,-0.3990625,0.2564831
1.08267,-0.3970443,0.1763621
1.015965,-0.38243,0.1479873
0.9530379,-0.3608759,0.1431527
0.9425157,-0.3290232,0.1341268
0.9427421,-0.2795455,0.1178303
0.9409412,-0.2453853,0.1042118
0.9857627,-0.2201831,0.1059777
0.9947427,-0.195794,0.1042099
0.9624841,-0.1828336,0.1131586
0.934631,-0.1682802,0.1297672
0.903664,-0.1481016,0.1246528
0.9010751,-0.1312106,0.1204898
0.8974186,-0.1254881,0.123326
0.8967713,-0.1210315,0.1287353
0.9070857,-0.1067763,0.1351735
0.9007151,-0.08490446,0.1203703
0.9079153,-0.07149097,0.1004559
0.9106035,-0.08036124,0.09141132
0.9129386,-0.09307408,0.07656799
0.9202923,-0.1035961,0.06921779
0.9180194,-0.1064503,0.07400881
0.9396298,-0.08450681,0.05975529
0.9613917,-0.05138457,0.04318606
0.9861894,-0.02130971,0.04516372
1.015112,-0.004162661,0.04395768
1.016922,-0.002419286,0.0453144
1.024655,-0.002718484,0.05120457
1.023449,-0.003028243,0.0543546
1.011371,-0.006427129,0.05585863
1.015843,-0.01905301,0.04857203
1.019898,-0.03658673,0.04720618
1.035164,-0.03898914,0.05414206
1.045994,-0.0313019,0.07574006
1.048057,-0.03451098,0.113546
1.072491,-0.05869696,0.132005
1.109802,-0.1076384,0.1569948
1.173847,-0.141647,0.1898301
1.25487,-0.1159539,0.1727703
1.303103,-0.08278187,0.1379229
1.33682,-0.0912,0.0897333
1.379442,-0.1298168,0.005681856
1.376497,-0.209948,-0.02047367
1.313613,-0.2807661,0.02067974
1.243064,-0.2901657,0.04897573
1.154391,-0.3038879,0.08279311
1.080331,-0.330586,0.1132997
1.068689,-0.327067,0.1177133
1.037205,-0.3093858,0.1458165
0.9703592,-0.2840139,0.189203
0.9302412,-0.2529125,0.2041739
0.924324,-0.2271139,0.1992574
0.9133463,-0.2187108,0.2005456
0.8676732,-0.229376,0.1987194
0.8259284,-0.2344163,0.1810384
0.7998839,-0.2436451,0.1745805
0.7976541,-0.2629479,0.175234
0.8174726,-0.2640672,0.1788572
0.8260672,-0.2526168,0.2033295
0.8413064,-0.2321892,0.2228431
0.832739,-0.1974479,0.2266278
0.8084446,-0.1610537,0.2260568
0.8082563,-0.1285117,0.2376848
0.7984513,-0.1255618,0.270905
0.795493,-0.1648995,0.293815
0.7903752,-0.2053043,0.2955802
0.7859193,-0.2229939,0.2795302
0.8099884,-0.2194713,0.2649222
0.8263879,-0.1930894,0.2859422
0.8469628,-0.1599111,0.3092062
0.8661697,-0.1501676,0.3186659
0.8704454,-0.1659898,0.3456069
0.8753568,-0.1682005,0.362376
0.8759909,-0.1503534,0.3524151
0.9004829,-0.1395557,0.3595954
0.9340231,-0.1347446,0.3745178
0.959924,-0.1292696,0.364091
0.9861577,-0.1169257,0.3569618
1.0092,-0.1109582,0.3535813
1.084529,-0.1313794,0.3358822
1.180628,-0.1753898,0.3323835
1.217025,-0.2559531,0.3426256
1.206777,-0.3203657,0.3463096
1.146798,-0.3269168,0.3456781
1.066399,-0.4075221,0.3476462
1.043957,-0.5533952,0.3466107
1.065888,-0.56468,0.3134568
1.063675,-0.513222,0.2570817
1.048347,-0.524375,0.2104202
1.035995,-0.5000654,0.1682123
0.9721483,-0.491813,0.1530836
0.8970726,-0.5267252,0.1768708
0.886852,-0.4895956,0.1775322
0.9243041,-0.4314814,0.148415
0.9882521,-0.3400805,0.1274077
1.044989,-0.232447,0.1065977
1.063379,-0.2134236,0.08932266
1.046818,-0.1958681,0.08296115
1.016249,-0.1886377,0.08876863
0.9781544,-0.2059012,0.1000626
0.9129332,-0.1726111,0.1016096
0.8685423,-0.1646419,0.1174522
0.8625038,-0.1729501,0.1332122
0.8471613,-0.1658469,0.1196873
0.84017,-0.1724036,0.1098343
0.8495429,-0.1564794,0.1099112
0.8683776,-0.125886,0.0997417
0.8993883,-0.08756058,0.08711508
0.9177627,-0.06538077,0.09299438
0.927578,-0.05048314,0.1041564
0.954733,0.008107303,0.102626
0.9857387,0.04189729,0.1021523
0.9943551,0.0420911,0.09755892
1.00693,0.04678699,0.1029474
1.022339,0.03654663,0.1276714
1.007652,0.03568055,0.1416715
0.9938001,0.04226381,0.1404693
0.9837944,0.05703937,0.1351763
0.9725603,0.08338619,0.1440445
0.9892456,0.08743422,0.1515777
1.009798,0.07662294,0.1426031
1.020774,0.0561989,0.1450955
1.041466,0.02721125,0.1545067
1.071833,-0.01020409,0.1884929
1.110771,-0.07476218,0.2522013
1.163898,-0.1554822,0.2842047
1.253319,-0.194406,0.2705011
1.363677,-0.1439522,0.2261538
1.404376,-0.09907601,0.1671781
1.373623,-0.1417686,0.1276124
1.366185,-0.1930369,0.1088069
1.33653,-0.2415047,0.1010352
1.234983,-0.2940521,0.1259949
1.157597,-0.2917558,0.164508
1.08178,-0.270454,0.1599279
0.9633457,-0.2427766,0.117795
0.9296483,-0.1937145,0.07638551
0.9944271,-0.1886893,0.07365315
1.017504,-0.224443,0.09046782
0.9746839,-0.2735669,0.07981609
0.9359027,-0.3269112,0.0909194
0.8917653,-0.3292266,0.1216457
0.8206653,-0.3093779,0.1411541
0.7871655,-0.2981945,0.1783574
0.7886511,-0.2434057,0.1880739
0.7607201,-0.1814218,0.1810397
0.7451962,-0.1633416,0.1995789
0.7635562,-0.1497319,0.2023833
0.7692103,-0.1172004,0.2094319
0.7802675,-0.09466376,0.2251457
0.7983087,-0.1182845,0.2186083
0.8149318,-0.1613371,0.2273582
0.8560582,-0.1981713,0.2630965
0.8815638,-0.2454773,0.2978035
0.8737695,-0.2505162,0.3122936
0.8778759,-0.2126969,0.3036904
0.8940075,-0.1939414,0.3014407
0.8900495,-0.1759152,0.3109493
0.8663019,-0.1516614,0.3144643
0.8556461,-0.1255605,0.324106
0.8615682,-0.1257723,0.3307862
0.8846378,-0.1592141,0.3288469
0.9235564,-0.1599281,0.3435014
0.9547261,-0.1595879,0.3554021
0.9913972,-0.1719099,0.3572278
1.039993,-0.1724915,0.3632132
1.112784,-0.2011173,0.3616093
1.203786,-0.2409301,0.3594649
1.233017,-0.2906327,0.3469059
1.207258,-0.3260012,0.3270324
1.187068,-0.3328961,0.3319934
1.14398,-0.3895241,0.3419369
1.081134,-0.4464618,0.3363
1.064254,-0.4490288,0.298027
1.070161,-0.425479,0.2160512
1.045946,-0.3854129,0.1493768
1.015974,-0.3633274,0.1315199
0.9817252,-0.3254933,0.1309837
0.9337721,-0.2577057,0.1391062
0.8996901,-0.2033347,0.1517547
0.8906886,-0.1440878,0.1461007
0.8985574,-0.1018569,0.1321495
0.9046188,-0.1137958,0.1311885
0.9153186,-0.1610178,0.1416886
0.9222704,-0.2107243,0.1526127
0.9035835,-0.2352427,0.1471551
0.8835572,-0.2128021,0.1401317
0.8675256,-0.1659413,0.1430051
0.8663597,-0.1422322,0.1269996
0.8832915,-0.1164193,0.1095827
0.9021502,-0.1067542,0.117245
0.9374721,-0.1227183,0.1215253
0.9556768,-0.1051691,0.1151276
0.9626616,-0.1041577,0.1128538
0.9785351,-0.1067491,0.1059608
0.9520535,-0.07518587,0.09113096
0.9339864,-0.04581085,0.07902392
0.9475521,0.01691237,0.0685926
0.944451,0.06908262,0.05944787
0.9580957,0.07024825,0.05833072
0.9816845,0.03773565,0.06220298
1.008451,-0.03663538,0.06309476
1.038542,-0.07660984,0.05912747
1.036922,-0.08346751,0.0576495
1.040547,-0.1069311,0.05985935
1.061923,-0.1345632,0.06397383
1.105885,-0.1789477,0.07622451
1.196443,-0.1882533,0.09016851
1.278187,-0.1426149,0.09324862
1.336987,-0.1181308,0.08100889
1.414288,-0.1523138,0.04874285
1.471702,-0.2286533,0.01068423
1.438309,-0.2968402,0.01162026
1.343621,-0.336678,0.04663922
1.216716,-0.3514126,0.07189579
1.06508,-0.3582928,0.1008937
1.013286,-0.3752314,0.1191225
1.033429,-0.3741166,0.1090008
0.9937897,-0.3670268,0.1162033
0.9570928,-0.3532092,0.1306118
0.9466301,-0.3185421,0.1421619
0.950374,-0.3004567,0.1636309
0.9645448,-0.2713454,0.1923573
0.9300841,-0.2431018,0.2279875
0.8754029,-0.2554084,0.2223544
0.808512,-0.2433409,0.2005423
0.7517576,-0.2199512,0.2050325
0.7553443,-0.2245181,0.1931094
0.7667169,-0.2209785,0.1900293
0.7819535,-0.2243922,0.201704
0.8052799,-0.2318163,0.2022612
0.8167779,-0.2167232,0.2061274
0.8285224,-0.2010047,0.205079
0.8175965,-0.1908918,0.2206386
0.8039348,-0.1881229,0.2541586
0.8102473,-0.1931535,0.2894966
0.8122273,-0.201138,0.3177412
0.8177636,-0.2212364,0.309886
0.8309265,-0.2328705,0.3133299
0.8453122,-0.2192122,0.3342552
0.8655962,-0.1977419,0.3288969
0.8843516,-0.1745858,0.3365882
0.8881432,-0.1525832,0.3514848
0.8902162,-0.1487142,0.3493583
0.9030056,-0.1620005,0.3571044
0.9083566,-0.1703256,0.3726368
0.9156927,-0.1702068,0.3881529
0.9434339,-0.1691179,0.3990176
0.9847766,-0.1772282,0.3873015
1.036128,-0.2112487,0.3434107
1.080291,-0.2464833,0.3026537
1.118836,-0.253924,0.3221589
1.174217,-0.2881527,0.3491638
1.197706,-0.3534847,0.3169818
1.156568,-0.3659261,0.2945756
1.101984,-0.4159093,0.2758094
1.045097,-0.5526683,0.2087328
1.030103,-0.5690248,0.1842361
1.066259,-0.4900511,0.1970531
1.046163,-0.4766991,0.1630365
1.028736,-0.4630884,0.1300213
1.031516,-0.4317474,0.1235058
0.9695222,-0.4019972,0.1223331
0.9384256,-0.3533016,0.1393507
0.9229074,-0.3077038,0.156196
0.8907663,-0.2580573,0.1457391
0.903473,-0.2236349,0.1303673
0.9029458,-0.2070587,0.1273303
0.9033913,-0.2000083,0.1233359
0.9134651,-0.2131101,0.1377246
0.9106088,-0.209795,0.167318
0.922251,-0.2140196,0.1697542
0.9187621,-0.224863,0.1592371
0.9178713,-0.2030866,0.1534468
0.9145504,-0.1767205,0.143246
0.9000781,-0.144454,0.1354099
0.9205565,-0.1346123,0.1344334
0.9490091,-0.1528792,0.1359073
0.9634404,-0.1430166,0.1218013
0.9488885,-0.1121854,0.08488876
0.9286678,-0.05370608,0.05653754
0.9511729,0.008874507,0.06443401
0.9648269,0.01748212,0.07939101
0.9598339,0.0004603075,0.07773355
0.9707816,-0.007376386,0.09767252
0.982133,-0.004084116,0.1164766
0.9949206,-0.008135788,0.09519046
1.017214,-0.04055561,0.08801259
1.061324,-0.1185157,0.1054105
1.121282,-0.2156792,0.1151976
1.155942,-0.2172802,0.113187
1.227367,-0.1793051,0.09747249
1.388555,-0.2298621,0.08523169
1.458502,-0.2614398,0.07929484
1.395831,-0.2765158,0.06384668
1.403544,-0.3352048,0.04397715
1.394982,-0.3212518,0.05397159
1.219014,-0.2959961,0.1028038
1.051972,-0.3222236,0.1396589
1.037451,-0.3207653,0.1432499
1.058208,-0.3305323,0.1360834
0.9896484,-0.3342955,0.1441947
0.945479,-0.3039082,0.1651172
0.9617086,-0.2877765,0.1893163
0.9393908,-0.2690929,0.2261298
0.9236927,-0.2718364,0.2285593
0.8592508,-0.2853267,0.2015568
0.7702486,-0.265314,0.199854
0.7723519,-0.2620885,0.1994893
0.7660132,-0.2675639,0.201793
0.765892,-0.2661898,0.204407
0.7844251,-0.2800023,0.202968
0.7741886,-0.2772443,0.2199514
0.7835587,-0.2555017,0.2278981
0.7812803,-0.2206669,0.2335794
0.7883014,-0.188474,0.2460276
0.8055509,-0.1901817,0.2558424
0.7984862,-0.1937747,0.2695643
0.8038461,-0.2013095,0.2698225
0.8011914,-0.2491322,0.2872678
0.8081601,-0.2966979,0.3184524
0.8372372,-0.2868361,0.3125496
0.8668099,-0.2621934,0.3111623
0.893224,-0.267691,0.3319736
0.89921,-0.235854,0.3388012
0.9166305,-0.1786375,0.3440498
0.9276336,-0.1522867,0.3504144
0.9190064,-0.1248074,0.3500892
0.9359938,-0.1155401,0.3603832
0.9551912,-0.1233545,0.3645065
0.9906936,-0.1516095,0.3513631
1.095704,-0.2562938,0.3463806
1.243616,-0.3650103,0.3442469
1.294055,-0.3938238,0.3270224
1.16229,-0.3744028,0.2979327
1.032274,-0.3844411,0.2853593
1.032175,-0.4320632,0.2828189
1.057022,-0.4554497,0.2459561
1.066513,-0.470579,0.2065754
1.073908,-0.4818774,0.1812822
1.051234,-0.4725754,0.1442343
1.009534,-0.4543846,0.1325634
0.9872196,-0.4013388,0.1368208
0.9718785,-0.3487427,0.1252669
0.9334597,-0.3188274,0.1333484
0.9050169,-0.2824737,0.1515578
0.9021585,-0.2531245,0.1493935
0.9069186,-0.2170109,0.1416563
0.9143389,-0.190836,0.1309187
0.9072538,-0.2048234,0.1246173
0.8931456,-0.2150378,0.1338838
0.8780849,-0.2058867,0.138714
0.8706532,-0.2064449,0.1390166
0.8828894,-0.2110966,0.1476992
0.8889269,-0.200968,0.1528955
0.9081333,-0.1874832,0.1390065
0.9441875,-0.1701105,0.1138812
0.9555272,-0.1583379,0.1096577
0.9545043,-0.1620285,0.1245796
0.9512094,-0.144134,0.1291502
0.9490382,-0.1173733,0.1197722
0.9571564,-0.09848639,0.1096285
0.9720275,-0.06460096,0.1126295
0.9962669,-0.04013233,0.1164314
1.006523,-0.0443809,0.1114335
0.9931318,-0.06403762,0.1106788
0.9808408,-0.07901845,0.1079612
0.9773275,-0.08122762,0.1026431
0.9801585,-0.08117636,0.08961135
0.9867129,-0.08150058,0.07013461
0.9960202,-0.08253905,0.07863659
1.002115,-0.0701409,0.0931756
0.999736,-0.04154628,0.08523783
1.001939,-0.0164433,0.08559116
1.018351,-0.01029488,0.08941887
1.04761,-0.04221271,0.09088056
1.081542,-0.09867731,0.1083309
1.100068,-0.1314022,0.1227852
1.105501,-0.1144513,0.1240381
1.138723,-0.0953115,0.1129392
1.216519,-0.1105503,0.09916244
1.291277,-0.1113771,0.10981
1.311183,-0.1105216,0.1195621
1.325533,-0.1389594,0.1123961
1.378973,-0.1630652,0.1178017
1.364757,-0.1877289,0.1239447
1.27487,-0.2256135,0.1169985
1.213494,-0.2803447,0.1061524
1.163061,-0.3085675,0.09742584
1.104471,-0.2951007,0.1179192
1.021372,-0.3239836,0.1699367
0.97198,-0.3393128,0.2014536
0.9908493,-0.3045706,0.1925822
0.9217171,-0.2903675,0.1944002
0.8777724,-0.2384854,0.2267788
0.932881,-0.1728719,0.2478763
0.9048471,-0.1542609,0.251655
0.8931357,-0.1473642,0.2376355
0.8957677,-0.1638458,0.2027312
0.8505176,-0.1916482,0.1962802
0.8637055,-0.2431907,0.2154536
0.8613675,-0.2934696,0.2299014
0.8477716,-0.2840376,0.2476538
0.853104,-0.2708759,0.2485596
0.8429915,-0.2278002,0.241833
0.8612845,-0.155062,0.249712
0.8642873,-0.1371913,0.2626738
0.8599575,-0.1396931,0.2770859
0.8566646,-0.1495444,0.2668508
0.8237217,-0.1672276,0.2513947
0.8104323,-0.1673605,0.2699649
0.8092663,-0.1802217,0.2909558
0.8213338,-0.2159704,0.3110951
0.8359609,-0.2369648,0.341342
0.8318892,-0.2077792,0.3571545
0.847774,-0.1604499,0.3611296
0.8630063,-0.1164754,0.3629329
0.8662851,-0.06916714,0.3658774
0.8792519,-0.07383212,0.3693666
0.9083249,-0.1121379,0.3590802
0.9360972,-0.128602,0.3445449
0.9164991,-0.1542239,0.3395361
0.8703944,-0.1879545,0.343497
0.8437412,-0.2070205,0.3571048
0.856543,-0.2130072,0.3704101
0.8914538,-0.2101659,0.3768463
0.9375437,-0.2108603,0.3741902
1.053244,-0.1962739,0.3723388
1.132419,-0.1710864,0.3818462
1.051131,-0.1511444,0.3849905
0.9928298,-0.1337502,0.3828152
1.033419,-0.1892949,0.3836933
1.053204,-0.2950397,0.3853555
1.103688,-0.3294555,0.3973973
1.20151,-0.3239438,0.3968163
1.252073,-0.3173205,0.3406533
1.244228,-0.2960867,0.2542137
1.180225,-0.3134113,0.2261814
1.08128,0.0926801,-0.1550211
1.083022,0.05226224,-0.1305361
1.096344,-0.01255782,-0.1129818
1.144174,-0.07199582,-0.1111981
1.193916,-0.1453775,-0.1237024
1.247476,-0.1980503,-0.1521693
1.326953,-0.2044665,-0.1928431
1.390577,-0.2130994,-0.2244944
1.393555,-0.2593488,-0.2065934
1.312361,-0.3217827,-0.1507907
1.193112,-0.3532277,-0.114839
1.141784,-0.327065,-0.1358407
1.152322,-0.2899592,-0.1667827
1.145214,-0.2943565,-0.1386158
1.118803,-0.2969623,-0.1142024
1.076685,-0.2765202,-0.1048437
1.004881,-0.2635703,-0.05350474
0.9802862,-0.2558105,-0.03807117
1.003815,-0.2682278,-0.03917313
0.9730139,-0.2926215,0.008861332
0.9311267,-0.3093001,0.02951118
0.8980835,-0.3266315,0.02732444
0.8226525,-0.3237035,0.03929451
0.7672679,-0.2974162,0.05625893
0.7512304,-0.2464841,0.08479615
0.7585733,-0.1798273,0.09841814
0.7793443,-0.1244439,0.09463798
0.7744675,-0.08712617,0.09198014
0.7746907,-0.1014209,0.09782285
0.7754086,-0.1480356,0.1152629
0.764737,-0.2067778,0.1480763
0.7793886,-0.2753771,0.1995053
0.7967803,-0.283158,0.2182659
0.8149835,-0.2685028,0.2087935
0.8356184,-0.2647295,0.2158954
0.8685421,-0.2003351,0.2125342
0.9252256,-0.1272517,0.2084979
0.9323648,-0.1269758,0.2145438
0.9430373,-0.153657,0.2160168
1.020158,-0.1458314,0.2232118
1.053745,-0.1693308,0.2170733
1.123834,-0.2921353,0.1943988
1.343657,-0.4327694,0.1777593
1.452581,-0.4693672,0.1742791
1.280795,-0.4054609,0.1568442
1.111509,-0.3775515,0.1092527
1.121924,-0.3681061,0.09690883
1.130961,-0.3369586,0.09487565
1.11012,-0.382548,-0.00624325
1.139314,-0.4203678,-0.1298048
1.123343,-0.42794,-0.1375022
1.070056,-0.4623694,-0.09910837
1.017119,-0.4577108,-0.1117557
0.9447789,-0.4368111,-0.08910397
0.9295335,-0.374834,-0.02415734
0.9493577,-0.3030139,-0.01976585
0.9546394,-0.2800142,-0.02983542
0.9469428,-0.2403366,-0.02781368
0.9068024,-0.2038452,-0.04755245
0.877896,-0.1302163,-0.07013619
0.8627108,-0.06219806,-0.1020426
0.8513637,-0.07833736,-0.1247334
0.8395739,-0.08462142,-0.1273266
0.8088435,-0.1268604,-0.1184608
0.7939857,-0.2008489,-0.09968195
0.7868791,-0.2184041,-0.1063811
0.8072397,-0.1836585,-0.1360781
0.8573187,-0.1022257,-0.1762769
0.8924215,-0.04030104,-0.1963515
0.935935,0.005108908,-0.1770051
0.9802134,0.03077188,-0.1554509
1.044071,0.01639985,-0.122201
1.112127,0.03167909,-0.1093897
1.133894,0.03304577,-0.1266643
1.172827,-0.01460174,-0.1079369
1.241529,-0.1238521,-0.1030233
1.330649,-0.2751878,-0.1481307
1.416445,-0.3069712,-0.1921509
1.450252,-0.2650423,-0.2059783
1.46794,-0.2862039,-0.2040317
1.425743,-0.2972374,-0.2378696
1.318899,-0.2814345,-0.2726454
1.232976,-0.2988575,-0.2605626
1.135348,-0.3319735,-0.2144518
1.056806,-0.370281,-0.12147
1.051643,-0.3788367,-0.04862154
1.04302,-0.3262671,-0.03496377
1.004199,-0.2777114,-0.007221666
0.9688534,-0.248569,0.02100717
0.9448733,-0.237164,0.02327862
0.9100232,-0.2688838,0.02015356
0.841934,-0.2958797,0.01461768
0.7671739,-0.3017586,0.02347687
0.7279378,-0.2850594,0.03657266
0.728121,-0.2472684,0.04199876
0.7259683,-0.2167762,0.05287605
0.6944228,-0.1773257,0.06476888
0.6408278,-0.1524306,0.08877048
0.6123046,-0.1460861,0.1272047
0.6644296,-0.1428638,0.1492762
0.7451052,-0.1876537,0.1511962
0.7965725,-0.2454927,0.1567595
0.8388333,-0.2732859,0.1762802
0.8874936,-0.2907528,0.2046179
0.9392101,-0.2815479,0.2233792
0.9724281,-0.2394186,0.2208204
1.010949,-0.1993615,0.2221263
1.040303,-0.1855455,0.2320683
1.021141,-0.1973399,0.2258397
1.056768,-0.238889,0.2043981
1.171205,-0.3071598,0.174713
1.294947,-0.3576861,0.1561306
1.356891,-0.3773349,0.1413409
1.243999,-0.421663,0.1120365
1.108278,-0.4649479,0.1078708
1.109241,-0.4479791,0.08460739
1.100233,-0.442533,-0.01018839
1.072186,-0.4562898,-0.0871405
1.072895,-0.4347357,-0.1115639
1.026224,-0.4046449,-0.1094578
0.9788525,-0.3395914,-0.08052128
0.9699862,-0.2578969,-0.05255894
0.9575935,-0.2264523,-0.04042486
0.9343016,-0.2179537,-0.04222362
0.8961703,-0.2032025,-0.04725542
0.8672629,-0.1584988,-0.0656761
0.8603752,-0.1016183,-0.1100661
0.8446605,-0.07377441,-0.1224752
0.8214552,-0.07198044,-0.1079722
0.8024146,-0.1093258,-0.1115055
0.7903081,-0.1542934,-0.1125024
0.8079894,-0.1716899,-0.1292998
0.8500262,-0.1765233,-0.1635327
0.8667093,-0.1421137,-0.172692
0.8622233,-0.07653408,-0.1695574
0.8861306,-0.04433748,-0.1756642
0.9599949,-0.01411695,-0.1915207
1.058658,0.05445053,-0.2083384
1.08212,0.06268556,-0.1953984
1.044868,0.01282687,-0.1439883
1.06527,0.007634082,-0.1014408
1.085011,-0.00818476,-0.1062552
1.086414,-0.06427947,-0.1225743
1.145121,-0.1227106,-0.1233002
1.229091,-0.1797511,-0.1686274
1.366586,-0.2286616,-0.2597375
1.492136,-0.2875455,-0.2878417
1.455519,-0.2919356,-0.2334717
1.38432,-0.2583487,-0.1963706
1.368891,-0.2792536,-0.227539
1.312822,-0.2825837,-0.2449321
1.213059,-0.3084588,-0.1909905
1.093556,-0.3819314,-0.1301336
1.008216,-0.3912253,-0.07992619
0.9689736,-0.3788216,-0.03527277
0.916195,-0.3616799,-0.003768211
0.9260433,-0.3242181,0.02573529
0.9590904,-0.2984851,0.01869588
0.9146866,-0.2830525,0.007620224
0.8696871,-0.2953291,0.01816153
0.800063,-0.3038015,0.01916734
0.7505669,-0.298931,0.03586812
0.7868704,-0.2990402,0.03899989
0.7763132,-0.2748096,0.03386153
0.7579637,-0.2283391,0.06001995
0.7541931,-0.1614192,0.07464258
0.7111693,-0.1018245,0.08233191
0.7159386,-0.09435937,0.09200537
0.7046275,-0.130369,0.1134269
0.6656592,-0.1838414,0.1659086
0.7194328,-0.2307978,0.2000088
0.8110775,-0.2512631,0.2023493
0.8922502,-0.2274907,0.1954974
0.9639115,-0.17096,0.1835441
1.016729,-0.09312286,0.1584791
1.079615,-0.03109282,0.1291883
1.128368,-0.04510607,0.1347298
1.150526,-0.07914029,0.1544922
1.171242,-0.1035556,0.158357
1.183501,-0.1670919,0.1517236
1.24874,-0.297872,0.1400868
1.380943,-0.5010337,0.1481332
1.390561,-0.5779702,0.1546813
1.214024,-0.4583523,0.1366758
1.051823,-0.419586,0.1168468
1.016707,-0.4751946,0.0678266
1.007363,-0.4959772,-0.02811102
0.9630883,-0.5605211,-0.08725322
0.9486142,-0.6476416,-0.04052501
0.9278206,-0.6785971,8.690128e-06
0.9063711,-0.6390552,-0.07196472
0.9817026,-0.5485174,-0.1574712
1.051838,-0.4655036,-0.2017359
1.072867,-0.37193,-0.2138447
1.078413,-0.2457726,-0.1869578
1.021059,-0.1308148,-0.1783091
0.9487597,-0.08817961,-0.1598826
0.8768523,-0.1121753,-0.1302316
0.83222,-0.1255936,-0.1369678
0.8187012,-0.1612118,-0.1269936
0.7798913,-0.2152373,-0.1322826
0.7866373,-0.2386789,-0.1644774
0.8273629,-0.285427,-0.1977982
0.8757882,-0.285054,-0.2519221
0.9121245,-0.197942,-0.2588773
0.88466,-0.09771785,-0.2355194
0.8920767,0.005826588,-0.2217328
0.9180911,0.0535521,-0.1963154
0.9472486,0.0621668,-0.1781746
1.024683,0.07590477,-0.1416351
1.043494,0.05139784,-0.1184261
1.044832,0.02007695,-0.1120198
1.07146,-0.009405512,-0.06950224
1.062559,-0.03770763,-0.04673647
1.085758,-0.05805571,-0.02516038
1.135395,-0.08420083,0.01616655
1.16867,-0.07491786,0.01827222
1.231966,-0.07916985,0.007599585
1.316845,-0.1168178,-0.007247887
1.361211,-0.1226755,-0.02756715
1.346013,-0.1622879,-0.02862183
1.348479,-0.2666085,-0.05820077
1.374277,-0.3474337,-0.1088017
1.315095,-0.3744294,-0.1226491
1.235915,-0.4104043,-0.1348869
1.229839,-0.4372222,-0.1384365
1.182548,-0.3981135,-0.07786624
1.055221,-0.3768653,-0.001832822
0.9556945,-0.3365463,0.03431369
0.9216607,-0.2461954,0.02290937
0.9195929,-0.2299514,-0.005152003
0.9214556,-0.2249613,-0.001736996
0.8975727,-0.2242082,0.002637364
0.8262877,-0.2537168,0.01491219
0.7499993,-0.2294272,0.04610631
0.7313213,-0.222685,0.04605473
0.772578,-0.2217307,0.05079149
0.8265191,-0.2086256,0.05770652
0.8526098,-0.2371247,0.05229848
0.8456085,-0.2422596,0.07818877
0.8223039,-0.2456588,0.1065625
0.803905,-0.2462262,0.1350204
0.7850897,-0.2289001,0.1553436
0.7828102,-0.238556,0.1521659
0.804854,-0.2356686,0.1700683
0.8140787,-0.2350203,0.1969423
0.8462184,-0.2302556,0.2175987
0.9020133,-0.1888607,0.2238878
0.9443279,-0.1523571,0.212857
0.9790164,-0.1335288,0.2178797
0.9936488,-0.1357891,0.221984
1.045686,-0.1383567,0.2165155
1.095924,-0.1852968,0.2032365
1.112932,-0.326633,0.1808345
1.267454,-0.4430899,0.1872659
1.404782,-0.4643716,0.1936481
1.267996,-0.4349096,0.1663125
1.105631,-0.3987057,0.1417722
1.112548,-0.3766971,0.1200317
1.090085,-0.368063,0.06523786
1.021844,-0.3794759,-0.03977092
1.051491,-0.3915599,-0.116448
1.061617,-0.4065655,-0.08962505
0.9862088,-0.4078728,-0.04575461
0.9368319,-0.3711425,-0.02293945
0.9381208,-0.345404,-0.005200151
0.976622,-0.28565,-0.04076839
1.003682,-0.2062885,-0.07277245
0.9939503,-0.2193459,-0.06835559
0.9553206,-0.2250615,-0.07323348
0.8702508,-0.1451431,-0.06895197
0.818069,-0.09170253,-0.07339145
0.8304998,-0.09988425,-0.09144692
0.8274031,-0.09880986,-0.1077397
0.8128118,-0.109979,-0.1209394
0.8186183,-0.1825165,-0.1040672
0.8155106,-0.2273088,-0.09943784
0.8184557,-0.2032085,-0.1194178
0.8638112,-0.1465653,-0.1405876
0.9107783,-0.05996058,-0.1759904
0.9477417,-0.005624674,-0.1912222
0.9829776,0.01353402,-0.1939505
1.00868,0.04796576,-0.1984222
1.04094,0.04565904,-0.1795627
1.049317,0.01840939,-0.1586096
1.040413,0.009641802,-0.1335885
1.039807,-0.02991722,-0.09827561
1.047447,-0.07933078,-0.08426203
1.101435,-0.1320754,-0.1067933
1.19998,-0.2254866,-0.1585035
1.334262,-0.2692738,-0.2247071
1.439604,-0.2542465,-0.2631667
1.443293,-0.2626346,-0.2437551
1.421812,-0.267735,-0.2392447
1.409882,-0.2644422,-0.2678012
1.353798,-0.2849298,-0.2550179
1.230094,-0.3322257,-0.199944
1.082432,-0.3929722,-0.1067268
0.9912351,-0.4160188,-0.03259914
0.9594551,-0.3741421,-0.02564091
0.9468806,-0.3067758,-0.001056945
0.944113,-0.2579988,0.02153758
0.9516658,-0.2284918,0.005224093
0.9407923,-0.2241434,-0.004860839
0.8957539,-0.2423272,-0.02344075
0.8322857,-0.2634014,-0.02218115
0.7683418,-0.3037176,0.01105271
0.7513349,-0.3304773,0.02819434
0.7735778,-0.3170552,0.02923923
0.7929293,-0.3037812,0.02953389
0.7903636,-0.272474,0.05683306
0.7387443,-0.2159813,0.1121378
0.6978511,-0.1719764,0.1573425
0.7270409,-0.1373075,0.1544035
0.764737,-0.1206433,0.1335268
0.7654993,-0.1501359,0.1656356
0.790582,-0.2006414,0.1955472
0.8569756,-0.2266627,0.2008165
0.9060684,-0.2325275,0.2164126
0.9579776,-0.2157295,0.2080466
0.9965536,-0.1761539,0.2115577
1.005528,-0.1613998,0.2136227
1.034098,-0.1742679,0.1736882
1.059661,-0.2178976,0.1297989
1.162297,-0.3308043,0.0921632
1.363677,-0.460116,0.1079194
1.426147,-0.5011041,0.1354996
1.292112,-0.463977,0.1225887
1.170454,-0.4557273,0.1221361
1.137202,-0.4708261,0.07425375
1.100561,-0.4522231,-0.01980746
1.073336,-0.4500266,-0.07423961
1.069081,-0.4693064,-0.0790055
1.014157,-0.4652056,-0.05744902
0.9583835,-0.4126417,-0.0561863
0.9465255,-0.3043391,-0.04650207
0.9446515,-0.2207812,-0.04114433
0.9359762,-0.1877241,-0.06518641
0.8970898,-0.1648229,-0.05769449
0.8554722,-0.1615673,-0.06790895
0.8277001,-0.1532078,-0.09272106
0.812896,-0.1441318,-0.08420528
0.8261769,-0.1600629,-0.09107604
0.8324287,-0.168493,-0.1005631
0.8439192,-0.175468,-0.1191551
0.8938588,-0.186836,-0.1510452
0.9499616,-0.1811216,-0.1634243
0.9653309,-0.156868,-0.1864265
0.9240117,-0.1155383,-0.2118877
0.881259,-0.08076627,-0.2132167
0.8744369,-0.06527529,-0.2094947
0.8917705,-0.05432048,-0.2206883
0.9259875,-0.04586207,-0.2349947
0.9571729,-0.04461259,-0.234268
0.9841869,-0.05363727,-0.2349762
0.9940359,-0.06932576,-0.2268114
0.9757524,-0.08884368,-0.1941111
0.9724103,-0.09455577,-0.1676488
1.004201,-0.06004364,-0.1664652
1.055615,-0.01572471,-0.1674978
1.109641,-0.02568962,-0.1607497
1.212788,-0.1213432,-0.1742858
1.376025,-0.2466821,-0.1916609
1.430667,-0.2822802,-0.193335
1.398844,-0.2521926,-0.197101
1.456617,-0.2710927,-0.1991421
1.46595,-0.2895465,-0.2075032
1.386392,-0.2851847,-0.2023492
1.33901,-0.3257365,-0.1481573
1.215604,-0.3380458,-0.04401665
1.067606,-0.3049231,0.06464727
0.9730796,-0.2784499,0.07327869
0.8675551,-0.2193621,0.02830345
0.8629799,-0.1820561,0.0121402
0.9205464,-0.2059979,-0.04652793
0.9334648,-0.24364,-0.09258995
0.9265818,-0.3158767,-0.08088575
0.8649798,-0.3991929,-0.08968487
0.7961205,-0.4493438,-0.06845901
0.7625627,-0.4671286,-0.0181393
0.7834262,-0.4390254,-0.01126084
0.8369022,-0.382194,-0.01591737
0.8404022,-0.3027574,-0.01395861
0.8552187,-0.2071301,-0.007231187
0.8674241,-0.1536819,0.01538267
0.858273,-0.1344738,0.05160715
0.8701178,-0.1161462,0.08625835
0.8485732,-0.1264932,0.1038994
0.8387927,-0.1575824,0.1290997
0.847145,-0.1924168,0.1657206
0.8547677,-0.2218435,0.1887375
0.890296,-0.2157327,0.1921677
0.8996531,-0.1952792,0.177897
0.912368,-0.1741184,0.1677933
0.9296958,-0.1582002,0.1652513
0.9431953,-0.1686593,0.15619
1.014161,-0.1815461,0.1519043
1.079014,-0.2057058,0.1630645
1.095978,-0.232549,0.1769376
1.075343,-0.2437487,0.1799687
1.027439,-0.2877866,0.1867554
1.024539,-0.3131464,0.1900644
1.129965,-0.2719304,0.1711101
1.315512,-0.2507848,0.1307852
1.375535,-0.2790876,0.08314198
1.232569,-0.3400964,0.09282518
1.116157,-0.4224143,0.1327163
1.106677,-0.4735719,0.1187891
1.078415,-0.5071354,0.08277433
1.03416,-0.5403255,0.02623028
1.052538,-0.4943651,-0.03767222
1.073794,-0.406607,-0.09424555
1.033202,-0.3646354,-0.1755269
0.9849118,-0.3242508,-0.165631
0.9329884,-0.2730945,-0.08819046
0.9094678,-0.2268108,-0.07258037
0.9368998,-0.2028059,-0.04629739
0.9200332,-0.2116795,-0.03767374
0.898687,-0.2020387,-0.06293996
0.9062408,-0.1975245,-0.05840698
0.8843048,-0.18355,-0.08264886
0.859255,-0.1114899,-0.1270426
0.8263391,-0.0627032,-0.1743091
0.8195907,-0.07321281,-0.1845363
0.8510083,-0.1074322,-0.1367957
0.8554455,-0.1263146,-0.1248281
0.8712599,-0.1184464,-0.115846
0.8872458,-0.09714054,-0.115028
0.9005502,-0.04909435,-0.141749
0.9559634,-0.002122872,-0.1335859
0.9842346,0.03459794,-0.147606
0.9962194,0.06227548,-0.1596981
1.024906,0.0599272,-0.1426151
1.033013,0.0397918,-0.136866
1.058853,-0.03264544,-0.1032325
1.114599,-0.1404909,-0.08043101
1.193962,-0.1959802,-0.08038343
1.315325,-0.2186004,-0.0914873
1.443672,-0.2365166,-0.1513985
1.527277,-0.2386725,-0.1955701
1.516779,-0.2836176,-0.1943203
1.450865,-0.3559798,-0.190764
1.3868,-0.3807064,-0.1785764
1.255914,-0.3979894,-0.1253979
1.114563,-0.4104719,-0.05972363
1.047014,-0.3937705,-0.03648501
0.9472937,-0.3425276,-0.00230924
0.8782238,-0.2405447,0.04995481
0.9241998,-0.1930619,0.04909445
0.9531623,-0.2099213,0.02050501
0.9525798,-0.2187202,-0.006459456
0.9310666,-0.260662,-0.02240863
0.8509913,-0.3012192,-0.01373652
0.7978259,-0.3079564,0.0037219
0.7949519,-0.3060617,0.03100512
0.7986029,-0.2927872,0.05368697
0.7986831,-0.2745379,0.06516401
0.7764358,-0.2423902,0.08841398
0.7490982,-0.2190123,0.1074029
0.7249325,-0.1989502,0.1283555
0.6969514,-0.1624173,0.1593466
0.7188264,-0.1712538,0.146312
0.7770135,-0.2090674,0.1214813
0.7909157,-0.226287,0.149731
0.7854584,-0.2510427,0.1797105
0.815946,-0.2671165,0.1982034
0.8714939,-0.2572108,0.2169146
0.9262205,-0.2343074,0.2043393
0.9829045,-0.1758269,0.1984107
1.053327,-0.1132048,0.1976262
1.1071,-0.1030325,0.1767106
1.173935,-0.1406063,0.1770771
1.309658,-0.2373262,0.1730266
1.38094,-0.3769444,0.1547813
1.281518,-0.4489653,0.164154
1.155681,-0.4349227,0.1917303
1.09625,-0.4473489,0.2076966
1.059839,-0.4678986,0.144653
1.068632,-0.4240218,-0.002641845
1.082709,-0.3958741,-0.1278449
1.037714,-0.4224227,-0.1749349
0.9939145,-0.436245,-0.1595815
0.940738,-0.4015957,-0.1094345
0.8961018,-0.3391384,-0.04402028
0.9171715,-0.2806366,-0.006472754
0.9249003,-0.236342,-0.02203809
0.9286915,-0.2210879,-0.03486859
0.9404612,-0.1986682,-0.04090902
0.9120819,-0.1458972,-0.056392
0.8927882,-0.110582,-0.06039671
0.8744951,-0.08858156,-0.08867387
0.8527707,-0.08516419,-0.1150137
0.8480183,-0.1251047,-0.1024543
0.8372069,-0.1871142,-0.1078123
0.8485301,-0.2278252,-0.1194499
0.8752657,-0.2248768,-0.1124012
0.8915987,-0.2192244,-0.1138224
0.9001779,-0.1893373,-0.119598
0.9087494,-0.1103491,-0.1235218
0.9440575,-0.04581996,-0.1309054
0.9930236,0.009102346,-0.1413584
1.039109,0.05298348,-0.1419413
1.05746,0.04812638,-0.1248437
1.04319,0.02226591,-0.1050067
1.059223,-0.01462846,-0.1004145
1.100042,-0.08353242,-0.1248649
1.162292,-0.18261,-0.1703536
1.281965,-0.2734595,-0.2233454
1.409313,-0.3033686,-0.2606029
1.464236,-0.2943813,-0.2489063
1.409007,-0.3098569,-0.2330657
1.345149,-0.3317993,-0.2461766
1.325288,-0.3330605,-0.2270739
1.225325,-0.3375839,-0.1775885
1.121742,-0.3448898,-0.1317596
1.090863,-0.3611206,-0.08764155
1.019832,-0.3717911,-0.06012023
0.9787131,-0.3452492,-0.01875103
1.004796,-0.3131303,0.02547118
1.000413,-0.2777663,0.01971908
0.9703827,-0.2438232,0.005750378
0.9117399,-0.2434289,0.00319291
0.8351376,-0.2436405,0.008074697
0.8033291,-0.2341433,0.02126879
0.8124706,-0.2316245,0.01452392
0.7981578,-0.2257075,0.01426635
0.7628992,-0.2132907,0.03156419
0.755749,-0.1912578,0.05971142
0.7463333,-0.1567692,0.1088327
0.734263,-0.1226307,0.1300241
0.7427679,-0.127266,0.1186424
0.7476473,-0.1795068,0.1330301
0.7577716,-0.2399879,0.1678542
0.7750268,-0.2773775,0.1806762
0.8088942,-0.2762835,0.1777176
0.8657183,-0.2523116,0.1866564
0.9232481,-0.2154599,0.1952737
0.9898567,-0.1742891,0.1951166
1.044331,-0.1579374,0.1919053
1.059198,-0.144833,0.181239
1.082183,-0.1476496,0.1742925
1.201257,-0.2466763,0.1679952
1.371401,-0.4069624,0.149209
1.388357,-0.4735293,0.126968
1.253439,-0.4401555,0.1041651
1.152795,-0.4498895,0.07851374
1.10344,-0.4643504,0.04420081
1.059789,-0.4190994,-0.007074599
1.030829,-0.4062899,-0.05903524
1.011048,-0.4096801,-0.09287772
0.9814263,-0.3857242,-0.1024249
0.9320832,-0.3532561,-0.0810518
0.9195107,-0.314279,-0.05276623
0.9424289,-0.3000886,-0.0514571
0.9472558,-0.2737989,-0.05728032
0.9725025,-0.2217074,-0.05094559
0.9815433,-0.2102305,-0.05332199
0.9405423,-0.1945968,-0.06188455
0.91582,-0.1386685,-0.06449636
0.9002858,-0.1094458,-0.06632196
0.8832741,-0.1101592,-0.06879875
0.8590578,-0.1131966,-0.07776555
0.8291348,-0.1471025,-0.08509801
0.8299858,-0.1873354,-0.0906707
0.8406575,-0.1964571,-0.1118772
0.8594393,-0.1885685,-0.1334664
0.89459,-0.1555755,-0.146623
0.9214568,-0.1173847,-0.1539442
0.9349448,-0.08350772,-0.1545407
0.9474446,-0.04699669,-0.1622028
0.9759185,-0.02028195,-0.1679202
0.9968244,0.0194161,-0.1627278
1.007355,0.03380838,-0.1444564
1.028208,0.003688832,-0.1108663
1.048389,-0.0273923,-0.09505194
1.09071,-0.06954182,-0.10736
1.15547,-0.1192979,-0.1248805
1.221368,-0.1710395,-0.1511286
1.298315,-0.1971864,-0.1958236
1.356131,-0.1872698,-0.2205994
1.359543,-0.2133034,-0.1875676
1.33312,-0.2680339,-0.1673547
1.321294,-0.3043801,-0.2278786
1.305681,-0.3259225,-0.2933775
1.259598,-0.3417052,-0.284485
1.204863,-0.3853701,-0.2217283
1.131023,-0.4550293,-0.1403351
1.081682,-0.474863,-0.07532071
1.080264,-0.4282662,-0.04244459
1.040351,-0.3668471,0.01517925
1.005755,-0.2917023,0.0797034
0.9915192,-0.2316328,0.0718011
0.9044463,-0.2268992,0.03922567
0.7991106,-0.2217439,0.01580679
0.7045957,-0.1981439,-0.009511964
0.6300695,-0.1931531,0.005947156
0.6424255,-0.2219525,0.03352201
0.6680606,-0.2699464,0.0429562
0.6749682,-0.2924675,0.05442967
0.7126519,-0.2953647,0.06379968
0.7481813,-0.291978,0.09082559
0.7834698,-0.2647388,0.1088209
0.8208902,-0.2388704,0.09728435
0.8465572,-0.2346962,0.1114129
0.8731943,-0.2345331,0.1368249
0.8639537,-0.2374525,0.1587196
0.8398981,-0.2495702,0.1958288
0.8639555,-0.2393809,0.2095263
0.8940279,-0.21462,0.1938373
0.9041717,-0.2154073,0.1901913
0.9175093,-0.2084092,0.2037428
0.9177258,-0.1988771,0.211917
0.9329796,-0.2259104,0.2119473
0.9947459,-0.2622864,0.2024968
1.100013,-0.3050683,0.171568
1.259495,-0.3737644,0.1363488
1.333384,-0.4376053,0.1225417
1.220043,-0.4393972,0.1312415
1.113454,-0.4381646,0.134004
1.122295,-0.4905701,0.1173497
1.148148,-0.4866127,0.07756814
1.153968,-0.4603067,-0.01098944
1.133058,-0.477141,-0.09123589
1.072446,-0.4558911,-0.1144791
1.01475,-0.4465958,-0.1317903
0.9795143,-0.4387917,-0.1263732
0.9433273,-0.3795996,-0.09160525
0.9269591,-0.3445648,-0.08409248
0.9453432,-0.3053983,-0.08772378
0.9508568,-0.2477674,-0.0884019
0.9419434,-0.2010883,-0.09427372
0.9480694,-0.1563796,-0.09454155
0.9388565,-0.1457194,-0.09210595
0.9180248,-0.1442881,-0.08475403
0.9116561,-0.1402359,-0.08405024
0.8964285,-0.1641824,-0.08610145
0.865378,-0.1928159,-0.07487702
0.8302367,-0.2087589,-0.07242947
0.821547,-0.2111859,-0.0761459
0.8434063,-0.2055919,-0.0845985
0.7330671,-0.06231313,0.07864528
0.7007048,-0.07703067,0.09357479
0.7078909,-0.1510473,0.1215835
0.7079499,-0.2219669,0.1525429
0.6997345,-0.2487416,0.1930729
0.7242122,-0.2172847,0.1950859
0.7616667,-0.1968954,0.2007961
0.8245159,-0.1770496,0.2433656
0.9073753,-0.1489067,0.2466081
1.001058,-0.1743856,0.2388766
1.141143,-0.1898584,0.2312053
1.263811,-0.2008974,0.1958046
1.313861,-0.2552431,0.1676829
1.368845,-0.3077984,0.1586181
1.431937,-0.3718874,0.169296
1.349622,-0.4091722,0.1738536
1.139064,-0.40575,0.1679771
1.027921,-0.4252459,0.1494101
1.022313,-0.4310575,0.06236397
1.024721,-0.4161169,-0.05980312
1.040081,-0.4009906,-0.1363147
1.03531,-0.3697283,-0.140172
1.030878,-0.3232589,-0.1012836
1.018017,-0.2494094,-0.07139016
0.9774774,-0.1752315,-0.04703505
0.9620451,-0.1337853,-0.02052412
0.9337543,-0.1198825,-0.008558866
0.8954512,-0.1142474,-0.03026658
0.8753578,-0.09136124,-0.06776396
0.8635788,-0.07550224,-0.07758099
0.8588261,-0.08389536,-0.07515324
0.8125135,-0.1045323,-0.06704952
0.7662686,-0.1328732,-0.05612049
0.772473,-0.1400326,-0.06771724
0.8059948,-0.1305826,-0.09454231
0.8486759,-0.1247229,-0.1382137
0.8813997,-0.08057953,-0.1715955
0.9202034,-0.007351904,-0.1723453
0.9383151,0.008164789,-0.168343
0.9451372,-0.009264117,-0.1540586
1.003393,0.02791967,-0.1361374
1.049537,0.0756822,-0.1288707
1.052448,0.07627121,-0.1144292
1.076439,0.05765231,-0.1007801
1.145079,0.02421858,-0.1084086
1.23175,-0.04088263,-0.1439768
1.315315,-0.1375972,-0.2058843
1.403942,-0.2571131,-0.2724815
1.466416,-0.3441392,-0.2946227
1.458163,-0.3518755,-0.2619845
1.377646,-0.3446434,-0.2431001
1.273475,-0.3711991,-0.2689467
1.214133,-0.3936941,-0.2789079
1.174214,-0.4178038,-0.22635
1.104878,-0.4213659,-0.1418596
1.042834,-0.3583531,-0.0744051
1.006945,-0.2813968,-0.009580534
0.984027,-0.2366374,0.06366883
0.9626301,-0.2314663,0.05561581
0.9041231,-0.2421922,-0.004504963
0.8247251,-0.2442027,0.02043171
0.7580642,-0.2672518,0.04094108
0.7067768,-0.2832246,0.02546957
0.7196149,-0.2654521,0.05590059
0.7535708,-0.2410518,0.05033186
0.7366579,-0.209353,0.0564875
0.7184436,-0.1820635,0.1042048
0.701201,-0.1573132,0.1175574
0.7020659,-0.1499259,0.1355204
0.7418892,-0.1782556,0.1276087
0.752585,-0.2018671,0.1343847
0.7577438,-0.2396162,0.1785352
0.7774494,-0.2863013,0.1936907
0.8104449,-0.2838453,0.2157496
0.8922275,-0.2569034,0.197774
0.9441701,-0.2268943,0.1813617
0.9641291,-0.1985095,0.2115809
1.034252,-0.1626253,0.2174517
1.078533,-0.1294667,0.2391841
1.10295,-0.1679556,0.2138392
1.308065,-0.2460546,0.1455612
1.554707,-0.3172468,0.1410416
1.482281,-0.3760871,0.1557087
1.323943,-0.4212228,0.1855028
1.262741,-0.473755,0.2075012
1.05813,-0.4736733,0.1918554
0.9905872,-0.4686851,0.1385372
1.10896,-0.479982,0.01093765
1.060504,-0.4274349,-0.1007214
1.051843,-0.4177868,-0.109698
1.045597,-0.3799605,-0.05105341
0.9275605,-0.2557582,0.005878642
0.9341488,-0.1947275,0.01750626
0.9426147,-0.1476636,0.01445609
0.927248,-0.1402152,0.01335737
0.9493873,-0.1616438,0.0007591093
0.908159,-0.1225701,-0.03897493
0.8673306,-0.1073122,-0.09578648
0.8252551,-0.09664378,-0.1141862
0.8064059,-0.1015343,-0.09787417
0.8046876,-0.1355461,-0.08876752
0.7678983,-0.1414688,-0.09136661
0.7851665,-0.1493603,-0.1091628
0.8038577,-0.1168199,-0.1523801
0.8238606,-0.06176757,-0.1915419
0.9002603,-0.02686567,-0.2025776
0.9601042,0.009118886,-0.2107244
1.016253,0.01004198,-0.2004094
1.050883,0.00390742,-0.1580931
1.054993,0.002876269,-0.1097619
1.074416,-0.0003196254,-0.06308847
1.101729,-0.0009136347,-0.05647192
1.168284,-0.05710024,-0.0897327
1.247888,-0.163772,-0.1201375
1.308507,-0.2480048,-0.1590906
1.388384,-0.2473128,-0.1859087
1.444147,-0.237513,-0.1849974
1.444185,-0.2878309,-0.2210115
1.409105,-0.2962047,-0.2974681
1.318411,-0.3033594,-0.3240666
1.176449,-0.3678763,-0.2822781
1.05657,-0.4172364,-0.2243012
1.02506,-0.4648437,-0.1399098
1.040859,-0.4867446,-0.04230624
1.032864,-0.4496487,0.01129546
1.016586,-0.3877153,0.03916842
0.9903189,-0.3172735,0.05447863
0.9058803,-0.2625151,0.04348713
0.7819897,-0.2186598,0.03025124
0.6939438,-0.1858395,0.02911918
0.6866886,-0.1605144,0.03022927
0.7406279,-0.1328242,0.02405817
0.7986342,-0.130126,0.02039634
0.8065865,-0.1385388,0.03486782
0.7772278,-0.1577517,0.06995132
0.776954,-0.18452,0.1132436
0.8118551,-0.1837123,0.1305198
0.8380319,-0.1834368,0.1220707
0.8212265,-0.192814,0.1351658
0.7814684,-0.1924992,0.1842134
0.7795826,-0.1957261,0.2357619
0.8189259,-0.1963905,0.2575036
0.8868172,-0.1912188,0.2467503
0.9593039,-0.1980523,0.2343812
1.019039,-0.204877,0.2402056
1.092827,-0.2017725,0.2481652
1.10511,-0.204914,0.2497488
1.014489,-0.2162807,0.213487
0.975237,-0.2494481,0.1387929
1.108486,-0.3197698,0.09477802
1.274192,-0.4064809,0.06348624
1.245096,-0.4512379,0.04137801
1.107107,-0.4156195,0.08008224
1.003869,-0.3786093,0.1032758
0.9317338,-0.3890347,0.06295996
0.9724158,-0.403486,-0.0005815585
1.045862,-0.43205,-0.08552023
1.06317,-0.4428149,-0.1559293
1.082483,-0.3999106,-0.158241
1.056551,-0.3589112,-0.1023577
1.052888,-0.3167713,-0.0356896
1.058283,-0.2434705,-0.00906147
0.999913,-0.1487454,-0.03392289
0.9944937,-0.06550729,-0.06746384
0.9805189,-0.02779973,-0.08936455
0.9351909,-0.02079628,-0.1027075
0.902747,-0.05457683,-0.08819102
0.8317444,-0.1316115,-0.06703392
0.8018882,-0.2111995,-0.05732351
0.7897433,-0.2668857,-0.05767527
0.7730592,-0.2573604,-0.08891954
0.8025563,-0.1815118,-0.1293594
0.8278674,-0.07286135,-0.1759952
0.8694815,0.009356961,-0.2101725
0.909085,0.0228292,-0.2023542
0.9371273,0.04317018,-0.2080797
0.988989,0.08223072,-0.20856
1.009408,0.09724153,-0.1911074
1.003437,0.09821702,-0.1880258
0.9958765,0.07093367,-0.1445226
0.9978634,0.04167485,-0.1006501
1.030871,0.01892449,-0.1204555
1.099696,-0.0009130455,-0.1400884
1.196341,0.001912637,-0.1308274
1.254728,-0.03689585,-0.1365887
1.297731,-0.129787,-0.1584799
1.376324,-0.2085021,-0.16854
1.428607,-0.2229445,-0.1867016
1.431147,-0.1969251,-0.1958106
1.384919,-0.2066178,-0.1858413
1.328088,-0.2122908,-0.1939555
1.321526,-0.2036147,-0.1840906
1.254075,-0.2376879,-0.1284852
1.034088,-0.266565,-0.03120769
0.8741257,-0.2691497,0.03661644
0.9504216,-0.2762716,0.001112694
1.057534,-0.3215514,-0.02159543
1.061252,-0.384505,-0.009094001
1.068007,-0.4005687,-0.05265676
1.029839,-0.4391981,-0.08560627
0.9175856,-0.4919068,-0.07848139
0.7971198,-0.453666,-0.06859994
0.7127569,-0.3980362,-0.0505646
0.7405086,-0.3517264,-0.03606938
0.7852517,-0.2874301,-0.02413821
0.7968752,-0.2546403,-0.01463602
0.8063202,-0.2137611,0.002258167
0.7595164,-0.1620368,0.03495735
0.7590385,-0.1274928,0.04624211
0.7946483,-0.09298882,0.04470091
0.8368939,-0.09171217,0.05140555
0.9281612,-0.1009763,0.05920915
0.9171698,-0.1373314,0.09334763
0.8894625,-0.2023119,0.1469084
0.9298436,-0.198087,0.1652237
0.9291533,-0.1774605,0.1537386
0.9356675,-0.1748379,0.1597539
0.9089338,-0.1498913,0.1671402
0.862769,-0.1356696,0.1688234
0.8959725,-0.1370458,0.1842039
0.9424484,-0.1542044,0.1930203
0.9824804,-0.1694901,0.2096221
1.022144,-0.1755505,0.2199576
1.069218,-0.1950025,0.2019832
1.168835,-0.2345436,0.1983563
1.254629,-0.308259,0.1958941
1.267511,-0.3491148,0.1975054
1.280593,-0.3417966,0.21148
1.29756,-0.3991347,0.1937565
1.236821,-0.4964943,0.1553921
1.146297,-0.5120407,0.09838773
1.090655,-0.4678822,0.02943362
1.055727,-0.4528291,-0.0333494
1.065414,-0.449865,-0.1076159
1.089363,-0.4158235,-0.1580681
1.072227,-0.3573886,-0.1753516
1.045629,-0.29576,-0.1754241
1.004896,-0.256435,-0.1377649
0.9581866,-0.2326746,-0.102682
0.9390212,-0.2143404,-0.1026578
0.8963649,-0.2075025,-0.1132122
0.8579344,-0.2000156,-0.1209855
0.8603275,-0.172899,-0.1270706
0.8275578,-0.1277716,-0.1289083
0.7779282,-0.1048174,-0.1236831
0.7608396,-0.1151444,-0.1346083
0.7640304,-0.1244816,-0.1500199
0.7780555,-0.1249784,-0.1474429
0.7910575,-0.1205545,-0.1529054
0.8239418,-0.09576458,-0.1640382
0.8743913,-0.0447313,-0.1807648
0.9193344,-0.006780106,-0.1981182
0.9623148,-0.00310571,-0.1885672
1.003504,0.003143419,-0.1696591
1.042286,0.01377138,-0.1506336
1.059593,0.009342578,-0.1316838
1.082692,0.007866034,-0.1179363
1.130502,-0.002795891,-0.09748426
1.171848,-0.05120036,-0.08239449
1.236435,-0.125919,-0.09542661
1.313546,-0.2158326,-0.1384998
1.388161,-0.2888287,-0.1882898
1.448054,-0.3111827,-0.2107198
1.418044,-0.3196734,-0.1859602
1.37002,-0.3456402,-0.1563707
1.353911,-0.3601105,-0.1693474
1.27726,-0.3366242,-0.1684043
1.152988,-0.2987946,-0.1377055
1.064585,-0.2709256,-0.1205997
1.042408,-0.2511934,-0.09496401
0.9900408,-0.2293194,-0.06819154
0.9304172,-0.2022509,-0.06779182
0.9989734,-0.222093,-0.08477436
1.038831,-0.2755702,-0.09549791
0.9975497,-0.3147249,-0.08505596
0.9489236,-0.360502,-0.06250421
0.8007518,-0.3576937,-0.01162707
0.696932,-0.3160651,0.03781637
0.7056106,-0.2830755,0.04362369
0.7015766,-0.2114073,0.04001064
0.7294996,-0.1491047,0.04376734
0.7532197,-0.1117434,0.06253428
0.7494975,-0.09475422,0.08306889
0.762648,-0.1302553,0.08623014
0.7908547,-0.1685599,0.09345367
0.8391099,-0.230544,0.104518
0.8373498,-0.298593,0.1336585
0.8420806,-0.3077981,0.1792287
0.9149374,-0.2950818,0.1982788
0.9600905,-0.2582343,0.1932985
0.9851433,-0.1974829,0.1963765
0.9935666,-0.144405,0.2049074
0.9779305,-0.1178257,0.1911499
0.9823234,-0.1280854,0.1712454
0.9900149,-0.1844005,0.1540154
1.052133,-0.3345687,0.1342647
1.219697,-0.493987,0.1336516
1.343781,-0.5081763,0.1234029
1.284963,-0.4392704,0.1060052
1.188986,-0.4174181,0.1060499
1.168377,-0.4178916,0.08023876
1.113207,-0.3939982,0.03561558
1.089417,-0.3895256,-0.01675316
1.120632,-0.4158258,-0.08536148
1.080912,-0.4398811,-0.1047634
1.041709,-0.4387876,-0.0831944
0.9836172,-0.3866985,-0.07027111
0.9131878,-0.3067067,-0.02730119
0.9321757,-0.2519493,-0.008301852
0.9202156,-0.2436222,-0.03747982
0.8875433,-0.2441405,-0.02601426
0.8751652,-0.2079342,-0.03374609
0.8300442,-0.1551363,-0.06142825
0.8230577,-0.1138616,-0.0471228
0.8218754,-0.09591314,-0.05582766
0.8200007,-0.1002808,-0.06453342
0.8569233,-0.1166047,-0.07519109
0.8855579,-0.144124,-0.1130967
0.9190498,-0.1595414,-0.1205662
0.9334752,-0.1518072,-0.1242335
0.934285,-0.1346176,-0.1369199
0.9509068,-0.1058552,-0.1496232
0.9464814,-0.06558395,-0.1633215
0.9528192,-0.0256613,-0.1573042
0.9734078,0.00822165,-0.1559938
0.984696,0.03076979,-0.1563126
0.9955774,0.02949135,-0.1521505
0.9984766,0.01788841,-0.1525725
1.013983,0.008422923,-0.1430267
1.027782,-0.004186741,-0.1325043
1.041018,-0.009062255,-0.1297694
1.09874,-0.02890243,-0.1363343
1.178066,-0.09259302,-0.1480582
1.272878,-0.1891457,-0.1622976
1.366806,-0.2820057,-0.1817783
1.396416,-0.3017381,-0.1964132
1.394697,-0.2579664,-0.2111587
1.413505,-0.2125287,-0.2495642
1.415946,-0.1790134,-0.2970589
1.36232,-0.2317812,-0.276758
1.240786,-0.3581764,-0.2054921
1.106405,-0.3988718,-0.1679396
1.064024,-0.3674583,-0.1256335
1.040003,-0.3477771,-0.05658852
0.9683622,-0.2994291,-0.01157748
0.9593831,-0.2228923,0.008422511
0.9484586,-0.1791324,0.04297566
0.9219916,-0.1700546,0.06612222
0.9294694,-0.1562033,0.02533237
0.8376512,-0.1634022,0.009855105
0.7527088,-0.2178403,0.02672611
0.7489896,-0.2930395,0.02040968
0.7481402,-0.3689747,0.0497795
0.7887194,-0.3868022,0.06076246
0.7920027,-0.3534968,0.06132992
0.7797352,-0.2998809,0.0950805
0.7751522,-0.1812423,0.1065473
0.7483626,-0.09181175,0.1219424
0.7942275,-0.09488966,0.08798169
0.8259537,-0.08359893,0.04135791
0.8231198,-0.09871272,0.07913631
0.8458715,-0.1978317,0.1030397
0.8465344,-0.2580606,0.1198284
0.8551143,-0.2760604,0.1504501
0.881086,-0.2926311,0.1455577
0.9206791,-0.2288819,0.1334807
0.947522,-0.1434785,0.1246003
0.9743491,-0.09252246,0.1370793
1.038199,-0.06422513,0.1544815
1.066439,-0.0908843,0.1471698
1.101272,-0.1020692,0.1421031
1.187026,-0.1383865,0.1243925
1.265207,-0.2902323,0.1070777
1.325022,-0.4461376,0.1418408
1.323625,-0.4989283,0.1747704
1.240354,-0.4843647,0.1415883
1.128692,-0.5315528,0.1068866
1.051894,-0.5926578,0.09692609
1.029648,-0.5822781,0.04591904
1.018764,-0.6053174,-0.04476723
0.997617,-0.6234096,-0.1300747
0.9543594,-0.5778845,-0.1433929
0.8873883,-0.5099293,-0.1139536
0.8601727,-0.4035409,-0.1427972
0.8951767,-0.3219283,-0.1383371
0.9536606,-0.2817189,-0.1055215
1.016513,-0.2121469,-0.1464771
1.027348,-0.1612227,-0.1527441
0.9832671,-0.1674368,-0.1399388
0.9672675,-0.1705233,-0.1519352
0.9445524,-0.1740298,-0.1203811
0.8858544,-0.2093804,-0.08584926
0.8405375,-0.2312301,-0.0530852
0.808628,-0.2354718,-0.05365239
0.8137844,-0.2392861,-0.09558757
0.8349705,-0.2244845,-0.1167305
0.8367246,-0.2023639,-0.1474772
0.8575581,-0.1522197,-0.1604163
0.8768916,-0.07069208,-0.1679666
0.8933564,-0.02720811,-0.1833535
0.9458537,-0.0003696468,-0.1633747
1.005992,0.06408159,-0.1746249
1.014782,0.07537186,-0.1763433
0.9978894,0.03619466,-0.1306809
1.031615,0.05918507,-0.079445
1.040942,0.05808545,-0.02356249
1.018603,0.01632879,-0.04252513
1.049601,0.01534281,-0.07576271
1.066565,-0.001163116,-0.05460118
1.106527,-0.01666127,-0.05679777
1.184525,-0.03487058,-0.02826357
1.196564,-0.05849906,0.0002947544
1.226583,-0.06658013,-0.0424499
1.331379,-0.1607914,-0.08368848
1.442933,-0.2656984,-0.1292004
1.478598,-0.3155617,-0.1621377
1.346167,-0.3950343,-0.1524794
1.192593,-0.4480645,-0.15539
1.218133,-0.4216783,-0.1575771
1.21492,-0.3465209,-0.1265703
1.063514,-0.2749485,-0.07843442
1.003374,-0.201645,-0.05647773
1.010624,-0.1625453,-0.0928561
1.00135,-0.2238902,-0.1379964
0.9961596,-0.2807724,-0.13161
0.9000469,-0.3456736,-0.08282527
0.7906875,-0.4084845,-0.02139578
0.7157008,-0.3772525,0.02299558
0.6773015,-0.3600707,0.02795068
0.7122084,-0.3147092,0.02289208
0.7139567,-0.2343567,0.02521023
0.7420677,-0.2218027,0.03133665
0.8131765,-0.187042,0.05805987
0.8347846,-0.1672579,0.08098578
0.8507248,-0.1922966,0.08697961
0.8570581,-0.1860317,0.09845416
0.8702868,-0.1917074,0.118158
0.8775031,-0.2032892,0.1313134
0.8673674,-0.2033709,0.1116568
0.8803464,-0.2156452,0.09467944
0.8839195,-0.2293624,0.1308794
0.9013537,-0.2551207,0.1685895
0.9146524,-0.2775578,0.1621329
0.9098651,-0.2554078,0.1616343
0.9357536,-0.2065594,0.184138
0.9681616,-0.1641131,0.1874015
1.012902,-0.143047,0.1833702
1.040401,-0.1654986,0.1813651
1.066467,-0.2271684,0.1609475
1.20767,-0.3432367,0.1395324
1.401641,-0.4976381,0.1369405
1.439256,-0.5460875,0.1456214
1.255884,-0.4680646,0.1437096
1.085548,-0.419143,0.1394962
1.080113,-0.4327542,0.119014
1.084191,-0.4199955,0.02926896
1.064935,-0.3903339,-0.0804428
1.080678,-0.4042895,-0.1406255
1.056895,-0.397332,-0.1623579
0.9780229,-0.3341176,-0.1337823
0.8946264,-0.2596635,-0.06176675
0.8565169,-0.1925862,-0.03408682
0.8927422,-0.1951811,-0.06427561
0.9163221,-0.2288996,-0.07213639
0.8944008,-0.2202455,-0.05663782
0.8945798,-0.2212065,-0.0530491
0.8845737,-0.2086242,-0.06021479
0.8593675,-0.1591979,-0.08133957
0.8452332,-0.1126887,-0.1016472
0.824866,-0.1002768,-0.1031008
0.8381999,-0.1357015,-0.09849179
0.8572383,-0.1670559,-0.1172613
0.8598819,-0.1983865,-0.1380901
0.8839714,-0.2038367,-0.1371924
0.9063785,-0.1610786,-0.1584516
0.9375543,-0.1423663,-0.1866012
0.9613237,-0.08316203,-0.1850708
0.9780685,-0.007401041,-0.1791858
1.015343,0.004541473,-0.1758828
1.020615,0.02465557,-0.1696837
1.032103,0.01968757,-0.1617479
1.060304,-0.00222437,-0.1549567
1.060641,-0.01754363,-0.1494395
1.088988,-0.077984,-0.1477205
1.148323,-0.1755122,-0.1627031
1.230941,-0.3372998,-0.184456
1.295121,-0.4047096,-0.2017232
1.305062,-0.3038883,-0.2334235
1.348904,-0.254726,-0.2737663
1.357012,-0.2311948,-0.270879
1.302755,-0.2319014,-0.2491677
1.299458,-0.3380309,-0.2590818
1.265991,-0.3949961,-0.24304
1.223458,-0.3948967,-0.1990841
1.194487,-0.4078825,-0.1624829
1.064402,-0.4006864,-0.107101
0.9564667,-0.3605292,-0.04622754
0.9028083,-0.2896979,0.0114948
0.8664092,-0.2480562,0.03726316
0.9113486,-0.2296184,0.03049041
0.9078666,-0.2172263,0.03561691
0.8572401,-0.2293214,0.01769286
0.8306702,-0.2223095,0.00971598
0.7801369,-0.22928,0.02556847
0.7621985,-0.253395,0.02605849
0.7696422,-0.259675,0.04841246
0.7897865,-0.2643509,0.05259197
0.8070841,-0.2453356,0.05488189
0.7804419,-0.2187726,0.08873419
0.7720448,-0.1847649,0.08876164
0.7686121,-0.1572763,0.09766673
0.7802091,-0.1786364,0.1208687
0.8295957,-0.1995653,0.126998
0.8604576,-0.2240551,0.1491185
0.872159,-0.2561411,0.1648502
0.8845266,-0.2486998,0.1757741
0.9257279,-0.2185339,0.184947
0.9432334,-0.1645096,0.1801469
0.9432842,-0.1034732,0.191439
0.9983549,-0.08442413,0.196924
1.020472,-0.08532908,0.1736273
1.039187,-0.09590637,0.1526942
1.135702,-0.1888323,0.1489818
1.268039,-0.3671571,0.1650787
1.372236,-0.4734761,0.1795359
1.342161,-0.4490937,0.1632445
1.234112,-0.4157593,0.1393528
1.142297,-0.4053094,0.123063
1.080403,-0.3978554,0.08945703
1.090458,-0.4130376,0.01364303
1.083756,-0.4242825,-0.08156005
1.048742,-0.4374525,-0.1242256
1.023889,-0.4430113,-0.1222289
0.94751,-0.3943172,-0.1061324
0.9137676,-0.3325023,-0.05965295
0.929424,-0.2879642,-0.03673669
0.913932,-0.2511804,-0.0430431
0.916329,-0.2189174,-0.03745181
0.9001775,-0.1978236,-0.05062733
0.875264,-0.1889506,-0.06438806
0.8873962,-0.1480591,-0.07022825
0.8827154,-0.1168233,-0.08399702
0.8665642,-0.120133,-0.07978215
0.8452584,-0.1056059,-0.08238126
0.8328948,-0.1245848,-0.09515543
0.8551534,-0.1500229,-0.1037021
0.8821603,-0.1313308,-0.1250563
0.910322,-0.1317907,-0.1303589
0.9269234,-0.1278096,-0.1223974
0.9335932,-0.09403999,-0.1336337
0.9701264,-0.04837069,-0.1496422
1.010828,0.001954805,-0.1563111
1.018471,0.01710169,-0.1454811
1.017844,-0.006786397,-0.1151938
1.023171,-0.04652014,-0.08282606
1.025401,-0.07581196,-0.06768029
1.049677,-0.08324279,-0.07822401
1.099719,-0.09980489,-0.1061205
1.169328,-0.1411179,-0.1504596
1.281923,-0.1789528,-0.2027278
1.396862,-0.1881497,-0.2230665
1.438307,-0.1948742,-0.2118086
1.392776,-0.2092392,-0.2138297
1.342632,-0.2413782,-0.2442859
1.339431,-0.3354257,-0.2844339
1.303194,-0.4232331,-0.2914585
1.233114,-0.4279566,-0.2337684
1.165947,-0.4321669,-0.1496143
1.086505,-0.4562388,-0.1044627
1.048578,-0.4095388,-0.09075265
0.993026,-0.3305084,-0.05509163
0.9019032,-0.2661121,-0.00361607
0.9028371,-0.1940352,0.02128054
0.8892909,-0.1777235,0.02047424
0.8123618,-0.1983968,0.02190824
0.7830847,-0.1950021,0.02483607
0.7401986,-0.2193012,0.0282606
0.712454,-0.2598027,0.03990982
0.7464194,-0.2802509,0.04312619
0.76507,-0.2820937,0.04733108
0.8047357,-0.26357,0.05295162
0.8479346,-0.2416308,0.0472513
0.8378221,-0.2202348,0.05902002
0.8173209,-0.2011828,0.08755312
0.7992429,-0.1797916,0.1187798
0.8103426,-0.1802633,0.1277827
0.8573481,-0.2164848,0.1134922
0.8920256,-0.247946,0.1320156
0.8970277,-0.2734777,0.1468569
0.8841197,-0.2648272,0.1322405
0.8984132,-0.2304681,0.1374048
0.9396083,-0.2236766,0.1507687
0.9825213,-0.188046,0.1627975
1.015381,-0.1393524,0.1691646
1.001149,-0.132338,0.1777841
0.9856108,-0.1496346,0.1929563
1.02346,-0.244422,0.1624789
1.170109,-0.4200309,0.1258396
1.428378,-0.5439058,0.1355327
1.487629,-0.5174157,0.1331244
1.23104,-0.4345168,0.09692994
1.029243,-0.4068349,0.06485924
1.04582,-0.3988647,0.05919707
1.091213,-0.4189613,0.03024939
1.077571,-0.4468483,-0.06965571
1.089852,-0.4524026,-0.1351416
1.103533,-0.4696897,-0.1031605
1.052342,-0.453509,-0.08505305
1.002816,-0.4072598,-0.08666386
0.9488799,-0.3156936,-0.04728242
0.9223619,-0.2019902,-0.04453963
0.9545216,-0.1768314,-0.07391739
0.932598,-0.1743127,-0.06896266
0.8981564,-0.1626204,-0.08013739
0.8681373,-0.1430837,-0.0953034
0.819504,-0.09856484,-0.09135229
0.8212667,-0.09848417,-0.1016445
0.8082242,-0.1015058,-0.1015189
0.8037297,-0.1045158,-0.09889585
0.8519423,-0.1342221,-0.0983547
0.8874269,-0.1472095,-0.09178158
0.9286301,-0.1544379,-0.1064174
0.9482324,-0.1369932,-0.1223327
0.9516014,-0.1150358,-0.1323456
0.9684448,-0.08829799,-0.1365735
0.9720486,-0.02715184,-0.1348011
0.986256,-0.009745401,-0.1408705
0.9932946,-0.02032727,-0.133739
1.000417,0.004157865,-0.1296954
1.006699,0.03049187,-0.1307283
0.9892441,0.0365762,-0.1180396
1.001471,0.02143499,-0.1112282
1.012719,-0.01552835,-0.1041462
1.027343,-0.06658799,-0.1052825
1.079322,-0.125712,-0.109622
1.115721,-0.1681514,-0.1162042
1.192008,-0.1724591,-0.178808
1.326158,-0.1789594,-0.2502822
1.422327,-0.2119465,-0.2476888
1.475148,-0.2663304,-0.2309456
0.7611791,-0.1477136,0.09988405
0.7285611,-0.1326507,0.1426265
0.7369047,-0.1551237,0.1424136
0.7291842,-0.196509,0.1431046
0.7228235,-0.2295664,0.1885023
0.7266956,-0.2660641,0.2090977
0.7448306,-0.283562,0.2144068
0.8161876,-0.2491043,0.1982117
0.9331738,-0.1968661,0.1640632
0.9900568,-0.1462482,0.1486874
0.9836524,-0.1163027,0.1637408
1.013993,-0.1110041,0.2006664
1.059791,-0.1033819,0.1815637
1.13106,-0.1462103,0.1221642
1.309732,-0.2852774,0.09175285
1.50585,-0.4399906,0.1026919
1.510355,-0.4709282,0.1390113
1.293474,-0.4074445,0.1240433
1.073216,-0.4147105,0.1113671
1.008555,-0.4504076,0.1184355
1.047917,-0.4509015,0.03082872
1.081748,-0.4743746,-0.08265303
1.081291,-0.477378,-0.1447878
1.040987,-0.4549686,-0.1355127
0.9410763,-0.407214,-0.07267219
0.8994266,-0.3047577,-0.04128897
0.937837,-0.2224664,-0.02602766
0.9444206,-0.1801911,-0.04312065
0.9599424,-0.1564201,-0.07396128
0.9439574,-0.1115019,-0.07582367
0.8886062,-0.04205335,-0.09257495
0.8901603,-0.03750046,-0.08494503
0.8690989,-0.06826745,-0.08533251
0.8322196,-0.0999793,-0.1051338
0.8252365,-0.1502683,-0.0902625
0.8142509,-0.1790642,-0.1010332
0.8391931,-0.191067,-0.1131807
0.8633757,-0.1811469,-0.1188251
0.8571507,-0.1309066,-0.1431052
0.8667616,-0.08266211,-0.1483137
0.8836167,-0.0710634,-0.1527618
0.9175371,-0.03708922,-0.1478174
0.9803053,0.05491266,-0.1501812
1.013385,0.07591754,-0.1610029
1.012505,0.02119381,-0.1359509
1.046174,-0.00298759,-0.1018323
1.072191,-0.03475189,-0.06872495
1.084081,-0.06136131,-0.06997571
1.174365,-0.1049497,-0.08621248
1.246797,-0.1920239,-0.07173765
1.269522,-0.1911651,-0.1074347
1.387121,-0.1885565,-0.1760252
1.500125,-0.2554508,-0.2068527
1.469475,-0.2611589,-0.2019627
1.385743,-0.2698708,-0.1969263
1.295679,-0.2869911,-0.2473323
1.206479,-0.2856038,-0.2753722
1.14947,-0.3446567,-0.2355533
1.065876,-0.3628767,-0.1777486
0.998698,-0.3371627,-0.09977086
0.9918484,-0.3271858,-0.06915942
0.9414087,-0.2798764,-0.07741205
0.9199661,-0.2605445,-0.04878551
0.9472015,-0.2768673,-0.02920684
0.897968,-0.2787721,-0.01168805
0.8357572,-0.2859511,0.0162123
0.769754,-0.2901375,0.02004899
0.7076221,-0.2829756,0.03659259
0.7287377,-0.2484358,0.06199693
0.7572855,-0.1928977,0.05906984
0.7642282,-0.1488822,0.06229903
0.7475012,-0.1332964,0.08862301
0.7155262,-0.1319395,0.1051513
0.7501619,-0.1296379,0.1114708
0.7849133,-0.1761506,0.1251764
0.7845036,-0.2446396,0.143709
0.8335078,-0.2620905,0.1658748
0.9053189,-0.2562913,0.1879516
0.961907,-0.2423721,0.190384
1.021928,-0.2003612,0.1715614
1.057869,-0.1546696,0.1667222
1.057226,-0.1449553,0.1835992
1.100523,-0.1526357,0.1904349
1.205347,-0.1854951,0.1698971
1.281385,-0.3008462,0.1444014
1.310389,-0.4011594,0.141875
1.263751,-0.3930893,0.112645
1.122303,-0.4168929,0.05803812
1.027329,-0.4950161,0.06563263
1.029726,-0.4771177,0.06456042
1.044623,-0.4486408,-0.03647708
1.042023,-0.4698813,-0.1351784
1.033134,-0.4233741,-0.1287468
1.032662,-0.3674608,-0.06798759
1.012043,-0.3098139,-0.04618963
0.9705946,-0.2107571,-0.0369525
0.9385767,-0.1520162,-0.01124175
0.9162971,-0.1250243,-0.01907906
0.9055038,-0.1173483,-0.04064948
0.8787557,-0.09615874,-0.05668433
0.8592956,-0.08483734,-0.07965051
0.8382706,-0.1162518,-0.0826664
0.7882946,-0.1096688,-0.07696655
0.7843072,-0.1460547,-0.08073203
0.7909481,-0.1818226,-0.0916148
0.8042909,-0.1551919,-0.1243694
0.8513195,-0.1616131,-0.1627226
0.8538217,-0.1022006,-0.1752587
0.8755112,-0.04210586,-0.1777588
0.9334802,-0.03570195,-0.1853336
0.97302,0.02133657,-0.1861041
1.015797,0.03595512,-0.1923521
1.030678,0.009286454,-0.1827273
1.043295,-0.01998538,-0.135619
1.0627,-0.05497362,-0.1059496
1.08144,-0.07762619,-0.1051898
1.152986,-0.1165621,-0.1118782
1.222662,-0.1485678,-0.1394652
1.30822,-0.2087427,-0.1954181
1.45771,-0.2670324,-0.2482446
1.519182,-0.2623884,-0.2517796
1.439359,-0.2780151,-0.249352
1.343024,-0.3069564,-0.2861628
1.277091,-0.3189033,-0.3096973
1.207088,-0.3512686,-0.2642558
1.112283,-0.4027224,-0.160374
1.013724,-0.4308293,-0.06979957
0.9636097,-0.4064437,-0.01391248
0.9529572,-0.3651364,0.01356554
0.9377387,-0.3128929,0.01305385
0.9305712,-0.257361,0.01548065
0.8897121,-0.2373198,0.005579438
0.80229,-0.237323,0.001561713
0.7573952,-0.2661728,0.01284789
0.7462019,-0.3077738,0.01268603
0.755207,-0.3010568,0.0448691
0.7866901,-0.2832361,0.06969402
0.7820731,-0.2642538,0.06030994
0.7444136,-0.1951032,0.08025317
0.698087,-0.1357439,0.1056697
0.6901963,-0.1190118,0.111264
0.7251103,-0.1100499,0.1164799
0.7415761,-0.1582983,0.1287143
0.7700419,-0.2442384,0.1434599
0.821429,-0.2595188,0.1601233
0.8951783,-0.2326869,0.1666505
0.9924174,-0.2131022,0.1552113
1.052513,-0.1632739,0.1606737
1.094335,-0.1283389,0.1647799
1.100503,-0.1473566,0.1715046
1.060247,-0.1610366,0.1878631
1.085604,-0.2252358,0.1372215
1.211996,-0.4202982,0.08653803
1.379387,-0.6113168,0.1056639
1.390251,-0.633196,0.1036967
1.173537,-0.5352533,0.07744373
0.9895924,-0.4585895,0.0765926
0.9581996,-0.4107614,0.03474967
1.001478,-0.3758128,-0.08329676
1.026226,-0.4029871,-0.1677393
1.011285,-0.4447371,-0.1642831
0.9928433,-0.4515499,-0.1036796
0.9308364,-0.4283258,-0.0223159
0.9282951,-0.3403543,-0.0007444365
0.9759693,-0.2490035,-0.02015332
0.9493187,-0.2210008,-0.03149371
0.9597481,-0.1678913,-0.0751599
0.9425057,-0.07826705,-0.1169356
0.8647687,-0.04724409,-0.1145868
0.835901,-0.05091151,-0.1036587
0.8004781,-0.06882879,-0.09175423
0.8041544,-0.1386469,-0.07194784
0.8229022,-0.188707,-0.07161946
0.8184174,-0.1958324,-0.0926684
0.8516251,-0.1877001,-0.1172156
0.8596667,-0.1240424,-0.1649627
0.885938,-0.03145545,-0.210345
0.9435756,0.04415646,-0.2098008
0.9615168,0.07019252,-0.1831527
0.9828994,0.06124958,-0.147633
1.012183,0.06807913,-0.1309736
1.03677,0.0583785,-0.1379399
1.042282,0.04444671,-0.1376039
1.048772,0.01722783,-0.1512833
1.091142,-0.05219352,-0.1787837
1.143353,-0.110879,-0.1957922
1.269891,-0.2084232,-0.2200928
1.429213,-0.323437,-0.2417819
1.440151,-0.3029898,-0.2304907
1.370756,-0.1991397,-0.2034873
1.354541,-0.1651373,-0.1927394
1.328751,-0.2056766,-0.194446
1.281186,-0.2753088,-0.1810268
1.242821,-0.3657221,-0.1184471
1.173216,-0.4529037,-0.02678444
1.109686,-0.4788867,0.01664713
1.015722,-0.4137908,0.0321002
0.8686301,-0.3565123,0.0827273
0.8741141,-0.3563477,0.1014114
0.9699453,-0.3336594,0.04647055
0.9585426,-0.2931348,-0.009632325
0.9268438,-0.2762683,-0.04177626
0.8319253,-0.3246899,-0.03508122
0.6961619,-0.3834471,-0.00701679
0.7258095,-0.3532043,-0.02448495
0.7629299,-0.3283753,-0.02381019
0.7264006,-0.3047458,-0.003072651
0.7757756,-0.2323102,-0.01895017
0.7950046,-0.2088795,0.007329296
0.769813,-0.198254,0.05936111
0.8012332,-0.1707297,0.09883156
0.8081848,-0.1662871,0.1188279
0.826244,-0.1492415,0.09818608
0.8539391,-0.1496332,0.1130565
0.8477087,-0.1820562,0.137431
0.872813,-0.2103995,0.1517145
0.8810447,-0.2522657,0.1976321
0.8828114,-0.2635658,0.2059237
0.8974187,-0.2183357,0.1892776
0.8816592,-0.1650773,0.1705185
0.9037394,-0.1043993,0.1426664
0.9624631,-0.08014157,0.1515337
1.061475,-0.09673825,0.1806896
1.174846,-0.08599539,0.2020312
1.222638,-0.09926711,0.1863433
1.304921,-0.2053645,0.1554364
1.437616,-0.4032765,0.1611906
1.495331,-0.545066,0.1586624
1.383288,-0.4899545,0.1342535
1.145052,-0.435921,0.1057763
0.9802445,-0.4457898,0.07425954
0.9346371,-0.3822189,0.03713191
0.9633865,-0.4040783,-0.04873025
1.005376,-0.4879285,-0.1475658
1.007236,-0.4620448,-0.1795757
1.021253,-0.4387703,-0.165818
1.000563,-0.391383,-0.1572036
0.979897,-0.2968238,-0.1452261
1.013429,-0.2474091,-0.1103994
1.010313,-0.2052322,-0.09394063
1.001264,-0.1934405,-0.109384
0.9634046,-0.1670429,-0.1180803
0.896898,-0.1242652,-0.1231402
0.880119,-0.1331912,-0.1276786
0.8425827,-0.1003859,-0.1266446
0.8020364,-0.08622419,-0.1258521
0.801955,-0.1179116,-0.1139598
0.8020278,-0.1107274,-0.09696624
0.8158785,-0.116839,-0.09835376
0.8598023,-0.11154,-0.125172
0.9173641,-0.08208014,-0.1608565
0.9428939,-0.04005301,-0.1846952
0.9437235,0.03000746,-0.1948802
0.965689,0.07267708,-0.1925085
1.008133,0.0831789,-0.165788
1.042294,0.07038347,-0.1171462
1.046658,0.05097124,-0.07719528
1.057179,0.02389317,-0.05441228
1.110112,-0.03694732,-0.04687592
1.202637,-0.09804544,-0.07348984
1.29178,-0.1762861,-0.1304044
1.350309,-0.2522368,-0.1999687
1.436056,-0.275991,-0.2491821
1.498904,-0.2916963,-0.2519589
1.438603,-0.3320957,-0.2487818
1.367392,-0.3937952,-0.2603711
1.354524,-0.4189653,-0.2597022
1.28874,-0.4060552,-0.2339454
1.187791,-0.400987,-0.1715903
1.093066,-0.3525137,-0.0892358
0.9543779,-0.290274,-0.03108063
0.8605574,-0.2446789,-0.02265543
0.8613162,-0.2026907,-0.0450052
0.8799551,-0.2262894,-0.05106706
0.8866226,-0.270276,-0.04671032
0.8473614,-0.3178153,-0.03779989
0.7762786,-0.379516,-0.004687284
0.7119994,-0.3672532,0.02498414
0.6882341,-0.3311185,0.04449327
0.7329971,-0.2976388,0.05134881
0.7579322,-0.2328998,0.044773
0.7399731,-0.1867918,0.06553482
0.746889,-0.1375452,0.08656104
0.7769408,-0.1115118,0.08958682
0.8038849,-0.1473418,0.1055729
0.8061686,-0.193796,0.1143591
0.8161421,-0.2549646,0.1240196
0.8493856,-0.2968112,0.1412178
0.8709639,-0.2828566,0.133169
0.9159109,-0.2488081,0.1261399
0.9899128,-0.2073806,0.1413358
1.030378,-0.1901843,0.1588127
1.042039,-0.19332,0.1808617
1.061586,-0.1625618,0.1919711
1.072194,-0.1373719,0.1744008
1.101433,-0.1990723,0.1429513
1.257137,-0.3481542,0.1037244
1.434496,-0.4760364,0.09277782
1.359108,-0.4692875,0.11336
1.117826,-0.4264524,0.1101107
0.9947731,-0.462946,0.1014271
1.019651,-0.4833796,0.06308041
1.085438,-0.4978585,-0.03883255
1.080908,-0.5338131,-0.1085974
1.053937,-0.4864679,-0.1288346
1.0364,-0.4078613,-0.1266548
0.9324099,-0.3073429,-0.08506895
0.8902285,-0.1693151,-0.04867263
0.9204684,-0.1238044,-0.04077088
0.9076296,-0.1415918,-0.05771114
0.9383208,-0.1551293,-0.08409532
0.935396,-0.163364,-0.08971738
0.9114754,-0.1479481,-0.08928419
0.9212962,-0.1387155,-0.08595879
0.8895045,-0.1341372,-0.08961964
0.8805291,-0.1478347,-0.109859
0.8533321,-0.1693515,-0.1305255
0.8210394,-0.1623432,-0.147266
0.8545283,-0.1505609,-0.1457205
0.8715111,-0.1041072,-0.1496253
0.8941634,-0.05320027,-0.1600807
0.9158498,-0.06570018,-0.1593578
0.9249959,-0.06472582,-0.1812831
0.959545,-0.0007998452,-0.1885795
0.9790294,0.04500465,-0.1745051
1.002967,0.03239955,-0.1719885
1.013855,0.003439326,-0.139712
1.002515,-0.03510766,-0.1058404
1.047475,-0.06998388,-0.1066418
1.131467,-0.1002158,-0.1200151
1.233297,-0.1721655,-0.1487876
1.350601,-0.2485955,-0.2017112
1.447373,-0.2711393,-0.2750184
1.48841,-0.2625589,-0.3078582
1.419004,-0.2850918,-0.2769371
1.310328,-0.3444243,-0.2620499
1.260032,-0.3944778,-0.271386
1.20094,-0.4316554,-0.2412308
1.115998,-0.4472902,-0.1767966
1.05986,-0.4332702,-0.1156491
1.003974,-0.3782994,-0.04946572
0.9375059,-0.2941552,0.004675568
0.9338089,-0.2517269,0.003054995
0.9642285,-0.2202467,-0.01303884
0.9238755,-0.1922412,-0.003432348
0.868797,-0.2222697,-0.002659875
0.8111143,-0.2473259,-0.006624328
0.7232223,-0.2683049,0.005971275
0.7193097,-0.3166399,0.01941875
0.7615103,-0.3323562,0.03439145
0.776297,-0.3241009,0.0356894
