accx,accy,accz
0.7816301,-0.2894812,-0.1838872
0.8212168,-0.3308242,-0.1906134
0.8892425,-0.3128848,-0.1731091
1.011193,-0.2628799,-0.1708229
1.030869,-0.1645246,-0.1650745
1.032385,-0.01930247,-0.163363
1.016912,0.09792022,-0.1407819
1.005855,0.1163016,-0.1125361
1.029977,0.07693756,-0.1039949
1.051773,0.03980931,-0.09050843
1.082221,-0.09062749,-0.09422846
1.115903,-0.2471486,-0.09180942
1.217215,-0.3369064,-0.1139423
1.395937,-0.4647811,-0.1937342
1.59132,-0.5215049,-0.2432722
1.673177,-0.4885997,-0.2285556
1.512763,-0.5385298,-0.1460932
1.238089,-0.6065306,-0.07376276
1.022544,-0.6069232,-0.1091685
1.001971,-0.5211462,-0.1628443
1.11823,-0.3945851,-0.1580186
1.11062,-0.2983416,-0.106091
1.024119,-0.1872379,-0.004915704
0.9447107,-0.1177756,0.05863809
0.8474118,-0.1507774,0.01092616
0.8062615,-0.1877665,-0.04350399
0.7674904,-0.211942,-0.05289367
0.7304676,-0.2644068,-0.04697532
0.7133279,-0.2889634,-0.01436774
0.6421975,-0.2757242,-0.005167941
0.5904875,-0.2781109,0.01058585
0.5905036,-0.2560447,0.04787329
0.6474149,-0.1471008,0.02567954
0.7304822,-0.01031933,0.02393458
0.7609978,0.003237667,0.04479459
0.8153441,-0.06120073,0.04580296
0.890638,-0.07262775,0.09404239
0.915786,-0.1212228,0.1200078
0.9025442,-0.1641459,0.1229367
0.9293735,-0.1480305,0.1575728
0.9961681,-0.1667499,0.1556598
0.9957166,-0.1207303,0.1377577
1.031662,-0.04928772,0.1442012
1.122715,-0.03168406,0.1582616
1.213835,0.01481014,0.1709701
1.403231,0.002223062,0.1498438
1.573769,-0.1057311,0.09033646
1.64168,-0.2724216,0.04003167
1.59353,-0.4132052,0.03130193
1.351768,-0.4175918,0.03175706
1.009268,-0.3926127,0.02124792
0.7415465,-0.3871699,0.04154689
0.7479153,-0.4158996,0.06545206
0.9328953,-0.4621223,0.0202003
1.060447,-0.4120111,-0.06147063
1.108854,-0.3420294,-0.1220044
1.006336,-0.2620098,-0.1420068
0.8849899,-0.1512334,-0.1088317
0.8193956,-0.0777296,-0.06813952
0.6599803,0.01885513,-0.0445516
0.589321,0.06966866,-0.0317459
0.6363422,0.007498973,-0.05315178
0.6603605,-0.07182436,-0.08305438
0.7342701,-0.1861118,-0.1208643
0.821489,-0.3097174,-0.1749726
0.8751227,-0.34022,-0.1963841
0.9305291,-0.3196908,-0.2016631
0.9936426,-0.2802871,-0.2073486
1.02233,-0.1935326,-0.1923973
1.007114,-0.1152034,-0.1670893
0.9943539,-0.05705313,-0.1407302
0.9717978,0.003753723,-0.1323364
0.9960639,0.02246785,-0.1336936
1.064468,0.02181281,-0.1206251
1.099579,0.02345039,-0.1132045
1.150155,-0.01818784,-0.1154516
1.228882,-0.1406945,-0.1194111
1.355595,-0.3571779,-0.150511
1.495917,-0.5336071,-0.2178047
1.532283,-0.5377406,-0.2587125
1.519475,-0.497243,-0.2362916
1.512196,-0.5328995,-0.2187216
1.443265,-0.5793672,-0.2236001
1.266712,-0.5936928,-0.2109953
1.073692,-0.5330321,-0.1938627
1.031225,-0.4111733,-0.1477616
1.070439,-0.3767146,-0.04666213
1.025789,-0.3722811,0.0565661
0.947365,-0.2880846,0.08693194
0.8992339,-0.2125059,0.005628646
0.8580137,-0.1524397,-0.08199833
0.8144132,-0.1265622,-0.07826458
0.7433161,-0.1604643,-0.04802913
0.6709693,-0.1882273,-0.02030461
0.6270495,-0.2451343,0.01071808
0.5818595,-0.2854149,0.02986738
0.5889804,-0.2200274,0.04378838
0.6386741,-0.1202807,0.04744568
0.6674853,-0.04688862,0.05998925
0.7332802,-0.01572852,0.07643439
0.7979317,-0.01221163,0.09162777
0.8188847,-0.03446374,0.1260191
0.8596575,-0.1066391,0.1495217
0.9107252,-0.1598941,0.1705512
0.9773165,-0.1567733,0.1896952
1.048835,-0.1417143,0.1876833
1.088028,-0.1028786,0.1977969
1.134514,-0.03151875,0.1995683
1.204845,0.01884678,0.1775901
1.318963,-0.009402066,0.1379215
1.498443,-0.1528693,0.09373847
1.647423,-0.3546741,0.113809
1.615512,-0.429448,0.1431483
1.352023,-0.3530914,0.1150062
0.9725806,-0.3184691,0.0971663
0.7353514,-0.3291706,0.07243542
0.7877539,-0.36331,0.03530571
0.9417292,-0.4655231,0.02337977
1.069257,-0.4552115,-0.03717887
1.144058,-0.3586488,-0.1137259
1.024107,-0.3134506,-0.1147566
0.8647938,-0.2174548,-0.0820978
0.7842425,-0.1312763,-0.04556681
0.6735243,-0.09005451,-0.02986097
0.6480802,-0.0441528,-0.05588872
0.6669326,-0.04601058,-0.0893249
0.6850604,-0.08908473,-0.1266202
0.7855394,-0.1914978,-0.155505
0.8115897,-0.2567473,-0.1552113
0.8002927,-0.2539441,-0.1479034
0.8470228,-0.2872611,-0.1418868
0.8898911,-0.2613942,-0.1349138
0.9825904,-0.19477,-0.1467951
1.054066,-0.1332587,-0.1675285
1.02881,-0.03815341,-0.1599282
1.009184,0.02776745,-0.141145
1.03154,0.06030667,-0.1211236
1.058816,0.01572119,-0.08201091
1.081789,-0.0550387,-0.05554339
1.092394,-0.06724735,-0.05240769
1.105068,-0.1036553,-0.05964133
1.207138,-0.1527869,-0.08785161
1.357774,-0.2599774,-0.1554122
1.457243,-0.4211561,-0.2606691
1.533797,-0.4913566,-0.313959
1.560431,-0.552183,-0.2609313
1.539862,-0.7033895,-0.1756069
1.470167,-0.8042361,-0.1231183
1.202568,-0.6718422,-0.1185429
0.8843783,-0.4735941,-0.1216651
0.9114993,-0.4223226,-0.08344218
1.087986,-0.3053195,-0.009577109
1.039186,-0.129491,0.07306921
1.026546,-0.1343469,0.07034283
1.043654,-0.1983911,-0.01308768
0.9027156,-0.2050304,-0.05389147
0.8564497,-0.2455708,-0.08308875
0.8098986,-0.2908292,-0.06435425
0.6958572,-0.296846,0.01283871
0.6646368,-0.3287903,2.751309e-05
0.6261924,-0.2867057,0.0002273576
0.5982125,-0.1664443,0.04263429
0.5842229,-0.1225415,0.03994937
0.6014319,-0.08369458,0.079223
0.6403165,-0.02456262,0.1141793
0.6737537,0.03110893,0.126194
0.7662441,0.01938821,0.1451282
0.7770202,-0.08737856,0.1443192
0.7653118,-0.09774148,0.1650872
0.8226036,-0.101664,0.1750678
0.8686874,-0.1092952,0.177323
0.9536575,0.01486314,0.1747496
0.9930708,0.08855901,0.1542367
1.036914,0.08955118,0.1655032
1.173727,0.0620986,0.1564247
1.306265,0.02420099,0.1228614
1.439486,-0.002988163,0.08848381
1.508639,-0.08078123,0.05180898
1.524391,-0.1724246,0.06784446
1.574221,-0.3472276,0.1041943
1.56724,-0.4861529,0.1202597
1.382082,-0.4961058,0.1033986
1.00128,-0.5496909,0.08370527
0.648999,-0.5139959,0.144471
0.5906395,-0.4742857,0.1933892
0.7633082,-0.5808985,0.1222033
1.003663,-0.637959,0.006916019
1.270636,-0.6362528,-0.09777478
1.322852,-0.5256081,-0.1631187
1.089198,-0.3150397,-0.1299088
0.937125,-0.1428992,-0.06139105
0.8614603,-0.004752099,-0.03003367
0.7756331,0.02261045,-0.01067238
0.7703029,-0.04079703,-0.02847482
0.7177082,-0.1122446,-0.06519951
0.6807358,-0.2270869,-0.08671197
0.6379383,-0.3650767,-0.1197498
0.5542898,-0.4225121,-0.1317321
0.6403652,-0.3303754,-0.1563521
0.7491847,-0.2123527,-0.1898176
0.8227765,-0.1369185,-0.1770906
0.947259,-0.07556249,-0.1922939
0.9993034,-0.07310991,-0.2027396
1.005658,-0.05866271,-0.1682712
0.9694691,-0.02740313,-0.1267868
0.9307311,-0.04149597,-0.0658786
0.9982988,-0.03355344,-0.04692966
1.085813,-0.006546244,-0.05962139
1.133743,0.01676581,-0.04595536
1.143124,0.02096023,-0.03708506
1.161164,-0.05395443,-0.02667734
1.263099,-0.170515,-0.02625999
1.442164,-0.2444733,-0.07018633
1.664273,-0.2507736,-0.1295222
1.767065,-0.2629806,-0.1406701
1.616788,-0.4113196,-0.1120878
1.375535,-0.6713903,-0.1115518
1.204631,-0.7848349,-0.1292008
1.122562,-0.6317068,-0.1376775
1.137037,-0.4510959,-0.1321585
1.149078,-0.3524798,-0.1124909
1.103049,-0.2666285,-0.1018975
1.018043,-0.2375281,-0.09082225
0.8677246,-0.1977358,-0.07768612
0.7967385,-0.1880111,-0.07452836
0.7585844,-0.3186773,-0.05090406
0.5898134,-0.399713,-0.006941286
0.557337,-0.4000965,0.005096491
0.6176201,-0.3823099,-0.01265429
0.5419476,-0.3008868,-0.01259032
0.5623495,-0.2366092,-0.01284461
0.6616889,-0.1707079,-0.02010067
0.7388081,-0.06293189,-0.01098321
0.8497457,0.007586787,-0.003789462
0.8724531,-0.02067521,0.03815366
0.8978653,-0.06867189,0.1120478
0.9256001,-0.07442006,0.1415037
0.8557987,-0.1889432,0.1615195
0.8932411,-0.2868491,0.1904269
0.9599446,-0.2289661,0.1729744
0.9793682,-0.1565845,0.1514673
1.038801,-0.03249489,0.1721893
1.022181,0.04495898,0.2090822
1.054417,0.004538064,0.2619107
1.180048,-0.001312146,0.2789366
1.309695,-0.04979232,0.2086289
1.519821,-0.2182043,0.1606549
1.638763,-0.405278,0.1801775
1.585379,-0.4746299,0.1674356
1.397784,-0.4274277,0.09132641
1.070778,-0.3583441,0.01258176
0.8551638,-0.2934008,0.006183785
0.8537386,-0.3118699,0.03692274
0.9443107,-0.3691996,0.02666862
1.036474,-0.3582577,0.003358889
1.047588,-0.3535464,-0.02838204
0.9561823,-0.3379611,-0.06914805
0.814018,-0.2500104,-0.06487003
0.7151999,-0.1381561,-0.04551445
0.6570916,-0.03032736,-0.05153599
0.6318245,0.02085828,-0.0747711
0.6671296,-0.0005974885,-0.1216639
0.6952762,-0.05004796,-0.1497469
0.7205151,-0.1438144,-0.1459265
0.7741216,-0.284531,-0.1542336
0.8306241,-0.4232638,-0.1584914
0.8906265,-0.4403357,-0.1536142
0.9452478,-0.3209794,-0.1542638
0.9886262,-0.238459,-0.1603835
1.007583,-0.1531672,-0.1748063
1.011379,0.02303821,-0.1752674
1.03033,0.1321363,-0.1684614
1.057916,0.1058896,-0.1628117
1.100416,0.03770207,-0.1432426
1.12037,-0.02861052,-0.125419
1.103296,-0.1219421,-0.1128863
1.152253,-0.1995429,-0.1083255
1.297137,-0.2605314,-0.1347287
1.498768,-0.3786005,-0.2085387
1.670661,-0.4238168,-0.3113215
1.669767,-0.3487903,-0.3391876
1.503978,-0.3520128,-0.203856
1.269887,-0.5528148,-0.01978697
1.082679,-0.7722796,0.01596954
1.036581,-0.7041406,-0.06154489
1.060271,-0.5013037,-0.1074817
1.054392,-0.3546049,-0.1082052
0.9579997,-0.1602165,-0.0438467
0.8216473,-0.08010497,0.03693322
0.7876278,-0.1063324,0.003778174
0.8276537,-0.114575,-0.05554648
0.8359548,-0.2260547,-0.06358138
0.7932609,-0.308353,-0.08747373
0.7427088,-0.3101166,-0.06696745
0.6556124,-0.3153975,0.01002514
0.5269635,-0.2742495,0.06601085
0.5358068,-0.229575,0.08061432
0.6522384,-0.1372617,0.05497085
0.7371415,-0.04482053,0.06960109
0.8407703,-0.02880377,0.1060505
0.8954121,0.001925583,0.1173263
0.8848182,-0.01405024,0.1561675
0.9193035,-0.06433957,0.1744704
0.9523651,-0.101444,0.2022762
0.9621758,-0.1252987,0.2227373
0.9798557,-0.07845489,0.1634335
0.9959648,-0.05683542,0.1504283
1.00268,-0.05645832,0.1647681
1.017045,-0.03598805,0.1779168
1.114124,-0.04397793,0.2269875
1.228733,-0.03264569,0.2192516
1.293844,-0.0284059,0.1788774
1.406381,-0.05563,0.1336503
1.498152,-0.1853534,0.1093316
1.534149,-0.4218924,0.1355316
1.516067,-0.4915277,0.1273646
1.214278,-0.4175782,0.1071511
0.8376392,-0.400494,0.09676982
0.8172264,-0.3829066,0.08170041
0.903184,-0.3994745,0.0729734
0.9429247,-0.4591515,0.02509055
1.144444,-0.4290223,-0.03627431
1.20936,-0.3669203,-0.09758078
1.026982,-0.2952486,-0.1430733
0.9421112,-0.1788973,-0.1015548
0.8644482,-0.1349289,-0.04795587
0.7217299,-0.1056227,-0.03984119
0.6654111,-0.05893199,-0.032343
0.6576601,-0.1054565,-0.05352008
0.6818876,-0.14239,-0.09866237
0.7066665,-0.1861762,-0.1222436
0.731113,-0.2721557,-0.1389379
0.7667164,-0.26731,-0.1525393
0.7789125,-0.2395197,-0.1598192
0.8294374,-0.2121877,-0.1626807
0.8729239,-0.1476654,-0.1625985
0.9202995,-0.08746718,-0.1722716
0.9977817,-0.02657495,-0.1725551
1.00039,-0.02657833,-0.1628362
1.009526,-0.04951401,-0.1444723
1.038684,-0.04160515,-0.1039292
1.042021,-0.05952812,-0.08247431
1.071504,-0.0545759,-0.07823635
1.069233,-0.03428443,-0.07472338
1.088825,-0.02198432,-0.100161
1.207954,0.01042533,-0.1162346
1.365496,0.0002141135,-0.09393968
1.511246,-0.07622308,-0.08433025
1.547788,-0.1987773,-0.1228102
1.477388,-0.3187202,-0.1566267
1.399437,-0.4401756,-0.1172443
1.280449,-0.6383802,-0.05544131
1.132402,-0.7288073,-0.0389324
1.082728,-0.5620502,-0.05470749
1.123521,-0.3905191,-0.07067121
1.115469,-0.3317166,-0.04904803
1.015954,-0.2802329,0.009138877
0.9056648,-0.293388,0.06167668
0.8831502,-0.3563748,0.04895526
0.9706714,-0.3861374,-0.0462185
1.024098,-0.4447716,-0.1330732
0.9427625,-0.4783649,-0.15199
0.8257984,-0.4491866,-0.1133535
0.7315463,-0.4459895,-0.0614017
0.6614714,-0.4115021,-0.04385253
0.6450276,-0.3328264,-0.03908216
0.6489228,-0.2579378,-0.04447524
0.6446835,-0.1754116,-0.03366255
0.6472315,-0.1345703,0.01673746
0.6694188,-0.1010504,0.0538568
0.7320604,-0.04944824,0.07747515
0.822857,-0.0500546,0.08369696
0.8952611,-0.08246659,0.1037882
0.9319208,-0.1191957,0.1597773
0.956882,-0.1384845,0.1811669
0.9761835,-0.1188968,0.1836644
0.9763887,-0.07785358,0.1868262
0.9814988,-0.02663554,0.1943975
1.004532,-0.01362256,0.2103134
1.063471,-0.01229946,0.2160269
1.206228,0.03298458,0.2449294
1.376588,0.02588637,0.2380229
1.471564,-0.06700109,0.1663573
1.489972,-0.1757669,0.1198769
1.521397,-0.3440847,0.1177674
1.57656,-0.5375921,0.1027313
1.444817,-0.5326821,0.02079894
1.117451,-0.377917,-0.0344257
0.9012705,-0.326456,-0.01390851
0.8840982,-0.3255608,-0.007283101
0.9883885,-0.3667282,-0.004715539
1.101365,-0.4872908,-0.03261268
1.10146,-0.4819176,-0.102852
1.022744,-0.4110169,-0.1312698
0.8841779,-0.3295632,-0.1183178
0.7380947,-0.1532746,-0.09016704
0.6398497,-0.05075036,-0.07094001
0.5724116,-0.002246885,-0.06805692
0.5871359,0.0237061,-0.07681236
0.6348891,-0.07189773,-0.1099755
0.7019452,-0.1945822,-0.1534339
0.8133848,-0.2971199,-0.1928342
0.8776259,-0.3257316,-0.1963194
0.9348704,-0.2672225,-0.1768154
0.9944711,-0.1988289,-0.1682945
0.9976693,-0.1045466,-0.1531598
0.9860338,-0.02038175,-0.1363308
0.9796498,0.02684149,-0.1068074
1.00601,0.04287252,-0.07755944
1.084401,0.012149,-0.06919199
1.178501,-0.02645477,-0.05996734
1.216527,-0.06240022,-0.06055936
1.220359,-0.1128303,-0.06005765
1.29827,-0.1762097,-0.07662119
1.436427,-0.26841,-0.1584445
1.616467,-0.3703962,-0.2831278
1.699526,-0.3942749,-0.3360485
1.499985,-0.4159047,-0.1898257
1.181403,-0.5610288,0.008633355
0.9512062,-0.6377758,0.0266373
0.9501426,-0.5224009,-0.08842021
1.123406,-0.3631333,-0.205382
1.159275,-0.2464489,-0.2277077
1.07058,-0.1989872,-0.1221436
0.9185364,-0.2058556,0.005472522
0.743966,-0.2153263,0.03984685
0.768115,-0.2209633,-0.03236859
0.8308629,-0.2572209,-0.11291
0.7869979,-0.3229019,-0.1208459
0.7202792,-0.3518142,-0.06864853
0.5908627,-0.3375035,0.007764229
0.5412118,-0.2815354,0.0380218
0.61675,-0.172598,0.01015359
0.687893,-0.07168103,-6.905503e-05
0.8069077,-0.02840128,0.0132
0.8904091,-0.04530493,0.04358833
0.8553249,-0.08491019,0.09856895
0.8549962,-0.1118238,0.1240481
0.897825,-0.1075639,0.1401279
0.9573348,-0.08142271,0.1858715
1.086878,-0.059854,0.1846578
1.169706,-0.01650701,0.1647869
1.182243,0.00404439,0.2026205
1.214362,-0.01995019,0.2319809
1.247702,-0.01901298,0.2469536
1.364564,-0.05529231,0.2350015
1.581318,-0.1337069,0.1656897
1.673315,-0.1692453,0.1417014
1.509011,-0.2419188,0.117888
1.213898,-0.3841492,0.03895488
1.007531,-0.4347578,0.01438251
0.958302,-0.3640262,0.002871101
0.9248442,-0.3486752,-0.04581355
0.8798503,-0.3842872,-0.0572497
0.9619002,-0.3695148,-0.03459066
1.029283,-0.3584738,-0.0430989
0.994222,-0.3367999,-0.08223776
0.980029,-0.2808837,-0.1022139
0.8604274,-0.211296,-0.08921511
0.7162649,-0.117916,-0.057848
0.6560288,-0.07166187,-0.05150989
0.5940975,-0.07225933,-0.06124449
0.6504254,-0.08836693,-0.06386504
0.7139795,-0.1429286,-0.1027172
0.7399425,-0.1984889,-0.1340505
0.8307215,-0.260574,-0.1429843
0.8853792,-0.3183741,-0.1594347
0.9507583,-0.3126637,-0.14131
0.9810264,-0.23404,-0.1129809
0.9885526,-0.1168923,-0.09939597
1.039982,-0.02254841,-0.09601023
1.032911,0.04975484,-0.0941226
1.090437,0.07364992,-0.07305293
1.190278,0.02375401,-0.06418059
1.232797,-0.01617879,-0.05655127
1.289476,-0.07037248,-0.04575586
1.333535,-0.1942697,-0.0797275
1.435253,-0.3250381,-0.149971
1.577299,-0.3922055,-0.2259035
1.612203,-0.3749849,-0.2464923
1.484061,-0.4008821,-0.1473572
1.241075,-0.5326577,-0.02054132
1.105429,-0.5914275,-0.02386704
1.120984,-0.5074693,-0.1166888
1.132371,-0.4059058,-0.1443811
1.062506,-0.3494172,-0.05511091
0.9105373,-0.244156,0.06782654
0.794951,-0.1013853,0.08244027
0.7912637,-0.08880832,0.03207344
0.8127647,-0.1325883,0.00619457
0.7501084,-0.1564724,-0.04229975
0.6600384,-0.2391285,-0.02754119
0.630935,-0.2715515,0.03542367
0.6104411,-0.2288171,0.0171801
0.6057524,-0.1972613,0.02274506
0.6260547,-0.1523559,0.04979762
0.687063,-0.108351,0.05267118
0.7861941,-0.06886233,0.09984105
0.8105144,-0.05134488,0.1129703
0.8434563,-0.07539086,0.104448
0.9462196,-0.0886548,0.1295258
1.004117,-0.1202352,0.122735
1.03281,-0.160854,0.1154705
1.064824,-0.1399977,0.1188447
1.107025,-0.1031799,0.1052169
1.175725,-0.05388709,0.1107558
1.236586,0.005795436,0.1388879
1.27248,0.007530133,0.1690598
1.299548,-0.005871578,0.1605781
1.370176,-0.0471391,0.0896883
1.47135,-0.1481431,0.0274308
1.482959,-0.2175975,0.03783983
1.405198,-0.3058355,0.05685143
1.278627,-0.4276565,0.02866355
1.096139,-0.4140165,0.02065198
0.9968509,-0.3639207,0.04057073
0.9606442,-0.4454526,0.05766682
0.9288423,-0.4794636,0.08432116
1.046064,-0.4345238,0.05067776
1.100295,-0.4257753,-0.03296741
0.9997661,-0.3458542,-0.0640298
0.9296996,-0.2475565,-0.05347996
0.7855442,-0.1958813,-0.02666978
0.6893083,-0.09821136,-0.01456962
0.6932575,-0.01752328,-0.04990458
0.6566552,0.001693806,-0.08951969
0.680501,-0.04917086,-0.1025427
0.690972,-0.1494248,-0.1020548
0.717436,-0.2249962,-0.1154269
0.8323211,-0.2752836,-0.134191
0.9077131,-0.2673356,-0.1363476
0.9596302,-0.2341305,-0.1169839
0.9817638,-0.2092765,-0.08486814
1.013628,-0.138961,-0.08497227
1.041193,-0.06099418,-0.08320418
1.01071,-0.006050537,-0.05088027
1.032828,0.007948689,-0.03857112
1.073072,-0.02231004,-0.02818938
1.129988,-0.04857414,-0.02115241
1.195465,-0.08291099,-0.01643921
1.182217,-0.1330752,0.002762128
1.23278,-0.2274495,-0.03969426
1.43008,-0.4063881,-0.1471157
1.644603,-0.5356124,-0.2138884
1.669241,-0.4873347,-0.1646867
1.495156,-0.4330026,-0.07205294
1.307693,-0.4843685,-0.06415686
1.112403,-0.4521093,-0.108099
1.046282,-0.3532907,-0.1599306
1.164387,-0.3102644,-0.1835586
1.15549,-0.2840007,-0.1097906
1.002093,-0.300006,-0.005948325
0.8181414,-0.2680782,0.04811633
0.7083872,-0.1986703,0.02154195
0.7760665,-0.229216,-0.0400821
0.7750516,-0.2437396,-0.04849315
0.7035834,-0.2745817,-0.0449603
0.7039372,-0.3603419,-0.02660428
0.6541785,-0.3590047,0.006906023
0.6496498,-0.2986325,0.01049895
0.7082115,-0.2018907,0.02468187
0.7334798,-0.1010191,0.03212542
0.7772987,-0.06955258,0.0515537
0.7813334,-0.08585234,0.0981868
0.7885431,-0.1058764,0.1215162
0.8510396,-0.1093522,0.1381608
0.9050299,-0.1282714,0.1246995
0.9822181,-0.1400697,0.1060817
1.034617,-0.1353746,0.1136283
1.042532,-0.1357193,0.1183572
1.048888,-0.09871198,0.1538204
1.040345,-0.05721888,0.1858833
1.08201,-0.03130054,0.189845
1.187158,-0.03952748,0.1762976
1.364492,-0.1481571,0.1111458
1.624671,-0.2947603,0.04857066
0.9672772,-0.2065896,0.1416268
0.9980011,-0.2276775,0.2257182
1.13032,-0.2088763,0.253011
1.204674,-0.1036594,0.2574634
1.293014,0.0001776412,0.2680086
1.375553,0.1053174,0.2436886
1.44638,0.1511724,0.1840496
1.592748,0.05112632,0.1215302
1.575204,-0.18149,0.1542921
1.489504,-0.3956749,0.1782205
1.330777,-0.3960796,0.09716334
0.9303484,-0.2943811,-0.0002693509
0.6658177,-0.2799839,-0.05671997
0.7566791,-0.3246266,-0.02989563
0.9629687,-0.3852514,-0.004139525
1.129419,-0.4275518,-0.05987068
1.213135,-0.401573,-0.1131297
1.102049,-0.3428195,-0.1521362
0.9503846,-0.2828445,-0.1557707
0.8831764,-0.1858128,-0.08133404
0.703617,-0.09526607,-0.03603371
0.6203014,-0.09291196,-0.060092
0.6485299,-0.08041238,-0.08921608
0.571782,-0.001674816,-0.1046096
0.6619461,-0.05787372,-0.1113704
0.7633742,-0.2011437,-0.1380045
0.769735,-0.2323339,-0.1701071
0.8805173,-0.2748665,-0.1779905
0.8861525,-0.2907523,-0.1809507
0.9000866,-0.207935,-0.1809541
0.9791287,-0.1446864,-0.1722615
1.001727,-0.02568038,-0.1552457
1.087813,0.0755977,-0.1400792
1.121226,0.08208718,-0.1335627
1.186526,0.07530909,-0.130002
1.338085,-0.03801187,-0.1396059
1.43464,-0.233467,-0.1795066
1.584878,-0.3864673,-0.2679527
1.67358,-0.4077662,-0.3450522
1.60422,-0.3885885,-0.2858771
1.40849,-0.5665385,-0.122175
1.084587,-0.803308,-0.03200925
0.9121932,-0.8515622,-0.06604691
0.9820317,-0.6930692,-0.1091381
1.033719,-0.4567431,-0.07823522
0.9936671,-0.2653553,0.007008683
0.9266542,-0.1165668,0.09517464
0.8158996,-0.05929291,0.0998476
0.7912115,-0.02869657,-0.003317729
0.847865,0.001553237,-0.07238261
0.7568927,-0.07542568,-0.07186294
0.6561468,-0.1409308,-0.05336163
0.6146806,-0.1590656,-0.0015097
0.5563116,-0.1609087,0.03517592
0.5787384,-0.1212404,0.07205553
0.6165627,-0.09924316,0.09186854
0.7074957,-0.06540404,0.07427212
0.8329109,-0.03835908,0.1053336
0.8793546,-0.02982494,0.1132652
0.9389933,-0.01608332,0.1122229
0.9530783,-0.05104136,0.1546482
0.9790387,-0.08147702,0.1734883
1.097609,-0.0892059,0.2119342
1.169572,-0.06117776,0.2420439
1.219115,0.03022911,0.2448631
1.281858,0.0979674,0.2299646
1.373929,0.09146308,0.1510977
1.498497,-0.07036771,0.1077562
1.567349,-0.2934799,0.1525972
1.495255,-0.3420684,0.1868862
1.234026,-0.3233799,0.1154
0.9437136,-0.3291477,-0.003768829
0.8428199,-0.2917026,-0.07250277
0.9571462,-0.3235511,-0.1278556
1.096634,-0.4032284,-0.1314501
1.155926,-0.4157111,-0.1050039
1.174332,-0.4326606,-0.1231831
1.028293,-0.4049779,-0.1105059
0.8228358,-0.2987426,-0.08049361
0.7038097,-0.2115662,-0.05256229
0.5951633,-0.09777476,-0.03337904
0.5826522,0.007287639,-0.06126455
0.5902415,0.03181782,-0.07161857
0.5952329,0.02209766,-0.08928064
0.6976629,-0.05053612,-0.1438212
0.7748569,-0.1772409,-0.1795796
0.817616,-0.2798623,-0.1891197
0.8394632,-0.3239492,-0.1674554
0.8858424,-0.3300966,-0.1512203
0.9768115,-0.2758793,-0.1409725
1.040642,-0.1253078,-0.1127189
1.113846,-0.01328536,-0.09853642
1.112193,0.0242838,-0.08063896
1.099154,0.07520869,-0.07177675
1.15554,0.07945789,-0.08611037
1.195319,-0.002829532,-0.09675212
1.337737,-0.160726,-0.1187453
1.481219,-0.3754916,-0.1707094
1.521087,-0.531942,-0.2718772
1.581182,-0.542843,-0.3297643
1.551882,-0.5353902,-0.2424753
1.382086,-0.6491465,-0.1064268
1.143982,-0.7338107,-0.0396458
1.00936,-0.6425937,-0.0840835
1.083642,-0.4781459,-0.1569843
1.095651,-0.3584634,-0.1546688
1.026241,-0.2269272,-0.1204992
0.9846896,-0.04006919,-0.02120643
0.8431408,-0.007306626,0.09446137
0.7480889,-0.1259426,0.02074416
0.75929,-0.1640501,-0.08374812
0.7171845,-0.2380864,-0.03622075
0.6888015,-0.3462792,-0.008502784
0.6546788,-0.3123541,-0.0008970113
0.5959611,-0.2501582,0.03878439
0.6182107,-0.14679,0.02951913
0.6690094,-0.01477949,0.04389572
0.7375352,-0.001511405,0.0824447
0.8117878,-0.01124636,0.1027104
0.8222688,-0.0392834,0.1352226
0.8253577,-0.1023973,0.1285575
0.8315819,-0.1267817,0.1297618
0.8505138,-0.1504825,0.1571486
0.9407023,-0.1527975,0.1520265
1.046489,-0.1431317,0.1579336
1.138913,-0.1264378,0.1600096
1.270962,-0.06629971,0.1584023
1.375191,-0.004521126,0.1589816
1.368461,0.03169654,0.1227922
1.426391,-0.007898642,0.1125133
1.618481,-0.1470045,0.1641925
1.641327,-0.3714169,0.2071058
1.347216,-0.5159224,0.1444108
0.9522935,-0.4473538,0.04262953
0.8190823,-0.4374204,0.01431532
1.015948,-0.5033533,-0.02816059
1.184713,-0.462948,-0.07080095
1.210312,-0.4634713,-0.08038887
1.129004,-0.4260853,-0.1095781
0.9387525,-0.2870015,-0.06807002
0.8602642,-0.2197394,-0.02212482
0.7861586,-0.1258834,-0.05806901
0.6043894,0.01040677,-0.07520331
0.6149647,0.01988218,-0.1069004
0.6905222,-0.0516473,-0.1419779
0.6572564,-0.1229483,-0.1256051
0.6985408,-0.2278662,-0.1313827
0.7221986,-0.2968965,-0.141046
0.7076748,-0.2931333,-0.1376126
0.7972614,-0.2993383,-0.1641628
0.8596625,-0.2328605,-0.182659
0.8971852,-0.1172028,-0.1685939
0.9772645,-0.01589858,-0.1537342
0.9618313,0.09090897,-0.1391116
0.9332608,0.07931531,-0.09806098
1.022402,0.09212964,-0.06452177
1.147099,0.1072478,-0.07725281
1.248239,0.000715386,-0.08364784
1.274333,0.002763106,-0.06435121
1.295515,-0.05118265,-0.05780303
1.440766,-0.1735791,-0.05576172
1.584884,-0.2161825,-0.08520534
1.594247,-0.3626575,-0.1954863
1.480615,-0.4667816,-0.2701169
1.285835,-0.5263062,-0.1413689
1.095831,-0.6899828,0.06804332
0.963638,-0.7795237,0.1003304
0.9168516,-0.6181551,0.00113171
0.9410958,-0.2854936,-0.08230241
0.976412,-0.09015519,-0.1300839
1.008576,-0.0526757,-0.1043884
1.018624,-0.1358332,-0.08649812
1.014099,-0.3371664,-0.1460065
0.9674911,-0.4538824,-0.1676885
0.8241245,-0.500866,-0.1339053
0.6608651,-0.4645175,-0.08148978
0.5462579,-0.3745149,-0.02293679
0.5117851,-0.2747124,0.002474895
0.555379,-0.04851571,0.007163197
0.6033294,0.1150574,0.01083792
0.6639233,0.1776813,0.03264232
0.7249534,0.1929848,0.07675775
0.7326033,0.1119133,0.1179391
0.7635274,0.06232665,0.1288661
0.87605,-0.08303932,0.1053296
0.9892071,-0.2591895,0.09951291
0.9991925,-0.1993649,0.11138
0.9812292,-0.09912144,0.1439703
1.057241,-0.07777678,0.2096067
1.112952,-0.04796047,0.2211709
1.218885,-0.03265781,0.1902343
1.491886,0.01555118,0.16757
1.590625,0.08331264,0.1326914
1.526133,-0.07611217,0.1365575
1.599562,-0.373732,0.1618001
1.595185,-0.4698719,0.1431941
1.356701,-0.4523675,0.1083735
1.029818,-0.4249492,0.05644306
0.8050194,-0.3911194,0.01173705
0.8319598,-0.4310286,-0.002315371
0.9654465,-0.4508433,-0.03835532
1.092443,-0.4226506,-0.0742182
1.186068,-0.3650004,-0.1137287
1.101214,-0.2456789,-0.1526114
0.9537971,-0.1249717,-0.09871943
0.8376119,-0.05004372,-0.03269115
0.6780893,-0.02306179,-0.02660694
0.6051065,-0.02432407,-0.02917386
0.6023,-0.07810847,-0.06373235
0.6021298,-0.1742273,-0.108213
0.6734206,-0.2339023,-0.1375984
0.7391426,-0.2458123,-0.1597162
0.7954814,-0.2194178,-0.1586178
0.8581224,-0.1681857,-0.1561479
0.9064664,-0.09561918,-0.1390372
0.9656054,-0.03460297,-0.1067738
0.975747,0.00591485,-0.08389288
1.003632,0.08706223,-0.06642899
1.089758,0.1120679,-0.04611783
1.152667,0.01866075,0.006058388
1.202899,-0.08786929,0.04177761
1.257462,-0.2014369,0.01223891
1.372758,-0.3215112,-0.04378591
1.524684,-0.3500356,-0.126191
1.675961,-0.2642551,-0.2145672
1.784063,-0.2292984,-0.2325523
1.575551,-0.3584809,-0.1417429
1.162955,-0.4837135,-0.05246926
1.024993,-0.4575063,-0.1161425
1.152791,-0.3506537,-0.185968
1.223287,-0.2603869,-0.1269476
1.132272,-0.2135121,-0.08100007
0.9767287,-0.1993855,-0.0104099
0.8285364,-0.1878485,0.07422718
0.794237,-0.2001549,-0.004208497
0.8559528,-0.2536714,-0.08646823
0.7777673,-0.2639182,-0.07766323
0.676825,-0.2581116,-0.06765672
0.6325518,-0.2783688,-0.01050272
0.5384042,-0.2488453,0.02597711
0.5884979,-0.200298,0.02087696
0.6576938,-0.1278505,0.03239864
0.6716431,-0.03877175,0.0267655
0.768396,-0.01278594,0.04774489
0.756139,-0.01256523,0.08377289
0.7752826,-0.05818366,0.1043009
0.8868777,-0.1432594,0.1370581
0.9285651,-0.1902858,0.148305
0.9954348,-0.2055885,0.1400265
1.011101,-0.1828462,0.1232415
1.03866,-0.1316944,0.1034089
1.100718,-0.0686862,0.1010019
1.097762,-0.03264642,0.1107449
1.209151,-0.04505645,0.1292921
1.356288,-0.06013462,0.1369617
1.499654,-0.1323326,0.1333858
1.707854,-0.244935,0.1188378
1.706415,-0.324268,0.08067643
1.403881,-0.4122176,0.05224328
0.997294,-0.4440656,0.05433671
0.7712575,-0.4223322,0.05123849
0.8355256,-0.4514092,0.01884614
0.958804,-0.4385486,-0.01230029
1.059472,-0.3871225,-0.05916989
1.100848,-0.3749563,-0.1166155
0.9792193,-0.2959118,-0.1114499
0.8400989,-0.1683442,-0.08207182
0.7320746,-0.06202821,-0.05534577
0.6243445,0.03366826,-0.03281592
0.6122219,0.04641041,-0.05850028
0.6383635,0.01038301,-0.09082318
0.6814024,-0.02865443,-0.1204077
0.7704532,-0.1364771,-0.1368927
0.8157575,-0.2552837,-0.115881
0.8253599,-0.309149,-0.111774
0.8621391,-0.3067688,-0.09825836
0.9479291,-0.2677899,-0.0740298
1.022569,-0.196698,-0.08821034
1.025626,-0.06503368,-0.1062359
1.028031,0.06126808,-0.1242606
1.042304,0.06568059,-0.1341164
1.053002,0.01601624,-0.1265429
1.098146,-0.01578444,-0.1184656
1.146152,-0.1258158,-0.08877834
1.164066,-0.2555215,-0.08526966
1.230865,-0.3555082,-0.1580257
1.441395,-0.550162,-0.263776
1.691533,-0.6617795,-0.3174737
1.750207,-0.6160337,-0.2396448
1.53218,-0.6571541,-0.1155385
1.180254,-0.6689217,-0.06623628
0.9329996,-0.5376617,-0.06425373
0.9170117,-0.4022624,-0.05339898
1.04974,-0.2809279,0.02096063
1.116463,-0.2261857,0.1018443
1.068445,-0.2181142,0.08191686
1.043595,-0.1867826,0.005354189
1.02278,-0.2077453,-0.0642696
0.920682,-0.2492022,-0.06571712
0.7914155,-0.2853236,-0.01072894
0.6937935,-0.3205055,0.009024696
0.6187992,-0.2637017,0.01982666
0.5680216,-0.1585571,0.01743399
0.5640934,-0.0583224,0.00179573
0.5788884,0.03876482,0.03180187
0.5864993,0.07468054,0.0657678
0.6069779,0.05980642,0.1009208
0.6455402,0.001649061,0.1476813
0.6975832,-0.0825553,0.1835603
0.7766209,-0.1408741,0.2149843
0.8940503,-0.2002115,0.240921
0.9744152,-0.1984485,0.2815077
1.017382,-0.0968519,0.2978425
1.166477,-0.007133343,0.3297291
1.299656,0.05299969,0.4023401
1.340863,0.05774556,0.3476718
1.508849,0.01289651,0.2386971
1.598752,-0.04400899,0.1919632
1.483615,-0.2259249,0.1653446
1.460118,-0.4345494,0.1837908
1.307229,-0.5616134,0.1385041
0.9113608,-0.6299649,0.06486307
0.6964039,-0.5716214,0.0627709
0.7472996,-0.5834553,-0.002251607
0.9710307,-0.6438632,-0.07243322
1.238992,-0.5559519,-0.1124756
1.284159,-0.4636702,-0.1633001
1.112362,-0.2941184,-0.1046778
0.9346233,-0.1160153,-0.02476696
0.798976,-0.06135701,-0.0321441
0.6863501,0.04072068,-0.03910826
0.6590203,0.04949699,-0.04989756
0.6664526,-0.05573413,-0.08795639
0.6636021,-0.1662219,-0.1095231
0.6738749,-0.3263925,-0.126145
0.6430732,-0.3803832,-0.1455614
0.6351994,-0.3428005,-0.1392936
0.7061598,-0.2797662,-0.1409116
0.8216311,-0.1344666,-0.1683631
0.9344336,-0.01155577,-0.1777159
0.96193,0.06661026,-0.1587757
0.960532,0.1144749,-0.1125907
0.994753,0.0860721,-0.05437225
1.094219,0.03620688,-0.02828568
1.247393,-0.009935141,-0.03403002
1.296861,-0.07249495,-0.04627364
1.263014,-0.09201623,-0.0690436
1.320177,-0.06857906,-0.09943412
1.467329,-0.09607061,-0.1177843
1.606506,-0.2023978,-0.1175832
1.672157,-0.3657261,-0.08617889
1.549529,-0.5311982,-0.03624851
1.287071,-0.7395594,-0.02638801
1.167407,-0.9379927,-0.07825974
1.193944,-0.7864495,-0.1540923
1.19134,-0.4328575,-0.2076625
1.127699,-0.2703926,-0.2125431
0.9781057,-0.1933199,-0.1407607
0.7626657,-0.1787409,-0.02459553
0.6173474,-0.2475357,0.008041658
0.6503912,-0.3379693,-0.05421027
0.7152685,-0.4660986,-0.108428
0.7030849,-0.4673417,-0.1287944
0.6662978,-0.3837326,-0.1013821
0.568595,-0.304317,-0.03280106
0.5509411,-0.165082,0.01133406
0.650492,-0.05661157,0.01406751
0.7277556,0.04514703,-0.005376423
0.8267621,0.08486908,-0.009801688
0.8576476,0.007990635,0.03479187
0.8313497,-0.07666787,0.1063802
0.8819814,-0.1935266,0.1607189
0.9594038,-0.2444382,0.1678911
1.070724,-0.2098124,0.1673428
1.158664,-0.1914782,0.1888891
1.185022,-0.1099954,0.1902266
1.24634,0.0002132835,0.1830975
1.366372,0.004023663,0.1566378
1.52277,-0.1782939,0.0851375
1.599569,-0.4406495,0.03509133
1.489906,-0.5323086,0.002876087
1.221741,-0.4745689,-0.03403419
0.9302319,-0.4079366,-0.03088732
0.8398426,-0.321504,-0.02478764
0.9746244,-0.2831845,-0.0513297
1.094629,-0.3284654,-0.06869075
1.111123,-0.3349093,-0.08323047
1.073709,-0.3339398,-0.114142
0.9622924,-0.3207807,-0.1290496
0.8667745,-0.2115417,-0.1168911
0.7947812,-0.1332861,-0.1025345
0.6541118,-0.05843867,-0.09890136
0.5359698,0.05538184,-0.09143857
0.5193052,0.007930236,-0.0898122
0.6206188,-0.171085,-0.1151366
0.7078851,-0.311162,-0.1337691
0.7134891,-0.3468775,-0.1416548
0.7777057,-0.2996413,-0.1651288
0.8600444,-0.289397,-0.196677
0.9443263,-0.2878539,-0.2127301
1.000344,-0.2082777,-0.189313
1.040994,-0.1142309,-0.1525183
1.125561,-0.02197328,-0.09816164
1.104025,0.05142676,-0.03092256
1.134912,0.07010549,-0.02507335
1.23097,0.06379451,-0.04470431
1.256642,-0.02448598,-0.05276776
1.407627,-0.2141705,-0.09372446
1.556787,-0.4211645,-0.1795278
1.657242,-0.5207345,-0.2656425
1.687652,-0.4641647,-0.2389712
1.436392,-0.4484969,-0.108873
1.140487,-0.4889439,-0.006338231
1.030259,-0.4396174,-0.01516172
1.097449,-0.358058,-0.1289915
1.123685,-0.2619709,-0.1791254
0.9837374,-0.2180625,-0.08940787
0.87838,-0.243109,-0.001466545
0.773818,-0.17957,-0.01054282
0.7449587,-0.1320725,-0.06704727
0.7728741,-0.1945092,-0.0784013
0.6341999,-0.2452909,-0.06527835
0.5593815,-0.2693296,-0.04977924
0.5546301,-0.2505565,-0.008095625
0.5243613,-0.1832903,0.02263634
0.6038559,-0.09667266,0.02590871
0.7041878,0.001395313,0.01568881
0.8375287,0.01822707,0.04265486
0.9682678,-0.03100976,0.08486611
1.012834,-0.06633731,0.09792811
1.045474,-0.1130281,0.1297494
1.034083,-0.1479387,0.1384318
1.052369,-0.1505014,0.134046
1.139671,-0.1278551,0.1449122
1.216527,-0.07119434,0.1414507
1.263957,-0.00776998,0.1770546
1.271738,0.03859992,0.1919449
1.357544,0.01391936,0.1326803
1.481222,-0.1492941,0.0514609
1.485637,-0.3869138,0.001199032
1.37811,-0.5046273,0.00887553
1.131349,-0.4752814,-0.01474308
0.9116294,-0.463439,-0.03606511
0.9298095,-0.4279534,0.004078642
0.9971932,-0.3178742,0.01121931
1.006754,-0.2560287,-0.006005128
1.061056,-0.2185496,-0.03543664
1.014974,-0.1871211,-0.08173033
0.8467506,-0.182913,-0.08736551
0.7667487,-0.1384055,-0.07843831
0.6823696,-0.09401375,-0.07860562
0.5941126,-0.08560514,-0.06938245
0.6123665,-0.07942747,-0.07307773
0.606726,-0.09514685,-0.09143206
0.6594921,-0.1584298,-0.1165944
0.775598,-0.2440763,-0.1649234
0.7953465,-0.2672316,-0.1877222
0.8308,-0.2501303,-0.1640069
0.9345848,-0.2753342,-0.1618254
1.016794,-0.2600445,-0.1596623
1.0257,-0.1328454,-0.1253346
1.046166,0.05008877,-0.08134902
1.105176,0.1554593,-0.04245353
1.135229,0.09420367,-0.0664583
1.265255,0.01402179,-0.110458
1.391923,-0.06952135,-0.1087281
1.408497,-0.2724318,-0.1205838
1.469947,-0.4115699,-0.1500395
1.471603,-0.4444584,-0.1943704
1.435026,-0.4569112,-0.227273
1.389113,-0.402956,-0.1824249
1.203418,-0.4274598,-0.105773
1.095906,-0.5705653,-0.03088978
1.116085,-0.6568924,-0.02944745
1.112637,-0.4972585,-0.1419214
1.106886,-0.1541301,-0.1909246
1.023994,-0.03737456,-0.09873489
0.8419926,-0.08948124,0.03327384
0.7155407,-0.07282809,0.07127208
0.7510299,-0.1030945,-0.0284426
0.7898542,-0.1785315,-0.1293086
0.7059951,-0.3032999,-0.1460357
0.6528832,-0.391781,-0.07117209
0.5902058,-0.362225,0.04314002
0.5147597,-0.3214647,0.09577973
0.5622593,-0.2038204,0.09940893
0.6397787,-0.06148376,0.0619414
0.7798632,0.01635347,0.02310733
0.9376543,0.04368518,0.05339566
0.9783438,-0.04569191,0.08500624
1.022065,-0.1476511,0.09155476
1.049486,-0.1907638,0.1059274
1.084356,-0.2015441,0.1120216
1.192747,-0.1626953,0.1167015
1.227765,-0.09302882,0.1341259
1.208151,0.0200608,0.1513216
1.228979,0.07469584,0.1475011
1.34608,-0.01905589,0.1169969
1.521839,-0.1704768,0.07543357
1.529517,-0.342928,0.03598571
1.315544,-0.489617,2.592895e-05
1.063343,-0.5070304,-0.005422048
0.9346718,-0.4493013,0.04096838
0.9125069,-0.422734,0.07482773
0.9696117,-0.3828084,0.04274385
1.116207,-0.3105183,-0.01911422
1.156439,-0.2576147,-0.07261948
1.027246,-0.2135057,-0.0937591
0.886593,-0.1653746,-0.079866
0.7710932,-0.103699,-0.06896312
0.6744225,-0.07211566,-0.06036754
0.5912191,-0.09190301,-0.05316181
1.241971,-0.07023077,0.1547449
1.331238,-0.05631431,0.1435812
1.528589,-0.09648137,0.1295888
1.626239,-0.194367,0.1118922
1.673166,-0.3429124,0.1060003
1.610222,-0.4225078,0.08508918
1.241563,-0.4400288,0.01754915
0.8431739,-0.4230686,-0.01709818
0.723641,-0.4184993,0.01807678
0.8392886,-0.4522249,0.03964083
1.008266,-0.4625508,-0.002465734
1.116813,-0.4296446,-0.06900726
1.111037,-0.3399247,-0.1210977
0.9533346,-0.2192891,-0.1236981
0.8152171,-0.1024568,-0.07192644
0.713742,-0.02519052,-0.02763669
0.6001043,-0.02311196,-0.01664488
0.6214979,-0.05910203,-0.04837468
0.6444053,-0.1329625,-0.1128494
0.672744,-0.2404043,-0.1519089
0.757868,-0.3294593,-0.1737692
0.7576248,-0.3564853,-0.1794492
0.8082502,-0.311237,-0.1624081
0.8817151,-0.2389322,-0.1573276
0.9306235,-0.1159915,-0.1389529
1.005232,0.06032095,-0.1098343
1.039649,0.1871748,-0.07312137
1.134008,0.2194547,-0.01567061
1.235496,0.1617283,0.0041258
1.311342,0.05223904,-0.005989812
1.429932,-0.132,-0.03705369
1.520371,-0.4101289,-0.1297561
1.606803,-0.5144197,-0.2266739
1.647032,-0.3731542,-0.2530521
1.613422,-0.3366578,-0.2149167
1.440094,-0.4549322,-0.1572377
1.054816,-0.5699438,-0.09996246
0.8411727,-0.6388917,-0.08321925
0.9818413,-0.5212786,-0.1420401
1.098881,-0.3007094,-0.170462
1.063044,-0.1846056,-0.1003578
0.9737641,-0.1053926,-0.01746286
0.8037335,-0.08078917,0.0009883415
0.7311094,-0.1305821,-0.051242
0.7819094,-0.152082,-0.09632407
0.7165715,-0.1958246,-0.07873236
0.6718784,-0.2644337,-0.02415516
0.6656587,-0.3127714,0.03797955
0.628784,-0.3021371,0.05093848
0.6952667,-0.1556654,0.02386384
0.7119733,-0.008436647,0.02718184
0.7116048,0.01152601,0.03427908
0.7586225,-0.02839951,0.04619985
0.7454039,-0.06828823,0.1078589
0.7858211,-0.09747399,0.1542625
0.8031085,-0.131399,0.1439674
0.8378446,-0.1480013,0.1397853
0.9823479,-0.1520321,0.1493841
1.093443,-0.1397874,0.1383747
1.231763,-0.09410201,0.143354
1.336477,-0.06189741,0.1742617
1.415229,-0.02770333,0.1790494
1.605362,-0.04694302,0.1522768
1.727187,-0.1223245,0.1229731
1.659395,-0.1852017,0.1233219
1.424556,-0.2975868,0.1264412
1.149636,-0.3465989,0.0812765
0.9799337,-0.3496068,0.01907759
0.9224243,-0.4441242,-0.02601004
0.9851179,-0.4552291,-0.005254949
1.070804,-0.4041681,0.03860118
1.061644,-0.3772503,-0.000772075
0.9737663,-0.2641396,-0.04026785
0.87606,-0.1578414,-0.05665009
0.7915284,-0.127869,-0.05964332
0.6909969,-0.08530583,-0.01432726
0.6227351,-0.05572464,-0.0325475
0.6237841,-0.1053841,-0.07359251
0.6513555,-0.1750208,-0.09498317
0.6800283,-0.2099549,-0.1467785
0.7225495,-0.2405766,-0.1425799
0.7535319,-0.2418723,-0.1402797
0.7692196,-0.2227962,-0.1568858
0.8369048,-0.2086684,-0.1372158
0.9087627,-0.1574014,-0.1512642
0.9492973,-0.1069652,-0.148642
0.9884597,-0.0645051,-0.1327863
1.020632,-0.01065677,-0.1318473
1.105483,0.001854262,-0.09691087
1.224268,-0.02132195,-0.07672866
1.336943,-0.07693045,-0.0703031
1.484815,-0.1985562,-0.08983108
1.612078,-0.3549319,-0.1602912
1.636676,-0.4369775,-0.2156369
1.557586,-0.4222726,-0.2103417
1.430633,-0.453978,-0.1383255
1.285105,-0.5478109,-0.0825814
1.118041,-0.6036517,-0.09059384
1.014002,-0.618534,-0.1197601
1.030803,-0.5447382,-0.1313315
1.021506,-0.3888996,-0.06600865
0.8932469,-0.299139,0.0270643
0.7947754,-0.2658754,0.05506138
0.7664885,-0.2072938,0.02803483
0.7687233,-0.1693884,-0.02830297
0.8035638,-0.1657225,-0.09458797
0.7566043,-0.1569177,-0.1120327
0.6778782,-0.1549254,-0.04905603
0.6364648,-0.1606322,-0.005994332
0.5941879,-0.1156285,0.000715552
0.650092,-0.02927158,0.04654348
0.7342649,0.03138473,0.0635983
0.7935636,0.05378023,0.05439312
0.8638751,0.03155187,0.08094451
0.8680292,-0.02193334,0.09980901
0.9001651,-0.09758786,0.1173024
0.9650292,-0.1671535,0.1525352
1.016577,-0.1622578,0.1611353
1.100594,-0.1215583,0.1427597
1.130652,-0.06316922,0.1477449
1.162072,0.01498899,0.1692252
1.270375,0.02595296,0.175383
1.434427,-0.04775473,0.1614478
1.623952,-0.2276611,0.1359177
1.664635,-0.4763926,0.1332125
1.488672,-0.5658131,0.1137007
1.180527,-0.4510776,0.05574757
0.884008,-0.3443076,0.03102271
0.7719124,-0.3135763,0.02056688
0.8350757,-0.3219552,-0.0004534271
0.9786131,-0.3822677,-0.02511843
1.099586,-0.4120329,-0.05988438
1.062933,-0.3848156,-0.05759498
0.9200738,-0.3378709,-0.04056971
0.8089986,-0.2250623,-0.04359556
0.7156129,-0.1371435,-0.03110971
0.661169,-0.1202501,-0.03310664
0.6243718,-0.06121782,-0.06320064
0.5771551,-0.01966966,-0.08285988
0.6397389,-0.05593795,-0.107949
0.6890198,-0.07699879,-0.1410173
0.7007422,-0.1296004,-0.1553062
0.7623514,-0.2714931,-0.1652258
0.7454249,-0.3535346,-0.1797469
0.860374,-0.356493,-0.1939574
1.115039,-0.3365971,-0.2292831
1.189558,-0.2174574,-0.2557217
1.112749,-0.04634892,-0.2180203
1.015061,0.06643342,-0.1559719
1.038859,0.07994563,-0.1111822
1.100358,0.04453757,-0.09936739
1.170351,-0.008517399,-0.1531714
1.375695,-0.1547075,-0.2270001
1.506392,-0.3213813,-0.2709666
1.564572,-0.4739113,-0.2790908
1.581265,-0.584162,-0.2390543
1.449835,-0.5142477,-0.1506867
1.315865,-0.4598329,-0.05071016
1.153257,-0.5355945,-0.05333185
0.9494414,-0.5412521,-0.09439547
0.9077008,-0.5085244,-0.0512035
1.002065,-0.4688634,-0.06110762
1.02005,-0.3630382,-0.08155952
1.023133,-0.3266811,-0.05417657
1.037802,-0.4014813,-0.1277941
0.8684683,-0.4911682,-0.2058946
0.7545426,-0.5542529,-0.217912
0.7641603,-0.5364619,-0.1861886
0.6678706,-0.4738755,-0.1039875
0.6229137,-0.3833153,-0.0663897
0.6459845,-0.1694198,-0.0473613
0.6760856,0.04076368,-0.04496912
0.7246453,0.11828,-0.04893071
0.7333715,0.1330261,0.01441948
0.701158,0.06726937,0.07430605
0.626279,-0.02967576,0.1441009
0.6187032,-0.0786894,0.1995526
0.6730475,-0.1168776,0.1936334
0.7670608,-0.1038557,0.2016208
0.9351982,-0.05070581,0.2004281
1.028909,-0.002312119,0.2070591
1.102579,0.05239387,0.229793
1.279064,0.08382263,0.2273312
1.458048,0.09100834,0.2176563
1.547124,0.01748618,0.1830639
1.616146,-0.2155856,0.175196
1.665668,-0.5003474,0.2145119
1.52951,-0.5867284,0.2198396
1.251202,-0.4743076,0.143769
0.9336894,-0.412044,0.02675662
0.7835797,-0.3687784,-0.01705183
0.9407965,-0.3821745,-0.04922425
1.066899,-0.5437294,-0.1109157
1.114687,-0.5835198,-0.09299607
1.126503,-0.543787,-0.07930681
0.9557906,-0.4746767,-0.09388745
0.804674,-0.2401807,-0.06206604
0.7026064,-0.06508727,-0.05771344
0.6527842,0.03361004,-0.07339694
0.7146047,0.08717025,-0.08480137
0.7074045,0.002008684,-0.1174951
0.721791,-0.09890646,-0.1306964
0.7463863,-0.236052,-0.1342656
0.7142059,-0.3441448,-0.143053
0.7779903,-0.3159214,-0.1436358
0.833283,-0.2626955,-0.1448854
0.8781701,-0.1690036,-0.1360793
0.9516747,-0.06213554,-0.1208724
0.973372,-0.0241323,-0.1020101
1.035291,0.03197455,-0.06982744
1.117511,0.1031791,-0.03197158
1.198369,0.04837245,-0.001072562
1.342879,-0.08388212,0.006329021
1.492182,-0.186902,-0.02591243
1.60088,-0.3318589,-0.1264291
1.708405,-0.4540719,-0.2593383
1.709143,-0.4787616,-0.2779855
1.406979,-0.5442675,-0.1218078
1.074425,-0.6368981,0.01427331
1.033325,-0.6178458,-0.05556239
1.065634,-0.5087665,-0.1726605
1.054412,-0.3877355,-0.1831327
1.066583,-0.2860074,-0.1291343
0.9537456,-0.2613304,5.229512e-06
0.7510044,-0.2536285,0.05990181
0.7331521,-0.198321,-0.03804779
0.7855777,-0.1918316,-0.1013017
0.6999884,-0.1834263,-0.1063686
0.6037165,-0.1611313,-0.07804556
0.5187249,-0.1818766,-0.0002709591
0.4806923,-0.1592392,0.05504339
0.5593145,-0.1268592,0.07893016
0.6628784,-0.08310595,0.05774773
0.8050887,-0.01884239,0.03854048
0.9079499,-0.01872379,0.05567712
0.9091619,-0.04650029,0.07288679
0.927776,-0.1001314,0.1250289
0.9410094,-0.1460882,0.1479836
0.9459916,-0.1268945,0.130178
0.9963535,-0.07911171,0.1332038
1.04264,-0.02315193,0.1158725
1.066574,0.004044714,0.1212823
1.123775,0.04422446,0.1555408
1.235817,0.08269609,0.1742117
1.366902,0.005421339,0.1766121
1.563942,-0.1195982,0.1099655
1.785792,-0.2094034,0.0353414
1.786687,-0.2570473,0.04843505
1.499811,-0.3081323,0.1067503
1.113672,-0.3898428,0.1533121
0.8214398,-0.3998498,0.1551463
0.692471,-0.4258166,0.1139781
0.7683784,-0.5112567,0.04848495
0.9974697,-0.4971923,-0.03747503
1.098673,-0.4520108,-0.1074326
1.030542,-0.3558205,-0.1307167
0.9219815,-0.1628715,-0.1301309
0.7447591,-0.02820989,-0.1129972
0.6217627,0.05749787,-0.0727998
0.5990802,0.07418274,-0.05953171
0.5944201,0.01216481,-0.0981929
0.6203752,-0.06018743,-0.1429117
0.6544229,-0.1841141,-0.164131
0.7251959,-0.30284,-0.1768526
0.8231397,-0.3711851,-0.1918981
0.9192694,-0.373181,-0.1865399
0.9975403,-0.2988156,-0.1724876
0.9986511,-0.2130557,-0.1652633
0.9960114,-0.08082316,-0.1399249
1.016917,0.0653582,-0.1134167
1.051272,0.136472,-0.09900796
1.135226,0.1379068,-0.09492259
1.191621,0.08701381,-0.1134508
1.213038,0.00442266,-0.1440518
1.278855,-0.1254119,-0.1765682
1.383999,-0.2942311,-0.1878962
1.4705,-0.4790783,-0.2099041
1.515432,-0.6138932,-0.2792542
1.528379,-0.641672,-0.2845577
1.43567,-0.651938,-0.1546156
1.202807,-0.6424263,0.02829953
1.022579,-0.5851259,0.09906159
1.018779,-0.4521223,-0.003415488
1.032605,-0.2184396,-0.05654698
0.9778646,-0.1169905,0.02466348
0.9360438,-0.1428609,0.04289738
0.9230326,-0.1211068,-0.0385371
0.8914539,-0.1812557,-0.1196249
0.8165348,-0.3050446,-0.1353328
0.7437457,-0.3830548,-0.1017261
0.6806836,-0.4069949,-0.08598896
0.5889825,-0.3123382,-0.04802724
0.515267,-0.1496932,0.02187835
0.501198,-0.02047185,0.05380442
0.5654361,0.03499165,0.06086001
0.6672514,0.03891286,0.08338512
0.7056888,0.04795299,0.1233456
0.7076293,0.04147321,0.1503541
0.732179,0.02556741,0.1593902
0.8077949,0.02391161,0.1707329
1.004971,0.02507529,0.1767177
1.232602,0.04119933,0.1965573
1.274912,0.05976255,0.234907
1.240441,0.0872311,0.2755361
1.353774,0.1147708,0.3007226
1.487659,0.07751829,0.2404948
1.642443,0.01459834,0.127056
1.800312,-0.02877876,0.1027873
1.577835,-0.1729579,0.2109032
1.160839,-0.4439013,0.3599025
0.910597,-0.6265542,0.3676374
0.7538352,-0.6517279,0.1357179
0.8545992,-0.6486751,-0.1295991
1.084452,-0.6205402,-0.1897389
1.132487,-0.5616714,-0.1691911
1.129255,-0.4756152,-0.1584688
1.005206,-0.3028326,-0.0607448
0.8075843,-0.1150196,-0.04065949
0.7295111,0.006246066,-0.0908346
0.6552384,0.03656266,-0.04319178
0.6375891,-0.0173133,-0.07023769
0.6983547,-0.08732448,-0.1357512
0.7587233,-0.1945739,-0.1585019
0.8137533,-0.3070622,-0.2181814
0.7864179,-0.3579013,-0.2025645
0.7434746,-0.3967433,-0.1860562
0.7251403,-0.3972544,-0.2096178
0.7517174,-0.3345129,-0.2101555
0.8695692,-0.2480379,-0.2632808
0.937159,-0.1499056,-0.2584284
0.9401249,0.004909872,-0.1760258
0.9574268,0.2272724,-0.08837285
0.9793749,0.2750663,-0.01033103
1.01873,0.1432301,0.01359613
1.091193,0.1103925,0.07150177
1.186501,0.02252825,0.06977502
1.362382,-0.2108969,-0.05206879
1.626566,-0.3601233,-0.1160002
1.68047,-0.3424664,-0.1535206
1.586011,-0.2241543,-0.1648128
1.600844,-0.2293734,-0.100609
1.425846,-0.3220432,-0.01782138
1.192355,-0.4788119,0.03781115
1.150767,-0.7698459,-0.04126546
1.0801,-0.758758,-0.1695762
1.101199,-0.5676818,-0.2132101
1.114722,-0.4956041,-0.2260762
0.9613491,-0.3178707,-0.1861382
0.8131378,-0.2925935,-0.1115223
0.6565056,-0.3555051,-0.06511876
0.6534753,-0.2934793,-0.08254238
0.7143003,-0.3695776,-0.141761
0.6285362,-0.4003008,-0.1233592
0.6061659,-0.3593093,-0.08294603
0.5862418,-0.363883,-0.03559681
0.5683679,-0.244597,0.04601647
0.6717225,-0.09128286,0.03751308
0.7816654,0.05627964,0.01938186
0.8720161,0.1508103,0.0434789
0.8799493,0.1028678,0.05717877
0.8706118,0.01188151,0.1168575
0.9233373,-0.1291268,0.1580121
0.9485568,-0.2340163,0.167798
1.016186,-0.2428941,0.1905772
1.09848,-0.2642865,0.1945197
1.165039,-0.2211191,0.2129273
1.292408,-0.09741805,0.2221271
1.412379,-0.02496406,0.1948286
1.538819,-0.06141722,0.1812028
1.62614,-0.1785585,0.1770331
1.510519,-0.2998208,0.1245269
1.233494,-0.3790792,0.00770568
0.9581172,-0.3568845,-0.05843835
0.8734052,-0.3298623,-0.02946572
0.9794524,-0.4072228,-0.03566685
1.037378,-0.4277617,-0.07457277
1.031404,-0.3899572,-0.05922866
1.012994,-0.3371162,-0.05409224
0.908205,-0.2150259,-0.07170266
0.8271574,-0.1278813,-0.04670416
0.7556019,-0.0374268,-0.03149727
0.642395,0.04074077,-0.04112741
0.6437612,0.00185938,-0.03692648
0.6632008,-0.04325059,-0.05175703
0.6745541,-0.1272286,-0.0891336
0.7589776,-0.2494887,-0.1232178
0.8010999,-0.260815,-0.13439
0.8550387,-0.2193655,-0.1279235
0.9094691,-0.1806261,-0.1270176
0.9129,-0.1160599,-0.1078956
0.9649309,-0.03638452,-0.08996774
1.025868,0.061292,-0.1183404
1.069579,0.1349901,-0.1554745
1.108672,0.1132395,-0.1561164
1.167561,0.01399739,-0.1332429
1.255632,-0.09588217,-0.1203587
1.320926,-0.1616061,-0.1265523
1.428484,-0.1661017,-0.147843
1.513898,-0.1969887,-0.1700596
1.469913,-0.3052612,-0.1845517
1.405388,-0.4427938,-0.1788609
1.289257,-0.6064371,-0.08946425
1.118053,-0.769522,0.0108459
1.11294,-0.792867,-0.05735964
1.177351,-0.561241,-0.183763
1.112407,-0.2746421,-0.1804336
1.028519,-0.1955058,-0.09158858
0.8647607,-0.1860137,0.05217313
0.6888384,-0.1416548,0.1252431
0.7822347,-0.1639105,0.005865347
0.8484263,-0.212886,-0.07696732
0.7222782,-0.2664232,-0.05318196
0.6625316,-0.3590787,-0.07944698
0.6054892,-0.3869402,-0.07716915
0.5498864,-0.3098724,0.01215478
0.5427317,-0.2522101,0.0778219
0.5264593,-0.2032404,0.06703591
0.622216,-0.1268913,0.04040068
0.7913852,-0.05129817,0.03840846
0.9056702,0.01867799,0.03250116
0.9174693,-0.0345784,0.06373798
0.893079,-0.1156112,0.1501022
0.9578479,-0.114698,0.1939215
0.9634406,-0.146349,0.1754436
0.977819,-0.1393314,0.1665698
1.107123,-0.1301236,0.1642677
1.159831,-0.139157,0.1466113
1.251895,-0.08771208,0.1706959
1.359662,-0.07130704,0.2097013
1.396606,-0.04965678,0.1751452
1.508021,-0.1175461,0.1142498
1.592645,-0.3172652,0.07116233
1.581689,-0.4228345,0.03282901
1.303257,-0.4399027,0.01295955
0.8430409,-0.372702,0.01101988
0.7504788,-0.2989996,0.04011587
0.910288,-0.334093,0.05088225
1.011243,-0.3410139,-0.005405879
1.118561,-0.342251,-0.07577471
1.116069,-0.370091,-0.1261862
0.969296,-0.3194632,-0.1110733
0.8239174,-0.2127409,-0.06725758
0.6824067,-0.1093701,-0.0568629
0.6107385,-0.06191263,-0.04394588
0.6317151,-0.05502353,-0.06707992
0.6252759,-0.04536057,-0.1045673
0.691898,-0.09340656,-0.1253333
0.7947569,-0.2000455,-0.1632932
0.8274711,-0.2997445,-0.1701841
0.920704,-0.3596364,-0.1778724
0.9738105,-0.3342689,-0.184572
0.9702701,-0.2340637,-0.1483566
0.9712268,-0.07847008,-0.1144563
0.9312274,0.096542,-0.06889405
0.9671107,0.176353,-0.0562695
1.034264,0.181111,-0.0921295
1.140417,0.1428357,-0.09456225
1.27528,0.02371427,-0.07582227
1.298041,-0.1334929,-0.05956602
1.354446,-0.3614833,-0.08100276
1.472491,-0.6058249,-0.1749587
1.60194,-0.655629,-0.3122362
1.687785,-0.4751123,-0.3724776
1.549153,-0.3320342,-0.2121496
1.290966,-0.4899213,-0.007613799
1.066303,-0.6192215,-0.005621144
0.983604,-0.4228584,-0.112264
1.083477,-0.2637432,-0.166929
1.093528,-0.2308085,-0.1008508
0.9563038,-0.1601928,0.01811226
0.8446624,-0.147713,0.04256248
0.7719867,-0.1533288,-0.02139645
0.7324926,-0.1413447,-0.08969457
0.6693651,-0.1974821,-0.0837536
0.5704186,-0.2785596,-0.01862489
0.5280071,-0.3150284,0.02164432
0.5340525,-0.2982699,0.04485523
0.5708961,-0.2569215,0.03814586
0.6453536,-0.1723368,0.03023972
0.7513143,-0.04453696,0.06070458
0.8331558,0.005030961,0.07682897
0.8399062,-0.03386518,0.1133826
0.8678725,-0.05821442,0.1606571
0.9162921,-0.08756378,0.1777966
0.9327323,-0.1419335,0.1886172
0.9763237,-0.1524756,0.1733247
1.027078,-0.123422,0.172185
1.082919,-0.07696764,0.193489
1.138692,0.003697547,0.2125149
1.148549,0.06965478,0.2428703
1.19328,0.07538934,0.2246301
1.363119,-0.003155428,0.1387177
1.659014,-0.1751165,0.0439017
1.903696,-0.337445,0.02785623
1.795616,-0.3917266,0.06441517
1.264766,-0.3646107,0.06377351
0.7054278,-0.3535984,0.09322299
0.6872379,-0.3836794,0.09325929
1.021466,-0.3972407,-0.007120401
1.150352,-0.41757,-0.08278305
1.229944,-0.4202085,-0.1093818
1.224385,-0.3414793,-0.09298364
0.9804312,-0.2315486,-0.09112533
0.8891732,-0.1308879,-0.1212784
0.8486559,-0.09373587,-0.07148952
0.7232487,-0.05994028,-0.02375052
0.680928,-0.0008053751,-0.02592206
0.6473193,-0.07374708,-0.04596425
0.6468455,-0.1371973,-0.1004243
0.6366987,-0.1271808,-0.1151482
0.6923325,-0.1909788,-0.136115
0.8028949,-0.2116909,-0.1777253
0.4155965,-0.2619157,0.02349466
0.422839,-0.203403,0.02348509
0.4409006,-0.1062198,0.0240692
0.4461104,-0.03381819,0.02924591
0.4907112,-0.00981675,0.03587471
0.5915197,-0.07927927,0.04954961
0.7620649,-0.1509113,0.0773031
0.8328057,-0.2398017,0.0943418
0.8322587,-0.3164353,0.09348364
0.9393101,-0.3167097,0.150173
1.02561,-0.3527842,0.2066558
1.048798,-0.3178982,0.2056551
1.207312,-0.2599039,0.2233414
1.430386,-0.2585737,0.2436077
1.560289,-0.1834462,0.2045739
1.616695,-0.2245074,0.1253189
1.58789,-0.3590025,0.07635653
1.512073,-0.4352746,0.08931438
1.347041,-0.439239,0.0908735
1.048501,-0.2797294,0.008651452
0.8486533,-0.2059869,-0.07313247
0.8257275,-0.3060227,-0.05749945
0.8841399,-0.4592015,-0.01234029
0.9906583,-0.6423296,-0.009626858
1.059413,-0.6501649,-0.07382411
1.015016,-0.5306717,-0.1610253
0.8566298,-0.4071396,-0.149796
0.6763866,-0.2762881,-0.06572429
0.5306908,-0.1806681,-0.000501513
0.4369578,-0.07439322,0.02091959
0.4309193,-0.02775067,-0.02155199
0.4849302,-0.05601903,-0.08188421
0.6137428,-0.1253756,-0.1320611
0.7683091,-0.2772691,-0.1851566
0.9016811,-0.3988211,-0.1953764
1.031065,-0.4120967,-0.1811554
1.079554,-0.3194708,-0.1780921
1.099349,-0.1547526,-0.1519547
1.128585,-0.007205204,-0.1015736
1.138452,0.06781843,-0.0233438
1.198051,0.06393577,0.0442
1.283388,-0.03571245,0.0276607
1.369931,-0.2691939,-0.02083077
1.410144,-0.5014657,-0.05351625
1.416031,-0.6413539,-0.1369681
1.538975,-0.7333862,-0.2779475
1.6322,-0.7386514,-0.3347932
1.449957,-0.7721193,-0.201485
1.108609,-0.8313147,-0.03772953
0.8788368,-0.7253556,-0.05190418
0.8685013,-0.5507101,-0.1355869
0.995534,-0.4052677,-0.142876
1.076202,-0.2966994,-0.100412
1.018106,-0.2810666,-0.01650739
0.9400089,-0.3128876,0.01565217
0.8658347,-0.35378,-0.02637249
0.7483075,-0.3957844,-0.03345074
0.6645276,-0.4098951,-0.03722824
0.5735277,-0.3721035,-0.01591912
0.4615883,-0.2740381,0.03356697
0.4158076,-0.1394953,0.02638238
0.4025578,-0.01821008,0.02055172
0.4148465,0.007927273,0.03423201
0.4633444,-0.03340391,0.04744426
0.5484079,-0.06882607,0.07850917
0.7011028,-0.1355931,0.09731303
0.8756974,-0.2109333,0.1122649
1.06175,-0.2611108,0.152172
1.25309,-0.3148843,0.210054
1.383556,-0.3318447,0.2593564
1.465506,-0.278592,0.2771091
1.519156,-0.1885079,0.2697969
1.559118,-0.1451015,0.2487528
1.621928,-0.2281852,0.1818553
1.696134,-0.3513945,0.07993674
1.701333,-0.379804,0.06542486
1.490354,-0.37325,0.09623626
1.067574,-0.4024993,0.03638921
0.7706339,-0.4159869,-0.02032263
0.8460751,-0.4640534,-0.04403771
0.9280963,-0.5911081,-0.09818141
0.8334032,-0.6412549,-0.09546116
0.9748261,-0.5424789,-0.0684977
1.138403,-0.4136155,-0.1021666
1.026632,-0.3037228,-0.1216491
0.9125784,-0.1879887,-0.121938
0.7285858,-0.1034282,-0.1139373
0.562785,-0.09589431,-0.0689162
0.5098992,-0.1262807,-0.05212145
0.41949,-0.1480352,-0.06213097
0.4805022,-0.2183015,-0.06737204
0.544983,-0.315472,-0.1012087
0.5657923,-0.3674255,-0.1315625
0.7091303,-0.4241036,-0.1546171
0.7736607,-0.4271687,-0.1971845
0.8819017,-0.3258406,-0.2137059
1.004953,-0.1861199,-0.1638662
1.00318,-0.02228389,-0.08015554
1.108572,0.07265233,-0.03428781
1.267597,0.06948438,-0.008160672
1.410955,-0.01218963,0.02112159
1.531332,-0.1778585,0.01526756
1.586445,-0.2863016,0.003311251
1.621695,-0.3586131,-0.01883879
1.539988,-0.4704993,-0.104879
1.447012,-0.536623,-0.2449828
1.432749,-0.6225335,-0.3172338
1.314691,-0.7979078,-0.2008713
1.141458,-0.9063139,-0.07746253
1.008342,-0.8025004,-0.1043774
0.8638053,-0.6356434,-0.09578707
0.7907847,-0.5373425,-0.03376567
0.8694471,-0.3557844,-0.02101305
0.9413625,-0.1466643,0.004158803
0.9447689,-0.1247034,-0.04993987
0.9462798,-0.1891106,-0.1601338
0.8277885,-0.2006187,-0.1198354
0.6176507,-0.2658719,-0.05863218
0.4796036,-0.3284,-0.03783447
0.4111769,-0.2621327,0.03733773
0.4035996,-0.2338452,0.03569862
0.4555817,-0.1907414,0.0007524101
0.5469199,-0.08943743,0.02632773
0.6216816,-0.1001366,0.04245931
0.6425883,-0.08918808,0.08272994
0.6799516,-0.09157686,0.1184074
0.774186,-0.1660358,0.1583432
0.8682312,-0.170713,0.2158403
0.9336336,-0.1582957,0.1751412
1.09566,-0.07908629,0.1378017
1.253174,-0.0004543705,0.1529167
1.217171,-0.04425805,0.1457563
1.293448,-0.09353717,0.1930575
1.510914,-0.160798,0.2170449
1.545448,-0.3118253,0.1234035
1.522579,-0.5760483,0.04309177
1.53999,-0.7830844,0.06563433
1.482038,-0.7079844,0.09246792
1.221183,-0.5031351,0.04897255
0.8303565,-0.335326,0.03606877
0.7230369,-0.3060878,0.03297303
0.8006819,-0.4791583,0.01786153
0.8690413,-0.6565997,0.04894236
1.203791,-0.7520078,0.009689941
1.434676,-0.7721683,-0.0491598
1.189146,-0.5694292,-0.08312934
0.9148853,-0.2661886,-0.1593979
0.7416332,-0.1124629,-0.1066772
0.5394896,-0.03409869,0.004610091
0.4571308,0.01028878,0.0004438277
0.4792024,-0.06835856,-0.02500893
0.5324508,-0.1730286,-0.1021676
0.6719864,-0.2205947,-0.2266866
0.8077116,-0.2668463,-0.2523763
0.8481897,-0.2832132,-0.2072437
0.8619942,-0.2591868,-0.1865257
0.8898228,-0.217244,-0.1563644
0.9158607,-0.1085195,-0.09255356
0.9163485,-0.00209834,-0.04723192
0.9276262,0.04811666,-0.01233741
1.022207,0.07292991,0.01475863
1.161189,0.04693623,0.02948547
1.248438,9.500544e-05,0.0439788
1.248438,-0.08455642,0.01286838
1.283337,-0.2098483,-0.02934025
1.451616,-0.2713925,-0.04803448
1.693592,-0.3014959,-0.08456473
1.878441,-0.3325149,-0.1102551
1.718463,-0.3613282,-0.1034365
1.312101,-0.5399268,-0.09481402
1.114812,-0.782723,-0.1166941
1.103097,-0.7675492,-0.1490774
1.131861,-0.6224121,-0.1591798
1.125714,-0.5630481,-0.1594222
1.010002,-0.462743,-0.1227578
0.8542707,-0.4270029,-0.06798736
0.6883481,-0.4760733,-0.05588781
0.703597,-0.4323129,-0.08902357
0.7824618,-0.4452356,-0.1423199
0.6849026,-0.458226,-0.1511371
0.652266,-0.3832499,-0.09740445
0.5744714,-0.3420172,-0.02374585
0.4616566,-0.2204293,0.0171705
0.5344475,-0.08985886,0.01254667
0.5606443,-0.02508484,0.02507875
0.617763,0.03849245,0.05887222
0.7322751,0.00370088,0.1015486
0.7891645,-0.07213705,0.1429365
0.9457385,-0.1961034,0.1428093
1.087777,-0.3343083,0.1268217
1.165144,-0.3252213,0.1179579
1.218045,-0.2735071,0.1483907
1.206566,-0.2197122,0.2186335
1.271815,-0.1779325,0.2456309
1.410518,-0.2013719,0.216189
1.519058,-0.2483686,0.1471846
1.529695,-0.3784246,0.08526524
1.410797,-0.5416459,0.09128262
1.226585,-0.5988779,0.07921811
1.024608,-0.5166197,-0.02743909
0.9313066,-0.3856042,-0.1380238
0.9612285,-0.3628434,-0.1671214
0.9805226,-0.3946412,-0.1391878
1.007277,-0.4202985,-0.09761158
1.028552,-0.4739423,-0.06335065
0.9785295,-0.4738169,-0.05420202
0.8898511,-0.3919374,-0.07420485
0.7910659,-0.2674393,-0.08347477
0.6855118,-0.1540611,-0.06333272
0.5785733,-0.08838662,-0.06054467
0.4923378,-0.05224001,-0.06919573
0.4625369,-0.08076481,-0.07824335
0.4941645,-0.1704986,-0.1043314
0.5721475,-0.3029359,-0.123795
0.7067495,-0.4370941,-0.1473881
0.8608441,-0.4586636,-0.1816646
0.963973,-0.4079018,-0.2052204
1.052821,-0.3292287,-0.2004001
1.12112,-0.174355,-0.1677385
1.134357,0.004104193,-0.1171424
1.181178,0.1343117,-0.03454927
1.261489,0.1129659,0.001580354
1.362981,-0.06348665,-0.03008456
1.505465,-0.2191586,-0.05029765
1.598913,-0.3597553,-0.1500818
1.69689,-0.5642176,-0.3728321
1.766054,-0.7074916,-0.496282
1.538402,-0.7189073,-0.3093137
1.132359,-0.7524531,-0.008529249
0.89275,-0.7879775,0.03692141
0.8769324,-0.6014322,-0.09926369
0.9331649,-0.4165145,-0.1597351
0.903306,-0.4723711,-0.0783544
0.849389,-0.4682089,0.03662125
0.8230023,-0.3183956,0.01401424
0.7762414,-0.207366,-0.08382032
0.7851806,-0.1782119,-0.1585868
0.7532954,-0.2536178,-0.1619948
0.6250547,-0.3555818,-0.0721164
0.5427725,-0.3675368,-0.02253128
0.4959851,-0.2902306,0.01631226
0.5183253,-0.1724778,0.03803421
0.5976814,-0.07546318,0.007203114
0.6674054,-0.03247684,0.05638852
0.7597366,-0.02921038,0.0904368
0.805181,-0.06626073,0.09833092
0.8527035,-0.1488198,0.1400585
0.9476553,-0.2440933,0.14312
1.012364,-0.3291328,0.1633759
1.097563,-0.3513301,0.1583927
1.176115,-0.2633912,0.1413252
1.230029,-0.1495558,0.1612824
1.31237,-0.1176687,0.1505084
1.40251,-0.1873483,0.1546313
1.496652,-0.3647265,0.116319
1.53878,-0.62252,0.0449469
1.492153,-0.7339672,0.05263999
1.292022,-0.5823842,0.05994611
0.921666,-0.4106902,0.0420922
0.6938998,-0.3089517,0.03009846
0.7224151,-0.2745613,0.0273875
0.8263392,-0.4021198,0.03378849
1.076294,-0.5381645,0.02862293
1.334765,-0.5754961,0.01949693
1.231152,-0.5137063,-0.03066075
1.016827,-0.3591037,-0.1025213
0.935029,-0.2622863,-0.1073816
0.7368705,-0.1608568,-0.07215729
0.5690737,-0.05612961,-0.05526613
0.5414787,-0.07387715,-0.04280568
0.478769,-0.09476877,-0.04053495
0.5081194,-0.1594179,-0.07083506
0.5707903,-0.2838393,-0.09467757
0.6505982,-0.3621125,-0.1153829
0.8191106,-0.4190043,-0.1576585
0.8869744,-0.3672057,-0.1719164
0.9793033,-0.2162572,-0.1594208
1.053948,-0.08892021,-0.1531117
0.9773339,-0.01822743,-0.1157489
0.9949321,-0.01473803,-0.0333016
1.050544,-0.05052303,0.01298273
1.140986,-0.127746,-0.01092736
1.342427,-0.1749344,-0.0503568
1.456868,-0.167516,-0.1031489
1.510236,-0.2167201,-0.1459776
1.552951,-0.2943904,-0.1383139
1.536766,-0.3574631,-0.1221038
1.47413,-0.4066977,-0.1036422
1.302314,-0.4930616,-0.06843505
1.050493,-0.6574134,-0.03242576
0.8719083,-0.7227086,-0.003494863
0.841717,-0.6802127,-0.00519512
0.8951998,-0.6593169,-0.01806911
0.9321529,-0.5928394,-0.01015791
0.9748954,-0.4999454,-0.02524829
1.077279,-0.4465849,-0.09797837
1.127391,-0.4320015,-0.2025537
1.021541,-0.4693212,-0.2426266
0.8489663,-0.5068646,-0.1717334
0.6782964,-0.5097011,-0.09628931
0.5470243,-0.460932,-0.0440142
0.5023481,-0.3439212,-0.005397051
0.4894601,-0.2187321,-0.02786174
0.5024344,-0.1254517,-0.03227267
0.5495371,-0.06973407,-0.006720897
0.609535,-0.0832541,0.002826239
0.7277105,-0.1282045,0.06051432
0.8431324,-0.131173,0.1188154
0.8979486,-0.13978,0.1337494
0.9704374,-0.179147,0.160243
1.051959,-0.1906446,0.1834669
1.100292,-0.1696001,0.193742
1.186145,-0.1233019,0.2135717
1.342468,-0.09677324,0.2574409
1.468571,-0.1022362,0.295607
1.474996,-0.1119985,0.2640641
1.400901,-0.212334,0.1846278
1.354676,-0.4154526,0.1126744
1.317247,-0.5972569,0.04903226
1.190386,-0.6319595,-0.03907512
1.042262,-0.5250583,-0.1528182
0.9813809,-0.4562573,-0.1915518
0.9997874,-0.4930544,-0.1199642
1.00211,-0.5625024,-0.05063429
0.9510223,-0.6025551,-0.03542729
0.9135062,-0.5556599,-0.08228009
0.8649788,-0.4282846,-0.1533092
0.8082138,-0.2836697,-0.1424254
0.7421733,-0.1697572,-0.1055174
0.6141386,-0.1084401,-0.09989897
0.5256205,-0.1110193,-0.07691296
0.5082958,-0.1632903,-0.07838339
0.5318738,-0.2500088,-0.09938151
0.609979,-0.3350594,-0.1172287
0.7116542,-0.3583378,-0.1443805
0.8017515,-0.3481866,-0.1395964
0.8292948,-0.3278867,-0.1303559
0.9316438,-0.2407577,-0.1175986
1.153992,-0.09460982,-0.07750292
1.246806,-0.03185348,-0.07058899
1.320201,-0.08888498,-0.08230989
1.519388,-0.1031303,-0.07793503
1.565124,-0.1149616,-0.08085661
1.523196,-0.2804494,-0.1218484
1.627011,-0.5789807,-0.2514619
1.585327,-0.7849075,-0.346251
1.27489,-0.6221853,-0.1465295
0.9440746,-0.4358059,0.1928102
0.8048904,-0.5414508,0.2228611
0.9798551,-0.5391687,-0.05586684
1.093354,-0.4796296,-0.283049
0.9870105,-0.5313718,-0.2566798
0.9645528,-0.4400273,-0.1188449
0.8538416,-0.3302518,-0.06600785
0.7277554,-0.2746586,-0.02283423
0.7654175,-0.2289182,-0.03776709
0.7145845,-0.2746754,-0.10799
0.6467143,-0.2932021,-0.04611634
0.5805432,-0.3061945,-0.0071933
0.4837667,-0.3053582,0.005748591
0.4900422,-0.2223594,0.05486732
0.5324835,-0.1741388,0.01416783
0.6338194,-0.1383147,0.02879917
0.7793139,-0.1226645,0.05814492
0.8834193,-0.1352455,0.05157889
0.9670019,-0.1461804,0.1064874
1.029687,-0.2257817,0.1055974
1.112403,-0.294853,0.1181835
1.188624,-0.3206198,0.1600768
1.258831,-0.3111708,0.1727783
1.374517,-0.1984628,0.2584834
1.450552,-0.07798105,0.2951586
1.46477,-0.05834988,0.1677039
1.468033,-0.1382598,0.01271925
1.379408,-0.3107076,-0.008545086
1.158025,-0.5269509,0.01079917
1.003535,-0.561084,-0.04562009
0.9804671,-0.4072311,-0.06444626
0.9605791,-0.3706849,-0.07951018
0.9844956,-0.3688218,-0.05431728
1.015463,-0.3475888,0.04074106
0.9581517,-0.4154836,0.004160416
0.885932,-0.3935031,-0.06693597
0.8207439,-0.3320021,-0.1104473
0.7416366,-0.2583238,-0.159597
0.6526904,-0.1491987,-0.1090166
0.5892174,-0.1668634,-0.09048761
0.5993886,-0.1976337,-0.1092197
0.6517311,-0.2407715,-0.09248056
0.7224365,-0.3006457,-0.142553
0.8045049,-0.2545337,-0.1975282
0.8887873,-0.2090931,-0.2198882
0.9841714,-0.1418114,-0.2112773
1.047157,-0.08379489,-0.1622008
1.077579,-0.06773347,-0.1271931
1.15622,0.02414963,-0.09415703
1.270927,0.0685908,-0.09252098
1.353684,0.01547127,-0.1029301
1.424517,-0.08817742,-0.1053665
1.510612,-0.3084726,-0.1717021
1.569541,-0.5589604,-0.2554119
1.581725,-0.6463851,-0.3017415
1.558695,-0.5853966,-0.2805065
1.438737,-0.5717345,-0.1913873
1.166694,-0.5795248,-0.04791793
0.9147929,-0.5057724,0.08068241
0.911665,-0.4622094,-0.04499844
1.01459,-0.4636722,-0.2379952
0.9915221,-0.4425725,-0.1794911
0.9094827,-0.4063226,-0.1029665
0.8092482,-0.3368447,-0.08146761
0.7279694,-0.2805982,-0.06425756
0.7177902,-0.2742552,-0.1130416
0.6433209,-0.2701438,-0.08683663
0.5512817,-0.2821527,-0.04213895
0.5248523,-0.2881363,-0.01851916
0.5058779,-0.2438486,0.04267183
0.5530048,-0.1881665,0.01922816
0.6437056,-0.1509504,-0.001269705
0.7703463,-0.155507,0.008582261
0.9288045,-0.1765483,0.008459299
1.009749,-0.184088,0.08382191
1.049874,-0.2090026,0.1328066
1.074705,-0.2415206,0.1590618
1.106514,-0.2743991,0.1872297
1.167037,-0.2805784,0.1694055
1.197559,-0.2394007,0.1869581
1.232006,-0.1859429,0.199163
1.255865,-0.09794288,0.1974747
1.285797,-0.0496839,0.1973558
1.368636,-0.1957343,0.1358321
1.420599,-0.4487579,0.06050862
1.410285,-0.5692307,-0.01680677
1.271281,-0.5147948,-0.1055655
1.016935,-0.4036735,-0.1565204
0.859977,-0.2994606,-0.1218233
0.8606839,-0.28319,-0.05321063
0.9010462,-0.3409117,-0.04350855
0.9181811,-0.3675982,-0.04578137
0.9380345,-0.4023361,-0.05966304
0.8942315,-0.3758907,-0.08847506
0.7797529,-0.2648317,-0.08885258
0.6854103,-0.1894188,-0.08715994
0.5420845,-0.0566178,-0.06351866
0.4886745,0.00756575,-0.05980673
0.598559,-0.09388219,-0.0833464
0.6170513,-0.114775,-0.09176494
0.6508708,-0.1627209,-0.122414
0.7867804,-0.2579562,-0.1178345
0.9508042,-0.2850866,-0.1054712
1.128701,-0.3531002,-0.1225312
1.091021,-0.2783,-0.09972789
1.040118,-0.1049827,-0.09131742
1.134851,-0.0307841,-0.09361359
1.09847,0.05927671,-0.06636468
1.145795,0.1077689,-0.02702347
1.249697,0.09553356,0.01466382
1.225206,0.005256657,0.01014123
1.318472,-0.1452504,-0.0150043
1.439365,-0.2735214,-0.07776805
1.569015,-0.4695209,-0.234456
1.711198,-0.5149404,-0.3515201
1.647352,-0.4563432,-0.3154433
1.436997,-0.5946305,-0.1714872
1.107348,-0.6847132,-0.02518851
0.9031663,-0.6255919,-0.01549299
0.9872675,-0.5187765,-0.1362419
1.0204,-0.3917625,-0.1863946
1.0106,-0.3196229,-0.1033072
0.9738442,-0.2605252,-0.0166727
0.8335583,-0.2154689,-0.003337124
0.8138063,-0.2225831,-0.04734967
0.8080831,-0.2578091,-0.07163779
0.688436,-0.2925437,-0.04933386
0.6009841,-0.3338232,-0.01050621
0.5479808,-0.3628011,0.04698815
0.5409182,-0.3278751,0.06965698
0.5707752,-0.2765674,0.04036909
0.6108493,-0.1959716,0.02280446
0.7076836,-0.111554,0.02487505
0.8021046,-0.1009328,0.05273984
0.8630871,-0.1017984,0.1055605
0.9239715,-0.1381825,0.1290831
0.9908348,-0.2251173,0.1242568
1.070185,-0.3008521,0.1292044
1.120398,-0.3320172,0.1282823
1.123744,-0.2747215,0.132542
1.116993,-0.1988819,0.1635603
1.128125,-0.1614189,0.1911749
1.172887,-0.1524245,0.1983008
1.274742,-0.1993879,0.1660385
1.460583,-0.3071924,0.07638938
1.593563,-0.4603925,-0.06993061
1.454003,-0.5307122,-0.1738533
1.141518,-0.4619538,-0.1273297
0.9195416,-0.4418426,-0.08101159
0.8524992,-0.5030453,-0.08699196
0.9261574,-0.5292964,-0.02160008
1.04286,-0.5259551,-0.01886862
1.110738,-0.4699705,-0.1221834
1.130996,-0.3468312,-0.1953186
0.9981435,-0.2385686,-0.2157031
0.7923787,-0.1670448,-0.1350344
0.6529016,-0.1163126,-0.02520134
0.5333967,-0.1036,0.00781949
0.5127275,-0.1415921,0.007031889
0.5459872,-0.2119336,-0.04912467
0.5846689,-0.2887791,-0.1278557
0.6987308,-0.3594714,-0.1706975
0.7909097,-0.3894419,-0.1950482
0.8743063,-0.378091,-0.1939511
0.9587189,-0.3477975,-0.1889204
0.686513,-0.05067038,0.05720264
0.7718102,-0.009694365,0.08592487
0.8474715,-0.04861123,0.0977545
0.9151312,-0.1300597,0.1297255
1.005589,-0.2480183,0.1389611
1.11188,-0.3904173,0.145464
1.201403,-0.4333292,0.1763651
1.260036,-0.3462909,0.222586
1.301922,-0.1875239,0.2681465
1.356791,0.02066224,0.1953681
1.405556,0.09449297,0.1117613
1.440554,-0.03094495,0.1430999
1.476229,-0.2583431,0.1149556
1.438493,-0.5295854,0.0431334
1.294528,-0.554469,0.04807549
1.028313,-0.3584269,-0.02665591
0.7190575,-0.3320961,-0.1645995
0.7372437,-0.3532575,-0.1356207
0.9342304,-0.3465226,-0.05889443
0.9065768,-0.4416678,-0.05496494
0.9659839,-0.4583017,-0.02058035
1.01541,-0.4201772,-0.04189676
0.8163498,-0.3671793,-0.08586242
0.7139624,-0.2359792,-0.04778619
0.5781628,-0.1482727,-0.04971543
0.4813428,-0.0851419,-0.06208431
0.5668063,-0.05782229,-0.05951419
0.553401,-0.07698531,-0.09785821
0.6393397,-0.1259202,-0.1083183
0.737006,-0.2638504,-0.1217216
0.7405464,-0.3409475,-0.1494048
0.8545171,-0.3316739,-0.159446
0.9291796,-0.2973596,-0.1950073
1.047346,-0.2178579,-0.2092279
1.131931,-0.1744413,-0.1864482
1.100873,-0.1171373,-0.1582388
1.164771,-0.05209312,-0.09625067
1.207799,-0.07338137,-0.0330798
1.293037,-0.1427968,-0.02529666
1.406805,-0.250311,-0.05078087
1.442208,-0.3771585,-0.100417
1.562955,-0.5280353,-0.2218641
1.623186,-0.6655682,-0.3295843
1.521928,-0.6981473,-0.2739086
1.280226,-0.7365683,-0.1119546
0.9490983,-0.7763532,-0.003796694
0.9066348,-0.6518001,-0.05287523
1.084427,-0.4604335,-0.1695868
1.075391,-0.3187781,-0.1593903
0.9740356,-0.2163964,-0.07619118
0.8778097,-0.1915775,-0.02644229
0.7422617,-0.2298997,-0.02973277
0.6762073,-0.2833873,-0.08312303
0.6030978,-0.346216,-0.07221148
0.5137397,-0.4065203,-0.03587117
0.5119995,-0.4141729,-0.007981478
0.50287,-0.3397908,0.05179275
0.5282596,-0.2329382,0.03633654
0.5906839,-0.1379724,0.02773487
0.6429045,-0.03096392,0.06091021
0.7465676,0.07956453,0.07976753
0.7817459,0.01002483,0.1536821
0.8133684,-0.211469,0.170584
0.9742756,-0.3022169,0.1383439
1.117368,-0.3445907,0.1328429
1.22468,-0.359618,0.1034992
1.332257,-0.2055713,0.1264601
1.400564,-0.06516572,0.1687199
1.43768,-0.03466422,0.1568628
1.484713,-0.1758271,0.1105429
1.596733,-0.3936266,0.05825503
1.641981,-0.4231664,0.06786042
1.505111,-0.4597772,0.06654969
1.239162,-0.5419823,0.001033141
0.8692935,-0.4527388,-0.0353228
0.674858,-0.3642096,-0.04009073
0.7637424,-0.438837,-0.01677946
0.8412542,-0.5338252,0.02425197
0.9680017,-0.5231971,-0.01851243
1.08248,-0.4768155,-0.1098566
0.9983352,-0.3788544,-0.1457292
0.9221991,-0.2458397,-0.1161605
0.787605,-0.182721,-0.04881868
0.6046768,-0.1121857,-0.02496054
0.5693569,-0.08395866,-0.03343256
0.5530453,-0.1181233,-0.03864586
0.5980952,-0.1455961,-0.08943916
0.7003116,-0.2327189,-0.1337144
0.7512017,-0.2984183,-0.1636118
0.8528593,-0.3034448,-0.1979571
0.9490683,-0.2857835,-0.1968885
0.9951693,-0.2345034,-0.1904378
1.030795,-0.1794382,-0.1677695
1.054769,-0.1010543,-0.1333482
1.115748,-0.04746129,-0.1172643
1.200556,-0.02865795,-0.106111
1.286543,-0.02103228,-0.1058425
1.337347,-0.1062024,-0.1015869
1.399624,-0.236661,-0.1053083
1.510709,-0.3325775,-0.1394336
1.569412,-0.4134114,-0.2403491
1.597926,-0.5387041,-0.3286732
1.414261,-0.7392694,-0.1728694
1.024309,-0.9087579,0.02403861
0.9406879,-0.9281272,-0.04434307
0.993899,-0.7981568,-0.07638484
0.8438243,-0.5459018,0.0496839
0.7658197,-0.1779133,0.06958549
0.7992609,-0.02759087,0.03663498
0.8524595,-0.212364,-0.01619583
0.8876321,-0.2403914,-0.1260397
0.8263157,-0.2613076,-0.1455109
0.766917,-0.4036122,-0.1168064
0.6942657,-0.3385825,-0.1124712
0.5969613,-0.3783567,-0.09517407
0.5897708,-0.354279,-0.06427089
0.6154816,-0.07980168,0.01761354
0.6013756,-0.01325488,0.09517358
0.623467,-0.02273961,0.1106739
0.6943973,-0.0838299,0.1382414
0.7309436,-0.2212173,0.182834
0.7939162,-0.289365,0.1686443
0.8809071,-0.3722004,0.1384523
0.9130573,-0.3271688,0.1430307
0.9577854,-0.2588901,0.1249051
0.9875865,-0.2155148,0.1284465
1.058004,-0.1250604,0.1340553
1.311574,-0.1940306,0.05931176
1.624897,-0.3154093,-0.007841004
1.72101,-0.4366279,-0.01593858
1.453913,-0.4879861,0.03947316
1.156407,-0.4361726,0.0869886
1.134525,-0.5457281,0.0694586
1.071166,-0.6687346,0.081311
0.8355371,-0.7388096,0.09022327
0.7585881,-0.8134297,0.06419434
0.8625931,-0.7634584,0.02997522
1.000793,-0.6896423,-0.05176398
1.189864,-0.5347331,-0.1291668
1.242053,-0.3292181,-0.1505243
1.072661,-0.2290437,-0.1186612
0.9301788,-0.1274531,-0.05337513
0.8135503,-0.1153127,-0.004644633
0.6550358,-0.1982529,0.002996878
0.5417733,-0.2517967,-0.02851993
0.5000846,-0.3216939,-0.06279274
0.5481118,-0.3470608,-0.09906413
0.5892071,-0.3162098,-0.1418979
0.6552105,-0.25103,-0.1536446
0.8251823,-0.1540222,-0.1712453
0.9130843,-0.07918729,-0.1967102
0.9452444,-0.0212851,-0.1785033
0.9614662,-0.0205175,-0.1405404
0.9337683,-0.05890521,-0.08044018
1.015163,-0.08417412,-0.01117371
1.120369,-0.09845865,0.02036994
1.168697,-0.1116831,0.04197715
1.2143,-0.1995685,0.03021082
1.352788,-0.3012273,-0.05109715
1.675535,-0.3230315,-0.1487477
1.873813,-0.3140836,-0.2030505
1.800165,-0.3243952,-0.1743035
1.567703,-0.4410147,-0.1340141
1.150715,-0.6969343,-0.1235774
0.8839236,-0.9101882,-0.09297383
0.9798246,-0.8926844,-0.1189403
1.034233,-0.814672,-0.1589066
0.9620666,-0.7677595,-0.1189957
1.008798,-0.5749669,-0.08586144
0.9906925,-0.4638371,-0.05388559
0.8012026,-0.4045658,-0.058493
0.6789315,-0.1486696,-0.1327167
0.6738287,-0.122951,-0.1576008
0.6897276,-0.2585493,-0.1432862
0.5928723,-0.2360806,-0.1141018
0.4918056,-0.3242204,-0.07751891
0.4979048,-0.3351363,-0.04477799
0.3997039,-0.2101205,0.02695783
0.3651797,-0.218587,0.04954838
0.4932696,-0.1424145,0.02175319
0.6072414,-0.0257517,0.03862579
0.8195757,-0.02791868,0.05469832
1.036428,-0.07856094,0.06005044
1.163477,-0.2158314,0.07312683
1.242508,-0.3292142,0.09591228
1.222653,-0.3563453,0.1421797
1.221943,-0.3206658,0.1714652
1.253776,-0.2499158,0.192055
1.301775,-0.2236957,0.2179836
1.403622,-0.1946355,0.1874952
1.46155,-0.2550286,0.1488563
1.465518,-0.4176323,0.1735636
1.397349,-0.5294763,0.15821
1.229187,-0.563803,0.02808553
1.051178,-0.4604458,-0.1343869
0.9243486,-0.358322,-0.1797038
0.8609129,-0.3852717,-0.08488695
0.8549146,-0.4306528,-0.02714602
0.9052868,-0.4588199,-0.04194228
0.9529583,-0.3797209,-0.06478976
0.9035424,-0.2295939,-0.1025807
0.780544,-0.1530488,-0.07023949
0.6256261,-0.1086715,-0.01337613
0.4953972,-0.08914828,-0.03134813
0.4949048,-0.1039363,-0.05857581
0.5717897,-0.144472,-0.1068688
0.6431236,-0.2394718,-0.1620519
0.7349441,-0.3437216,-0.1856709
0.8432526,-0.3937772,-0.2037124
0.9670698,-0.3845594,-0.1785988
1.048422,-0.3320252,-0.1410064
1.051795,-0.2009888,-0.118554
1.08855,-0.006191009,-0.1003041
1.142587,0.09509597,-0.112343
1.163037,0.07454726,-0.1095962
1.219049,0.06417719,-0.1041158
1.288036,0.03465531,-0.1173975
1.297059,-0.1043579,-0.1116156
1.294104,-0.3241531,-0.1155077
1.385614,-0.5712828,-0.1348943
1.506752,-0.7408031,-0.1974255
1.535448,-0.7655477,-0.2914099
1.448805,-0.7179957,-0.2672296
1.193232,-0.6855723,-0.09845723
0.9205603,-0.6723772,0.0259169
0.909867,-0.5780344,-0.06236321
0.9947408,-0.3959261,-0.1673195
0.9104825,-0.263199,-0.06784606
0.8439343,-0.2004777,0.002042594
0.8704896,-0.1384206,-0.03484438
0.8452363,-0.1132869,-0.05742065
0.8394216,-0.1876749,-0.1211008
0.7627686,-0.292995,-0.09565629
0.5802054,-0.3486225,0.003740756
0.5024968,-0.327753,0.008818802
0.4758502,-0.2076182,0.01448936
0.4717747,-0.07965097,-0.002998783
0.5548945,-0.04331328,-0.01968338
0.7053846,-0.0525818,0.03903884
0.8398026,-0.07158029,0.06419383
0.8639502,-0.1497661,0.07410029
0.9327215,-0.2484586,0.07302276
1.05905,-0.2845593,0.0678738
1.140576,-0.3020822,0.09222731
1.230687,-0.2942965,0.1131123
1.244083,-0.1993605,0.1603686
1.270442,-0.0546463,0.1454624
1.437225,-0.01073349,0.05846651
1.555506,-0.2513085,0.02044732
1.552964,-0.6149156,0.04516982
1.469471,-0.7469361,0.08021114
1.290721,-0.6310781,-0.009966015
1.07652,-0.4750907,-0.1237581
0.9494281,-0.3925292,-0.1012845
0.8914167,-0.3990889,-0.04473522
0.7834769,-0.4605943,0.02148081
0.7820687,-0.4570871,0.0463147
0.9232137,-0.4137044,-0.007964667
0.9396409,-0.36537,-0.07146717
0.8949503,-0.2462885,-0.134842
0.8092841,-0.2075392,-0.1144862
0.6072132,-0.1636381,-0.05070689
0.5328465,-0.04728928,-0.04702051
0.561223,-0.09514727,-0.03562066
0.5562547,-0.1388138,-0.04775042
0.6065013,-0.1406577,-0.100306
0.7310583,-0.208613,-0.153662
0.8874353,-0.2147189,-0.2240207
0.9577205,-0.2576991,-0.2160781
0.9771213,-0.2705021,-0.1456805
1.00738,-0.1611107,-0.1080354
0.9766214,-0.03922052,-0.06345737
0.9981288,0.06742514,-0.05717799
1.075709,0.02244521,-0.08363993
1.17897,-0.08137393,-0.09034444
1.377424,-0.1685882,-0.1266778
1.535885,-0.3823632,-0.1315572
1.62012,-0.557297,-0.1202192
1.668857,-0.6433238,-0.1732051
1.650346,-0.7003903,-0.2059708
1.535559,-0.7174306,-0.1697863
1.200323,-0.7916068,-0.03969277
0.7771713,-0.7899837,0.1498463
0.5733105,-0.6484747,0.2085495
0.6313777,-0.4792451,0.08449371
0.8554388,-0.328965,-0.07928264
1.115853,-0.3370857,-0.1912419
1.212532,-0.4329915,-0.2104949
1.028912,-0.4904692,-0.1489749
0.7752618,-0.5263849,-0.1241879
0.6318833,-0.4596647,-0.1193327
0.5529256,-0.3600686,-0.09727455
0.585827,-0.2929094,-0.1066088
0.6183006,-0.2141059,-0.05200735
0.5966439,-0.1585918,0.01865916
0.6375576,-0.08792001,0.02022665
0.6512936,-0.002917753,0.05644904
0.6856662,0.05392561,0.1011487
0.7281191,0.02994314,0.1372237
0.7277742,-0.07621124,0.1807252
0.8300085,-0.1557911,0.1788922
0.9032369,-0.2412939,0.1462981
0.8857611,-0.2425778,0.1194776
0.8857366,-0.1236498,0.1255623
0.9058295,-0.08124681,0.1448734
0.9740336,-0.03843593,0.1699805
1.043537,-0.02048718,0.1953892
1.17503,-0.0976067,0.1859576
1.439174,-0.1797761,0.151616
1.656748,-0.3509959,0.08674308
1.714021,-0.4835281,0.04993365
1.735699,-0.5018626,0.06941221
1.691028,-0.5344534,0.06892276
1.305047,-0.5268895,0.0688793
0.8102584,-0.5455798,0.06757734
0.6787105,-0.6468416,0.002034285
0.8024965,-0.7619922,-0.09111944
0.9591327,-0.8056062,-0.1304801
1.177254,-0.6734094,-0.1469189
1.303705,-0.4492494,-0.2091927
1.10936,-0.2409113,-0.2317452
0.8665178,-0.1101074,-0.1531709
0.7216394,-0.06669743,-0.04897664
0.5209739,-0.03222581,0.008615114
0.4897504,-0.05388329,-0.01170838
0.5566311,-0.1656206,-0.07501729
0.5598781,-0.2971199,-0.1372205
0.6338157,-0.3572254,-0.154509
0.6629568,-0.3361472,-0.1290616
0.6877206,-0.3524158,-0.1398398
0.7194462,-0.324299,-0.1492897
0.716165,-0.199933,-0.1377418
0.8322959,-0.169882,-0.1571223
0.9624279,-0.1834981,-0.152824
1.09321,-0.1746175,-0.1308365
1.245751,-0.226716,-0.1150512
1.318261,-0.2771253,-0.09350455
1.405674,-0.3151448,-0.1086519
1.489465,-0.3627811,-0.1370531
1.565736,-0.4485595,-0.2099684
1.676224,-0.5644622,-0.3366346
1.609847,-0.5793266,-0.3180323
1.279718,-0.6589462,-0.1116089
0.9484812,-0.8224958,0.02324298
0.9189519,-0.7140022,-0.09305589
1.003496,-0.520637,-0.2233094
0.8760712,-0.4727677,-0.1263838
0.7937489,-0.3364913,-0.03136297
0.8181874,-0.2051892,-0.02937542
0.7595603,-0.2168044,-0.02346733
0.7825317,-0.2461327,-0.1037197
0.7501098,-0.2965723,-0.1301933
0.6083451,-0.3338035,-0.0631517
0.5765273,-0.328287,-0.04851336
0.545435,-0.3045162,-0.002956111
0.5700855,-0.2350609,0.02130243
0.6558063,-0.1528834,0.03105267
0.7092988,-0.0866033,0.07014627
0.8156992,-0.0903641,0.03691355
0.8918968,-0.1366802,0.03833836
0.9626351,-0.1768405,0.07019431
1.011814,-0.2796765,0.07436231
1.0132,-0.3401094,0.09154158
1.087105,-0.3200472,0.08904377
1.129667,-0.3088576,0.1286259
1.16592,-0.2404662,0.1781747
1.246327,-0.1458926,0.1775801
1.335819,-0.1359719,0.1360159
1.47918,-0.2934345,0.03175566
1.58196,-0.5611152,-0.03687129
1.618309,-0.6711146,-0.05957016
1.450285,-0.599493,-0.08872038
1.009799,-0.4809904,-0.09449794
0.7200771,-0.3602033,-0.1008698
0.7913665,-0.3923747,-0.09957602
0.9607971,-0.5387026,-0.06657291
1.020561,-0.582556,-0.04220427
1.036047,-0.5449977,-0.07256454
1.001166,-0.4566117,-0.1141267
0.8604777,-0.3232188,-0.09945687
0.7258202,-0.2039817,-0.06929529
0.6105896,-0.1029858,-0.04717445
0.575321,-0.05939437,-0.04151347
0.5900681,-0.02655359,-0.06893216
0.572233,0.001372395,-0.08997078
0.6472565,-0.05483584,-0.1098194
0.7139586,-0.1501571,-0.1406426
0.7928517,-0.3060153,-0.1712829
0.9003124,-0.414773,-0.1834942
0.871484,-0.3821202,-0.1518637
0.8967513,-0.3624053,-0.1301581
0.9400708,-0.2841938,-0.1280725
0.9757965,-0.1545652,-0.1148293
1.147128,-0.1059121,-0.1196612
1.244063,-0.0776054,-0.1111228
1.288787,-0.11723,-0.08788467
1.347011,-0.2284717,-0.09131851
1.395519,-0.4171032,-0.1174884
1.499099,-0.6704307,-0.2019553
1.510302,-0.7435246,-0.2939451
1.439989,-0.6654294,-0.2739843
1.311204,-0.6445279,-0.1819835
1.082361,-0.66633,-0.1215561
0.9774145,-0.6473714,-0.1176547
1.044319,-0.5752989,-0.1539384
1.051482,-0.453057,-0.1564355
0.8910294,-0.229547,-0.05970705
0.7559182,-0.06859205,0.03566757
0.7727152,-0.1190571,0.01963176
0.7863848,-0.1829628,-0.03513175
0.7443804,-0.2273847,-0.05221057
0.6910913,-0.331144,-0.06281121
0.6174677,-0.3694864,-0.04637654
0.5589209,-0.3276602,0.01163876
0.577488,-0.2595755,0.04126122
0.6544826,-0.1401178,0.0521632
0.7553749,-0.06296785,0.03863858
0.8459595,-0.07577362,0.004859752
0.8751242,-0.09433479,0.02911078
0.9381237,-0.174972,0.05401167
0.9733695,-0.2812272,0.06764327
0.9020337,-0.2807822,0.102597
0.9171734,-0.2838667,0.11346
0.9364569,-0.3058939,0.1213485
0.9321084,-0.2478463,0.1171448
1.039441,-0.191991,0.1313085
1.138475,-0.1413821,0.1853673
1.255477,-0.05678531,0.1862072
1.386815,-0.05799898,0.1123137
1.49691,-0.2245431,0.0009803153
1.698012,-0.4904024,-0.03140902
1.778829,-0.6523928,0.02678437
1.496959,-0.5966205,0.04586396
1.055485,-0.4550439,0.04457942
0.8474801,-0.3254938,-0.008131363
0.8716236,-0.3013013,-0.1061837
0.8689085,-0.4010976,-0.1048181
0.9141988,-0.4566689,-0.0691354
1.022625,-0.4770148,-0.08290342
1.029657,-0.4422242,-0.1078984
0.9777802,-0.3153327,-0.1323362
0.8992327,-0.2625062,-0.111282
0.7575916,-0.223378,-0.06401403
0.6264599,-0.1627799,-0.06114898
0.5873307,-0.1509081,-0.07226274
0.5780128,-0.1177282,-0.08206627
0.5889737,-0.161201,-0.1079362
0.6668352,-0.2725069,-0.1247076
1.430701,-0.2266758,0.1648839
1.50461,-0.03384385,0.1772136
1.538273,-0.008855997,0.1291148
1.54631,-0.18679,0.06523533
1.57744,-0.3976376,0.07948679
1.425481,-0.5136579,0.08372942
1.138697,-0.4785891,0.02709783
0.9275168,-0.3944461,-0.06465542
0.8997547,-0.3144871,-0.1692343
0.9910013,-0.2895393,-0.1781444
1.052945,-0.3715448,-0.09790002
1.079046,-0.4225282,-0.06240292
1.022987,-0.4001031,-0.07374087
0.8771311,-0.3522038,-0.08240781
0.718121,-0.2764663,-0.0869322
0.5713984,-0.2220417,-0.08839829
0.4982331,-0.1864151,-0.09603709
0.4892383,-0.1547218,-0.1004923
0.5037063,-0.1603524,-0.111088
0.5588954,-0.1817693,-0.124801
0.6354609,-0.201845,-0.0996319
0.689136,-0.2311548,-0.07259085
0.7128004,-0.2328826,-0.08097072
0.8196377,-0.1790937,-0.09429169
1.0369,-0.1146958,-0.1073075
1.252394,-0.08287145,-0.1312439
1.45943,-0.07357191,-0.1457451
1.559549,-0.09949943,-0.1327861
1.510651,-0.184902,-0.1177465
1.487533,-0.2921792,-0.1204564
1.459834,-0.4055581,-0.1572053
1.411607,-0.5126527,-0.2152764
1.327449,-0.6003171,-0.2087067
1.092826,-0.7240612,-0.130182
0.9741422,-0.7777685,-0.074616
1.011518,-0.6463505,-0.08304062
0.9613271,-0.4880994,-0.09050875
0.9752922,-0.377084,-0.04857155
1.051471,-0.2515792,-0.02245542
1.075915,-0.1613973,-0.02974171
1.065681,-0.1854369,-0.03682652
0.9228885,-0.2657938,-0.04795229
0.7410891,-0.2958369,-0.02510957
0.6312196,-0.3157714,0.01124569
0.558353,-0.3101053,0.01227856
0.5324266,-0.2155455,0.01028512
0.5113765,-0.113756,0.01230824
0.5145355,-0.0783116,0.02159349
0.5956889,-0.1169016,0.04311312
0.6897232,-0.1402365,0.06033924
0.7302567,-0.1440593,0.06377094
0.7596227,-0.1943571,0.06345365
0.8424538,-0.2095707,0.09458928
0.9540998,-0.2180499,0.1374668
1.074735,-0.2300953,0.176758
1.216696,-0.1869448,0.2069226
1.400277,-0.1487524,0.1942101
1.570301,-0.1492705,0.1333983
1.621523,-0.2767792,0.02514449
1.61111,-0.4892268,-0.01051144
1.456587,-0.5801792,0.03247271
1.086363,-0.5253885,-0.01013138
0.8392756,-0.420116,-0.05536847
0.7901094,-0.3379954,-0.06360242
0.7915488,-0.3124022,-0.0604403
0.8905577,-0.3760371,-0.0114277
0.9912976,-0.4243747,-0.06267338
1.012942,-0.3768115,-0.1470244
0.9385328,-0.326709,-0.1408452
0.7740651,-0.2241188,-0.1138557
0.614674,-0.134433,-0.04487209
0.4908074,-0.1519804,-0.01799903
0.4858292,-0.1700726,-0.03981217
0.5537913,-0.242416,-0.04469141
0.6166768,-0.3553732,-0.1186351
0.751313,-0.4127649,-0.1987325
0.8921403,-0.4150922,-0.2381774
1.009548,-0.3385309,-0.2467529
1.0769,-0.2167894,-0.2110939
1.066524,-0.04215297,-0.1830347
1.087723,0.1244643,-0.1265872
1.13015,0.1206528,-0.08143128
1.243767,0.01232904,-0.08341176
1.431262,-0.08897355,-0.07013282
1.495182,-0.2052999,-0.08640303
1.50154,-0.3329385,-0.1245264
1.580181,-0.5270595,-0.2047941
1.606457,-0.7544766,-0.3524612
1.56517,-0.8169361,-0.3963921
1.487518,-0.8290018,-0.2161437
1.20745,-0.8605507,0.06789089
0.8641449,-0.7018207,0.1705091
0.7976779,-0.4572491,0.07295809
0.887804,-0.279626,-0.01851245
0.9217952,-0.2053099,-0.1016315
0.9248109,-0.231422,-0.1120848
0.9102385,-0.2784704,-0.06461547
0.8456916,-0.3923449,-0.1059992
0.7386882,-0.4753063,-0.09796461
0.6327448,-0.4665038,-0.05598504
0.5432947,-0.4378561,-0.07384942
0.507019,-0.2997258,-0.02402209
0.5050907,-0.09554684,0.0201987
0.4855944,0.0554923,0.03857991
0.4891118,0.08861243,0.1136661
0.5190722,0.03755436,0.1476933
0.6224546,-0.0178417,0.134027
0.8207074,-0.1278399,0.1182634
1.021788,-0.1795307,0.1036075
1.21294,-0.1188408,0.09283826
1.360051,-0.07267706,0.09645391
1.427964,0.01328542,0.1593733
1.470643,0.1269696,0.2244088
1.524689,0.1621003,0.2266595
1.568613,0.09226759,0.1826704
1.538627,-0.2150824,0.1400749
1.381591,-0.772928,0.1182404
1.087378,-1.083189,0.0654755
0.8333892,-0.8692611,0.02482861
0.7596971,-0.6339228,0.01104867
0.7328757,-0.5321977,-0.03553911
0.8647455,-0.3961575,-0.06743224
1.286442,-0.4292596,-0.1111943
1.547693,-0.4096402,-0.2113115
1.333351,-0.2401739,-0.2325195
0.9777724,-0.2139211,-0.1099551
0.7809857,-0.1270655,-0.0002918022
0.6381035,-0.07085618,0.004679049
0.4760448,-0.1407838,-0.00693462
0.3910289,-0.1188011,-0.01021052
0.4171716,-0.1977823,-0.05238081
0.4794983,-0.2487557,-0.1021297
0.5289938,-0.1894261,-0.1346019
0.6762218,-0.2237966,-0.1928354
0.8954062,-0.2045455,-0.2578427
1.057492,-0.1916283,-0.2644784
1.136546,-0.178293,-0.1927611
1.061543,-0.06398988,-0.07354736
1.011125,-0.002343082,-0.01138561
1.081334,0.05563112,0.008096003
1.108298,0.1278811,0.1032938
1.195384,0.07038014,0.1568254
1.367678,-0.2101769,0.0341229
1.625635,-0.5494195,-0.1283459
1.899179,-0.6007318,-0.242909
1.888498,-0.4812551,-0.3152331
1.622247,-0.4948626,-0.2172127
1.19189,-0.5483027,-0.006674337
0.9001075,-0.526252,0.05227323
1.05053,-0.4879449,-0.06417924
1.143204,-0.4286714,-0.2107959
1.060771,-0.407418,-0.2521947
1.115716,-0.4352017,-0.1990954
1.061064,-0.3846827,-0.1716062
0.9063351,-0.3464447,-0.1390943
0.791242,-0.3194196,-0.1026602
0.6283447,-0.2325245,-0.08184229
0.5585829,-0.2126008,-0.03076411
0.522687,-0.202069,-0.0007784676
0.4637226,-0.1758704,0.02349079
0.5121765,-0.1809382,0.04714127
0.5507822,-0.1556373,0.04443082
0.584031,-0.1301978,0.06435887
0.678598,-0.1042154,0.05695458
0.7936021,-0.09457715,0.04184569
0.9522173,-0.140615,0.06378594
1.086349,-0.2263834,0.07444496
1.192098,-0.3231143,0.1154377
1.293573,-0.332897,0.1539018
1.317484,-0.2675579,0.1703765
1.278039,-0.1982936,0.2334497
1.2527,-0.1354795,0.2719549
1.310714,-0.1304124,0.2502581
1.42891,-0.2074029,0.181236
1.493893,-0.3498075,0.07628501
1.35832,-0.4911472,0.03391922
1.033277,-0.5674841,0.001423511
0.8238895,-0.5890027,-0.1074127
0.8765374,-0.5399245,-0.1436319
1.019627,-0.4584418,-0.08319401
1.083528,-0.4306507,-0.07763881
1.036944,-0.3956059,-0.08711672
0.9542163,-0.3052004,-0.08195252
0.8346214,-0.2215796,-0.101731
0.6419173,-0.1143957,-0.06450356
0.4903445,-0.01923999,-0.01667719
0.4576558,-0.04247162,-0.02696438
0.4379595,-0.06615928,-0.02942682
0.4497329,-0.06370512,-0.04908583
0.575028,-0.1773479,-0.1034995
0.7056747,-0.3318799,-0.1540211
0.8447203,-0.4161991,-0.1958677
0.974385,-0.4301646,-0.2204548
0.9992935,-0.3812704,-0.2224574
1.024851,-0.2970538,-0.1964494
1.042062,-0.1756523,-0.1435745
1.053035,-0.04537058,-0.07681281
1.134775,0.05670978,-0.03348876
1.210358,0.1351781,-0.02151059
1.299788,0.1460051,-0.009667697
1.396859,0.08934891,-0.02314436
1.490671,-0.007077303,-0.0641123
1.62742,-0.1710958,-0.1224937
1.701038,-0.3689964,-0.229325
1.717696,-0.5116944,-0.3558128
1.691331,-0.5918037,-0.3919292
1.436055,-0.7538546,-0.2266092
1.054408,-0.9745734,-0.02086612
0.9506353,-0.9449536,-0.03626894
1.008726,-0.744695,-0.1266697
0.8783651,-0.6345678,-0.1314561
0.8259065,-0.5032865,-0.1211323
0.8557459,-0.4082973,-0.02609686
0.7149007,-0.3444006,0.07555004
0.715807,-0.20833,-0.01595585
0.7700188,-0.2292341,-0.1385715
0.6579801,-0.2796764,-0.1422844
0.6104536,-0.2972991,-0.122598
0.5486795,-0.4030087,-0.07606004
0.4977586,-0.363754,0.01581085
0.5493854,-0.2969814,0.04873104
0.5952857,-0.2258404,0.01323911
0.7309533,-0.07562448,0.005052344
0.8325138,-0.06355477,0.03504675
0.8106323,-0.07198255,0.07909492
0.8266689,-0.1298227,0.1418383
0.8695007,-0.2675866,0.1674581
0.9749123,-0.3253106,0.1410859
1.105334,-0.3524419,0.1335409
1.203553,-0.2706996,0.1281505
1.328397,-0.1339896,0.1121936
1.385514,-0.08578259,0.1145472
1.438335,-0.1839798,0.07688003
1.56593,-0.4252025,0.03542974
1.528522,-0.6041965,0.07842789
1.255289,-0.674949,0.1216175
0.9622547,-0.5888503,0.09181262
0.8357656,-0.4174618,0.01863428
0.8530015,-0.4145685,-0.05057479
0.9284856,-0.5109733,-0.04464573
1.116151,-0.6269877,0.00950024
1.213986,-0.6322333,0.00599045
1.053064,-0.4737809,-0.03782942
0.9325066,-0.3627713,-0.06955593
0.8061678,-0.2078348,-0.07606907
0.5309962,0.0119263,-0.06158572
0.4281065,0.04446068,-0.06764881
0.4889521,-0.118963,-0.06544122
0.5207837,-0.299932,-0.08584424
0.6474087,-0.4392498,-0.1717557
0.8268452,-0.5236179,-0.2213497
0.9045597,-0.466875,-0.2415845
0.9604302,-0.3899174,-0.2364636
1.000122,-0.2958755,-0.1766229
0.9800028,-0.09891815,-0.1151547
0.9701214,-0.01301231,-0.04483096
0.9675916,0.009741848,-0.02709931
1.060505,0.02024306,-0.05467069
1.237974,-0.05675832,-0.04479822
1.304344,-0.1101576,-0.04983204
1.339227,-0.1995184,-0.06082798
1.43601,-0.3084951,-0.08255835
1.509222,-0.4222408,-0.1353243
1.517837,-0.5716937,-0.1824325
1.435643,-0.5944159,-0.2017504
1.254306,-0.5646108,-0.07715923
1.047112,-0.6073992,0.1151982
0.9202913,-0.6787607,0.1292432
0.8663214,-0.7071113,0.06098305
0.8578855,-0.6162372,0.05300935
0.9478003,-0.4652697,-0.005027061
1.085308,-0.3600747,-0.09787502
1.099201,-0.3721652,-0.1351532
0.9391127,-0.446601,-0.1470075
0.7546397,-0.4668649,-0.1178177
0.6584195,-0.4192009,-0.07772812
0.6347333,-0.3019986,-0.07824345
0.6216785,-0.1921063,-0.06983282
0.6082813,-0.1441002,-0.05879063
0.6218927,-0.08522381,-0.0322715
0.6084226,-0.0100082,0.03406377
0.599745,-0.01285229,0.08177608
0.6501768,-0.1011239,0.1070396
0.6903577,-0.1444003,0.1197257
0.7115238,-0.1539681,0.1246439
0.7648779,-0.1869176,0.168921
0.9150319,-0.2001916,0.2177515
1.094824,-0.2103985,0.20157
1.14525,-0.1829559,0.1808751
1.079496,-0.1202374,0.1987523
1.032409,-0.07424016,0.185028
1.140339,-0.07339866,0.1675731
1.332115,-0.120789,0.1933001
1.472154,-0.1254054,0.2171517
1.542819,-0.2393635,0.2379154
1.496191,-0.5140957,0.2381564
1.440422,-0.6307495,0.2174873
1.365863,-0.5315003,0.1937415
1.124434,-0.382683,0.07326267
0.9200136,-0.3472157,-0.1163022
0.8772042,-0.4612856,-0.1952717
0.9154444,-0.59921,-0.153888
0.9928443,-0.6314784,-0.1200649
1.049084,-0.5163889,-0.1186705
1.067016,-0.4145691,-0.1189948
0.9787668,-0.3412006,-0.1290404
0.8331041,-0.2621261,-0.09364693
0.7425321,-0.2373175,-0.02312283
0.6687885,-0.1785475,-0.02109856
0.6381378,-0.1644144,-0.06297962
0.6192548,-0.2122129,-0.1085964
0.5938366,-0.2337578,-0.1393981
0.6210963,-0.28192,-0.1306069
0.6542841,-0.2840919,-0.1130037
0.7219916,-0.2582,-0.09272763
0.8191873,-0.2451824,-0.1019017
0.9158835,-0.2034807,-0.1298794
1.054495,-0.1648888,-0.1177907
1.171875,-0.09944509,-0.09609697
1.257966,-0.05579577,-0.07818161
1.347397,-0.08589603,-0.09953537
1.435851,-0.1954818,-0.1611491
1.537152,-0.4667604,-0.2015352
1.612451,-0.809097,-0.292827
1.622988,-0.9375167,-0.3808358
1.482806,-0.7273439,-0.3003724
1.138984,-0.4998164,-0.1891377
0.8645786,-0.5298078,-0.1616471
0.9255035,-0.5983104,-0.1034533
1.051677,-0.5965052,-0.1172806
0.9983749,-0.5900665,-0.2060916
0.9620689,-0.4887764,-0.1071259
0.896691,-0.3356961,0.01183137
0.7807482,-0.243769,-0.009021011
0.8055634,-0.2290055,-0.01493533
0.7584876,-0.2614551,-0.06475309
0.6112684,-0.2733942,-0.09820401
0.5263475,-0.2826815,-0.05750581
0.4429875,-0.2786184,-0.04809098
0.4459233,-0.2347876,-0.01004287
0.5051747,-0.1949212,0.01805657
0.5935264,-0.145185,0.0289886
0.7671543,-0.1279182,0.05686078
0.9220186,-0.1561603,0.05489691
1.060533,-0.1854682,0.09307103
1.121866,-0.2621278,0.1439924
1.102965,-0.3369695,0.1845739
1.148698,-0.3357775,0.2345964
1.239726,-0.2774691,0.2455568
1.348488,-0.1759771,0.266557
1.408588,-0.09054919,0.279514
1.391913,-0.1061639,0.2281557
1.380356,-0.2454051,0.1393229
1.339922,-0.417339,0.0580634
1.226077,-0.4882127,0.01493882
1.054168,-0.4625002,-0.05947396
0.916809,-0.4176779,-0.1384408
0.9050317,-0.367236,-0.1262209
0.9192465,-0.3794945,-0.09875306
0.8939772,-0.4947265,-0.06775585
0.8880898,-0.5568353,-0.01036501
0.8561037,-0.4691903,-0.05063676
0.7951608,-0.3116638,-0.1337436
0.7706723,-0.1891516,-0.1300767
0.7148823,-0.1260089,-0.1308025
0.6417674,-0.1033026,-0.1450269
0.6136593,-0.1562938,-0.1316588
0.6019793,-0.2481729,-0.1422828
0.6277109,-0.3415788,-0.1465979
0.6690877,-0.4226096,-0.1546027
0.7682402,-0.4608249,-0.193347
0.9460752,-0.5294632,-0.2189129
1.005524,-0.5236673,-0.2177732
1.005014,-0.3702161,-0.1912602
1.122639,-0.1969953,-0.1612938
1.199458,0.03665887,-0.104805
1.195172,0.2183725,-0.03521276
1.263894,0.2148428,-0.03309509
1.367346,0.09333561,-0.08234323
1.504669,-0.1977176,-0.1699009
1.672765,-0.5697516,-0.2730683
1.703419,-0.8554326,-0.3789344
1.60029,-0.9223852,-0.4319809
1.350954,-0.7200751,-0.2405957
0.9567149,-0.5466952,0.01904819
0.7426207,-0.4931873,0.01736937
0.7754566,-0.4058239,-0.103813
0.9129515,-0.3542429,-0.2085764
1.084665,-0.3474843,-0.2940555
0.9806132,-0.3240127,-0.1786409
0.7203566,-0.3069189,0.03027119
0.6838333,-0.2996486,0.03861001
0.664705,-0.2940587,-0.04397154
0.6226939,-0.2954938,-0.07780845
0.6309049,-0.3016615,-0.07504983
0.5793774,-0.2981769,-0.01741274
0.5864652,-0.2663183,0.01897371
0.5911111,-0.1941685,0.03278042
0.6224471,-0.137287,0.04752602
0.7705711,-0.1304451,0.04498552
0.860295,-0.1392139,0.07479071
0.9434313,-0.1722717,0.08709751
1.002228,-0.2372369,0.07396314
1.050542,-0.3221573,0.06690498
1.201597,-0.3975692,0.05764254
1.309855,-0.4080158,0.1198403
1.34382,-0.293575,0.2282733
1.325727,-0.07434936,0.2640999
1.350077,0.0286831,0.1739999
1.484149,-0.09863251,0.08897162
1.545499,-0.2939547,0.1324082
1.458958,-0.4212553,0.1428353
1.190482,-0.4168588,0.06808603
0.8537693,-0.3243777,0.001533197
0.7316064,-0.3023998,-0.0571806
0.8082536,-0.3623821,-0.04883891
0.8910356,-0.434873,-0.01716034
0.9735308,-0.473394,-0.04861625
1.053509,-0.4017547,-0.08597165
0.9875728,-0.2809592,-0.1315526
0.881771,-0.1968139,-0.138564
0.7942637,-0.1418018,-0.07136822
0.6262403,-0.1535043,-0.03343989
0.5521957,-0.2099415,-0.01185224
0.547774,-0.2824263,-0.01769185
0.5711756,-0.3590773,-0.07213113
0.7119535,-0.3680858,-0.1037789
0.8307614,-0.3342068,-0.1441089
0.9266366,-0.2890796,-0.1606527
0.9569295,-0.24165,-0.144957
0.9376374,-0.187653,-0.144322
1.031132,-0.03889107,-0.09982525
1.101256,0.08523493,-0.07151033
1.147507,0.0332863,-0.07551334
1.258302,-0.002717309,-0.05293254
1.326911,0.01024059,-0.05377665
1.367147,-0.1746368,-0.0806675
1.450373,-0.4647756,-0.1162462
1.512289,-0.6562061,-0.1635233
1.558684,-0.8543684,-0.2680002
1.6458,-1.013898,-0.3500895
1.447402,-0.8912231,-0.1927599
1.003382,-0.6232564,0.02764126
0.901076,-0.4627362,0.01306165
1.031175,-0.3425285,-0.1035268
1.053721,-0.3152042,-0.130724
0.9879982,-0.3852087,-0.05201237
0.8868994,-0.3489869,0.04120607
