accx,accy,accz
0.5092677,-0.05867439,-0.1622741
0.474736,-0.08504164,-0.1303166
0.5049951,-0.1188832,-0.09756404
0.5524191,-0.1463672,-0.08511354
0.6903916,-0.1834345,-0.09334429
0.9564754,-0.2390924,-0.1172043
1.123715,-0.2432765,-0.1542172
1.328042,-0.1899272,-0.2345325
1.682787,-0.1325807,-0.3573913
1.698585,-0.09228773,-0.4055421
1.478407,-0.1547676,-0.4316274
1.537988,-0.3477087,-0.5575874
1.539805,-0.4776216,-0.6089489
1.340178,-0.3857007,-0.5409596
1.093251,-0.1885101,-0.5155601
0.7913853,-0.1042528,-0.4861436
0.7913386,-0.1373698,-0.4674641
0.8197191,-0.1618288,-0.489604
0.7082109,-0.1760324,-0.4350379
0.8854623,-0.2168443,-0.3986732
0.9526364,-0.2266676,-0.4188748
0.9122118,-0.171488,-0.4137373
0.98635,-0.1350922,-0.4343164
0.8811,-0.1251864,-0.4081128
0.8353899,-0.100198,-0.3346759
0.8017083,-0.07982273,-0.3002589
0.7140698,-0.03374598,-0.2744584
0.7515721,-0.01880325,-0.2860335
0.7036929,-0.0477445,-0.2880906
0.6907728,-0.05081267,-0.255391
0.7000837,-0.07450213,-0.2347001
0.6331398,-0.057002,-0.1914652
0.6428222,0.02312664,-0.1679234
0.6304201,0.1083632,-0.1703305
0.6848005,0.2048584,-0.1910582
0.8257938,0.2176499,-0.2576137
0.9525742,0.1621521,-0.2979917
1.106861,0.09892787,-0.313614
1.226018,-0.02640238,-0.3473682
1.363888,-0.1466721,-0.4156838
1.418437,-0.1519006,-0.5205379
1.350095,-0.09321008,-0.6042834
1.348034,-0.0997895,-0.6574261
1.266949,-0.157594,-0.6494582
1.101095,-0.2178415,-0.5922034
1.017639,-0.270077,-0.5685143
1.002737,-0.2566276,-0.5367834
1.065941,-0.234223,-0.508693
1.108103,-0.2307446,-0.5051106
1.082331,-0.2205858,-0.4445985
1.058471,-0.2300879,-0.3620765
1.017554,-0.1972847,-0.3180718
0.9995269,-0.165634,-0.3359887
0.9856271,-0.1856314,-0.3860541
0.8980991,-0.1810934,-0.3837217
0.7583536,-0.1634501,-0.3378776
0.6079871,-0.1321773,-0.2577436
0.55051,-0.0972332,-0.2070956
0.5774912,-0.08713655,-0.2252395
0.5551621,-0.0589091,-0.1997469
0.5338316,-0.02203563,-0.1680094
0.5608949,-0.028369,-0.1751308
0.6077184,-0.08775718,-0.1587746
0.7168562,-0.1589997,-0.1412973
0.8080102,-0.208014,-0.1398547
0.8548955,-0.2262571,-0.1677601
1.022201,-0.2533659,-0.2036294
1.254864,-0.2885264,-0.2186822
1.403307,-0.2431613,-0.2636132
1.465593,-0.1981217,-0.3707674
1.416655,-0.2259907,-0.5172355
1.366837,-0.3029121,-0.6059418
1.397999,-0.4434457,-0.6113045
1.314436,-0.4672195,-0.5952483
1.104539,-0.3447194,-0.5603956
0.893519,-0.2593593,-0.5387994
0.7420002,-0.2029132,-0.5413289
0.7654365,-0.1924917,-0.5265358
0.8776822,-0.2105806,-0.4822665
0.9448197,-0.1915687,-0.4367241
0.9509731,-0.1721113,-0.4333594
0.8909335,-0.1341716,-0.4282616
0.8600241,-0.1096511,-0.4108189
0.8327141,-0.1152976,-0.4124762
0.780438,-0.104242,-0.3824123
0.7568335,-0.1026639,-0.3436576
0.6883858,-0.09748424,-0.3358779
0.6237069,-0.08367608,-0.3191859
0.6091148,-0.07121529,-0.2822428
0.6052356,-0.03960061,-0.2348128
0.6258933,-0.008629239,-0.2039011
0.6335208,0.02116048,-0.1951897
0.6728592,0.05675461,-0.1947936
0.7544562,0.1002697,-0.2429666
0.8343358,0.1294781,-0.3355003
0.9538858,0.09241784,-0.3890856
1.088474,0.01853989,-0.3763328
1.220712,-0.06177107,-0.3525596
1.293624,-0.1240352,-0.3647504
1.271855,-0.112617,-0.4462705
1.268738,-0.09659376,-0.5863129
1.279794,-0.1457049,-0.6499905
1.253694,-0.2434517,-0.6121369
1.188348,-0.3724357,-0.6078455
1.051744,-0.4219728,-0.6003996
0.9478176,-0.3891832,-0.5489984
0.9928828,-0.3750608,-0.5352914
1.066793,-0.3385137,-0.508827
1.100886,-0.3533308,-0.4524567
1.169173,-0.4110938,-0.409331
1.169598,-0.3424527,-0.3645685
1.062587,-0.2471343,-0.3706921
0.9520785,-0.1798708,-0.3908418
0.8548253,-0.1438143,-0.3763227
0.8257868,-0.1831592,-0.3837333
0.7691065,-0.1896392,-0.3400886
0.6422674,-0.2188944,-0.2499052
0.6521189,-0.2475879,-0.2221985
0.682536,-0.1943144,-0.2204181
0.6016394,-0.1625516,-0.2153525
0.5489768,-0.08570088,-0.2052531
0.5263982,-0.04243813,-0.1901159
0.5117416,-0.08059058,-0.1788306
0.5052427,-0.03855154,-0.1381652
0.517219,-0.05199587,-0.0999662
0.6157836,-0.1092463,-0.09730496
0.7759944,-0.1086052,-0.1179916
0.9834096,-0.1578226,-0.176562
1.218959,-0.2009096,-0.2504117
1.390961,-0.2195889,-0.2955564
1.451681,-0.2331436,-0.3077283
1.402093,-0.2326599,-0.3227367
1.333436,-0.3342206,-0.3798419
1.286573,-0.5373111,-0.4774359
1.21294,-0.699439,-0.5530777
1.106037,-0.7090058,-0.565376
0.9446853,-0.6307004,-0.590516
0.8496715,-0.4974359,-0.6221635
0.8232747,-0.2382101,-0.5803784
0.7327082,-0.1126838,-0.5300447
0.7926791,-0.2122669,-0.4867083
0.9600148,-0.2676125,-0.4398103
1.028756,-0.3148411,-0.4552862
1.100036,-0.328412,-0.4895408
1.078846,-0.227616,-0.5055477
1.014094,-0.1544916,-0.4892013
0.9683928,-0.04687707,-0.414215
0.8228015,0.01719614,-0.3534051
0.7558448,-0.06431389,-0.3167049
0.7063382,-0.09395854,-0.2798326
0.6294934,-0.1147212,-0.2718692
0.678064,-0.1223297,-0.2793257
0.6840766,-0.03296311,-0.296271
0.6972046,0.03412688,-0.3303069
0.7822332,0.08920296,-0.361569
0.8238929,0.09662948,-0.3451832
0.9027969,0.06054845,-0.2880644
0.9701556,0.06296478,-0.2363351
0.9848359,0.04173243,-0.1979859
0.9973954,0.04728241,-0.2063584
0.9947424,0.05262232,-0.2550832
1.036553,-0.01067833,-0.3542265
1.16213,-0.0623463,-0.5170704
1.38361,-0.1271951,-0.6099416
1.532042,-0.208441,-0.6193457
1.412898,-0.2871597,-0.6334603
1.213489,-0.4005042,-0.632862
1.056065,-0.4741381,-0.5784637
0.9380008,-0.4359253,-0.4846014
0.9798646,-0.3880944,-0.463866
1.05233,-0.380696,-0.4788526
1.042836,-0.3297838,-0.416837
1.032433,-0.30116,-0.3756998
0.9648372,-0.2927563,-0.3558793
0.9176714,-0.2625521,-0.3197047
0.9340773,-0.3043679,-0.3221121
0.9018004,-0.3138577,-0.3129072
0.8823535,-0.2664622,-0.3017548
0.8334238,-0.2148096,-0.307863
0.7395481,-0.1063069,-0.2875755
0.6667323,-0.04271026,-0.2647285
0.5530375,-0.02787515,-0.2166973
0.473938,-0.03418412,-0.1388579
0.4465549,-0.0787451,-0.08734839
0.4399435,-0.1065095,-0.07490565
0.5005896,-0.1448133,-0.1020496
0.5831046,-0.1611158,-0.1332863
0.7281643,-0.1887168,-0.1555876
1.008821,-0.2902248,-0.2018836
1.383843,-0.36555,-0.2488387
1.598255,-0.3745792,-0.2836116
1.534399,-0.3168399,-0.3654499
1.491768,-0.2910625,-0.494254
1.478407,-0.3832986,-0.5658843
1.394834,-0.448544,-0.5881374
1.29655,-0.39111,-0.6214918
1.039755,-0.267869,-0.6086318
0.8015678,-0.1714734,-0.5932836
0.7945638,-0.1519149,-0.6026755
0.855816,-0.2027481,-0.5615928
0.9254559,-0.2361472,-0.5431698
0.9308772,-0.1765526,-0.5530665
0.8903945,-0.1280605,-0.5388992
0.8886899,-0.1138878,-0.5387459
0.8352922,-0.06871132,-0.5173151
0.7892257,-0.03101075,-0.4918283
0.7935584,-0.04171613,-0.4862335
0.7534145,-0.1079897,-0.432108
0.6723532,-0.1498434,-0.352178
0.6335145,-0.1450809,-0.3246382
0.6423441,-0.1420004,-0.3156815
0.6054281,-0.1297795,-0.2454804
0.5980553,-0.125689,-0.2117863
0.6372133,-0.08971915,-0.2549331
0.6324636,-0.007828881,-0.2618451
0.6768854,0.05109199,-0.2817706
0.7549898,0.06165842,-0.3213545
0.8688196,0.06060436,-0.3508581
1.02608,0.07855347,-0.4058359
1.078001,0.0228121,-0.4042342
1.118263,-0.08014762,-0.3970983
1.200048,-0.131325,-0.47089
1.235288,-0.1434472,-0.5742706
1.267884,-0.1213234,-0.703089
1.276452,-0.1618097,-0.7721782
1.249322,-0.2466619,-0.7334521
1.185604,-0.3049113,-0.6828584
1.114383,-0.3662397,-0.6244402
1.121642,-0.3432978,-0.5448464
1.11761,-0.2819789,-0.5066758
1.062656,-0.2344133,-0.4953301
1.025885,-0.1849572,-0.4504933
1.010231,-0.1997963,-0.4221889
1.013906,-0.1949553,-0.4108536
0.9819608,-0.1821163,-0.3690007
0.8871548,-0.1999951,-0.3533084
0.7680585,-0.1802746,-0.3366517
0.6284093,-0.1711911,-0.2771029
0.4968199,-0.144355,-0.2217984
0.4382166,-0.1074648,-0.192183
0.4209432,-0.1042925,-0.1715851
0.3881931,-0.08717818,-0.1293576
0.4158185,-0.09398319,-0.1195914
0.4732102,-0.1014426,-0.1274661
0.4977906,-0.09484395,-0.1037039
0.5808783,-0.1277465,-0.1257377
0.7094399,-0.1798024,-0.16033
0.9215375,-0.2670186,-0.1929982
1.258206,-0.3519539,-0.2581824
1.578228,-0.3660758,-0.3173421
1.744146,-0.3326369,-0.3811215
1.648141,-0.2556483,-0.4000394
1.483489,-0.1882049,-0.423627
1.428783,-0.2611387,-0.4996472
1.38464,-0.4599459,-0.5116897
1.391682,-0.569909,-0.5656782
1.261393,-0.4796874,-0.682273
0.9366047,-0.3346209,-0.6855667
0.7709051,-0.2619564,-0.6128479
0.7374712,-0.2427108,-0.5236221
0.7593553,-0.2623812,-0.4534208
0.842561,-0.2925676,-0.4416756
0.9183026,-0.2778634,-0.461569
1.001825,-0.2507855,-0.4976854
0.9802972,-0.209607,-0.5004104
0.8922269,-0.1451166,-0.4610484
0.7921316,-0.1145908,-0.3979596
0.6491192,-0.09038198,-0.3225971
0.5934418,-0.09348594,-0.2845354
0.5705471,-0.1336311,-0.2549519
0.5685015,-0.1516674,-0.2162315
0.6107427,-0.1677466,-0.1988202
0.6125184,-0.1256285,-0.2039592
0.6446719,-0.01386264,-0.2454237
0.6500483,0.09290863,-0.2864292
0.6407875,0.1592818,-0.2860037
0.7041641,0.1728194,-0.2820324
0.7455854,0.2065174,-0.3080589
0.8531202,0.2181234,-0.3536419
1.047028,0.1676484,-0.3974145
1.252256,0.05962982,-0.4108328
1.471505,-0.1610151,-0.4276409
1.470736,-0.2406986,-0.5237848
1.326783,-0.1307709,-0.6264167
1.373104,-0.1498539,-0.6698793
1.401098,-0.2400107,-0.6815446
1.339045,-0.2917034,-0.6590253
1.293712,-0.3468979,-0.6405113
1.047469,-0.4052695,-0.5729045
0.858852,-0.4686145,-0.4769902
0.9138095,-0.4543952,-0.4566821
0.8700393,-0.4536317,-0.3831511
0.8524261,-0.4979479,-0.3166456
0.9864658,-0.4246538,-0.3797465
1.081783,-0.3414354,-0.4498626
1.090429,-0.2878754,-0.5521296
0.9878334,-0.2299262,-0.609154
0.8326628,-0.2225451,-0.4954755
0.7005151,-0.1644184,-0.3741429
0.6088908,-0.100627,-0.2802281
0.5659196,-0.07207489,-0.2024283
0.5374245,-0.02155738,-0.2063701
0.5199011,-0.03197221,-0.1964402
0.50651,-0.06249004,-0.1647841
0.5021616,-0.08052648,-0.1509956
0.5414991,-0.1111777,-0.1198998
0.6461583,-0.1140749,-0.1236985
0.7925096,-0.1363644,-0.1436405
0.9612639,-0.1915768,-0.1440984
1.201338,-0.2558874,-0.1604354
1.400669,-0.2904792,-0.2113618
1.399054,-0.2788247,-0.3578138
1.341684,-0.3494414,-0.5286554
1.35285,-0.5046672,-0.5955968
1.332421,-0.5588566,-0.6453409
1.22151,-0.4383996,-0.7247913
1.014333,-0.2889145,-0.7132096
0.8347905,-0.2597716,-0.631276
0.8301233,-0.2867567,-0.5987134
0.890463,-0.3022118,-0.5809772
0.9488066,-0.3187535,-0.5647979
1.012985,-0.2797919,-0.5673805
0.9969213,-0.1945594,-0.528394
0.9380854,-0.1354761,-0.4719412
0.8654837,-0.09851872,-0.420478
0.7510673,-0.07290171,-0.3780124
0.6582727,-0.06115743,-0.3475862
0.5997414,-0.05760013,-0.3140799
0.5786939,-0.06740958,-0.3277105
0.6159371,-0.08549394,-0.334895
0.6567354,-0.09596643,-0.3115208
0.6822905,-0.08031141,-0.3179889
0.6990694,-0.03373527,-0.3088645
0.6904318,0.02275565,-0.3009978
0.7015505,0.08379645,-0.299366
0.7720265,0.1282939,-0.2912195
0.8861401,0.1100499,-0.3214522
1.007563,0.06716962,-0.3515869
1.110962,0.02840211,-0.3845851
1.235893,-0.07100653,-0.4519369
1.334131,-0.2015871,-0.5550277
1.329407,-0.2944726,-0.6824179
1.303316,-0.3477985,-0.7460701
1.256863,-0.3359856,-0.7313129
1.173309,-0.3233512,-0.6987361
1.138378,-0.3586735,-0.64388
1.123836,-0.345969,-0.5638075
1.097502,-0.2839727,-0.5068583
1.046684,-0.1940408,-0.4518098
0.9705506,-0.1097613,-0.3913321
0.9673559,-0.1163802,-0.4279211
0.9911879,-0.1485046,-0.4703282
0.946449,-0.1793488,-0.4325319
0.8625049,-0.2172131,-0.4047415
0.7249897,-0.198999,-0.3154241
0.5796854,-0.1567639,-0.2155884
0.5118744,-0.09140063,-0.2100239
0.4805472,-0.02867934,-0.1957099
0.4723625,-0.03454478,-0.1858915
0.4907972,-0.05872305,-0.1705881
0.5009323,-0.09368326,-0.125973
0.5203385,-0.1278651,-0.1210381
0.5802377,-0.1472375,-0.1311725
0.7288203,-0.2087306,-0.1594697
0.9224763,-0.2565921,-0.1916011
1.119045,-0.2538092,-0.2082423
1.403934,-0.2726353,-0.2617213
1.522062,-0.2837162,-0.3454114
1.383327,-0.2762413,-0.4947022
1.427293,-0.3389041,-0.6692372
1.494174,-0.4012928,-0.66408
1.325773,-0.3660829,-0.5775453
1.097426,-0.3093941,-0.6148468
0.805229,-0.2604282,-0.5950067
0.7805395,-0.2150187,-0.5384093
0.9417816,-0.177406,-0.571589
0.8497687,-0.1175475,-0.5057048
0.9244797,-0.1136455,-0.4625656
1.046943,-0.1421244,-0.4930367
0.9409172,-0.09516142,-0.4545961
0.9547317,-0.07438414,-0.4739966
0.8851691,-0.08562683,-0.4528748
0.7571204,-0.07274529,-0.3780708
0.7303705,-0.1007861,-0.3509096
0.6379995,-0.1056668,-0.2946111
0.6402074,-0.09977412,-0.300865
0.6757909,-0.1241467,-0.3111881
0.6825978,-0.0913751,-0.2844822
0.7252685,-0.05630693,-0.3010067
0.6926394,-0.02313579,-0.2786964
0.6928542,0.03880756,-0.2632935
0.749763,0.07912239,-0.2695907
0.8345022,0.1200341,-0.2846257
0.9737315,0.1236569,-0.3430048
1.0753,0.09049817,-0.3699014
1.139297,0.04354038,-0.3782351
1.163065,-0.0601056,-0.3861485
1.187221,-0.1547394,-0.4083731
1.237189,-0.1797957,-0.5057465
1.224103,-0.1468129,-0.6243488
1.155934,-0.1259253,-0.6898137
1.068899,-0.1627823,-0.7080536
1.056563,-0.219268,-0.7149664
1.156884,-0.3053806,-0.6708258
1.229788,-0.3477996,-0.5785808
1.214924,-0.2986542,-0.5131604
1.129182,-0.2403091,-0.4481845
1.020421,-0.1353917,-0.4148754
0.9654649,-0.03018982,-0.4332217
0.9611547,-0.04431959,-0.4275985
0.9357661,-0.1134727,-0.4187899
0.860163,-0.1866289,-0.3928434
0.7733284,-0.2294973,-0.3181078
0.6488142,-0.2212915,-0.2324415
0.526584,-0.1993369,-0.1650312
0.497391,-0.1195874,-0.165946
0.4587189,-0.03556745,-0.1863759
0.4220549,-0.03346826,-0.1589077
0.4742106,-0.05938479,-0.1493852
0.5214196,-0.1174107,-0.1482832
0.5772873,-0.1830596,-0.131267
0.6933345,-0.2241382,-0.1562504
0.8913069,-0.296047,-0.1929829
1.171494,-0.3230403,-0.2258399
1.364222,-0.2295621,-0.2863028
1.420231,-0.1181857,-0.3730285
1.379398,-0.1046924,-0.5039537
1.304581,-0.2451696,-0.6077218
1.307542,-0.4636484,-0.6435703
1.229534,-0.5211107,-0.6789894
1.028208,-0.379993,-0.6724131
0.8771563,-0.240567,-0.6290499
0.8185281,-0.1461398,-0.602364
0.8706877,-0.08249495,-0.5569164
0.9081178,-0.05660745,-0.5402598
0.9067375,-0.0168314,-0.5529302
0.9499483,0.0005403286,-0.5318782
0.9629027,-0.0264389,-0.5202267
0.9905561,-0.06175351,-0.5108946
0.989445,-0.1077987,-0.4890985
0.9104668,-0.134161,-0.4721097
0.8194906,-0.1275587,-0.4272297
0.6813628,-0.127108,-0.3846649
0.6206939,-0.1224058,-0.3688617
0.6250328,-0.09128205,-0.3494827
0.6091614,-0.06475045,-0.3290482
0.6927532,-0.03806714,-0.318549
0.7541529,0.01319895,-0.3071007
0.7460067,0.07192006,-0.2840425
0.766366,0.1345004,-0.2878506
0.7778942,0.1664155,-0.3166508
0.8383362,0.1119435,-0.3363686
0.9366719,-0.006683119,-0.3576307
1.045764,-0.1345087,-0.3816289
1.185809,-0.2000925,-0.4714577
1.286125,-0.1497243,-0.6232085
1.318236,-0.0875809,-0.6911273
1.227567,-0.1039576,-0.6578362
1.084793,-0.1412603,-0.6319033
1.051951,-0.2223628,-0.639172
1.093491,-0.3540297,-0.6078937
1.141418,-0.4475959,-0.5637491
1.160084,-0.4704711,-0.555843
1.152379,-0.4247817,-0.5287867
1.128203,-0.3554414,-0.4863611
1.092629,-0.2484341,-0.4415837
1.088567,-0.1651409,-0.4332267
1.020437,-0.1791389,-0.4527262
0.8755615,-0.1300644,-0.4118096
0.8023435,-0.1134983,-0.3973687
0.7151769,-0.1979959,-0.3604055
0.531664,-0.1864338,-0.2238376
0.4688434,-0.1774414,-0.1820454
0.5260441,-0.1575019,-0.200938
0.4656206,-0.06778839,-0.1584498
0.4230488,-0.05348218,-0.1337179
0.4811169,-0.06448086,-0.1370999
0.4801654,-0.08397389,-0.1189073
0.5429953,-0.1160153,-0.09779561
0.7022555,-0.1554267,-0.1260125
0.9081292,-0.2538023,-0.1646075
1.192765,-0.3337131,-0.1922097
1.395164,-0.361742,-0.2420996
1.497664,-0.3037594,-0.2834376
1.520089,-0.1914553,-0.3625345
1.449115,-0.1807712,-0.5015268
1.428221,-0.3214725,-0.6175517
1.407772,-0.5252444,-0.6738015
1.28233,-0.5432732,-0.6705502
1.05589,-0.3768065,-0.6429465
0.849675,-0.2515193,-0.6057186
0.8176231,-0.1811587,-0.5630041
0.8339377,-0.18284,-0.5179796
0.8370016,-0.1876749,-0.479057
0.8770319,-0.1278301,-0.5032349
0.9131693,-0.1058695,-0.5348114
0.9641517,-0.09701715,-0.532643
0.9727005,-0.104707,-0.5383974
0.9347402,-0.1204766,-0.5040241
0.8852555,-0.09498542,-0.4395388
0.7645486,-0.09849418,-0.3790867
0.6735463,-0.1025324,-0.3450981
0.6536809,-0.1042975,-0.3499612
0.6009259,-0.125903,-0.3036634
0.5479296,-0.1143552,-0.2421985
0.5373425,-0.08843044,-0.2156031
0.528928,-0.03926549,-0.1744956
0.5316704,0.006524968,-0.1651517
0.5847359,0.05027884,-0.1864449
0.6587797,0.1516099,-0.2172424
0.7402041,0.206172,-0.2670017
0.8946093,0.1898531,-0.2948968
0.6831693,-0.1024819,-0.3627054
0.6042785,-0.1259152,-0.3004424
0.5201531,-0.1026977,-0.200913
0.4711344,-0.07954184,-0.149658
0.4488046,-0.04679408,-0.1267827
0.4264277,-0.02654991,-0.09739008
0.4855481,-0.0599195,-0.1144479
0.6116144,-0.1230168,-0.1479074
0.7804094,-0.1996083,-0.1889149
0.9414244,-0.244902,-0.2282324
1.269393,-0.2857084,-0.2876285
1.687548,-0.3269888,-0.3711589
1.640717,-0.2973514,-0.3963836
1.424716,-0.3160658,-0.490822
1.424071,-0.4417081,-0.6812121
1.356781,-0.5196964,-0.7212629
1.282986,-0.4710285,-0.6593483
1.096259,-0.3155933,-0.6605839
0.7935544,-0.1716166,-0.6491971
0.7629752,-0.1198043,-0.6198247
0.8371417,-0.1485124,-0.6255237
0.9093494,-0.2380382,-0.5851183
0.978823,-0.3023595,-0.502288
0.8936909,-0.3178338,-0.4526263
0.8086636,-0.263736,-0.4240914
0.7783856,-0.1611982,-0.4194517
0.7867228,-0.08808023,-0.4359324
0.8142133,-0.02463205,-0.4469638
0.800177,-0.03764511,-0.4364201
0.7963991,-0.08557959,-0.3868451
0.7550006,-0.1102125,-0.3188765
0.7236027,-0.1608612,-0.2645366
0.7385218,-0.1272123,-0.2625434
0.7510634,-0.05170497,-0.2898892
0.8035407,0.04405803,-0.2903799
0.8166879,0.1645044,-0.2864318
0.7873165,0.1447984,-0.2780438
0.7834196,0.09748045,-0.2713535
0.7988709,0.0279112,-0.279155
0.8631728,-0.1771828,-0.311636
0.9650409,-0.3091667,-0.4502317
1.104694,-0.3292344,-0.665097
1.230573,-0.3510875,-0.8129683
1.254784,-0.3295736,-0.8300119
1.22456,-0.2913646,-0.7673648
1.19662,-0.3052816,-0.6695645
1.137415,-0.2907039,-0.5327157
1.046307,-0.2083877,-0.4528034
1.026111,-0.1464461,-0.448217
1.076291,-0.1327991,-0.4320441
1.110648,-0.1659222,-0.4538339
1.117124,-0.2061061,-0.4853308
1.042441,-0.2020782,-0.4451373
0.8497422,-0.1883096,-0.3741131
0.632332,-0.1564006,-0.2824179
0.5517542,-0.1180025,-0.2271287
0.5728483,-0.1092499,-0.2356557
0.5030223,-0.0870595,-0.2003715
0.4324585,-0.0593201,-0.150012
0.4620832,-0.06999374,-0.1542689
0.488809,-0.1110456,-0.1555187
0.5239821,-0.1402065,-0.1416378
0.5783399,-0.1417018,-0.1467035
0.656709,-0.1421542,-0.1693902
0.8455335,-0.1583743,-0.1968151
1.070016,-0.1895661,-0.2147855
1.226825,-0.2177441,-0.2203419
1.410484,-0.2491873,-0.2733163
1.550365,-0.2778656,-0.4088312
1.525343,-0.3085927,-0.5398417
1.532776,-0.3753979,-0.6383387
1.513158,-0.3873499,-0.7016354
1.296743,-0.3070373,-0.6654687
1.05406,-0.2218359,-0.5898362
0.8438409,-0.1617622,-0.5350637
0.7220112,-0.154242,-0.5009246
0.7172255,-0.1636295,-0.4929373
0.7549139,-0.138647,-0.4499369
0.8563819,-0.09223931,-0.4273748
0.9217106,-0.01677182,-0.4576183
0.9758028,0.01308946,-0.4387057
1.021169,-0.03374038,-0.4326999
0.9323127,-0.06507619,-0.4440207
0.8346641,-0.08478871,-0.4021079
0.741997,-0.107038,-0.3688736
0.6528463,-0.1067475,-0.3458628
0.6403954,-0.1062935,-0.339603
0.6350901,-0.09651686,-0.3273357
0.6484113,-0.07421334,-0.2822342
0.6554701,-0.05426893,-0.287534
0.6563429,-0.007659039,-0.2774765
0.6840082,0.05674521,-0.2331104
0.6855784,0.1245544,-0.2504919
0.712304,0.1930187,-0.275762
0.7805085,0.1968722,-0.3066231
0.9037399,0.1498764,-0.3564199
1.102924,0.08786875,-0.3753588
1.27243,-0.04680624,-0.418026
1.365194,-0.1379521,-0.5158899
1.404486,-0.08116268,-0.6181727
1.454086,-0.05358815,-0.6869828
1.477598,-0.08896118,-0.7200468
1.336596,-0.1246579,-0.737994
1.125923,-0.2316546,-0.7009037
0.9941246,-0.3116763,-0.5918188
0.9278965,-0.2950483,-0.4989592
0.9066626,-0.2740896,-0.4459013
0.9309799,-0.2371734,-0.4145777
0.9865569,-0.2130958,-0.4103361
1.036719,-0.2115304,-0.3852493
1.051337,-0.1757625,-0.347921
1.002282,-0.1680898,-0.3499276
0.8960585,-0.1826932,-0.368671
0.7729456,-0.1782633,-0.3665013
0.6405514,-0.1812287,-0.3235571
0.5431344,-0.1644526,-0.2534704
0.4930541,-0.1298901,-0.1996911
0.4712087,-0.09848147,-0.1790087
0.4901258,-0.07401925,-0.1720002
0.4941008,-0.06846495,-0.1714522
0.4878261,-0.06887769,-0.1683062
0.513701,-0.08611946,-0.1360113
0.5771392,-0.1352903,-0.1134684
0.7576666,-0.2142908,-0.1466733
1.057785,-0.2950332,-0.2115947
1.382259,-0.3137972,-0.2854012
1.61653,-0.2627049,-0.3726874
1.64362,-0.2005353,-0.4715926
1.511536,-0.1846612,-0.5565079
1.417381,-0.2459941,-0.5926843
1.449817,-0.4369202,-0.5784622
1.450939,-0.6581038,-0.598266
1.333834,-0.619385,-0.6503526
1.127525,-0.3974113,-0.6267769
0.8022573,-0.2508704,-0.5967463
0.6697858,-0.1565564,-0.5922782
0.826813,-0.1651237,-0.5299387
0.8429528,-0.192831,-0.4795589
0.8658462,-0.1264939,-0.4842817
1.019985,-0.1529866,-0.4980692
0.9877963,-0.1588199,-0.4870851
0.9195738,-0.1224481,-0.4427584
0.8536145,-0.173836,-0.3962202
0.716541,-0.1363134,-0.3694081
0.6594208,-0.1231961,-0.3831391
0.5870217,-0.1714352,-0.381467
0.5407427,-0.1528253,-0.3412909
0.5652191,-0.1513522,-0.3107772
0.5659683,-0.08121167,-0.2570018
0.6107797,0.01452796,-0.2242762
0.6370219,0.06632867,-0.2357518
0.6531726,0.1303904,-0.25212
0.732281,0.158506,-0.300398
0.8349426,0.1736266,-0.3257568
1.037341,0.1072323,-0.3183116
1.289584,-0.009069432,-0.3114543
1.390248,-0.07511478,-0.3085864
1.322735,-0.1418344,-0.3945618
1.259011,-0.1450836,-0.5635417
1.24083,-0.1458929,-0.7040723
1.212447,-0.2545192,-0.7490065
1.246644,-0.4492402,-0.7449582
1.275515,-0.6313184,-0.7619656
1.231271,-0.6098777,-0.7193397
1.151545,-0.5127523,-0.5711942
0.9860261,-0.4769229,-0.4292249
0.8613905,-0.3577548,-0.3821208
0.8590457,-0.2472509,-0.384498
0.9411804,-0.2525392,-0.3879314
1.065304,-0.2860802,-0.4281535
0.992836,-0.303384,-0.4446498
0.7874992,-0.2549392,-0.4020609
0.6192212,-0.1554942,-0.3565279
0.4522824,-0.06285451,-0.2786305
0.4459409,0.005803077,-0.2183595
0.4928559,0.006567827,-0.2012261
0.4609707,-0.05191843,-0.1521814
0.4986026,-0.1242341,-0.1195334
0.4908111,-0.1679465,-0.1171664
0.4685645,-0.1726389,-0.1199048
0.5115662,-0.1821526,-0.1406429
0.5425497,-0.1671774,-0.1582774
0.7018857,-0.1412416,-0.1730891
1.026223,-0.159583,-0.1664548
1.46467,-0.1657575,-0.1829378
1.813899,-0.1599177,-0.315829
1.813013,-0.1972721,-0.4919297
1.705492,-0.3264312,-0.5462805
1.677857,-0.5325131,-0.5022321
1.600351,-0.5966381,-0.5605966
1.43207,-0.4452838,-0.6565128
1.122458,-0.2621653,-0.6346882
0.7965114,-0.137318,-0.620606
0.7537149,-0.1475503,-0.6111734
0.8767162,-0.2534558,-0.5415691
0.8722797,-0.2729514,-0.5045083
0.8514172,-0.2682376,-0.4877912
0.8556661,-0.2476496,-0.4668008
0.7778992,-0.1432522,-0.4653544
0.7596714,-0.07189024,-0.4766187
0.783697,-0.03136063,-0.4762783
0.7549345,-0.03302393,-0.4315362
0.7301954,-0.07268742,-0.3665156
0.6868116,-0.09051441,-0.3167628
0.6606467,-0.1543769,-0.2984655
0.6413309,-0.1790609,-0.2807349
0.574299,-0.1604665,-0.2300742
0.549122,-0.1098081,-0.2081852
0.5819277,0.07266766,-0.228295
0.6323737,0.1840375,-0.2526821
0.7216356,0.1981361,-0.2974717
0.877618,0.2184195,-0.3448058
1.057523,0.1558949,-0.3478842
1.170267,0.09543247,-0.3431033
1.244467,0.0003649413,-0.39192
1.338141,-0.1726162,-0.4633159
1.335963,-0.2065275,-0.5069742
1.215925,-0.1340471,-0.5432163
1.178157,-0.1121915,-0.631541
1.200175,-0.112996,-0.7356746
1.212704,-0.1814129,-0.7714014
1.256872,-0.3420793,-0.7664663
1.190595,-0.394954,-0.693129
1.068889,-0.3230594,-0.551448
0.9888416,-0.2665068,-0.4744126
0.8954252,-0.1834336,-0.4457452
0.9047933,-0.1514064,-0.4139454
0.9827979,-0.2121095,-0.4084058
1.035948,-0.2145215,-0.4233541
1.028875,-0.1941854,-0.4368198
0.9037181,-0.1828889,-0.4216758
0.7521872,-0.1398158,-0.3844528
0.5624118,-0.1002261,-0.2980469
0.3591339,-0.06112825,-0.1780363
0.2950279,-0.0560491,-0.1370875
0.3229564,-0.09521731,-0.1295527
0.3507313,-0.1211425,-0.09725863
0.41272,-0.1404087,-0.110632
0.5412427,-0.1558374,-0.1498608
0.7034678,-0.1749462,-0.1968642
0.965111,-0.2226111,-0.2799424
1.324998,-0.2777067,-0.3545224
1.587367,-0.3183113,-0.4108312
1.646149,-0.3157169,-0.4438921
1.506808,-0.2977589,-0.4597473
1.335556,-0.3385945,-0.5329807
1.2867,-0.4385439,-0.594804
1.292715,-0.5239111,-0.6114785
1.230843,-0.4252499,-0.6884998
1.00536,-0.1956038,-0.7233724
0.7742285,-0.1065398,-0.6330001
0.7052496,-0.114457,-0.5426811
0.7109494,-0.1556055,-0.4984766
0.7809974,-0.2409556,-0.4859288
0.8879203,-0.2305141,-0.4960395
0.9559392,-0.1952636,-0.4988946
0.9727769,-0.1900942,-0.4983753
0.9331027,-0.1399169,-0.4928288
0.8627526,-0.08189307,-0.4682716
0.7603983,-0.03612725,-0.4392267
0.6383987,-0.05676932,-0.3915692
0.4779848,-0.08903124,-0.3138264
0.3827658,-0.08154626,-0.279556
0.4864676,-0.1322674,-0.2916966
0.5691891,-0.1524648,-0.274191
0.6256958,-0.07832304,-0.2968267
0.783375,0.01856795,-0.3873838
0.8930979,0.07504442,-0.4357101
1.013636,0.06282478,-0.4608313
1.105444,0.0567461,-0.4790177
1.144336,0.01433705,-0.4552461
1.301153,-0.08521722,-0.4441865
1.331644,-0.1433241,-0.4562945
1.242352,-0.204245,-0.5346321
1.253887,-0.2803919,-0.7153766
1.203002,-0.2829088,-0.8191938
1.169475,-0.2494821,-0.7465463
1.156147,-0.2971874,-0.68014
0.9988281,-0.3607772,-0.6985823
0.8994982,-0.3703348,-0.6723466
0.8990025,-0.3877445,-0.6316394
0.9050988,-0.3647341,-0.5995301
0.9474761,-0.3407318,-0.4943051
0.9765579,-0.3483515,-0.4124626
1.002722,-0.3096826,-0.3682843
0.9990602,-0.2801468,-0.3383253
0.9168272,-0.2392953,-0.3841953
0.7955284,-0.2001851,-0.4068915
0.6533228,-0.1973803,-0.3787
0.5612483,-0.1612503,-0.3372711
0.5182575,-0.1419028,-0.2707806
0.4921444,-0.1193395,-0.2246505
0.5046216,-0.0803224,-0.1954884
0.5139919,-0.06651735,-0.1961571
0.5295812,-0.03205837,-0.2122702
0.5124077,-0.03383065,-0.1886311
0.4642287,-0.06991561,-0.1755865
0.4918955,-0.09813624,-0.1786949
0.5755584,-0.1724765,-0.1674203
0.7712019,-0.255166,-0.169464
1.104453,-0.3107107,-0.1949821
1.45509,-0.3317919,-0.2556808
1.740525,-0.2754129,-0.3559054
1.790986,-0.170794,-0.4569432
1.611239,-0.1364076,-0.5064908
1.478023,-0.3092333,-0.5052364
1.456382,-0.5882655,-0.5291958
1.325934,-0.6682945,-0.5753345
1.001376,-0.5620184,-0.576752
0.7566964,-0.4678611,-0.5647084
0.7334665,-0.3592623,-0.5545299
0.7723709,-0.2843998,-0.5355035
0.8558801,-0.3163971,-0.5442375
0.9771568,-0.3117123,-0.5515476
1.001948,-0.2682088,-0.5283329
0.9174494,-0.2267428,-0.5099785
0.83862,-0.1165117,-0.5084368
0.8231759,-0.02566902,-0.5103766
0.8012235,-0.01499635,-0.496872
0.7294145,-0.05693658,-0.4565517
0.6312327,-0.1436316,-0.3933545
0.5593764,-0.2013169,-0.3305496
0.5647611,-0.210303,-0.29934
0.6171451,-0.1533792,-0.30367
0.6838512,-0.04342078,-0.324745
0.7267874,0.02368428,-0.3389902
0.7741276,0.1105571,-0.348381
0.9026347,0.2103768,-0.3552208
1.029242,0.132005,-0.3241877
1.13272,-0.05673637,-0.2779907
1.204256,-0.1470231,-0.3002924
1.146142,-0.1861763,-0.3967948
1.096603,-0.1973189,-0.4979447
1.09482,-0.1153576,-0.5833386
1.035735,-0.07498557,-0.6805893
1.078308,-0.1302879,-0.7282099
1.18912,-0.245854,-0.7084277
1.185172,-0.4110843,-0.7304927
1.134836,-0.4758608,-0.7079092
1.028363,-0.4248671,-0.5583521
0.9162186,-0.3624815,-0.4315928
0.9455443,-0.2774729,-0.3849156
1.001479,-0.1745797,-0.4152047
1.010803,-0.1275363,-0.4500215
1.017641,-0.1511423,-0.4500663
0.9671168,-0.193291,-0.486946
0.8350891,-0.2507851,-0.4364239
0.642174,-0.2468831,-0.3148702
0.4446532,-0.1378093,-0.2193552
0.3423349,-0.03836402,-0.1181262
0.3530685,-0.007134859,-0.116729
0.4326124,-0.04016291,-0.1390019
0.5690237,-0.06116587,-0.1454061
0.7624574,-0.09038382,-0.232763
0.9852146,-0.20946,-0.2841188
1.215498,-0.3332718,-0.3165323
1.418611,-0.4307796,-0.3596898
1.47116,-0.4258493,-0.3673702
1.353009,-0.3050969,-0.4284968
1.253653,-0.2783328,-0.5437046
1.254215,-0.388286,-0.6179311
1.248153,-0.5052383,-0.6182765
1.13371,-0.4659271,-0.6602883
0.9159923,-0.3289006,-0.7367464
0.7578507,-0.2536768,-0.6760063
0.766678,-0.1919069,-0.5942246
0.8317873,-0.2102632,-0.574838
0.8700113,-0.2369979,-0.5072229
0.8918451,-0.1865508,-0.4957746
0.8766476,-0.216271,-0.5214256
0.8530553,-0.2040775,-0.4485096
0.8421845,-0.1659127,-0.4268133
0.7993045,-0.1751774,-0.4398305
0.7355219,-0.09787539,-0.3671155
0.681406,-0.07911353,-0.3454633
0.6315732,-0.09967218,-0.344507
0.5564777,-0.06908611,-0.2926288
0.5179514,-0.08321453,-0.279344
0.5829002,-0.07490481,-0.2858413
0.646194,-0.04107364,-0.2972898
0.7302323,0.001901473,-0.330098
0.8629783,0.04720561,-0.3688982
0.9594015,0.05494995,-0.3883487
1.094551,0.0697763,-0.3949374
1.16154,0.03683812,-0.4262454
1.109584,-0.07151974,-0.432227
1.151385,-0.1735224,-0.4485379
1.185184,-0.2021494,-0.5550851
1.142383,-0.1942434,-0.7004676
1.141055,-0.2411051,-0.782543
1.139423,-0.2802471,-0.7165498
1.13619,-0.3374724,-0.6309238
1.137815,-0.4272473,-0.6035104
1.11379,-0.3795354,-0.5229519
1.05132,-0.2692043,-0.4608172
0.9467601,-0.1814697,-0.432765
0.9066054,-0.1021864,-0.3869969
0.9626066,-0.1257572,-0.3880485
0.9879539,-0.1508598,-0.3923392
0.9332195,-0.1519138,-0.3829158
0.824817,-0.2094533,-0.361931
0.6510429,-0.2014867,-0.2870166
0.4788905,-0.1600686,-0.2188219
0.3967308,-0.1300658,-0.1865977
0.3677846,-0.08471653,-0.1726945
0.3989776,-0.1051293,-0.1630664
0.4800837,-0.1311379,-0.162111
0.5584244,-0.1547104,-0.1846138
0.6945372,-0.2344903,-0.1939562
0.8646767,-0.2957151,-0.2079131
1.041489,-0.327283,-0.2356532
1.293178,-0.3365856,-0.2755534
1.50117,-0.3229695,-0.3356062
1.519348,-0.2891857,-0.3403104
1.444433,-0.2006166,-0.3652848
1.363812,-0.1278164,-0.4745478
1.231248,-0.2138277,-0.5285574
1.136385,-0.4070022,-0.5366513
1.145282,-0.473821,-0.5555686
1.101393,-0.4129716,-0.5704307
0.9726998,-0.3242539,-0.5988846
0.8481053,-0.1780888,-0.5869011
0.7608403,-0.09618457,-0.5359646
0.7604992,-0.1163259,-0.4972353
0.8206841,-0.1145132,-0.4673692
0.8698882,-0.1078908,-0.4927702
0.9033083,-0.1123264,-0.5394532
0.9096598,-0.1218636,-0.5398709
0.8904068,-0.1531243,-0.5173864
0.8596825,-0.1758733,-0.4539525
0.7990094,-0.163605,-0.384324
0.7350312,-0.1312556,-0.3628861
0.68684,-0.1005478,-0.3526685
0.6421422,-0.07179324,-0.3355133
0.6296454,-0.06873261,-0.2997522
0.6418142,-0.07088117,-0.2736362
0.6891416,-0.03932006,-0.278829
0.8096191,-0.002214384,-0.2916496
0.9533782,0.03763744,-0.3381971
1.066412,0.05203781,-0.3757281
1.115565,0.0129498,-0.3626782
1.102275,-0.03406725,-0.3516042
1.097898,-0.08041839,-0.3455861
1.11716,-0.1330201,-0.3427305
1.115982,-0.1508876,-0.3861984
1.086772,-0.08414598,-0.5253539
1.063762,-0.023363,-0.7124393
1.090758,-0.1157115,-0.7873599
1.133177,-0.2579393,-0.74852
1.12871,-0.3299287,-0.7129557
1.115933,-0.3748753,-0.6453367
1.109391,-0.3577411,-0.5366039
1.073242,-0.2732236,-0.4698509
1.045483,-0.1634768,-0.4128403
1.045879,-0.03811544,-0.383769
1.048961,-0.0006125392,-0.427872
1.03241,-0.04122372,-0.4548291
0.9554335,-0.07517071,-0.4475001
0.8003379,-0.1512088,-0.3993742
0.6109247,-0.2133686,-0.2915897
0.467294,-0.205383,-0.2089773
0.3896046,-0.1901186,-0.1563834
0.3645371,-0.1547075,-0.1172957
0.3896189,-0.1141055,-0.109417
0.423177,-0.1011826,-0.09937609
0.4901314,-0.0959531,-0.1010696
0.6414154,-0.1120818,-0.1150747
0.8735828,-0.1651468,-0.1222712
1.178718,-0.2499606,-0.1758598
1.435343,-0.293487,-0.2796804
1.534079,-0.246419,-0.3770649
1.513311,-0.1892506,-0.4511925
1.397695,-0.1836898,-0.5103399
1.289208,-0.2885922,-0.5525436
1.304186,-0.471707,-0.5787792
1.255559,-0.4968084,-0.6266426
1.015529,-0.3268643,-0.6800488
0.8296427,-0.1600735,-0.6567517
0.8048775,-0.09370944,-0.581871
0.8349216,-0.1227072,-0.5188294
0.8690286,-0.1365924,-0.4782427
0.8578571,-0.1082628,-0.4752311
0.8621047,-0.1239504,-0.4589695
0.8811887,-0.116773,-0.4299067
0.8475793,-0.08249651,-0.4582594
0.8531515,-0.07275327,-0.4732583
0.8608624,-0.0592289,-0.4595426
0.8480256,-0.07326269,-0.4728334
0.8635223,-0.08330824,-0.4661259
0.8260232,-0.0900242,-0.4463716
0.7597181,-0.126007,-0.3953935
0.6995084,-0.1275392,-0.3098328
0.6721805,-0.1066445,-0.2815696
0.6925242,-0.05540158,-0.2600573
0.7080205,0.03060682,-0.2352829
0.776701,0.1111738,-0.2746861
0.8493909,0.1960953,-0.2963754
0.8950458,0.2121027,-0.2763386
0.9859993,0.1291768,-0.2801295
1.028285,0.003327888,-0.326157
1.02336,-0.1208256,-0.4467852
1.033526,-0.1917608,-0.6162148
1.071783,-0.2453216,-0.7097272
1.187528,-0.2982015,-0.7340758
1.285938,-0.3497855,-0.7889279
1.273094,-0.4239307,-0.7798816
1.182709,-0.4213927,-0.6544107
1.074564,-0.3214738,-0.5278143
1.011851,-0.2178374,-0.4197555
0.9966643,-0.1335767,-0.3957768
1.006607,-0.09570026,-0.4534373
1.030751,-0.09399513,-0.4500823
1.03287,0.1376012,-0.3845121
1.100685,0.0734054,-0.3837082
1.414893,0.0004265596,-0.4729364
1.523509,-0.1102782,-0.5228521
1.414915,-0.1455992,-0.6245332
1.427608,-0.1541511,-0.8076183
1.360216,-0.2274458,-0.8246107
1.17878,-0.2218878,-0.7539684
1.119979,-0.2734491,-0.7393568
1.078338,-0.3738904,-0.6535444
1.002181,-0.352664,-0.5367841
0.9752411,-0.3201116,-0.480963
0.9206052,-0.2260855,-0.404215
0.8708855,-0.1205564,-0.3781997
0.9118034,-0.1163806,-0.3992178
0.9636696,-0.1240495,-0.3664819
0.9816452,-0.1751651,-0.3904364
0.9308923,-0.2234878,-0.4211389
0.7781605,-0.2241753,-0.3832423
0.6119822,-0.1963363,-0.3361751
0.458077,-0.1260453,-0.2410034
0.3446048,-0.08549561,-0.1712782
0.3447559,-0.06840922,-0.1472304
0.4156882,-0.08863262,-0.1011061
0.57485,-0.138625,-0.1099226
0.844163,-0.1890123,-0.1898208
1.135797,-0.2955249,-0.3138937
1.353466,-0.3611289,-0.4161665
1.41246,-0.3555285,-0.4071537
1.387929,-0.3294858,-0.3674511
1.320152,-0.2608,-0.3743655
1.113049,-0.2228605,-0.4372772
0.9693674,-0.2789942,-0.5468148
1.094458,-0.4280875,-0.6171849
1.192355,-0.5306499,-0.6804617
1.053058,-0.4242059,-0.7635872
0.9126911,-0.2313761,-0.7274816
0.8532918,-0.1210394,-0.6414379
0.8256722,-0.1009864,-0.605452
0.8927445,-0.1668797,-0.5143343
0.925612,-0.2753463,-0.4224826
0.8774331,-0.3257929,-0.3848815
0.8400265,-0.3203302,-0.3590972
0.7676381,-0.2619343,-0.3743095
0.7111055,-0.140576,-0.3612382
0.6699277,-0.05223118,-0.3149725
0.5816227,-0.01115634,-0.300596
0.5159674,-0.005195031,-0.2749554
0.4924569,-0.03882554,-0.2546887
0.5078918,-0.0603702,-0.2540729
0.5440096,-0.06742759,-0.2659781
0.6087532,-0.02199388,-0.2965344
0.721923,0.07247617,-0.3222434
0.8199261,0.1285176,-0.3642504
0.9508871,0.1281859,-0.4093409
1.117128,0.09172291,-0.4342117
1.204753,0.02836005,-0.4462319
1.276698,-0.09496292,-0.4662768
1.355357,-0.2064233,-0.531055
1.352266,-0.2239709,-0.6132955
1.346544,-0.2784899,-0.7360897
1.307664,-0.3774762,-0.8360517
1.131521,-0.4213848,-0.7843841
1.026078,-0.4682805,-0.7287582
1.053954,-0.5068991,-0.699662
1.063358,-0.474271,-0.5875127
1.057966,-0.372425,-0.491498
0.9964463,-0.1876229,-0.424819
0.9122153,-0.02927335,-0.4027136
0.913157,-0.02822073,-0.4611497
0.9307264,-0.1236149,-0.4827055
0.8981396,-0.2354524,-0.4626753
0.801336,-0.2878863,-0.3968865
0.6383044,-0.2470424,-0.2677982
0.4698756,-0.1946996,-0.1920309
0.3711265,-0.1160985,-0.1892966
0.3191043,-0.03434808,-0.1935043
0.2957339,-0.04446665,-0.1737493
0.3473073,-0.0799956,-0.1532056
0.4400346,-0.131806,-0.1487164
0.600007,-0.2177067,-0.1397115
0.8346995,-0.2413908,-0.1580799
1.041957,-0.2215095,-0.2117534
1.241072,-0.1939394,-0.2811636
1.477091,-0.1116966,-0.3808316
1.665775,-0.05955451,-0.5555416
1.658547,-0.2395802,-0.7454071
1.589033,-0.6397165,-0.7607569
1.603887,-0.8577267,-0.6802779
1.403716,-0.6088984,-0.643115
1.033621,-0.2372462,-0.5718608
0.8086471,-0.0934546,-0.5568818
0.6987252,-0.03967128,-0.6159843
0.7148579,-0.07329314,-0.5997902
0.7938204,-0.230216,-0.5313843
0.8673568,-0.3198186,-0.4320922
0.9321367,-0.3686882,-0.3819799
0.8734378,-0.3411726,-0.4267091
0.8073294,-0.2399361,-0.4218223
0.7609388,-0.2011216,-0.4050952
0.6474675,-0.08478675,-0.4090401
0.5591342,0.01777252,-0.3499659
0.5363023,-0.02869216,-0.3060146
0.5822514,-0.09720902,-0.2800789
0.594929,-0.1601221,-0.2141621
0.5987221,-0.1567184,-0.1892765
0.6954514,-0.0683296,-0.2439185
0.805376,0.08870306,-0.318097
0.9236356,0.1919048,-0.3598238
0.9593171,0.1282014,-0.3512712
1.007112,0.07852738,-0.3241196
1.177924,0.01870244,-0.3220476
1.220974,-0.1282149,-0.3258003
1.22427,-0.222359,-0.4130916
1.199219,-0.2554395,-0.643702
1.090692,-0.2855986,-0.7964298
1.146288,-0.3376244,-0.7882488
1.179688,-0.3948969,-0.7580049
1.140311,-0.4324969,-0.6822546
1.152808,-0.4359988,-0.562141
1.038591,-0.3556773,-0.5242745
0.9142862,-0.2180741,-0.4952266
0.8903652,-0.1532155,-0.4005249
0.9432158,-0.1929598,-0.4206822
1.053181,-0.2406189,-0.477655
1.058656,-0.3006569,-0.4358734
0.94854,-0.3520797,-0.4318362
0.7536269,-0.3213437,-0.368222
0.5648738,-0.2687813,-0.2659382
0.4761961,-0.1777609,-0.2519926
0.4082454,-0.05423785,-0.2056585
0.3862116,-0.004873611,-0.1886202
0.3812198,-0.002897193,-0.1859536
0.3681191,-0.04410899,-0.1375108
0.4322476,-0.1248512,-0.1258756
0.5540893,-0.1656308,-0.1089141
0.763041,-0.1847058,-0.1505556
1.043922,-0.2195333,-0.2518607
1.326995,-0.2831786,-0.3231139
1.55915,-0.3533432,-0.3955104
1.632256,-0.3453002,-0.4072857
1.606297,-0.2600933,-0.3737649
1.492997,-0.1971007,-0.3793649
1.239267,-0.2599533,-0.4050648
1.106535,-0.444444,-0.4540815
1.170035,-0.605226,-0.5224976
1.107265,-0.6080987,-0.6258187
0.914659,-0.4706749,-0.7366452
0.8377011,-0.3510783,-0.7026317
0.8094091,-0.3288627,-0.6029251
0.768235,-0.3873388,-0.6136232
0.8091585,-0.489678,-0.5833328
0.8387961,-0.5348077,-0.5109925
0.8100771,-0.5193942,-0.5217637
0.8017422,-0.4408469,-0.4899889
0.7947063,-0.2749624,-0.4833607
0.7857072,-0.1458037,-0.5389811
0.7565591,-0.0876375,-0.5297306
0.6702664,-0.0780719,-0.4919196
0.5945085,-0.1098682,-0.3945857
0.5897629,-0.1361742,-0.3093897
0.6497845,-0.1857958,-0.3129131
0.7392576,-0.2152799,-0.3082413
0.8047207,-0.1547512,-0.3274813
0.8337497,-0.02445456,-0.3621463
0.8634027,0.1407929,-0.3881684
0.9163265,0.230986,-0.3964916
0.9899701,0.1873464,-0.3550397
1.081867,0.04955628,-0.3273535
1.187165,-0.1760275,-0.3036536
1.232103,-0.3348762,-0.3511814
1.12994,-0.2517762,-0.5430408
1.008901,-0.1336029,-0.7244097
1.023309,-0.1481894,-0.7693325
1.092856,-0.2440649,-0.7509346
1.151797,-0.4256725,-0.7990205
1.173022,-0.4867433,-0.7684338
1.098369,-0.4241948,-0.6273122
0.9748489,-0.3980648,-0.5769814
0.8676892,-0.2405539,-0.4980444
0.8568368,-0.1424944,-0.4285264
0.9530731,-0.1978067,-0.46937
1.000371,-0.1777025,-0.4650056
0.9504043,-0.2146743,-0.4840469
0.8411653,-0.2210176,-0.4627431
0.6729814,-0.1432639,-0.3371001
0.5178255,-0.1122518,-0.2516147
0.4362897,-0.03756403,-0.1597311
0.4167816,-0.03239091,-0.1167422
0.4383351,-0.07904122,-0.1229137
0.4879175,-0.09424077,-0.09739098
0.5702361,-0.1515878,-0.1219124
0.7089126,-0.1639893,-0.1470294
0.9048034,-0.1993291,-0.1752305
1.111429,-0.2767469,-0.2340781
1.280347,-0.2981366,-0.2774766
1.418761,-0.2962876,-0.3515665
1.5205,-0.2479328,-0.427833
1.467252,-0.2454659,-0.5027745
1.363999,-0.4058811,-0.561207
1.414605,-0.5843663,-0.5544142
1.374713,-0.5263399,-0.6000819
1.146728,-0.2548576,-0.6797327
0.9551996,-0.06211276,-0.6586259
0.8404607,-0.05207024,-0.5899743
0.8174671,-0.1329283,-0.5279396
0.7960533,-0.2030234,-0.4278813
0.7563291,-0.3034528,-0.325363
0.7774753,-0.3683694,-0.3363281
0.7733235,-0.2194886,-0.42377
0.8012036,-0.09771674,-0.4541837
0.8326444,-0.06891987,-0.4593277
0.7996481,-0.003268737,-0.4535925
0.7673599,-0.002593347,-0.3827025
0.6876488,-0.007949675,-0.3218572
0.654719,-0.05675835,-0.2996716
0.6831675,-0.1077134,-0.2721492
0.6704637,-0.1006416,-0.234564
0.6789895,-0.1269444,-0.2293772
0.7266679,-0.02646062,-0.2797844
0.8111161,0.07014436,-0.3050096
0.8635054,0.06329974,-0.325929
0.8673865,0.0799688,-0.3344171
0.9308539,0.05376972,-0.298338
0.9965238,0.07632408,-0.3260929
1.02916,0.06862085,-0.3503075
1.112342,-0.0128108,-0.3783709
1.189166,-0.05943862,-0.4615587
1.2058,-0.1462899,-0.506321
1.236794,-0.2049426,-0.5983385
1.199124,-0.2708993,-0.6698665
1.085903,-0.3242422,-0.6568911
1.089988,-0.3138467,-0.6856443
1.146875,-0.3451387,-0.6562483
1.162304,-0.2939292,-0.5719322
1.113678,-0.2250243,-0.5177475
0.9888742,-0.215729,-0.4403499
0.9579378,-0.1891071,-0.3971468
1.008268,-0.2297615,-0.4158265
1.034608,-0.2670947,-0.4469634
1.027273,-0.2758495,-0.4751315
0.9101691,-0.2618069,-0.4491971
0.7154673,-0.1809862,-0.3458237
0.540093,-0.1118938,-0.219673
0.427467,-0.02591527,-0.1359147
0.3551651,0.0304446,-0.1166855
0.316892,0.01262906,-0.110686
0.3434258,-0.02338658,-0.0934164
0.402119,-0.1169733,-0.1050581
0.5530679,-0.2073319,-0.1376538
0.7781481,-0.263136,-0.2006807
0.9671276,-0.3172026,-0.2857669
1.150934,-0.3396802,-0.3272707
1.35017,-0.3519373,-0.3712985
1.547023,-0.3514979,-0.4359548
1.579866,-0.3667537,-0.4894786
1.452349,-0.466373,-0.6111898
1.441924,-0.6066826,-0.7342655
1.439668,-0.639603,-0.7137316
1.302406,-0.4933734,-0.6929386
1.087072,-0.2873118,-0.7202378
0.811269,-0.1290594,-0.62466
0.6809932,-0.1080017,-0.5222055
0.7062434,-0.2476096,-0.4981417
0.7673746,-0.376706,-0.4482682
0.8835214,-0.4103586,-0.4460659
0.9300562,-0.3477172,-0.4845156
0.9195671,-0.2307329,-0.4911461
0.8976769,-0.1438319,-0.467705
0.8021296,-0.05415998,-0.4016709
0.6954698,-0.01298191,-0.350582
0.592035,-0.04720133,-0.3098755
0.5212387,-0.09493594,-0.2737437
0.5019703,-0.1844267,-0.261135
0.4981149,-0.206856,-0.2332105
0.5323796,-0.1002455,-0.230732
0.5634055,0.01933876,-0.2448179
0.5804797,0.1002891,-0.2502894
0.6203076,0.129361,-0.2734375
0.6785581,0.1438793,-0.2918202
0.7626847,0.1391373,-0.3327816
0.937739,0.1069982,-0.386376
1.221963,0.1043596,-0.4074739
1.463208,0.04915283,-0.4384653
1.618748,-0.08547364,-0.5019176
1.623754,-0.1880172,-0.5908763
1.377319,-0.2373593,-0.7033112
1.187707,-0.2860947,-0.780774
1.180737,-0.4057144,-0.7557727
1.14608,-0.5343496,-0.7035336
1.096809,-0.537076,-0.6921152
1.07305,-0.4642409,-0.6440186
1.03687,-0.3898929,-0.5647851
0.9428907,-0.3209289,-0.472673
0.8648233,-0.2950504,-0.3819525
0.8933732,-0.304203,-0.3866383
0.926783,-0.3152277,-0.4245914
0.9355572,-0.320981,-0.4524767
0.86435,-0.3005507,-0.4826882
0.7014355,-0.2390856,-0.4338527
0.595819,-0.1511263,-0.3529699
0.5254586,-0.0696227,-0.2770366
0.4695644,-0.03044581,-0.2045668
0.4581094,-0.01268974,-0.1712632
0.4588087,0.02052569,-0.1264713
0.4786134,0.008241565,-0.09911672
0.5086557,-0.04814395,-0.107475
0.5690061,-0.07800198,-0.111825
0.7440886,-0.1883506,-0.1616669
1.028494,-0.3798339,-0.2311094
1.2424,-0.4236862,-0.2662006
1.476787,-0.3484303,-0.327648
1.848161,-0.3186301,-0.4296858
1.776467,-0.3032643,-0.4475712
1.277341,-0.3470716,-0.4150724
1.11249,-0.4752644,-0.4653093
1.168859,-0.5086795,-0.4972058
1.132877,-0.4434688,-0.5806877
0.9761041,-0.3478914,-0.7823889
0.8137957,-0.220127,-0.7920631
0.9119129,-0.1878183,-0.6462509
0.9427078,-0.1939096,-0.5746555
0.8938847,-0.1747021,-0.5232665
0.9773071,-0.2478132,-0.4938947
0.9042997,-0.259457,-0.4885488
0.8383019,-0.1765936,-0.4844697
0.8003473,-0.1255252,-0.4759551
0.7010049,-0.03526104,-0.4325481
0.6998252,-0.01296209,-0.393488
0.6310924,-0.08325546,-0.3492806
0.5958829,-0.1262492,-0.3149572
0.6555586,-0.1677686,-0.3096323
0.7092958,-0.145677,-0.300955
0.852219,-0.09694995,-0.3346623
0.962433,-0.06522092,-0.3774699
1.011325,0.01581544,-0.3945749
1.038017,0.08695712,-0.3939139
1.010254,0.1538849,-0.3490618
0.9650499,0.1668809,-0.3105354
0.8780533,0.05377521,-0.2895856
0.8183196,-0.0999948,-0.3035756
0.8332869,-0.2399042,-0.3762597
0.892714,-0.2847573,-0.4787417
1.001575,-0.264875,-0.6046581
1.116905,-0.2879695,-0.6848963
1.207904,-0.3330127,-0.7229094
1.218694,-0.3972378,-0.6907267
1.14923,-0.4111951,-0.5445249
1.114312,-0.3675798,-0.4401838
1.122814,-0.3510542,-0.3824901
1.136198,-0.2894612,-0.3779118
1.147521,-0.209816,-0.4556717
1.097542,-0.1764985,-0.4608381
0.9791282,-0.1359887,-0.4380015
0.8345652,-0.1191178,-0.3900035
0.6820186,-0.1150483,-0.2726665
0.5546226,-0.0970654,-0.1953931
0.4502838,-0.09171827,-0.123805
0.3758988,-0.06926519,-0.07916365
0.3543318,-0.05636825,-0.07669401
0.358967,-0.07054537,-0.06537907
0.4042241,-0.08083462,-0.07717551
0.5268458,-0.1126491,-0.07743498
0.7491603,-0.1703507,-0.1105605
1.078195,-0.2588233,-0.1880357
1.453407,-0.3658563,-0.2603551
1.748594,-0.3978713,-0.3925022
1.793577,-0.3336351,-0.5521252
1.58539,-0.299251,-0.6526328
1.406936,-0.3870519,-0.650956
1.423515,-0.5160662,-0.5782548
1.416876,-0.5437346,-0.5365965
1.192344,-0.3820293,-0.5584759
0.8376616,-0.1215459,-0.5859653
0.5782102,-0.02745282,-0.5490926
0.6140745,-0.1252,-0.5131242
0.7472846,-0.205598,-0.5100309
0.7715541,-0.2378167,-0.4960712
0.8751056,-0.2386728,-0.5172639
0.9351283,-0.1705296,-0.5309691
0.87217,-0.09742806,-0.5143199
0.8539567,-0.05353612,-0.4843734
0.7247991,-0.03720709,-0.4001321
0.5776721,-0.06047099,-0.3358252
0.5274509,-0.07910526,-0.3142019
0.4749453,-0.1038378,-0.3016344
0.5366334,-0.124516,-0.3088518
0.6430107,-0.09184662,-0.3095565
0.7714185,-0.05295261,-0.3299318
0.9267062,-0.001275069,-0.3690541
0.9425298,0.0692826,-0.3834007
0.9287162,0.108842,-0.3758765
0.9184365,0.1238954,-0.353389
0.8888217,0.0970395,-0.3378578
0.9541903,0.03136465,-0.341348
1.109259,-0.05104675,-0.3927057
1.325654,-0.1111056,-0.527109
1.418583,-0.08932843,-0.7105736
1.289676,-0.08118241,-0.8469306
1.156876,-0.1494498,-0.847929
1.082605,-0.2440216,-0.7591168
1.040663,-0.3513867,-0.6687818
1.063248,-0.3844735,-0.6091361
1.055885,-0.3488052,-0.5691559
1.002888,-0.3340223,-0.4913803
0.9904766,-0.2780477,-0.4357168
0.9696655,-0.1732695,-0.4259802
0.9342438,-0.0799598,-0.3710198
0.9455797,-0.0690423,-0.3700209
0.9440279,-0.1503976,-0.4294121
0.8971106,-0.1727294,-0.4193034
0.8283396,-0.1690903,-0.4042372
0.6845,-0.1834021,-0.3461002
0.460101,-0.131226,-0.210192
0.350678,-0.1019999,-0.1468602
0.4111522,-0.09335229,-0.1429196
0.4332047,-0.0881255,-0.1446582
0.4599394,-0.1126331,-0.1508747
0.5411833,-0.1047764,-0.1419589
0.5863954,-0.1525598,-0.1579391
0.7748074,-0.2423236,-0.1887024
1.09424,-0.3029528,-0.244525
1.382882,-0.3542938,-0.3514476
1.619483,-0.3240519,-0.4251306
1.632827,-0.2377295,-0.4512354
1.493054,-0.1754115,-0.5292427
1.400371,-0.2394416,-0.6526589
1.286034,-0.4065999,-0.6812339
1.126972,-0.4451533,-0.6425831
0.946537,-0.3475094,-0.6493354
0.816682,-0.226038,-0.6103796
0.7946948,-0.170113,-0.526202
0.8184142,-0.1976523,-0.5047077
0.8417408,-0.187911,-0.4954972
0.8036898,-0.1655983,-0.455755
0.7622528,-0.1376719,-0.4131533
0.7719528,-0.07477126,-0.4046969
0.7909824,-0.05611232,-0.4258988
0.8489224,-0.06788703,-0.4284672
0.8799413,-0.09556234,-0.4339706
0.8729407,-0.1368926,-0.4327624
0.8673796,-0.1687313,-0.3793542
0.8336046,-0.1748396,-0.3063554
0.841455,-0.1186563,-0.2581932
0.8469172,-0.04061932,-0.2602763
0.8092195,0.03410066,-0.2818509
0.7914468,0.09822662,-0.2831822
0.7580747,0.1438845,-0.2713377
0.7337099,0.1822204,-0.2511948
0.7341741,0.1594019,-0.2505394
0.7651671,0.07672537,-0.2515286
0.8723383,-0.05832803,-0.2449855
0.9951331,-0.1927313,-0.3154366
1.114866,-0.2146282,-0.4676938
1.218383,-0.2017985,-0.6294562
1.22958,-0.1744268,-0.736165
1.163257,-0.1226105,-0.7650629
1.12951,-0.1960878,-0.7484258
1.225409,-0.3440228,-0.6903015
1.349311,-0.441119,-0.5995654
1.335548,-0.4709973,-0.5006318
1.202436,-0.3727397,-0.4135346
1.063119,-0.2016271,-0.3544862
1.023317,-0.07295549,-0.336394
1.02729,5.925513e-05,-0.3885475
0.9513212,0.005454522,-0.4305302
0.8574854,-0.07885881,-0.3851727
0.7544089,-0.2161872,-0.2962169
0.5982112,-0.2654479,-0.1706238
0.4904575,-0.20802,-0.08804062
0.4457342,-0.1600532,-0.1154012
0.4320584,-0.07341074,-0.1447289
0.4539215,0.01108487,-0.1513807
0.4801591,-0.005109458,-0.1629012
0.5758966,-0.02932011,-0.1516017
0.7628879,-0.08694691,-0.1513663
0.9713858,-0.2116825,-0.1560118
1.157007,-0.3254164,-0.1341014
1.227343,-0.3689801,-0.1335108
1.198182,-0.2712178,-0.1883583
1.21487,-0.1707927,-0.3203766
1.344951,-0.2192524,-0.508436
1.521797,-0.328431,-0.6709262
1.53756,-0.3988626,-0.7458849
1.260447,-0.3177245,-0.6946598
0.8925471,-0.1695964,-0.5611307
0.7252248,-0.1656413,-0.4235239
0.7309235,-0.181573,-0.3753775
0.7716892,-0.1497503,-0.4504176
0.8932961,-0.1514962,-0.4930441
1.059014,-0.08219757,-0.5109668
1.128749,0.01230488,-0.5617706
1.109849,0.03553491,-0.518941
1.049572,0.04180098,-0.4550814
0.9125002,0.01092045,-0.3951466
0.7461927,-0.02867015,-0.2926194
0.6956841,-0.04959463,-0.2886668
0.6808956,-0.0758713,-0.3104581
0.6006492,-0.07753592,-0.2876635
0.6038923,-0.06828128,-0.3125572
0.633137,-0.05002388,-0.3204647
0.6015721,-0.02190203,-0.2989276
0.628005,0.004748603,-0.2886836
0.6343986,0.02095205,-0.2715839
0.629827,0.03048155,-0.2589898
0.6924064,0.08767205,-0.2416761
0.7087687,0.1180784,-0.2444898
0.7638952,0.1036248,-0.2841204
0.9534836,0.1431253,-0.3255659
1.125863,0.1562489,-0.3623425
1.208793,0.1090639,-0.4054562
1.338073,0.04061836,-0.5390733
1.130329,-0.4232954,-0.2262851
1.091309,-0.4085938,-0.223273
0.9369341,-0.3673639,-0.2209223
0.8000035,-0.330337,-0.2136647
0.6737368,-0.2747488,-0.1658383
0.5876631,-0.2239654,-0.1506703
0.559207,-0.195669,-0.1340618
0.5043764,-0.1758155,-0.1048928
0.4599134,-0.172458,-0.08707535
0.4163903,-0.1716891,-0.04703808
0.4200905,-0.1927828,-0.03040079
0.5230821,-0.239026,-0.01671816
0.6702088,-0.2981821,-0.005546141
0.8529663,-0.4016519,-0.01952118
1.051766,-0.5202075,-0.003775885
1.29859,-0.5450714,0.0007119391
1.504872,-0.4508563,-0.03295277
1.541262,-0.4145464,-0.1365939
1.549074,-0.5738772,-0.2641138
1.533753,-0.7246549,-0.2338083
1.368365,-0.6526972,-0.1689794
1.102668,-0.5315185,-0.2159257
0.8847694,-0.4947795,-0.2429971
0.8571345,-0.4698592,-0.2630772
0.9162211,-0.5300234,-0.2840853
0.9374341,-0.6052122,-0.2380998
0.9765862,-0.5615233,-0.2280588
0.955459,-0.4862301,-0.2308054
0.8776735,-0.3805687,-0.1988199
0.8623073,-0.33318,-0.2128364
0.8244965,-0.3464631,-0.2203608
0.7314021,-0.251837,-0.2175544
0.6798413,-0.2221122,-0.2219498
0.662735,-0.2896986,-0.1793421
0.6052573,-0.3052355,-0.1199239
0.5498185,-0.3226304,-0.07603344
0.5807977,-0.2751367,-0.09264114
0.5971452,-0.1598844,-0.125931
0.5970968,-0.0693659,-0.1234969
0.6858899,0.01124968,-0.1690915
0.764061,0.03921038,-0.2277139
0.8592871,0.0003411128,-0.2391566
1.087241,-0.1028606,-0.1964834
1.306727,-0.2356668,-0.1353695
1.358807,-0.3098091,-0.156859
1.36795,-0.4038894,-0.1984753
1.465231,-0.4939,-0.2262996
1.462026,-0.45496,-0.2947517
1.380318,-0.4407235,-0.3706776
1.33533,-0.4881344,-0.4573069
1.198958,-0.5433521,-0.4785549
1.148777,-0.6699611,-0.3986976
1.193208,-0.6760532,-0.3139834
1.130461,-0.5865016,-0.2144129
1.0893,-0.5475004,-0.1614491
1.069377,-0.3719263,-0.1932394
1.061392,-0.2167138,-0.2260332
1.052209,-0.24206,-0.2805993
0.9317612,-0.3108438,-0.2868805
0.7672189,-0.4210976,-0.1992817
0.5893622,-0.4368669,-0.1268446
0.4681633,-0.338449,-0.07820897
0.4246365,-0.2516283,-0.06725081
0.4030521,-0.1531665,-0.07970151
0.4531314,-0.1216958,-0.06669512
0.5111471,-0.1470292,-0.06661291
0.5614094,-0.178327,-0.04634818
0.6253599,-0.2657184,-0.01427576
0.6981962,-0.3487303,-0.01937746
0.8679831,-0.412106,-0.004757886
1.097388,-0.4715382,0.03821332
1.31912,-0.4878059,0.04895703
1.482135,-0.4814598,-0.0422447
1.528762,-0.5034822,-0.1708847
1.509276,-0.5638849,-0.1798261
1.402716,-0.6036286,-0.1498766
1.205895,-0.5970461,-0.1881414
1.065397,-0.5635354,-0.2173191
1.002041,-0.5064846,-0.2564773
0.9185832,-0.4690598,-0.3032989
0.8763603,-0.458594,-0.2509387
0.9045609,-0.418699,-0.1975689
0.9013155,-0.3395588,-0.2337099
0.9209686,-0.2599826,-0.2540629
0.9548553,-0.2335249,-0.2497253
0.9280503,-0.2784835,-0.2486693
0.9047299,-0.3340014,-0.2266315
0.8353013,-0.3592069,-0.2169496
0.7369475,-0.3687038,-0.2019602
0.6851527,-0.3470408,-0.1629829
0.6283585,-0.2919105,-0.1497584
0.6091528,-0.2098976,-0.1452887
0.6145961,-0.1077304,-0.1484007
0.6350706,-0.04953147,-0.1762082
0.7298896,-0.03684138,-0.1953556
0.8365719,-0.02942108,-0.2150216
0.9631833,-0.03472109,-0.2089191
1.098508,-0.05146715,-0.1811308
1.162356,-0.08143772,-0.1938983
1.177031,-0.1329055,-0.2052452
1.175493,-0.2746267,-0.2342584
1.210517,-0.454293,-0.2962596
1.267999,-0.461238,-0.3203882
1.272811,-0.4553265,-0.3691031
1.238803,-0.5958541,-0.4267352
1.177249,-0.6405432,-0.4009356
1.120899,-0.6421146,-0.3579283
1.112838,-0.6773882,-0.3026142
1.129981,-0.6170432,-0.2350322
1.143324,-0.600127,-0.2200656
1.137634,-0.5644136,-0.1806967
1.142393,-0.4431885,-0.1325765
1.147892,-0.3984987,-0.1638356
1.087329,-0.3489995,-0.1841317
0.9647784,-0.3306284,-0.1827462
0.8132416,-0.3330875,-0.1884421
0.6699278,-0.2657915,-0.1552683
0.5616229,-0.2532257,-0.1308113
0.4969157,-0.2208227,-0.1157723
0.4862266,-0.1873347,-0.08485417
0.4770205,-0.2278476,-0.05478213
0.4524953,-0.232239,-0.0063423
0.4677217,-0.2412097,0.01475111
0.5305072,-0.2463681,0.005661144
0.6367308,-0.2616784,0.00102627
0.7692028,-0.357795,-0.01642012
0.8808607,-0.4574607,0.0002951412
0.963825,-0.4977728,0.02077731
1.084357,-0.4681914,-0.01184205
1.258666,-0.4486944,-0.02798478
1.310186,-0.4414133,-0.03820281
1.266,-0.4345162,-0.1200867
1.386125,-0.5953198,-0.2185766
1.482781,-0.8052908,-0.2251418
1.32873,-0.7988407,-0.2139268
1.10294,-0.6887841,-0.2563148
0.8915191,-0.6295221,-0.2585466
0.7998943,-0.5678667,-0.2812053
0.8684705,-0.5225742,-0.3405481
0.9153054,-0.524122,-0.3230642
0.9673282,-0.5046894,-0.3118024
1.013731,-0.4851184,-0.3105809
0.9746423,-0.4621538,-0.2756325
0.9530187,-0.4127276,-0.26501
0.9153307,-0.3817414,-0.2504794
0.8336855,-0.3449334,-0.2436686
0.7954308,-0.3416353,-0.2384658
0.7361099,-0.3736787,-0.2024232
0.6745856,-0.3657485,-0.1723343
0.6969486,-0.3573394,-0.1576741
0.6974516,-0.3092807,-0.1653046
0.6779313,-0.2009512,-0.1628771
0.7145325,-0.1159798,-0.1568797
0.7491793,-0.06198602,-0.1759258
0.7998429,-0.04931611,-0.1811835
0.8620078,-0.0726265,-0.1877729
0.9197081,-0.1172002,-0.1734004
1.046311,-0.2039014,-0.1432479
1.158889,-0.3079317,-0.1696551
1.190465,-0.3689772,-0.2159722
1.211292,-0.3592502,-0.2611621
1.212659,-0.350069,-0.2998709
1.196237,-0.4159596,-0.302175
1.182821,-0.5927269,-0.2925278
1.14858,-0.8073367,-0.2778743
1.122063,-0.8070621,-0.2715802
1.089933,-0.6998099,-0.2643977
1.003257,-0.7319617,-0.198682
0.9771642,-0.6856946,-0.1358002
1.097019,-0.6122812,-0.1755965
1.223267,-0.6253875,-0.2530694
1.225947,-0.522733,-0.2792556
1.097503,-0.473059,-0.2789369
0.940775,-0.4474732,-0.2490153
0.877632,-0.3502494,-0.1997605
0.8435863,-0.3625128,-0.1897924
0.768804,-0.2909642,-0.1706804
0.7216703,-0.1930671,-0.1381213
0.6600433,-0.1671485,-0.131423
0.5210983,-0.09155249,-0.0927995
0.4083719,-0.1434264,-0.03277151
0.3754996,-0.1853812,0.006458613
0.410589,-0.1700318,0.01263566
0.5131761,-0.2430607,-0.002206687
0.6461895,-0.2417774,0.00667471
0.8340128,-0.2577184,0.002833815
1.044603,-0.3254753,-0.009828227
1.217991,-0.3532232,-0.003036415
1.365127,-0.4275383,-0.02772311
1.429673,-0.5695056,-0.08757852
1.497096,-0.8132988,-0.1611175
1.570532,-0.9427373,-0.1998997
1.416368,-0.7565422,-0.2169905
1.124326,-0.5493012,-0.2631891
0.9193688,-0.4859094,-0.273031
0.869553,-0.4628763,-0.2889515
0.9391153,-0.4953859,-0.3323596
0.9681333,-0.5606336,-0.3209283
0.9703335,-0.561192,-0.3171438
0.9793369,-0.5070579,-0.3141013
0.9344382,-0.4172685,-0.2974212
0.921215,-0.3257584,-0.3080705
0.9008702,-0.2854345,-0.286524
0.824097,-0.2536189,-0.2658128
0.7734207,-0.2553911,-0.2475352
0.6976467,-0.3187604,-0.197651
0.6126184,-0.3651674,-0.1754214
0.5722327,-0.34719,-0.1601984
0.5455402,-0.2526969,-0.1455266
0.5570443,-0.1512404,-0.1439945
0.5845615,-0.08796856,-0.1465428
0.6180927,-0.01075707,-0.1605127
0.694278,0.06827603,-0.1686441
0.8154624,0.08446531,-0.1960602
0.978433,0.01179484,-0.2247259
1.127827,-0.09404255,-0.2227513
1.233814,-0.1809131,-0.2223181
1.340752,-0.2614648,-0.2220988
1.458984,-0.3527924,-0.2316242
1.503856,-0.388981,-0.2776248
1.439696,-0.2958655,-0.3455473
1.383623,-0.2470804,-0.3661925
1.337138,-0.3886143,-0.345733
1.224693,-0.5534612,-0.3490052
1.119552,-0.5977932,-0.3183848
1.055853,-0.571385,-0.2601331
1.021258,-0.5523848,-0.2286603
1.027313,-0.5080189,-0.1849458
1.043407,-0.441745,-0.1496543
1.078392,-0.4139268,-0.1438954
1.103422,-0.3913093,-0.1538249
1.034638,-0.3901833,-0.17978
0.914077,-0.4015739,-0.2008009
0.8227513,-0.3772434,-0.187469
0.6993756,-0.3402465,-0.1212617
0.5209141,-0.2625857,-0.05716666
0.4927527,-0.2048918,-0.05026106
0.5963526,-0.1867756,-0.06503549
0.5926525,-0.09822432,-0.05465301
0.5815371,-0.05908373,-0.03860015
0.5736099,-0.137733,-0.04549263
0.4921638,-0.2016652,-0.02374565
0.5412544,-0.2710571,0.01425073
0.6519247,-0.3622104,0.01296367
0.7838033,-0.4357769,0.01162678
1.008975,-0.5057343,0.01761521
1.08471,-0.5122625,0.0172283
1.14926,-0.4643018,0.01411942
1.387636,-0.4283587,-0.01407507
1.498302,-0.4053223,-0.09396553
1.491936,-0.4856759,-0.1914645
1.529856,-0.6447603,-0.2081229
1.426399,-0.6882889,-0.2004041
1.164339,-0.6190247,-0.245543
0.9785455,-0.5483888,-0.2472975
0.8648017,-0.5031843,-0.2264985
0.7747909,-0.4667192,-0.2363817
0.7857322,-0.4150008,-0.218784
0.8488299,-0.3526389,-0.2172452
0.9403975,-0.2920214,-0.2608355
1.023652,-0.2526253,-0.2884428
1.019487,-0.2502959,-0.2763161
0.9728691,-0.284858,-0.2394702
0.8976178,-0.3345514,-0.2178
0.8254303,-0.3535981,-0.2090854
0.784067,-0.3570863,-0.2184249
0.7338803,-0.3617104,-0.2422358
0.7072683,-0.3374896,-0.2223487
0.7155424,-0.2892194,-0.2102626
0.7310302,-0.2293161,-0.2198352
0.7416706,-0.1744786,-0.198959
0.7453495,-0.1313274,-0.1960967
0.7678211,-0.0818776,-0.2063506
0.8356222,-0.03936774,-0.2162684
0.9424162,-0.02158422,-0.2394503
1.009444,-0.04029584,-0.2474538
1.011011,-0.114026,-0.2430096
1.020601,-0.2363821,-0.2230795
1.061183,-0.3510318,-0.216182
1.145502,-0.3885185,-0.2684282
1.243545,-0.37334,-0.3317847
1.246081,-0.3922752,-0.3484029
1.210561,-0.4797946,-0.367291
1.206863,-0.5712293,-0.4160907
1.136364,-0.5713847,-0.4176887
1.086971,-0.5683652,-0.4074334
1.121688,-0.6430899,-0.4018845
1.091966,-0.6538051,-0.3138594
1.042871,-0.6076948,-0.219677
1.019843,-0.5760585,-0.1696512
1.009458,-0.4890583,-0.1579716
1.053909,-0.4075323,-0.2095234
1.051508,-0.3779419,-0.2450548
0.9769933,-0.3737164,-0.2574505
0.8577289,-0.3993624,-0.2515913
0.7152204,-0.3962957,-0.2033293
0.6517314,-0.3706187,-0.1638913
0.6258502,-0.3173389,-0.1247473
0.6138515,-0.231135,-0.1070858
0.606264,-0.206596,-0.1137423
0.5324394,-0.2064398,-0.1005531
0.4689055,-0.1838244,-0.09501437
0.4685118,-0.1989267,-0.08018196
0.516948,-0.2458589,-0.06020771
0.5629411,-0.2885059,-0.04550794
0.5765669,-0.3275805,-0.01355792
0.6652538,-0.3603038,0.0001486419
0.8637078,-0.3768348,-0.008598563
1.099264,-0.3974365,-0.02023103
1.279612,-0.394635,-0.02778714
1.426553,-0.3476885,-0.04713104
1.536212,-0.3422577,-0.07733226
1.47805,-0.4427085,-0.1046601
1.436887,-0.6284297,-0.1642848
1.454625,-0.730377,-0.2087846
1.296497,-0.6799042,-0.2236268
1.09963,-0.6823507,-0.257149
0.9247724,-0.7253487,-0.271154
0.7535334,-0.6889904,-0.2908057
0.706478,-0.6714328,-0.3220232
0.7331238,-0.6462101,-0.3303939
0.8107619,-0.5600599,-0.3619265
0.9068008,-0.5086749,-0.3950505
0.9832513,-0.4880148,-0.391774
1.007617,-0.4611173,-0.3651611
0.9467906,-0.4424959,-0.3226075
0.9120054,-0.4333135,-0.2904556
0.8346662,-0.4392733,-0.267435
0.6902332,-0.4342747,-0.2332578
0.6072604,-0.4002381,-0.2133603
0.5914838,-0.3360854,-0.2326089
0.6500285,-0.2375972,-0.2549726
0.6875917,-0.1451039,-0.2581096
0.6951892,-0.08901886,-0.2661345
0.7193507,-0.08483614,-0.2678619
0.7242587,-0.1017046,-0.2603089
0.7696639,-0.08136235,-0.2575324
0.7793207,-0.05655044,-0.2479239
0.7753978,-0.04869905,-0.240361
0.8702999,-0.06709481,-0.24128
0.9951055,-0.1343595,-0.2461232
1.151659,-0.2156155,-0.2626991
1.271417,-0.3125773,-0.3007179
1.320067,-0.3817737,-0.360012
1.351909,-0.361731,-0.3969047
1.339603,-0.3761725,-0.3745328
1.335737,-0.536738,-0.3434814
1.256099,-0.7399604,-0.3480575
1.074343,-0.7962112,-0.3300176
0.9870806,-0.7238395,-0.2768689
0.9710235,-0.687018,-0.2465138
0.9770776,-0.6245785,-0.2416984
1.038369,-0.5188284,-0.2548752
1.085938,-0.5052288,-0.251884
1.075354,-0.4992779,-0.2333935
1.001581,-0.4721137,-0.2309982
0.8937307,-0.4718724,-0.1909258
0.7767861,-0.4008869,-0.1327177
0.66053,-0.2870789,-0.1014271
0.5911132,-0.1731069,-0.1034763
0.5567255,-0.07543741,-0.1297775
0.5275716,-0.06921433,-0.1158702
0.514583,-0.1080823,-0.1016246
0.5055891,-0.1563074,-0.08432022
0.5085414,-0.208541,-0.03706355
0.5669712,-0.2582398,-0.03002724
0.6656793,-0.3318703,-0.02095195
0.7733139,-0.4035441,-0.02844101
0.9249002,-0.4916028,-0.05255207
1.095869,-0.5609743,-0.0001720274
1.225093,-0.5344245,0.03310656
1.31928,-0.4855816,-0.02277587
1.35887,-0.4937506,-0.1438708
1.376267,-0.6183262,-0.2683978
1.371634,-0.775027,-0.2790508
1.215109,-0.7279325,-0.2524702
0.9962751,-0.5912927,-0.3038003
0.8945843,-0.5546356,-0.3547473
0.8926624,-0.5216587,-0.3631825
0.9454733,-0.5156191,-0.3543196
1.002362,-0.5135795,-0.3197722
1.015459,-0.4646108,-0.3104845
0.960834,-0.4554342,-0.3283357
0.8800652,-0.400573,-0.3212504
0.8583455,-0.3695811,-0.3190774
0.8310672,-0.3964064,-0.2974963
0.7664228,-0.3289683,-0.2552825
0.7310624,-0.3167786,-0.2411996
0.6922549,-0.3370293,-0.2250098
0.6292538,-0.3072723,-0.2118631
0.5957893,-0.3286508,-0.2029797
0.5993905,-0.2946465,-0.1826828
0.6045678,-0.2194126,-0.1721806
0.6296974,-0.1467921,-0.1765185
0.6890409,-0.05593692,-0.1964118
0.7807358,-0.03508515,-0.2273432
0.9122248,-0.0432121,-0.2694925
1.024829,-0.08150614,-0.2853635
1.088504,-0.1608542,-0.2622748
1.121049,-0.2089927,-0.2517243
1.159409,-0.2577266,-0.2329993
1.220579,-0.3081644,-0.222877
1.238368,-0.3271223,-0.2889234
1.232081,-0.3236786,-0.3681867
1.232808,-0.3539174,-0.3736322
1.184064,-0.4412343,-0.3575886
1.10058,-0.5078421,-0.3791271
1.054724,-0.5434393,-0.3867462
1.093394,-0.5563633,-0.3808649
1.155266,-0.5362351,-0.3500346
1.182056,-0.5304694,-0.2355626
1.203675,-0.5329544,-0.160195
1.189172,-0.5011882,-0.2062785
1.139856,-0.4210819,-0.2741987
1.075916,-0.3370722,-0.3091296
0.9698001,-0.3170441,-0.2883058
0.8513601,-0.3148646,-0.2175451
0.7295062,-0.2891091,-0.1522561
0.626864,-0.2729089,-0.1122701
0.5626487,-0.229164,-0.09873371
0.5155301,-0.1585105,-0.1022528
0.5193923,-0.1282822,-0.0921149
0.539412,-0.1320274,-0.06643451
0.5540206,-0.1775507,-0.03982929
0.6081911,-0.2611299,-0.02213884
0.7070929,-0.3248716,-0.01656783
0.8751066,-0.3812834,-0.009049304
1.058127,-0.4359285,-0.006188631
1.199947,-0.4371793,0.007297183
1.288964,-0.3709283,0.005239912
1.309725,-0.34134,-0.1148402
1.355441,-0.5064566,-0.2463482
1.370089,-0.7648207,-0.224825
1.243049,-0.8182019,-0.1937601
1.069198,-0.6498454,-0.2526374
0.8947239,-0.4939699,-0.2606137
0.8130268,-0.438746,-0.2398671
0.8551807,-0.4224407,-0.2616364
0.8744899,-0.4114482,-0.2600973
0.9336271,-0.411691,-0.2845634
1.017295,-0.4212401,-0.3320075
0.9926253,-0.4162361,-0.3260439
0.9352441,-0.4100168,-0.2804069
0.8718262,-0.4019847,-0.2118575
0.8367759,-0.355025,-0.2046393
0.831312,-0.3107119,-0.216552
0.7881551,-0.2983174,-0.1897689
0.7809054,-0.2876407,-0.2138372
0.7518415,-0.2702128,-0.2098525
0.6721315,-0.2389927,-0.1805219
0.6531538,-0.205916,-0.1908983
0.6475051,-0.1771146,-0.1762204
0.6316882,-0.1268414,-0.176831
0.6359915,-0.0868542,-0.1782392
0.6699454,-0.08546725,-0.1825607
0.7397094,-0.05909748,-0.2300986
0.8334463,-0.03999517,-0.2539194
0.9640815,-0.1002268,-0.287061
1.084247,-0.1759132,-0.3140841
1.172186,-0.2663335,-0.3006077
1.250901,-0.3501816,-0.3105055
1.327662,-0.3574676,-0.3214918
1.39795,-0.3581311,-0.356346
1.389679,-0.3825015,-0.4216219
1.334934,-0.4674662,-0.435234
1.260135,-0.6092336,-0.4073748
1.12523,-0.6458628,-0.3765727
1.040871,-0.5932104,-0.3509801
1.006318,-0.5599653,-0.3158565
0.9630772,-0.5123521,-0.2710517
0.9887205,-0.4570547,-0.2369951
1.055879,-0.4624953,-0.2037297
1.126753,-0.4890394,-0.1900033
1.157645,-0.491337,-0.2073565
1.044833,-0.4973862,-0.224024
0.871164,-0.4509248,-0.2267155
0.7354291,-0.3471339,-0.2146329
0.6353032,-0.2718384,-0.1891215
0.5929559,-0.2380654,-0.1590345
0.5590583,-0.236039,-0.1321184
0.5148491,-0.2238541,-0.1085806
0.4938236,-0.208646,-0.09369591
0.4735789,-0.2246694,-0.08549326
0.4739989,-0.2396723,-0.07150755
0.523377,-0.271244,-0.05369669
0.6378689,-0.3198288,-0.0398841
0.8054217,-0.3827357,-0.03505993
0.967062,-0.4662889,-0.01650344
1.14,-0.4873102,0.01814228
1.337096,-0.4398732,0.00245576
1.475205,-0.4373699,-0.1021615
1.502613,-0.5745973,-0.2222509
1.477907,-0.7843807,-0.2385365
1.397145,-0.8385093,-0.2074309
1.174963,-0.6963137,-0.2443636
0.9452179,-0.5542304,-0.274668
0.859236,-0.4952042,-0.2894389
0.84464,-0.4777092,-0.3191081
0.8599784,-0.4786417,-0.2971812
0.88508,-0.4568093,-0.2855
0.8936085,-0.4132229,-0.299741
0.9014605,-0.3690887,-0.2918074
0.9005017,-0.303146,-0.3018292
0.9158233,-0.2773467,-0.2917096
0.9259385,-0.3059067,-0.2624579
0.8945531,-0.3037212,-0.2525531
0.8607088,-0.310838,-0.2310025
0.8151925,-0.3531528,-0.2107726
0.7576847,-0.3670989,-0.1996613
0.6974759,-0.3530941,-0.1901633
0.6411635,-0.3255589,-0.1749636
0.6496784,-0.2829968,-0.1689405
0.8418527,-0.3558694,-0.1631837
0.7516221,-0.369473,-0.129897
0.6912894,-0.3467473,-0.111811
0.6498407,-0.2731547,-0.1065603
0.6251737,-0.1938783,-0.1201601
0.6317601,-0.1501223,-0.114208
0.6577407,-0.1220986,-0.1205167
0.6665042,-0.0655019,-0.1303064
0.672388,-0.01617859,-0.1391905
0.7079631,-0.009740023,-0.1759715
0.7828936,-0.02214212,-0.2044897
0.9266775,-0.09331123,-0.2196942
1.078778,-0.209542,-0.210749
1.18911,-0.3160583,-0.1745541
1.303497,-0.4017045,-0.162115
1.429932,-0.4023266,-0.2009622
1.536321,-0.3318236,-0.2916568
1.554266,-0.2938456,-0.377262
1.465965,-0.3645543,-0.4206529
1.301809,-0.4885662,-0.434626
1.09836,-0.5298808,-0.4076112
0.9980609,-0.5302188,-0.3493456
1.021197,-0.5027106,-0.2476763
1.017256,-0.4203561,-0.1367072
1.018346,-0.383828,-0.1173877
1.09802,-0.3479826,-0.1564411
1.157747,-0.2905269,-0.2049405
1.14617,-0.2982549,-0.2701635
1.067368,-0.3229762,-0.2888635
0.9451093,-0.3307592,-0.2586452
0.8106428,-0.3360222,-0.2162048
0.6188713,-0.330309,-0.1394168
0.4944259,-0.2978777,-0.09386903
0.497658,-0.2431696,-0.1012628
0.4617954,-0.2201709,-0.08594267
0.4658088,-0.2116127,-0.08673164
0.5038282,-0.1975636,-0.08271756
0.4951416,-0.2189224,-0.04059099
0.5915535,-0.255693,-0.03524991
0.7317431,-0.3139589,-0.006005965
0.8865408,-0.4012491,0.05933064
1.075759,-0.4628889,0.08365357
1.229723,-0.4818928,0.07610503
1.425821,-0.4355887,-0.001553059
1.509903,-0.41189,-0.146819
1.439189,-0.5597969,-0.2371819
1.384008,-0.713254,-0.185789
1.24003,-0.6647788,-0.1296654
1.018036,-0.5289886,-0.1835617
0.854481,-0.4260943,-0.218392
0.8381193,-0.3734415,-0.2547443
0.9268795,-0.3997872,-0.2904812
0.9590249,-0.4085357,-0.2533988
0.9580071,-0.3570326,-0.2675924
0.926635,-0.3323734,-0.2620222
0.8845875,-0.2902103,-0.2055426
0.8787432,-0.2639594,-0.2028294
0.8483513,-0.291578,-0.1767203
0.832361,-0.2806605,-0.1716394
0.8034668,-0.2995094,-0.1902391
0.7407343,-0.3285298,-0.1726527
0.6946427,-0.2956512,-0.1793932
0.6258683,-0.2549275,-0.1626034
0.566496,-0.1831554,-0.1318956
0.5539255,-0.131722,-0.1192022
0.5709482,-0.1118988,-0.1043901
0.622142,-0.06024672,-0.1350202
0.7206027,-0.0180881,-0.1684737
0.8172626,0.001879795,-0.175736
0.9393809,-0.01888272,-0.2072605
1.164716,-0.05065948,-0.2584264
1.235112,-0.07561016,-0.2752405
1.20123,-0.1924403,-0.2484016
1.421423,-0.4138108,-0.2348957
1.568257,-0.5747583,-0.2242977
1.490964,-0.4952221,-0.24265
1.507905,-0.4097925,-0.3373742
1.489228,-0.4983645,-0.4362135
1.381019,-0.4769775,-0.5057389
1.330216,-0.4282987,-0.5008
1.190959,-0.46505,-0.3836035
0.96694,-0.4407318,-0.2380075
0.8760451,-0.4800514,-0.1340721
0.9036404,-0.5064313,-0.09121669
0.9693312,-0.4412728,-0.0883147
1.076571,-0.3990248,-0.153138
1.115811,-0.3265775,-0.2608805
1.048143,-0.3062935,-0.2632966
0.9597333,-0.3293223,-0.2042285
0.8419574,-0.3064228,-0.1681545
0.7095484,-0.2935252,-0.1300497
0.59332,-0.2490406,-0.1118321
0.4717693,-0.197791,-0.08946374
0.379811,-0.1630761,-0.07105177
0.3404787,-0.1362475,-0.07266463
0.3573585,-0.1560154,-0.04275124
0.4702103,-0.1915997,-0.007609373
0.630489,-0.2601277,0.0006195122
0.7497137,-0.3515787,-0.01824524
0.8890228,-0.4472043,-0.03215996
1.102208,-0.5136347,0.0001622453
1.288787,-0.4827291,-0.004893628
1.389734,-0.5089302,-0.1340653
1.458218,-0.6733341,-0.2767596
1.502313,-0.7923229,-0.2647271
1.362561,-0.7388077,-0.2081747
1.050019,-0.5832453,-0.2345387
0.9319156,-0.4987119,-0.2210333
1.010002,-0.4853821,-0.2434624
1.005446,-0.4820502,-0.3297223
0.9948736,-0.5118782,-0.2929826
0.9816292,-0.5303694,-0.2598855
0.8784973,-0.5097823,-0.2699933
0.7843223,-0.4411103,-0.2291392
0.7433918,-0.3598577,-0.2466413
0.7518251,-0.3149597,-0.2586905
0.7570286,-0.2916801,-0.2362625
0.7330931,-0.3119587,-0.242336
0.6885782,-0.3189267,-0.2092424
0.592751,-0.2950967,-0.1863384
0.5350049,-0.2671121,-0.1781175
0.54581,-0.1653762,-0.1473946
0.5565844,-0.06998026,-0.148909
0.6088079,-0.05830274,-0.1712543
0.7381732,-0.06102623,-0.2227212
0.8758549,-0.06303761,-0.267759
0.9615728,-0.09761864,-0.2488796
1.060962,-0.1390928,-0.2240531
1.175812,-0.1588397,-0.2095148
1.233472,-0.2357219,-0.1935586
1.310944,-0.355997,-0.1904213
1.393854,-0.4140011,-0.2199798
1.390655,-0.4146318,-0.3220213
1.347232,-0.4381336,-0.4327401
1.255261,-0.548272,-0.4422232
1.131778,-0.6493385,-0.4014879
1.057493,-0.6603107,-0.3829523
1.009847,-0.6444795,-0.3394043
0.9782402,-0.5893764,-0.2902603
0.9613831,-0.4724241,-0.2538403
0.9586071,-0.3947401,-0.1887137
1.022088,-0.4182287,-0.1801552
1.099068,-0.4680561,-0.2285805
1.07875,-0.5221669,-0.2510166
0.9548686,-0.5405263,-0.2625228
0.7748208,-0.4473186,-0.2187874
0.6272429,-0.3374143,-0.1572704
0.5777071,-0.2343525,-0.1507563
0.5581849,-0.1399194,-0.1351339
0.5387097,-0.1207789,-0.1098641
0.5437847,-0.1332662,-0.08784393
0.5061456,-0.1943841,-0.06281586
0.4333744,-0.2740883,-0.04567024
0.414847,-0.287633,-0.0176167
0.4543,-0.2720997,0.007854515
0.5220066,-0.2738172,0.02559988
0.6484338,-0.3128754,0.01700484
0.8911732,-0.3653222,-0.01279175
1.208741,-0.4082631,-0.008145133
1.494687,-0.4065734,-0.003006588
1.620927,-0.3830696,-0.01137537
1.576344,-0.4114929,-0.03119139
1.609746,-0.4746313,-0.13568
1.733163,-0.6593382,-0.243959
1.709742,-0.8515517,-0.2166402
1.522824,-0.7990735,-0.1770977
1.159279,-0.7554084,-0.2188529
0.7467785,-0.8247738,-0.2109237
0.5971215,-0.7822548,-0.1999885
0.70922,-0.7458735,-0.2725097
0.8647521,-0.7175717,-0.3336626
0.9223692,-0.5795263,-0.3863804
0.9445125,-0.4942743,-0.4048803
0.930186,-0.4667939,-0.3554077
0.8462577,-0.4460131,-0.3046978
0.86132,-0.4399877,-0.2483666
0.8754845,-0.3745351,-0.2371106
0.8354658,-0.3316763,-0.2588506
0.8291889,-0.315308,-0.2515964
0.7282028,-0.2868632,-0.2654128
0.637832,-0.304552,-0.2611152
0.5875209,-0.2987406,-0.2416157
0.5341985,-0.2881154,-0.2381891
0.5732754,-0.2734673,-0.2107271
0.5855433,-0.2002001,-0.2012234
0.6220342,-0.1172479,-0.2124555
0.7341192,-0.0206144,-0.2212876
0.8268917,0.005115372,-0.2361939
0.9758025,-0.03820755,-0.230059
1.131403,-0.03634448,-0.1950842
1.230855,-0.08772881,-0.1423749
1.311356,-0.2114777,-0.1280576
1.343367,-0.3169269,-0.2190067
1.344021,-0.3751824,-0.3573503
1.352007,-0.3711728,-0.4311793
1.33662,-0.4463769,-0.4438365
1.26996,-0.6363157,-0.4434502
1.17431,-0.7097874,-0.4084872
1.080605,-0.6625222,-0.3466362
1.034519,-0.6161564,-0.3015291
1.033794,-0.5094853,-0.2713749
1.06159,-0.4127537,-0.2416746
1.103932,-0.4184504,-0.2244534
1.075219,-0.4271448,-0.2339542
0.9898913,-0.4171332,-0.2386376
0.8482803,-0.409841,-0.2246553
0.6474357,-0.3689183,-0.1979672
0.5338568,-0.2807483,-0.1356478
0.4917881,-0.1829178,-0.08964595
0.4792004,-0.1572425,-0.09806162
0.5174987,-0.1775064,-0.09984776
0.5244169,-0.1686779,-0.08913414
0.5299105,-0.1720259,-0.07820388
0.5888264,-0.2183017,-0.04315073
0.6563135,-0.2641938,-0.009375417
0.6882449,-0.2822346,-0.01354389
0.7693075,-0.3408537,-0.01077383
0.9973434,-0.4784585,0.05013604
1.14391,-0.5423911,0.07164391
1.201284,-0.5210587,-0.05293259
1.48505,-0.629129,-0.2308238
1.694028,-0.7712374,-0.2921532
1.495559,-0.7363734,-0.2455104
1.246203,-0.684698,-0.2523877
1.068338,-0.6389472,-0.2930184
0.8863356,-0.4769579,-0.2819181
0.8973146,-0.4415024,-0.3017894
0.9511154,-0.5194854,-0.3210957
0.9168316,-0.4739491,-0.2881154
0.9641781,-0.4604592,-0.283043
0.95483,-0.4465613,-0.2946395
0.9058142,-0.3375897,-0.2970024
0.9333545,-0.3079194,-0.2886869
0.9005653,-0.2986348,-0.2701746
0.8664391,-0.2814714,-0.2691029
0.8218473,-0.3046113,-0.2531896
0.7262071,-0.3060933,-0.2239061
0.6635412,-0.3212149,-0.2100169
0.5847827,-0.3118159,-0.1900751
0.5349164,-0.2731818,-0.1686697
0.5266764,-0.2418192,-0.1573327
0.5183552,-0.1661199,-0.1614891
0.5485532,-0.108011,-0.1919962
0.6078747,-0.09161139,-0.2373592
0.7591087,-0.08655036,-0.2752604
0.9419571,-0.1234606,-0.3010521
1.06032,-0.2018378,-0.297132
1.237841,-0.2890771,-0.2597374
1.42116,-0.3359248,-0.2617353
1.470906,-0.3709262,-0.3174374
1.461367,-0.4278876,-0.3947208
1.436715,-0.4578558,-0.4662313
1.372161,-0.4900624,-0.4638391
1.262589,-0.5624201,-0.4434359
1.108451,-0.6045169,-0.4415073
1.01019,-0.5915513,-0.3922921
1.002728,-0.5505547,-0.3398563
0.9832699,-0.4572404,-0.2965687
0.9700598,-0.3734975,-0.2391636
0.9853042,-0.37324,-0.1916096
0.9971304,-0.3877147,-0.1797706
1.005499,-0.4051076,-0.2258637
0.9223647,-0.4376789,-0.2508596
0.749515,-0.438168,-0.2137138
0.6127288,-0.412625,-0.1716201
0.5436332,-0.3662334,-0.1420233
0.5143783,-0.2842062,-0.1315696
0.4976529,-0.1854986,-0.1269918
0.5069913,-0.1391066,-0.1269605
0.5262853,-0.1417254,-0.128036
0.4902161,-0.1308091,-0.09364188
0.4513958,-0.1414336,-0.05016228
0.4768921,-0.1666912,-0.03760509
0.5627771,-0.2428828,-0.03719956
0.701858,-0.4082769,-0.01786402
0.8019842,-0.4821311,0.002294397
0.9173072,-0.4947374,0.02251908
1.242092,-0.568894,0.06835668
1.52325,-0.5398734,0.04019977
1.530398,-0.4639022,-0.1252388
1.588147,-0.5425262,-0.2629164
1.674879,-0.6946291,-0.2334209
1.512217,-0.8013331,-0.1903984
1.251846,-0.7344675,-0.2529593
0.9686931,-0.5355712,-0.247769
0.749349,-0.4694697,-0.223212
0.7601904,-0.4465164,-0.2825275
0.8342263,-0.3970853,-0.2691891
0.9142222,-0.4256604,-0.2800546
0.9848143,-0.377553,-0.3292719
0.9590376,-0.3361031,-0.2840631
0.9514042,-0.3830205,-0.2750414
0.9246909,-0.3751127,-0.2685023
0.856632,-0.3754831,-0.2290634
0.8364289,-0.36081,-0.2247188
0.8106876,-0.3372688,-0.2104594
0.7755113,-0.355274,-0.2159367
0.7126467,-0.3394372,-0.1987923
0.6394349,-0.2975326,-0.1557056
0.604884,-0.2016803,-0.1598152
0.5581675,-0.1068819,-0.1742376
0.5499512,-0.06586439,-0.1955004
0.6210371,-0.004672408,-0.2042593
0.7306112,0.0340951,-0.2100041
0.8524299,0.02056316,-0.2296816
0.9774645,-0.0009056781,-0.225965
1.129301,-0.02902378,-0.2209121
1.255501,-0.1519273,-0.1810135
1.339723,-0.3140603,-0.128694
1.408662,-0.3090157,-0.1615346
1.425377,-0.215742,-0.2309129
1.436335,-0.2008158,-0.2763771
1.414332,-0.3228753,-0.2952588
1.279327,-0.576742,-0.3148834
1.110547,-0.7345623,-0.3504799
0.9680763,-0.7048521,-0.3151062
0.8753556,-0.6864837,-0.2421624
0.8641131,-0.6960463,-0.2449819
0.9584055,-0.6247357,-0.2464858
1.097626,-0.5616758,-0.2277261
1.123685,-0.5387936,-0.2428704
1.037698,-0.4942056,-0.240475
0.9069536,-0.478264,-0.2385295
0.7881353,-0.4301505,-0.2263736
0.7295203,-0.3353051,-0.1785107
0.6896206,-0.2850358,-0.161819
0.6724069,-0.2161075,-0.1516333
0.6390292,-0.1582046,-0.1340783
0.5874874,-0.14682,-0.1120075
0.558767,-0.1370103,-0.05445743
0.5081652,-0.1673141,-0.01804659
0.4831649,-0.1998825,-0.00718511
0.4786651,-0.2129493,0.004990345
0.5043337,-0.2261813,-0.001810492
0.6755473,-0.267166,-0.0004406194
0.9592866,-0.3789917,0.01847218
1.239483,-0.4669446,0.05291724
1.444178,-0.4870635,0.09202442
1.570713,-0.4900574,0.04734237
1.608021,-0.5284434,-0.08443886
1.629332,-0.665767,-0.183321
1.683805,-0.8072833,-0.2085912
1.563323,-0.8006079,-0.2093483
1.1708,-0.6447263,-0.2082448
0.7365048,-0.5198364,-0.1937263
0.7006585,-0.5534178,-0.2065661
0.9137299,-0.5871801,-0.2886716
0.8789497,-0.5528115,-0.3707589
0.9403728,-0.5501015,-0.3822147
1.014707,-0.4787081,-0.3408586
0.8261578,-0.3204517,-0.324609
0.8687635,-0.2745519,-0.336632
0.8881742,-0.2977895,-0.3034533
0.7885025,-0.2580299,-0.2627871
0.8273769,-0.2504127,-0.2407709
0.7139426,-0.2989821,-0.2222028
0.6510215,-0.328721,-0.214699
0.6163111,-0.3318369,-0.1853904
0.5328411,-0.2704484,-0.1730935
0.6299067,-0.1651356,-0.1926021
0.6757383,-0.1208548,-0.2068049
0.7772329,-0.1229816,-0.237346
0.8952657,-0.08789987,-0.2601435
0.8538861,-0.04017853,-0.2508446
0.9226293,-0.03969673,-0.2422516
1.025404,-0.0778469,-0.2553721
1.122682,-0.1778193,-0.2639492
1.247983,-0.348111,-0.2701363
1.328025,-0.4340218,-0.3150785
1.411521,-0.4020082,-0.3669082
1.418851,-0.4367498,-0.3859449
1.371333,-0.531757,-0.359935
1.259143,-0.5994458,-0.3239766
1.068685,-0.6419182,-0.3238895
0.9815705,-0.6053693,-0.2949201
0.9611303,-0.5745753,-0.241541
0.9628088,-0.5977122,-0.2212248
1.044796,-0.5764753,-0.1829897
1.108461,-0.5736821,-0.1511286
1.103371,-0.5660627,-0.1979571
1.039999,-0.4959088,-0.2476135
0.8829096,-0.4312855,-0.2317859
0.6863851,-0.3433578,-0.2106274
0.5430887,-0.2570659,-0.1808854
0.482665,-0.1919054,-0.1158156
0.4851133,-0.1322776,-0.08626925
0.4947007,-0.1375096,-0.08366346
0.5106344,-0.1756264,-0.06514639
0.5569426,-0.2289988,-0.06347708
0.6586362,-0.2915042,-0.07662927
0.8103151,-0.3296568,-0.08359748
0.9061026,-0.3781323,-0.07588414
0.9865983,-0.4440846,-0.04567327
1.157518,-0.5089948,-0.01815966
1.293598,-0.5206737,-0.04797461
1.334927,-0.5263904,-0.1574169
1.376806,-0.6711815,-0.2602405
1.35309,-0.8085419,-0.2639975
1.205091,-0.7194711,-0.2432583
1.033194,-0.5488315,-0.2730383
0.9060208,-0.4736601,-0.2810113
0.8974093,-0.4379655,-0.2927322
0.941404,-0.4299455,-0.339107
0.9294637,-0.456394,-0.3263586
0.9614152,-0.4585636,-0.3131615
0.9599958,-0.4487868,-0.3218206
0.8965556,-0.3961311,-0.2891325
0.9034934,-0.3076307,-0.2821745
0.8858648,-0.2618722,-0.2816619
0.8563204,-0.2472501,-0.2645626
0.8246874,-0.2676878,-0.2600103
0.7355879,-0.3143405,-0.2390437
0.6730502,-0.3638731,-0.2216815
0.6038547,-0.3805775,-0.2044184
0.5773225,-0.3183869,-0.1901073
0.6161859,-0.2425466,-0.1940256
0.6236967,-0.1756794,-0.1916494
0.6723699,-0.1206271,-0.1972368
0.7489075,-0.09318989,-0.2117484
0.8388484,-0.05693585,-0.2403629
0.9614441,-0.05311891,-0.2577718
1.040544,-0.08542721,-0.2299319
1.154193,-0.1325799,-0.2167677
1.262637,-0.2092681,-0.2297287
1.259073,-0.2788346,-0.2421566
1.328741,-0.354392,-0.2726236
1.438094,-0.410304,-0.3264136
1.410562,-0.394579,-0.3798205
1.380024,-0.3991708,-0.4083757
1.332308,-0.4691538,-0.4162866
1.183015,-0.5216547,-0.409525
1.070246,-0.5467828,-0.3984362
1.014285,-0.5634421,-0.3531766
0.9812407,-0.505912,-0.2476985
0.9786421,-0.4009809,-0.1695384
1.012944,-0.3438645,-0.151671
1.084172,-0.3249614,-0.1610759
1.09584,-0.326265,-0.1965354
1.014784,-0.3464269,-0.2206704
0.876946,-0.3692354,-0.2116566
0.7341184,-0.373557,-0.1672403
0.6495985,-0.3438872,-0.111338
0.6017109,-0.2998548,-0.1015581
0.5799951,-0.2411486,-0.1162746
0.5755727,-0.1884429,-0.1130259
0.5666833,-0.1818496,-0.1007844
0.5488122,-0.1980458,-0.08071022
0.5082221,-0.2275393,-0.03881551
0.4994308,-0.2831149,0.006763115
0.5483294,-0.3331271,0.02094775
0.6349302,-0.3577892,0.01083284
0.7736075,-0.3956619,0.004780811
0.9790982,-0.4407758,0.02148413
1.300222,-0.4388082,0.05360053
1.585129,-0.3948302,0.04073494
1.600397,-0.3759207,-0.105381
1.55924,-0.512316,-0.2849192
1.593153,-0.7522538,-0.2682779
1.445197,-0.8096448,-0.2033639
1.190687,-0.6699941,-0.2575188
1.014707,-0.5314873,-0.250045
0.8779432,-0.4438294,-0.2504729
0.8368022,-0.4158081,-0.3006523
0.8702267,-0.4300598,-0.245579
0.8892306,-0.4218801,-0.2254013
0.9079356,-0.3766237,-0.2644987
0.9185399,-0.3151658,-0.2706106
0.9177175,-0.274388,-0.2811972
0.9092908,-0.2768607,-0.2666822
0.8764552,-0.2884788,-0.260371
0.8056292,-0.3059302,-0.2482133
0.7386948,-0.3615432,-0.2043797
0.6907573,-0.391351,-0.1905578
0.6328475,-0.3492167,-0.1817544
0.6254077,-0.2688858,-0.1908078
0.6377286,-0.1524811,-0.2126663
0.6163901,-0.06953692,-0.2160132
0.6176607,-0.07692981,-0.221183
0.6388878,-0.08825194,-0.2124779
0.7044147,-0.07587272,-0.2118496
0.822553,-0.08243668,-0.2219792
0.9450201,-0.1024289,-0.2276986
1.069871,-0.1570451,-0.2407579
1.195094,-0.2820315,-0.2473838
1.334443,-0.4373909,-0.2801458
1.45047,-0.51319,-0.362274
1.486748,-0.4789097,-0.4448014
1.458386,-0.4807001,-0.4717224
1.354642,-0.5439618,-0.4611836
1.198722,-0.5409375,-0.4291134
1.098295,-0.5336912,-0.3390428
1.071658,-0.5539056,-0.2720695
1.030887,-0.5068716,-0.2453244
0.989877,-0.441479,-0.1915501
0.9930777,-0.3942908,-0.1858861
1.001031,-0.3651779,-0.2063896
1.010778,-0.3769036,-0.2047148
0.9838267,-0.387148,-0.21964
0.8976927,-0.3901664,-0.2089404
0.7855816,-0.3778648,-0.1827682
0.64701,-0.3333986,-0.158835
0.5617159,-0.2790205,-0.1317964
0.5203828,-0.2194978,-0.1242636
0.4835168,-0.1983713,-0.107445
0.5094029,-0.2066917,-0.09304306
0.5010475,-0.2001901,-0.08061255
0.4685678,-0.2255589,-0.06277221
0.5072687,-0.2656078,-0.06541511
0.5924614,-0.2980306,-0.05633469
0.767488,-0.3791207,-0.04329936
0.9262365,-0.4624954,-0.03467143
1.030076,-0.4963154,-0.01588303
0.8821812,-0.2911371,-0.2356771
0.8951295,-0.3152796,-0.2086946
0.8392007,-0.3384217,-0.1976426
0.7714999,-0.3643403,-0.1928766
0.7487366,-0.3897745,-0.1909909
0.6509354,-0.3555485,-0.1862386
0.6460537,-0.3012027,-0.1806303
0.6196329,-0.2397449,-0.1860948
0.5903116,-0.1783314,-0.1939089
0.6287397,-0.1111438,-0.1922529
0.6241982,-0.01495803,-0.1942718
0.6922656,0.01166576,-0.2101612
0.7835168,-0.002827843,-0.2223561
0.9241625,-0.0128762,-0.2360178
1.176268,-0.1030147,-0.2624763
1.27407,-0.2215862,-0.2706929
1.278305,-0.4040146,-0.2585051
1.395211,-0.5889605,-0.2799871
1.459089,-0.4750561,-0.3657536
1.463322,-0.3240559,-0.453221
1.497483,-0.4256191,-0.4563365
1.412802,-0.437813,-0.4388986
1.264958,-0.4100458,-0.4513138
1.106024,-0.5124732,-0.3936699
0.9530758,-0.4890698,-0.3091222
0.9674015,-0.4318338,-0.2461313
0.9844288,-0.4283814,-0.1531398
1.017219,-0.3819953,-0.1301831
1.161989,-0.4024404,-0.1593586
1.167819,-0.4095262,-0.1718115
1.060612,-0.3823513,-0.2184903
0.8663309,-0.3839638,-0.2168236
0.6112726,-0.3078097,-0.1663884
0.4660502,-0.2232961,-0.1302562
0.3847224,-0.1603422,-0.09385037
0.3606912,-0.1077788,-0.09058467
0.3606999,-0.122584,-0.08512921
0.3735676,-0.1499414,-0.06741394
0.4312046,-0.2084064,-0.05576512
0.4858175,-0.2872467,-0.02437063
0.6185358,-0.3463862,-0.001165673
0.8093172,-0.4258754,0.0345006
1.075953,-0.5186756,0.07106294
1.470987,-0.5762966,0.04703125
1.734484,-0.4711224,-0.04269081
1.768677,-0.3577004,-0.183586
1.715295,-0.5451063,-0.2358158
1.542413,-0.7467273,-0.1562891
1.221477,-0.682636,-0.1355811
0.9197569,-0.567286,-0.1904708
0.7856208,-0.4638442,-0.2360321
0.8142177,-0.3917539,-0.2871222
0.8927996,-0.4259777,-0.3026149
0.939006,-0.4267115,-0.2862581
0.9574487,-0.39827,-0.2880185
0.9240417,-0.4085756,-0.2701977
0.8841248,-0.3839884,-0.2306857
0.8651643,-0.3624065,-0.2158031
0.8102468,-0.3307893,-0.2219505
0.7625285,-0.276794,-0.2140572
0.6992368,-0.2834295,-0.194309
0.6102714,-0.2903915,-0.1767425
0.5439304,-0.2682173,-0.1415904
0.4728272,-0.2290423,-0.1129808
0.4462504,-0.1430407,-0.1129135
0.4564757,-0.05951938,-0.1209313
0.4770244,-0.003048057,-0.149471
0.5524654,0.01017427,-0.1820784
0.6649402,-0.01850684,-0.204213
0.8816156,-0.06611556,-0.2425666
1.156424,-0.1463147,-0.2749767
1.290864,-0.1905086,-0.2729097
1.396627,-0.2494974,-0.2617429
1.537113,-0.4147828,-0.2751458
1.542661,-0.5203875,-0.2869334
1.549024,-0.5113699,-0.3030919
1.555209,-0.4954837,-0.3691741
1.419479,-0.5023404,-0.4252163
1.320031,-0.5186791,-0.4377125
1.197233,-0.5105221,-0.3985736
1.064158,-0.51818,-0.3094166
1.024565,-0.5405587,-0.2568188
0.9346124,-0.5402648,-0.2061238
0.9433159,-0.5201857,-0.1554551
1.007017,-0.4374274,-0.1647379
0.998197,-0.3728027,-0.1677083
1.015304,-0.3626494,-0.189767
0.9138038,-0.3402746,-0.2199891
0.7334064,-0.3375466,-0.1986258
0.56985,-0.3281875,-0.1798802
0.4188146,-0.2923261,-0.1429762
0.3347794,-0.2385628,-0.09497572
0.2668384,-0.1756859,-0.07319464
0.2752398,-0.1651888,-0.05578839
0.3439497,-0.202249,-0.05294785
0.4203138,-0.2685902,-0.04132936
0.5598817,-0.3409781,-0.03073488
0.7495695,-0.4004238,-0.02869298
1.016824,-0.4698879,0.006989893
1.277689,-0.5209041,0.02598623
1.488943,-0.511534,-0.02196038
1.651927,-0.466274,-0.1395423
1.633607,-0.4991209,-0.2581364
1.571273,-0.6994788,-0.257639
1.494245,-0.8936733,-0.2098873
1.230485,-0.7863672,-0.2118577
0.9738954,-0.5672281,-0.2020946
0.812849,-0.5566062,-0.2215668
0.7188435,-0.5359025,-0.2960488
0.7802679,-0.4852893,-0.3171604
0.8379668,-0.5134776,-0.3164671
0.8862608,-0.4517565,-0.3367435
0.9688076,-0.4278694,-0.3394271
0.935223,-0.4340927,-0.3380618
0.9193623,-0.3896672,-0.3075327
0.9028337,-0.4085297,-0.2603823
0.7914512,-0.3639978,-0.2310325
0.7335212,-0.3262907,-0.1937923
0.6641214,-0.3444221,-0.1697696
0.598016,-0.3012716,-0.1610004
0.5747957,-0.273983,-0.1577852
0.5286609,-0.2061646,-0.1649835
0.5418173,-0.1213431,-0.1702938
0.5860104,-0.08442697,-0.1874431
0.671377,-0.05310346,-0.2096738
0.8159794,-0.07491516,-0.2219851
0.9301558,-0.09091549,-0.2184765
1.019532,-0.09937337,-0.2093262
1.11333,-0.1520704,-0.1984345
1.281686,-0.2382079,-0.1514383
1.381682,-0.3381735,-0.140526
1.332072,-0.3635152,-0.2611332
1.382144,-0.386769,-0.4040016
1.408859,-0.434789,-0.4148711
1.319593,-0.4728592,-0.3787509
1.263069,-0.6003736,-0.4104192
1.094747,-0.6336659,-0.3929305
0.9390088,-0.5274249,-0.3233998
0.9523397,-0.4916225,-0.309552
0.9464462,-0.4194476,-0.2950082
0.9614856,-0.3795188,-0.2576947
0.9985446,-0.4850658,-0.2002528
0.9960633,-0.5627855,-0.1600171
1.015643,-0.6093113,-0.1981682
0.9817145,-0.595957,-0.2275902
0.8988576,-0.5152073,-0.237143
0.8057304,-0.4447452,-0.2429266
0.7099195,-0.3495967,-0.2054609
0.6739364,-0.3028655,-0.1785341
0.6500412,-0.2813355,-0.1584764
0.6129695,-0.2402637,-0.1234462
0.5715189,-0.2381921,-0.09267126
0.5163748,-0.2165538,-0.07163556
0.4554246,-0.2011235,-0.04843314
0.3996031,-0.1961663,0.007411532
0.4349519,-0.1966874,0.03330297
0.5800111,-0.2593497,0.05410475
0.7869585,-0.3018545,0.1121504
0.9773755,-0.3082616,0.08541174
1.122594,-0.3012832,0.02564163
1.371624,-0.2996156,-0.008793171
1.585569,-0.3362085,-0.04998709
1.560645,-0.3600402,-0.03835122
1.473032,-0.4255764,-0.0757808
1.403545,-0.5993597,-0.1539125
1.367723,-0.8069017,-0.1336921
1.262015,-0.8641147,-0.1306998
0.9092083,-0.7497961,-0.1535463
0.6007211,-0.7195803,-0.1501368
0.5804243,-0.756176,-0.238809
0.7840765,-0.7293103,-0.3737005
1.026466,-0.6952798,-0.4260435
1.036983,-0.6212135,-0.4137589
0.9404475,-0.5469054,-0.3788843
0.898514,-0.52484,-0.3163147
0.8209314,-0.4967066,-0.2473691
0.7738291,-0.4595529,-0.2159891
0.8059994,-0.4213581,-0.2409511
0.8640378,-0.3852404,-0.3146326
0.8808912,-0.3485816,-0.356468
0.8324395,-0.3497173,-0.3310157
0.7516259,-0.3803282,-0.3118986
0.6591022,-0.3743595,-0.3035947
0.6317533,-0.3619228,-0.269661
0.6516334,-0.3010628,-0.2363787
0.6497359,-0.1838451,-0.2381071
0.6488822,-0.09209407,-0.244747
0.6546657,0.002152654,-0.2332887
0.6744626,0.04542897,-0.2269752
0.7286005,0.008016407,-0.1984889
0.8627531,-0.0184517,-0.1590566
1.048396,-0.07337761,-0.1484333
1.172698,-0.1657611,-0.1308904
1.234853,-0.2213901,-0.09424073
1.310957,-0.2647075,-0.08618222
1.443837,-0.2934301,-0.1715721
1.537937,-0.2981415,-0.303156
1.524175,-0.3784423,-0.3736194
1.50325,-0.5656769,-0.427659
1.430055,-0.7273052,-0.4778459
1.207299,-0.7427808,-0.4195964
0.988588,-0.6932729,-0.2963875
0.9336984,-0.6361865,-0.2369431
0.9540307,-0.4871606,-0.2435047
0.9617152,-0.4051823,-0.2591668
1.014842,-0.4725966,-0.2528338
1.037777,-0.4869643,-0.2410274
0.9543374,-0.4900191,-0.2276421
0.8237492,-0.4867268,-0.1780304
0.6742378,-0.3939166,-0.1461353
0.5897281,-0.3044031,-0.1441159
0.5229404,-0.1648461,-0.1169874
0.4265094,-0.05676658,-0.1106962
0.4422451,-0.1093138,-0.1177915
0.4548411,-0.1433591,-0.09453301
0.4259522,-0.1794837,-0.06240157
0.4851162,-0.2705161,-0.028595
0.545375,-0.3001378,-0.01802708
0.6817902,-0.3659608,-0.03304552
0.901317,-0.4906949,-0.03128236
1.076051,-0.5587356,-0.003147141
1.28093,-0.606316,0.02365831
1.403564,-0.6249164,0.02368692
1.414825,-0.607581,-0.0267548
1.485219,-0.6443774,-0.1907342
1.499433,-0.6803982,-0.3641873
1.399549,-0.6565116,-0.3040666
1.229863,-0.6345017,-0.197929
0.9969796,-0.6027553,-0.2814105
0.8982114,-0.5194684,-0.2982241
0.8532082,-0.4191873,-0.2830716
0.7508563,-0.4022903,-0.3608146
0.8690951,-0.464398,-0.315707
0.9660602,-0.4830351,-0.2944534
0.8659189,-0.4741862,-0.3382227
0.8846605,-0.4400131,-0.2958619
0.8479935,-0.3525228,-0.3058538
0.7885158,-0.3160226,-0.3032318
0.8165032,-0.3061857,-0.2767836
0.7356102,-0.2920914,-0.2699958
0.7190841,-0.3374728,-0.1894651
0.6946386,-0.3777543,-0.1581597
0.6247131,-0.3749923,-0.1641781
0.6452745,-0.3098195,-0.149146
0.6024076,-0.1732237,-0.170395
0.6358904,-0.07241734,-0.205712
0.7531011,-0.0446392,-0.2654066
0.8332265,-0.07394645,-0.2664433
0.9684712,-0.1383669,-0.2119856
1.054566,-0.2115228,-0.1909209
1.104981,-0.3088441,-0.1474779
1.187756,-0.3885301,-0.1407167
1.25232,-0.4086302,-0.2251208
1.314302,-0.3543072,-0.3397412
1.350961,-0.2977765,-0.4453954
1.337703,-0.3754428,-0.4982721
1.244716,-0.50647,-0.499911
1.112708,-0.6053732,-0.4328098
1.053549,-0.6718297,-0.3266976
1.059191,-0.6210835,-0.2847256
1.06211,-0.5184,-0.2727977
1.053923,-0.4256298,-0.2404651
1.077877,-0.3387844,-0.2138441
1.10138,-0.3487561,-0.2085721
1.063934,-0.3724905,-0.2221426
0.9666655,-0.3567234,-0.2260363
0.8086779,-0.3669685,-0.2109139
0.6307964,-0.3327655,-0.1640382
0.4875693,-0.2874963,-0.1000481
0.4320611,-0.2682502,-0.08610281
0.4420905,-0.2266043,-0.0965436
0.4266516,-0.2080884,-0.08755728
0.4374112,-0.195356,-0.08673431
0.4588926,-0.201774,-0.07300584
0.4463125,-0.2526792,-0.04002133
0.5112511,-0.2736847,-0.03194208
0.6331409,-0.3128291,-0.01918736
0.7841687,-0.3997731,0.01220637
0.9846562,-0.4688928,0.03519689
1.199779,-0.501477,0.05514918
1.435902,-0.4694578,0.0195597
1.569352,-0.4471487,-0.08443753
1.563927,-0.5507745,-0.1653095
1.549892,-0.7376122,-0.1910068
1.480905,-0.8424963,-0.2028264
1.274376,-0.7023991,-0.217948
0.9792764,-0.4997112,-0.2206516
0.7933567,-0.4799283,-0.2538203
0.8065528,-0.4659243,-0.3118645
0.8425088,-0.4488348,-0.3124762
0.8821078,-0.5287932,-0.2774376
0.9514018,-0.5180681,-0.2474828
0.9342399,-0.4376143,-0.268029
0.91412,-0.3409862,-0.3137168
0.9422216,-0.2535678,-0.2932049
0.9152705,-0.2979959,-0.2786885
0.8795153,-0.3206526,-0.2651766
0.8412422,-0.3206291,-0.2223466
0.7765883,-0.402306,-0.2207643
0.7300485,-0.4182299,-0.2025984
0.6566003,-0.3903058,-0.1775238
0.605051,-0.3429493,-0.1759445
0.6180359,-0.2138876,-0.1706473
0.588726,-0.07305491,-0.1949632
0.5430802,0.0001184487,-0.2046018
0.5511712,-0.006586037,-0.2030354
0.6054763,-0.008933062,-0.2195705
0.7286337,-0.01813286,-0.2258415
0.9139806,-0.07520374,-0.2456952
1.123239,-0.115776,-0.253723
1.31437,-0.1626822,-0.2477809
1.415775,-0.2275147,-0.250825
1.425618,-0.3058412,-0.2462744
1.425193,-0.3751223,-0.2771143
1.437504,-0.3857063,-0.3142328
1.429307,-0.4549181,-0.3189663
1.379958,-0.5940368,-0.3815474
1.276544,-0.6744889,-0.4585796
1.131423,-0.7240767,-0.4039494
1.007752,-0.7477479,-0.3141224
0.9402313,-0.6907609,-0.2923054
0.861683,-0.5930409,-0.2289732
0.8020668,-0.5442409,-0.1788729
0.8580494,-0.5624008,-0.1990468
0.9140514,-0.5593957,-0.1763948
0.9056144,-0.5350596,-0.1833103
0.8960266,-0.547304,-0.2344751
0.8477581,-0.5459613,-0.2392159
0.8026748,-0.5203558,-0.2365287
0.7835359,-0.4872934,-0.2186542
0.7265501,-0.3819523,-0.2027485
0.6701278,-0.222398,-0.1892375
0.6343965,-0.1436525,-0.1533605
0.6201599,-0.1570971,-0.1346185
0.6019933,-0.1530617,-0.08868949
0.5636005,-0.1457826,-0.04810676
0.54678,-0.1599941,-0.04293841
0.5272533,-0.1650822,-0.02711285
0.5558931,-0.2191087,-0.03904603
0.6690341,-0.3160919,-0.03009606
0.8278042,-0.4045332,0.007605323
1.013261,-0.4564969,0.03228901
1.131535,-0.4370055,0.07204776
1.24864,-0.4131425,0.05411161
1.420147,-0.4191538,-0.06440307
1.494708,-0.508245,-0.2128563
1.48676,-0.7609628,-0.2516187
1.455547,-0.9253385,-0.2018798
1.314861,-0.7664462,-0.2369629
1.038064,-0.5553031,-0.2628807
0.8365125,-0.5509317,-0.2816887
0.8662907,-0.603517,-0.3864126
0.9343483,-0.6465227,-0.3988466
0.931141,-0.698112,-0.3607304
0.8912002,-0.6172407,-0.3682853
0.8146892,-0.474484,-0.3457667
0.8170846,-0.3708113,-0.3579089
0.8884094,-0.2834748,-0.3880656
0.9143563,-0.2910681,-0.3717731
0.9056626,-0.350665,-0.3384617
0.8667207,-0.3981311,-0.2766893
0.7941009,-0.4398479,-0.2101967
0.6794646,-0.429593,-0.1635381
0.5768573,-0.3560333,-0.1376425
0.5622382,-0.2137742,-0.1406614
0.5594169,-0.08995361,-0.1405182
0.5501302,-0.04951276,-0.1457
0.5586124,-0.01794705,-0.1678166
0.5773542,-0.01664652,-0.1751902
0.6779156,-0.06253949,-0.1976726
0.8413052,-0.118988,-0.2372198
1.018707,-0.1978026,-0.238864
1.207395,-0.2576143,-0.2286072
1.356348,-0.2769522,-0.2388261
1.424245,-0.2817767,-0.2704967
1.416458,-0.2670354,-0.3499736
1.411366,-0.2974248,-0.4256439
1.420131,-0.4877045,-0.4281737
1.386121,-0.7251947,-0.4299043
1.287943,-0.7547492,-0.4367244
1.112251,-0.7009586,-0.3425062
1.010074,-0.7330115,-0.2452012
1.051454,-0.6401221,-0.2486591
1.07212,-0.4895839,-0.2331685
1.084575,-0.4521833,-0.1864455
1.130778,-0.4107839,-0.1881431
1.091603,-0.4048863,-0.1862754
0.9246546,-0.3834226,-0.1670251
0.6763146,-0.2780861,-0.1777627
0.4751159,-0.2146054,-0.1736725
0.3931611,-0.151655,-0.1359287
0.3498447,-0.1316221,-0.1038
0.3657764,-0.193978,-0.0784962
0.4220697,-0.2359823,-0.07967105
0.436422,-0.2687835,-0.08927181
0.4813972,-0.2733082,-0.08103777
0.5465284,-0.2880103,-0.07400413
0.6584282,-0.3565974,-0.03709766
0.8643919,-0.419803,0.008175762
1.009787,-0.485209,0.02347422
1.088586,-0.5174434,0.02989152
1.206397,-0.5002982,0.02869077
1.419822,-0.4861337,0.006482282
1.592181,-0.454695,-0.1034398
1.541269,-0.4536624,-0.2312009
1.509372,-0.6431142,-0.2083277
1.517963,-0.882805,-0.1719325
1.36928,-0.8066767,-0.2215954
1.172106,-0.5405792,-0.2026704
0.933907,-0.3783814,-0.1858127
0.8128808,-0.3254856,-0.2389327
0.8457603,-0.3888615,-0.2512795
0.7816359,-0.4297594,-0.2667975
0.8275661,-0.4468819,-0.2747942
0.9363021,-0.5197402,-0.2716685
0.8607077,-0.4274648,-0.3195052
0.8335581,-0.2983673,-0.3237755
0.8350321,-0.2547649,-0.3215393
0.8081074,-0.1977029,-0.3331569
0.8414512,-0.2538077,-0.2867325
0.7950016,-0.3202716,-0.2480487
0.7167512,-0.3745158,-0.1987764
0.6564581,-0.4445077,-0.1573108
0.5703829,-0.365067,-0.1613918
0.5393775,-0.2665386,-0.1582803
0.5298889,-0.1619575,-0.1799392
0.5580011,-0.0465228,-0.2014239
0.6468335,-0.03957504,-0.1981225
0.737986,-0.02065205,-0.2073848
0.8733755,-0.01893288,-0.2426552
1.021275,-0.07180332,-0.3101699
1.131428,-0.1255475,-0.3194725
1.188661,-0.1973123,-0.2310426
1.188494,-0.2074581,-0.1444331
1.218784,-0.2205914,-0.1450759
1.303978,-0.2849681,-0.2405793
1.479565,-0.2931897,-0.3812551
1.692183,-0.2844933,-0.4916375
1.665321,-0.3140213,-0.4718557
1.399155,-0.423242,-0.4021053
1.162543,-0.5778727,-0.4005883
1.042234,-0.5915915,-0.359494
0.9697856,-0.4843081,-0.2939039
0.9275828,-0.3940452,-0.2641396
0.9945082,-0.3169491,-0.2231045
1.096984,-0.2820822,-0.2210971
1.115793,-0.2929243,-0.243874
1.114507,-0.2904768,-0.2591601
1.01165,-0.3225504,-0.2583077
0.7865557,-0.3802893,-0.2155088
0.6194195,-0.3883785,-0.1746555
0.5040227,-0.3593409,-0.1222363
0.4448393,-0.2967769,-0.09401827
0.4555034,-0.2106494,-0.1046194
0.4710141,-0.1414326,-0.08357511
0.4937079,-0.1240753,-0.07418344
0.487256,-0.1611768,-0.05532119
0.4928075,-0.2117467,-0.0168805
0.579516,-0.2852945,-0.002112757
0.7360628,-0.3614799,0.02121795
0.9600311,-0.4077904,0.0181384
1.211038,-0.4495679,-0.004687641
1.466696,-0.4534476,-0.03036137
1.621683,-0.4580327,-0.1165209
1.59552,-0.5693185,-0.2282047
1.545723,-0.7391271,-0.2763488
1.473109,-0.8015871,-0.2616062
1.281453,-0.6785205,-0.263988
1.075309,-0.4892503,-0.268686
0.8882606,-0.3587632,-0.2633999
0.8135726,-0.3435019,-0.2905359
0.9011766,-0.4110885,-0.293209
0.895833,-0.4205958,-0.2788386
0.8615039,-0.4133745,-0.2748378
0.9143023,-0.428121,-0.2694957
0.8871696,-0.3924583,-0.2862083
0.8959681,-0.3834543,-0.2885186
0.9200386,-0.369537,-0.2853766
0.8471132,-0.3204217,-0.2765006
0.7941823,-0.3094558,-0.2351244
0.7024744,-0.2913121,-0.2137516
0.6133212,-0.293964,-0.2078455
0.5726949,-0.3021014,-0.199034
0.5410284,-0.2703454,-0.1876484
0.587904,-0.2289535,-0.1860696
0.6165623,-0.145212,-0.202313
0.6377281,-0.1114071,-0.1999363
0.7445113,-0.1289784,-0.2108075
0.8755689,-0.09039277,-0.2271043
0.9552174,-0.09368374,-0.2146255
0.9864578,-0.1325121,-0.2053653
1.125287,-0.1468321,-0.1844993
1.233846,-0.1863361,-0.1702541
1.215535,-0.223945,-0.1987348
1.339975,-0.268881,-0.2735455
1.421726,-0.3104559,-0.3609864
1.324104,-0.3276304,-0.3876534
1.286715,-0.4178194,-0.4259005
1.215038,-0.5132769,-0.4862993
1.100277,-0.5483278,-0.4356958
1.095201,-0.6129238,-0.3656267
1.10572,-0.6172508,-0.3400987
1.069172,-0.5337249,-0.281338
1.021196,-0.4533081,-0.2500585
1.004937,-0.3753369,-0.2384545
1.051796,-0.3590457,-0.2262454
1.099456,-0.3741011,-0.2430007
1.077527,-0.3876753,-0.226774
0.9895476,-0.4347206,-0.2132359
0.8279906,-0.404466,-0.1981877
0.6147198,-0.3088586,-0.146576
0.4986321,-0.2354797,-0.1244692
