accx,accy,accz
1.057678,-0.4020737,-0.4780524
1.050964,-0.3227481,-0.4273327
0.9793615,-0.2175198,-0.3111477
0.908991,-0.2277651,-0.2433698
0.8546105,-0.2516679,-0.2513326
0.8435396,-0.2250744,-0.252758
0.8122343,-0.2612605,-0.2379204
0.7334457,-0.3055406,-0.1946498
0.6327085,-0.3024963,-0.1438251
0.5511399,-0.2886875,-0.1290059
0.5513785,-0.2383733,-0.130749
0.5677699,-0.1873799,-0.1275397
0.6193369,-0.1790387,-0.1411974
0.6841081,-0.2184279,-0.1510696
0.6848618,-0.3111629,-0.1071234
0.7508347,-0.3917122,-0.05905952
0.8588831,-0.4104838,-0.05765894
0.9359928,-0.3871731,-0.08087656
0.9649798,-0.3850665,-0.09369062
0.9436499,-0.4144948,-0.07617453
1.034823,-0.4224573,-0.05807287
1.226704,-0.4257653,-0.05814792
1.371345,-0.4417588,-0.1096454
1.395436,-0.5352457,-0.227634
1.390009,-0.7403327,-0.3035383
1.408722,-0.825188,-0.2802553
1.224308,-0.6393203,-0.2577311
0.9323408,-0.4075851,-0.2944535
0.7924586,-0.3501012,-0.2992485
0.7715422,-0.3358149,-0.2689036
0.7745466,-0.2584564,-0.2652534
0.8029739,-0.2802092,-0.2256399
0.9609592,-0.369061,-0.1898997
1.002798,-0.3720256,-0.1890871
0.8485391,-0.3274017,-0.1570411
0.7876092,-0.2604636,-0.1677007
0.6842748,-0.1871919,-0.2008677
0.5869054,-0.1338794,-0.2029206
0.6033371,-0.10959,-0.2447243
0.6258273,-0.1790245,-0.2741129
0.7559693,-0.2644788,-0.2624576
0.8425406,-0.2592522,-0.2676822
0.851541,-0.2384319,-0.2871727
0.8958168,-0.2338952,-0.3022885
0.9499466,-0.2350116,-0.2854451
1.062247,-0.241401,-0.2567125
1.061859,-0.2153701,-0.2495839
1.010586,-0.1463511,-0.2541018
1.037785,-0.07094107,-0.2609793
1.00951,-0.09204465,-0.2577969
1.029461,-0.1812145,-0.2612949
1.087861,-0.243341,-0.2835947
1.14812,-0.3571985,-0.3301323
1.258206,-0.4889598,-0.4199314
1.328429,-0.507924,-0.5260589
1.382544,-0.4110371,-0.6013649
1.348248,-0.3184071,-0.5927284
1.164279,-0.3626995,-0.5222007
0.963025,-0.4082387,-0.4701069
0.8818304,-0.3736442,-0.4266134
0.9678131,-0.3619126,-0.4010747
1.018494,-0.3227018,-0.4084312
0.9967991,-0.3172931,-0.3948512
0.9922052,-0.3668028,-0.3368855
0.9065282,-0.3517234,-0.2375981
0.8610538,-0.3386694,-0.1925623
0.8740808,-0.3163335,-0.2431425
0.8130167,-0.2873977,-0.2510718
0.7602679,-0.3115613,-0.1973203
0.6886136,-0.2945915,-0.1388182
0.6381059,-0.2492337,-0.09756835
0.6631979,-0.1931538,-0.1282936
0.6613508,-0.1465931,-0.1693092
0.6736668,-0.1884768,-0.156001
0.688548,-0.2527854,-0.1283336
0.7065686,-0.3381605,-0.09361714
0.7724788,-0.4173448,-0.0845909
0.8028365,-0.4083085,-0.09937263
0.8153583,-0.3997049,-0.08047227
0.849812,-0.3898358,-0.05923248
0.9258654,-0.3512355,-0.04957292
1.04028,-0.3421303,-0.05888955
1.107816,-0.3243814,-0.1122566
1.213719,-0.3351112,-0.1763015
1.466957,-0.4870801,-0.246109
1.639648,-0.6711578,-0.2611937
1.475995,-0.6570624,-0.2161603
1.219711,-0.5419546,-0.2096643
1.144149,-0.5326356,-0.2033874
1.053516,-0.4965973,-0.21653
0.8903789,-0.3986515,-0.271979
0.8382406,-0.3650478,-0.2936947
0.8905579,-0.3675053,-0.2807865
0.9188127,-0.3764895,-0.2327278
0.8933529,-0.3614744,-0.2262401
0.8646124,-0.3501746,-0.2359159
0.7779181,-0.3457211,-0.185091
0.7020758,-0.3108526,-0.1901977
0.6953031,-0.3161099,-0.2087261
0.6294008,-0.3027793,-0.2086007
0.6048874,-0.2684107,-0.2433888
0.6420714,-0.2606535,-0.2805447
0.6840418,-0.2140455,-0.3395414
0.7833119,-0.2015076,-0.3286256
0.8068999,-0.1880508,-0.2604212
0.8160177,-0.1151614,-0.2476525
0.9231571,-0.09593787,-0.2428472
1.006458,-0.1287566,-0.2473934
1.021233,-0.1658133,-0.2365933
0.9719242,-0.183136,-0.2275203
0.9427954,-0.1890398,-0.2529631
0.9675172,-0.2164116,-0.2369108
0.9719221,-0.2378507,-0.2148609
0.9805869,-0.2056736,-0.2029296
1.014735,-0.1140916,-0.2217427
1.066836,-0.06588339,-0.2699988
1.110847,-0.1190944,-0.2379005
1.131413,-0.220504,-0.2104018
1.152814,-0.3394126,-0.2478302
1.210416,-0.442754,-0.3482592
1.395831,-0.4599902,-0.5523937
1.560614,-0.352253,-0.6405585
1.420027,-0.261536,-0.5606914
1.154609,-0.3116285,-0.5498392
1.016862,-0.3615835,-0.5566107
0.9530019,-0.3367792,-0.4678087
0.9915209,-0.3147827,-0.3726269
1.036119,-0.2854917,-0.3028592
0.9662537,-0.2689259,-0.2439294
0.935389,-0.2951492,-0.2148252
0.8923007,-0.2846536,-0.2076415
0.8263651,-0.240268,-0.2059762
0.8381153,-0.1880593,-0.1972922
0.8024245,-0.1424032,-0.1919828
0.7520559,-0.1845209,-0.1909663
0.7022438,-0.2523517,-0.1578027
0.6583727,-0.2950897,-0.1248577
0.7024565,-0.3488438,-0.1345913
0.6903996,-0.3789793,-0.1427254
0.6742519,-0.3798173,-0.125574
0.7075445,-0.3242976,-0.1070224
0.6951821,-0.2704277,-0.09463715
0.744353,-0.280581,-0.1068535
0.8047727,-0.2823196,-0.135342
0.8038308,-0.3265011,-0.1215769
0.7950042,-0.3950021,-0.09953198
0.7822579,-0.3952065,-0.09194861
0.8174706,-0.3914111,-0.05122761
0.8618712,-0.4100327,-0.03460775
0.8986469,-0.4111705,-0.04654742
0.9759608,-0.3648556,-0.04353656
1.060193,-0.2818183,-0.06736532
1.160312,-0.2090292,-0.1197113
1.304712,-0.2304628,-0.1961455
1.498984,-0.4232447,-0.2491639
1.627687,-0.6686673,-0.2318994
1.531162,-0.7415788,-0.2208937
1.280059,-0.6416106,-0.219551
1.027244,-0.6142877,-0.1835394
0.8833372,-0.6657951,-0.169739
0.8522021,-0.6292798,-0.2353519
0.8176423,-0.5708166,-0.3485809
0.8183563,-0.48407,-0.3977382
0.8484879,-0.3700966,-0.3396622
0.8082649,-0.3098246,-0.2683428
0.7958811,-0.267351,-0.2386021
0.7852573,-0.3014883,-0.2281315
0.7365769,-0.3510195,-0.2367421
0.7347016,-0.3470032,-0.2425972
0.7035606,-0.3607791,-0.2338253
0.6886577,-0.3220238,-0.2434924
0.7072914,-0.2837739,-0.2562738
0.6781847,-0.2709617,-0.2728052
0.679737,-0.2138789,-0.3001649
0.7003916,-0.1912079,-0.3012973
0.7726222,-0.1734452,-0.2895978
0.9028287,-0.1543526,-0.2522856
0.9482647,-0.1668269,-0.1849064
0.9349695,-0.157384,-0.160588
0.9476752,-0.119221,-0.1509796
0.9805941,-0.03980184,-0.1329292
0.9896251,0.02385779,-0.1924316
1.01345,0.01395174,-0.2623035
1.045604,-0.08309165,-0.2250255
1.010719,-0.237878,-0.1742739
0.9919258,-0.2973659,-0.170004
1.00061,-0.2946904,-0.1703347
1.092917,-0.3281233,-0.2110185
1.312692,-0.3218342,-0.2829588
1.398906,-0.3070438,-0.3411559
1.368319,-0.309114,-0.393436
1.45294,-0.2520806,-0.5114855
1.526583,-0.2003145,-0.666069
1.34647,-0.2478499,-0.6096747
1.017513,-0.3560809,-0.4935572
0.8941046,-0.4384242,-0.5774359
0.9791831,-0.4649803,-0.5749509
1.026827,-0.4712799,-0.5136765
1.029177,-0.4112352,-0.5276137
1.03217,-0.2607218,-0.4038928
0.9807816,-0.1921405,-0.3132733
0.9184902,-0.2151463,-0.3202124
0.9291435,-0.2097313,-0.2708083
0.9179249,-0.239418,-0.2517795
0.8355161,-0.2716,-0.2369418
0.750967,-0.2621955,-0.2284145
0.672074,-0.2615934,-0.2214991
0.6574384,-0.2290487,-0.181794
0.6877909,-0.2159404,-0.1948323
0.6943944,-0.2288851,-0.2034395
0.7139005,-0.2244308,-0.1930694
0.7092737,-0.2637344,-0.1772347
0.6945483,-0.3001123,-0.1404166
0.7400069,-0.3238866,-0.1572727
0.8151522,-0.3624572,-0.169164
0.8815292,-0.3737202,-0.1437871
0.8948829,-0.3730454,-0.1252374
0.9016749,-0.3689374,-0.08780567
0.998303,-0.3723744,-0.05661904
1.127468,-0.3558564,-0.0560956
1.233575,-0.2895867,-0.09842347
1.339271,-0.2577237,-0.2079283
1.439557,-0.3664097,-0.3035657
1.465352,-0.599761,-0.2852254
1.296247,-0.7349944,-0.2513366
1.027787,-0.6805515,-0.2797376
0.8946371,-0.5669483,-0.2551685
0.8680704,-0.4199346,-0.2241174
0.8517434,-0.2761711,-0.2599861
0.848435,-0.2058201,-0.2648474
0.8456096,-0.2004231,-0.250642
0.8666175,-0.2640792,-0.216847
0.8843937,-0.3484347,-0.1489661
0.8629799,-0.3663274,-0.1371494
0.8240133,-0.3349896,-0.1738123
0.7336642,-0.2867375,-0.2255073
0.6433802,-0.1951684,-0.2795092
0.6552105,-0.1261455,-0.3065965
0.728434,-0.1458634,-0.3206585
0.7837897,-0.1904952,-0.317991
0.7837599,-0.2356627,-0.2845146
0.7749399,-0.2643805,-0.2404064
0.8402973,-0.2480632,-0.2371115
0.945954,-0.2384265,-0.2582022
1.007999,-0.218698,-0.2519945
0.9929838,-0.1541923,-0.2548307
0.9548784,-0.1029954,-0.2477528
0.9626664,-0.09680427,-0.2257671
0.987146,-0.1415748,-0.2503725
1.040356,-0.2268317,-0.2627883
1.13747,-0.3237223,-0.2302069
1.221801,-0.3954075,-0.2274972
1.293727,-0.402914,-0.3011267
1.314567,-0.376856,-0.4088668
1.280061,-0.3103925,-0.5047972
1.248395,-0.2271579,-0.6057706
1.174882,-0.2831021,-0.5977334
1.048675,-0.4624608,-0.4741925
0.9421526,-0.5714322,-0.4370433
0.9763553,-0.4948932,-0.4110602
1.068359,-0.3702294,-0.3506655
1.012107,-0.3616467,-0.344417
0.9811092,-0.2949683,-0.3017275
0.9981261,-0.2117833,-0.2866554
0.9083182,-0.2780124,-0.2905828
0.8603195,-0.2626158,-0.2147877
0.789706,-0.2369687,-0.1974337
0.6857862,-0.3109027,-0.2099613
0.6836444,-0.3208917,-0.1962817
0.6615239,-0.3586183,-0.1978907
0.6619716,-0.3561489,-0.1705882
0.6903128,-0.2994614,-0.1552253
0.7001814,-0.3155913,-0.1415435
0.7633532,-0.2888741,-0.1154446
0.7758292,-0.3002522,-0.1295444
0.7873259,-0.3371858,-0.139192
0.8478818,-0.328513,-0.1290869
0.8697439,-0.3939463,-0.1121285
0.8924004,-0.4186775,-0.08655418
0.8604077,-0.3712344,-0.07971673
0.8007138,-0.3304232,-0.09311034
0.8114316,-0.2977556,-0.08750804
0.8499602,-0.298863,-0.03398837
0.8995269,-0.284681,0.02332324
0.9331259,-0.2804284,0.02167441
0.9847698,-0.296445,-0.02225795
1.075617,-0.3050497,-0.05107712
1.158819,-0.3728882,-0.07922587
1.352134,-0.5072927,-0.1216706
1.664516,-0.6356347,-0.1421927
1.792962,-0.6334629,-0.1632914
1.499693,-0.5370392,-0.1742606
1.042554,-0.500977,-0.1681807
0.8688458,-0.4959388,-0.1995707
0.8639374,-0.4674654,-0.2199329
0.8296181,-0.4157889,-0.227234
0.8723453,-0.3902333,-0.2699507
0.887056,-0.4272396,-0.2841912
0.8694103,-0.4492726,-0.2583395
0.8709577,-0.4558453,-0.2150011
0.8084638,-0.4424479,-0.1695555
0.8074629,-0.3786558,-0.1909929
0.8178262,-0.3182339,-0.2508347
0.7667189,-0.2524859,-0.2846483
0.7514605,-0.2027164,-0.3050639
0.7227707,-0.2002396,-0.2985609
0.7142208,-0.2114349,-0.2755265
0.7148333,-0.2437509,-0.2587229
0.7218592,-0.2704768,-0.2370259
0.8050978,-0.2826796,-0.2421073
0.85258,-0.2820418,-0.2473445
0.8641658,-0.230696,-0.2288193
0.8600167,-0.1606197,-0.242802
0.8411903,-0.1134461,-0.2602744
0.9011419,-0.1075861,-0.2737801
0.9634851,-0.1230563,-0.2962186
0.9765292,-0.1316308,-0.2731116
0.973456,-0.1504802,-0.2430569
0.9762147,-0.1574599,-0.2287609
1.004086,-0.163364,-0.2021003
1.00064,-0.2031085,-0.1990387
1.024982,-0.2710226,-0.1946035
1.124421,-0.3449719,-0.1752946
1.258706,-0.3353757,-0.2486885
1.463355,-0.2552284,-0.4398004
1.618986,-0.2306379,-0.5717672
1.583699,-0.2842604,-0.5189615
1.389423,-0.3673994,-0.4653932
1.102155,-0.3994846,-0.5385623
0.9374658,-0.386504,-0.572561
1.008524,-0.3917264,-0.5664727
1.073,-0.3392925,-0.5455199
1.044176,-0.235864,-0.4040356
0.975694,-0.2023638,-0.2799834
0.8267489,-0.2289796,-0.2261052
0.7819688,-0.2656153,-0.1888008
0.8471362,-0.3049404,-0.2191986
0.7934999,-0.3231765,-0.2342314
0.7348909,-0.2997213,-0.2493542
0.7043512,-0.2762115,-0.2735696
0.648559,-0.267761,-0.2297264
0.6611358,-0.2524788,-0.197427
0.6974576,-0.2738705,-0.1643813
0.7472347,-0.3001435,-0.1194162
0.7624953,-0.2866154,-0.1255468
0.7514037,-0.2788344,-0.1485546
0.8189248,-0.2699373,-0.1525426
0.8287671,-0.2692787,-0.1439346
0.814249,-0.283535,-0.1339485
0.8557533,-0.3004912,-0.1057968
0.8398083,-0.3523037,-0.1006811
0.8365877,-0.3940175,-0.1137488
0.8567784,-0.3865316,-0.07975284
0.8682315,-0.3624123,-0.04489229
0.9299829,-0.3282018,-0.02575967
0.9828117,-0.2920039,-0.03764238
1.025195,-0.2676457,-0.06207446
1.135654,-0.2675462,-0.05259521
1.287291,-0.3417672,-0.09531686
1.384647,-0.5555911,-0.1571657
1.481869,-0.8202,-0.1557229
1.557735,-0.859932,-0.1499044
1.282428,-0.6179478,-0.1709463
0.8485052,-0.3998824,-0.199946
0.7586361,-0.3532827,-0.221503
0.7675457,-0.3212787,-0.2698829
0.7505304,-0.3017692,-0.3274571
0.9312134,-0.3675605,-0.3178075
1.016448,-0.3994882,-0.2759262
0.948972,-0.3897058,-0.2212847
0.9090929,-0.3884531,-0.1630542
0.7889729,-0.3310074,-0.180732
0.7359806,-0.2671252,-0.2161746
0.7528392,-0.2387253,-0.2046194
0.6798297,-0.2280767,-0.2224945
0.6438227,-0.2363277,-0.2447185
0.6516828,-0.2243688,-0.2406461
0.7069466,-0.2220209,-0.2576386
0.7949253,-0.2107988,-0.2571466
0.8149507,-0.1637083,-0.241478
0.8257455,-0.1358215,-0.2324976
0.8444914,-0.1056174,-0.2235269
0.8816961,-0.08929304,-0.2476377
0.964121,-0.09042971,-0.274843
1.039014,-0.1135174,-0.2789611
1.066177,-0.1957662,-0.244597
1.056444,-0.2339034,-0.1842512
1.079302,-0.224038,-0.1827898
1.1501,-0.2457421,-0.2093212
1.247696,-0.2760133,-0.2384934
1.359161,-0.2928782,-0.3340503
1.476723,-0.2656366,-0.46146
1.537398,-0.237752,-0.5233653
1.337424,-0.2886533,-0.5041123
0.9879608,-0.3888543,-0.5012672
0.8947832,-0.4680452,-0.526929
1.008994,-0.4670006,-0.5125418
1.066451,-0.4046058,-0.4920376
1.081261,-0.3479819,-0.4578451
1.014086,-0.261461,-0.3378532
0.8651064,-0.1494932,-0.1921984
0.8465837,-0.1591898,-0.1783261
0.9085116,-0.2509706,-0.2389168
0.90606,-0.2849057,-0.2103055
0.9077452,-0.3171556,-0.2056255
0.8740172,-0.3366693,-0.2319977
0.7610591,-0.3276297,-0.1774503
0.6850906,-0.3466466,-0.1671131
0.7042825,-0.3195703,-0.17813
0.7322637,-0.284679,-0.1533955
0.6987941,-0.28231,-0.1522964
0.6860794,-0.2577338,-0.1388401
0.6848226,-0.2561998,-0.1337108
0.6670816,-0.249969,-0.1211993
0.7224111,-0.2599676,-0.1081604
0.7948126,-0.3195946,-0.1208057
0.8663546,-0.371891,-0.09130698
0.9263745,-0.4321488,-0.06941193
0.9131467,-0.4384863,-0.06060387
0.9521651,-0.41754,-0.04209923
1.079422,-0.4242724,-0.03068832
1.235221,-0.37031,-0.02323412
1.345048,-0.3390288,-0.1236569
1.3849,-0.4139726,-0.2535497
1.421246,-0.5627379,-0.2569482
1.272373,-0.6761516,-0.2322595
1.020725,-0.6057897,-0.2497053
0.959093,-0.4762315,-0.2556175
0.9029127,-0.4032808,-0.2529464
0.848992,-0.3307512,-0.2819304
0.9261293,-0.3131011,-0.2934736
0.9384786,-0.3359425,-0.2736985
0.9042219,-0.3360726,-0.2550786
0.8928885,-0.3519451,-0.1956992
0.8348268,-0.3489761,-0.1549666
0.7901526,-0.3091261,-0.1793084
0.7451073,-0.2576759,-0.2040711
0.6757508,-0.1736137,-0.2314763
0.6695318,-0.1144202,-0.2538705
0.7145602,-0.1103769,-0.2522763
0.760008,-0.1318986,-0.2459174
0.7864723,-0.1812512,-0.2333524
0.8135253,-0.2241559,-0.2218315
0.888181,-0.2475921,-0.2380772
0.963466,-0.2571863,-0.2561368
0.9838451,-0.2548006,-0.2307376
0.9538752,-0.2402006,-0.2104219
0.9342284,-0.2055142,-0.2256158
0.9994147,-0.1827945,-0.234748
1.057975,-0.163582,-0.2417259
1.037638,-0.1736146,-0.2562554
1.052442,-0.2261231,-0.2760004
1.113933,-0.2366103,-0.2941979
1.170244,-0.2812848,-0.2957462
1.265081,-0.4053979,-0.3184439
1.321566,-0.4480835,-0.3897728
1.298536,-0.3733512,-0.5147599
1.316958,-0.3184881,-0.6312999
1.2561,-0.3599008,-0.546919
1.039367,-0.3929219,-0.3881298
0.9291934,-0.3736687,-0.4405851
0.9768017,-0.3649984,-0.4945161
1.03338,-0.3251412,-0.4577626
1.039716,-0.2882599,-0.4570974
0.9674096,-0.2962035,-0.3413146
0.8758188,-0.2976737,-0.231174
0.8488859,-0.3101245,-0.240485
0.8598549,-0.3043754,-0.2119419
0.8503609,-0.2899869,-0.2137956
0.8520047,-0.3123454,-0.224783
0.8366651,-0.3160278,-0.1977507
0.7625451,-0.310884,-0.2008246
0.7182565,-0.3076355,-0.1979156
0.7002591,-0.2970745,-0.1990541
0.7299861,-0.3101031,-0.1880783
0.8006854,-0.3346036,-0.1620367
0.7983749,-0.3652495,-0.1532366
0.7987209,-0.3740903,-0.1435778
0.797086,-0.3493168,-0.1531448
0.7657405,-0.3394956,-0.1627069
0.8073391,-0.3474105,-0.1604086
0.850266,-0.3724894,-0.1360387
0.8527642,-0.3996804,-0.08672273
0.8542975,-0.3907125,-0.07802143
0.8674652,-0.372292,-0.07839281
0.9304742,-0.3691955,-0.05328513
1.012881,-0.3603224,-0.03085756
1.113566,-0.3390536,-0.01573536
1.240277,-0.3244966,-0.05068334
1.332491,-0.3840988,-0.1503496
1.399119,-0.5893321,-0.2597124
1.445332,-0.7717797,-0.2904853
1.405535,-0.6864444,-0.2256795
1.247473,-0.5225055,-0.1925435
0.9697307,-0.4599512,-0.2219966
0.7515989,-0.3175208,-0.2463042
0.8126947,-0.2484996,-0.2728509
0.9162348,-0.3706631,-0.2765926
0.897315,-0.3977979,-0.2530695
0.9173215,-0.3849283,-0.2410486
0.8637325,-0.3780899,-0.2148556
0.7784568,-0.3083892,-0.1870998
0.8001375,-0.3196145,-0.1903029
0.767175,-0.3111667,-0.2060125
0.7397202,-0.2685046,-0.2161923
0.7613582,-0.2804052,-0.2213088
0.7579682,-0.2554854,-0.2281394
0.7733275,-0.2556172,-0.2218745
0.7433534,-0.250278,-0.2092784
0.7121536,-0.1904,-0.2191448
0.7699437,-0.1631003,-0.2595389
0.8694951,-0.1593627,-0.2945275
0.9495826,-0.188911,-0.2474388
0.9390561,-0.2180361,-0.1783256
0.9229153,-0.2004011,-0.1981322
0.9853314,-0.1497373,-0.2407083
1.025515,-0.0951298,-0.2551488
1.013509,-0.1175214,-0.2489595
1.012738,-0.1727294,-0.1972367
1.039902,-0.1863617,-0.1561303
1.069431,-0.1911692,-0.1613991
1.111753,-0.2088853,-0.1760452
1.193113,-0.2623135,-0.1934507
1.239553,-0.2969398,-0.2324676
1.263463,-0.271169,-0.3706011
1.474147,-0.2695723,-0.5989508
1.693496,-0.2995265,-0.6771865
1.457984,-0.3652275,-0.5095765
1.05442,-0.4528767,-0.3953346
0.9677555,-0.4254238,-0.4625373
0.9938749,-0.349934,-0.4743875
1.051738,-0.3076226,-0.4290456
1.144975,-0.1910046,-0.4071873
1.014494,-0.1312345,-0.304088
0.8362237,-0.2003428,-0.2005469
0.8167919,-0.2219644,-0.1921037
0.8313609,-0.2429386,-0.2134417
0.837805,-0.2954891,-0.2280031
0.8008916,-0.2981879,-0.20729
0.757619,-0.3033029,-0.1866365
0.7212848,-0.3108151,-0.194232
0.6587844,-0.3071567,-0.1796009
0.6619918,-0.3124406,-0.1681036
0.7178831,-0.3060194,-0.1736382
0.769218,-0.3054325,-0.1619236
0.7692398,-0.3078562,-0.1498133
0.7313041,-0.3082434,-0.144899
0.7466979,-0.3251612,-0.1439227
0.7741816,-0.3569661,-0.136117
0.823432,-0.4022866,-0.1139677
0.8763165,-0.4209964,-0.1097394
0.8603185,-0.3989172,-0.1152746
0.861184,-0.3786913,-0.1034169
0.8849092,-0.3651573,-0.08291936
0.9463622,-0.3519629,-0.06543919
1.065744,-0.3486831,-0.06529786
1.127236,-0.3521849,-0.08676883
1.224342,-0.381556,-0.1601399
1.428091,-0.4971829,-0.2872716
1.478863,-0.6483585,-0.3387529
1.308112,-0.6603072,-0.2862736
1.128007,-0.5548976,-0.2523921
0.9831186,-0.4725601,-0.2352508
0.889797,-0.4025655,-0.2318947
0.9060097,-0.3815065,-0.2830351
0.9152018,-0.4192952,-0.3216799
0.9096934,-0.4390208,-0.3383988
0.9422644,-0.4784364,-0.323401
0.912639,-0.4574979,-0.2688995
0.8471034,-0.3767103,-0.2600552
0.7918085,-0.3801192,-0.2435569
0.7235252,-0.3425459,-0.2058802
0.7093542,-0.2869313,-0.2130729
0.7232887,-0.3098049,-0.2137043
0.7056079,-0.2743758,-0.2349458
0.7101611,-0.2354897,-0.2722136
0.7015695,-0.3060519,-0.2786452
0.7233022,-0.2479913,-0.3053319
0.7266825,-0.2398233,-0.2774016
0.7334146,-0.1698262,-0.2908021
0.7807104,-0.1566288,-0.2925177
0.8384263,-0.1957711,-0.2853094
0.9619973,-0.2163288,-0.2491739
1.001258,-0.2182835,-0.1719155
0.9450756,-0.1412557,-0.1641953
0.9504501,-0.07046406,-0.1849426
0.9852376,-0.07611221,-0.1998383
1.017367,-0.1288598,-0.2252284
1.055604,-0.2153912,-0.2238508
1.066825,-0.3152244,-0.21963
1.08131,-0.3767972,-0.2722385
1.188788,-0.389458,-0.4173691
1.367165,-0.4162598,-0.5851557
1.461889,-0.3761021,-0.6280937
1.387235,-0.310402,-0.5785337
1.225354,-0.3631654,-0.6017034
1.055446,-0.3938557,-0.628329
0.9676234,-0.3874693,-0.5526776
1.02845,-0.3940811,-0.4642169
1.024582,-0.3432484,-0.3668992
0.9177288,-0.2907526,-0.2824583
0.876112,-0.2435405,-0.2700722
0.8278749,-0.212371,-0.2740653
0.816935,-0.2230388,-0.2776178
0.8245553,-0.231112,-0.2726523
0.760371,-0.2575199,-0.2710775
0.7437621,-0.2933773,-0.2662574
0.6928743,-0.3213393,-0.2168932
0.6360501,-0.3392329,-0.1786403
0.6587781,-0.3500966,-0.1632783
0.6381102,-0.3745194,-0.1541582
0.6557676,-0.3491554,-0.150916
0.6891919,-0.2839653,-0.1386029
0.677669,-0.258755,-0.1434312
0.7184907,-0.2709958,-0.155824
0.7857714,-0.3134526,-0.1621415
0.8839348,-0.379967,-0.1400767
0.9533808,-0.4540232,-0.09570297
0.9509624,-0.4736649,-0.09300531
0.9941036,-0.422724,-0.09121463
1.104134,-0.3864679,-0.07618529
1.234095,-0.3473052,-0.1070766
1.300919,-0.3277349,-0.177712
1.300037,-0.4616347,-0.2440521
1.314183,-0.6907869,-0.2666064
1.307213,-0.7819033,-0.2831786
1.199357,-0.6451286,-0.2953642
0.9701239,-0.4811631,-0.2736692
0.7777439,-0.4122119,-0.2925255
0.7861908,-0.3512376,-0.3220072
0.8870737,-0.3337328,-0.311617
0.968335,-0.3675928,-0.2971693
1.002761,-0.3802691,-0.2272477
0.9357479,-0.386679,-0.1552526
0.8107107,-0.3554997,-0.1654223
0.7041873,-0.2854402,-0.1804808
0.6419729,-0.2190014,-0.2080278
0.6253104,-0.1563808,-0.2811994
0.6306621,-0.1468305,-0.3262518
0.6966532,-0.1948606,-0.3168212
0.7925576,-0.2413785,-0.2959373
0.799697,-0.2718539,-0.2813442
0.7881351,-0.2850288,-0.2778739
0.8304501,-0.2651914,-0.2949001
0.8743709,-0.2196426,-0.2997035
0.9180002,-0.1984051,-0.2946623
0.923836,-0.2076003,-0.2884791
0.9055802,-0.2094077,-0.2607234
0.9418749,-0.2092654,-0.2532919
0.9891315,-0.2243149,-0.268505
1.029918,-0.2603704,-0.2760705
1.085936,-0.3065064,-0.2833353
1.129031,-0.3314155,-0.3147422
1.19492,-0.3240744,-0.4167673
1.313045,-0.3075998,-0.5635337
1.397458,-0.3162472,-0.6378125
1.372777,-0.3715436,-0.5611451
1.295746,-0.4332258,-0.483037
1.143187,-0.4144498,-0.5318096
0.9170798,-0.3643858,-0.5381657
0.9226155,-0.3506021,-0.488451
1.046678,-0.2800965,-0.4418856
0.9726922,-0.203939,-0.3203281
0.969103,-0.2326053,-0.2815951
0.9751694,-0.2725501,-0.328202
0.8509427,-0.298841,-0.2815405
0.8713225,-0.3444417,-0.2607604
0.8525932,-0.3533092,-0.2637235
0.7387014,-0.3498988,-0.2023403
0.7170696,-0.3574283,-0.1848976
0.6989891,-0.3082295,-0.2105883
0.7043304,-0.2492452,-0.2291922
0.7117258,-0.251647,-0.2398725
0.7437433,-0.2688921,-0.2245095
0.7860352,-0.2916996,-0.1911542
0.7340431,-0.3183382,-0.1425786
0.7247062,-0.3320663,-0.1054257
0.7383265,-0.3360069,-0.110166
0.7446826,-0.3185623,-0.1324543
0.8065729,-0.3149684,-0.1404042
0.8514577,-0.3351572,-0.1273546
0.8765115,-0.3540652,-0.1028776
0.8707082,-0.3546967,-0.07369057
0.9110791,-0.3186027,-0.05973935
1.036561,-0.2776626,-0.07500095
1.127879,-0.2424525,-0.09710634
1.219225,-0.2568754,-0.1195039
1.3604,-0.4298853,-0.179467
1.481493,-0.6974404,-0.261631
1.485442,-0.7833414,-0.2773696
1.4031,-0.6165181,-0.2446565
1.200709,-0.4665703,-0.245111
0.8508081,-0.3991278,-0.2545095
0.7705122,-0.3447281,-0.2554813
0.9431132,-0.3826832,-0.2674632
0.9473162,-0.4297984,-0.267434
0.955434,-0.4349324,-0.2577711
0.9591949,-0.4376245,-0.2468385
0.7837554,-0.385307,-0.2178178
0.6634556,-0.3443145,-0.2016132
0.6439713,-0.323476,-0.2199089
0.6601496,-0.2803563,-0.2437169
0.6602565,-0.2701397,-0.2691892
0.6201995,-0.2705905,-0.2958566
0.6365666,-0.2556352,-0.3084755
0.6394475,-0.2051828,-0.3037129
0.6831626,-0.143531,-0.2759249
0.8100231,-0.1338027,-0.2460236
0.8653082,-0.1290257,-0.2498404
0.9154415,-0.1202147,-0.2754728
0.9979458,-0.1176445,-0.2887174
1.038608,-0.1127004,-0.277742
0.9915542,-0.1350899,-0.2525059
0.8971613,-0.1595183,-0.235521
0.8933297,-0.1680437,-0.2420316
0.9465723,-0.1683646,-0.2587752
1.031307,-0.182675,-0.2569198
1.125326,-0.2199067,-0.2268399
1.153433,-0.2273781,-0.2054481
1.17387,-0.2251658,-0.265004
1.225377,-0.2742715,-0.4056256
1.367435,-0.3660515,-0.5160193
1.478601,-0.4163807,-0.5349166
1.327015,-0.3699303,-0.5256866
1.100485,-0.3394577,-0.535184
1.015293,-0.3760082,-0.5246727
1.016437,-0.3712753,-0.492327
1.049557,-0.3125793,-0.4638312
1.064818,-0.2626486,-0.4098168
1.021173,-0.2644939,-0.3546274
0.9514889,-0.3201496,-0.3098816
0.9113965,-0.3676029,-0.2508327
0.9084969,-0.383147,-0.2392126
0.8935591,-0.3696631,-0.2453971
0.834748,-0.3354974,-0.2247565
0.7774581,-0.3106884,-0.2330993
0.743619,-0.2934586,-0.2311765
0.7138003,-0.3012482,-0.2052894
0.7036026,-0.3099285,-0.1814405
0.6882351,-0.2825315,-0.1482401
0.6646834,-0.2640544,-0.153464
0.6789692,-0.2476737,-0.164604
0.7172319,-0.2455711,-0.1443003
0.7579341,-0.2773089,-0.1544364
0.7749544,-0.3112585,-0.1653862
0.7598499,-0.3763458,-0.1533589
0.7626036,-0.4295049,-0.1425589
0.7890326,-0.4231336,-0.09427709
0.8195211,-0.4084149,-0.04359061
0.8766094,-0.3902225,-0.051988
0.9725932,-0.3509462,-0.07270552
1.091102,-0.2870772,-0.08045845
1.185676,-0.2568675,-0.1231675
1.243253,-0.3581328,-0.222123
1.375291,-0.6005835,-0.2832872
1.589333,-0.8533453,-0.2056301
1.620975,-0.8856453,-0.1251297
1.324307,-0.6748422,-0.1621106
1.012668,-0.4961294,-0.1529249
0.9809294,-0.4906565,-0.1071371
0.9281476,-0.4960136,-0.1909986
0.7023261,-0.4306918,-0.2807201
0.7141491,-0.4162378,-0.2941013
0.8343805,-0.4242266,-0.313622
0.7751025,-0.3912885,-0.3213749
0.8074466,-0.4186985,-0.3100573
0.8417477,-0.4783907,-0.2833707
0.8065106,-0.50738,-0.2535821
0.8761845,-0.5078264,-0.2702114
0.8311763,-0.4163325,-0.3031652
0.7459437,-0.2817816,-0.3120929
0.7410433,-0.1994797,-0.305496
0.6803954,-0.2081826,-0.2997374
0.6758314,-0.259996,-0.2995991
0.6842471,-0.2618736,-0.2831803
0.6829341,-0.2752055,-0.2494054
0.7198422,-0.2438293,-0.2385204
0.7246077,-0.1233594,-0.2584836
0.8246206,-0.06133164,-0.2674179
0.9849281,-0.03059914,-0.249873
1.028533,-0.02299164,-0.2097819
0.9561661,-0.02558351,-0.1779059
0.912605,0.008611388,-0.2140411
1.001925,-0.02679564,-0.2490502
1.054127,-0.1043358,-0.1768848
1.026427,-0.1933992,-0.09321749
1.024114,-0.2586385,-0.09421996
1.041619,-0.2322392,-0.1286621
1.11769,-0.2318789,-0.2087731
1.23456,-0.2570984,-0.3340668
1.392747,-0.3097538,-0.442951
1.60078,-0.409417,-0.5606908
1.650541,-0.399491,-0.599284
1.446577,-0.3570665,-0.5324572
1.167511,-0.3803245,-0.5589704
0.9746342,-0.3787264,-0.5892715
1.02015,-0.4019884,-0.5431903
1.17634,-0.4351155,-0.554038
1.120629,-0.3660846,-0.4703559
1.016755,-0.2407602,-0.3109839
0.9086243,-0.148311,-0.2697012
0.7721965,-0.1440085,-0.2696808
0.841895,-0.2261522,-0.2750522
0.8291612,-0.3298209,-0.2524866
0.7337989,-0.4218352,-0.2074386
0.7414603,-0.4525187,-0.2046615
0.6529861,-0.3908889,-0.2007962
0.6591883,-0.2956064,-0.2065228
0.6976711,-0.2034167,-0.2074104
0.6775657,-0.1554187,-0.2026353
0.7577607,-0.1858766,-0.1899002
0.749553,-0.2430114,-0.1339756
0.7216461,-0.2977666,-0.1193012
0.734014,-0.3324438,-0.1313597
0.7433715,-0.3407868,-0.1207121
0.8187331,-0.3704349,-0.1125749
0.8382618,-0.3993348,-0.1035989
0.850107,-0.4194049,-0.1028236
0.8906456,-0.4567876,-0.08434836
0.9367163,-0.4516927,-0.06881601
1.030521,-0.3785458,-0.08964286
1.125967,-0.275585,-0.1399443
1.311354,-0.2852743,-0.2395261
1.507863,-0.5457306,-0.3127418
1.5368,-0.8497398,-0.3016422
1.427393,-0.8868722,-0.2721672
1.190135,-0.7077119,-0.2339317
0.921047,-0.5470192,-0.1736253
0.7344928,-0.3957867,-0.1664476
0.6940585,-0.2391162,-0.2225581
0.8171414,-0.2307915,-0.2701195
0.9450968,-0.3097309,-0.2731062
0.9790294,-0.3825669,-0.1980144
0.8866939,-0.4148099,-0.13328
0.7290162,-0.3524726,-0.1688932
0.6673366,-0.2928104,-0.2165388
0.6432227,-0.2266901,-0.2579917
0.6198153,-0.158657,-0.3035326
0.661554,-0.1665655,-0.3106584
0.717336,-0.1804827,-0.2991877
0.7609477,-0.1999445,-0.2859496
0.7589131,-0.2079653,-0.2744753
0.7505954,-0.1869635,-0.2744344
0.823352,-0.1744396,-0.2852835
0.8906626,-0.1554985,-0.2920966
0.9273293,-0.1911741,-0.2862692
0.9777167,-0.2330917,-0.2775818
0.9843239,-0.1884436,-0.2739365
0.9835536,-0.1453616,-0.2980033
1.039037,-0.1455818,-0.3365379
1.05625,-0.180621,-0.3348067
1.038789,-0.2782688,-0.2852074
1.091026,-0.386904,-0.2521504
1.153528,-0.4188986,-0.2924643
1.222702,-0.4180025,-0.3614914
1.383598,-0.4205255,-0.443633
1.533978,-0.3548981,-0.5466827
1.464624,-0.3074198,-0.5413578
1.185189,-0.3777998,-0.4818955
1.01427,-0.4482091,-0.5215947
1.06214,-0.4390989,-0.5093705
1.097518,-0.3838198,-0.4391741
1.027575,-0.2955917,-0.3910278
0.9668855,-0.2233832,-0.2930048
0.9245342,-0.2668943,-0.2640399
0.8169369,-0.345306,-0.2333968
0.8036827,-0.3351637,-0.1568413
0.8545358,-0.3352733,-0.2084255
0.7721226,-0.3506411,-0.2049009
0.7315059,-0.3309915,-0.1677939
0.6942578,-0.3186555,-0.2028248
0.6176519,-0.2703872,-0.1389352
0.6540344,-0.2311878,-0.0919692
0.6547353,-0.2319426,-0.09646548
0.6425369,-0.2184051,-0.1003116
0.6699144,-0.2338116,-0.1424596
0.6672771,-0.2867851,-0.1285489
0.7277667,-0.3919213,-0.1184434
0.8032762,-0.5068031,-0.1280071
0.827092,-0.5269799,-0.1157587
0.8101616,-0.495753,-0.1364905
0.7970226,-0.4584208,-0.1361124
0.8568561,-0.4332934,-0.1307911
0.9290663,-0.43994,-0.1285645
1.008633,-0.4287212,-0.1118023
1.126936,-0.371408,-0.1257405
1.292529,-0.3492178,-0.1365359
1.48742,-0.487728,-0.1856116
1.549281,-0.6794687,-0.2694191
1.440398,-0.7116816,-0.2776609
1.291245,-0.6663691,-0.2486177
1.135295,-0.6395746,-0.2469597
0.9056106,-0.5164182,-0.2606828
0.6727233,-0.3726787,-0.2801809
0.6567031,-0.386664,-0.3005927
0.778219,-0.4595508,-0.296752
0.8165466,-0.4938807,-0.2586043
0.831804,-0.4991562,-0.1982085
0.850796,-0.4214423,-0.145428
0.8275131,-0.3119619,-0.1769019
0.7994541,-0.2272297,-0.2453277
0.7352645,-0.1115378,-0.2640305
0.6678581,-0.007418401,-0.288493
0.6683624,0.007950777,-0.2980942
0.6813186,-0.04018183,-0.2788491
0.701645,-0.1255429,-0.2792401
0.7595062,-0.2459118,-0.2675398
0.828358,-0.3391828,-0.2767476
0.8869963,-0.3493728,-0.3054917
0.9129258,-0.2963821,-0.2946815
0.9063762,-0.2121415,-0.2642284
0.9025505,-0.1227699,-0.2318088
0.9283444,-0.05216646,-0.247181
0.9635062,-0.02947177,-0.2836947
0.977491,-0.06377233,-0.2679607
0.9745705,-0.1129646,-0.2442663
0.9758189,-0.1632562,-0.2065904
1.014966,-0.2081026,-0.1761744
1.085095,-0.2240741,-0.1994705
1.168345,-0.254837,-0.2195586
1.263191,-0.3133668,-0.2895038
1.351129,-0.3439035,-0.4475769
1.437215,-0.3485975,-0.5478847
1.460012,-0.3369937,-0.5226627
1.358823,-0.2918817,-0.4894518
1.232811,-0.2496124,-0.5153882
1.15409,-0.2627049,-0.5196728
1.093092,-0.2995562,-0.504712
1.052636,-0.2944322,-0.4575727
1.017412,-0.2662321,-0.3085748
0.9340731,-0.2502012,-0.2090167
0.8596768,-0.2750759,-0.2266341
0.8415681,-0.3453853,-0.2505802
0.8191593,-0.3909755,-0.277474
0.8291513,-0.4322182,-0.2886067
0.8573079,-0.4745779,-0.2670789
0.8021345,-0.4560826,-0.2496443
0.7317431,-0.4244556,-0.2500943
0.7058051,-0.3754787,-0.2495477
0.7102051,-0.3068822,-0.2113502
0.7371594,-0.2720309,-0.1658247
0.734244,-0.2404258,-0.1386166
0.7002474,-0.2080009,-0.1288466
0.6605405,-0.1769723,-0.1340094
0.6551353,-0.1743706,-0.120422
0.7055663,-0.2474812,-0.1058174
0.7559013,-0.3454867,-0.107508
0.8104301,-0.4123557,-0.1079853
0.8515472,-0.4209905,-0.1026427
0.8684797,-0.4072666,-0.08638743
0.9382272,-0.4047099,-0.05776614
1.039756,-0.3783579,-0.01835225
1.153072,-0.3586525,0.01072356
1.259312,-0.3446951,0.01533164
1.293818,-0.3225273,-0.0268906
1.337112,-0.3865404,-0.1247888
1.443641,-0.5788823,-0.1824278
1.547522,-0.767815,-0.1388384
1.52447,-0.7372209,-0.1235849
1.129985,-0.5264206,-0.2671922
0.6116423,-0.3739241,-0.4141121
0.6341679,-0.3484646,-0.391168
0.8829441,-0.4250637,-0.3385187
0.8574732,-0.480624,-0.3374326
0.9438937,-0.4507154,-0.3024647
0.9824247,-0.4446876,-0.2732691
0.8076483,-0.3816952,-0.2623334
0.8214824,-0.2610608,-0.2239335
0.8059442,-0.2381239,-0.2287983
0.7631868,-0.2262968,-0.2643066
0.7951269,-0.1735492,-0.2586972
0.7279592,-0.1678864,-0.2628507
0.7703216,-0.2038946,-0.260387
0.7767485,-0.2150685,-0.2252211
0.7264792,-0.2204119,-0.2101937
0.7828479,-0.2450995,-0.2094743
0.7846156,-0.2214892,-0.2201765
0.8492469,-0.1762649,-0.2334037
0.8668929,-0.1354063,-0.2458068
0.8147034,-0.09560453,-0.2641568
0.8810214,-0.1092829,-0.2712725
0.9371299,-0.1478633,-0.2845245
1.053541,-0.2157974,-0.2411633
1.112808,-0.2854992,-0.1376384
1.043742,-0.2880559,-0.1168331
1.090088,-0.2852693,-0.1870831
1.170185,-0.3011098,-0.2829944
1.286935,-0.3132353,-0.4134976
1.424114,-0.3132325,-0.566414
1.437206,-0.3059062,-0.608993
1.382769,-0.3141901,-0.5482863
1.186498,-0.3143936,-0.5593768
0.9459483,-0.3141845,-0.5374963
0.9678951,-0.3148606,-0.4502556
1.095597,-0.2891905,-0.4421534
1.075797,-0.25466,-0.4197639
0.9950153,-0.2300401,-0.3572272
0.8753903,-0.2401927,-0.2502873
0.7613117,-0.2609944,-0.1647306
0.7839684,-0.2743333,-0.2257635
0.7976644,-0.3126978,-0.2399745
0.7709813,-0.3276711,-0.2313617
0.7914049,-0.312501,-0.2724911
0.7560365,-0.3117759,-0.2161498
0.7096635,-0.3056725,-0.1804026
0.6773256,-0.3040906,-0.1633915
0.6359016,-0.3153234,-0.1081162
0.6575318,-0.3288935,-0.109416
0.6909551,-0.3415161,-0.1128471
0.7301015,-0.3259975,-0.1194456
0.7770717,-0.295627,-0.1499298
0.791201,-0.2892441,-0.1650703
0.8205684,-0.3259468,-0.146198
0.8734863,-0.3953619,-0.1002662
0.942867,-0.4415349,-0.08232293
1.023547,-0.4442238,-0.07004638
1.113134,-0.4322812,-0.05936623
1.229706,-0.4112402,-0.08296665
1.355503,-0.4098269,-0.1566424
1.438602,-0.5166827,-0.2718524
1.414379,-0.7062309,-0.301352
1.294694,-0.7624477,-0.2668817
1.11483,-0.6097872,-0.2710569
0.932827,-0.431066,-0.2534005
0.8466526,-0.3213349,-0.2384896
0.8514364,-0.265988,-0.2296609
0.9092353,-0.2923889,-0.1829041
0.9598372,-0.3443928,-0.1870288
0.9654343,-0.3540705,-0.1902969
0.9207677,-0.3354363,-0.1525242
0.8134846,-0.2794171,-0.2042154
0.7726566,-0.2267982,-0.2757808
0.7767526,-0.2152613,-0.2711867
0.7260569,-0.1837251,-0.2430229
0.7134453,-0.1334954,-0.2065548
0.7220185,-0.09913897,-0.1944622
0.7428331,-0.08328818,-0.1998628
0.7704933,-0.09546122,-0.206851
0.7657697,-0.1038514,-0.2563713
0.8083073,-0.1014173,-0.2958298
0.8791545,-0.1326329,-0.2881682
0.9422925,-0.202012,-0.2669825
0.9598348,-0.2548905,-0.2454783
0.937153,-0.2409705,-0.2390073
0.9865423,-0.1863214,-0.2365066
1.068895,-0.1550451,-0.2293102
1.182042,-0.1898057,-0.2388301
1.326049,-0.2660365,-0.2782409
1.377111,-0.3256289,-0.3620824
1.372401,-0.3518275,-0.5043162
1.406274,-0.3153379,-0.6131277
1.399994,-0.2817013,-0.5547781
1.166947,-0.3730501,-0.4741044
0.8422424,-0.4630811,-0.5131421
0.8318986,-0.437701,-0.5044204
1.050182,-0.4069872,-0.4543604
1.159108,-0.369252,-0.4409687
1.129974,-0.297475,-0.372152
0.9414268,-0.2785792,-0.2790846
0.727922,-0.2751671,-0.1886806
0.7570959,-0.2499144,-0.176
0.8014727,-0.2497559,-0.2331842
0.7029243,-0.2224245,-0.1762523
0.704238,-0.2015129,-0.1641949
0.7217873,-0.23843,-0.2193106
0.6614141,-0.2343865,-0.1870465
0.657812,-0.2307707,-0.1929385
0.6536776,-0.2592569,-0.1347869
0.6501204,-0.2621846,-0.03293803
0.6938067,-0.2719889,-0.06326111
0.7316903,-0.2532503,-0.09046911
0.7932523,-0.2393859,-0.1158692
0.8601118,-0.2982461,-0.1350892
0.9255581,-0.3762299,-0.0731359
0.982002,-0.4300161,-0.02600462
0.9471238,-0.4133962,-0.03245651
0.9236997,-0.3820981,-0.03381411
0.9766316,-0.3650939,0.007612936
1.037976,-0.3085371,0.01069581
1.155784,-0.2973648,-0.04456163
1.32699,-0.3679865,-0.1328545
1.500621,-0.5100794,-0.2486024
1.565579,-0.6411844,-0.2629451
1.362654,-0.5862882,-0.2410806
1.085866,-0.4772898,-0.2597279
0.9641793,-0.4413752,-0.2303573
0.8762339,-0.3663542,-0.2352973
0.8237669,-0.342696,-0.2611326
0.884838,-0.3957461,-0.242173
0.9260029,-0.3927867,-0.2352409
0.9129528,-0.390893,-0.2028832
0.872835,-0.3792547,-0.1710384
0.7881187,-0.3279301,-0.1925909
0.7490785,-0.2885239,-0.2252273
0.7415349,-0.2089136,-0.2604916
0.7004473,-0.1320698,-0.2768253
0.6981001,-0.131895,-0.2576025
0.6984583,-0.1734372,-0.2351043
0.6682181,-0.1993813,-0.2293344
0.6970169,-0.184258,-0.2324843
0.7876628,-0.1766178,-0.2377722
0.9287052,-0.1688094,-0.2440703
1.020295,-0.1591197,-0.2310793
0.9391404,-0.1694518,-0.2268903
0.872198,-0.1740385,-0.2727797
0.9336993,-0.2051021,-0.3064626
1.00818,-0.2481393,-0.2542571
1.11066,-0.2588717,-0.1794632
1.161647,-0.2400559,-0.1917798
1.116485,-0.2212387,-0.2726205
1.176412,-0.2651363,-0.3739697
1.298417,-0.3553066,-0.4574277
1.393331,-0.4517195,-0.5081031
1.480793,-0.4857827,-0.5869137
1.390351,-0.3925703,-0.5929631
1.154107,-0.3092392,-0.5006368
0.9776311,-0.3148922,-0.4844731
0.9356156,-0.2972228,-0.4853884
0.9962753,-0.2540004,-0.4621941
0.9841699,-0.2330876,-0.425911
0.9320689,-0.2081354,-0.3005336
0.8907737,-0.2490893,-0.2177234
0.7723083,-0.3574552,-0.2027599
0.7702833,-0.3759018,-0.1876953
0.8408993,-0.3542761,-0.2139596
0.8013592,-0.3783486,-0.2236213
0.7772008,-0.3717924,-0.2297464
0.715573,-0.3601824,-0.207576
0.6557138,-0.3571792,-0.1415183
0.69666,-0.3229365,-0.1452591
0.6847411,-0.2623929,-0.1368192
0.6731147,-0.1914444,-0.1278808
0.6955058,-0.1743524,-0.1988229
0.6824899,-0.1982061,-0.2195892
0.7103179,-0.2800161,-0.1772688
0.7702569,-0.4616721,-0.1157646
0.8254488,-0.5444405,-0.0614696
0.8481536,-0.4692578,-0.06822386
0.8471415,-0.4221077,-0.09088596
0.9142331,-0.4025628,-0.09873858
1.026926,-0.3656862,-0.07415174
1.141801,-0.3398956,-0.02826161
1.240626,-0.2887079,-0.04061622
1.285972,-0.2841501,-0.1290159
1.349435,-0.4515779,-0.2449107
1.454248,-0.6921996,-0.2792276
1.443009,-0.7622654,-0.239532
1.211449,-0.6053839,-0.2536551
0.8911214,-0.4532566,-0.2837964
0.7645131,-0.4029697,-0.3087686
0.8831128,-0.3689533,-0.3620326
0.9524846,-0.3866561,-0.363222
0.915806,-0.4156391,-0.3262503
0.9329282,-0.4092715,-0.2927771
0.9067452,-0.4053897,-0.2512178
0.8393115,-0.358766,-0.2444189
0.8072172,-0.3237249,-0.2395043
0.7444641,-0.330462,-0.2179864
0.7132655,-0.2984409,-0.2239645
0.7038644,-0.2556699,-0.2279876
0.6770163,-0.2316026,-0.2389051
0.6615348,-0.2089045,-0.2554315
0.6383866,-0.183692,-0.2339813
0.6915701,-0.1644117,-0.2245162
0.8007176,-0.1550336,-0.257355
0.9037945,-0.1615876,-0.277122
0.9641277,-0.194742,-0.2446729
0.9033684,-0.2028779,-0.2168284
0.8857831,-0.1740118,-0.2585405
0.9555721,-0.1558892,-0.2842345
0.9776629,-0.1693453,-0.2326814
0.9846187,-0.1875755,-0.1925037
0.9968665,-0.152583,-0.2065147
1.020227,-0.1158203,-0.2317826
1.021839,-0.1258701,-0.2461969
1.004967,-0.1751723,-0.2462503
1.022372,-0.2967722,-0.2200954
1.011725,-0.4166415,-0.2139393
1.035047,-0.4331642,-0.3166832
1.199557,-0.3448722,-0.4941647
1.440238,-0.2668754,-0.5717365
1.53306,-0.307081,-0.4962325
1.355619,-0.3348715,-0.4535069
1.180886,-0.300393,-0.4923363
1.090431,-0.3137569,-0.4655719
0.950337,-0.319431,-0.41255
0.9305446,-0.3040709,-0.4114232
1.02605,-0.3197359,-0.4414054
1.068021,-0.3241899,-0.4849244
1.066295,-0.3270603,-0.4605958
0.9907836,-0.3181103,-0.3744385
0.8627782,-0.2859851,-0.2773867
0.8001416,-0.28991,-0.1996539
0.8301776,-0.2920828,-0.2172783
0.8531621,-0.2682263,-0.2259094
0.8276376,-0.2497678,-0.2089886
0.830096,-0.2097911,-0.2551343
0.8058131,-0.173291,-0.2188683
0.7478582,-0.1805594,-0.1570409
0.7512257,-0.218721,-0.1576504
0.7418942,-0.2493377,-0.08645839
0.7055133,-0.222278,-0.02763706
0.6860107,-0.1695241,-0.02742873
0.6699306,-0.1456088,-0.03071028
0.7142703,-0.1481228,-0.05093909
0.7916636,-0.1782937,-0.01130607
0.8486619,-0.2226096,0.04403389
0.9008407,-0.2716254,0.04757853
0.9090328,-0.35416,0.04781456
0.8765437,-0.4482469,0.02262691
0.8605012,-0.4803167,-0.03602191
0.9211777,-0.4550933,-0.1320128
1.151954,-0.4495171,-0.2728346
1.486067,-0.4621197,-0.3827342
1.550097,-0.4360506,-0.3602925
1.13487,-0.3458633,-0.1955665
1.056135,-0.05344331,-0.31949
1.095119,-0.07155005,-0.3389277
1.10839,-0.2096851,-0.3518731
1.230536,-0.3982427,-0.3788802
1.321824,-0.4520303,-0.4529945
1.445233,-0.4764242,-0.5951396
1.546865,-0.4534104,-0.6919177
1.415606,-0.388012,-0.6342008
1.176767,-0.4677926,-0.5365681
0.967313,-0.5094635,-0.4600067
0.8814309,-0.4098845,-0.3328239
0.9748106,-0.3121453,-0.2696148
1.024481,-0.2695079,-0.2868478
0.9793317,-0.2648737,-0.291857
0.9564155,-0.2508632,-0.3301959
0.8689499,-0.2615965,-0.2893799
0.8038707,-0.3100025,-0.1968951
0.816513,-0.3623797,-0.2054306
0.7601022,-0.3786756,-0.209895
0.7034658,-0.3167398,-0.210946
0.6519307,-0.2554648,-0.2127085
0.5891447,-0.2457407,-0.1806195
0.587786,-0.2495269,-0.1700244
0.5790522,-0.2363785,-0.1427942
0.591763,-0.1939871,-0.1376211
0.6489319,-0.1809681,-0.1454365
0.7252438,-0.2478188,-0.1257816
0.8478229,-0.3547092,-0.1305446
0.9161263,-0.4212515,-0.10013
0.9513943,-0.4437113,-0.07015056
1.103127,-0.4706067,-0.07929323
1.290582,-0.461504,-0.05435574
1.345911,-0.4305046,-0.0569694
1.3374,-0.4594667,-0.1504138
1.356644,-0.5528789,-0.2550754
1.298661,-0.6462714,-0.2515567
1.171004,-0.5856475,-0.2296793
1.007241,-0.4039316,-0.2937598
0.8292724,-0.2906823,-0.3307089
0.8102016,-0.2452408,-0.3476435
0.8925296,-0.2894691,-0.3089813
0.96473,-0.4160799,-0.1812483
1.039396,-0.5210983,-0.1306947
1.017848,-0.541904,-0.108723
0.9223883,-0.3820822,-0.13006
0.7959575,-0.1724462,-0.2398982
0.6680169,-0.05446457,-0.2460423
0.6222195,0.002652798,-0.2325615
0.6050292,-0.04637868,-0.274504
0.6554675,-0.1206591,-0.2772292
0.7620175,-0.217289,-0.2879051
0.778789,-0.3149241,-0.2889575
0.7596448,-0.2813433,-0.2863486
0.7656909,-0.2718191,-0.2858353
0.7949667,-0.2698359,-0.2648995
0.8502559,-0.1835992,-0.2692634
0.9169681,-0.121928,-0.2586119
1.037818,-0.05645665,-0.2493894
1.190589,-0.04828697,-0.2736095
1.30804,-0.1603663,-0.3067037
1.38061,-0.33235,-0.3737744
1.42135,-0.483581,-0.4865028
1.444102,-0.4787983,-0.6359795
1.39547,-0.4180468,-0.6727731
1.192441,-0.427626,-0.5499315
0.9462316,-0.433669,-0.4802797
0.9240319,-0.4218592,-0.4724975
1.03332,-0.344318,-0.3953769
1.025436,-0.2185692,-0.289818
1.031461,-0.2007158,-0.2732872
1.015777,-0.2410736,-0.2907872
0.8934702,-0.2562976,-0.217264
0.8972215,-0.3121536,-0.1734492
0.9140654,-0.3544589,-0.1867937
0.8229532,-0.3575607,-0.1570763
0.768242,-0.3982121,-0.1567528
0.7229632,-0.3834698,-0.1620523
0.681851,-0.2774482,-0.1540964
0.6136974,-0.2050322,-0.1684015
0.5783623,-0.1998454,-0.1566768
0.6353552,-0.2338513,-0.146121
0.6174771,-0.2674843,-0.09873947
0.6185522,-0.2994775,-0.04010577
0.6675625,-0.3153342,-0.08686966
0.6986276,-0.2991306,-0.1266436
0.8410121,-0.340959,-0.09772081
0.9415751,-0.3991081,-0.09426452
0.9451533,-0.4370826,-0.1065211
1.014488,-0.4919441,-0.09597325
1.15208,-0.507876,-0.1232042
1.388785,-0.5892367,-0.2412339
1.644722,-0.6980804,-0.3443196
1.668532,-0.6482981,-0.2959
1.326055,-0.5210566,-0.2163674
0.8889025,-0.3875929,-0.2648597
0.7563325,-0.3263148,-0.292412
0.8440723,-0.363565,-0.2854316
0.904396,-0.3748237,-0.3456378
0.9335539,-0.3922267,-0.3042315
0.9583913,-0.4216283,-0.1848414
0.9458843,-0.4134969,-0.1164676
0.9014756,-0.370039,-0.1186266
0.8136607,-0.2400287,-0.1883602
0.726439,-0.1330475,-0.1892338
0.7414084,-0.1363534,-0.2170647
0.7246726,-0.1173319,-0.2920206
0.6715609,-0.1319411,-0.2532435
0.7160398,-0.2430485,-0.2517256
0.734694,-0.2824638,-0.2844479
0.7648231,-0.2669747,-0.2991036
0.8291612,-0.2606966,-0.3495131
0.8353876,-0.2015778,-0.3243514
0.8642021,-0.1557813,-0.2864758
0.8678222,-0.1383534,-0.2893614
0.8621832,-0.1085788,-0.2691974
0.9105009,-0.1090215,-0.2638135
0.927626,-0.1235907,-0.2732064
0.9704027,-0.1601548,-0.2974555
1.084247,-0.2233707,-0.3193553
1.215018,-0.2642398,-0.3160793
1.298821,-0.3230787,-0.3268663
1.331804,-0.422573,-0.3826108
1.40457,-0.4509813,-0.5103541
1.452574,-0.3377085,-0.6204902
1.368234,-0.2560433,-0.5890368
1.153947,-0.3593977,-0.537391
0.9325959,-0.4828334,-0.5555261
0.9138493,-0.4786218,-0.4954276
1.000529,-0.4106303,-0.3841758
0.9802795,-0.3236822,-0.3327319
0.9074516,-0.2537433,-0.2888027
0.8353085,-0.2478298,-0.2603772
0.7950158,-0.2514335,-0.2313792
0.8132614,-0.2531479,-0.2030387
0.789074,-0.3052219,-0.2121734
0.7317685,-0.3681544,-0.1783888
0.6991551,-0.3840815,-0.1391121
0.6612524,-0.3256661,-0.1314406
0.6731188,-0.2445771,-0.1266342
0.7181765,-0.2234132,-0.1455154
0.7378489,-0.230899,-0.1335709
0.757668,-0.2526422,-0.1147918
0.7447821,-0.2983437,-0.1147655
0.7362387,-0.3302982,-0.1107318
0.7467765,-0.3445397,-0.1363087
0.7323675,-0.3566978,-0.1259479
0.7451098,-0.3982196,-0.06393896
0.7691605,-0.4445652,-0.02066034
0.8303041,-0.4190055,-0.03302303
0.9633032,-0.3621261,-0.06844391
1.092049,-0.2983216,-0.04316095
1.222403,-0.1663975,-0.03600814
1.307786,-0.07508381,-0.0640025
1.326023,-0.1692751,-0.07405933
1.444558,-0.4357545,-0.1460797
1.630125,-0.764265,-0.1951459
1.609601,-0.8642519,-0.1883588
1.32785,-0.7329262,-0.2199546
0.957754,-0.7016494,-0.2228
0.7155587,-0.6654005,-0.2301711
0.7441405,-0.5972394,-0.3123776
0.8109924,-0.6231734,-0.3875207
0.7731486,-0.5030322,-0.4061593
0.83381,-0.3806734,-0.3870056
0.8837886,-0.3971331,-0.3334572
0.8621347,-0.355244,-0.2358755
0.8770123,-0.3373584,-0.1854034
0.8243923,-0.2926154,-0.2327825
0.7788555,-0.2148443,-0.2652965
0.7788727,-0.1959705,-0.264125
0.7625454,-0.14923,-0.269403
0.7687814,-0.1658384,-0.2601299
0.7478474,-0.2004527,-0.2665476
0.7525206,-0.1999184,-0.2718691
0.7826556,-0.2375476,-0.2269384
0.7771505,-0.236116,-0.1817344
0.783859,-0.2164104,-0.1748173
0.7751722,-0.1495566,-0.1918213
0.8030578,-0.06599026,-0.2042219
0.8785604,-0.07005781,-0.2109603
0.9213171,-0.05538778,-0.2169962
0.9487972,-0.0322325,-0.1750808
0.9730488,-0.05227119,-0.1257556
1.02118,-0.09968704,-0.1282102
1.043429,-0.2062025,-0.1277334
1.029406,-0.3252318,-0.1236879
1.092511,-0.4119801,-0.1586402
1.226402,-0.4422644,-0.2476317
1.431689,-0.3903596,-0.3923998
1.634668,-0.2809044,-0.4833791
1.638697,-0.1619192,-0.4524817
1.458728,-0.1264587,-0.4523634
1.238761,-0.2295174,-0.5510059
1.082161,-0.3592423,-0.6268544
1.041211,-0.4104101,-0.6127547
1.043343,-0.4192095,-0.4787282
0.9779715,-0.3846531,-0.2851288
0.8653475,-0.3184102,-0.2088286
0.8113664,-0.2861365,-0.272279
0.846463,-0.2771397,-0.2991306
0.8724595,-0.2913691,-0.2215581
0.8379715,-0.3095559,-0.1825439
0.8212385,-0.3050423,-0.1967522
0.7724404,-0.2992256,-0.1908993
0.6641911,-0.2595287,-0.2001602
0.6423733,-0.1913058,-0.2010271
0.6622648,-0.165039,-0.1935849
0.6513755,-0.2149093,-0.1737302
0.6641808,-0.2938006,-0.1062508
0.664426,-0.3277074,-0.06336009
0.6621965,-0.3389866,-0.07020721
0.7065562,-0.3803519,-0.1111954
0.781288,-0.4615576,-0.1600769
0.8582359,-0.5037583,-0.1708706
0.8864348,-0.437525,-0.1476009
0.9149485,-0.3777322,-0.1274016
1.097233,-0.3795719,-0.1634995
1.392775,-0.3888719,-0.2046836
1.524562,-0.4617538,-0.2182032
1.440155,-0.6226618,-0.269797
1.378798,-0.7218214,-0.3169726
1.315104,-0.6158718,-0.3070558
1.104459,-0.4388164,-0.2896136
0.8823595,-0.3538946,-0.2885162
0.7886347,-0.3057367,-0.2457555
0.8474369,-0.320436,-0.203449
0.9364396,-0.3881599,-0.2282488
0.9411075,-0.4044909,-0.2208122
0.9525134,-0.3898493,-0.194045
0.929533,-0.3513577,-0.1981285
0.8356668,-0.3177209,-0.1826966
0.7310659,-0.2599394,-0.1918407
0.6369234,-0.1626587,-0.2361156
0.6538372,-0.1549381,-0.2886216
0.6860881,-0.167147,-0.313136
0.7050075,-0.1691394,-0.2959024
0.7877531,-0.2184094,-0.30636
0.8059195,-0.234249,-0.3008901
0.8216033,-0.2450962,-0.2862621
0.8192607,-0.222947,-0.3149867
0.7431169,-0.1509326,-0.3189847
0.7537744,-0.1315059,-0.3234392
0.829809,-0.1477354,-0.3311025
0.9540037,-0.1618326,-0.3174346
1.054898,-0.1188315,-0.3180452
1.058853,-0.05168251,-0.2907925
1.081364,-0.04938599,-0.2572256
1.078117,-0.07994891,-0.2472876
1.065183,-0.1321902,-0.2412651
1.102846,-0.1746272,-0.2875525
1.194351,-0.2226938,-0.4000093
1.463446,-0.3172469,-0.5840805
1.686409,-0.3836724,-0.7502572
1.50206,-0.397648,-0.7153252
1.096665,-0.3860119,-0.5888091
0.8474469,-0.3844627,-0.5581225
0.8681399,-0.3699851,-0.5271235
1.017969,-0.2944139,-0.443103
1.060353,-0.2067744,-0.3626051
1.015212,-0.1512924,-0.3027887
0.9487444,-0.1688026,-0.2731125
0.8282337,-0.2035022,-0.226315
0.8286321,-0.2118513,-0.2046514
0.8338598,-0.2727214,-0.213594
0.7028963,-0.3139204,-0.1929461
0.6821701,-0.3103809,-0.226642
0.677338,-0.3126005,-0.2486418
0.6560347,-0.2909107,-0.2270761
0.7019417,-0.2912397,-0.2310787
0.6661513,-0.2962419,-0.1971566
0.6636727,-0.2940347,-0.1933733
0.6949301,-0.3171641,-0.199164
0.7050522,-0.3265411,-0.1672092
0.7960872,-0.3509786,-0.1856091
0.8597365,-0.372784,-0.186277
0.8741061,-0.3593359,-0.1709599
0.8576266,-0.3591503,-0.1646909
0.8411118,-0.3633883,-0.1241632
0.9253382,-0.3644402,-0.09841942
1.030449,-0.3671453,-0.09633656
1.124944,-0.3651039,-0.1032908
1.232685,-0.3648837,-0.1145076
1.315592,-0.4125671,-0.1883777
1.340657,-0.5922834,-0.3476974
1.314571,-0.77206,-0.4122995
1.27748,-0.717424,-0.3183734
1.118262,-0.5929994,-0.2510421
0.8776476,-0.5886073,-0.2891427
0.7397112,-0.5099372,-0.2901641
0.6343462,-0.4092255,-0.2527813
0.7071559,-0.4483846,-0.2771154
0.9775798,-0.4574457,-0.2779374
0.9784035,-0.4373365,-0.2546862
0.854254,-0.4472203,-0.238007
0.8545094,-0.4162686,-0.1865876
0.7477615,-0.3610759,-0.1926816
0.7075825,-0.2670433,-0.2410432
0.7254175,-0.169084,-0.270263
0.6547411,-0.1249867,-0.3057576
0.695503,-0.1339374,-0.289725
0.7051729,-0.1827142,-0.2618557
0.712793,-0.223336,-0.2732247
0.8287629,-0.2334474,-0.274225
0.8736079,-0.1870991,-0.288617
0.9065394,-0.1399431,-0.2921927
0.8949103,-0.1472601,-0.263164
0.8676244,-0.1473472,-0.2496788
0.9282845,-0.1382677,-0.2468208
0.9729808,-0.119494,-0.2721819
1.010893,-0.09914068,-0.3015193
0.9747211,-0.1248171,-0.2875712
0.9237472,-0.1919024,-0.2770987
1.018068,-0.2823202,-0.2592276
1.117391,-0.3396593,-0.2133697
1.203559,-0.3356974,-0.1986357
1.355101,-0.3130075,-0.2454055
1.505072,-0.2787311,-0.3630156
1.539394,-0.239678,-0.4797567
1.362241,-0.2447986,-0.4671461
1.103631,-0.2912523,-0.4351411
0.9499757,-0.3741349,-0.5186361
0.8947172,-0.5143875,-0.5677975
0.9360398,-0.5602799,-0.5579477
1.024365,-0.4409487,-0.535195
1.007937,-0.3263108,-0.4107127
0.9392204,-0.2452642,-0.2891633
0.906869,-0.202882,-0.2562602
0.8875879,-0.2395397,-0.2664916
0.9052474,-0.291448,-0.2706877
0.8805483,-0.3772165,-0.2221723
0.8145095,-0.4434055,-0.1991647
0.77894,-0.4066321,-0.1808094
0.7228762,-0.3478812,-0.1722049
0.7199252,-0.2683799,-0.2111997
0.7520304,-0.1898229,-0.1822102
0.7420144,-0.1991126,-0.1675351
0.7237948,-0.2327575,-0.1702961
0.6565933,-0.2610197,-0.1033444
0.6051224,-0.3038659,-0.06927634
0.6093371,-0.3348679,-0.0586777
0.6346625,-0.3872365,-0.08425073
0.6998181,-0.4462188,-0.1290126
0.7624432,-0.4712321,-0.1310784
0.8455512,-0.4859373,-0.1616897
0.9170105,-0.4591131,-0.1598208
0.9639149,-0.3631673,-0.1007268
1.095049,-0.2571962,-0.06935742
1.22861,-0.2296143,-0.05557915
1.325246,-0.2492327,-0.01626242
1.413751,-0.2478515,0.02526995
1.435958,-0.3689756,-0.09001759
1.485612,-0.6378428,-0.2517355
1.513768,-0.7815105,-0.212565
1.35761,-0.6841468,-0.1854192
1.146515,-0.5778315,-0.2533654
0.9020572,-0.5874214,-0.2529947
0.6297998,-0.5153529,-0.3267485
0.6684264,-0.4650486,-0.4290007
0.8872572,-0.535597,-0.3819028
0.8678596,-0.4699043,-0.3593989
0.8345606,-0.4246297,-0.384022
0.8438895,-0.4620737,-0.3232715
0.748459,-0.41143,-0.2444483
0.7864937,-0.4263373,-0.2013169
0.7978336,-0.4273838,-0.2148768
0.6991993,-0.3728813,-0.2468168
0.6807342,-0.3591957,-0.2408685
0.6068804,-0.2980756,-0.2713775
0.5826327,-0.2456463,-0.2926929
0.6055923,-0.1955999,-0.2639197
0.5911946,-0.1404357,-0.2693813
0.689053,-0.1167137,-0.2599305
0.8331476,-0.05713764,-0.2562841
1.055451,-0.0163124,-0.3141509
1.199917,-0.006074835,-0.3425104
1.11789,-0.04276212,-0.3124099
1.092869,-0.1591804,-0.2648251
1.094676,-0.2748694,-0.2574891
1.076651,-0.3911746,-0.2541605
1.130121,-0.4919029,-0.1970267
1.146568,-0.5410317,-0.1707422
1.137696,-0.5348867,-0.1903251
1.142392,-0.4580692,-0.257068
1.195277,-0.348397,-0.4018968
1.392357,-0.1850448,-0.5399699
1.557175,-0.04070994,-0.5657864
1.357634,-0.1080674,-0.4601758
0.9741169,-0.2706063,-0.3809155
0.8813883,-0.3445056,-0.4216375
0.9915737,-0.4254216,-0.4467371
1.054497,-0.462693,-0.4155801
1.074093,-0.3731759,-0.3636853
0.9949196,-0.3199067,-0.2717383
0.8744623,-0.2998724,-0.2300673
0.8288556,-0.2901914,-0.2737417
0.8426914,-0.3355243,-0.2660816
0.8493625,-0.3648765,-0.2292714
0.8037174,-0.398206,-0.2357474
0.7464945,-0.3820684,-0.2433223
0.6743163,-0.3090576,-0.263058
0.6364258,-0.2753802,-0.2402662
0.663778,-0.2481159,-0.1876426
0.659163,-0.2755685,-0.1921866
0.6618289,-0.3129583,-0.1783292
0.6876307,-0.3100266,-0.1473291
0.7114047,-0.3430279,-0.128713
0.784015,-0.3544376,-0.09978648
0.864239,-0.3742855,-0.09526995
0.8913302,-0.4027887,-0.1067134
0.8768218,-0.3937255,-0.1165681
0.9136168,-0.4234569,-0.07427854
1.035233,-0.4276427,0.002618774
1.174795,-0.3796324,0.009588891
1.29004,-0.3684242,-0.0383661
1.356277,-0.4526929,-0.134013
1.480126,-0.6245533,-0.2211885
1.567726,-0.6880854,-0.2020655
1.272813,-0.5580672,-0.2013083
0.8270336,-0.4092184,-0.2756923
0.6836579,-0.3612131,-0.2972919
0.7413128,-0.3777494,-0.2956955
0.832896,-0.4135907,-0.2885346
0.9398481,-0.451287,-0.2259841
0.9571508,-0.4183257,-0.2230088
0.8944321,-0.3434014,-0.2318607
0.8593279,-0.315941,-0.1629577
0.8278898,-0.2934287,-0.1549724
0.7919642,-0.2517595,-0.1808124
0.7963396,-0.1876363,-0.1981465
0.7884978,-0.1249616,-0.2325946
0.7772484,-0.1204831,-0.2218026
0.7882307,-0.1295355,-0.2183607
0.7779672,-0.1420012,-0.2261887
0.7886739,-0.1649804,-0.213417
0.8263112,-0.1623992,-0.2096809
0.8717597,-0.1505279,-0.191197
0.900683,-0.1303139,-0.181299
0.8567464,-0.113483,-0.1900201
0.8374246,-0.1183175,-0.2140139
0.8963723,-0.1315979,-0.2470322
0.9782849,-0.1613045,-0.2432677
1.063852,-0.2017252,-0.2393066
1.092153,-0.2429639,-0.2543873
1.088768,-0.2723733,-0.2635424
1.138079,-0.2871188,-0.2814295
1.233793,-0.3155657,-0.3140219
1.349052,-0.3489293,-0.3951764
1.44702,-0.3571443,-0.514576
1.449607,-0.349423,-0.544732
1.247402,-0.3638128,-0.4971127
0.9447839,-0.3909671,-0.4983254
0.8771719,-0.3918835,-0.4864282
1.017199,-0.3685356,-0.4422161
1.060897,-0.3208198,-0.4301407
1.033928,-0.2707061,-0.3549902
1.003697,-0.2576943,-0.2651923
0.9221214,-0.265147,-0.2636874
0.8806785,-0.268457,-0.2428634
0.8504968,-0.2768393,-0.1962126
0.7870722,-0.2941946,-0.1938212
0.7577799,-0.2964112,-0.2021615
0.690965,-0.2907162,-0.1952623
0.6207175,-0.2975245,-0.1869039
0.6364656,-0.2998252,-0.1829448
0.6731055,-0.3133082,-0.1764367
0.7231898,-0.3388744,-0.1690369
0.7504602,-0.3393529,-0.1432624
0.7275364,-0.3243797,-0.1148597
0.7399498,-0.315178,-0.1218984
0.7827526,-0.3274578,-0.1217028
0.8352269,-0.3567808,-0.1103078
0.9008102,-0.3796838,-0.1177324
0.9405711,-0.3976812,-0.1172948
0.9660522,-0.4038212,-0.1196478
1.017602,-0.3961455,-0.1295781
1.165588,-0.3728948,-0.1264721
1.34593,-0.3363032,-0.1349388
1.351157,-0.3871802,-0.1750172
1.3294,-0.6278869,-0.2744364
1.442603,-0.8760816,-0.3846519
1.432004,-0.8159089,-0.3529158
1.262773,-0.5751725,-0.2542133
0.9982283,-0.3997397,-0.2471783
0.7090853,-0.2560603,-0.2602577
0.7872575,-0.2907036,-0.2944338
0.9663932,-0.3890238,-0.3459101
0.8813399,-0.3156962,-0.3083274
0.9026706,-0.3387049,-0.2474304
0.8753063,-0.3467457,-0.2023399
0.7270133,-0.2643144,-0.1894548
0.7497693,-0.3206634,-0.219329
0.6864284,-0.3025202,-0.2019432
0.6314745,-0.2767298,-0.204325
0.6841185,-0.3035895,-0.2345004
0.658098,-0.2370729,-0.232876
0.7144366,-0.2310631,-0.2548267
0.7680036,-0.2107761,-0.2513285
0.7647194,-0.1733768,-0.2462592
0.8208671,-0.1821371,-0.2836117
0.9172736,-0.1619588,-0.2994283
1.02961,-0.1887516,-0.300346
0.9923905,-0.190155,-0.2721295
0.9211162,-0.1542473,-0.2484146
0.9545823,-0.1393545,-0.2630903
0.9550284,-0.1365834,-0.2626323
0.9981727,-0.1899464,-0.26404
1.060578,-0.2252453,-0.2741614
1.094312,-0.243804,-0.285803
1.194637,-0.2663126,-0.2997177
1.298801,-0.2867913,-0.3287326
1.40197,-0.3108177,-0.4416396
1.4859,-0.2333168,-0.5520764
1.447203,-0.172655,-0.5069617
1.245926,-0.2621032,-0.4149802
0.9293543,-0.367942,-0.4053411
0.7828818,-0.4110111,-0.3895431
0.8934247,-0.4129408,-0.372172
1.02347,-0.3853463,-0.3868859
1.106021,-0.323355,-0.3385109
1.013798,-0.280569,-0.2587145
0.8000424,-0.2684114,-0.2104727
0.8069408,-0.2496826,-0.2187521
0.8512206,-0.2628613,-0.2445739
0.7855574,-0.2800805,-0.208547
0.785905,-0.2923076,-0.2035729
0.717199,-0.3157332,-0.2033518
0.6557277,-0.3106423,-0.1724522
0.7098702,-0.3111963,-0.2027729
0.7087643,-0.3170259,-0.2060808
0.718075,-0.3129444,-0.1904996
0.7234768,-0.3204077,-0.1851062
0.6741091,-0.3272736,-0.1370884
0.6730394,-0.3424599,-0.1260214
0.7226806,-0.3586201,-0.1326995
0.8139213,-0.3898212,-0.1200083
0.8554162,-0.4324409,-0.1148219
0.8416822,-0.4209614,-0.1087798
0.8667844,-0.3870037,-0.1127259
0.8859667,-0.3674177,-0.1033091
0.9377799,-0.3546067,-0.07905787
1.059156,-0.3698799,-0.05768721
1.208413,-0.3891499,-0.07734972
1.355582,-0.443596,-0.192053
1.423954,-0.6206711,-0.3275877
1.429577,-0.7899696,-0.3559289
1.38991,-0.7206662,-0.2757379
1.156854,-0.5351067,-0.2418197
0.7963032,-0.4585053,-0.2887078
0.718532,-0.4170423,-0.3047078
0.8733972,-0.4267795,-0.30177
0.8795705,-0.4827179,-0.2808244
0.9108564,-0.4523324,-0.236978
0.9835228,-0.4456222,-0.2255506
0.8711132,-0.4013387,-0.2252716
0.7894568,-0.2805736,-0.2234828
0.7639718,-0.2668161,-0.2188538
0.738795,-0.2594579,-0.213263
0.7751064,-0.2508595,-0.2283443
0.7596289,-0.2806661,-0.2495937
0.7570508,-0.2722633,-0.2721246
0.7728273,-0.2722811,-0.2888344
0.756142,-0.2409885,-0.2955137
0.7846002,-0.2079656,-0.2822017
0.7879671,-0.2079567,-0.2460139
0.7724586,-0.2001341,-0.2397769
0.7812092,-0.2122541,-0.2650268
0.8305355,-0.1945675,-0.2861521
0.9380544,-0.1721543,-0.28789
0.9874928,-0.1668214,-0.2588783
0.9922626,-0.1526144,-0.2321808
1.007508,-0.1482983,-0.2387389
1.007868,-0.1044874,-0.2754108
1.023533,-0.09516488,-0.3044871
1.059853,-0.1882715,-0.2853282
1.123186,-0.3127649,-0.2659178
1.178535,-0.4360374,-0.2915069
0.7773716,-0.3650533,-0.2236078
0.8021245,-0.3461367,-0.2466938
0.8212973,-0.3536251,-0.2475291
0.8964162,-0.4171489,-0.1918938
0.969986,-0.4428435,-0.1327999
1.082194,-0.455519,-0.1446817
1.296833,-0.4314878,-0.1667048
1.4658,-0.4289148,-0.1627531
1.440743,-0.4939023,-0.2256212
1.335486,-0.5844607,-0.2864301
1.240434,-0.6524391,-0.2817731
1.016908,-0.5504249,-0.3124004
0.8297981,-0.3952486,-0.3440542
0.8332018,-0.3336294,-0.3295775
0.8246608,-0.2407283,-0.3024863
0.8601573,-0.2153799,-0.237696
0.978043,-0.3090384,-0.1963236
1.002919,-0.346584,-0.2221477
0.9388868,-0.3521519,-0.224985
0.8286106,-0.3578739,-0.2180431
0.695589,-0.2624845,-0.2560499
0.5855259,-0.08638196,-0.2923414
0.5415063,-0.01004256,-0.3109231
0.5615271,-0.06627191,-0.3298448
0.6015609,-0.1048763,-0.3335289
0.6774947,-0.1650051,-0.3070574
0.7432702,-0.2660736,-0.2533365
0.7472161,-0.2605305,-0.2094164
0.7816077,-0.1869287,-0.2185407
0.9112208,-0.09613852,-0.2609347
1.051433,-0.01354428,-0.2860718
1.136581,-0.04555523,-0.2867206
1.236157,-0.1205092,-0.2855538
1.314731,-0.2049316,-0.3042536
1.312309,-0.3362412,-0.3746188
1.371999,-0.3758786,-0.5198574
1.481269,-0.3273457,-0.6608923
1.441363,-0.2929803,-0.6730298
1.197466,-0.2639525,-0.6184872
0.9029552,-0.3083049,-0.5890377
0.8694528,-0.392538,-0.5285084
1.068235,-0.3755722,-0.4723371
1.142185,-0.3135814,-0.4393852
1.096519,-0.2745807,-0.358513
1.031035,-0.2520887,-0.2971051
0.9339511,-0.2612752,-0.2940586
0.8770263,-0.2632546,-0.2976127
0.7877094,-0.2733186,-0.2961082
0.7007832,-0.3145108,-0.2861062
0.6793114,-0.3328918,-0.2855176
0.5918268,-0.3383799,-0.2874013
0.5525395,-0.3091507,-0.267875
0.5900048,-0.2325413,-0.2407209
0.5600537,-0.1970195,-0.211974
0.5726856,-0.2210575,-0.1914876
0.6416568,-0.2834976,-0.1793294
0.7039192,-0.3479324,-0.170694
0.7648489,-0.3639403,-0.1801557
0.7986809,-0.3696842,-0.1910773
0.9078279,-0.4070887,-0.1849289
1.102921,-0.4429086,-0.1676838
1.252424,-0.4448062,-0.1623653
1.288762,-0.4527309,-0.2302862
1.268088,-0.5332345,-0.3645615
1.334326,-0.6671399,-0.4114191
1.354393,-0.7024472,-0.2930294
1.149563,-0.5471163,-0.1971689
0.8456009,-0.3526213,-0.2544464
0.6848809,-0.2712101,-0.2852652
0.8503277,-0.2865124,-0.222685
1.051626,-0.3413514,-0.2154348
1.026384,-0.3867814,-0.2404221
1.001249,-0.3863229,-0.2570697
0.9273593,-0.3495986,-0.2980367
0.7570344,-0.3117517,-0.3026898
0.6705593,-0.2562311,-0.3041649
0.6084933,-0.2029462,-0.3431046
0.5778945,-0.2107804,-0.3491476
0.6010736,-0.2353152,-0.3172174
0.6213337,-0.2485975,-0.2674153
0.6687195,-0.2467129,-0.2328586
0.7081063,-0.2030959,-0.2367298
0.7379756,-0.1324261,-0.2455233
0.8061077,-0.07230191,-0.2551517
0.9314814,-0.1066172,-0.2648375
1.07792,-0.1922984,-0.2653884
1.136308,-0.2102495,-0.2532096
1.133816,-0.1914092,-0.2418221
1.184139,-0.175074,-0.2645211
1.265289,-0.2335645,-0.3107982
1.307952,-0.3667232,-0.4095357
1.352806,-0.4265355,-0.5977011
1.390172,-0.4216994,-0.707817
1.282273,-0.4364426,-0.616349
1.074698,-0.4846357,-0.5398668
0.9779676,-0.5086315,-0.5557145
1.022173,-0.4353918,-0.4723936
1.074157,-0.30237,-0.38157
1.083792,-0.2113062,-0.386394
1.040755,-0.2418412,-0.3493994
0.9290125,-0.2732606,-0.2884243
0.860017,-0.2342942,-0.2475381
0.8396492,-0.2636656,-0.222593
0.7058403,-0.3059402,-0.2413088
0.5241122,-0.314786,-0.2483918
0.5079875,-0.3047817,-0.2429299
0.5833916,-0.2247331,-0.2298853
0.5671092,-0.181602,-0.1979516
0.5607896,-0.1827984,-0.2004066
0.5955799,-0.2113521,-0.1949659
0.6017965,-0.3180654,-0.1602583
0.68409,-0.3990006,-0.1546664
0.7562169,-0.4452145,-0.1631576
0.7902557,-0.4837083,-0.1856307
0.8906771,-0.508866,-0.2224381
0.9225011,-0.5205568,-0.2087485
1.002712,-0.4659111,-0.1545981
1.23255,-0.444819,-0.126761
1.330851,-0.4663222,-0.1575753
1.310906,-0.4711942,-0.2737697
1.374427,-0.5669397,-0.3607926
1.567757,-0.6910601,-0.2568751
1.676834,-0.700407,-0.1523988
1.199128,-0.5690795,-0.2629011
0.4688689,-0.412954,-0.349658
0.4400244,-0.3960187,-0.2811971
0.818071,-0.4590037,-0.2541027
0.965854,-0.5042844,-0.2534953
1.047001,-0.5073321,-0.2684387
1.007676,-0.4633127,-0.327905
0.8606104,-0.4022563,-0.2640715
0.7569391,-0.3131393,-0.1977207
0.6259842,-0.2122829,-0.2645624
0.6296227,-0.1381939,-0.3054896
0.6322719,-0.1167288,-0.3423861
0.5666391,-0.1538504,-0.3784366
0.6578466,-0.2250055,-0.3430114
0.6955733,-0.2708224,-0.3128019
0.6989089,-0.2325367,-0.2996977
0.7410004,-0.1753984,-0.2948527
0.7527763,-0.130998,-0.2993562
0.8630632,-0.09024949,-0.283023
0.8896342,-0.08204667,-0.276966
0.8736124,-0.0731333,-0.291365
1.016442,-0.1191221,-0.2972881
1.151986,-0.2352813,-0.2787105
1.260268,-0.335096,-0.222367
1.3242,-0.404097,-0.1553132
1.315417,-0.3768881,-0.1420979
1.312793,-0.3042385,-0.2350729
1.326905,-0.2711985,-0.4215084
1.329411,-0.1808264,-0.5540759
1.200354,-0.1316486,-0.5267145
0.9626177,-0.2242557,-0.5370597
0.8454535,-0.3331237,-0.6521288
0.9928016,-0.4113922,-0.6209738
1.145531,-0.3669324,-0.5429791
1.046739,-0.2368921,-0.5257875
0.9909475,-0.2269694,-0.406563
1.001297,-0.2805354,-0.3638803
0.9307801,-0.3391179,-0.3859496
0.9593743,-0.3875998,-0.3010872
0.9297265,-0.3746649,-0.2868351
0.7933811,-0.3420997,-0.271749
0.7243258,-0.2515625,-0.2252959
0.651666,-0.1928043,-0.2595672
0.6275465,-0.224517,-0.2511505
0.6145852,-0.2248226,-0.2376939
0.5430748,-0.2571946,-0.2318958
0.5204605,-0.3181835,-0.200119
0.5366434,-0.3748164,-0.2257785
0.6327272,-0.4457842,-0.2458748
0.7910807,-0.4340616,-0.2433139
0.8617988,-0.3922238,-0.2480022
0.8859487,-0.3841668,-0.213524
1.016587,-0.4080405,-0.1514934
1.239204,-0.4307671,-0.1239859
1.353973,-0.3277715,-0.1744118
1.345562,-0.2651918,-0.2986812
1.370969,-0.4811648,-0.4332201
1.403874,-0.7339053,-0.4441118
1.267595,-0.7172422,-0.3868261
0.9200909,-0.6210094,-0.3717589
0.6558026,-0.6165741,-0.3024315
0.6930872,-0.531249,-0.3103766
0.8195186,-0.4596696,-0.4273649
0.8458309,-0.5020095,-0.4233731
0.8742839,-0.4891624,-0.3856751
0.9352885,-0.464816,-0.3252446
0.9198117,-0.43361,-0.2511398
0.8597594,-0.3216498,-0.3005892
0.7798378,-0.2025377,-0.3037116
0.6794636,-0.111339,-0.2620282
0.6246827,-0.04356359,-0.2683876
0.5977467,0.02996776,-0.2566365
0.625703,-0.01298622,-0.2677218
0.6964642,-0.1828828,-0.2625999
0.7307425,-0.222097,-0.2527993
0.7825815,-0.2170347,-0.2680178
0.8715215,-0.2263507,-0.2600699
0.9473523,-0.1396734,-0.2672443
0.9640374,-0.1173672,-0.249614
0.9560404,-0.1623679,-0.2203106
1.0184,-0.2447393,-0.2342152
1.112642,-0.3776829,-0.2460749
1.224573,-0.4068744,-0.2795145
1.385653,-0.3848622,-0.3730816
1.526208,-0.359904,-0.5034248
1.58077,-0.2698628,-0.5665989
1.448338,-0.2040085,-0.5276841
1.105903,-0.2452475,-0.5200336
0.8761409,-0.3246358,-0.565942
1.058597,-0.3286078,-0.5812798
1.305105,-0.3040239,-0.5657218
1.202617,-0.2618895,-0.51143
1.031054,-0.1780732,-0.3737276
0.9473948,-0.1705057,-0.2509555
0.8580709,-0.2622301,-0.2554066
0.8507822,-0.3804419,-0.2557685
0.7863428,-0.4044865,-0.2133627
0.6975505,-0.3520162,-0.2426465
0.6314434,-0.3324341,-0.2481042
0.4943639,-0.2443395,-0.2266197
0.5105128,-0.1505292,-0.2634509
0.552807,-0.1719241,-0.2479636
0.5511055,-0.2462726,-0.1947654
0.6328284,-0.370246,-0.1474101
0.6195869,-0.4618321,-0.1092972
0.6431887,-0.4899753,-0.1403791
0.7357394,-0.498983,-0.1536579
0.8041241,-0.477897,-0.1571014
0.8804781,-0.4901482,-0.1632316
0.9207651,-0.478161,-0.1108556
1.067217,-0.4172088,-0.1050255
1.176515,-0.3841131,-0.1295473
1.164854,-0.3645451,-0.1810239
1.196606,-0.4793841,-0.2894882
1.183733,-0.6863295,-0.325137
1.205854,-0.7481208,-0.3269115
1.182565,-0.7183213,-0.3417962
0.9870638,-0.6811986,-0.3046221
0.8008138,-0.6073556,-0.2633173
0.7188699,-0.5167583,-0.2638367
0.8366536,-0.4413388,-0.2638066
0.9639001,-0.3819867,-0.2488232
0.9433504,-0.3114877,-0.2550801
0.923592,-0.2739245,-0.2478229
0.8269857,-0.2693728,-0.2405703
0.7139691,-0.2140232,-0.2896907
0.6553552,-0.1366005,-0.3353164
0.5975145,-0.114961,-0.3497341
0.630319,-0.1444099,-0.321352
0.660878,-0.1813482,-0.2701828
0.677039,-0.2261446,-0.2615983
0.7394546,-0.2580631,-0.276152
0.78867,-0.2542403,-0.2973135
0.8785011,-0.256725,-0.2918007
0.9592597,-0.2405231,-0.2650573
0.9764361,-0.1897243,-0.2710518
1.004419,-0.1647455,-0.3053527
1.087828,-0.1855061,-0.3719187
1.196732,-0.2446181,-0.3943014
1.222818,-0.3103779,-0.3725437
1.189236,-0.3583361,-0.4230185
1.196975,-0.4083546,-0.506539
1.290279,-0.449927,-0.5971595
1.368602,-0.4046026,-0.6664028
1.227773,-0.3117748,-0.6463862
1.02316,-0.3260935,-0.6098053
0.9955126,-0.3866067,-0.5462952
1.019047,-0.4204987,-0.4052421
0.9999709,-0.4639252,-0.3169803
0.9983841,-0.4378533,-0.3188665
1.001811,-0.3702815,-0.3160909
0.9786721,-0.306865,-0.311921
0.9275076,-0.2653691,-0.2841207
0.8354657,-0.3162423,-0.2106386
0.7404089,-0.3323669,-0.1819157
0.6438315,-0.2975759,-0.2056753
0.5080298,-0.2812041,-0.2249658
0.4837018,-0.220375,-0.2452042
0.5564288,-0.2150271,-0.2968922
0.5326594,-0.294097,-0.325521
0.5729751,-0.391582,-0.2593732
0.7024223,-0.4995037,-0.2148912
0.7381527,-0.5140332,-0.2540356
0.7755874,-0.4533827,-0.2691056
0.8014753,-0.4104858,-0.2295861
0.8396817,-0.3692874,-0.1507416
0.9887593,-0.2897393,-0.09045564
1.112655,-0.1552678,-0.1514986
1.255476,-0.08939494,-0.2788029
1.365243,-0.2251746,-0.315194
1.303624,-0.5833418,-0.2813499
1.290192,-0.9390602,-0.2764782
1.271173,-0.8591285,-0.2905043
1.016248,-0.61595,-0.3214674
0.7797291,-0.6693223,-0.355667
0.8438604,-0.6541732,-0.3574612
0.9411105,-0.5645845,-0.3489179
0.8629863,-0.5421028,-0.3580111
0.8730039,-0.3811429,-0.3673363
0.8869069,-0.371788,-0.3373835
0.7863291,-0.3826304,-0.2907862
0.7994561,-0.274812,-0.2534301
0.7696457,-0.3359808,-0.2464274
0.6753663,-0.2442721,-0.2865834
0.6836096,-0.112937,-0.31467
0.6876177,-0.1419932,-0.3266533
0.7184141,-0.1024356,-0.3342107
0.7295955,-0.1627893,-0.3169769
0.7052712,-0.2253419,-0.2867936
0.7325049,-0.2436003,-0.2411653
0.7523205,-0.2945848,-0.2220385
0.8209711,-0.224354,-0.2571594
0.8622791,-0.1666986,-0.2832067
0.8211539,-0.1218109,-0.2557051
0.8405323,-0.08414858,-0.2263273
0.9291475,-0.1214611,-0.2364198
1.091003,-0.1428457,-0.2238225
1.203025,-0.2363611,-0.1879618
1.180626,-0.3686092,-0.1657958
1.226902,-0.443215,-0.1665071
1.371422,-0.4496615,-0.2480222
1.456703,-0.3356879,-0.4216331
1.464508,-0.1770661,-0.6333197
1.412645,-0.08036034,-0.7446562
1.208026,-0.1261886,-0.7262102
0.9938418,-0.2655867,-0.7421369
1.076512,-0.3886657,-0.7261705
1.204352,-0.4366336,-0.6044322
1.084009,-0.3400259,-0.4728999
0.948308,-0.2474366,-0.3041173
0.8150754,-0.2250032,-0.2408584
0.7233024,-0.1917897,-0.3269623
0.8135271,-0.2269579,-0.3092082
0.7717972,-0.2642976,-0.2827008
0.658654,-0.2791413,-0.3084629
0.6122777,-0.3267415,-0.2333113
0.4559411,-0.3082391,-0.1717691
0.4491902,-0.264882,-0.1654998
0.5465185,-0.2330611,-0.1863145
0.5615336,-0.2247774,-0.2239767
0.6060222,-0.3200484,-0.1787478
0.5941461,-0.4517464,-0.1140393
0.7004377,-0.545332,-0.05869753
0.9396668,-0.5490393,-0.04064467
1.048327,-0.4490945,-0.1486269
1.062079,-0.2957954,-0.2701388
1.06208,-0.177392,-0.3153069
1.199729,-0.2789069,-0.2648723
1.440098,-0.5588645,-0.1909552
1.5854,-0.8042845,-0.1932918
1.570219,-0.8594439,-0.1985402
1.349298,-0.6501027,-0.235273
1.020055,-0.4067088,-0.3420528
0.7717335,-0.2706978,-0.4314882
0.800337,-0.2265572,-0.4446022
0.951635,-0.3097223,-0.380407
0.9753627,-0.3572415,-0.3540105
1.008414,-0.4089509,-0.3669102
0.9905702,-0.4896708,-0.34759
0.9146883,-0.4578015,-0.3125726
0.86375,-0.478073,-0.2639458
0.7319515,-0.438268,-0.2825917
0.6745879,-0.2433246,-0.3208039
0.6584993,-0.1229525,-0.2918849
0.5867532,-0.03822119,-0.2921439
0.5912181,-0.02310912,-0.2760894
0.6239081,-0.07338163,-0.2356098
0.6829834,-0.08469389,-0.2508936
0.7225704,-0.1281502,-0.240972
0.7181624,-0.1515338,-0.2136511
0.7671371,-0.1595414,-0.2279304
0.8359072,-0.1735557,-0.2388462
0.9428865,-0.1576536,-0.239778
1.040662,-0.1899645,-0.2541603
1.103368,-0.2283244,-0.283784
1.226659,-0.250664,-0.3291727
1.342769,-0.3078271,-0.3711146
1.410761,-0.3703087,-0.4146462
1.512735,-0.3914578,-0.489374
1.58527,-0.3153742,-0.5203992
1.346457,-0.2518797,-0.4981366
0.9618647,-0.3185548,-0.5492347
0.9642986,-0.3900221,-0.604845
1.104793,-0.387925,-0.5551001
1.038285,-0.3588591,-0.4443241
0.9628304,-0.3279857,-0.299001
0.8365901,-0.3207151,-0.2338131
0.7581411,-0.3309947,-0.2937597
0.8473841,-0.3199502,-0.3020735
0.8297042,-0.3009442,-0.2679304
0.7452324,-0.2930954,-0.2738844
0.6674349,-0.2825378,-0.2404173
0.5680066,-0.2672959,-0.2116847
0.5819248,-0.2428483,-0.2203939
0.6156249,-0.2330283,-0.1979646
0.6139128,-0.2536463,-0.192809
0.6014588,-0.2844249,-0.1966032
0.5710873,-0.3575596,-0.1708889
0.6734464,-0.4725964,-0.1476534
0.8579597,-0.5548296,-0.1224198
0.9764892,-0.5571515,-0.1390486
1.012687,-0.5087946,-0.1824498
1.0052,-0.4800416,-0.170295
1.075435,-0.4561705,-0.1151002
1.190793,-0.3954853,-0.05188422
1.244185,-0.4063983,-0.0603092
1.30847,-0.6256793,-0.1441738
1.518123,-0.8475259,-0.1823
1.661214,-0.7704372,-0.1915785
1.293628,-0.6125603,-0.2701124
0.7264022,-0.5431915,-0.3788925
0.6129964,-0.4270921,-0.3731896
0.8055633,-0.4662852,-0.3173198
0.9385269,-0.5771139,-0.344154
0.9809528,-0.4972931,-0.316475
0.9390428,-0.4742939,-0.2685855
0.8403752,-0.4482337,-0.2706281
0.7601564,-0.3493495,-0.210445
0.7236417,-0.3202489,-0.2193001
0.692253,-0.1835565,-0.2842679
0.6503662,-0.08335965,-0.3105732
0.630172,-0.1060678,-0.3723073
0.6525583,-0.09930584,-0.3740111
0.7017395,-0.1698389,-0.3399624
0.7593337,-0.2236659,-0.3125845
0.7970098,-0.222648,-0.2654134
0.7867428,-0.2145856,-0.2861633
0.824617,-0.1790707,-0.317392
0.9346968,-0.2220516,-0.3395558
0.9918487,-0.2653684,-0.3451074
1.003846,-0.3151637,-0.3025163
1.042504,-0.384654,-0.3010802
1.135445,-0.3419833,-0.3133439
1.216709,-0.3159424,-0.3475965
1.203458,-0.3537926,-0.4269303
1.197492,-0.3633451,-0.5112165
1.25903,-0.3640369,-0.5982695
1.280118,-0.3634272,-0.5726798
1.169986,-0.3596683,-0.5146789
1.032183,-0.3572167,-0.5680435
1.055531,-0.3589514,-0.5741357
1.154833,-0.3346775,-0.5358326
1.162372,-0.2550588,-0.5090091
1.054641,-0.1413746,-0.401419
0.8798808,-0.07979748,-0.3285511
0.8147113,-0.1170756,-0.3460997
0.8477868,-0.1525943,-0.3457675
0.8081632,-0.2429153,-0.3410403
0.7536852,-0.4413581,-0.3301945
0.6810289,-0.5011163,-0.2970437
0.5696178,-0.4259801,-0.2754084
0.543518,-0.3814298,-0.2713829
0.558665,-0.2795742,-0.2747175
0.5578603,-0.2006073,-0.2656435
0.5764846,-0.2410154,-0.2573183
0.6214154,-0.2782279,-0.2273939
0.693825,-0.3567062,-0.1649832
0.7645093,-0.4491418,-0.1550775
0.8387068,-0.4560588,-0.1773375
0.8974787,-0.4724213,-0.1757867
0.9389097,-0.4721117,-0.1806638
1.057747,-0.4328232,-0.1767485
1.227724,-0.394436,-0.1876432
1.325797,-0.3669321,-0.3000855
1.365367,-0.5092757,-0.4247703
1.411405,-0.7258283,-0.4000551
1.344202,-0.7377109,-0.3351996
1.134353,-0.6138512,-0.3621484
0.9280418,-0.47249,-0.3956005
0.7676693,-0.3596253,-0.4314956
0.8087219,-0.3808086,-0.4463834
0.9532768,-0.4370841,-0.3798991
0.9042672,-0.4105866,-0.3345397
0.8674042,-0.408359,-0.2949103
0.8418896,-0.4089539,-0.242368
0.7379802,-0.3649866,-0.2410125
0.7390233,-0.3256974,-0.2259814
0.6711177,-0.2179535,-0.2161949
0.6119365,-0.1202361,-0.2464431
0.6724631,-0.1078983,-0.2778712
0.6547064,-0.0977673,-0.2887644
0.7109424,-0.1439962,-0.2673515
0.7833464,-0.2018357,-0.2730266
0.792201,-0.2139373,-0.2902759
0.8704036,-0.2268573,-0.3050916
0.8964484,-0.2248816,-0.3302918
0.9182513,-0.2383653,-0.301051
0.9545181,-0.2191754,-0.2759417
0.9711034,-0.1624711,-0.2834925
1.036553,-0.145038,-0.2762813
1.038878,-0.13749,-0.2746628
1.049667,-0.161259,-0.268491
1.103815,-0.19556,-0.2802815
1.109912,-0.2378885,-0.3407157
1.200255,-0.3357286,-0.4360042
1.349862,-0.3731898,-0.5252159
1.438781,-0.3021527,-0.5588843
1.4287,-0.2471071,-0.5554968
1.212784,-0.2998882,-0.5329494
0.8824383,-0.3664293,-0.5174739
0.7981967,-0.3635708,-0.5293627
0.9884884,-0.3707634,-0.5369821
1.068391,-0.3537449,-0.5319393
1.03107,-0.2754776,-0.483886
1.050832,-0.2118559,-0.4089634
0.9728652,-0.2029751,-0.3534958
0.8319817,-0.2261896,-0.2892208
0.8215142,-0.2336105,-0.2708285
0.8506252,-0.2918294,-0.293332
0.6162692,-0.2490048,-0.1687998
0.6261811,-0.2801836,-0.1460218
0.6641075,-0.3398555,-0.122098
0.7368249,-0.3887837,-0.1136986
0.828901,-0.4265854,-0.1129161
0.9019043,-0.4264202,-0.1189008
0.9888846,-0.4317418,-0.1179066
1.053148,-0.4464794,-0.09023576
1.178527,-0.4172255,-0.0676375
1.300434,-0.341565,-0.09872648
1.312824,-0.2977287,-0.2209906
1.356498,-0.4800688,-0.341389
1.475227,-0.7899,-0.3261149
1.491904,-0.8351644,-0.2892746
1.175517,-0.5987284,-0.3537452
0.705308,-0.3614835,-0.3800045
0.5696224,-0.2669247,-0.334887
0.7204679,-0.2927553,-0.3130254
0.8267738,-0.3427003,-0.2595915
0.9177448,-0.3996412,-0.2074548
0.9480601,-0.4355177,-0.2175354
0.8292644,-0.3794003,-0.2162736
0.7669853,-0.3142207,-0.2145146
0.7023156,-0.251598,-0.242547
0.577333,-0.1383718,-0.2731833
0.5948048,-0.09943185,-0.2800205
0.6549428,-0.1580086,-0.2607835
0.7083605,-0.2055186,-0.2615244
0.758869,-0.2172157,-0.3075866
0.7631748,-0.1920364,-0.3517005
0.8691219,-0.1633935,-0.3176577
0.9569778,-0.178799,-0.2613525
0.9401742,-0.1885047,-0.2429823
0.968448,-0.1435162,-0.2016262
1.045108,-0.08029105,-0.2021321
1.155907,-0.05191782,-0.2862728
1.223008,-0.1452913,-0.3555583
1.236529,-0.3339917,-0.404167
1.328401,-0.4185028,-0.483105
1.529947,-0.3505085,-0.5943158
1.646684,-0.2032161,-0.6423661
1.364633,-0.07729013,-0.611172
0.9294111,-0.1250303,-0.6087232
0.8636158,-0.250906,-0.5623795
1.017492,-0.2810596,-0.4447606
1.106447,-0.2757005,-0.3885323
1.145665,-0.2588303,-0.3661198
1.028621,-0.2218291,-0.3161407
0.8250677,-0.2185824,-0.2673217
0.7823349,-0.2255661,-0.2556598
0.7889128,-0.2569427,-0.2588214
0.7259416,-0.3280117,-0.2349996
0.6613944,-0.3824384,-0.2166481
0.5775763,-0.3848792,-0.1941095
0.5297073,-0.3257244,-0.174698
0.5437018,-0.2833691,-0.1856921
0.5481553,-0.2776675,-0.1901711
0.570959,-0.2909081,-0.1995207
0.60929,-0.3951197,-0.1718976
0.6854976,-0.5037036,-0.1233894
0.7918191,-0.4591145,-0.1503285
0.8376736,-0.2686845,-0.176818
0.9103333,-0.1065071,-0.1783883
0.972486,-0.1264779,-0.1877804
1.005605,-0.2419056,-0.1795565
1.238852,-0.33879,-0.1996927
1.422722,-0.4407263,-0.2335482
1.365574,-0.6025047,-0.2682077
1.499142,-0.7857927,-0.3208756
1.669094,-0.7923543,-0.3136273
1.314074,-0.6071089,-0.2908779
0.77597,-0.4693806,-0.3223734
0.678306,-0.382279,-0.3315037
0.8808145,-0.3341605,-0.3385208
1.016403,-0.4178099,-0.361455
1.036624,-0.4691605,-0.3062847
0.964864,-0.4753793,-0.2128555
0.8508577,-0.4519206,-0.1715099
0.7600872,-0.3045207,-0.177942
0.6767935,-0.1805411,-0.2150018
0.59429,-0.08023671,-0.253636
0.558956,-0.04348326,-0.2649444
0.5845105,-0.1319377,-0.2483975
0.6186742,-0.1857633,-0.226141
0.6668574,-0.2217284,-0.2227122
0.7188002,-0.1845522,-0.2643373
0.7416853,-0.1068565,-0.3372296
0.8254025,-0.1303125,-0.346065
0.9273989,-0.1455069,-0.3080974
0.9258745,-0.1759344,-0.3071305
0.9299178,-0.2255394,-0.303228
1.040184,-0.2246183,-0.2894113
1.169986,-0.2155194,-0.2841839
1.20006,-0.1951761,-0.2847476
1.145177,-0.2153095,-0.33221
1.163853,-0.2634601,-0.464291
1.326317,-0.2748132,-0.6706415
1.503523,-0.2468368,-0.760198
1.478461,-0.1964571,-0.6296898
1.19023,-0.2201465,-0.5228049
0.9104621,-0.2925529,-0.5313614
0.9128327,-0.3423073,-0.5181268
1.104278,-0.3641715,-0.4555913
1.183979,-0.3205087,-0.360514
1.049078,-0.2887399,-0.2909031
0.8818959,-0.2874585,-0.2728939
0.8014148,-0.2801613,-0.2447053
0.7707094,-0.3077727,-0.238823
0.7596835,-0.3092187,-0.267095
0.7246094,-0.2985281,-0.2742249
0.6282593,-0.3057756,-0.2518534
0.5361126,-0.2858558,-0.1935888
0.5264283,-0.2841372,-0.1591634
0.5455792,-0.272433,-0.1838193
0.5594873,-0.243069,-0.2028705
0.5925541,-0.2458445,-0.2073074
0.6128732,-0.2602699,-0.2083244
0.6469906,-0.3073002,-0.2019992
0.7421345,-0.3845871,-0.1799437
0.8743872,-0.4606448,-0.1311251
0.9678786,-0.4813022,-0.09808262
1.009052,-0.4112267,-0.1033271
1.127007,-0.3304537,-0.1153836
1.303702,-0.3113847,-0.1664636
1.411392,-0.4546304,-0.3045249
1.500602,-0.7481707,-0.3965991
1.540186,-0.8844419,-0.3559032
1.343513,-0.7022086,-0.3455417
0.9670461,-0.4725116,-0.3708905
0.7367015,-0.402946,-0.3249919
0.7965895,-0.3446177,-0.3154654
0.8836979,-0.3033686,-0.3419239
0.8546854,-0.38399,-0.3107107
0.8867838,-0.4439592,-0.2829925
0.8997728,-0.4717057,-0.2335064
0.8081355,-0.479486,-0.1833697
0.7453965,-0.3815288,-0.2383092
0.6612813,-0.240787,-0.2997307
0.6168371,-0.1205,-0.33845
0.6574416,-0.09898272,-0.3738959
0.6692362,-0.1674569,-0.3476049
0.7177054,-0.2365265,-0.3285875
0.7558252,-0.313455,-0.305314
0.7626013,-0.3189379,-0.251993
0.8175346,-0.2678649,-0.2315171
0.8383335,-0.2453904,-0.2165831
0.8392918,-0.1896715,-0.225102
0.8855527,-0.08974763,-0.2503585
0.9650387,0.003025145,-0.2570436
1.018527,-0.02491077,-0.2696509
1.046819,-0.1393337,-0.2584084
1.111938,-0.2062891,-0.2446893
1.171979,-0.345512,-0.2392581
1.236221,-0.4737948,-0.225102
1.299232,-0.4456576,-0.2726964
1.410613,-0.3926511,-0.4196662
1.546508,-0.2483145,-0.5852075
1.331776,-0.1336677,-0.5837758
0.9631394,-0.3009348,-0.5138868
0.9605389,-0.5056803,-0.5806926
1.081522,-0.5609626,-0.5825584
1.092351,-0.5299369,-0.5273876
1.066182,-0.4238132,-0.5097429
0.9503954,-0.2622347,-0.3770396
0.8542491,-0.1644841,-0.3257711
0.8807111,-0.2305829,-0.3793186
0.9044985,-0.2998815,-0.3263111
0.8557769,-0.3380643,-0.2850163
0.7881639,-0.4450123,-0.266924
0.6951169,-0.4623852,-0.2531589
0.5780689,-0.3985957,-0.2655797
0.54547,-0.35662,-0.2391229
0.5561143,-0.279989,-0.2321256
0.5642512,-0.2316084,-0.2409454
0.599412,-0.2342542,-0.2280649
0.5824996,-0.2644128,-0.1880666
0.5820215,-0.3382657,-0.1340845
0.6504655,-0.3733443,-0.1511408
0.728017,-0.3535211,-0.1708395
0.8175466,-0.3174453,-0.1441698
0.8740448,-0.2853614,-0.1418436
0.9359913,-0.305928,-0.1247275
1.027583,-0.33917,-0.08802487
1.185045,-0.334993,-0.06623865
1.40378,-0.3211387,-0.0476854
1.428384,-0.3178885,-0.08677517
1.411381,-0.3859984,-0.2003053
1.545317,-0.5968694,-0.2845534
1.495743,-0.7790843,-0.2776972
1.248863,-0.6986158,-0.2653092
0.8868452,-0.5577015,-0.3051444
0.5615183,-0.566141,-0.3141956
0.7319433,-0.5577392,-0.3066986
0.9601294,-0.5424454,-0.323802
0.8461894,-0.5441808,-0.3136428
0.8678366,-0.4528521,-0.3062521
0.8534604,-0.3971975,-0.25862
0.7070704,-0.3763116,-0.186923
0.7331746,-0.3062966,-0.2379434
0.708416,-0.23127,-0.3045256
0.6953979,-0.1398344,-0.3113299
0.7367716,-0.125847,-0.3359778
0.7016899,-0.1786904,-0.3407224
0.7456834,-0.2125514,-0.3223358
0.7552264,-0.2642181,-0.296678
0.7553723,-0.2931339,-0.2522024
0.809587,-0.3039611,-0.2199157
0.7866251,-0.2784808,-0.2147642
0.808447,-0.1917803,-0.2338634
0.8818652,-0.1247606,-0.2621402
1.003032,-0.1108941,-0.2716877
1.131932,-0.1648472,-0.2410403
1.115748,-0.2091926,-0.2000745
1.103168,-0.2088686,-0.2004002
1.150493,-0.2482665,-0.219403
1.196666,-0.3536524,-0.2720282
1.318321,-0.489152,-0.4278213
1.456841,-0.4872244,-0.5714889
1.470733,-0.3471193,-0.557663
1.310298,-0.271938,-0.5203316
1.060023,-0.2696626,-0.5578523
0.9440839,-0.283395,-0.5557466
1.066431,-0.2755989,-0.5333482
1.19251,-0.2525934,-0.5314463
1.152133,-0.2397255,-0.4544113
1.02797,-0.203767,-0.3158822
0.8490566,-0.2102677,-0.2215773
0.7373632,-0.241329,-0.2344912
0.7259658,-0.2494789,-0.272766
0.6344413,-0.2889217,-0.250057
0.5584967,-0.3060875,-0.2517081
0.543687,-0.3068693,-0.255676
0.5123319,-0.3108882,-0.2324743
0.5659405,-0.2948526,-0.2351578
0.6346297,-0.3038862,-0.2239417
0.6832155,-0.2961213,-0.2685199
0.7429703,-0.2872157,-0.3348675
0.7387963,-0.3350709,-0.2886382
0.7591918,-0.39949,-0.2470902
0.7773429,-0.4484647,-0.2496692
0.7771279,-0.4675969,-0.2277203
0.902422,-0.5102851,-0.2146311
1.005308,-0.5426229,-0.2178942
0.9914756,-0.4910481,-0.2072806
1.061195,-0.4363741,-0.1447985
1.197344,-0.3944404,-0.08111416
1.195659,-0.4085068,-0.1312642
1.169492,-0.5331093,-0.2693121
1.218596,-0.6590787,-0.3695296
1.151571,-0.7022128,-0.3701925
1.039418,-0.5967058,-0.3347322
0.9179629,-0.4556521,-0.3343617
0.753476,-0.4473189,-0.3383186
0.7879342,-0.4504674,-0.3376396
0.9219614,-0.4556906,-0.341491
0.9928434,-0.4865379,-0.3305817
1.009432,-0.4291928,-0.3110767
0.9078202,-0.3630887,-0.2597315
0.8286713,-0.3330005,-0.216593
0.7552123,-0.2919293,-0.232552
0.6556575,-0.2453113,-0.2619375
0.6507431,-0.1854962,-0.3134762
0.6502831,-0.1541729,-0.3550024
0.6709221,-0.1663972,-0.3496544
0.6987074,-0.2072565,-0.3303486
0.6861283,-0.2558393,-0.2896294
0.731478,-0.2604974,-0.2769291
0.8136985,-0.2356166,-0.2859548
0.9161885,-0.2000103,-0.2688903
0.9576856,-0.1381326,-0.2723
0.9474179,-0.09532363,-0.2781646
1.043526,-0.1134528,-0.2720291
1.161546,-0.1515624,-0.2757169
1.250166,-0.2207189,-0.2795943
1.309689,-0.3448167,-0.3119282
1.295579,-0.4428817,-0.3734848
1.303556,-0.4766277,-0.445564
1.347562,-0.432209,-0.5573145
1.339402,-0.3193895,-0.6403872
1.173366,-0.2430376,-0.5655371
0.9359478,-0.2546343,-0.466293
0.9264705,-0.300839,-0.4976416
1.030646,-0.3029109,-0.5080158
1.068684,-0.2863252,-0.4754251
1.152284,-0.2764642,-0.4632513
1.060621,-0.2342138,-0.3760685
0.8143167,-0.2343194,-0.3094197
0.7947279,-0.291034,-0.3313652
0.823369,-0.3594663,-0.3226736
0.7788347,-0.4286816,-0.3013981
0.7575392,-0.4298258,-0.2983667
0.6458061,-0.3958512,-0.2809514
0.5769,-0.3618186,-0.2629527
0.602941,-0.3119739,-0.2649408
0.5970307,-0.273867,-0.2696408
0.6067595,-0.2311822,-0.2506935
0.6111873,-0.2149772,-0.2097258
0.6219749,-0.2507335,-0.1691917
0.6734713,-0.3093719,-0.1964883
0.7349159,-0.3612184,-0.2566993
0.7928213,-0.3841217,-0.237254
0.8122229,-0.438557,-0.158767
0.8340186,-0.4775632,-0.07499908
0.8881834,-0.3989788,-0.06611836
1.013234,-0.3172485,-0.1161578
1.204472,-0.313956,-0.1014041
1.304631,-0.2916644,-0.1039287
1.329345,-0.2694467,-0.1654669
1.373474,-0.3992202,-0.2348954
1.422416,-0.6487823,-0.3154712
1.359844,-0.7840372,-0.305796
0.9540695,-0.7020767,-0.258081
0.5154852,-0.6349677,-0.28017
0.6388966,-0.7201001,-0.295203
0.9033045,-0.7435949,-0.3091631
0.8470162,-0.7009082,-0.3518645
0.8728516,-0.6313493,-0.4003682
0.8456936,-0.4341335,-0.4180688
0.6482144,-0.334051,-0.3733609
0.6787221,-0.3745635,-0.316881
0.7239871,-0.3831633,-0.281331
0.7320337,-0.4162317,-0.2852507
0.7544958,-0.4030162,-0.309939
0.656963,-0.3085597,-0.3172763
0.6669692,-0.1949797,-0.3556418
0.6755121,-0.08382665,-0.406552
0.6796773,-0.08966856,-0.4271036
0.7803419,-0.168322,-0.4336089
0.7869158,-0.2505962,-0.4078296
0.8170993,-0.3264779,-0.3718928
0.8353461,-0.3149501,-0.3704864
0.8363828,-0.2687239,-0.4019716
0.8822341,-0.2304629,-0.4185273
0.8760274,-0.202163,-0.339864
0.9253164,-0.2027989,-0.2112707
0.9118971,-0.1750011,-0.1658087
0.8653381,-0.1211446,-0.1892256
0.9452259,-0.08381912,-0.1815393
0.9963207,-0.144453,-0.1529606
1.053288,-0.2726411,-0.1547987
1.141448,-0.3509362,-0.1690445
1.258426,-0.4544004,-0.1913479
1.373938,-0.4561533,-0.2450551
1.377701,-0.2996053,-0.3675459
1.422704,-0.2374068,-0.5386483
1.436132,-0.1985618,-0.582924
1.213143,-0.2236788,-0.5061535
0.9205131,-0.359946,-0.5157233
0.8448208,-0.3712431,-0.5889626
1.051942,-0.3849545,-0.6378916
1.187565,-0.382101,-0.6261441
1.094435,-0.2587773,-0.48013
0.9912189,-0.2001739,-0.3123722
0.9151694,-0.1888458,-0.2787791
0.9287357,-0.2439411,-0.3159039
0.9864463,-0.3062401,-0.3020291
0.9201488,-0.3078792,-0.2702714
0.8267546,-0.3448535,-0.2565529
0.6878547,-0.3016459,-0.1903333
0.5059346,-0.2251052,-0.1653628
0.4573236,-0.1767717,-0.2284335
0.4620051,-0.1190689,-0.2657877
0.4858243,-0.1463496,-0.293099
0.5768185,-0.1983534,-0.2628071
0.6416896,-0.2836525,-0.1888461
0.7132872,-0.3778542,-0.1724871
0.8202025,-0.4021811,-0.1404856
0.9514899,-0.4577868,-0.1159976
1.077595,-0.4778557,-0.1101455
1.056848,-0.4079562,-0.0690678
1.013049,-0.3328743,-0.06342829
1.083536,-0.2908465,-0.07608243
1.14678,-0.2709462,-0.08349227
1.238308,-0.2337494,-0.1038647
1.326639,-0.2835347,-0.1247159
1.345792,-0.480972,-0.1691715
1.423057,-0.6690941,-0.1851434
1.40203,-0.658726,-0.1644291
1.141401,-0.5439131,-0.1813266
0.8706068,-0.5336899,-0.1961642
0.7846902,-0.437348,-0.1901631
0.8756135,-0.2736611,-0.2073482
0.9235018,-0.2792921,-0.2312397
0.9228799,-0.3049992,-0.2418741
0.9861991,-0.3437876,-0.2107187
0.9365375,-0.3754977,-0.1521663
0.8648105,-0.315752,-0.1610333
0.8356339,-0.2799076,-0.2151464
0.7240531,-0.2138502,-0.2528676
0.6726121,-0.1656072,-0.2892702
0.6334325,-0.1760478,-0.3090902
0.6058955,-0.1634411,-0.3193003
0.6795925,-0.1742626,-0.2958993
0.6984985,-0.1568509,-0.2419919
0.6996457,-0.1307584,-0.2355714
0.7534583,-0.1078962,-0.2121165
0.8764407,-0.06367126,-0.1739282
1.028176,-0.08947738,-0.2011145
1.070848,-0.119981,-0.2160935
1.092926,-0.1446716,-0.2163169
1.129335,-0.1932999,-0.257242
1.14521,-0.2116272,-0.3035774
1.203802,-0.2924019,-0.3448664
1.323762,-0.4489148,-0.4543868
1.48195,-0.5346923,-0.6360259
1.532892,-0.4900287,-0.6840386
1.431778,-0.3769808,-0.5867867
1.238831,-0.2602766,-0.5628436
1.021346,-0.2165357,-0.5487141
0.9857303,-0.2899169,-0.4407725
1.033939,-0.3286545,-0.2907774
0.9490612,-0.2828096,-0.1695501
0.8670807,-0.2463509,-0.1796266
0.7745742,-0.1778554,-0.187796
0.6729367,-0.1422318,-0.1379731
0.7510428,-0.2044794,-0.1805094
0.7978112,-0.2626071,-0.1867351
0.7327196,-0.3109888,-0.1683323
0.7514272,-0.341372,-0.2109633
0.7350365,-0.3563597,-0.1913929
0.7165964,-0.3799558,-0.1958762
0.7492561,-0.3399612,-0.2110239
0.7083431,-0.2816921,-0.1805216
0.6713133,-0.2236569,-0.164605
0.6027284,-0.1518563,-0.05582368
0.5540967,-0.1958694,0.07290471
0.704715,-0.3268872,0.09735232
0.9163701,-0.4502258,0.04840154
1.045458,-0.5032809,-0.02765836
1.105097,-0.4594082,-0.03180874
1.17531,-0.4623433,-0.001374802
1.248752,-0.4591117,0.008460095
1.239721,-0.4403524,-0.02082546
1.277169,-0.6203828,-0.08665967
1.443775,-0.7853794,-0.09504618
1.496638,-0.6658247,-0.1268416
1.143217,-0.4412349,-0.2493804
0.6699037,-0.2965339,-0.3632847
0.6866713,-0.2685614,-0.3949458
0.9340458,-0.3717773,-0.3803999
0.9598302,-0.4913105,-0.3784902
0.97364,-0.5056251,-0.2830424
0.9169887,-0.4827245,-0.1767483
0.7684209,-0.4171134,-0.1886855
0.7630444,-0.2596088,-0.1879703
0.7337103,-0.07894364,-0.2156969
0.6770395,0.06890924,-0.2776201
0.6705158,0.08740434,-0.2940151
0.6505766,-0.02180105,-0.2816151
0.6928927,-0.1615955,-0.2308609
0.7400134,-0.2779002,-0.2367375
0.8240823,-0.31563,-0.2546264
0.9164323,-0.3104644,-0.2325766
0.8940991,-0.2663052,-0.2418934
0.9042802,-0.1847471,-0.2209437
0.9435435,-0.1277726,-0.2257254
0.9770876,-0.06965635,-0.2514853
1.040526,-0.01978324,-0.2442508
1.088257,-0.01603343,-0.2853524
1.156043,-0.06780344,-0.3343747
1.215157,-0.2003902,-0.3962634
1.298842,-0.377306,-0.4685396
1.477176,-0.4714742,-0.5067864
1.65432,-0.4503846,-0.5243339
1.664836,-0.4306146,-0.4881106
1.405895,-0.3575935,-0.4588252
1.040247,-0.1707736,-0.4359616
0.8460494,-0.0797787,-0.4143536
0.9603546,-0.1725451,-0.4216564
1.115999,-0.3099627,-0.3015613
1.047049,-0.3908908,-0.1779163
1.004479,-0.4166359,-0.234875
0.9460859,-0.4273025,-0.2860243
0.8042236,-0.4111075,-0.2795659
0.8038526,-0.3548014,-0.2770395
0.7645659,-0.3345115,-0.2530326
0.711844,-0.3421474,-0.242312
0.6791348,-0.2812831,-0.247286
0.5458102,-0.2284392,-0.213873
0.5587863,-0.2284176,-0.1648977
0.6120143,-0.2207734,-0.1583367
0.6042778,-0.2220866,-0.1653746
0.6588472,-0.2128866,-0.1587934
0.677786,-0.2504101,-0.1478092
0.7733822,-0.3792506,-0.1145963
0.9304174,-0.483891,-0.07992031
0.977901,-0.489611,-0.07895964
0.9919437,-0.4195023,-0.08125128
1.015716,-0.3710289,-0.0567052
1.065331,-0.3366196,-0.04632222
1.190124,-0.3310107,-0.07903388
1.348027,-0.4608787,-0.1677644
1.456093,-0.6700367,-0.2689803
1.498862,-0.8055746,-0.265702
1.370523,-0.6518561,-0.2442154
1.014019,-0.3887933,-0.2857903
0.731846,-0.3606056,-0.2898754
0.7467773,-0.3521256,-0.3095774
0.8995763,-0.3364178,-0.3355134
0.9624262,-0.401596,-0.3067787
0.9536148,-0.3795682,-0.3074514
0.9332283,-0.3581188,-0.2553159
0.8529656,-0.3225877,-0.1753771
0.809633,-0.2570069,-0.2131849
0.7781866,-0.2158615,-0.252942
0.70027,-0.09992083,-0.2725155
0.6955831,-0.09186114,-0.3107124
0.7083943,-0.2080157,-0.2948257
0.6924442,-0.2537307,-0.2846294
0.7014225,-0.2803487,-0.300411
0.750963,-0.2756111,-0.2896462
0.8287626,-0.2730344,-0.2905011
1.404944,-0.4389152,-0.5623208
1.578002,-0.3387655,-0.6982388
1.512607,-0.2276902,-0.7021174
1.235477,-0.2130192,-0.6718287
1.016561,-0.249571,-0.6341655
0.9459059,-0.2641265,-0.5010947
1.044742,-0.273459,-0.4086554
1.076903,-0.2565916,-0.4088452
0.9740496,-0.2244634,-0.3797653
0.9350439,-0.2454345,-0.3489068
0.8551066,-0.2725687,-0.3010111
0.8144743,-0.2853945,-0.1966253
0.8326729,-0.3170227,-0.1723188
0.7192007,-0.3239043,-0.2309807
0.6339203,-0.3049604,-0.2348874
0.6081207,-0.25046,-0.1825353
0.5724344,-0.1166331,-0.1312247
0.559936,-0.01131588,-0.1244828
0.5440659,-0.03546074,-0.1694926
0.5405983,-0.1111817,-0.1869848
0.5471416,-0.2128342,-0.1278966
0.6470063,-0.3645799,-0.04339936
0.7965773,-0.4477671,-0.02107931
0.9287547,-0.4826829,-0.08256428
1.13756,-0.5912776,-0.1262884
1.230505,-0.6047317,-0.1096304
1.260249,-0.483376,-0.1526703
1.433495,-0.4452878,-0.3078449
1.428535,-0.4724627,-0.4191562
1.293846,-0.4923139,-0.3601275
1.252854,-0.5106678,-0.2753481
1.057438,-0.4794952,-0.2954467
0.8675752,-0.3859446,-0.3478998
0.8140758,-0.2787566,-0.3950752
0.8010206,-0.2809656,-0.3736444
0.9900847,-0.3453993,-0.2848963
1.030352,-0.3255402,-0.2591643
0.8870415,-0.3079141,-0.2304943
0.8608341,-0.3017372,-0.1921361
0.6927149,-0.2684553,-0.2375383
0.5901354,-0.2499466,-0.2986158
0.6066116,-0.20049,-0.3434896
0.5750588,-0.1886604,-0.3029211
0.6683486,-0.2113185,-0.2308644
0.677835,-0.1863781,-0.269001
0.7088667,-0.1892722,-0.2673791
0.8398652,-0.165442,-0.2318259
0.8927785,-0.09129401,-0.2693578
0.9990582,-0.0559239,-0.268737
1.059181,-0.04134678,-0.2390221
1.129915,-0.04913759,-0.2359145
1.234229,-0.08376303,-0.2794003
1.293656,-0.1890521,-0.3668326
1.407256,-0.4036648,-0.4242896
1.36636,-0.6103307,-0.5073345
1.289518,-0.6308732,-0.6027253
1.265392,-0.3962213,-0.5854275
1.052097,-0.1562072,-0.5716244
0.9293793,-0.1529887,-0.6112928
1.044089,-0.2342745,-0.5418462
1.14373,-0.2378439,-0.4177609
1.106945,-0.2281291,-0.3408433
0.997653,-0.2417129,-0.277422
0.8912861,-0.2363499,-0.2588916
0.7838785,-0.2467967,-0.2583798
0.7626168,-0.2939845,-0.2381582
0.7409358,-0.339003,-0.24224
0.6556226,-0.3698707,-0.2489718
0.6282867,-0.36421,-0.2448143
0.586688,-0.3325309,-0.2273275
0.5733629,-0.2558153,-0.1952385
0.5887274,-0.136164,-0.1953884
0.5541183,-0.1043951,-0.2355316
0.5811048,-0.1894772,-0.2587544
0.6336857,-0.3234099,-0.1795503
0.7194711,-0.4500172,-0.04084232
0.8318167,-0.5066977,-0.005050215
0.8828909,-0.4963412,-0.09442474
0.9688436,-0.4821585,-0.1594298
1.094874,-0.4975342,-0.1162636
1.302322,-0.5168858,-0.09555172
1.500599,-0.5559273,-0.1689222
1.384223,-0.6322062,-0.2503652
1.215776,-0.7260682,-0.3227821
1.215152,-0.7731518,-0.3457404
1.043051,-0.6370805,-0.324067
0.8860036,-0.456917,-0.3456069
0.9879009,-0.4423731,-0.3492151
0.9779872,-0.4161914,-0.3291061
0.9156415,-0.3345234,-0.3318636
0.9706382,-0.3850427,-0.2944049
0.947273,-0.4678781,-0.2388898
0.9242371,-0.4388937,-0.1772031
0.8903324,-0.3638482,-0.1304469
0.7621349,-0.2310493,-0.1971598
0.661821,-0.05924279,-0.2997252
0.5818935,-0.000768582,-0.3419473
0.568488,-0.02241037,-0.3431514
0.6311324,-0.07525755,-0.3139685
0.6779216,-0.2059958,-0.2969788
0.7396002,-0.3185088,-0.285262
0.7933083,-0.3256187,-0.2478462
0.8336679,-0.2500064,-0.2388824
0.9065944,-0.1639254,-0.2865298
1.003134,-0.1384165,-0.3701445
1.124029,-0.1964412,-0.4295901
1.240494,-0.2874774,-0.4140995
1.335057,-0.3181169,-0.3996977
1.367476,-0.3714739,-0.4254867
1.301101,-0.5154465,-0.4520953
1.26001,-0.5541451,-0.5507777
1.257826,-0.3637172,-0.643393
1.11762,-0.1809632,-0.5249937
0.8939294,-0.2566605,-0.3878649
0.8493095,-0.3453539,-0.4174443
0.9701802,-0.3110843,-0.41167
1.009023,-0.3719867,-0.3648311
0.9699828,-0.3779285,-0.3606755
0.9496349,-0.3181389,-0.2968737
0.8723071,-0.3550627,-0.2593955
0.7921596,-0.3236443,-0.2859158
0.8083327,-0.3065689,-0.2649231
0.8151505,-0.3366678,-0.2737226
0.7505551,-0.2862322,-0.2894086
0.6916332,-0.2652042,-0.236292
0.6517284,-0.2141651,-0.1997743
0.6270653,-0.1353216,-0.1800927
0.6253884,-0.1413564,-0.1962176
0.5816799,-0.2109978,-0.2272939
0.5550113,-0.3673325,-0.1813701
0.6175429,-0.4923227,-0.1435904
0.6846088,-0.5269431,-0.139299
0.7244734,-0.5392136,-0.1329656
0.7445061,-0.4895282,-0.1480603
0.8409661,-0.4047802,-0.1472557
1.059349,-0.3179644,-0.1479756
1.213889,-0.2589619,-0.1580113
1.266946,-0.2405177,-0.1730038
1.322645,-0.2742322,-0.2470261
1.427899,-0.5104029,-0.3356315
1.594036,-0.8351115,-0.3854233
1.61434,-0.8620818,-0.3756712
1.178179,-0.6182553,-0.3087662
0.5348503,-0.4895261,-0.2931754
0.4106072,-0.547054,-0.3154525
0.7161444,-0.6166917,-0.2859733
0.8054019,-0.6559284,-0.3021188
0.8129826,-0.6436193,-0.3723646
0.9234192,-0.5864567,-0.3936586
0.9192363,-0.5036892,-0.3841123
0.8546524,-0.3668606,-0.3310805
0.7859729,-0.2139492,-0.288556
0.7208708,-0.0944796,-0.3206319
0.7234919,-0.06840525,-0.3268664
0.7339548,-0.1445447,-0.3077402
0.7345072,-0.2235692,-0.3003819
0.7348358,-0.2623458,-0.2896168
0.73337,-0.2837978,-0.2608963
0.7338464,-0.3099311,-0.20776
0.7315017,-0.2951537,-0.2127996
0.7531767,-0.1828789,-0.2435601
0.7765387,-0.07071331,-0.2381849
0.7784835,-0.06145171,-0.2425798
0.7841826,-0.08489237,-0.2409892
0.8270898,-0.05526529,-0.243581
0.9013851,-0.04184099,-0.2534801
1.00802,-0.1425144,-0.246502
1.196262,-0.3407623,-0.2485695
1.315883,-0.4940748,-0.2578991
1.329377,-0.4422446,-0.3344056
1.53465,-0.3461203,-0.5566774
1.726019,-0.3598089,-0.745675
1.518393,-0.2804481,-0.7033692
1.253979,-0.2006568,-0.6867356
1.151924,-0.3030701,-0.806628
1.023459,-0.4438842,-0.7196244
0.953952,-0.5255141,-0.5451509
0.9491364,-0.4217882,-0.4541669
0.8888304,-0.2646866,-0.3041872
0.8326102,-0.2862788,-0.3130558
0.8018948,-0.2758126,-0.3791206
0.7911162,-0.2355386,-0.274998
0.7641327,-0.2873848,-0.2514962
0.6887653,-0.3006762,-0.2405281
0.6297273,-0.3033655,-0.2136493
0.6104039,-0.2813591,-0.2568767
0.618252,-0.1974515,-0.218585
0.6284673,-0.1677402,-0.2005015
0.621784,-0.1805369,-0.2000988
0.5893774,-0.2158392,-0.1708208
0.5544737,-0.2964002,-0.185229
0.6174604,-0.3711787,-0.1546079
0.7730188,-0.4438766,-0.1881201
0.931768,-0.5442622,-0.2791401
1.049592,-0.6421083,-0.2658441
1.100354,-0.6706032,-0.2069349
1.143833,-0.6306915,-0.153836
1.250069,-0.6141341,-0.2475029
1.368902,-0.6204828,-0.463415
1.380996,-0.5697082,-0.5480701
1.282199,-0.460736,-0.5020795
1.188366,-0.3754252,-0.4598596
1.071455,-0.3526614,-0.4574562
0.8777891,-0.3084922,-0.3566842
0.7470116,-0.264095,-0.2252834
0.8789886,-0.3850797,-0.3027669
1.100133,-0.5331324,-0.3662875
1.009606,-0.4583307,-0.2958883
0.8892746,-0.3554542,-0.2955104
0.8850589,-0.3335878,-0.2944334
0.634661,-0.2290174,-0.2580982
0.4935832,-0.1734405,-0.2759778
0.5476941,-0.1944057,-0.2958221
0.5333822,-0.1758617,-0.3138857
0.6460513,-0.201591,-0.3448199
0.7126285,-0.2134543,-0.3349652
0.7280754,-0.2032257,-0.3117744
0.7969636,-0.2105317,-0.2998084
0.8050377,-0.1695686,-0.2627138
0.9093866,-0.1559141,-0.2479618
0.9651715,-0.1368983,-0.2642456
0.9659423,-0.07620229,-0.2583615
1.052509,-0.06234321,-0.261044
1.068573,-0.09956287,-0.2813015
1.132481,-0.2059422,-0.3100534
1.249954,-0.3306747,-0.3501324
1.318137,-0.4060768,-0.4201452
1.395919,-0.3878842,-0.598395
1.468983,-0.2497586,-0.7496954
1.446144,-0.1525443,-0.6571645
1.14401,-0.2088882,-0.5193241
0.8013369,-0.3262594,-0.5097528
0.8235279,-0.3637071,-0.471471
1.008937,-0.3203903,-0.4590341
1.050809,-0.2849558,-0.4874231
0.9734829,-0.2754505,-0.3889147
0.8533578,-0.3109219,-0.2901107
0.7396306,-0.3480341,-0.2565299
0.7445191,-0.3638236,-0.2383995
0.8495381,-0.3974656,-0.2626723
0.9484326,-0.4321797,-0.270129
0.9901645,-0.4513332,-0.2911947
0.8648614,-0.3797105,-0.281991
0.6414906,-0.2612126,-0.2298976
0.4768355,-0.2280668,-0.2427357
0.3833025,-0.2435705,-0.1987123
0.3779543,-0.253255,-0.1036605
0.402765,-0.2380469,-0.05648766
0.4470102,-0.2234354,-0.05725605
0.575237,-0.2209663,-0.1446246
0.7245059,-0.2482047,-0.2123109
0.8578713,-0.3812349,-0.2193812
1.018581,-0.5466339,-0.2107078
1.161199,-0.6083485,-0.1622158
1.214651,-0.5080446,-0.09789707
1.283491,-0.4118765,-0.06318065
1.36891,-0.5290073,-0.1617132
1.356943,-0.7086748,-0.3593857
1.358544,-0.8091314,-0.4445994
1.293126,-0.7682702,-0.3107847
0.9709515,-0.5815531,-0.1526302
0.6636612,-0.4743413,-0.2217143
0.694367,-0.424586,-0.277163
0.8126756,-0.3368538,-0.2238128
0.7818044,-0.3288025,-0.2829102
0.915047,-0.4068845,-0.2827426
1.00359,-0.4951968,-0.232637
0.8180092,-0.5100188,-0.2275666
0.791103,-0.4501631,-0.1745681
0.737744,-0.3459459,-0.2279157
0.6356071,-0.2250996,-0.3089258
0.6826246,-0.1638811,-0.3233338
0.6119769,-0.1352179,-0.3770833
0.657564,-0.1727766,-0.3658821
0.7788142,-0.2719349,-0.3408948
0.7938322,-0.3116282,-0.3438414
0.8485649,-0.3053371,-0.2836396
0.7738735,-0.252055,-0.2464103
0.7249574,-0.173799,-0.2471483
0.7703831,-0.141341,-0.2502253
0.8251174,-0.146652,-0.2566759
0.9948412,-0.1695631,-0.2358644
1.090062,-0.1768717,-0.2165315
1.160106,-0.1818869,-0.212204
1.279594,-0.2245786,-0.1943548
1.366586,-0.3179652,-0.2025987
1.467451,-0.3918102,-0.3239474
1.455025,-0.3483854,-0.5145058
1.356947,-0.2743223,-0.5925216
1.20763,-0.2374689,-0.5658745
0.9733031,-0.2279848,-0.6297031
0.9052397,-0.2768021,-0.7286519
1.023273,-0.3156056,-0.6856346
1.08175,-0.3183625,-0.5672719
1.015082,-0.2982799,-0.4148342
0.8974166,-0.2382077,-0.2652814
0.804178,-0.2226203,-0.2770952
0.7976693,-0.2476253,-0.3271569
0.8388747,-0.2665258,-0.3025931
0.8026692,-0.3032773,-0.3204244
0.7574695,-0.3207336,-0.298145
0.7459629,-0.320148,-0.2416664
0.7039026,-0.2897863,-0.2663652
0.6895631,-0.2026708,-0.2771221
0.6442777,-0.1408064,-0.2675153
0.5853251,-0.1274038,-0.2440723
0.5676747,-0.1060328,-0.1691848
0.5326383,-0.09620758,-0.1352326
0.621862,-0.1911119,-0.1495264
0.7898379,-0.3761043,-0.1720961
0.9086541,-0.5086386,-0.1892336
1.01793,-0.5339016,-0.1465318
1.101411,-0.4877569,-0.07962314
1.257719,-0.3982651,-0.07920107
1.376296,-0.3319893,-0.1825115
1.355289,-0.4465574,-0.3726906
1.375288,-0.712623,-0.4834504
1.342132,-0.8081983,-0.3518802
1.127003,-0.6574626,-0.2300475
0.7935616,-0.4562426,-0.3559077
0.645668,-0.2966888,-0.4654946
0.8492952,-0.2316599,-0.4546674
0.9530712,-0.269564,-0.4279684
0.8692519,-0.3407307,-0.3260225
0.853268,-0.4071248,-0.2469865
0.788518,-0.444203,-0.2439583
0.7182542,-0.3986895,-0.253077
0.7178322,-0.3070803,-0.2916304
0.6507511,-0.1670331,-0.2944179
0.5729436,0.05144292,-0.3007616
0.596321,0.07327411,-0.3161271
0.657718,-0.06888667,-0.2608193
0.7251723,-0.08724105,-0.2180865
0.8204217,-0.1473999,-0.1920569
0.8396661,-0.168747,-0.2143598
0.85117,-0.09154087,-0.2859522
0.9522191,-0.1562839,-0.3016657
0.9587068,-0.1843318,-0.3306275
0.9750715,-0.221562,-0.3348716
1.120199,-0.3602295,-0.2965717
1.231546,-0.398338,-0.3137918
1.346554,-0.4345238,-0.3144987
1.396174,-0.4036546,-0.386414
1.349499,-0.2692932,-0.6528682
1.33271,-0.2180765,-0.8493034
1.221162,-0.2341122,-0.6627919
1.010839,-0.3163283,-0.4125316
0.8638261,-0.344339,-0.5377511
0.9324011,-0.2837384,-0.6472422
1.099346,-0.2426153,-0.567895
1.030209,-0.1790454,-0.5555849
0.8758661,-0.1581581,-0.4228731
0.7665798,-0.1761101,-0.3163005
0.684876,-0.2085562,-0.3659548
0.7321403,-0.2688189,-0.2943467
0.7020214,-0.2920069,-0.2411205
0.6824981,-0.3313416,-0.2741579
0.748581,-0.3547343,-0.2842677
0.6672936,-0.3341926,-0.2969048
0.6325838,-0.2744778,-0.2891788
0.6323786,-0.1477,-0.2872403
0.6034202,-0.09614463,-0.2648797
0.6582807,-0.1422234,-0.2079245
0.6652871,-0.2274292,-0.1513519
0.7370147,-0.3630991,-0.1171084
0.8849381,-0.4780165,-0.1158966
1.027865,-0.520602,-0.1066006
1.186144,-0.5186113,-0.1713116
1.19752,-0.5143437,-0.2456562
1.219594,-0.5032871,-0.1699045
1.308895,-0.5025254,-0.1381632
1.260193,-0.5570628,-0.3112629
1.177638,-0.7261319,-0.5099768
1.133282,-0.8766105,-0.5121417
1.135268,-0.6694026,-0.3704705
1.110345,-0.3674698,-0.2960556
0.8790492,-0.2967669,-0.3152229
0.6645228,-0.141203,-0.3260975
0.7854814,-0.1028256,-0.3102815
0.9772541,-0.3516118,-0.3142434
0.9507051,-0.4300933,-0.2781606
0.9034016,-0.4866671,-0.2017712
0.8377446,-0.5431765,-0.2158235
0.6878082,-0.3930789,-0.251508
0.6097656,-0.2987385,-0.2603927
0.52157,-0.1163945,-0.3082436
0.4852269,0.01430661,-0.3234783
0.5977223,-0.1582244,-0.3026163
0.6858571,-0.2615097,-0.2771273
0.7684011,-0.3327097,-0.2539295
0.8415165,-0.3288742,-0.3126103
0.9060724,-0.2268045,-0.3999922
0.9954029,-0.2673184,-0.3919284
0.9932394,-0.2358092,-0.2932048
0.9812883,-0.2102972,-0.2072562
0.9966395,-0.2513649,-0.2335398
1.054541,-0.2117655,-0.3450405
1.259388,-0.2683287,-0.4404371
1.433239,-0.3519259,-0.5110868
1.478063,-0.3667668,-0.6493148
1.440877,-0.2696425,-0.7789845
1.224696,-0.131328,-0.6698321
0.8574694,-0.2462829,-0.5006913
0.7095265,-0.3699505,-0.5466333
0.9494143,-0.3153679,-0.564565
1.117248,-0.3108974,-0.4982294
1.045193,-0.2770572,-0.4938565
0.9427609,-0.2039498,-0.382157
0.7826473,-0.2164829,-0.2463511
0.7217026,-0.2497448,-0.2496657
0.777013,-0.298253,-0.2899402
0.7410161,-0.3668505,-0.3051989
0.7068886,-0.4161836,-0.2551453
0.6618734,-0.4377968,-0.2039376
0.5885566,-0.4113272,-0.2018281
0.6126286,-0.3484808,-0.2263653
0.6550003,-0.2798668,-0.265094
0.6720279,-0.2482539,-0.243062
0.6893228,-0.2469246,-0.2042201
0.6838932,-0.2241988,-0.1772111
0.7044308,-0.2543773,-0.1516476
0.7565199,-0.3554741,-0.1480994
0.8262076,-0.4274163,-0.1153016
0.92876,-0.4870775,-0.113529
1.037837,-0.5319173,-0.1446235
1.171727,-0.5026209,-0.1566774
1.325503,-0.414665,-0.208162
1.40583,-0.3719172,-0.2706963
1.396109,-0.5384863,-0.3260303
1.44893,-0.7941679,-0.3543996
1.470824,-0.8002172,-0.3311128
1.035637,-0.5876375,-0.3173155
0.5470353,-0.4453268,-0.3144828
0.7255769,-0.4308227,-0.3390208
0.9709263,-0.402946,-0.3809026
0.8761845,-0.3663805,-0.3659307
0.920664,-0.4050634,-0.3237337
0.8983277,-0.4059736,-0.2676099
0.7713318,-0.3648082,-0.1993583
0.8152047,-0.3602528,-0.1951567
0.7319746,-0.2525523,-0.2350704
0.6196269,-0.1152089,-0.2531823
0.6226312,-0.1162243,-0.2610143
0.6070882,-0.1538758,-0.2588445
0.6500219,-0.1773165,-0.2569245
0.6716525,-0.2163037,-0.2697621
0.7328659,-0.2496585,-0.2691997
0.8030083,-0.229834,-0.2754936
