accx,accy,accz
0.7394146,-0.2638767,-0.4352293
0.7413589,-0.2538778,-0.4126066
0.7235723,-0.1911035,-0.427113
0.6825734,-0.1366467,-0.3984918
0.7059644,-0.05309121,-0.4352471
0.7288375,0.05168473,-0.4859509
0.7546189,0.04922849,-0.5017919
0.8419946,0.0008162262,-0.5131978
0.9284869,0.01874565,-0.518472
0.9301261,0.03339836,-0.5369145
0.8965704,0.02326847,-0.5388468
0.9346764,0.01435358,-0.5719648
0.9792307,-0.05557026,-0.6589917
1.018973,-0.1420555,-0.7504863
1.13686,-0.2036483,-0.8695037
1.272665,-0.3101788,-0.9919379
1.338405,-0.407537,-1.06291
1.232185,-0.4247526,-1.057668
1.01837,-0.3896891,-1.008164
0.8972186,-0.3491799,-0.9080539
0.8472959,-0.3156217,-0.7118169
0.8300036,-0.293497,-0.6157116
0.8457926,-0.3452147,-0.6707375
0.9274226,-0.4385625,-0.6373467
1.068566,-0.496128,-0.5680687
1.030059,-0.4871671,-0.5097471
0.8246436,-0.377763,-0.3503561
0.631941,-0.2461228,-0.2623396
0.4846926,-0.1678987,-0.2952532
0.4562178,-0.1439307,-0.2734421
0.4981591,-0.1795107,-0.2611252
0.5633457,-0.2350428,-0.2811882
0.6208968,-0.2659867,-0.217144
0.6206637,-0.2582209,-0.1525079
0.6302089,-0.2343122,-0.1546074
0.5947719,-0.2310833,-0.1087949
0.5572182,-0.2933298,-0.004707954
0.5833923,-0.3978586,0.04391904
0.5850308,-0.4174033,0.04130834
0.6524826,-0.3829231,0.05034455
0.7992999,-0.3902222,0.02890651
0.9553158,-0.3907997,-0.03235143
1.108118,-0.3802777,-0.0853082
1.172938,-0.3942983,-0.1709211
1.190946,-0.4554666,-0.3810193
1.322685,-0.5944898,-0.6722368
1.460833,-0.7189318,-0.7571335
1.238181,-0.7626877,-0.6152741
0.9106905,-0.8332736,-0.5395448
0.9460648,-0.8726515,-0.451432
0.9652859,-0.7644185,-0.3353588
0.8269214,-0.6309957,-0.2698368
0.8252631,-0.517596,-0.1497633
0.835884,-0.4639443,-0.2783302
0.8169419,-0.4584194,-0.5750617
0.8307802,-0.3692462,-0.6352914
0.8436823,-0.3448869,-0.6532378
0.8638731,-0.3409386,-0.6490522
0.8360037,-0.3001948,-0.584018
0.785683,-0.3854057,-0.5290003
0.7410639,-0.3676048,-0.4831645
0.6730364,-0.3051968,-0.5098634
0.6215442,-0.3192976,-0.4280439
0.5815553,-0.2226456,-0.385717
0.5357271,-0.1597332,-0.4537537
0.5063646,-0.08780121,-0.3841599
0.511752,-0.003578933,-0.3809851
0.5516381,-0.01828392,-0.4034469
0.6160588,0.002326508,-0.4173141
0.6935035,-0.0132991,-0.5281313
0.7559529,-0.00925773,-0.5462937
0.8258829,0.02260867,-0.5670838
0.9224339,-0.0143992,-0.6281998
1.022986,-0.04006334,-0.6989841
1.120391,-0.1463452,-0.8159046
1.183056,-0.2535168,-0.8824423
1.227414,-0.3389744,-1.001702
1.292055,-0.502187,-1.133935
1.325296,-0.549724,-1.14161
1.244494,-0.4913818,-1.105708
1.026567,-0.4228266,-1.016197
0.8170591,-0.3509506,-0.7862653
0.774046,-0.3294845,-0.581416
0.8240753,-0.3110127,-0.6618894
0.8967076,-0.2809291,-0.7496161
1.066464,-0.271802,-0.6497497
1.171016,-0.2733338,-0.6467299
0.9485933,-0.2163648,-0.5768932
0.6196057,-0.114713,-0.3663823
0.5018449,-0.08933642,-0.301784
0.537962,-0.1666437,-0.2803422
0.5734162,-0.2944912,-0.2529285
0.5521368,-0.355129,-0.2299413
0.5520206,-0.3506967,-0.1377134
0.5658023,-0.3561826,-0.130859
0.5359385,-0.3332294,-0.159969
0.5352719,-0.3315439,-0.1046423
0.5246828,-0.3824233,-0.04573542
0.5228596,-0.4490214,0.02212922
0.5786932,-0.4806539,0.05066457
0.6526833,-0.4480701,0.02900592
0.7945397,-0.4423237,0.04318649
0.9069418,-0.4415942,0.03239179
1.070994,-0.432883,-0.07407112
1.341537,-0.4700384,-0.2758764
1.315958,-0.5078916,-0.4572897
1.242558,-0.6035286,-0.5658382
1.424738,-0.7140142,-0.7826468
1.348992,-0.6857412,-0.9011701
1.084307,-0.6171117,-0.6339935
0.856618,-0.5587855,-0.3895634
0.6109863,-0.4254691,-0.3665086
0.6720057,-0.3579873,-0.3559974
0.7446438,-0.3944149,-0.4164205
0.6537313,-0.3688725,-0.5028321
0.7696938,-0.3616777,-0.5365474
0.7984214,-0.3651484,-0.5374395
0.7883939,-0.2985187,-0.5086592
0.851958,-0.3010509,-0.533403
0.7492155,-0.317573,-0.5247254
0.7304126,-0.3028947,-0.4972395
0.7033511,-0.3018972,-0.5204506
0.6289134,-0.2612009,-0.4937183
0.6775829,-0.2350514,-0.4990264
0.6409038,-0.1727505,-0.518582
0.6107224,-0.04917321,-0.4909381
0.6045095,0.004018791,-0.4541338
0.6177144,-0.007974116,-0.3995885
0.7540205,-0.02331525,-0.4780432
0.8235568,-0.02016292,-0.6222055
0.8659336,-0.02827761,-0.6476683
0.8884315,-0.02832826,-0.6574634
0.8644817,-0.008758718,-0.6705737
0.9293054,-0.05089987,-0.664179
1.016118,-0.1441112,-0.6919969
1.107092,-0.2627658,-0.7597956
1.121344,-0.3536002,-0.8834458
1.074878,-0.4227424,-1.052412
1.108531,-0.5257005,-1.15625
1.043616,-0.4899059,-1.048205
0.8859234,-0.3793999,-0.8268791
0.79052,-0.3907055,-0.7225916
0.7837392,-0.3645523,-0.7153146
0.8715014,-0.2922243,-0.706233
0.9682049,-0.2535446,-0.6622173
1.068831,-0.2132271,-0.6083113
0.9963089,-0.2215304,-0.5656487
0.7056693,-0.1886792,-0.4673263
0.5374434,-0.1310134,-0.3724715
0.4962,-0.186255,-0.3099841
0.5317555,-0.2638334,-0.2448965
0.6053106,-0.3564212,-0.2360037
0.6254204,-0.4511633,-0.2161831
0.700274,-0.4305558,-0.2089236
0.67928,-0.4003929,-0.2424276
0.5747784,-0.4336545,-0.2041212
0.5326461,-0.4405442,-0.1392975
0.4824513,-0.4610736,-0.02155912
0.5295693,-0.5030501,0.1091687
0.5780286,-0.4710884,0.1344347
0.6267005,-0.4290409,0.1439434
0.7738984,-0.4075505,0.1088578
0.8552793,-0.3635234,0.04369497
0.9754747,-0.3415967,-0.0002596868
1.090602,-0.3339293,-0.1385468
1.118081,-0.3881304,-0.3153069
1.184836,-0.5082235,-0.48154
1.187076,-0.6139316,-0.5948688
1.172215,-0.8275725,-0.539064
1.153048,-1.061402,-0.4824961
1.026131,-0.997104,-0.4887995
0.8831897,-0.8157917,-0.4182041
0.7175838,-0.7106032,-0.3399592
0.5379871,-0.4847935,-0.2658749
0.5034888,-0.4329467,-0.2373161
0.6054004,-0.5893159,-0.3225263
0.6511633,-0.4644297,-0.368255
0.7341984,-0.4297146,-0.4382413
0.871655,-0.5359139,-0.5237633
0.8478353,-0.4736789,-0.4876881
0.8694612,-0.556518,-0.5302753
0.887531,-0.5228867,-0.6081228
0.7462209,-0.3501027,-0.5969839
0.6543377,-0.3142443,-0.5754352
0.5377279,-0.1873588,-0.4979084
0.5070615,-0.1027723,-0.4393742
0.5885136,0.00950327,-0.4241005
0.6203531,0.1559862,-0.4330963
0.7494502,0.1394624,-0.4945282
0.8105296,0.1488321,-0.4977954
0.8329738,0.08763172,-0.4900881
0.9561417,0.0402576,-0.5055092
0.9472177,0.08085006,-0.509138
0.9589048,0.01774062,-0.5298976
1.043248,-0.01258967,-0.5076519
0.9857477,-0.04907822,-0.4958873
0.915297,-0.08612747,-0.52679
0.9159684,-0.06984638,-0.5321935
0.9112753,-0.1077182,-0.5099573
0.9356946,-0.1343682,-0.4484224
1.031028,-0.1687989,-0.4199382
1.167592,-0.1824864,-0.4936289
1.28082,-0.2038583,-0.6607036
1.300658,-0.3025669,-0.8541623
1.256517,-0.3297886,-0.9142048
1.093658,-0.3109091,-0.8616144
0.8164624,-0.2811718,-0.855523
0.7718373,-0.2558819,-0.8647552
0.8747599,-0.2820213,-0.8108968
0.8113322,-0.2726289,-0.7754441
0.8015163,-0.2865108,-0.7917541
0.8736136,-0.3560752,-0.757919
0.9185745,-0.4146982,-0.6086238
0.9976466,-0.4344602,-0.4003538
0.9363784,-0.3739411,-0.3142601
0.777785,-0.2716863,-0.3496189
0.6914943,-0.131068,-0.3308423
0.6457837,-0.03380517,-0.2931212
0.7067057,-0.07242969,-0.2721531
0.7602624,-0.1236751,-0.2467963
0.717731,-0.1866895,-0.255747
0.7184315,-0.2486083,-0.2266373
0.6929321,-0.2056013,-0.1626908
0.6087682,-0.1637899,-0.115674
0.538491,-0.1695961,-0.03989407
0.5054898,-0.222729,0.04327803
0.5320183,-0.3789487,0.1422302
0.5724945,-0.5297826,0.2232783
0.688121,-0.6098207,0.1927524
0.8625599,-0.6320659,0.1325399
0.9914545,-0.5929903,0.06790217
1.141327,-0.5826756,-0.1014107
1.236862,-0.6049061,-0.3729165
1.230499,-0.6320842,-0.5873679
1.230174,-0.6815868,-0.6041997
1.182916,-0.6630268,-0.5729624
1.082321,-0.5857153,-0.5688486
0.9979027,-0.5040916,-0.5024109
0.9004021,-0.4076144,-0.4606878
0.794501,-0.3801973,-0.4370059
0.7657869,-0.4001246,-0.4504777
0.8137761,-0.3959819,-0.5325042
0.8615439,-0.4105029,-0.5151084
0.9133948,-0.4107388,-0.4607747
0.9299636,-0.3586933,-0.4255458
0.8668947,-0.2648227,-0.3840593
0.7819294,-0.1633706,-0.4450886
0.703073,-0.1283607,-0.5000759
0.6812116,-0.1250927,-0.4931043
0.7138732,-0.1094019,-0.4984303
0.7088711,-0.0968709,-0.4819435
0.664953,-0.06405447,-0.4607069
0.600264,-0.04300074,-0.4101904
0.5320124,-0.04342767,-0.3343334
0.5128337,-0.03018583,-0.3053235
0.5445717,-0.03569777,-0.3523393
0.5998012,-0.03824687,-0.4509365
0.6647398,-0.02119532,-0.4827837
0.7469114,-0.01842705,-0.4840872
0.8443821,0.004772546,-0.5209493
0.9090477,0.04839841,-0.5447222
0.9423524,0.07164617,-0.6361065
1.016243,0.05503161,-0.7496628
1.122995,-0.02786518,-0.7589963
1.207034,-0.1723012,-0.7570314
1.295029,-0.3062834,-0.8566131
1.37019,-0.3379545,-1.06653
1.347297,-0.3191736,-1.210268
1.209405,-0.3298771,-1.104249
0.9819296,-0.3267248,-0.8979891
0.815462,-0.3243496,-0.7497144
0.8137871,-0.3313834,-0.6505516
0.8058705,-0.3209426,-0.6770257
0.8144567,-0.3223993,-0.7079926
0.9678643,-0.3209743,-0.5973797
1.056267,-0.3039138,-0.5068143
0.9512626,-0.2513561,-0.3901906
0.7299027,-0.1446421,-0.2938541
0.4943423,-0.05347531,-0.3572933
0.4080946,-0.03340469,-0.3365792
0.4656529,-0.09964935,-0.2945157
0.5184113,-0.2317752,-0.308628
0.5682539,-0.3687874,-0.226213
0.6495662,-0.4454522,-0.1765067
0.6802245,-0.4517284,-0.1462999
0.6704211,-0.4618115,-0.127432
0.6482451,-0.4769927,-0.1463732
0.5962701,-0.4796579,-0.09262665
0.6194149,-0.4961252,-0.06189165
0.6626624,-0.469186,-0.04061662
0.6638534,-0.430372,0.01439167
0.7339919,-0.4476872,0.01829383
0.8151419,-0.4514169,-0.01860223
0.9156982,-0.4464651,-0.09033345
1.073111,-0.4745261,-0.1587323
1.151004,-0.5071757,-0.2573569
1.180542,-0.5682742,-0.3947523
1.338513,-0.6944528,-0.4867045
1.510961,-0.7888873,-0.6161998
1.371096,-0.712636,-0.7296224
1.095381,-0.6072556,-0.5960861
0.9341683,-0.6110216,-0.3503167
0.7367307,-0.5368053,-0.282758
0.6599001,-0.4386245,-0.2698724
0.6979339,-0.4578175,-0.2586326
0.6476517,-0.4239822,-0.383285
0.6996119,-0.3712555,-0.4549713
0.7802725,-0.356862,-0.4772683
0.8070732,-0.3006409,-0.5117592
0.8441409,-0.2841506,-0.46535
0.7935756,-0.2715542,-0.4853983
0.758423,-0.2341431,-0.4939073
0.7035507,-0.207852,-0.4682376
0.6369355,-0.1557394,-0.513994
0.7174539,-0.1382785,-0.4947398
0.7527907,-0.07559438,-0.4718359
0.7064363,0.05140335,-0.4301617
0.6767828,0.0742609,-0.3782812
0.6489796,0.0560336,-0.4607839
0.7004584,0.05573748,-0.5500707
0.7962018,0.04351793,-0.6123006
0.8509461,0.05374416,-0.6282513
0.8472866,0.06892101,-0.5785165
0.822837,0.07512623,-0.5741913
0.8058546,0.07200301,-0.5753588
0.7677723,0.06546254,-0.567323
0.8106645,0.03271061,-0.5608783
0.9981213,-0.1081984,-0.5609919
1.171781,-0.2723138,-0.58925
1.170314,-0.2749841,-0.6132564
1.150264,-0.2441313,-0.7468153
1.329447,-0.3323144,-1.041204
1.443777,-0.3268408,-1.230988
1.342753,-0.2307174,-1.130077
1.213944,-0.2283302,-0.9949163
1.001203,-0.2543599,-0.9618141
0.8048844,-0.3155483,-0.8079393
0.7788817,-0.3498124,-0.6612797
0.7360223,-0.308783,-0.6462972
0.712838,-0.313284,-0.6266349
0.8163698,-0.2882615,-0.6393428
0.8805019,-0.2554285,-0.6059103
0.8286244,-0.2600832,-0.5170495
0.7137298,-0.241324,-0.4520318
0.5591817,-0.2618599,-0.3642315
0.460858,-0.2714757,-0.3259821
0.5689879,-0.299511,-0.2967772
0.7762764,-0.3954169,-0.300258
0.9135833,-0.4435253,-0.3907331
1.005512,-0.4459124,-0.4268959
0.9549372,-0.3866338,-0.445367
0.7784771,-0.2849824,-0.4143471
0.6480258,-0.232047,-0.2933044
0.5642599,-0.2275161,-0.2036861
0.5403628,-0.2622892,-0.1321811
0.4952778,-0.3012311,-0.01913106
0.4751916,-0.3452006,0.1405568
0.5878873,-0.3968483,0.1510386
0.6303257,-0.4258078,0.06075955
0.6822357,-0.4297887,0.1067093
0.8100727,-0.400283,0.03740833
0.8733422,-0.3867183,-0.07676524
0.9664196,-0.3887376,-0.04513373
1.067297,-0.3793987,-0.09773162
1.17359,-0.3976566,-0.1206097
1.319849,-0.4654503,-0.1721402
1.461968,-0.6562819,-0.3556176
1.47677,-0.8725938,-0.3889016
1.242105,-0.8934098,-0.3881849
1.049672,-0.8270904,-0.4232716
0.9336601,-0.8216252,-0.3827121
0.7858747,-0.7797656,-0.3689879
0.7620551,-0.6940233,-0.3528999
0.7267145,-0.632616,-0.3508339
0.697783,-0.5534828,-0.403423
0.7239429,-0.5049889,-0.4477757
0.7552804,-0.4626146,-0.5448775
0.8367168,-0.3175249,-0.6518129
0.8217106,-0.2810569,-0.6303803
0.8053637,-0.3231499,-0.5721084
0.8291012,-0.214182,-0.5493135
0.7956544,-0.1840692,-0.4735604
0.7732235,-0.2143518,-0.4390246
0.6705424,-0.1418697,-0.4631704
0.5946711,-0.1443677,-0.4201478
0.6397784,-0.1716962,-0.4153123
0.6663869,-0.1680761,-0.4041297
0.6904572,-0.1842487,-0.3535648
0.707859,-0.164599,-0.3977231
0.6885693,-0.1513462,-0.4054876
0.678216,-0.1102804,-0.413986
0.7490636,-0.01273777,-0.4877079
0.8495767,0.05544403,-0.5037304
0.8955013,0.07702265,-0.5504804
0.9519476,0.08718676,-0.6084048
0.9952387,0.1036105,-0.633896
1.011863,0.05314862,-0.6684926
1.050233,-0.04702918,-0.6794384
1.076923,-0.148437,-0.7140881
1.111814,-0.2949279,-0.793848
1.18964,-0.4236839,-0.9597522
1.258411,-0.5165281,-1.089419
1.216459,-0.5512564,-1.015874
1.040039,-0.4628806,-0.9174473
0.8475704,-0.3584238,-0.7985357
0.7913679,-0.3022753,-0.6311723
0.8310247,-0.2709266,-0.6289937
0.8371141,-0.2625218,-0.6845117
0.9362512,-0.2735974,-0.640206
1.094869,-0.2839619,-0.5815728
1.054946,-0.2406196,-0.4732283
0.875107,-0.1704214,-0.3433694
0.6536181,-0.1132915,-0.3312
0.4980815,-0.06744441,-0.3478
0.5408099,-0.06906928,-0.3269504
0.6080688,-0.1540734,-0.3070014
0.6245063,-0.3065751,-0.2498815
0.6267902,-0.3937133,-0.1997741
0.59143,-0.3687654,-0.1840084
0.6096169,-0.35779,-0.1696513
0.6198402,-0.3694601,-0.1644947
0.5803783,-0.3712598,-0.1531051
0.5871911,-0.4179375,-0.1327383
0.5982202,-0.4914751,-0.07813043
0.6303608,-0.5138492,0.0006923165
0.6957158,-0.4817693,0.04624405
0.7652638,-0.4411258,0.06456216
0.8598159,-0.3988202,0.05116805
0.9264376,-0.3817601,0.01471455
1.018848,-0.4037372,-0.03833941
1.146276,-0.4161626,-0.1273803
1.209653,-0.4668505,-0.256336
1.301327,-0.587197,-0.456733
1.407379,-0.6720308,-0.6443061
1.365211,-0.7065756,-0.6578264
1.231019,-0.7327999,-0.5098453
1.100312,-0.6961461,-0.3557022
0.9512455,-0.5914049,-0.3106647
0.8434207,-0.513235,-0.3134959
0.795136,-0.4645934,-0.3238334
0.7533218,-0.3990005,-0.424459
0.7710492,-0.3534554,-0.5289087
0.7846765,-0.319661,-0.5402877
0.7557629,-0.2844091,-0.5289704
0.7653384,-0.269131,-0.5059842
0.7508985,-0.262359,-0.4618557
0.7346361,-0.2953759,-0.4251429
0.7214025,-0.3378752,-0.4181328
0.654884,-0.3331944,-0.430554
0.6345582,-0.3000241,-0.426934
0.6420811,-0.2422786,-0.4322156
0.6370908,-0.1749826,-0.4457911
0.6494549,-0.0731043,-0.4525038
0.6442339,0.03529737,-0.4625178
0.6582543,0.04421543,-0.4745872
0.7316184,0.009792163,-0.5343102
0.8386954,-0.006420025,-0.6131571
0.9220403,-0.03927196,-0.6293477
0.9462665,-0.05417133,-0.5946385
0.9443834,-0.02796555,-0.5707491
0.9422648,-0.01697565,-0.5957666
0.987553,-0.05243761,-0.6229449
1.075805,-0.1166021,-0.6840207
1.153143,-0.213358,-0.8866949
1.242574,-0.340198,-1.10337
1.288827,-0.4378375,-1.125681
1.192542,-0.4605481,-1.044214
1.021858,-0.4281645,-1.002779
0.9003529,-0.3835494,-0.8603896
0.8397246,-0.3462902,-0.6547548
0.8309517,-0.3242117,-0.6383801
0.855357,-0.3050263,-0.6733202
0.8646225,-0.2949442,-0.6118287
0.9453779,-0.3526569,-0.558751
1.030869,-0.4106718,-0.4667509
0.8885852,-0.3358899,-0.3664039
0.6501259,-0.1974121,-0.3636582
0.547556,-0.121848,-0.3506289
0.5725611,-0.1164457,-0.3067682
0.5888109,-0.1157928,-0.2914836
0.5513018,-0.1195615,-0.2561533
0.5821619,-0.2331548,-0.2061338
0.6163158,-0.3461659,-0.1596178
0.6017909,-0.306753,-0.1539351
0.6192593,-0.3130106,-0.1784073
0.6003501,-0.4494291,-0.1111866
0.5927063,-0.5326296,-0.0462277
0.6211145,-0.5443112,-0.02742444
0.6233093,-0.5670297,0.05939737
0.6735166,-0.5462691,0.08589926
0.7662207,-0.4547756,0.02899202
0.906204,-0.4071292,-0.01217283
1.062136,-0.3931509,-0.09683451
1.11855,-0.3736,-0.2135012
1.14125,-0.4466628,-0.3294259
1.230972,-0.5796256,-0.4491986
1.308719,-0.670327,-0.5671807
1.23109,-0.6623178,-0.6492724
1.118171,-0.6083182,-0.5785594
1.058115,-0.6162139,-0.4416704
0.9313681,-0.5841199,-0.4281912
0.8768463,-0.5227641,-0.4097517
0.8706591,-0.5213942,-0.3499541
0.7962737,-0.5089554,-0.4177401
0.8255895,-0.5052921,-0.5074892
0.8488094,-0.4468862,-0.5304675
0.8176008,-0.330998,-0.5327743
0.8504706,-0.280618,-0.5030133
0.8267845,-0.2458992,-0.4993982
0.7843276,-0.2435296,-0.5005436
0.7413296,-0.268561,-0.48556
0.6573389,-0.2672597,-0.4849535
0.6303562,-0.2485078,-0.4630486
0.620509,-0.1835149,-0.4656727
0.6502473,-0.1377423,-0.4799425
0.7047442,-0.1031578,-0.4786864
0.674611,-0.05078472,-0.4968074
0.672991,-0.04999137,-0.4971309
0.7185573,-0.05920008,-0.5138582
0.737694,-0.06260211,-0.5695878
0.7719474,-0.0654989,-0.6204103
0.8231901,-0.0450221,-0.6465823
0.8639935,-0.01144676,-0.6326202
0.8650091,0.0168517,-0.6262183
0.8749883,-0.01049291,-0.630843
0.9337425,-0.06574575,-0.6280349
0.9921409,-0.1233324,-0.6569355
1.078582,-0.2120669,-0.7321759
1.170671,-0.2882562,-0.8916264
1.213639,-0.3246773,-1.031177
1.21564,-0.3472272,-0.991004
1.096196,-0.3831046,-0.9093057
0.8905314,-0.403601,-0.8559994
0.8150495,-0.387991,-0.7287371
0.8666795,-0.3672686,-0.6618984
0.8675936,-0.3160609,-0.701413
0.8672822,-0.2701149,-0.6866729
0.9573945,-0.2744519,-0.641379
1.010232,-0.2732148,-0.5781519
0.9607509,-0.2600455,-0.4631702
0.8308128,-0.2171985,-0.3935237
0.630086,-0.1429359,-0.3689045
0.4915611,-0.1120672,-0.3330877
0.5029303,-0.1368852,-0.2972642
0.5525455,-0.1982627,-0.2492799
0.5792224,-0.296975,-0.2018084
0.6403528,-0.3967127,-0.1870144
0.6947145,-0.4208622,-0.1932712
0.7202782,-0.3984645,-0.1970617
0.7443762,-0.4119918,-0.1897957
0.7093617,-0.4297281,-0.1664013
0.6829351,-0.4629048,-0.1268404
0.7134772,-0.5198002,-0.08347721
0.7299636,-0.5298276,-0.0315173
0.7714365,-0.4956061,0.01720239
0.8307439,-0.437229,0.02158694
0.8637926,-0.3896311,0.003636715
0.8913867,-0.3709797,-0.006099498
0.9431605,-0.3421975,-0.03448201
1.023854,-0.3148336,-0.0702447
1.068286,-0.31836,-0.1056581
1.130694,-0.3762886,-0.1973283
1.265228,-0.5247928,-0.3248024
1.333925,-0.7277243,-0.4136327
1.28106,-0.8150789,-0.466798
1.168388,-0.7753556,-0.4367878
1.065693,-0.760243,-0.3482772
0.9904546,-0.6760156,-0.3570037
0.9033301,-0.5322311,-0.3508506
0.8269038,-0.4552039,-0.3029758
0.7876758,-0.3528724,-0.3954131
0.7956542,-0.2865991,-0.4922351
0.8312079,-0.2785008,-0.5393119
0.874711,-0.245911,-0.5879388
0.9238844,-0.2434437,-0.5773726
0.8944919,-0.2380296,-0.5656805
0.673532,-0.3343315,-0.4736523
0.6345299,-0.2744322,-0.4602781
0.6198882,-0.2519212,-0.4110596
0.5639788,-0.1661372,-0.3733251
0.5234079,-0.0773332,-0.3567521
0.5793209,-0.01813729,-0.390374
0.6783563,0.002734516,-0.4758448
0.7971671,0.02483132,-0.5393473
0.9315058,0.08091882,-0.5624439
1.013253,0.08684,-0.5626953
1.016132,0.09279884,-0.6006655
1.055461,0.05870676,-0.657889
1.154018,-0.08264945,-0.6948445
1.212994,-0.224361,-0.7947586
1.264384,-0.3524787,-0.9772684
1.304374,-0.370935,-1.13516
1.238197,-0.2858258,-1.134839
1.082701,-0.2743872,-1.02424
0.9197824,-0.2849193,-0.9171101
0.8373728,-0.2861942,-0.7610896
0.8317375,-0.2836456,-0.652792
0.8465595,-0.2762805,-0.6579724
0.9616764,-0.3263393,-0.6005916
1.088168,-0.349786,-0.5230966
0.9890244,-0.2832279,-0.4979776
0.747353,-0.1524666,-0.4226803
0.5059077,-0.02736425,-0.3159642
0.3661759,0.005604074,-0.2566629
0.426214,-0.04303979,-0.2643508
0.4789737,-0.1668358,-0.2691455
0.4732408,-0.3104766,-0.2315792
0.5556157,-0.3974577,-0.2152336
0.6155188,-0.4386218,-0.1946711
0.6358634,-0.4488828,-0.1703595
0.6457207,-0.4557967,-0.175768
0.6278828,-0.5142956,-0.1150915
0.6554795,-0.6190643,0.001041094
0.6581119,-0.6514446,0.04281548
0.709906,-0.5932674,0.002307795
0.9900535,-0.5059114,-0.06060987
1.254496,-0.4102446,-0.1477381
1.18378,-0.4464212,-0.2615487
1.052401,-0.5823226,-0.358577
1.151684,-0.6506746,-0.4751858
1.107251,-0.6770114,-0.603372
0.9794898,-0.6451152,-0.6039923
1.043856,-0.5903871,-0.5365923
0.9621334,-0.5678486,-0.5044088
0.8763188,-0.5187615,-0.4437875
0.9086611,-0.510125,-0.455788
0.8412443,-0.4900991,-0.5573831
0.83767,-0.3800094,-0.5818304
0.8284131,-0.3005086,-0.5847199
0.7885534,-0.2454208,-0.5474527
0.7798513,-0.2211604,-0.4553043
0.693653,-0.2485596,-0.4517843
0.6547477,-0.2554731,-0.4475504
0.65034,-0.2686763,-0.4351846
0.6627223,-0.264048,-0.4713712
0.7004421,-0.2137987,-0.4903676
0.6358556,-0.1297916,-0.5121218
0.5782215,-0.01841603,-0.445472
0.6070949,0.01891455,-0.3604267
0.7046895,0.007089056,-0.4344217
0.8599633,0.02165522,-0.5363183
0.9544662,0.02756988,-0.6249712
0.9718005,0.04130897,-0.7257199
0.9920464,0.05770351,-0.7471584
1.030117,0.03334245,-0.7263657
1.097327,-0.04739688,-0.7601542
1.200562,-0.1963507,-0.8773583
1.260538,-0.3471822,-1.014818
1.232159,-0.4004136,-1.028148
1.064037,-0.3892292,-0.9110023
0.8022923,-0.3990295,-0.8241388
0.7520861,-0.4062109,-0.8021429
0.8377177,-0.3927388,-0.7626609
0.8299292,-0.3700252,-0.6744303
0.938096,-0.3351612,-0.5699052
1.06517,-0.3463943,-0.4929083
0.9914059,-0.3656386,-0.4198353
0.8514827,-0.2974224,-0.3834257
0.5805367,-0.1696884,-0.3696984
0.3236623,-0.05472075,-0.2828064
0.4331517,-0.07812428,-0.2269025
0.5746501,-0.2208983,-0.2183958
0.5208552,-0.2976984,-0.1570198
0.5729956,-0.3016277,-0.128713
0.6191795,-0.2945708,-0.1378452
0.592406,-0.3232098,-0.1064136
0.6478314,-0.4076013,-0.06797614
0.647625,-0.4903258,-0.02815908
0.6866631,-0.5631096,0.04890186
0.8269394,-0.5817694,0.1021939
0.965131,-0.5720909,0.05229401
1.138891,-0.6028775,-0.06377266
1.174629,-0.6455703,-0.2493218
1.150483,-0.7122375,-0.5225758
1.190487,-0.7095864,-0.7124311
1.103045,-0.647647,-0.7119096
1.009143,-0.6315566,-0.648322
0.9515842,-0.5527608,-0.5898668
0.8058624,-0.464982,-0.4985551
0.6995215,-0.4417442,-0.4369362
0.7087544,-0.4166318,-0.4790116
0.7553794,-0.3852533,-0.5330166
0.7909005,-0.2892956,-0.5137348
0.8166071,-0.1912052,-0.4925139
0.7838429,-0.1434153,-0.489606
0.7247896,-0.09709745,-0.4918464
0.700427,-0.1106283,-0.5267449
0.6894134,-0.1420751,-0.5361456
0.7269014,-0.1635414,-0.5371154
0.7575629,-0.1866024,-0.5570347
0.7416139,-0.1560314,-0.5262939
0.7120014,-0.1301442,-0.4617026
0.6698902,-0.1175252,-0.3742403
0.7059457,-0.1072306,-0.3404434
0.7846066,-0.1044921,-0.4508367
0.8439887,-0.04447743,-0.5780818
0.9216812,-0.01054001,-0.6227838
0.9502153,-0.0388889,-0.6067616
0.9654745,-0.05812024,-0.5992867
1.042648,-0.1098808,-0.6340225
1.109689,-0.1894546,-0.6994577
1.13643,-0.2801908,-0.8855117
1.162622,-0.3846376,-1.073093
1.162981,-0.4160442,-1.029573
1.028845,-0.3900043,-0.8946192
0.8301006,-0.4188985,-0.802814
0.7880171,-0.4506967,-0.7314989
0.8372953,-0.4022108,-0.7305452
0.8341432,-0.34269,-0.7004767
0.8903403,-0.317332,-0.5834362
0.9860733,-0.3306184,-0.4812219
0.9422139,-0.3452772,-0.3901544
0.740479,-0.2857421,-0.3634213
0.4911988,-0.2323823,-0.3572917
0.4325929,-0.2466887,-0.2678644
0.5749037,-0.2848724,-0.2423909
0.6633512,-0.3624782,-0.257815
0.7352988,-0.4416788,-0.2402906
0.7674091,-0.4428499,-0.2644593
0.6703472,-0.3964936,-0.2591153
0.6180152,-0.3889368,-0.2089419
0.5499647,-0.4194749,-0.1202372
0.469719,-0.4442973,-0.01213617
0.5241357,-0.4680977,0.06454159
0.5712421,-0.4874583,0.1752848
0.6207769,-0.4727631,0.1713073
0.7475861,-0.3798621,-0.0002396072
0.8626764,-0.2560326,-0.08632922
0.8986912,-0.2210091,-0.08398126
0.9166004,-0.2614114,-0.0944563
1.093783,-0.3019251,-0.175908
1.220969,-0.344754,-0.3107948
1.170173,-0.4665879,-0.3795449
1.301056,-0.7534078,-0.4923813
1.441563,-1.097195,-0.5550721
1.222085,-1.19157,-0.3802087
0.9590617,-1.049199,-0.2857728
0.8801298,-0.9621108,-0.3402016
0.7244763,-0.8602489,-0.3301902
0.5660445,-0.6775937,-0.3297024
0.6095468,-0.5686489,-0.3719537
0.627563,-0.4870353,-0.4241533
0.6886828,-0.4343746,-0.4802327
0.8971692,-0.4460525,-0.5409738
0.9945567,-0.4742018,-0.5959329
1.026288,-0.500972,-0.5925547
0.9966745,-0.4255364,-0.6025868
0.8473359,-0.2586875,-0.6236181
0.665163,-0.1125039,-0.5783367
0.5055726,-0.04624539,-0.5196278
0.5259179,-0.05791318,-0.4295249
0.5836142,-0.03308832,-0.3183059
0.5680781,0.06284087,-0.2841317
0.5965305,0.1964243,-0.2967871
0.5885714,0.2650102,-0.3278394
0.6377584,0.1771481,-0.4180986
0.7438845,0.1072924,-0.5067458
0.8065945,0.1117951,-0.5100811
0.8969632,0.09826719,-0.4775804
0.9330726,0.0941595,-0.4784115
0.9420899,0.07458004,-0.512047
0.9822661,0.07568716,-0.5523616
1.036944,0.08716215,-0.5487097
1.148477,-0.006530684,-0.4915092
1.220444,-0.1071558,-0.462508
1.236174,-0.120694,-0.5815296
1.274918,-0.121508,-0.8797854
1.346555,-0.2202102,-1.097657
1.363347,-0.4018541,-0.9923444
1.17118,-0.4671883,-0.8558638
0.9262196,-0.3987249,-0.8916394
0.8894572,-0.3425564,-0.8152883
0.9252217,-0.2897992,-0.7018033
0.869627,-0.2215976,-0.7228494
0.8639571,-0.219386,-0.6469524
0.907911,-0.2845358,-0.5215433
0.8744883,-0.3265679,-0.4842318
0.8470476,-0.3096928,-0.4194244
0.7931715,-0.2308258,-0.3129524
0.6912868,-0.15724,-0.258056
0.6824249,-0.1729413,-0.2960422
0.7140449,-0.2083017,-0.2977227
0.7464562,-0.2293002,-0.252426
0.7683186,-0.271043,-0.2518263
0.7245797,-0.2827196,-0.2014414
0.6785796,-0.2617187,-0.133336
0.6327792,-0.2592766,-0.08441134
0.5858541,-0.2627126,-0.02918743
0.5832438,-0.3027731,0.02974928
0.6254871,-0.4024784,0.1738646
0.6728523,-0.4552135,0.2398102
0.6771145,-0.4521419,0.1469629
0.727047,-0.4705124,0.05593664
0.8400184,-0.5090185,-0.1073997
0.9802751,-0.5849425,-0.3140568
1.289625,-0.6945604,-0.4483879
1.560462,-0.7613654,-0.5596367
1.396448,-0.7128905,-0.5945011
1.131812,-0.6385065,-0.5659074
1.091362,-0.6423154,-0.5575711
0.9438631,-0.5711538,-0.511902
0.7802375,-0.4191955,-0.4567665
0.7907237,-0.3538465,-0.4776912
0.7534727,-0.3317914,-0.5114131
0.7751002,-0.3185297,-0.4959789
0.8215288,-0.3163313,-0.4699009
0.7897265,-0.2886965,-0.4474096
0.8195603,-0.2466372,-0.4431047
0.7886013,-0.1865434,-0.4732726
0.7469343,-0.1338256,-0.4856561
0.7208219,-0.09328676,-0.4962686
0.6310414,-0.05024056,-0.5189792
0.6332778,-0.04222875,-0.5202393
0.6406422,-0.05686915,-0.5309609
0.6166453,-0.06720834,-0.5074697
0.6114159,-0.08546252,-0.4274957
0.5770628,-0.1178743,-0.3467856
0.6097423,-0.1346387,-0.3130831
0.7053365,-0.1046017,-0.3897981
0.8168726,-0.05733474,-0.4853212
0.8594984,-0.01673688,-0.523897
0.8360088,0.03817502,-0.5886263
0.9087386,0.09614278,-0.6678904
0.9611216,0.08366641,-0.6874601
0.9843013,-0.006727983,-0.6943092
1.127598,-0.117356,-0.787276
1.218413,-0.2161789,-0.876053
1.212371,-0.2344573,-0.9637638
1.298944,-0.2563287,-1.13277
1.365895,-0.348527,-1.12607
1.199113,-0.3500747,-1.002848
0.9754765,-0.3520034,-0.9627638
0.8896032,-0.3649544,-0.7855454
0.8298572,-0.2632116,-0.6389124
0.7877535,-0.2634741,-0.6707946
0.838964,-0.3137377,-0.630754
0.9420067,-0.3262804,-0.6003254
1.035591,-0.4063643,-0.5788113
0.9849405,-0.374737,-0.4305279
0.740951,-0.2805188,-0.2651325
0.4982828,-0.2180173,-0.1983354
0.4411884,-0.1243169,-0.2772377
0.4953369,-0.1144181,-0.3486557
0.4983194,-0.1632686,-0.3325763
0.5251275,-0.2562797,-0.3157487
0.5884203,-0.3699447,-0.2627631
0.5616323,-0.4032218,-0.2325618
0.5351837,-0.446332,-0.1861911
0.5342353,-0.4929107,-0.04640637
0.5712854,-0.5241875,0.03091273
0.7025584,-0.5667286,0.04510004
0.7961773,-0.5380468,0.07072772
0.9230947,-0.4810629,0.1011541
1.101441,-0.4517775,0.08950516
1.164905,-0.4424771,0.003971547
1.181521,-0.4645852,-0.08163832
1.165681,-0.5105678,-0.2595869
1.126825,-0.6247524,-0.5492241
1.10895,-0.7200341,-0.7044634
1.052322,-0.6176628,-0.6411032
0.9653107,-0.4954063,-0.5510904
0.8306276,-0.5324906,-0.5501871
0.7217376,-0.5008105,-0.4312189
0.7225441,-0.414941,-0.3157496
0.7492419,-0.4830586,-0.4402582
0.7847788,-0.5256889,-0.4944333
0.8389341,-0.4703076,-0.4675739
0.8834541,-0.4444429,-0.4885194
0.8638536,-0.3773186,-0.4606575
0.7793954,-0.2454717,-0.4960466
0.7078838,-0.1427593,-0.5357983
0.6574578,-0.1299263,-0.5253698
0.635426,-0.1583184,-0.5214054
0.6265206,-0.170279,-0.4877755
0.6363523,-0.2367602,-0.4890777
0.6742798,-0.2745064,-0.4709071
0.6616796,-0.1963887,-0.4234936
0.6316857,-0.1275381,-0.4226623
0.6167228,-0.07259957,-0.4280595
0.6350755,-0.02132099,-0.4802847
0.7060483,0.01306804,-0.5523183
0.7353472,0.07560605,-0.5599991
0.7604141,0.1042303,-0.5393711
0.8051743,0.1055859,-0.5483067
0.8635438,0.09395861,-0.5864667
1.01802,0.004963731,-0.6153402
1.149184,-0.1510515,-0.6316279
1.171209,-0.342563,-0.6451039
1.169975,-0.4520925,-0.7388662
1.193037,-0.4345841,-0.9961366
1.268775,-0.4033951,-1.254962
1.313691,-0.3952307,-1.266279
1.193211,-0.4162942,-1.128632
0.9847752,-0.4301117,-1.063793
0.8579415,-0.3798179,-0.902071
0.7527137,-0.2933265,-0.668936
0.6687659,-0.2142105,-0.6388835
0.7558447,-0.1891881,-0.6558672
0.8894689,-0.2352488,-0.6395762
0.9855668,-0.3120599,-0.6388806
0.9973615,-0.3511818,-0.5504596
0.7719536,-0.3257748,-0.3921555
0.5123376,-0.2768088,-0.2061699
0.4364593,-0.2502979,-0.138343
0.5379966,-0.2890835,-0.2357859
0.7196658,-0.3548433,-0.3256718
0.8348384,-0.3696984,-0.4027443
0.8729543,-0.3613483,-0.4471065
0.7466843,-0.3475402,-0.4009903
0.5459954,-0.3086007,-0.2797234
0.4716044,-0.2958067,-0.06052701
0.4422881,-0.3308763,0.1583349
0.4887832,-0.3863566,0.2313855
0.550836,-0.4333369,0.1946885
0.5621614,-0.4054759,0.1481129
0.6466799,-0.3657167,0.1021648
0.7683335,-0.408172,0.05272915
0.9236406,-0.4236188,0.01075857
1.017856,-0.3874999,-0.03885918
1.056905,-0.3659234,-0.1116132
1.148634,-0.3497616,-0.2033417
1.074297,-0.3964702,-0.2611666
1.019548,-0.5085499,-0.2740129
1.298765,-0.7114211,-0.3204043
1.5307,-1.001012,-0.4013613
1.410701,-1.039478,-0.4287781
1.163371,-0.8313831,-0.3983565
0.9573707,-0.7508938,-0.377058
0.8038771,-0.7070247,-0.3639139
0.7676469,-0.6200414,-0.3514399
0.6826375,-0.5759703,-0.3573527
0.592272,-0.5223207,-0.3672199
0.7333753,-0.5188757,-0.4378391
0.800138,-0.4378297,-0.5796911
0.7928799,-0.3082962,-0.6409488
0.8492047,-0.3194145,-0.598873
0.7968804,-0.2401197,-0.5665968
0.8208181,-0.1785106,-0.5167473
0.7913253,-0.2430427,-0.4096194
0.6319203,-0.1945359,-0.3684153
0.5901372,-0.1689132,-0.4114137
0.5408814,-0.1570828,-0.4163457
0.5798432,-0.089422,-0.4184937
0.6966037,-0.07233692,-0.4606991
0.7481449,-0.004014971,-0.4893932
0.8004042,0.04428397,-0.5081959
0.8007606,0.01116339,-0.5237841
0.9155839,0.01698557,-0.5579978
1.05912,0.02904655,-0.6053204
1.035291,0.04113922,-0.6152059
1.004532,0.0723068,-0.5953175
0.9427636,0.07825666,-0.5581471
0.91705,0.07145024,-0.5322341
0.984789,0.0619314,-0.5742075
1.122593,-0.006192015,-0.7668868
1.329306,-0.1469956,-1.028203
1.30761,-0.3067042,-1.03729
1.091946,-0.4405763,-0.8691682
0.9174709,-0.4746494,-0.8002091
0.7993278,-0.4310794,-0.6958092
0.8435102,-0.3798303,-0.5953712
0.8907561,-0.26218,-0.6322108
0.8530352,-0.1932656,-0.6171035
0.9566081,-0.242621,-0.5378762
1.052769,-0.2238807,-0.4588557
0.9988142,-0.1904133,-0.3878342
0.8580847,-0.1782142,-0.3942241
0.6401647,-0.1004911,-0.3817307
0.5332668,-0.06922967,-0.3135543
0.5342839,-0.09320237,-0.2693423
0.5160194,-0.1688846,-0.2220592
0.5628092,-0.3313321,-0.1422971
0.597782,-0.432826,-0.07003943
0.6059024,-0.4209723,-0.06309202
0.6668411,-0.4057663,-0.05532883
0.6982728,-0.4359001,-0.01666735
0.7169372,-0.4572773,-0.007680795
0.7535567,-0.4736998,0.02992878
0.794995,-0.4712326,0.04194198
0.8710066,-0.4037262,-0.01249058
0.9940084,-0.4093887,-0.04723106
1.121536,-0.5520189,-0.1642926
1.184591,-0.7705975,-0.38783
1.231043,-0.8915485,-0.5923567
1.212173,-0.7471408,-0.6702569
1.089854,-0.5969675,-0.5900365
1.005225,-0.550457,-0.5446103
0.8772051,-0.450815,-0.526178
0.715926,-0.3828143,-0.3977335
0.6936822,-0.3730355,-0.3483386
0.7428486,-0.3820184,-0.4374937
0.8150779,-0.3623827,-0.5136839
0.8773327,-0.2966896,-0.5396473
0.8743584,-0.2755803,-0.5177971
0.8313042,-0.2551122,-0.4863556
0.7721642,-0.2456039,-0.4664155
0.7284026,-0.2632697,-0.4400706
0.7011662,-0.2323402,-0.4515378
0.7084116,-0.2033109,-0.4942395
0.7165834,-0.1589157,-0.5092195
0.6931248,-0.08997267,-0.5044963
0.6849271,-0.05086233,-0.4612215
0.6696999,-0.01863843,-0.4021655
0.6971794,-0.01595191,-0.4248572
0.7779058,-0.01625061,-0.4879862
0.8257796,0.008781636,-0.5302982
0.8486071,0.007431885,-0.5520957
0.8398747,-0.001963901,-0.5556137
0.8480593,-0.001239058,-0.5916565
0.9185485,-0.01539893,-0.6194011
1.05453,-0.06788425,-0.6335517
1.219566,-0.1353317,-0.7234461
1.228247,-0.1665751,-0.85561
1.205272,-0.2147428,-0.9784425
1.273338,-0.287654,-0.9827592
1.120457,-0.2996268,-0.8895299
0.8901517,-0.3076626,-0.8609327
0.8785084,-0.3462345,-0.7594803
0.8748359,-0.3380807,-0.6737658
0.8383799,-0.3005106,-0.7514174
0.8794684,-0.2769913,-0.6987559
1.0148,-0.3084808,-0.5768571
1.153304,-0.3553952,-0.5175369
1.056398,-0.3012363,-0.4544617
0.7944987,-0.1847097,-0.4518564
0.5787643,-0.07820898,-0.3850807
0.4868353,-0.06694568,-0.3111735
0.5077574,-0.1689716,-0.2754073
0.5016186,-0.2416445,-0.1787561
0.5240072,-0.3290131,-0.1893383
0.5989256,-0.4283304,-0.1778649
0.6264961,-0.4129857,-0.1030338
0.672328,-0.3967239,-0.1263443
0.6843425,-0.4274398,-0.09323216
0.6910886,-0.4681414,-0.04313027
0.7531153,-0.5314921,-0.005141125
0.7552771,-0.5294242,0.0697085
0.8204455,-0.4816149,0.09455778
0.977086,-0.4882687,0.07119803
1.080722,-0.565322,-0.1114159
1.180774,-0.6950771,-0.391588
1.265313,-0.7564442,-0.5993712
1.234197,-0.6885496,-0.7503546
1.112497,-0.6155723,-0.6749458
1.040795,-0.5618297,-0.4809079
0.9583537,-0.4891937,-0.4718714
0.7939357,-0.4445451,-0.4329212
0.7408697,-0.421826,-0.3586318
0.7499672,-0.421123,-0.4579515
0.7423665,-0.4033656,-0.5000895
0.7792549,-0.3130612,-0.4830091
0.78765,-0.2435157,-0.5093666
0.7879916,-0.1964923,-0.465317
0.7532578,-0.1614275,-0.4627687
0.6792223,-0.2056319,-0.4816874
0.6599858,-0.2456924,-0.4706295
0.6656886,-0.2575829,-0.4893725
0.7048652,-0.2958186,-0.4715762
0.7442772,-0.3129293,-0.4808087
0.728755,-0.2469847,-0.483449
0.6708162,-0.1153144,-0.438409
0.6271971,-0.02108986,-0.4407117
0.7190008,0.03317944,-0.4870307
0.8583243,0.09026153,-0.5938602
0.9173414,0.1109995,-0.693787
0.9555798,0.1144335,-0.757544
0.9703114,0.08817238,-0.7595373
0.9564721,0.007862319,-0.6712162
0.9659934,-0.05649499,-0.6750183
0.9667896,-0.1271636,-0.7434964
0.9511763,-0.2232182,-0.8254589
0.9833598,-0.2507408,-0.9229219
1.088678,-0.3185681,-0.9332224
1.191511,-0.5046495,-0.9849247
1.099112,-0.5310603,-0.9917762
0.8715545,-0.4396051,-0.8522193
0.8025412,-0.4542521,-0.7695472
0.850208,-0.3866122,-0.6991221
0.891008,-0.2949936,-0.6547289
0.9856092,-0.3088093,-0.6780828
1.134353,-0.2772876,-0.6457612
1.18128,-0.2807097,-0.5641869
0.9694601,-0.2704695,-0.415543
0.6674132,-0.1569381,-0.2921538
0.4752063,-0.08140992,-0.2592626
0.446663,-0.0606681,-0.2167849
0.5351935,-0.1461759,-0.2279871
0.5452453,-0.279849,-0.2535809
0.5749375,-0.3337233,-0.2169153
0.6453696,-0.3513274,-0.2029428
0.6096555,-0.343332,-0.1886775
0.6102829,-0.3862682,-0.1599099
0.6143837,-0.4713707,-0.138815
0.6021069,-0.5104851,-0.08620652
0.6463931,-0.531582,-0.01158254
0.6901961,-0.5092785,0.05667474
0.8089552,-0.4744241,0.07805531
0.9190031,-0.4508291,0.02669944
0.9694018,-0.4153751,-0.05320919
1.074433,-0.4166064,-0.145093
1.157122,-0.4537361,-0.2711075
1.233216,-0.5500609,-0.4157673
1.334481,-0.6739213,-0.5242014
1.33383,-0.7047642,-0.5425716
1.224326,-0.6942866,-0.4571084
1.0902,-0.7225368,-0.3582518
0.9822222,-0.7107737,-0.3610295
0.9413435,-0.648501,-0.3782244
0.8913765,-0.581332,-0.3255587
0.7775238,-0.4737598,-0.3063614
0.7811641,-0.4313625,-0.3372162
0.8480096,-0.444745,-0.4187369
0.8289667,-0.3243567,-0.5530703
0.8728269,-0.2477697,-0.5939773
0.8806772,-0.2805757,-0.5515706
0.8198808,-0.2263572,-0.5572529
0.8557594,-0.2116418,-0.5644071
0.8283816,-0.2717189,-0.5149164
0.7602373,-0.2789896,-0.4617157
0.7280445,-0.2528705,-0.4390712
0.6367152,-0.1907794,-0.4408015
0.6186385,-0.1394698,-0.4583137
0.688329,-0.127027,-0.4805371
0.7426553,-0.09970531,-0.5072428
0.7518077,-0.08916885,-0.5108641
0.70039,-0.1287358,-0.4774502
0.6809564,-0.1669333,-0.4607406
0.6973794,-0.1521822,-0.4872223
0.7148717,-0.1134802,-0.5269634
0.755018,-0.06492215,-0.5353407
0.8130157,-0.007874788,-0.5300457
0.886108,0.0001838958,-0.5620339
0.9274851,-0.02127209,-0.6185859
0.9649439,-0.05597859,-0.6825988
1.040592,-0.1388728,-0.7337366
1.120192,-0.2173613,-0.8012348
1.203235,-0.2569118,-0.9589101
1.266651,-0.2918629,-1.064931
1.283453,-0.3386211,-0.9267213
1.183768,-0.3762712,-0.7588868
0.9673847,-0.380057,-0.7655331
0.8445287,-0.3772114,-0.6862681
0.8671708,-0.3510154,-0.5724255
0.8594364,-0.2580754,-0.6678259
0.7935441,-0.180963,-0.6843701
0.8001463,-0.1707201,-0.5900577
0.8706197,-0.187116,-0.5328212
0.8981549,-0.2185717,-0.4168312
0.8460336,-0.2347245,-0.4118849
0.7025804,-0.2352245,-0.4451082
0.5541329,-0.2283753,-0.3633792
0.4920382,-0.2091916,-0.3422361
0.7138626,0.1005113,-0.4812784
0.8383118,0.1151916,-0.4940911
0.9607168,0.1344376,-0.5747436
0.994516,0.1191808,-0.6339704
0.9672357,0.1039607,-0.617384
0.9771834,0.08136765,-0.5937457
1.020111,-0.004330346,-0.5695325
1.076709,-0.08624401,-0.6189695
1.177066,-0.1560094,-0.8162112
1.261164,-0.2751183,-1.138203
1.243875,-0.4181493,-1.299587
1.130984,-0.5288296,-1.167914
0.9706959,-0.518149,-1.074229
0.8165242,-0.4511772,-0.9644881
0.740873,-0.4473406,-0.661668
0.751557,-0.4237963,-0.5348083
0.7827336,-0.414746,-0.6263533
0.8640527,-0.4505788,-0.6115028
0.990932,-0.4185978,-0.541251
0.9649923,-0.3260033,-0.468413
0.7379749,-0.1482093,-0.3297367
0.481498,0.01400944,-0.2497809
0.3516238,-0.005284911,-0.2581709
0.4224691,-0.09802337,-0.2637001
0.5166443,-0.2338505,-0.2572293
0.5385685,-0.3702908,-0.2269397
0.5998174,-0.3819129,-0.1883448
0.6103876,-0.3849329,-0.1749308
0.6209788,-0.4249241,-0.1397977
0.6598147,-0.4303531,-0.08498217
0.6336281,-0.4455052,-0.0330333
0.7415081,-0.5004498,0.06464725
0.8613495,-0.5231865,0.1155774
0.8990986,-0.4524283,0.05970315
1.11087,-0.3820093,0.02363087
1.265413,-0.3949493,-0.07151875
1.181203,-0.4970368,-0.2903135
1.125868,-0.689511,-0.4836179
1.160241,-0.8212721,-0.6359627
1.137016,-0.7870528,-0.7022827
1.091609,-0.7451013,-0.6793697
1.040156,-0.7305619,-0.6783426
0.8742141,-0.5870877,-0.5989488
0.7442571,-0.4308055,-0.4587439
0.7332131,-0.4042883,-0.4253471
0.7534546,-0.3865787,-0.487427
0.7888727,-0.3529213,-0.5531573
0.7875779,-0.3038368,-0.5402493
0.8088973,-0.2364168,-0.5168299
0.8043481,-0.207946,-0.5179544
0.7248805,-0.1829545,-0.4820372
0.6742639,-0.1888891,-0.4732171
0.6080084,-0.2022756,-0.4573847
0.5870285,-0.1689068,-0.4269398
0.6194772,-0.135694,-0.4487345
0.6095291,-0.06004609,-0.4323853
0.6055766,0.01233198,-0.3751875
0.6062324,0.02227181,-0.3407033
0.6763184,0.0385333,-0.3664473
0.8237308,0.05190621,-0.4649656
0.9247594,0.05353693,-0.560755
0.9566563,0.05081128,-0.6533547
0.9446326,0.03472095,-0.7169496
0.9901202,-0.03806557,-0.7155794
1.105902,-0.2157261,-0.7417504
1.186175,-0.3833787,-0.8434048
1.244182,-0.4326743,-1.021564
1.280663,-0.3922503,-1.197875
1.214376,-0.3288354,-1.227544
1.034863,-0.2864624,-1.05802
0.8677478,-0.2701754,-0.8119939
0.8362677,-0.2897201,-0.7330182
0.8739829,-0.3027757,-0.7575044
0.906233,-0.3099703,-0.6497259
1.029688,-0.3467007,-0.5023742
1.147127,-0.3357784,-0.4540226
1.01417,-0.2681177,-0.4508937
0.7370385,-0.1631767,-0.3941479
0.4970359,-0.06250523,-0.3036316
0.4057413,-0.07018062,-0.2799753
0.5112451,-0.1384006,-0.2770049
0.5550944,-0.248602,-0.234726
0.5303936,-0.3737887,-0.1880781
0.5863246,-0.383192,-0.1764031
0.5845378,-0.3465419,-0.1982268
0.5856104,-0.3605284,-0.1804864
0.6274205,-0.4209714,-0.1032112
0.6436145,-0.5217719,0.013713
0.7149214,-0.5640462,0.1141157
0.7960783,-0.5066264,0.1190616
0.9309026,-0.4568817,0.06411015
1.100772,-0.4685581,-0.06467171
1.167573,-0.531766,-0.2806613
1.248817,-0.6690101,-0.497466
1.258939,-0.7627852,-0.683567
1.11368,-0.675721,-0.7562494
1.047543,-0.5786089,-0.6891197
1.00541,-0.5638374,-0.6228439
0.8864311,-0.4929254,-0.5700211
0.8120597,-0.438809,-0.4971507
0.7961125,-0.473569,-0.5120277
0.8162183,-0.4723249,-0.5618895
0.8397934,-0.4436837,-0.5346374
0.8525737,-0.40895,-0.5474219
0.8393158,-0.297834,-0.5605966
0.7616937,-0.1905624,-0.5139201
0.7013669,-0.1761741,-0.5329535
0.6524185,-0.1997,-0.5294873
0.6043279,-0.1996787,-0.4851569
0.6136397,-0.1792206,-0.4800014
0.6137039,-0.1686786,-0.4635828
0.6160262,-0.1481402,-0.4487415
0.6091604,-0.08464306,-0.399374
0.5453634,-0.008258361,-0.3617672
0.5111283,0.01746211,-0.3725825
0.574429,0.008671457,-0.3558678
0.7401039,0.03052542,-0.4052719
0.913307,0.01945517,-0.4951685
1.047824,-0.03518355,-0.5818255
1.161078,-0.05717414,-0.7595714
1.255619,-0.1270997,-1.038183
1.379161,-0.2636169,-1.378621
1.401332,-0.3873861,-1.472184
1.261911,-0.476094,-1.217698
1.062899,-0.4808046,-1.046654
0.8142497,-0.4599745,-0.9789161
0.7060589,-0.4943682,-0.7789244
0.7962919,-0.5024072,-0.6475104
0.8706757,-0.4556109,-0.6606444
0.9638428,-0.4069424,-0.585269
1.03057,-0.3866067,-0.4784802
0.8346264,-0.376224,-0.4630827
0.5145934,-0.2588937,-0.384451
0.3456354,-0.0508618,-0.2800634
0.3311499,0.04074928,-0.2744324
0.4197587,-0.004275968,-0.2857896
0.5486444,-0.0898469,-0.2999695
0.6092133,-0.2290845,-0.2973524
0.5848388,-0.3348432,-0.2726892
0.5418067,-0.3714444,-0.2631923
0.5380934,-0.4791648,-0.2188698
0.5332009,-0.5631471,-0.1713044
0.5443143,-0.5383828,-0.1062394
0.6444613,-0.5755059,0.07108259
0.7421939,-0.625031,0.2644819
0.785639,-0.5570757,0.2427576
0.9030516,-0.3737656,0.07762747
1.120477,-0.1404247,0.04567598
1.194222,-0.1037906,0.002503383
1.234331,-0.2551536,-0.205842
1.612622,-0.4331438,-0.4879862
1.824606,-0.6709538,-0.6715162
1.404087,-0.7625283,-0.5507003
0.9505459,-0.7890558,-0.4378569
0.8515222,-0.958738,-0.3655325
0.7871533,-0.9077213,-0.1415825
0.630779,-0.7574097,-0.1754064
0.614108,-0.7044314,-0.2766045
0.682207,-0.5602605,-0.2753261
0.7107891,-0.5323086,-0.481986
0.7967231,-0.4816827,-0.6187314
0.8447122,-0.3841982,-0.6358476
0.8750839,-0.449777,-0.6570202
0.9181825,-0.3788838,-0.6290832
0.8456597,-0.3125118,-0.6422855
0.7697803,-0.2954296,-0.5993174
0.6858949,-0.2022359,-0.5162248
0.583359,-0.2066438,-0.4605713
0.5917223,-0.1139633,-0.4330421
0.6566087,-0.03502927,-0.466871
0.7095507,-0.03216641,-0.4545208
0.6872303,0.07595506,-0.4628769
0.6447018,0.1002966,-0.4980095
0.672029,0.1513943,-0.4789971
0.692794,0.2334899,-0.4822397
0.7401342,0.2063609,-0.4476604
0.7890045,0.1841733,-0.4125836
0.7915986,0.1251212,-0.4584542
0.9032591,0.07572384,-0.5349157
1.074134,0.05937473,-0.6073336
1.139751,0.01482232,-0.5731597
1.169008,-0.05054664,-0.4712179
1.211283,-0.1458006,-0.4260856
1.197525,-0.1666979,-0.4901207
1.180072,-0.1796301,-0.7444021
1.241813,-0.263517,-1.03204
1.308551,-0.3254797,-1.063725
1.286171,-0.4130466,-0.9228312
1.090336,-0.4415435,-0.8745849
0.839194,-0.3574368,-0.8557255
0.8250285,-0.3287826,-0.7758804
0.8433247,-0.3027292,-0.7682321
0.7062234,-0.2452781,-0.7701587
0.7527523,-0.2789876,-0.7277846
0.9095306,-0.372585,-0.666393
0.9392362,-0.4512644,-0.4736691
0.9218144,-0.453025,-0.3339515
0.7593687,-0.370303,-0.3693078
0.5264784,-0.264485,-0.3324644
0.4632737,-0.1435312,-0.2789865
0.5717494,-0.1056841,-0.3158557
0.735074,-0.1865263,-0.3026925
0.7774281,-0.2479043,-0.2821823
0.7605048,-0.284355,-0.2817248
0.7480782,-0.290719,-0.2113736
0.6731713,-0.2514809,-0.09771721
0.6151566,-0.2555244,0.05990826
0.564054,-0.279055,0.1798316
0.5985664,-0.3438544,0.1782974
0.6954321,-0.4696027,0.1709986
0.7303645,-0.5207795,0.1271765
0.8956053,-0.5413017,0.01394381
1.078379,-0.6748003,-0.1050537
1.166741,-0.8965686,-0.3496055
1.311318,-1.014651,-0.6666047
1.256703,-0.8942827,-0.7690108
1.017681,-0.7001467,-0.6390438
0.9115212,-0.5635574,-0.5496795
0.7691654,-0.4376861,-0.5411176
0.583521,-0.3457512,-0.423072
0.5883217,-0.3199637,-0.3373398
0.6472857,-0.3424877,-0.4042452
0.7019817,-0.3359225,-0.4590053
0.7958944,-0.2794479,-0.5065316
0.8155909,-0.243555,-0.5088342
0.7780329,-0.1883096,-0.4487945
0.7223496,-0.129823,-0.4732628
0.6685967,-0.1040544,-0.4914015
0.6714633,-0.07048194,-0.4924559
0.7057203,-0.1034827,-0.5453897
0.7231982,-0.1403176,-0.5403956
0.7113937,-0.09912742,-0.5180728
0.7138989,-0.09215323,-0.4699735
0.7368676,-0.104418,-0.4033519
0.7910236,-0.09817796,-0.4822672
0.8802197,-0.08557333,-0.6037191
0.911279,-0.04266415,-0.6324034
0.893734,-0.0004614453,-0.6081402
0.8837206,0.01455074,-0.5823235
0.8792453,0.003764681,-0.586356
0.9122698,-0.01429576,-0.5866842
0.9875649,-0.06357068,-0.6392808
1.052635,-0.1532736,-0.8155559
1.094049,-0.2138204,-1.002531
1.170572,-0.2916836,-1.065813
1.223966,-0.391093,-1.05056
1.105572,-0.3825102,-1.054774
0.9289296,-0.3340346,-0.9942235
0.8956655,-0.3340506,-0.8509832
0.8949028,-0.3076005,-0.7577942
0.8506995,-0.3204259,-0.7297302
0.8866326,-0.4081354,-0.6974983
0.9305614,-0.4544606,-0.5931777
0.9165361,-0.4681755,-0.4850926
0.8684703,-0.4248324,-0.4122595
0.7193625,-0.3153548,-0.3202673
0.5419453,-0.2202384,-0.3093023
0.4441567,-0.1292158,-0.3111772
0.45849,-0.1007602,-0.276991
0.499725,-0.09583306,-0.3092789
0.4686839,-0.081069,-0.283945
0.539704,-0.2039536,-0.2363596
0.6607775,-0.3337767,-0.206545
0.6410456,-0.3590657,-0.1488906
0.5939996,-0.3846096,-0.1686153
0.5624395,-0.4319004,-0.1084023
0.6067941,-0.5196606,0.05268062
0.7101543,-0.5733618,0.1272996
0.7450575,-0.5596286,0.1457394
0.8425474,-0.5054499,0.08857071
0.995167,-0.4078345,0.0008627313
1.060067,-0.4056235,-0.0737712
1.073728,-0.5175502,-0.2114866
1.157813,-0.712428,-0.4175169
1.291057,-0.8959636,-0.7031836
1.222644,-0.8185926,-0.8577515
1.020555,-0.6873589,-0.6383192
0.8723994,-0.6900929,-0.3475768
0.731663,-0.5804191,-0.3072386
0.6853979,-0.4482924,-0.3211407
0.6594582,-0.4196771,-0.31518
0.6256394,-0.3983164,-0.4090834
0.7308924,-0.4031264,-0.4737242
0.8132196,-0.3435627,-0.5078052
0.8512885,-0.2723111,-0.5423431
0.8527543,-0.2761452,-0.5351804
0.7553969,-0.2073031,-0.5725689
0.712268,-0.1606597,-0.5491963
0.6764487,-0.1844509,-0.4861935
0.6767386,-0.1839543,-0.495711
0.7425962,-0.1795611,-0.4706392
0.7237852,-0.1111959,-0.4507405
0.6943637,-0.009937866,-0.41628
0.6494779,0.03535075,-0.374417
0.657462,0.02210611,-0.4411696
0.7601837,0.01410796,-0.5211891
0.7948674,0.04307157,-0.5719526
0.8282597,0.04438825,-0.5705209
0.833121,0.06304954,-0.5419449
0.8381309,0.04504692,-0.5735528
0.9402554,-0.0557057,-0.5732916
1.048577,-0.1420542,-0.5708487
1.178401,-0.2595712,-0.6229902
1.197237,-0.3281409,-0.6703674
1.159209,-0.2894391,-0.7831831
1.253124,-0.2413226,-1.003771
1.276701,-0.1883908,-1.161946
1.17973,-0.2197823,-1.052218
0.9939966,-0.3150056,-0.8885269
0.7856017,-0.357298,-0.8766978
0.7159768,-0.3755645,-0.7607127
0.6946827,-0.3644045,-0.6483491
0.7404832,-0.3719388,-0.6558542
0.8963396,-0.4288883,-0.5695921
0.988395,-0.4632302,-0.5798721
0.938562,-0.5047474,-0.6298493
0.8276953,-0.5503253,-0.5557625
0.745435,-0.514226,-0.526545
0.6279795,-0.3770294,-0.3289432
0.5059349,-0.2495667,-0.08373252
0.5575799,-0.2639344,-0.1796061
0.7371184,-0.3046427,-0.3401925
0.8785782,-0.2578883,-0.4348712
0.8863937,-0.2346484,-0.555389
0.731827,-0.1936514,-0.4712829
0.4980356,-0.08468588,-0.1889562
0.3683278,-0.08752071,0.01993891
0.4196474,-0.2208152,0.1343485
0.4771335,-0.3827095,0.2528586
0.4903607,-0.5168247,0.3211928
0.6408591,-0.5459412,0.2112886
0.861547,-0.5788624,0.04524303
0.994835,-0.6484887,-0.03159465
1.054901,-0.5992077,-0.1121827
1.099574,-0.541282,-0.1611899
1.292192,-0.5876694,-0.2902425
1.459658,-0.6806071,-0.4896025
1.28545,-0.7893235,-0.4703597
1.02048,-0.7999207,-0.4344732
0.8513157,-0.7681899,-0.4345113
0.731124,-0.7995211,-0.3747686
0.6940845,-0.7135136,-0.3731402
0.6771181,-0.5547369,-0.3527407
0.6931348,-0.4773772,-0.4451328
0.731373,-0.3666678,-0.6176944
0.7381546,-0.2461688,-0.6386336
0.7786553,-0.1945451,-0.6036003
0.8293709,-0.1715313,-0.5731876
0.8362985,-0.1618063,-0.5605654
0.8093295,-0.1459035,-0.5498734
0.756784,-0.1453881,-0.533919
0.6958353,-0.133774,-0.5215903
0.6702419,-0.1000591,-0.4967166
0.7075271,-0.1002048,-0.5019844
0.7364596,-0.08765614,-0.4721421
0.707785,-0.05705852,-0.4446961
0.6812362,-0.04387772,-0.4717599
0.6979906,-0.03878283,-0.4888461
0.7924933,-0.02528903,-0.5601529
0.9240061,0.01309664,-0.6403084
0.9500561,0.01961707,-0.652098
0.9553492,-0.0167265,-0.6468722
1.028635,-0.06028775,-0.6416006
1.032791,-0.1322694,-0.6395538
1.049123,-0.2120432,-0.6657394
1.124352,-0.2590459,-0.8086877
1.134427,-0.2994145,-1.068503
1.156902,-0.3898584,-1.210453
1.112848,-0.4694535,-1.069231
0.8935384,-0.4554996,-0.8876802
0.7026615,-0.4176258,-0.8459181
0.6874749,-0.3707534,-0.7638692
0.7905122,-0.2939932,-0.713057
0.8870799,-0.2650477,-0.6926328
1.012694,-0.2931013,-0.5397622
1.113331,-0.3203235,-0.4963609
1.049304,-0.320936,-0.5202216
0.9347514,-0.2787264,-0.443145
0.6444462,-0.1564464,-0.4026823
0.3245125,-0.03477383,-0.3462182
0.4357839,-0.07162896,-0.3201179
0.5540666,-0.1509536,-0.3111133
0.4885056,-0.1828921,-0.2347325
0.6356045,-0.2798331,-0.2418452
0.7129806,-0.3111673,-0.2093406
0.6392755,-0.2708664,-0.1291406
0.6719482,-0.3361038,-0.1116146
0.6470743,-0.4138895,0.01125665
0.6307632,-0.4840589,0.1123377
0.6901916,-0.5102413,0.09307284
0.7101079,-0.4364889,0.1036001
0.8432774,-0.4118627,0.1015668
1.034553,-0.3768613,0.04380231
1.115065,-0.3823333,-0.0676372
1.137158,-0.5703643,-0.2733559
1.241387,-0.7377511,-0.50945
1.384892,-0.7784549,-0.6110802
1.272024,-0.7346413,-0.6134102
1.108656,-0.699368,-0.6235709
1.076215,-0.6584714,-0.5449945
0.8707173,-0.5185496,-0.4558304
0.6990229,-0.4428551,-0.4056723
0.6957999,-0.4366199,-0.3544125
0.6618437,-0.4302035,-0.4411216
0.7176295,-0.4198947,-0.5140798
0.8144765,-0.339071,-0.5028026
0.8382764,-0.3058978,-0.5270978
0.8376867,-0.2826454,-0.5015041
0.7879965,-0.2339087,-0.5068107
0.7221534,-0.2437087,-0.5213214
0.661536,-0.2038294,-0.4918809
0.6233807,-0.1741792,-0.5017384
0.6286574,-0.1872732,-0.4599307
0.635389,-0.1456158,-0.432857
0.6374049,-0.07232247,-0.4353153
0.6102404,-0.004787428,-0.4025692
0.5979742,-0.008428922,-0.4383172
0.7085203,-0.0244781,-0.5171349
0.8832218,-0.006786351,-0.5952884
0.9826153,-0.02049827,-0.6031168
1.0182,-0.0472212,-0.5748468
1.08373,-0.09889026,-0.6609184
1.125683,-0.1485789,-0.7365822
1.113216,-0.178976,-0.7657472
1.147067,-0.2413627,-0.8952632
1.214453,-0.2869406,-1.05678
1.224731,-0.3068964,-1.063649
1.096259,-0.339767,-0.958151
0.8880535,-0.3576807,-0.8936058
0.8130912,-0.3485781,-0.7871251
0.8352719,-0.3270501,-0.7103362
0.8238654,-0.3109349,-0.7502988
0.8766237,-0.3391613,-0.6914196
0.9803771,-0.3823883,-0.6254882
1.032495,-0.3638464,-0.6129784
1.091685,-0.3464067,-0.531685
1.027809,-0.3361026,-0.5180877
0.647548,-0.2111919,-0.4652253
0.2999703,-0.07082324,-0.310273
0.3566112,-0.06987955,-0.2921094
0.4798596,-0.1262704,-0.2764724
0.4018508,-0.1601705,-0.1612805
0.4378257,-0.2258671,-0.1687385
0.5689627,-0.2954071,-0.2146274
0.6113311,-0.3577494,-0.1675773
0.6876114,-0.4525858,-0.1683243
0.6715566,-0.4775464,-0.1404993
0.6618035,-0.5204047,0.006277796
0.7876277,-0.6013208,0.1350349
0.817149,-0.4976713,0.1825664
0.9548042,-0.3932011,0.11427
1.129264,-0.3903766,-0.01353906
1.108997,-0.3836882,-0.1860471
1.162399,-0.5049129,-0.4461238
1.186547,-0.6542872,-0.6263237
1.120535,-0.6719438,-0.6691404
1.108524,-0.6241456,-0.6198451
1.027025,-0.5975746,-0.5519559
0.9077515,-0.5687998,-0.5314743
0.8270658,-0.4867035,-0.4316949
0.7875512,-0.4794581,-0.3657146
0.7936582,-0.4746499,-0.4436672
0.7827268,-0.3578563,-0.5045496
0.7744811,-0.252316,-0.5591669
0.7823333,-0.1582911,-0.5771261
0.7579878,-0.1320056,-0.5210428
0.747422,-0.1779065,-0.4967456
0.7607581,-0.1941785,-0.4937389
0.7492336,-0.2308037,-0.4938009
0.7470872,-0.2502326,-0.5120433
0.7450285,-0.2350276,-0.5492647
0.7250904,-0.2075395,-0.5695172
0.6930986,-0.1125778,-0.5144626
0.647447,-0.01738121,-0.4634907
0.6690357,-0.009691069,-0.4935827
0.7466584,-0.05228451,-0.5578591
0.8311159,-0.05931949,-0.5990603
0.9049823,-0.03316387,-0.5846339
0.9032914,0.01451865,-0.5572164
0.9332598,0.08727633,-0.5862257
1.056746,0.07532976,-0.6865023
1.151255,-0.03018867,-0.8980872
1.225427,-0.1736335,-1.085747
1.242499,-0.3372977,-1.020359
1.080702,-0.400301,-0.9060898
0.8781569,-0.3751457,-0.8583597
0.8582394,-0.3776554,-0.709275
0.9158557,-0.3560707,-0.6824187
0.8706788,-0.2733949,-0.7890672
0.8726812,-0.2289917,-0.7552052
1.017765,-0.2814066,-0.6371299
1.142371,-0.3329451,-0.4934963
1.102203,-0.295758,-0.4711108
0.8506067,-0.1968838,-0.5251796
0.5969612,-0.0890968,-0.4260179
0.553065,-0.07276923,-0.3825066
0.5346041,-0.1330059,-0.3245644
0.4172147,-0.1621192,-0.1394818
0.4307415,-0.2225574,-0.1352069
0.5721155,-0.2945761,-0.1888016
0.6059051,-0.3347461,-0.1597043
0.6199429,-0.4018892,-0.1790765
0.6383573,-0.4397275,-0.1846953
0.6125168,-0.5347786,-0.1632407
0.6446339,-0.6330318,-0.1113948
0.6338546,-0.5508547,0.03361883
0.6638702,-0.4926507,0.1646529
0.8209067,-0.4388058,0.157744
0.9848375,-0.3525002,0.0787957
1.161273,-0.4392574,-0.02943781
1.203425,-0.5442354,-0.2391604
1.223786,-0.6279538,-0.4692668
1.336556,-0.6861314,-0.6395283
1.268647,-0.5962273,-0.7373401
1.112261,-0.5340906,-0.5979711
0.9462527,-0.4866831,-0.3496027
0.7492659,-0.4006571,-0.3157752
0.719406,-0.3971426,-0.3192115
0.7585627,-0.4374392,-0.2727723
0.7621989,-0.4742828,-0.3750674
0.8385782,-0.4155605,-0.4678733
0.8968493,-0.2966389,-0.5136866
0.8847962,-0.2447965,-0.5823838
0.8941497,-0.1785985,-0.580607
0.8825879,-0.1444204,-0.593595
0.8257731,-0.1625238,-0.573699
0.7377546,-0.1361541,-0.5251947
0.6552707,-0.1490146,-0.5373772
0.6710016,-0.1729162,-0.4854011
0.6742446,-0.1311348,-0.4422699
0.6007101,-0.103459,-0.4245669
0.5338608,-0.1166492,-0.3688634
0.5041282,-0.1543484,-0.3719972
0.6232956,-0.1757542,-0.435132
0.8091082,-0.09747909,-0.5294417
0.8714652,0.06356839,-0.5486913
0.8825264,0.1420569,-0.4925886
0.8992688,0.0570095,-0.5032505
0.9178083,-0.04751557,-0.5753913
0.9794963,-0.09984039,-0.6825716
1.077902,-0.1814682,-0.7267334
1.131692,-0.2668079,-0.6986445
1.100027,-0.2933058,-0.7358708
1.09695,-0.2945011,-0.8170267
1.150572,-0.2859536,-0.8841413
1.152245,-0.2331473,-0.8801342
1.071573,-0.1686514,-0.8327213
0.9655832,-0.1926827,-0.8126492
0.9162575,-0.2314581,-0.7315458
0.8636124,-0.1705353,-0.6748138
0.7790646,-0.1439314,-0.7117785
0.7834097,-0.1823047,-0.6704432
0.788036,-0.2201745,-0.5858878
0.7544918,-0.3180802,-0.5182965
0.7685325,-0.386344,-0.4543227
0.7313979,-0.3679785,-0.4611675
0.6852758,-0.3413607,-0.4442123
0.657585,-0.2889093,-0.3945878
0.563018,-0.2170531,-0.4063894
0.5220658,-0.1801624,-0.3775077
0.5647224,-0.2309536,-0.3045164
0.6390865,-0.3640522,-0.2565832
0.7233669,-0.4808382,-0.2101956
0.7709428,-0.5131812,-0.2060127
0.8164314,-0.4925642,-0.2347973
0.8435903,-0.4843296,-0.252566
0.8580777,-0.4460643,-0.290184
0.8450629,-0.3520465,-0.3007052
0.7551627,-0.2251536,-0.2716894
0.6996986,-0.06731514,-0.2532793
0.6741753,0.0261384,-0.1848623
0.6178389,0.05116307,-0.1390977
0.6293455,-0.01783024,-0.2301814
0.7894243,-0.2885631,-0.3544644
1.040959,-0.5800469,-0.4921499
1.226719,-0.6758964,-0.6222003
0.5382056,-0.2194512,-0.5378392
0.5095407,-0.212728,-0.4602112
0.5132389,-0.1972648,-0.3540797
0.4962368,-0.1239361,-0.335487
0.4875095,-0.02400478,-0.3389345
0.4877598,0.03625855,-0.3655226
0.579982,0.07712595,-0.4903655
0.7564545,0.1316538,-0.6246033
0.882249,0.1227664,-0.7084961
0.9500397,0.06954995,-0.7178851
1.01058,0.05289318,-0.7543797
1.028172,0.02484878,-0.8381155
1.017935,-0.03182962,-0.898259
1.039585,-0.1251869,-1.010532
1.046906,-0.2304267,-1.190021
1.091008,-0.3077567,-1.332316
1.142532,-0.399606,-1.227519
0.9834775,-0.4187123,-1.025943
0.7811865,-0.4036542,-1.006769
0.7688804,-0.4559619,-0.8894468
0.7598194,-0.4259985,-0.7651104
0.7029722,-0.3845886,-0.8495314
0.7953504,-0.3812439,-0.8042849
0.9575353,-0.3108001,-0.6762246
0.9473788,-0.2955942,-0.5513468
0.7386009,-0.268706,-0.39361
0.4383623,-0.1589846,-0.3792155
0.2753911,-0.08171511,-0.3468469
0.3329158,-0.05521297,-0.2808146
0.3881092,-0.134495,-0.279303
0.4538475,-0.2377084,-0.1993243
0.5648429,-0.3109182,-0.1762078
0.5976643,-0.3879159,-0.2138363
0.6231351,-0.3716302,-0.1753118
0.6209359,-0.385766,-0.1409392
0.5906129,-0.4770185,-0.09314845
0.6338901,-0.5298335,-0.04466139
0.6941133,-0.6468561,0.006417502
0.793165,-0.7231709,0.05588501
0.9547218,-0.6096725,-0.02664181
1.145192,-0.5211521,-0.1585155
1.262871,-0.5392323,-0.291007
1.172096,-0.5968481,-0.5023182
1.091203,-0.7327887,-0.737798
1.095291,-0.8166412,-0.8742669
1.027487,-0.7555499,-0.7495742
1.005639,-0.675693,-0.5820918
0.9545534,-0.5602331,-0.617961
0.8196875,-0.4191132,-0.5661548
0.7707397,-0.4029772,-0.4865996
0.7259156,-0.4342953,-0.5652598
0.6908908,-0.3637914,-0.5737776
0.7025352,-0.254938,-0.5647374
0.667409,-0.1792447,-0.5531678
0.6191347,-0.1500951,-0.4617088
0.5523184,-0.1633321,-0.4507146
0.4913381,-0.1546194,-0.4485955
0.4855021,-0.1609761,-0.4199995
0.5037228,-0.1952178,-0.4453706
0.5336416,-0.1523775,-0.4501452
0.532763,-0.05161329,-0.4461981
0.5275688,0.05552105,-0.4263597
0.5606945,0.1115481,-0.397771
0.6351516,0.08710109,-0.4645284
0.8263496,0.04494935,-0.6437276
1.070176,-0.04129962,-0.8747443
1.177675,-0.1187594,-0.9933281
1.175871,-0.1587042,-0.9471034
1.192282,-0.2717914,-0.9007155
1.151949,-0.3437985,-0.9326561
1.076558,-0.3432821,-1.096929
1.133583,-0.4181037,-1.29839
1.15234,-0.483043,-1.239324
0.9657442,-0.4653172,-1.090609
0.7402789,-0.4463485,-1.04379
0.6336474,-0.4344499,-0.8514845
0.6691465,-0.3743942,-0.6883981
0.7208243,-0.3079042,-0.65775
0.7392152,-0.3000742,-0.5520409
0.7706381,-0.2896756,-0.553467
0.7702027,-0.2472403,-0.5672384
0.7090642,-0.1876115,-0.4730809
0.4483016,-0.1118821,-0.3940601
0.1445355,-0.04475199,-0.2251726
0.2176537,-0.03779318,-0.198323
0.3738668,-0.1474406,-0.2982747
0.3537312,-0.2772892,-0.2360092
0.451056,-0.3532339,-0.2554436
0.5622465,-0.3979685,-0.2833675
0.6257419,-0.4166951,-0.2047492
0.720599,-0.445616,-0.2029504
0.6711258,-0.4512748,-0.1389649
0.6877892,-0.4974502,-0.03684623
0.7961703,-0.5518894,0.036478
0.8120948,-0.4929068,0.149332
0.9703999,-0.4651451,0.1608316
1.128871,-0.4221945,0.08116734
1.21529,-0.4446616,-0.05155367
1.431418,-0.7515443,-0.3245805
1.528838,-0.9695296,-0.5851657
1.351045,-0.8029371,-0.6302353
1.042894,-0.5855599,-0.5900822
0.9056145,-0.641973,-0.6142373
0.9496952,-0.6436797,-0.5739092
0.8913852,-0.4679274,-0.5022539
0.8464802,-0.4736283,-0.5254169
0.8680263,-0.4623512,-0.6286757
0.8655218,-0.4028734,-0.8124876
0.8672198,-0.4090167,-0.8703775
0.8287897,-0.3041245,-0.7318258
0.7315681,-0.3000569,-0.6092488
0.5839709,-0.344016,-0.4988841
0.5094377,-0.3149811,-0.4404025
0.5119532,-0.3263762,-0.4752456
0.4806131,-0.2751913,-0.4649019
0.4950939,-0.2449358,-0.427959
0.5103572,-0.1968538,-0.3944983
0.4619382,-0.08145408,-0.3584713
0.4555866,-0.04819223,-0.3740573
0.5780478,-0.03145025,-0.4349191
0.8012406,0.00298686,-0.5714334
0.9891614,0.07680267,-0.7523188
1.124741,0.1193011,-0.8557662
1.197613,0.04964387,-0.8918393
1.126127,-0.0140744,-0.8994304
1.012809,-0.09069359,-0.927871
0.9620876,-0.175363,-1.000153
0.9386381,-0.2757665,-0.9892201
0.8542626,-0.4267945,-0.950277
0.7171382,-0.4554632,-0.981546
0.7664836,-0.4314279,-0.9339197
0.9555728,-0.5064791,-0.8439591
1.005934,-0.4886807,-0.8171782
0.9913328,-0.3602417,-0.7862366
0.9375891,-0.2995566,-0.6890307
0.7570919,-0.2691898,-0.5028218
0.4610222,-0.2371945,-0.4179756
0.2039586,-0.2021407,-0.4351763
0.2527427,-0.1943354,-0.3050698
0.4092855,-0.2817888,-0.1799091
0.5408729,-0.3569493,-0.1917103
0.7200662,-0.4201939,-0.2406601
0.6953054,-0.4522702,-0.2989011
0.6060771,-0.4116219,-0.2917143
0.5930623,-0.453981,-0.2259732
0.5537241,-0.4780165,-0.1356539
0.6050598,-0.4387241,-0.01714317
0.6601211,-0.4082989,0.07233385
0.7482994,-0.3075964,0.1017355
0.9099374,-0.244623,0.03769326
0.9991973,-0.2231412,-0.04891717
1.104908,-0.1911562,-0.09284487
1.230269,-0.2158576,-0.20451
1.369139,-0.3340226,-0.4203985
1.474175,-0.6749838,-0.6930274
1.384547,-1.022979,-0.8171568
1.177009,-1.03371,-0.57859
0.9501156,-0.9783628,-0.3381561
0.819132,-1.023323,-0.4004598
0.7674078,-0.8680389,-0.435049
0.6274638,-0.6409413,-0.3765295
0.5262566,-0.5665155,-0.4103709
0.5319555,-0.4703859,-0.4410854
0.5609752,-0.3873933,-0.4959996
0.6418568,-0.3806624,-0.5952958
0.7399172,-0.4165024,-0.6347104
0.7933751,-0.4840247,-0.6786558
0.7771627,-0.4619886,-0.7040127
0.7179203,-0.4247314,-0.6602112
0.628376,-0.3654734,-0.5998723
0.501104,-0.2152286,-0.4939132
0.4596371,-0.09802345,-0.389184
0.4918732,-0.002440976,-0.3737335
0.5260408,0.05803989,-0.429852
0.6537747,0.09307833,-0.5312723
0.8104641,0.1174815,-0.6408849
0.899285,0.05307051,-0.6953129
0.917539,-0.0119429,-0.6830344
0.8430958,-0.02602143,-0.6822704
0.7808201,0.00235113,-0.6820403
0.7953583,0.02900433,-0.6023061
0.8161267,-0.01383163,-0.5240129
0.8463739,-0.05508901,-0.5150297
0.9373905,-0.09184792,-0.5565691
1.0549,-0.1572439,-0.6324044
1.129315,-0.2692528,-0.7237877
1.189144,-0.431206,-0.9504769
1.269136,-0.5373846,-1.304617
1.291035,-0.5611324,-1.437038
1.144079,-0.5334943,-1.263794
0.9190604,-0.4798871,-1.108152
0.7666912,-0.3806699,-0.9378652
0.6068775,-0.2153057,-0.6502904
0.6119488,-0.1634788,-0.6576953
0.8851749,-0.1779547,-0.7951054
1.000734,-0.08312453,-0.6551536
0.9731965,-0.08492142,-0.6435586
0.9329476,-0.1433947,-0.6389144
0.7289736,-0.08904027,-0.4130869
0.5750694,-0.1047287,-0.4028314
0.5357487,-0.1229082,-0.3977893
0.5013441,-0.09108092,-0.2750652
0.5217715,-0.157098,-0.2879014
0.599318,-0.2288372,-0.2715246
0.6635346,-0.3041782,-0.240914
0.6393417,-0.363157,-0.2329746
0.6457279,-0.3384044,-0.2084251
0.6231782,-0.3547912,-0.1861802
0.525828,-0.4085348,-0.09641676
0.5366181,-0.4706473,-0.01395009
0.5925118,-0.517306,0.04219752
0.7048927,-0.5047335,0.04711708
0.838922,-0.4742529,-0.01315444
0.9739472,-0.3989894,-0.04982408
1.17333,-0.3668135,-0.1303311
1.23341,-0.4252511,-0.266713
1.226282,-0.5022663,-0.4575808
1.239441,-0.6578586,-0.6789456
1.215045,-0.7703585,-0.7957537
1.202427,-0.7459565,-0.7652631
1.075573,-0.7290465,-0.5926814
0.8846639,-0.670396,-0.42589
0.7567397,-0.537313,-0.3856076
0.6865622,-0.4724416,-0.3900066
0.6809463,-0.4585006,-0.4007229
0.6855936,-0.4284324,-0.4539616
0.7244673,-0.4061429,-0.5661786
0.7632036,-0.3527076,-0.6293017
0.7539188,-0.279098,-0.5875635
0.71162,-0.2386403,-0.5162847
0.627635,-0.1836336,-0.4480334
0.6007403,-0.1618587,-0.4429846
0.6088015,-0.1752275,-0.4730977
0.5926508,-0.1196923,-0.4744534
0.5965904,-0.08037546,-0.5021073
0.5981238,-0.0935961,-0.5270315
0.6239984,-0.07509319,-0.5196356
0.6576956,-0.02039595,-0.5332311
0.6565677,0.03040049,-0.5425349
0.6744412,0.01959153,-0.5574008
0.7328101,-0.002076223,-0.6552455
0.8235125,-0.00298755,-0.7639708
0.8977648,-0.04049908,-0.7757323
0.9269206,-0.05998668,-0.7113601
0.951681,-0.0634001,-0.6066103
0.9590863,-0.09860613,-0.5002239
0.8977484,-0.1173837,-0.4625412
0.8231496,-0.1281817,-0.5055226
0.855044,-0.1673296,-0.5624697
0.9753419,-0.2154552,-0.6922831
1.140431,-0.2417075,-1.017944
1.332116,-0.2613517,-1.35073
1.378112,-0.2859575,-1.394117
1.150674,-0.2736015,-1.216026
0.8435639,-0.2585977,-1.069303
0.7671047,-0.2654419,-0.9475757
0.8105688,-0.2504435,-0.8281741
0.7444284,-0.2540208,-0.8320333
0.7943364,-0.3083828,-0.8086488
0.9712904,-0.3947006,-0.660995
0.984818,-0.442099,-0.5288729
0.8086551,-0.3727092,-0.4086025
0.5236869,-0.2569889,-0.3306084
0.3511974,-0.1259484,-0.3060422
0.3484868,-0.0111942,-0.278155
0.3524152,-0.0454941,-0.2950803
0.4491701,-0.160177,-0.3313827
0.597368,-0.250537,-0.3465333
0.6717916,-0.3124304,-0.3363783
0.6910353,-0.3157115,-0.2857637
0.6503005,-0.3369267,-0.2195583
0.598115,-0.3894681,-0.09460862
0.5312292,-0.4189697,0.07111417
0.557472,-0.4624189,0.1009554
0.7508991,-0.5161764,0.03692843
0.9532152,-0.599197,0.06765654
1.091897,-0.6358771,0.07829448
1.137831,-0.6431624,-0.07221148
1.221859,-0.8399639,-0.4252083
1.293596,-0.9965721,-0.915152
1.176418,-0.8943859,-1.059907
1.090325,-0.7615555,-0.8598605
0.960681,-0.652866,-0.7686027
0.8009539,-0.5875346,-0.5787883
0.7830874,-0.5711155,-0.3408197
0.6657303,-0.4835951,-0.3635673
0.642314,-0.4494767,-0.4132927
0.7260256,-0.4971902,-0.5128415
0.7146623,-0.4537719,-0.6541003
0.8416096,-0.3754637,-0.6524983
0.8772998,-0.3116976,-0.6534759
0.762992,-0.2597679,-0.6336872
0.6920058,-0.2542778,-0.5761929
0.5437978,-0.1794273,-0.5409389
0.488872,-0.113876,-0.4852315
0.5706423,-0.1569791,-0.4688078
0.6576427,-0.1152417,-0.44505
0.6885213,-0.001204712,-0.4340702
0.6119718,0.0937822,-0.4472022
0.5702248,0.1495882,-0.4100259
0.5832968,0.1162546,-0.450787
0.6304698,0.09267118,-0.5370896
0.6812819,0.07607673,-0.5799814
0.6693593,0.03243721,-0.6067081
0.6743623,0.01525273,-0.6150537
0.6914343,-0.02218081,-0.6688476
0.7617737,-0.03836909,-0.6890347
0.943238,-0.07024423,-0.6492423
1.110838,-0.2226462,-0.6698712
1.152923,-0.3324136,-0.7154609
1.132077,-0.3337294,-0.8004095
1.179754,-0.3158612,-0.976441
1.240604,-0.2528711,-1.206068
1.240848,-0.2077863,-1.310339
1.119495,-0.2702239,-1.141298
0.8694397,-0.3602438,-0.9693931
0.7236079,-0.3934366,-0.8847095
0.7017231,-0.3880891,-0.7183906
0.6949931,-0.346206,-0.6703161
0.7779664,-0.2605605,-0.7320923
0.8895364,-0.2318289,-0.7141753
0.9085589,-0.28176,-0.7183783
0.8705362,-0.3314451,-0.658498
0.7923141,-0.3684287,-0.4873863
0.6044406,-0.3420895,-0.3754046
0.4292586,-0.2686587,-0.2880267
0.4305657,-0.2447303,-0.2405369
0.4995772,-0.2578858,-0.279929
0.5932499,-0.283356,-0.3078951
0.7305361,-0.3002292,-0.3699307
0.8021629,-0.295726,-0.4500288
0.7705496,-0.2966382,-0.4038043
0.6863928,-0.3089938,-0.2937515
0.6219983,-0.3509531,-0.1807811
0.5929382,-0.406784,-0.06979562
0.5791831,-0.4601563,0.002813361
0.5615821,-0.5191977,0.1079512
0.5495574,-0.5058967,0.1308558
0.5934636,-0.4221107,0.02158781
0.6343951,-0.3740189,0.02887707
0.6766402,-0.3604342,0.03761437
0.7795589,-0.3480542,-0.06834791
0.9333158,-0.3074372,-0.1354042
1.092878,-0.258494,-0.1762865
1.180071,-0.3168488,-0.1750953
1.372778,-0.4372027,-0.229899
1.553097,-0.538959,-0.343112
1.409169,-0.7100945,-0.3911907
1.275845,-0.9026109,-0.4839124
1.171354,-0.9277294,-0.4263148
0.9709798,-0.8533885,-0.2668484
0.9241026,-0.8752165,-0.3383471
0.8571974,-0.8462182,-0.3912615
0.7812562,-0.7356785,-0.3907559
0.7735783,-0.7506842,-0.4497483
0.7115281,-0.7113954,-0.4451134
0.7621282,-0.5614299,-0.5264197
0.7799842,-0.4031308,-0.6714745
0.7313231,-0.2080449,-0.7167129
0.7537539,-0.1314715,-0.7016251
0.694865,-0.08214686,-0.6454062
0.6692727,-0.02412897,-0.5803335
0.663045,-0.104104,-0.4952596
0.6132427,-0.1618409,-0.4294022
0.6269844,-0.2255545,-0.4376758
0.6107801,-0.2812517,-0.4602055
0.6244563,-0.2238949,-0.5121795
0.6571049,-0.1973284,-0.5286346
0.6293822,-0.1374023,-0.4686432
0.6293697,-0.06731889,-0.4119916
0.6201444,-0.089593,-0.3835437
0.6340957,-0.03977131,-0.4950013
0.721322,0.04987204,-0.6709693
0.8564734,0.06381719,-0.7082899
1.013374,0.03899906,-0.6995765
1.09833,-0.0003687688,-0.7398424
1.11448,-0.03972446,-0.8129055
1.096133,-0.1216035,-0.9471865
1.08153,-0.2581049,-1.124354
1.107939,-0.3867918,-1.197492
1.080605,-0.4451514,-1.11276
0.9378434,-0.3992259,-1.032979
0.769968,-0.3655853,-0.9628165
0.7467444,-0.392003,-0.8400676
0.8025011,-0.3536455,-0.787179
0.787934,-0.2818419,-0.7951586
0.8675994,-0.2491016,-0.7369154
0.9693667,-0.2274982,-0.5912373
0.8684452,-0.2138911,-0.4605693
0.6839657,-0.1572975,-0.4412884
0.4824267,-0.05537681,-0.4163154
0.3927881,-0.01830368,-0.3367063
0.4647785,-0.05272393,-0.3217981
0.4641219,-0.09935544,-0.3102591
0.5150184,-0.2184869,-0.2789862
0.6513311,-0.3888508,-0.2871048
0.6245719,-0.3966675,-0.2479226
0.5865165,-0.3511601,-0.1640191
0.6173661,-0.4727351,-0.03081534
0.6034901,-0.5389171,0.1034588
0.6338628,-0.5406395,0.06911706
0.7150744,-0.621405,0.04625878
0.8067302,-0.5945091,0.0718663
0.9304585,-0.5415373,-0.07691719
1.060889,-0.5877994,-0.2519138
1.222481,-0.6127144,-0.4236848
1.322775,-0.6443018,-0.6452431
1.145123,-0.6479541,-0.7496696
0.9112401,-0.6065008,-0.7328329
0.9662867,-0.6004766,-0.6752486
0.9743138,-0.5612643,-0.6486264
0.7739742,-0.5148589,-0.5770883
0.734918,-0.5226931,-0.4785557
0.740185,-0.5101331,-0.529601
0.7014881,-0.441316,-0.5467612
0.7510654,-0.3200608,-0.5201076
0.726726,-0.2245025,-0.550103
0.6845854,-0.2164096,-0.5071023
0.6446199,-0.221812,-0.5004753
0.5721116,-0.2173586,-0.5164383
0.5882906,-0.2058331,-0.5061235
0.5817959,-0.1781787,-0.5500653
0.5910697,-0.1738087,-0.5629909
0.6403489,-0.1745084,-0.5681173
0.6143022,-0.1425263,-0.5605267
0.5990819,-0.08116808,-0.5295572
0.5949102,-0.03879568,-0.5435937
0.6622347,-0.05140504,-0.5642571
0.8180368,-0.05735428,-0.6195567
0.917366,-0.0640236,-0.6810889
0.9900861,-0.1095692,-0.7060295
1.020319,-0.120045,-0.7354193
0.9979801,-0.09353767,-0.7517231
1.005081,-0.07560965,-0.8107919
1.009554,-0.06547097,-0.9416416
1.000888,-0.1303144,-1.057482
0.9799048,-0.2854606,-1.078553
0.8791659,-0.3930325,-0.9956993
0.7382228,-0.3864365,-0.8863172
0.7090285,-0.3569473,-0.8064401
0.76518,-0.3216089,-0.7823517
0.7736256,-0.2391454,-0.7683637
0.7945131,-0.2369004,-0.6950666
0.8414676,-0.3440663,-0.6066031
0.8018634,-0.4144803,-0.5281321
0.6952502,-0.4219962,-0.4478032
0.5873087,-0.3309245,-0.3546043
0.5601947,-0.2289935,-0.2883472
0.6351468,-0.2753612,-0.3170704
0.671376,-0.3200515,-0.3323384
0.6661148,-0.3431783,-0.3089946
0.6785974,-0.422775,-0.3270821
0.6611768,-0.4209619,-0.2962235
0.6529916,-0.3957247,-0.233542
0.6601334,-0.4300423,-0.1580251
0.6523219,-0.4529127,-0.005780797
0.6915103,-0.4867352,0.05302006
0.8543588,-0.5087127,-0.01518278
1.110879,-0.5232352,-0.03985819
1.201002,-0.5833474,-0.0678208
1.110571,-0.6487291,-0.1921821
1.128251,-0.7681261,-0.4712832
1.138365,-0.8396342,-0.7669628
0.9915,-0.6720958,-0.7508253
0.8683615,-0.4846234,-0.6984601
0.7881693,-0.3979367,-0.8149449
0.6983176,-0.3167329,-0.6886872
0.6877047,-0.3681276,-0.5527093
0.7544877,-0.464016,-0.6054561
0.7671858,-0.4191239,-0.5609926
0.7388694,-0.3520184,-0.5739931
0.7457549,-0.2886262,-0.5725601
0.7162978,-0.2288843,-0.5242497
0.6641837,-0.2289891,-0.5775321
0.6068964,-0.1674448,-0.5423057
0.552715,-0.09865933,-0.5296121
0.5827498,-0.131427,-0.5290135
0.5979569,-0.1326596,-0.4691547
0.6052352,-0.1328683,-0.4960744
0.6448678,-0.1641186,-0.466148
0.6124403,-0.1474692,-0.4357038
0.5996239,-0.1400969,-0.4622017
0.6256191,-0.1129984,-0.4680364
0.671649,-0.05137754,-0.5502169
0.8188148,-0.00549123,-0.6678597
0.9508104,0.02291581,-0.7607523
1.002907,-0.01163584,-0.7819958
1.055828,-0.06473544,-0.7893179
1.090639,-0.1056039,-0.8438768
1.071584,-0.1614876,-0.8928752
1.078941,-0.2409764,-1.092252
1.094353,-0.3761548,-1.271375
0.9901092,-0.4495673,-1.142468
0.8690901,-0.4210179,-0.9928907
0.7974652,-0.4236357,-0.8793778
0.7033699,-0.4265231,-0.670846
0.7122833,-0.3637447,-0.6849354
0.8381322,-0.2872862,-0.7975279
0.939812,-0.2765012,-0.6246884
0.9959896,-0.3102135,-0.5181983
0.9217808,-0.3055726,-0.5625939
0.7505779,-0.2689335,-0.4969252
0.5826429,-0.151736,-0.4258664
0.3648013,-0.008660977,-0.2976416
0.3745575,-0.04968201,-0.262683
0.5850766,-0.1752212,-0.3415244
0.5907829,-0.2817176,-0.2402417
0.6426327,-0.4176037,-0.2175533
0.7000154,-0.3938318,-0.25563
0.6108768,-0.3156095,-0.1982717
0.652746,-0.392102,-0.2131489
0.595758,-0.413252,-0.1842177
0.5462636,-0.4797388,-0.1198521
0.6327271,-0.6087985,-0.04243405
0.6131081,-0.5427754,0.04739942
0.7401597,-0.4942804,0.03838232
0.8574319,-0.4794067,0.004430051
0.8809846,-0.4052105,-0.09815749
1.037977,-0.4141346,-0.1977587
1.165044,-0.4045393,-0.2273362
1.411463,-0.4190615,-0.4085174
1.562415,-0.5111308,-0.6413642
1.251713,-0.5730595,-0.6835288
0.9897352,-0.6108497,-0.6307159
1.013389,-0.6222288,-0.5727961
0.954676,-0.6691936,-0.4196855
0.8440145,-0.6681075,-0.320072
0.8961587,-0.6009548,-0.3138758
0.8560977,-0.5915267,-0.2378918
0.7443618,-0.4863858,-0.3285826
0.7695162,-0.3742671,-0.53044
0.7347587,-0.3770291,-0.6222125
0.7419168,-0.3454965,-0.6988776
0.7867061,-0.3542032,-0.6459802
0.75342,-0.3778589,-0.5918991
0.7942383,-0.3528981,-0.6125467
0.7536009,-0.3507912,-0.543014
0.6584046,-0.2891491,-0.5205157
0.5785239,-0.1845243,-0.4820861
0.450973,-0.1143443,-0.4351101
0.4517002,-0.08377755,-0.4651814
0.5080962,-0.09528603,-0.4518295
0.6075518,-0.1155291,-0.4997148
0.7918032,-0.1634121,-0.5722805
0.8753135,-0.1937144,-0.5848387
0.8717519,-0.1723888,-0.5993423
0.8295504,-0.1597202,-0.5921796
0.7584764,-0.1017516,-0.616715
0.710748,-0.007817674,-0.6359475
0.7364952,0.03632707,-0.6362763
0.8053809,0.05759337,-0.6649688
0.8342884,0.04148925,-0.6641246
0.9061445,-0.04320682,-0.6898511
0.9814833,-0.1378,-0.7820479
1.000745,-0.2069572,-0.9535045
1.070798,-0.247032,-1.129323
1.111106,-0.2617892,-1.132785
1.051576,-0.275824,-1.08964
0.9758325,-0.2752388,-1.090886
0.9194391,-0.2710904,-0.9545027
0.8593526,-0.2863845,-0.7376806
0.843152,-0.2725132,-0.6848567
0.8718159,-0.2311323,-0.7445472
0.7999204,-0.1974538,-0.7283797
0.7359024,-0.1930877,-0.7037033
0.7195817,-0.2155997,-0.6943287
0.6253919,-0.2219948,-0.5870937
0.6442152,-0.2521105,-0.4897349
0.6869523,-0.2972,-0.4801396
0.594484,-0.309588,-0.4487993
0.5799698,-0.3296604,-0.3988439
0.6220416,-0.3151178,-0.3835353
0.6490086,-0.288115,-0.3681568
0.6623196,-0.3225799,-0.3504871
0.6491703,-0.3711904,-0.3391088
0.6910227,-0.4450289,-0.3039445
1.132836,-0.04125373,-0.9262639
1.221658,-0.08412017,-1.096112
1.259285,-0.1328083,-1.219254
1.21112,-0.2134218,-1.190655
1.089528,-0.3031936,-1.154676
0.8809923,-0.3085945,-1.15101
0.7223394,-0.2942018,-0.9863097
0.7106307,-0.3716714,-0.7593053
0.647662,-0.3866191,-0.6936407
0.5626312,-0.3592875,-0.6977735
0.6631895,-0.4453489,-0.6946239
0.7838335,-0.5089487,-0.6819071
0.7996639,-0.4913585,-0.6437359
0.8085519,-0.4457382,-0.5841508
0.771787,-0.3613014,-0.4829215
0.603728,-0.2041745,-0.4201589
0.3865326,0.008380916,-0.3524123
0.3720113,0.03370308,-0.2725068
0.4817326,-0.09700573,-0.3208865
0.4863025,-0.1904948,-0.3313977
0.567563,-0.3532654,-0.2855581
0.6545972,-0.4030794,-0.29279
0.6284046,-0.3395923,-0.2280484
0.6488825,-0.4331525,-0.1776894
0.6026864,-0.4526182,-0.1064188
0.6123921,-0.4576143,0.08743486
0.7257718,-0.525993,0.1578826
0.7567461,-0.4345164,0.1001405
0.8903915,-0.4132754,0.0598421
1.002938,-0.4233604,0.01105628
1.053589,-0.386115,-0.05128414
1.194855,-0.4702225,-0.1772593
1.205151,-0.5422862,-0.3803208
1.21731,-0.7054983,-0.5626146
1.258273,-0.8497107,-0.6261353
1.125244,-0.7373911,-0.5750619
1.019318,-0.6539306,-0.524037
0.9666186,-0.6365928,-0.4928952
0.8601134,-0.5395947,-0.4516835
0.7292333,-0.4203299,-0.434691
0.6811668,-0.4037636,-0.445209
0.7320799,-0.4581441,-0.4963232
0.6894399,-0.4311683,-0.5584891
0.6762589,-0.4193165,-0.5562726
0.7614865,-0.3985012,-0.5361337
0.757775,-0.3027405,-0.5265368
0.7629349,-0.2855678,-0.5055352
0.7610379,-0.2968814,-0.5124178
0.7199671,-0.2575176,-0.5312649
0.7107566,-0.2010488,-0.5342075
0.6355167,-0.1393989,-0.5298336
0.5860728,-0.1000031,-0.5066778
0.5984627,-0.08159383,-0.4763412
0.6087164,-0.07041926,-0.4547536
0.6583158,-0.05047036,-0.4332251
0.6802968,-0.05078196,-0.4216371
0.7203997,-0.0503125,-0.4753159
0.8169465,0.04619146,-0.5935293
0.928517,0.167135,-0.671866
1.03415,0.1858856,-0.6663109
1.033316,0.114786,-0.6480076
1.011235,0.04648569,-0.6585113
1.030667,0.007267835,-0.6604087
1.024037,-0.06322437,-0.7010338
1.065018,-0.1477308,-0.9177461
1.135262,-0.2027631,-1.221123
1.16115,-0.2480569,-1.286439
1.132717,-0.3308163,-1.095853
0.9578321,-0.4328421,-0.9721379
0.6882706,-0.4645688,-0.9030984
0.6064658,-0.4582881,-0.7319661
0.6995601,-0.4434298,-0.6615054
0.7412375,-0.4000221,-0.7467737
0.8766773,-0.387687,-0.7679599
1.099459,-0.3679631,-0.6808053
1.082965,-0.2898569,-0.5623819
0.8579003,-0.1800979,-0.4620281
0.5807027,-0.06634024,-0.4109728
0.4035449,-0.02623574,-0.3679521
0.4276041,-0.05889122,-0.2783284
0.4708784,-0.1409447,-0.2168649
0.5112189,-0.276346,-0.1954142
0.5811706,-0.3374806,-0.1584128
0.6175271,-0.3205685,-0.1711435
0.6641334,-0.3539622,-0.1767877
0.6483549,-0.3874879,-0.1259826
0.6147056,-0.4348354,-0.07881683
0.657794,-0.5473685,0.003561614
0.6819115,-0.5721888,0.07324916
0.7630647,-0.498355,0.104848
0.9616431,-0.422201,0.1024086
1.183786,-0.3656296,-0.02937323
1.292779,-0.4045402,-0.2207551
1.223636,-0.4985177,-0.3838774
1.184907,-0.652978,-0.6360981
1.146888,-0.8701234,-0.9731592
1.010491,-0.8600459,-0.9945483
1.027103,-0.7441058,-0.7054986
1.055346,-0.7884219,-0.623554
0.8931962,-0.6660475,-0.5447982
0.7570023,-0.4278963,-0.331374
0.6766052,-0.3943261,-0.3712426
0.6725955,-0.3865478,-0.4761876
0.7621055,-0.3484981,-0.5401986
0.8290772,-0.3073235,-0.6366395
0.8930352,-0.2485328,-0.6213318
0.8673316,-0.2371245,-0.5977383
0.7787365,-0.1883652,-0.5793076
0.7198114,-0.1579058,-0.5210548
0.5953711,-0.1700135,-0.4815703
0.5247584,-0.1400474,-0.4400504
0.5245521,-0.1385593,-0.4079573
0.5275418,-0.1402834,-0.3871616
0.5787108,-0.1242714,-0.3842462
0.5588034,-0.1172204,-0.3639283
0.5546764,-0.1262727,-0.3314946
0.6356692,-0.1343806,-0.3762873
0.714049,-0.04016311,-0.4936685
0.8384955,0.08895926,-0.6444938
0.909702,0.1525948,-0.7286416
0.9733108,0.1804145,-0.7460293
1.106704,0.1556205,-0.7979971
1.123272,0.06350465,-0.7899845
1.078082,-0.06553912,-0.7606693
1.02438,-0.1855644,-0.8834628
0.9510697,-0.2531151,-1.053747
1.046289,-0.2591468,-1.141604
1.161395,-0.2681219,-1.139906
1.041965,-0.3019441,-1.087883
0.8893332,-0.2968041,-1.00957
0.8191312,-0.2966435,-0.8219632
0.7519123,-0.3185505,-0.6944165
0.7458774,-0.2927083,-0.7679706
0.7644591,-0.2810156,-0.7609163
0.8607215,-0.346561,-0.6408455
1.028833,-0.4012051,-0.5332159
0.9518346,-0.3651347,-0.4210716
0.7626621,-0.2718476,-0.4072803
0.6425774,-0.1517213,-0.3991536
0.4617775,-0.04633835,-0.3011079
0.4470866,-0.05110097,-0.2545967
0.5398086,-0.1317742,-0.2236637
0.5311919,-0.2355737,-0.1811131
0.6236048,-0.3759392,-0.1657563
0.7094355,-0.446477,-0.136869
0.7085525,-0.4466727,-0.1132473
0.7324564,-0.4894433,-0.07042519
0.7286754,-0.5434679,-0.03366489
0.7938635,-0.5898902,-0.03599428
0.8894455,-0.6083608,-0.03159796
0.8990102,-0.5936827,-0.1054794
0.916903,-0.6386178,-0.271941
1.019354,-0.7179392,-0.4493464
1.135339,-0.7564033,-0.5629106
1.041637,-0.7354142,-0.5717454
0.8898173,-0.6609094,-0.6007067
0.9041806,-0.567116,-0.640941
0.8360452,-0.4662048,-0.6089964
0.7299789,-0.4233478,-0.5461898
0.7527141,-0.4447961,-0.4861586
0.7705988,-0.4289582,-0.5228379
0.7941184,-0.3797692,-0.5800946
0.8105894,-0.3066574,-0.5339047
0.7747644,-0.2096069,-0.5156449
0.7491041,-0.1615306,-0.5275841
0.7062793,-0.1481201,-0.5134503
0.6503021,-0.1260551,-0.5331878
0.6451488,-0.1226276,-0.5412439
0.6997561,-0.1414104,-0.5241805
0.7582917,-0.1501856,-0.5133937
0.7615852,-0.1301218,-0.4842057
0.7251563,-0.09971914,-0.4552041
0.6722483,-0.07616857,-0.4368501
0.6445474,-0.03672736,-0.4450864
0.678203,0.01721912,-0.4892004
0.7547863,0.02962623,-0.5342671
0.8715615,0.001609853,-0.594135
0.9811391,-0.01544328,-0.6623598
1.041977,-0.05794391,-0.7500031
1.106951,-0.1374533,-0.8649334
1.158707,-0.2126651,-0.9533444
1.154487,-0.3235419,-1.082176
1.167354,-0.4440084,-1.191387
1.158809,-0.4853254,-1.115423
1.006539,-0.465707,-0.9612876
0.8386136,-0.4603447,-0.7954695
0.8283023,-0.4692853,-0.6782921
0.8664659,-0.4130739,-0.7374807
0.8223461,-0.3317439,-0.7408975
0.7955738,-0.3127998,-0.5835995
0.7952705,-0.3249131,-0.4706399
0.714531,-0.3208137,-0.3282127
0.6191941,-0.2569268,-0.1663066
0.5451786,-0.1529151,-0.2054841
0.5153859,-0.08041045,-0.3424327
0.5506171,-0.07125803,-0.4131171
0.5666776,-0.1108381,-0.4691898
0.5932658,-0.1326533,-0.4781425
0.5931838,-0.1589679,-0.4088246
0.5310016,-0.2642108,-0.2861546
0.4958906,-0.4115199,-0.04636132
0.4979436,-0.4797546,0.08699385
0.5698187,-0.4905335,0.03758603
0.635474,-0.5763595,0.1373193
0.6715961,-0.6027198,0.2248294
0.7949852,-0.5403953,0.184281
0.9323746,-0.5079925,0.1282848
1.0345,-0.3894015,-0.0820558
1.116584,-0.327815,-0.2407047
1.178746,-0.3770834,-0.3615473
1.20624,-0.4182497,-0.559334
1.158845,-0.7056654,-0.5457895
1.098849,-1.035322,-0.4713666
1.018536,-1.04203,-0.381428
0.8984609,-0.9612178,-0.2559693
0.7261347,-0.8925314,-0.3558237
0.5256877,-0.7635582,-0.4230032
0.5226195,-0.6948939,-0.3865078
0.6128292,-0.7258873,-0.4792746
0.6330489,-0.6698761,-0.5903589
0.735705,-0.5505562,-0.6612067
0.7928326,-0.5391664,-0.691803
0.7992956,-0.4987748,-0.7198156
0.8831181,-0.422107,-0.752551
0.8603348,-0.3298839,-0.7145385
0.7654611,-0.1381296,-0.6569204
0.6325559,-0.0254334,-0.5736048
0.456698,0.006600171,-0.4774241
0.4481559,0.03044575,-0.4118615
0.5350916,0.01382049,-0.3548827
0.6221438,0.03585731,-0.3656316
0.7241029,0.05099276,-0.4197824
0.7638366,0.02712401,-0.4604951
0.7982813,0.01575428,-0.525141
0.8067349,0.02746379,-0.5919393
0.7528884,0.04943248,-0.5981359
0.7378863,0.04075855,-0.5229
0.7570335,0.03665856,-0.4704469
0.8351969,0.03803205,-0.522126
1.031317,0.02529988,-0.5892527
1.213095,0.005984156,-0.621936
1.230021,-0.06654603,-0.6209759
1.195686,-0.1439199,-0.6192145
1.211442,-0.1566468,-0.7248619
1.167951,-0.1294727,-0.9799125
1.124821,-0.1481683,-1.186056
1.101564,-0.2989189,-1.042324
0.9941203,-0.4468246,-0.8455129
0.9028773,-0.4069916,-0.9404718
0.7688903,-0.3216522,-0.8569643
0.6094439,-0.3305373,-0.6372407
0.6911537,-0.3011555,-0.7090198
0.8578297,-0.2739064,-0.7289018
0.8996796,-0.3290848,-0.6778094
0.9240869,-0.335911,-0.7127412
0.9002982,-0.3148743,-0.5594287
0.7934771,-0.2604005,-0.3290788
0.7156165,-0.1543937,-0.2627876
0.7026347,-0.1386154,-0.3848099
0.8059355,-0.1773968,-0.5144201
0.9254761,-0.2055745,-0.4704026
0.838785,-0.2366399,-0.424017
0.6956547,-0.2687565,-0.3511867
0.6067342,-0.3119628,-0.1741021
0.5110776,-0.3248387,-0.0634893
0.5014737,-0.318022,-0.01313856
0.4970652,-0.3208884,0.005211356
0.4982347,-0.3386719,0.02362903
0.5892876,-0.3734653,0.07206861
0.664401,-0.4134109,0.06008613
0.800527,-0.4628342,0.03014291
0.9816025,-0.4706008,0.01192742
1.104469,-0.4474483,-0.07003617
1.214729,-0.4351249,-0.1942412
1.213774,-0.4413449,-0.2830734
1.22639,-0.5753898,-0.4024236
1.332683,-0.7555748,-0.6811264
1.18861,-0.7506434,-0.8326176
0.9206484,-0.6783048,-0.5948869
0.8258834,-0.6815294,-0.3726024
0.7503131,-0.620888,-0.3590696
0.6909834,-0.5537434,-0.3138681
0.696568,-0.5696386,-0.3274993
0.7191344,-0.5163827,-0.4656458
0.7987134,-0.4182384,-0.5944841
0.8455552,-0.3160352,-0.6890652
0.8289418,-0.1899359,-0.6743529
0.7908857,-0.1481383,-0.6018927
0.7345761,-0.1558734,-0.5796068
0.7113475,-0.1511823,-0.5425437
0.6212928,-0.1390508,-0.5041642
0.4790981,-0.1055282,-0.4644737
0.4917842,-0.09418803,-0.451171
0.5820987,-0.0939183,-0.4975986
0.6075684,-0.07233917,-0.4822393
0.6237889,-0.04542921,-0.473599
0.6313003,-0.05397177,-0.5061892
0.6382246,-0.09479415,-0.5161824
0.6944106,-0.1053134,-0.5823972
0.7511801,-0.09981436,-0.6447719
0.8586075,-0.08367192,-0.7168905
0.9707912,-0.06671454,-0.7736646
0.9380919,-0.07228041,-0.6918128
0.9320517,-0.04681198,-0.6539002
1.019076,-0.0234763,-0.6829222
1.092825,-0.06407947,-0.7397177
1.152334,-0.1701548,-0.9493227
1.12367,-0.3091524,-1.177068
1.061965,-0.3699444,-1.259344
0.9793205,-0.3378249,-1.141177
0.8138499,-0.3353228,-0.9372759
0.7533866,-0.3805712,-0.8440839
0.8057104,-0.3978491,-0.8123107
0.8228829,-0.4075263,-0.8199965
0.8403714,-0.4208616,-0.7957014
0.9080884,-0.4126933,-0.6543589
0.9601001,-0.4057353,-0.5503423
0.8601559,-0.3365006,-0.4712306
0.6418712,-0.1910056,-0.3596662
0.4373859,-0.06129383,-0.2925886
0.3495302,-0.001943781,-0.2714822
0.4391746,-0.04073546,-0.2724834
0.5401758,-0.1362923,-0.2605386
0.5933939,-0.2680917,-0.2630127
0.6538846,-0.3535077,-0.2677739
0.6262233,-0.3213542,-0.237443
0.5906747,-0.3403864,-0.2019721
0.5936619,-0.4280914,-0.1011507
0.57365,-0.4984906,0.02207034
0.599017,-0.5645602,0.086698
0.6493085,-0.5444752,0.08389493
0.7717179,-0.5129028,0.004837014
0.9383762,-0.5533892,-0.04704363
0.9847251,-0.5785336,-0.1071667
1.06942,-0.668065,-0.2382072
1.222009,-0.8134791,-0.4233972
1.226005,-0.8406341,-0.7010462
1.110088,-0.7422599,-0.8280746
0.9714777,-0.6433706,-0.6549359
0.8603593,-0.6362633,-0.4686001
0.7680046,-0.5899101,-0.4019035
0.6881254,-0.4887107,-0.3479142
0.6874279,-0.4995936,-0.3544964
0.6880302,-0.4594523,-0.4766841
0.6777645,-0.3567358,-0.5700057
0.7445058,-0.3448861,-0.6507413
0.7883158,-0.281932,-0.7653842
0.7740885,-0.2616838,-0.7629657
0.7751027,-0.3336225,-0.7087674
0.797569,-0.3234009,-0.6922588
0.8063288,-0.321838,-0.6205705
0.7223077,-0.2648014,-0.5493164
0.5979102,-0.1136198,-0.5345126
0.5685723,-0.06524035,-0.4974578
0.6089293,-0.04405245,-0.4781984
0.6276435,-0.01203864,-0.4989968
0.6205125,-0.009129001,-0.4693377
0.609432,0.02453246,-0.4257574
0.5605161,0.01525289,-0.3984681
0.5154162,-0.008923386,-0.3981955
0.5420865,-0.008759165,-0.4410502
0.6153912,-0.04069692,-0.4791359
0.70417,-0.005669569,-0.5645562
0.7654125,0.0681319,-0.647374
0.8821828,0.05817951,-0.6782894
1.095331,-0.03596625,-0.7305091
1.215158,-0.2350368,-0.7656246
1.259854,-0.4100051,-0.8747856
1.290006,-0.4122643,-1.087583
1.251396,-0.3540527,-1.262016
1.24529,-0.2856401,-1.341713
1.152115,-0.1929016,-1.194717
0.866236,-0.2042764,-0.963514
0.6528735,-0.2608121,-0.9169784
0.5826819,-0.230179,-0.8630368
0.5514315,-0.2355801,-0.779147
0.5709775,-0.2740539,-0.7988424
0.7191204,-0.2920677,-0.7508855
0.9262636,-0.3786472,-0.7102984
0.9169596,-0.4856174,-0.7327922
0.7181488,-0.6001442,-0.5921697
0.5267505,-0.6533918,-0.3525496
0.3301129,-0.5898394,-0.2108902
0.2017145,-0.5635456,-0.2459765
0.309697,-0.4698872,-0.3060679
0.5727835,-0.3445267,-0.3347997
0.68802,-0.4057722,-0.6350775
0.6416343,-0.3825084,-0.9859724
0.6106535,-0.08801668,-0.9957278
0.5696587,0.1932966,-0.8377569
0.4973951,0.2447709,-0.531855
0.4191722,0.2715881,-0.1328336
0.4294935,0.283134,0.007774678
0.5233794,-0.07011886,0.02968191
0.6458299,-0.4834444,0.02144026
0.9474849,-0.6481347,-0.2628414
1.16362,-0.7588919,-0.3287974
1.060447,-0.6473662,-0.04735957
1.033834,-0.3996395,-0.08925094
1.115738,-0.4242906,-0.4757363
1.059906,-0.6811081,-0.9648085
0.9254043,-0.9355522,-1.012543
0.8363653,-0.9951086,-0.582899
0.9679796,-0.9507125,-0.4923188
1.145918,-0.8500167,-0.5064604
0.9639177,-0.5837554,-0.4744616
0.6587129,-0.4919062,-0.5481696
0.4822218,-0.5113575,-0.5184348
0.3759777,-0.2498525,-0.6376413
0.5046223,-0.04066052,-0.7385293
0.6794647,0.007550694,-0.8248748
0.7402922,0.02946968,-0.9961621
0.8354469,-0.08871438,-0.932315
0.7915995,-0.1762902,-0.8781268
0.715803,-0.1969625,-0.7267881
0.7139301,-0.2015713,-0.4639743
0.6604821,-0.1756944,-0.4271318
0.6733281,-0.1831887,-0.4078924
0.6484275,-0.1262556,-0.4002385
0.6175024,-0.0841361,-0.439338
0.643329,-0.06899719,-0.5373993
0.5649132,-0.004164398,-0.6807199
0.5495567,0.02094264,-0.6550876
0.5791703,0.0611603,-0.6355165
0.6216548,0.03205974,-0.728831
0.8001629,-0.05621643,-0.834086
0.9159957,-0.06461689,-0.9632528
0.9670708,-0.1039006,-1.010464
1.020903,-0.172348,-0.9427291
1.011858,-0.2480163,-0.9469092
1.020618,-0.3369476,-1.134544
1.054549,-0.3990379,-1.316333
1.062991,-0.4158743,-1.297086
0.9432193,-0.3680752,-1.206897
0.7214246,-0.3805262,-1.175773
0.6561915,-0.4027181,-1.110146
0.7069096,-0.3600165,-1.062198
0.6649086,-0.3620655,-1.080246
0.6462659,-0.3371584,-1.042901
0.8482515,-0.3739692,-1.023117
1.094461,-0.5240677,-0.9658044
1.007553,-0.5402931,-0.7953505
0.5464628,-0.3510123,-0.5394984
0.1013169,-0.05488857,-0.1495842
0.09502018,0.09426924,-0.06415402
0.3153716,0.1057623,-0.273903
0.3308368,0.1604225,-0.2680409
0.4087596,0.02445876,-0.3255211
0.5921747,-0.2262171,-0.4367799
0.5662402,-0.3219459,-0.3333747
0.574146,-0.3825711,-0.2015707
0.6649048,-0.4721964,0.03299508
0.698908,-0.5914183,0.2604038
0.7617825,-0.6644106,0.319941
0.8561469,-0.6383549,0.3486315
1.023479,-0.6482282,0.2127907
1.095568,-0.6590855,-0.10656
1.079475,-0.6344247,-0.4425132
1.12348,-0.6485292,-0.6358182
1.037237,-0.6516068,-0.6227233
0.9858243,-0.6274459,-0.6536074
0.980137,-0.6070747,-0.692003
0.7968511,-0.5738145,-0.6166839
0.6618064,-0.5208263,-0.5830808
0.6463804,-0.461935,-0.5605938
0.6906698,-0.4584192,-0.5927367
0.7240655,-0.4858005,-0.6951566
0.7199483,-0.4491394,-0.7444734
0.7565278,-0.4136565,-0.7709778
0.7108526,-0.3748747,-0.7223191
0.6447655,-0.28161,-0.6449731
0.6175475,-0.2613731,-0.6158368
0.535454,-0.2467926,-0.5418566
0.4687324,-0.1617747,-0.4615741
0.4478401,-0.1690504,-0.4409474
0.5085352,-0.1984413,-0.4775971
0.6009214,-0.1540899,-0.5089829
0.6561475,-0.1359803,-0.5302012
0.6541309,-0.09444158,-0.5901568
0.6043731,-0.0247875,-0.6287391
0.7207041,-0.03537269,-0.6734817
0.9205142,-0.04423901,-0.7282819
1.024079,-0.0003610985,-0.7896735
1.054968,0.01684657,-0.8535152
1.010057,0.01940748,-0.8364428
1.030089,-0.01948088,-0.9135731
1.024247,-0.1492529,-1.099265
0.9573722,-0.275721,-1.172128
0.9567351,-0.3395973,-1.128039
0.8208414,-0.400712,-1.007769
0.6865011,-0.4766611,-0.9302223
0.7184032,-0.504554,-0.9419155
0.7170943,-0.4798607,-0.9439029
0.6712682,-0.4269307,-0.8781171
0.6412503,-0.3726697,-0.7516125
0.6970362,-0.4144992,-0.6427982
0.7529539,-0.4694479,-0.5002121
0.6564321,-0.4021368,-0.4187407
0.4842657,-0.2871269,-0.4773281
0.3610117,-0.1407506,-0.4297487
0.4135334,-0.06200231,-0.3372001
0.5262885,-0.1775553,-0.3176518
0.5763552,-0.3140658,-0.278098
0.6821904,-0.3894678,-0.2688304
0.7112053,-0.421899,-0.2728108
0.6338037,-0.387257,-0.2469423
0.6319694,-0.408691,-0.2048261
0.6333304,-0.4766413,-0.1178591
0.6796757,-0.5068184,-0.02919237
0.7958301,-0.5329715,-0.009717605
0.8031123,-0.5461916,-0.08757659
0.8142053,-0.5960289,-0.238088
0.9741513,-0.6792757,-0.4471105
1.143143,-0.7177389,-0.7330684
1.164215,-0.6903814,-0.946448
1.083225,-0.5752592,-0.954724
0.9829458,-0.4660495,-0.9033797
0.840404,-0.4208066,-0.8408303
0.7297446,-0.4339424,-0.651566
0.6166439,-0.4820754,-0.4430624
0.5829199,-0.4543206,-0.4498676
0.7459625,-0.3858646,-0.57275
0.7579374,-0.2987095,-0.5506702
0.7045484,-0.2437633,-0.5305719
0.729774,-0.2459922,-0.5757327
0.6092114,-0.1332416,-0.5511305
0.5770895,-0.07687729,-0.582263
0.6105905,-0.1372567,-0.5778556
0.5910145,-0.1001284,-0.5275008
0.6378721,-0.09113825,-0.5657775
0.6360361,-0.1122475,-0.5298304
0.6330568,-0.09987715,-0.4806755
0.6266394,-0.1134856,-0.4641993
0.6615136,-0.07886557,-0.4526671
0.8002056,-0.01972215,-0.5196747
0.9079726,0.01407917,-0.5717368
1.059642,0.01544067,-0.670306
1.154242,-0.001403977,-0.7843323
1.149533,-0.00672103,-0.8330053
1.175313,-0.06829518,-0.9556741
1.138106,-0.1620905,-1.070717
1.097264,-0.2451422,-1.09802
1.070851,-0.3261524,-1.064045
0.9320638,-0.3742907,-0.9799246
0.7376047,-0.4502095,-0.8977754
0.7018891,-0.5178376,-0.8239435
0.7949023,-0.4590836,-0.8317878
0.7755409,-0.3965026,-0.8462355
0.7848905,-0.4199894,-0.7475891
0.8700709,-0.4408233,-0.6223245
0.862449,-0.4495921,-0.4510406
0.7865384,-0.3865116,-0.3442302
0.5916064,-0.2094474,-0.387457
0.4398915,-0.07234927,-0.3477421
0.4814248,-0.03672839,-0.3101937
0.54142,-0.07675169,-0.3818042
0.5886849,-0.1761339,-0.3799223
0.6029585,-0.2978195,-0.3311405
0.5952051,-0.3991975,-0.2391914
0.6083307,-0.4019336,-0.1209232
0.5784743,-0.4238358,-0.102502
0.5758701,-0.546402,-0.08391631
0.6238449,-0.6063752,-0.03114503
0.679894,-0.6018492,0.0004777297
0.7617584,-0.5664552,0.02566757
0.876259,-0.5039943,-0.0216311
1.051475,-0.4775268,-0.1303782
1.181772,-0.4780868,-0.265576
1.225801,-0.5369681,-0.4709839
1.289972,-0.6282901,-0.6654138
1.243632,-0.6673318,-0.7278602
1.08201,-0.6476694,-0.6885792
1.026195,-0.60314,-0.6123137
0.9538954,-0.561037,-0.4903594
0.803238,-0.4884439,-0.3818824
0.7532899,-0.4600942,-0.3777827
0.727255,-0.5013958,-0.43169
0.7119748,-0.4874408,-0.4988379
0.759524,-0.4224427,-0.5830055
0.7641829,-0.300409,-0.6443854
0.7553885,-0.1685783,-0.6594894
0.7320537,-0.1416528,-0.6187144
0.6818964,-0.1556283,-0.5577669
0.6516036,-0.1540543,-0.5300632
0.5687158,-0.1376338,-0.5105646
0.476857,-0.1228377,-0.4855145
0.4864206,-0.1309272,-0.475094
0.5518572,-0.1217714,-0.4914648
0.6022499,-0.08884102,-0.5172503
0.6501867,-0.05686524,-0.533037
0.6551717,-0.05897047,-0.546518
0.6222867,-0.06902543,-0.5577347
0.6938892,-0.03878216,-0.6001589
0.8135899,-0.008130446,-0.6554171
0.9446019,0.01934591,-0.6936709
1.087688,0.005895101,-0.744773
1.127969,-0.06558257,-0.7820975
1.185598,-0.09639314,-0.8098411
1.219864,-0.111748,-0.8271318
1.135139,-0.142109,-0.9020218
1.095102,-0.1650781,-1.091634
1.049266,-0.2019984,-1.132496
0.9634678,-0.2333776,-0.9424962
0.8711711,-0.2926136,-0.7596709
0.7801158,-0.3418429,-0.6952138
0.7914997,-0.3109638,-0.7130776
0.8306584,-0.2672505,-0.7161455
0.835282,-0.2068703,-0.7519335
0.8345935,-0.1863174,-0.797882
0.8037523,-0.2732868,-0.6575138
0.7506113,-0.3561559,-0.4569571
0.657939,-0.3836189,-0.380144
0.5208942,-0.3408777,-0.3399508
0.3546833,-0.2535825,-0.296677
0.2394176,-0.1761806,-0.2644426
0.2730501,-0.09901696,-0.2015222
0.3800098,-0.09915713,-0.1754868
0.5159638,-0.213837,-0.2657908
0.6815276,-0.3899041,-0.3527965
0.7779724,-0.5497416,-0.3494348
0.8126977,-0.6042855,-0.2889313
0.8422821,-0.6028098,-0.2316835
0.8411921,-0.5524622,-0.2456215
0.8257256,-0.4459779,-0.2487935
0.8172136,-0.3872109,-0.1928524
0.8196709,-0.3278201,-0.1332519
0.84437,-0.2461235,-0.0855128
0.8437987,-0.2369585,-0.1380427
0.7735758,-0.2975663,-0.2383326
0.7360919,-0.4471516,-0.3106299
0.9347077,-0.5813207,-0.5706446
1.242093,-0.4893621,-0.9442872
1.291193,-0.3695562,-1.024581
1.174784,-0.438965,-0.875411
1.103491,-0.4256274,-0.7508685
0.9765636,-0.2933096,-0.5687295
0.8737913,-0.2776886,-0.4611381
0.8423796,-0.3262555,-0.5046462
0.7076565,-0.3969738,-0.4123638
0.619841,-0.4102237,-0.4002268
0.7819302,-0.5252695,0.04231707
0.9442854,-0.4318104,-0.06922251
1.098375,-0.3863301,-0.1976101
1.152768,-0.4639193,-0.3851487
1.168371,-0.5949155,-0.6466237
1.170399,-0.7672878,-0.8264633
1.11703,-0.8417889,-0.8868124
1.039197,-0.730767,-0.8125356
0.9503567,-0.6016452,-0.6162188
0.7890825,-0.4854736,-0.4802534
0.705921,-0.3908383,-0.4192961
0.7422974,-0.417387,-0.4225471
0.7338069,-0.4683886,-0.4996244
0.7194381,-0.4469537,-0.540496
0.7645362,-0.3974989,-0.6006936
0.8139635,-0.304961,-0.6371354
0.8071377,-0.2428674,-0.5883962
0.7523323,-0.2575802,-0.5884683
0.6713742,-0.2087363,-0.5740314
0.578684,-0.1400868,-0.5440959
0.5503838,-0.1345552,-0.5432806
0.5735775,-0.169076,-0.4889642
0.6037302,-0.220719,-0.461989
0.6339231,-0.1713933,-0.4685225
0.6167643,-0.09069483,-0.4461679
0.5935043,-0.08231566,-0.4298645
0.6409601,-0.04843273,-0.4530509
0.7740897,0.03171052,-0.5456556
0.9267811,0.1314544,-0.6297534
0.9979924,0.1587721,-0.6433852
1.078048,0.1320965,-0.6714727
1.184995,0.1110696,-0.7535899
1.153564,-0.04392052,-0.8382656
1.108487,-0.1732717,-1.015331
1.125812,-0.1970294,-1.260991
1.075138,-0.3521606,-1.25897
0.9740878,-0.4702656,-1.116676
0.7547485,-0.4280292,-1.027149
0.596854,-0.4133619,-0.8124906
0.6988819,-0.4250154,-0.6909397
0.7940834,-0.4035688,-0.7908908
0.9172009,-0.3975552,-0.7938807
1.042218,-0.406767,-0.7274615
0.9381649,-0.3336913,-0.643373
0.7454855,-0.1923581,-0.4524595
0.4562552,-0.06140407,-0.3139375
0.2283471,0.02055369,-0.2563248
0.3022311,0.003801409,-0.1961686
0.3961625,-0.08178422,-0.2184948
0.4657662,-0.2238604,-0.2877741
0.5619194,-0.3206424,-0.3255381
0.55943,-0.3031912,-0.3451265
0.6224674,-0.361608,-0.3142385
0.7116982,-0.446683,-0.2906027
0.6570134,-0.4304823,-0.2671653
0.5791406,-0.4616101,-0.1346863
0.5550591,-0.536607,0.01516136
0.6675917,-0.5180591,0.1216745
0.8681764,-0.4769735,0.2081878
0.9884981,-0.4718139,0.1500717
1.173605,-0.4332995,-0.03763246
1.356553,-0.4971591,-0.1985582
1.271118,-0.6814496,-0.4865205
1.14904,-0.7414003,-0.8709556
1.106288,-0.7105119,-0.9237679
0.9723831,-0.7092175,-0.756721
0.8830899,-0.7181686,-0.6411907
0.8460239,-0.6717822,-0.5119772
0.7866959,-0.5739242,-0.4341939
0.8032413,-0.5439153,-0.4222075
0.791166,-0.5146892,-0.5050237
0.7733053,-0.4449379,-0.6548476
0.8259348,-0.3533948,-0.7267825
0.8251529,-0.1851924,-0.7760934
0.7834225,-0.08227376,-0.7376183
0.6989487,-0.0557894,-0.6205008
0.5906971,-0.04415442,-0.5367303
0.4983948,-0.09364585,-0.4222094
0.3991444,-0.1051895,-0.3720337
0.3972268,-0.1354215,-0.4104176
0.4782698,-0.2167856,-0.4546802
0.5820302,-0.2142294,-0.5345137
0.6735017,-0.1777146,-0.5677296
0.6654641,-0.123423,-0.5350815
0.6710139,-0.07468942,-0.5209576
0.7388184,-0.08338205,-0.5321822
0.840358,-0.04708117,-0.6299678
0.9865624,0.04326768,-0.7566528
0.9963054,0.1050741,-0.7236985
0.9354852,0.07738291,-0.6747861
0.9994945,0.002070486,-0.7355576
1.032856,-0.06351561,-0.7665975
1.068923,-0.1827819,-0.9377887
1.194756,-0.2678956,-1.251363
1.196959,-0.2795469,-1.29656
1.054988,-0.3155513,-1.125109
0.8575013,-0.3393705,-0.9931367
0.7254481,-0.3716323,-0.9047525
0.7197447,-0.3970198,-0.8585855
0.6579107,-0.3892931,-0.8116237
0.6915789,-0.4083896,-0.7906417
0.901364,-0.401605,-0.8177447
1.004722,-0.3986859,-0.7409188
1.029605,-0.3962645,-0.5934023
0.8962681,-0.3096067,-0.4909291
0.5636346,-0.201075,-0.4094228
0.363982,-0.08705091,-0.3408219
0.3211641,-0.01623652,-0.2534683
0.3569717,-0.04207599,-0.2127121
0.422798,-0.112641,-0.2473375
0.4469754,-0.2380302,-0.2404117
0.535028,-0.349868,-0.2485178
0.5871966,-0.3913466,-0.2580407
0.5790527,-0.4514359,-0.1999761
0.6216417,-0.5539001,-0.1287917
0.610143,-0.6312709,-0.03853418
0.6464583,-0.6267736,0.003736683
0.7807047,-0.5843613,0.002551214
0.89438,-0.5533843,-0.02142335
1.022699,-0.5026306,-0.1301392
1.075143,-0.44599,-0.2239236
1.042129,-0.4173148,-0.3030265
1.067468,-0.4565775,-0.4366142
1.16585,-0.6206244,-0.680428
1.235111,-0.7602705,-0.9032417
1.104595,-0.662223,-0.7323145
0.9021088,-0.526713,-0.5034725
0.8331223,-0.5636073,-0.5533515
0.7415581,-0.5423653,-0.4767527
0.645191,-0.4707193,-0.4097296
0.6811483,-0.5267226,-0.5294443
0.7061462,-0.5211356,-0.5638454
0.7389673,-0.4289302,-0.5983987
0.8233436,-0.3485729,-0.627198
0.8059598,-0.2635698,-0.6094639
0.7538189,-0.2493028,-0.6168228
0.7013577,-0.2204255,-0.5628741
0.5880472,-0.1753982,-0.5296423
0.5287025,-0.2028908,-0.5183673
0.5433343,-0.1902999,-0.4772304
0.6010327,-0.1687547,-0.4766086
0.6472483,-0.1111394,-0.4854112
0.5892511,0.01420894,-0.5124867
0.5287836,0.03003138,-0.541964
0.55253,0.001304096,-0.5604592
0.6200443,0.03569309,-0.5673136
0.720919,0.07773639,-0.5434385
0.8177419,0.1177638,-0.5637504
0.8647132,0.1292121,-0.6066064
0.9329423,0.1098465,-0.6850664
1.053442,0.05876878,-0.7807225
1.161723,-0.1083564,-0.7812505
1.256299,-0.3065035,-0.8181346
1.257502,-0.3230244,-0.9575566
1.197928,-0.2741364,-1.147276
1.199566,-0.2971464,-1.286855
1.074928,-0.2508304,-1.157944
0.8585362,-0.2179583,-0.9690533
0.7653255,-0.2597965,-0.9257654
0.7018326,-0.233967,-0.8019116
0.6555235,-0.2120481,-0.7298575
0.6679784,-0.2032635,-0.8085945
0.7449156,-0.1916491,-0.7756394
0.8889448,-0.2566042,-0.7125594
0.9424631,-0.3193257,-0.6317816
0.8060429,-0.3635192,-0.4567089
0.5698297,-0.3844347,-0.387824
0.4662714,-0.3639475,-0.3471017
0.5361137,-0.3748197,-0.2814065
0.592142,-0.3760974,-0.3164712
0.675323,-0.3523108,-0.3487772
0.8065707,-0.3175331,-0.3950453
0.8095129,-0.262134,-0.4444098
0.6630569,-0.2147376,-0.3295009
0.5351484,-0.167228,-0.1388829
0.5338947,-0.2171419,-0.01811174
0.5702054,-0.3442282,0.04462337
0.5758872,-0.3742101,0.09056163
0.63586,-0.3991896,0.1277446
0.7413297,-0.4652067,0.1263851
0.7807915,-0.4677085,0.07514165
0.8263423,-0.4675131,0.01249972
0.9740142,-0.4612237,-0.06292812
1.145886,-0.4111565,-0.2025244
1.221735,-0.445594,-0.3330713
1.168561,-0.6447354,-0.4347999
1.165797,-0.8729349,-0.5873514
1.207302,-0.8876621,-0.5831275
1.126631,-0.7889984,-0.4407479
1.021781,-0.8164765,-0.4661174
0.9167717,-0.8029759,-0.4832819
0.858308,-0.7177513,-0.4642046
0.8167785,-0.6668768,-0.5549975
0.6914434,-0.5753866,-0.5722315
0.7369056,-0.5444822,-0.6290918
0.8141155,-0.4651645,-0.7556636
0.7561833,-0.2654525,-0.77557
0.7774809,-0.1946849,-0.7625818
0.7241502,-0.1511992,-0.6939547
0.6602689,-0.1271328,-0.5786619
0.6535881,-0.1972985,-0.4677744
0.5404444,-0.2035728,-0.3849166
0.527443,-0.2069067,-0.3603555
0.5658265,-0.1874464,-0.359495
0.5829753,-0.109224,-0.4441252
0.6907173,-0.05216918,-0.5426676
0.7589827,0.001639794,-0.5987306
0.7981353,0.01129927,-0.6326212
0.8167683,0.02939722,-0.5985106
0.8197356,0.04583005,-0.6073967
0.8876406,0.01611047,-0.6237432
0.9470513,0.01520649,-0.6101174
0.9887107,-0.0357163,-0.6325785
1.019812,-0.09600933,-0.6231735
1.047907,-0.1065841,-0.6332435
1.071793,-0.1577924,-0.6839498
1.040374,-0.1978743,-0.8123271
1.031774,-0.2310418,-1.074645
1.081533,-0.3466287,-1.230863
1.094317,-0.510366,-1.131725
0.9665822,-0.5637637,-1.016147
0.790987,-0.4837831,-1.01404
0.7585962,-0.4314615,-0.8593431
0.7493201,-0.3875703,-0.6509162
0.7105405,-0.3100166,-0.663487
0.792266,-0.2435211,-0.6390803
0.8829586,-0.2060868,-0.5635992
0.8643557,-0.266402,-0.5231598
0.7192622,-0.3164131,-0.3805926
0.4606031,-0.2288469,-0.2880219
0.3441305,-0.1447406,-0.26815
0.4214097,-0.1552791,-0.2608914
0.4682024,-0.2127633,-0.3120309
0.5391561,-0.3058965,-0.3695064
0.6863398,-0.4121121,-0.4069668
0.7614847,-0.454837,-0.3486734
0.7502514,-0.4363246,-0.2410929
0.7273208,-0.4491453,-0.1665071
0.7273187,-0.5054883,-0.08575677
0.7350576,-0.5521065,-0.01806698
0.7556291,-0.5555781,0.04060389
0.8623499,-0.4734809,0.03043871
0.9937012,-0.3343497,0.00263136
1.028962,-0.27106,0.03228422
1.103023,-0.3385632,-0.07731491
1.263631,-0.4801683,-0.3574005
1.242161,-0.6143911,-0.5995948
1.096407,-0.6833686,-0.6129591
1.018202,-0.7620725,-0.5681493
0.9076394,-0.8437076,-0.6453189
0.88233,-0.7864047,-0.5528868
0.8733732,-0.7019831,-0.4420741
0.7057534,-0.6417628,-0.4728444
0.6718391,-0.537516,-0.4019769
0.682909,-0.5366763,-0.4569854
0.636507,-0.5107589,-0.598508
0.7180684,-0.3641455,-0.6576998
0.7416675,-0.2823891,-0.751152
0.7364474,-0.1815472,-0.7374182
0.7442678,-0.1215865,-0.7002069
0.6645352,-0.1703856,-0.6520722
0.6061057,-0.1787712,-0.5250273
0.527664,-0.2189894,-0.4881017
0.5168555,-0.2654191,-0.4722369
0.5936247,-0.2465858,-0.5107541
0.6086381,-0.2013821,-0.5628184
0.6240632,-0.1088803,-0.4911387
0.6174544,-0.0336976,-0.4543749
0.6448673,-0.02258585,-0.4655387
0.7421139,-0.02687017,-0.4956922
0.826508,0.004123701,-0.5807446
0.9246868,0.04086603,-0.6771454
0.9536932,0.04082077,-0.7204255
0.9769379,0.03256243,-0.7047305
1.059406,-0.008092061,-0.7327298
1.056802,-0.07964176,-0.7824438
1.053416,-0.1378988,-0.9065321
1.109685,-0.1863508,-1.121869
1.108922,-0.2623191,-1.160902
0.9919627,-0.3452709,-1.043433
0.7928697,-0.3615159,-0.9362997
0.6994462,-0.3907716,-0.8334049
0.7524145,-0.4275639,-0.7948565
0.7822705,-0.3574333,-0.8159083
0.8437837,-0.2921867,-0.7741329
1.006576,-0.2922109,-0.6346297
1.048651,-0.3086974,-0.4991389
0.850684,-0.3186947,-0.456037
0.5772371,-0.2469581,-0.4564427
0.4313601,-0.1482199,-0.4107167
0.437459,-0.1335202,-0.346301
0.4766478,-0.182668,-0.321406
0.5493021,-0.2520567,-0.2851807
0.6588287,-0.3218001,-0.2636874
0.6800182,-0.3535961,-0.2765975
0.6126248,-0.3369322,-0.2243501
0.5770959,-0.3707936,-0.1272732
0.605651,-0.4781071,-0.03330722
0.638105,-0.5377077,0.04378571
0.6847377,-0.5263308,0.1218315
0.7728374,-0.4931123,0.1773818
0.870395,-0.4313942,0.03957197
1.021597,-0.3543226,-0.1446381
1.124968,-0.4012799,-0.1850968
1.098962,-0.6611548,-0.3930618
1.216838,-1.001096,-0.7127165
1.340811,-1.15931,-0.6766165
1.075093,-0.9680874,-0.5351477
0.7648209,-0.7333457,-0.6038773
0.7463569,-0.7068671,-0.5779846
0.7262694,-0.6620809,-0.5354111
0.5997932,-0.6094345,-0.5958527
0.5899446,-0.6053094,-0.5466243
0.6620278,-0.5678651,-0.5733211
0.6865105,-0.5215823,-0.6451614
0.7652163,-0.4397134,-0.6318527
0.8424521,-0.4297361,-0.6994093
0.8290108,-0.4427538,-0.7209716
0.8356845,-0.3761194,-0.7038294
0.7865545,-0.3242688,-0.6881598
0.666274,-0.2057188,-0.5998787
0.5608551,-0.1127801,-0.564487
0.4580795,-0.1133003,-0.5094449
0.4534441,-0.07629284,-0.4497813
0.5317531,-0.03941828,-0.4796923
0.6267598,0.01023638,-0.5119679
0.7102341,0.02736519,-0.5540756
0.7157343,0.008862067,-0.5561766
0.7117275,0.05215735,-0.5416094
0.70144,0.1070861,-0.5714851
0.6765895,0.1581636,-0.5668875
0.6986977,0.188943,-0.5713289
0.7608215,0.2056298,-0.6102367
0.9030114,0.186623,-0.6586115
1.095151,0.0623383,-0.710947
1.258582,-0.08135079,-0.7056089
1.327159,-0.203848,-0.7039519
1.250092,-0.2502973,-0.7767178
1.141727,-0.1777967,-0.9084081
1.079104,-0.1576336,-1.046142
1.050662,-0.2563506,-1.017479
0.9513325,-0.3600822,-0.902149
0.7004401,-0.3925343,-0.8626557
0.5854828,-0.4150987,-0.7668331
0.6562042,-0.433065,-0.7469692
0.6725616,-0.3181457,-0.8629922
0.7681859,-0.1886845,-0.8566163
0.9116841,-0.2043121,-0.7766218
0.9261025,-0.2659365,-0.6405746
0.8971097,-0.3158884,-0.5138091
0.758931,-0.3353127,-0.5328442
0.5340937,-0.2565606,-0.5013139
0.4574572,-0.1408431,-0.3969362
0.5534674,-0.122827,-0.2779658
0.6606303,-0.1674538,-0.2064565
0.7098545,-0.1782354,-0.278001
0.7479892,-0.186198,-0.3015881
0.7212004,-0.2007372,-0.270114
0.6769697,-0.2283266,-0.2130421
0.6666102,-0.3124908,-0.0569793
0.6144064,-0.4152909,0.03679033
0.6321406,-0.4754789,0.06822031
0.6872842,-0.4800774,0.09863181
0.7344661,-0.4848177,0.07386654
0.8989153,-0.5142803,-0.001438898
1.056213,-0.5753467,-0.1729422
1.123076,-0.7240128,-0.4194612
1.131493,-0.8332339,-0.6360592
1.095865,-0.7677758,-0.7459276
1.062275,-0.6576086,-0.7313082
0.9917373,-0.574998,-0.6767603
0.8699136,-0.4970866,-0.5985959
0.7306136,-0.4831442,-0.494346
0.6891905,-0.4992995,-0.4598716
0.7802853,-0.4815241,-0.5001386
0.8643399,-0.43815,-0.5583781
0.9077914,-0.3340724,-0.6121018
0.8813952,-0.2260408,-0.6333391
0.7878683,-0.1867763,-0.6094605
0.6796344,-0.1622603,-0.5505658
0.5768442,-0.1484314,-0.5015573
0.5502084,-0.1230885,-0.4892518
0.5461559,-0.08166138,-0.5001524
0.5579397,-0.0928713,-0.5147904
0.6488884,-0.09694049,-0.5229034
0.7096152,-0.05773645,-0.5247121
0.6927663,-0.03341828,-0.4875092
0.6686718,-0.02973495,-0.4559638
0.6869659,-0.05775566,-0.4967629
0.6956609,-0.08838348,-0.5624746
0.7012513,-0.06475181,-0.6180775
0.8145201,-0.01033506,-0.6704233
0.9160864,0.05174929,-0.7524386
0.9064361,0.07752439,-0.7988796
0.9334861,0.02609735,-0.7395061
1.04642,-0.04133608,-0.7260915
1.095408,-0.1172144,-0.8183349
1.060964,-0.1917985,-0.9818433
1.091335,-0.1959095,-1.138475
1.091474,-0.1925692,-1.083022
0.9815422,-0.2127966,-0.9905175
0.8733063,-0.2260514,-0.9996548
0.7956796,-0.270137,-0.8367795
0.7937293,-0.2953388,-0.7112536
0.7750357,-0.2833839,-0.8351316
0.7371109,-0.3021035,-0.8566838
0.8635252,-0.3368143,-0.7356844
0.970102,-0.3588202,-0.6141187
0.8764143,-0.3275915,-0.4933338
0.7140907,-0.2432026,-0.439704
0.5648778,-0.1702348,-0.3999334
0.4580481,-0.09395327,-0.3386907
0.4565025,-0.06339145,-0.2927068
0.504149,-0.1741043,-0.2457895
0.535455,-0.336893,-0.215382
0.6517984,-0.4260326,-0.2114475
0.749723,-0.4316871,-0.235104
0.7126293,-0.4113433,-0.2411947
0.6886452,-0.415962,-0.2064228
0.6712878,-0.4482607,-0.1631972
0.6829311,-0.5101384,-0.07914857
0.7539505,-0.5566241,-0.006790381
0.8119912,-0.5285456,-0.02946255
0.9607228,-0.4912168,-0.07839882
1.101352,-0.5043261,-0.1136533
1.085445,-0.5594919,-0.2270514
1.11105,-0.6576937,-0.4459882
1.180847,-0.7017509,-0.6790299
1.093888,-0.6358612,-0.8297987
0.9859745,-0.5691448,-0.8166192
0.9490428,-0.4995969,-0.6973724
0.8227151,-0.4130854,-0.6029215
0.7583226,-0.406344,-0.5715668
0.7866882,-0.4356611,-0.5691094
0.7084221,-0.4311573,-0.5226321
0.7195742,-0.4028139,-0.5345238
0.7954125,-0.3267632,-0.6081481
0.7586066,-0.232164,-0.5850955
0.7614329,-0.1865655,-0.5818216
0.7352696,-0.1781683,-0.5808146
0.6409169,-0.1607201,-0.5226582
0.6051925,-0.1490798,-0.5389239
0.5918007,-0.1588804,-0.5412742
0.6168117,-0.1578758,-0.5468183
0.6589329,-0.1507962,-0.5968251
0.6624199,-0.129772,-0.5536312
0.6186791,-0.08842717,-0.477156
0.5513418,-0.07874923,-0.4447763
0.5928712,-0.07851018,-0.4957163
0.6851679,-0.03857351,-0.6051877
0.7480852,0.007551495,-0.6380998
0.8294112,0.02425953,-0.6544772
0.843986,0.02711232,-0.6880696
0.8618305,0.03852769,-0.6836017
0.9379737,0.02409191,-0.6942542
0.9547751,-0.03642703,-0.7087491
0.9895596,-0.1066206,-0.7788169
1.053927,-0.164304,-0.9672839
1.102337,-0.2037576,-1.159539
1.168056,-0.2656781,-1.263104
1.104724,-0.3301331,-1.194266
0.8986037,-0.3214213,-0.9806955
0.777212,-0.3151438,-0.7837063
0.7932026,-0.308912,-0.7008029
0.815724,-0.2429882,-0.7606518
0.832115,-0.2320927,-0.7693885
0.9356806,-0.2599154,-0.6672851
0.9774325,-0.257529,-0.5979812
0.8195719,-0.2578091,-0.466711
0.6390887,-0.2090451,-0.3726242
0.5262224,-0.1332143,-0.3965779
0.4806456,-0.1068471,-0.3729359
0.5000909,-0.1246598,-0.371523
0.5390343,-0.2061734,-0.3492318
0.6021967,-0.3251109,-0.2767692
0.5965472,-0.3664291,-0.2674023
0.5794249,-0.346295,-0.2361833
0.6421006,-0.3789472,-0.1929285
0.627417,-0.3952728,-0.1819656
0.6020677,-0.3949167,-0.1716788
0.6220794,-0.4916177,-0.1321139
0.6217749,-0.5433323,-0.06847265
0.7238561,-0.4980285,-0.03240443
0.8654224,-0.4655034,0.02810165
0.9225351,-0.4264025,0.02711552
1.000875,-0.400651,-0.06681866
1.148339,-0.3881181,-0.1390656
1.237165,-0.3903761,-0.3100365
1.276003,-0.4582611,-0.5759141
1.319154,-0.5363672,-0.7973157
1.149924,-0.6484282,-0.8295034
0.9440524,-0.8129798,-0.5987027
0.9888581,-0.8509325,-0.40066
0.9312646,-0.7547562,-0.3233194
0.7610438,-0.6760464,-0.2586547
0.7129324,-0.5504908,-0.3042192
0.6301072,-0.3966513,-0.4078705
0.5861182,-0.3396987,-0.5146814
0.643398,-0.2694513,-0.5942181
0.6482761,-0.191589,-0.5824066
0.650081,-0.1733683,-0.5897179
0.6897969,-0.1573569,-0.6143886
0.7135577,-0.1922714,-0.5893639
0.702387,-0.2155241,-0.5691811
0.6446996,-0.1828848,-0.5343954
0.5815903,-0.1775192,-0.47749
0.5720137,-0.165248,-0.4708825
0.6264822,-0.1288672,-0.4901356
0.694019,-0.0696874,-0.4854917
0.712752,-0.04371491,-0.4856676
0.7162763,-0.08428104,-0.5011441
0.7521608,-0.1079028,-0.5591536
