accx,accy,accz
0.8758161,-0.02982483,-0.04842942
1.021815,-0.05791852,-0.06283715
1.136849,-0.1285903,-0.2252234
1.226104,-0.1847541,-0.4786335
1.316095,-0.1696751,-0.6353258
1.381697,-0.1772455,-0.6692141
1.240858,-0.1790761,-0.5927427
1.004018,-0.1858873,-0.5776905
0.9581659,-0.2273498,-0.601032
0.9941268,-0.2953511,-0.5618338
1.027635,-0.3623737,-0.5628855
1.096147,-0.3663184,-0.5441792
1.129743,-0.3287858,-0.5066742
1.105594,-0.2931459,-0.492662
1.03961,-0.2723775,-0.4218424
0.9395514,-0.2385955,-0.349467
0.842857,-0.1881339,-0.3167911
0.7903652,-0.183164,-0.3020975
0.7660917,-0.1837077,-0.2849125
0.7580205,-0.1657857,-0.2632617
0.7665232,-0.168849,-0.2267336
0.7597495,-0.1679914,-0.1481232
0.7491487,-0.1715259,-0.08056887
0.7306973,-0.1864631,-0.01282758
0.737915,-0.1946566,0.0123348
0.8636669,-0.1973469,-0.01560733
0.9905096,-0.1892144,-0.009907549
0.9640846,-0.1958625,-0.05475508
0.9456632,-0.2316087,-0.07765119
1.051117,-0.2813603,-0.05855407
1.07703,-0.3143555,-0.1300971
1.005787,-0.3364603,-0.2114784
1.013218,-0.4162,-0.3462422
1.098789,-0.4706063,-0.4774956
1.169953,-0.40945,-0.4655222
1.039414,-0.3721045,-0.3951864
0.7866831,-0.4034503,-0.2636079
0.7353609,-0.4148301,-0.201153
0.8250979,-0.4219911,-0.2803127
0.91822,-0.4231479,-0.3672046
0.9924454,-0.38102,-0.4951779
1.023967,-0.3297334,-0.5407818
1.049156,-0.275435,-0.4047623
1.008019,-0.1714729,-0.2837387
0.9350617,-0.03735982,-0.2535188
0.926873,0.03260745,-0.2632649
0.9614531,0.01953159,-0.2874754
0.9904939,-0.002298454,-0.3122684
0.940319,-0.05731281,-0.3068284
0.8840574,-0.1552598,-0.2799314
0.8968333,-0.1731563,-0.2767604
0.8976505,-0.1520698,-0.2627402
0.8688719,-0.1755532,-0.2454132
0.8188112,-0.1287996,-0.2519884
0.7918198,-0.007993339,-0.2236397
0.8570216,0.08982533,-0.1344724
0.922949,0.1516563,-0.05430848
0.9004245,0.1489015,-0.07203258
0.9146179,0.1492438,-0.09289803
1.032778,0.1818514,-0.04822282
1.122774,0.09090952,-0.07781803
1.151864,-0.07712255,-0.1299092
1.190559,-0.1823774,-0.1710819
1.300399,-0.2297853,-0.4094412
1.465773,-0.2138642,-0.7406258
1.470953,-0.1907282,-0.7963687
1.201473,-0.1765942,-0.5892664
0.9223533,-0.1496036,-0.4979199
0.9370069,-0.1773629,-0.5714319
1.071113,-0.2362517,-0.5957198
1.044124,-0.2932748,-0.5936068
0.9965796,-0.3042409,-0.5280977
0.9817097,-0.2460964,-0.4224944
0.9719637,-0.2384884,-0.4457809
0.9993762,-0.2685062,-0.4240047
0.8879226,-0.2831602,-0.2748042
0.7668214,-0.2899755,-0.228949
0.8033188,-0.255072,-0.293247
0.8024856,-0.2291668,-0.3084846
0.7334711,-0.2187207,-0.1901802
0.6345092,-0.1988275,0.05746833
0.5843861,-0.1879784,0.2577379
0.7043745,-0.1576572,0.2079412
0.9280717,-0.1322637,0.007733075
1.114048,-0.1339028,-0.09173004
1.127489,-0.1394964,-0.04310048
1.076971,-0.1397479,0.01219803
1.097056,-0.1494896,-0.03780464
1.051462,-0.176455,-0.1137518
0.9982191,-0.224561,-0.1871104
1.093458,-0.4279599,-0.3784336
1.192371,-0.6779805,-0.602621
1.162083,-0.6379871,-0.6661603
1.038026,-0.489011,-0.5541864
0.8412863,-0.4176879,-0.3850289
0.7143795,-0.257566,-0.2588277
0.7985268,-0.1943091,-0.3183293
0.8979608,-0.21801,-0.5595446
0.8971693,-0.1440958,-0.6108572
0.9118152,-0.2460514,-0.4953843
0.9155263,-0.3409553,-0.4658014
0.9372099,-0.2472811,-0.4177652
0.9835133,-0.2366879,-0.3755517
0.9277649,-0.1354183,-0.3363109
0.8493013,0.01304323,-0.3247079
0.7913064,0.04044031,-0.343836
0.7369634,0.06368542,-0.2652554
0.759248,-0.0004347922,-0.2548402
0.7920891,-0.05456574,-0.2723161
0.8181365,-0.04899337,-0.2990664
0.8541644,-0.02729326,-0.4097274
0.8498363,0.05778946,-0.3935275
0.8388886,0.06868998,-0.3162738
0.8244501,0.04776451,-0.2202765
0.8227041,0.04815515,-0.1305226
0.8726495,0.03031564,-0.1501805
0.9565088,0.02075098,-0.1361404
1.048731,-0.01029112,-0.1208518
1.095018,-0.00432403,-0.1440641
1.112274,-0.004412551,-0.1566639
1.13725,-0.0485078,-0.1717824
1.16103,-0.09702404,-0.1703995
1.237591,-0.1953798,-0.2563919
1.331957,-0.225765,-0.4860618
1.331001,-0.1835937,-0.6800051
1.221753,-0.1844249,-0.610228
1.045303,-0.1776589,-0.5161174
0.9537864,-0.1985647,-0.6755981
1.063489,-0.2830614,-0.7227348
1.163262,-0.3633096,-0.6127336
1.115556,-0.3860525,-0.6037396
1.094848,-0.3727387,-0.6075113
1.068972,-0.3751035,-0.607151
0.9260015,-0.3197316,-0.5119938
0.8228305,-0.2434117,-0.3445194
0.7956207,-0.2342456,-0.2935898
0.7605637,-0.188532,-0.2789856
0.7186629,-0.1317005,-0.2860362
0.6525116,-0.1302349,-0.2955919
0.5933393,-0.1184864,-0.2547837
0.5616947,-0.08165955,-0.20786
0.5589055,-0.05781088,-0.1186096
0.6062026,-0.1139026,-0.04095239
0.6831024,-0.2241126,-0.02024026
0.8116211,-0.3215399,-0.04521211
0.9286354,-0.386354,-0.1094672
0.9432975,-0.376915,-0.1311621
0.9278794,-0.3303868,-0.09417534
0.9147694,-0.2869083,-0.04323353
0.9324199,-0.2728671,-0.06079833
1.084338,-0.2947306,-0.139486
1.277752,-0.2827296,-0.1904273
1.298456,-0.2479663,-0.211376
1.266568,-0.1490765,-0.1981567
1.350992,-0.03157172,-0.2123173
1.349951,-0.1306181,-0.2649131
1.309144,-0.3094949,-0.3402247
1.359535,-0.3334927,-0.460715
1.212897,-0.3415344,-0.4629956
0.8464922,-0.4263371,-0.384525
0.5849492,-0.5862382,-0.310652
0.6596339,-0.7610867,-0.1919265
0.8560676,-0.7624844,-0.3036461
0.8612863,-0.6544896,-0.5699503
0.9046001,-0.5660699,-0.609065
0.8953557,-0.440414,-0.5280894
0.7666186,-0.3209605,-0.4411097
0.8383872,-0.25229,-0.3769707
0.815628,-0.1740705,-0.3664496
0.7295825,-0.07264126,-0.3278065
0.7777094,-0.06555333,-0.3507483
0.7324226,-0.1659958,-0.4268505
0.762804,-0.1883943,-0.4384583
0.8108586,-0.1498042,-0.4077683
0.8059393,-0.09986813,-0.3558729
0.8868363,-0.03400122,-0.3630939
0.9120828,-0.04873874,-0.4143296
0.948598,-0.05627274,-0.4249682
0.9688809,-0.006336045,-0.4163725
0.9347792,0.06399187,-0.373297
0.9474012,0.1481122,-0.3150219
0.9188597,0.1301288,-0.2312618
0.9284798,0.06057685,-0.1391457
1.019451,0.04058177,-0.1227366
1.094656,0.05230065,-0.1102885
1.095499,0.0729624,-0.1122063
1.101046,0.02504283,-0.1625018
1.244175,-0.05610404,-0.1915366
1.315158,-0.09805498,-0.2113708
1.270101,-0.1159284,-0.1710843
1.241519,-0.1084968,-0.1302248
1.174276,-0.1331549,-0.2677965
1.174529,-0.223091,-0.5217634
1.172226,-0.2835636,-0.6803598
1.006968,-0.2082096,-0.6302882
0.8962163,-0.1146601,-0.6056068
1.027443,-0.1939425,-0.7481782
1.221484,-0.269039,-0.7794749
1.197134,-0.2264078,-0.7050994
1.055194,-0.2082916,-0.6182589
0.9596947,-0.1693044,-0.4833974
0.8925828,-0.149683,-0.5004743
0.85761,-0.1911537,-0.509344
0.6863056,-0.1950942,-0.3214768
0.5230678,-0.2279015,-0.248938
0.5842774,-0.2465405,-0.2639467
0.5652999,-0.2272173,-0.1898924
0.5232728,-0.2441271,-0.1570585
0.6132824,-0.2023886,-0.1870592
0.6655161,-0.1575912,-0.2042323
0.7504906,-0.175761,-0.199837
0.8251452,-0.2010972,-0.20115
0.8425827,-0.2698157,-0.1946361
0.9466177,-0.3451796,-0.1787322
1.017992,-0.3785527,-0.1861002
0.9967894,-0.3667141,-0.1806834
1.003422,-0.3312031,-0.1611799
1.022304,-0.3048757,-0.1132263
1.038336,-0.2633089,-0.04678896
1.145223,-0.2704153,-0.05980182
1.336597,-0.2938064,-0.1285297
1.430083,-0.2428327,-0.2107569
1.400097,-0.2372089,-0.296235
1.359379,-0.3260675,-0.3702503
1.298105,-0.4766118,-0.4412176
1.230032,-0.5736481,-0.4265283
1.079861,-0.4670816,-0.3564861
0.7747041,-0.3504228,-0.3276128
0.612855,-0.3423268,-0.2946868
0.6976002,-0.3016832,-0.3251375
0.7662067,-0.2810526,-0.4174838
0.8073223,-0.2924363,-0.4400259
0.8135304,-0.2517876,-0.4465429
0.7408319,-0.2021413,-0.4175329
0.7484772,-0.1161185,-0.3504959
0.7700399,-0.001372382,-0.3672884
0.7395947,0.06062241,-0.3791411
0.7160996,0.08392925,-0.3646913
0.67269,0.01958342,-0.3772537
0.7936933,-0.1424169,-0.3443581
1.036822,-0.2961808,-0.3259274
1.100965,-0.3275346,-0.3828077
1.02893,-0.1318614,-0.4322861
0.9578858,0.09158027,-0.3934488
0.927599,0.09907093,-0.2714028
0.9111073,0.04786514,-0.1315323
0.9388068,0.0677476,-0.06996912
1.03979,0.08361884,-0.1647458
1.084352,0.09097723,-0.2621905
1.099943,0.09875113,-0.2480549
1.117798,0.02424199,-0.2232434
1.104233,-0.1312498,-0.221757
1.120111,-0.2536201,-0.3698415
1.124943,-0.3086146,-0.6360205
1.119252,-0.3174863,-0.708919
1.098143,-0.3231303,-0.643536
1.003832,-0.3231964,-0.66123
0.9391445,-0.2775938,-0.6862557
1.01411,-0.2579356,-0.6134493
1.114657,-0.2700317,-0.5297234
1.063956,-0.2721738,-0.4965492
0.9865078,-0.2875483,-0.446788
0.9352317,-0.277957,-0.3988782
0.8149617,-0.243919,-0.371457
0.7599532,-0.2061015,-0.3192704
0.6946918,-0.1727426,-0.2720528
0.5844976,-0.1871954,-0.2664344
0.600196,-0.2191513,-0.2701668
0.6223153,-0.2394467,-0.2214215
0.6521707,-0.2314029,-0.1830434
0.7579956,-0.1981411,-0.2128778
0.8232232,-0.2123347,-0.203309
0.833686,-0.2714485,-0.1185109
0.8319023,-0.3458338,-0.02302986
0.8590931,-0.384094,-0.00333162
0.8961321,-0.3467577,-0.05793809
0.9567691,-0.3024842,-0.0758019
1.007088,-0.2350297,-0.07663047
0.9711773,-0.1942607,-0.07882759
1.017305,-0.2769076,-0.06254945
1.133865,-0.332648,-0.09605723
1.208779,-0.3128468,-0.1618315
1.269948,-0.3131827,-0.2270966
1.233506,-0.3561741,-0.322646
1.249516,-0.5150314,-0.498758
1.460643,-0.6675959,-0.679411
1.589692,-0.558481,-0.6505239
1.293437,-0.4047853,-0.5385216
0.6479327,-0.4799144,-0.4275643
0.3256691,-0.5186911,-0.2168166
0.5832043,-0.4683703,-0.2916107
0.8235376,-0.4920648,-0.5898469
0.7974819,-0.4200676,-0.658651
0.8089222,-0.3164466,-0.6859738
0.8349238,-0.2546947,-0.6215492
0.7530541,-0.1548817,-0.4672343
0.711143,-0.1132212,-0.4572712
0.6649616,-0.01731068,-0.3445774
0.6381559,0.07680376,-0.2825708
0.7107811,0.03795817,-0.3506856
0.7918412,-0.04250025,-0.3165157
0.9857287,-0.2164927,-0.3864895
1.079617,-0.2316199,-0.4346257
0.9313626,0.01680469,-0.3671994
0.8769019,0.1793778,-0.3632364
0.8623503,0.1905455,-0.3240054
0.8116776,0.1473432,-0.2449181
0.788231,0.1702375,-0.1193505
0.779137,0.1647365,-0.05180917
0.8246778,0.05615214,-0.1259376
0.8496001,0.05980565,-0.1480179
0.9551076,0.06615298,-0.1991445
1.118787,0.01636158,-0.3189015
1.13746,-0.01166193,-0.3496499
1.158099,-0.06127514,-0.3384125
1.280698,-0.06326322,-0.3606686
1.428553,-0.1199726,-0.4229016
1.495758,-0.2002074,-0.4683506
1.488021,-0.2021544,-0.5002891
1.47035,-0.2214464,-0.5537427
1.239328,-0.121046,-0.5671152
0.9098229,-0.01592537,-0.6096065
0.8718894,-0.2059433,-0.6942042
0.9736351,-0.4389488,-0.6788926
0.9508213,-0.4178573,-0.5865844
0.8995309,-0.3165795,-0.4989087
0.8823513,-0.2822573,-0.4639921
0.8458709,-0.2398071,-0.4813771
0.8271879,-0.2433729,-0.4590962
0.7767172,-0.2570415,-0.4054093
0.6668593,-0.2335279,-0.3585324
0.6105247,-0.2772444,-0.2858479
0.5496952,-0.282482,-0.209881
0.5007238,-0.2099767,-0.1748254
0.5565988,-0.1220912,-0.2214372
0.6396744,-0.03804097,-0.3293803
0.7530873,-0.05138322,-0.3959766
0.8436214,-0.1083493,-0.3811599
0.8531336,-0.2017073,-0.2831219
0.8641473,-0.3544124,-0.1099173
0.8599492,-0.4303852,0.05373999
0.8591121,-0.3971839,0.05828238
0.8847916,-0.2985655,-0.06318825
0.8966311,-0.2234944,-0.09091606
0.940027,-0.2334399,-0.0600914
1.026554,-0.2772076,-0.06255469
1.182771,-0.3013558,-0.07527306
1.366219,-0.2805954,-0.1585398
1.394311,-0.257078,-0.2394963
1.295219,-0.2378226,-0.2486111
1.161251,-0.256904,-0.2569991
1.084831,-0.3822965,-0.352343
1.292482,-0.4870183,-0.495589
1.45297,-0.4687447,-0.5281006
0.9995728,-0.4626709,-0.5290869
0.4688565,-0.5476295,-0.4543387
0.5478249,-0.5488817,-0.2951639
0.7562435,-0.4558226,-0.4225767
0.7761729,-0.4290531,-0.6399288
0.8512808,-0.4154152,-0.6271289
0.8126731,-0.384397,-0.5677155
0.7023424,-0.2842131,-0.461733
0.7029891,-0.1045887,-0.3769388
0.6460333,-0.005410714,-0.3883307
0.6362403,0.04857979,-0.3493077
0.6859907,0.06901911,-0.3423973
0.723893,0.0369625,-0.3624018
0.8916466,-0.01213253,-0.359463
1.004522,-0.1222071,-0.4521157
0.9983951,-0.1486017,-0.5767276
0.983251,-0.03324138,-0.6054258
0.953733,0.06741642,-0.4717839
1.042235,0.07657415,-0.3566791
1.134923,0.01823868,-0.4831566
1.09096,-0.008266913,-0.5589281
1.044376,-0.01233146,-0.3790134
1.022247,-0.03175524,-0.2281808
1.010128,-0.09090899,-0.2607448
0.956457,-0.2365381,-0.3365925
0.798193,-0.3130461,-0.410791
0.607311,-0.2324529,-0.5719486
0.5637265,-0.1900713,-0.6924026
0.8718532,-0.2981106,-0.6043422
1.215473,-0.3901752,-0.5015192
1.104875,-0.3505375,-0.57883
0.9760091,-0.28764,-0.7165883
1.126148,-0.248349,-0.8015824
1.12438,-0.2376864,-0.7505834
1.134225,-0.2572286,-0.585942
1.164574,-0.2714993,-0.5318165
0.9674479,-0.3103543,-0.4882605
0.9042432,-0.3135365,-0.3833804
0.8414718,-0.2818574,-0.3782669
0.6700983,-0.2994274,-0.3257443
0.5975917,-0.2856966,-0.2755978
0.4781086,-0.26372,-0.3100266
0.5027055,-0.2703033,-0.2811747
0.5964629,-0.2362176,-0.2820939
0.5979651,-0.2052515,-0.2727249
0.6932218,-0.1869289,-0.2335047
0.711191,-0.2217932,-0.2479899
0.7594863,-0.3564604,-0.2239168
0.8927798,-0.4853941,-0.2071038
0.9119026,-0.5282676,-0.2001839
0.9417244,-0.4687376,-0.1627993
0.9615199,-0.3993447,-0.1213742
1.027751,-0.3625167,-0.08264102
1.176264,-0.3134081,-0.1239009
1.2691,-0.2981416,-0.1960272
1.359507,-0.2587601,-0.2532924
1.386009,-0.2425415,-0.325016
1.321857,-0.3695273,-0.38864
1.262166,-0.5046913,-0.4576889
1.171862,-0.547235,-0.4592597
0.9425122,-0.4822864,-0.4151641
0.6887505,-0.4239402,-0.4194232
0.7195094,-0.4543668,-0.4005477
0.8064423,-0.4139651,-0.4177569
0.7487306,-0.349055,-0.5016345
0.8114537,-0.3264307,-0.5310909
0.840796,-0.2682515,-0.5325652
0.7921487,-0.2387246,-0.5101835
0.8318687,-0.2317478,-0.457053
0.7929346,-0.1851756,-0.4316244
0.7616826,-0.07963276,-0.4118997
0.7633403,0.04558425,-0.379384
0.6830405,0.05678881,-0.3221257
0.6929453,-0.02689524,-0.2895477
0.77569,-0.09626308,-0.3129767
0.8840239,-0.1127193,-0.3198492
1.001481,-0.05341723,-0.3492177
1.00637,0.05418688,-0.3746592
0.998293,0.1490741,-0.3151312
1.018146,0.1670714,-0.2471841
1.023155,0.1254138,-0.1982985
1.046356,0.08300705,-0.160363
1.068127,-0.06401369,-0.1555
1.098015,-0.2661539,-0.254864
1.133492,-0.2444375,-0.5543483
1.205932,-0.1196306,-0.8735716
1.270732,-0.1703691,-0.9084097
1.19295,-0.3539876,-0.7427732
1.114583,-0.532037,-0.6886061
1.122921,-0.4775804,-0.7168039
1.049206,-0.2789417,-0.6526832
0.9614364,-0.2349691,-0.5666684
0.9816268,-0.1892141,-0.5225265
0.9695264,-0.1893588,-0.4868412
0.8807099,-0.2844618,-0.4330123
0.771922,-0.2380308,-0.3726619
0.6212137,-0.2425477,-0.3200153
0.5031768,-0.2636686,-0.2397515
0.4825997,-0.2053825,-0.191646
0.5267917,-0.2149522,-0.2001497
0.5912994,-0.1378659,-0.2226977
0.6175932,-0.07458835,-0.2623052
0.6373245,-0.0905557,-0.2396856
0.7000658,-0.1247492,-0.165566
0.8074724,-0.2734918,-0.08743452
0.9236365,-0.3460545,-0.002502235
0.9867636,-0.3402139,-0.01492306
1.054884,-0.3267211,-0.06955756
1.145146,-0.2703261,-0.08755861
1.202735,-0.2808991,-0.1503587
1.209896,-0.2796868,-0.2182183
1.102889,-0.2922339,-0.2878854
1.012595,-0.3987256,-0.3763097
1.101504,-0.5238846,-0.4119436
1.175841,-0.5998815,-0.4668994
1.110303,-0.5263065,-0.5682729
1.056889,-0.4339281,-0.6206113
1.034173,-0.404166,-0.6143636
0.9422437,-0.3143544,-0.5527762
0.8371224,-0.2429567,-0.4737337
0.8137652,-0.2648023,-0.4617109
0.8537522,-0.3003304,-0.4686613
0.8615798,-0.2699214,-0.4359093
0.8174767,-0.2263639,-0.4274897
0.7952832,-0.2046055,-0.4143149
0.7617779,-0.1250645,-0.36616
0.7069875,-0.0336924,-0.3585489
0.6917626,0.03269526,-0.3473333
0.7216719,0.03478672,-0.3333395
0.8069557,-0.0330359,-0.3685852
0.8703775,-0.03986727,-0.3842661
0.8629382,-0.0326947,-0.3878017
0.8582383,-0.005850002,-0.3709129
0.8785872,0.08241354,-0.3064354
0.8895647,0.10504,-0.2610003
0.8859009,0.06552676,-0.2353118
0.9380498,0.0247545,-0.2322366
1.028983,0.04338141,-0.2171074
1.089337,0.05559796,-0.1351587
1.134377,-0.03257362,-0.1097352
1.17101,-0.08300106,-0.2651424
1.221337,-0.08983156,-0.5526071
1.252414,-0.1217189,-0.7427222
1.229481,-0.1878512,-0.7228899
1.176702,-0.284182,-0.7112691
1.109333,-0.2930244,-0.7657799
1.102321,-0.224144,-0.7473001
1.110332,-0.193114,-0.7216085
1.083677,-0.2625406,-0.7063841
1.091984,-0.3707386,-0.6027814
1.050345,-0.3871714,-0.4882682
0.9402604,-0.3348601,-0.4286906
0.8412672,-0.2549445,-0.3734268
0.7619273,-0.1969133,-0.3427897
0.7304724,-0.2066579,-0.3386441
0.6544344,-0.2061535,-0.3059286
0.5548372,-0.1821678,-0.2687499
0.5430787,-0.1444372,-0.2531142
0.4889848,-0.06426948,-0.2238731
0.4731781,-0.02533464,-0.2138816
0.5692388,-0.07404678,-0.2266351
0.5749307,-0.1257177,-0.1920899
0.5956905,-0.2219108,-0.158702
0.7178593,-0.3965781,-0.1047853
0.8161953,-0.4678103,-0.01868092
0.8675433,-0.3831479,-0.04143027
0.8832982,-0.2641583,-0.060339
0.9808867,-0.2014798,-0.01383616
1.136097,-0.2366771,-0.0601533
1.240389,-0.3072464,-0.1489878
1.309325,-0.3504552,-0.2258336
1.300198,-0.3667124,-0.2441015
1.287884,-0.3579457,-0.2119092
1.292668,-0.3605051,-0.3087357
1.285103,-0.4019151,-0.4539177
1.285081,-0.4360044,-0.5146236
1.092482,-0.4242838,-0.4826833
0.7123959,-0.3835893,-0.2928821
0.4818119,-0.3576483,-0.1371781
0.5850322,-0.3929842,-0.2490274
0.7878099,-0.4235773,-0.4926727
0.9011838,-0.3602647,-0.6754264
1.028507,-0.275377,-0.7521788
0.9997504,-0.2488119,-0.6677523
0.8817158,-0.2595348,-0.4949944
0.8811103,-0.2606236,-0.4267638
0.8447647,-0.2285236,-0.4384185
0.9182684,-0.1672261,-0.4831814
1.005648,-0.09887374,-0.5264895
0.9354736,-0.08696857,-0.5133256
0.93963,-0.1440368,-0.5235798
0.9026752,-0.188549,-0.4971913
0.8278011,-0.1817948,-0.4299965
0.8149169,-0.1373366,-0.3881538
0.7858533,-0.08181435,-0.3552803
0.8153777,-0.05897567,-0.4141316
0.8288559,-0.05439689,-0.4597929
0.8198454,-0.02763147,-0.4249405
0.8192486,-4.034939e-05,-0.3864401
0.7720502,0.007388562,-0.3276186
0.7469237,0.0132765,-0.3223994
0.7147744,0.019771,-0.3288268
0.7087221,0.01147584,-0.2983115
0.7655645,0.007889547,-0.3132609
0.8077439,0.04077827,-0.325264
0.8278885,0.1039533,-0.2983538
0.8180112,0.170452,-0.2470056
0.8652872,0.1977146,-0.2159562
1.01402,0.1589921,-0.3019871
1.113418,0.1127,-0.3980327
1.076673,0.1275826,-0.3226269
1.049673,0.1883651,-0.2457686
1.172024,0.2325374,-0.3170208
1.250834,0.1909615,-0.4055675
1.1915,0.07247628,-0.5370944
1.172977,-0.07327793,-0.6061938
1.190554,-0.1954686,-0.4537647
1.160746,-0.1595995,-0.3661225
1.080837,-0.0953526,-0.4377413
1.018197,-0.2288689,-0.4948873
1.031103,-0.3652891,-0.5157211
1.015976,-0.4326514,-0.4304105
1.014296,-0.2978125,-0.1101884
1.117079,-0.2845145,-0.1240274
1.177758,-0.2613255,-0.1044327
1.265908,-0.2660534,-0.06470091
1.293827,-0.241737,-0.1280252
1.242023,-0.2100818,-0.2006929
1.135452,-0.3018644,-0.2973956
0.9903368,-0.504135,-0.5136091
1.11522,-0.6326542,-0.6589975
1.2687,-0.5677741,-0.6410646
1.020922,-0.4718962,-0.5382083
0.7631411,-0.4575945,-0.3885634
0.7119998,-0.3721865,-0.3210122
0.7379817,-0.3058457,-0.4040407
0.8249451,-0.3383466,-0.4747255
0.8510377,-0.2961299,-0.4848859
0.8370622,-0.2495752,-0.4748125
0.8167186,-0.1957537,-0.4128052
0.7678995,-0.06109865,-0.3899164
0.7433237,0.01504896,-0.4043474
0.7021392,0.03132561,-0.3803374
0.7067049,-0.01765495,-0.3676547
0.7941988,-0.127169,-0.3615239
0.8583393,-0.1805269,-0.3607678
0.85064,-0.1306589,-0.3551023
0.8166828,0.01005737,-0.3254172
0.8500984,0.09187622,-0.3016586
0.8714215,0.1009944,-0.2445333
0.8733736,0.1395691,-0.1574061
0.9199602,0.1396738,-0.1144364
0.9683447,0.1137566,-0.140489
1.139646,0.08346986,-0.1834393
1.302332,-0.03128444,-0.2045142
1.274353,-0.2037438,-0.2362412
1.272311,-0.2783698,-0.3759573
1.311559,-0.2492669,-0.7040313
1.295727,-0.2812632,-0.8953491
1.252059,-0.3139107,-0.7208467
1.135232,-0.2733667,-0.6169272
1.003102,-0.2406819,-0.6925632
1.010559,-0.1915071,-0.6592271
1.065913,-0.1698399,-0.6045806
1.009852,-0.2130143,-0.5668227
0.9697725,-0.2255035,-0.4763893
0.9186103,-0.2261623,-0.4551932
0.7898388,-0.2359252,-0.4633167
0.7362584,-0.2239884,-0.4039012
0.6529062,-0.2282905,-0.3385061
0.5400155,-0.229653,-0.2651917
0.5000189,-0.2129976,-0.2184503
0.4538945,-0.2073322,-0.2213366
0.4854753,-0.1848585,-0.1864189
0.5433098,-0.157291,-0.1534596
0.5583787,-0.154885,-0.1332931
0.6410844,-0.1776381,-0.1041993
0.7992666,-0.2175507,-0.1196586
1.03352,-0.2532756,-0.1142847
1.187157,-0.2828828,-0.09777329
1.221687,-0.2902116,-0.1198192
1.344492,-0.2789854,-0.1292694
1.444987,-0.2571522,-0.1714171
1.415715,-0.2137327,-0.2457038
1.343587,-0.2275971,-0.3355511
1.23696,-0.3833693,-0.4642799
1.163993,-0.5750796,-0.520987
1.052324,-0.5808679,-0.4719584
0.8121337,-0.446328,-0.4029907
0.704591,-0.3467179,-0.3704166
0.7579377,-0.2421988,-0.4199984
0.7529171,-0.2001852,-0.5094318
0.7714606,-0.2468234,-0.5312595
0.8054419,-0.2339273,-0.4767822
0.7791819,-0.2408581,-0.4274584
0.803362,-0.257131,-0.4057462
0.8228796,-0.1869573,-0.4001574
0.7980779,-0.1130895,-0.4246299
0.7845126,-0.02390844,-0.4589903
0.7600922,0.04196454,-0.4704146
0.7700264,0.004737609,-0.4412021
0.8239672,-0.08530673,-0.3931339
0.8784807,-0.1524616,-0.3690506
0.8924309,-0.109227,-0.3747875
0.8558451,-0.03405112,-0.3799816
0.8437942,-0.02363274,-0.3517534
0.8305668,0.02054632,-0.2940577
0.7978708,0.08210829,-0.2095552
0.816175,0.06577261,-0.1647955
0.861286,0.05440899,-0.1953522
0.8997363,0.1068452,-0.184672
0.9251857,0.1225499,-0.1676462
0.9786902,0.06647935,-0.2033442
1.127131,-0.008892138,-0.2285613
1.265547,-0.07749843,-0.2924118
1.304146,-0.1252662,-0.3359127
1.343285,-0.1412497,-0.3274392
1.386458,-0.09684006,-0.4614523
1.339448,-0.05543423,-0.6922016
1.258386,-0.1191998,-0.7660848
1.187342,-0.2501399,-0.6669456
1.054347,-0.376784,-0.6233591
0.909612,-0.4114885,-0.6845386
0.8579793,-0.3674899,-0.6848884
0.8678791,-0.3695499,-0.641242
0.8988314,-0.3659707,-0.5970548
0.9578722,-0.3451966,-0.5482492
1.004835,-0.3617404,-0.551516
0.9708896,-0.3256021,-0.5182945
0.8753413,-0.253653,-0.4070139
0.7812633,-0.2088148,-0.3127364
0.6854534,-0.191914,-0.2675265
0.6377802,-0.1689526,-0.2792875
0.6504629,-0.08143334,-0.2935258
0.6255907,-0.035568,-0.2876433
0.5853223,-0.04599051,-0.2984769
0.5512866,-0.06850141,-0.2499188
0.5021763,-0.1855746,-0.118043
0.5023863,-0.2834694,0.01712176
0.5682161,-0.3022126,0.08031248
0.6790042,-0.2772119,0.01113539
0.7879484,-0.1786629,-0.09176564
0.8462538,-0.1119797,-0.1082808
0.9459694,-0.09230595,-0.06982805
1.150789,-0.1154407,-0.04208039
1.32727,-0.16453,-0.107099
1.372418,-0.1435673,-0.1896054
1.387829,-0.1529194,-0.1782271
1.435422,-0.1882681,-0.2109379
1.407395,-0.2378947,-0.3029231
1.286769,-0.4192397,-0.3534103
1.126464,-0.5590686,-0.3880483
0.9238919,-0.5260689,-0.3934813
0.7513493,-0.503836,-0.3860406
0.66094,-0.5928026,-0.3920991
0.7460313,-0.6342835,-0.4438045
0.9533339,-0.5446796,-0.570369
0.9103104,-0.4329121,-0.6246043
0.8005141,-0.3469757,-0.5402562
0.867838,-0.320988,-0.435446
0.8351338,-0.320574,-0.4189619
0.8438921,-0.2691941,-0.480383
0.860074,-0.201063,-0.5057642
0.7399837,-0.1542881,-0.4794268
0.7449622,-0.1773485,-0.4533918
0.7442624,-0.2000569,-0.4559628
0.7279144,-0.1630082,-0.4535658
0.7571084,-0.1397681,-0.4235306
0.7356382,-0.08784777,-0.4318858
0.7954829,-0.04937919,-0.4491753
0.83423,-0.06473602,-0.4567626
0.872923,-0.0472107,-0.4658496
0.9617044,-0.02886853,-0.4444571
0.9594258,0.01148211,-0.4201062
0.9222735,0.06721419,-0.3494752
0.828883,0.06393282,-0.2274501
0.8015723,0.06201241,-0.1303167
0.8930567,0.06490788,-0.09528252
0.9351825,0.05654695,-0.1180721
0.9788339,0.04388195,-0.1245321
1.039785,0.007677022,-0.1639481
1.142047,-0.01178789,-0.2292728
1.286918,-0.06540679,-0.2249618
1.403768,-0.1584569,-0.247784
1.427017,-0.1676376,-0.2883805
1.343564,-0.1597622,-0.3609785
1.351844,-0.2050216,-0.4918332
1.287151,-0.1941171,-0.510945
0.9857815,-0.1466829,-0.6302735
0.8087807,-0.1725708,-0.8812889
0.9380274,-0.2877571,-0.8189511
1.134377,-0.3970963,-0.703078
1.038551,-0.2995815,-0.7518257
0.9318869,-0.1414584,-0.6312731
1.002085,-0.195731,-0.5748719
0.8360002,-0.217146,-0.5601398
0.7323612,-0.1659222,-0.3514295
0.7654033,-0.2265915,-0.3499865
0.6738329,-0.2308152,-0.3681109
0.6973772,-0.2062017,-0.2413656
0.7010039,-0.203916,-0.308681
0.6616066,-0.1472298,-0.3091317
0.6531058,-0.1277402,-0.2574585
0.594478,-0.1044504,-0.2645787
0.6050644,-0.04853361,-0.1119082
0.6166345,-0.03253322,-0.06092254
0.7002633,-0.1195164,-0.1522603
0.8784728,-0.3063242,-0.2121596
1.029685,-0.4108786,-0.268241
1.123481,-0.4063151,-0.2571568
1.066629,-0.3710117,-0.2316151
1.067317,-0.3394072,-0.1820618
1.171589,-0.3633008,-0.1359185
1.244194,-0.3661009,-0.2072173
1.30529,-0.3339188,-0.3039918
1.196516,-0.3472461,-0.388638
1.003268,-0.4485286,-0.4377279
0.9099609,-0.5638662,-0.4660229
0.8968069,-0.5247926,-0.5773066
0.9265676,-0.4506267,-0.6557867
0.8608556,-0.4094383,-0.5455335
0.748662,-0.2488854,-0.3912161
0.7202035,-0.1740318,-0.3804528
0.7826498,-0.2493823,-0.4152777
0.918851,-0.2449322,-0.4423966
0.9966394,-0.2398016,-0.5042728
0.9953328,-0.1853395,-0.5146379
0.920538,-0.02876,-0.4883757
0.7839327,-0.007770165,-0.4565127
0.7409506,-0.02412817,-0.3790203
0.7289759,0.002626267,-0.3135268
0.7266947,-0.06406889,-0.3262589
0.796286,-0.1200141,-0.3527253
0.7980232,-0.1115862,-0.3255451
0.7820198,-0.05759909,-0.3266811
0.8009725,0.04221054,-0.312717
0.7870311,0.1158636,-0.2109142
0.8041528,0.1506091,-0.1464723
0.841184,0.1234129,-0.1462417
0.9239579,0.06918206,-0.1941865
1.099204,0.02584503,-0.2704235
1.247082,-0.0929844,-0.3118142
1.278556,-0.2425042,-0.339823
1.23243,-0.2953552,-0.4144537
1.224901,-0.2248013,-0.6107655
1.226795,-0.131502,-0.7653727
1.125907,-0.1562387,-0.7079205
0.9919231,-0.275949,-0.6845664
0.9392782,-0.3896869,-0.7775352
0.9838906,-0.4032872,-0.7970724
0.9953117,-0.3439869,-0.767358
0.9212638,-0.3380788,-0.6965229
0.8770589,-0.313939,-0.5373888
0.8620982,-0.3009183,-0.4768279
0.8641194,-0.3437034,-0.5508258
0.8541981,-0.2651263,-0.5547926
0.7992091,-0.194219,-0.4939615
0.7936607,-0.2281483,-0.4296272
0.8032824,-0.2309916,-0.3822954
0.7889146,-0.2459309,-0.402116
0.8006965,-0.2407204,-0.4117003
0.8206534,-0.1947585,-0.3900461
0.8444392,-0.1707583,-0.3903275
0.8211516,-0.1785063,-0.337431
0.7461439,-0.2367985,-0.2010381
0.685932,-0.2683232,-0.08328112
0.6158232,-0.2715591,0.01855201
0.5493592,-0.2860954,0.144314
0.5526941,-0.2791802,0.1287906
0.616727,-0.2690233,-0.01440524
0.7210207,-0.2557662,-0.05722838
0.8825813,-0.2597455,-0.06418987
1.031446,-0.2515967,-0.1110551
1.139757,-0.1825891,-0.213152
1.195548,-0.1404667,-0.3683875
1.107636,-0.2383802,-0.336692
1.042955,-0.4669927,-0.2785051
1.041326,-0.5973613,-0.3988822
1.066405,-0.5214753,-0.4742213
1.178203,-0.4235077,-0.563866
1.012786,-0.3892244,-0.564347
0.7659511,-0.3921569,-0.4017128
0.7517698,-0.4129393,-0.3045011
0.6120044,-0.4069471,-0.1557824
0.6648919,-0.3871359,-0.2636262
0.9363896,-0.3776549,-0.6662472
0.9457038,-0.3568117,-0.708248
0.9396179,-0.3464751,-0.5706748
0.862628,-0.3318362,-0.437067
0.6381845,-0.2586728,-0.2600442
0.6091501,-0.1454801,-0.2980376
0.6860719,-0.01176664,-0.3582861
0.7326152,0.04662728,-0.3859669
0.7961875,-0.02670857,-0.4619784
0.8992805,-0.1328635,-0.4654845
0.9757456,-0.2078751,-0.4766472
0.9231002,-0.1134149,-0.4530342
0.8425623,0.11811,-0.3844042
0.745484,0.2140308,-0.2962189
0.6387804,0.1858687,-0.1980772
0.6926503,0.1058845,-0.1894338
0.8497348,0.02068369,-0.1744829
1.000413,0.07153936,-0.2021911
1.049497,0.1108567,-0.2723207
0.9899588,0.02027566,-0.232389
1.025768,-0.04028962,-0.1878033
1.097024,-0.04625243,-0.1280516
1.188052,-0.05368681,-0.0875829
1.353127,-0.06625853,-0.2266512
1.371761,-0.08240566,-0.4128169
1.345085,-0.1146681,-0.5171374
1.370664,-0.186794,-0.581743
1.297647,-0.190286,-0.6145071
1.158904,-0.06591199,-0.5802904
0.957151,-0.006459899,-0.5708785
0.8625584,-0.1678824,-0.6929972
0.9684121,-0.3791836,-0.7748374
0.9964109,-0.3695386,-0.6527349
0.9494129,-0.2634963,-0.5102503
0.9437005,-0.2593231,-0.5281742
0.9181353,-0.2513477,-0.5340907
0.8838069,-0.2274977,-0.4211196
0.849571,-0.2150802,-0.3287388
0.7689186,-0.2209321,-0.2622891
0.6665593,-0.2727644,-0.2312751
0.6151212,-0.2507065,-0.2451692
0.5814623,-0.1824143,-0.2368966
0.5636133,-0.1188997,-0.2650493
0.6125972,-0.04068098,-0.3103125
0.6573275,-0.0355326,-0.329231
0.6857041,-0.08173365,-0.3080193
0.7421324,-0.2145653,-0.2158906
0.8302184,-0.3902275,-0.1384129
0.943688,-0.4461998,-0.06632425
0.9962369,-0.4567127,-0.01489017
0.9501361,-0.3834691,-0.05943739
0.9005911,-0.2211236,-0.08559607
0.9289866,-0.1742742,-0.02512696
1.006911,-0.1998236,0.01065386
1.102492,-0.2085337,-0.09882337
1.238866,-0.2404823,-0.2575032
1.395897,-0.2787107,-0.3050144
1.464776,-0.346484,-0.2941419
1.292659,-0.4617882,-0.3051931
1.061955,-0.5321111,-0.3204889
1.041067,-0.5378542,-0.3187211
1.010826,-0.539261,-0.3787873
0.8882076,-0.5530235,-0.4963235
0.8248295,-0.5670435,-0.5248743
0.8063716,-0.5532684,-0.4801358
0.8606956,-0.5125215,-0.4495128
0.9118138,-0.4036373,-0.4593329
0.9191464,-0.238644,-0.4915394
0.9123591,-0.1495629,-0.5001867
0.8201582,-0.07284297,-0.4713267
0.7415858,0.02108604,-0.40291
0.6874033,-0.01920053,-0.3431611
0.5960481,-0.08887471,-0.2708274
0.5678936,-0.07364013,-0.1941432
0.6260449,-0.07811978,-0.2172064
0.7644197,-0.08697714,-0.2927151
0.9381442,-0.07560587,-0.4214229
1.037946,-0.04362758,-0.5322618
1.017036,0.128874,-0.4544945
0.9619213,0.2999394,-0.3456211
0.9662666,0.2352314,-0.2771534
0.9942614,0.1384626,-0.2096866
1.073966,0.1220146,-0.314535
1.160472,-0.03215937,-0.4388269
1.176526,-0.2141279,-0.3728302
1.173196,-0.2617075,-0.3354864
1.100749,-0.2806372,-0.3918773
1.011518,-0.1966576,-0.5306052
1.004467,-0.0997729,-0.8032693
1.037942,-0.1861543,-0.8910001
1.054335,-0.2697258,-0.7643107
0.9851888,-0.3153613,-0.7623449
0.9231517,-0.3783557,-0.7781807
0.9492308,-0.3632134,-0.7385812
1.005821,-0.3083468,-0.7251695
1.080529,-0.2532885,-0.6442147
1.08597,-0.2409363,-0.5826569
0.9345139,-0.2677166,-0.5195347
0.7586897,-0.2591649,-0.3712242
0.734171,-0.249711,-0.3363902
0.6806838,-0.2127395,-0.3140244
0.4854395,-0.1053811,-0.1639017
0.4634084,-0.03069261,-0.1502134
0.5413562,-0.03374045,-0.2394379
0.4972755,-0.02405629,-0.2295053
0.5210205,-0.01810997,-0.2186682
0.6090248,-0.1235624,-0.1844709
0.7354513,-0.3008521,-0.1137755
0.9522716,-0.462311,-0.1318889
1.066996,-0.5084433,-0.139718
1.100233,-0.3956623,-0.09526651
1.164735,-0.3132439,-0.09403844
1.206006,-0.3220097,-0.1471928
1.235685,-0.2837648,-0.2190883
1.224598,-0.2328384,-0.23847
1.167758,-0.2720618,-0.314133
1.095808,-0.4256003,-0.4974217
1.02343,-0.5843952,-0.5442561
1.00821,-0.5518616,-0.4667529
0.9870166,-0.4167464,-0.4330823
0.9420712,-0.3457875,-0.3855437
0.9035044,-0.2569777,-0.3549173
0.839151,-0.2275968,-0.4057438
0.831736,-0.2861913,-0.4359063
0.8602365,-0.2487232,-0.4401456
0.8454702,-0.1979225,-0.4660857
0.8389516,-0.1548275,-0.467378
0.8109178,-0.09085714,-0.4438185
0.7365248,-0.07060521,-0.4107247
0.6689782,-0.003412772,-0.3779079
0.6208696,0.0002026503,-0.3659413
0.5962224,-0.0631021,-0.3419002
0.6201569,-0.07284877,-0.3310163
0.7034138,-0.1338956,-0.388845
0.8107397,-0.1444735,-0.4617906
0.8972088,-0.1119998,-0.4877944
0.917133,-0.1070637,-0.4408392
0.9150115,0.02089907,-0.2933351
1.007635,0.1699133,-0.1323307
1.11739,0.1903727,-0.1076863
1.170404,0.1371704,-0.1260152
1.292985,0.1001229,-0.0786234
1.440768,0.04536472,-0.1874098
1.441209,-0.02086262,-0.4857883
1.351282,-0.01264705,-0.7262022
1.282934,-0.06707459,-0.8132048
1.214727,-0.1502532,-0.7584846
1.137612,-0.2289687,-0.7587077
1.060906,-0.3960785,-0.8407136
1.027365,-0.3648982,-0.7753678
0.9968528,-0.212488,-0.6399645
0.8620648,-0.1982359,-0.5056041
0.8298235,-0.1714698,-0.4606145
0.9036497,-0.2211107,-0.5270445
0.8432099,-0.2985473,-0.4546661
0.8090256,-0.2430047,-0.3969928
0.7366867,-0.2172801,-0.3577111
0.56356,-0.1571293,-0.189024
0.5735443,-0.06974031,-0.1966993
0.5878707,-0.0759263,-0.2542997
0.4980594,-0.04219053,-0.1824223
0.5087296,-0.02118908,-0.1473178
0.5654499,-0.07876448,-0.07942177
0.6675107,-0.1498487,-0.05426907
0.8407065,-0.2597974,-0.09650564
0.9209253,-0.2969291,-0.05515403
0.9080672,-0.2645641,-0.03337013
1.048516,-0.3538051,-0.05059473
1.332504,-0.4346932,-0.07382659
1.442021,-0.3578467,-0.1642773
1.334804,-0.2996004,-0.2654495
1.225093,-0.3471363,-0.3476297
1.188627,-0.4340256,-0.4269109
1.185468,-0.5111823,-0.5233251
1.158824,-0.4949065,-0.6183741
1.040829,-0.4165781,-0.5768498
0.8943895,-0.3541978,-0.4660381
0.8304309,-0.2617636,-0.4438114
0.8221303,-0.2237948,-0.4491685
0.8665178,-0.2807396,-0.4540644
0.9010417,-0.2747183,-0.4367704
0.8369301,-0.2421954,-0.3793547
0.7605132,-0.1838354,-0.3506753
0.6813233,-0.03594766,-0.3282792
0.5744444,0.03813662,-0.319604
0.5076219,0.02923265,-0.2909715
0.5353254,0.004164293,-0.2158669
0.642411,-0.05482879,-0.2323924
0.758128,-0.06564118,-0.3093262
0.899917,-0.005513178,-0.403525
1.006303,0.1034707,-0.4846356
1.009626,0.2012908,-0.3652753
1.058485,0.2234806,-0.1341423
1.152185,0.2361426,-0.04378965
1.15741,0.2174759,-0.1718113
1.159821,0.1104802,-0.3415354
1.248876,-0.003910316,-0.3202127
1.270694,-0.09357961,-0.3216033
1.183554,-0.1395782,-0.527321
1.148953,-0.1140499,-0.7373764
1.183396,-0.1276729,-0.838245
1.197614,-0.1867002,-0.8036343
1.09223,-0.2120673,-0.7702163
0.9517984,-0.2524712,-0.7924407
0.9467168,-0.2549095,-0.7072622
0.9651323,-0.1887433,-0.6270174
0.9579808,-0.1487758,-0.5977368
0.9726061,-0.1398708,-0.5561711
0.9203123,-0.1755161,-0.5300136
0.7795083,-0.2317856,-0.4167367
0.6170683,-0.2495172,-0.2758466
0.5392598,-0.2430981,-0.1964062
0.5538054,-0.2055554,-0.1934064
0.5741971,-0.1734962,-0.2931956
0.604493,-0.182824,-0.3265851
0.6280931,-0.2052363,-0.2100285
0.6162773,-0.2206515,-0.03388102
0.61936,-0.2001807,0.05655053
0.6673697,-0.1635627,0.02866653
0.7806601,-0.1555335,-0.02128758
0.9405776,-0.1926663,-0.09207401
1.026659,-0.2374808,-0.08942873
1.073807,-0.2273612,-0.0861737
1.193274,-0.2240849,-0.2244804
1.251796,-0.2647915,-0.3302342
1.230019,-0.3183948,-0.4134098
1.225509,-0.4182263,-0.5042587
1.168766,-0.4783285,-0.5336452
1.114345,-0.4201877,-0.5451975
1.012749,-0.3694641,-0.4676684
0.7575042,-0.378444,-0.3629256
0.6589427,-0.3988645,-0.3229887
0.8021205,-0.4168203,-0.3489189
0.9101716,-0.3928387,-0.4828348
0.9758403,-0.3566782,-0.5966901
1.020081,-0.3712866,-0.6261184
0.9592644,-0.3674025,-0.5671693
0.8802731,-0.2935276,-0.4719056
0.8518254,-0.1688964,-0.4671926
0.817088,-0.04400412,-0.449954
0.7962493,-0.03035166,-0.4358711
0.807241,-0.1002576,-0.4572459
0.8098051,-0.1603428,-0.4466033
0.8173158,-0.2219514,-0.4964937
0.817897,-0.2289029,-0.5328849
0.8123124,-0.1667254,-0.5165505
0.8246078,-0.1285235,-0.5292737
0.8257599,-0.1170835,-0.5398078
0.8175518,-0.07646067,-0.539389
1.012918,-0.2860411,-0.0174057
1.334807,-0.3188604,-0.03714139
1.536469,-0.2991416,-0.04859413
1.57532,-0.2497697,-0.04504289
1.573569,-0.186707,-0.04579357
1.706207,-0.1409003,-0.05732259
1.733338,-0.1589181,-0.1197832
1.515463,-0.2793061,-0.2847111
1.379549,-0.5378847,-0.5396059
1.339039,-0.736059,-0.6417273
1.148092,-0.6927837,-0.5593038
0.8112489,-0.5514321,-0.5292736
0.568134,-0.3955863,-0.5015308
0.5541552,-0.2239645,-0.4426752
0.6113882,-0.1457446,-0.4544328
0.6661775,-0.1378412,-0.4516247
0.6765026,-0.1340618,-0.394585
0.6700891,-0.1345385,-0.3189175
0.7030564,-0.1001448,-0.2717355
0.6478244,-0.07077635,-0.3532592
0.6267639,-0.05333843,-0.4323503
0.6549511,-0.03999445,-0.387294
0.6469545,-0.05846169,-0.361998
0.7226874,-0.02886473,-0.366125
0.7701928,0.003779316,-0.3691002
0.8003714,0.006167315,-0.4262776
0.865078,0.04310483,-0.4617349
0.888229,0.04594333,-0.4402785
0.9237845,0.07827676,-0.3966665
0.9351057,0.1770916,-0.2927031
0.9798008,0.2039459,-0.1464017
1.071585,0.1673547,-0.08729275
1.092361,0.1306259,-0.1463101
1.074069,0.09736708,-0.1772182
1.05671,-0.008836152,-0.1572036
1.083025,-0.191528,-0.230783
1.129064,-0.256834,-0.4953102
1.214541,-0.1750203,-0.9102745
1.344026,-0.1466471,-1.125073
1.320347,-0.2582527,-0.9812396
1.194645,-0.3675437,-0.8655277
1.098877,-0.3589507,-0.7795265
1.01721,-0.2782753,-0.5675984
1.011517,-0.1749578,-0.541197
1.007326,-0.1321946,-0.6150189
0.9527549,-0.1975391,-0.5726089
0.8924491,-0.2430613,-0.5162981
0.7421388,-0.2054851,-0.3740858
0.5709404,-0.1820351,-0.2381195
0.457148,-0.1731746,-0.1944236
0.3570035,-0.1202812,-0.1365307
0.3469213,-0.1018628,-0.131726
0.3755647,-0.1225966,-0.1251337
0.3868758,-0.1129194,-0.07514425
0.4550119,-0.125952,-0.0469303
0.5451694,-0.1715053,-0.03168992
0.7151217,-0.2276272,-0.04466881
0.9692669,-0.2687942,-0.03620889
1.137885,-0.2355485,-0.0437957
1.237373,-0.2077042,-0.08604341
1.392279,-0.2367777,-0.1117048
1.575085,-0.2505142,-0.2113154
1.617149,-0.2787348,-0.3259972
1.525397,-0.3897793,-0.3851819
1.459394,-0.549205,-0.4374303
1.335816,-0.6124711,-0.441655
1.036806,-0.5223095,-0.431836
0.719991,-0.4508087,-0.4359043
0.6027151,-0.4205459,-0.4211073
0.6407321,-0.3221593,-0.4465408
0.6845783,-0.2680865,-0.5131991
0.7281591,-0.2833891,-0.5391288
0.7127931,-0.2714968,-0.5159957
0.6704354,-0.2581948,-0.4765407
0.7248011,-0.224037,-0.4411667
0.7859391,-0.1621207,-0.4414563
0.8114372,-0.1183445,-0.473082
0.7839473,-0.09388625,-0.4886034
0.7200074,-0.09294508,-0.4634226
0.7791873,-0.09058674,-0.413756
0.870291,-0.07097337,-0.3591416
0.9068852,-0.04570369,-0.3247619
0.9388286,-0.00930294,-0.3482459
0.91787,0.07068698,-0.3720984
0.9304164,0.174926,-0.3236126
0.9675883,0.1763807,-0.2359368
0.9605401,0.1207328,-0.1568262
0.9942158,0.1242609,-0.1658556
1.03119,0.0905774,-0.2484806
1.100867,-0.01308489,-0.2758421
1.219478,-0.1337588,-0.2996043
1.249029,-0.1967075,-0.4413566
1.196604,-0.1354905,-0.7039232
1.149161,-0.1213943,-0.892212
1.17618,-0.2439167,-0.8089366
1.19115,-0.3852866,-0.6862205
1.101515,-0.492882,-0.6712931
1.034836,-0.5071357,-0.6209632
1.014854,-0.4279546,-0.5801613
0.9893889,-0.3133461,-0.5133893
0.9385281,-0.2092921,-0.4352695
0.8927412,-0.1913563,-0.44574
0.918127,-0.215024,-0.4200113
0.8829263,-0.224811,-0.3920494
0.7379896,-0.2541548,-0.3602607
0.5949035,-0.2661376,-0.2564437
0.5135091,-0.1886049,-0.2274664
0.5022166,-0.06112041,-0.2504467
0.4819028,-0.02465386,-0.248535
0.514337,-0.07409996,-0.2304106
0.5870502,-0.1100197,-0.1921641
0.5558367,-0.1804738,-0.1508709
0.562323,-0.2831682,-0.09693601
0.6293571,-0.2977368,-0.07749085
0.648279,-0.2398211,-0.05427286
0.6782571,-0.2015607,-0.007651169
0.7503345,-0.1626893,-0.01841656
0.9566113,-0.129478,-0.01141856
1.200237,-0.1313113,0.01478162
1.25569,-0.07694272,-0.003416129
1.310391,0.01560209,-0.04661333
1.481921,0.024525,-0.1256573
1.542844,-0.05365316,-0.1922575
1.440002,-0.2097592,-0.2445059
1.352017,-0.3714564,-0.3434836
1.375144,-0.3789514,-0.4264413
1.267968,-0.3458156,-0.4414079
0.8365063,-0.4941675,-0.3688213
0.5308246,-0.6969882,-0.1897647
0.7342424,-0.78363,-0.1309193
0.9654595,-0.7507698,-0.3909962
0.8692798,-0.6560273,-0.6968649
0.8292323,-0.5743147,-0.7224587
0.8676847,-0.4266323,-0.5776266
0.8014543,-0.2723841,-0.5371482
0.844332,-0.2324036,-0.5807039
0.8542908,-0.2101488,-0.5610794
0.7542862,-0.2211142,-0.472844
0.7324697,-0.2514319,-0.369486
0.6964493,-0.2697596,-0.3678683
0.7007531,-0.2767062,-0.4248222
0.7003664,-0.1935266,-0.4246493
0.673999,-0.1133137,-0.4480458
0.7384876,-0.07112018,-0.460383
0.7467745,-0.06549306,-0.4435886
0.7969359,-0.1038947,-0.468422
0.8893044,-0.09223496,-0.4842525
0.8982902,-0.08329016,-0.5307348
0.9043013,-0.03681401,-0.5577541
0.8203196,0.06213098,-0.4287298
0.7547893,0.08486401,-0.2769539
0.7841432,0.04986622,-0.2436853
0.8170479,-0.01207282,-0.2499642
0.8907389,-0.02361706,-0.2281555
0.9257672,0.02662642,-0.217357
0.980181,0.05116361,-0.2111494
1.095937,0.03379519,-0.2305468
1.15823,-0.03136111,-0.2697612
1.18063,-0.06490374,-0.1929069
1.178584,-0.05996278,-0.1126088
1.20896,-0.08719625,-0.169828
1.304545,-0.1689892,-0.2763055
1.433396,-0.2824115,-0.4865842
1.484884,-0.2767839,-0.6728467
1.302501,-0.1499663,-0.6035865
1.018569,-0.08393408,-0.5904537
0.901878,-0.2167267,-0.8380965
1.030533,-0.4299216,-0.9731246
1.154739,-0.4357864,-0.8226631
1.078839,-0.3360244,-0.6376777
0.990436,-0.2814521,-0.5901722
0.8856182,-0.2156819,-0.5797337
0.7476165,-0.2174301,-0.5137914
0.7433131,-0.2356626,-0.4576332
0.7083302,-0.2228429,-0.3768886
0.5958814,-0.243065,-0.28089
0.5458457,-0.2339204,-0.2561259
0.5077523,-0.204513,-0.2291039
0.4961274,-0.1568159,-0.2114447
0.508291,-0.0901868,-0.2320225
0.5557665,-0.08115586,-0.2478764
0.6739609,-0.08686457,-0.2593767
0.7559712,-0.1238662,-0.2527503
0.8224983,-0.2647796,-0.248706
0.9325865,-0.4117105,-0.2309555
1.008243,-0.458741,-0.2269771
1.003741,-0.4253548,-0.2440688
0.9624375,-0.3711034,-0.2066838
0.9568224,-0.3169662,-0.1580683
1.016908,-0.2837862,-0.1122601
1.133127,-0.2805534,-0.1127365
1.221996,-0.2709768,-0.1639667
1.236326,-0.2809901,-0.2040926
1.227756,-0.3428064,-0.3116636
1.219387,-0.4732979,-0.3892267
1.238469,-0.6675977,-0.4213094
1.232529,-0.7361165,-0.5522917
1.105031,-0.6334018,-0.6102612
0.875638,-0.5402488,-0.5291488
0.6729029,-0.4286409,-0.4680077
0.655592,-0.2839331,-0.4720661
0.7562699,-0.2148556,-0.4897267
0.826231,-0.2029052,-0.4731967
0.8649562,-0.246065,-0.4712115
0.8668571,-0.3177993,-0.4590465
0.8488968,-0.3202903,-0.4266107
0.8228053,-0.2662529,-0.4469271
0.7875124,-0.1936086,-0.4497953
0.7435886,-0.1157064,-0.4208119
0.6793102,-0.08288164,-0.404194
0.687966,-0.1216588,-0.3838299
0.7596173,-0.1844928,-0.3663653
0.8067147,-0.1990023,-0.3367689
0.8487847,-0.1395385,-0.3229705
0.8603553,0.04299705,-0.3192934
0.8713814,0.2545017,-0.2630367
0.9318241,0.228804,-0.1735036
0.9816291,0.123524,-0.1198983
1.012317,0.1284413,-0.1769846
1.078442,-0.03260547,-0.2528697
1.174775,-0.2440731,-0.2422151
1.22712,-0.287399,-0.2887532
1.270919,-0.3283622,-0.4726324
1.312297,-0.2422917,-0.7381255
1.25163,-0.1180881,-0.9426094
1.190376,-0.2699943,-0.9046261
1.150418,-0.4234726,-0.7545846
1.048804,-0.3995512,-0.6406424
0.960011,-0.3600773,-0.5342998
0.8868477,-0.3003175,-0.4994917
0.877296,-0.2334031,-0.4782641
0.9356639,-0.2299963,-0.4464596
0.9445886,-0.2568329,-0.4662819
0.9416531,-0.2639564,-0.4349
0.9032013,-0.2586014,-0.3870456
0.7489385,-0.2289397,-0.3071246
0.5474053,-0.1611278,-0.1548619
0.4935468,-0.1180048,-0.1524346
0.5831976,-0.1139253,-0.2330776
0.5751192,-0.09824353,-0.2236057
0.5720211,-0.09614781,-0.2153601
0.6011658,-0.1426134,-0.1892028
0.5036798,-0.1843197,-0.1361373
0.4896634,-0.2054288,-0.1318309
0.6268681,-0.2648587,-0.1338862
0.8352182,-0.3501143,-0.119636
0.9845004,-0.3738538,-0.1204064
0.9573008,-0.3369822,-0.1145312
1.055524,-0.3333938,-0.07377515
1.255275,-0.3034294,-0.05480486
1.341029,-0.1703826,-0.1336337
1.440202,-0.09052388,-0.2481572
1.41951,-0.1498917,-0.2941645
1.231435,-0.2849473,-0.3153669
1.071561,-0.4779558,-0.3583246
1.006401,-0.6526115,-0.3990252
1.107271,-0.6467095,-0.5027775
1.160902,-0.5059676,-0.6406196
0.9708877,-0.4335109,-0.6286427
0.7703833,-0.4238046,-0.4783145
0.7069277,-0.4296094,-0.3628816
0.7580626,-0.4275892,-0.379348
0.8269569,-0.395019,-0.4909154
0.8654992,-0.4097934,-0.566621
0.9128485,-0.385896,-0.5621155
0.8622579,-0.2844421,-0.5224196
0.7885769,-0.1569658,-0.4757172
0.7626461,0.01121986,-0.4396945
0.6661522,0.04869508,-0.425162
0.6476738,-0.06246435,-0.4409322
0.7649303,-0.1535756,-0.4526888
0.8694732,-0.1638115,-0.4592236
0.885985,-0.09558807,-0.4965028
0.83734,-0.04099781,-0.5176377
0.8008754,-0.0006811745,-0.4981169
0.7033769,0.0334123,-0.4451454
0.6346403,0.02196922,-0.3668261
0.6573867,0.03407152,-0.2565806
0.6215739,0.09734003,-0.08514076
0.7209237,0.1638434,-0.01292518
1.005416,0.1396277,-0.1383673
1.186171,0.04065905,-0.2061525
1.197958,-0.00170921,-0.1027482
1.25573,0.03262996,-0.0447084
1.463549,0.05430798,-0.1160609
1.512193,-0.09295369,-0.2451865
1.465726,-0.3235713,-0.4310684
1.534534,-0.3782233,-0.5511349
1.415056,-0.2951088,-0.5076266
1.124268,-0.1899785,-0.4931428
0.8396658,-0.1336798,-0.5808919
0.7864438,-0.2424562,-0.7194512
1.022061,-0.375731,-0.853348
1.034509,-0.3163752,-0.738618
0.9639525,-0.2423165,-0.5408956
0.9845716,-0.27519,-0.5730211
0.8594324,-0.2446178,-0.5313786
0.8313388,-0.2327746,-0.3947326
0.8047331,-0.2704375,-0.3804175
0.6983754,-0.2674003,-0.3236139
0.6658248,-0.3129852,-0.2838073
0.6082673,-0.289348,-0.2912716
0.6144566,-0.1726426,-0.2776233
0.6010635,-0.07426303,-0.3347521
0.5820645,-0.000268113,-0.3403879
0.662409,-0.0582524,-0.2996928
0.6811257,-0.1393792,-0.2635962
0.7122158,-0.2049247,-0.1623178
0.7769121,-0.3315995,-0.1057832
0.8847111,-0.3820099,-0.1000189
0.9810761,-0.4233282,-0.1578624
0.9041523,-0.4047658,-0.2581054
0.8490541,-0.2204222,-0.226093
0.8528379,-0.06601159,-0.09972504
0.8768087,0.022726,0.02496486
1.056742,0.03503581,0.0444624
1.306193,-0.02198614,-0.05535526
1.440772,-0.0737788,-0.1141243
1.426932,-0.1649394,-0.1667199
1.476206,-0.2925926,-0.2804905
1.610628,-0.4809722,-0.3960693
1.618362,-0.5684726,-0.4210239
1.486494,-0.4947466,-0.3548303
1.185878,-0.5453896,-0.348063
0.8843241,-0.5609898,-0.3353734
0.8444963,-0.4360462,-0.324074
0.8160818,-0.3757919,-0.4581624
0.7534649,-0.314256,-0.5407911
0.8998743,-0.3105943,-0.5389177
0.9574744,-0.3048378,-0.5694572
0.8381794,-0.2058962,-0.5558654
0.8031175,-0.2086523,-0.4943459
0.747767,-0.1840647,-0.411351
0.7112179,-0.105592,-0.384413
0.7205155,-0.1073512,-0.4026007
0.6843396,-0.07634728,-0.3936316
0.7077749,-0.05161722,-0.4033827
0.7114794,-0.04052318,-0.3768582
0.7317143,-0.03438337,-0.3458574
0.8112212,-0.08890079,-0.3746484
0.8573057,-0.0807469,-0.3808212
0.9367941,0.03002854,-0.3450758
0.9583806,0.1480982,-0.280327
0.9650584,0.1406332,-0.2270539
1.040646,0.09063582,-0.2125538
1.086742,0.1392744,-0.2202151
1.15292,0.08961187,-0.2351548
1.20163,-0.05182178,-0.2450842
1.219593,-0.1630419,-0.2870649
1.231117,-0.222408,-0.4075747
1.191533,-0.1365318,-0.6464286
1.16019,-0.1254418,-0.8518062
1.140546,-0.2697904,-0.8441656
1.133459,-0.3684419,-0.8025022
1.101876,-0.3915002,-0.7823782
1.006754,-0.3240846,-0.6374622
0.9461977,-0.2640284,-0.5103067
0.9216261,-0.2021619,-0.4984319
0.8896723,-0.1334783,-0.4860951
0.8624057,-0.2049641,-0.4678734
0.816475,-0.2555499,-0.436194
0.7025074,-0.2650867,-0.3275685
0.5766712,-0.2888866,-0.2158022
0.5205226,-0.2233954,-0.1882466
0.4736455,-0.1614768,-0.2080353
0.4665542,-0.0941365,-0.2291836
0.5204275,-0.05761275,-0.2348702
0.5532838,-0.1072904,-0.2112787
0.5856297,-0.1370776,-0.1657064
0.634166,-0.2380353,-0.1056131
0.7915473,-0.3766356,-0.0224347
1.025959,-0.4066904,0.02511752
1.13011,-0.3760864,-0.03995001
1.223578,-0.334851,-0.1142628
1.373836,-0.3029937,-0.1372355
1.385381,-0.268371,-0.2082115
1.308746,-0.2811276,-0.275859
1.288653,-0.4023239,-0.3396215
1.31596,-0.563234,-0.4808187
1.308542,-0.6250469,-0.5716865
1.140186,-0.5024915,-0.563427
0.8527485,-0.3814669,-0.490612
0.6864914,-0.3672348,-0.3932502
0.6970963,-0.3289633,-0.4187667
0.7384736,-0.3095968,-0.4663697
0.7541058,-0.3248374,-0.4405845
0.7526543,-0.3102539,-0.4696261
0.7419969,-0.2819615,-0.454267
0.7470637,-0.2277662,-0.39899
0.7575712,-0.1522002,-0.4307997
0.7596531,-0.01798538,-0.4368023
0.7418088,0.109828,-0.4283888
0.7003365,0.06780105,-0.4136301
0.6992346,-0.0370407,-0.3503242
0.7696645,-0.09815213,-0.3490406
0.8724879,-0.1330269,-0.3581204
0.9483727,-0.04466188,-0.3280772
0.9619668,0.1059085,-0.2986522
0.9780133,0.1746387,-0.2320222
1.024794,0.1768087,-0.1985873
1.101271,0.1250093,-0.243211
1.223703,0.0953314,-0.2758283
1.26554,0.1054058,-0.2593108
1.240851,0.03391269,-0.2526797
1.280895,-0.09685517,-0.2886509
1.233811,-0.1626368,-0.3812188
1.07785,-0.1041949,-0.6091932
1.03868,-0.07961272,-0.8428498
1.125459,-0.2241385,-0.8669756
1.192228,-0.3612368,-0.81065
1.124043,-0.371114,-0.802433
0.989401,-0.2964803,-0.7267124
0.9065641,-0.2245697,-0.5766165
0.8502108,-0.2183855,-0.4959422
0.8641445,-0.2464447,-0.5020735
0.8704092,-0.2983691,-0.499862
0.771904,-0.3145009,-0.4535328
0.6750221,-0.2767147,-0.3614869
0.564432,-0.2391064,-0.2607761
0.497521,-0.1899643,-0.2139584
0.4958961,-0.1650317,-0.2261898
0.4624815,-0.15229,-0.2625458
0.5166603,-0.1218147,-0.2720163
0.6103323,-0.1267687,-0.2520027
0.6361188,-0.1757264,-0.2374494
0.6810368,-0.2560408,-0.2370383
0.7915288,-0.3458056,-0.2323277
0.9636175,-0.4087239,-0.1997633
1.059574,-0.3668256,-0.1525514
1.074003,-0.2115546,-0.06448592
1.114018,-0.1166376,0.001421182
1.148489,-0.1688932,-0.09968618
1.212101,-0.25702,-0.2175341
1.206225,-0.2815286,-0.2127371
1.098318,-0.334505,-0.2286925
1.054098,-0.4687642,-0.3052245
1.02497,-0.5263935,-0.4051845
1.007412,-0.4951865,-0.4971084
0.9934175,-0.4594029,-0.4965837
0.949194,-0.3774219,-0.4811375
0.9676651,-0.2492594,-0.539412
0.950737,-0.2039918,-0.5606909
0.9073193,-0.2696175,-0.5112299
0.9017252,-0.2742386,-0.4640906
0.8778383,-0.2400357,-0.4465118
0.9079845,-0.2400987,-0.4607656
0.9039499,-0.1900268,-0.4616976
0.8231666,-0.1398057,-0.450948
0.7497155,-0.08483218,-0.4397062
0.6927773,-0.03063627,-0.3912928
0.7176174,-0.03633644,-0.3640405
0.719562,-0.02509244,-0.3665288
0.6971927,-0.03733391,-0.3389671
0.7429264,-0.05748519,-0.3103054
0.7616006,0.009935529,-0.300492
0.8156518,0.09173877,-0.2797077
0.8980638,0.1205788,-0.227723
0.9646923,0.08691426,-0.1936476
1.103968,0.05747668,-0.2188322
1.229884,0.05082895,-0.271037
1.285038,-0.01186731,-0.3224707
1.312093,-0.1082627,-0.34509
1.330851,-0.2041869,-0.4054135
1.328395,-0.2366181,-0.5598823
1.276765,-0.188064,-0.6456998
1.191472,-0.1921625,-0.6169799
1.033102,-0.2248472,-0.6341756
0.8943072,-0.2162364,-0.7204778
0.9125788,-0.2048812,-0.7782077
0.9727332,-0.1871975,-0.7227546
0.9837092,-0.2269204,-0.6305938
0.9482327,-0.3031785,-0.6160029
0.8894566,-0.307608,-0.5489536
0.8650114,-0.2987503,-0.4719487
0.821923,-0.2829396,-0.5082334
0.731648,-0.2450172,-0.4724485
0.6892556,-0.2493821,-0.408384
0.6650158,-0.2536952,-0.375845
0.594486,-0.2284889,-0.2713984
0.5926218,-0.208176,-0.2790575
0.6195713,-0.1838441,-0.3292403
0.5680974,-0.1325054,-0.2625055
0.5852153,-0.09509327,-0.2530442
0.6453377,-0.1333857,-0.2149807
0.6478169,-0.1849691,-0.09047014
0.6593301,-0.1943028,-0.05909014
0.6659291,-0.1972498,-0.1070077
0.7796421,-0.2212357,-0.1945434
1.02437,-0.3033288,-0.260184
1.125578,-0.3716972,-0.2023049
1.026425,-0.34203,-0.1067982
0.9798293,-0.3238839,-0.03624095
1.159606,-0.34203,0.05181457
1.342958,-0.3195655,0.03659783
1.32916,-0.3051125,-0.05890972
1.266601,-0.3104622,-0.0190231
1.234123,-0.3301796,-0.02876297
1.262548,-0.4403323,-0.2014683
1.377538,-0.5857309,-0.374562
1.419469,-0.6109897,-0.5072324
1.147987,-0.5013502,-0.4165025
0.6966955,-0.3699148,-0.2589622
0.567847,-0.2914952,-0.2757383
0.6662925,-0.2642465,-0.3020013
0.6885964,-0.2629376,-0.4486173
0.8157999,-0.2554803,-0.6131043
0.9372933,-0.2348914,-0.5991245
0.9160916,-0.2010693,-0.5569334
0.914394,-0.1808799,-0.459867
0.8999009,-0.2032237,-0.4083337
0.8856081,-0.2017867,-0.4209427
0.8984343,-0.1694653,-0.4117397
0.5251034,-0.2836606,-0.272708
0.4622087,-0.2496302,-0.188025
0.4895714,-0.1866693,-0.2151038
0.5329611,-0.1204914,-0.2696779
0.6593502,-0.1488626,-0.2809409
0.8269058,-0.249361,-0.2105454
0.9270529,-0.3159177,-0.1205232
1.022329,-0.3015926,-0.09508464
1.210819,-0.222311,-0.0577682
1.312117,-0.1640268,0.04472666
1.330472,-0.1898203,0.08520281
1.479365,-0.2437704,0.04234971
1.530209,-0.3004081,0.02238103
1.399541,-0.3578566,-0.04678371
1.258245,-0.3844246,-0.1473855
1.067496,-0.4709678,-0.2360224
0.9538572,-0.5683397,-0.3920706
0.8747122,-0.5076518,-0.4678737
0.7424603,-0.4288204,-0.4318397
0.7922579,-0.4045536,-0.4321787
0.8223242,-0.3183186,-0.4512025
0.7361243,-0.2537843,-0.4621162
0.764911,-0.2271803,-0.4520046
0.720348,-0.1896569,-0.4230356
0.6575586,-0.191108,-0.3959658
0.7093121,-0.1788796,-0.3999588
0.7305683,-0.1568907,-0.4348637
0.7739509,-0.1344135,-0.4365628
0.76945,-0.1029244,-0.4375413
0.7256532,-0.1333106,-0.4403554
0.7561256,-0.1454924,-0.4146438
0.7922077,-0.1258243,-0.3586583
0.8671456,-0.07370568,-0.2319669
0.9108367,0.07489212,-0.12725
0.9500201,0.1739918,-0.0855761
1.105123,0.2241509,-0.06391136
1.202976,0.2582614,-0.1095382
1.242977,0.1913473,-0.170807
1.29436,0.1224407,-0.1904528
1.249775,0.03591077,-0.1753799
1.152869,-0.1398591,-0.1946811
1.061977,-0.3032038,-0.4196611
1.014612,-0.3607841,-0.7521864
1.129889,-0.3203677,-0.8542473
1.236866,-0.3225314,-0.7667935
1.068135,-0.3919697,-0.8155431
0.9171751,-0.415758,-0.8811086
1.027508,-0.3707748,-0.6992997
1.065799,-0.2373656,-0.4687553
0.9630771,-0.06650934,-0.3506177
0.8985594,-0.03035677,-0.3121546
0.8065949,-0.1930679,-0.3310913
0.7093613,-0.3504087,-0.2776732
0.649043,-0.30111,-0.1728596
0.5898428,-0.1965491,-0.1511735
0.5658288,-0.1522957,-0.1856471
0.5154932,-0.1190047,-0.1820589
0.4542623,-0.1670387,-0.08007887
0.4908341,-0.2192787,0.06616362
0.586361,-0.2087838,0.1165535
0.7594284,-0.2334465,0.009597562
1.002522,-0.2331925,-0.106394
1.195664,-0.1908938,-0.09686509
1.329166,-0.1622462,-0.03913068
1.40013,-0.1647559,-0.00372094
1.447906,-0.2206724,-0.04971426
1.523809,-0.268778,-0.1675617
1.51625,-0.3377938,-0.260974
1.398417,-0.4930897,-0.3732293
1.251384,-0.6585592,-0.4871218
1.123868,-0.6885549,-0.500425
1.040519,-0.5982526,-0.4504791
0.8834075,-0.5501191,-0.3770231
0.6701017,-0.4455145,-0.2976482
0.6701115,-0.3013023,-0.3149662
0.7793122,-0.2252323,-0.4080577
0.7673468,-0.07950414,-0.4562412
0.8116079,-0.05420186,-0.5212593
0.8580044,-0.1501243,-0.5450531
0.7741062,-0.1399166,-0.4515065
0.7624044,-0.1741251,-0.4131488
0.764221,-0.1892456,-0.3867609
0.7432142,-0.1759172,-0.3578146
0.7888583,-0.2205888,-0.3998663
0.8174276,-0.2166061,-0.3939571
0.9194594,-0.226273,-0.3730552
1.026254,-0.1366381,-0.3344468
0.9968804,0.09139266,-0.2640938
0.9573728,0.2369208,-0.2057532
0.9214307,0.283045,-0.07671479
0.9199151,0.2718953,0.01527507
0.9919483,0.2330275,-0.008256455
1.04876,0.1322096,-0.0804732
1.052295,-0.01221123,-0.174989
1.07304,-0.1626067,-0.2570868
1.174956,-0.3184374,-0.4581365
1.254155,-0.2612708,-0.7526335
1.273754,-0.1274791,-0.8299017
1.187022,-0.1819997,-0.6988275
1.000457,-0.2606018,-0.6399623
0.9668941,-0.3828133,-0.685587
0.9529405,-0.4767525,-0.6736478
0.8352859,-0.4035913,-0.5844732
0.8508232,-0.3830855,-0.4911114
0.9090917,-0.365976,-0.4444224
0.948471,-0.3106946,-0.451331
0.973544,-0.3237048,-0.4173373
0.8748002,-0.28528,-0.3463605
0.8026142,-0.2753009,-0.3112481
0.7692615,-0.2790757,-0.2339808
0.7050748,-0.1495129,-0.1631413
0.7210872,-0.0413452,-0.2500727
0.7755927,-0.02393743,-0.355258
0.772618,-0.06149691,-0.3056078
0.6792278,-0.1128245,-0.1933383
0.5562473,-0.1721542,-0.06776802
0.5514914,-0.2902949,0.08283963
0.6621701,-0.3279036,0.1131257
0.7516982,-0.2351011,0.04556305
0.7893325,-0.1307525,0.02767506
0.8991419,-0.09580512,0.02514737
1.131967,-0.1159402,0.02701127
1.341895,-0.08140654,0.0104831
1.416978,-0.05793541,-0.03172505
1.488419,-0.1216069,-0.05976016
1.593607,-0.245726,-0.1273621
1.555246,-0.443947,-0.1815343
1.403669,-0.6254669,-0.2113964
1.290127,-0.6997024,-0.2805603
1.279574,-0.6358287,-0.335217
1.245632,-0.5179744,-0.4039417
1.013052,-0.5077083,-0.4642251
0.7898045,-0.5932073,-0.4241505
0.7186937,-0.6582589,-0.3751026
0.6774261,-0.526118,-0.3759382
0.6769336,-0.2658454,-0.4127104
0.7370724,-0.1551674,-0.5027067
0.8320941,-0.1357025,-0.5254502
0.8443408,-0.1197538,-0.4646671
0.71756,-0.1071729,-0.4325366
0.5826901,-0.06951593,-0.3638482
0.5150805,-0.09573031,-0.3137726
0.5823157,-0.1316679,-0.3441221
0.6997104,-0.1506019,-0.3469541
0.7851248,-0.1755448,-0.3781495
0.9030184,-0.1143446,-0.4656835
0.9457973,-0.06725774,-0.5339316
0.965413,-0.06089823,-0.5438335
1.007169,-0.006122892,-0.4874039
0.9417987,0.03245535,-0.4116009
0.8881379,0.03014311,-0.2962139
0.8596101,0.0149988,-0.186115
0.8456364,0.01418165,-0.1750512
0.9337604,0.02529185,-0.14789
0.9804904,0.1033688,-0.01227353
0.9768699,0.2574495,0.07657689
1.069974,0.2655522,-0.01718641
1.264628,0.1188339,-0.1938068
1.380181,-0.005777565,-0.3007966
1.330797,-0.167745,-0.3000152
1.360187,-0.441322,-0.3413153
1.416159,-0.542963,-0.4776885
1.292955,-0.2379798,-0.4588765
1.119058,-0.008658815,-0.4407861
0.9462148,-0.1571469,-0.7084553
0.9211523,-0.293742,-0.9114022
1.08266,-0.3719381,-0.8681952
1.110841,-0.4292059,-0.7988497
1.054309,-0.3296097,-0.7439205
0.9794358,-0.2744924,-0.6217504
0.7871087,-0.296231,-0.4768252
0.6446397,-0.2703996,-0.4033954
0.5402824,-0.2759885,-0.2928366
0.4740808,-0.2678398,-0.2105168
0.5026463,-0.207703,-0.2440372
0.5228628,-0.1502933,-0.2446826
0.638165,-0.09323675,-0.2886308
0.7201395,-0.08447233,-0.262588
0.6837077,-0.1175133,-0.1091942
0.7906714,-0.1779866,-0.06321777
0.9419529,-0.3252302,-0.06549762
1.067434,-0.4603851,-0.153221
1.140228,-0.4393782,-0.2339758
1.078796,-0.3447728,-0.1373138
1.097764,-0.3286334,-0.103116
1.147997,-0.3778065,-0.1803412
1.141826,-0.4180302,-0.254327
1.154549,-0.412913,-0.2967561
1.065312,-0.412867,-0.3488272
0.8753778,-0.52065,-0.4060913
0.7345919,-0.6597242,-0.4156209
0.8274209,-0.7000724,-0.5114415
0.9633488,-0.5774106,-0.6200278
0.8194022,-0.3700697,-0.653476
0.7384473,-0.274353,-0.6499274
0.8107491,-0.2092233,-0.570011
0.8099959,-0.164262,-0.5652639
0.868728,-0.2277871,-0.5538578
0.8850513,-0.2041223,-0.485102
0.8481803,-0.1007538,-0.5169982
0.8623365,-0.0365849,-0.5222171
0.8044226,-0.05158588,-0.5346849
0.8007093,-0.1619958,-0.5118839
0.8408569,-0.2140005,-0.3689287
0.8114288,-0.2248322,-0.263552
0.789665,-0.1991425,-0.1544867
0.7151962,-0.03395326,-0.1401963
0.6673825,0.1890452,-0.184075
0.7248485,0.31608,-0.1213876
0.7973802,0.1850035,-0.165854
0.9201529,-0.007015916,-0.2441462
1.060269,-0.08153981,-0.2402988
1.179635,-0.1923737,-0.2567594
1.287027,-0.2535004,-0.3247862
1.311487,-0.2883949,-0.6493894
1.311798,-0.3145865,-1.024452
1.328108,-0.2705368,-0.9751448
1.230041,-0.3359524,-0.7759176
1.050533,-0.3702175,-0.7661638
0.9705935,-0.3386894,-0.7556642
0.9788714,-0.3779964,-0.7457107
0.9732581,-0.3664431,-0.7682288
0.9524641,-0.3715264,-0.6377708
0.9197759,-0.3682866,-0.4764411
0.8744088,-0.3041735,-0.3981119
0.7719759,-0.2803047,-0.3588412
0.5967188,-0.2557131,-0.3471922
0.5087959,-0.2278013,-0.2838795
0.5369659,-0.1676057,-0.2831268
0.5775995,-0.1244158,-0.3671344
0.6235726,-0.1346022,-0.3921842
0.5982228,-0.109686,-0.3209409
0.5345403,-0.1454656,-0.09500987
0.558887,-0.2022304,0.1366587
0.6174145,-0.1908462,0.2082475
0.7306626,-0.1537426,0.1532306
0.9106794,-0.09840634,0.06033591
1.077805,-0.144535,-0.00759256
1.23498,-0.2666781,-0.08603
1.315148,-0.3485974,-0.1236886
1.338789,-0.375851,-0.2012366
1.348314,-0.3530825,-0.315252
1.218236,-0.4188542,-0.3103773
1.072875,-0.5234803,-0.3764639
1.068628,-0.5757005,-0.4638859
0.9952682,-0.6633086,-0.4747123
0.804297,-0.6384212,-0.5026671
0.6824164,-0.5246647,-0.4102058
0.6138772,-0.5075291,-0.3702333
0.6643517,-0.4318257,-0.4694185
0.8247986,-0.3269724,-0.5358351
0.8477392,-0.3185896,-0.672351
0.8947846,-0.2789725,-0.7834355
0.9477198,-0.2802576,-0.6809529
0.8125937,-0.3428274,-0.4549419
0.7580472,-0.2919104,-0.3298493
0.6732449,-0.1825676,-0.3272587
0.56524,-0.04453385,-0.3482592
0.6487217,0.07397755,-0.4558629
0.6660276,0.02869552,-0.5281046
0.7576469,-0.07387123,-0.5644386
0.9338088,-0.2012667,-0.6470117
0.9486227,-0.2985616,-0.6336762
0.9431489,-0.160369,-0.5972787
0.843522,0.05121742,-0.5286677
0.6959483,0.1783605,-0.4123042
0.6597688,0.2183817,-0.3186486
0.6899991,0.1543877,-0.1941497
0.7712268,0.1451348,-0.1497061
0.8292118,0.119204,-0.1353987
0.9053186,0.03123788,-0.09717678
1.011756,0.06401344,-0.1539086
1.192549,0.08564918,-0.2287879
1.396962,0.04834263,-0.2792846
1.357771,-0.007540881,-0.3232486
1.355876,-0.173365,-0.4245216
1.561005,-0.2675538,-0.542161
1.587486,-0.185926,-0.4889213
1.32388,-0.04642077,-0.4494124
0.9967557,0.01963967,-0.6044613
0.9656259,-0.2351869,-0.7746295
1.09238,-0.6245345,-0.8306673
1.033925,-0.6455919,-0.7189833
1.032364,-0.5205929,-0.5897983
1.065556,-0.5262709,-0.621801
0.9616379,-0.4030623,-0.5569516
0.8596545,-0.3093528,-0.356972
0.69189,-0.3325713,-0.3049235
0.5233161,-0.2467231,-0.3137486
0.4447933,-0.2545373,-0.2946726
0.3722339,-0.2983788,-0.2740311
0.3562151,-0.2486757,-0.2212544
0.3680352,-0.2644642,-0.2431089
0.4802343,-0.2131283,-0.3393877
0.6786485,-0.1442772,-0.4184989
0.7419356,-0.1723551,-0.4270511
0.7917062,-0.1977125,-0.3450056
0.862418,-0.2711019,-0.2884359
0.8464985,-0.3768981,-0.2440769
0.9199985,-0.4707785,-0.1368165
1.037517,-0.4901793,-0.0724592
0.9880762,-0.3961827,-0.09215572
0.9092145,-0.2869245,-0.08167285
0.9166885,-0.1806462,-0.004131652
0.9439852,-0.1779277,0.01405681
1.041612,-0.2379324,-0.01264538
1.173128,-0.2256424,0.01534971
1.285096,-0.2873763,0.01841597
1.370423,-0.3515157,-0.04339756
1.305134,-0.3700505,-0.2004443
1.256635,-0.4845058,-0.4077702
1.356271,-0.5682428,-0.4679398
1.358136,-0.6311707,-0.4412654
1.149785,-0.6766081,-0.4239878
0.7600721,-0.574007,-0.3415689
0.5157439,-0.4717596,-0.3013595
0.7232182,-0.4315064,-0.4342707
1.00495,-0.3985464,-0.674628
1.077146,-0.3776904,-0.8271762
1.019855,-0.3189001,-0.7203378
0.8439573,-0.2203823,-0.5160253
0.7243083,-0.1033421,-0.4082938
0.7232466,-0.02995786,-0.3293282
0.7285821,-0.03010988,-0.3428988
0.7902025,-0.07102356,-0.4130665
0.8383921,-0.1347802,-0.3881089
0.8016111,-0.1399974,-0.3607695
0.7778969,-0.1423346,-0.3046878
0.8087351,-0.1804196,-0.2652472
0.852734,-0.08898387,-0.293863
0.8535021,0.1169953,-0.2048272
0.8642372,0.2568168,-0.1352529
0.9049313,0.2006919,-0.1765563
0.9619636,0.07875365,-0.2028435
1.052359,0.06243459,-0.2410856
1.079894,-0.01843589,-0.2683338
1.076383,-0.1590389,-0.3404534
1.097869,-0.2350735,-0.5393885
1.118061,-0.2771468,-0.7318249
1.220397,-0.3312589,-0.7969851
1.336813,-0.5439442,-0.8545437
1.303762,-0.6444449,-0.8844318
1.18286,-0.5389309,-0.7273324
1.104904,-0.6020959,-0.6546361
1.062456,-0.554096,-0.6883343
1.054248,-0.3270756,-0.5814477
1.03162,-0.2264319,-0.4676802
0.9251762,-0.1712253,-0.3815506
0.8564118,-0.1666584,-0.3823321
0.775025,-0.1236884,-0.4262767
0.6161785,-0.09418167,-0.3551396
0.4699644,-0.1320057,-0.288228
0.3217874,-0.07156035,-0.1696711
0.2915755,-0.09099201,-0.09357704
0.3294367,-0.1300265,-0.150846
0.3468026,-0.1385705,-0.1512553
0.479521,-0.2579003,-0.1810924
0.6219787,-0.3222906,-0.1777136
0.7821165,-0.3766467,-0.0918647
1.01608,-0.401142,-0.06798595
1.214398,-0.3304489,-0.03528519
1.34682,-0.3179571,-0.03785662
1.364502,-0.3120777,-0.06879333
1.42047,-0.2947177,-0.06633064
1.492156,-0.2665922,-0.1011475
1.39519,-0.2226402,-0.1359368
1.29026,-0.22832,-0.2087852
1.125724,-0.3074602,-0.3385866
0.9708383,-0.4929551,-0.4836944
1.061444,-0.5840413,-0.6429771
1.112212,-0.519098,-0.6923545
1.054678,-0.4928412,-0.5955745
0.9703619,-0.4118018,-0.4216406
0.7637686,-0.2390439,-0.2822344
0.7094477,-0.1312675,-0.2979606
0.8083324,-0.109571,-0.392895
0.7868664,-0.1121159,-0.4778452
0.7771023,-0.1168567,-0.5040695
0.799678,-0.1446861,-0.4690993
0.7747078,-0.1731546,-0.4623402
0.7518847,-0.1851299,-0.4442084
0.7169136,-0.1889372,-0.3588521
0.744547,-0.1843908,-0.2581964
0.8172175,-0.1496034,-0.2219228
0.8272145,-0.03147094,-0.2645542
0.8450671,0.1300098,-0.269765
0.9140667,0.2370593,-0.2207433
1.004597,0.2347594,-0.2012703
1.052022,0.1506214,-0.2003758
1.033756,0.03870065,-0.1799805
1.062772,-0.08796331,-0.1429834
1.126205,-0.1394343,-0.1958801
1.157466,-0.1201331,-0.4731008
1.23137,-0.1013115,-0.8521688
1.340112,-0.07518279,-0.9604127
1.337492,-0.1899398,-0.7608174
1.18003,-0.3541196,-0.6554323
1.047014,-0.3019864,-0.6702827
1.064265,-0.2228859,-0.6277765
1.09817,-0.2162521,-0.6096487
1.068682,-0.1818104,-0.5556788
1.066492,-0.203904,-0.5079626
1.046615,-0.2199269,-0.522753
0.9108989,-0.1963424,-0.4558685
0.7306131,-0.2216481,-0.3818966
0.5795104,-0.2352721,-0.2753983
0.515402,-0.2312896,-0.1824466
0.5330084,-0.1999285,-0.2519257
0.5200239,-0.1315612,-0.2831596
0.4941553,-0.1285729,-0.2705328
0.4839296,-0.1489617,-0.207812
0.4936286,-0.1521597,-0.02402985
0.5747057,-0.1932846,0.01865129
0.6994064,-0.2471571,-0.02746014
0.9187619,-0.3081362,-0.01159161
1.229785,-0.3179497,-0.06457564
1.39014,-0.211557,-0.1655229
1.330184,-0.1293858,-0.2266643
1.281186,-0.1726704,-0.218627
1.282433,-0.2746075,-0.2458163
1.222344,-0.4254398,-0.4027173
1.20759,-0.559661,-0.5362101
1.167588,-0.5210549,-0.5737373
1.00935,-0.4462547,-0.523127
0.922282,-0.4376533,-0.4188591
0.8808164,-0.3403104,-0.3885203
0.869233,-0.2993593,-0.3941536
0.9171718,-0.3343865,-0.42866
0.9051398,-0.2491117,-0.5060019
0.9029015,-0.2222147,-0.4981395
0.9133438,-0.2395211,-0.4665853
0.8905337,-0.1831729,-0.4644156
0.8867001,-0.1751527,-0.4451708
0.8285368,-0.1466675,-0.4597762
0.7314002,-0.1109778,-0.4627983
0.6796727,-0.1360303,-0.4219965
0.685771,-0.1343031,-0.3793041
0.7230657,-0.112854,-0.3474508
0.7430799,-0.08026173,-0.3440296
0.7684348,-0.03091598,-0.3344934
0.8075592,0.04503092,-0.322741
0.8577054,0.1430011,-0.3087797
0.8981592,0.1722182,-0.2342094
0.9296286,0.138083,-0.1567495
1.028064,0.1090947,-0.1606532
1.114745,0.06215821,-0.2095038
1.140421,-0.01112647,-0.2263754
1.160063,-0.07012578,-0.2261129
1.14427,-0.133746,-0.2979891
1.144527,-0.1808003,-0.5081434
1.178086,-0.1800146,-0.7741371
1.180746,-0.2346393,-0.8423193
1.12689,-0.3350571,-0.733411
1.027433,-0.3514677,-0.704818
0.9979487,-0.3288702,-0.7012671
1.020115,-0.3276208,-0.6527996
0.9902206,-0.2767806,-0.6341571
0.9765976,-0.2343791,-0.5742476
1.000823,-0.2721213,-0.5199767
1.002779,-0.2949822,-0.5494925
0.9559551,-0.3078878,-0.5212871
0.8773803,-0.3091757,-0.4027808
0.8232713,-0.2519423,-0.3067444
0.7890616,-0.1999513,-0.308105
0.7525537,-0.1531786,-0.3865381
0.713696,-0.13642,-0.4177946
0.6385683,-0.1640531,-0.3625833
0.5310872,-0.1850096,-0.2343698
0.4453718,-0.2231876,-0.05261794
0.4063301,-0.2268434,0.04271268
0.4014301,-0.194727,0.02542516
0.4158702,-0.2007965,0.01065637
0.521969,-0.2144923,-0.02090452
0.7579561,-0.2313958,-0.1020348
0.9101227,-0.2349449,-0.1324024
0.9121937,-0.2296542,-0.08759177
1.055783,-0.2741684,-0.09600747
1.347902,-0.3269447,-0.2256831
1.486913,-0.3288646,-0.376513
1.448745,-0.2647697,-0.3921954
1.40505,-0.219042,-0.3161248
1.401537,-0.3193416,-0.3416351
1.382156,-0.4698672,-0.4786298
1.363328,-0.5090113,-0.6103538
1.310024,-0.4691758,-0.5840012
1.013807,-0.4226934,-0.3639312
0.5973174,-0.3897595,-0.1710371
0.4776917,-0.4144219,-0.1475954
0.6499714,-0.4568834,-0.3207072
0.8190412,-0.4176212,-0.5819322
0.9271102,-0.3584151,-0.7123095
0.9941951,-0.3427031,-0.6990908
0.9234976,-0.3324233,-0.577351
0.8170926,-0.3065009,-0.447995
0.8183908,-0.2175631,-0.4237707
0.9198439,-0.1268083,-0.4456317
1.068397,-0.1217028,-0.511147
1.012826,-0.1685275,-0.5658119
0.8456656,-0.262261,-0.5304775
0.8071036,-0.3190497,-0.4449059
0.7560341,-0.2920865,-0.4072985
0.7785071,-0.2403547,-0.4983114
0.8061522,-0.1625962,-0.5831693
0.7273766,-0.09820819,-0.5624367
0.7011564,-0.001783719,-0.5356846
0.5899666,0.08365666,-0.4919593
0.5290656,0.02755959,-0.3605939
0.6031759,0.00114537,-0.2733418
0.6170632,0.025065,-0.2998367
0.7176049,0.02211491,-0.3325883
0.8171643,0.102251,-0.3820141
0.8404894,0.1545042,-0.3510624
0.9928674,-0.2144079,-0.7134498
1.008462,-0.1899354,-0.685184
1.074541,-0.1870878,-0.6785584
0.993795,-0.2059421,-0.6171709
0.9548074,-0.2295331,-0.5598661
0.9692517,-0.2952639,-0.5745999
0.8858184,-0.339036,-0.5439795
0.8505642,-0.3141879,-0.4697013
0.8082192,-0.2691589,-0.3975954
0.7480786,-0.2332797,-0.3581448
0.7444827,-0.2042817,-0.3694064
0.7204519,-0.2184356,-0.3702761
0.6984535,-0.2388001,-0.3549836
0.6439683,-0.1859675,-0.3227664
0.5748311,-0.14873,-0.2381365
0.531778,-0.1661624,-0.1425663
0.503352,-0.2009865,-0.07631545
0.5893634,-0.2713782,-0.02000443
0.7668388,-0.3005108,0.005647407
0.9687484,-0.2613308,-0.02377635
1.10479,-0.2484068,-0.05727001
1.168497,-0.30726,-0.06791962
1.31081,-0.3500571,-0.0921777
1.388231,-0.2823661,-0.185555
1.354738,-0.2367644,-0.3629385
1.366906,-0.349738,-0.5097862
1.318752,-0.5350829,-0.5358541
1.216835,-0.6250175,-0.5680943
1.07894,-0.5540527,-0.6290813
0.8356376,-0.4753752,-0.516839
0.7149879,-0.458847,-0.3618645
0.7619142,-0.3646974,-0.4068635
0.7807203,-0.2576762,-0.4900503
0.7997529,-0.2467018,-0.5179862
0.7952297,-0.2231464,-0.5230916
0.7454277,-0.1700911,-0.4684397
0.743619,-0.09053858,-0.4513755
0.7049373,0.01532645,-0.4720518
0.643919,0.02824787,-0.4676487
0.6691968,-0.03328286,-0.4605072
0.7331368,-0.1650659,-0.3991932
0.8306651,-0.3233472,-0.322656
0.874768,-0.2791671,-0.3061544
0.8294348,-0.1294604,-0.2984422
0.8374804,-0.008608366,-0.2604285
0.8476497,0.1925447,-0.2308789
0.8465583,0.2789536,-0.1977426
0.9218392,0.1808852,-0.09952881
0.995563,0.164512,-0.06816656
1.044744,0.1417802,-0.1576355
1.11422,0.006091912,-0.2330783
1.197919,-0.1319889,-0.3163335
1.270934,-0.2916434,-0.3952752
1.302448,-0.3775643,-0.5010518
1.257689,-0.2657581,-0.7130668
1.140937,-0.1570123,-0.8233101
1.069452,-0.2480847,-0.7536331
1.061664,-0.3368423,-0.713436
1.039652,-0.2907919,-0.7537956
1.049665,-0.2611521,-0.7283954
1.09243,-0.185398,-0.6145178
1.094157,-0.1209139,-0.5392049
1.042401,-0.1976446,-0.5422213
0.9662158,-0.226377,-0.5527848
0.8689303,-0.2289446,-0.4651138
0.7235843,-0.274645,-0.3349324
0.5955009,-0.2759271,-0.2598789
0.5519074,-0.249369,-0.2177229
0.5424751,-0.1993594,-0.2486585
0.5236725,-0.178849,-0.2493524
0.4915542,-0.207515,-0.1555766
0.4671,-0.2233904,-0.07155832
0.4935553,-0.2158051,0.004285881
0.5944721,-0.1977629,-0.01655449
0.7773892,-0.1938983,-0.1114695
0.9533668,-0.1892902,-0.1809072
1.034079,-0.2022081,-0.2195692
1.148042,-0.2241847,-0.1754057
1.333978,-0.2082201,-0.1996912
1.401522,-0.2040043,-0.3366136
1.338964,-0.2312942,-0.4453466
1.291868,-0.3468949,-0.4832457
1.253558,-0.5450478,-0.4522145
1.148116,-0.6027111,-0.4765248
0.9789685,-0.5085565,-0.4774986
0.7695506,-0.4506783,-0.3943686
0.6977475,-0.406973,-0.3893381
0.8625469,-0.3350867,-0.4513437
0.9498886,-0.3026707,-0.5704118
0.9137423,-0.2826301,-0.6116222
0.9338013,-0.2765155,-0.5436
0.9126309,-0.2878592,-0.532899
0.8908456,-0.2359744,-0.4788772
0.8794422,-0.1663841,-0.4602672
0.8304972,-0.09884277,-0.5074118
0.8139966,-0.01840705,-0.4763003
0.7719276,0.0001077505,-0.4861588
0.7585274,-0.0506899,-0.4803222
0.7800097,-0.1557896,-0.4218988
0.7652692,-0.21779,-0.4148982
0.7937868,-0.1679436,-0.4119312
0.809563,-0.09203705,-0.413262
0.7848075,0.02688946,-0.3657743
0.7509914,0.1551955,-0.2456985
0.7093031,0.1906265,-0.1351784
0.7409588,0.1809906,-0.09070037
0.83797,0.1393065,-0.1413247
0.9743575,0.03234089,-0.2114867
1.10437,-0.09928271,-0.305065
1.171831,-0.203952,-0.4021742
1.236519,-0.2358155,-0.4355938
1.262278,-0.1716242,-0.5694974
1.223047,-0.1163466,-0.757814
1.203356,-0.1907859,-0.7705925
1.176437,-0.3585158,-0.7283528
1.119026,-0.5444709,-0.7723746
1.049144,-0.6225299,-0.7983283
0.9952979,-0.5336166,-0.7429517
1.037521,-0.4256486,-0.6389295
1.084639,-0.3163955,-0.5413904
1.086215,-0.1973388,-0.5346029
1.109806,-0.1434595,-0.5270073
0.9943873,-0.1342957,-0.4101233
0.7939359,-0.1772059,-0.3347498
0.6706675,-0.165585,-0.2690842
0.4693375,-0.103646,-0.1273095
0.3886639,-0.1213447,-0.1171244
0.5604598,-0.106455,-0.2436071
0.6019301,-0.1169765,-0.3446909
0.5751792,-0.1552232,-0.3417097
0.586109,-0.1437382,-0.1306668
0.4606686,-0.2039506,0.1433482
0.4194493,-0.2073994,0.1569443
0.5715301,-0.184072,-0.0203526
0.7743442,-0.2360967,-0.09258647
0.9262181,-0.2244139,-0.06857203
0.9781666,-0.1771715,-0.06725975
1.102283,-0.1092754,-0.09301744
1.290806,-0.1062068,-0.1337896
1.488048,-0.1740837,-0.1961497
1.638487,-0.2133773,-0.3146959
1.521377,-0.3704377,-0.4006287
1.355797,-0.5198317,-0.4096896
1.237894,-0.4791046,-0.4255217
0.9391639,-0.4846551,-0.4002999
0.6958691,-0.6575451,-0.3711459
0.7772344,-0.7707292,-0.412013
0.9680631,-0.7102352,-0.5172312
0.9448309,-0.607059,-0.6956384
0.8687837,-0.4809135,-0.7323966
0.8622,-0.3856604,-0.578121
0.7725807,-0.3572116,-0.4897647
0.7829737,-0.2769037,-0.4733037
0.811478,-0.2134358,-0.4767312
0.7568309,-0.1698669,-0.494588
0.7621388,-0.1088145,-0.4757005
0.6715301,-0.1170442,-0.4647555
0.6088537,-0.1187785,-0.433462
0.6280981,-0.1044475,-0.4041151
0.6348686,-0.1047651,-0.4392993
0.7333586,-0.0681373,-0.4694566
0.7840273,-0.06852756,-0.5165745
0.8715484,-0.1535671,-0.5620598
1.000526,-0.2260669,-0.5638866
0.9470759,-0.143089,-0.556993
0.870177,0.0254133,-0.4874099
0.8216255,0.07373299,-0.3904036
0.7927342,0.04414175,-0.3060799
0.8535805,0.02717516,-0.2151088
0.924338,0.02561179,-0.1911594
0.9765864,0.04771227,-0.1864939
1.014727,0.05719464,-0.1502187
1.094318,0.04258561,-0.1821775
1.235505,-0.009423588,-0.2471027
1.300494,-0.07758746,-0.2525515
1.270966,-0.116069,-0.2457831
1.243336,-0.1678102,-0.2907936
1.248739,-0.2573519,-0.4595024
1.359978,-0.3050832,-0.6432336
1.423586,-0.2253329,-0.5783085
1.068897,-0.1366628,-0.4912054
0.67064,-0.1572458,-0.6336458
0.8108261,-0.2360197,-0.717617
1.03119,-0.3190986,-0.7054363
1.013154,-0.278359,-0.6952369
1.057296,-0.2100903,-0.6313724
0.9826673,-0.2757491,-0.6439092
0.8065614,-0.2994139,-0.6227109
0.7861282,-0.3086702,-0.4751702
0.7426673,-0.360571,-0.3965388
0.7389431,-0.3483105,-0.3505739
0.7551473,-0.3437728,-0.3270135
0.6810854,-0.2710896,-0.3579124
0.691419,-0.1057252,-0.3687964
0.6775983,-0.04368584,-0.3643728
0.6335657,-0.06763412,-0.3237852
0.6063837,-0.07644371,-0.2618157
0.571473,-0.09487427,-0.1856632
0.7106814,-0.2208048,-0.1389651
0.9105903,-0.4109566,-0.1971844
1.032374,-0.4889825,-0.2700971
1.078165,-0.4668236,-0.3033595
1.094757,-0.4480376,-0.2547865
1.186792,-0.4389544,-0.1643394
1.211155,-0.3983421,-0.1808212
1.165391,-0.3431761,-0.2592561
1.067426,-0.3529395,-0.3632822
0.9111162,-0.4445555,-0.4523086
0.9439153,-0.5316137,-0.4464831
0.9745212,-0.5026422,-0.4496423
0.7992152,-0.4293209,-0.4616088
0.70388,-0.4011821,-0.4152465
0.7346511,-0.3461442,-0.4111151
0.8381233,-0.2829028,-0.4874194
0.9698809,-0.2223132,-0.5653277
0.9442878,-0.2017992,-0.5621177
0.8787625,-0.2710351,-0.5133887
0.8855336,-0.2794592,-0.4935489
0.8437349,-0.2444345,-0.4486485
0.8036861,-0.1799704,-0.4303703
0.7733381,-0.02534096,-0.4743783
0.7167962,0.03529709,-0.4672607
0.7071811,0.02529449,-0.4458512
0.729339,-0.0389393,-0.4081732
0.7864748,-0.2219988,-0.3413161
0.859667,-0.2555159,-0.3482118
0.8935311,-0.137035,-0.3710587
0.9193978,-0.0002584725,-0.3630338
0.9431231,0.1860941,-0.3284362
0.9639383,0.2280235,-0.2498697
0.9497,0.1374494,-0.2177196
0.9198199,0.1121096,-0.2389156
0.9613228,0.06056783,-0.236887
1.023048,-0.06804195,-0.2184771
1.069266,-0.1906116,-0.2628604
1.081482,-0.2509258,-0.5009926
1.071117,-0.2369087,-0.8909636
1.152694,-0.2544032,-1.037628
1.2241,-0.3250422,-0.8009916
1.158943,-0.3722832,-0.6526825
1.064409,-0.4033616,-0.7106479
1.012171,-0.368741,-0.6537797
0.9938567,-0.2953704,-0.5391827
0.9877345,-0.2990584,-0.476673
0.9756699,-0.325074,-0.4453072
0.9602888,-0.3382767,-0.4522537
0.9135899,-0.3172742,-0.4172977
0.8094716,-0.2291807,-0.3669242
0.7031577,-0.1517441,-0.3536948
0.6454564,-0.08704599,-0.3527436
0.5939981,-0.04944406,-0.3417167
0.5534268,-0.09888674,-0.2643309
0.5296823,-0.1947438,-0.1377782
0.488547,-0.2608853,-0.02102911
0.5039937,-0.2520257,0.02936472
0.5922237,-0.2458375,0.02388376
0.6986642,-0.294518,-0.003342914
0.8140751,-0.3353481,-0.08694962
0.9242785,-0.3351914,-0.1037331
1.061154,-0.2699451,-0.06234031
1.162935,-0.1762448,-0.1040992
1.195567,-0.1407692,-0.122919
1.259112,-0.1809171,-0.1744837
1.290947,-0.2930379,-0.3348542
1.309371,-0.5018124,-0.4656747
1.334812,-0.6522016,-0.5409561
1.190348,-0.5296054,-0.5407032
0.982233,-0.3884349,-0.4739381
0.871417,-0.4147894,-0.4244451
0.8422252,-0.3695082,-0.4696388
0.8871553,-0.3377236,-0.5683066
0.8998219,-0.3685438,-0.5654178
0.8703584,-0.2886159,-0.5240877
0.840215,-0.2489096,-0.4930266
0.7824168,-0.260458,-0.4415387
0.7628999,-0.2220507,-0.4314902
0.7770632,-0.174629,-0.4204042
0.7732041,-0.07838699,-0.4438915
0.7582479,-0.02718416,-0.4996906
0.7299776,-0.05761069,-0.4892078
0.7171271,-0.08892505,-0.4609147
0.7658973,-0.1457422,-0.4279505
0.8510546,-0.1678196,-0.4244722
0.866115,-0.1285742,-0.4446384
0.8054874,-0.04976582,-0.4186643
0.7723999,0.05769224,-0.3876703
0.7956306,0.1013806,-0.3305425
0.8238944,0.1065481,-0.2704844
0.8215578,0.131405,-0.2462176
0.8321667,0.1050755,-0.2093667
0.8546536,0.06159364,-0.2005018
0.8697558,0.08020797,-0.2068097
0.9151232,0.06930204,-0.2014492
0.975641,0.01510117,-0.2275596
1.142078,-0.04074309,-0.3027476
1.38982,-0.1478856,-0.3919861
1.410738,-0.2005348,-0.3900774
1.321128,-0.2097475,-0.4128118
1.399734,-0.2920601,-0.5436299
1.380799,-0.2888146,-0.5469841
1.118815,-0.247791,-0.5305663
0.8738604,-0.3177791,-0.7023048
0.859395,-0.3516754,-0.8275925
1.034481,-0.3879365,-0.7839934
1.10978,-0.4623036,-0.7250557
1.077452,-0.4000991,-0.7037088
1.033153,-0.2855228,-0.6203143
0.8936634,-0.2116767,-0.5123901
0.8101413,-0.1318898,-0.4681891
0.776592,-0.1292917,-0.4148746
0.7204305,-0.2099789,-0.4046436
0.7055036,-0.291539,-0.4070617
0.6509716,-0.3431859,-0.3284856
0.649838,-0.3290715,-0.3029198
0.6590847,-0.2847113,-0.313558
0.6055121,-0.2481777,-0.3333024
0.6609531,-0.2008798,-0.3671875
0.7428087,-0.1727986,-0.3273386
0.8050134,-0.1583449,-0.2881645
0.8360446,-0.138779,-0.2768973
0.799172,-0.1560177,-0.2661482
0.8277217,-0.2330718,-0.2251598
0.8770191,-0.3404984,-0.136653
0.9312205,-0.3571057,-0.1207615
0.9777367,-0.2824095,-0.131558
0.9020337,-0.2493663,-0.07978645
0.8511594,-0.233706,-0.01973382
0.8836421,-0.2433182,0.01119349
0.8779743,-0.2663569,-0.04609472
0.880094,-0.1956932,-0.1382634
0.9728191,-0.1537105,-0.1532551
1.128658,-0.2350162,-0.1486966
1.228865,-0.3418349,-0.2177009
1.276294,-0.4203493,-0.3833828
1.442011,-0.4636557,-0.5837099
1.66179,-0.4783443,-0.7135958
1.633067,-0.4829585,-0.7066262
1.277586,-0.5220859,-0.4674171
0.8149082,-0.5709151,-0.09321077
0.5732598,-0.5788022,0.003069905
0.6718956,-0.5686749,-0.2772981
0.834074,-0.5241248,-0.603058
0.9540774,-0.4550618,-0.8036228
1.039285,-0.3851509,-0.8267165
0.8878221,-0.3236704,-0.6411213
0.7152098,-0.262028,-0.4506462
0.7033903,-0.1513672,-0.4227486
0.6818099,-0.08802013,-0.4725121
0.7429012,-0.1179886,-0.5092791
0.8175742,-0.1710149,-0.5565081
0.8000155,-0.2428228,-0.573565
0.793806,-0.2626997,-0.4708023
0.7710333,-0.2374818,-0.3634019
0.7765934,-0.2175324,-0.3596189
0.775772,-0.1373996,-0.3664877
0.7525404,-0.04954015,-0.3395156
0.8032889,-0.01552555,-0.3010517
0.837851,0.04932321,-0.2606379
0.841978,0.16683,-0.2044471
0.8725961,0.2346927,-0.1495879
0.9523555,0.1777188,-0.1472437
1.067958,0.05609247,-0.1464641
1.139597,-0.04501106,-0.1337477
1.13843,-0.131641,-0.1858212
1.041027,-0.1774732,-0.3643496
0.9919437,-0.1646089,-0.6734206
1.150895,-0.2116156,-0.8861868
1.33369,-0.3821601,-0.8201968
1.31567,-0.5341923,-0.7065405
1.139797,-0.4554897,-0.6864114
0.9717164,-0.2230943,-0.612807
0.9076736,-0.1096528,-0.5589794
0.9973273,-0.1293265,-0.5743153
1.095771,-0.2181802,-0.5361961
1.047135,-0.2906944,-0.514392
0.9544906,-0.2750266,-0.5057496
0.825309,-0.2978304,-0.4507504
0.7437942,-0.3057679,-0.4071631
0.7329171,-0.2459129,-0.3414824
0.5897784,-0.2111379,-0.2586717
0.526042,-0.1670956,-0.247282
0.5820925,-0.1432187,-0.2819462
0.497557,-0.1210686,-0.2563327
0.4465646,-0.1080385,-0.2204631
0.4915394,-0.1760339,-0.1930078
0.5137341,-0.2163723,-0.0805185
0.5642479,-0.2301731,-0.04380152
0.6564256,-0.2695526,-0.1159409
0.8217463,-0.337954,-0.1381222
1.033962,-0.4101091,-0.146236
1.191005,-0.358899,-0.1396792
1.282506,-0.2957057,-0.1216554
1.298543,-0.3189789,-0.09581859
1.309392,-0.3247268,-0.05831801
1.394052,-0.3429307,-0.1122148
1.396478,-0.3614382,-0.2178902
1.289104,-0.3979906,-0.3221394
1.204709,-0.4757607,-0.4531347
1.099843,-0.4491545,-0.5679634
1.012215,-0.3951796,-0.6283331
0.9810607,-0.3845157,-0.5892825
0.9145644,-0.3037827,-0.4999962
0.8301343,-0.2623162,-0.4651356
0.7733606,-0.3016525,-0.4360609
0.7537747,-0.2942881,-0.4241787
0.7401656,-0.2622505,-0.4634064
0.7500685,-0.2370953,-0.467369
0.7806395,-0.2110472,-0.4718384
0.7483236,-0.1665809,-0.4721311
0.7221917,-0.08462758,-0.432731
0.6980334,-0.02841179,-0.4357968
0.6329955,-0.01095268,-0.408756
0.6214402,-0.01662124,-0.3556247
0.674891,-0.0697975,-0.3682493
0.7607896,-0.1141484,-0.395516
0.7988203,-0.09377398,-0.440701
0.7976231,-0.02740396,-0.4522713
0.8512535,0.07570379,-0.3936641
0.9080378,0.1904353,-0.2787834
0.9551998,0.2228965,-0.1068977
1.021542,0.1582235,-0.08699601
1.117161,0.1015251,-0.2366472
1.247008,0.06283487,-0.2944599
1.351696,-0.008861226,-0.2351568
1.39007,-0.1052148,-0.1938486
1.35541,-0.1779934,-0.2663944
1.308989,-0.1832267,-0.4554857
1.267775,-0.1427194,-0.6604497
1.184489,-0.1029157,-0.7209377
1.063979,-0.1591816,-0.6404007
0.9191353,-0.2738687,-0.6475391
0.9113775,-0.2822173,-0.6863566
1.045272,-0.2723852,-0.668945
1.080579,-0.290939,-0.7257639
1.054422,-0.2880677,-0.7254957
1.018533,-0.3358109,-0.6465969
0.9366973,-0.3486016,-0.5610343
0.8463932,-0.2695453,-0.4061256
0.7385076,-0.174231,-0.3322642
0.691874,-0.1352487,-0.3318434
0.6801194,-0.1845199,-0.3203072
0.6174515,-0.196699,-0.3371183
0.5477691,-0.164984,-0.3111479
0.4759947,-0.1502641,-0.2572399
0.453062,-0.1190012,-0.1527815
0.4637425,-0.1275948,-0.03120165
0.4820915,-0.1861206,-0.01616592
0.602067,-0.2682149,-0.01597593
0.8266241,-0.3505485,-0.01094662
1.080347,-0.3665079,-0.04552333
1.209095,-0.3453327,-0.08730165
1.196395,-0.3268736,-0.1201984
1.220038,-0.3037387,-0.1025585
1.289729,-0.2686737,-0.08881073
1.32411,-0.2231973,-0.1430847
1.324189,-0.2675198,-0.2350688
1.378272,-0.5182354,-0.4177185
1.466211,-0.773607,-0.6227657
1.349979,-0.6749163,-0.5387883
0.9428489,-0.3994119,-0.2271583
0.5548329,-0.26374,-0.08105841
0.6211898,-0.1961805,-0.1625211
0.9312387,-0.2319631,-0.4024257
1.012088,-0.2678761,-0.6690793
1.043298,-0.2055486,-0.724779
1.003868,-0.2627451,-0.5926963
0.8091546,-0.2805182,-0.427558
0.7648694,-0.2314103,-0.3263352
0.720998,-0.2382501,-0.2910238
0.6921406,-0.1384073,-0.3242256
0.7643569,-0.08645689,-0.4122409
0.7417019,-0.08560601,-0.4646406
0.7924353,-0.03040522,-0.5090067
0.8296407,-0.03172937,-0.4865117
0.8096567,-0.01473202,-0.4235065
0.8588364,-0.01598017,-0.4196597
0.8175698,-0.005394668,-0.35757
0.7883888,0.06906953,-0.2837449
0.769711,0.1069605,-0.1958206
0.7653834,0.1603261,-0.1046815
0.8816394,0.1681599,-0.1273588
0.9773992,0.1126829,-0.1435403
1.07031,0.08002869,-0.1735202
1.111651,0.06465029,-0.200428
1.133927,0.06704507,-0.1640501
1.235001,-0.008940345,-0.1810653
1.263798,-0.1511499,-0.2315023
1.269598,-0.2316779,-0.3923037
1.270529,-0.2205037,-0.6065483
1.213997,-0.1865889,-0.6322383
1.133518,-0.193793,-0.6058408
1.047632,-0.1615666,-0.6807148
1.094656,-0.1425685,-0.7648035
1.180901,-0.1758329,-0.8033946
1.150912,-0.1614249,-0.7692868
1.090216,-0.1972703,-0.6498541
1.012823,-0.2742045,-0.5673969
0.9719841,-0.3134344,-0.5808732
0.972806,-0.353498,-0.5788411
0.9159708,-0.3444432,-0.5256507
0.8763812,-0.3050053,-0.4568036
0.8813894,-0.257751,-0.429967
0.8489453,-0.2120694,-0.4688343
0.7497991,-0.2111526,-0.4867579
0.5901698,-0.1824716,-0.4207339
0.4646101,-0.1432402,-0.2991108
0.3962028,-0.1482157,-0.2002551
0.3243807,-0.1621942,-0.1355266
0.2976232,-0.1931732,-0.06316587
0.3348966,-0.2209891,0.04194838
0.4184918,-0.2274447,0.1125514
0.5768855,-0.2327374,0.0336044
0.7957215,-0.2220429,-0.07824481
1.010544,-0.1970831,-0.1167388
1.116157,-0.1953794,-0.1138011
1.106468,-0.2364923,-0.0574264
1.175882,-0.2995057,-0.05402688
1.363208,-0.3638288,-0.1730385
1.471954,-0.4329996,-0.4004804
1.516592,-0.5133705,-0.6521191
1.555511,-0.5728938,-0.7200577
1.414781,-0.545807,-0.6286279
1.023373,-0.4273491,-0.4348691
0.6166064,-0.3297523,-0.2130934
0.5854245,-0.3719221,-0.2605103
0.842408,-0.4557086,-0.4625049
0.9421669,-0.4453391,-0.5386583
0.9514498,-0.4277948,-0.5715396
0.9855588,-0.4264313,-0.5500725
0.9279313,-0.4060177,-0.4893403
0.8496019,-0.3745904,-0.4783659
0.808156,-0.2476786,-0.4541705
0.8393399,-0.09847749,-0.5045629
0.8687485,-0.04401626,-0.5830679
0.8049616,-0.05154661,-0.5575734
0.7774935,-0.1190378,-0.5397796
0.7723746,-0.1844918,-0.4885776
0.734547,-0.2093185,-0.4231824
0.707839,-0.2047869,-0.4438967
0.6806951,-0.1481211,-0.4803972
0.6583017,-0.08510334,-0.5181483
0.6451713,-0.05160438,-0.5003106
0.6663941,-0.06164979,-0.4653078
0.6923868,-0.05792655,-0.4855066
0.7152562,0.009612889,-0.4840233
0.7845277,0.07362518,-0.4955754
0.817544,0.1026573,-0.4975831
0.8398136,0.08609916,-0.4175816
0.9008336,0.09354956,-0.3186238
0.8977518,0.1433184,-0.2765391
0.9130134,0.1682891,-0.2789577
1.038591,0.2199372,-0.2448521
1.125924,0.2359833,-0.2347642
1.154809,0.2357218,-0.2627306
1.237852,0.3053236,-0.2274766
1.274102,0.2571084,-0.2526614
1.248099,0.04156268,-0.4302501
1.344051,-0.2570244,-0.5781084
1.414494,-0.4289264,-0.5087421
1.236418,-0.2555244,-0.4031653
1.041378,-0.1490725,-0.4981411
1.041187,-0.328218,-0.5268304
1.053376,-0.4666094,-0.4395158
1.001208,-0.6126581,-0.4564267
1.009095,-0.7414723,-0.4369561
0.9941026,-0.685626,-0.4060496
0.9154111,-0.6007699,-0.4009806
0.8547254,-0.5112228,-0.3491482
0.7752575,-0.4501348,-0.3498643
0.7233408,-0.4591093,-0.3160568
0.7010414,-0.4068294,-0.2750542
0.66541,-0.366602,-0.3000634
0.6752431,-0.3422041,-0.2955318
0.6476599,-0.2799644,-0.3224446
0.5665543,-0.2974874,-0.3288461
0.551218,-0.350122,-0.2534286
0.7874218,-0.2113029,-0.3981626
0.6420533,-0.208881,-0.3850113
0.6238915,-0.2246455,-0.3282343
0.6456144,-0.2519382,-0.2888871
0.5901704,-0.2189396,-0.2235638
0.5813289,-0.1690027,-0.2309458
0.4959608,-0.1400174,-0.2595647
0.390143,-0.09367372,-0.2207651
0.398213,-0.08489511,-0.2065058
0.4126332,-0.1376452,-0.1374045
0.4871668,-0.2149839,-0.06880995
0.6934799,-0.2887685,-0.04716567
1.007048,-0.3465739,-0.01551554
1.223161,-0.3775662,-0.07913225
1.215845,-0.3610995,-0.1155942
1.27919,-0.3264144,-0.01922836
1.435324,-0.2761301,0.0553231
1.450009,-0.2179968,-0.003721719
1.456017,-0.2528316,-0.2493607
1.540131,-0.3822341,-0.5498518
1.512883,-0.514088,-0.6268179
1.312719,-0.5618505,-0.476648
0.9941536,-0.4805891,-0.3881989
0.7373327,-0.3999611,-0.382452
0.7598582,-0.3709102,-0.3742477
0.8607796,-0.3164493,-0.4807348
0.8675079,-0.2900105,-0.5570517
0.8879794,-0.2691229,-0.5230409
0.8337067,-0.2226084,-0.5128688
0.744019,-0.2094236,-0.4815496
0.731593,-0.1857694,-0.437987
0.6942318,-0.1283758,-0.4026734
0.6611004,-0.06051074,-0.4037962
0.6270915,-0.03509122,-0.4382724
0.5566013,-0.06352439,-0.4215121
0.5660231,-0.1149658,-0.3956589
0.6353907,-0.2159804,-0.3505714
0.6930379,-0.2228225,-0.3351283
0.7635234,-0.0605284,-0.3647616
0.8444324,0.1307216,-0.3264167
0.907573,0.2584712,-0.2777334
0.9631338,0.2431795,-0.2028503
1.050629,0.2053158,-0.1408854
1.134037,0.2137741,-0.1917771
1.164311,0.1270942,-0.2144939
1.183313,0.04457046,-0.1987606
1.197701,-0.0208547,-0.2445182
1.203992,-0.120292,-0.3722536
1.225224,-0.06452437,-0.5754654
1.218096,0.02115784,-0.7375738
1.197314,-0.09363385,-0.7844299
1.163716,-0.2318203,-0.7512564
1.049538,-0.2684126,-0.7043834
0.9610765,-0.2538461,-0.7017722
0.9766628,-0.2089911,-0.6985838
1.003828,-0.2120974,-0.6659818
1.023585,-0.2301376,-0.6311028
1.041719,-0.2152557,-0.5822685
0.988296,-0.2284212,-0.5493816
0.8472734,-0.2139266,-0.5032725
0.7083105,-0.1916068,-0.3769629
0.6092849,-0.1926911,-0.263909
0.5279365,-0.1592548,-0.2351146
0.4784876,-0.136397,-0.2725726
0.4665811,-0.1228743,-0.315064
0.4977043,-0.1371028,-0.2811649
0.5510689,-0.1868501,-0.2313507
0.5824964,-0.2308334,-0.2054009
0.6067466,-0.2919108,-0.1876301
0.7381749,-0.3155997,-0.1932396
0.9930979,-0.3091028,-0.149652
1.09263,-0.2860712,-0.08057715
1.035607,-0.2414082,-0.01610424
1.138168,-0.2611866,0.1144736
1.295865,-0.2639681,0.156409
1.400916,-0.2084064,-0.009547876
1.53921,-0.1942165,-0.188694
1.49371,-0.2640336,-0.258055
1.353476,-0.4284549,-0.341202
1.396705,-0.5540549,-0.4704469
1.278322,-0.5397488,-0.5187062
0.9435124,-0.447037,-0.5239681
0.7981791,-0.3370099,-0.5350314
0.7770164,-0.2886352,-0.5164286
0.8097239,-0.306581,-0.498146
0.8736292,-0.2909073,-0.4540391
0.8327437,-0.2298511,-0.4413429
0.8239483,-0.2010575,-0.4825724
0.820976,-0.2110912,-0.4755606
0.7747504,-0.2083015,-0.4757464
0.7810195,-0.1643662,-0.4878483
0.7473466,-0.09655605,-0.4974075
0.7255923,-0.08790024,-0.5226213
0.7604055,-0.1605434,-0.4654827
0.7719509,-0.2376137,-0.3766865
0.7823134,-0.2334971,-0.3520009
0.7675257,-0.09610618,-0.3646356
0.733286,0.1061168,-0.3702555
0.706253,0.2094599,-0.335275
0.6959238,0.1440107,-0.2739409
0.7084414,0.04933976,-0.1883457
0.7032659,0.01826818,-0.141399
0.7196772,0.01073208,-0.1707742
0.7955716,0.03007079,-0.2256431
0.9238905,1.561557e-05,-0.3644398
1.023195,-0.04777915,-0.4842546
0.9886696,-0.02129261,-0.423458
0.9500375,-0.03080939,-0.3631157
0.9876511,-0.04845079,-0.4216552
1.057318,-0.04334955,-0.5785762
1.178158,-0.06363012,-0.818854
1.22575,-0.08274326,-0.8520893
1.172799,-0.1665158,-0.6295461
1.053406,-0.2561789,-0.5535857
0.8575296,-0.3093166,-0.6621371
0.8775747,-0.3957622,-0.7210384
1.052029,-0.4186848,-0.6588882
1.069542,-0.3705112,-0.5760451
1.08075,-0.3327531,-0.5958457
1.050608,-0.2959282,-0.5867862
0.9589309,-0.2349273,-0.509372
0.9409627,-0.1782742,-0.4231484
0.8468942,-0.1880671,-0.3042393
0.7669431,-0.2150814,-0.2646407
0.735413,-0.2120606,-0.2583023
0.6498509,-0.1713877,-0.2517203
0.6410044,-0.1085653,-0.303414
0.6618772,-0.1276611,-0.3314561
0.7068209,-0.1977155,-0.3598258
0.7982423,-0.2445456,-0.3412292
0.8343877,-0.2758093,-0.2954386
0.8535823,-0.264299,-0.3108272
0.8620644,-0.2509348,-0.2844773
0.8615611,-0.2299655,-0.2654776
0.8731514,-0.1818107,-0.2339541
0.8902572,-0.2019289,-0.1369413
0.9124961,-0.2332919,-0.1136276
0.911604,-0.2194318,-0.1239193
0.9225472,-0.2304446,-0.1128749
0.9458335,-0.2238549,-0.1054056
0.9522056,-0.1815597,-0.08537122
0.9459524,-0.1418056,-0.07583053
0.9377708,-0.1247624,-0.07562374
0.96618,-0.1604221,-0.1021663
1.002921,-0.1934794,-0.1613511
1.014198,-0.2011652,-0.2068679
1.00099,-0.213723,-0.2271887
0.9840957,-0.2237973,-0.2251491
0.9944284,-0.2408176,-0.2103062
0.9806038,-0.2321887,-0.1909673
0.9241908,-0.2216233,-0.1811309
0.8590919,-0.2805959,-0.2046336
0.8601216,-0.3557761,-0.2625257
1.022128,-0.3706629,-0.3473106
1.17222,-0.2768737,-0.4301956
1.096319,-0.1529445,-0.4318012
0.9710645,-0.1675783,-0.2862211
0.9854432,-0.3066129,-0.1448641
1.099375,-0.4509886,-0.2302439
1.298223,-0.489878,-0.3799329
1.432991,-0.4324064,-0.4081941
1.452415,-0.4055242,-0.4805327
1.537325,-0.3861366,-0.559866
1.456779,-0.385144,-0.4782477
1.16815,-0.4489097,-0.3527406
1.042174,-0.4501422,-0.2944851
0.9572656,-0.3931495,-0.3026759
0.8395639,-0.3387928,-0.3572299
0.7853114,-0.3003712,-0.4329326
0.7278712,-0.3397507,-0.4921546
0.7792441,-0.3620787,-0.4846674
0.8152491,-0.3360796,-0.4376374
0.72718,-0.3130816,-0.3711411
0.6854646,-0.2378206,-0.332378
0.6523302,-0.1893703,-0.3641823
0.6604654,-0.2052852,-0.3857801
0.7166843,-0.2118632,-0.4032103
0.733794,-0.2179414,-0.4342002
0.7476479,-0.2043786,-0.4249525
0.7301649,-0.1641792,-0.4175829
0.7441265,-0.1287261,-0.4282112
0.810311,-0.1141521,-0.4233712
0.8602705,-0.112916,-0.4253327
0.8934848,-0.1060534,-0.4316262
0.8740162,-0.106377,-0.4216719
0.8878933,-0.09239536,-0.416928
0.9237551,-0.07455569,-0.4212419
0.9163185,-0.09171311,-0.421428
0.9623936,-0.1120125,-0.4280965
1.008253,-0.1245962,-0.4506078
1.016829,-0.1030076,-0.4705859
0.9804717,-0.02455123,-0.4359289
0.8808018,0.06915061,-0.3344683
0.8286167,0.1492579,-0.2261508
0.8176073,0.1542414,-0.1786688
0.8581034,0.09156899,-0.2023499
0.9390446,0.06569407,-0.2366981
0.9480281,0.0718723,-0.2516445
0.9573574,0.05041771,-0.2210266
0.9926192,-0.001081064,-0.1411325
1.012162,-0.02322201,-0.1122502
1.075367,-0.01150845,-0.1364771
1.191074,-0.07018284,-0.1839418
1.325993,-0.1802805,-0.2689399
1.407808,-0.2276832,-0.3322916
1.433226,-0.2056432,-0.448478
1.429848,-0.1715458,-0.5675875
1.244627,-0.1086885,-0.4600467
0.9970438,-0.04483596,-0.3904546
1.043793,-0.1781208,-0.641843
1.156014,-0.3598651,-0.8657048
1.086896,-0.2794302,-0.8122623
1.087559,-0.1615669,-0.6862124
1.080027,-0.1300141,-0.6507307
0.988745,-0.07097535,-0.6922409
0.9810983,-0.08153946,-0.7249851
0.95279,-0.1056925,-0.6542842
0.9244723,-0.1242607,-0.562791
0.8616461,-0.2069627,-0.5310604
0.7069276,-0.2639779,-0.4468415
0.6385175,-0.2844119,-0.3750814
0.560737,-0.23743,-0.3908123
0.5161332,-0.1603515,-0.3799099
0.5651026,-0.1217608,-0.3995607
0.5150004,-0.07525598,-0.4455032
0.4960172,-0.06547387,-0.4541808
0.5304783,-0.07098141,-0.457286
0.5345098,-0.1213849,-0.3665695
0.5827223,-0.2131301,-0.2396369
0.6031069,-0.2284455,-0.1848
0.6587355,-0.2912123,-0.1802895
0.8068431,-0.4001765,-0.19672
0.9352563,-0.4550138,-0.1984505
1.063772,-0.4717173,-0.2355514
1.152849,-0.3973513,-0.1937542
1.179052,-0.3164143,-0.05648063
1.293209,-0.3300523,-0.0590346
1.444483,-0.3508865,-0.1775973
1.445456,-0.3241893,-0.333806
1.272121,-0.3652361,-0.4086119
1.023349,-0.4991521,-0.3920297
0.9092362,-0.588532,-0.4564225
0.9514506,-0.5690711,-0.4949611
0.9430678,-0.4647928,-0.5144854
0.9146941,-0.387922,-0.5163609
0.8955883,-0.306563,-0.445638
0.8200107,-0.2113936,-0.4950516
0.8096257,-0.2290549,-0.5378324
0.8488042,-0.2379191,-0.5049412
0.8382939,-0.2400993,-0.5041991
0.8215053,-0.2581975,-0.4257543
0.7746196,-0.1730441,-0.3844708
0.6845266,-0.06398639,-0.41517
0.5994724,0.02294677,-0.3969693
0.5434461,0.01767134,-0.3682911
0.5522509,-0.05637937,-0.3100654
0.6006562,-0.09167531,-0.2800809
0.6470172,-0.126456,-0.3108423
0.6913958,-0.08963963,-0.3174348
0.7078225,0.02003415,-0.3077934
0.7359764,0.147526,-0.2805965
0.8474188,0.2056622,-0.2130663
0.9883314,0.126335,-0.157877
1.089816,0.09020096,-0.1985947
1.189516,0.07037659,-0.2521497
1.31326,0.04278399,-0.2295453
1.397163,0.056597,-0.2431657
1.409836,-0.08703183,-0.2667743
1.393361,-0.2604917,-0.2509499
1.390006,-0.2797099,-0.3161486
1.388908,-0.2447583,-0.4981667
1.333402,-0.1653686,-0.7320924
1.199229,-0.1103084,-0.8401118
1.019207,-0.1884355,-0.7740799
0.93876,-0.3537173,-0.7110398
0.9764279,-0.4306681,-0.6478778
0.9203074,-0.3856869,-0.5730989
0.8454754,-0.3481843,-0.5227607
0.8794195,-0.3044477,-0.4546511
0.891853,-0.2862861,-0.4720631
0.8936735,-0.3007264,-0.5070418
0.8786599,-0.2822392,-0.4390316
0.803198,-0.2966548,-0.3874472
0.7439905,-0.3031415,-0.3280142
0.6701027,-0.2589098,-0.3041815
0.5709132,-0.1882891,-0.3372297
0.5479019,-0.1153124,-0.3040724
0.5855723,-0.1203766,-0.3297101
0.5595328,-0.1252983,-0.3525215
0.5135836,-0.09890935,-0.2582053
0.51073,-0.1200673,-0.1573513
0.4729253,-0.124283,-0.04459429
0.4993037,-0.147713,-0.02230513
0.6695333,-0.2376257,-0.06358228
0.8987157,-0.2700848,-0.05253451
1.072795,-0.2408025,-0.1259793
1.122733,-0.231513,-0.1799912
1.246192,-0.2364898,-0.05964706
1.408013,-0.218553,0.03737414
1.398471,-0.1929988,-0.09688523
1.377962,-0.2258883,-0.3035143
1.356657,-0.3266335,-0.3375496
1.277709,-0.4653928,-0.3306483
1.242029,-0.5430351,-0.392608
1.201454,-0.4977845,-0.4552682
1.107486,-0.4881453,-0.4816144
0.8968008,-0.5352703,-0.4603879
0.6742508,-0.5472066,-0.4430486
0.7017796,-0.5688375,-0.4129409
0.8211547,-0.5127873,-0.4621896
0.8256281,-0.3850094,-0.5848441
0.8399201,-0.3358681,-0.5644358
0.8272711,-0.2820294,-0.5127181
0.7351202,-0.1970222,-0.4768547
0.6849308,-0.1430197,-0.3898615
0.6152177,-0.05152921,-0.361998
0.5771985,0.0678854,-0.3639208
0.6536606,0.1317396,-0.3984142
0.6970813,0.09565365,-0.4433608
0.7906943,-0.02979376,-0.4372346
0.9369905,-0.182026,-0.4716785
0.9794215,-0.2344057,-0.5318491
0.9573113,-0.1020661,-0.546259
0.8606307,0.0455838,-0.4640601
0.7596256,0.09336165,-0.3092017
0.751483,0.1223936,-0.1908696
0.8093085,0.1550572,-0.1295468
0.8953634,0.192211,-0.1382097
0.9487772,0.172066,-0.1910875
1.001453,0.1226532,-0.2560425
1.05325,0.1166674,-0.3184118
1.11133,0.04655032,-0.3272355
1.193361,-0.02767609,-0.3448289
1.233354,-0.07128634,-0.4144661
1.34962,-0.2174392,-0.5707945
1.583452,-0.3519486,-0.7948417
1.677799,-0.330675,-0.828603
1.383346,-0.1982084,-0.7095684
0.9673303,-0.1185909,-0.7003292
0.9675217,-0.2315779,-0.7117771
1.075766,-0.3590045,-0.6584442
0.9694074,-0.2991762,-0.5979969
0.9906692,-0.2455195,-0.5529901
0.9747413,-0.2853039,-0.5435349
0.8478561,-0.2658574,-0.4833604
0.8394258,-0.2729791,-0.3741692
0.7304864,-0.2788869,-0.3090881
0.6168552,-0.2257336,-0.2760476
0.600978,-0.256885,-0.2722419
0.487857,-0.2569972,-0.2365983
0.421347,-0.2177548,-0.1602793
0.4242704,-0.2228989,-0.1529706
0.4293909,-0.1841607,-0.2156346
0.5397165,-0.1606976,-0.3083308
0.7411145,-0.1536498,-0.3863684
0.9084191,-0.1890944,-0.4067847
0.8952009,-0.2903774,-0.3637227
0.80847,-0.3379545,-0.267973
0.7891699,-0.3569123,-0.1976974
0.7801319,-0.3332841,-0.2021047
0.865312,-0.2966565,-0.2301321
1.014409,-0.3235515,-0.2103429
1.039081,-0.3122962,-0.1391383
0.9675684,-0.2608407,-0.05502842
0.9171942,-0.2105932,0.0007751402
0.9471883,-0.1772624,-0.001091598
1.018209,-0.1705944,-0.02035077
1.107866,-0.1262553,-0.07711095
1.221384,-0.1059764,-0.1707132
1.26215,-0.1710979,-0.2177244
1.251996,-0.2910311,-0.2706628
1.256436,-0.4823331,-0.3768034
1.251117,-0.6196938,-0.4701153
1.253797,-0.5492231,-0.4500546
1.243233,-0.4677626,-0.3809851
1.172693,-0.5305662,-0.3933545
0.9546473,-0.52375,-0.348726
0.7074981,-0.4592753,-0.285833
0.7780151,-0.4622698,-0.3659697
0.9540555,-0.4000992,-0.5298358
0.9310805,-0.3427858,-0.7000411
0.9210284,-0.3576692,-0.6588314
0.8562434,-0.3397485,-0.4898442
0.6980563,-0.302119,-0.4345893
0.6901331,-0.258813,-0.3609671
0.6956527,-0.2516346,-0.3781377
0.6587629,-0.233106,-0.4634485
0.6701757,-0.1693656,-0.4251277
0.664651,-0.121026,-0.4449304
0.6811782,-0.004658558,-0.4405024
0.7236232,0.07196104,-0.387403
0.7832856,0.03630206,-0.4156904
0.8463663,0.04876993,-0.3989
0.9193184,0.04030917,-0.4237863
1.009126,-0.003088511,-0.4650786
0.9538282,0.02630056,-0.4147941
0.8570413,0.07274079,-0.3428395
0.8424933,0.1008072,-0.1905337
0.8173668,0.1140256,-0.08015907
0.8808539,0.09872059,-0.11815
1.014395,0.06402616,-0.2496131
1.160466,-0.02896361,-0.4590578
1.348036,-0.1876592,-0.5611921
1.43775,-0.2961263,-0.5444415
1.413371,-0.2843518,-0.5909217
1.343363,-0.1662845,-0.6848248
1.248055,-0.06103048,-0.7375214
1.156055,-0.1514988,-0.6791026
1.016367,-0.30611,-0.6073035
0.8962273,-0.3478636,-0.6872842
0.914584,-0.3809646,-0.7653172
0.9590911,-0.3564241,-0.7142031
0.9422318,-0.2558436,-0.6249845
0.9560952,-0.2384367,-0.4968954
0.9813531,-0.2494602,-0.4585306
0.9730198,-0.255932,-0.5671088
0.93173,-0.27506,-0.5690528
0.6938694,-0.2522768,-0.4087266
0.3876358,-0.225128,-0.2064253
0.3769068,-0.1870484,-0.1316756
0.4695375,-0.1538352,-0.2219688
0.4093733,-0.1365931,-0.2711315
0.4102654,-0.1117719,-0.3086743
0.4908896,-0.1511048,-0.324545
0.5126771,-0.1958861,-0.2377944
0.5630043,-0.2220659,-0.1949199
0.5958038,-0.2780473,-0.1280665
0.6436367,-0.3124588,-0.04086014
0.8977579,-0.3531148,-0.06539739
1.228221,-0.3574122,-0.1261341
1.416128,-0.3208399,-0.1934677
1.408468,-0.3328424,-0.1528145
1.376965,-0.343206,-0.03715091
1.417918,-0.3527803,-0.04442144
1.369993,-0.3415686,-0.1219585
1.278067,-0.3215913,-0.2780275
1.175647,-0.4123526,-0.4423213
1.066751,-0.5134837,-0.4874045
0.9948876,-0.5093982,-0.4886341
0.8704175,-0.4442666,-0.4535688
0.8534508,-0.354251,-0.4459588
0.9086329,-0.2621603,-0.4738533
0.8645252,-0.2018979,-0.4827746
0.883925,-0.2009418,-0.5163244
0.8722438,-0.2161694,-0.4874713
0.7848837,-0.2246495,-0.4189109
0.7643954,-0.2193371,-0.3927297
0.7509271,-0.1420455,-0.3984494
0.7301683,-0.02320898,-0.4336174
0.6585729,0.05331777,-0.4024967
0.5923965,0.04643364,-0.3423364
0.6292298,-0.01663228,-0.3114972
0.6840737,-0.08586107,-0.307572
0.776204,-0.1091332,-0.3707158
0.870368,-0.03093516,-0.3856141
0.9251176,0.06808837,-0.3549334
1.026783,0.1150073,-0.3262791
1.13569,0.1268049,-0.2817708
1.209802,0.1119067,-0.3325631
1.247355,0.1163864,-0.3954373
1.256168,0.09347252,-0.3876915
1.279375,-0.02346702,-0.390763
1.299304,-0.1436534,-0.3951791
1.283466,-0.1495245,-0.4663422
1.222302,-0.118432,-0.706044
1.170702,-0.2082768,-0.9549953
1.177644,-0.2859771,-0.8808025
1.145284,-0.2940738,-0.64599
1.025978,-0.3581593,-0.6159737
0.95713,-0.3340834,-0.6133225
0.9722966,-0.2037413,-0.5786451
0.948955,-0.1371394,-0.5391648
0.9135546,-0.1598693,-0.4358612
0.8827452,-0.2369661,-0.4357724
0.7471154,-0.2599096,-0.3715279
0.5665962,-0.2289876,-0.2301712
0.4468579,-0.1962901,-0.2103178
0.4251388,-0.1349288,-0.1875583
0.4717424,-0.1047689,-0.2414949
0.4686893,-0.1233978,-0.2830313
0.4810392,-0.1623913,-0.2131733
0.5439828,-0.2078357,-0.1695682
0.5916062,-0.2584171,-0.06092734
0.7248321,-0.3139353,-0.0242621
0.9341413,-0.3403709,-0.08516739
1.198265,-0.3614765,-0.0821117
1.431502,-0.313204,-0.09620987
1.451962,-0.2353983,-0.07465849
1.467409,-0.2890112,-0.04923779
1.513259,-0.3377887,-0.1028253
1.428419,-0.3422482,-0.1934572
1.362974,-0.3964904,-0.3173866
1.251858,-0.4526694,-0.4531805
1.046421,-0.5197951,-0.5964666
0.9647185,-0.5119275,-0.5845603
0.9530416,-0.4020542,-0.4499476
0.843401,-0.2771516,-0.4440595
0.7757881,-0.1510708,-0.4383277
0.8397274,-0.1748171,-0.4403362
0.8110192,-0.2496821,-0.5143726
0.7567041,-0.1924383,-0.4662426
0.7828588,-0.2098544,-0.4075731
0.7360472,-0.2312051,-0.39078
0.7344083,-0.1521936,-0.3770918
0.7403828,-0.1108169,-0.4328046
0.6480057,-0.03116655,-0.4062384
0.6323554,-0.01161866,-0.3537605
0.6829704,-0.07939939,-0.3522183
0.7665232,-0.07203391,-0.3387945
0.8365877,-0.05554061,-0.3788488
0.8360024,0.02582341,-0.3498227
0.8629914,0.1351306,-0.2759515
0.9049641,0.1391592,-0.2493073
0.954789,0.1279902,-0.2097358
1.040165,0.1270653,-0.2352377
1.080549,0.1178646,-0.2518483
1.030232,0.05710928,-0.2657427
0.9924094,-0.0518101,-0.3160392
1.048043,-0.1217608,-0.319249
1.114033,-0.1297593,-0.4949649
1.193266,-0.08919725,-0.8054422
1.248815,-0.09628526,-0.8798192
1.178746,-0.175464,-0.6972752
1.089796,-0.2575059,-0.5431951
1.030884,-0.2759811,-0.5689464
1.020013,-0.2296035,-0.6175298
1.092228,-0.2448183,-0.6427636
1.148632,-0.2835557,-0.6598135
1.166304,-0.2904394,-0.5864374
1.123519,-0.2860194,-0.5174824
1.003013,-0.2202463,-0.4920405
0.8875938,-0.1813531,-0.4459302
0.8013165,-0.1874731,-0.391432
0.741431,-0.1983214,-0.3476776
0.672762,-0.2241059,-0.3214047
0.6174533,-0.1875422,-0.3199538
0.6151448,-0.1526031,-0.3422389
0.568627,-0.1607748,-0.3145554
0.5109578,-0.1551362,-0.2517125
0.4990178,-0.1689139,-0.2146307
0.4856928,-0.1998814,-0.1709689
0.5139157,-0.2490813,-0.1435487
0.6170701,-0.2874655,-0.1095592
0.8137946,-0.2885195,-0.09597793
1.003747,-0.2895784,-0.1340933
1.073952,-0.2729452,-0.1187556
1.12578,-0.2510454,-0.07989107
1.155028,-0.2424656,-0.03699202
1.1523,-0.2474547,-0.03099046
1.16583,-0.285952,-0.1539615
1.134916,-0.3462547,-0.2957616
1.121695,-0.4106034,-0.3855631
1.131157,-0.4584374,-0.4602019
1.09466,-0.5071927,-0.5533838
1.04255,-0.5143537,-0.5503715
0.9178517,-0.4383499,-0.408416
0.7872949,-0.3798369,-0.3766037
0.8244932,-0.3328355,-0.4208785
0.9457894,-0.293941,-0.4846338
1.046113,-0.2809425,-0.6382079
1.133042,-0.2357432,-0.6624683
1.072509,-0.2367764,-0.5481269
0.9196798,-0.2160302,-0.4378087
0.9067334,-0.1419724,-0.3836352
0.895041,-0.1582049,-0.4013077
0.821863,-0.1554151,-0.3895921
0.782684,-0.143759,-0.3891152
0.7444638,-0.1660146,-0.3949407
0.7712054,-0.112777,-0.3741693
0.749768,-0.03993089,-0.372838
0.6565068,0.06213237,-0.3214201
0.6276568,0.1459877,-0.2859654
0.5996088,0.1381051,-0.301237
0.6498839,0.116587,-0.3112181
0.7405535,0.07533899,-0.3313522
0.7714272,0.05764306,-0.2994927
