accx,accy,accz
0.5523182,-0.1257202,0.2305961
0.7838001,-0.227117,0.2441071
0.855047,-0.3300477,0.3065896
0.9058479,-0.3244286,0.3640359
0.9723128,-0.3037059,0.4000363
0.9873697,-0.2398822,0.4113474
1.141536,-0.2237318,0.4007357
1.173357,-0.3184992,0.3616273
1.049721,-0.4477047,0.2225921
1.068987,-0.7237931,0.03738329
1.127984,-0.9225207,-0.08849057
1.150076,-0.7368747,-0.1224217
0.9748897,-0.5034538,-0.1467701
0.7556955,-0.5366304,-0.2201976
0.935727,-0.575969,-0.1895097
1.161366,-0.5270448,-0.1201455
1.125018,-0.5541607,-0.08843287
0.9718509,-0.4308822,0.0118395
0.695722,-0.1676176,0.006812984
0.526192,-0.03459143,-0.09397048
0.5733535,0.01139809,-0.1603313
0.6702849,-0.04601996,-0.2228238
0.8500446,-0.1436707,-0.2022503
0.974772,-0.2427159,-0.1937883
0.9249671,-0.3459356,-0.1662434
0.8553004,-0.2827723,-0.05113601
0.8018098,-0.1253674,-0.06190784
0.8531149,0.06057769,-0.1317475
1.016354,0.1467971,-0.1501237
1.143026,0.00344531,-0.1048359
1.279054,-0.07991568,-0.01611485
1.360139,-0.08050751,-0.03310977
1.369301,-0.1374522,-0.05937062
1.420886,-0.2034341,-0.08283665
1.387817,-0.2915647,-0.2209144
1.335866,-0.3041443,-0.3020783
1.374372,-0.3555002,-0.2660574
1.346915,-0.5652955,-0.2598476
1.248505,-0.6463075,-0.2956938
1.104291,-0.6048657,-0.2517102
1.002832,-0.5668868,-0.1029788
1.072239,-0.3784501,0.01523339
1.111013,-0.1908134,-0.01546883
1.024501,-0.2826327,-0.08746174
0.8883217,-0.4350911,-0.03528608
0.6595074,-0.4009522,-0.01082551
0.5434811,-0.3538888,-0.03550509
0.6500296,-0.317785,0.02023486
0.7195338,-0.2339864,0.01988821
0.7298884,-0.2069299,0.05509042
0.658638,-0.1450607,0.1744622
0.4829118,-0.1208827,0.1971568
0.4915168,-0.1946664,0.1702525
0.5820086,-0.2171035,0.1399231
0.6507184,-0.3362125,0.186504
0.8832001,-0.4541329,0.262533
0.9755753,-0.3333894,0.2493984
0.8946523,-0.2144745,0.2566483
0.969376,-0.2454983,0.2515577
1.0924,-0.2545632,0.2431382
1.210634,-0.2646005,0.2626972
1.274577,-0.4712694,0.2161337
1.25303,-0.7026985,0.09959005
1.292747,-0.7653212,-0.03790907
1.214603,-0.7345727,-0.02865166
0.998973,-0.6378269,0.003041833
0.9092234,-0.5772258,-0.1020673
0.9716823,-0.5669405,-0.1136664
1.101488,-0.5596119,-0.08663277
1.143241,-0.5105101,-0.0755824
1.054939,-0.3394381,-0.01814844
0.8566703,-0.1841628,-0.03008875
0.6224217,-0.09635174,-0.02734809
0.6196849,-0.1281581,-0.04810893
0.7323163,-0.2293277,-0.1438267
0.7985219,-0.20964,-0.1595037
0.9409432,-0.2600011,-0.1622884
0.9981569,-0.3103085,-0.1504025
0.9473608,-0.2319362,-0.07656501
0.9192037,-0.1910673,-0.04302162
0.8445964,-0.05858363,-0.05241153
0.8611503,0.06706102,-0.09425023
0.9950967,0.06241553,-0.122424
1.109193,0.05065594,-0.08208638
1.268142,-0.05315055,-0.03161447
1.366006,-0.1400748,-0.01157771
1.36278,-0.1312413,-0.02288448
1.379186,-0.1374882,-0.08009185
1.358076,-0.1562414,-0.1634181
1.359287,-0.2648699,-0.1924134
1.360821,-0.4387056,-0.2234067
1.277137,-0.5903064,-0.3154941
1.181741,-0.6901822,-0.2897083
1.031579,-0.6699766,-0.1246566
0.9396172,-0.5597774,0.02106652
1.004125,-0.426671,0.05219778
1.039263,-0.3834249,-0.04340646
0.9651199,-0.4297184,-0.09640878
0.8141649,-0.4086098,-0.07914934
0.6519723,-0.3408047,-0.07039617
0.6079017,-0.2803182,-0.0371624
0.7537158,-0.2443669,-0.06939837
0.8559677,-0.2477276,-0.07421669
0.7248442,-0.2102868,0.1156295
0.5842466,-0.1507028,0.279943
0.5694135,-0.1405369,0.2489152
0.7132375,-0.180909,0.2090007
0.9482497,-0.2790177,0.283174
1.028575,-0.3561774,0.3088166
1.015611,-0.3099778,0.31953
1.036844,-0.2393502,0.3952834
1.059998,-0.2568771,0.3837485
1.10177,-0.2933711,0.3536147
1.129503,-0.4178903,0.2339825
1.154378,-0.7244723,-0.03201406
1.213829,-0.9058641,-0.117384
1.230429,-0.791716,-0.0879265
1.156171,-0.7014816,-0.1498295
1.068688,-0.7266948,-0.188284
1.074393,-0.6363558,-0.1531969
1.094719,-0.5053538,-0.1324294
1.05785,-0.4761239,-0.1378636
1.045564,-0.3758495,-0.1183351
0.9327446,-0.1761766,-0.1300075
0.7693175,-0.1028851,-0.1433148
0.8144793,-0.1952023,-0.1624287
0.8494803,-0.256502,-0.2353176
0.7889726,-0.2505413,-0.224924
0.8248211,-0.306637,-0.1753223
0.8201619,-0.3720468,-0.119587
0.7526545,-0.3710767,-0.01472547
0.7050753,-0.2255573,0.003320035
0.6617161,0.05093308,-0.0500864
0.7021128,0.1822211,-0.110566
0.7666,0.1449954,-0.1444011
0.8611402,0.04313825,-0.08697056
1.062959,-0.08784163,-0.01702063
1.169382,-0.08992981,0.006476286
1.206793,-0.0511085,0.01679917
1.339691,-0.1003461,-0.003528537
1.432752,-0.1520604,-0.06747942
1.486347,-0.1969681,-0.09515789
1.520094,-0.1999804,-0.09433606
1.484782,-0.196111,-0.1420409
1.497641,-0.3516241,-0.1721264
1.455788,-0.5317148,-0.1424434
1.215467,-0.5221161,-0.08304885
0.9391379,-0.4532312,-0.0156371
0.8880642,-0.4340649,0.01226823
1.077935,-0.3994705,-0.02491121
1.157752,-0.3865377,-0.08497159
1.066951,-0.4546344,-0.09863973
0.9239917,-0.5209214,-0.09772307
0.7030439,-0.4981241,-0.09042702
0.6468106,-0.4081757,-0.06650852
0.6970866,-0.2731864,-0.109831
0.6640334,-0.1491092,-0.1321223
0.7003721,-0.1227697,-0.01559004
0.6370295,-0.1339078,0.1579452
0.4564906,-0.1250256,0.2511822
0.4170037,-0.1433124,0.2202929
0.4624303,-0.1801007,0.2081153
0.5774123,-0.2519218,0.2528212
0.7164139,-0.3622591,0.2730753
0.7632678,-0.3743859,0.3052237
0.8235229,-0.3034947,0.3394436
0.9586588,-0.2799974,0.3686539
1.054605,-0.2609398,0.3952664
1.140901,-0.2392632,0.388733
1.322139,-0.2633615,0.3752393
1.40337,-0.3622053,0.2696636
1.414697,-0.5944428,0.1090153
1.476275,-0.7558279,0.08244136
1.191305,-0.6841415,0.05209912
0.7712155,-0.6590284,-0.06032454
0.8089294,-0.7459695,-0.08544705
1.023321,-0.7520624,-0.1079828
1.123417,-0.7293709,-0.1738911
1.157564,-0.6097051,-0.1367299
1.006369,-0.3204614,-0.07247959
0.7782038,-0.1424159,-0.06915646
0.699692,-0.07701559,-0.08355299
0.6798138,0.0513981,-0.1306328
0.6614752,0.01614828,-0.166383
0.6959023,-0.1537129,-0.1496784
0.7471121,-0.1592685,-0.1214197
0.833347,-0.1843758,-0.1007141
0.9132944,-0.2589942,-0.1326097
0.9352115,-0.1817979,-0.1855181
0.9439341,-0.1322251,-0.1815545
0.9371688,-0.06469639,-0.1688579
0.9591903,0.02280271,-0.1629515
1.065847,-0.06779761,-0.1262225
1.272659,-0.0936954,-0.06942862
1.436287,-0.05918621,-0.02242993
1.400285,-0.1034338,-0.03368722
1.395753,-0.1595772,-0.06808174
1.448442,-0.3380706,-0.07289416
1.372412,-0.4682924,-0.1185799
1.345856,-0.4367765,-0.197426
1.359074,-0.4845182,-0.2398024
1.316365,-0.5811382,-0.2743909
1.252996,-0.5891941,-0.2707703
1.036369,-0.5630757,-0.1539813
0.8819068,-0.5158768,-0.007985841
0.984109,-0.3731273,-0.00119753
1.02972,-0.273673,-0.07597843
0.9569484,-0.3303569,-0.07511604
0.8542122,-0.4039975,-0.06319849
0.6671483,-0.4411766,-0.04936629
0.5883848,-0.4004253,-0.01371074
0.7028651,-0.2907755,-0.03558427
0.722866,-0.2194834,-0.01875188
0.6051298,-0.1639404,0.07102462
0.5228009,-0.1354849,0.182651
0.5134829,-0.1553205,0.2657781
0.6275292,-0.2159355,0.1993522
0.7501053,-0.3521747,0.1598538
0.7944813,-0.4316854,0.2773965
0.914454,-0.3833173,0.3510858
0.996405,-0.2997196,0.3457158
0.9674688,-0.1748765,0.3335727
1.05774,-0.1442652,0.3218746
1.197589,-0.2778819,0.27962
1.216865,-0.3942763,0.1926087
1.293371,-0.5882727,0.09682309
1.423753,-0.8152048,0.00561483
1.29308,-0.7059995,0.04615482
0.9375191,-0.4612145,0.1271885
0.7141025,-0.4464557,-0.03273136
0.839033,-0.4792737,-0.191463
1.079938,-0.4958717,-0.1404585
1.085052,-0.5501788,-0.06096748
1.006214,-0.42843,0.0357119
0.901968,-0.1881485,0.08047392
0.7071958,-0.01973818,0.02209756
0.6803038,0.01963039,-0.01141922
0.7144195,-0.07608188,-0.0637015
0.6908988,-0.1401559,-0.1286757
0.7611337,-0.1882117,-0.1402922
0.8322182,-0.2322125,-0.1467263
0.9264374,-0.2162037,-0.1461103
1.032676,-0.2548044,-0.1463971
1.023565,-0.2226247,-0.1460006
0.9974879,-0.1282779,-0.1223697
1.007622,-0.07928487,-0.1075739
1.039591,0.02503209,-0.09999533
1.137482,0.0470927,-0.08247082
1.31269,-0.02336738,-0.05958296
1.431803,-0.06454665,-0.04372638
1.417829,-0.1286624,-0.02579689
1.370692,-0.21639,-0.0139312
1.333166,-0.3416628,-0.07556465
1.375012,-0.4518934,-0.1718355
1.437409,-0.5111404,-0.2255985
1.391825,-0.5637209,-0.2874167
1.318447,-0.5934488,-0.3360206
1.14412,-0.594262,-0.201825
0.9173399,-0.5189339,0.05211186
0.9186844,-0.4186571,0.09135352
1.003744,-0.3705191,-0.05796371
0.9616986,-0.3761725,-0.1409822
0.8472129,-0.4633187,-0.1590112
0.6443471,-0.5018775,-0.0961921
0.4836509,-0.4457222,0.0003452664
0.5265794,-0.3726865,0.01931901
0.6200466,-0.2904957,0.02790702
0.6538836,-0.2323167,0.05945923
0.577699,-0.1540059,0.1413163
0.4664476,-0.108762,0.2141744
0.5660733,-0.1553238,0.1634312
0.6881813,-0.2452095,0.1295982
0.6757298,-0.3943813,0.2238573
0.7548828,-0.4392854,0.3146339
0.872241,-0.3260749,0.3091269
0.941321,-0.2326939,0.3046574
1.019518,-0.1905989,0.3329834
1.108934,-0.2173532,0.3250799
1.187138,-0.2692119,0.3190043
1.171093,-0.2941978,0.2871429
1.208299,-0.4403766,0.1952347
1.460317,-0.7725192,0.1289489
1.598308,-1.003547,0.08740242
1.215214,-0.7970135,0.04993288
0.7497329,-0.5591253,0.03108862
0.8590114,-0.7914807,-0.05011083
0.980415,-0.9548589,-0.1773403
0.9287762,-0.8269205,-0.1753809
1.178909,-0.7696702,-0.1269008
1.061492,-0.5404751,-0.1527512
0.7532177,-0.2400799,-0.1378417
0.9010995,-0.109681,-0.1730543
0.8651568,0.03961406,-0.2708947
0.8021139,-0.04991465,-0.2715892
0.8796423,-0.3277375,-0.2381961
0.7772759,-0.4413384,-0.1808976
0.8610958,-0.4658146,-0.1470358
0.9557033,-0.3765862,-0.1778477
0.9427073,-0.2510836,-0.193605
0.9870022,-0.1638017,-0.2386262
0.9181533,-0.05929181,-0.2260716
0.8826345,-0.08211355,-0.1368155
0.8502914,-0.0934113,-0.08975765
0.8144367,0.04241962,-0.04481065
0.8619051,0.1150198,-0.01562046
0.8988468,0.08265936,0.00157764
1.047444,0.04812669,0.04050076
1.167032,0.06677863,0.1130801
1.249816,0.05974471,0.1690598
1.43619,0.0001719136,0.1171423
1.507638,-0.04228273,0.09050431
1.514036,-0.1701899,0.07351186
1.474832,-0.2846953,-0.02441995
1.388197,-0.2671279,-0.05278282
1.426619,-0.3074606,-0.03060162
1.423474,-0.4098235,-0.04902827
1.334505,-0.5043303,-0.119179
1.203197,-0.5672246,-0.1792832
0.9723975,-0.5163892,-0.09648075
0.9195028,-0.3893233,0.03934089
1.079175,-0.2393894,0.06813588
1.113646,-0.1481483,-0.006361722
0.9842244,-0.1756934,-0.07920383
0.7903923,-0.2098476,-0.07090757
0.6087396,-0.210187,-0.03780536
0.5770337,-0.2177916,-0.02138015
0.6673861,-0.202159,0.008339404
0.6975416,-0.1917119,0.07492115
0.5771363,-0.2059258,0.2034778
0.4787645,-0.2098418,0.3031963
0.5976843,-0.2546115,0.2407493
0.762096,-0.3375005,0.1824914
0.8471939,-0.4218892,0.3025209
0.9748796,-0.4812435,0.3923439
1.064935,-0.4374742,0.3726553
1.079474,-0.358217,0.3915676
1.131562,-0.3266211,0.4073263
1.133799,-0.3621249,0.3609688
1.076816,-0.495837,0.2448187
1.045702,-0.6483399,0.04526667
0.9979479,-0.7812466,-0.09421459
0.9893621,-0.8303179,-0.0680313
0.9880126,-0.7362718,-0.05036248
0.9395428,-0.6332094,-0.1339075
1.007733,-0.5539933,-0.1873931
1.084648,-0.5035157,-0.2242309
1.025311,-0.4462145,-0.1834538
0.945101,-0.2430044,-0.01587204
0.7844617,-0.06561541,0.03791723
0.6060258,-0.04553724,0.00675124
0.6111971,-0.06231404,-0.03297815
0.6898103,-0.1060393,-0.1368525
0.7524407,-0.1563065,-0.1726313
0.8339213,-0.2217749,-0.170971
0.8607897,-0.3090879,-0.1651809
0.8410624,-0.3269549,-0.1202794
0.8513544,-0.2782539,-0.1050864
0.8678248,-0.1723121,-0.1097339
0.9425158,-0.04942017,-0.1370939
1.133926,0.0174138,-0.1392421
1.323102,0.02329825,-0.1171697
1.424529,-0.04633668,-0.1056397
1.454051,-0.1353193,-0.05192415
1.444939,-0.1969391,-0.0556219
1.424859,-0.2685277,-0.1464457
1.39883,-0.3460429,-0.221353
1.397415,-0.4205794,-0.2307277
1.390534,-0.5263116,-0.2424705
1.281397,-0.6437413,-0.316805
1.076022,-0.6655104,-0.2466022
0.9098034,-0.5983944,-0.05049745
0.8941129,-0.4883948,0.03407617
0.9491506,-0.3522091,0.01432473
0.9665389,-0.316673,-0.06314748
0.9269396,-0.3401041,-0.08926623
0.743253,-0.3180095,-0.05850639
0.5378571,-0.3144862,-0.06221408
0.5861209,-0.2904212,-0.03126142
0.6653845,-0.2226345,0.0380356
0.5830311,-0.2013392,0.1540832
0.6048691,-0.2166246,0.2310605
0.6521323,-0.2081834,0.1766399
0.6454952,-0.1918066,0.1445891
0.7688334,-0.2208444,0.1548775
0.8610831,-0.2972521,0.2213285
0.890948,-0.3452461,0.3322314
0.8653388,-0.2574247,0.3153152
0.7515417,-0.137273,0.2875415
0.8345077,-0.1902012,0.3235681
0.9663057,-0.3469381,0.2356525
1.055922,-0.5974903,0.06386635
1.313883,-0.9292215,-0.02193791
1.408212,-0.9876939,-0.001883341
1.199388,-0.7608244,-0.01425949
0.9690165,-0.5591088,-0.1424225
0.9231673,-0.4420741,-0.2212299
1.038765,-0.4202342,-0.2005732
1.074079,-0.4490349,-0.135613
1.042842,-0.4304682,0.004419284
0.9379669,-0.3145318,0.05764672
0.7248659,-0.1263688,0.01467625
0.6111912,-0.06477075,-0.005248624
0.5946059,-0.1252418,-0.08426782
0.6202517,-0.150379,-0.1244117
0.721475,-0.1881512,-0.121492
0.8791052,-0.2416869,-0.1771691
0.9951693,-0.2751592,-0.1716787
0.9596823,-0.2912407,-0.1472494
0.9141094,-0.2068393,-0.1579098
0.9342224,-0.07233672,-0.1556795
0.9929831,-0.02239627,-0.1802911
1.170939,0.001295377,-0.2031388
1.325107,0.01547627,-0.1990045
1.362884,-0.05469503,-0.1779135
1.428446,-0.1658303,-0.130951
1.464977,-0.2850131,-0.1056133
1.392359,-0.3715345,-0.147372
1.350489,-0.4067135,-0.1991592
1.381594,-0.4642164,-0.2011296
1.403308,-0.5243611,-0.2310714
1.390514,-0.5497598,-0.2774523
1.252392,-0.5282119,-0.235784
1.004581,-0.4731342,-0.1615304
0.9156128,-0.4345138,-0.09513756
0.9809168,-0.3662063,-0.04155414
0.9617481,-0.2722027,-0.02016579
0.9272481,-0.2465267,-0.01146886
0.8933442,-0.3365965,-0.04787239
0.6723358,-0.4441016,-0.06586673
0.4778345,-0.4304599,-0.03997034
0.5578514,-0.3734678,-0.04777788
0.6455072,-0.3190017,-0.02905043
0.6040552,-0.2462172,-0.006083715
0.580715,-0.215895,0.03515949
0.5479707,-0.2121495,0.1660804
0.5767042,-0.2338241,0.2290386
0.7326311,-0.286139,0.2058103
0.8360553,-0.3778745,0.2374734
0.8959044,-0.448363,0.3109954
0.9496055,-0.3716899,0.3432417
0.9868301,-0.2732732,0.3460323
1.08151,-0.2259204,0.3711072
1.137431,-0.2077671,0.3504694
1.209451,-0.3327189,0.2627896
1.370011,-0.5473668,0.1452273
1.406509,-0.6721843,0.05782464
1.22812,-0.5888356,0.06844671
0.891332,-0.4599146,0.01665561
1.228004,-0.3138728,0.3429084
1.19238,-0.4432184,0.2337209
1.182312,-0.7964264,0.07232716
1.252938,-1.089039,-0.0222999
1.24478,-0.9315384,-0.02032174
0.9744785,-0.6676192,-0.06220063
0.6633741,-0.6261776,-0.1279179
0.7372113,-0.5047909,-0.1091982
0.9988489,-0.2745763,-0.10199
1.028349,-0.1748794,-0.1421807
0.9155219,-0.1248292,-0.1108398
0.7243168,-0.1573857,-0.07332418
0.6066873,-0.2330286,-0.07589614
0.6571389,-0.2712038,-0.1094937
0.6648403,-0.3327366,-0.1837123
0.8163688,-0.3201575,-0.1799907
1.015476,-0.3627227,-0.1773065
0.956792,-0.3983826,-0.2112156
0.9145074,-0.2061325,-0.1391515
0.9446124,0.04465114,-0.09222037
0.9580657,0.2279068,-0.1142106
1.092326,0.1371761,-0.09892595
1.326378,-0.07806323,-0.05777695
1.433524,-0.1024921,-0.00723304
1.38404,-0.135453,-0.00542272
1.416356,-0.184846,-0.03557999
1.429419,-0.3034349,-0.1304365
1.362693,-0.4264479,-0.3423295
1.407181,-0.3555532,-0.4402473
1.394629,-0.4489817,-0.3878926
1.212679,-0.651662,-0.3348395
1.000304,-0.7071388,-0.1814635
0.9173611,-0.6689314,-0.03237238
0.9905947,-0.417822,-0.09099448
0.9552077,-0.1949409,-0.1443524
0.7680487,-0.2745503,-0.09603855
0.5878004,-0.3696588,-0.09843962
0.5238955,-0.3015907,-0.08640414
0.6951601,-0.2962254,-0.07165318
0.7929283,-0.3380625,-0.08216148
0.5720173,-0.2691269,0.06272191
0.3697052,-0.2755657,0.2359756
0.3978326,-0.2712525,0.2351714
0.5939136,-0.2213203,0.2059817
0.7989336,-0.3233172,0.2565922
0.8838883,-0.3642026,0.3181104
0.9579195,-0.3260748,0.3349987
1.066821,-0.2810974,0.3533553
1.09847,-0.2198819,0.3986432
1.098746,-0.2908814,0.4055352
1.199429,-0.4331771,0.30032
1.367152,-0.6280447,0.1097025
1.443596,-0.7420975,0.01727417
1.172583,-0.5960509,0.03168421
0.7300135,-0.4889762,-0.02421047
0.7122192,-0.5847522,-0.1380251
0.9401526,-0.6539622,-0.1721571
1.057815,-0.6210703,-0.1040634
1.12891,-0.536718,-0.04962629
0.9432554,-0.2749498,-0.02614749
0.6692841,0.03099424,-0.002553531
0.6263104,0.04749496,-0.036891
0.6383312,-0.09305451,-0.09832822
0.6686954,-0.1781758,-0.1612607
0.7483532,-0.2061214,-0.2138216
0.8503295,-0.2100326,-0.2069306
0.9370834,-0.2483364,-0.2001321
0.9472105,-0.2525508,-0.2065014
0.964361,-0.1450152,-0.1642215
1.008637,0.0006811481,-0.1226358
1.070534,0.08023902,-0.1397983
1.199489,0.09916353,-0.1534972
1.360531,0.06951374,-0.1297277
1.461886,-0.05121463,-0.1197194
1.508555,-0.2152773,-0.09954785
1.534969,-0.3718422,-0.07657949
1.425163,-0.4287212,-0.1401295
1.308421,-0.3907783,-0.2126009
1.35117,-0.4365938,-0.2177974
1.330275,-0.475422,-0.2944122
1.244636,-0.4449599,-0.3999971
1.156933,-0.4473778,-0.3076812
0.988582,-0.3849788,-0.11517
0.9285646,-0.2756116,-0.01782196
0.9703062,-0.2384374,-0.008970005
0.90545,-0.2935671,-0.05001129
0.7616946,-0.3927511,-0.05891807
0.5975514,-0.416194,-0.06177652
0.5352948,-0.3614897,-0.0920922
0.6494914,-0.2874306,-0.06966439
0.699406,-0.2572119,-0.05667203
0.5983182,-0.254097,0.02997792
0.5446861,-0.2111395,0.2247808
0.5844292,-0.2085986,0.2752145
0.679747,-0.2398785,0.2138949
0.8153048,-0.3100631,0.2096806
0.9316161,-0.4087133,0.284684
1.016653,-0.3707008,0.3638123
1.071717,-0.2471611,0.3608294
1.063276,-0.1473987,0.3484662
1.034364,-0.1499584,0.3436116
1.034901,-0.3064329,0.2897455
0.9948394,-0.5307795,0.1781779
0.9551114,-0.8079536,0.05303547
0.9750976,-0.9136699,-0.01802932
0.9228316,-0.669579,-0.07368681
0.7930717,-0.4495759,-0.1205583
0.7090136,-0.450809,-0.1612121
0.7670729,-0.4518047,-0.2149131
0.952602,-0.4395128,-0.199492
1.096817,-0.4861632,-0.1461732
1.075895,-0.4090402,-0.1264743
0.8600246,-0.2006494,-0.07549086
0.6497413,-0.07721582,-0.03029944
0.6465996,-0.07523558,-0.1177093
0.7315251,-0.1653601,-0.2384938
0.7904532,-0.2577077,-0.2399082
0.8273855,-0.3171411,-0.1928003
0.87613,-0.3551125,-0.1553202
0.8902156,-0.2607129,-0.1204308
0.8622058,-0.1466151,-0.1353579
0.8985988,-0.04469435,-0.1709035
0.9175784,0.09809733,-0.1682011
0.9088663,0.03668252,-0.1337852
0.9695743,-0.09944992,-0.0726588
1.085123,-0.04893403,-0.01396464
1.237985,-0.01130179,0.01889812
1.336182,-0.03333677,0.02719879
1.426965,-0.0611782,-0.004989895
1.558775,-0.1927063,-0.02962713
1.57401,-0.2679952,-0.03383475
1.526061,-0.2353057,-0.05544742
1.501604,-0.293845,-0.07989055
1.446741,-0.3764406,-0.1357658
1.346067,-0.4027423,-0.1837799
1.115164,-0.3886789,-0.1731988
0.898115,-0.3572769,-0.1444752
0.9979085,-0.40266,-0.08061422
1.154059,-0.4811939,-0.0472339
1.097694,-0.5721131,-0.09271953
1.024748,-0.6580639,-0.1159368
0.8801617,-0.6403445,-0.1044427
0.749619,-0.5197428,-0.103015
0.8357134,-0.2983882,-0.1126963
0.8237579,-0.08810096,-0.1131146
0.6927153,0.0254829,-0.07559442
0.5579367,0.07221882,0.05630776
0.3882405,-0.0300383,0.2387024
0.4220334,-0.1862674,0.2634839
0.5213961,-0.2804035,0.1875906
0.5549515,-0.3562787,0.2078619
0.6925628,-0.3538689,0.2340675
0.7959133,-0.3117517,0.2561912
0.897486,-0.2753961,0.3289688
1.083154,-0.2458935,0.3641016
1.24179,-0.2979652,0.4004586
1.381167,-0.3299875,0.4120914
1.402111,-0.2926073,0.3149964
1.320522,-0.3024975,0.2118064
1.30179,-0.413255,0.1532413
1.267067,-0.5638481,0.1294791
1.06275,-0.5900851,0.06250286
0.7478853,-0.556143,-0.07799839
0.6776768,-0.627767,-0.1254456
0.910396,-0.6860428,-0.1285781
1.113016,-0.6584789,-0.1623622
1.20721,-0.6083018,-0.1399305
1.077499,-0.4260081,-0.1112254
0.8000982,-0.09934927,-0.07428714
0.7481678,0.04835955,-0.0561029
0.7646275,-0.02642264,-0.1067613
0.7297862,-0.06436168,-0.121038
0.7294226,-0.1260787,-0.09699789
0.6771331,-0.1890182,-0.05800433
0.7223804,-0.1363949,-0.02883271
0.8401946,-0.1254427,-0.0821779
0.9003923,-0.08303409,-0.1656631
0.9543139,0.03301966,-0.1998622
0.9336379,0.05882626,-0.1656975
0.9426293,0.06950828,-0.1311641
1.029633,0.07060843,-0.1383306
1.106194,0.02685362,-0.1165774
1.205406,-0.01856731,-0.06671999
1.300217,-0.09785937,-0.03165643
1.468806,-0.1798286,-0.03596856
1.635438,-0.2799008,-0.09056251
1.620482,-0.3835699,-0.1535663
1.558631,-0.4271063,-0.1903816
1.488701,-0.4601126,-0.1975891
1.392697,-0.4707879,-0.2444945
1.295928,-0.4645579,-0.3463381
1.140461,-0.4658027,-0.3686247
1.02399,-0.4242288,-0.2934671
1.002706,-0.3556756,-0.2059887
0.9801576,-0.2339827,-0.08974435
0.9299773,-0.110424,0.01724038
0.8800257,-0.2007309,-0.06002527
0.7881711,-0.3503533,-0.2082249
0.6257969,-0.3009877,-0.1492799
0.5786974,-0.2861635,-0.09369115
0.7052483,-0.3546241,-0.1101195
0.769442,-0.3116431,0.02967532
0.6774448,-0.2527084,0.1219319
0.5747224,-0.1491299,0.1592244
0.579552,-0.04825117,0.2193187
0.6069435,-0.1269297,0.1742496
0.6576013,-0.2685585,0.2343744
0.8303038,-0.4293137,0.3591994
0.9926804,-0.4588388,0.3813942
1.059892,-0.2654571,0.3754735
1.087589,-0.1630781,0.338107
1.16062,-0.1906118,0.3578492
1.259409,-0.3058342,0.3386631
1.243219,-0.5765502,0.1985375
1.287669,-0.8145053,0.1182929
1.324732,-0.8123671,0.1026255
0.9279005,-0.5720162,0.03389677
0.5303123,-0.3940004,-0.1250979
0.7355572,-0.4462618,-0.1391004
1.061541,-0.5216877,-0.05223841
1.092965,-0.5150178,-0.1040182
1.089019,-0.4150274,-0.05075786
0.955562,-0.211624,-0.000674775
0.7134729,-0.04042604,-0.06966396
0.6895287,-0.04144146,-0.03505072
0.6914918,-0.09731212,-0.07904823
0.6866357,-0.08904138,-0.1406668
0.7766938,-0.1390262,-0.1284812
0.8305922,-0.2372451,-0.1801345
0.8935606,-0.3056605,-0.1598491
0.9262371,-0.3145278,-0.1279855
0.9476743,-0.2000303,-0.1446079
0.9592694,-0.05612812,-0.1311641
0.9406284,0.01447048,-0.132772
1.057778,0.02769485,-0.1076597
1.189434,0.03873261,-0.07533436
1.262681,0.02937658,-0.07178552
1.315193,-0.05298337,-0.05083101
1.326299,-0.1702339,-0.04035073
1.36735,-0.3343532,-0.09794163
1.35133,-0.4380863,-0.2025074
1.349557,-0.4075196,-0.2610232
1.44414,-0.4295159,-0.2765065
1.47737,-0.4949171,-0.2956432
1.370827,-0.5599767,-0.2982648
1.120384,-0.6267977,-0.2399026
0.9382263,-0.5118372,-0.1126181
0.9364846,-0.3297705,-0.03721889
0.964972,-0.3342899,-0.06848052
0.9512295,-0.4284522,-0.08363113
0.8247047,-0.4957909,-0.05580387
0.6383575,-0.5009313,-0.05772024
0.5728747,-0.4103651,-0.05667088
0.6850002,-0.29314,-0.02698062
0.7614802,-0.1921764,0.01831911
0.6377362,-0.1437449,0.1233011
0.5652963,-0.1516656,0.1991152
0.618428,-0.127274,0.1650199
0.634079,-0.1179754,0.1484453
0.6475728,-0.2125404,0.1807669
0.6723121,-0.3616657,0.2235238
0.7185013,-0.4274608,0.3071151
0.8243043,-0.3478209,0.3521809
0.921727,-0.2277708,0.3152398
0.9757214,-0.1113417,0.3137751
1.056894,-0.08159309,0.3335882
1.165142,-0.2212733,0.3051883
1.228735,-0.3954902,0.2737459
1.298077,-0.6029178,0.2132068
1.375496,-0.8117467,0.1558005
1.303534,-0.8476238,0.1551631
0.9497763,-0.8120578,0.1297759
0.5481691,-0.8266496,0.08396252
0.5842112,-0.847711,0.01485055
0.8738453,-0.8263836,-0.080887
1.014722,-0.7301099,-0.1431166
1.120392,-0.5463508,-0.2070819
1.051979,-0.2935296,-0.229288
0.8627758,-0.1186434,-0.167019
0.8851735,-0.08667073,-0.1343813
0.868708,-0.1002509,-0.1873594
0.8470946,-0.1581535,-0.2382913
0.9275052,-0.2847041,-0.1996674
0.8852796,-0.3897477,-0.161368
0.8935667,-0.3685922,-0.1500945
0.906196,-0.3232002,-0.1083215
0.8647862,-0.2822994,-0.1664175
0.9288584,-0.1537826,-0.252615
0.9594391,-0.1393219,-0.2007563
0.9870355,-0.1532719,-0.1667314
0.9863397,0.02017862,-0.1763024
0.9291456,0.1044437,-0.1356076
0.9393614,0.07848163,-0.10985
0.9481158,0.05749128,-0.05919953
1.041108,-0.0136902,0.02378327
1.169504,-0.02107719,0.03660543
1.18987,-0.01787054,0.03529141
1.240462,-0.04984507,0.04617538
1.342365,-0.05024036,0.01488827
1.423194,-0.100205,-0.02798867
1.435177,-0.1596793,-0.05675367
1.404165,-0.211452,-0.04112769
1.39185,-0.3447315,-0.01591223
1.36444,-0.5224164,-0.0682225
1.285362,-0.5957233,-0.1801642
1.128449,-0.4563745,-0.2584483
0.9877126,-0.2785312,-0.1428866
0.961512,-0.2288689,0.02766436
1.010749,-0.1955879,-0.03410656
1.038951,-0.1636529,-0.09602296
0.9450085,-0.2123688,-0.06301159
0.7942326,-0.2591787,-0.1083334
0.6771382,-0.2516006,-0.05808212
0.6507287,-0.2462496,0.02963437
0.7496568,-0.2320573,0.03436328
0.7859401,-0.2093543,0.1071144
0.6540699,-0.2245534,0.1841085
0.5443512,-0.2464577,0.2490045
0.6101114,-0.2482719,0.2708456
0.6847997,-0.2566651,0.1942758
0.648509,-0.2741244,0.2039687
0.7051844,-0.2980951,0.2666978
0.838667,-0.3245909,0.3163398
0.9273099,-0.3073828,0.3643605
0.9982163,-0.2603945,0.337525
1.009462,-0.2562492,0.3502583
1.060136,-0.2910224,0.3703394
1.185577,-0.387666,0.2889898
1.339043,-0.5828856,0.167818
1.478254,-0.7469519,0.05242921
1.334196,-0.7148743,0.06461884
0.948229,-0.5245213,0.04774925
0.6357114,-0.41629,-0.103167
0.6442986,-0.5477489,-0.09449235
0.9351453,-0.736981,-0.06215938
1.070014,-0.7239039,-0.1140685
1.075898,-0.5340791,-0.06551512
1.010644,-0.2569826,-0.0641628
0.8384996,-0.04890684,-0.08648413
0.9008774,-0.1287079,-0.05967983
0.8788098,-0.2007823,-0.09146353
0.7259951,-0.1197382,-0.1085285
0.8384474,-0.1835705,-0.1409063
0.8577951,-0.1894166,-0.1756291
0.8112426,-0.1270814,-0.1438948
0.8611916,-0.2190197,-0.131631
0.8563536,-0.2296927,-0.1170374
0.9266637,-0.1961467,-0.1282029
1.001559,-0.155602,-0.179007
1.012824,-0.008064969,-0.1843419
1.038674,0.0530778,-0.1683712
1.138167,0.02880646,-0.1229703
1.341132,0.01158563,-0.0720566
1.489701,-0.02372497,-0.08052092
1.524097,-0.137908,-0.1283082
1.502918,-0.3234254,-0.2135639
1.502887,-0.4634844,-0.2909177
1.496467,-0.5832078,-0.2888359
1.396744,-0.6334164,-0.3054605
1.296761,-0.6022172,-0.425943
1.195921,-0.5843412,-0.4676266
1.006992,-0.4742954,-0.2958486
0.8115364,-0.3031866,-0.06354284
0.7911907,-0.2150806,0.008237927
0.8537199,-0.2499699,-0.08885541
0.7715916,-0.3719659,-0.1505912
0.6594477,-0.4569047,-0.1568849
0.6032245,-0.4462292,-0.1513903
0.67498,-0.365553,-0.06961864
0.8093644,-0.2680999,0.04837752
0.6888029,-0.1426644,0.250867
0.5921457,-0.08632824,0.4068381
0.6933184,-0.1497101,0.3031634
0.7429519,-0.1512022,0.2226527
0.9140267,-0.2613628,0.2729245
1.109356,-0.4741443,0.2948786
1.062265,-0.4532868,0.3478753
0.9388163,-0.382354,0.3689744
0.8407863,-0.3916968,0.357323
0.8092705,-0.3964778,0.3896684
0.8456441,-0.4358052,0.3097911
0.8602072,-0.4972259,0.1352868
0.8948799,-0.6335948,-0.04409424
1.013585,-0.7391718,-0.2227212
1.109991,-0.6623795,-0.2490351
0.9921269,-0.5453512,-0.1706315
0.8594827,-0.4512819,-0.1470785
1.035344,-0.3611413,-0.1363265
1.205212,-0.3663779,-0.08508162
1.118896,-0.3372184,0.009408954
0.9699408,-0.1338585,0.0484813
0.7577023,0.007673,5.863048e-05
0.6101241,-0.008512352,-0.04728218
0.6375271,-0.0870123,-0.1071923
0.6414856,-0.2012925,-0.1442752
0.7129147,-0.2479252,-0.1305167
0.8721251,-0.2587691,-0.1189894
0.9291841,-0.2705314,-0.09418279
0.9412382,-0.2065491,-0.08254133
0.9631383,-0.09278761,-0.1069004
1.004637,0.02691926,-0.1443371
1.076942,0.05370236,-0.1880037
1.213574,-0.02677535,-0.1806271
1.422935,-0.1082388,-0.1473707
1.534027,-0.1744467,-0.1340606
1.545347,-0.2318749,-0.06646159
1.541327,-0.2809806,-0.02995025
1.459593,-0.3159483,-0.1381349
1.370117,-0.3549935,-0.2264326
1.358985,-0.3688469,-0.2008645
1.33348,-0.3601177,-0.2207294
1.227111,-0.4706353,-0.3300149
1.096068,-0.5659726,-0.3313831
0.950003,-0.464106,-0.157721
0.8585228,-0.3637914,-0.01279856
0.9195818,-0.343818,-0.02453479
0.9699466,-0.28419,-0.05015562
0.9320531,-0.2828482,-0.00751988
0.7951324,-0.3942782,-0.04465217
0.5547223,-0.4348326,-0.08602987
0.5307396,-0.3992565,-0.04200518
0.6619351,-0.3461183,-0.05231241
0.6256463,-0.2091683,0.0113791
0.5471536,-0.1017766,0.1731786
0.5174196,-0.1220286,0.2334962
0.6328964,-0.2138542,0.2083078
0.8278177,-0.3263425,0.1783219
0.7948005,-0.383977,0.2132913
0.8309381,-0.3624109,0.258158
1.067324,-0.3416083,0.3259147
1.100339,-0.3600525,0.4229049
1.023722,-0.3194331,0.3931143
1.005933,-0.2810914,0.3716286
0.9609497,-0.4063902,0.3210583
0.9540615,-0.6306975,0.1414359
1.092078,-0.7674723,0.0762296
1.200223,-0.6077727,0.03563856
0.891848,-0.3808833,-0.046402
0.5680446,-0.4302493,-0.07280259
0.8534413,-0.5124534,-0.1296841
1.177355,-0.5551847,-0.1257309
1.119894,-0.5943429,-0.07134814
1.004278,-0.4110284,-0.04715101
0.8113075,-0.1402427,0.01790357
0.6649482,0.00968939,0.02308476
0.7146531,0.01354577,-0.03866994
0.7097789,-0.06792363,-0.08848043
0.7048561,-0.1101986,-0.1313846
1.414759,-0.7358276,0.1875977
1.521912,-0.8789626,0.1554116
1.174628,-0.6368175,0.1089703
0.7179742,-0.413108,-0.03450853
0.8081472,-0.5142489,-0.1226817
1.015658,-0.5286216,-0.179434
1.003782,-0.4514388,-0.1505251
1.150338,-0.4722302,-0.02116735
1.041587,-0.3391216,0.008041418
0.6840461,-0.1255682,0.0127948
0.6188801,-0.05636501,0.01248319
0.5988543,-0.108317,-0.06507896
0.6091934,-0.1901634,-0.1390691
0.6960844,-0.1788986,-0.1828152
0.7683204,-0.1852993,-0.1872295
0.8829864,-0.2522564,-0.2086026
0.8635713,-0.2460425,-0.2066269
0.8739103,-0.2056583,-0.1354227
0.9441338,-0.07720059,-0.131895
0.9919203,0.07960341,-0.1188396
1.157733,0.07532848,-0.07352138
1.223325,0.003855526,-0.09358542
1.378407,-0.04376609,-0.09685843
1.65148,-0.09003648,-0.1345094
1.644937,-0.1985757,-0.206865
1.594337,-0.3127587,-0.2171486
1.553692,-0.2850576,-0.2366834
1.432068,-0.2742575,-0.2660236
1.339633,-0.3788007,-0.2757709
1.190376,-0.4581651,-0.2846424
1.027431,-0.4875795,-0.2173817
0.9114914,-0.4357206,-0.09422396
0.8781963,-0.3229533,-0.06640431
0.8793949,-0.2824572,-0.07793295
0.7924667,-0.322888,-0.04865689
0.7036476,-0.3849827,-0.07263535
0.5866514,-0.4021571,-0.09482837
0.5282873,-0.3532396,-0.09289639
0.641634,-0.2993189,-0.1368298
0.6717335,-0.2477929,-0.1502821
0.5974239,-0.2032101,-0.07737815
0.5005341,-0.1710639,0.1137647
0.4081311,-0.1493654,0.2781314
0.5245234,-0.1701744,0.2433475
0.7827377,-0.244203,0.2254227
0.9902661,-0.3628564,0.2994923
1.0815,-0.3794771,0.3227266
1.080444,-0.2346274,0.372503
1.152095,-0.1406951,0.4106019
1.231707,-0.1753384,0.3611512
1.223911,-0.2939235,0.310393
1.287017,-0.557425,0.1935679
1.453835,-0.9471404,0.03979529
1.535918,-1.0959,-0.02822548
1.224393,-0.7761165,-0.04206423
0.7012959,-0.5016717,-0.04738033
0.6206329,-0.5745614,-0.1201733
0.8613255,-0.614617,-0.1289015
0.9863584,-0.5532428,-0.05503482
1.053455,-0.5235145,-0.08945762
0.9760691,-0.3521211,-0.05647966
0.7561714,-0.094775,-0.01516179
0.6010334,-0.04806751,-0.06833673
0.5435542,-0.1315661,-0.06983794
0.6337223,-0.147681,-0.1656359
0.7517134,-0.1616644,-0.2396238
0.8112553,-0.2135854,-0.2112373
0.8700127,-0.2353791,-0.2141484
0.8420896,-0.1526236,-0.1382278
0.8422603,0.03303848,-0.1091391
0.9344193,0.1812587,-0.1756756
1.062979,0.1772805,-0.1997323
1.313325,0.01573171,-0.1678607
1.534854,-0.2012028,-0.0829298
1.642616,-0.3045874,-0.06153125
1.673623,-0.3023085,-0.09154048
1.578771,-0.3725927,-0.1483111
1.512305,-0.4700664,-0.2467433
1.476449,-0.447168,-0.2696664
1.329957,-0.449966,-0.273086
1.123091,-0.5382901,-0.2650347
0.9434145,-0.5510615,-0.1345817
0.8740543,-0.5185159,0.02935249
0.8737721,-0.4572705,0.05111253
0.8614663,-0.3159077,-0.03346722
0.8133032,-0.2369275,-0.05129472
0.7041219,-0.2809866,-0.05565274
0.6006559,-0.3051157,-0.07095431
0.5572433,-0.2715098,-0.05130901
0.6169637,-0.2657285,-0.08739482
0.6724345,-0.2419812,-0.08724758
0.5157692,-0.1834138,0.04674341
0.3463102,-0.2000007,0.2371808
0.3654094,-0.213228,0.3331515
0.4373987,-0.1893446,0.2688151
0.6020741,-0.2320349,0.2634667
0.8606564,-0.2775752,0.3194545
0.9348166,-0.2893054,0.3026453
0.9530523,-0.2851696,0.334563
1.142737,-0.2692569,0.3851932
1.166029,-0.2768261,0.3929448
1.107101,-0.3240907,0.3673884
1.243624,-0.4962882,0.2657702
1.216593,-0.6759558,0.1842592
1.112397,-0.6094581,0.1460055
1.03354,-0.4766494,0.09793054
0.809211,-0.4630241,0.07907525
0.8473639,-0.4219781,0.02782554
0.9800616,-0.3891723,-0.1071003
0.9692762,-0.4311647,-0.1555944
1.179564,-0.4571606,-0.06610593
1.211184,-0.4486201,-0.0307312
0.8973051,-0.3403693,-0.03209546
0.6914749,-0.1890424,-0.02812638
0.6527119,-0.1745298,-0.1247566
0.8099033,-0.2477915,-0.2390796
0.9805533,-0.3159346,-0.2830438
0.9871979,-0.3509155,-0.2410165
0.8724418,-0.3026416,-0.1423974
0.6168374,-0.1697455,-0.06982389
0.5425681,-0.02794506,-0.05972654
0.6864909,0.04590242,-0.1409319
0.7628887,0.05696911,-0.1692478
0.8718067,0.06521982,-0.0845007
1.003787,0.1134262,-0.004036572
1.01202,0.1371137,0.04649699
0.9750588,0.09995364,0.009923699
1.06456,0.04212978,-0.01477202
1.174886,-0.04385759,0.01941198
1.243542,-0.1334969,-0.002149295
1.417363,-0.2418166,0.001106822
1.432623,-0.3117406,0.0095169
1.36386,-0.2789149,-0.003697046
1.460215,-0.2871846,0.01694385
1.398253,-0.2393905,0.002830431
1.338079,-0.1335486,-0.06244466
1.47016,-0.2978025,-0.1731994
1.442302,-0.5454589,-0.2174142
1.116946,-0.6153025,-0.1038394
0.7452501,-0.6335024,0.01611666
0.7933874,-0.5841635,0.05210506
1.024952,-0.5059699,0.01446987
0.992365,-0.4965634,-0.0524683
0.9839919,-0.5050748,-0.08684164
0.912384,-0.5111053,-0.08348431
0.6878741,-0.466623,-0.05456503
0.635291,-0.3573732,-0.05519598
0.6414181,-0.235006,-0.07961055
0.6885479,-0.1788114,-0.06542499
0.738441,-0.2211024,0.04761018
0.6183476,-0.2312014,0.2880387
0.5446661,-0.2142493,0.4038372
0.5854476,-0.2432805,0.2515241
0.6229247,-0.2794119,0.1654811
0.6255103,-0.3667101,0.2957525
0.6777443,-0.4233968,0.3977447
0.8149625,-0.3194432,0.3966181
0.9033797,-0.1940407,0.4188426
1.013831,-0.1687605,0.4604215
1.154897,-0.1811531,0.4903226
1.25112,-0.1965324,0.5115256
1.344271,-0.2970576,0.4341722
1.471185,-0.5128131,0.3026562
1.583514,-0.6594205,0.246632
1.268978,-0.6117459,0.1787345
0.6795386,-0.6085425,0.04729206
0.507666,-0.7574306,-0.02646653
0.66805,-0.7925073,-0.05117786
0.9842627,-0.7272671,-0.1138692
1.276815,-0.6236288,-0.1670669
1.063511,-0.2865845,-0.1437227
0.7028471,0.075482,-0.09644413
0.6945211,0.1461754,-0.1148907
0.6924534,0.07588745,-0.1506816
0.6364204,0.04688339,-0.1530622
0.7282944,-0.04459362,-0.1499821
0.773904,-0.2261036,-0.09452329
0.8285482,-0.3042297,-0.04973215
0.8920435,-0.2834123,-0.08643435
0.8406062,-0.2321591,-0.1237863
0.8918858,-0.1072245,-0.1541529
0.9374331,0.01527776,-0.1587969
0.9483408,0.07421709,-0.1400202
1.109412,0.04672108,-0.131916
1.267329,-0.01803883,-0.1017075
1.397715,-0.05590231,-0.09211919
1.525629,-0.1416514,-0.09593742
1.673761,-0.2553173,-0.06313799
1.718616,-0.3044057,-0.04991911
1.538755,-0.2713905,-0.09061772
1.424228,-0.2526067,-0.1415616
1.343086,-0.2973152,-0.1488452
1.275036,-0.3606397,-0.1380386
1.199044,-0.4986768,-0.1458848
0.9316405,-0.5629921,-0.1273902
0.9039526,-0.474844,-0.04746562
0.9604525,-0.4300593,0.03053685
0.8304753,-0.3607783,0.003675998
0.8946413,-0.3022389,-0.07041585
0.7862602,-0.3338055,-0.0815224
0.598371,-0.2909629,-0.07055807
0.7255091,-0.2437464,-0.06109578
0.696823,-0.2175079,-0.04843612
0.5618314,-0.1601365,0.01529109
0.4974199,-0.1931472,0.217956
0.4797281,-0.2376521,0.3545396
0.598651,-0.211037,0.2485695
0.6786552,-0.2353307,0.1759715
0.8099062,-0.3342934,0.2949968
0.9747614,-0.4172056,0.388563
0.9968667,-0.4012331,0.40002
1.012844,-0.3125081,0.4310332
1.044495,-0.2546016,0.4355314
1.090332,-0.2842379,0.3831019
1.169335,-0.5435526,0.2195448
1.421765,-0.9982843,0.005281336
1.704254,-1.145582,0.02141142
1.381338,-0.8093896,0.09916216
0.7166571,-0.4470455,0.01254557
0.4971041,-0.3562357,-0.01286904
0.7957811,-0.4565872,-0.05729431
1.211196,-0.5549095,-0.1788954
1.251894,-0.5411022,-0.1171695
1.01497,-0.4309914,0.01856891
0.8452502,-0.2419981,0.09188359
0.693994,-0.07149627,0.1093047
0.650981,-0.02039179,0.005535832
0.7310496,-0.06745391,-0.08556037
0.7995252,-0.1555473,-0.1094865
0.8298229,-0.1994075,-0.1042034
0.8318429,-0.2479026,-0.03836038
0.9043842,-0.2917756,-0.008534448
0.9540564,-0.174689,-0.01793009
0.9977571,-0.0322529,-0.07340247
1.091543,0.01344885,-0.1685949
1.122731,-0.01852784,-0.1585225
1.244369,-0.09601406,-0.1091029
1.384116,-0.07741939,-0.08605357
1.437424,-0.08089761,-0.07437713
1.474668,-0.1905106,-0.09360465
1.380085,-0.330683,-0.09707673
1.292614,-0.4731544,-0.1127164
1.303134,-0.4780557,-0.1373007
1.324625,-0.4968192,-0.1776946
1.312106,-0.5704888,-0.2470241
1.130613,-0.5189546,-0.2182008
0.8887448,-0.5099121,-0.08719217
0.832594,-0.4690037,0.02902663
0.9501229,-0.3191612,0.01475121
0.9902079,-0.2829723,-0.07619006
0.9061683,-0.3277174,-0.08020548
0.8070264,-0.3893199,-0.07486689
0.6455708,-0.4270621,-0.07675769
0.6121888,-0.380422,-0.03223264
0.7376081,-0.3116289,-0.02033163
0.7358632,-0.2530718,0.00108188
0.6178228,-0.2067925,0.1017659
0.5266438,-0.2029955,0.2839613
0.6165852,-0.2646525,0.380538
0.7412697,-0.3165069,0.2963284
0.6660679,-0.3440259,0.2913715
0.6560606,-0.3837753,0.3574035
0.7364522,-0.311496,0.3706309
0.7644763,-0.1303911,0.425765
0.889228,0.01074564,0.4370144
1.035397,0.0408019,0.3903547
1.133344,-0.02234798,0.3524145
1.239731,-0.2979743,0.2809478
1.34422,-0.9814714,0.2089417
1.383774,-1.387732,0.1408008
1.097094,-0.8425071,0.08237705
0.6512224,-0.3850315,0.07729956
0.582758,-0.7134576,0.08267587
0.820177,-0.8598056,0.01531621
0.9783595,-0.701484,-0.09594226
1.011573,-0.7777252,-0.1570563
1.078902,-0.6546702,-0.1796506
1.05426,-0.3086404,-0.1696899
0.8439855,-0.09718769,-0.1240481
0.7569611,0.02129383,-0.08107057
0.7747306,-0.07252445,-0.08798139
0.7987571,-0.1657902,-0.147356
0.8946841,-0.1674571,-0.1630088
0.8722429,-0.2547723,-0.1563125
0.8235992,-0.2080179,-0.1333772
0.8251156,-0.1771195,-0.07775665
0.7661255,-0.2173391,-0.09981438
0.8079029,-0.1468035,-0.1418382
0.8966683,-0.1333398,-0.1644159
0.9570624,-0.07236507,-0.177159
1.002326,0.06239618,-0.14357
0.9732514,0.1099098,-0.1372718
1.026994,0.1111399,-0.1139608
1.129144,0.1053296,-0.07188507
1.207576,0.1135289,-0.07052909
1.365013,0.02607546,-0.05952389
1.49027,-0.1010013,-0.07741479
1.535257,-0.1454115,-0.1114733
1.542405,-0.2005044,-0.1474535
1.495857,-0.2348735,-0.197797
1.407957,-0.3144371,-0.163954
1.280055,-0.5368739,-0.07530734
1.205146,-0.7260138,-0.04071385
1.205749,-0.6759518,-0.09847496
1.127795,-0.4876941,-0.162155
1.001324,-0.4188788,-0.09393221
1.003553,-0.3801554,-0.02957207
1.022876,-0.3559534,-0.07611378
0.9209394,-0.4294793,-0.08839463
0.8330017,-0.4357991,-0.09668901
0.7269022,-0.3931189,-0.1276881
0.6015997,-0.3192291,-0.0700024
0.6325872,-0.2417621,-0.01574699
0.7375288,-0.2021711,-0.02227008
0.7873003,-0.09908888,0.03463866
0.6701907,-0.07382467,0.1940543
0.5038802,-0.1140765,0.3300308
0.5851377,-0.1286797,0.3111205
0.6908487,-0.2187602,0.2800894
0.7239066,-0.2854828,0.3346127
0.8611629,-0.2962608,0.3329879
0.9409817,-0.288845,0.3507993
0.9840213,-0.2573843,0.4137792
1.030672,-0.2474366,0.4140746
1.039209,-0.2861724,0.4387508
1.174905,-0.4159972,0.4017342
1.326263,-0.601765,0.1994082
1.349545,-0.7487574,-0.001726703
1.235392,-0.6836457,-0.06513731
0.9517981,-0.4985447,-0.0705796
0.760341,-0.503541,-0.1674572
0.8565475,-0.5660939,-0.1883824
1.031631,-0.6180483,-0.1301766
1.064264,-0.6521562,-0.1575426
0.9994801,-0.4511869,-0.07496066
0.8525482,-0.1571933,-0.004249132
0.6301936,0.03593812,-0.04159129
0.5856908,0.03483559,-0.05030147
0.6873093,-0.08942343,-0.1621752
0.7583753,-0.139055,-0.2245898
0.8336559,-0.2155967,-0.2124653
0.8666571,-0.2486354,-0.2389525
0.8832459,-0.2326992,-0.1658921
0.9009247,-0.2775791,-0.1252103
0.9083885,-0.1693399,-0.1254443
0.9513321,-0.03803895,-0.116392
0.9739919,-0.03214935,-0.1488537
1.046393,-0.008974554,-0.1330432
1.206932,0.003295702,-0.1392371
1.316929,-0.03481128,-0.1101005
1.383937,-0.1286806,-0.02756355
1.444545,-0.1809884,-0.03159365
1.430962,-0.19962,-0.03961869
1.380539,-0.2752371,-0.09112505
1.364429,-0.309958,-0.1726131
1.367488,-0.3628127,-0.1514578
1.375136,-0.4238976,-0.1740648
1.325344,-0.4118235,-0.3464377
1.236184,-0.419044,-0.4779464
1.134166,-0.4157683,-0.3537904
0.9368754,-0.398334,-0.1180897
0.8268934,-0.3663837,-0.01699116
0.8931637,-0.2982072,-0.005349186
0.8910265,-0.2909734,-0.06274616
0.8281558,-0.3390124,-0.1651667
0.7717778,-0.3680519,-0.1695635
0.6875175,-0.3200755,-0.1062062
0.6876837,-0.2545833,-0.06002161
0.7226662,-0.2643597,-0.0353278
0.6820002,-0.2526927,0.06352965
0.6490458,-0.2005956,0.269222
0.6350121,-0.181388,0.3146308
0.6737428,-0.2027123,0.183228
0.7469263,-0.2503396,0.147348
0.7469016,-0.2883058,0.2119454
0.821231,-0.3342516,0.2993579
0.9416132,-0.3367804,0.356584
0.9375961,-0.2650077,0.3760477
0.9563744,-0.2348756,0.4032394
1.0506,-0.2457995,0.3925973
1.11886,-0.3510229,0.325843
1.146972,-0.604937,0.2033986
1.267629,-0.8005763,0.1068954
1.400109,-0.7924567,0.1064761
1.098158,-0.5661542,0.08379282
0.6806318,-0.3442566,-0.0116542
0.7763284,-0.4179217,-0.1416812
0.9998635,-0.5517817,-0.19074
1.08042,-0.5423932,-0.09341718
1.136768,-0.5120457,-0.01271101
0.9366675,-0.3445207,0.03201475
0.6662798,-0.07611823,0.07317508
0.6236352,0.005022857,3.989942e-05
0.648886,-0.05949781,-0.1171147
0.7161334,-0.1261233,-0.1762485
0.8110997,-0.2383394,-0.2113139
0.8819447,-0.371942,-0.2186267
0.9285817,-0.3769961,-0.196312
0.9255771,-0.3300045,-0.156049
0.9434612,-0.351736,-0.1067132
0.9396961,-0.2308263,-0.10438
0.9231539,0.01377027,-0.1415857
0.9666417,0.1181371,-0.1522785
1.028058,0.08544783,-0.1433658
1.15016,0.02701624,-0.1161152
1.275786,0.006327212,-0.07012482
1.355563,-0.05492578,-0.06892107
1.437873,-0.1631672,-0.108145
1.457995,-0.2521216,-0.1299232
1.399597,-0.3841818,-0.1145053
1.335085,-0.4939354,-0.07103735
1.350994,-0.5240339,-0.05124588
1.356504,-0.4907142,-0.1315104
1.265896,-0.4869282,-0.3354161
1.218409,-0.5288505,-0.4634696
1.133664,-0.449718,-0.2994939
0.9586926,-0.378758,-0.07837359
0.9065718,-0.3405434,-0.064331
0.945447,-0.2920621,-0.08677226
0.9103705,-0.3895878,-0.06989481
0.8113742,-0.4766103,-0.09474203
0.7051196,-0.4852951,-0.08033474
0.6400929,-0.4430191,-0.05952674
0.665373,-0.3459928,-0.07297253
0.6962955,-0.2955904,-0.03021101
0.6699951,-0.2152851,0.05733362
0.6406025,-0.1669907,0.179194
0.5965023,-0.1812945,0.2515144
0.6385271,-0.1719183,0.1945988
0.7427267,-0.236254,0.180631
0.7569817,-0.3433837,0.2787619
0.8475099,-0.4143091,0.3570086
0.9581705,-0.3787884,0.3589451
0.9305612,-0.2463469,0.3453028
0.9629006,-0.1728826,0.3747866
1.05596,-0.2010544,0.3827721
1.164176,-0.4075889,0.3145721
1.455152,-0.7975603,0.2362312
1.724607,-1.037386,0.2074983
1.539927,-0.7862212,0.1759589
1.072134,-0.3792926,0.0582388
0.7606684,-0.3631909,-0.0749462
0.73754,-0.5076113,-0.1357082
1.016513,-0.6323288,-0.1635516
1.24138,-0.7687072,-0.1657725
1.162067,-0.6955805,-0.1348214
1.006922,-0.5181319,-0.0631678
0.8066162,-0.2912638,0.02047595
0.6335424,-0.1914051,-0.243204
0.671765,-0.1513656,-0.2305257
0.6254285,-0.182761,-0.1680476
0.5970532,-0.2722047,-0.1594528
0.6536343,-0.4625586,-0.1452647
0.7949233,-0.5728029,-0.08960581
0.9950134,-0.4765084,-0.1003136
1.10897,-0.381502,-0.1268915
1.095714,-0.3654876,-0.1282008
1.148117,-0.3639361,-0.1488605
1.202019,-0.412137,-0.1982328
1.112707,-0.5279583,-0.3153124
1.023742,-0.6549463,-0.464616
0.9854269,-0.7043392,-0.5628773
0.9860773,-0.6629819,-0.6430983
0.9765771,-0.6163613,-0.6734948
0.8433781,-0.5499053,-0.6814131
0.7621507,-0.5014571,-0.7403467
0.8714134,-0.5234182,-0.6029199
1.008097,-0.4629594,-0.3807597
1.007306,-0.3468442,-0.4201032
0.7964939,-0.1725826,-0.4040199
0.5270729,0.09523233,-0.2762275
0.4690427,0.1091977,-0.3220758
0.5721516,-0.01835071,-0.3405626
0.6363813,0.02000444,-0.2919057
0.7148582,-0.02556983,-0.3080929
0.8017237,-0.0564981,-0.3090701
0.830394,0.05445521,-0.3187388
0.8791255,0.06386413,-0.3436709
0.8639943,0.1198209,-0.3326864
0.8768839,0.207672,-0.3298879
1.079202,0.1370636,-0.3397112
1.277803,0.07550269,-0.3348456
1.399914,-0.002838789,-0.3262915
1.40116,-0.1456136,-0.3651896
1.266285,-0.1927597,-0.5721759
1.143359,-0.118713,-0.8602643
1.103634,-0.07848532,-0.8961658
1.100086,-0.2132644,-0.7727386
0.9820142,-0.3776686,-0.7900648
0.9141652,-0.4218616,-0.7716154
0.9378309,-0.356324,-0.6312103
0.8646371,-0.2296407,-0.5093773
0.8389714,-0.168091,-0.4187798
0.7113059,-0.2055729,-0.4429591
0.4975434,-0.266312,-0.4526297
0.4757967,-0.2568026,-0.3438189
0.4824947,-0.2329766,-0.3290178
0.5341473,-0.2491122,-0.350756
0.6162594,-0.2109804,-0.3208277
0.5844057,-0.207161,-0.2501469
0.5387479,-0.2406417,-0.1180778
0.5355038,-0.2852875,-0.07639479
0.6477353,-0.4481899,-0.07818337
0.8561086,-0.5620897,-0.05147346
0.9997208,-0.5439121,-0.09195695
1.047873,-0.487227,-0.1269534
1.125619,-0.4293445,-0.1446398
1.274467,-0.4369047,-0.1738607
1.357758,-0.4660232,-0.205947
1.324713,-0.5344081,-0.3318091
1.27086,-0.6699352,-0.5280584
1.303135,-0.6784775,-0.628092
1.250087,-0.5008181,-0.5625312
0.9208342,-0.3730288,-0.5021955
0.6429664,-0.4437645,-0.5237703
0.7440545,-0.5332178,-0.4947337
0.9931595,-0.5343877,-0.4786215
1.032593,-0.5250572,-0.4695317
0.9488311,-0.3601367,-0.3600316
0.795402,-0.05790169,-0.2803568
0.5442663,0.03260142,-0.2680845
0.4996451,-0.0307648,-0.294959
0.5757802,-0.02785974,-0.3533406
0.6244479,-0.06856074,-0.3616015
0.7585579,-0.1510731,-0.3509191
0.8007141,-0.1642351,-0.3281322
0.7615707,-0.09179228,-0.274079
0.7561559,0.06110846,-0.2233554
0.7913817,0.155092,-0.2291666
0.9688163,0.1284867,-0.3401834
1.229205,0.1245837,-0.4205483
1.343443,0.1440337,-0.4094761
1.347428,0.04658561,-0.4242866
1.526436,-0.17982,-0.5081706
1.597679,-0.3587149,-0.6177395
1.33271,-0.3057306,-0.7138662
1.127429,-0.1871003,-0.8311576
1.050022,-0.2301217,-0.8361721
1.042568,-0.301387,-0.7283969
1.000908,-0.3805955,-0.725048
0.8666865,-0.4395553,-0.6694776
0.8718473,-0.3316329,-0.5621408
0.8324463,-0.1856592,-0.503202
0.7220522,-0.05149965,-0.3630889
0.718292,-0.1252888,-0.3545367
0.5994236,-0.3826011,-0.4118334
0.4550099,-0.355064,-0.3238752
0.4482326,-0.2984419,-0.3090044
0.4643459,-0.3261614,-0.2888543
0.5039781,-0.2191657,-0.2578638
0.5736841,-0.2034188,-0.3116874
0.6057039,-0.139335,-0.2571694
0.6029545,-0.06780628,-0.2144004
0.6757086,-0.2072587,-0.2066459
0.8120528,-0.3745936,-0.1069354
0.9532159,-0.5176404,-0.07036257
1.084944,-0.4887861,-0.09415425
1.103276,-0.3641603,-0.1143224
1.141522,-0.3637309,-0.1183396
1.309592,-0.3833068,-0.1419825
1.339255,-0.4732045,-0.247004
1.145076,-0.6041135,-0.3564979
0.9883976,-0.7294728,-0.526047
1.033348,-0.8207119,-0.6337364
1.052349,-0.6943299,-0.4899876
0.8914347,-0.5702554,-0.3914785
0.8122387,-0.5684793,-0.4502486
0.8869059,-0.494817,-0.4439261
0.9997623,-0.4624453,-0.3961495
1.073026,-0.4093488,-0.4118779
0.9178977,-0.1276361,-0.4210755
0.626477,0.1235835,-0.4061793
0.4707017,0.1218118,-0.4287248
0.4791347,0.008130781,-0.4410753
0.6243328,-0.1453133,-0.4476854
0.8384013,-0.3233808,-0.4554674
0.9288947,-0.3784118,-0.4347522
0.7964428,-0.2449737,-0.415494
0.603691,-0.05345006,-0.334351
0.5364351,0.06910293,-0.2300488
0.6207972,0.1239789,-0.2279925
0.8270435,0.1937515,-0.3000294
1.026322,0.2799081,-0.3556947
1.171635,0.2280499,-0.3147357
1.33761,0.1037475,-0.2486359
1.423483,0.09739209,-0.2464069
1.375633,0.08094675,-0.3088661
1.319049,-0.005458177,-0.4714623
1.240312,-0.06948475,-0.6208498
1.103948,-0.0991895,-0.6797329
1.051303,-0.1943616,-0.7763455
1.06489,-0.4648089,-0.8744674
1.021944,-0.5798098,-0.8330345
0.9882701,-0.4531616,-0.6553399
0.9548376,-0.4305346,-0.4523538
0.8946061,-0.4093805,-0.4071772
0.8547418,-0.4106599,-0.4865909
0.7686603,-0.4812937,-0.4807368
0.6486538,-0.3533735,-0.4744603
0.5714229,-0.1764736,-0.4803588
0.5444607,-0.1008642,-0.3818698
0.566129,-0.0589535,-0.3390897
0.6251712,-0.06254139,-0.3154382
0.6648641,-0.07746734,-0.2277696
0.5708764,-0.1352894,-0.1461635
0.4486823,-0.1896997,-0.02891188
0.4983905,-0.2219152,-0.02341914
0.6037374,-0.310127,-0.09768554
0.686224,-0.3652505,-0.1018124
0.7831925,-0.3681922,-0.1414696
0.8676437,-0.3011634,-0.09739508
1.048909,-0.1923329,-0.002047809
1.220351,-0.2458681,-0.02597916
1.292542,-0.3717423,-0.04709711
1.50083,-0.4405329,-0.08374756
1.578967,-0.5029214,-0.1515939
1.451896,-0.5859245,-0.2418262
1.544095,-0.8310004,-0.4575538
1.561733,-0.9900888,-0.5983038
1.267673,-0.7304239,-0.5226371
0.8112855,-0.518234,-0.4939837
0.4385718,-0.6113675,-0.5487961
0.6937409,-0.6657908,-0.5092797
1.1281,-0.6477007,-0.4933414
1.148889,-0.5808677,-0.5271273
1.086897,-0.323842,-0.4877255
0.8478425,-0.0262461,-0.4293657
0.5499559,0.06695712,-0.359927
0.5343106,0.01869645,-0.353172
0.5721089,-0.01923391,-0.3955488
0.6484443,-0.05818683,-0.3425485
0.7393003,-0.09145268,-0.3352434
0.7981762,-0.07489513,-0.3677495
0.8299189,-0.04583045,-0.352988
0.7550949,0.04546781,-0.3724544
0.7469156,0.2182539,-0.3465727
0.8057534,0.2482345,-0.3049308
0.9457601,0.1046881,-0.2904967
1.15097,-0.004989597,-0.2491182
1.230302,-0.1066356,-0.2731302
1.351596,-0.2614078,-0.3566514
1.439078,-0.3480979,-0.4759682
1.32007,-0.2942065,-0.6909954
1.222571,-0.1725651,-0.9059916
1.1889,-0.09700844,-0.9148173
1.125719,-0.1518723,-0.7766016
1.030098,-0.2971139,-0.7549598
0.9151124,-0.3341762,-0.7529096
0.8169308,-0.2541141,-0.6283186
0.7587957,-0.1780082,-0.4812109
0.7045969,-0.129296,-0.3787847
0.6333303,-0.1925507,-0.4000079
0.5802386,-0.2852021,-0.4190577
0.522839,-0.2980211,-0.364556
0.4830959,-0.2992943,-0.350308
0.5019357,-0.2631768,-0.2880238
0.5383707,-0.225924,-0.2388202
0.586804,-0.2258892,-0.2271894
0.6191402,-0.2299795,-0.1400813
0.634628,-0.2710026,-0.07565096
0.7123484,-0.3528085,-0.05815467
0.8518096,-0.4640593,-0.09132055
1.056915,-0.5307123,-0.1405085
1.268393,-0.5352789,-0.1392284
1.279824,-0.5059506,-0.1291555
1.20073,-0.425065,-0.09712959
1.239953,-0.4078913,-0.1512796
1.268626,-0.4785049,-0.3617659
1.353089,-0.6227628,-0.5814148
1.436007,-0.771635,-0.6290107
1.084151,-0.6343324,-0.5414185
0.6107242,-0.439127,-0.5800813
0.6349662,-0.5231282,-0.6102866
0.9442165,-0.5447111,-0.5257201
1.125145,-0.4688451,-0.5296259
1.126217,-0.4964521,-0.517779
1.030547,-0.4109942,-0.4788291
0.8433697,-0.1969688,-0.3909599
0.5416335,0.03705844,-0.2064627
0.4182,0.1384562,-0.2079225
0.563882,-0.003450673,-0.326062
0.6229565,-0.0643302,-0.3832296
0.7090336,-0.06522406,-0.4144311
0.8449066,-0.109233,-0.3710831
0.7552844,-0.02794354,-0.3483164
0.7574777,-0.01249854,-0.3753801
0.8573844,0.001728709,-0.375847
0.8632416,0.04984656,-0.3891915
1.016329,-0.01468111,-0.4180257
1.177713,0.02579285,-0.4445685
1.227974,0.04230977,-0.4396822
1.316947,0.02694587,-0.4156271
1.433419,0.09823355,-0.4235347
1.423665,0.002985359,-0.462425
1.25498,-0.1066137,-0.5631623
1.166287,-0.1501139,-0.6718188
1.065069,-0.2651871,-0.6951101
0.9329274,-0.3660065,-0.7440352
0.9538455,-0.4059527,-0.8378874
0.9459137,-0.3567754,-0.8270333
0.9296842,-0.3117495,-0.7516501
0.8719928,-0.2141153,-0.6067248
0.7525059,-0.07066084,-0.386271
0.736903,-0.1437617,-0.3214512
0.6294464,-0.2443738,-0.2821311
0.5363467,-0.265051,-0.1689231
0.6078241,-0.335895,-0.2680992
0.6317265,-0.3432809,-0.3561844
0.6577271,-0.3001305,-0.3177113
0.7141149,-0.2426487,-0.3646495
0.7213503,-0.1974031,-0.308148
0.718508,-0.1961678,-0.2009775
0.6888753,-0.2046495,-0.1398315
0.6255614,-0.2908515,-0.1056817
0.6561662,-0.3799307,-0.153627
0.7752623,-0.4415474,-0.08021805
0.8379487,-0.4477807,-0.0553562
0.8577946,-0.3130325,-0.1265415
0.895393,-0.2813539,-0.07094778
1.020179,-0.329436,-0.09839383
1.140091,-0.3189997,-0.1169158
1.1812,-0.3708791,-0.1193867
1.342422,-0.4282332,-0.2214465
1.433262,-0.5120371,-0.2289216
1.335119,-0.6345327,-0.3108143
1.328744,-0.8049954,-0.4601517
1.24239,-0.9275268,-0.4508213
0.9509778,-0.7588587,-0.3689116
0.7761699,-0.6591174,-0.3194716
0.8415085,-0.7460287,-0.3569958
0.9061886,-0.6976586,-0.4364399
0.8822645,-0.6263791,-0.5609532
0.9673351,-0.510726,-0.6557409
0.985879,-0.3218387,-0.5627731
0.7946352,-0.1508769,-0.4264328
0.6456887,0.05822378,-0.3677218
0.5853556,0.1294076,-0.3974249
0.6522716,0.008862485,-0.4925933
0.7669635,-0.1157993,-0.5181773
0.7945492,-0.2410976,-0.4835793
0.8504273,-0.3346436,-0.442031
0.8295291,-0.2801315,-0.4089964
0.7733255,-0.1528284,-0.433645
0.7689091,-0.001527358,-0.4487507
0.7029881,0.17968,-0.4176581
0.7361375,0.2691316,-0.3912599
0.7929723,0.2952396,-0.3519648
0.793967,0.2465575,-0.2993915
0.8994041,0.1007843,-0.2517443
1.002707,0.03476677,-0.212025
1.113611,-0.01604312,-0.1936219
1.23398,-0.06586902,-0.1923868
1.281296,-0.03973626,-0.2339462
1.314872,-0.04231357,-0.3477017
1.281298,-0.03219744,-0.5270523
1.235564,-0.06236559,-0.7364509
1.24905,-0.2056564,-0.8505909
1.222125,-0.3636047,-0.7945941
1.115993,-0.4640414,-0.7389591
0.9637304,-0.4226134,-0.7721893
0.9131877,-0.33481,-0.7341951
0.9577842,-0.2771927,-0.6669933
0.9191447,-0.2044634,-0.6262703
0.8632599,-0.1824493,-0.4921691
0.8234052,-0.2359512,-0.4239621
0.7315466,-0.3471355,-0.4777019
0.6719794,-0.3775326,-0.4481974
0.6379547,-0.3126004,-0.3956718
0.5903881,-0.2703767,-0.3817272
0.5767766,-0.14483,-0.338617
0.5873927,-0.08157404,-0.2874924
0.6369174,-0.1627088,-0.2476714
0.6846051,-0.1858719,-0.2285982
0.6462794,-0.2487177,-0.1865565
0.6127636,-0.3097263,-0.1035357
0.6755262,-0.3207774,-0.08555996
0.798355,-0.4576484,-0.1091904
0.9371226,-0.5673829,-0.07860054
1.021833,-0.509153,-0.05349468
1.028412,-0.4004077,-0.05490738
1.048999,-0.3441638,-0.03220194
1.108062,-0.3892234,-0.03696601
1.191633,-0.5051489,-0.1379943
1.274413,-0.6079276,-0.2985871
1.278949,-0.6654205,-0.4571613
1.304201,-0.6762813,-0.6089744
1.315941,-0.5314141,-0.6492015
1.033016,-0.3156011,-0.562497
0.6593282,-0.3094939,-0.5477
0.6521364,-0.3976028,-0.5331951
0.8969867,-0.4132864,-0.4751048
1.058416,-0.4515381,-0.5170338
1.096582,-0.3990019,-0.4997852
0.9384058,-0.2047759,-0.3781479
0.6308973,-0.066903,-0.2613438
0.4808517,-0.0203556,-0.2009069
0.4807428,-0.04302635,-0.2925299
0.5560639,-0.08338467,-0.3888516
0.7050237,-0.08302868,-0.44233
0.8066403,-0.1005553,-0.4781527
0.8829001,-0.07778774,-0.3844346
0.8975809,-0.0360306,-0.3291414
0.8654633,-0.01803575,-0.3363761
0.8868141,0.08632548,-0.2915108
0.907423,0.1699907,-0.2840792
1.001533,0.1671305,-0.3121312
1.161435,0.1605816,-0.3331113
1.25594,0.144768,-0.2777268
1.291148,0.1412808,-0.1930044
1.291975,0.1159784,-0.2122784
1.300211,0.02735371,-0.2906856
1.308666,-0.05910891,-0.4089593
1.304911,-0.0735327,-0.5097286
1.289702,-0.1421428,-0.6007416
1.218411,-0.3321985,-0.7402387
1.114802,-0.3609504,-0.7414318
0.9844098,-0.32877,-0.7056292
0.849555,-0.4177377,-0.7879169
0.8324194,-0.2915329,-0.6857706
0.881633,-0.09859772,-0.5062854
0.8409733,-0.1321675,-0.5130012
0.7931577,-0.167562,-0.4678135
0.7274808,-0.2095645,-0.4186316
0.5578442,-0.295359,-0.436769
0.4835172,-0.2842037,-0.3301987
0.4962682,-0.2508225,-0.2691003
0.5451919,-0.260111,-0.2871467
0.7066525,-0.260343,-0.2600571
0.7891693,-0.2495577,-0.2663523
0.7681589,-0.2361464,-0.2369714
0.7077738,-0.2243533,-0.1510624
0.6593643,-0.3036076,-0.09443936
0.8145721,-0.4781382,-0.09333205
1.038635,-0.5635856,-0.1172402
1.109877,-0.5126838,-0.08706146
1.068282,-0.4619918,-0.04803056
1.044403,-0.4545,-0.02589187
1.04446,-0.439469,-0.05710244
0.9942907,-0.4816687,-0.2100864
1.000177,-0.6521278,-0.4099091
1.119106,-0.7662938,-0.6195402
1.261117,-0.5905797,-0.7200602
1.226969,-0.2939135,-0.6865608
0.8933238,-0.2211606,-0.6935945
0.6307694,-0.2565513,-0.6349543
0.7542751,-0.3089094,-0.5006323
0.9622258,-0.4784898,-0.4497739
0.9300253,-0.4567874,-0.4183859
0.7459832,-0.2215983,-0.3783326
0.5153894,-0.02644357,-0.3257424
0.4061162,0.09787674,-0.2953753
0.5504756,0.05982572,-0.3501129
0.6713088,0.03017105,-0.4195326
0.7947936,0.02654209,-0.4594452
0.9127549,-0.0921914,-0.4264086
0.8075977,-0.1037707,-0.3403588
0.8120068,-0.04364535,-0.2853385
0.8716514,0.04782557,-0.2845594
0.8873116,0.1939738,-0.3507895
1.086052,0.2162252,-0.3928944
1.158793,0.1739431,-0.3720045
1.147649,0.1247962,-0.3481631
1.248619,0.05500072,-0.3296635
1.308969,-0.0454169,-0.3592302
1.355785,-0.1541302,-0.3980155
1.326372,-0.1554777,-0.4368551
1.2554,-0.1543728,-0.6434911
1.222373,-0.2056582,-0.9191664
1.187806,-0.2478101,-0.9206982
1.111174,-0.3363626,-0.7606683
0.9078097,-0.426656,-0.7589008
0.8340221,-0.3989509,-0.7580924
0.9350722,-0.2587163,-0.6339069
0.9531455,-0.1289336,-0.5187266
0.9690731,-0.08900267,-0.4770635
0.8521066,-0.2297833,-0.5172223
0.5991013,-0.419283,-0.4703206
0.565876,-0.3777268,-0.3961833
0.5873161,-0.3215698,-0.4369034
0.5082863,-0.3389321,-0.4101093
0.5488811,-0.2521852,-0.3809999
0.6466739,-0.2065958,-0.360324
0.6610248,-0.1870515,-0.2535756
0.6385779,-0.1629631,-0.2068563
0.5958644,-0.2224006,-0.1568209
0.5942618,-0.2933875,-0.09996927
0.7319457,-0.4003597,-0.1205491
0.9486749,-0.4819434,-0.1439838
1.075913,-0.469135,-0.1707415
1.064827,-0.4803584,-0.1390523
1.05143,-0.5373204,-0.08653389
1.070858,-0.6245906,-0.1509684
1.062254,-0.6873431,-0.2795231
1.091998,-0.6692466,-0.474931
1.183475,-0.6291911,-0.6827335
1.225909,-0.5395853,-0.7121177
1.036649,-0.3798853,-0.6469455
0.7355309,-0.3000052,-0.6264964
0.7459336,-0.3950098,-0.578698
0.9668709,-0.5401429,-0.5042418
1.085862,-0.5619943,-0.4659188
1.080702,-0.4004285,-0.4449282
0.8731158,-0.1095489,-0.3902951
0.6269241,0.06174226,-0.3229168
0.5432598,-0.01327497,-0.3364688
0.5135073,-0.08781782,-0.3795722
0.5867892,-0.1084099,-0.3988071
0.7575346,-0.166535,-0.4477765
0.8224117,-0.1447209,-0.4449918
0.7774325,-0.1009767,-0.3817899
0.7342462,-0.07922901,-0.3288655
0.711803,0.02563419,-0.2635492
0.7255758,0.110382,-0.2628637
0.8239027,0.1618883,-0.3171083
0.9589125,0.2047947,-0.3279833
1.070159,0.1386943,-0.3156676
1.157428,0.05932463,-0.2799101
1.242393,0.01256343,-0.2808133
1.322919,-0.06899951,-0.3803629
1.324703,-0.1407981,-0.5176232
1.294825,-0.1861548,-0.5989488
1.28293,-0.2319789,-0.5972774
1.221515,-0.2772352,-0.6509263
1.145242,-0.2243204,-0.7494819
1.087182,-0.1265788,-0.7662129
1.072452,-0.1682065,-0.7868918
1.084572,-0.1941756,-0.8134384
1.010083,-0.1541231,-0.7295519
0.9021159,-0.2059527,-0.5578275
0.8385753,-0.2843851,-0.4397704
0.7628614,-0.4251731,-0.4428228
0.6624814,-0.5554296,-0.4575207
0.586476,-0.4887225,-0.4294207
0.5686093,-0.3800834,-0.3889815
0.5886327,-0.2821993,-0.3558899
0.6246782,-0.1826684,-0.3488668
0.6693624,-0.1540142,-0.3220687
0.6839775,-0.1036124,-0.2520516
0.6344158,-0.09726894,-0.1761452
0.5775844,-0.1842322,-0.1369038
0.610965,-0.2643891,-0.1459162
0.7154211,-0.3780829,-0.1506303
0.8254003,-0.445363,-0.1384907
0.8729397,-0.432034,-0.1309302
0.8725929,-0.4452192,-0.09032819
0.960061,-0.4397764,-0.04306832
1.047896,-0.4262388,-0.07392252
1.061271,-0.4093695,-0.1174045
1.120756,-0.3728476,-0.1200872
1.147962,-0.4005538,-0.1854546
1.15105,-0.4837782,-0.335321
1.237036,-0.617889,-0.4412906
1.278873,-0.6881159,-0.3774767
1.192021,-0.5241248,-0.3098708
0.9546671,-0.3814371,-0.4558826
0.7237562,-0.4740093,-0.5779108
0.8227566,-0.5391449,-0.5610391
1.045552,-0.4849862,-0.6141593
1.053401,-0.4688531,-0.6885176
1.00619,-0.4175928,-0.6597288
0.9488613,-0.6932748,-0.9046957
1.164172,-0.2208539,-1.003443
1.107966,-0.3114595,-0.9743512
0.6697075,-0.430476,-0.5218331
0.4738172,-0.292949,-0.0707215
0.4856722,-0.3358911,-0.08790977
0.5535789,-0.2585164,-0.2690479
0.6234377,-0.02111755,-0.378532
0.6441081,-0.009541326,-0.512484
0.7463138,-0.008209639,-0.5309233
0.7307889,0.01325964,-0.4566166
0.7348078,-0.03198619,-0.4408782
0.7922442,-0.05737278,-0.334579
0.7542352,-0.03644205,-0.2618843
0.856014,0.08327817,-0.3379281
0.9273692,0.1800062,-0.3246675
1.068992,0.2067917,-0.3959139
1.309111,0.1574754,-0.5057014
1.332939,0.02925669,-0.3906554
1.363327,-0.07146139,-0.3194814
1.320184,-0.1916195,-0.3515307
1.149823,-0.2120958,-0.5531848
1.032534,-0.1095538,-0.9155436
1.008086,-0.09028518,-1.023851
1.107623,-0.1553436,-0.9651333
1.071563,-0.27543,-0.9165529
0.98111,-0.3292201,-0.7736343
0.8805097,-0.3232628,-0.5966596
0.6604742,-0.3552355,-0.4543424
0.5867497,-0.3278113,-0.4244338
0.5136408,-0.2991995,-0.5024577
0.4112691,-0.2759446,-0.5017258
0.4631592,-0.2280846,-0.4139644
0.5581715,-0.2096752,-0.3627404
0.7318264,-0.1476692,-0.3346592
0.827785,-0.11287,-0.280183
0.7387953,-0.1662095,-0.1530264
0.7172479,-0.2666098,-0.05816052
0.8654838,-0.4519009,-0.08072866
1.067297,-0.5985758,-0.04609889
1.140111,-0.578132,-0.02748676
1.090794,-0.5158967,-0.08403604
1.039998,-0.5014198,-0.09133841
0.9714186,-0.5022717,-0.2313192
0.912892,-0.613597,-0.5076114
1.054059,-0.7391545,-0.7036083
1.189568,-0.5990154,-0.7764828
0.8617172,-0.4186695,-0.7798132
0.5031521,-0.4430736,-0.789678
0.6093677,-0.4724947,-0.6525786
0.7922285,-0.4490485,-0.3927832
0.8644327,-0.3776514,-0.3599204
0.8706994,-0.1997867,-0.4145035
0.6944643,-0.05808527,-0.309737
0.4995602,-0.04197639,-0.2441199
0.4866879,-0.05945104,-0.2649262
0.6130343,-0.05635084,-0.3083662
0.7974297,-0.06032676,-0.4097452
0.9428224,-0.09778157,-0.4435572
0.9687304,-0.109922,-0.3969611
0.9271876,-0.02383262,-0.3713593
0.9254911,0.08581296,-0.3442155
0.9884021,0.09375465,-0.3638344
1.119072,0.05174548,-0.4542998
1.292176,0.03030227,-0.5199949
1.360713,-0.04182122,-0.4948533
1.336312,-0.1195565,-0.4193448
1.281977,-0.1548857,-0.4251917
1.102864,-0.2059495,-0.586881
1.001218,-0.1998573,-0.8116699
1.080557,-0.2030855,-0.887982
1.071187,-0.328983,-0.8713194
1.002754,-0.44154,-0.9310965
0.9735224,-0.4597487,-0.8581918
0.9397004,-0.3333965,-0.6202836
0.897467,-0.1482262,-0.4412163
0.7917474,-0.1420878,-0.3846784
0.6226172,-0.2423346,-0.429761
0.445304,-0.2812944,-0.3687247
0.4394674,-0.2427838,-0.2681256
0.6071892,-0.1934243,-0.310836
0.6508589,-0.2090222,-0.3015644
0.6265083,-0.2061164,-0.265133
0.5879868,-0.1798247,-0.1857715
0.5264034,-0.2140138,-0.0437621
0.7411987,-0.3012176,-0.08780249
1.063952,-0.4446575,-0.1382065
1.146205,-0.5266951,-0.07944855
1.115905,-0.5349585,-0.05132694
1.135393,-0.6337945,0.0299223
1.12496,-0.6990588,0.0018915
0.9165847,-0.7125158,-0.3572894
0.7346909,-0.8660903,-0.7758162
0.8010878,-0.9101804,-0.844127
0.8211229,-0.6399446,-0.6917671
0.6849578,-0.4029553,-0.6682671
0.6101112,-0.4319615,-0.6100629
0.6919221,-0.4870387,-0.4604674
0.8799974,-0.4189193,-0.361905
1.044348,-0.4085445,-0.2492298
1.012536,-0.3602756,-0.3169033
0.869961,-0.1446304,-0.4497444
0.745216,-0.02925022,-0.4003518
0.4941323,-0.01667517,-0.4318934
0.4101222,-0.02210253,-0.4644839
0.6893666,-0.131945,-0.4835262
0.9305437,-0.2711311,-0.6095556
1.052782,-0.360325,-0.6248982
0.930523,-0.2303441,-0.5409768
0.626787,0.05547994,-0.2897555
0.569611,0.1573489,0.01202732
0.6660327,0.08432228,0.01844342
0.8880099,0.03984286,-0.1811289
1.137299,0.20216,-0.377018
1.132361,0.3873055,-0.3580645
1.100405,0.3179166,-0.2835253
1.160799,0.1459956,-0.351654
1.218313,-0.06171497,-0.382066
1.221047,-0.1535153,-0.4768838
1.197163,-0.05011164,-0.5951732
1.235324,-0.03661746,-0.6250331
1.232634,-0.07525344,-0.6979044
1.208154,-0.1917775,-0.709464
1.174188,-0.4080647,-0.6610438
1.053395,-0.3908097,-0.611873
0.9151467,-0.3010118,-0.501507
0.8234213,-0.3557465,-0.3958305
0.8072984,-0.3521246,-0.370744
0.7449699,-0.3379973,-0.4011419
0.6755209,-0.3318631,-0.3641855
0.7007879,-0.2536745,-0.3180435
0.6217805,-0.2413604,-0.3556029
0.4931849,-0.2231395,-0.39249
0.4770395,-0.1666957,-0.4168721
0.5595778,-0.217794,-0.3435695
0.7037058,-0.2696141,-0.2369217
0.8032647,-0.3058875,-0.2719504
0.8374084,-0.368198,-0.2448107
0.7759572,-0.3698492,-0.08740923
0.7128541,-0.3660755,0.0234371
0.823041,-0.3728093,0.072488
0.9303126,-0.3586047,0.03743539
0.9320323,-0.3467953,-0.01061396
0.9696082,-0.3180034,0.04739414
1.056999,-0.2912939,0.09092097
1.115929,-0.2994931,0.07820513
1.188246,-0.3271411,0.04382458
1.393717,-0.3367374,-0.0914577
1.517486,-0.3468928,-0.2238065
1.355337,-0.4744249,-0.2941971
1.234602,-0.7860244,-0.3936532
1.273431,-0.9939183,-0.4162312
1.201098,-0.7503765,-0.4147477
1.013094,-0.5039937,-0.5397461
0.8104944,-0.6754568,-0.5724033
0.7187458,-0.7611295,-0.4810217
0.8591687,-0.6671728,-0.4872082
0.9806341,-0.6048059,-0.5073453
0.9371242,-0.2922285,-0.4925108
0.7852069,0.03895207,-0.4453967
0.5126382,0.06524338,-0.3064523
0.4371111,0.01293102,-0.2513468
0.6012285,-0.04464106,-0.2965153
0.6947378,-0.07973742,-0.3238912
0.8154768,-0.06599583,-0.369867
0.8897276,-0.03246478,-0.392771
0.8250002,0.02778675,-0.3772044
0.8330095,0.0403453,-0.3660273
0.8591973,0.05104912,-0.3670639
0.9443687,0.05787686,-0.3686468
1.184239,0.04100076,-0.3714123
1.373334,0.0788073,-0.400061
1.427147,0.1102518,-0.4248521
1.394717,0.1067418,-0.4483147
1.252941,0.01914919,-0.4884561
0.9620436,-0.1134328,-0.5873955
0.6935818,-0.1205779,-0.7424351
0.7172693,-0.1290024,-0.8039586
0.8711827,-0.2321579,-0.7922307
0.9171695,-0.3203125,-0.7889652
0.9403459,-0.4217557,-0.7491595
0.9393109,-0.5267404,-0.6951994
0.9177247,-0.53143,-0.6128617
0.886885,-0.4875439,-0.5038305
0.7500364,-0.4029789,-0.4707625
0.6548096,-0.1845045,-0.4836683
0.6825155,-0.03344872,-0.4549127
0.7784234,-0.07519718,-0.4023596
0.9388767,-0.09525826,-0.3333176
0.947171,-0.110158,-0.2320146
0.8001714,-0.1981881,-0.122744
0.7252731,-0.2813231,-0.04690613
0.7554061,-0.3919828,-0.05683304
0.8820135,-0.4817032,-0.1301294
1.014572,-0.4748279,-0.1701895
1.062032,-0.4595364,-0.1457649
1.029271,-0.4697781,-0.1168758
0.9506998,-0.4827177,-0.1694034
0.9075975,-0.5240165,-0.3371309
0.9318573,-0.5640916,-0.6077419
0.9750768,-0.5381131,-0.7962086
0.9150267,-0.4845401,-0.7276061
0.8075506,-0.4591652,-0.6424076
0.8027397,-0.4623113,-0.5805946
0.8605203,-0.467597,-0.3932435
0.9300104,-0.3807165,-0.3619937
0.8793807,-0.1785211,-0.4177072
0.7102499,0.02347913,-0.3412307
0.5724399,0.08365058,-0.3446429
0.4953446,-0.01785929,-0.3634821
0.6031659,-0.1209296,-0.3688393
0.7876541,-0.1928469,-0.454658
0.8999181,-0.2611326,-0.4508915
0.9658703,-0.2296306,-0.3977039
0.8713695,-0.09607358,-0.3533055
0.8134878,0.1402128,-0.305074
0.8962423,0.3411679,-0.3241472
1.001325,0.2997017,-0.3120674
1.219658,0.1652636,-0.2556073
1.336552,0.06462936,-0.220335
1.299237,0.009826143,-0.2152093
1.296976,-0.02161638,-0.333922
1.187358,-0.1248674,-0.6285207
1.045965,-0.1405563,-0.9303349
1.039626,-0.1367268,-0.9450037
1.056361,-0.2634477,-0.8516222
1.023488,-0.2568064,-0.8763559
0.9529333,-0.2756565,-0.7449588
0.8823815,-0.4151781,-0.6332049
0.861475,-0.3227067,-0.6200478
0.8383046,-0.2126049,-0.4093352
0.746672,-0.2471924,-0.3786426
0.6897549,-0.2764779,-0.5095506
0.6440271,-0.3603469,-0.4595503
0.5516725,-0.3528324,-0.449378
0.5713714,-0.2324446,-0.4045969
0.6075238,-0.1523344,-0.3173898
0.5922899,-0.1087014,-0.3131114
0.6429832,-0.1903341,-0.2461576
0.652619,-0.2726588,-0.1639196
0.6384696,-0.2560843,-0.07981706
0.6712456,-0.3343883,-0.04503093
0.7503886,-0.4625209,-0.07388345
0.8895683,-0.4990199,-0.03390777
0.9518083,-0.4290672,-0.03467484
0.9761713,-0.3704942,-0.05015626
1.04295,-0.4230541,-0.03659406
1.089337,-0.4366034,-0.103987
1.191901,-0.3908437,-0.2319153
1.252726,-0.3964187,-0.3793879
1.103856,-0.51915,-0.4279772
1.009446,-0.8687594,-0.4939718
1.20683,-1.202014,-0.6621213
1.325439,-1.104301,-0.6151723
0.9697494,-0.7074843,-0.5083414
0.5449026,-0.4165485,-0.5337435
0.5668287,-0.3922905,-0.4582668
0.7966107,-0.5312561,-0.433656
0.9418762,-0.5317101,-0.5416064
1.003469,-0.3293585,-0.5921322
0.8957451,-0.1053623,-0.6002913
0.7406363,0.04385788,-0.5876754
0.7152831,-0.01950202,-0.5993102
0.7352049,-0.1345534,-0.5943724
0.7680033,-0.1596603,-0.5348157
0.7767133,-0.2196066,-0.5145244
0.7587027,-0.1426077,-0.4897603
0.757961,-0.04865306,-0.4794451
0.6890273,-0.03484906,-0.4506017
0.5951636,0.1286753,-0.3428167
0.5705574,0.2338622,-0.2862761
0.6211705,0.2441015,-0.2779437
0.694102,0.271115,-0.2825744
0.7575351,0.2345758,-0.2810099
0.9964775,0.1507889,-0.2717718
1.305258,0.01902865,-0.3007774
1.344918,-0.01588088,-0.347865
1.332765,0.02272304,-0.4603863
1.43052,-0.02250675,-0.5590358
1.323561,-0.1049132,-0.6424439
1.198841,-0.2669168,-0.7754303
1.341284,-0.3747836,-0.6994536
1.339981,-0.3216117,-0.5727579
1.054767,-0.3115392,-0.7058646
0.8293924,-0.3125137,-0.7734048
0.8597451,-0.2315624,-0.6910076
0.9667106,-0.188671,-0.670134
0.9160761,-0.1815291,-0.5581171
0.9252436,-0.1692474,-0.4057221
0.8443265,-0.2626195,-0.4458298
0.5859854,-0.3794408,-0.4717494
0.5909235,-0.3005021,-0.3440983
0.5653988,-0.1384953,-0.2817302
0.5114423,-0.03911266,-0.3165151
0.6641111,0.0295702,-0.3186973
0.5998246,0.01039885,-0.3054454
0.5671155,-0.06098494,-0.2812023
0.6889118,-0.2323902,-0.1613424
0.7564788,-0.5837534,-0.03423255
0.9934227,-0.73823,-0.09103457
1.112334,-0.6460835,-0.1770493
1.076985,-0.5866579,-0.1147003
1.201225,-0.4412476,-0.1197161
1.258824,-0.3393275,-0.1763887
1.254731,-0.4112473,-0.1916054
1.316573,-0.5227346,-0.3983505
1.430975,-0.7322848,-0.6601423
1.503991,-0.7665856,-0.6824788
1.090658,-0.5126344,-0.5943326
0.4588911,-0.3758172,-0.5925131
0.4221784,-0.3989188,-0.6225151
0.6664985,-0.4305694,-0.5789883
0.8119323,-0.3986879,-0.5174569
1.041654,-0.284993,-0.4162663
0.8211207,-0.08648854,-0.2869625
0.3556027,0.1153414,-0.2325657
0.4784691,0.05782027,-0.2656509
0.5985391,-0.0284625,-0.3705738
0.6175669,-0.009230223,-0.3958751
0.9279633,-0.1829221,-0.4092036
0.9201993,-0.2517035,-0.4528107
0.7826633,-0.1430271,-0.3388275
0.805943,-0.1100965,-0.2695127
0.6671687,-0.01320612,-0.259831
0.7289857,0.02065491,-0.2590095
0.9934691,-0.004982474,-0.3885285
1.205922,0.06027554,-0.4401894
1.452792,0.07785988,-0.4605443
1.477513,0.1217908,-0.4913204
1.358616,0.1282126,-0.5277753
1.293655,0.04418877,-0.7116525
1.178221,0.06016568,-0.7823364
1.148145,-0.002122876,-0.7484356
1.081037,-0.2313916,-0.765986
0.8875351,-0.4548975,-0.7341814
0.8651822,-0.5208082,-0.6915815
0.9161484,-0.313741,-0.592875
0.8777578,-0.07705938,-0.4923874
0.8163708,-0.01861341,-0.4605341
0.6814997,-0.1184994,-0.4227723
0.5388253,-0.2517834,-0.4116836
0.4963459,-0.2164073,-0.3963838
0.4973031,-0.2195577,-0.3710653
0.5254694,-0.3010431,-0.3424467
0.6270297,-0.2533098,-0.3039687
0.7364328,-0.26858,-0.2676462
0.7196356,-0.3212534,-0.1574392
0.6647726,-0.3341411,-0.06108649
0.7146889,-0.4314936,-0.06277237
0.8466059,-0.5299042,-0.06553962
1.138951,-0.5940901,-0.03471557
1.421753,-0.5591721,-0.007179878
1.35479,-0.4552514,-0.0476499
1.193076,-0.4488082,-0.1288021
1.128002,-0.4652386,-0.2393778
1.043454,-0.5621333,-0.5122104
1.067292,-0.6912452,-0.8208066
1.064205,-0.5387025,-0.8826702
0.8503798,-0.3009312,-0.8226762
0.5725899,-0.2575129,-0.8088933
0.4337187,-0.3017455,-0.6920321
0.6590382,-0.442775,-0.5427812
0.9606725,-0.5725928,-0.5202833
0.938929,-0.3981855,-0.4678655
0.6949261,-0.07030994,-0.3209005
0.3680483,0.08421887,-0.2202261
0.3017344,0.08383924,-0.2486095
0.5612166,0.03602336,-0.3449235
0.773155,-0.02742883,-0.4275123
0.9333012,-0.08529818,-0.4347438
0.9619507,-0.1246395,-0.3195849
0.888216,-0.05492757,-0.2444001
0.9532485,0.181311,-0.2696264
1.053717,0.4378503,-0.2967892
1.294761,0.4318032,-0.4346844
1.601189,0.1532692,-0.6235889
1.598146,-0.09647956,-0.6226551
1.416742,-0.2568052,-0.5581693
1.172027,-0.2920443,-0.6659939
0.9301423,-0.1988807,-0.8361648
0.9306018,-0.2261284,-0.9448265
1.031941,-0.3252515,-0.953909
1.023932,-0.4349075,-0.8665768
0.9774591,-0.5340245,-0.8481575
1.177871,0.1227868,-0.3040766
1.39577,0.03982741,-0.3812933
1.424364,0.01534295,-0.4859622
1.405392,-0.07563256,-0.5453614
1.357098,-0.1429707,-0.5993282
1.161979,-0.104412,-0.7416438
1.071452,-0.09603637,-0.8430418
1.077025,-0.2094464,-0.8077805
1.001967,-0.3963914,-0.8082484
0.8940253,-0.5218425,-0.8368697
0.8962987,-0.4407612,-0.7689288
0.9582041,-0.2108271,-0.6414268
0.9098988,-0.05340213,-0.487134
0.7812916,-0.0902987,-0.4251423
0.5652105,-0.2206826,-0.4353622
0.4455368,-0.2644711,-0.3812146
0.5650585,-0.2622905,-0.3842113
0.611037,-0.265447,-0.3899592
0.6212737,-0.2138017,-0.3541184
0.6499802,-0.1965855,-0.3566567
0.4903832,-0.2023183,-0.1985469
0.3838015,-0.1998566,-0.01420405
0.5351929,-0.2661448,-0.03547202
0.7906986,-0.3897812,-0.08488808
0.9854587,-0.5625051,-0.1024309
1.084904,-0.6200001,-0.1180457
1.136495,-0.5567731,-0.1153379
1.161611,-0.5606097,-0.1126769
1.194394,-0.5268729,-0.1725612
1.167227,-0.49116,-0.33186
1.112131,-0.5473172,-0.5725123
1.14082,-0.5777941,-0.8228069
1.130108,-0.5723563,-0.8248444
1.039736,-0.5608309,-0.6854733
0.8731757,-0.5350548,-0.6722794
0.7279441,-0.4525332,-0.5426845
0.8241894,-0.3447368,-0.3398007
0.9152415,-0.2914335,-0.3217752
0.8169739,-0.2309264,-0.36313
0.7313725,-0.09227325,-0.3756894
0.5920562,0.03389526,-0.3650969
0.4608849,-0.06305219,-0.3646379
0.5561745,-0.21964,-0.3866771
0.6814112,-0.1520565,-0.4111857
0.7381131,-0.1352611,-0.4597959
0.7701216,-0.1888223,-0.4383421
0.7358933,-0.07327538,-0.3640818
0.7570197,0.0101939,-0.3380653
0.7993733,0.1173205,-0.3355851
0.8859496,0.2888972,-0.3531718
1.088265,0.2329959,-0.3452415
1.205426,0.09412295,-0.3312317
1.360805,-0.0004417126,-0.3333097
1.463081,-0.1207383,-0.3066164
1.261244,-0.1398682,-0.3879535
1.136732,-0.1442222,-0.6057839
1.125778,-0.2101424,-0.7736328
1.123171,-0.259686,-0.7956589
1.208228,-0.375767,-0.7960105
1.143319,-0.4095973,-0.8412759
1.040399,-0.3251167,-0.7559457
0.9721779,-0.3424662,-0.6212849
0.8497087,-0.2676788,-0.5241321
0.831402,-0.1802902,-0.4006661
0.7483869,-0.3061799,-0.3914484
0.6069336,-0.3654309,-0.3883551
0.5529606,-0.3392013,-0.3489605
0.4876892,-0.2661691,-0.3627785
0.490802,-0.1369617,-0.3017192
0.5230916,-0.1387048,-0.2763698
0.5701133,-0.1743023,-0.2660713
0.6300044,-0.1991866,-0.1918567
0.5954573,-0.2706602,-0.1443084
0.6255212,-0.3204628,-0.06476554
0.7434306,-0.4012393,-0.06168204
0.9192228,-0.5078491,-0.08447357
1.132365,-0.5261513,-0.02481557
1.183355,-0.4611597,-0.01887254
1.154845,-0.4184618,0.003495717
1.176782,-0.4112356,0.0008241977
1.167532,-0.4353877,-0.1135364
1.083422,-0.5593136,-0.3132919
1.02104,-0.7850027,-0.6060215
1.105876,-0.9267847,-0.7521933
1.214775,-0.7169268,-0.7111291
1.17614,-0.4194017,-0.7086479
0.972076,-0.3952424,-0.6788225
0.7183489,-0.3617749,-0.5112151
0.6724677,-0.268642,-0.3191453
0.8039781,-0.2527585,-0.274021
0.8198608,-0.1167625,-0.3862769
0.7453863,0.03264211,-0.5100797
0.7163455,0.03542994,-0.5582285
0.7158309,-0.006107583,-0.5449024
0.7905221,-0.1133428,-0.4856015
0.8839193,-0.2733525,-0.4139405
0.8730523,-0.3145681,-0.3980296
0.7707694,-0.1773255,-0.3855421
0.6261038,-0.01527918,-0.3020493
0.5413722,0.1198521,-0.2140319
0.5261779,0.2475231,-0.1735208
0.5526356,0.2300741,-0.1969695
0.6660854,0.1299486,-0.2349508
0.8233264,0.09580693,-0.1967341
0.9896642,0.1025549,-0.1413289
1.077894,0.1122348,-0.097706
1.083146,0.04055289,-0.06539035
1.199776,-0.06274661,-0.1492836
1.380987,-0.1003349,-0.3434006
1.465906,-0.1227952,-0.602088
1.480638,-0.1430325,-0.7714064
1.458836,-0.2180302,-0.6922709
1.316031,-0.2891053,-0.6579053
1.043269,-0.1919587,-0.7747537
0.9148605,-0.1039055,-0.7984354
1.003665,-0.1986932,-0.7842796
1.032476,-0.2983665,-0.7279761
0.9952877,-0.3296773,-0.6021263
0.9631378,-0.3968861,-0.5173226
0.8197214,-0.4587337,-0.4365425
0.6743473,-0.4695325,-0.4333274
0.6385902,-0.4139725,-0.4851663
0.5853556,-0.2844621,-0.4788791
0.5512669,-0.2143278,-0.4753134
0.619917,-0.1678824,-0.4312931
0.6706011,-0.06928598,-0.378283
0.6392555,-0.05724193,-0.3025902
0.5592474,-0.09792646,-0.1345132
0.4874034,-0.1250608,-0.03312402
0.5232442,-0.2223525,-0.02711009
0.6596497,-0.377042,-0.05837639
0.8276859,-0.5082378,-0.09410495
0.9819984,-0.5402566,-0.1511001
1.036115,-0.4786229,-0.2059821
1.067316,-0.4395033,-0.121698
1.19556,-0.4828556,-0.08290915
1.278159,-0.5363586,-0.1737941
1.260879,-0.5913491,-0.2896434
1.247854,-0.7223939,-0.4729091
1.230401,-0.7888631,-0.5535212
1.136232,-0.6561714,-0.5225778
0.8983049,-0.5300525,-0.5365048
0.6848373,-0.5659617,-0.5674894
0.7583027,-0.6127397,-0.6127447
0.9452397,-0.5914354,-0.6161399
0.9816202,-0.5536233,-0.5683837
0.9281429,-0.3929657,-0.4873829
0.7897133,-0.1214766,-0.3617122
0.6136081,0.04779167,-0.2919701
0.5925871,0.07169366,-0.2997441
0.6289697,0.02865843,-0.3473894
0.618503,0.007712993,-0.3981777
0.6370398,-0.01279852,-0.385423
0.7028991,-0.1265746,-0.3435711
0.78145,-0.2348072,-0.3329826
0.7683633,-0.2206814,-0.336408
0.7449084,-0.1153269,-0.3412402
0.7949336,0.03517909,-0.3523239
0.8196677,0.1688155,-0.3685447
0.9475644,0.1445518,-0.4057687
1.204769,0.06039639,-0.4400561
1.31524,0.1058366,-0.4293923
1.262135,0.07772623,-0.3924574
1.292566,-0.04275057,-0.3720419
1.36173,-0.167823,-0.4028641
1.282264,-0.3503971,-0.5204439
1.198821,-0.3256739,-0.7164117
1.168615,-0.2037341,-0.8567223
1.118671,-0.2333644,-0.8684088
1.105543,-0.2859618,-0.843128
1.029257,-0.3814404,-0.7914779
0.9127119,-0.3614773,-0.6684629
0.8769478,-0.2417548,-0.5088734
0.81635,-0.2169467,-0.4161885
0.7211675,-0.1604939,-0.4284775
0.6226568,-0.1777281,-0.4306547
0.5254559,-0.2121907,-0.4063517
0.5058254,-0.1505741,-0.3983811
0.5374616,-0.1732793,-0.3647441
0.563345,-0.1742485,-0.3185199
0.5708063,-0.1724481,-0.2526911
0.5542175,-0.2229291,-0.1549328
0.5397043,-0.2131551,-0.07564942
0.5911356,-0.258609,-0.0544649
0.737901,-0.3638476,-0.09573043
0.9117425,-0.4543118,-0.1415078
1.065559,-0.4639708,-0.1803457
1.159602,-0.3926891,-0.1942921
1.160699,-0.3942903,-0.145695
1.176225,-0.4103671,-0.1395009
1.233991,-0.4371119,-0.2384868
1.19617,-0.5669135,-0.4562239
1.156564,-0.7031617,-0.7574416
1.264116,-0.7105473,-0.877089
1.25821,-0.5539835,-0.6906294
0.9117772,-0.4429577,-0.460802
0.5260238,-0.433013,-0.4032346
0.5703064,-0.3843443,-0.3933671
0.9004341,-0.3561812,-0.3467044
1.032268,-0.3212521,-0.379634
0.9934816,-0.200975,-0.4226294
0.7951584,-0.04269778,-0.3631449
0.4787834,0.02853698,-0.2812162
0.4133951,-0.03207457,-0.2535053
0.5184982,-0.06973184,-0.3131233
0.6635761,-0.1095289,-0.4227041
0.8645933,-0.1733172,-0.4716243
0.9375353,-0.1372039,-0.4394257
0.8677909,-0.06951188,-0.3817292
0.7811955,0.0330475,-0.3019616
0.7593437,0.1564075,-0.2471243
0.8023286,0.1608984,-0.2824173
0.9930171,0.1058213,-0.3184224
1.286118,0.04658782,-0.3163518
1.419961,0.004393039,-0.327199
1.4134,0.004772273,-0.3425348
1.333983,-0.06373246,-0.4452187
1.235738,-0.1687991,-0.6723962
1.223927,-0.2215151,-0.838243
1.296159,-0.2800227,-0.8246117
1.338883,-0.295915,-0.762721
1.140545,-0.2791576,-0.7564383
0.9302773,-0.3131899,-0.7022768
0.9743731,-0.2200762,-0.5974683
0.9924982,-0.01044173,-0.5051217
0.9219972,0.01761713,-0.4014569
0.8841127,-0.1323827,-0.3693924
0.7397092,-0.322557,-0.3696048
0.5444767,-0.4543462,-0.322494
0.4779641,-0.4504063,-0.2955176
0.4549926,-0.3688102,-0.2491316
0.483843,-0.2127416,-0.2344316
0.5607178,-0.06410952,-0.2789744
0.5476328,-0.04525445,-0.260909
0.5454809,-0.08366231,-0.1739455
0.5559949,-0.1452193,-0.07020097
0.5547641,-0.2341914,-0.079272
0.669656,-0.3898933,-0.1391702
0.8553459,-0.6268837,-0.1322907
0.9878535,-0.7146201,-0.1883056
1.000647,-0.5627373,-0.194014
1.108335,-0.4476702,-0.129789
1.291761,-0.4694523,-0.157259
1.214488,-0.4986475,-0.1550393
1.156611,-0.5620089,-0.1802449
1.261086,-0.6228318,-0.3365878
1.34107,-0.6264146,-0.5353723
1.416493,-0.6082446,-0.6200041
1.086837,-0.5561229,-0.4048624
0.5460794,-0.5938398,-0.2250154
0.5784875,-0.645029,-0.3534221
0.8131925,-0.5653289,-0.4456101
0.9079338,-0.4904373,-0.4971547
1.080715,-0.4017757,-0.6259449
1.004563,-0.323677,-0.5723704
0.7286767,-0.2648356,-0.4054832
0.6079821,-0.1565083,-0.3856408
0.5722124,-0.1646731,-0.4657433
0.6306671,-0.2148481,-0.5659866
0.6755031,-0.2291076,-0.5884499
0.7202212,-0.2967647,-0.5324808
0.8326558,-0.25562,-0.5472662
0.7828415,-0.1325916,-0.5372366
0.7414292,-0.03185774,-0.5055942
0.7281531,0.1147966,-0.5160444
0.6460801,0.2139128,-0.4292914
0.7469817,0.2543282,-0.3412983
0.8571878,0.2836355,-0.3102097
0.9277328,0.2357125,-0.280955
1.076224,0.1436045,-0.2660942
1.178942,0.02979985,-0.2194369
1.313314,-0.04299179,-0.2219829
1.392008,-0.005763271,-0.3118909
1.335492,0.0119572,-0.4891125
1.249348,-0.02624505,-0.7389816
1.16532,-0.1427564,-0.8903173
1.170144,-0.3923097,-0.8925356
1.12695,-0.5362479,-0.8234022
0.9150747,-0.4840831,-0.7861457
0.764421,-0.4008176,-0.7313152
0.7894125,-0.277198,-0.602406
0.8221806,-0.1868536,-0.5523911
0.7777489,-0.2190802,-0.5326864
0.7372512,-0.2400066,-0.4847449
0.6519884,-0.2377513,-0.4692174
0.5118089,-0.2385806,-0.4149694
0.4549657,-0.1842275,-0.3578041
0.5027133,-0.1060531,-0.3544064
0.6011111,-0.03069873,-0.332367
0.6442066,-0.02526504,-0.2570754
0.5728295,-0.1112322,-0.1649026
0.5268896,-0.2095762,-0.08261033
0.6488786,-0.3730412,-0.05357426
0.8533768,-0.5515824,-0.1058537
0.9592493,-0.5998473,-0.1326876
0.9878867,-0.554604,-0.1154488
1.004438,-0.4770218,-0.09285877
1.034939,-0.4053911,-0.04945915
1.160322,-0.3803356,-0.08046643
1.270844,-0.4413993,-0.2084471
1.249803,-0.562749,-0.4139163
1.225762,-0.6709048,-0.6298316
1.234841,-0.716791,-0.6699634
1.08839,-0.5590994,-0.6107761
0.7732612,-0.3631467,-0.5914464
0.6100702,-0.4215926,-0.5554712
0.7594431,-0.4979293,-0.5227569
0.9983013,-0.4824625,-0.5330172
1.082025,-0.478697,-0.5322426
0.9801005,-0.2964283,-0.4674445
0.7825941,-0.005326143,-0.3549123
0.6301165,0.09738028,-0.2834203
0.5993539,0.05333893,-0.3147041
0.592332,0.01607358,-0.3782224
0.6184352,-0.03266688,-0.3909285
0.7128307,-0.1121899,-0.3845581
0.7600927,-0.158439,-0.3597921
0.7591642,-0.1495618,-0.3124739
0.7572559,-0.0791736,-0.263957
0.768989,0.03526115,-0.2251862
0.7894534,0.1450008,-0.2591107
0.8426786,0.2129696,-0.2978403
1.029482,0.1526163,-0.3117995
1.270469,0.03163641,-0.368951
1.336935,-0.0118168,-0.3667354
1.250401,-0.0680312,-0.3880842
1.255837,-0.142033,-0.5630911
1.278976,-0.1280843,-0.6885572
1.204879,-0.1207248,-0.6818179
1.206946,-0.2183943,-0.7001487
1.195213,-0.3121549,-0.7483208
1.084166,-0.3301071,-0.7098717
0.9688175,-0.3648908,-0.6537091
0.9107219,-0.3653591,-0.6272733
0.9679082,-0.261757,-0.5609502
0.9486804,-0.2015107,-0.5021946
0.8452189,-0.2343072,-0.4478722
0.7482684,-0.3086135,-0.416569
0.5878098,-0.3696806,-0.4155564
0.5323902,-0.3343251,-0.3737799
0.5248934,-0.2536657,-0.3696127
0.4992662,-0.184009,-0.3623115
0.5808387,-0.1375503,-0.3149421
0.6202829,-0.1724683,-0.2592124
0.6110735,-0.2345828,-0.1283547
0.6285565,-0.2734285,-0.03274776
0.7038237,-0.3343539,0.003057861
0.9137279,-0.4057789,0.005015155
1.161668,-0.5059066,-0.05215453
1.315965,-0.6300386,-0.06244774
1.282829,-0.6890632,-0.08646781
1.178837,-0.7192601,-0.1528286
1.136396,-0.7627408,-0.2554203
1.092449,-0.7581532,-0.4513293
1.09313,-0.6965834,-0.5996915
1.081172,-0.5262197,-0.6589911
0.9572355,-0.2173316,-0.6926937
0.7395585,-0.01506028,-0.7505093
0.5783739,-0.09366767,-0.766185
0.7188906,-0.2835589,-0.5153949
0.9237629,-0.4338779,-0.2496803
0.9529823,-0.4278745,-0.3068302
0.9050038,-0.223628,-0.3449858
0.7237185,-0.0376005,-0.2177653
0.5793422,0.0552848,-0.257315
0.6267593,0.07524089,-0.3441655
0.7155865,0.01395472,-0.3391221
0.8109505,-0.02855782,-0.3872025
0.8512768,-0.0845911,-0.3313051
0.8334901,-0.1090766,-0.2488488
0.8404087,-0.0361855,-0.2749333
0.8667951,0.02923955,-0.2566712
0.9401889,0.1043266,-0.3107814
1.049919,0.1406519,-0.3849945
1.153353,0.1215019,-0.368507
1.230484,0.1142052,-0.3535579
1.294925,0.04329481,-0.316824
1.341948,-0.06921541,-0.3420893
1.306426,-0.1972025,-0.4419687
1.243491,-0.2950038,-0.595854
1.232883,-0.2614569,-0.7219404
1.224313,-0.2120158,-0.6678434
1.136817,-0.2319381,-0.6617569
0.9867809,-0.2789102,-0.7260519
