accx,accy,accz
0.9422095,-0.1277175,0.03659028
0.8904905,-0.1512211,0.00736388
0.7720799,-0.1648493,0.0135111
0.6730068,-0.2009815,0.01546543
0.6399851,-0.2284683,0.04609658
0.6631539,-0.1869445,0.0983029
0.6619946,-0.1935341,0.1275213
0.6843185,-0.1581568,0.1092219
0.7051843,-0.08822277,0.08839129
0.6618443,-0.1048419,0.1079222
0.6604201,-0.1136645,0.1062039
0.6880892,-0.1713644,0.1111
0.7287424,-0.2633399,0.1466003
0.8089501,-0.3144568,0.1587807
0.914049,-0.3383056,0.1651112
1.078542,-0.295384,0.1406453
1.249275,-0.2471684,0.1002132
1.439752,-0.1929548,0.09481917
1.63857,-0.1964469,0.05634187
1.707847,-0.3478922,-0.005491254
1.719927,-0.4843564,-0.01272107
1.680843,-0.5298075,0.01739741
1.416749,-0.5253354,0.07442692
1.038243,-0.471642,0.1291105
0.8568396,-0.3728242,0.08364456
0.8266614,-0.3274581,0.007513475
0.7249646,-0.3885182,0.01216379
0.7311822,-0.456061,0.002778818
0.882927,-0.5387325,-0.03322771
0.9338787,-0.5244477,-0.05786043
0.9185673,-0.3552301,-0.08952882
0.8521517,-0.2373011,-0.05828435
0.7667065,-0.1329203,-0.02608656
0.7487145,-0.05484668,-0.04075436
0.7476691,-0.07681891,-0.02635942
0.7785975,-0.1143249,-0.048131
0.7753626,-0.1701852,-0.08592714
0.7565628,-0.1854486,-0.06691532
0.7730899,-0.198876,-0.05940834
0.7584956,-0.2173369,-0.06868708
0.8065982,-0.1636232,-0.07388907
0.8697257,-0.1626241,-0.08988153
0.8831353,-0.1705738,-0.09264096
0.8807825,-0.1365397,-0.07464076
0.834581,-0.09498964,-0.04798928
0.8404736,-0.03402256,-0.01830777
0.9215479,-0.07961476,-0.0141582
1.098383,-0.1650511,-0.02206241
1.324219,-0.1998487,-0.003163071
1.449101,-0.2413065,0.01910751
1.529501,-0.2359744,0.03634587
1.573798,-0.2238831,0.007288657
1.61037,-0.2694288,-0.08320286
1.639465,-0.4389208,-0.1445838
1.494025,-0.7100681,-0.2026409
1.205791,-0.7797435,-0.231565
0.9161083,-0.660704,-0.1299839
0.7668711,-0.5385063,-0.001755914
0.7862089,-0.2893783,0.05543004
0.8416775,-0.09324914,0.04616767
0.9093328,-0.1496037,0.01853422
1.000688,-0.2031691,0.0004324791
1.078426,-0.2310776,-0.04644237
1.055623,-0.2565405,-0.05980126
0.9143861,-0.1983568,-0.04382064
0.7817137,-0.208283,-0.05287106
0.696115,-0.2438096,-0.02166405
0.6395223,-0.2571024,0.01368992
0.6163132,-0.2875201,0.03500783
0.6363616,-0.2290693,0.0820982
0.6856436,-0.1659026,0.09526429
0.7040027,-0.131349,0.08308348
0.7029405,-0.106637,0.08548346
0.6811432,-0.1347061,0.08980422
0.6628954,-0.1428187,0.0970469
0.7257579,-0.2112316,0.1131259
0.8788469,-0.3407014,0.1307786
1.149929,-0.4172984,0.126112
1.412999,-0.4458987,0.1211033
1.485604,-0.3825645,0.1247916
1.455322,-0.2706629,0.09750087
1.47892,-0.187429,0.06722294
1.589104,-0.1965202,0.06141801
1.629555,-0.3294463,0.05210972
1.421614,-0.4722498,0.03699993
1.101197,-0.5555437,0.0394545
0.9502165,-0.5205958,0.04346003
0.9008838,-0.4596823,0.01269003
0.7815014,-0.4889302,-0.02546743
0.7679694,-0.4866602,-0.04027914
0.8447729,-0.494852,-0.04728176
0.858253,-0.4924125,-0.06808469
0.888145,-0.3872198,-0.0942994
0.8497624,-0.2984031,-0.07137483
0.765328,-0.1737846,-0.02819944
0.752231,-0.06009443,-0.03117817
0.7247722,-0.08262882,-0.0465658
0.6827686,-0.1167852,-0.06532656
0.6270891,-0.14854,-0.08848721
0.6184908,-0.2081743,-0.08865843
0.6953472,-0.2385619,-0.0915223
0.7817769,-0.22554,-0.1007832
0.9048387,-0.2078563,-0.09956223
0.9543524,-0.176838,-0.09418059
0.9168977,-0.0844929,-0.08408841
0.9382946,-0.01955808,-0.0723847
0.9595734,-0.009155564,-0.04549306
0.9845383,0.01134904,-0.01071699
1.048061,0.003240114,-0.01175829
1.224783,-0.08238562,-0.02485418
1.584549,-0.2040394,-0.01208903
1.765458,-0.2533588,-0.01059306
1.629723,-0.2600994,-0.03001525
1.551436,-0.3201685,-0.0585413
1.523342,-0.4321959,-0.1203563
1.381496,-0.6067629,-0.1824838
1.20964,-0.7647651,-0.1953686
0.98843,-0.7688216,-0.1590239
0.8944363,-0.6852758,-0.09245157
1.024533,-0.6060463,-0.04779675
1.030334,-0.4726052,-0.04025788
0.9100614,-0.3487889,-0.0196138
0.8139559,-0.3022255,0.01552649
0.7373716,-0.25977,0.009945399
0.7618599,-0.2253762,-0.01048158
0.7619957,-0.1728453,-0.002146467
0.7075727,-0.1269464,-0.008476747
0.687977,-0.14222,0.009734411
0.6665727,-0.1454005,0.064615
0.6939086,-0.1589661,0.07255389
0.7142124,-0.1756034,0.07549556
0.7146937,-0.1673595,0.08227686
0.7340865,-0.1834166,0.06538938
0.7030171,-0.1901064,0.06817209
0.703139,-0.1969736,0.07615771
0.7621512,-0.2224954,0.0903996
0.8522167,-0.2491047,0.1026169
1.003053,-0.28345,0.09295679
1.173246,-0.3140223,0.09576927
1.301405,-0.3422053,0.0983387
1.332857,-0.3558706,0.08394871
1.37773,-0.4032055,0.03972631
1.508781,-0.5024159,-0.01572198
1.606071,-0.5358632,-0.0128857
1.571375,-0.4759891,0.01275111
1.284267,-0.3839189,0.05177684
0.8905943,-0.3485002,0.120666
0.7120942,-0.4350975,0.09572757
0.7208067,-0.5716625,0.03225227
0.8008754,-0.673298,0.03789277
0.9430495,-0.6938776,-0.03273557
1.01139,-0.6129992,-0.1201838
0.8899965,-0.4951569,-0.1016832
0.7431033,-0.3980132,-0.09095925
0.6942261,-0.2753669,-0.08480058
0.6913973,-0.1379842,-0.09815926
0.7874094,-0.1123652,-0.1442807
0.9409719,-0.185941,-0.1470534
0.9925228,-0.243825,-0.1676149
0.9079287,-0.2526299,-0.1631037
0.775855,-0.2368268,-0.1047108
0.7053877,-0.2336724,-0.08107151
0.7004122,-0.214989,-0.05364424
0.7575507,-0.1847518,-0.04855366
0.8414007,-0.1921446,-0.07271644
0.8805535,-0.1927726,-0.06462192
0.8684028,-0.1598841,-0.0622662
0.8032,-0.1024054,-0.05829275
0.784097,-0.04227738,-0.05751544
0.9093383,-0.0428729,-0.0833537
1.159734,-0.09634064,-0.1034361
1.396649,-0.1529143,-0.1066718
1.459406,-0.2126664,-0.05926817
1.478676,-0.2882949,0.002021823
1.562006,-0.3247812,-0.002251361
1.592393,-0.2612208,-0.03330079
1.566788,-0.2240518,-0.07151826
1.525963,-0.3772868,-0.113602
1.413685,-0.6550848,-0.1016663
1.183684,-0.8545431,-0.05452551
0.9489917,-0.8228124,0.0009120261
0.7885979,-0.6102971,0.07798518
0.6457375,-0.3779154,0.1010018
0.5982796,-0.218385,0.06639969
0.696248,-0.2105454,0.0540509
0.8656157,-0.2787257,0.006696631
1.01392,-0.2970772,-0.06145867
1.024864,-0.3066462,-0.07945892
0.9386703,-0.3001402,-0.0966178
0.7866406,-0.3015244,-0.07544728
0.5828223,-0.3357802,-0.005912277
0.5643894,-0.3279408,0.04085981
0.6564279,-0.276033,0.08307055
0.6296088,-0.1660969,0.09321468
0.7102893,-0.06499864,0.07099068
0.8481915,-0.03511326,0.0731253
0.8265011,-0.01976052,0.06575315
0.8164289,-0.05864835,0.06772131
0.7783136,-0.1314844,0.1191571
0.738546,-0.2151277,0.1801464
0.8372233,-0.3248985,0.2180986
0.9816336,-0.3961688,0.2056807
1.161091,-0.4363423,0.1837845
1.234195,-0.4003727,0.1886759
1.257275,-0.2961958,0.1766133
1.396377,-0.2333589,0.1701274
1.500232,-0.1977559,0.1510497
1.697672,-0.2326643,0.1011648
1.839831,-0.3163185,0.0975205
1.518316,-0.3840945,0.1064106
1.035119,-0.5230407,0.1112855
0.7811146,-0.6117513,0.130547
0.7880676,-0.5820492,0.07828521
0.9124074,-0.5864995,-0.01966879
0.9933053,-0.5535792,-0.08342665
1.04525,-0.4739337,-0.1291823
1.043657,-0.4303691,-0.1490672
0.9511939,-0.3671435,-0.1229746
0.8177711,-0.3046161,-0.07862554
0.7131456,-0.2242662,-0.05601178
0.7081249,-0.138507,-0.07075691
0.7355405,-0.1207723,-0.1085079
0.7443054,-0.1143871,-0.1393716
0.7664649,-0.1281468,-0.137247
0.7552301,-0.1894469,-0.101891
0.7214662,-0.2731891,-0.06395224
0.7052067,-0.3316295,-0.04908427
0.7020729,-0.3097356,-0.04260688
0.7367316,-0.2825636,-0.03714577
0.7898651,-0.2406485,-0.04046232
0.8709596,-0.09440451,-0.03296294
0.9748709,0.084191,-0.009029112
0.9761192,0.1387767,0.01262926
0.9691174,0.0369233,0.03371347
1.159798,-0.09444861,0.07475494
1.36332,-0.2282555,0.1020865
1.446743,-0.2907652,0.05726935
1.61069,-0.2634802,-0.002998176
1.720878,-0.3165804,-0.02361197
1.619516,-0.3591366,-0.07314007
1.56916,-0.4814713,-0.1828665
1.463811,-0.7243517,-0.265845
1.124338,-0.7846185,-0.2521502
0.9057909,-0.8261298,-0.2126374
0.9005323,-0.7943263,-0.1664316
0.8913615,-0.5602569,-0.06639292
0.8543099,-0.4505615,-0.03538688
0.841009,-0.2992119,-0.04969017
0.8552894,-0.08906056,0.009891848
0.8791966,-0.1255569,0.01178069
0.9353159,-0.2046412,-0.007751493
0.9112964,-0.1854728,0.04729923
0.8201783,-0.2258481,0.05445808
0.8129877,-0.2802369,0.04209898
0.7556758,-0.2079946,0.05264912
0.6909163,-0.1474795,0.04210103
0.6795049,-0.1185154,0.048333
0.6255719,-0.05681495,0.07373782
0.6235926,-0.09584372,0.1092365
0.6247013,-0.1469367,0.1269207
0.6474387,-0.1950177,0.1167736
0.7491231,-0.2469725,0.1302382
0.8297507,-0.2115039,0.1365897
0.9421955,-0.2274884,0.1213458
1.097548,-0.2432781,0.09910888
1.287796,-0.2285104,0.06410497
1.421956,-0.2513862,0.05175411
1.446104,-0.23822,0.01857568
1.562546,-0.2684209,-0.04527096
1.702373,-0.3312064,-0.06316986
1.731113,-0.3558079,-0.05080147
1.585545,-0.3392854,0.0484433
1.171984,-0.3062883,0.2141362
0.8060632,-0.389003,0.2060812
0.7442248,-0.5036539,0.08773296
0.8602132,-0.5592627,0.0183887
0.9857487,-0.5947824,-0.06448503
1.054686,-0.5203125,-0.06394968
1.104117,-0.3653171,-0.03299214
1.00465,-0.2336918,-0.08574372
0.8108344,-0.1699777,-0.03826122
0.7558753,-0.1756658,0.0319761
0.737676,-0.1455216,0.02784414
0.7233169,-0.04986715,0.02352412
0.7149388,0.0445217,-0.03497153
0.6831713,0.05465691,-0.05489857
0.7154342,-0.004660052,-0.0613184
0.7323915,-0.04436588,-0.1200262
0.7628896,-0.12112,-0.1029524
0.8769588,-0.2134258,-0.09005951
0.9978891,-0.2926957,-0.1013846
1.046878,-0.3700423,-0.07498399
0.9230605,-0.2622953,-0.05741163
0.7921952,-0.08014666,-0.01059779
0.79619,-0.01887277,0.01775413
0.8701813,0.009540661,-0.02656219
1.006457,0.0006296239,-0.07111875
1.090447,-0.01262745,-0.08844256
1.180879,-0.08875674,-0.09727772
1.330251,-0.2172905,-0.09241976
1.374216,-0.2100084,-0.03961928
1.447372,-0.2034341,0.01102813
1.613675,-0.2481726,-0.04137591
1.765478,-0.3545544,-0.1681589
1.871667,-0.5423176,-0.2418208
1.690545,-0.6248297,-0.2083094
1.261003,-0.7002936,-0.146385
0.9225148,-0.6804974,-0.09196707
0.6888729,-0.4499427,-0.002053074
0.6202983,-0.3291691,0.04909779
0.7247684,-0.2908375,0.01736061
0.77938,-0.2506484,-7.648043e-05
0.8612011,-0.2393745,-0.01925666
0.9565164,-0.1360028,-0.05888822
0.9385221,-0.07707021,-0.08169561
0.9171934,-0.07881585,-0.1055138
0.822041,-0.04882192,-0.05129466
0.6648138,-0.0899506,0.04419702
0.5968237,-0.1347552,0.06854785
0.5894035,-0.1737683,0.09435425
0.6251052,-0.2059324,0.1184188
0.637742,-0.1622787,0.1126392
0.6385562,-0.1617318,0.1072833
0.7130184,-0.175009,0.08629757
0.8153924,-0.1723381,0.06994986
0.8984927,-0.215278,0.07576279
0.9536053,-0.2497059,0.0953508
1.043506,-0.2828048,0.09946547
1.149712,-0.2580222,0.0862936
1.250572,-0.1742355,0.07708092
1.385616,-0.1283894,0.04358287
1.449079,-0.1172963,-0.01324703
1.543592,-0.2292428,-0.05763359
1.736304,-0.4496595,-0.03994344
1.746829,-0.6198713,0.02346456
1.448957,-0.6907744,0.1000707
0.9365546,-0.6329077,0.1824232
0.5461803,-0.5241289,0.1513038
0.5184271,-0.4472906,0.06996716
0.6772913,-0.3884544,0.03609501
0.9540929,-0.4328155,-0.07776374
1.22634,-0.5186916,-0.1765325
1.197038,-0.5208994,-0.172686
0.9526227,-0.5100895,-0.1185912
0.7634702,-0.4282291,-0.01423501
0.696633,-0.2640711,-0.02168304
0.7294927,-0.1606737,-0.1074485
0.7832602,-0.09506768,-0.1370739
0.8072467,-0.07647553,-0.184403
0.8387132,-0.1170724,-0.1948873
0.8233604,-0.1669857,-0.1734621
0.8009123,-0.2824469,-0.1637253
0.8372586,-0.3883048,-0.1349165
0.8381342,-0.3597886,-0.141536
0.8725747,-0.2709391,-0.1355855
0.9286538,-0.1797233,-0.120936
0.9280886,-0.06695324,-0.1409421
0.9550847,0.02010024,-0.1340656
0.9334152,0.03579531,-0.1034038
0.8658417,-0.001831098,-0.04466477
0.847472,-0.05045697,0.004645287
0.8818509,-0.08327222,0.009552157
1.030497,-0.1543414,-0.001372409
1.219913,-0.256649,-0.02564565
1.331966,-0.2862164,-0.01654525
1.435135,-0.2596878,-0.01374129
1.578577,-0.2089441,-0.05618427
1.627135,-0.125493,-0.07711621
1.556375,-0.1512981,-0.08727132
1.518755,-0.407339,-0.113454
1.45928,-0.7427839,-0.1704572
1.25808,-0.8855842,-0.2065311
0.976184,-0.7904722,-0.1511632
0.7744164,-0.6546289,-0.06859369
0.7190831,-0.4954979,-0.002714944
0.720005,-0.3129713,0.01261341
0.7584692,-0.2828547,-0.0196245
0.8189871,-0.26984,-0.02161359
0.8896155,-0.218071,-0.03714476
0.9406038,-0.2550079,-0.06529919
0.8508665,-0.2429855,-0.03868683
0.7162798,-0.2626467,-0.009526847
0.6556732,-0.3244469,0.01600794
0.6548511,-0.2746158,0.06725626
0.7012818,-0.2409394,0.1037242
0.7166014,-0.186795,0.1052485
0.7203912,-0.1151237,0.09611349
0.7467671,-0.1214958,0.1023578
0.7754141,-0.1377981,0.1111846
0.8331079,-0.2156111,0.1148879
0.9099822,-0.3344967,0.1217465
1.02014,-0.3970598,0.1200053
1.120716,-0.3820247,0.1244747
1.18329,-0.3006842,0.1363286
1.297896,-0.2023149,0.1285368
1.47964,-0.1582106,0.09240985
1.703177,-0.3060901,0.0387923
1.769867,-0.5701973,0.03071287
1.452772,-0.7626106,0.08027488
1.033698,-0.835567,0.1181015
0.8898044,-0.7379055,0.1290171
0.8978418,-0.5942717,0.1028934
0.8249924,-0.4207001,0.0165583
0.7512089,-0.1746938,-0.07079061
0.792432,-0.2264336,-0.0792433
0.8845575,-0.4696102,-0.08022613
0.9415852,-0.4890408,-0.1458254
0.9029562,-0.4731482,-0.1312383
0.7662656,-0.4014569,-0.04309447
0.6384628,-0.198025,-0.01631035
0.6314542,-0.1296489,-0.001019273
0.7129339,-0.1084201,-0.02501472
0.7693101,-0.07055583,-0.07764557
0.8108753,-0.08804158,-0.09741294
0.8410265,-0.1272222,-0.130775
0.8229079,-0.1918872,-0.1185431
0.8251203,-0.2244027,-0.09760829
0.8400029,-0.2691793,-0.09988335
0.8500899,-0.2844838,-0.06915648
0.884166,-0.2415175,-0.07501146
0.8762842,-0.2094321,-0.08235387
0.8754466,-0.08996052,-0.08529902
0.9638288,-0.008654959,-0.1048775
1.090238,-0.02207103,-0.09841037
1.198609,-0.0484209,-0.1081993
1.250889,-0.1616841,-0.0851931
1.33074,-0.2760101,-0.06205091
1.489809,-0.3417079,-0.1081999
1.596688,-0.3378054,-0.1427758
1.616438,-0.3300964,-0.1646261
1.589847,-0.4798669,-0.1915597
1.477739,-0.6401574,-0.2280826
1.267513,-0.6976059,-0.2319664
1.046016,-0.6754384,-0.1725799
0.9083309,-0.584016,-0.121197
0.8703047,-0.420672,-0.05934281
0.8367083,-0.1783675,-0.007783186
0.7200537,-0.05865721,0.0002977358
0.6694751,-0.08751644,0.01742358
0.7257596,-0.133019,0.02009077
0.7503027,-0.2253887,0.005285256
0.8225572,-0.26206,-0.0150636
0.8743731,-0.233736,-0.03226946
0.8225755,-0.2251547,-0.02108299
0.8296137,-0.1915229,-0.007133058
0.8483949,-0.1850931,0.009206313
0.8380583,-0.2021453,0.02725418
0.8296413,-0.2055373,0.04383729
0.7903445,-0.2255121,0.06332899
0.787936,-0.2217387,0.07175594
0.8116303,-0.2108652,0.078537
0.8362748,-0.2197235,0.06891171
0.872934,-0.2163317,0.04513566
0.8954027,-0.2157459,0.02610737
0.9534612,-0.2221849,0.01950191
1.067027,-0.217077,0.04424205
1.192291,-0.2022905,0.0533926
1.303247,-0.1712718,0.02164219
1.428774,-0.1539785,-0.03357656
1.583722,-0.2357352,-0.09999135
1.659634,-0.4135274,-0.1046654
1.597957,-0.5188264,-0.01741068
1.37621,-0.4227935,0.1037881
0.9226668,-0.2804462,0.1724857
0.5569482,-0.2796382,0.1584385
0.6716121,-0.3752053,0.1002656
0.9140169,-0.5224983,-0.02546411
0.9935133,-0.6125301,-0.1483744
1.06049,-0.5205902,-0.129019
0.9849715,-0.392334,-0.07103625
0.8679842,-0.2880792,-0.06415834
0.8366374,-0.1987705,-0.03241494
0.7300301,-0.1833849,-0.01270694
0.7557944,-0.1490038,-0.02865404
0.8323239,-0.1374354,-0.0421991
0.7853492,-0.1628904,-0.07455685
0.8060567,-0.1018338,-0.08943951
0.760145,-0.06547333,-0.08600067
0.6690761,-0.07233079,-0.07704357
0.6906265,-0.07996119,-0.05163858
0.7612441,-0.1451053,-0.07485351
0.8499546,-0.1928299,-0.1010838
0.8500387,-0.2589865,-0.1143067
0.8585184,-0.3631276,-0.1559036
0.9154198,-0.3723772,-0.1402708
0.9025831,-0.3246085,-0.1110934
1.017439,-0.2493335,-0.1047391
1.240851,-0.05625404,-0.0535848
1.302911,0.1580464,-0.02558859
1.227909,0.1910671,-0.04145623
1.2007,0.02541521,-0.05636304
1.279096,-0.2896144,-0.1159721
1.421238,-0.6097088,-0.2210019
1.628471,-0.6787075,-0.2680896
1.729035,-0.6162441,-0.2100586
1.58028,-0.7021687,-0.1508988
1.362436,-0.8035527,-0.1696889
1.122055,-0.7206067,-0.1963012
0.8990852,-0.5235692,-0.1837091
0.8238856,-0.2744334,-0.1165453
0.7740105,-0.09062504,0.00749394
0.7512465,-0.1449299,0.04732734
0.8070422,-0.2268489,0.0006166071
0.8535814,-0.2207339,-0.004322635
0.9264023,-0.2589958,-0.03468453
0.9104841,-0.2163342,-0.06028498
0.7431778,-0.1571207,0.008753773
0.6077897,-0.1663467,0.07288372
0.5440936,-0.1283367,0.1108412
0.5307377,-0.1269742,0.1543696
0.5480858,-0.1282042,0.1575003
0.616145,-0.1161453,0.1091085
0.7092626,-0.1602985,0.060038
0.7198399,-0.1947474,0.04779128
0.7450657,-0.2549199,0.05258953
0.8138704,-0.3128307,0.06616893
0.8982301,-0.3469957,0.09205371
1.060531,-0.3738939,0.1190442
1.205095,-0.3122104,0.1269962
1.28279,-0.1827577,0.1035998
1.326923,-0.01549268,0.0625359
1.417623,0.02544153,-0.005328737
1.640064,-0.2364506,-0.07657918
1.809456,-0.6171212,-0.08506653
1.7101,-0.801328,0.0225672
1.321471,-0.6479878,0.1657005
0.8155837,-0.4396654,0.1508953
0.5717793,-0.3767715,0.09062715
0.6908127,-0.3270275,0.09710432
0.8597697,-0.4491013,0.0005864403
1.018878,-0.6468385,-0.07777385
1.110991,-0.6225069,-0.06371929
0.9522775,-0.618427,-0.121081
0.8417322,-0.6418715,-0.1429115
0.7516698,-0.467505,-0.06497095
0.5351053,-0.2215703,-0.003200611
0.6155275,-0.0521447,-0.05348495
0.7798415,0.02379031,-0.157955
0.756701,0.05447922,-0.1666841
0.8023409,-0.009226851,-0.1687677
0.793255,-0.1345744,-0.1765066
0.7649458,-0.1991527,-0.142587
0.8491143,-0.2884633,-0.1511428
0.8876153,-0.3574637,-0.1375362
0.8949717,-0.3242892,-0.1176281
0.8804475,-0.2492865,-0.1015908
0.8646762,-0.1660069,-0.05856261
0.9333237,-0.1452273,-0.09456771
1.075839,-0.1544064,-0.1344029
1.250913,-0.1724965,-0.1242425
1.331366,-0.2087401,-0.1075872
1.36913,-0.1756593,-0.04763056
1.45709,-0.1169272,-0.0003637888
1.480083,-0.09846113,-0.01454629
1.535409,-0.1101053,-0.08760918
1.615651,-0.1814579,-0.1840047
1.555496,-0.3955854,-0.2245586
1.405204,-0.6999524,-0.2092448
1.130198,-0.7932839,-0.1700373
0.9014676,-0.6563209,-0.1087049
0.8646587,-0.5000497,-0.0568433
0.7855708,-0.24583,-0.05183522
0.7563627,-0.03708878,-0.03878108
0.8449475,-0.09943722,-0.02115609
0.8922229,-0.1639877,-0.05460483
0.914422,-0.1829358,-0.0616287
0.838325,-0.2390179,-0.04228534
0.7033723,-0.2005206,-0.02860786
0.6284586,-0.2018454,0.01195893
0.5791998,-0.2099058,0.03229329
0.557728,-0.120833,0.0648623
0.5367318,-0.1018682,0.1216505
0.5770368,-0.1168413,0.1128207
0.7057396,-0.1332682,0.07458515
0.7771943,-0.1552293,0.06391679
0.7961658,-0.1730105,0.07588928
0.6045109,-0.2474249,0.03139237
0.6016308,-0.2446013,0.06795862
0.6374564,-0.2113935,0.1021237
0.6864202,-0.1616392,0.1173476
0.6967846,-0.1032642,0.08579016
0.6965796,-0.05453189,0.08203992
0.7151846,-0.06051393,0.08635647
0.7838038,-0.1466028,0.09248153
0.9369967,-0.2918039,0.1063346
1.132085,-0.4371227,0.1205033
1.286298,-0.4714756,0.1616062
1.387303,-0.3787703,0.1763293
1.451563,-0.3299211,0.1471237
1.491653,-0.3814718,0.08392355
1.548363,-0.4691302,0.0103458
1.512352,-0.5575433,0.01845667
1.268182,-0.5780341,0.0556897
0.9948675,-0.5777137,0.04838927
0.8971362,-0.5855228,0.05489579
0.8773425,-0.4928319,0.03781898
0.7558698,-0.3916361,-0.02409936
0.7351559,-0.4043824,-0.04080224
0.9300923,-0.443672,-0.06191382
1.02346,-0.4579354,-0.1189495
0.992509,-0.4272141,-0.1071202
0.8854395,-0.3045903,-0.03315323
0.7106242,-0.1441225,0.02192505
0.6953542,-0.05788951,0.005719369
0.7083562,-0.04664468,-0.05314536
0.6815428,-0.0625281,-0.08164387
0.7297591,-0.1543095,-0.0895247
0.7294834,-0.2592015,-0.08116463
0.7480849,-0.2733153,-0.07531556
0.8032857,-0.2600212,-0.08901021
0.8254637,-0.2406098,-0.08138591
0.8639164,-0.2133488,-0.07105798
0.8630663,-0.1670083,-0.05445671
0.8699154,-0.08634948,-0.03341049
0.9437444,-0.05250065,-0.04530595
1.085251,-0.08654011,-0.04270676
1.324604,-0.1556142,-0.02377107
1.562005,-0.2162812,-0.02014425
1.689852,-0.2510242,-0.03192935
1.67314,-0.2523656,-0.07142833
1.588451,-0.2558666,-0.1067017
1.52006,-0.4267364,-0.1348589
1.37011,-0.6664241,-0.1690036
1.117503,-0.7328942,-0.1678986
0.8840156,-0.6770047,-0.1111876
0.7703222,-0.6025691,-0.03923457
0.7929056,-0.46754,-0.01580202
0.8358541,-0.3053505,-0.00355276
0.8608196,-0.3148701,0.0280012
0.9053552,-0.3851278,0.02098805
0.9305458,-0.3587339,0.01331936
0.9133971,-0.3935274,0.01064896
0.8145932,-0.3645183,-0.01668236
0.680042,-0.2348981,-0.004389501
0.6325509,-0.1685378,0.01697974
0.6075158,-0.07659058,0.03490781
0.5697373,-0.02071631,0.09812196
0.5985866,-0.02376156,0.1276582
0.6314201,-0.01655766,0.1040119
0.6496043,-0.05528468,0.09047226
0.7275164,-0.1133556,0.08463234
0.8428551,-0.2363178,0.08822156
1.025889,-0.3873974,0.09966199
1.281475,-0.4573187,0.1021199
1.476404,-0.4661005,0.1186482
1.538583,-0.4006599,0.1463309
1.499408,-0.3574484,0.1394418
1.481083,-0.4230031,0.121227
1.477087,-0.563196,0.1046663
1.346876,-0.7065347,0.05526706
1.121605,-0.6805901,0.03460207
0.8755291,-0.5176158,0.04709118
0.7615974,-0.3686674,0.002871022
0.8455795,-0.259329,-0.0605748
0.9283579,-0.264221,-0.08261074
1.033117,-0.3466658,-0.1022744
1.096231,-0.3851686,-0.1363584
0.9233473,-0.3731904,-0.1149036
0.7260626,-0.3125266,-0.02223086
0.6041134,-0.2413412,0.05435712
0.5322057,-0.1858529,0.06601151
0.5838448,-0.1500346,0.007254979
0.6616961,-0.1485782,-0.07237936
0.7546032,-0.1289894,-0.1249804
0.8213498,-0.1169598,-0.1681167
0.7964068,-0.1357272,-0.1647572
0.8092351,-0.1682623,-0.1289999
0.8230822,-0.2379816,-0.1017844
0.8034122,-0.2386961,-0.06296858
0.8072635,-0.1521501,-0.04799061
0.7911825,-0.08799334,-0.0322339
0.819986,-0.07045275,-0.01440798
0.9991609,-0.1136187,-0.03466494
1.335438,-0.1918402,-0.02158926
1.597502,-0.2664039,-0.0110861
1.633367,-0.2327244,-0.0516994
1.725372,-0.05876655,-0.09526922
1.774802,0.02837512,-0.1358329
1.588373,-0.1169307,-0.1397256
1.489349,-0.5009935,-0.1545793
1.356212,-0.9368617,-0.2074279
1.083822,-1.083043,-0.1948038
0.9479302,-0.9635383,-0.1392566
0.8346908,-0.7535796,-0.07529619
0.7823492,-0.4107541,-0.01638071
0.8027039,-0.1033807,-0.008145378
0.7542809,-0.07283321,0.005806425
0.7864069,-0.07189123,0.0154784
0.8101234,-0.05239511,-0.003783446
0.799254,-0.1987223,-0.001936864
0.7621519,-0.2122115,0.002268219
0.6042312,-0.1526571,0.01615836
0.5463213,-0.1905545,0.05237402
0.5590219,-0.1088741,0.09723184
0.582732,-0.08822764,0.1379689
0.6982701,-0.1308872,0.1326705
0.7801338,-0.136316,0.1068714
0.8532979,-0.2375157,0.09496111
0.9293964,-0.2798222,0.1122039
1.025305,-0.2910998,0.1439463
1.198189,-0.3260099,0.133738
1.345566,-0.3196428,0.1423785
1.460049,-0.3677507,0.1831428
1.495498,-0.4483221,0.1884853
1.4043,-0.5504826,0.1886796
1.290317,-0.6309574,0.1603092
1.232192,-0.6285225,0.09167696
1.22249,-0.5264439,0.04486806
1.095589,-0.3574637,0.009993109
0.8650506,-0.3725884,-0.0173824
0.7717686,-0.5100497,-0.04512374
0.7794639,-0.5842482,-0.08536366
0.8209157,-0.6881955,-0.1029044
0.9222957,-0.7079942,-0.137901
0.9107961,-0.5733136,-0.1767205
0.801839,-0.3686901,-0.1099162
0.7472685,-0.1366796,-0.02577365
0.7142543,-0.01472718,-0.03665528
0.7693323,-0.003492418,-0.07049199
0.8479964,-0.05323229,-0.09929494
0.8198448,-0.1486424,-0.1148114
0.7857975,-0.2186192,-0.08422005
0.7242797,-0.2591287,-0.05694983
0.6928653,-0.2361939,-0.06472837
0.7693117,-0.2005616,-0.09621518
0.8278613,-0.1970232,-0.1275171
0.8715479,-0.1593943,-0.1188171
0.8825153,-0.129792,-0.09042586
0.8740185,-0.07764478,-0.06922052
0.9439345,-0.04366312,-0.04067951
1.067273,-0.1252474,-0.02854601
1.233148,-0.1891715,-0.03763402
1.390974,-0.2094533,-0.02841244
1.490634,-0.2344467,-0.01452811
1.5448,-0.2464345,-0.0164842
1.566058,-0.2604809,-0.02769886
1.587471,-0.3070515,-0.04616657
1.569327,-0.522881,-0.05430222
1.461048,-0.8422035,-0.04516182
1.203017,-0.9437891,-0.01923704
0.8620445,-0.8179679,0.01254502
0.7230899,-0.6350911,0.01544186
0.7841949,-0.3349716,-0.005224432
0.8549487,-0.09314265,-0.03010242
0.9942797,-0.2240926,-0.07732909
1.161914,-0.4102958,-0.1476322
1.151778,-0.4765331,-0.1860662
1.00647,-0.6100636,-0.169207
0.8738042,-0.6174343,-0.1522829
0.7077833,-0.5679309,-0.1257249
0.4884086,-0.5481493,-0.06943641
0.4259904,-0.434946,-0.06873293
0.5348845,-0.3932869,-0.0884086
0.5622364,-0.2635613,-0.04583309
0.630748,-0.05384725,-0.01465701
0.8020706,-0.01706102,-0.006989864
0.7965324,0.01689993,0.004427771
0.7559225,0.0001704041,0.0196835
0.7604096,-0.08803624,0.09354443
0.7132182,-0.1481486,0.1741167
0.789236,-0.2453531,0.2009293
0.9221345,-0.2563023,0.2066839
1.033309,-0.1964693,0.1977452
1.147589,-0.126652,0.2017867
1.241522,-0.03011264,0.2192991
1.428537,-0.03092137,0.2294199
1.612029,-0.1174749,0.2280637
1.659887,-0.2651458,0.1875689
1.572158,-0.5148475,0.1260038
1.323433,-0.8176278,0.06890255
1.029988,-1.000816,0.02611126
0.8577133,-0.9328983,-0.0212558
0.8623403,-0.7413617,-0.08927614
0.933658,-0.5043502,-0.1330497
1.043122,-0.3447256,-0.1894215
1.158983,-0.3509234,-0.25123
1.094207,-0.2607822,-0.2241893
0.9788763,-0.1593951,-0.1564951
0.8667723,-0.211899,-0.09529816
0.65722,-0.2035678,-0.04403438
0.5896918,-0.1906577,-0.05094405
0.6448937,-0.2169364,-0.0763104
0.6288337,-0.1803936,-0.07610125
0.6293581,-0.1530846,-0.08997674
0.660884,-0.1234742,-0.09491275
0.6983936,-0.1033331,-0.08196364
0.763758,-0.1459609,-0.09601989
0.8238184,-0.2165353,-0.09435051
0.8659439,-0.2688189,-0.08520985
0.8995677,-0.2503656,-0.0910567
0.9546994,-0.1911511,-0.04878861
1.062387,-0.1193988,0.008735437
1.208889,-0.04794112,0.04053422
1.374681,-0.03962625,0.05692916
1.561959,-0.09449568,0.05492396
1.694497,-0.1714586,0.008807918
1.66357,-0.222778,-0.09482752
1.542848,-0.2830421,-0.1542007
1.393903,-0.4226198,-0.168018
1.152893,-0.5569412,-0.190121
0.9209518,-0.6529124,-0.1551779
0.8130972,-0.7168026,-0.1125131
0.8017056,-0.6140201,-0.108578
0.8530697,-0.4120916,-0.1054233
0.8938874,-0.2912091,-0.1019632
0.9116244,-0.2124137,-0.08471662
0.9252061,-0.1705634,-0.0865626
0.9057057,-0.1663532,-0.09708335
0.857616,-0.1672885,-0.07262302
0.7302005,-0.2366881,-0.03431155
0.5927822,-0.3008121,0.01483453
0.5780897,-0.2929582,0.04190945
0.57719,-0.2700046,0.08213544
0.5746576,-0.221343,0.1458877
0.6807899,-0.1419709,0.1091687
0.8197262,-0.05249708,0.0630294
0.916767,-0.03444733,0.08203992
0.9880517,-0.1130807,0.06562408
1.07096,-0.211938,0.07980097
1.221963,-0.3502902,0.1143356
1.381148,-0.4659076,0.1073986
1.428757,-0.4636118,0.1327672
1.363996,-0.4038952,0.1555608
1.264445,-0.3720922,0.1629254
1.196226,-0.4448425,0.1728016
1.180509,-0.6160314,0.1154526
1.155742,-0.7299747,0.02471828
1.035132,-0.6492676,-0.008487922
0.9161045,-0.5243461,0.004584544
0.9052594,-0.4697655,-0.02107158
0.8908521,-0.307943,-0.08219359
0.8951483,-0.2243731,-0.1141073
0.9759954,-0.3704746,-0.1232297
0.9790266,-0.4309472,-0.114337
0.8964342,-0.4378354,-0.09185053
0.8042346,-0.4034341,-0.04811664
0.7085434,-0.224022,-0.0007709016
0.6937112,-0.1194488,-0.01787638
0.7433104,-0.03496459,-0.0521322
0.7720567,0.02362956,-0.08130677
0.791734,-0.05116053,-0.131002
0.7858361,-0.09517607,-0.1208877
0.7821583,-0.1840252,-0.09250106
0.8260475,-0.26124,-0.1116603
0.8676149,-0.2248862,-0.09858738
0.881846,-0.2323877,-0.07717677
0.8599223,-0.1886246,-0.06972089
0.8450956,-0.1039229,-0.04080921
0.8879163,-0.08080729,-0.03967413
0.98233,-0.07399498,-0.04680446
1.203027,-0.1279954,-0.06138772
1.455983,-0.1700882,-0.09547678
1.511604,-0.1692117,-0.06820549
1.494118,-0.1879786,-0.04395152
1.53178,-0.1879785,-0.08093012
1.464058,-0.2597069,-0.1069853
1.341657,-0.5471608,-0.1328037
1.270462,-0.8698832,-0.1599795
1.127184,-0.9254792,-0.1496987
0.916758,-0.9030776,-0.1252079
0.8178988,-0.8269349,-0.1062587
0.9178489,-0.4274767,-0.07632144
0.9895281,-0.1938641,-0.04977264
0.9254405,-0.2303892,-0.04398711
0.9174662,-0.1543138,-0.0351891
0.8716076,-0.2399149,-0.03768648
0.8144152,-0.3548586,-0.05628587
0.8186586,-0.3592058,-0.06257142
0.6755516,-0.4346207,-0.05581481
0.5380034,-0.3790159,-0.0003101783
0.5354288,-0.3252088,0.06170407
0.6267783,-0.2593219,0.02247619
0.7718347,-0.07761895,-0.02345353
0.7656927,-0.03154308,0.01017698
0.7353915,-0.03647035,0.01863736
0.8026608,-0.1314389,0.01869918
0.857887,-0.3007826,0.05317287
0.9392555,-0.3465548,0.0490813
1.02294,-0.3764667,0.06018084
1.10984,-0.3891927,0.09357016
1.212215,-0.3784478,0.07097578
1.303681,-0.3800008,0.04912323
1.405203,-0.4132111,0.03655878
1.467351,-0.5128979,0.01894749
1.497456,-0.5588552,0.02532698
1.391884,-0.5378469,0.03563223
1.075872,-0.507545,0.05937898
0.8217213,-0.506169,0.06718605
0.7215548,-0.5400204,0.04595001
0.7035636,-0.5656021,0.03458664
0.8382345,-0.6056843,-0.02272345
1.005965,-0.6136304,-0.1296787
0.9994863,-0.5850869,-0.2164396
0.8996818,-0.5539839,-0.2286703
0.7715373,-0.4940836,-0.1340749
0.5670449,-0.4225384,-0.04393598
0.588882,-0.3603141,-0.07323166
0.8679922,-0.3060426,-0.1852109
0.9856628,-0.196397,-0.2950174
0.9769905,-0.1490168,-0.317391
0.8979823,-0.2380354,-0.2541755
0.7718137,-0.2869335,-0.1934025
0.7708419,-0.3596669,-0.1596323
0.7960233,-0.3962176,-0.1643247
0.8792997,-0.3422941,-0.1951292
0.9437341,-0.3757739,-0.18004
0.8900889,-0.2983968,-0.1616494
0.9025547,-0.1399197,-0.1564644
0.9224445,-0.08580015,-0.1274017
0.9495498,0.003095234,-0.1369663
0.9874873,0.05384587,-0.1261293
1.009705,0.04954951,-0.07350661
1.159029,0.01542013,-0.0538054
1.354083,-0.09156681,-0.00577974
1.496293,-0.1801227,0.03597485
1.548648,-0.2941564,0.01437884
1.541785,-0.3618715,-0.03678434
1.53406,-0.3531037,-0.08844249
1.398419,-0.4528386,-0.08130951
1.126919,-0.5942175,-0.08428392
0.8431236,-0.661432,-0.1268739
0.7112302,-0.640076,-0.09366373
0.7392712,-0.5087274,-0.03849823
0.7827734,-0.3360368,-0.03711721
0.8961986,-0.2737722,-0.03986678
1.049642,-0.3167518,-0.06022856
1.147431,-0.2965665,-0.1078393
1.176328,-0.2750637,-0.1310054
1.085574,-0.302764,-0.1072842
0.8726243,-0.2928409,-0.03395544
0.6162466,-0.3113663,0.03073506
0.5794393,-0.3169586,0.0307985
0.6437291,-0.2529479,0.04593886
0.5047825,-0.1816112,0.1028715
0.5232239,-0.1263645,0.09533994
0.683303,-0.1145494,0.06701723
0.7214083,-0.07163182,0.09910596
0.8443462,-0.04675742,0.09601199
0.9277255,-0.2158452,0.08488451
1.069455,-0.4851947,0.1194163
1.288302,-0.632093,0.1298126
1.222871,-0.5403909,0.1680766
1.264328,-0.3920019,0.2077764
1.402414,-0.3409493,0.17577
1.333028,-0.2844016,0.1480444
1.393165,-0.3832107,0.1348867
1.40218,-0.6211819,0.0861116
1.223295,-0.6846135,0.02720427
1.007751,-0.6154874,0.03936207
0.7139995,-0.4993933,0.05090395
0.6741437,-0.4096933,-0.02786395
0.8476954,-0.4065638,-0.09564891
0.9307447,-0.4250583,-0.1406276
1.021892,-0.4613668,-0.1672741
0.9971832,-0.4191543,-0.1432541
0.8367382,-0.3391979,-0.08575035
0.7118334,-0.2673092,0.01022932
0.6335238,-0.1349468,0.031694
0.6732392,-0.07918432,-0.02644099
0.7350933,-0.06354666,-0.07447827
0.7742462,-0.05355917,-0.1493263
0.8424994,-0.1106607,-0.1587943
0.8279426,-0.1536101,-0.1145129
0.8378299,-0.2319321,-0.1246063
0.8707246,-0.2965865,-0.08601845
0.8210292,-0.3004145,-0.04386811
0.834785,-0.2822603,-0.06525194
0.8902449,-0.1595004,-0.04601594
0.968087,-0.05990381,-0.0300616
1.078562,-0.08232872,-0.04349217
1.189117,-0.1392157,-0.03295486
1.374,-0.2028928,-0.01772867
1.508572,-0.2459481,-0.02113313
1.627274,-0.2869254,-0.1105143
1.751112,-0.300622,-0.2198327
1.582981,-0.3326553,-0.2047081
1.319639,-0.5246305,-0.1882043
1.146547,-0.7381531,-0.2227622
0.8892535,-0.7777236,-0.1574657
0.7382187,-0.6935365,-0.05471903
0.7542586,-0.6227646,-0.01705008
0.7781886,-0.4867592,0.009315056
0.8401279,-0.1587068,0.03841047
0.8784754,0.02691418,0.05245694
0.8748043,-0.09338082,0.02175715
0.9126914,-0.1347122,-0.03498341
0.9611306,-0.1023215,-0.06158245
0.9275604,-0.2104718,-0.05991759
0.834885,-0.3158777,-0.02773638
0.7863245,-0.3698935,-0.004836878
0.7008515,-0.3714979,0.04321834
0.5928253,-0.2940956,0.1320142
0.5861496,-0.235745,0.1374416
0.5845651,-0.1494727,0.1228415
0.5743689,-0.06638016,0.130418
0.6447693,-0.0995791,0.103384
0.8214751,-0.1707192,0.08635182
1.042558,-0.2714719,0.06275638
1.21861,-0.384895,0.05114527
1.428139,-0.4301792,0.06104234
1.593968,-0.3974004,0.06105213
1.573277,-0.3509547,0.07796892
1.528121,-0.4184347,0.07457147
1.462941,-0.568572,0.05400325
1.266394,-0.6830034,0.03525935
1.067735,-0.6576774,0.001775275
0.9290638,-0.5333274,-0.008979854
0.8401987,-0.4605039,-0.02607776
0.8159424,-0.3373619,-0.06582095
0.8227786,-0.2756403,-0.07012376
0.847186,-0.4017275,-0.06463949
0.8255587,-0.4481323,-0.0811359
0.7744453,-0.4498874,-0.0830572
0.7432519,-0.4000403,-0.05831281
0.6856448,-0.2085432,-0.02861983
0.6833772,-0.08624938,-0.0282057
0.7275394,-0.0263791,-0.06354095
0.7513806,-0.01956822,-0.1045141
0.7967567,-0.06574835,-0.1349628
0.8024616,-0.09831753,-0.1331479
0.8053652,-0.1902541,-0.117593
0.8412719,-0.2472578,-0.1130097
0.8441962,-0.2561817,-0.08609166
0.8519702,-0.2501075,-0.06409212
0.8520564,-0.1676891,-0.05801423
0.8713131,-0.09747734,-0.05314692
0.983544,-0.06814703,-0.09188009
1.157266,-0.119579,-0.1307073
1.332253,-0.231367,-0.125186
1.456619,-0.2975145,-0.09784998
1.549721,-0.3245172,-0.07282291
1.583358,-0.2596906,-0.09127201
1.544955,-0.2281682,-0.1181567
1.504412,-0.4046362,-0.1419386
1.365195,-0.6444753,-0.1889759
1.142054,-0.7935933,-0.19403
1.032088,-0.7955225,-0.1679749
0.9906447,-0.609544,-0.1253276
0.9115233,-0.3135842,-0.0403969
0.8962234,-0.1747436,-0.02476045
0.9383813,-0.1937218,-0.04555234
0.8909014,-0.1087471,0.004128516
0.8683744,-0.113666,-0.003975541
0.912092,-0.2596802,-0.05404961
0.8660105,-0.2722233,-0.04673783
0.7963466,-0.2990002,-0.03682811
0.6859269,-0.3414306,0.01344281
0.5823187,-0.2805552,0.07642713
0.6282924,-0.2547348,0.09672175
0.6721701,-0.1989292,0.1202975
0.7342244,-0.1264029,0.1183768
0.8225424,-0.1425828,0.1051471
0.8247297,-0.1695479,0.07933918
0.8379178,-0.2247202,0.0550489
0.849247,-0.3292037,0.09451286
0.9012373,-0.4097027,0.1154233
1.040863,-0.4064461,0.1162538
1.180327,-0.3377362,0.153142
1.296752,-0.2448612,0.1719868
1.326279,-0.1182482,0.1283799
1.377479,-0.07182268,0.05327658
1.488175,-0.2472426,0.0274412
1.503949,-0.5854312,0.0112485
1.424204,-0.7928261,0.004319448
1.133414,-0.6818051,0.1013578
0.7367269,-0.5186301,0.1821799
0.6445566,-0.4449326,0.1190941
0.7807668,-0.3777498,0.01206591
0.8710883,-0.438487,-0.05007613
0.9785137,-0.4973083,-0.1151197
1.040396,-0.4051252,-0.1446466
0.8765366,-0.3448745,-0.08055685
0.7113192,-0.2645424,-0.02430868
0.6727169,-0.1480661,-0.001733228
0.6566279,-0.1031358,-0.0193113
0.734148,-0.07093765,-0.07735453
0.8245701,-0.1220179,-0.09637409
0.8641543,-0.2056067,-0.1150087
0.8716062,-0.224482,-0.114964
0.8202127,-0.2484443,-0.08395101
0.8218195,-0.2348435,-0.08913088
0.8395339,-0.2237024,-0.08321666
0.8637002,-0.2285475,-0.09194723
0.918399,-0.208901,-0.1134734
0.9223972,-0.2074874,-0.09820677
0.9601477,-0.1604514,-0.09306847
0.999747,-0.1097092,-0.0732858
1.016962,-0.1032966,-0.05609486
0.6392171,-0.2216195,0.07580937
0.6306705,-0.1394315,0.06111075
0.6799046,-0.06195652,0.05269761
0.6635147,-0.07843204,0.05276978
0.6704924,-0.1677309,0.066792
0.7439534,-0.2600695,0.07655548
0.8174794,-0.2863904,0.07236249
1.018884,-0.3198747,0.0767183
1.316843,-0.3645927,0.0908093
1.43878,-0.3634828,0.0976056
1.43558,-0.3563191,0.07056256
1.600345,-0.4220246,0.03248053
1.695863,-0.5120184,0.02583061
1.572624,-0.5670713,0.03514746
1.519535,-0.6388539,0.04511523
1.317023,-0.5691577,0.07564874
0.9566963,-0.3744712,0.1012519
0.7813214,-0.3108218,0.05171453
0.6518421,-0.3008867,-0.02063405
0.6601464,-0.3420425,-0.03950283
0.9132596,-0.4488702,-0.08280976
1.090513,-0.4457755,-0.1532778
1.011473,-0.4013273,-0.1466908
0.7670643,-0.3215591,-0.06013279
0.6134708,-0.1747545,0.03332557
0.5856669,-0.1322469,0.04117704
0.6184533,-0.1315547,-0.01655176
0.7219942,-0.1019948,-0.06009008
0.818996,-0.1572869,-0.1222664
0.8765653,-0.2183135,-0.1425989
0.8170883,-0.2329753,-0.09055378
0.7906042,-0.2556524,-0.08830371
0.8773506,-0.2409541,-0.09482746
0.8965477,-0.2158852,-0.08190237
0.948491,-0.1832195,-0.08344583
0.9600344,-0.09893355,-0.04919472
0.9302614,-0.04028906,-0.02749072
1.020057,-0.03664875,-0.03073257
1.127806,-0.08594678,-0.02610355
1.338745,-0.1658247,-0.03277414
1.585921,-0.1813975,-0.04337753
1.736069,-0.1435184,-0.1073271
1.794533,-0.1399623,-0.2003841
1.668559,-0.2659294,-0.2424284
1.505012,-0.5705078,-0.2713764
1.297159,-0.8937573,-0.2746212
1.013661,-0.9668335,-0.1883053
0.845459,-0.7734919,-0.06014133
0.7492342,-0.5430214,0.009139975
0.7412761,-0.3452667,0.004268315
0.7984675,-0.202292,-0.01241948
0.8234173,-0.1900851,-0.01567457
0.87293,-0.2015433,-0.03880832
0.8850433,-0.2094407,-0.07734726
0.8352095,-0.2475439,-0.07443033
0.7001084,-0.2469452,-0.009864453
0.5136599,-0.2525388,0.05686275
0.5179419,-0.2485821,0.0452367
0.6162756,-0.1720872,0.03460347
0.631266,-0.09316698,0.08382653
0.7021182,-0.07854268,0.06402879
0.788263,-0.1453775,0.03116463
0.8061482,-0.2222132,0.05458648
0.8659073,-0.2820132,0.05168105
0.9805617,-0.354765,0.08200606
1.156705,-0.3803592,0.1155449
1.382773,-0.3697931,0.09864711
1.546664,-0.3729187,0.1051013
1.599298,-0.3938836,0.09215425
1.532613,-0.4539498,0.06384181
1.433197,-0.5576042,0.06119998
1.326199,-0.6438681,0.03317905
1.131745,-0.5998697,-0.02282615
0.9801373,-0.4744718,-0.06399911
0.9210261,-0.3752005,-0.06385265
0.8665379,-0.3070547,-0.05722032
0.8565018,-0.3251792,-0.05347255
0.8387605,-0.3700889,-0.03493643
0.7801547,-0.4057233,-0.04300108
0.7363607,-0.4809362,-0.07164831
0.6634112,-0.4374199,-0.08419619
0.5949926,-0.2921251,-0.0546489
0.5957267,-0.1515462,-0.01633032
0.651161,-0.004809765,-0.0543698
0.7660312,0.001655716,-0.1165952
0.8427897,-0.06698765,-0.1419109
0.8178791,-0.1121524,-0.1490645
0.8070936,-0.2230642,-0.1236556
0.8190804,-0.2708279,-0.1026781
0.8140066,-0.2405293,-0.1003319
0.83268,-0.2104552,-0.07671244
0.8679838,-0.1314929,-0.06012401
0.9477335,-0.08139571,-0.06636017
1.100715,-0.09190996,-0.08805366
1.26442,-0.1416577,-0.1092207
1.394739,-0.2151075,-0.09661266
1.490895,-0.2342707,-0.07651262
1.545665,-0.2330796,-0.07990573
1.533406,-0.2633632,-0.1130079
1.479146,-0.348061,-0.1797245
1.429297,-0.5688003,-0.248029
1.336275,-0.8372515,-0.289518
1.151122,-0.9263165,-0.2861714
0.9479109,-0.8460489,-0.2207673
0.8507179,-0.7187261,-0.1130576
0.8510923,-0.5337335,-0.02180919
0.8523278,-0.3614774,0.002182934
0.85556,-0.2585462,0.002711259
0.8887766,-0.1914894,0.005529303
0.9414515,-0.2136555,-0.04126146
0.9569013,-0.2277223,-0.07613908
0.8514795,-0.1926258,-0.05607819
0.6789719,-0.2278093,-0.009240046
0.5577117,-0.2117725,0.06687125
0.5287539,-0.1593981,0.08159385
0.5831633,-0.1705513,0.06484325
0.6665137,-0.1669738,0.08187682
0.7371417,-0.2244004,0.04064566
0.768118,-0.3046475,0.01731049
0.7527229,-0.3189513,0.04715525
0.7735427,-0.3313987,0.06363632
0.860836,-0.340884,0.1096088
0.9361608,-0.360908,0.1233311
1.050171,-0.3506573,0.107808
1.317815,-0.3297655,0.1406933
1.519037,-0.3409672,0.1539883
1.461571,-0.3550842,0.1033938
1.519478,-0.4826136,0.02391781
1.715961,-0.6273738,-0.005911942
1.55424,-0.6454929,0.01953875
1.22697,-0.661625,0.02811053
1.000396,-0.6190063,0.04039603
0.7431209,-0.4488655,0.05384948
0.6522993,-0.3650575,0.02091789
0.7300091,-0.423503,-0.02126802
0.8073899,-0.4994263,-0.04896362
0.8740236,-0.5918538,-0.09227834
0.8387258,-0.5954646,-0.1262868
0.7918588,-0.4656937,-0.120636
0.7520757,-0.3391545,-0.09136754
0.7203259,-0.1811444,-0.05587188
0.7940781,-0.08775604,-0.08015268
0.8520157,-0.1222629,-0.141232
0.8805654,-0.1450834,-0.1416934
0.8812976,-0.222122,-0.134474
0.8349667,-0.3055613,-0.1275001
0.8078958,-0.3237115,-0.1018551
0.7732933,-0.342371,-0.1154787
0.7790369,-0.3259318,-0.1289506
0.8181676,-0.314663,-0.1460576
0.8700179,-0.2869121,-0.1835418
0.930856,-0.2257567,-0.177366
0.8941964,-0.2191316,-0.1224666
0.8560327,-0.1787388,-0.04802547
0.885719,-0.04472908,-0.03027308
0.9452738,0.09492194,-0.08361536
1.139709,0.1265911,-0.1255539
1.422792,-0.02240609,-0.143419
1.605481,-0.2750507,-0.1225988
1.60238,-0.4671231,-0.06064859
1.460723,-0.5007365,-0.01341799
1.365804,-0.4692411,-0.01855871
1.420424,-0.5112718,-0.0896857
1.439938,-0.5733186,-0.1785517
1.255768,-0.5820765,-0.2111498
1.041075,-0.5933804,-0.1660225
0.9768982,-0.570936,-0.1088397
0.951135,-0.4492246,-0.09193853
0.8607831,-0.3522469,-0.06533161
0.8074115,-0.3490879,-0.06079584
0.8419902,-0.4069531,-0.100472
0.8527267,-0.4996126,-0.1184364
0.8244873,-0.520955,-0.1605014
0.7768738,-0.4483381,-0.1999074
0.6925796,-0.3505809,-0.1603073
0.7020077,-0.2714491,-0.1083676
0.7738061,-0.2262045,-0.07176984
0.7742229,-0.1725443,-0.0314167
0.7837562,-0.1066156,-0.001035517
0.8046948,-0.04737374,0.009612766
0.8054211,-0.03139256,0.02237977
0.7685282,-0.07685493,0.06083018
0.6671404,-0.1351604,0.1199351
0.6398271,-0.2239781,0.1726303
0.7028059,-0.3080953,0.1628894
0.8218299,-0.3408244,0.1263249
1.034735,-0.3699929,0.1163915
1.18165,-0.3675772,0.1209724
1.201407,-0.3439454,0.1515087
1.24202,-0.3336172,0.1500074
1.382488,-0.3077418,0.09483416
1.570947,-0.3011731,0.04965976
1.602554,-0.3217679,0.06070538
1.368261,-0.3632429,0.1517049
1.035807,-0.4358749,0.2337944
0.8126294,-0.493082,0.2353122
0.7798321,-0.5768074,0.1558568
0.8683221,-0.706514,0.02813047
0.9689544,-0.753642,-0.0721483
1.058184,-0.7331717,-0.137783
1.078142,-0.7055845,-0.1514816
1.021526,-0.563274,-0.1433537
0.9954775,-0.3885837,-0.1649432
0.9530634,-0.380718,-0.1420927
0.8247576,-0.3555978,-0.05999981
0.6997032,-0.1987196,0.01502729
0.7051751,-0.1926486,-0.005890992
0.8384464,-0.2376931,-0.105844
0.8971533,-0.1268913,-0.1551761
0.854727,-0.1121102,-0.1548103
0.8089149,-0.1638121,-0.1209148
0.7158502,-0.1740598,-0.07363699
0.6625845,-0.2526629,-0.06079084
0.7286256,-0.2861371,-0.05758566
0.8202207,-0.3181984,-0.0655549
0.8508662,-0.3516096,-0.05995901
0.8235238,-0.2357251,-0.05364554
0.8271667,-0.1280986,-0.06938235
0.8957286,-0.0945939,-0.05636862
1.017194,-0.1187492,-0.0472282
1.153158,-0.2184839,-0.005175604
1.285623,-0.2938599,0.110928
1.403869,-0.3140055,0.1857281
1.446766,-0.278216,0.1451167
1.529821,-0.2539718,0.04657261
1.633044,-0.2867993,-0.02495154
1.5802,-0.4263558,-0.1428142
1.525989,-0.7078334,-0.2685546
1.402492,-0.8756291,-0.2502643
0.9929616,-0.9298058,-0.184231
0.6709862,-0.9333528,-0.103379
0.716341,-0.6381915,-0.01858672
0.8681433,-0.2400139,-0.02253126
0.9666517,-0.06822416,-0.03534391
1.0777,-0.08570926,-0.02368016
1.121531,-0.1028167,-0.005188022
0.9940038,-0.07291833,0.04378385
0.8380138,-0.1661152,0.0877305
0.7410112,-0.2358497,0.1024517
0.6546509,-0.2192876,0.1104172
0.6057746,-0.2490789,0.124839
0.6189149,-0.1883908,0.1065726
0.7000609,-0.1271339,0.0755168
0.7859847,-0.09702883,0.06875194
0.7967997,-0.04579136,0.06412716
0.7587362,-0.1022421,0.08012561
0.7494798,-0.1805904,0.1054903
0.8206242,-0.3030746,0.1443345
0.9166977,-0.4243701,0.2052175
0.989088,-0.3999011,0.2268173
1.050788,-0.3188296,0.2295958
1.158256,-0.1893225,0.2212943
1.349494,-0.1574182,0.1522881
1.525226,-0.3410781,0.07268279
1.578109,-0.6114994,0.06192294
1.433756,-0.8173249,0.09680893
1.187221,-0.7436596,0.1092729
1.008523,-0.5192739,0.1124382
0.8644904,-0.3723851,0.07860565
0.809286,-0.2723526,-0.04054648
0.8457564,-0.2851471,-0.1264135
0.8764836,-0.3567042,-0.11443
0.9842259,-0.4416584,-0.0914021
1.034223,-0.5330122,-0.09125671
0.9040097,-0.4588633,-0.07576303
0.7977303,-0.3543029,-0.03748575
0.7849817,-0.2943228,-0.01370425
0.8148944,-0.2054041,-0.00774696
0.8359257,-0.227291,-0.02789325
0.8304848,-0.2477179,-0.0738205
0.8336908,-0.2186087,-0.1014903
0.8025741,-0.2345726,-0.1095156
0.7639925,-0.1941097,-0.1048253
0.7615161,-0.1711733,-0.1062031
0.7838134,-0.2000619,-0.1130168
0.8402535,-0.2141065,-0.09995979
0.8802245,-0.2321461,-0.09492353
0.8913288,-0.201949,-0.0853258
0.8785315,-0.141824,-0.07384065
0.8669246,-0.09044832,-0.08559802
0.9391827,-0.0647473,-0.1011514
1.071222,-0.08182714,-0.132714
1.211153,-0.09995502,-0.1526406
1.313551,-0.1496742,-0.1342285
1.409476,-0.2549347,-0.06963591
1.543139,-0.3451005,0.008615792
1.537724,-0.3133544,-0.03247863
1.468283,-0.2381184,-0.1093702
1.545813,-0.2885609,-0.1241184
1.552856,-0.3515684,-0.196563
1.420336,-0.4841861,-0.213887
1.229938,-0.7722894,-0.1312115
0.957682,-0.853502,-0.094014
0.8416195,-0.7100811,-0.01138463
0.845457,-0.5595967,0.04670093
0.7638381,-0.3337708,0.004678027
0.7497708,-0.1477605,0.02198725
0.7872,-0.1338056,0.001390709
0.8495545,-0.195932,-0.086514
0.9286545,-0.268134,-0.111606
0.8214863,-0.3464131,-0.0929206
0.6255157,-0.4035454,-0.03398295
0.5127042,-0.3859754,0.01779647
0.4917747,-0.3234802,0.045805
0.5693561,-0.2449961,0.0618009
0.6699761,-0.1607842,0.04530168
0.7449325,-0.1389917,0.05123493
0.7700117,-0.1501555,0.04903093
0.7405987,-0.1506762,0.04494691
0.7146958,-0.176416,0.07721613
0.7061073,-0.2345441,0.09378347
0.7570845,-0.3128027,0.1006449
0.891509,-0.3729087,0.07513929
1.029005,-0.3803766,0.04042046
1.153244,-0.3497668,0.03635257
1.272053,-0.3004377,0.01232237
1.385458,-0.2513973,-0.02693732
1.570739,-0.2429799,-0.1111676
1.792189,-0.2969562,-0.2258906
1.898213,-0.3781493,-0.2526913
1.75642,-0.4810438,-0.1531637
1.321896,-0.5833418,0.07141824
0.7851547,-0.5914934,0.297469
0.4703445,-0.5584747,0.2966258
0.5028584,-0.563031,0.1597042
0.622275,-0.5476895,0.1088505
0.7035483,-0.5568105,0.03889177
0.8685243,-0.5931481,-0.0589627
0.9266687,-0.5531054,-0.09579543
0.8667818,-0.4895354,-0.1565265
0.8542946,-0.4057143,-0.1496102
0.7939571,-0.2810661,-0.1027113
0.7493108,-0.2344572,-0.1195586
0.7385786,-0.2138203,-0.1136644
0.7158328,-0.1674568,-0.1499993
0.7557741,-0.2214513,-0.1843373
0.8205707,-0.329907,-0.1938864
0.8763447,-0.3828753,-0.2433071
0.8781233,-0.3856393,-0.2142241
0.8609095,-0.3444928,-0.1854378
0.8932132,-0.2980702,-0.1863991
0.9081829,-0.2603493,-0.1526414
0.9229932,-0.1931429,-0.1587507
0.951184,-0.1028611,-0.1446009
0.966235,-0.03357282,-0.1182365
0.9764577,-0.02201557,-0.1205704
0.9778113,-0.01549207,-0.09623398
0.989194,0.01145616,-0.07443327
0.9967818,0.004205565,-0.06457328
1.003984,-5.802431e-05,-0.04099858
1.028008,-0.02385854,0.000381511
1.084239,-0.1203882,0.02352419
1.230998,-0.213762,0.01925416
1.441552,-0.271725,0.02129429
1.632099,-0.266138,-0.00917289
1.728162,-0.1915493,-0.06293295
1.715031,-0.1669651,-0.07807556
1.634732,-0.3056663,-0.06444272
1.407878,-0.5659778,-0.0657211
1.062559,-0.7451956,-0.09474999
0.856375,-0.7974354,-0.1125796
0.8371921,-0.7560955,-0.1053933
0.8362715,-0.5231077,-0.0883508
0.8098042,-0.2797599,-0.0769542
0.8088941,-0.2861643,-0.07801308
0.8176541,-0.3207464,-0.06115825
0.7922862,-0.208347,-0.03742742
0.7580491,-0.2039815,-0.0398453
0.7426277,-0.2778519,-0.04344354
0.7147711,-0.2532881,-0.01929858
0.6796552,-0.2924959,0.01463114
0.6809287,-0.3043132,0.04003194
0.7163732,-0.2229505,0.06300732
0.7695295,-0.1781399,0.069232
0.8216623,-0.05379249,0.07014251
0.8244751,-0.002369612,0.07978858
0.7776403,-0.09027418,0.06613461
0.7324049,-0.1368984,0.05218752
0.7042786,-0.2384206,0.06609961
0.7120108,-0.3399389,0.08226408
0.7811259,-0.40999,0.09863969
0.9125761,-0.5106943,0.1130961
1.065883,-0.5386312,0.1098111
1.132947,-0.5150175,0.09994123
1.164401,-0.4384098,0.08755922
1.311403,-0.3010484,0.04420742
1.535274,-0.1979584,-0.04155771
1.792646,-0.1678143,-0.1285015
1.916213,-0.2079457,-0.138643
1.6165,-0.3338632,-0.01427258
1.122949,-0.5422397,0.2031271
0.8072472,-0.6299041,0.3282307
0.6044222,-0.5460707,0.2395644
0.5353441,-0.5267,0.1221492
0.6570812,-0.5426708,0.07022242
0.7616799,-0.5247187,-0.02919223
0.8019799,-0.5485509,-0.05574804
0.8283742,-0.5362497,-0.05024012
0.8237038,-0.4600088,-0.1510962
0.8021157,-0.3530919,-0.132066
0.7491235,-0.2376833,-0.06752402
0.7630067,-0.1939964,-0.09148629
0.843591,-0.1523604,-0.04942025
0.8660985,-0.1099091,-0.08099121
0.8723742,-0.168636,-0.1680371
0.8313135,-0.2083544,-0.1609995
0.7863972,-0.2167135,-0.1635573
0.8318692,-0.2758547,-0.1437736
0.8714105,-0.3117254,-0.1263413
0.9015746,-0.3212787,-0.1386646
0.8809086,-0.3140522,-0.1047334
0.8154971,-0.2917691,-0.07624111
0.8370401,-0.2801245,-0.05758435
0.8936923,-0.2591916,-0.07131181
0.9845313,-0.231544,-0.0957683
1.172283,-0.1345665,-0.07398305
1.391081,0.03958794,-0.07738868
1.451943,0.1002262,-0.07805422
1.359892,-0.06789861,-0.07030236
1.396092,-0.2994038,-0.08762183
1.436851,-0.3918839,-0.09851749
1.396448,-0.4790174,-0.1716263
1.464795,-0.7365296,-0.3112779
1.413772,-0.9174857,-0.3778897
1.179657,-0.8300509,-0.2951506
0.9033901,-0.7716312,-0.1692337
0.712077,-0.7707487,-0.08894422
0.783375,-0.5543486,-0.01875053
0.8198099,-0.3670354,0.004532698
0.7843211,-0.3172376,0.01799174
0.8693877,-0.2323217,0.05038185
0.8829562,-0.2299559,0.02053036
0.8919338,-0.206961,-0.003048019
0.8769352,-0.1398419,-0.03006373
0.7695343,-0.1864663,-0.06864355
0.6961721,-0.2555233,-0.01897263
0.5994016,-0.3413183,0.02231147
0.5891298,-0.3457576,0.05195775
0.6298757,-0.2506743,0.1150126
0.6385291,-0.1933657,0.1092291
0.7619647,-0.09649414,0.07549154
0.8336261,-0.06840907,0.06173402
0.8503398,-0.1563242,0.04823837
0.9511022,-0.2327079,0.05339533
1.056193,-0.3424106,0.0743405
1.216463,-0.3922927,0.1168383
1.381603,-0.3605294,0.1416738
1.451627,-0.3720188,0.1109304
1.471079,-0.3873268,0.08341695
1.484825,-0.4352845,0.08451955
1.489129,-0.5633787,0.07243839
1.316373,-0.6512235,0.06129582
0.9569994,-0.6219458,0.08003701
0.6893442,-0.5537901,0.07640692
0.6593645,-0.5031034,0.01109999
0.7425622,-0.4571938,-0.08105012
0.7904879,-0.4448587,-0.1239438
0.8645989,-0.4452641,-0.1018315
0.9231685,-0.4183872,-0.09004842
0.8542279,-0.3676367,-0.08001751
0.8053185,-0.267575,-0.04976587
0.7980033,-0.1480609,-0.03891394
0.781788,-0.05750892,-0.02313287
0.8094932,-0.0290454,-0.01299134
0.8126773,-0.06864271,-0.0489349
0.8047658,-0.1027764,-0.1019044
0.8250462,-0.1369095,-0.1318974
0.8466983,-0.1808286,-0.1351551
0.8855362,-0.2049143,-0.1391736
0.8806953,-0.2521127,-0.1288864
0.8408325,-0.2859056,-0.09873233
0.8285818,-0.2867587,-0.07741495
0.8425065,-0.3151001,-0.06580669
0.925284,-0.3459988,-0.07121386
1.049303,-0.3519369,-0.07014288
1.172852,-0.3176,-0.05701252
1.317626,-0.2533643,-0.03808799
1.414408,-0.2097438,-0.007699834
1.441832,-0.1571839,-0.02735169
1.487575,-0.08860892,-0.07480568
1.527622,-0.1089782,-0.121983
1.517568,-0.3130225,-0.2224251
1.473769,-0.6206675,-0.293194
1.351043,-0.792304,-0.2594455
1.124715,-0.8332497,-0.1927818
0.8310836,-0.9172179,-0.1271924
0.6874934,-0.8174176,-0.05742602
0.7723036,-0.5006006,-0.0429669
0.760329,-0.3537279,-0.06914033
0.7456783,-0.2176882,-0.06167679
0.8764611,-0.08996162,-0.07533819
0.9261307,-0.2568746,-0.1084115
0.9762258,-0.3457693,-0.1108114
0.9487584,-0.3634246,-0.1115211
0.8045602,-0.4607967,-0.0755768
0.722356,-0.3857753,-0.01195289
0.6078007,-0.3245604,0.03551511
0.5919186,-0.2418926,0.07027743
0.638644,-0.102974,0.07412103
0.6337155,-0.1316688,0.05885289
0.7264617,-0.1439831,0.02625433
0.7506894,-0.1892555,-0.007788283
0.7317182,-0.3215322,-0.01060691
0.7701845,-0.4279648,0.008857756
0.8118106,-0.5635461,0.04256933
0.9954451,-0.5953351,0.06894527
1.263875,-0.5295154,0.0826322
1.520821,-0.4537712,0.04086669
1.687709,-0.3509853,-0.08260049
1.680322,-0.2956487,-0.1560822
1.589168,-0.2886145,-0.08877203
1.382134,-0.3353408,0.03847045
1.148092,-0.3833956,0.114368
1.000231,-0.3781388,0.1568289
0.8014244,-0.413958,0.1973703
0.7234642,-0.4893842,0.1275038
0.8638278,-0.5389976,-0.02226311
0.9182473,-0.5442873,-0.08314179
0.9560491,-0.4940489,-0.09996732
0.9771324,-0.4124999,-0.1328091
0.8000328,-0.3810898,-0.1004564
0.7183403,-0.4012173,-0.05423226
0.7098329,-0.3869648,-0.04468367
0.6834322,-0.3475194,-0.04015768
0.7880484,-0.2913654,-0.07502908
0.8095804,-0.2286166,-0.1159772
0.8199119,-0.1952961,-0.1538058
0.8426562,-0.1546888,-0.1744434
0.7785084,-0.1417388,-0.1247884
0.8108504,-0.1828974,-0.1012563
0.7987507,-0.2060872,-0.1032327
0.7842668,-0.2098493,-0.07860695
0.8170745,-0.2210218,-0.0598991
0.786028,-0.2152245,-0.05072291
0.86741,-0.174249,-0.09020216
0.9495062,-0.1409485,-0.1244355
1.018506,-0.1581977,-0.1043528
1.26273,-0.1937244,-0.06165294
1.541679,-0.2146877,0.003077789
1.593958,-0.2234074,0.01662156
1.51637,-0.2395376,-0.004118652
1.623872,-0.2682361,0.004977095
1.590369,-0.2653051,-0.01308902
1.405408,-0.2825067,-0.076235
1.43382,-0.459679,-0.1653701
1.306205,-0.7114695,-0.2244485
1.106932,-0.7823092,-0.1983689
1.015532,-0.6676283,-0.1436133
0.831226,-0.5266157,-0.08613948
0.7650177,-0.3426144,-0.009454249
0.7335164,-0.1972349,0.02217017
0.691892,-0.2276421,0.009998799
0.7410008,-0.2394668,0.0004659984
0.7192727,-0.1869158,-0.02969576
0.7206323,-0.1972211,-0.02521736
0.7174372,-0.208834,0.01402999
0.6773764,-0.2540837,0.02695445
0.6967066,-0.2934658,0.06080014
0.6995073,-0.2699751,0.08723218
0.7510367,-0.2743415,0.08585414
0.8242864,-0.2543557,0.08114936
0.8282874,-0.218811,0.06059852
0.8137708,-0.1934202,0.0712129
0.8051679,-0.1652388,0.09486737
0.8391108,-0.2030052,0.1061169
0.8961591,-0.2526282,0.1102958
0.9629787,-0.2961023,0.09572808
0.9976359,-0.3315415,0.1098477
0.9735221,-0.3185768,0.1252773
1.00826,-0.3117995,0.1190427
1.096384,-0.2934277,0.09523427
1.180612,-0.2715565,0.02315448
1.292329,-0.2980738,-0.03736431
1.489459,-0.3615002,-0.09349058
1.744926,-0.4778809,-0.1580684
1.785123,-0.5729692,-0.1463794
1.044706,-0.382488,0.1335729
1.147094,-0.4177145,0.165696
1.309377,-0.4069937,0.1979908
1.40586,-0.3444494,0.202441
1.408664,-0.2810609,0.1319318
1.426544,-0.3264132,0.03342863
1.52625,-0.5373104,-0.02574706
1.55315,-0.8170244,0.00597581
1.332938,-0.8645937,0.07927787
0.9581937,-0.6151028,0.1254324
0.7090785,-0.3781717,0.09886476
0.7212625,-0.2957806,-0.01382851
0.7794245,-0.2698851,-0.09426866
0.8301072,-0.380133,-0.09076888
1.016558,-0.6105815,-0.07666314
1.110103,-0.669697,-0.07884521
0.9912523,-0.5586188,-0.06318499
0.8941344,-0.4581104,-0.02466693
0.7732591,-0.2618455,-0.009203516
0.5579583,0.01561078,0.009981658
0.5379189,0.02747551,0.0125285
0.694627,-0.1501625,-0.04870591
0.7418318,-0.1867635,-0.08693299
0.7710953,-0.2375415,-0.09433963
0.7982172,-0.3073044,-0.08540931
0.7644679,-0.2856294,-0.05180941
0.7963588,-0.3243917,-0.04061579
0.7983242,-0.3023896,-0.03641731
0.8128136,-0.261396,-0.0381281
0.9002125,-0.2750319,-0.03025551
0.9369269,-0.1692714,-0.01678193
1.072174,-0.08416363,-0.01594219
1.248664,-0.04845809,0.03372654
1.368402,-0.07371469,0.06569504
1.561743,-0.2064071,0.016228
1.699099,-0.2948448,-0.1176101
1.744095,-0.4096982,-0.3221855
1.727159,-0.574137,-0.387931
1.529065,-0.7843779,-0.2688294
1.156304,-0.8879307,-0.1478363
0.785928,-0.7485662,-0.01300232
0.6674699,-0.6560546,0.1531572
0.7197137,-0.4721029,0.2039389
0.7444465,-0.214588,0.1457946
0.8361182,-0.2425383,0.0372234
0.9851327,-0.2721138,-0.1450865
1.045994,-0.2304864,-0.2062671
0.9739034,-0.2749289,-0.1026894
0.8258712,-0.2626387,-0.05223608
0.6892977,-0.2419093,0.01211346
0.6023666,-0.2719024,0.1011814
0.5661552,-0.2862796,0.118602
0.550805,-0.3054331,0.1420453
0.599885,-0.3183142,0.1326612
0.6916176,-0.2724776,0.09901306
0.7332542,-0.1974237,0.07708647
0.7732227,-0.1284055,0.03127561
0.7971362,-0.09589886,0.04122967
0.8181927,-0.1314264,0.05660705
0.8872076,-0.1809549,0.05794111
0.9765289,-0.2377508,0.1027712
1.134703,-0.2914907,0.1002824
1.282898,-0.2937867,0.09637707
1.361575,-0.283597,0.1333319
1.399938,-0.2512785,0.1467697
1.370923,-0.233746,0.1219963
1.408378,-0.3723423,0.02089214
1.526668,-0.6321784,-0.06014511
1.574252,-0.7439716,-0.01621129
1.439182,-0.5456085,0.02173338
1.129863,-0.320434,-0.04150235
0.9014599,-0.334665,-0.07312078
0.7776913,-0.4391072,0.002051735
0.6711957,-0.5378135,0.08096283
0.7175876,-0.6168039,0.132313
0.8252112,-0.6014557,0.1366425
0.8508376,-0.5644431,0.08380098
0.8349388,-0.4750335,0.0286895
0.8032709,-0.2531528,-0.03802826
0.7945691,-0.09953757,-0.06963742
0.7983639,-0.09703897,-0.07413994
0.7912503,-0.09249883,-0.1093332
0.7997834,-0.10179,-0.1055777
0.795159,-0.1692632,-0.08208499
0.7738655,-0.1852925,-0.05939984
0.7643463,-0.1708423,-0.009438124
0.7638166,-0.1973762,-0.005305721
0.8004774,-0.2163564,-0.04184111
0.8606712,-0.2522148,-0.05159082
0.9034699,-0.2770633,-0.04013224
0.944163,-0.2293339,-0.03191934
1.009036,-0.1747652,-0.029676
1.124559,-0.1152368,0.004155193
1.264176,-0.08227257,0.07852117
1.403358,-0.1102337,0.110216
1.53252,-0.14897,0.04313858
1.586089,-0.2454286,-0.1034202
1.584488,-0.3717619,-0.2777761
1.544164,-0.472007,-0.3477377
1.334759,-0.6637837,-0.2495889
0.9702623,-0.9152105,-0.03727968
0.7746566,-0.9351835,0.2459653
0.8527665,-0.6895052,0.3142498
0.8840176,-0.4243463,-0.004978699
0.8554577,-0.1963431,-0.2539163
0.9133686,-0.1114839,-0.1959213
0.9012398,-0.1691214,-0.09074652
0.8561255,-0.1761864,-0.01835023
0.8325463,-0.3012547,0.03148528
0.751683,-0.4327312,0.04919383
0.7085556,-0.3866392,0.04345205
0.6850301,-0.3838525,0.003060326
0.6522935,-0.3001371,-0.007039852
0.6563272,-0.1880904,0.03345761
0.6580246,-0.1899004,0.07913908
0.6858361,-0.1620339,0.0856875
0.7573282,-0.1921772,0.0372302
0.8558251,-0.2221742,-0.0001842913
0.9075847,-0.2481016,0.009488082
0.9241633,-0.3335569,0.009812456
1.038191,-0.3779831,-0.01934221
1.109941,-0.4184502,-0.01176549
1.160312,-0.3905941,0.02884937
1.351067,-0.3765766,0.08531865
1.396902,-0.4134236,0.1483299
1.262586,-0.3809551,0.1151569
1.232597,-0.4414507,0.0619242
1.259078,-0.5581221,0.0700806
1.266217,-0.6273699,0.02009431
1.271873,-0.6220183,-0.02806963
1.222762,-0.5139308,-0.04152637
1.052958,-0.4273482,-0.1327757
0.8266458,-0.3432267,-0.1922675
0.7963584,-0.4026988,-0.0915792
0.90018,-0.6249518,0.06938428
0.8778689,-0.7240551,0.1183769
0.838597,-0.7170371,0.02858022
0.7847796,-0.5632836,-0.04690559
0.6570213,-0.347228,-0.0341862
0.664545,-0.2298014,-0.05900012
0.72833,-0.07227798,-0.1784999
0.747968,-0.02885269,-0.2764266
0.8166371,-0.136481,-0.303214
0.802526,-0.2109299,-0.2525331
0.7245525,-0.3216756,-0.1374824
0.7077161,-0.4017496,-0.08362319
0.6992747,-0.3939014,-0.1029457
0.7348369,-0.380849,-0.116968
0.8061059,-0.3431749,-0.1307671
0.89363,-0.2877268,-0.1658664
1.031318,-0.2732234,-0.2018045
1.138053,-0.2750483,-0.2135566
1.212909,-0.2104872,-0.224098
1.291315,-0.1192289,-0.2063822
1.398953,-0.1125606,-0.1969342
1.564442,-0.2341943,-0.2682618
1.620817,-0.3767865,-0.3126078
1.45312,-0.3708477,-0.2807283
1.164459,-0.3382258,-0.2046249
0.9222931,-0.4278973,-0.09886401
0.8216511,-0.5437452,0.01352182
0.7805313,-0.6959096,0.1488384
0.7446144,-0.8199265,0.2621832
0.7490851,-0.7162573,0.2777289
0.7768329,-0.5165846,0.2016203
0.8314899,-0.4075835,0.132751
0.9854695,-0.3360287,0.02233905
1.210328,-0.286431,-0.2242806
1.302175,-0.2837415,-0.3631809
1.173544,-0.3321268,-0.2748892
0.9639512,-0.4032954,-0.1353159
0.7910801,-0.4278663,0.02256299
0.6625128,-0.4207466,0.179469
0.6008122,-0.3783673,0.1894644
0.6157034,-0.2689419,0.08531077
0.6476912,-0.1329765,0.01440403
0.7017433,-0.01789695,-0.06870643
0.7456003,0.02631518,-0.1032801
0.7365533,0.00788152,-0.02303243
0.7407227,-0.06369565,0.04537179
0.7445016,-0.1853851,0.1228489
0.7597323,-0.2601514,0.1632325
0.8417547,-0.2771932,0.1389221
1.000429,-0.2933118,0.1353923
1.230361,-0.2952989,0.09097973
1.391412,-0.2613636,0.04817711
1.415303,-0.1955461,0.04617542
1.397627,-0.1594758,0.0399905
1.455014,-0.2541942,0.04128267
1.69415,-0.5294956,0.04388711
1.917281,-0.7978642,0.05507933
1.725022,-0.7678892,0.04629071
1.160092,-0.5831405,0.05558468
0.6934045,-0.545905,0.1561866
0.5716855,-0.5606759,0.2648139
0.6016022,-0.5558156,0.2523865
0.6588586,-0.5707215,0.09696553
0.87295,-0.5417505,-0.09607759
1.020438,-0.5224472,-0.2388686
0.912747,-0.4632851,-0.2476793
0.8562634,-0.3097384,-0.114328
0.7426937,-0.1836804,0.009378107
0.540603,-0.09714639,0.04105051
0.5815127,-0.0844657,-0.03103028
0.6670902,-0.105989,-0.1181452
0.7572183,-0.09182838,-0.1482837
0.9041913,-0.1389942,-0.1691672
0.9298431,-0.2227281,-0.1263307
0.939008,-0.2932242,-0.05668201
0.9186062,-0.3441221,-0.02087891
0.8686044,-0.3433507,0.01767686
0.8354395,-0.2940253,0.02982526
0.7623876,-0.2083924,0.05707484
0.8084224,-0.1668838,0.04855219
0.9885966,-0.1665926,-0.0514984
1.158735,-0.1414812,-0.107392
1.21056,-0.1398258,-0.08625816
1.179461,-0.1701479,-0.02049404
1.260279,-0.1951721,0.07317265
1.343589,-0.2409612,0.145443
1.404168,-0.3475467,0.1183702
1.565896,-0.475719,0.00744629
1.571252,-0.5312088,-0.07967438
1.465601,-0.5677739,-0.2028653
1.452164,-0.6664946,-0.309626
1.288484,-0.6966014,-0.2628727
1.038995,-0.686815,-0.1343305
0.9008083,-0.7228618,0.0479589
0.7833799,-0.6066698,0.1906124
0.7245829,-0.4173134,0.2028175
0.7177291,-0.3131885,0.1375754
0.7402361,-0.2069395,0.02535246
0.81204,-0.1520306,-0.0375082
0.8600814,-0.1025843,-0.06378755
0.892186,-0.06140532,-0.1099835
0.8663115,-0.1304993,-0.1081889
0.7932052,-0.1965848,-0.06257152
0.741827,-0.2529982,0.02541256
0.6805956,-0.2834651,0.1129216
0.6590388,-0.2559355,0.1346282
0.6363812,-0.2349634,0.1239651
0.6040533,-0.1581717,0.1000067
0.6486147,-0.06687316,0.0900934
0.7031029,-0.05620471,0.08050684
0.8287341,-0.1186081,0.0458136
1.039394,-0.2480177,0.01182062
1.205043,-0.3764922,-0.01510941
1.331962,-0.4313476,0.005018476
1.373457,-0.4111511,0.05938345
1.36971,-0.3813506,0.08770598
1.39959,-0.3868053,0.04569133
1.423117,-0.4490986,-0.05735281
1.510049,-0.5924044,-0.08843468
1.578381,-0.7042837,-0.0581451
1.48653,-0.6871193,-0.02848628
1.205008,-0.5156117,0.03974252
0.7316653,-0.2541132,0.06218767
0.5037676,-0.1914763,0.02280785
0.7298606,-0.3422447,-0.03489229
0.9101808,-0.4640751,-0.1172785
0.9654034,-0.5742583,-0.1362415
1.018312,-0.6205131,-0.1076655
0.8787899,-0.5297184,-0.07977482
0.71451,-0.4306263,0.003482245
0.6531356,-0.2980323,0.0631859
0.6133582,-0.1392206,0.05017065
0.6934339,-0.05552029,0.03482657
0.8001613,-0.01822502,-0.05813793
0.8922116,-0.04325984,-0.2100611
0.9641828,-0.09997248,-0.2335518
0.9015521,-0.150045,-0.1732478
0.8490429,-0.2277043,-0.1182325
0.802928,-0.2683992,-0.01384713
0.7644256,-0.3005021,0.04516605
0.8454801,-0.3433246,-0.01563486
0.8880944,-0.3226007,-0.05593082
0.9109365,-0.2796857,-0.05439586
0.9635738,-0.2197335,-0.06485976
0.996707,-0.1950972,-0.04379333
1.070282,-0.2365562,-0.02870246
1.136716,-0.2302592,-0.01250556
1.212122,-0.2147958,0.04712982
1.273747,-0.2049789,0.06734706
1.295567,-0.1549089,-0.009537505
1.449805,-0.1183416,-0.1827196
1.672071,-0.1436369,-0.355795
1.776305,-0.415127,-0.4110837
1.674823,-0.9180257,-0.278335
1.293629,-1.126922,-0.03870251
0.8046411,-0.8303512,0.06672799
0.5855075,-0.482504,0.1265252
0.7000635,-0.2872852,0.168328
0.7765851,-0.1199437,0.02885921
0.8044133,-0.1237401,-0.05408759
0.9457142,-0.2337539,-0.04801107
0.9441903,-0.2528378,-0.09118988
0.888803,-0.2921898,-0.1038341
0.8762461,-0.3242811,-0.1044632
0.7337023,-0.3451186,-0.04561055
0.6383193,-0.3684802,0.04364799
0.5867933,-0.2985128,0.09251006
0.5573605,-0.2481626,0.1043791
0.6430458,-0.2027835,0.04565776
0.7173348,-0.1439123,0.02127497
0.7880046,-0.1467842,0.002048378
0.8040638,-0.1483637,-0.01588969
0.7794299,-0.1979144,0.03952994
0.8112848,-0.2531908,0.05556086
0.8339253,-0.2707793,0.06951498
0.9410333,-0.3489182,0.08293463
1.08284,-0.4216953,0.07712936
1.109626,-0.404343,0.1010062
1.172202,-0.3143673,0.09790023
1.303123,-0.2367886,0.121326
1.289173,-0.1958162,0.1176405
1.289299,-0.2517828,0.02787514
1.62909,-0.4999374,-0.08073813
1.917045,-0.7201266,-0.1741148
1.784263,-0.7578331,-0.1100386
1.501772,-0.7495247,0.01998308
1.07924,-0.6724649,0.1152033
0.5287857,-0.4340168,0.2494
0.326145,-0.3041356,0.2335981
0.455288,-0.3907653,0.1077672
0.6322658,-0.4323963,0.01657048
0.9916518,-0.5550371,-0.1627706
1.166485,-0.6728886,-0.32247
0.9679423,-0.5607676,-0.3135413
0.8884898,-0.4727574,-0.1403181
0.7038961,-0.3147817,0.05709008
0.504186,-0.1406006,0.0404435
0.6450697,-0.1658124,-0.09853231
0.7068586,-0.1732239,-0.2056075
0.8045364,-0.2176138,-0.2582119
0.9618019,-0.3026796,-0.186823
0.8996191,-0.3143263,-0.1042014
0.8975927,-0.3231397,-0.09625935
0.9130531,-0.3044964,-0.09583633
0.8815691,-0.2878366,-0.1052916
0.9036969,-0.2443254,-0.10292
0.8753527,-0.1671324,-0.09241947
0.8667639,-0.1321128,-0.09576703
0.8585125,-0.09150137,-0.08563797
0.8352438,-0.06924007,-0.08041721
0.9445958,-0.1292533,-0.05584148
1.175205,-0.2486326,-0.01080943
1.410461,-0.3200013,-0.01522371
1.551133,-0.3120951,-0.04132174
1.677471,-0.3196148,-0.08855368
1.788899,-0.3343148,-0.2201405
1.735053,-0.3779654,-0.366768
1.595229,-0.5410137,-0.4040274
1.299253,-0.7615596,-0.3077023
0.8519729,-0.8737979,-0.08099491
0.6649591,-0.8232146,0.2229694
0.692308,-0.6666623,0.347272
0.6976326,-0.4228461,0.2031393
0.7896851,-0.2252964,0.0431845
0.9099319,-0.1773406,-0.1126371
0.9578814,-0.1502836,-0.2726288
0.9463714,-0.1475488,-0.2554718
0.8862721,-0.1961672,-0.1932104
0.8011635,-0.2204152,-0.1389925
0.6839044,-0.268384,0.009628807
0.6320804,-0.3057741,0.1178743
0.6401666,-0.2904527,0.1854072
0.6342781,-0.2685783,0.2061905
0.6787507,-0.2009201,0.1374628
0.726439,-0.141707,0.08165265
0.7646217,-0.1380037,0.01893593
0.7996255,-0.1479614,-0.007364223
0.8081344,-0.2062234,0.03353704
0.8852578,-0.3244424,0.08683363
0.9731762,-0.4478797,0.1697046
1.056104,-0.4516252,0.2064191
1.239071,-0.3672355,0.2068767
1.382064,-0.3335576,0.1919705
1.371085,-0.2751341,0.09435297
1.418909,-0.2666243,0.0003624723
1.641724,-0.4259665,-0.04319997
1.715787,-0.5789289,-0.06238771
1.495179,-0.5940686,-0.02242969
1.178663,-0.4893577,0.06694063
0.8644833,-0.4227494,0.115696
0.7196509,-0.4554729,0.06505128
0.7464446,-0.4802962,-0.00454343
0.7891865,-0.5099036,-0.02138245
0.8959328,-0.5115776,-0.02455799
0.956485,-0.4758621,-0.06931418
0.8915395,-0.4386367,-0.1474534
0.8163519,-0.3434579,-0.1544016
0.7234334,-0.264348,-0.06972029
0.6497991,-0.2414443,0.00592566
0.6527551,-0.2213614,0.02972745
0.6871079,-0.2057169,-0.01524227
0.7268987,-0.1787851,-0.09761737
0.760784,-0.1565869,-0.1465004
0.7764786,-0.1419155,-0.1458338
0.8036418,-0.1322685,-0.08647858
0.863445,-0.1625751,-0.04086567
0.9194815,-0.2259466,-0.06313231
0.9542243,-0.2782154,-0.06661505
0.9481177,-0.2736182,-0.04211599
0.9238051,-0.2486102,-0.03210814
0.9531718,-0.2300818,-0.02340799
0.9989172,-0.1917878,-0.01276886
1.072942,-0.1976282,-0.01177856
1.2481,-0.2402933,-0.01647631
1.431473,-0.2488868,-0.000970888
1.469122,-0.2590802,0.01172395
1.45364,-0.2681271,-0.01623383
1.580107,-0.2901328,-0.09608236
1.629185,-0.3801738,-0.1867606
1.447604,-0.5717894,-0.1935969
1.196999,-0.8873062,-0.1878086
0.9252515,-1.027238,-0.1903778
0.8500548,-0.8273559,-0.002338916
0.8268537,-0.640503,0.2565725
0.6676775,-0.4599855,0.263417
0.7706965,-0.1900393,0.03847236
0.865575,-0.08386497,-0.1857468
0.8430517,-0.07916253,-0.2252506
0.9811828,-0.1262699,-0.1171609
0.9032577,-0.2725301,-0.03388314
0.8031428,-0.376223,0.0243252
0.7879697,-0.4615216,0.0860957
0.6239005,-0.4804657,0.1014228
0.6329794,-0.3921144,0.1058099
0.6554678,-0.2906523,0.1020591
0.6287445,-0.1518407,0.05841616
0.7208663,-0.1087397,0.03052039
0.7651488,-0.15778,0.01411586
0.8574535,-0.1594932,-0.01399265
0.9078953,-0.2573024,-0.005926009
0.9140871,-0.4128502,0.0356045
1.005212,-0.4715294,0.08316158
1.012177,-0.4518584,0.1158934
1.065775,-0.3819403,0.1270811
1.199293,-0.3102145,0.122604
1.281827,-0.2487607,0.06042239
1.353411,-0.278063,-0.03423627
1.384358,-0.4942599,-0.05609161
1.428155,-0.793969,0.01109863
1.407435,-0.9235956,0.06932582
1.185992,-0.7277154,0.05839409
0.9028432,-0.4858024,0.0462725
0.7692366,-0.4034527,0.05618526
0.8451463,-0.3845045,0.04322054
0.9109891,-0.4682579,0.02616774
0.9202546,-0.5282009,0.01339091
0.9601728,-0.486412,-0.01089663
0.9134332,-0.4253274,-0.05822189
0.881573,-0.2758062,-0.1255001
0.8690111,-0.1810539,-0.1385437
0.7530832,-0.1797306,-0.04626663
0.6384051,-0.154783,0.07560595
0.5411623,-0.1739903,0.1068771
0.5732129,-0.1772049,0.05650988
0.7201336,-0.1493682,-0.02736626
0.8319861,-0.1446846,-0.1639263
0.9644527,-0.157944,-0.2265435
0.9776787,-0.2256723,-0.1633146
0.9339769,-0.2959427,-0.1043246
0.9299744,-0.342827,-0.01588891
0.7804594,-0.3638603,0.05868677
0.7200346,-0.3263804,0.06256121
0.8408456,-0.2524036,0.0762304
0.9768007,-0.1701681,-0.01120153
1.179395,-0.1291153,-0.1603906
1.35199,-0.1357325,-0.2175454
1.483547,-0.1803881,-0.2199963
1.619404,-0.2666786,-0.1681774
1.66306,-0.3378014,-0.1433461
1.651689,-0.4039226,-0.1627864
1.641383,-0.5601363,-0.1495573
1.556234,-0.765805,-0.1379897
1.256261,-0.8265878,-0.07177084
0.8509594,-0.7072588,0.07145886
0.625692,-0.4815105,0.2346768
0.6145093,-0.1607617,0.288984
0.7112032,0.05489303,0.1159591
0.8381437,0.03850981,-0.1000912
0.9592405,-0.04013616,-0.189296
1.006032,-0.1490029,-0.1793713
0.9295373,-0.2829474,-0.1425905
0.8243593,-0.3357275,-0.1046801
0.6826159,-0.3777531,0.006878341
0.5193736,-0.4361676,0.1571377
0.5173031,-0.4123694,0.2270957
0.6020462,-0.3296989,0.2058238
0.6284645,-0.2365462,0.1779773
0.7197266,-0.136452,0.1302455
0.8504833,-0.0449609,-0.001882526
0.8837866,-0.01312911,-0.07786597
0.8802544,-0.08624342,-0.03932419
0.8855893,-0.191489,0.01278686
0.9388009,-0.2961651,0.08224661
1.055473,-0.4189264,0.125677
1.181265,-0.4572711,0.0916834
1.286533,-0.4205033,0.06269673
1.289669,-0.3954484,0.06900516
1.274423,-0.3864215,0.05784656
1.391831,-0.527479,0.04782637
1.586703,-0.7976571,0.0357142
1.687629,-0.8419847,-0.002352327
1.466467,-0.5463305,0.01028785
1.098729,-0.2355032,0.04257822
0.9536331,-0.2055821,0.03880855
0.8719152,-0.319258,0.02592001
0.7047278,-0.394305,-0.06032046
0.6926045,-0.5043091,-0.1443974
0.8337895,-0.5187947,-0.09174525
0.8585603,-0.4447307,-0.02750328
0.8108513,-0.4835987,-0.04198325
0.7809173,-0.3934974,-0.03955039
0.6808364,-0.2037598,-0.01719944
0.6421113,-0.1785989,-0.03057338
0.6741442,-0.1585421,-0.028894
0.6803279,-0.1465318,-0.02109331
0.7441866,-0.1590511,-0.0560879
0.8003667,-0.1103096,-0.1259586
0.8242837,-0.08847367,-0.2096677
0.8401263,-0.09360249,-0.203558
0.8534631,-0.1658307,-0.1274754
0.9312651,-0.2723346,-0.1018622
0.9671795,-0.3282772,-0.09783886
0.9611826,-0.3652046,-0.09403138
0.9697258,-0.3090514,-0.05904655
0.944237,-0.1987532,0.003258122
0.9728003,-0.1341674,-0.004729859
1.02525,-0.1189627,-0.04857993
1.054444,-0.1654506,-0.06922023
1.146256,-0.2209351,-0.06046944
1.264934,-0.2575444,-0.04427419
1.374759,-0.262079,-0.07735212
1.475314,-0.2272146,-0.1171977
1.570916,-0.2388695,-0.1293261
1.641629,-0.422869,-0.1258086
1.598463,-0.7570506,-0.1129967
1.432322,-0.8963507,-0.146278
1.155165,-0.6747367,-0.230192
0.9039218,-0.4307037,-0.2697127
0.8303315,-0.3535483,-0.09724276
0.7701218,-0.332395,0.1891769
0.702058,-0.3471277,0.2242655
0.7383416,-0.3474237,0.09176804
0.7805577,-0.2882189,0.008394831
0.8315031,-0.2377113,-0.116823
0.86978,-0.186712,-0.1790342
0.8225425,-0.1698341,-0.1185974
0.7516754,-0.2235296,-0.05487495
0.6457073,-0.276193,0.04768122
0.5704685,-0.3066384,0.1152123
0.5999338,-0.2995945,0.1144173
0.6232557,-0.290861,0.1467486
0.6760829,-0.29271,0.1227671
0.8046183,-0.241901,0.05260752
0.8839183,-0.1930413,0.03637726
0.9254757,-0.1767193,0.0012949
0.9697002,-0.1781362,-0.03537385
0.9673096,-0.2163996,-0.01615951
0.9567807,-0.2692315,0.02377267
0.9460522,-0.3058287,0.08372236
0.92069,-0.309748,0.1362966
0.9439237,-0.3087157,0.1448121
1.013264,-0.2985479,0.1226361
1.109355,-0.2644771,0.08215511
1.192905,-0.2407636,0.02158493
1.209279,-0.2297774,-0.02915338
1.291183,-0.2758552,-0.01742256
1.520993,-0.4168206,-0.009883657
1.716535,-0.6059426,-0.06538848
1.699796,-0.6863366,-0.08143164
1.435308,-0.5369123,0.01416017
1.018562,-0.359274,0.162558
0.6602651,-0.3222252,0.2183502
0.8928589,-0.2653369,0.05117477
0.9657733,-0.3824883,0.08235394
1.06251,-0.4348769,0.105777
1.257191,-0.4641274,0.09602981
1.390341,-0.4645134,0.1097835
1.418775,-0.3403095,0.1137676
1.47133,-0.2610309,0.02741792
1.53515,-0.2957016,-0.0589212
1.665868,-0.3925691,-0.1605913
1.683987,-0.5752016,-0.1586339
1.365113,-0.5929993,0.003880944
0.9606771,-0.444539,0.1491157
0.6707809,-0.3860496,0.152744
0.6246892,-0.3823916,-0.01401324
0.7589918,-0.4536941,-0.1067053
0.8490386,-0.5173216,-0.07373269
0.9525995,-0.4703371,-0.06930611
0.941154,-0.4014534,-0.05120605
0.8230766,-0.2803251,-0.04624842
0.7781682,-0.167978,-0.05494901
0.7027488,-0.1029672,-0.07446478
0.716705,-0.0731106,-0.09055115
0.7717734,-0.1465938,-0.07937467
0.7316683,-0.2173819,-0.09955974
0.7573921,-0.2413866,-0.07776433
0.7566712,-0.255879,-0.04272132
0.7507161,-0.2265812,-0.03562522
0.8354334,-0.1993993,-0.02259363
0.9008817,-0.2014706,-0.06620171
0.9720457,-0.2031353,-0.1099371
1.00186,-0.1931301,-0.1178185
0.9879475,-0.1719296,-0.07794821
1.015714,-0.1349211,-0.002165346
1.070334,-0.1080075,0.0104449
1.204897,-0.1349222,0.00459305
1.419916,-0.1656332,-0.007331536
1.632415,-0.1659059,-0.07923629
1.721429,-0.1906454,-0.2129642
1.656907,-0.3188471,-0.3325279
1.508922,-0.5960385,-0.3107502
1.221239,-0.8521279,-0.2175043
0.9423189,-0.8965294,-0.07133119
0.8738124,-0.8012846,0.1705892
0.845695,-0.6331199,0.2516696
0.7883547,-0.3835001,0.08852654
0.8096673,-0.1813218,-0.0516083
0.8440768,-0.126402,-0.0733784
0.8412466,-0.1343655,-0.05835495
0.8389818,-0.1591961,-0.04659803
0.7993386,-0.2287574,-0.04160064
0.7257632,-0.2884391,-0.0285154
0.65505,-0.306075,-0.003449312
0.6005366,-0.2917028,0.04525997
0.6100789,-0.2398049,0.09974583
0.6427,-0.1666405,0.1021789
0.6773648,-0.09286989,0.08469375
0.7378291,-0.07033981,0.07591286
0.7697133,-0.08398789,0.04910453
0.8160481,-0.109401,0.04196183
0.9313422,-0.2196083,0.05235014
1.088847,-0.3661234,0.0455698
1.22773,-0.4341575,0.0512129
1.282028,-0.3971123,0.0741966
1.330564,-0.3499025,0.08319141
1.382368,-0.3856086,0.04376569
1.42388,-0.4554948,-0.01358477
1.569099,-0.6064108,-0.02616892
1.624153,-0.7527833,-0.05628562
1.40107,-0.6858676,-0.08854283
1.111906,-0.5362038,-0.002943606
0.9214587,-0.3749812,0.07761125
0.8561424,-0.2639679,0.03448022
0.8246555,-0.3671995,-0.003488998
0.7616369,-0.5037256,0.004178799
0.8234297,-0.6001815,0.02321977
0.9323823,-0.6518434,0.0492881
0.8902161,-0.4843292,-0.01494499
0.8305953,-0.2529457,-0.1304644
0.8197264,-0.08147016,-0.1479892
0.779493,0.03299476,-0.1306422
0.7516346,0.008371864,-0.1352866
0.6975457,-0.04302838,-0.1001943
0.6429003,-0.1195702,-0.04271813
0.6806756,-0.2221638,-0.01773446
0.7078256,-0.2627273,-0.05329617
0.7585671,-0.3462197,-0.08828916
0.8426214,-0.3896156,-0.07226925
0.8394179,-0.3484746,-0.07159832
0.8768427,-0.3349003,-0.08019578
0.9439313,-0.278011,-0.07334597
0.9405935,-0.2371538,-0.07270964
1.018041,-0.2519665,-0.04224405
1.19402,-0.2296265,-9.807253e-05
1.307408,-0.2259943,0.000504736
1.401029,-0.2330904,-0.05291684
1.611348,-0.1891487,-0.2146242
1.694358,-0.1609384,-0.3934366
1.544351,-0.2359002,-0.3527477
1.469945,-0.4703755,-0.2337484
1.37276,-0.8104001,-0.2308436
1.137154,-0.9998777,-0.1513107
0.9438515,-0.9201159,-0.05225441
0.792354,-0.7502517,0.04869796
0.7273777,-0.5161724,0.24146
0.7047699,-0.2354651,0.1302228
0.6765669,-0.1056545,-0.09896478
0.7696325,-0.07621694,-0.06148283
0.8656777,-0.09531162,-0.1263074
0.8845838,-0.2204527,-0.2022628
0.849837,-0.3677926,-0.1128018
0.7320834,-0.4967249,-0.05907266
0.6059539,-0.5116077,0.08388054
0.5248894,-0.4114997,0.2293152
0.545934,-0.305348,0.2441422
0.5799857,-0.1503989,0.1970308
0.5814852,-0.04490643,0.04160074
0.6942349,-0.008996375,-0.05656254
0.7810495,0.004441635,-0.04248476
0.8229741,-0.1144977,-0.02654808
0.9585647,-0.2597946,0.02500701
1.09422,-0.3971362,0.0407383
1.276233,-0.5881026,0.01191977
1.4654,-0.6545848,-0.004394987
1.451905,-0.5324256,-0.01101812
1.376183,-0.4347464,-0.008037823
1.435915,-0.5108266,-0.03760954
1.545053,-0.6421629,-0.05897556
1.625228,-0.7091331,-0.06472101
1.535443,-0.5780961,-0.08060677
1.127808,-0.2721293,-0.1048507
0.6790096,-0.1363572,-0.1554808
0.5081377,-0.1575634,-0.1120079
0.6036702,-0.3178548,0.01327371
0.7916503,-0.7032032,0.08304707
0.934593,-0.8910171,0.07170602
0.9699808,-0.7893022,-0.04781212
0.8607133,-0.5915522,-0.1456767
0.8060355,-0.2476663,-0.1346207
0.80883,0.02713924,-0.1471576
0.7639504,0.09054066,-0.217853
0.8171799,0.06356671,-0.2636244
0.7990192,-0.05599778,-0.2272665
0.7422527,-0.2584549,-0.1552457
0.7410623,-0.4146453,-0.05749155
0.647415,-0.4356024,0.06514299
0.6689085,-0.3810045,0.08560571
0.7186653,-0.3056211,0.009534372
0.7299766,-0.2110796,-0.05852335
0.8347897,-0.1175593,-0.1006886
0.8509814,-0.02614403,-0.1528116
0.8783277,0.0005895644,-0.1943224
1.044133,-0.06033332,-0.1342758
1.290671,-0.1188617,-0.08354264
1.468855,-0.1968208,-0.1390033
1.502536,-0.3077132,-0.1560051
1.564071,-0.3534988,-0.1191106
1.567653,-0.3782454,-0.1072719
1.561213,-0.4161853,-0.1233486
1.567276,-0.4166195,-0.1726857
1.443855,-0.5014523,-0.2322752
1.380667,-0.6968919,-0.2528634
1.162111,-0.7953405,-0.1981761
0.736782,-0.7319373,-0.01713889
0.5192052,-0.5930641,0.2855385
0.4653072,-0.3906678,0.4144011
0.5546388,-0.2146996,0.1761727
0.7890001,-0.2378582,-0.1113291
1.05344,-0.3601467,-0.2827226
1.191975,-0.4271381,-0.3472916
1.018173,-0.4422814,-0.1979213
0.8229774,-0.3992087,-0.02640866
0.6946001,-0.3661742,0.02608388
0.5369143,-0.3188869,0.03690691
0.5752008,-0.238196,0.03756032
0.6583231,-0.1979653,0.07574352
0.7212894,-0.1051877,0.01579529
0.8593617,-0.04932403,-0.08490221
0.8727196,-0.0772118,-0.03213412
0.860288,-0.06135628,-0.008206016
0.8869629,-0.1465473,0.02138239
0.8521302,-0.262412,0.1414735
0.8743885,-0.2659455,0.1604037
0.986353,-0.3430949,0.1822252
1.197636,-0.4734263,0.2694818
1.367307,-0.4694793,0.2405816
1.339831,-0.356562,0.1616807
1.357597,-0.2655891,0.139098
1.421626,-0.2247106,0.1204071
1.413418,-0.2933223,0.09212146
1.467762,-0.4960438,-0.001773635
1.389392,-0.6843882,-0.09203207
1.115827,-0.7752024,0.02942551
0.9229015,-0.6845908,0.1763695
0.8032594,-0.492863,0.1264478
0.8032898,-0.3656543,-0.01792065
0.9176568,-0.2988512,-0.2094819
0.9693902,-0.4261355,-0.3088632
0.9900682,-0.6019365,-0.2318335
0.9153692,-0.5932872,-0.124898
0.7775923,-0.529969,0.02662658
0.7086319,-0.3860733,0.1162476
0.6496042,-0.2258751,-0.001219149
0.6646396,-0.1335662,-0.1133765
0.7069488,-0.04948193,-0.183588
0.7142009,-0.05619548,-0.242317
0.7542462,-0.09171222,-0.1545868
0.7489993,-0.138106,-0.07466702
0.7521827,-0.2173456,-0.07962885
0.7963227,-0.2745251,-0.05856769
0.8151279,-0.3503959,-0.05219766
0.8356776,-0.3551631,-0.03700569
0.8327878,-0.282848,-0.02264403
0.883541,-0.1887968,-0.0246084
1.029459,-0.09006674,0.0130229
1.183801,-0.1183608,0.01400432
1.382068,-0.1914927,-0.04014388
1.587168,-0.2303287,-0.08878743
1.664317,-0.2860292,-0.09418579
1.667231,-0.2995368,-0.07358228
1.695436,-0.3265075,-0.09795624
1.640206,-0.4269773,-0.1505903
1.428047,-0.5489954,-0.2486873
1.120317,-0.6367099,-0.319721
0.8730543,-0.6614858,-0.19917
0.8667606,-0.6820116,0.02649756
0.8735976,-0.6370721,0.2337922
0.731492,-0.4786944,0.3000093
0.6568239,-0.3293572,0.1669028
0.6607093,-0.1987064,0.06452427
0.7211629,-0.1144053,-0.015459
0.7849222,-0.1127195,-0.1669938
0.774972,-0.1444712,-0.1431946
0.7643207,-0.233585,-0.01728309
0.7102647,-0.3204453,0.009183316
0.651,-0.3384644,0.08871078
0.6357852,-0.3050405,0.1537631
0.649103,-0.2581303,0.1222025
0.747512,-0.2487552,0.1210061
0.8760837,-0.2216053,0.05193686
0.9571365,-0.2023182,-0.06199209
0.9313431,-0.221495,-0.07455176
0.887571,-0.2136568,-0.004852432
0.914972,-0.2470586,0.1401337
0.9472532,-0.3104132,0.2451052
1.055541,-0.3185715,0.2316989
1.190291,-0.2810567,0.1965873
1.285129,-0.232864,0.1632735
1.399183,-0.2580109,0.07138201
1.526294,-0.4241074,-0.04308776
1.683956,-0.7117098,-0.05230042
1.654938,-0.860151,-0.05103165
1.359304,-0.6640502,-0.09800303
1.017804,-0.393398,-0.03895698
0.7553404,-0.2323529,0.02368661
0.7355024,-0.1685249,-0.009134767
0.8128959,-0.2833049,-0.03105055
0.8586337,-0.4269488,-0.0547018
0.9746975,-0.4872401,-0.1030765
0.9404947,-0.5146847,-0.113656
0.7879222,-0.4280414,-0.0818971
0.68838,-0.2875153,-0.04298854
0.6203676,-0.1659007,-0.004949079
0.6339421,-0.08178508,-0.006217398
0.6471295,-0.1047073,-0.03617785
0.7227565,-0.1412915,-0.05771352
0.8478411,-0.1955592,-0.1279352
0.8336082,-0.2521881,-0.183585
0.8079045,-0.2309753,-0.1353554
0.8041918,-0.2541642,-0.08147391
0.7951882,-0.2659773,-0.07427793
0.8576928,-0.233031,-0.07670766
0.9099831,-0.2459842,-0.07780047
0.9029508,-0.2262416,-0.07323748
0.9322976,-0.2043727,-0.0632462
1.083099,-0.1983834,-0.05417128
1.219252,-0.1899335,-0.05493558
1.289042,-0.2461554,-0.05384448
1.419222,-0.3101588,-0.02769304
1.451633,-0.3434814,-0.006284641
1.388252,-0.3640126,-0.03476736
1.468554,-0.4007162,-0.08968237
1.56102,-0.5107643,-0.1421544
1.538848,-0.7275843,-0.1657695
1.410686,-0.9992203,-0.09785494
1.103414,-1.033134,-0.02026832
0.8341193,-0.7447997,-0.05640611
0.8129406,-0.4274946,-0.1040587
0.8565395,-0.2289456,-0.1326586
0.8302349,-0.2004407,-0.1745088
0.7623402,-0.2604649,-0.03934724
0.6838796,-0.2783827,0.1906564
0.6187029,-0.3153888,0.2113118
0.6054853,-0.3027316,0.1107108
0.6558175,-0.2533929,0.01596969
0.6860774,-0.2767587,-0.09258682
0.6868501,-0.2680351,-0.1121155
0.6917911,-0.2444052,-0.02967329
0.6908098,-0.2516156,0.0382901
0.7074368,-0.2563443,0.05400083
0.7511945,-0.2932847,0.05878135
0.8150213,-0.3195222,0.07743025
0.8468203,-0.3270535,0.0869667
0.8535092,-0.3439918,0.08522785
0.8948925,-0.349991,0.07455347
0.9225322,-0.3667774,0.05125859
0.9660094,-0.3767864,0.0479641
1.108524,-0.3601304,0.07369956
1.262034,-0.3328421,0.08843419
1.277804,-0.2959396,0.05634519
1.240404,-0.3013336,-0.00495547
1.374112,-0.4322359,-0.03518117
1.675022,-0.7197513,-0.02206448
1.884154,-0.9296752,-0.01093655
1.601011,-0.7485566,0.002760783
0.9644164,-0.4566076,0.08573701
0.60034,-0.3948387,0.2183168
0.4673729,-0.3713992,0.2601377
0.4431053,-0.4342152,0.1666956
0.6466935,-0.6298154,0.05195966
0.8442647,-0.7080325,-0.05374313
0.9811661,-0.7564754,-0.1859208
1.008616,-0.7543809,-0.2275887
0.9111681,-0.5911103,-0.1407061
0.8535449,-0.3894019,-0.09335352
0.7766447,-0.1708607,-0.1297845
0.7883751,-0.04815916,-0.2241237
0.8451459,-0.04489108,-0.3666853
0.8162265,-0.1370856,-0.384978
0.8098257,-0.3550841,-0.207231
0.7401861,-0.4833926,-0.01439071
0.6997197,-0.5076794,0.04243318
0.7370973,-0.4824339,-0.02801325
0.7560209,-0.3769409,-0.1158486
0.8501132,-0.2842943,-0.1974092
0.9376568,-0.1726716,-0.29085
1.013234,-0.09923378,-0.3216615
1.101619,-0.1043673,-0.2992876
1.116392,-0.1006447,-0.2750572
1.0846,-0.1037442,-0.2357786
0.9750102,-0.102272,-0.121926
0.9102369,-0.1338672,0.09057644
1.057489,-0.2162994,0.2102564
1.362753,-0.3226833,0.1327516
1.703429,-0.4020993,-0.09096912
1.871519,-0.3930356,-0.426249
1.831409,-0.4571251,-0.5796901
1.676563,-0.6537052,-0.4621946
1.336226,-0.8550465,-0.3675401
0.8924519,-0.9185824,-0.1982097
0.6057517,-0.753621,0.1285644
0.5288156,-0.5451673,0.2717716
0.5399203,-0.3668576,0.187701
0.5867015,-0.2186858,0.04758891
0.7049723,-0.2301379,-0.09351043
0.8814189,-0.2653859,-0.1315893
0.992352,-0.2570727,-0.149291
0.9824374,-0.278647,-0.2633437
0.9117137,-0.2783729,-0.2870723
0.7651334,-0.2839464,-0.1344235
0.5710489,-0.2600507,0.06707416
0.4429842,-0.1907525,0.2293783
0.4067772,-0.1541755,0.2649633
0.4815337,-0.1180493,0.1992933
0.6350031,-0.1001268,0.1447461
0.8186062,-0.1431868,0.03048283
1.083887,-0.2589039,-0.1293588
1.28772,-0.4103826,-0.1574884
1.312837,-0.4992293,-0.04605469
1.347832,-0.5405138,0.1181189
1.338404,-0.5135001,0.2275122
1.195759,-0.3860833,0.231125
1.177827,-0.2999662,0.1882963
1.347722,-0.340704,0.0680241
1.538012,-0.4309281,-0.1331908
1.523714,-0.512353,-0.2151554
1.203924,-0.6628479,-0.1009749
0.8733894,-0.8274029,-0.006555949
0.7831414,-0.7757932,0.002331573
0.8340134,-0.5943816,0.0001790695
0.7977898,-0.4646481,-0.04675856
0.7668017,-0.3751763,-0.06874845
0.9008243,-0.4213271,-0.09167412
0.9462158,-0.4939434,-0.1849852
0.895858,-0.419318,-0.2079163
0.8333431,-0.3388318,-0.1481962
0.6968906,-0.192654,-0.07118292
0.6616861,-0.04199951,-0.02831552
0.6540351,-0.08178165,-0.07479892
0.639188,-0.111622,-0.1364324
0.7018504,-0.1444845,-0.1622439
0.7154017,-0.2266038,-0.1326572
0.7518934,-0.2494682,-0.07790139
0.781372,-0.2857367,-0.06504441
0.7706639,-0.2729025,-0.05885597
0.8173305,-0.2602205,-0.05572139
0.8203215,-0.275632,-0.07629818
0.8667272,-0.2231117,-0.09853924
1.011058,-0.2339013,-0.1190202
1.137913,-0.265614,-0.1481993
1.315109,-0.2957998,-0.172844
1.454968,-0.3741163,-0.1497766
1.438843,-0.3826456,-0.1113062
1.422345,-0.3651846,-0.118309
1.445002,-0.3681584,-0.1761495
1.444716,-0.4422863,-0.2709312
1.455183,-0.6648083,-0.3191514
1.399956,-0.9174567,-0.2879023
1.186949,-1.004752,-0.2060978
0.8936843,-0.8330276,-0.02724718
0.7015564,-0.5678606,0.1586359
0.7059234,-0.3263104,0.1824318
0.7730362,-0.1435625,0.05721051
0.8513374,-0.1369931,-0.1032614
0.9663167,-0.1808051,-0.1769861
0.9918786,-0.2048342,-0.1755142
0.9327308,-0.2706188,-0.1665314
0.8290774,-0.3044658,-0.1041374
0.6482107,-0.324305,0.007095104
0.5119933,-0.3237392,0.136338
0.485098,-0.2820677,0.2133863
0.4993279,-0.2351695,0.1704196
0.5689016,-0.1746759,0.1097742
0.702849,-0.1534331,0.03973298
0.8372841,-0.1584081,-0.05981652
0.9451115,-0.1727035,-0.09509076
0.9789542,-0.2365509,-0.06546938
0.9657163,-0.330781,0.01289345
1.037976,-0.4288166,0.08562368
1.137504,-0.4398918,0.101921
1.247171,-0.4048432,0.1002071
1.389873,-0.4197355,0.05935628
1.431038,-0.4248761,-0.01189327
1.514143,-0.5357308,-0.06617009
1.615467,-0.7417653,-0.07534788
1.43405,-0.7453338,-0.02123123
1.142711,-0.5501903,0.04609498
0.8758935,-0.3433248,0.06212677
0.6575609,-0.2505161,-0.007605844
0.6826242,-0.3223355,-0.07786196
0.8072239,-0.4364806,-0.06553952
0.9079819,-0.5524127,-0.05810701
0.9830441,-0.6173809,-0.08232598
0.9162126,-0.5153319,-0.08526858
0.8309138,-0.372337,-0.07569691
0.7740582,-0.2140539,-0.06703168
0.6968264,-0.05062776,-0.06800701
0.7080147,-0.06014744,-0.09464946
0.7413923,-0.1214337,-0.1400113
0.7554556,-0.1669572,-0.1773138
0.7861171,-0.2584756,-0.1944257
0.7667034,-0.2791812,-0.1784346
0.7514444,-0.2870211,-0.1270359
0.7652606,-0.3187534,-0.0898728
0.8022887,-0.3210934,-0.1059236
0.9141522,-0.3369595,-0.1377226
0.9772854,-0.3192615,-0.140912
0.9337531,-0.2588842,-0.1381668
0.9344681,-0.1802507,-0.1264982
1.050678,-0.1316904,-0.1027434
1.226312,-0.170902,-0.119108
1.388366,-0.228176,-0.1362089
1.506827,-0.3130034,-0.1293841
1.556836,-0.3858669,-0.1640184
1.526069,-0.3563901,-0.217087
1.472529,-0.3833706,-0.2361758
1.431269,-0.5156448,-0.2259431
1.370406,-0.6283543,-0.2126112
1.220165,-0.8117257,-0.1648533
0.9839068,-1.025781,-0.03478022
0.8676559,-0.9241552,0.05638122
0.8342238,-0.5129477,0.04290199
0.662956,-0.1663426,0.05567136
0.6408144,-0.08546736,0.06694446
0.7979653,-0.1662887,-0.02105596
0.8023372,-0.136199,-0.1056036
0.8408872,-0.09549777,-0.1180115
0.8511685,-0.2464582,-0.09701758
0.7142569,-0.339104,-0.05556505
0.6801277,-0.3611529,-0.008019944
0.6137303,-0.3687144,0.07108632
0.5158829,-0.2939022,0.1704667
0.5246492,-0.2799135,0.179799
0.602168,-0.2084662,0.09729717
0.7435029,-0.1301844,0.03420259
0.800599,-0.1794277,0.00618122
0.8575761,-0.1954785,-0.02084606
0.9132051,-0.2575596,0.002392558
0.8641823,-0.3245595,0.06805601
0.9476141,-0.3792335,0.1107838
1.119054,-0.4776487,0.1193684
1.287157,-0.4564684,0.07539342
1.41524,-0.3837626,0.01475538
1.403379,-0.309825,-0.03079402
1.445455,-0.3159877,-0.06699953
1.521949,-0.5292351,-0.07384044
1.515066,-0.7805522,-0.06578148
1.448201,-0.8547325,0.02677959
1.194942,-0.5987198,0.1412487
0.8407727,-0.2685257,0.05873894
0.653001,-0.2089413,-0.03884926
0.6881481,-0.2876998,0.01442303
0.794407,-0.3997623,-0.006099461
0.8733598,-0.5295687,-0.07127727
0.9267795,-0.5723811,-0.07292875
0.8735093,-0.477472,-0.1062922
0.7703575,-0.3281367,-0.08566625
0.684213,-0.2037431,-0.02239751
0.5823539,-0.07784081,-0.03431991
0.5981416,-0.03303837,-0.05839731
0.7050478,-0.04643859,-0.1337289
0.8115069,-0.05564551,-0.2432834
0.9270572,-0.1300548,-0.2694654
1.34826,-0.1920156,-0.06057106
1.580158,-0.2950227,-0.1444891
1.567089,-0.286309,-0.2078234
1.537381,-0.2179457,-0.2527116
1.555137,-0.1684348,-0.3167127
1.523967,-0.2720051,-0.3160066
1.378098,-0.655482,-0.2251037
1.163003,-1.150391,-0.1444003
1.056165,-1.233824,-0.04634118
0.9472423,-0.8922501,0.09738012
0.7027631,-0.5944722,0.2257011
0.6379575,-0.3366926,0.2248089
0.760824,-0.1808411,0.07332588
0.726629,-0.0960806,-0.009377201
0.724042,0.07077156,-0.02673024
0.7920075,-0.05063307,-0.06441478
0.7447518,-0.1831555,-0.06293099
0.7752061,-0.1725068,-0.0964801
0.7757048,-0.3866451,-0.04587161
0.7044377,-0.4088298,0.08005685
0.7094789,-0.357497,0.1188259
0.6754593,-0.3898228,0.1577082
0.7040428,-0.208749,0.1083751
0.7666471,-0.1587622,0.03107723
0.7851366,-0.1477346,0.03195336
0.8549592,-0.1205039,0.01710997
0.8781015,-0.2442031,0.06794347
0.9482567,-0.3166291,0.1109988
1.117415,-0.4340465,0.1129276
1.28518,-0.4741726,0.1142822
1.430064,-0.4324036,0.05095134
1.442541,-0.4602032,-0.00112509
1.438855,-0.4345975,-0.04315989
1.500148,-0.52679,-0.03969578
1.478063,-0.646692,-0.0225438
1.337029,-0.6270885,-0.0748931
1.058217,-0.5776033,-0.06038193
0.8249942,-0.4940374,-0.02381737
0.8403481,-0.4425687,-0.02252991
0.8717017,-0.4153763,-0.05247341
0.8046852,-0.4150535,-0.1176192
0.8331834,-0.4741723,-0.06809815
0.8658105,-0.5136804,-0.01244373
0.8043099,-0.5022475,-0.04436628
0.7757731,-0.4196984,-0.04304414
0.734225,-0.3008128,-0.0569093
0.7179298,-0.1569215,-0.07656316
0.7676472,-0.08158983,-0.09241225
0.7538457,-0.1238272,-0.1608931
0.7326213,-0.1242537,-0.1974126
0.7083272,-0.1446625,-0.1499879
0.6841453,-0.2043346,-0.069666
0.7312508,-0.2190218,-0.03536802
0.7881337,-0.258241,-0.04175878
0.8795766,-0.2622914,-0.05050011
0.9415047,-0.1954018,-0.08405546
0.932247,-0.1148588,-0.09841068
0.9924836,-0.08376561,-0.09746675
1.113966,-0.1692278,-0.1144423
1.296868,-0.319327,-0.1144825
1.4942,-0.4854113,-0.1277787
1.551352,-0.5411858,-0.1695337
1.510657,-0.4039033,-0.2363433
1.478009,-0.3329939,-0.2980519
1.452811,-0.4995488,-0.292678
1.336211,-0.7078829,-0.2646465
1.035458,-0.7994594,-0.1806964
0.6927101,-0.8228625,0.01947756
0.6239326,-0.738089,0.174832
0.7645353,-0.5094827,0.1648006
0.7999209,-0.3140677,0.05157644
0.9015838,-0.2163981,-0.1225216
1.079316,-0.1897101,-0.2869222
1.044087,-0.2661779,-0.3030485
0.9752013,-0.3817343,-0.1985524
0.8700555,-0.4851446,-0.09158168
0.6682134,-0.5255624,0.01547472
0.5743717,-0.4703353,0.1183883
0.483573,-0.3847278,0.1640275
0.4309459,-0.2496265,0.1444875
0.4905913,-0.1101566,0.111482
0.5528498,-0.0770518,0.06541383
0.7000109,-0.1032448,-0.02350197
0.8709559,-0.1750522,-0.1054831
0.9874819,-0.3131313,-0.174485
1.115004,-0.4333983,-0.2007636
1.21081,-0.4862937,-0.1133176
1.259578,-0.5022611,0.004559616
1.275143,-0.4903632,0.07541366
1.26284,-0.4376515,0.08195985
1.27455,-0.416155,0.01379755
1.365399,-0.5563614,-0.083487
1.520156,-0.8157373,-0.1807155
1.576576,-0.9076166,-0.2028123
1.388043,-0.7023865,-0.1226132
1.09074,-0.4485916,-0.07484505
0.8407907,-0.2936159,-0.1130196
0.6024138,-0.1967553,-0.1329187
0.5554586,-0.2719714,-0.07471274
0.7750618,-0.4939999,-0.03493493
0.898331,-0.6535284,-0.06687367
0.8511095,-0.7064084,-0.1020903
0.81295,-0.6265928,-0.12342
0.7706003,-0.4660576,-0.1163
0.7334204,-0.3461879,-0.1059899
0.7655725,-0.2111356,-0.1714373
0.8280569,-0.09471494,-0.2510839
0.8287365,-0.1273466,-0.2588116
0.8054773,-0.2739104,-0.2245801
0.7871466,-0.3593356,-0.2001357
0.7215442,-0.3206304,-0.1751622
0.655474,-0.2741373,-0.09084194
0.5934378,-0.2225018,0.003936041
0.5910434,-0.1947892,-0.009294611
0.6600672,-0.216514,-0.07863653
0.654487,-0.1988593,-0.1440882
0.6666041,-0.2109899,-0.2335129
0.7773954,-0.2883174,-0.215083
1.014277,-0.4097354,-0.1251609
1.430049,-0.4935459,-0.1564888
1.736588,-0.4163358,-0.1892311
1.776617,-0.2956016,-0.2124864
1.708104,-0.1921825,-0.2601273
1.628513,-0.1081486,-0.2289515
1.555548,-0.145891,-0.2626197
1.434586,-0.4163916,-0.295418
1.241557,-0.9630338,-0.1710102
1.011932,-1.297008,0.001139151
0.8778792,-1.064523,0.2107941
0.757598,-0.7443793,0.3147253
0.5263735,-0.4671399,0.1532143
0.5551798,-0.1809239,-0.04398534
0.7706285,-0.2465845,-0.06809365
0.8771397,-0.4025975,-0.134886
1.010669,-0.4412436,-0.3325484
0.9780458,-0.554646,-0.3344885
0.8110918,-0.4925803,-0.1955079
0.6724505,-0.4010722,-0.08413151
0.5272191,-0.410526,0.05757443
0.5896546,-0.2921077,0.06403727
0.641167,-0.2361912,-0.03375321
0.6507908,-0.177636,-0.07329501
0.8192516,-0.1073197,-0.04671891
0.8305104,-0.1534445,0.01501495
0.7942481,-0.1423074,0.01211337
0.8298808,-0.1901233,0.0418923
0.7892293,-0.2362845,0.1036092
0.8090206,-0.2147095,0.09315144
0.8899764,-0.2936651,0.1256442
1.021587,-0.3501662,0.1526687
1.173821,-0.3945653,0.143092
1.292507,-0.4181842,0.1642723
1.399661,-0.3779391,0.1624379
1.432562,-0.3929934,0.1536771
1.553744,-0.4495722,0.1344518
1.73122,-0.5463183,0.08105257
1.687058,-0.5913047,-0.01376428
1.491732,-0.5554483,-0.09939927
1.112485,-0.5331706,-0.01030533
0.6179076,-0.4906874,0.1602624
0.4617065,-0.5091249,0.203946
0.5937709,-0.5781055,0.1456366
0.7052919,-0.5877923,0.04531698
0.8689772,-0.5729588,-0.07038502
1.008634,-0.5130864,-0.1996469
0.982254,-0.4093123,-0.2723229
0.9328309,-0.2771227,-0.2017331
0.8305045,-0.1291331,-0.0954124
0.6549167,-0.05011183,0.01114975
0.6173098,-0.03745531,0.07809013
0.6606349,-0.06265201,-0.0136138
0.6949292,-0.125753,-0.1109797
0.7951434,-0.2126867,-0.1397655
0.8654249,-0.2800343,-0.1496027
0.8845752,-0.2732824,-0.07469573
0.9276894,-0.2426875,-0.015216
0.9385557,-0.1967739,-0.02547327
0.9369843,-0.117884,-0.04771737
0.96908,-0.07544257,-0.0875871
0.9986361,-0.06372715,-0.1043439
1.04846,-0.10192,-0.1079705
1.137487,-0.2218621,-0.07779699
1.206707,-0.3502271,0.009617755
1.214235,-0.428012,0.08905174
1.216824,-0.4409008,0.1277486
1.338624,-0.4175863,0.02444264
1.613821,-0.3982447,-0.2535008
1.890262,-0.4913097,-0.5622795
1.881923,-0.723545,-0.6669503
1.469092,-0.8341872,-0.4171338
0.9199891,-0.6681423,-0.06280397
0.5886399,-0.4262704,0.1607161
0.5718475,-0.3338868,0.2641615
0.6456275,-0.3071216,0.2112892
0.6738176,-0.2605705,0.1093755
0.7954856,-0.2719924,0.02789842
0.8938425,-0.240955,-0.09023006
0.8626765,-0.20139,-0.1500573
0.8645392,-0.2431347,-0.142362
0.8280124,-0.2471937,-0.1094218
0.7269064,-0.2681148,-0.05153939
0.6980846,-0.2985197,0.009453256
0.6847476,-0.2763771,0.05978721
0.6684377,-0.277875,0.05558345
0.6969792,-0.2754038,0.08601517
0.7102244,-0.2736446,0.1110676
0.7489701,-0.2857589,0.03230029
0.8242007,-0.2874445,0.00984813
0.8018015,-0.2940559,0.0142909
0.783245,-0.2981516,0.02698212
0.8467124,-0.3114394,0.08868169
0.8902933,-0.3200451,0.08120882
1.024363,-0.3372042,0.07577544
1.240132,-0.3676301,0.08002992
1.345632,-0.3401184,0.05689927
1.393216,-0.3180424,0.03989795
1.499892,-0.4106854,-0.04154994
1.65249,-0.5841516,-0.1515836
1.726731,-0.6781775,-0.2186314
1.489047,-0.5405919,-0.1277607
1.052828,-0.3404559,0.1006005
0.8585782,-0.3326304,0.1891598
0.8168971,-0.4110968,0.08265653
0.7349286,-0.4770647,-0.05557707
0.7622911,-0.5701716,-0.06961214
0.7707696,-0.6108628,-0.01966244
0.7500461,-0.5972627,-0.03366976
0.7843664,-0.5360108,-0.03606689
0.7340237,-0.3715879,-0.06005684
0.6967692,-0.1831774,-0.09866439
0.7019926,-0.06700281,-0.09177803
0.704712,-0.06159255,-0.1206715
0.7594336,-0.1194258,-0.1389689
0.8118719,-0.1727761,-0.1416907
0.8588729,-0.2326384,-0.162371
0.87982,-0.2772179,-0.1494768
0.9121125,-0.2981632,-0.1279999
0.977056,-0.3078881,-0.112878
0.9664154,-0.3009696,-0.1085929
0.9249387,-0.2715485,-0.09847093
0.8736842,-0.2085649,-0.06915144
0.8448918,-0.1803744,-0.06321171
0.9244765,-0.2137646,-0.08463321
1.04403,-0.2637562,-0.1262808
1.163438,-0.327525,-0.1508935
1.268056,-0.3460746,-0.1301758
1.355184,-0.3119032,-0.1016292
1.419432,-0.2817993,-0.117691
1.417145,-0.1944606,-0.2446519
1.379817,-0.1224431,-0.4039051
1.309143,-0.2817397,-0.3905035
1.275909,-0.6377408,-0.2464164
1.296714,-0.9861455,-0.1519076
1.183807,-1.097085,-0.08838578
0.9674436,-0.878949,-0.02369934
0.7978572,-0.6039313,0.0358803
0.7257481,-0.4185127,0.06081386
0.7412105,-0.2622014,-0.02996725
0.7791601,-0.2438948,-0.1103968
0.864648,-0.3006853,-0.116681
0.9168076,-0.324403,-0.1419443
0.8531755,-0.3883562,-0.1251043
0.7545726,-0.4328126,-0.06051454
0.6109574,-0.4248788,0.02039447
0.5256734,-0.3801912,0.09274517
0.5706489,-0.2732766,0.09191663
0.6187651,-0.1516079,0.04249339
0.7092314,-0.04639465,-0.05631998
0.8416958,-0.0005641712,-0.1589035
0.913342,-0.02549515,-0.1822786
0.9308157,-0.09683504,-0.136154
0.8912477,-0.2166182,-0.02630456
0.8613161,-0.3467039,0.1294355
0.91151,-0.4817579,0.2686323
1.004388,-0.5604708,0.2819604
1.167136,-0.5365888,0.157699
1.324422,-0.5207853,0.00832884
1.354332,-0.5034066,-0.1223841
1.428585,-0.4709963,-0.186348
1.601215,-0.5352868,-0.1537497
1.61914,-0.6200869,-0.1190803
1.411697,-0.6145464,-0.1201351
1.067177,-0.5717517,-0.03955576
0.7042021,-0.5518112,0.1131669
0.5086169,-0.6004142,0.1482358
0.5193705,-0.6871169,0.07220419
0.6545566,-0.7396457,-0.01306224
0.8459922,-0.7727947,-0.1139877
1.016749,-0.7736159,-0.2190301
1.053237,-0.7096039,-0.288956
0.938169,-0.5939088,-0.2676481
0.8455322,-0.4393371,-0.1804299
0.7869921,-0.3078698,-0.1188415
0.6928737,-0.251178,-0.1418825
0.6661017,-0.2446585,-0.2138767
0.692195,-0.2675043,-0.2279892
0.7101709,-0.3111206,-0.2288526
0.7216948,-0.3768587,-0.2154388
0.7156262,-0.458025,-0.1478802
0.7118398,-0.5098068,-0.1241758
0.7149689,-0.5114884,-0.1137535
0.7367282,-0.4741549,-0.1163569
0.7569524,-0.4246979,-0.1509526
0.7624467,-0.380578,-0.1487268
0.8069045,-0.2807596,-0.1462422
0.8974638,-0.1403246,-0.1194573
0.9680951,-0.1214656,-0.09025603
1.033985,-0.1885735,-0.1224042
1.23885,-0.2013435,-0.1406581
1.446037,-0.2433401,-0.137163
1.515257,-0.2924843,-0.1448787
1.696317,-0.2800918,-0.2183619
1.827244,-0.3096045,-0.4128732
1.668815,-0.3840072,-0.6295399
1.439263,-0.6168498,-0.6928534
0.9903885,-0.9788614,-0.5415295
0.474557,-1.104966,-0.1932221
0.4167803,-1.038047,0.3295406
0.4772723,-0.9308746,0.6006343
0.4726581,-0.7001866,0.3269226
0.6514934,-0.4394081,-0.01413587
0.8707402,-0.2810517,-0.2741807
1.077535,-0.2541903,-0.4763165
1.11654,-0.3067063,-0.3581426
0.9246804,-0.3537451,-0.2147933
0.760773,-0.3789416,-0.07005373
0.5969328,-0.387476,0.2204952
0.5023672,-0.3627766,0.2247343
0.5392393,-0.2913839,0.1293547
0.5837018,-0.2099005,0.1292114
0.6711596,-0.1366025,0.01016779
0.7542074,-0.09658978,-0.02252234
0.8482287,-0.1061015,-0.02190284
0.9654537,-0.1607407,-0.03699405
1.043325,-0.3327556,0.02945409
1.162881,-0.5080667,0.01952527
1.249787,-0.498605,0.0362822
1.282676,-0.4179795,0.1045959
1.320645,-0.3803304,0.1255318
1.307102,-0.375013,0.1119354
1.384781,-0.5250326,0.01034815
1.490018,-0.8102575,-0.1022978
1.364341,-0.8779436,-0.1491126
1.096075,-0.6377871,-0.05963867
0.7985166,-0.3932084,0.08806947
0.6416326,-0.3357151,0.06725161
0.738646,-0.4024932,-0.03640274
0.8575551,-0.4559538,-0.1347906
0.9660668,-0.4907638,-0.1760608
1.017524,-0.46943,-0.1239147
0.8770385,-0.337586,-0.1298737
0.7693367,-0.2112522,-0.120125
0.7097922,-0.08698508,-0.06476654
0.621492,0.01352572,-0.07528726
0.6285551,-0.003473534,-0.06894452
0.6529275,-0.07288484,-0.06566853
0.6927694,-0.193011,-0.08807058
0.7684008,-0.2993921,-0.08522653
0.805762,-0.3346081,-0.08278889
0.8444187,-0.3715914,-0.05905154
0.8552432,-0.3514058,-0.03880448
0.8747564,-0.2808976,-0.04244276
0.9398641,-0.199639,-0.04673061
1.002947,-0.1246462,-0.08346122
1.119881,-0.1307631,-0.1551539
1.240147,-0.1397651,-0.2232845
1.298027,-0.1676579,-0.2103037
1.387593,-0.2860044,-0.1144361
1.507066,-0.3758559,-0.05114434
1.509684,-0.4155478,-0.07285453
1.459094,-0.4514005,-0.1363158
1.488305,-0.4956922,-0.2122791
1.449114,-0.6100014,-0.3349729
1.30026,-0.7916988,-0.3856014
1.054953,-0.8833897,-0.212226
0.7600772,-0.8049616,0.05965044
0.6931578,-0.6723726,0.2780384
0.7464038,-0.4700495,0.3208786
0.7232831,-0.2369528,0.1580988
0.7543677,-0.1461147,-0.006149784
0.828231,-0.1178549,-0.08288265
0.8874347,-0.1528852,-0.1241125
0.8887271,-0.2824322,-0.1493223
0.8273933,-0.38182,-0.124524
0.7819978,-0.4705876,-0.01248868
0.7061473,-0.4775,0.09369487
0.6235573,-0.3918306,0.1367722
0.6217252,-0.3254973,0.1354149
0.6506375,-0.2302356,0.1047152
0.6864553,-0.1501846,0.05793757
0.7600326,-0.0886482,-0.0201456
0.8024932,-0.07152939,-0.04490871
0.8107024,-0.1811145,0.008559214
0.8854966,-0.2752801,0.04199864
0.9433513,-0.3582991,0.05850075
0.9841325,-0.4379374,0.07877291
1.140898,-0.439256,0.09869316
1.302154,-0.4697054,0.115849
1.356637,-0.4815493,0.1160466
1.407663,-0.4532155,0.07623041
1.547914,-0.4749173,-0.004272168
1.571794,-0.51544,-0.0439368
1.393906,-0.6591126,0.004568525
1.247344,-0.83506,0.1339272
1.084804,-0.754837,0.2321241
0.8979977,-0.4938596,0.1050993
0.6927994,-0.263741,-0.1173866
0.5269649,-0.1625912,-0.1443285
0.6983812,-0.334515,-0.04714654
0.8139684,-0.5750202,-0.01171531
0.7560687,-0.6646759,-0.02012633
0.8470558,-0.7127327,-0.01872027
0.7855313,-0.5854894,-0.002516285
0.7172828,-0.329968,-0.01296035
0.7523969,-0.1589827,-0.05861233
0.7263063,-0.02612484,-0.1221779
0.8454272,-0.03352103,-0.222422
0.9381133,-0.1332945,-0.2647594
0.970069,-0.2235156,-0.2449372
0.9763198,-0.3091009,-0.2382212
0.8514279,-0.3047031,-0.145996
0.7953256,-0.340748,-0.01193951
0.7572709,-0.3691532,0.02491468
0.7561091,-0.3113804,0.001791522
0.8084074,-0.3057048,-0.009009179
0.828624,-0.2577878,-0.04537175
0.9770374,-0.1925728,-0.13627
1.098871,-0.1901979,-0.1569689
1.160003,-0.2186112,-0.1102295
1.335599,-0.296525,-0.06470847
1.511241,-0.3078998,0.0122457
1.576951,-0.2159778,0.006000811
1.516806,-0.1138838,-0.09911003
1.48922,-0.1242116,-0.1704329
1.503475,-0.350753,-0.208147
1.409804,-0.7004086,-0.2347884
1.238911,-0.9601822,-0.2453332
1.002456,-0.9279249,-0.1588853
0.8374033,-0.6789752,0.003612241
0.7694087,-0.4049895,0.03480196
0.6518174,-0.1944096,-0.00770417
0.5983982,-0.1746401,0.02664304
0.6349927,-0.2165246,0.06036147
0.6877627,-0.2338925,0.04659056
0.7818443,-0.3382656,-0.03044168
0.8309402,-0.3993473,-0.1182499
0.7932859,-0.4122872,-0.08168376
0.7414888,-0.4266066,0.01657408
0.6768524,-0.377675,0.08820224
0.6323966,-0.3228327,0.1353548
0.6816649,-0.2537806,0.1002654
0.7471596,-0.2034482,0.04237826
0.7884786,-0.1989949,0.02510411
0.8457692,-0.1827987,0.0005109107
0.8626282,-0.1827944,0.01970184
0.8689263,-0.1869717,0.06285778
0.9278818,-0.2182695,0.1045672
1.019559,-0.2851152,0.1661552
1.147105,-0.3364919,0.1360064
1.314988,-0.3992179,0.09048355
1.435924,-0.4393908,0.1043745
1.395531,-0.4492421,0.08656061
1.389721,-0.4984349,0.08618862
1.516472,-0.5758373,0.03918709
1.497688,-0.6196942,-0.09389572
1.343995,-0.5955423,-0.1346074
1.10716,-0.5415224,-0.01816121
0.8047582,-0.4887465,0.1092039
0.6611465,-0.4689564,0.07271833
0.6459656,-0.518903,0.003748923
0.7184482,-0.5459172,-0.01380705
0.8275583,-0.4972495,-0.1081796
0.8305996,-0.4263098,-0.1423233
0.8241577,-0.3330582,-0.1112239
0.7954775,-0.2373703,-0.1304258
0.747818,-0.186162,-0.08999393
0.7712797,-0.202804,-0.04771551
0.7854638,-0.2675478,-0.06364223
0.8013261,-0.3195007,-0.07154547
0.8211118,-0.3444637,-0.09417314
0.8057733,-0.3066852,-0.1196405
0.788458,-0.21198,-0.1112632
0.7795446,-0.1564474,-0.0804241
0.8140602,-0.1641733,-0.07752965
0.8982012,-0.2266932,-0.09927624
0.9711273,-0.276103,-0.1140039
0.9655295,-0.261553,-0.1300007
0.9194527,-0.249359,-0.1164027
0.9215637,-0.2411846,-0.08505286
0.9732339,-0.2369734,-0.0641249
1.081538,-0.2567908,-0.07898781
1.195691,-0.2746381,-0.1162887
1.243895,-0.2802383,-0.09054526
1.262181,-0.2715832,-0.07551086
1.300907,-0.2709845,-0.09899251
1.400864,-0.2592669,-0.08906912
1.494345,-0.3162032,-0.09832913
1.536607,-0.6541455,-0.1214905
1.609976,-1.031188,-0.1871335
1.583592,-0.9629241,-0.2812241
1.313356,-0.6915672,-0.2391114
0.913066,-0.5391767,-0.1299635
0.6414262,-0.3273361,-0.05890251
0.6911629,-0.2978713,0.05726827
0.7295777,-0.3893924,0.1652102
0.6275495,-0.25093,0.1257717
0.747349,-0.2971959,-0.0160872
0.8306271,-0.359274,-0.105925
0.7612566,-0.2580867,-0.1035748
0.762516,-0.3626007,-0.0515754
0.6565683,-0.3629647,0.02738856
0.617208,-0.3592857,0.07405047
