accx,accy,accz
0.5265761,-0.2921722,0.1838284
0.5095828,-0.2961561,0.2176313
0.5432563,-0.2583508,0.2351939
0.5906197,-0.2158522,0.2692197
0.6526129,-0.1903959,0.298723
0.7207814,-0.2017626,0.3019332
0.8327924,-0.2147011,0.3508058
0.9393876,-0.1985949,0.3930367
0.9267663,-0.2049977,0.3777323
0.9506607,-0.1931739,0.4040041
1.054154,-0.1866936,0.4589519
1.077872,-0.2365207,0.4992126
1.122843,-0.3123006,0.527112
1.219833,-0.4422325,0.4867093
1.294334,-0.5631853,0.4227964
1.330691,-0.5624076,0.3912168
1.157062,-0.5028608,0.3449875
0.8942814,-0.4809208,0.2886825
0.8303482,-0.4634221,0.2393633
0.8893291,-0.4577102,0.1949934
0.9679209,-0.4874173,0.164799
1.045904,-0.474926,0.1492312
1.058993,-0.4614421,0.1404518
0.987635,-0.4462589,0.1078429
0.9086968,-0.3662233,0.07394609
0.8371731,-0.3184997,0.07267638
0.732574,-0.2842915,0.07415952
0.6643209,-0.2276955,0.06947872
0.6087379,-0.1835258,0.04847327
0.5727347,-0.1337659,0.01566418
0.6192457,-0.1367478,0.01187437
0.672995,-0.1680928,0.02922016
0.7572516,-0.1869518,0.0378584
0.8637891,-0.225021,0.0329182
0.9447652,-0.2420631,0.03141598
1.023651,-0.2375708,0.03548225
1.054973,-0.207023,0.03655092
1.085182,-0.1631519,0.0527854
1.14246,-0.1670373,0.07599326
1.19404,-0.1786521,0.08144354
1.279741,-0.183026,0.07403608
1.37692,-0.2425743,0.0526721
1.474667,-0.3557163,0.01326106
1.507919,-0.4371454,0.003096131
1.411655,-0.4418239,0.06602054
1.361645,-0.4738117,0.1138993
1.406968,-0.5945478,0.05996774
1.38142,-0.6696312,0.009803564
1.243214,-0.6488283,0.03795414
1.101004,-0.6400203,0.05614249
1.073948,-0.5869419,0.0888401
1.021278,-0.4321426,0.1823524
0.8750583,-0.3442405,0.2113566
0.8639102,-0.3419193,0.1877266
0.883374,-0.3249534,0.1838294
0.8144553,-0.3261219,0.1314496
0.7664508,-0.322234,0.09808663
0.6679715,-0.3113829,0.141281
0.6128801,-0.3273179,0.1707732
0.6297836,-0.3167675,0.1924342
0.581975,-0.2989062,0.2283181
0.5821359,-0.266023,0.2527997
0.6112496,-0.2059402,0.2576283
0.641206,-0.1932397,0.253931
0.7358485,-0.2024361,0.2684923
0.8012323,-0.2157815,0.290026
0.8413101,-0.237336,0.3069557
0.8595058,-0.2316308,0.3256324
0.8529014,-0.2271021,0.369188
0.9014842,-0.224726,0.4486381
0.991099,-0.2192784,0.5131583
1.114988,-0.2587202,0.5627209
1.288366,-0.3718124,0.5752138
1.45962,-0.493493,0.4782739
1.494989,-0.5024806,0.3796775
1.32998,-0.4522021,0.3786712
1.07471,-0.4239225,0.3653819
0.8460515,-0.353414,0.3177628
0.778702,-0.3221217,0.3059596
0.8442904,-0.3949508,0.2665034
0.8486122,-0.452979,0.1921094
0.8837502,-0.5022031,0.16333
1.00534,-0.5236959,0.1585429
1.01704,-0.4636754,0.1465758
0.9571318,-0.4070361,0.1214804
0.9176855,-0.3426403,0.09732925
0.8396153,-0.2845598,0.09309426
0.7709955,-0.2758132,0.07674198
0.7376609,-0.2467608,0.05967315
0.6963842,-0.2102237,0.04302133
0.673531,-0.1719372,0.02058615
0.6685413,-0.1476904,0.02992462
0.6746859,-0.1756251,0.03826155
0.7140108,-0.2042858,0.03410463
0.7973329,-0.2434523,0.03826189
0.9191144,-0.2671629,0.02716065
1.003944,-0.2386775,0.01788481
1.021909,-0.2073223,0.02674043
1.033318,-0.1625721,0.04309269
1.04852,-0.1382804,0.06530448
1.086435,-0.1609291,0.07875328
1.193352,-0.1852366,0.08093194
1.329559,-0.2485514,0.07505528
1.415901,-0.3403119,0.06376382
1.451412,-0.4047034,0.0666457
1.451837,-0.4734399,0.06747807
1.383331,-0.5436863,0.04402396
1.302235,-0.5962164,0.02833138
1.26411,-0.6390717,0.037093
1.211888,-0.6315194,0.05839882
1.166944,-0.5689847,0.09078631
1.111942,-0.475444,0.1262584
0.9751328,-0.3528437,0.1553865
0.8840722,-0.2754354,0.1728146
0.8913693,-0.2758701,0.1687784
0.8652691,-0.2826673,0.1473016
0.7998377,-0.2820029,0.1315176
0.7514952,-0.2830709,0.1288647
0.7139277,-0.279284,0.1389238
0.6576967,-0.2798907,0.1536363
0.6161201,-0.272255,0.1525818
0.6179475,-0.2547748,0.172078
0.5664121,-0.2239223,0.2288108
0.5313478,-0.1938523,0.2609248
0.6083537,-0.1931815,0.260045
0.6768378,-0.1897867,0.271044
0.7614389,-0.2096327,0.295372
0.8651848,-0.2731481,0.3069423
0.9031331,-0.2990326,0.3280017
0.9279024,-0.2963105,0.3776954
0.9470415,-0.2971881,0.4348405
0.9894338,-0.2864916,0.4919954
1.059716,-0.3073214,0.5152475
1.13391,-0.3740255,0.4942201
1.257034,-0.4452394,0.4321609
1.33118,-0.4632023,0.3439119
1.305617,-0.4336989,0.3243057
1.21477,-0.4324685,0.3218965
1.002722,-0.4229512,0.2655096
0.7985874,-0.4034066,0.2520843
0.8098192,-0.4464988,0.2426768
0.8877075,-0.4810963,0.1931654
0.8842208,-0.4726408,0.1687487
0.9624761,-0.4635203,0.1351156
1.003528,-0.4532102,0.09905992
0.8887616,-0.4416912,0.09035185
0.8457764,-0.4096006,0.08240371
0.8105955,-0.3794534,0.08540886
0.7674818,-0.3542312,0.06912358
0.7938229,-0.2747294,0.03490005
0.7639125,-0.1830475,0.0325979
0.7600992,-0.1658617,0.03752102
0.7813016,-0.2215729,0.03536327
0.8049897,-0.2843996,0.02950219
0.8987371,-0.3150727,0.0137558
0.9412185,-0.3173775,-0.002536831
0.956953,-0.3087808,-0.01177348
1.00143,-0.3119413,-0.005310998
1.042594,-0.3011741,-0.002091779
1.056382,-0.2569406,-0.006426115
1.032504,-0.2147058,0.002195063
1.069417,-0.1868652,0.02093376
1.1117,-0.1620512,0.04235903
1.129252,-0.1632174,0.04403646
1.223047,-0.2066098,0.04630405
1.319174,-0.2355967,0.07084312
1.332267,-0.2490959,0.06591443
1.291741,-0.3120025,0.06563634
1.283176,-0.3791656,0.1224262
1.260771,-0.3991418,0.1756419
1.167253,-0.4739427,0.2133569
1.124671,-0.6313409,0.2533873
1.154003,-0.6660467,0.2427502
1.191071,-0.5939491,0.1919151
1.141472,-0.5696497,0.1843022
1.029715,-0.4649219,0.2043126
0.9800227,-0.3688212,0.2013243
0.9116946,-0.3797463,0.1856778
0.8466788,-0.3233966,0.1437187
0.8204202,-0.3122846,0.09347001
0.7733845,-0.3454387,0.07195587
0.7601125,-0.3085478,0.07290981
0.7460304,-0.3026102,0.09541597
0.7196376,-0.2624488,0.1232843
0.6731686,-0.1992338,0.1807758
0.6358211,-0.1827032,0.2561386
0.7031859,-0.1754856,0.2846449
0.7747453,-0.2115624,0.2993806
0.820479,-0.2427992,0.3105426
0.8312428,-0.2667324,0.3099368
0.7734196,-0.2880004,0.3202463
0.7440694,-0.2343208,0.3274858
0.7458177,-0.1756404,0.3360637
0.7959018,-0.1613726,0.3546196
0.8964299,-0.1579525,0.3834414
0.9720429,-0.1548427,0.4000206
1.022615,-0.1714663,0.4072657
1.081675,-0.2390445,0.4349651
1.222249,-0.380127,0.4493444
1.44926,-0.5576273,0.4569404
1.585843,-0.5968319,0.4421504
1.406899,-0.510022,0.3767611
1.062383,-0.4442389,0.3360076
0.8677888,-0.3574642,0.3044057
0.7717224,-0.3419244,0.2580008
0.8046768,-0.419895,0.2449425
0.9565817,-0.4585673,0.2120747
1.014772,-0.5349032,0.152417
1.01968,-0.5333022,0.1524769
0.9769862,-0.4261346,0.1727259
0.9159023,-0.3844148,0.1346536
0.868785,-0.2585103,0.100357
0.822206,-0.1945254,0.09099528
0.8505205,-0.2577172,0.04406172
0.7802426,-0.1608967,-0.003808292
0.7057211,-0.138125,-0.002199718
0.7252209,-0.1788807,0.03377905
0.6227169,-0.1007081,0.05645787
0.611506,-0.1354121,0.05395196
0.7405804,-0.1739837,0.04952222
0.8909634,-0.1839925,0.02805723
1.050473,-0.2357702,0.01963676
1.052406,-0.1613913,0.02925784
1.074835,-0.09031734,0.02842377
1.139188,-0.08445313,0.03998692
1.107353,-0.0707119,0.04370999
1.196833,-0.1156435,0.0457155
1.321906,-0.1980962,0.05529376
1.386051,-0.3203265,0.0462981
1.484037,-0.4856419,0.03063496
1.476032,-0.5904585,0.02087512
1.378611,-0.5943506,0.05309067
1.307999,-0.6598448,0.08788368
1.247423,-0.7903444,0.05041272
1.178664,-0.7429357,0.02463811
1.085484,-0.6254998,0.07436414
1.025564,-0.5190988,0.1249944
0.9555085,-0.3168765,0.1419752
0.8834098,-0.2252754,0.165323
0.9286269,-0.246468,0.1841545
0.9207997,-0.2437142,0.1671004
0.8242532,-0.2682876,0.1383438
0.7603255,-0.2590584,0.1206552
0.6865199,-0.2506784,0.1213677
0.6569021,-0.2628414,0.1383335
0.6319358,-0.2412768,0.1656789
0.5706442,-0.2358111,0.2071991
0.5443902,-0.2021048,0.2377212
0.5413344,-0.170273,0.255431
0.5926833,-0.1834928,0.2867544
0.6644488,-0.1918009,0.2993234
0.7853687,-0.239687,0.3065641
0.9596158,-0.2855209,0.3473193
0.966179,-0.25294,0.3698043
0.9066708,-0.2224998,0.4130744
0.9775797,-0.276502,0.5126993
1.037428,-0.330318,0.5555438
1.106088,-0.3442076,0.5292981
1.308584,-0.437538,0.4493179
1.46109,-0.5377077,0.3564474
1.434876,-0.5478716,0.3968335
1.35014,-0.5265257,0.4360729
1.179991,-0.3918206,0.3165299
0.9394601,-0.2227643,0.2293698
0.8824366,-0.2819819,0.2058701
0.904242,-0.4006152,0.1401526
0.8663968,-0.4143536,0.1300058
0.9855883,-0.520991,0.1589322
1.037736,-0.5655211,0.1288126
0.9266392,-0.4387278,0.1161962
0.9333697,-0.3718552,0.1206477
0.8646002,-0.2886086,0.08644065
0.7932875,-0.2374365,0.07141718
0.8335477,-0.2828801,0.04933091
0.7860909,-0.2501463,0.007852248
0.7915818,-0.2292919,0.01117078
0.7737243,-0.2021453,0.01540199
0.716277,-0.1599685,0.01257671
0.7498024,-0.2091983,0.01843975
0.7576429,-0.2360417,0.004451862
0.829404,-0.2657022,-0.005619759
0.9049782,-0.2893938,-0.009224443
0.916314,-0.2471658,-0.005150466
0.9642953,-0.2127631,0.006490826
1.000078,-0.1712662,0.01200862
1.054343,-0.1756676,0.01982974
1.107307,-0.2255118,0.01798806
1.196215,-0.2581553,0.01597921
1.354215,-0.3266527,0.01438429
1.44545,-0.4122918,0.01078229
1.459543,-0.5019104,0.02095134
1.355526,-0.5545684,0.03664969
1.195379,-0.5439867,0.07533513
1.169687,-0.6276329,0.1125421
1.241409,-0.7944391,0.1162965
1.273708,-0.8457202,0.1156558
1.17788,-0.7021455,0.122222
1.007096,-0.4501981,0.1626763
0.8963447,-0.3123146,0.2047744
0.8879349,-0.3366195,0.1860784
0.903222,-0.3478478,0.1686757
0.8706756,-0.3352648,0.1801619
0.8458786,-0.3595856,0.1724039
0.7906836,-0.3466406,0.168389
0.692622,-0.2995351,0.1824532
0.6314524,-0.2858247,0.1919361
0.5465231,-0.2519767,0.2220723
0.5152634,-0.2035411,0.2539345
0.5877759,-0.2065686,0.2492825
0.6335576,-0.2140447,0.2515843
0.6857553,-0.2184545,0.2608566
0.7375201,-0.2357684,0.2585122
0.7317431,-0.2361363,0.2717502
0.7108633,-0.2290973,0.2954263
0.7111611,-0.216131,0.3288841
0.780397,-0.2098357,0.3622066
0.9010968,-0.2422458,0.3796863
1.026949,-0.3253934,0.3953061
1.235538,-0.4993845,0.3909285
1.551995,-0.6933839,0.3706379
1.636768,-0.6744408,0.3619051
1.356431,-0.5350237,0.3459391
1.110374,-0.5246892,0.3286965
0.9756271,-0.5001153,0.327084
0.8749493,-0.4973751,0.3074631
0.7914903,-0.5968852,0.2667336
0.6718329,-0.5795341,0.2345217
0.7776335,-0.5633446,0.1748581
0.9408418,-0.5621325,0.08418014
0.974077,-0.4740401,0.03997567
1.065002,-0.4460398,0.02890518
0.9857914,-0.3917573,0.02205836
0.8919215,-0.3293918,0.03592262
0.915169,-0.3022168,0.02703798
0.8462459,-0.2182469,0.00622908
0.8816596,-0.1676613,-0.003039531
0.8749779,-0.1245723,-0.00893703
0.7957638,-0.1014991,0.01811974
0.8182892,-0.1250996,0.03270167
0.795558,-0.1313318,0.02173946
0.8266899,-0.1695094,0.02528616
0.8723098,-0.1844307,0.02250176
0.9091457,-0.1739238,0.02112496
1.003962,-0.1851695,0.02148089
1.008994,-0.1605962,0.02433349
1.024515,-0.1261369,0.03535324
1.067886,-0.1020737,0.04347329
1.091615,-0.08970295,0.0620349
1.132992,-0.09295211,0.06080908
1.133818,-0.107461,0.05198845
1.162621,-0.1529765,0.0642675
1.198933,-0.2168404,0.06375777
1.22802,-0.2890631,0.08653464
1.290923,-0.3242861,0.1487461
1.315682,-0.3220798,0.1961735
1.375041,-0.4007183,0.1928388
1.448679,-0.5374441,0.156726
1.359168,-0.6166688,0.1506375
1.157837,-0.6866607,0.1563595
1.022327,-0.7348253,0.1480507
0.9590735,-0.6598296,0.1381494
0.8932213,-0.5832297,0.1129845
0.862694,-0.5363406,0.1054461
0.8650586,-0.4085025,0.1084304
0.8571503,-0.3169134,0.1041719
0.8610506,-0.3099807,0.1200496
0.8554721,-0.3312817,0.1307962
0.812347,-0.3769021,0.1534716
0.7518624,-0.3833561,0.1858985
0.7072125,-0.3580302,0.192713
0.6908147,-0.3080245,0.2178735
0.6758936,-0.2375456,0.2417043
0.6451654,-0.184494,0.2384685
0.6199655,-0.1224571,0.2471436
0.6358698,-0.1113781,0.2637728
0.6850894,-0.1540048,0.2863284
0.725809,-0.1715149,0.3075917
0.7570739,-0.2104745,0.32351
0.7856862,-0.2617716,0.3543455
0.8012306,-0.2693428,0.3844808
0.8311713,-0.2654923,0.4295451
0.8979884,-0.27375,0.4944835
1.018797,-0.2740816,0.5154623
1.225339,-0.2742382,0.5172615
1.416074,-0.3278727,0.5284799
1.477178,-0.4466149,0.4964522
1.492123,-0.5443094,0.4648622
1.43222,-0.5247535,0.462399
1.208285,-0.4337859,0.4320635
0.991994,-0.3475101,0.3798632
0.8366456,-0.2857754,0.303528
0.741152,-0.3381245,0.2041097
0.7872374,-0.4333819,0.1405082
0.803321,-0.4379047,0.129816
0.812586,-0.4501098,0.1359552
0.9229653,-0.4595227,0.1197618
0.9385568,-0.399749,0.0828153
0.8769033,-0.331497,0.05937327
0.8184828,-0.2902313,0.05733054
0.7520542,-0.3023728,0.04707744
0.7254282,-0.3146034,0.03179455
0.697507,-0.310576,0.03466966
0.6919676,-0.2951863,0.02952164
0.7123441,-0.2199499,0.02240549
0.7207984,-0.1755721,0.02166661
0.7690968,-0.1765779,0.005849479
0.8403909,-0.1742382,0.006573722
0.9390296,-0.1854682,0.01030106
1.055006,-0.1721094,-0.009884746
1.105074,-0.1298157,-0.0129821
1.126713,-0.06063343,0.008716207
1.176317,-0.03589654,0.03288623
1.224778,-0.1050835,0.03471549
1.26786,-0.1866254,0.02898564
1.328498,-0.3043234,0.05073652
1.399858,-0.4430566,0.06186488
1.430931,-0.5279667,0.05489109
1.367667,-0.5649536,0.06084091
1.269459,-0.5739977,0.06212716
1.225955,-0.6246641,0.05190558
1.204591,-0.6832451,0.03988469
1.195939,-0.6728102,0.03748505
1.18798,-0.6299592,0.05314181
1.076742,-0.5060696,0.1040211
0.9184427,-0.3161893,0.1814848
0.8731636,-0.2653385,0.1954494
0.8970998,-0.3215016,0.1560949
0.8598603,-0.294916,0.1421436
0.7781405,-0.2823304,0.1208339
0.7031327,-0.3132053,0.1133939
0.6443145,-0.2846693,0.1441523
0.6314525,-0.2899834,0.1638112
0.6121814,-0.2929557,0.1995756
0.5587109,-0.2492946,0.2339394
0.5463169,-0.2334081,0.2447965
0.5881979,-0.210915,0.2655018
0.6778012,-0.2206707,0.264526
0.7570064,-0.235304,0.2764582
0.7911091,-0.2172577,0.3184079
0.8535677,-0.2200203,0.3500727
0.9018183,-0.203829,0.4030566
0.9116663,-0.2358205,0.4697191
0.9815781,-0.3111399,0.5522238
1.108804,-0.35617,0.5758511
1.229315,-0.4753924,0.4336284
1.33929,-0.6130833,0.3061194
1.387381,-0.6108434,0.3213823
1.230245,-0.5102316,0.3186985
0.9524401,-0.4003594,0.2640434
0.8521635,-0.3084063,0.2636458
0.9135738,-0.333306,0.2342619
0.9108668,-0.4347252,0.147867
0.8915151,-0.4425628,0.1459694
0.9661224,-0.4728177,0.1583905
1.017417,-0.523329,0.1226604
0.986315,-0.4641281,0.1055706
0.9456678,-0.3930404,0.08091072
0.8823637,-0.2996982,0.0662218
0.8093267,-0.2347458,0.0594661
0.7966776,-0.2422329,0.04317743
0.8101664,-0.2120201,0.03560156
0.8026055,-0.1916691,0.01544463
0.7986171,-0.1856048,0.01327972
0.7945157,-0.1814491,0.01802486
0.7781084,-0.1991931,0.01509479
0.7789265,-0.2102965,0.02889066
0.7935645,-0.2257916,0.01723319
0.8086361,-0.2071566,0.002990602
0.8338012,-0.1743178,0.008630978
0.8672894,-0.1479851,-0.002341465
0.9180642,-0.1216956,-0.006568318
0.9989831,-0.1502597,0.003858473
1.118697,-0.1899002,0.007442815
1.252112,-0.2202269,0.005675038
1.38691,-0.2532194,0.005266881
1.547204,-0.2785054,0.0103624
1.609674,-0.3396224,0.02096293
1.531106,-0.4078228,0.04637638
1.495891,-0.4767074,0.07008052
1.453976,-0.6150531,0.05663504
1.297516,-0.7720006,0.04212548
1.159967,-0.7982176,0.0700755
1.083125,-0.695026,0.1092804
1.035518,-0.5810965,0.1514508
0.9679214,-0.4149348,0.197702
0.8728427,-0.2569188,0.2080588
0.8800337,-0.2681024,0.1954041
0.9039226,-0.3189015,0.1765908
0.8506441,-0.3348724,0.1409572
0.8250287,-0.3521452,0.1285246
0.7668308,-0.3200349,0.1415916
0.6545482,-0.2899147,0.1404061
0.6089433,-0.2767428,0.140778
0.6043969,-0.2679232,0.1666228
0.5435521,-0.2600056,0.2190968
0.4858028,-0.2212648,0.2632636
0.5375823,-0.2283204,0.25185
0.6171135,-0.24583,0.2399018
0.6738031,-0.2168992,0.2690109
0.7157809,-0.1920135,0.2821083
0.7347861,-0.124786,0.309499
0.8095307,-0.0889992,0.3830191
0.8986323,-0.1752085,0.4741518
1.040417,-0.2885027,0.57645
1.288732,-0.4140073,0.5960636
1.454857,-0.5362483,0.5259522
1.508685,-0.5651793,0.4559041
1.424294,-0.524398,0.3837839
1.185084,-0.46515,0.3444795
0.9546656,-0.3714137,0.2841662
0.7948537,-0.3132662,0.1737601
0.778722,-0.3691495,0.1596761
0.7972489,-0.2601809,0.3260798
0.7966704,-0.2524368,0.3576612
0.8494245,-0.2531584,0.3985181
0.9004855,-0.2598898,0.422931
1.03387,-0.3203644,0.4482874
1.406625,-0.4765124,0.5338071
1.618841,-0.5960251,0.5502435
1.402159,-0.5462349,0.4246696
1.225595,-0.4820259,0.3411999
1.178962,-0.4767309,0.3652648
0.9297633,-0.3822242,0.3492936
0.7401615,-0.3394289,0.2376986
0.8100104,-0.4187963,0.1753527
0.8224591,-0.4271855,0.187012
0.8539102,-0.442603,0.1495769
0.9485204,-0.4523753,0.1058035
0.9001841,-0.3791858,0.08841246
0.8744255,-0.3462618,0.07038759
0.8413381,-0.3025632,0.07624162
0.744829,-0.2668699,0.07261173
0.7164289,-0.2581415,0.06715047
0.6862963,-0.1903234,0.06830868
0.7126432,-0.149101,0.05066393
0.7561543,-0.1246548,0.03592885
0.77019,-0.1282801,0.01904376
0.8530283,-0.1920244,0.009627691
0.9082187,-0.2344085,0.009207751
0.9760707,-0.2698207,0.003804107
1.061153,-0.2583715,0.01464814
1.064579,-0.2084776,0.03584163
1.063138,-0.1634023,0.05372877
1.082912,-0.1115279,0.04836446
1.157348,-0.1322432,0.01839212
1.284195,-0.207091,-0.001351858
1.393766,-0.3246039,-0.001247846
1.442819,-0.4257048,0.01810907
1.420084,-0.4104969,0.04733638
1.450813,-0.465175,0.07001039
1.491232,-0.6224061,0.06683061
1.373904,-0.7017128,0.05445343
1.208832,-0.6870656,0.07655676
1.113447,-0.6209037,0.1027204
1.038611,-0.5529376,0.1219597
0.9871938,-0.4819643,0.1451805
0.9434357,-0.3872353,0.1519368
0.8431801,-0.297172,0.1662132
0.7818847,-0.2599866,0.1643715
0.7740816,-0.2758168,0.1439343
0.7117865,-0.2621734,0.1495242
0.6791419,-0.2581425,0.1507276
0.6713663,-0.2720879,0.1673057
0.6455101,-0.2423216,0.2038222
0.6523159,-0.2367016,0.2336057
0.6167986,-0.2314282,0.2838207
0.6031239,-0.2242126,0.3096272
0.6578178,-0.2461779,0.3094455
0.7045724,-0.2376892,0.3212985
0.7875833,-0.2431753,0.3164678
0.8385002,-0.2461963,0.3250882
0.8425536,-0.2174065,0.3560834
0.8715978,-0.2009433,0.3889392
0.895541,-0.1827481,0.4389845
0.964974,-0.1918372,0.4730852
1.084751,-0.2095727,0.5027777
1.222796,-0.2411912,0.5480149
1.371694,-0.367093,0.5305789
1.48611,-0.5024785,0.4476815
1.489864,-0.5133848,0.3790681
1.290315,-0.460893,0.3564892
1.02737,-0.4527452,0.360419
0.8342849,-0.4083026,0.3253102
0.7545969,-0.3712274,0.2494107
0.8312035,-0.4378762,0.1872686
0.8619854,-0.4575043,0.1421683
0.8915049,-0.4645812,0.1385039
0.9611843,-0.4888639,0.1434483
0.8954579,-0.4458929,0.1180155
0.8758798,-0.4331779,0.1212216
0.8583189,-0.392636,0.1088873
0.7628081,-0.3109611,0.07542285
0.7409354,-0.2713603,0.06796126
0.6915334,-0.1945695,0.03251458
0.6743358,-0.1047005,0.01595846
0.7091806,-0.06835199,0.03198388
0.721283,-0.1033375,0.02829261
0.7965533,-0.1662092,0.02953753
0.8724106,-0.2141056,0.02266686
0.9584582,-0.2543421,0.01762263
1.048869,-0.2347787,0.01722379
1.06153,-0.2100028,0.01737307
1.057881,-0.1762274,0.05791856
1.061422,-0.1084104,0.09761415
1.097725,-0.1299296,0.09389626
1.194207,-0.1933026,0.07986228
1.34511,-0.2857695,0.07472804
1.479899,-0.4197386,0.03711345
1.488017,-0.4756529,-0.002103723
1.433377,-0.5104862,0.02135137
1.381304,-0.5654832,0.02709725
1.303536,-0.6007198,0.01325639
1.208623,-0.6252847,0.03728589
1.142796,-0.5998465,0.05780018
1.1302,-0.5382528,0.09637879
1.080478,-0.442798,0.1561044
0.9696841,-0.3102114,0.1942292
0.9047718,-0.2501402,0.2021462
0.8798157,-0.2557032,0.1711949
0.8162102,-0.2287606,0.1396996
0.7640309,-0.2188717,0.1360176
0.7451904,-0.2548358,0.143328
0.6481911,-0.2687581,0.1497282
0.5807394,-0.2817319,0.1557183
0.6331823,-0.3006585,0.1748433
0.6137331,-0.3091089,0.2122865
0.5719036,-0.3396351,0.2573546
0.5995778,-0.3332439,0.2773651
0.6175411,-0.3002997,0.2818055
0.6877388,-0.2981023,0.3021944
0.77501,-0.2766992,0.3137783
0.8197754,-0.2632174,0.3316865
0.8762646,-0.2571159,0.3696527
0.9386437,-0.2452894,0.3973313
1.023861,-0.2712753,0.4305943
1.089602,-0.2901377,0.4685053
1.128282,-0.3263583,0.4846524
1.237106,-0.4114278,0.4621384
1.360861,-0.4790857,0.4017076
1.37467,-0.4780068,0.3472049
1.208604,-0.4291227,0.3225996
0.9352049,-0.4044838,0.3179295
0.7653414,-0.3686072,0.3029916
0.7667428,-0.3777218,0.2612568
0.8578936,-0.4627664,0.2072033
0.9528654,-0.4702424,0.1453576
0.988247,-0.4841691,0.1113911
0.951233,-0.4970396,0.1060764
0.8777139,-0.421152,0.08980693
0.8131496,-0.3939608,0.08274435
0.7656818,-0.3584605,0.08416878
0.7278585,-0.3087269,0.08163415
0.7006492,-0.2926659,0.07832108
0.7028009,-0.2201094,0.05992665
0.7174441,-0.1519642,0.02393658
0.7347869,-0.124725,-0.0101224
0.8349383,-0.164623,0.0002550463
0.9559582,-0.2360858,0.01660682
1.006606,-0.2517968,-0.0009759051
1.055915,-0.2817993,0.006291214
1.070411,-0.2761121,0.01684732
1.033385,-0.233627,0.01158678
1.03291,-0.2277232,0.02052605
1.060457,-0.1987079,0.02026715
1.076479,-0.1856556,0.02729387
1.066062,-0.2089181,0.03973732
1.04704,-0.2475304,0.05082579
1.05704,-0.2844227,0.087795
1.109679,-0.2845069,0.1090959
1.201406,-0.3135646,0.1154723
1.272527,-0.3574452,0.133701
1.300097,-0.3994167,0.1242829
1.328942,-0.4894036,0.08326648
1.29859,-0.5678192,0.05992577
1.214123,-0.6295434,0.09237671
1.198824,-0.6857661,0.1348089
1.179777,-0.6770392,0.1481487
1.104545,-0.6345698,0.1710606
1.027141,-0.5487768,0.1695582
0.9290161,-0.4120534,0.1258776
0.9164805,-0.3976248,0.1085517
0.9389012,-0.4490302,0.1058861
0.8511811,-0.3975028,0.09569392
0.8282101,-0.3995768,0.1001177
0.8123854,-0.4331861,0.1102375
0.6957929,-0.3969979,0.1184017
0.7028448,-0.4033601,0.1218616
0.7363075,-0.3495038,0.1416592
0.6860323,-0.2422859,0.1803366
0.6994641,-0.2074294,0.1911565
0.7041862,-0.1586552,0.2088688
0.6913967,-0.1384358,0.261869
0.7115593,-0.1671902,0.285458
0.7014058,-0.1770838,0.2977672
0.7073988,-0.2106095,0.3475175
0.7349458,-0.2429868,0.3798433
0.7736471,-0.2473837,0.3915717
0.8491751,-0.2516907,0.4347682
0.911555,-0.2410268,0.4644657
0.9603278,-0.2292463,0.471503
1.028968,-0.2757588,0.4934974
1.162954,-0.3830135,0.4879988
1.360381,-0.4863688,0.4533306
1.454136,-0.5212859,0.4147165
1.349275,-0.481239,0.3730537
1.138655,-0.430833,0.3503682
0.9080454,-0.4012731,0.313649
0.779822,-0.4282044,0.2602886
0.8335441,-0.5177668,0.2280349
0.8999395,-0.5548392,0.1747378
0.9417639,-0.5396176,0.1213537
1.001563,-0.5062759,0.1043978
0.9330504,-0.4320362,0.08321828
0.8612419,-0.4007843,0.08516071
0.8659934,-0.4001265,0.09950855
0.8018378,-0.3616026,0.09054453
0.7757603,-0.3191894,0.08731089
0.7731058,-0.2744668,0.05586416
0.7238664,-0.2127194,0.01553766
0.7245473,-0.1474982,0.01447417
0.7465585,-0.09963305,0.02005431
0.7806826,-0.07389527,0.02679158
0.8481679,-0.1172924,0.02355207
0.9531622,-0.2266101,0.01932265
1.052078,-0.2631429,0.02566847
1.057744,-0.2411678,0.02307453
1.035576,-0.2142464,0.02916217
1.023405,-0.1481063,0.03419455
1.006808,-0.1241227,0.04130992
1.036629,-0.1456358,0.05589563
1.102943,-0.155496,0.04830412
1.171837,-0.1899166,0.03414691
1.252462,-0.2610773,0.01010432
1.346621,-0.3584433,-0.01252801
1.408046,-0.4374724,0.01780992
1.441078,-0.4750161,0.0785512
1.467765,-0.5056407,0.1158844
1.438002,-0.5701848,0.112262
1.350332,-0.6589481,0.08522743
1.198761,-0.6495291,0.08055229
1.052662,-0.575314,0.1273825
1.016241,-0.5531359,0.1854933
0.9638598,-0.483341,0.189677
0.8876882,-0.3799412,0.1646311
0.8816779,-0.3322844,0.1592943
0.8585128,-0.3002403,0.1480735
0.822354,-0.3037888,0.1383906
0.7841852,-0.3049361,0.1492199
0.7155269,-0.2908182,0.1478136
0.6632611,-0.3080487,0.1506834
0.6436558,-0.2985604,0.1668696
0.6599088,-0.2891343,0.1889599
0.6480428,-0.2889731,0.2335916
0.6253171,-0.271147,0.2612454
0.6475387,-0.26881,0.2761793
0.6528833,-0.2430363,0.3023557
0.6954457,-0.2167814,0.3087767
0.7628569,-0.2113479,0.3274293
0.7939197,-0.197208,0.3650051
0.8350065,-0.1991027,0.3809821
0.8533627,-0.1925318,0.394017
0.8887788,-0.1788893,0.4198589
0.9580114,-0.181917,0.4633246
1.009031,-0.2144291,0.5198189
1.093057,-0.3188414,0.5474846
1.237706,-0.4589614,0.5266916
1.415704,-0.5452744,0.4710707
1.4505,-0.5211627,0.4004263
1.262199,-0.4510178,0.3628936
1.049285,-0.4009114,0.3612224
0.8682876,-0.3317667,0.3057895
0.758242,-0.3215398,0.20963
0.8511181,-0.4053268,0.1613268
1.000585,-0.4813821,0.1382823
1.008904,-0.5170852,0.1300841
0.9794804,-0.4953946,0.1339809
0.9763184,-0.4673754,0.1181128
0.8979569,-0.4236209,0.1117656
0.813371,-0.3269133,0.09789864
0.7901199,-0.3118783,0.064927
0.7519491,-0.312725,0.04616082
0.7239584,-0.2590524,0.03480162
0.7467746,-0.2413882,0.03166998
0.7551134,-0.178415,0.0154441
0.7467474,-0.1535127,0.008804423
0.796656,-0.2114035,0.02360037
0.8761443,-0.2022749,0.004964084
0.9338878,-0.2287597,0.003942501
0.9645401,-0.2568466,0.01629984
0.9888571,-0.2246255,0.00476597
1.025439,-0.2451158,0.01623954
1.003487,-0.2206129,0.01641386
0.9976343,-0.190413,0.01327303
1.057209,-0.2170544,0.02544655
1.09329,-0.2163798,0.01997482
1.172533,-0.2569791,0.02817657
1.255645,-0.3053284,0.02932989
1.33358,-0.3611674,0.01466248
1.41784,-0.4376694,0.02142707
1.369627,-0.4168432,0.03489701
1.321023,-0.4363168,0.05170528
1.300012,-0.563663,0.07165594
1.197508,-0.6408537,0.09735763
1.127147,-0.653638,0.1242943
1.060586,-0.626044,0.1340011
0.9524447,-0.5587694,0.140951
0.8630112,-0.4787915,0.1593707
0.8427061,-0.4376399,0.1925066
0.8987345,-0.4402272,0.221585
0.914901,-0.4033692,0.2181701
0.9081428,-0.347714,0.1966211
0.9019634,-0.3228224,0.1860588
0.8450161,-0.2920394,0.1878611
0.8237845,-0.2438388,0.1896258
0.7959238,-0.1765489,0.1948661
0.7165239,-0.1443148,0.2114994
0.6473883,-0.16308,0.2440469
0.5713998,-0.15992,0.2721071
0.5713337,-0.1841418,0.2648137
0.6290931,-0.2267468,0.2608363
0.6391439,-0.2041337,0.2925009
0.6715893,-0.1765228,0.336867
0.7149224,-0.1662098,0.3813666
0.7623051,-0.1646789,0.3816467
0.8740361,-0.188555,0.3393775
0.9786808,-0.2143156,0.3240306
1.039303,-0.282173,0.3127853
1.131548,-0.4076871,0.2978156
1.294918,-0.5202393,0.3126392
1.446766,-0.5861356,0.3200482
1.49541,-0.6054054,0.3251865
1.40954,-0.5842008,0.3333426
1.180376,-0.5387311,0.3218688
0.8881024,-0.5032832,0.317157
0.6874331,-0.5115761,0.2941426
0.6904851,-0.5284954,0.2225794
0.8132286,-0.5150784,0.148513
0.9285365,-0.5057866,0.1024007
0.9856248,-0.4880648,0.07436574
0.9175094,-0.437494,0.07053727
0.8579754,-0.4096662,0.08293749
0.865436,-0.3805778,0.07557026
0.8218095,-0.3241737,0.07076269
0.8119355,-0.3094492,0.06549643
0.8226535,-0.3064842,0.02212973
0.8024695,-0.2604106,-0.00728858
0.7980668,-0.1967102,-0.003286308
0.7761563,-0.1405284,-0.005827741
0.7816345,-0.1277719,-0.01243914
0.8099069,-0.1569168,-0.01303785
0.8647413,-0.2035475,-0.01976808
0.9762791,-0.2680916,-0.03466525
1.004465,-0.2780369,-0.03002012
0.9800737,-0.2212596,-0.01781752
1.012346,-0.190878,-0.01379192
1.015808,-0.1689062,0.000169359
1.004331,-0.1611004,0.001995733
1.038319,-0.1812445,0.001579115
1.045279,-0.1637267,0.01310983
1.025325,-0.1602134,0.02377856
1.01747,-0.1490067,0.06428062
1.006228,-0.1075864,0.09522426
1.044871,-0.1379493,0.07710142
1.154963,-0.1756893,0.07225154
1.281516,-0.2026644,0.08325675
1.359584,-0.2433858,0.08891298
1.36134,-0.2429642,0.130457
1.377668,-0.3346553,0.1730238
1.404079,-0.5742625,0.1359752
1.362293,-0.7411807,0.09309498
1.272627,-0.7141511,0.1217294
1.126156,-0.6539163,0.1297344
1.015467,-0.6474573,0.1057407
0.9880911,-0.5765592,0.1045872
0.9054465,-0.4863171,0.07756379
0.8292496,-0.4323473,0.04698712
0.8027859,-0.3586995,0.0526513
0.7418586,-0.3156669,0.05749057
0.7128756,-0.2976678,0.07395231
0.7041671,-0.3114197,0.1034271
0.6799437,-0.3822028,0.1242847
0.6789109,-0.4126192,0.148957
0.7027547,-0.3953187,0.1834121
0.7613906,-0.3504197,0.2225068
0.7803243,-0.2913918,0.2480633
0.7619906,-0.2635158,0.2592247
0.7786123,-0.2285177,0.2761691
0.7869919,-0.2027525,0.294927
0.8085208,-0.2158473,0.3111271
0.8372503,-0.2368421,0.3321277
0.8295773,-0.2605448,0.3435604
0.8174545,-0.2596,0.352107
0.8004694,-0.2390544,0.3880002
0.8088182,-0.2306056,0.4226035
0.8861474,-0.2340889,0.4572787
1.036923,-0.2783305,0.5146652
1.232421,-0.3839664,0.5250038
1.409305,-0.4920229,0.4739201
1.488408,-0.5205188,0.4126265
1.378999,-0.4755107,0.3640343
1.154556,-0.4002723,0.3393116
0.9374768,-0.3251493,0.2926159
0.781739,-0.3363229,0.2157252
0.7997192,-0.4333076,0.1705203
0.8944722,-0.5122791,0.1553666
0.9236728,-0.5512821,0.1372153
0.9301824,-0.5158144,0.1182699
0.8640448,-0.4308426,0.1140823
0.7801796,-0.3919669,0.1186867
0.7631247,-0.3503258,0.1127713
0.7339065,-0.3115575,0.08617905
0.7044164,-0.2955211,0.03950071
0.6932733,-0.2603713,0.01009081
0.7029055,-0.2321609,0.01583886
0.7201978,-0.1778773,0.01660765
0.7462529,-0.1642657,0.01426207
0.837893,-0.2175602,0.02464672
0.9125799,-0.237571,0.01412147
0.9697546,-0.2908428,-0.00570442
1.045689,-0.3245403,-0.002555567
1.056261,-0.2736063,0.009008701
1.060911,-0.2150246,0.02342637
1.08537,-0.1521992,0.03143999
1.078837,-0.1441043,0.03555144
1.100589,-0.1719209,0.05013612
1.18001,-0.2026623,0.04582924
1.285523,-0.2986221,0.03566094
1.392253,-0.398186,0.04222195
1.442668,-0.4579081,0.03332565
1.394502,-0.4677301,0.02655547
1.330436,-0.4640549,0.04069177
1.297817,-0.5839827,0.04325072
1.259851,-0.7500116,0.022414
1.224837,-0.7655749,0.009721755
1.147122,-0.6549637,0.06101146
1.034417,-0.5495015,0.1499084
0.9881224,-0.4818815,0.1806513
0.9445558,-0.3772303,0.1561452
0.8535171,-0.249441,0.1426094
0.8560626,-0.2563082,0.1406082
0.8796534,-0.3153937,0.1216265
0.7446398,-0.2627777,0.092809
0.6468784,-0.2627391,0.08107111
0.6698732,-0.3048383,0.1203313
0.6336341,-0.2741468,0.1896004
0.6054572,-0.3018544,0.2158866
0.6145879,-0.2994971,0.229518
0.5846754,-0.2436696,0.2745175
0.5904561,-0.2457624,0.2879073
0.6539987,-0.2171506,0.2771886
0.7222765,-0.218841,0.2972421
0.7784051,-0.2439065,0.3163554
0.8437313,-0.2276611,0.3225736
0.8981111,-0.2300242,0.3480908
0.9020834,-0.2145206,0.4122899
0.9216158,-0.2596288,0.5198557
1.007918,-0.3386557,0.5911952
1.155789,-0.3659294,0.5501753
1.335405,-0.4694673,0.4268757
1.409055,-0.5671949,0.2971685
1.323635,-0.5384313,0.2861739
1.161607,-0.4567879,0.3283051
0.9374728,-0.3671573,0.2598217
0.8084122,-0.3363224,0.2022988
0.8904586,-0.4255625,0.17492
0.9547383,-0.5408289,0.1242384
0.9759613,-0.5663301,0.1431779
1.004887,-0.5351808,0.1343482
0.920789,-0.4718668,0.1003848
0.8579949,-0.3722617,0.1002168
0.8505026,-0.3055669,0.05666653
0.8077801,-0.2893836,0.04269157
0.8023238,-0.2810248,0.03828885
0.7914215,-0.2675994,0.01804731
0.7757554,-0.252375,0.02165223
0.7596726,-0.2055111,-0.003296955
0.7177023,-0.1551443,0.008681445
0.7328003,-0.1604119,0.02851329
0.7628975,-0.1890046,0.007860103
0.8239184,-0.2390951,0.01641463
0.9166931,-0.278118,0.01017521
0.9247619,-0.2454705,0.0005160068
0.9310457,-0.1957962,0.008858265
0.9728922,-0.1586093,0.006768976
1.000952,-0.1381718,0.01757954
1.066249,-0.1428729,0.03169049
1.148072,-0.1551747,0.04947371
1.207752,-0.1906761,0.06411645
1.302703,-0.2494991,0.06951155
1.42996,-0.3549429,0.07740063
1.467846,-0.5022403,0.07273298
1.38599,-0.5595986,0.06829975
1.296639,-0.5613961,0.05654971
1.276483,-0.6676171,0.03167734
1.27981,-0.7474133,0.02772152
1.255659,-0.671619,0.03666298
1.199768,-0.5678261,0.05195532
1.051237,-0.4600753,0.09533519
0.8778074,-0.3547117,0.1450249
0.8322015,-0.3311525,0.1514632
0.8458805,-0.3227642,0.1283508
0.8298314,-0.3140682,0.1144936
0.7849872,-0.3341506,0.1065961
0.7049131,-0.3290833,0.1181977
0.6298786,-0.3308546,0.1519314
0.6014722,-0.3351543,0.1834935
0.603085,-0.3154384,0.2160044
0.6051892,-0.3143837,0.2411016
0.6304201,-0.2883698,0.255774
0.6827588,-0.242988,0.2722694
0.7259775,-0.2363833,0.2843064
0.7654737,-0.2506263,0.3017352
0.8043924,-0.2632017,0.3218684
0.8384027,-0.2462597,0.3304405
0.8633701,-0.2127105,0.3543876
0.8762546,-0.1928411,0.4111226
0.8858795,-0.2021781,0.4694125
0.9166124,-0.2532066,0.4828891
1.066734,-0.3614561,0.4467771
1.309457,-0.5388825,0.3771452
1.397843,-0.6064653,0.304436
1.294506,-0.5152072,0.3113379
1.188562,-0.4691297,0.342258
1.089313,-0.4162341,0.2945611
0.9814932,-0.3540274,0.2514641
0.8967981,-0.3649776,0.1938517
0.8329415,-0.356432,0.1287519
0.8992172,-0.423838,0.1704287
0.9730737,-0.5148617,0.1738286
0.9275577,-0.4840821,0.1261636
0.9195054,-0.4637534,0.1326055
0.8702585,-0.4293125,0.1059896
0.8138971,-0.3689302,0.08870961
0.8289142,-0.3417049,0.06987384
0.7785333,-0.2986545,0.01587703
0.778481,-0.2829328,0.0140652
0.7868594,-0.2673882,0.006601929
0.7452041,-0.2435501,-0.0003333988
0.7671352,-0.2548399,0.0165147
0.7562368,-0.2566416,0.007261704
0.781019,-0.2685012,0.01062689
0.8594111,-0.2781116,0.008780534
0.8814947,-0.2686397,-0.001473915
0.9102743,-0.2667254,0.004906791
0.9342663,-0.2356321,0.001397044
0.9688759,-0.1763507,-0.001018964
1.027167,-0.1362202,-0.0007777566
1.078034,-0.138902,0.009123264
1.130223,-0.1619012,0.03004293
1.153687,-0.1823148,0.03381638
1.22013,-0.2169316,0.03089113
1.357932,-0.2866115,0.03112584
1.472636,-0.3984788,0.03081704
1.493753,-0.4682407,0.03435836
1.387118,-0.4546657,0.0445539
1.293923,-0.5038268,0.04860602
1.312512,-0.6355879,0.0245976
1.279922,-0.6828931,0.004894237
1.165671,-0.6278155,0.04265975
1.109024,-0.5638934,0.1128432
1.035619,-0.4894055,0.1570163
0.8929256,-0.3843562,0.1668869
0.8486851,-0.3213865,0.1587388
0.8820163,-0.3316434,0.1474756
0.8681239,-0.33182,0.137196
0.824697,-0.3230968,0.1262213
0.7628049,-0.3446214,0.129958
0.7105467,-0.3504776,0.1365153
0.6764268,-0.3490489,0.1433718
0.6383999,-0.3564115,0.1754196
0.6254866,-0.3529506,0.2148183
0.6089347,-0.3327772,0.2574611
0.5799393,-0.2861029,0.2840561
0.6009653,-0.2432248,0.2686844
0.6498467,-0.2070515,0.268168
0.7047449,-0.1894768,0.2844153
0.7742708,-0.2204656,0.2897643
0.792447,-0.2383029,0.3111859
0.7841351,-0.2544619,0.3349956
0.8109788,-0.2937395,0.3674981
0.8212026,-0.277848,0.3990548
0.848236,-0.2099328,0.3897217
0.9165369,-0.1318821,0.3935591
0.9352613,-0.08944117,0.4061222
0.9304145,-0.1419864,0.3961428
0.9943312,-0.2573915,0.4235366
1.089921,-0.3763728,0.4495466
1.180619,-0.4876074,0.4213251
0.5225922,-0.2033002,0.2905447
0.608138,-0.1576215,0.3108528
0.7702494,-0.1900413,0.3276523
0.887285,-0.2199623,0.3795565
0.8971864,-0.207845,0.444214
0.9120995,-0.2628992,0.5226375
0.9475929,-0.2974249,0.579697
1.094143,-0.3904222,0.5343039
1.337888,-0.5370532,0.4291068
1.440771,-0.5543394,0.3088971
1.257565,-0.5064086,0.2400588
1.005277,-0.46341,0.2669899
0.9494084,-0.4055432,0.2494354
0.9851607,-0.4216546,0.1927892
0.9963852,-0.5056289,0.1637523
0.9850039,-0.5203996,0.1234027
0.977285,-0.532067,0.1331839
0.9909971,-0.5672875,0.1353649
0.9637105,-0.5115773,0.1065591
0.9445638,-0.4325847,0.1158417
0.9131822,-0.3610484,0.07118965
0.8240889,-0.2843887,0.03649517
0.7636609,-0.227624,0.05121091
0.7336299,-0.1808679,0.03327395
0.7385043,-0.1859443,0.03661262
0.7260246,-0.2012823,0.03353988
0.698225,-0.2032138,0.02827938
0.7309238,-0.2175083,0.04217457
0.7532526,-0.2186924,0.02046953
0.8056379,-0.2353034,0.01317417
0.8826001,-0.2425921,0.01569787
0.9137018,-0.2166731,0.01454213
0.9873284,-0.1701318,0.03976985
1.073654,-0.1048831,0.07330365
1.117446,-0.09590035,0.1052397
1.171101,-0.1449828,0.1019586
1.267053,-0.2006503,0.0917245
1.39103,-0.2847751,0.08714797
1.517586,-0.3963998,0.02670981
1.570325,-0.4536232,-0.01496885
1.432915,-0.4319426,0.04670655
1.278469,-0.4807918,0.1125076
1.261714,-0.6217124,0.08549658
1.228762,-0.6739402,0.0670662
1.201069,-0.6243918,0.09823077
1.177919,-0.5274648,0.1002303
1.016608,-0.3501352,0.1511752
0.8431496,-0.2326003,0.215356
0.8274844,-0.3129559,0.1752838
0.8623594,-0.3923421,0.1342554
0.8000311,-0.3722088,0.1241907
0.7276155,-0.4005676,0.1232268
0.6744997,-0.4174173,0.1554379
0.6008631,-0.3949983,0.1812411
0.6074826,-0.4040836,0.2103605
0.6127754,-0.3488898,0.2348876
0.5736404,-0.286614,0.2431262
0.6039988,-0.2872923,0.2566585
0.6529036,-0.2431523,0.2406706
0.7126889,-0.1782825,0.2326869
0.7532582,-0.1773077,0.2475517
0.7529917,-0.2047715,0.2481905
0.8093994,-0.190108,0.2788599
0.8332576,-0.1888343,0.3064897
0.8183352,-0.2121785,0.3207202
0.8952633,-0.1998566,0.3794748
0.9958361,-0.2155799,0.4340522
1.062602,-0.2267669,0.4700965
1.123791,-0.2401903,0.4937019
1.246579,-0.3689539,0.4749745
1.443485,-0.5101189,0.4366911
1.482236,-0.5291869,0.3780691
1.295743,-0.4772382,0.315029
1.058692,-0.4370625,0.2965354
0.8170504,-0.37768,0.2838906
0.7361829,-0.3895537,0.2451696
0.8407622,-0.5009818,0.2160487
0.8791163,-0.5182821,0.1929509
0.9535459,-0.5378978,0.1656202
1.047823,-0.5619765,0.1434724
0.9907224,-0.4761418,0.1163426
0.9703984,-0.4134546,0.08915388
0.9387267,-0.3234902,0.06724793
0.8461544,-0.2575129,0.05030028
0.8281213,-0.2538907,0.03591274
0.7723338,-0.1932568,0.02127439
0.7086705,-0.1927377,0.02115557
0.6729163,-0.1958456,0.03295184
0.6298912,-0.170374,0.0515352
0.6604288,-0.1976744,0.05617822
0.7017307,-0.1919014,0.03445031
0.7585929,-0.1984064,0.02123537
0.8221513,-0.1976254,0.01802522
0.8484429,-0.1625875,0.02519784
0.9610649,-0.153068,0.04613009
1.101616,-0.1240057,0.069304
1.194191,-0.1230358,0.1042134
1.29047,-0.1653403,0.1207297
1.391971,-0.2497081,0.1058128
1.504671,-0.4195273,0.07996988
1.515988,-0.5513682,0.05570976
1.417421,-0.5878292,0.07094392
1.35048,-0.6380655,0.09150801
1.278691,-0.7271659,0.07061547
1.219613,-0.7545066,0.0619679
1.206801,-0.695592,0.08141505
1.124664,-0.6004419,0.1134197
0.990658,-0.4486668,0.169914
0.9160125,-0.3283381,0.1996839
0.91777,-0.3318459,0.1810718
0.90137,-0.3389444,0.1732322
0.806332,-0.3050809,0.1668055
0.7072647,-0.280096,0.1503747
0.6393822,-0.2490418,0.1597995
0.5905915,-0.2284936,0.1763006
0.5421407,-0.22484,0.1929413
0.4896575,-0.2110145,0.2256764
0.4900474,-0.1992026,0.2571047
0.5369613,-0.2138469,0.2727397
0.610148,-0.2533072,0.2803669
0.6992662,-0.2906509,0.3063616
0.7622097,-0.3066894,0.3353008
0.8158128,-0.2993825,0.3473498
0.8879889,-0.2905517,0.3813368
0.9875473,-0.2972697,0.4312606
1.067237,-0.3138346,0.4669282
1.100619,-0.358161,0.5023403
1.186448,-0.4278886,0.5112142
1.342291,-0.5187474,0.4374254
1.458449,-0.5950575,0.3517174
1.38078,-0.5419376,0.3517456
1.091236,-0.3880016,0.3326388
0.8320458,-0.2857973,0.2621857
0.7586438,-0.2994309,0.2548439
0.7904114,-0.3611156,0.2355864
0.8457357,-0.4223113,0.1716485
0.9664855,-0.5589486,0.1439089
1.052632,-0.6279524,0.1286228
0.9771405,-0.5425482,0.1396522
0.9373884,-0.5230525,0.1487184
0.9090315,-0.476972,0.1331882
0.8238508,-0.3783705,0.1459601
0.8397893,-0.3728935,0.1166196
0.8037672,-0.3191218,0.0592466
0.7381759,-0.2774428,0.03915826
0.7369835,-0.2522761,0.0242537
0.678227,-0.145969,0.02823974
0.680207,-0.1279865,0.02564486
0.7347752,-0.1534316,0.01852257
0.8011744,-0.1924236,0.02074971
0.9193335,-0.2870679,0.00297249
0.9838551,-0.3052749,0.008998216
1.010948,-0.2712274,0.0176127
1.017605,-0.2279828,0.01970533
1.036919,-0.1835727,0.04069871
1.093433,-0.1824336,0.03179267
1.128091,-0.2096676,0.02340461
1.209247,-0.2313253,0.03534831
1.300503,-0.2171785,0.0436447
1.328183,-0.2140691,0.06968266
1.339321,-0.2356229,0.08765004
1.314939,-0.2890318,0.09383704
1.241445,-0.4076881,0.1419024
1.150124,-0.4848216,0.19319
1.124237,-0.5344957,0.168261
1.183747,-0.6829345,0.1241817
1.214425,-0.7779429,0.1204101
1.203838,-0.668887,0.1212742
1.155719,-0.5488259,0.1511458
1.040287,-0.4992381,0.1923487
0.9465743,-0.4107623,0.1851481
0.9055687,-0.3689651,0.1734708
0.8665809,-0.3727606,0.1520719
0.8198042,-0.3543302,0.09486441
0.7534579,-0.3652252,0.06740993
0.7003068,-0.3526051,0.09412641
0.6939611,-0.3303547,0.1240281
0.6885919,-0.3128159,0.1387491
0.6532884,-0.2473584,0.164944
0.6258996,-0.1960518,0.1904044
0.645635,-0.162983,0.2152638
0.6829093,-0.1512352,0.253664
0.7212881,-0.1602625,0.277333
0.7686431,-0.1498724,0.3012504
0.7850745,-0.1646953,0.3261332
0.7905604,-0.1953501,0.3380623
0.8207497,-0.2343089,0.3550718
0.8475639,-0.2774076,0.3595525
0.873539,-0.2734643,0.3881356
0.9143332,-0.2622492,0.4583012
0.9903612,-0.2645133,0.4973724
1.094056,-0.2712293,0.497395
1.25553,-0.3062449,0.4857991
1.498429,-0.3414782,0.4709481
1.54183,-0.3440752,0.4463847
1.318247,-0.3607336,0.4035053
1.146866,-0.4073919,0.3627183
1.032646,-0.4001175,0.3439154
0.9540023,-0.3877766,0.3222111
0.9256124,-0.4537117,0.2449867
0.8791959,-0.5146332,0.1676508
0.9424438,-0.5445082,0.1421044
0.9642531,-0.5301506,0.1206659
0.9190471,-0.4589577,0.1096861
0.9803974,-0.4022782,0.08499626
0.9369638,-0.3604536,0.06368293
0.8528635,-0.3161803,0.06292394
0.7997944,-0.2515189,0.002149226
0.7411097,-0.2177333,-0.02183622
0.771264,-0.2380057,-0.01097147
0.7129817,-0.1937796,-0.05701472
0.684236,-0.1876393,-0.03493219
0.7271103,-0.2454687,0.02917637
0.6797397,-0.2495295,0.06229134
0.7823378,-0.2774584,0.05785866
1.018127,-0.218551,-0.03610717
1.197954,-0.1053716,-0.09060996
1.151541,-0.128441,-0.0241052
1.002433,-0.120372,0.04492575
1.096653,-0.09174229,0.04346556
1.117987,-0.138381,0.04097694
1.077171,-0.1789082,0.08899653
1.20715,-0.2461565,0.0965371
1.269962,-0.2930186,0.07270573
1.417691,-0.3257842,0.06588129
1.541297,-0.4449521,0.05385671
1.467828,-0.5411464,0.07229357
1.421664,-0.5644342,0.1190385
1.284225,-0.6264556,0.1684026
1.165679,-0.7100563,0.1591328
1.152258,-0.7033557,0.1212573
1.080882,-0.6035382,0.1602012
1.025344,-0.459887,0.173526
0.9408456,-0.3163294,0.1602225
0.9144191,-0.2755293,0.171994
0.9467034,-0.3221136,0.1451218
0.8701292,-0.3437433,0.1517741
0.8058111,-0.3615346,0.1671765
0.726189,-0.3720324,0.154206
0.6330574,-0.3384048,0.1757037
0.586755,-0.2980972,0.1866924
0.4921319,-0.2295618,0.2062264
0.4519666,-0.1558639,0.2380362
0.4849863,-0.1429797,0.2461133
0.532157,-0.1560865,0.2668244
0.6544076,-0.1807221,0.2913713
0.7872989,-0.2085946,0.3188628
0.8660295,-0.2077244,0.3414536
0.9228702,-0.2063404,0.3821614
0.9971592,-0.2453166,0.4864577
1.075687,-0.3261301,0.582481
1.127174,-0.3969548,0.5953944
1.213815,-0.4480861,0.4790235
1.381313,-0.5110808,0.3491209
1.463548,-0.5099506,0.374949
1.262839,-0.4320245,0.3435087
0.9840966,-0.3560527,0.1972009
0.9145522,-0.279457,0.2187634
0.9524506,-0.301689,0.2624539
0.9524364,-0.4325538,0.1940531
0.9410655,-0.4909245,0.1996586
0.9920613,-0.5325297,0.1823418
1.04587,-0.5880178,0.1105191
1.00606,-0.5562059,0.1046464
0.949138,-0.4698525,0.09773241
0.8739816,-0.3520475,0.08637471
0.7926451,-0.2858523,0.0687465
0.7595782,-0.2706869,0.03997965
0.7015114,-0.2186604,0.03510226
0.6805756,-0.205911,0.02094651
0.6987039,-0.2148265,0.01872589
0.6797351,-0.2038867,0.02498829
0.7041707,-0.2205688,0.03011937
0.7406329,-0.244511,0.03487731
0.7736465,-0.2580808,0.02102381
0.8554067,-0.2472805,0.02837786
0.9335246,-0.2105929,0.02955187
1.001295,-0.1685159,0.0293653
1.038847,-0.1271832,0.05285271
1.061857,-0.1159847,0.05996043
1.147238,-0.1532513,0.07585829
1.264103,-0.2164672,0.08601876
1.386317,-0.3136378,0.0810374
1.459655,-0.4448823,0.07095627
1.43418,-0.5224788,0.04707954
1.393171,-0.5351935,0.06699701
1.355222,-0.5754198,0.08991353
1.281067,-0.659007,0.06946397
1.201895,-0.7336036,0.05934126
1.17239,-0.7147171,0.06076942
1.125457,-0.586961,0.103066
0.9685627,-0.4631862,0.183686
0.8852404,-0.4096119,0.203985
0.91744,-0.4079254,0.1778629
0.8651097,-0.3941648,0.1753071
0.8391683,-0.3664299,0.1681463
0.8543782,-0.3783146,0.1434193
0.7674936,-0.348719,0.1300051
0.7265428,-0.3025419,0.1267005
0.7203133,-0.301729,0.1412082
0.6270895,-0.2558998,0.1827393
0.53775,-0.2261322,0.2387767
0.5176658,-0.229479,0.2643101
0.5692222,-0.2257456,0.2537458
0.6186519,-0.2481659,0.2737306
0.6543206,-0.2475781,0.2904444
0.7297023,-0.264726,0.2938707
0.7780059,-0.2838687,0.3352893
0.7898897,-0.2593418,0.3367602
0.8106668,-0.2378778,0.3236987
0.88026,-0.1823498,0.3465157
0.9744679,-0.1477124,0.3425748
1.05495,-0.1873034,0.3713159
1.178856,-0.3140606,0.4234918
1.280084,-0.5251717,0.4381714
1.35666,-0.6307659,0.4477538
1.397386,-0.5895969,0.406347
1.281405,-0.5386015,0.3545941
1.13957,-0.4712883,0.3622831
1.00653,-0.4031263,0.3378338
0.8616356,-0.4304403,0.2731382
0.804198,-0.4682443,0.2318438
0.8006988,-0.4605211,0.1973027
0.8819822,-0.4979068,0.1673489
0.9694385,-0.4964087,0.1443745
0.937878,-0.4534273,0.1182616
0.8871053,-0.4468399,0.1263516
0.8477171,-0.4115678,0.1389195
0.8161932,-0.3941183,0.1048053
0.8109791,-0.374599,0.07284535
0.8096567,-0.3291025,0.04389539
0.8040262,-0.3277566,0.01370806
0.7826394,-0.2863263,0.006437268
0.769085,-0.2317144,-0.0008306295
0.7979103,-0.2263319,-0.001053928
0.8589845,-0.2173036,-0.01973634
0.9019902,-0.2271133,-0.04584805
0.9268355,-0.242332,-0.02242998
0.9602213,-0.2418359,-0.002895014
0.9656603,-0.2337519,0.006387196
0.9541397,-0.2034008,0.0326967
0.9617873,-0.1633395,0.03351417
0.985522,-0.1298778,0.018962
1.018039,-0.1154274,0.02276974
1.031571,-0.1042273,0.03755545
1.027896,-0.09997872,0.05036699
1.031019,-0.1160452,0.05803543
1.040151,-0.1202016,0.06325457
1.067068,-0.1224127,0.07305992
1.134133,-0.15268,0.07553536
1.239969,-0.2222177,0.07545221
1.346945,-0.28281,0.108363
1.405806,-0.2863413,0.1417063
1.446313,-0.3529512,0.1467985
1.527871,-0.5271421,0.1654501
1.552508,-0.6397282,0.1903514
1.418868,-0.6758908,0.1845479
1.237005,-0.7440772,0.1804211
1.1214,-0.7374599,0.1931356
1.048411,-0.6218306,0.1659197
0.9643017,-0.5570723,0.1295171
0.8832432,-0.4864445,0.1245132
0.8566166,-0.3927218,0.1015386
0.8404658,-0.3638677,0.09300648
0.7832085,-0.3125445,0.1117927
0.7138815,-0.2988848,0.1147372
0.6323962,-0.3263818,0.1349257
0.582228,-0.2975204,0.1649211
0.6141658,-0.3117119,0.1853412
0.6464095,-0.3144936,0.2199424
0.65963,-0.2799695,0.2472789
0.6972374,-0.2635858,0.2600418
0.7183712,-0.2135443,0.2784561
0.7407193,-0.2081793,0.2936837
0.7855286,-0.2241587,0.3049819
0.81264,-0.2230584,0.3226308
0.8305576,-0.2590046,0.3426286
0.8234265,-0.2514854,0.3619536
0.8123755,-0.209279,0.3807944
0.8533404,-0.1762042,0.4068855
0.933969,-0.1648427,0.4526058
1.080064,-0.2120787,0.5028476
1.272672,-0.3090458,0.5186124
1.458609,-0.4767456,0.4968524
1.562395,-0.5815953,0.4756157
1.420467,-0.510808,0.4337038
1.120248,-0.4276084,0.341933
0.8690102,-0.359528,0.2759328
0.720136,-0.2985835,0.2524304
0.7230368,-0.3464679,0.21357
0.7713494,-0.3974434,0.1944779
0.8210293,-0.4541183,0.1901671
0.9430063,-0.5770768,0.1591273
0.9565886,-0.5513184,0.1542629
0.8820225,-0.4460181,0.1535309
0.8600367,-0.4242369,0.1113652
0.7961254,-0.3551339,0.0949246
0.762534,-0.2937879,0.1047625
0.7811144,-0.2646696,0.08964856
0.7684824,-0.2255303,0.06310284
0.7804511,-0.2312992,0.03559144
0.7563301,-0.1735922,0.01806223
0.7184633,-0.1383349,0.03145543
0.7676807,-0.1958523,0.05621605
0.8276613,-0.2081128,0.06754775
0.8800603,-0.2370897,0.06932249
0.9336514,-0.2388766,0.06253937
0.9643363,-0.1905501,0.05741815
0.9833262,-0.1726833,0.06809426
0.9800893,-0.1358111,0.08046585
0.9938639,-0.153563,0.09371504
1.051352,-0.2062901,0.1137121
1.152344,-0.2454429,0.1287372
1.325777,-0.3145741,0.1307147
1.459538,-0.3291418,0.1216719
1.445427,-0.3342897,0.1229574
1.403509,-0.3609332,0.1347515
1.411337,-0.4023951,0.1284844
1.394034,-0.5488312,0.08019191
1.315761,-0.6599261,0.02525217
1.179901,-0.6457696,0.05642147
1.063498,-0.606217,0.1353056
1.032132,-0.5270835,0.1744625
0.9903108,-0.407372,0.1918075
0.9519648,-0.3098272,0.1813206
0.9810549,-0.2824065,0.1689871
0.9709151,-0.3018788,0.1733916
0.8986881,-0.3005111,0.1519581
0.805408,-0.3024965,0.1411643
0.7309443,-0.3128637,0.1454685
0.7050758,-0.2999426,0.1628731
0.6519454,-0.2883688,0.1988235
0.6342055,-0.2799644,0.1938254
0.6563621,-0.2660873,0.1946038
0.5841378,-0.2483896,0.2292715
0.5567409,-0.2360983,0.2444677
0.6143063,-0.2462796,0.2590784
0.6618517,-0.2547479,0.292865
0.7505526,-0.2555155,0.3248693
0.7812627,-0.2528055,0.3180097
0.792497,-0.2245696,0.3168964
0.8776459,-0.197977,0.3700429
0.9029361,-0.2004978,0.4311023
0.9723313,-0.2227684,0.4954411
1.118317,-0.2643903,0.5260329
1.228627,-0.3469122,0.5052675
1.374144,-0.4976954,0.4592974
1.456924,-0.6283082,0.3779341
1.392024,-0.6094192,0.3686951
1.190721,-0.4760262,0.3937885
0.8875245,-0.3333729,0.3277119
0.7413164,-0.2809502,0.2732582
0.7874168,-0.3521605,0.2176078
0.8490312,-0.4313619,0.1571458
0.9272498,-0.4809829,0.1674082
0.9758858,-0.5072068,0.1475244
0.9350217,-0.4398596,0.1173697
0.8776935,-0.3586728,0.108567
0.797796,-0.3187663,0.07845653
0.6988133,-0.2778456,0.07143273
0.6896253,-0.2709421,0.04135482
0.7058968,-0.2513533,0.01109602
0.6896216,-0.2091614,0.02782554
0.7045729,-0.1912104,0.02519811
0.7191742,-0.183137,0.02523205
0.7647791,-0.2162062,0.02338599
0.8431272,-0.248592,0.008823547
0.9136698,-0.2597874,0.01690072
1.001977,-0.2760816,0.01750405
1.026565,-0.2419934,0.01763787
1.017274,-0.2044343,0.02741235
1.062276,-0.2003904,0.03252546
1.115534,-0.182901,0.04002923
1.193,-0.1842797,0.03361065
1.277501,-0.2346646,0.0231633
1.348669,-0.3206334,0.02891985
1.448838,-0.4426677,0.03161983
1.477261,-0.5492681,0.03515113
1.353777,-0.5570324,0.07159299
1.225672,-0.5682643,0.1175729
1.226655,-0.6802125,0.1152249
1.248806,-0.7534145,0.08090797
1.208656,-0.7283813,0.06999229
1.171782,-0.6509468,0.09068943
1.066628,-0.5392686,0.1236456
0.9119507,-0.4426014,0.1549406
0.8701115,-0.3931999,0.1748868
0.8677101,-0.3934295,0.1688481
0.8259388,-0.3861342,0.143814
0.7479976,-0.3547088,0.1275778
0.6397911,-0.3402499,0.1201625
0.5843452,-0.3188155,0.1305063
0.5506101,-0.2910613,0.1720444
0.5150232,-0.2500101,0.2157719
0.5104902,-0.1966098,0.2488143
0.5095794,-0.1677823,0.2703661
0.5601727,-0.1606266,0.2840224
0.6726992,-0.2054306,0.308203
0.7891511,-0.2751914,0.3331979
0.8645621,-0.2942716,0.3571034
0.8693165,-0.2696998,0.3841842
0.8531767,-0.2331757,0.4050749
0.8553881,-0.2108929,0.4250759
0.891996,-0.203647,0.466003
0.988893,-0.2305835,0.5205226
1.151322,-0.3424457,0.5240284
1.342196,-0.5146482,0.4735344
1.43852,-0.610456,0.4207476
1.389754,-0.5677782,0.391018
1.272662,-0.5017597,0.397311
1.136682,-0.4439213,0.3825545
0.9738904,-0.3845098,0.2988856
0.810802,-0.3603169,0.1989695
0.8001637,-0.3557223,0.171815
0.9126157,-0.4124335,0.1929783
0.9488863,-0.4809666,0.1570713
1.000424,-0.4935043,0.1404429
1.014612,-0.4728249,0.1550119
0.873944,-0.3864449,0.0947458
0.8320339,-0.3335276,0.06559914
0.8082961,-0.3230807,0.07239168
0.6934078,-0.262963,0.03396093
0.6636924,-0.2375809,0.01856443
0.6537606,-0.227272,0.01294294
0.6643912,-0.196297,-0.002856325
0.684154,-0.1922938,0.001451524
0.6989759,-0.2063969,0.01736391
0.7901529,-0.2275296,0.02560418
0.9093706,-0.2626707,0.01310123
1.076452,-0.3046635,0.005851735
1.12569,-0.2802734,0.006351239
1.052269,-0.2332089,0.01006912
1.084084,-0.2135387,0.02604227
1.070372,-0.1475493,0.04303312
1.050642,-0.1222713,0.05122549
1.107717,-0.1841398,0.04047986
1.132238,-0.2619565,0.03126815
1.226621,-0.340703,0.02316697
1.337639,-0.3799421,0.01696418
1.406799,-0.4033091,0.04001458
1.443845,-0.419652,0.06952097
1.379732,-0.3942591,0.09288167
1.353394,-0.4166196,0.09083851
1.343557,-0.5334891,0.06900613
1.231196,-0.6358974,0.06789419
1.153829,-0.6084251,0.0775458
1.121189,-0.5205883,0.1244056
1.048268,-0.4871586,0.1780135
0.9891111,-0.4354212,0.166733
0.9538406,-0.3685651,0.1576526
0.8763778,-0.328344,0.1776845
0.8459477,-0.2955979,0.1722535
0.8734226,-0.3208001,0.1566242
0.7669565,-0.3060398,0.1392583
0.6763049,-0.2780504,0.111247
0.6995672,-0.318469,0.1225059
0.6372955,-0.2863501,0.153191
0.5906075,-0.2781855,0.1535412
0.5895311,-0.3001498,0.1846647
0.5434341,-0.2622462,0.2370738
0.550241,-0.2708857,0.2658376
0.602891,-0.2598033,0.2972137
0.6697214,-0.2550726,0.3106999
0.7640968,-0.2802571,0.3113571
0.8697833,-0.2635109,0.3161423
0.9223133,-0.2739893,0.3141487
0.870266,-0.2571437,0.3182411
0.8148824,-0.2186558,0.3244595
0.7941889,-0.193538,0.3424812
0.7855696,-0.1321873,0.3673521
0.8214209,-0.08922589,0.379282
0.8882725,-0.1044527,0.3869215
1.035603,-0.2471156,0.4033817
1.258554,-0.4667793,0.4412582
1.436335,-0.616866,0.4555635
1.517802,-0.6812196,0.4445456
0.7619084,-0.2757184,0.05247084
0.706136,-0.2792507,0.06439354
0.6702955,-0.2656841,0.09802115
0.611358,-0.2703963,0.1430952
0.5386952,-0.2511717,0.1893673
0.4949933,-0.1888473,0.2048881
0.515129,-0.1589212,0.2144068
0.5780585,-0.151205,0.2129736
0.6639813,-0.1633759,0.2171776
0.7656665,-0.1741591,0.2494903
0.8768659,-0.178681,0.2719642
0.9738604,-0.1859047,0.3034084
1.00138,-0.180045,0.3606521
1.076818,-0.2408214,0.4359439
1.230379,-0.3328022,0.4876853
1.280557,-0.3739858,0.4674739
1.293235,-0.4189554,0.4374947
1.374322,-0.517612,0.3699076
1.467516,-0.6418574,0.2647865
1.409737,-0.604835,0.2840965
0.9990035,-0.3726776,0.3125952
0.578427,-0.2187649,0.2373232
0.6334152,-0.2746255,0.2289836
0.8751462,-0.4034351,0.2087758
0.994759,-0.4867385,0.09229795
1.143055,-0.5465079,0.05208498
1.102286,-0.4936793,0.06788097
0.8464638,-0.3324655,0.0504298
0.8008188,-0.283969,0.03342567
0.7696342,-0.2849919,0.03506366
0.6685248,-0.2625407,0.02789921
0.6872125,-0.2680057,-0.009893391
0.6689962,-0.2510458,-0.02406744
0.6720933,-0.2464072,-0.02024242
0.6676494,-0.2284275,-0.02580751
0.6798461,-0.2153122,-0.01654405
0.8072875,-0.2505059,-0.02170826
0.8761332,-0.257628,-0.02757235
0.9724386,-0.2527537,-0.02988172
1.043177,-0.2072629,-0.03576558
1.042962,-0.1310784,-0.01765943
1.081285,-0.07608512,-0.001173402
1.083826,-0.05598884,0.0146281
1.185994,-0.1287727,-0.002204165
1.347225,-0.2333847,-0.0577807
1.464673,-0.3486515,-0.07111174
1.568646,-0.4576999,-0.05353763
1.550338,-0.4891524,-0.01953031
1.453646,-0.4861149,0.02474063
1.303672,-0.510947,0.03260843
1.193813,-0.6308016,0.01234028
1.196248,-0.7504115,-0.0004483875
1.177834,-0.7393607,0.01921724
1.159854,-0.6310306,0.05686985
1.080528,-0.4371547,0.1017543
0.9453712,-0.2823212,0.1383996
0.9235432,-0.2811894,0.126557
0.9334471,-0.3290853,0.1034723
0.8697888,-0.3340301,0.09498903
0.7659198,-0.3133226,0.0919247
0.6946994,-0.2822382,0.1042114
0.6461424,-0.2205665,0.1123944
0.5632603,-0.182883,0.1315589
0.5038004,-0.1787817,0.1578482
0.4896072,-0.1535623,0.1597753
0.5023258,-0.1512021,0.1653614
0.5639577,-0.1709399,0.1776987
0.6427022,-0.182079,0.193266
0.6707381,-0.1801968,0.2125736
0.7068049,-0.147947,0.2293165
0.8193472,-0.1262033,0.2669478
0.875781,-0.1521712,0.2991861
0.9562527,-0.2477074,0.3424199
1.220934,-0.3747181,0.4242963
1.37603,-0.4217465,0.426411
1.365175,-0.4355398,0.3587731
1.43672,-0.5008779,0.3382305
1.401127,-0.5073593,0.326406
1.230645,-0.4444963,0.3164729
1.129174,-0.3879996,0.2906441
0.9159984,-0.2854197,0.2042075
0.7582128,-0.2736919,0.1548286
0.8834278,-0.3926926,0.1326489
0.9475872,-0.4495548,0.0915986
1.021091,-0.5241314,0.08209522
1.131886,-0.5599392,0.06770547
1.014878,-0.4675458,0.06507866
0.9348191,-0.4115557,0.07951038
0.8644632,-0.3340844,0.0551031
0.7177135,-0.270144,0.03447697
0.7127025,-0.2672402,0.0103986
0.6689465,-0.2155325,-0.01793981
0.6128627,-0.1872636,-0.01290747
0.6251437,-0.1637874,-0.004271177
0.607283,-0.1631376,0.004260721
0.6838707,-0.2252108,-0.00550086
0.7946821,-0.2574712,-0.0321225
0.8912171,-0.2845147,-0.04509647
0.9789382,-0.2679123,-0.06326079
1.019306,-0.2238486,-0.06284743
1.093221,-0.208313,-0.0516349
1.107436,-0.1806624,-0.05828172
1.102223,-0.2006963,-0.04001124
1.19406,-0.2235337,-0.02435754
1.279839,-0.2316341,-0.05074826
1.387716,-0.2834121,-0.07264956
1.470762,-0.3399312,-0.06292462
1.439584,-0.4600679,-0.02826925
1.401809,-0.5627278,0.02152496
1.32952,-0.5561746,0.05196091
1.210502,-0.6212586,0.03231403
1.189288,-0.744262,0.005276399
1.194526,-0.7627064,0.0066292
1.124824,-0.6813922,0.02563561
1.054478,-0.517315,0.08278747
0.9695466,-0.3278471,0.1349871
0.9265108,-0.2723476,0.1326413
0.9674568,-0.3345384,0.1207847
0.9235864,-0.3512514,0.1116592
0.8301086,-0.3364504,0.1089215
0.767025,-0.3219125,0.1160809
0.6950216,-0.2616437,0.1197027
0.6487469,-0.224115,0.139747
0.5822254,-0.2109358,0.1689266
0.532523,-0.1695403,0.1860106
0.5431759,-0.1556062,0.1788734
0.5381928,-0.1534082,0.1644555
0.5760618,-0.1397815,0.1740154
0.6383972,-0.1409413,0.1887981
0.6766468,-0.132174,0.208696
0.7392289,-0.1276517,0.2317279
0.7939294,-0.1350349,0.2616756
0.8654107,-0.1652718,0.3297679
0.9964996,-0.2452183,0.3980955
1.14976,-0.3179874,0.435507
1.300926,-0.3877423,0.4386637
1.434116,-0.5204233,0.4022197
1.515397,-0.6563047,0.3344017
1.515275,-0.6528812,0.2625597
1.430137,-0.5096066,0.26033
1.216313,-0.3352902,0.2678427
0.9353811,-0.2055604,0.217315
0.7982785,-0.2452594,0.1841019
0.828748,-0.393405,0.1255082
0.9232121,-0.5064809,0.06578954
1.048671,-0.6234221,0.07981785
1.102259,-0.618722,0.0763539
1.037148,-0.5081766,0.07059397
0.9733429,-0.4402789,0.07226939
0.9037378,-0.3387527,0.04362408
0.8155388,-0.308264,0.02843756
0.7991254,-0.3167037,-0.0005593209
0.7709042,-0.2307355,-0.02730974
0.7221537,-0.17422,-0.03160064
0.7198728,-0.1304958,-0.04001234
0.6717549,-0.1211454,-0.02653681
0.6270945,-0.1495339,-0.0197471
0.6741555,-0.1748977,-0.02506406
0.759694,-0.2834515,-0.02801174
0.8461546,-0.3300843,-0.04562613
0.9124538,-0.2665358,-0.05332349
0.9607237,-0.2193183,-0.05505139
0.9806232,-0.1823753,-0.05453654
0.9802047,-0.1757643,-0.04327886
1.021774,-0.193405,-0.03006769
1.087917,-0.2332181,-0.01215962
1.13133,-0.2839543,-0.0002749692
1.175554,-0.3001549,0.009929993
1.242176,-0.342256,0.02277672
1.309564,-0.459775,0.01966209
1.328177,-0.5576841,0.02099891
1.270657,-0.5477215,0.06665908
1.230222,-0.5828278,0.1025795
1.284337,-0.7177677,0.04698932
1.325845,-0.7583309,-0.01177775
1.279175,-0.6978592,0.01694151
1.181223,-0.608793,0.05030412
1.034217,-0.5277955,0.06137064
0.9155107,-0.5065627,0.07893097
0.9128067,-0.5002291,0.05948251
0.9167388,-0.489624,0.03117746
0.8599512,-0.471581,0.01118834
0.7841837,-0.4492985,-0.03298069
0.7075598,-0.4544087,-0.01922577
0.6945388,-0.4525729,0.04347479
0.684153,-0.4278568,0.06672376
0.6404637,-0.3852129,0.07147855
0.6762871,-0.2893044,0.05855234
0.7117449,-0.1221942,0.05381313
0.7387001,0.003139027,0.07089152
0.7906623,-0.007372758,0.09055959
0.7624398,-0.04707367,0.1551907
0.7611625,-0.09968349,0.2104602
0.7950329,-0.1838462,0.2299427
0.7833119,-0.2044887,0.2581381
0.8058941,-0.1989046,0.2744291
0.8268893,-0.2049017,0.3158647
0.8706757,-0.2030622,0.365124
0.9605766,-0.2191826,0.3642474
1.048307,-0.2487362,0.3430301
1.168552,-0.2883282,0.3097911
1.253237,-0.3392288,0.2909746
1.326327,-0.4211849,0.2960603
1.417269,-0.4782208,0.2931135
1.406017,-0.4374174,0.2910123
1.319505,-0.3936969,0.2884467
1.151275,-0.3530407,0.272841
0.9358301,-0.3068952,0.2411562
0.872775,-0.3626738,0.1975515
0.9202821,-0.4396631,0.1290118
0.9387922,-0.4576689,0.06032033
0.9697737,-0.4589892,0.05768608
1.006947,-0.4447643,0.06329566
0.9630366,-0.4437565,0.04521276
0.8936429,-0.436132,0.05861739
0.877937,-0.4172711,0.05585298
0.8727114,-0.4228888,0.01941047
0.859078,-0.3912382,-0.02224958
0.8184716,-0.3337745,-0.06604579
0.7503587,-0.2807175,-0.07112035
0.7030134,-0.2029251,-0.05902056
0.6611499,-0.1393894,-0.06258225
0.656718,-0.1072814,-0.05844079
0.7308204,-0.1061318,-0.05867754
0.8472194,-0.1325545,-0.06741342
0.9675673,-0.1522466,-0.08148753
1.033076,-0.150284,-0.09291707
1.0413,-0.1222419,-0.07391993
1.02444,-0.09511789,-0.04218977
1.002848,-0.08758834,-0.01228499
1.014778,-0.1019389,0.01247104
1.051595,-0.144912,0.0141842
1.120616,-0.1991715,0.006003101
1.209844,-0.240518,-0.01139121
1.290333,-0.2486277,-0.05126442
1.393003,-0.2739038,-0.07206257
1.46649,-0.3255854,-0.02368996
1.487974,-0.3262825,0.0602271
1.497428,-0.3438679,0.09894826
1.465282,-0.4931292,0.05746453
1.399522,-0.7220504,-0.03560558
1.267876,-0.8158449,-0.08788455
1.08821,-0.7015932,-0.01555875
0.9834526,-0.5984282,0.1053416
0.9305831,-0.5108428,0.1299692
0.9230475,-0.3488442,0.1004269
0.964936,-0.2893954,0.1036123
0.9665638,-0.3130763,0.08976781
0.8832083,-0.2926535,0.06721354
0.7162499,-0.2764084,0.07004562
0.6060677,-0.2586428,0.07309232
0.5975457,-0.2409019,0.08630191
0.5791595,-0.2286698,0.1011431
0.5680421,-0.1854708,0.1207708
0.5558597,-0.1410372,0.1651108
0.565108,-0.1274784,0.2130368
0.6333983,-0.140737,0.2469068
0.7074246,-0.1658832,0.2553556
0.7832637,-0.2037409,0.2599545
0.8137109,-0.2200875,0.2793247
0.8098075,-0.1831739,0.3000339
0.8229758,-0.1551357,0.3327848
0.861039,-0.1565169,0.3816557
0.9722491,-0.1756713,0.4166091
1.064541,-0.2069308,0.416154
1.127979,-0.2476654,0.4128079
1.277919,-0.3694611,0.4248387
1.361553,-0.4894809,0.41628
1.326034,-0.4729792,0.3735364
1.384944,-0.4651531,0.3304832
1.435361,-0.4827455,0.3322814
1.262765,-0.3564206,0.3153114
1.034211,-0.236094,0.2224303
0.910612,-0.2748608,0.1555214
0.8963462,-0.3762325,0.1339553
0.9696639,-0.5036427,0.1220838
1.013494,-0.5818871,0.1350125
1.010328,-0.5418422,0.1263949
0.9843807,-0.4740011,0.1155727
0.9295737,-0.401971,0.1085916
0.8638525,-0.3127496,0.05868248
0.7674884,-0.2631785,0.03143442
0.7157218,-0.263275,0.0294359
0.6976633,-0.2597255,0.003320713
0.6370665,-0.2255715,-0.01645972
0.6128948,-0.1980528,-0.005093133
0.6080833,-0.1899437,0.01239707
0.6235802,-0.1942422,-0.002740901
0.727865,-0.2336229,-0.02089473
0.8401594,-0.2689848,-0.04514554
0.9151621,-0.27495,-0.07722918
0.9647973,-0.2686124,-0.05931204
1.000415,-0.2216517,-0.05227066
1.051238,-0.1599101,-0.06683237
1.09043,-0.1196789,-0.05170866
1.108092,-0.1232633,-0.04712876
1.089382,-0.1893096,-0.03580856
1.061039,-0.2628281,-0.0130028
1.120813,-0.3119494,-0.007544635
1.204756,-0.3077482,-0.006568137
1.258711,-0.285962,-0.01074408
1.352077,-0.3127035,-0.007293005
1.419879,-0.3471578,-0.003527708
1.3869,-0.4036847,-0.001643751
1.328821,-0.4827178,0.01502103
1.307107,-0.6264785,0.0163055
1.271117,-0.8189033,-0.01132291
1.19994,-0.811819,-0.03251281
1.128636,-0.687613,0.009091383
1.046169,-0.6101526,0.08467463
0.9480132,-0.4463078,0.1109741
0.8664077,-0.2968571,0.1150814
0.8689546,-0.2837112,0.1086347
0.9028904,-0.2937689,0.06899954
0.8666611,-0.2756022,0.04687102
0.8329307,-0.269043,0.06151523
0.7769103,-0.2796377,0.08303254
0.7039039,-0.2503282,0.08688052
0.6870825,-0.2142176,0.09900899
0.6099669,-0.1914422,0.139684
0.55198,-0.1581608,0.1689075
0.5880567,-0.1572778,0.1876868
0.6041302,-0.1552363,0.1937965
0.6652566,-0.1672914,0.1932086
0.7460561,-0.2086453,0.210277
0.7629743,-0.2264347,0.2083766
0.7743973,-0.2565402,0.2072587
0.7944135,-0.2806289,0.2205601
0.841549,-0.284395,0.2157471
0.9205991,-0.2697487,0.2198634
1.023301,-0.2451765,0.2282761
1.166544,-0.2972351,0.2360976
1.305559,-0.3898571,0.2546516
1.403367,-0.4661072,0.2593165
1.477623,-0.500292,0.2543137
1.531378,-0.4772338,0.2516141
1.514084,-0.4742121,0.2662222
1.387521,-0.4557445,0.3111053
1.16482,-0.4004402,0.3433566
0.9107846,-0.3954574,0.3033264
0.7408832,-0.4188107,0.229827
0.6832737,-0.4468552,0.2069666
0.7164335,-0.4791229,0.1851782
0.8276655,-0.4783552,0.1290496
0.9082594,-0.4660107,0.09868938
0.8885609,-0.4603432,0.08635887
0.8471044,-0.4356349,0.06709484
0.8432877,-0.4119787,0.04025488
0.8171267,-0.3981004,0.02324797
0.787855,-0.343632,0.007490588
0.8044201,-0.2589965,-0.03513577
0.7761379,-0.190859,-0.05530074
0.7415697,-0.1509661,-0.0499878
0.7420905,-0.15321,-0.03972044
0.7328335,-0.178488,-0.02369586
0.7758835,-0.2053449,-0.03396061
0.8549246,-0.2407062,-0.04850533
0.9732484,-0.2646928,-0.07137364
1.06513,-0.2618842,-0.09384917
1.019409,-0.2392254,-0.07309502
0.9805227,-0.208302,-0.0538764
0.966525,-0.1637572,-0.05255851
0.9518745,-0.1031859,-0.06059361
1.005022,-0.07643994,-0.07612958
1.03271,-0.1018226,-0.07811841
1.028353,-0.1278388,-0.07357018
1.032121,-0.1304428,-0.06211134
1.032897,-0.1332565,-0.04898167
1.063682,-0.1421277,-0.04290482
1.114985,-0.1559763,-0.03839835
1.183437,-0.2015378,-0.0401482
1.269874,-0.2744964,-0.04178716
1.358523,-0.3225401,-0.0178195
1.405088,-0.3020556,0.04243296
1.426391,-0.2984689,0.08708572
1.50822,-0.4508,0.07106294
1.522097,-0.6473481,0.03729446
1.357309,-0.6883188,0.03553863
1.141909,-0.6225434,0.06722271
0.9897884,-0.5815004,0.1030017
0.9324117,-0.55309,0.09403558
0.9156118,-0.5173348,0.04958752
0.9278248,-0.5159293,0.01714234
0.9563801,-0.4892367,-0.005635858
0.90989,-0.4237878,0.002150081
0.8360811,-0.3800254,0.03012961
0.762785,-0.3420096,0.03759155
0.6883526,-0.3446624,0.0631057
0.6536657,-0.3328785,0.09115171
0.629752,-0.2591896,0.1126645
0.6612349,-0.223179,0.1498504
0.6939494,-0.180267,0.1671604
0.6666699,-0.1240115,0.1849107
0.681701,-0.1112665,0.2004229
0.7093278,-0.1134291,0.215862
0.7548973,-0.1402908,0.2560251
0.8198927,-0.1460663,0.2683816
0.8247938,-0.1100383,0.2736979
0.8703882,-0.08168589,0.3118502
0.9902516,-0.09428669,0.3737545
1.096806,-0.1479925,0.440755
1.174787,-0.1983332,0.4577705
1.297477,-0.3137043,0.4291025
1.483484,-0.48022,0.375429
1.51248,-0.5158514,0.3222602
1.363048,-0.4498984,0.3298639
1.244249,-0.4101598,0.344575
1.126823,-0.3642735,0.3073394
0.9965049,-0.3124303,0.2661208
0.8649755,-0.3147611,0.2006873
0.776809,-0.3553444,0.1218028
0.8774112,-0.4465549,0.1122394
0.943954,-0.5109941,0.1052826
0.9176711,-0.4771742,0.07465166
0.9633247,-0.4600037,0.06883349
0.8898344,-0.4077761,0.05415604
0.7930464,-0.3285135,0.05155387
0.7645602,-0.3348458,0.04188375
0.691391,-0.3264971,0.007063488
0.7033716,-0.3068396,-0.005890775
0.7091919,-0.2851608,-0.02015007
0.6913162,-0.2434259,-0.02013059
0.7208448,-0.235403,-0.01057641
0.733459,-0.2249388,-0.008037554
0.8367433,-0.2487653,0.003739796
0.9562832,-0.2864728,-0.01391777
1.00583,-0.2672914,-0.03760181
1.02209,-0.2153495,-0.04916555
1.014439,-0.1331474,-0.04987238
1.050597,-0.09578179,-0.0303651
1.046891,-0.1087851,-0.02509621
1.023009,-0.1051313,-0.01281346
1.052042,-0.1333551,-0.007407041
1.092561,-0.2042875,-0.01959805
1.193732,-0.2656352,-0.01414585
1.287009,-0.2736316,-0.02518345
1.354667,-0.2743025,-0.03077704
1.445374,-0.366661,-0.01920715
1.474585,-0.5111469,-0.0239508
1.451112,-0.6014797,-0.0215316
1.360818,-0.6271934,-0.02136592
1.216608,-0.7175027,-0.02295278
1.147899,-0.8605488,-0.01521207
1.14224,-0.827901,-0.006365323
1.126182,-0.6572824,0.02219399
1.050717,-0.4456917,0.06011035
0.9155743,-0.2093801,0.09226827
0.8275257,-0.1756124,0.09920627
0.8135447,-0.2547882,0.07024808
0.781495,-0.2427142,0.05235695
0.7161929,-0.2666732,0.0560152
0.6728228,-0.2785462,0.0664864
0.64428,-0.2546953,0.09350861
0.6036032,-0.2687924,0.1372804
0.5596191,-0.2501919,0.1904484
0.5578885,-0.2247607,0.2248255
0.6319383,-0.182324,0.2236038
0.7350566,-0.1389099,0.2163135
0.8168571,-0.1779457,0.2248433
0.8499399,-0.2201968,0.232084
0.8509193,-0.2367506,0.2355421
0.8621794,-0.255781,0.2637128
0.879845,-0.2554673,0.3051702
0.9411064,-0.2533228,0.3314358
1.065399,-0.2586543,0.3528975
1.216605,-0.2687658,0.3777092
1.334892,-0.3013178,0.3870574
1.356593,-0.3907319,0.36977
1.364804,-0.5252533,0.3354825
1.384024,-0.5877179,0.2943044
1.318265,-0.5261972,0.2699966
1.143101,-0.4082875,0.2427507
0.8857337,-0.2972829,0.1920974
0.7542802,-0.3032257,0.1930945
0.7839789,-0.4005893,0.2111181
0.8056578,-0.4412416,0.1736842
0.9258378,-0.4965419,0.1324296
1.024457,-0.526642,0.07704097
0.9610209,-0.4466469,0.04380825
0.9151531,-0.3988696,0.06773928
0.8090108,-0.336301,0.06104128
0.7087334,-0.2697702,0.04665899
0.7179369,-0.2780366,0.02067685
0.6765365,-0.2551297,-0.03276807
0.6687246,-0.2427095,-0.02137376
0.6838282,-0.2334906,-0.004506442
0.6685038,-0.2153873,-0.02538724
0.7227847,-0.2469836,-0.02138849
0.8019629,-0.2646555,-0.03723616
0.8914012,-0.292808,-0.06546881
0.9461082,-0.2789071,-0.05482769
0.9635109,-0.1956097,-0.04511704
1.012335,-0.1401456,-0.03421106
1.045954,-0.09544127,-0.008502148
1.095946,-0.1216191,-0.01227665
1.180545,-0.200122,-0.03702786
1.309144,-0.2611674,-0.0466355
1.473334,-0.3458167,-0.04395507
1.54244,-0.4077782,-0.03202996
1.534674,-0.4729042,-0.003141908
1.463363,-0.5227812,0.04356365
1.31672,-0.5325477,0.06212703
1.223377,-0.6352347,0.03946321
1.174712,-0.7488972,0.03778454
1.138958,-0.7536944,0.0439132
1.128068,-0.6562165,0.04501959
1.03879,-0.4744965,0.07309488
0.8889655,-0.3196389,0.09339599
0.8320942,-0.249005,0.1026397
0.8699777,-0.2679697,0.09671202
0.8591389,-0.3046495,0.06928526
0.7773251,-0.305894,0.07323312
0.6988279,-0.3311357,0.07793361
0.6457231,-0.3160906,0.07337525
0.6449183,-0.2904187,0.09639976
0.6211854,-0.2870615,0.1318965
0.5279035,-0.2113139,0.2105497
0.5062457,-0.1554243,0.2722857
0.5870807,-0.1514734,0.2452283
0.7067473,-0.1496462,0.2359304
0.8171726,-0.1801201,0.2466779
0.8648,-0.2206352,0.2253673
0.8730163,-0.249904,0.2499682
0.8641757,-0.2557406,0.2960488
0.8726851,-0.2513946,0.302973
0.944892,-0.2374479,0.3264783
1.042262,-0.2057992,0.3583764
1.091448,-0.1983094,0.352286
1.121224,-0.2304098,0.3518631
1.258242,-0.3426212,0.3792929
1.39377,-0.4724862,0.3764929
1.402353,-0.4977021,0.3226761
1.442287,-0.5265518,0.2805196
1.41554,-0.5616991,0.2871583
1.198141,-0.4337489,0.2884714
1.020327,-0.2948974,0.2363801
0.9169345,-0.3128909,0.1799998
0.846208,-0.3611699,0.1531469
0.8487838,-0.4085649,0.1262476
0.876908,-0.4611789,0.1098972
0.9608282,-0.4781661,0.09221233
1.000761,-0.4908109,0.05536561
0.9231569,-0.4583692,0.04286879
0.8524525,-0.3946338,0.0484595
0.7807038,-0.371519,0.048401
0.7433917,-0.359253,0.04665733
0.7438697,-0.3323454,0.02347173
0.725232,-0.2940525,-0.007971043
0.7452126,-0.2475231,-0.01070325
0.7457206,-0.1951466,-0.006659333
0.7338509,-0.1859051,-0.007211596
0.7525361,-0.2290784,0.009055703
0.7648581,-0.2501105,0.007108633
0.8378109,-0.2629898,-0.01616297
0.9232763,-0.2605827,-0.03010763
0.9486434,-0.2186457,-0.04562083
0.9693397,-0.1894857,-0.04336295
1.007677,-0.1636883,-0.04082133
1.047065,-0.1525304,-0.05298581
1.0588,-0.1701498,-0.03492458
1.087895,-0.1832571,-0.01580379
1.15081,-0.1973271,-0.007461315
1.190838,-0.1937084,0.01125488
1.242675,-0.2120778,0.01702715
1.333635,-0.3144993,0.01873054
1.403941,-0.4082905,0.02511295
1.402327,-0.4056509,0.04665435
1.391148,-0.4339487,0.05891089
1.406491,-0.6035174,-0.01745661
1.349024,-0.7088976,-0.1003705
1.231294,-0.6487768,-0.05896943
1.12452,-0.6004447,0.01793587
1.057535,-0.56024,0.0625318
1.035996,-0.4738921,0.1130499
0.9875586,-0.4097263,0.1089513
0.9670124,-0.3563749,0.08581167
0.9161867,-0.3031562,0.1525953
0.862641,-0.2686186,0.1614865
0.9227447,-0.3111322,0.130338
0.9093808,-0.3341639,0.07188841
0.8409894,-0.2946044,0.05644228
0.7605436,-0.2820472,0.07016186
0.6681444,-0.2629713,0.06571271
0.6387287,-0.2220985,0.09492307
0.5672483,-0.2028828,0.144929
0.4851698,-0.1661991,0.1767457
0.4973816,-0.142676,0.1890662
0.5273542,-0.1449122,0.1885225
0.618099,-0.1639615,0.2002104
0.7594969,-0.186402,0.2043358
0.8564923,-0.1483879,0.210359
0.9376829,-0.123359,0.2552925
1.038695,-0.1892206,0.3335519
1.208845,-0.2833417,0.4188541
1.401256,-0.3460526,0.4443806
1.47957,-0.4104508,0.3950047
1.46027,-0.543193,0.3352818
1.414302,-0.645706,0.3104798
1.280076,-0.6010461,0.2967297
0.9880416,-0.4527148,0.2589281
0.7063084,-0.2869451,0.240872
0.6557257,-0.2609084,0.2321486
0.7730471,-0.3641802,0.183603
0.8962267,-0.4167006,0.1355014
0.9842624,-0.4792272,0.08646175
0.9921202,-0.5171178,0.03703415
0.8945495,-0.4252167,0.03876122
0.7879631,-0.3751706,0.05491594
0.6933185,-0.346691,0.04376338
0.6028529,-0.2686787,0.02491011
0.6193715,-0.2490091,0.003941552
0.6924994,-0.255984,-0.009980328
0.7318069,-0.2612374,-0.02274255
0.7846262,-0.2601465,-0.04870544
0.8250734,-0.2450961,-0.06121585
0.8268552,-0.2307319,-0.06585843
0.8150707,-0.1833601,-0.07278771
0.8183916,-0.1230276,-0.06459582
0.9120621,-0.07446319,-0.05922853
1.07489,-0.0725831,-0.05643472
1.2165,-0.1039202,-0.0619655
1.368821,-0.144208,-0.07873352
1.546878,-0.2459137,-0.07352738
1.599427,-0.3435143,-0.05843338
1.52634,-0.5003239,-0.01320303
1.497814,-0.7161713,0.04655063
1.44568,-0.6827983,0.03858898
1.297431,-0.5894809,0.04362119
1.155026,-0.70138,0.09109252
1.09905,-0.707537,0.05464053
1.152512,-0.6337286,0.01242427
1.137875,-0.5831237,0.06190707
1.022846,-0.3608529,0.1075439
0.9512926,-0.2174549,0.1491835
0.8821849,-0.2625125,0.1819356
0.8716605,-0.3001986,0.1421185
0.8499942,-0.37444,0.1157783
0.7489898,-0.3933358,0.1231764
0.739167,-0.3441275,0.1131731
0.6843673,-0.3055457,0.1203376
0.5389411,-0.2127431,0.1490787
0.448958,-0.1486607,0.1931206
0.4142607,-0.1388904,0.2220697
0.4553664,-0.1432182,0.2163138
0.5148041,-0.1816906,0.2238453
0.6336598,-0.2362909,0.2282515
0.7831528,-0.2624026,0.220194
0.8247607,-0.2135497,0.2375889
0.8764479,-0.1794863,0.2771932
0.9721306,-0.2172944,0.3475334
1.15583,-0.2822419,0.4331065
1.414656,-0.3736132,0.4671047
1.482699,-0.4488979,0.4201482
1.431007,-0.5157979,0.3439768
1.4061,-0.5615287,0.3066044
1.288489,-0.5011925,0.2805318
1.075154,-0.3829326,0.2378748
0.8554682,-0.2817958,0.2163156
0.7394962,-0.2791984,0.214482
0.7826528,-0.3823835,0.1996537
0.8885171,-0.4555729,0.1409377
1.005707,-0.5244279,0.0721898
1.064851,-0.5613197,0.03796204
0.9954731,-0.4821631,0.024396
0.9027028,-0.4114004,0.05061794
0.8096463,-0.3470532,0.07151724
0.7436559,-0.3224875,0.0573246
0.7666169,-0.3458957,0.05720134
0.739733,-0.2673774,0.02541144
0.7117801,-0.2164814,-0.01854475
0.7463468,-0.2117692,-0.01591792
0.7415275,-0.173033,-0.01209304
0.7678018,-0.1698993,-0.02399996
0.7827019,-0.1577166,-0.03128268
0.791244,-0.1722164,-0.02523695
0.8854882,-0.1795067,-0.02686189
0.9356977,-0.1560267,-0.03093191
0.9815755,-0.1746216,-0.03003549
1.1163,-0.1540812,-0.05725753
1.239984,-0.1925894,-0.07633583
1.351752,-0.3968258,-0.05102317
1.537434,-0.6700663,-0.01104002
1.62277,-0.7913185,0.01042453
1.470655,-0.6883472,0.02884571
1.36728,-0.6973927,0.06453594
1.308665,-0.7699041,0.06453677
1.198132,-0.7364555,0.04856676
1.221076,-0.7672445,0.06040506
1.209212,-0.6829645,0.05636493
1.110012,-0.4575113,0.06477569
1.022302,-0.3061414,0.1071821
0.931857,-0.2252158,0.1343498
0.9539151,-0.2712333,0.1390803
0.9218502,-0.3482234,0.1226787
0.8205588,-0.3756699,0.1032533
0.7870042,-0.3942282,0.100937
0.6754134,-0.3381382,0.09885837
0.5941651,-0.2989341,0.1029237
0.574522,-0.2865209,0.1304168
0.5092449,-0.2428321,0.1814533
0.5008492,-0.218443,0.2153666
0.5227396,-0.1640445,0.2012459
0.5454249,-0.1389869,0.1989224
0.6155226,-0.1620685,0.2226705
0.7050998,-0.1515391,0.2334059
0.7643295,-0.1611433,0.2543332
0.8020021,-0.1715708,0.3037727
0.8823341,-0.1768906,0.3885356
0.9821463,-0.2110893,0.4606063
1.109864,-0.2465643,0.4517741
1.301127,-0.3077609,0.4407682
1.444999,-0.4161169,0.4396742
1.48044,-0.5661596,0.3437994
1.464178,-0.6266695,0.2539788
1.379722,-0.5144317,0.278553
1.160541,-0.3676213,0.2693434
0.8754393,-0.240455,0.1769178
0.7362094,-0.2291039,0.1474974
0.7901844,-0.3760338,0.1506975
0.8608941,-0.4660525,0.1109193
0.9520639,-0.5057506,0.08725809
1.070329,-0.5600231,0.03762883
1.03732,-0.5424692,-0.01612298
0.946771,-0.4898534,0.02086367
0.8917336,-0.4238631,0.04914291
0.8123574,-0.3819593,0.03607712
0.802627,-0.3742479,0.03461426
0.7987267,-0.3114462,0.01684847
0.7405879,-0.2275928,0.0001095899
0.7083062,-0.1590323,-0.01114127
0.6804152,-0.1346879,-0.02571614
0.7091864,-0.1796512,-0.03328951
0.7780943,-0.2301085,-0.05129843
0.8364236,-0.2822936,-0.05368887
0.9296814,-0.305461,-0.0457427
0.9852397,-0.2685172,-0.05501837
0.998613,-0.2375639,-0.04742814
1.023854,-0.2176685,-0.04101364
1.056186,-0.2108371,-0.04931193
1.107021,-0.2478273,-0.05341613
1.158276,-0.3027598,-0.06863116
1.265619,-0.3893402,-0.06459866
1.405088,-0.5348887,-0.04121954
1.430056,-0.6349037,-0.006083365
1.355248,-0.6068414,0.09346444
1.293839,-0.6148021,0.1684924
1.307345,-0.7538597,0.1028519
1.275344,-0.8008606,0.02126358
1.123425,-0.671566,0.05043206
1.013392,-0.5060922,0.1029313
0.9605084,-0.3737656,0.1366422
0.9326942,-0.3318102,0.1588398
0.9415459,-0.3430404,0.1066664
0.8995607,-0.3250475,0.05039723
0.8532208,-0.3202981,0.03983026
0.7994561,-0.3345838,0.03235822
0.6941091,-0.3335879,0.04212233
0.6825696,-0.3257522,0.0382552
0.7149035,-0.3025475,0.05838808
0.6607399,-0.2315096,0.1125642
0.6332656,-0.1607362,0.1250516
0.6624827,-0.1389465,0.1445347
0.6811027,-0.09631602,0.1782509
0.7308801,-0.07331325,0.1988878
0.8025977,-0.1151372,0.2196436
0.8351918,-0.1235353,0.2503538
0.8206914,-0.1358918,0.2920369
0.7812153,-0.1773293,0.3037983
0.7674099,-0.1690742,0.3156332
0.7842724,-0.1460342,0.3277783
0.8483316,-0.1244345,0.336416
0.9897828,-0.0985546,0.3740383
1.124015,-0.08628237,0.3680614
1.190871,-0.05541394,0.3620949
1.211143,-0.07199926,0.3971234
1.253077,-0.2228113,0.3957643
1.375137,-0.4365905,0.3694106
1.474735,-0.5311489,0.3281523
1.438392,-0.4423238,0.3003193
1.251338,-0.3562238,0.2826763
0.9670809,-0.3356701,0.2483766
0.8103691,-0.3663328,0.2362513
0.8874453,-0.5136479,0.1956991
0.9786224,-0.6027552,0.1219698
1.027846,-0.5708463,0.06666279
1.072182,-0.5282075,0.03661457
0.9678507,-0.4295713,0.05409538
0.8324848,-0.3455364,0.06693156
0.798448,-0.3458507,0.07388745
0.7607313,-0.4091666,0.08525325
0.7440678,-0.473817,0.03709331
0.7341321,-0.4105158,-0.02134726
0.7076905,-0.3119025,-0.05800335
0.6961813,-0.2514393,-0.07727931
0.6817441,-0.1491679,-0.06655422
0.699584,-0.06397037,-0.06032805
0.7304825,-0.06692446,-0.04911121
0.8283687,-0.1385495,-0.04668414
0.9981916,-0.2043076,-0.06691886
1.087218,-0.2222687,-0.07877442
1.105953,-0.2076214,-0.08493691
1.090188,-0.1801478,-0.06823637
1.083495,-0.1796724,-0.03294273
1.110998,-0.1880773,-0.01210925
1.136061,-0.2013292,-0.03023658
1.215262,-0.2398799,-0.07802204
1.286718,-0.3093828,-0.08885641
1.327161,-0.4408675,-0.06025478
1.397701,-0.5245615,-0.01531
1.420559,-0.4786745,0.04591554
1.445341,-0.4751688,0.07262438
1.486123,-0.6367901,0.02587769
1.369586,-0.7979393,-0.02312346
1.146693,-0.7655794,0.0368294
0.9950902,-0.6191903,0.1326757
0.892995,-0.4527455,0.1619026
0.840547,-0.3036546,0.1653088
0.9086254,-0.2949437,0.13036
0.9716124,-0.3329102,0.08036045
0.9397458,-0.3080066,0.06074025
0.8607973,-0.3253733,0.05263265
0.7475235,-0.333914,0.07837439
0.6869309,-0.2921494,0.09745303
0.6581774,-0.2694941,0.1048137
0.5738601,-0.2241614,0.149639
0.5392875,-0.1856786,0.1987082
0.5582212,-0.1777857,0.235637
0.5858299,-0.1732029,0.2463046
0.6736538,-0.2053436,0.25067
0.77049,-0.2171576,0.2669257
0.8413087,-0.1920985,0.259994
0.8682487,-0.1689795,0.2604856
0.8332597,-0.1478326,0.2801676
0.823886,-0.1570688,0.3220526
0.8743217,-0.1748312,0.3963409
0.9729104,-0.2015669,0.4217669
1.113945,-0.2429068,0.3825829
1.243319,-0.3104411,0.3499265
1.336438,-0.4456891,0.3155075
1.414265,-0.5375046,0.2747645
1.449975,-0.5244479,0.2856065
1.344919,-0.4367268,0.3026807
1.121399,-0.2984483,0.2643932
0.9443298,-0.2764452,0.2230912
0.8746848,-0.3777237,0.1783647
0.8711095,-0.4571898,0.1391858
0.8959839,-0.5321983,0.1429869
0.9333636,-0.5559838,0.1161976
0.9651981,-0.4959396,0.06448144
0.9463689,-0.453422,0.05463929
0.8756534,-0.3996127,0.0490654
0.8120665,-0.3247892,0.0317656
0.8086515,-0.322283,0.02793205
0.8064806,-0.3332721,0.02129392
0.7518652,-0.2849582,-0.003603813
0.7449232,-0.257458,-0.01135286
0.7513071,-0.2322213,-0.007262033
0.710865,-0.1637484,-0.01773274
0.7312174,-0.1543425,-0.009245964
0.7676478,-0.1742878,-0.009884023
0.8144014,-0.1882299,-0.03240115
0.9189814,-0.2501723,-0.04522644
0.9676298,-0.2785192,-0.06916282
1.006178,-0.2679504,-0.07491447
1.056408,-0.2464405,-0.07086773
1.034809,-0.203954,-0.08334494
1.02149,-0.1958235,-0.07588567
1.026314,-0.202843,-0.0680395
1.02186,-0.2358953,-0.05986064
1.063951,-0.3046369,-0.05077715
1.132064,-0.3282336,-0.06138418
1.180725,-0.2979856,-0.0704997
1.239525,-0.2829972,-0.07868031
1.341523,-0.3245551,-0.06751065
1.421531,-0.3524629,-0.03821366
1.42672,-0.3459514,-0.01482003
1.409856,-0.4087015,0.01297214
1.407705,-0.5714084,0.007408105
1.355682,-0.719576,-0.03041219
1.193221,-0.7191231,-0.03736717
1.002232,-0.6368562,0.005496781
0.8904795,-0.5662551,0.08218663
0.8637264,-0.4613796,0.1248249
0.8741588,-0.3752455,0.1117033
0.908094,-0.3574814,0.1026406
0.971328,-0.3525815,0.09005119
0.9823985,-0.3500463,0.06569399
0.899187,-0.3418499,0.0642618
0.7970167,-0.3198777,0.07907554
0.7470074,-0.2918608,0.1011806
0.7509857,-0.2593525,0.1212679
0.7171769,-0.2324766,0.1410054
0.6428233,-0.2116333,0.1766019
0.6285466,-0.2137679,0.1994501
0.6534965,-0.2240074,0.2009632
0.6671936,-0.2180749,0.2066211
0.694923,-0.2345713,0.2069745
0.7448912,-0.2544752,0.1996645
0.7749314,-0.249868,0.2033601
0.7667303,-0.2393926,0.2090548
0.75472,-0.205602,0.2069238
0.7584519,-0.1689625,0.2105376
0.811048,-0.1636119,0.2303745
0.9494601,-0.2071793,0.2586214
1.136324,-0.3365654,0.2591439
1.330704,-0.5212461,0.2203721
1.515098,-0.6521277,0.1920191
1.620049,-0.6504831,0.2089188
1.5825,-0.572449,0.2578139
1.42601,-0.4606996,0.3089285
1.194065,-0.3038388,0.3222907
0.9622404,-0.2487516,0.2744388
0.8085401,-0.3240465,0.2020922
0.703871,-0.3796816,0.1433362
0.6856726,-0.4445124,0.1031021
0.7942913,-0.5021581,0.08748978
0.8946769,-0.4729498,0.0570949
0.9287704,-0.4419966,0.007436663
0.9204037,-0.4147981,0.0003135247
0.8955691,-0.3691816,0.01574733
0.8946428,-0.3549761,0.01609603
0.8866894,-0.326689,0.009504189
0.890004,-0.2920934,0.0008645433
0.9032755,-0.2693166,-0.01077348
0.8972993,-0.1846841,-0.03111374
0.9020469,-0.1216815,-0.03691656
0.8814088,-0.160847,-0.03650528
0.8586676,-0.1899543,-0.06464583
0.867232,-0.1833264,-0.08178871
0.8789378,-0.1892478,-0.0609616
0.9166902,-0.1751853,-0.03766139
0.9414708,-0.1535454,-0.02930646
0.92935,-0.1509356,-0.02875465
0.9196296,-0.1436005,-0.03477915
0.9255456,-0.1447939,-0.04234721
0.9610061,-0.1487102,-0.05712337
1.01416,-0.1427593,-0.08076607
1.049026,-0.1433068,-0.07537863
1.045928,-0.1256206,-0.05955378
1.037555,-0.09941436,-0.06257353
1.049487,-0.1031463,-0.05138419
1.102296,-0.1503698,-0.05771758
1.210203,-0.235921,-0.07882982
1.306951,-0.2978237,-0.05419258
1.388806,-0.3062498,0.002325455
1.450752,-0.3003485,0.05497041
1.487278,-0.3421717,0.03442641
1.54049,-0.4927597,-0.007413596
1.452282,-0.6684993,0.04492607
1.240916,-0.6952255,0.08429161
1.124521,-0.6273996,0.07329028
1.015604,-0.6155641,0.06158679
0.9072676,-0.5857928,0.01935384
0.8816178,-0.5295632,0.01754989
0.8489998,-0.5193784,0.03719133
0.8217254,-0.456573,0.02304885
0.7797284,-0.3842017,0.03765933
0.7122025,-0.3830829,0.05230709
0.6949011,-0.3770875,0.06116772
0.6897354,-0.3757495,0.07924323
0.7042382,-0.3678185,0.08917294
0.7326907,-0.3337356,0.1154231
0.7333757,-0.2903443,0.1245021
0.73177,-0.1986209,0.141696
0.7120227,-0.1211798,0.1918852
0.7117743,-0.1304633,0.2078217
0.7558965,-0.1667881,0.228562
0.8198574,-0.1965486,0.2608306
0.8983008,-0.2514077,0.2553353
0.9383462,-0.2769621,0.2694963
0.960878,-0.2425057,0.3115634
0.9845607,-0.2471425,0.344911
1.022483,-0.2757676,0.3847263
1.151995,-0.3013767,0.4019609
1.312367,-0.3922859,0.35968
1.424252,-0.5098991,0.2703864
1.433659,-0.5735223,0.1844514
1.285588,-0.5480521,0.1766818
1.056798,-0.4469993,0.189157
0.8457458,-0.3205074,0.1526236
0.7777433,-0.2907748,0.1545911
0.8495668,-0.3888312,0.1546768
0.8966403,-0.4535692,0.102222
0.9470304,-0.5068505,0.09201937
0.9859408,-0.5449537,0.07775733
0.9306837,-0.4702747,0.04142017
0.8840714,-0.403075,0.04019247
0.8377397,-0.3405393,0.02327904
0.7754939,-0.2817203,-0.004561237
0.770833,-0.2768643,-0.01507138
0.7659729,-0.2353999,-0.01385456
0.7429398,-0.1938054,-0.01308078
0.7224342,-0.1651963,-0.02443634
0.7250769,-0.1735566,-0.01896306
0.7718138,-0.2334513,-0.01830366
0.8069875,-0.2394757,-0.03163095
0.8613248,-0.2487919,-0.03675644
0.9167363,-0.2405885,-0.05037912
0.9372499,-0.1828267,-0.05674287
1.023755,-0.1582029,-0.05325876
1.132808,-0.1245037,-0.05460105
1.194505,-0.1191724,-0.06345404
1.221839,-0.1415941,-0.07605987
1.25524,-0.1679514,-0.06998896
1.374826,-0.2943346,-0.06088769
1.475075,-0.4614193,-0.05451784
1.471773,-0.5474753,-0.03122854
1.421665,-0.508377,0.01572189
1.348489,-0.5013148,0.06861956
1.314781,-0.6853175,0.05500196
1.270231,-0.8274976,0.0031729
1.168025,-0.7741823,0.01284732
1.081576,-0.665822,0.07195604
0.9864107,-0.5376154,0.131056
0.9247674,-0.3650505,0.1246612
0.9215709,-0.2733997,0.08869252
0.910466,-0.3048804,0.1032847
0.9048252,-0.2917535,0.07991707
0.8316655,-0.2527967,0.06497792
0.7075843,-0.2587916,0.1154775
0.6522705,-0.237725,0.1211744
0.6334198,-0.2311794,0.1362624
0.6335474,-0.230454,0.1642226
0.619434,-0.2116145,0.1734239
0.5968235,-0.2021216,0.205332
0.63379,-0.180682,0.2018697
0.6827656,-0.2004144,0.2168694
0.7370494,-0.2309389,0.2468031
0.7883484,-0.2229424,0.2366846
0.8120685,-0.2179443,0.2561904
0.8390383,-0.2026279,0.2688058
0.8612328,-0.1978299,0.3061615
0.925758,-0.2055803,0.3809899
1.027836,-0.2051666,0.3813429
1.124347,-0.2220719,0.3642398
1.249716,-0.2492684,0.3769064
1.355749,-0.3314642,0.3652082
1.481689,-0.4961267,0.3208313
1.600653,-0.592313,0.2811084
1.467964,-0.5179449,0.2847478
1.193811,-0.3913402,0.2784254
0.974528,-0.2837451,0.2137022
0.7840256,-0.2289808,0.154864
0.7606116,-0.3221502,0.1377493
0.8490925,-0.4312596,0.1237581
0.8913913,-0.4523575,0.09910593
0.9520792,-0.4590478,0.06981433
0.9515802,-0.4108843,0.05540749
0.8856787,-0.3491414,0.06473014
0.822343,-0.305294,0.06159498
0.7568718,-0.2625955,0.04420001
0.7708414,-0.2768552,0.01851996
0.7812372,-0.2625413,-0.00559831
0.749402,-0.2303777,0.005157024
0.7500157,-0.2301373,0.0184164
0.747366,-0.2148286,0.01657823
0.7805018,-0.2357494,0.01497174
0.8430899,-0.2496398,-0.009368782
0.8949867,-0.2342468,-0.03683224
0.9523526,-0.2174138,-0.03726916
0.9907424,-0.1585204,-0.03574727
1.033011,-0.1152965,-0.04023037
1.083392,-0.104235,-0.03488729
1.109335,-0.103155,-0.03071027
1.118734,-0.1309461,-0.03673902
1.142825,-0.176052,-0.04909395
1.182711,-0.2142654,-0.06350847
1.240519,-0.2575512,-0.0512612
1.385909,-0.3820278,-0.01235292
1.498428,-0.4825624,0.02318803
1.444499,-0.4500776,0.04804898
1.41386,-0.5093126,0.04838417
1.424994,-0.692627,0.04683083
1.343641,-0.7440938,0.05780384
1.229334,-0.6758345,0.05783159
1.032089,-0.6027132,0.09359528
0.864853,-0.5115417,0.1433029
0.9460204,-0.4391539,0.1417198
0.9920508,-0.3690828,0.1468702
0.9561135,-0.3155067,0.1522721
1.040007,-0.3654393,0.1264105
0.9766758,-0.3873069,0.1263829
0.8131503,-0.358792,0.1338958
0.7657641,-0.3777667,0.1314268
0.7034725,-0.340444,0.1456282
0.6747967,-0.2783181,0.1496414
0.6427699,-0.2266366,0.1563732
0.5751205,-0.1653465,0.1771517
0.5946465,-0.1769977,0.1792536
0.5939395,-0.1682084,0.1832093
0.6044522,-0.1416048,0.1871251
0.6710219,-0.1595179,0.1842012
0.7050087,-0.153678,0.2119171
0.7532644,-0.1846917,0.2483471
0.7836534,-0.2084095,0.2656325
0.8060333,-0.1879867,0.2851202
0.8646247,-0.199478,0.3299369
0.9252793,-0.1965738,0.3825656
1.022008,-0.1978615,0.3937801
1.1224,-0.2325297,0.3751266
1.228052,-0.3292367,0.3479136
1.397985,-0.5083742,0.3068815
1.563083,-0.6237277,0.2919692
1.59314,-0.6133173,0.318625
1.408157,-0.5070024,0.3325877
1.127032,-0.3385574,0.2931455
0.9178692,-0.2521363,0.2240201
0.7899172,-0.2974084,0.1622975
0.7371832,-0.3519994,0.1359862
0.7627874,-0.3856751,0.1508323
0.8404931,-0.4340805,0.1463496
0.924502,-0.4409841,0.1079657
0.9365392,-0.4128499,0.07437906
0.8868751,-0.3912093,0.04240567
0.8523139,-0.3657929,0.02684108
0.7998967,-0.3479227,0.02863006
0.7283999,-0.3100462,0.02318036
0.7244012,-0.27535,0.01940861
0.7292127,-0.2571354,0.02598916
0.7038087,-0.2011239,0.03285647
0.7267487,-0.173017,0.01144713
0.7788151,-0.1906462,-0.0259143
0.846897,-0.2095772,-0.04166259
0.934552,-0.2440891,-0.04704448
0.9883757,-0.2634041,-0.04857552
1.018279,-0.2549812,-0.04471444
1.045514,-0.2360352,-0.03916325
1.059358,-0.2060505,-0.0321946
1.063112,-0.1628432,-0.02380003
1.072602,-0.1354352,-0.01157304
1.113166,-0.1576314,-0.02192636
1.184538,-0.1791792,-0.0508677
1.254902,-0.1890304,-0.06929954
1.31766,-0.2587983,-0.08319214
1.416035,-0.4048286,-0.08316322
1.488293,-0.5251772,-0.04957241
1.443205,-0.5212544,0.02224344
1.417921,-0.5367122,0.06661105
1.435132,-0.7240697,0.01475878
1.339343,-0.8885915,-0.03713839
1.207762,-0.8092817,-0.002736868
1.060916,-0.6152955,0.08273757
0.876009,-0.5161689,0.1621034
0.8607751,-0.4808923,0.1553884
0.9264796,-0.4134137,0.1273908
0.9128493,-0.3442529,0.1572837
0.9693913,-0.348514,0.1106175
0.9224536,-0.3572568,0.04780736
0.7199902,-0.3095623,0.0986887
0.6757738,-0.3207296,0.1230788
0.6553335,-0.3188923,0.1196832
0.6043081,-0.2555945,0.1511365
0.6592034,-0.2927249,0.1026873
0.6754378,-0.3198361,0.1228405
0.6438354,-0.2816176,0.1375623
0.6504007,-0.2730829,0.1855537
0.6636719,-0.2711697,0.2318067
0.6969153,-0.2609825,0.2432964
0.7510006,-0.2367984,0.2692041
0.795608,-0.1789416,0.2732052
0.8519564,-0.1639256,0.2713508
0.9125063,-0.1813679,0.296827
0.9640223,-0.1848882,0.3199941
1.008397,-0.1742575,0.3522595
1.039912,-0.1697278,0.3934972
1.102107,-0.2111553,0.4229384
1.240438,-0.3407192,0.3978483
1.408901,-0.5082908,0.323662
1.495041,-0.5257886,0.2798143
1.375549,-0.4361046,0.2917908
1.114638,-0.3698614,0.3099717
0.918359,-0.2630354,0.2604317
0.8561672,-0.2613638,0.1798034
0.8980126,-0.3909972,0.1297704
0.93424,-0.4395241,0.1021765
0.9462614,-0.4739646,0.1198995
0.9866511,-0.4606883,0.1197638
0.9408362,-0.3697972,0.08113996
0.8693947,-0.3408396,0.06546579
0.839905,-0.2942473,0.03694847
0.7615813,-0.2787604,0.01692202
0.721846,-0.3056861,-0.001414184
0.7200692,-0.2826647,-0.0320012
0.7147023,-0.3100575,-0.02253115
0.7142833,-0.3007816,-0.02488125
0.6852156,-0.2574303,-0.01961195
0.6972492,-0.2676017,0.004943416
0.7379428,-0.2535326,-0.02030528
0.8042161,-0.2646401,-0.03961657
0.8884864,-0.255995,-0.04115309
0.9144768,-0.2170325,-0.05421462
0.9589635,-0.2137983,-0.05118286
1.019437,-0.1905108,-0.04156949
1.065768,-0.1740319,-0.03358001
1.121518,-0.1444013,-0.0214155
1.156202,-0.1284908,-0.009183141
1.203573,-0.1539847,-0.0171787
1.259894,-0.1495003,-0.0480281
1.348355,-0.2162562,-0.06790604
1.478615,-0.3666343,-0.06712713
1.555047,-0.5003395,-0.05042382
1.569301,-0.5662451,-0.02334605
1.528179,-0.5758074,0.0004142728
1.447849,-0.6780159,0.002851275
1.324204,-0.7844622,-0.005296097
1.12647,-0.7379282,0.01702272
0.9797258,-0.667378,0.0519658
0.9750886,-0.6176393,0.07386439
0.9926513,-0.539431,0.08968771
0.9017306,-0.3980634,0.1032129
0.8187,-0.2173914,0.1318994
0.8526714,-0.2220271,0.1322427
0.8431504,-0.3524084,0.08510977
0.7638289,-0.3393707,0.06286069
0.7185538,-0.3223846,0.07225674
0.671332,-0.3429938,0.09309687
0.5770856,-0.2948974,0.1313513
0.5051051,-0.3013925,0.1719624
0.5517307,-0.2780929,0.197143
0.6137274,-0.195266,0.223323
0.6341385,-0.1735418,0.2525773
0.6993832,-0.1652371,0.2368707
0.7653999,-0.1761724,0.2341772
0.8204132,-0.1726496,0.2804333
0.8385421,-0.1681784,0.2954374
0.8244607,-0.1668443,0.3095465
0.8761699,-0.1148672,0.3451938
0.9281198,-0.1277689,0.3939823
0.9960271,-0.161876,0.4599126
1.144131,-0.2161868,0.484522
1.336596,-0.3809338,0.4575385
1.540498,-0.5083424,0.3544978
1.597455,-0.5389901,0.2526392
1.480845,-0.5115122,0.2942433
1.244784,-0.4017537,0.338584
0.9328235,-0.2598294,0.2773635
0.8362451,-0.2958146,0.2123373
0.8936511,-0.4496565,0.1331858
0.8503579,-0.4696414,0.06672847
0.8899336,-0.4979034,0.101316
0.93884,-0.5068786,0.1063305
0.8789649,-0.4229449,0.06086962
0.8990599,-0.3987955,0.07145634
0.8638483,-0.3354621,0.04438938
0.785759,-0.3173145,0.01416056
0.7858369,-0.3389366,0.02994423
0.7281901,-0.2706128,-0.005538448
0.7063333,-0.2530977,-0.03415278
0.7146585,-0.215031,-0.02975046
0.6988249,-0.1945968,-0.0142457
0.735673,-0.2399768,0.009849504
0.7658309,-0.2502136,0.0005584513
0.8323977,-0.2900585,-0.007444019
0.9405096,-0.2718445,-0.02567058
1.038453,-0.2222826,-0.05709985
1.051866,-0.1965594,-0.04052018
0.9855101,-0.1349688,-0.01011501
1.029065,-0.1421561,-0.0003251866
1.055035,-0.178563,-0.005909955
1.075,-0.2221752,-0.02805577
1.254432,-0.2997927,-0.05427512
1.397217,-0.3756783,-0.06720481
1.487898,-0.461109,-0.05830769
1.504821,-0.4501473,-0.03893694
1.441963,-0.427071,-0.02373003
1.434764,-0.5329331,-0.02368637
1.362624,-0.6534818,-0.02837131
1.300866,-0.7236024,-0.02159215
1.230996,-0.6976279,-0.004352557
1.037825,-0.649515,0.0466786
1.007218,-0.6535026,0.1078272
0.9981458,-0.5422061,0.1271901
0.8450924,-0.3622888,0.1580818
0.8669895,-0.2990815,0.1867909
0.9244749,-0.3415111,0.1393293
0.8587458,-0.3802257,0.09548554
0.8635885,-0.3592137,0.08855602
0.8153322,-0.3617164,0.09636103
0.6956054,-0.3535305,0.1348551
0.6946676,-0.2979259,0.1457418
0.6851175,-0.2746953,0.1633365
0.617395,-0.2346998,0.2043117
0.5947089,-0.2079254,0.1936126
0.5896069,-0.2011776,0.1927406
0.6017685,-0.1597311,0.2094369
0.633573,-0.1506602,0.2155027
0.6773742,-0.1418435,0.2367833
0.7183485,-0.1333291,0.2465867
0.7284197,-0.1395029,0.273811
0.7517989,-0.1259085,0.3099135
0.8105725,-0.1384255,0.3347
0.9051879,-0.144284,0.3857321
1.035172,-0.1574602,0.4021056
1.1969,-0.2246509,0.3801454
1.351156,-0.319072,0.3806614
1.435203,-0.4457144,0.3654576
1.5515,-0.5369572,0.3333579
1.632198,-0.5233235,0.3294304
1.459055,-0.4285128,0.3319326
1.201814,-0.322607,0.303326
0.9849377,-0.2826493,0.2276138
0.8049078,-0.3287483,0.1381608
0.8014532,-0.4226723,0.1137565
0.8695829,-0.5007921,0.1249341
0.9191516,-0.5304193,0.1015202
0.9820821,-0.493852,0.0785301
0.9693305,-0.4412521,0.05733765
0.9214599,-0.4070248,0.03230353
0.8603244,-0.3558155,0.04104072
0.7842514,-0.3542921,0.04195161
0.7693307,-0.3597213,0.018808
0.7611617,-0.3058008,0.003183082
0.7397887,-0.2607615,-0.01643859
0.734172,-0.2028394,-0.01867691
0.7298314,-0.1825572,0.002391969
0.7498959,-0.2154395,0.008699862
0.8017538,-0.2206161,-0.002200348
0.8640369,-0.2381834,-0.0226892
0.905878,-0.253601,-0.03708406
0.932894,-0.238012,-0.0399038
0.9587686,-0.2064673,-0.04318469
0.9765896,-0.1710167,-0.04932596
1.016625,-0.1657851,-0.0625404
1.064361,-0.1771538,-0.0578935
1.10553,-0.1960139,-0.03478536
1.160039,-0.2109711,-0.02206978
1.202857,-0.2314878,-0.0101334
1.254265,-0.3037727,0.001258209
1.30531,-0.4059547,0.0210314
1.301319,-0.4617445,0.0507337
1.286191,-0.4566857,0.06258382
1.285628,-0.551151,0.04404161
1.279274,-0.7594771,-0.008246592
1.252697,-0.8148686,-0.02768537
1.187949,-0.7017974,0.03309781
1.117121,-0.6050204,0.1113417
1.04322,-0.516893,0.1600085
0.9583251,-0.4284079,0.167754
0.9294191,-0.3999065,0.1353559
0.9609614,-0.3875782,0.07120133
0.9637946,-0.3706727,0.01998514
0.8959442,-0.3837933,0.0267194
0.7868026,-0.3900151,0.04151221
0.6950963,-0.3845916,0.05041387
0.6767174,-0.3715611,0.07762934
0.6924691,-0.3092939,0.09027482
0.6819831,-0.2295217,0.10145
0.6875468,-0.1615729,0.1329353
0.7144842,-0.1106558,0.1565109
0.7334787,-0.1064166,0.1818242
0.7588438,-0.125589,0.2175862
0.7684424,-0.1388824,0.232139
0.7634008,-0.1679866,0.2489936
0.7673494,-0.2374178,0.290285
0.768276,-0.2922798,0.308861
0.7749552,-0.2807789,0.297783
0.8005265,-0.2787757,0.2943861
0.8478173,-0.2806957,0.3019796
0.9056889,-0.2230155,0.2992069
0.950164,-0.1773389,0.3010411
0.9769348,-0.1535703,0.3196592
0.993887,-0.1302907,0.3264432
1.018568,-0.1436781,0.3259118
1.060536,-0.1712325,0.3212179
1.137593,-0.2597394,0.3045918
1.262634,-0.3864179,0.2883171
1.379441,-0.3819765,0.2820655
1.424823,-0.3112363,0.2959343
1.353822,-0.2969658,0.3168367
1.185576,-0.2798299,0.3422693
1.073657,-0.2871139,0.3450599
1.072609,-0.3719007,0.2911652
1.045015,-0.4794703,0.2304559
0.936759,-0.5423666,0.1939513
0.8446599,-0.5323213,0.188006
0.8135309,-0.5116353,0.17993
0.7944094,-0.4879618,0.1287396
0.7870338,-0.4191499,0.09234763
0.7992426,-0.3550197,0.07846407
0.8039849,-0.2976784,0.06664766
0.814282,-0.2598719,0.05289478
0.8254323,-0.2576209,0.007613904
0.8312976,-0.2327947,-0.0323074
0.842359,-0.2218132,-0.05620484
0.8479953,-0.2313231,-0.07401033
0.8481283,-0.230162,-0.07037545
0.8443015,-0.2488105,-0.04840516
0.862846,-0.2542175,-0.007878141
0.911272,-0.2351448,-0.00743027
0.9632376,-0.2220532,-0.03244908
1.012979,-0.2238776,-0.03179836
1.046206,-0.231993,-0.06414338
1.066287,-0.2249606,-0.08818652
1.061229,-0.220142,-0.07032805
1.018258,-0.2041263,-0.06200693
0.9820488,-0.1806541,-0.0417649
0.9773923,-0.1920467,-0.03312073
0.9987342,-0.1960638,-0.04925877
1.019581,-0.1731527,-0.04975472
1.047304,-0.1473734,-0.04830641
1.104148,-0.1293636,-0.04948572
1.158362,-0.153098,-0.05271299
1.226521,-0.2085128,-0.06062481
1.305116,-0.2895731,-0.06691153
1.338405,-0.4003093,-0.06923548
1.338352,-0.4402901,-0.04207302
1.363678,-0.4246662,0.02008763
1.464783,-0.5198948,0.0730772
1.530587,-0.6318995,0.0615111
1.369448,-0.591606,0.02091071
1.087628,-0.5497484,0.02441214
0.9646658,-0.5603784,0.04276146
0.9410629,-0.4613102,0.09412209
0.8400827,-0.3527988,0.167641
0.8432101,-0.3688802,0.1433717
0.9750031,-0.3670868,0.09848076
1.011475,-0.3109543,0.1013343
1.017216,-0.3079001,0.07812591
0.9904267,-0.3153587,0.08759657
0.8329773,-0.2874124,0.1262147
0.679954,-0.2768765,0.1354668
0.6536115,-0.2721945,0.1428405
0.7008985,-0.2491678,0.1370736
0.6687621,-0.2142899,0.155556
0.6387127,-0.1710873,0.1893431
0.6823504,-0.153085,0.1928529
0.6499526,-0.1297075,0.2161453
0.6521393,-0.1075728,0.224661
0.6930189,-0.1340831,0.2236875
0.6911659,-0.1363291,0.2598682
0.74392,-0.142418,0.2657538
0.7513926,-0.175313,0.2698827
0.7707123,-0.1656809,0.3113529
0.8787879,-0.1807455,0.3537751
0.9904315,-0.2144449,0.4079853
1.170085,-0.2471366,0.4446618
1.348508,-0.3583659,0.429679
1.467369,-0.4792314,0.3507717
1.53352,-0.5095066,0.2560177
1.495608,-0.4780266,0.2760859
1.337048,-0.3980184,0.3282328
1.058307,-0.2542835,0.2983259
0.9112884,-0.2243634,0.266235
0.9266279,-0.364192,0.1810222
0.8695136,-0.4497042,0.08229632
0.8993334,-0.5091007,0.1106848
0.9939617,-0.5594654,0.124887
0.9641581,-0.4951941,0.09616023
0.9340172,-0.4216954,0.1071057
0.8938012,-0.3585635,0.0799048
0.8389001,-0.3136817,0.04419763
0.830939,-0.3130421,0.03313354
0.7936581,-0.2956817,0.01210271
0.7748879,-0.2732981,-0.004987948
0.782426,-0.2326497,-0.03191401
0.7692471,-0.2074924,-0.03939889
0.7731369,-0.2067091,-0.01247622
0.7590709,-0.1955838,-0.005145754
0.752289,-0.2461396,-0.01326849
0.7933362,-0.3159867,-0.02363822
0.8512516,-0.332851,-0.04576595
0.9192729,-0.3083121,-0.0610682
0.9526112,-0.2551871,-0.05865546
0.9504403,-0.2115419,-0.05115202
0.9578955,-0.1884969,-0.0428202
0.995896,-0.2008591,-0.02695909
1.065196,-0.2247382,-0.01010726
1.111166,-0.2379413,-0.002568535
1.160188,-0.2923471,0.005221056
1.280922,-0.3935141,0.01657821
1.3862,-0.4888948,0.01859621
1.377559,-0.475258,0.01876284
1.343395,-0.452533,0.01972542
1.35917,-0.6133019,-0.006166353
1.32784,-0.7645499,-0.04511348
1.21777,-0.756311,-0.04177686
1.070434,-0.6930644,0.01804325
0.9478247,-0.6150087,0.0914828
0.9225028,-0.5340077,0.1185636
0.9007589,-0.440841,0.1093444
0.8959407,-0.3944522,0.1063225
0.9549995,-0.3690997,0.07939426
0.9428088,-0.2952471,0.04472831
0.9109606,-0.3011524,0.05995567
0.836587,-0.3122536,0.0857728
0.6788642,-0.2642968,0.1016146
0.6625051,-0.2887672,0.1236456
0.7049967,-0.2961512,0.1278952
0.6605494,-0.26548,0.1370469
0.651617,-0.263594,0.1678825
0.673451,-0.2427347,0.1857295
0.6827154,-0.2246843,0.2072445
0.6976852,-0.2128804,0.2392955
0.7290196,-0.2067236,0.2478977
0.7785245,-0.2221905,0.2440135
0.8123373,-0.2351508,0.2389124
0.8336037,-0.2603022,0.2274685
0.861383,-0.2705039,0.221292
0.8781369,-0.2415781,0.2204131
0.8847164,-0.224854,0.2260702
0.9302596,-0.2480537,0.2467037
1.037856,-0.3328328,0.2701108
1.203672,-0.4971087,0.282685
1.429749,-0.6676075,0.2977313
1.623029,-0.7142866,0.3116721
1.640797,-0.639181,0.3077945
1.440756,-0.5192988,0.3236308
1.179254,-0.3696571,0.3482311
1.047747,-0.3171986,0.3094423
0.9200954,-0.4037361,0.2305102
0.7334206,-0.4477888,0.1747185
0.7482028,-0.4733343,0.1647301
0.8719609,-0.5376145,0.1624403
0.868177,-0.5217749,0.1160657
0.8647579,-0.4653045,0.0673111
0.8608758,-0.4333689,0.03663935
0.8156742,-0.4150441,0.01995107
0.8241476,-0.4164778,0.02597852
0.8319159,-0.3788707,0.007561059
0.8430632,-0.3185863,-0.02586742
0.8441534,-0.2726997,-0.06245057
0.8060983,-0.2303393,-0.0784778
0.8093394,-0.2312107,-0.03285791
0.8117663,-0.2448316,-0.01831577
0.8300539,-0.2528809,-0.03454194
0.8755116,-0.2655791,-0.04641761
0.8994655,-0.2529193,-0.09374448
0.9612408,-0.2464659,-0.104056
0.9995689,-0.2365351,-0.08022105
0.9770801,-0.2051976,-0.0699015
0.9599999,-0.1897026,-0.05880981
0.9572864,-0.1868139,-0.059498
0.9785227,-0.1884281,-0.05738128
1.011135,-0.1852046,-0.06123784
1.029176,-0.1698784,-0.05908163
1.002793,-0.1330276,-0.0341002
0.9724146,-0.08904078,-0.02101258
0.9866548,-0.08698094,-0.02252313
1.018735,-0.09819568,-0.04001509
1.097579,-0.1059343,-0.05861139
1.193019,-0.1493747,-0.07874107
1.242006,-0.2063223,-0.09194063
1.293484,-0.2738564,-0.06853668
1.376101,-0.3521439,-0.03246504
1.430336,-0.3600321,0.04005302
1.467007,-0.3775555,0.1021598
1.542107,-0.565554,0.08054121
1.469003,-0.738351,0.07811786
1.202283,-0.707454,0.1238832
1.011957,-0.6267844,0.1556064
0.9503815,-0.588631,0.1549874
0.9769468,-0.5583545,0.09760062
0.9881969,-0.5325737,0.04190359
0.9118504,-0.4931796,0.05279508
0.8890997,-0.4485549,0.06669018
0.8434579,-0.4112858,0.04424747
0.7716679,-0.3798306,0.03867372
0.7456854,-0.3760991,0.04572691
0.6682227,-0.3926697,0.03336133
0.6467481,-0.3991843,0.03750742
0.6626089,-0.4060321,0.071422
0.658158,-0.4070455,0.1193828
0.7000307,-0.3678517,0.1537791
0.7154431,-0.3016896,0.161946
0.7558031,-0.2368521,0.1856303
0.7990716,-0.1765626,0.2067274
0.8084837,-0.1269888,0.2196696
0.8716151,-0.1344324,0.2522195
0.9093653,-0.1904901,0.2549899
0.9250736,-0.2199869,0.2510313
0.9427241,-0.2293998,0.283001
0.9386346,-0.2304563,0.3237847
0.9719105,-0.2461976,0.379656
1.030433,-0.3151967,0.4191778
1.126327,-0.4014822,0.4084879
1.279953,-0.5093116,0.3584932
1.423369,-0.5924489,0.2673484
1.415448,-0.585118,0.2001577
1.201096,-0.4902828,0.2217247
0.9600698,-0.343558,0.2435199
0.8386215,-0.3395962,0.2046351
0.8431443,-0.4507527,0.1839054
0.895336,-0.4984374,0.1629311
0.9402881,-0.5592214,0.1140176
0.9903902,-0.5529698,0.08767795
0.9746649,-0.4629503,0.04743019
0.9271204,-0.4207879,0.02701902
0.8928046,-0.3589434,0.03337227
0.8149694,-0.3398127,0.008445947
0.7692501,-0.3485803,0.01786663
0.7616491,-0.330321,0.02438022
0.7321485,-0.364285,0.006627013
0.6984181,-0.3288853,0.01690801
0.6772699,-0.2661573,0.007972284
0.6830223,-0.2580093,0.002962066
0.7026059,-0.23433,-0.008410853
0.7619355,-0.2710667,-0.04290827
0.8299996,-0.3075499,-0.0419308
0.8741376,-0.2949453,-0.04278658
0.9451667,-0.283509,-0.04803903
0.9808107,-0.2395686,-0.03427787
0.9835123,-0.2116787,-0.0247142
1.007571,-0.1893025,-0.000280046
1.032476,-0.1672297,0.02884369
1.102923,-0.1940596,0.03258025
1.223391,-0.2382425,0.02895372
1.329339,-0.3171571,0.02136439
1.359874,-0.3964917,-0.00164291
1.344022,-0.4277567,-0.003562461
1.371103,-0.4744299,-0.004111511
1.41774,-0.5420311,-0.04794533
1.429534,-0.6303377,-0.09382334
1.388166,-0.738583,-0.1304409
1.282826,-0.729635,-0.09166662
1.130253,-0.6218499,0.0323303
1.027693,-0.5369442,0.08878401
1.01518,-0.4037757,0.1006899
0.9898213,-0.3057307,0.09051224
0.9729839,-0.3017261,0.0388811
0.9489383,-0.2695285,0.0484983
0.8219916,-0.2799986,0.05596022
0.6968447,-0.2978067,0.0411874
0.6543065,-0.3020857,0.06572872
0.6828814,-0.3701849,0.07394738
0.7024073,-0.3713947,0.1068755
0.6571666,-0.3340978,0.1525054
0.6350346,-0.3142004,0.1687263
0.6175507,-0.2686073,0.2031017
0.6239059,-0.2573973,0.2253798
0.6934943,-0.267662,0.2375357
0.7606813,-0.3003238,0.2543374
0.8682375,-0.3345466,0.2615691
0.9454323,-0.3152464,0.2719351
0.9352133,-0.2713665,0.2800336
0.9398156,-0.1862171,0.3113285
0.945519,-0.1174977,0.3661922
0.986065,-0.1715695,0.4134037
1.087227,-0.2872961,0.435348
1.219506,-0.4124099,0.3823823
1.414131,-0.5394023,0.2821961
1.517027,-0.5351769,0.2474188
1.377063,-0.4333291,0.2714119
1.152533,-0.3485547,0.2664878
1.027835,-0.2252553,0.246341
0.9548706,-0.2541422,0.2151859
0.8664702,-0.4095371,0.1519386
0.8695202,-0.4147398,0.1302609
0.9585219,-0.4800419,0.1252033
0.9720116,-0.5718356,0.07629332
0.9344767,-0.513757,0.0733804
0.8723747,-0.4653312,0.09654595
0.7287971,-0.371126,0.0708626
0.6688029,-0.2919057,0.061773
0.7279293,-0.3017445,0.04179365
0.7461043,-0.2514234,-0.03036145
0.7623925,-0.2089464,-0.05988521
0.7705137,-0.2175303,-0.03920003
0.7447411,-0.2027919,-0.02753367
0.7544875,-0.1918927,-0.01974575
0.7750606,-0.2441308,-0.003711048
0.8359079,-0.3156816,-0.0153938
0.9393601,-0.3441221,-0.05263228
0.9913881,-0.3359962,-0.05181276
1.014984,-0.2930434,-0.04409033
1.040938,-0.257922,-0.04942184
1.035196,-0.2144216,-0.02576236
1.020931,-0.1854392,-0.0007967799
1.03243,-0.220461,0.01555494
1.09117,-0.2309514,0.01833273
1.228072,-0.258419,0.003957447
1.373,-0.3401941,-0.01963778
1.436065,-0.4461577,-0.06280502
1.42417,-0.5352148,-0.06246527
1.35171,-0.5069506,-0.007445369
1.286275,-0.5413958,0.01993034
1.288251,-0.7256744,-0.0109025
1.258474,-0.8015957,-0.04519027
1.126303,-0.7114317,-0.006745351
1.005618,-0.5930472,0.05741932
0.9784336,-0.5198476,0.09462615
0.9491229,-0.4394141,0.1142383
0.8937134,-0.3565238,0.1000508
0.8978474,-0.355743,0.09289765
0.8865939,-0.3482117,0.08629096
0.7991387,-0.3041332,0.06671113
0.7365326,-0.3044336,0.08454113
0.7067986,-0.3206411,0.09285912
0.6978014,-0.3334475,0.09275618
0.7199559,-0.3266333,0.1150646
0.7007031,-0.2945319,0.135807
0.6701495,-0.2692365,0.1855617
0.6611414,-0.2442376,0.2261574
0.660106,-0.2333767,0.2275639
0.7137064,-0.2322098,0.2382084
0.7620226,-0.2330493,0.2460162
0.7843124,-0.2539576,0.2425856
0.8101782,-0.2581812,0.2445712
0.8110115,-0.2421318,0.2615984
0.8417588,-0.2212573,0.292422
0.8910672,-0.1970369,0.3193685
0.9453395,-0.1966093,0.3485671
1.053366,-0.1937891,0.3860683
1.138067,-0.2157799,0.3918663
1.243449,-0.3495466,0.3505046
1.477004,-0.4931226,0.3253298
1.59533,-0.4838612,0.3244112
1.446765,-0.4100917,0.3262321
1.252006,-0.3599899,0.3522287
1.079833,-0.2649377,0.3577605
0.9979937,-0.2617234,0.3030706
0.9838115,-0.3547231,0.2086409
0.8516771,-0.3706396,0.1430834
0.8544766,-0.463589,0.1450421
0.9380321,-0.5319718,0.137038
0.8895066,-0.4355919,0.1095454
0.9441375,-0.4235189,0.08900012
0.9227964,-0.4015237,0.0613192
0.8387658,-0.32447,0.04594144
0.8513649,-0.3269966,0.03851053
0.761371,-0.3023305,0.0406795
0.7431537,-0.2874155,0.03222308
0.7585292,-0.2966178,0.008834804
0.7262129,-0.2822803,-0.001411481
0.790768,-0.2831425,-0.02556362
0.8021611,-0.2747638,-0.03191886
0.8144088,-0.2759024,-0.02127853
0.843977,-0.2877731,-0.03164397
0.8488583,-0.3048353,-0.03436895
0.9104565,-0.3210574,-0.0487931
0.9288224,-0.3098328,-0.05781521
0.9504666,-0.3019475,-0.05021132
0.9686647,-0.2804056,-0.0600218
0.9499041,-0.2492163,-0.05759122
0.9840183,-0.2466498,-0.04705725
0.9904907,-0.2578908,-0.03599616
1.00727,-0.2632825,-0.02302406
1.087604,-0.2579072,-0.02946461
1.171237,-0.265683,-0.04578887
1.258992,-0.3040888,-0.06464304
1.341181,-0.3779002,-0.05567415
1.426469,-0.4305677,-0.01150634
1.450778,-0.4194178,0.02270185
1.436571,-0.4798338,0.01426013
1.448333,-0.647434,-0.04932553
1.346678,-0.7397858,-0.09083271
1.165975,-0.7078012,-0.03040834
1.045028,-0.6613166,0.06615373
0.9801308,-0.6033962,0.1171347
0.9502856,-0.486385,0.1336184
0.9232639,-0.3907131,0.130592
0.9343023,-0.3528997,0.1055292
0.9526249,-0.3123043,0.08251632
0.9030471,-0.2878653,0.06646625
0.8053289,-0.2835293,0.06591423
0.6693878,-0.2767299,0.08158369
0.6249653,-0.2878052,0.08182429
0.6735747,-0.2985424,0.0972067
0.6502102,-0.3058655,0.1299688
0.6351331,-0.3082452,0.1508993
0.6370414,-0.2681153,0.1856775
0.6034024,-0.2114576,0.2174875
0.6316241,-0.1891909,0.233873
0.6795952,-0.1893843,0.2521772
0.7334088,-0.1906461,0.2668771
0.8167071,-0.2137927,0.2714335
0.8555664,-0.2448935,0.2695703
0.8797372,-0.249387,0.2722007
0.8978736,-0.2241495,0.2607783
0.8911155,-0.170224,0.2501697
0.9057093,-0.1314173,0.2683505
0.9394347,-0.1352935,0.2929066
1.002081,-0.2074694,0.329596
1.12278,-0.3830632,0.3655924
1.297601,-0.5387632,0.3588341
1.455347,-0.557517,0.3073515
1.499376,-0.5023393,0.2640397
1.439906,-0.4255959,0.2852621
1.299163,-0.3334562,0.3190732
1.095357,-0.3257431,0.3116301
0.9574222,-0.4285103,0.2778691
0.9335368,-0.5178814,0.2162696
0.8923716,-0.5961385,0.1692331
0.8318118,-0.6517738,0.1685541
0.8350149,-0.6287551,0.1672898
0.8242672,-0.5870908,0.1470623
0.7999442,-0.5053511,0.1096131
0.8094711,-0.4505374,0.07842252
0.8063737,-0.4499014,0.07177581
0.8123655,-0.3710433,0.04619075
0.8234495,-0.3331083,0.02709718
0.8265869,-0.3505089,0.02745302
0.8297275,-0.3133831,0.004848853
