accx,accy,accz
0.7576241,-0.07706796,-0.563678
0.7854119,-0.07630193,-0.5690921
0.844064,-0.09033244,-0.5159794
0.895641,-0.09941901,-0.5190824
0.840338,-0.1163923,-0.5182794
0.7973515,-0.181556,-0.5263052
0.7674858,-0.2602064,-0.4924874
0.7583775,-0.299195,-0.3927227
0.7727225,-0.2756521,-0.3571726
0.7211667,-0.2311758,-0.3534823
0.676122,-0.1659131,-0.373217
0.6476427,-0.06913261,-0.3880569
0.6304546,-0.06397917,-0.3701361
0.6848441,-0.1243939,-0.3731317
0.7355556,-0.1663702,-0.3454474
0.7700324,-0.2119463,-0.3237441
0.7942488,-0.2129877,-0.3185553
0.7980278,-0.2080258,-0.2827435
0.8796799,-0.2355151,-0.2775562
1.027916,-0.2369676,-0.3033919
1.147261,-0.2239404,-0.3336496
1.190425,-0.2001555,-0.3377812
1.187954,-0.1888284,-0.3399647
1.216134,-0.2293462,-0.4179235
1.250741,-0.3085183,-0.5406661
1.292643,-0.4058534,-0.6474208
1.309304,-0.4347802,-0.7167933
1.121264,-0.3195941,-0.7376566
0.7922345,-0.1690333,-0.6521561
0.6316476,-0.1529314,-0.5437823
0.6799603,-0.2319446,-0.5851955
0.7674215,-0.280984,-0.6403606
0.877177,-0.3009096,-0.6251608
0.9425023,-0.2893861,-0.6254623
0.892694,-0.2601676,-0.580695
0.8567818,-0.2280607,-0.5235457
0.8215837,-0.1592578,-0.4860408
0.78088,-0.110786,-0.4462352
0.8072893,-0.07720577,-0.4610263
0.7983102,-0.02899217,-0.4630939
0.7701711,-0.03350716,-0.4444245
0.736441,-0.04366793,-0.4299858
0.6514907,-0.04291551,-0.3520943
0.6288518,-0.07476281,-0.2933366
0.6490291,-0.08911238,-0.2950453
0.675476,-0.09822568,-0.3217449
0.7398281,-0.1155582,-0.3730596
0.7652866,-0.115491,-0.3857992
0.7784814,-0.09963094,-0.3688476
0.8416185,-0.05823762,-0.355205
0.9327585,-0.02105221,-0.3462383
1.043499,0.007219629,-0.3674307
1.147552,0.02741769,-0.4012795
1.231472,0.003556431,-0.4325856
1.300586,-0.05607058,-0.4686385
1.326272,-0.1380209,-0.5456607
1.299281,-0.1644542,-0.6655331
1.257387,-0.1048657,-0.7680709
1.177224,-0.09990899,-0.8473967
1.022629,-0.1840505,-0.8702982
0.8788615,-0.2481704,-0.7913663
0.7839274,-0.2197548,-0.6833739
0.7183918,-0.1386052,-0.6260497
0.7230044,-0.08210375,-0.6076178
0.7629779,-0.04350241,-0.5868214
0.8132859,-0.04833745,-0.550556
0.8844018,-0.08235842,-0.508816
0.8863074,-0.09370911,-0.4934297
0.8347615,-0.1424006,-0.4985622
0.8082904,-0.1918635,-0.4805506
0.7695752,-0.2043667,-0.4569774
0.7365071,-0.2173513,-0.432829
0.7217891,-0.1965916,-0.387308
0.685656,-0.1652984,-0.3545691
0.6740097,-0.1428224,-0.3556813
0.6831359,-0.1253318,-0.3636594
0.667432,-0.1176164,-0.3477405
0.6742173,-0.1128419,-0.3411993
0.7308779,-0.1544906,-0.3559327
0.8126068,-0.2173631,-0.3439753
0.8723817,-0.2574241,-0.3395398
0.8868688,-0.2508126,-0.334291
0.9569993,-0.2160313,-0.3016407
1.067849,-0.2211403,-0.2991132
1.074858,-0.207313,-0.3003253
1.082189,-0.1906327,-0.2968595
1.162895,-0.2061244,-0.3214297
1.19544,-0.2046972,-0.3772307
1.232487,-0.2743598,-0.4870998
1.317406,-0.3801987,-0.590137
1.352504,-0.4116556,-0.6257989
1.249692,-0.3716654,-0.6072899
0.9111539,-0.2543235,-0.575021
0.5712602,-0.1683583,-0.5729566
0.6445607,-0.2208826,-0.5792863
0.8204623,-0.3184522,-0.6067571
0.766872,-0.3306181,-0.6498119
0.8711359,-0.3110029,-0.6412344
0.9622941,-0.2997186,-0.6064492
0.8253097,-0.2223721,-0.5716001
0.8585207,-0.169192,-0.5418912
0.8510593,-0.1394993,-0.5303037
0.7828881,-0.07881496,-0.5214045
0.8498905,-0.07750752,-0.531756
0.7925338,-0.07880595,-0.5385201
0.7801627,-0.0757391,-0.5086364
0.7801108,-0.09398003,-0.4644628
0.6810042,-0.08419964,-0.4139287
0.674631,-0.08450059,-0.3792584
0.6455373,-0.07972545,-0.3644318
0.6788201,-0.08650419,-0.3572871
0.7486854,-0.1141155,-0.3718381
0.7338401,-0.1156676,-0.3895386
0.7605361,-0.1153043,-0.3954852
0.7789639,-0.08880008,-0.3864933
0.852727,-0.04175287,-0.3682183
0.9557048,-0.01291169,-0.3696297
1.010064,-0.000194184,-0.3771423
1.099535,-0.02474288,-0.3918839
1.17092,-0.07794559,-0.4436779
1.243197,-0.1291066,-0.5152996
1.258003,-0.1297405,-0.6223363
1.236333,-0.08077936,-0.7860504
1.280361,-0.07100452,-0.888232
1.175157,-0.1394135,-0.8540354
0.9786147,-0.2265687,-0.8021815
0.8747058,-0.2296582,-0.7443797
0.7766162,-0.1702183,-0.658903
0.7281022,-0.1318657,-0.6715002
0.7480917,-0.09516171,-0.6878954
0.7724865,-0.08701197,-0.6158339
0.8186064,-0.109803,-0.5732285
0.8553904,-0.1077659,-0.5250626
0.8502887,-0.1215017,-0.5045743
0.8249985,-0.1466348,-0.5359425
0.8026479,-0.1670136,-0.4919383
0.7861151,-0.1987429,-0.4401246
0.7712398,-0.2006328,-0.3978105
0.7420664,-0.188717,-0.3537144
0.6972138,-0.1743,-0.3723618
0.6769247,-0.1446816,-0.3613988
0.6778977,-0.1423355,-0.3370246
0.6802853,-0.1628173,-0.3476617
0.6860365,-0.176443,-0.3428061
0.6975587,-0.1804492,-0.3481112
0.7414278,-0.1948686,-0.3412512
0.7931795,-0.2182034,-0.314401
0.8137561,-0.2038365,-0.2994653
0.86215,-0.179406,-0.295719
0.9743329,-0.1811492,-0.3103326
1.077755,-0.1730805,-0.3143742
1.142646,-0.1609396,-0.3141685
1.190138,-0.1619678,-0.3327692
1.21957,-0.1821621,-0.4038203
1.289178,-0.2668563,-0.5594555
1.390463,-0.3957785,-0.6808709
1.407247,-0.4441232,-0.7192167
1.234885,-0.3545374,-0.7395629
0.880284,-0.2479812,-0.6742032
0.650356,-0.2415841,-0.5697547
0.6854071,-0.2996592,-0.5925439
0.7541748,-0.3599755,-0.6565418
0.8191556,-0.3706298,-0.6558173
0.8685638,-0.323172,-0.6307985
0.8355778,-0.2852801,-0.5758552
0.8050556,-0.2565336,-0.5271301
0.7737533,-0.2127388,-0.477676
0.752915,-0.1535591,-0.4251544
0.7861093,-0.07668567,-0.477056
0.8104022,-0.02737773,-0.5246668
0.8123018,-0.01490671,-0.4999818
0.7949831,-0.02758329,-0.4977309
0.7441749,-0.06210938,-0.4482382
0.7004844,-0.08913906,-0.3774123
0.7029044,-0.1033075,-0.353738
0.7313388,-0.1049032,-0.3387152
0.7508334,-0.1058132,-0.3667393
0.7656994,-0.09509746,-0.41764
0.7736645,-0.05337261,-0.4310237
0.7586984,-0.01614608,-0.4068818
0.7433407,0.002326593,-0.3812918
0.7573532,0.0007808269,-0.3705623
0.8084909,0.007026279,-0.3463378
0.9128937,0.03556691,-0.3473406
1.038724,0.03938772,-0.3754933
1.094299,0.0200918,-0.3790772
1.101127,-0.02744241,-0.3828882
1.157029,-0.06730881,-0.3882957
1.238547,-0.03322291,-0.4274619
1.281505,0.008407367,-0.594954
1.303641,-0.001427842,-0.8208313
1.299153,-0.09171713,-0.9151888
1.157711,-0.2419167,-0.87296
0.8928646,-0.2865306,-0.8212527
0.7355027,-0.2088075,-0.7722284
0.7393953,-0.1747419,-0.7530818
0.7551343,-0.1923295,-0.7797169
0.758346,-0.1874998,-0.7500713
0.7742115,-0.1861175,-0.681391
0.807193,-0.1934931,-0.6056824
0.8413346,-0.1978844,-0.5536206
0.8330945,-0.2221475,-0.5712571
0.832166,-0.244809,-0.5396443
0.8417013,-0.2406353,-0.5180368
0.8059251,-0.2301171,-0.5382408
0.7674577,-0.2274394,-0.4618382
0.7470827,-0.215872,-0.4339793
0.7394081,-0.1956454,-0.4592664
0.7259118,-0.1672337,-0.4246624
0.6962528,-0.128672,-0.4165574
0.7024714,-0.1232074,-0.4030203
0.7053032,-0.1212728,-0.3759683
0.6915004,-0.1033506,-0.3669097
0.7156727,-0.1229251,-0.3602613
0.7383649,-0.1332984,-0.3694916
0.7680966,-0.1440612,-0.3724648
0.801939,-0.1844582,-0.3802083
0.7971726,-0.1954074,-0.3650265
0.8041289,-0.2113241,-0.3275088
0.8281084,-0.2291275,-0.3208316
0.8644832,-0.2213663,-0.3108469
0.9362944,-0.2178035,-0.3130057
1.022326,-0.1875363,-0.3349258
1.126177,-0.1425354,-0.34555
1.212373,-0.1245359,-0.3613353
1.246439,-0.1627412,-0.4068938
1.306538,-0.2706356,-0.4988227
1.403443,-0.3800898,-0.5740604
1.412586,-0.4421784,-0.639475
1.291349,-0.4562994,-0.7221304
1.069855,-0.4297445,-0.681738
0.7710636,-0.3746712,-0.5887177
0.6171009,-0.3449002,-0.613899
0.7318473,-0.3791033,-0.6563616
0.8354939,-0.385036,-0.70201
0.8485408,-0.3102216,-0.7507574
0.8753179,-0.2007494,-0.6675457
0.8193083,-0.1146167,-0.5535078
0.7637919,-0.09884509,-0.5058839
0.7895937,-0.1120037,-0.4659642
0.778203,-0.1113144,-0.4489384
0.7705669,-0.09445952,-0.4559122
0.764412,-0.07512561,-0.474534
0.7174168,-0.07794983,-0.4604928
0.6953738,-0.08184337,-0.4125692
0.6800215,-0.08391099,-0.3949889
0.6803685,-0.08522199,-0.3842668
0.7141743,-0.08550186,-0.3923386
0.7486926,-0.1028936,-0.3970824
0.7760553,-0.112366,-0.381661
0.7820233,-0.1069401,-0.3978378
0.7972162,-0.09804963,-0.3934098
0.804769,-0.08966393,-0.3850721
0.793569,-0.07870239,-0.3775248
0.8293623,-0.04427882,-0.3347919
0.8836196,-0.007626871,-0.3293836
0.9897425,0.0240421,-0.3484906
1.173337,0.05376141,-0.3869127
1.251665,-0.0009088788,-0.4535098
1.237723,-0.1519662,-0.4937883
1.294924,-0.2304654,-0.5430611
1.322273,-0.1549799,-0.6508946
1.274276,-0.0625303,-0.8076614
1.216375,-0.04336985,-0.8958995
1.068406,-0.06229239,-0.8247469
0.9226765,-0.09852684,-0.7238297
0.8726523,-0.1377058,-0.6635609
0.815806,-0.1434101,-0.6119994
0.8066046,-0.1109552,-0.6017607
0.8291402,-0.08645167,-0.5655275
0.8213266,-0.09437978,-0.4921165
0.8584625,-0.1055106,-0.4809867
0.8723662,-0.1117881,-0.4700732
0.8406841,-0.1311875,-0.4517252
0.8114943,-0.1550603,-0.4532566
0.7639924,-0.1840728,-0.4083395
0.7357774,-0.2168603,-0.3737232
0.7041895,-0.215684,-0.3545319
0.6585307,-0.1772008,-0.3174158
0.6496081,-0.1305762,-0.3031404
0.6610706,-0.1040951,-0.2960318
0.6863892,-0.1071055,-0.3200878
0.7289365,-0.111209,-0.3626099
0.780236,-0.124496,-0.3662892
0.8282906,-0.1580317,-0.3531662
0.8727141,-0.1812047,-0.3427207
0.926643,-0.1944812,-0.3330931
0.9719753,-0.2012651,-0.295448
1.024664,-0.1989531,-0.250136
1.100353,-0.1959287,-0.2591943
1.159253,-0.1826669,-0.2974586
1.212104,-0.1679954,-0.3666611
1.28618,-0.191109,-0.4827957
1.329366,-0.2890468,-0.5618363
1.315019,-0.4057359,-0.6281683
1.225094,-0.3883897,-0.7151778
0.9687173,-0.2487095,-0.6556617
0.7120374,-0.1707709,-0.5491607
0.7246609,-0.2109368,-0.5955868
0.7957214,-0.2894544,-0.612319
0.7519525,-0.3287866,-0.5855711
0.8020966,-0.3128281,-0.6011199
0.8899214,-0.2813634,-0.5597841
0.8727407,-0.24632,-0.5401163
0.8525551,-0.2092213,-0.5263086
0.8289569,-0.1794467,-0.4675533
0.7952692,-0.1464778,-0.4742524
0.7988521,-0.1088636,-0.4861785
0.793382,-0.07906115,-0.4752187
0.7709303,-0.05690021,-0.4624716
0.7245247,-0.03963547,-0.4132016
0.6752139,-0.0456523,-0.3819571
0.6700755,-0.05939766,-0.3629188
0.6723851,-0.06518039,-0.3457172
0.6878837,-0.08137767,-0.3496594
0.7241138,-0.09624114,-0.3559343
0.7607775,-0.107011,-0.3743925
0.7983959,-0.09389858,-0.3853403
0.8169428,-0.05210909,-0.4007341
0.8436953,-0.02606011,-0.4276555
0.9135488,-0.01450515,-0.4215232
1.015899,-0.01625343,-0.4183999
1.099589,-0.01595591,-0.4325127
1.136768,-0.02130567,-0.4450285
1.197095,-0.076161,-0.4849493
1.276244,-0.1164366,-0.5595585
1.311116,-0.1037369,-0.6826584
1.321539,-0.09344555,-0.82482
1.298397,-0.09859562,-0.8820792
1.190377,-0.1089234,-0.8513198
1.002799,-0.1620315,-0.7885538
0.8103855,-0.232429,-0.6717111
0.7026941,-0.1990694,-0.572649
0.7023841,-0.1293822,-0.600497
0.75764,-0.1160866,-0.6338567
0.7976749,-0.08625493,-0.6027733
0.7946064,-0.0918943,-0.5767706
0.791303,-0.1322287,-0.5096101
0.8070345,-0.1427102,-0.4577984
0.8078737,-0.1847884,-0.479939
0.8216359,-0.2264199,-0.4736797
0.8493659,-0.2538954,-0.4644371
0.8296156,-0.2509462,-0.4604079
0.8025883,-0.1962866,-0.4332766
0.7830794,-0.1927744,-0.439348
0.7257353,-0.1669341,-0.4294378
0.7020741,-0.1158195,-0.3934695
0.7369102,-0.1374805,-0.3775919
0.7596029,-0.1216837,-0.3576404
0.7817808,-0.1131919,-0.3559257
0.8026856,-0.1421188,-0.37769
0.8016276,-0.1480029,-0.381612
0.8122254,-0.2116141,-0.3460999
0.8162382,-0.2484852,-0.2983342
0.8134808,-0.217331,-0.2873074
0.8438158,-0.2065394,-0.2749811
0.8842019,-0.1942552,-0.2570628
0.923798,-0.1870982,-0.2792021
0.9590468,-0.1722754,-0.2898196
0.9928888,-0.1469372,-0.2852663
1.065605,-0.1479899,-0.3127766
1.159248,-0.1731481,-0.3652495
1.233439,-0.249663,-0.4551765
1.311803,-0.3657904,-0.5530962
1.394112,-0.435526,-0.637391
1.362403,-0.3966275,-0.7327796
1.129239,-0.3075917,-0.7433551
0.8086136,-0.2640607,-0.6224832
0.6500658,-0.3014793,-0.5118716
0.7227352,-0.4004811,-0.5141461
0.7902004,-0.4340539,-0.5897052
0.8069624,-0.3798303,-0.6390937
0.8579677,-0.325402,-0.6250904
0.8351376,-0.2757463,-0.5839726
0.8179863,-0.267733,-0.5388062
0.8274698,-0.273469,-0.5062246
0.7806892,-0.234129,-0.5020312
0.8147112,-0.1800679,-0.5210086
0.8535005,-0.1164785,-0.5492946
0.8315953,-0.08657386,-0.5635414
0.8251297,-0.09373858,-0.5485595
0.7733021,-0.09117109,-0.5051173
0.7255323,-0.09329557,-0.4274532
0.6869021,-0.09071959,-0.3589251
0.6572192,-0.08680453,-0.3660719
0.6880287,-0.08385309,-0.3869156
0.7117069,-0.06468377,-0.3777688
0.7850856,-0.04291091,-0.4156101
0.8558461,-0.02500632,-0.4526145
0.794206,-0.01065762,-0.4216781
0.7406652,0.01048815,-0.3879007
0.746562,0.01179952,-0.3676838
0.7462235,-0.009457463,-0.3537907
0.7722767,0.004927908,-0.3450811
0.862362,0.03852525,-0.3367345
1.024373,0.06603741,-0.36385
1.174802,0.06022529,-0.3818757
1.230176,0.0113156,-0.3448724
1.254733,-0.004420071,-0.3311891
1.298497,0.003208016,-0.4163658
1.314408,-0.001810247,-0.5870562
1.284872,-0.02493466,-0.7322284
1.205233,-0.09019662,-0.75729
1.047409,-0.1460892,-0.7148005
0.8640796,-0.163875,-0.6966423
0.7671577,-0.1517051,-0.7034905
0.769379,-0.1273099,-0.7148638
0.8058348,-0.1197444,-0.7318892
0.8300678,-0.1058204,-0.703176
0.8170997,-0.1065138,-0.6249273
0.8030252,-0.1187102,-0.5675922
0.8102878,-0.1230457,-0.5410857
0.7989159,-0.1428297,-0.5392616
0.7813068,-0.1354768,-0.5269667
0.7745211,-0.1158154,-0.4848187
0.7832343,-0.1083493,-0.477981
0.8150364,-0.09771274,-0.4966403
0.8329159,-0.1239979,-0.4965542
0.83594,-0.1616545,-0.4688177
0.8199276,-0.1866188,-0.4089617
0.7710131,-0.2057309,-0.3594094
0.7329821,-0.1922445,-0.3393051
0.6993959,-0.1577619,-0.3233
0.6598647,-0.1190539,-0.3003869
0.6669565,-0.1116076,-0.301895
0.7242265,-0.1352524,-0.3389813
0.8044957,-0.1386925,-0.3641023
0.8836568,-0.147382,-0.3740949
0.9330297,-0.1681773,-0.3571805
1.028628,-0.1872974,-0.3189013
1.153228,-0.2084731,-0.3195684
1.152255,-0.192962,-0.3334892
1.175562,-0.1864996,-0.3770966
1.289299,-0.2487604,-0.4963807
1.321749,-0.3429117,-0.6177457
1.343775,-0.4248754,-0.6804981
1.231093,-0.4271045,-0.6761678
0.9482107,-0.351684,-0.6269881
0.7979543,-0.2826568,-0.5665252
0.7355362,-0.2587915,-0.5395029
0.7397129,-0.2758931,-0.5840555
0.8040635,-0.2663038,-0.6242219
0.8118946,-0.2187714,-0.6089347
0.8603864,-0.1741503,-0.5748828
0.8716302,-0.1279404,-0.538711
0.8283479,-0.1361988,-0.5221527
0.8196111,-0.1578625,-0.4981418
0.7863754,-0.1226818,-0.4654522
0.7942785,-0.1091551,-0.4826915
0.801419,-0.09349493,-0.4898725
0.770559,-0.06245314,-0.4584471
0.755661,-0.06766723,-0.4426963
0.6920825,-0.06683476,-0.4141205
0.644177,-0.08258902,-0.3845385
0.6499728,-0.1169686,-0.3766615
0.6695793,-0.137788,-0.3691446
0.7181052,-0.1670264,-0.3964667
0.7440537,-0.1676254,-0.4410619
0.7475809,-0.1405252,-0.4562153
0.767927,-0.1027499,-0.4392814
0.8128246,-0.05420148,-0.4030342
0.8817066,-0.0358057,-0.3814286
0.9538897,-0.02412581,-0.3721159
1.036598,0.00930328,-0.3878241
1.120154,0.03083046,-0.4313425
1.199559,-0.02497036,-0.4633489
1.268818,-0.1257207,-0.5057372
1.301475,-0.1247792,-0.576884
1.348149,-0.05178715,-0.6745919
1.394366,-0.01870344,-0.7716836
1.316752,-0.04445603,-0.8260094
1.098921,-0.1421538,-0.8325951
0.8691807,-0.2436433,-0.7697997
0.7921454,-0.2585789,-0.6989505
0.8007366,-0.1982317,-0.6558485
0.7182627,-0.141653,-0.5745984
0.710268,-0.1187702,-0.5398166
0.8183865,-0.07589118,-0.5535114
0.8330294,-0.03076074,-0.4996919
0.8507175,-0.02943034,-0.4817524
0.8646655,-0.05857903,-0.509559
0.8206344,-0.08785334,-0.4714294
0.838283,-0.1157385,-0.4479344
0.8069364,-0.1591078,-0.4422643
0.7707368,-0.1794557,-0.4157867
0.783974,-0.1892666,-0.4183485
0.7305439,-0.1973791,-0.387025
0.7060192,-0.1715909,-0.3356883
0.6889676,-0.160456,-0.3200625
0.6788976,-0.1594365,-0.3027165
0.7250294,-0.1594228,-0.3084534
0.7442865,-0.1700778,-0.322168
0.7822087,-0.1726294,-0.3275624
0.8057691,-0.1961847,-0.3300919
0.8161007,-0.2210157,-0.3080567
0.8666109,-0.2342023,-0.3012878
0.8884488,-0.2352295,-0.2879143
0.9365194,-0.2125034,-0.2556833
1.01602,-0.1926776,-0.2400582
1.096631,-0.1491905,-0.225758
1.208526,-0.1116172,-0.2488072
1.298533,-0.1314576,-0.3235493
1.342912,-0.189091,-0.4244482
1.358106,-0.277963,-0.5040364
1.404954,-0.3555281,-0.5285954
1.433285,-0.4078973,-0.5891715
1.266496,-0.4104991,-0.644978
0.9701537,-0.3205556,-0.5848499
0.7568932,-0.2351304,-0.5457769
0.718678,-0.2187233,-0.626799
0.7750985,-0.2383387,-0.7269163
0.8142405,-0.2500392,-0.7598876
0.8507651,-0.2297763,-0.6907155
0.8529332,-0.2296602,-0.5739287
0.8044202,-0.239166,-0.5049731
0.7915603,-0.2264382,-0.4566291
0.7915361,-0.1998534,-0.4236789
0.7855812,-0.1263592,-0.4447875
0.7937175,-0.05468031,-0.458962
0.7737446,-0.020334,-0.4557648
0.7348535,-0.001315364,-0.4373209
0.6800161,-0.0279075,-0.3755615
0.6301594,-0.06992413,-0.3355819
0.6403515,-0.1022547,-0.3309559
0.6780682,-0.1322868,-0.3433787
0.729134,-0.1436436,-0.383329
0.764646,-0.1521447,-0.4128012
0.7562015,-0.1445144,-0.4259913
0.7696426,-0.1146032,-0.4180302
0.8135417,-0.07000109,-0.3951587
0.8744872,-0.01002081,-0.3909506
0.9443533,0.004166913,-0.3820553
1.015716,-0.002350858,-0.3748553
1.111341,0.03138387,-0.375218
1.172885,0.02834813,-0.3705966
1.219093,-0.03036661,-0.3997222
1.315594,-0.08775885,-0.4915299
1.383009,-0.1086636,-0.66473
1.392699,-0.05747231,-0.8311889
1.314459,-0.03034802,-0.8731287
1.107301,-0.1112481,-0.8538016
0.8982771,-0.1889798,-0.8023584
0.7762326,-0.1875194,-0.7087656
0.7483276,-0.1581898,-0.6649509
0.7781556,-0.1411469,-0.6494965
0.7755593,-0.1102079,-0.5928211
0.7742588,-0.07836944,-0.5374987
0.7946326,-0.08340454,-0.5068927
0.789901,-0.09329737,-0.4970798
0.7855295,-0.1213144,-0.5015916
0.7714399,-0.1730682,-0.484849
0.7480491,-0.2121905,-0.4507493
0.7410973,-0.2523383,-0.4198012
0.7293655,-0.2662219,-0.39508
0.7138158,-0.2423275,-0.3868925
0.6886457,-0.2026528,-0.3757604
0.6710005,-0.1446696,-0.3588092
0.6896427,-0.1120735,-0.3592466
0.7075883,-0.1267361,-0.3632212
0.7328476,-0.1646325,-0.37224
0.7795475,-0.2030827,-0.3842176
0.7946899,-0.2192235,-0.3742253
0.807648,-0.2306732,-0.3533914
0.8570773,-0.2450948,-0.3199833
0.8881823,-0.2275191,-0.2658932
0.9269504,-0.1954953,-0.2344614
1.009248,-0.1792249,-0.242101
1.09616,-0.1606903,-0.2649712
1.203882,-0.1462895,-0.3167826
1.286345,-0.1541149,-0.4056366
1.304343,-0.2335795,-0.5192624
1.354134,-0.3860342,-0.6177586
1.381335,-0.4446291,-0.6325015
1.217302,-0.3567469,-0.6195382
0.9385564,-0.2519574,-0.6420111
0.8078377,-0.2080662,-0.6427181
0.8106429,-0.2572018,-0.6521028
0.7394503,-0.3419791,-0.705871
0.7232638,-0.3567189,-0.7325788
0.8236364,-0.3311367,-0.7050123
0.8281887,-0.3077362,-0.6424438
0.8043842,-0.2726961,-0.5796928
0.7992184,-0.2568739,-0.536751
0.7436884,-0.2280311,-0.4740853
0.7432474,-0.1694289,-0.4266714
0.7542869,-0.1401798,-0.4699377
0.737426,-0.09107279,-0.5104016
0.7532497,-0.05513672,-0.5008624
0.7466387,-0.08522528,-0.5085397
0.7203646,-0.07049687,-0.4637087
0.681703,-0.05176194,-0.3863159
0.656708,-0.06713524,-0.3656325
0.6800399,-0.05183456,-0.3580083
0.6990705,-0.07108942,-0.3852917
0.7340252,-0.106219,-0.4326318
0.7600231,-0.1080815,-0.437535
0.7524189,-0.09947012,-0.4267784
0.7826689,-0.06230751,-0.4189453
0.8427363,-0.03418587,-0.4236492
0.9367675,-0.01732876,-0.4193231
1.066497,0.008761112,-0.4086236
1.174564,0.00335634,-0.4169102
1.257604,-0.05536889,-0.4299353
1.328172,-0.1639213,-0.4992216
1.378297,-0.2116597,-0.6491997
1.379153,-0.1506657,-0.796574
1.2909,-0.1052382,-0.8758511
1.118961,-0.1097422,-0.8882253
0.9315579,-0.1339855,-0.8256962
0.8008892,-0.1665344,-0.7105307
0.7374948,-0.1718854,-0.6630305
0.7263992,-0.1583669,-0.6801972
0.7392695,-0.1469299,-0.6708005
0.7446675,-0.1266384,-0.645075
0.7670172,-0.1225771,-0.5961345
0.8200736,-0.1416711,-0.5359542
0.8546794,-0.1419249,-0.5084113
0.8423134,-0.1445855,-0.5110426
0.8219792,-0.1690968,-0.5179788
0.8056391,-0.188617,-0.4914398
0.7581774,-0.2003161,-0.4614534
0.7270008,-0.2017899,-0.4374293
0.7325042,-0.1989624,-0.401102
0.7057688,-0.186247,-0.3909323
0.6723196,-0.1695831,-0.3711381
0.6650622,-0.1693063,-0.3341389
0.6697159,-0.1662105,-0.3237181
0.7058524,-0.1725464,-0.3206011
0.763795,-0.1858552,-0.3288877
0.8253161,-0.1913394,-0.3372425
0.8687789,-0.2082384,-0.3328807
0.8788301,-0.2112329,-0.3220204
0.867576,-0.1989414,-0.2962133
0.8357248,-0.1866975,-0.2892497
0.8194027,-0.1754349,-0.3044905
0.8569207,-0.1994366,-0.3137623
0.9499676,-0.2452155,-0.3130181
1.044729,-0.2629399,-0.3052212
1.070749,-0.2363333,-0.3036795
1.091642,-0.1899473,-0.3052178
0.6415565,-0.1822241,-0.3489451
0.6176936,-0.1604735,-0.3451348
0.6037888,-0.1073551,-0.3212442
0.6389201,-0.08798031,-0.3511515
0.6295975,-0.129341,-0.3473477
0.6981473,-0.1968893,-0.3348894
0.7339321,-0.2533521,-0.3344301
0.7688561,-0.28775,-0.2921171
0.8783605,-0.2956646,-0.2823246
0.9451997,-0.2652212,-0.2676793
1.04996,-0.2182526,-0.2670746
1.174925,-0.1920219,-0.3045252
1.300768,-0.191992,-0.3437053
1.395262,-0.2265949,-0.4573316
1.366242,-0.3220694,-0.6132427
1.346312,-0.4145636,-0.719327
1.280469,-0.3916753,-0.7306009
1.036357,-0.276417,-0.7089445
0.7869573,-0.1848736,-0.7111817
0.6898294,-0.1942109,-0.669797
0.695045,-0.2683645,-0.6590102
0.7367571,-0.3058181,-0.6927353
0.8499718,-0.3033544,-0.6799207
0.9245346,-0.2911042,-0.6523299
0.8678939,-0.2547347,-0.5808188
0.8252731,-0.2010105,-0.4896723
0.7878602,-0.1371743,-0.446945
0.7256833,-0.09214468,-0.4292177
0.7313427,-0.0751598,-0.4349397
0.7264803,-0.05871301,-0.4232451
0.6736123,-0.05758096,-0.4018515
0.6484895,-0.06578422,-0.3984075
0.6347759,-0.08211532,-0.3518929
0.6149437,-0.1113092,-0.2965781
0.6172658,-0.1147423,-0.2994324
0.653429,-0.1020829,-0.3313308
0.7087805,-0.08861122,-0.3528987
0.759027,-0.06336823,-0.368173
0.8152769,-0.02941349,-0.371063
0.9721137,0.0150691,-0.3627833
1.173071,0.03451781,-0.3839254
1.250099,0.001407158,-0.4196254
1.360028,-0.05276247,-0.4940321
1.468781,-0.123905,-0.6227783
1.3619,-0.1717619,-0.7281182
1.322958,-0.1380647,-0.8464591
1.289334,-0.1351525,-0.9747205
1.040678,-0.222878,-0.9937616
0.8572514,-0.2795106,-0.8647797
0.7042416,-0.2632347,-0.673891
0.6198358,-0.2131595,-0.5850745
0.7183185,-0.1648646,-0.5770066
0.7757424,-0.1147957,-0.5636136
0.8792341,-0.06792052,-0.5776283
0.9563325,-0.06379609,-0.5714855
0.8631141,-0.07162875,-0.5422278
0.7981315,-0.1149216,-0.4972093
0.7207935,-0.2076402,-0.4049438
0.6494974,-0.2599145,-0.3565871
0.6530143,-0.260809,-0.3528891
0.6195371,-0.2426052,-0.3401469
0.5970587,-0.2115207,-0.3421342
0.6018815,-0.1591542,-0.3404428
0.600799,-0.139783,-0.3379877
0.6512816,-0.1943695,-0.3522307
0.7329494,-0.2411915,-0.3696254
0.8032253,-0.2714657,-0.374414
0.8914455,-0.27633,-0.3625837
1.004287,-0.2430599,-0.3592563
1.122657,-0.2399797,-0.365257
1.24711,-0.2379393,-0.3812577
1.309719,-0.2306306,-0.4215407
1.273512,-0.2555371,-0.4988502
1.216204,-0.3297926,-0.622865
1.166193,-0.4214685,-0.7023776
1.113927,-0.3762536,-0.6988578
0.9640429,-0.2507735,-0.7334839
0.6900007,-0.1946162,-0.761557
0.5976128,-0.1788179,-0.6690151
0.7251938,-0.2282293,-0.6056183
0.7997341,-0.2890353,-0.6542916
0.8707517,-0.2954383,-0.6718311
0.9138888,-0.3027791,-0.6214529
0.832284,-0.2566182,-0.549484
0.7728712,-0.1607775,-0.469891
0.7120979,-0.07525823,-0.4348124
0.6600538,-0.01777646,-0.4573272
0.6782259,-0.02195512,-0.460306
0.6433245,-0.04501186,-0.4353675
0.6203782,-0.09611526,-0.4205473
0.6473785,-0.1552309,-0.3784559
0.6668207,-0.1501664,-0.3530201
0.7411183,-0.1188002,-0.3963753
0.8159858,-0.06393362,-0.4450034
0.9051953,-0.0189788,-0.4927465
1.036604,-0.001703268,-0.5158602
1.081728,0.02591906,-0.4969299
1.079811,0.02366103,-0.5027372
1.117994,-0.002709568,-0.5199767
1.164006,-0.08516253,-0.5461445
1.170254,-0.1852806,-0.6067978
1.138252,-0.1521962,-0.7134566
1.109862,-0.1079041,-0.8980838
1.057004,-0.1591915,-0.9953753
0.9707515,-0.1956634,-0.8964835
0.8492093,-0.2403098,-0.7972799
0.7333683,-0.271904,-0.7181054
0.7392245,-0.217511,-0.6276191
0.7663899,-0.1886117,-0.6275054
0.7725113,-0.1715588,-0.6049312
0.8539268,-0.1219715,-0.5565788
0.8963702,-0.1199483,-0.567464
0.8704663,-0.1226267,-0.5433282
0.8177668,-0.1499391,-0.5228313
0.733682,-0.2122075,-0.4886161
0.7026399,-0.2295629,-0.4088799
0.676453,-0.2427699,-0.3843343
0.6236672,-0.2274102,-0.3757833
0.6082323,-0.1750014,-0.3682922
0.585281,-0.1484952,-0.3515326
0.5821713,-0.1427723,-0.3283378
0.6541571,-0.1742943,-0.3538457
0.7538691,-0.2274635,-0.3563185
0.8495785,-0.2771133,-0.3527908
0.9338253,-0.2959554,-0.3549399
1.02511,-0.2753414,-0.3329437
1.128335,-0.2639979,-0.3570562
1.196383,-0.2316955,-0.4011658
1.224361,-0.2170781,-0.465275
1.233002,-0.2963728,-0.5717433
1.230048,-0.393375,-0.6693911
1.195982,-0.4126996,-0.7282953
1.031261,-0.3014726,-0.7245706
0.7515889,-0.1746879,-0.7002659
0.6141464,-0.1924847,-0.6431606
0.7130127,-0.2666742,-0.570077
0.8246378,-0.3262755,-0.611979
0.8979454,-0.3829768,-0.6680028
0.9643548,-0.3670584,-0.6313185
0.9064192,-0.3046078,-0.5827651
0.8659762,-0.2428341,-0.5197847
0.8886732,-0.1677404,-0.4902443
0.8045901,-0.09868602,-0.5241237
0.7419589,-0.01618201,-0.5122539
0.7239252,0.0001644149,-0.4832843
0.6790228,-0.08073981,-0.4558437
0.6434626,-0.1021357,-0.3798407
0.5951352,-0.1243442,-0.3338684
0.6022518,-0.1549576,-0.321176
0.6258603,-0.09202556,-0.3180725
0.6536915,-0.04710866,-0.3534021
0.7361617,0.005263249,-0.380961
0.7588435,0.03474532,-0.4027049
0.7892575,-0.005515887,-0.4106603
0.9320886,0.01771588,-0.4145473
1.139547,0.0019148,-0.4787512
1.252794,-0.03964045,-0.5219993
1.198856,-0.04123436,-0.5049672
1.215074,-0.1035111,-0.5065782
1.235981,-0.1143487,-0.546069
1.087618,-0.08104504,-0.6430662
0.9823326,-0.1132144,-0.8205768
0.9738238,-0.2246266,-0.9741813
0.9663701,-0.3971163,-0.9798684
0.8939183,-0.4220103,-0.8948997
0.770724,-0.2921525,-0.7763876
0.7419463,-0.2137895,-0.6668571
0.766454,-0.1902233,-0.6502392
0.8153057,-0.1922408,-0.6370493
0.8861679,-0.2118839,-0.6013678
0.8422379,-0.2259346,-0.5920398
0.7375465,-0.2498524,-0.5334775
0.6617849,-0.2601115,-0.4683113
0.6227819,-0.2444976,-0.4500784
0.61967,-0.2167317,-0.4298313
0.5951103,-0.1750245,-0.4149715
0.593286,-0.1414183,-0.4177943
0.6105168,-0.1200554,-0.409132
0.6141211,-0.1077972,-0.3844925
0.6799415,-0.1223014,-0.3804348
0.7480195,-0.1546335,-0.3906877
0.7763373,-0.1951815,-0.3940491
0.8345012,-0.2254456,-0.3832084
0.9081891,-0.2212074,-0.3546529
0.9983911,-0.2152622,-0.348435
1.111706,-0.2220795,-0.358634
1.200211,-0.2042386,-0.3709766
1.257052,-0.1815093,-0.3976325
1.286809,-0.1967739,-0.4335214
1.251804,-0.2716552,-0.525531
1.174513,-0.4065252,-0.6440529
1.090005,-0.4741868,-0.6867129
0.9165013,-0.4126478,-0.7018285
0.7104069,-0.3549605,-0.7424258
0.6659414,-0.3291592,-0.7328531
0.7521112,-0.3108844,-0.7082669
0.8176585,-0.3135559,-0.7315659
0.8397102,-0.2761274,-0.7100906
0.8538172,-0.2332965,-0.6362689
0.8357034,-0.2062173,-0.5537617
0.7932355,-0.1242331,-0.4932815
0.7716042,-0.05795623,-0.504175
0.7615846,-0.03859625,-0.4970348
0.7532642,-0.01637787,-0.4640813
0.713558,-0.01246137,-0.4503443
0.659504,-0.01717209,-0.4112972
0.6259748,-0.04378593,-0.3874199
0.5843262,-0.1128504,-0.3570186
0.5890798,-0.167991,-0.3289352
0.6340928,-0.1762889,-0.3546869
0.681833,-0.1434251,-0.3679541
0.7864492,-0.08203342,-0.4043641
0.9250331,-0.02284864,-0.4670954
1.080737,-0.0008441462,-0.5014535
1.224378,-0.01196137,-0.5499256
1.29517,-0.04769176,-0.6107425
1.308346,-0.1194642,-0.6980135
1.268829,-0.1668505,-0.8201785
1.184913,-0.1484562,-0.9207473
1.042115,-0.1532222,-0.9437451
0.8615525,-0.2007562,-0.8522159
0.7565792,-0.2115446,-0.7369449
0.7407118,-0.2041442,-0.6957102
0.7755245,-0.1916487,-0.6770179
0.8117582,-0.1526617,-0.6336739
0.8061832,-0.1415716,-0.5899334
0.8124073,-0.14687,-0.5436469
0.8060962,-0.1421676,-0.486526
0.7553015,-0.1531302,-0.4660542
0.7279754,-0.1570806,-0.4761853
0.7050088,-0.1738189,-0.4680952
0.6700818,-0.2144892,-0.4507754
0.666215,-0.2332215,-0.4132424
0.6608996,-0.2342471,-0.3681356
0.6267549,-0.2178308,-0.3687571
0.6050955,-0.1810629,-0.3832725
0.6161301,-0.1607428,-0.3807285
0.6840807,-0.1796468,-0.3944119
0.8189982,-0.2187685,-0.4115904
0.9111484,-0.2496007,-0.4041567
0.96355,-0.2691762,-0.396489
1.07258,-0.2763386,-0.3876956
1.1424,-0.266583,-0.3717745
1.174378,-0.2433557,-0.3933051
1.230696,-0.2393256,-0.4750883
1.206876,-0.2899555,-0.6038387
1.162531,-0.3356018,-0.7195962
1.145663,-0.3047457,-0.7754124
0.9941161,-0.2363786,-0.8066702
0.7589563,-0.2096827,-0.7782605
0.6736156,-0.2614568,-0.6719359
0.735087,-0.3351707,-0.6107977
0.7618618,-0.3336065,-0.6187038
0.7788717,-0.2908378,-0.6253056
0.8509456,-0.2702643,-0.5976758
0.8523381,-0.2269902,-0.5280819
0.7978573,-0.1706975,-0.4623588
0.7467256,-0.1140076,-0.432828
0.6814507,-0.03592311,-0.4347264
0.6667674,0.00808464,-0.4410489
0.6647572,0.008716651,-0.4337965
0.6545421,-0.0352236,-0.4227756
0.6701678,-0.1023339,-0.3831318
0.6646078,-0.1088052,-0.3548454
0.6711866,-0.08756579,-0.379422
0.6905182,-0.07062579,-0.4068633
0.7180603,-0.03994259,-0.4289853
0.8251291,-0.01230231,-0.4508498
0.970164,0.01381721,-0.4803265
1.050298,0.001077958,-0.5064827
1.116495,-0.07305817,-0.5063368
1.276221,-0.1453074,-0.5206902
1.330878,-0.160286,-0.5326909
1.215203,-0.1229597,-0.5821137
1.141507,-0.05961915,-0.7921276
1.033722,-0.01541455,-0.9796757
0.9684934,-0.1167516,-0.9099829
0.9430059,-0.3301429,-0.8038933
0.7716573,-0.391718,-0.8085753
0.7599245,-0.2924911,-0.7155007
0.7841792,-0.206532,-0.5955594
0.6868637,-0.1411024,-0.5974882
0.822201,-0.1129851,-0.5998722
0.9217685,-0.1328915,-0.5860779
0.8866477,-0.1509928,-0.5664785
0.8842123,-0.1743162,-0.5161104
0.7704204,-0.1953673,-0.475891
0.725454,-0.2060148,-0.4523125
0.7219566,-0.2078708,-0.4498974
0.6814281,-0.1870035,-0.4372028
0.7088667,-0.151818,-0.4164238
0.6613952,-0.1089562,-0.3937454
0.6226268,-0.09573612,-0.347465
0.6288926,-0.142609,-0.3343808
0.62333,-0.2032702,-0.3259315
0.6772994,-0.2496949,-0.3146013
0.7381473,-0.2888103,-0.3384313
0.8528651,-0.3000706,-0.3420976
0.9971825,-0.2774933,-0.3422997
1.125504,-0.2410944,-0.3517311
1.251595,-0.191268,-0.3796936
1.258588,-0.1331404,-0.4660164
1.187943,-0.1486616,-0.5658901
1.095756,-0.3346863,-0.6394971
1.010721,-0.5542992,-0.6620552
0.9663164,-0.5456001,-0.6868709
0.8183345,-0.3963234,-0.7649051
0.647451,-0.3366608,-0.795595
0.6957737,-0.3304745,-0.7526764
0.8407493,-0.3706489,-0.7010293
0.8877049,-0.4572732,-0.6892814
0.9100516,-0.4774193,-0.6786554
0.8852629,-0.4561622,-0.6097942
0.785188,-0.3688535,-0.5955802
0.744297,-0.219917,-0.6162821
0.7264616,-0.1380467,-0.5907398
0.7236574,-0.07517126,-0.601807
0.7303099,-0.04310814,-0.5951418
0.6814299,-0.08018227,-0.5502935
0.6306877,-0.08156935,-0.5018109
0.5496087,-0.07351405,-0.4194851
0.5280239,-0.08293611,-0.3715554
0.5981871,-0.06868155,-0.3563815
0.6466587,-0.06624642,-0.3733102
0.728979,-0.06209439,-0.4316769
0.7771819,-0.02559853,-0.4618444
0.8069005,0.0002837708,-0.4848065
0.9193342,-0.006374237,-0.4869486
1.045221,-0.04260914,-0.4686587
1.177023,-0.0785298,-0.472277
1.262488,-0.07105788,-0.4738486
1.273924,-0.06384404,-0.521862
1.226446,-0.07754064,-0.6432608
1.130791,-0.07714583,-0.8094626
1.070563,-0.1116902,-0.9484479
0.9952867,-0.2140397,-0.9509466
0.8607706,-0.2930006,-0.8766222
0.7424643,-0.256492,-0.8053724
0.7114651,-0.1734615,-0.7306747
0.7509869,-0.1415702,-0.6895586
0.7766537,-0.1226319,-0.6842622
0.8279903,-0.1200622,-0.6695067
0.8755708,-0.133226,-0.6243019
0.8276957,-0.1093002,-0.5708533
0.7392692,-0.08604852,-0.5143507
0.6568008,-0.06253784,-0.4449833
0.6364103,-0.07376415,-0.433307
0.6412608,-0.1447275,-0.4528671
0.6030988,-0.1788276,-0.4115444
0.6182636,-0.2081031,-0.3809534
0.6378429,-0.2235579,-0.3592289
0.6360751,-0.1959086,-0.3313964
0.7241334,-0.2011653,-0.3933187
0.8177112,-0.1945575,-0.4515436
0.9067817,-0.2019239,-0.4518259
1.036152,-0.2493576,-0.4578283
1.135353,-0.2546779,-0.4295865
1.209037,-0.2356294,-0.4033962
1.206423,-0.2271721,-0.4276366
1.119473,-0.2987919,-0.5073939
1.05234,-0.4166595,-0.6119355
1.025992,-0.4215735,-0.6614662
0.9570632,-0.3282708,-0.7300598
0.7648404,-0.2370186,-0.8088954
0.636239,-0.2266149,-0.755368
0.7053729,-0.2817834,-0.6982192
0.813957,-0.3156853,-0.7505227
0.8867204,-0.330505,-0.7545713
0.877055,-0.3099266,-0.6952339
0.8172693,-0.2462991,-0.6162762
0.806235,-0.1814337,-0.5017252
0.763006,-0.1071254,-0.4910025
0.6871965,-0.03252745,-0.5146305
0.655876,0.000148573,-0.4584137
0.6393573,-0.0291271,-0.4684296
0.6202322,-0.06944552,-0.4716528
0.6013369,-0.1007952,-0.4189711
0.5970903,-0.1619637,-0.4009837
0.6073282,-0.1756631,-0.3578677
0.6284493,-0.1307774,-0.3564616
0.6935467,-0.09599347,-0.4154444
0.7807151,-0.03860349,-0.4546351
0.8822738,-0.00883277,-0.5039139
1.027243,-0.0277387,-0.51839
1.163016,-0.01915821,-0.5160819
1.22764,-0.0175217,-0.5626046
1.224262,-0.05123423,-0.6365231
1.203708,-0.08756267,-0.7366561
1.178868,-0.1043876,-0.8395078
1.115908,-0.1238112,-0.9412202
1.032597,-0.1886844,-0.9773407
0.9233013,-0.2492274,-0.867231
0.7881642,-0.2515541,-0.7287667
0.7377002,-0.2118092,-0.670647
0.7810442,-0.1485655,-0.6691087
0.7991145,-0.1061327,-0.6598429
0.8258511,-0.119516,-0.6179604
0.8842191,-0.1407124,-0.5654579
0.8584691,-0.1405474,-0.51663
0.7974194,-0.1618757,-0.5044725
0.7564639,-0.1973077,-0.490072
0.6995026,-0.2217901,-0.4454302
0.6586859,-0.235876,-0.4133352
0.5943023,-0.2026021,-0.3622082
0.5379241,-0.1456521,-0.3228183
0.5481728,-0.1305054,-0.3275053
0.558672,-0.1408241,-0.3229565
0.5930238,-0.1468481,-0.3236021
0.6558254,-0.1621042,-0.3308151
0.7272892,-0.2010723,-0.3363755
0.8535112,-0.2528779,-0.3444454
1.029164,-0.2994549,-0.3499236
1.195102,-0.3023302,-0.3811683
1.309977,-0.2795588,-0.407677
1.396832,-0.3050597,-0.422438
1.383872,-0.330148,-0.5021247
1.251281,-0.3521822,-0.6372203
1.118965,-0.4007374,-0.7120615
1.008125,-0.3597595,-0.7136231
0.9016169,-0.261991,-0.7633511
0.7305549,-0.2023508,-0.8002354
0.6341306,-0.19527,-0.726409
0.7373785,-0.265003,-0.6752565
0.7847132,-0.3203698,-0.6815903
0.8066549,-0.3350822,-0.650796
0.8467409,-0.3203627,-0.5684245
0.790537,-0.2421181,-0.4758531
0.7721524,-0.1588953,-0.4391686
0.7354356,-0.06472713,-0.4524183
0.6701547,-0.0001631314,-0.4588323
0.6515042,-0.003698017,-0.4468153
0.588869,-0.01547506,-0.4205209
0.5594264,-0.06820817,-0.3686796
0.5742586,-0.1122009,-0.313936
0.597015,-0.1091797,-0.312888
0.6607551,-0.09647246,-0.3424681
0.7091189,-0.0625315,-0.3686617
0.7924679,-0.04962037,-0.4062866
0.9357232,-0.02818631,-0.4454817
1.053286,-0.007288835,-0.4756757
1.17164,-0.04051629,-0.4907887
1.310932,-0.06944111,-0.5185098
1.360417,-0.1130632,-0.5711197
1.333066,-0.155701,-0.615485
1.308391,-0.1352056,-0.6736465
1.174775,-0.08050209,-0.7897279
1.013934,-0.06345276,-0.9391504
0.9717465,-0.2059104,-0.9684484
0.8969368,-0.3946413,-0.835093
0.7859271,-0.3693919,-0.6980627
0.7206438,-0.2347659,-0.6057926
0.7088505,-0.1542539,-0.5830258
0.7781268,-0.08043396,-0.6153624
0.8541265,-0.06846017,-0.5985615
0.8913374,-0.0942989,-0.5670367
0.8519639,-0.07261333,-0.5192737
0.7577429,-0.1016668,-0.4493543
0.692192,-0.1552651,-0.4237719
0.6387161,-0.1908326,-0.3964704
0.6332317,-0.228955,-0.3628227
0.6331872,-0.2092967,-0.3443547
0.5930224,-0.1885114,-0.319483
0.59405,-0.1811268,-0.3081326
0.6152558,-0.1839825,-0.3052828
0.667203,-0.2339011,-0.3192893
0.7429888,-0.2573562,-0.3451187
0.796715,-0.2716673,-0.3467821
0.8799001,-0.2733635,-0.3475119
0.97131,-0.2514542,-0.3513514
1.043738,-0.257568,-0.3469647
1.144928,-0.2118087,-0.3569544
1.27951,-0.1394824,-0.3841806
1.321792,-0.1288318,-0.4237583
1.272294,-0.1904294,-0.503385
1.318624,-0.3827454,-0.6472875
1.335565,-0.5687613,-0.7396022
1.198569,-0.4897329,-0.6889973
0.9621215,-0.2587474,-0.6642274
0.6916565,-0.1645404,-0.6999533
0.7004529,-0.2004041,-0.6757227
0.7949327,-0.2653709,-0.679993
0.7278211,-0.3029982,-0.6965512
0.8638307,-0.2861343,-0.6509806
0.9241029,-0.2711639,-0.6116059
0.7908437,-0.2278386,-0.5407585
0.8273902,-0.1910263,-0.4590802
0.7807123,-0.1698514,-0.4176108
0.7275855,-0.09319042,-0.4001424
0.7471029,-0.05546458,-0.4438242
0.6400181,-0.02957044,-0.4642034
0.6038137,-0.02443805,-0.4141075
0.5527594,-0.07769976,-0.370794
0.5092712,-0.08211488,-0.3436278
0.5725841,-0.1081174,-0.3258956
0.5724752,-0.1156163,-0.3188343
0.6542316,-0.07147742,-0.348684
0.7577502,-0.07547605,-0.3886795
0.8131985,-0.05240383,-0.4011426
0.9623374,-0.04439874,-0.43053
1.07882,-0.06102569,-0.4712972
1.169613,-0.04234851,-0.4980058
1.259831,-0.07013541,-0.4945992
1.308427,-0.118949,-0.5188854
1.338763,-0.1498418,-0.6467341
1.272258,-0.1261886,-0.8117363
1.174492,-0.09241204,-0.9573716
1.085855,-0.2008614,-0.995448
0.9313539,-0.3118325,-0.8803973
0.7871002,-0.2886103,-0.7540512
0.7303307,-0.2258908,-0.6751802
0.7427402,-0.1348011,-0.6333373
0.7550172,-0.05275967,-0.6319498
0.7313914,-0.1402303,-0.4542723
0.8756556,-0.2067764,-0.4850461
1.078403,-0.283872,-0.5063929
1.215528,-0.302418,-0.4679427
1.223466,-0.2882039,-0.4041339
1.192268,-0.2708596,-0.4084084
1.100784,-0.2527531,-0.480569
0.976722,-0.2678269,-0.5978406
1.022158,-0.3111953,-0.6841139
1.057349,-0.3034923,-0.7300408
0.8621827,-0.2334613,-0.7556171
0.6947295,-0.1683433,-0.6938238
0.6963682,-0.1631475,-0.6341667
0.7668723,-0.1916324,-0.6908805
0.8481973,-0.1744873,-0.7646567
0.8972552,-0.1683028,-0.7663296
0.8818319,-0.1894673,-0.6723838
0.8138225,-0.1810122,-0.5045096
0.7800879,-0.1978576,-0.4302889
0.7454619,-0.1945801,-0.4674162
0.6523154,-0.1584448,-0.4440929
0.587676,-0.146702,-0.4049029
0.5275566,-0.1116776,-0.3922515
0.4535814,-0.09211697,-0.3243718
0.4400461,-0.1001381,-0.2846084
0.4855745,-0.1033469,-0.2881377
0.5581147,-0.1144427,-0.2775541
0.6728749,-0.09817696,-0.3261997
0.8413989,-0.05898759,-0.4108592
1.008996,0.003986539,-0.4774585
1.189709,0.05520364,-0.5461722
1.345747,0.03909635,-0.5883412
1.388557,0.004187953,-0.6025487
1.387361,-0.0597998,-0.6159827
1.339318,-0.1381886,-0.6647088
1.248676,-0.1478989,-0.7791295
1.166111,-0.1394287,-0.8890007
1.004124,-0.1892885,-0.9118025
0.7778097,-0.2520816,-0.842437
0.6406587,-0.2519711,-0.738352
0.6552722,-0.216342,-0.6542556
0.72398,-0.1982426,-0.6020512
0.7937226,-0.1782959,-0.5893157
0.8671194,-0.1586393,-0.5830948
0.8633627,-0.1570132,-0.5589787
0.8099203,-0.1639378,-0.5335174
0.7473021,-0.1778655,-0.4907833
0.6757869,-0.1890974,-0.4414921
0.6428714,-0.1902514,-0.4063134
0.6034609,-0.1832433,-0.3738727
0.5654219,-0.1601215,-0.3493705
0.5629257,-0.1271493,-0.338088
0.5737471,-0.1166787,-0.3421075
0.6415361,-0.1494693,-0.3518371
0.766898,-0.204515,-0.3763108
0.9076275,-0.2555629,-0.4239207
1.021219,-0.2814563,-0.4282641
1.122515,-0.2793745,-0.3869074
1.240569,-0.2847342,-0.3857897
1.262299,-0.3024525,-0.4788873
1.215492,-0.3408877,-0.651506
1.221058,-0.4082902,-0.7658464
1.171823,-0.421303,-0.7730507
0.9715327,-0.3274951,-0.7850411
0.6896541,-0.2152401,-0.7657881
0.5595687,-0.2045869,-0.693809
0.6829358,-0.2549278,-0.6927682
0.7716738,-0.2591662,-0.7195249
0.7751671,-0.2558263,-0.7079743
0.8104661,-0.2599594,-0.6930505
0.7778615,-0.2446014,-0.6217341
0.7778889,-0.2378364,-0.5338118
0.7849269,-0.200794,-0.5186267
0.6980763,-0.1209217,-0.4970455
0.6862334,-0.06452025,-0.4748851
0.6811348,-0.0489949,-0.5046019
0.6464829,-0.0311545,-0.500019
0.6390568,-0.03074771,-0.4684538
0.5855342,-0.09883834,-0.4349608
0.5600674,-0.141123,-0.3634273
0.5662844,-0.1253946,-0.3351804
0.5801138,-0.1111198,-0.3422469
0.621992,-0.06444094,-0.3490149
0.7050849,-0.01945465,-0.4154287
0.8774785,-0.009743012,-0.4597693
1.056966,-0.01618968,-0.4895386
1.231771,-0.05344053,-0.5775225
1.377592,-0.1162534,-0.6395852
1.397723,-0.1696504,-0.6926401
1.312495,-0.1289211,-0.7869415
1.144868,-0.04722487,-0.8907844
0.9835275,-0.04930961,-0.9527749
0.8582294,-0.1309332,-0.9479045
0.765999,-0.2568048,-0.9163573
0.7380705,-0.2880231,-0.8370496
0.7045023,-0.2329453,-0.7328426
0.7116237,-0.2310131,-0.6580882
0.7745032,-0.1803272,-0.5963206
0.8252461,-0.1083775,-0.585135
0.8501204,-0.1180142,-0.5997806
0.7964832,-0.1322939,-0.5899991
0.734405,-0.1636293,-0.5580686
0.6971275,-0.1989046,-0.4738814
0.6377789,-0.1988655,-0.3797421
0.5993739,-0.1892262,-0.3362458
0.5512142,-0.14674,-0.3213742
0.5078883,-0.1037182,-0.3028409
0.5239867,-0.1116246,-0.3120183
0.5713079,-0.15121,-0.3527233
0.6500865,-0.1902554,-0.3538282
0.7460676,-0.2313131,-0.3494608
0.8360608,-0.27505,-0.3608796
0.9513219,-0.295235,-0.3419081
1.10111,-0.3195874,-0.3199459
1.161898,-0.3299562,-0.3134931
1.150704,-0.3115465,-0.4150708
1.236098,-0.3362313,-0.6237848
1.248978,-0.3603493,-0.7171766
1.158057,-0.3640693,-0.720613
1.125897,-0.3917029,-0.7922878
0.984932,-0.3674985,-0.8233069
0.8000397,-0.2660592,-0.7573108
0.6596956,-0.1661302,-0.7062449
0.5785852,-0.1632839,-0.6648264
0.7320768,-0.2561024,-0.6518819
0.8229306,-0.3275149,-0.6685715
0.8198721,-0.3605059,-0.5872519
0.896487,-0.3488612,-0.5147917
0.8203317,-0.2693626,-0.5221216
0.7799848,-0.174004,-0.5025205
0.7917312,-0.07633394,-0.5100275
0.7328089,-0.02154068,-0.5153394
0.7731196,-0.00757048,-0.5028485
0.745737,-0.02719085,-0.4988765
0.6896913,-0.1343127,-0.4221173
0.6699321,-0.1862689,-0.3517059
0.6042121,-0.1408289,-0.3321097
0.6015573,-0.1080753,-0.3266384
0.5899211,-0.04894807,-0.3370138
0.6304232,0.02727512,-0.3448687
0.7467924,0.05837876,-0.382246
0.8671176,0.02783741,-0.4161642
1.06381,-0.01763864,-0.4361796
1.190616,-0.0584683,-0.4531165
1.24089,-0.1189355,-0.4235708
1.254744,-0.119151,-0.4364108
1.15664,-0.08576926,-0.5975883
1.085369,-0.1030285,-0.8508201
1.089934,-0.2247914,-0.994362
1.056401,-0.4453505,-0.9913659
0.9006715,-0.500745,-0.9761558
0.732963,-0.3565676,-0.8821703
0.6839392,-0.2513918,-0.713602
0.6828604,-0.2020228,-0.6172369
0.7282207,-0.1756924,-0.5921443
0.7911089,-0.1741811,-0.5910458
0.7946183,-0.1843456,-0.5845736
0.7646084,-0.2081572,-0.5825423
0.7429112,-0.2176403,-0.5664197
0.7557148,-0.2151367,-0.5138524
0.7527028,-0.2160164,-0.4954874
0.7302226,-0.2166777,-0.5066018
0.7160772,-0.1937859,-0.508012
0.7015814,-0.1350759,-0.4990046
0.7101724,-0.08537003,-0.4642465
0.7036938,-0.07410801,-0.4014
0.6706843,-0.09077336,-0.3413669
0.6332943,-0.1155901,-0.3317582
0.6156862,-0.1620847,-0.3146928
0.6891693,-0.23547,-0.2638994
0.8365242,-0.2608921,-0.260383
0.9995838,-0.2277001,-0.2851865
1.125058,-0.1898523,-0.3154915
1.215138,-0.1594549,-0.3726438
1.333,-0.1880711,-0.4738186
1.386006,-0.2913146,-0.6167035
1.338305,-0.3990557,-0.7034867
1.280372,-0.4641647,-0.7015196
1.08586,-0.4503114,-0.6892579
0.7399999,-0.3890996,-0.6918247
0.560151,-0.3592083,-0.6762671
0.6196618,-0.3604542,-0.6677685
0.7176845,-0.3636389,-0.7387465
0.8061018,-0.3291687,-0.8315501
0.8548854,-0.2572489,-0.8358722
0.8306887,-0.2056095,-0.783066
0.8230302,-0.1924763,-0.7327506
0.7880156,-0.1853014,-0.6299938
0.7077048,-0.1372343,-0.4960213
0.7073674,-0.1019924,-0.4977184
0.7148347,-0.09141293,-0.5501707
0.6735684,-0.03896758,-0.4891044
0.6361397,-0.02735517,-0.4488771
0.5737791,-0.04685854,-0.4236107
0.5515081,-0.04468787,-0.344632
0.5974993,-0.07935236,-0.3478831
0.6391586,-0.08911587,-0.3836282
0.6998754,-0.05612847,-0.4004825
0.7966814,-0.02627807,-0.4516318
0.9351344,-0.009373831,-0.4752255
1.113878,-0.02920099,-0.5038208
1.259416,-0.06480528,-0.5651994
1.314616,-0.1342394,-0.6266248
1.277003,-0.1859985,-0.7168716
1.193906,-0.147895,-0.8316627
1.082664,-0.1332395,-0.9490432
0.9427499,-0.1792676,-0.9759787
0.8326694,-0.216803,-0.8962373
0.7601374,-0.2301735,-0.8335897
0.7232687,-0.1906288,-0.7744487
0.722671,-0.1357534,-0.7112474
0.7384169,-0.1376729,-0.7006502
0.8155048,-0.1445858,-0.68477
0.8792995,-0.1349263,-0.6398047
0.8508706,-0.1523967,-0.6058477
0.8099694,-0.1678005,-0.5610043
0.7517245,-0.1953218,-0.4954206
0.6864659,-0.2422384,-0.4392158
0.6567268,-0.2409197,-0.3913574
0.6187668,-0.2096397,-0.3592338
0.5783816,-0.1708891,-0.3482359
0.553619,-0.1246725,-0.3431381
0.5514324,-0.1142003,-0.3519603
0.5935851,-0.1348931,-0.3637166
0.6771143,-0.1721582,-0.3745659
0.7936955,-0.2238765,-0.3864592
0.9340825,-0.2504993,-0.3857405
1.057318,-0.2337814,-0.3804051
1.114049,-0.2132513,-0.3383167
1.156052,-0.2095955,-0.2793386
1.212823,-0.2096973,-0.3316678
1.220387,-0.2442572,-0.551906
1.229465,-0.3301952,-0.7957619
1.233498,-0.3896486,-0.8213858
1.059247,-0.3248029,-0.7289504
0.760587,-0.2104927,-0.7599109
0.6272454,-0.2023783,-0.7526103
0.7093737,-0.2286228,-0.6749964
0.7590113,-0.226661,-0.681967
0.7445683,-0.2560239,-0.6729614
0.8276441,-0.2780484,-0.6608904
0.8899139,-0.2979726,-0.6262312
0.8440088,-0.2912153,-0.5283416
0.7935391,-0.210517,-0.4970554
0.731422,-0.1362648,-0.4440436
0.6960407,-0.07316244,-0.4225631
0.6993061,-0.009669245,-0.4913128
0.694139,0.009676855,-0.4794389
0.707572,-0.02257234,-0.488459
0.6807521,-0.07079727,-0.4885851
0.6244904,-0.09554759,-0.4053721
0.6029733,-0.1149479,-0.3743648
0.5955136,-0.1002106,-0.3506167
0.6270765,-0.0578044,-0.3680467
0.6939385,-0.03442625,-0.4264908
0.804764,-0.01020245,-0.4379267
0.9688473,-0.02007681,-0.4793032
1.098044,-0.03022718,-0.5121862
1.163371,-0.03224409,-0.529347
1.208036,-0.1018666,-0.5705468
1.236485,-0.1694748,-0.5934925
1.201781,-0.1748804,-0.6931609
1.113713,-0.08420244,-0.8867145
1.041477,-0.005958682,-1.025926
0.9757416,-0.1588656,-1.006003
0.8683417,-0.3371289,-0.8941207
0.7456918,-0.298054,-0.8222009
0.7110503,-0.21547,-0.7397954
0.7350149,-0.1618926,-0.6564092
0.7324131,-0.08929828,-0.6486708
0.7919085,-0.09071699,-0.651375
0.8544536,-0.1186476,-0.6331757
0.8156972,-0.1162048,-0.5973527
0.7682061,-0.1751442,-0.5638723
0.7083018,-0.220926,-0.5290153
0.6646251,-0.2183887,-0.4750414
0.6814823,-0.2302891,-0.4464107
0.6715996,-0.2040088,-0.4300665
0.6450903,-0.1738593,-0.4248155
0.6128686,-0.1567166,-0.39939
0.5751335,-0.137307,-0.3399926
0.5901156,-0.1624777,-0.3420172
0.6401421,-0.1963166,-0.3636837
0.7135678,-0.2400334,-0.37331
0.8056587,-0.2802918,-0.3867018
0.8950785,-0.2818672,-0.3502708
1.008706,-0.2783273,-0.3096777
1.118112,-0.2429833,-0.3105705
1.198141,-0.1958248,-0.3659846
1.268645,-0.19592,-0.4865285
1.260425,-0.2825282,-0.6214292
1.184251,-0.4699983,-0.6976248
1.126253,-0.5914965,-0.6891413
1.017015,-0.5444007,-0.7054767
0.8130543,-0.4594146,-0.7683418
0.6156091,-0.3761443,-0.7741625
0.5449801,-0.2818059,-0.7348179
0.6320207,-0.2990293,-0.6975105
0.764448,-0.3756442,-0.7252256
0.8289085,-0.3881039,-0.763935
0.8178106,-0.4028627,-0.6750814
0.773065,-0.3297793,-0.5718325
0.7399189,-0.1862306,-0.5542243
0.7537359,-0.1423449,-0.5828156
0.7783462,-0.07167498,-0.6215614
0.7657273,-0.01565392,-0.5979199
0.7389087,-0.05713972,-0.5526208
0.6777048,-0.05282185,-0.5023793
0.6044993,-0.05443103,-0.4389986
0.5868624,-0.06083556,-0.4308633
0.5954726,-0.03403598,-0.4174294
0.6282922,-0.04739141,-0.4124514
0.6792801,-0.04521948,-0.4503037
0.7234368,-0.0227425,-0.4616217
0.7794295,-0.0142518,-0.4734476
0.8442608,-0.004285526,-0.4618436
0.9355075,-0.01731202,-0.4332288
1.062218,-0.04110031,-0.4354805
1.2074,-0.07447508,-0.4350881
1.318404,-0.1166574,-0.4780237
1.304255,-0.1421165,-0.5626007
1.186552,-0.1642591,-0.6939406
1.067522,-0.1712259,-0.9201361
1.031659,-0.1816362,-1.073353
1.035763,-0.2312646,-1.038603
0.9098491,-0.2532411,-0.9329671
0.7312948,-0.1905371,-0.8145346
0.7095584,-0.1034157,-0.7180255
0.7429318,-0.0977381,-0.7189357
0.7304935,-0.1395701,-0.7151268
0.7674897,-0.146992,-0.6619297
0.7943403,-0.1568828,-0.662283
0.7310142,-0.1207897,-0.5978231
0.6664453,-0.04002024,-0.4633978
0.6487461,-0.03711465,-0.4513101
0.6539128,-0.06764334,-0.4654028
0.640306,-0.1139799,-0.4202762
0.6174836,-0.1837726,-0.4225292
0.6383828,-0.1949236,-0.4256628
0.6678537,-0.2077133,-0.3779091
0.6844322,-0.2379013,-0.3734699
0.7036532,-0.2080394,-0.4005689
0.726526,-0.1946935,-0.4092497
0.778655,-0.226449,-0.4289379
0.8415515,-0.2459058,-0.4239677
0.9266552,-0.2793734,-0.4017079
1.046845,-0.2957387,-0.3873331
1.133407,-0.2687526,-0.3509259
1.18169,-0.2564931,-0.3516134
1.204108,-0.2471095,-0.4141675
1.209843,-0.2568245,-0.5181163
1.217401,-0.3383333,-0.6303123
1.184485,-0.4352958,-0.6741103
1.081562,-0.4341243,-0.7010892
0.8704174,-0.3219375,-0.7356803
0.6431982,-0.2319557,-0.7145129
0.6065152,-0.2251016,-0.6937947
0.6913559,-0.2445529,-0.6915494
0.7654814,-0.2493862,-0.679757
0.8554372,-0.2509324,-0.6879487
0.8867554,-0.2710087,-0.6795066
0.8249286,-0.2497701,-0.6181818
0.7719287,-0.1823072,-0.515201
0.730773,-0.1133655,-0.4333196
0.6808837,-0.04588248,-0.4511123
0.6482952,-0.02302917,-0.4704469
0.6107166,-0.03481911,-0.4375017
0.5711722,-0.06874771,-0.4319252
0.5612712,-0.1188212,-0.4065569
0.578033,-0.1447884,-0.3735942
0.6113224,-0.1621481,-0.3891597
0.6691508,-0.1517713,-0.3960983
0.7772981,-0.1174221,-0.4147005
0.9200972,-0.074003,-0.4648768
1.086774,-0.02637074,-0.5162725
1.263832,-0.02675871,-0.5688496
1.34548,-0.03306495,-0.6020906
1.30866,-0.03916297,-0.6259875
1.240187,-0.08220757,-0.6761531
1.191929,-0.1145275,-0.7792225
1.170447,-0.1260032,-0.8745894
1.065687,-0.1704529,-0.88702
0.8775496,-0.259653,-0.9154809
0.835253,-0.2653204,-0.9233442
0.8345145,-0.2075015,-0.7996503
0.707569,-0.1958179,-0.7072576
0.7244502,-0.1424493,-0.6972664
0.8120455,-0.1178046,-0.6524646
0.7804436,-0.1408789,-0.566131
0.824794,-0.1087039,-0.5124954
0.8167268,-0.1274173,-0.5308106
0.731458,-0.1408539,-0.5087105
0.7291091,-0.1297291,-0.4716261
0.6574492,-0.1949657,-0.4715703
0.6120572,-0.2388885,-0.3971264
0.6210499,-0.2531574,-0.3603949
0.5657881,-0.2266819,-0.3779472
0.5588788,-0.1687117,-0.3458609
0.5592444,-0.1648172,-0.3508453
0.6021655,-0.1591417,-0.3622333
0.7372644,-0.1916023,-0.3819091
0.8603474,-0.256448,-0.4346206
1.007349,-0.2628118,-0.4369993
1.142852,-0.2617892,-0.4165682
1.228612,-0.2663524,-0.3921333
1.266929,-0.2765734,-0.391411
1.231767,-0.2984617,-0.4771138
1.187354,-0.357212,-0.6229911
1.130599,-0.4311124,-0.7328612
1.052652,-0.376583,-0.7648271
0.8913822,-0.2611807,-0.7999383
0.6467469,-0.2149334,-0.795973
0.6003101,-0.2099208,-0.7176732
0.7270928,-0.2491801,-0.6896599
0.8020371,-0.3018444,-0.6977127
0.8688833,-0.3324421,-0.6909996
0.8587374,-0.3270283,-0.6495657
0.7672641,-0.2554294,-0.5417327
0.7448714,-0.1709293,-0.4600426
0.7140785,-0.1007244,-0.4680478
0.6716927,-0.05303124,-0.5013813
0.6631875,-0.05073066,-0.4947452
0.6352949,-0.04362855,-0.4747727
0.6246443,-0.05217286,-0.4552795
0.6040575,-0.1046738,-0.4016326
0.5842055,-0.133646,-0.3621559
0.6028422,-0.1355349,-0.3507526
0.6342579,-0.1233698,-0.3657313
0.7450967,-0.08770927,-0.4231709
0.9045275,-0.0570612,-0.4834391
1.056711,-0.03256349,-0.5495456
1.196539,-0.02073174,-0.5951101
1.278581,-0.05425314,-0.6209637
1.30501,-0.1103844,-0.662965
1.227165,-0.1363772,-0.7379311
1.090997,-0.1075546,-0.895065
1.012521,-0.09790402,-0.9751307
0.9283148,-0.2057924,-0.8948591
0.7983257,-0.3134685,-0.8166671
0.7012922,-0.2806573,-0.7251348
0.7019419,-0.2169251,-0.6600876
0.7531071,-0.1884387,-0.6788837
0.811775,-0.1290291,-0.6357907
0.8756037,-0.09157358,-0.5737071
0.8436992,-0.101699,-0.5480725
0.7580415,-0.08673327,-0.4896623
0.7173966,-0.09016169,-0.4671675
0.6526388,-0.1591761,-0.4587884
0.6049738,-0.2312632,-0.4015273
0.6098851,-0.2481599,-0.3711543
0.6000296,-0.2319445,-0.3726672
0.5925755,-0.2285975,-0.3703086
0.5945751,-0.2071169,-0.3621009
0.6359921,-0.1951582,-0.3619703
0.7288961,-0.2238936,-0.3805037
0.8028279,-0.2379805,-0.3973165
0.8737111,-0.2655927,-0.4116081
0.9668742,-0.2756039,-0.3927507
1.059943,-0.2469448,-0.3495989
1.163742,-0.2509671,-0.3480623
1.254717,-0.2330043,-0.3911952
1.25194,-0.2231019,-0.500171
1.149388,-0.3062481,-0.6480304
1.062496,-0.4001082,-0.7295941
1.018996,-0.4044452,-0.7502023
0.8801987,-0.3188286,-0.779283
0.6581278,-0.2497017,-0.7811815
0.6087919,-0.2347231,-0.7080424
0.7282156,-0.2396289,-0.6684475
0.7842587,-0.2679688,-0.7147623
0.8287397,-0.2957864,-0.731582
0.8826752,-0.3092646,-0.6589245
0.8586891,-0.2848777,-0.5502546
0.835078,-0.2304203,-0.5010222
0.7918986,-0.1706869,-0.4976018
0.7264039,-0.0810102,-0.4791845
0.6965334,-0.01749503,-0.4724848
0.6635726,-0.0260593,-0.4652662
0.6278657,-0.07671496,-0.4401744
0.574017,-0.1249539,-0.3977001
0.555922,-0.1421987,-0.3540604
0.5912737,-0.1445018,-0.3579776
0.5972456,-0.116239,-0.3847532
0.6479566,-0.0811519,-0.4095308
0.7157594,-0.07535864,-0.4227571
0.796224,-0.07414403,-0.4403034
1.054405,-0.07122906,-0.5045582
1.279596,-0.06415671,-0.5448753
1.243086,-0.07550267,-0.5557125
1.207236,-0.1059004,-0.6389935
1.26639,-0.1222583,-0.7530604
1.18946,-0.09840389,-0.836908
1.054086,-0.07069427,-0.9457283
0.9743306,-0.1575141,-0.9989289
0.838099,-0.2686575,-0.907074
0.7467387,-0.260589,-0.8508453
0.7615821,-0.2258678,-0.8379808
0.7680971,-0.2067585,-0.7570687
0.784521,-0.1679193,-0.715416
0.8277432,-0.1392951,-0.6706467
0.8729495,-0.152618,-0.6213887
0.8744968,-0.1858933,-0.6241929
0.8314639,-0.206276,-0.5709575
0.7900159,-0.2344076,-0.5475053
0.7230082,-0.2529446,-0.5437845
0.682912,-0.2474035,-0.4797304
0.6799397,-0.2343236,-0.4659507
0.6497662,-0.2001979,-0.4530073
0.6328163,-0.1807779,-0.435791
0.6171755,-0.175224,-0.4416924
0.6070824,-0.1672985,-0.4098852
0.6461933,-0.1966368,-0.399904
1.397039,-0.3342126,-0.588235
1.16108,-0.3419748,-0.5619061
1.004527,-0.3213876,-0.5111656
0.9475284,-0.3216851,-0.4640284
0.8650401,-0.3291887,-0.3633339
0.8125934,-0.3002981,-0.2872701
0.8464463,-0.3016713,-0.2832731
0.922043,-0.3098732,-0.2975832
1.052345,-0.3045315,-0.3157798
1.082686,-0.3196967,-0.3189625
0.938426,-0.3278547,-0.3069655
0.8171222,-0.3622842,-0.2796354
0.761921,-0.3959305,-0.2377941
0.7441871,-0.3553041,-0.22551
0.6929355,-0.2767402,-0.1855767
0.597114,-0.2071977,-0.1333417
0.6143586,-0.1788686,-0.1748107
0.6194702,-0.1546736,-0.2277118
0.5976993,-0.1379941,-0.2298618
0.7096271,-0.2013804,-0.2085107
0.8035617,-0.2632951,-0.1320182
0.8840159,-0.2754695,-0.02601631
1.009682,-0.2787412,0.0536321
1.123768,-0.24806,0.08949655
1.261356,-0.209161,0.06930814
1.339032,-0.2010258,-0.01053946
1.377139,-0.2669645,-0.1650985
1.432679,-0.4122976,-0.2992266
1.422427,-0.5101024,-0.2925361
1.280162,-0.5085503,-0.2713678
0.9898579,-0.4227647,-0.3130514
0.8194565,-0.3225155,-0.3280504
0.8722074,-0.32793,-0.3774115
0.9291823,-0.3595669,-0.4660109
0.9995215,-0.3390894,-0.4630283
1.027173,-0.3193467,-0.3785389
0.9544228,-0.2885841,-0.2718321
0.9074195,-0.2624448,-0.1946388
0.8542783,-0.2531742,-0.2022129
0.7870731,-0.2085894,-0.2309558
0.7377322,-0.1512126,-0.2376736
0.6783178,-0.1279951,-0.261793
0.6452078,-0.1453744,-0.2605927
0.6171223,-0.1950136,-0.227936
0.5743784,-0.2407633,-0.2131111
0.6045691,-0.2590711,-0.1946605
0.6951342,-0.2551562,-0.2067883
0.7586487,-0.2249354,-0.234178
0.8491907,-0.1533565,-0.2099803
0.9813783,-0.07471035,-0.2056709
1.126044,-0.04111643,-0.2182087
1.307391,-0.03386938,-0.204272
1.365559,-0.05978958,-0.1919285
1.304325,-0.1314548,-0.1648373
1.330024,-0.2192518,-0.1664085
1.361353,-0.2903253,-0.2269463
1.354586,-0.2636827,-0.3352398
1.362299,-0.2225273,-0.5250755
1.328199,-0.2885688,-0.6932448
1.252068,-0.3682723,-0.6912036
1.111011,-0.4543161,-0.5905699
0.9514193,-0.497068,-0.5131073
0.8760125,-0.4227269,-0.4280883
0.8737386,-0.3906999,-0.3526663
0.9492132,-0.3810856,-0.3214939
1.047159,-0.3242971,-0.2841121
1.059566,-0.3214374,-0.2908634
0.9705971,-0.3295764,-0.3083472
0.8252307,-0.3091739,-0.2758104
0.715449,-0.2802969,-0.2511861
0.6519099,-0.2348427,-0.1827343
0.6034312,-0.1897026,-0.1402136
0.6173353,-0.152077,-0.1877316
0.6449919,-0.1616661,-0.191103
0.6331681,-0.1838924,-0.1761266
0.6696302,-0.1857238,-0.1717285
0.7663322,-0.2312273,-0.1411807
0.9313001,-0.2916997,-0.09983936
1.152351,-0.344963,-0.0512124
1.191083,-0.3630285,-0.05570072
1.148071,-0.3262661,-0.08014017
1.275282,-0.3308301,-0.06357851
1.283693,-0.3488913,-0.09785456
1.216279,-0.3971458,-0.2355214
1.299791,-0.5085465,-0.4180595
1.239724,-0.4935857,-0.4834115
1.057336,-0.4081225,-0.3993041
0.8877698,-0.3990583,-0.3902182
0.8149392,-0.3999924,-0.4517534
0.9969816,-0.4241203,-0.4564243
1.074262,-0.4347408,-0.4637392
0.9670467,-0.4081059,-0.4099224
0.9054494,-0.367151,-0.2761668
0.8199708,-0.2763321,-0.1998646
0.7955545,-0.2342367,-0.2176671
0.7726162,-0.2159189,-0.2902075
0.7085554,-0.1745524,-0.3339146
0.7137638,-0.2074985,-0.3546944
0.6652229,-0.2335557,-0.3524705
0.6205331,-0.2475109,-0.2934425
0.634938,-0.2807384,-0.2504605
0.6336132,-0.251864,-0.2173848
0.6749369,-0.2261541,-0.2161313
0.7659037,-0.1935065,-0.2437466
0.8928914,-0.1299298,-0.2352771
1.035081,-0.1163508,-0.2419205
1.177599,-0.1222379,-0.2460727
1.293506,-0.1727744,-0.2867699
1.337008,-0.2757697,-0.3634788
1.364088,-0.3257499,-0.3745604
1.374457,-0.3386735,-0.4493757
1.346676,-0.3829157,-0.6129506
1.282094,-0.441867,-0.6871249
1.118099,-0.4523136,-0.6494829
0.9392597,-0.4265207,-0.606111
0.8792008,-0.4031058,-0.5614626
0.8470619,-0.3515683,-0.4771526
0.8087648,-0.3098388,-0.4393079
0.8880082,-0.3017436,-0.4050069
0.9844523,-0.2908893,-0.3337975
0.9799221,-0.3069086,-0.3382526
0.9393429,-0.3392231,-0.3557265
0.8478504,-0.3551318,-0.3376232
0.7567172,-0.3557066,-0.3089524
0.7111216,-0.3229036,-0.2337773
0.6571627,-0.2665154,-0.175876
0.628682,-0.2077702,-0.1782146
0.6024844,-0.1725405,-0.1978298
0.5905398,-0.1822119,-0.2060038
0.6497544,-0.2252218,-0.1880383
0.7546455,-0.2946155,-0.1500537
0.8639133,-0.3387122,-0.111038
0.9034807,-0.3224747,-0.08923304
0.9806483,-0.2965157,-0.05078469
1.139595,-0.2778797,0.005577157
1.166724,-0.274617,-0.01126361
1.184495,-0.315188,-0.09769902
1.31139,-0.4203244,-0.2087935
1.291686,-0.5382991,-0.3105211
1.204679,-0.5123652,-0.3103251
1.15915,-0.4273162,-0.3301988
0.9778672,-0.4365697,-0.4386033
0.8033019,-0.3850052,-0.4285688
0.7108075,-0.3228878,-0.4170147
0.7374928,-0.3983613,-0.4741452
0.9740982,-0.4727762,-0.4319603
1.016784,-0.510557,-0.4233116
0.91604,-0.5080865,-0.4045231
0.9429812,-0.4274595,-0.3087608
0.8823269,-0.3074586,-0.2841097
0.8602985,-0.1882357,-0.2597521
0.8486936,-0.162537,-0.2886408
0.7648965,-0.1631398,-0.361545
0.7787314,-0.1438942,-0.3425846
0.7265868,-0.2000048,-0.3226524
0.6732759,-0.2418013,-0.270487
0.6802939,-0.2428553,-0.1957989
0.6603494,-0.2262572,-0.184861
0.6888965,-0.1546862,-0.1921169
0.6847367,-0.09787677,-0.2143953
0.7227362,-0.06321487,-0.2192735
0.8386613,-0.05693087,-0.2144802
0.9477805,-0.0797706,-0.2105512
1.080096,-0.07896465,-0.1855441
1.189178,-0.09289116,-0.1837527
1.330009,-0.1194825,-0.1929366
1.427003,-0.1651238,-0.2496103
1.403405,-0.2340543,-0.3528312
1.403877,-0.2670125,-0.4203821
1.366748,-0.3125585,-0.5039823
1.267056,-0.3882714,-0.6032806
1.163042,-0.462078,-0.6593423
1.034096,-0.5122131,-0.6806704
0.9418029,-0.4703703,-0.6101062
0.8474354,-0.4041461,-0.4509958
0.7595308,-0.3886239,-0.3644046
0.8350253,-0.3589934,-0.3850977
0.9601711,-0.3377992,-0.4050318
0.9840596,-0.3684152,-0.4234412
0.98414,-0.3963115,-0.4467512
0.9212624,-0.3921797,-0.3925556
0.8138059,-0.3690082,-0.2951653
0.7814817,-0.3315191,-0.2755753
0.7660655,-0.2734774,-0.2938972
0.7587809,-0.2224156,-0.2852746
0.7564887,-0.1905282,-0.2905879
0.7299239,-0.1387315,-0.2717767
0.7180838,-0.1152347,-0.227495
0.7041838,-0.1598101,-0.2099943
0.7037807,-0.2030584,-0.1732281
0.708345,-0.231982,-0.1208212
0.7122194,-0.2513284,-0.07673596
0.7420672,-0.2316259,-0.04950511
0.7842142,-0.1815215,-0.06336552
0.8671961,-0.1272104,-0.07194181
0.9371864,-0.1192192,-0.06776405
1.054792,-0.1607694,-0.09148454
1.283988,-0.2011025,-0.1255918
1.347647,-0.2643138,-0.160782
1.332531,-0.4005672,-0.2447044
1.547424,-0.6239862,-0.3716085
1.65151,-0.7591441,-0.4102949
1.33769,-0.6053981,-0.3629772
0.902872,-0.4157669,-0.3796973
0.7221941,-0.3945146,-0.4085801
0.8680546,-0.4208023,-0.407932
1.0092,-0.4708005,-0.4578666
0.9774185,-0.4354576,-0.4648206
0.9752638,-0.3317412,-0.4154792
0.944777,-0.2779853,-0.4006549
0.8828205,-0.2033798,-0.372449
0.9062777,-0.1925547,-0.3323882
0.8769755,-0.1947901,-0.3120048
0.8293139,-0.154915,-0.3128792
0.8005228,-0.1876233,-0.3082546
0.7261934,-0.1761047,-0.2700313
0.671617,-0.1679627,-0.2634627
0.6292959,-0.1958392,-0.2532731
0.6354726,-0.1706917,-0.2165088
0.6751048,-0.1884015,-0.2256037
0.6905476,-0.191923,-0.2348048
0.7429556,-0.1713841,-0.2476862
0.8074198,-0.1573729,-0.2760873
0.8948744,-0.10275,-0.2620238
1.027681,-0.08042242,-0.2473535
1.160738,-0.06776465,-0.2533284
1.238469,-0.07682443,-0.2559824
1.249612,-0.1406681,-0.2770264
1.33683,-0.2372182,-0.3470126
1.452676,-0.3819265,-0.459446
1.44663,-0.4122005,-0.5317217
1.334208,-0.3690705,-0.5727754
1.155822,-0.4496999,-0.6545686
1.047412,-0.4622036,-0.6303708
0.9729966,-0.3547784,-0.4586656
0.8455155,-0.3066997,-0.3693924
0.8557802,-0.2783264,-0.3863683
0.9341269,-0.2463526,-0.3875603
0.9128829,-0.2340753,-0.3499448
0.9477289,-0.2346945,-0.3128966
0.9914626,-0.2440585,-0.3084657
0.9046086,-0.2396194,-0.2972207
0.8262685,-0.2621739,-0.2969486
0.7636788,-0.28431,-0.2768386
0.7063353,-0.2867351,-0.2142012
0.7165815,-0.295704,-0.2020384
0.6848452,-0.2732605,-0.1929242
0.6551249,-0.2556284,-0.18047
0.6811798,-0.2373528,-0.2013618
0.6985317,-0.2210031,-0.217962
0.7406133,-0.2426337,-0.2294346
0.7885209,-0.2456317,-0.1967291
0.8378937,-0.2587784,-0.1551745
0.8678931,-0.2784352,-0.1290963
0.8893368,-0.2690238,-0.0899514
0.9929657,-0.2682027,-0.04948136
1.114175,-0.2513493,-0.01432575
1.214382,-0.224287,-0.0437126
1.298263,-0.2342397,-0.0936504
1.335758,-0.3148485,-0.1740035
1.38411,-0.4559857,-0.3237877
1.465386,-0.5711965,-0.3727944
1.469592,-0.590443,-0.3517463
1.236396,-0.4869954,-0.3572724
0.8638879,-0.3392332,-0.3589418
0.6921857,-0.2942019,-0.4123319
0.762305,-0.3555592,-0.4670751
0.8527596,-0.40597,-0.4515569
0.9197273,-0.4190498,-0.4193335
0.9500393,-0.4253005,-0.401075
0.8943361,-0.3969335,-0.3627547
0.8686433,-0.3425176,-0.292913
0.8624216,-0.2749114,-0.242638
0.816342,-0.1943053,-0.2260576
0.8268173,-0.1493326,-0.2573278
0.8302405,-0.1429041,-0.3200575
0.7956054,-0.1629941,-0.3405603
0.7678204,-0.1900912,-0.3022333
0.7055592,-0.1919648,-0.2381589
0.6726957,-0.1927219,-0.2256432
0.6771479,-0.1996017,-0.2443604
0.6891705,-0.20344,-0.2333336
0.7316343,-0.1773562,-0.23864
0.7769704,-0.1048285,-0.2397483
0.8314435,-0.05678202,-0.2277376
0.9085884,-0.06239276,-0.2289951
1.048621,-0.08198835,-0.2238085
1.20777,-0.1150774,-0.2331566
1.278839,-0.1927618,-0.2554334
1.332053,-0.2765159,-0.2973447
1.395295,-0.298576,-0.3736196
1.42479,-0.2962875,-0.4795468
1.423544,-0.3008506,-0.6162675
1.327951,-0.324388,-0.672433
1.116595,-0.3967276,-0.5827185
0.9079097,-0.4444632,-0.4837902
0.839531,-0.4096432,-0.4719411
0.8281853,-0.3324035,-0.4718703
0.7498839,-0.2733864,-0.4343839
0.7580083,-0.2760697,-0.411965
0.8635716,-0.2927599,-0.3735081
0.9104312,-0.2727817,-0.310361
0.9525923,-0.2707468,-0.3254217
0.9697294,-0.2961775,-0.3766654
0.9120654,-0.3091869,-0.377799
0.8683414,-0.3348855,-0.3581906
0.8331649,-0.3409806,-0.3012796
0.8008912,-0.3178884,-0.2234497
0.772175,-0.3094183,-0.2081347
0.7271384,-0.256529,-0.2193084
0.7027917,-0.2061143,-0.2102947
0.6903351,-0.2189516,-0.2079211
0.6889693,-0.2231717,-0.2075372
0.6892338,-0.2351962,-0.1912938
0.6891544,-0.262246,-0.151914
0.7224782,-0.279025,-0.09944776
0.7585648,-0.2812773,-0.05538559
0.8170583,-0.2520566,-0.02955853
0.9397401,-0.2288939,-0.02567328
1.115208,-0.2225729,-0.05812877
1.278591,-0.2399902,-0.1594771
1.366235,-0.3450153,-0.3003638
1.453079,-0.5728753,-0.3890623
1.524009,-0.7455558,-0.384669
1.417118,-0.6293837,-0.3405734
1.105775,-0.4593878,-0.3267984
0.7670605,-0.4588001,-0.3414892
0.6677431,-0.4560133,-0.3555294
0.818143,-0.4892423,-0.3522099
0.915156,-0.5576831,-0.351758
0.8953919,-0.5330954,-0.3782122
0.9250756,-0.5189728,-0.4042502
0.9234658,-0.4813078,-0.4209201
0.8769288,-0.3952963,-0.4113674
0.9004624,-0.3431439,-0.3789941
0.9187881,-0.2771883,-0.3693757
0.9510355,-0.2430401,-0.3815727
0.9745418,-0.2433731,-0.4142466
0.8876924,-0.2146555,-0.4135871
0.772719,-0.1940465,-0.3216834
0.66429,-0.1957489,-0.2080657
0.6207889,-0.1997847,-0.1575038
0.6543917,-0.1601536,-0.1700233
0.6712005,-0.0975577,-0.1921206
0.7229152,-0.0641739,-0.2413619
0.8013706,-0.05570788,-0.296231
0.8559998,-0.06145047,-0.2774057
0.8924392,-0.03965018,-0.24047
0.8957757,-0.01133831,-0.19476
0.937209,-0.005077132,-0.1396108
1.058607,-0.005749764,-0.1402078
1.208327,-0.04256082,-0.1756825
1.323346,-0.1097999,-0.2346175
1.360154,-0.1883198,-0.2720911
1.367086,-0.2380012,-0.3001565
1.392196,-0.2342827,-0.4178999
1.386,-0.2478574,-0.5571396
1.296061,-0.3139605,-0.6222762
1.138066,-0.4021687,-0.6091048
0.9868693,-0.4463185,-0.5802087
0.9366795,-0.440633,-0.5778316
0.966046,-0.4393993,-0.5238862
0.9583554,-0.4113758,-0.4335249
0.9295748,-0.3690298,-0.3904001
0.9407662,-0.326325,-0.3750622
0.9421198,-0.2228705,-0.348356
0.9257036,-0.1556505,-0.3383417
0.90825,-0.1924181,-0.3588349
0.8549791,-0.2002727,-0.3305956
0.805761,-0.176558,-0.2788287
0.7857211,-0.2002154,-0.255866
0.7516833,-0.210242,-0.2229034
0.7278859,-0.2037696,-0.2155622
0.7132948,-0.2156344,-0.2021078
0.6929336,-0.2092343,-0.1616614
0.6974341,-0.2106224,-0.1462884
0.7050667,-0.2226398,-0.1250318
0.7238218,-0.2298316,-0.1250166
0.7749991,-0.258411,-0.1369072
0.857776,-0.2793998,-0.1355411
1.006298,-0.2837825,-0.1472222
1.139236,-0.2521642,-0.1166927
1.160106,-0.1931433,-0.07919829
1.179653,-0.1844907,-0.08289429
1.263423,-0.210179,-0.1098128
1.326007,-0.3163542,-0.2155906
1.412838,-0.5174835,-0.3667415
1.487564,-0.5768813,-0.418138
1.288767,-0.4409981,-0.3811146
0.9191764,-0.3213128,-0.3877782
0.7471179,-0.2974472,-0.3942456
0.7869994,-0.3575685,-0.3714165
0.8796298,-0.4500333,-0.3880256
0.9590645,-0.4656677,-0.3703213
0.9794332,-0.4352882,-0.3396565
0.9392265,-0.3909732,-0.3342738
0.8939349,-0.2760731,-0.2847651
0.850477,-0.1613034,-0.2436454
0.7905428,-0.1029136,-0.2381582
0.773028,-0.07357789,-0.2599694
0.789621,-0.08426783,-0.2906043
0.7760827,-0.1336092,-0.2994011
0.7546494,-0.2115638,-0.3169933
0.7242374,-0.2693272,-0.2927799
0.6926321,-0.276688,-0.2339441
0.6907642,-0.2824656,-0.217391
0.7164615,-0.2585657,-0.226501
0.7838208,-0.1780964,-0.2489624
0.8639288,-0.1064699,-0.267266
0.9371159,-0.05918624,-0.282586
1.016722,-0.03534508,-0.2964322
1.107653,-0.04476208,-0.2882939
1.229739,-0.07108562,-0.2943505
1.321787,-0.1487735,-0.3366844
1.360831,-0.2694966,-0.416535
1.398113,-0.3407338,-0.5133848
1.378042,-0.3735554,-0.6093352
1.300481,-0.4262024,-0.6939682
1.194108,-0.4509056,-0.6797593
1.017334,-0.411528,-0.5751766
0.8757378,-0.3615828,-0.4822934
0.8582942,-0.3283648,-0.4276049
0.8990107,-0.3113311,-0.4150601
0.9527676,-0.3277518,-0.3845371
0.9874551,-0.3407924,-0.3057746
0.9847595,-0.3145051,-0.2485782
0.9331094,-0.2803113,-0.2277189
0.8461349,-0.253922,-0.2461874
0.7774833,-0.2451609,-0.2679842
0.7368142,-0.2590686,-0.2529894
0.7277974,-0.2618683,-0.2357264
0.7164967,-0.2542408,-0.1996544
0.6725558,-0.2441592,-0.1772529
0.6387416,-0.2219708,-0.1892542
0.6393361,-0.2125043,-0.1829281
0.6847518,-0.2123256,-0.1998251
0.7515244,-0.2213602,-0.2190416
0.8627968,-0.2789391,-0.2014798
1.029722,-0.3337186,-0.1802816
1.086025,-0.3091248,-0.1360157
1.064203,-0.2562254,-0.08578896
1.153187,-0.2317047,-0.04306965
1.238511,-0.2229708,-0.03066785
1.265196,-0.2957307,-0.1329561
1.363505,-0.4917621,-0.3058895
1.414439,-0.6291657,-0.4092034
1.312587,-0.5691185,-0.4181337
1.171185,-0.476975,-0.4257267
0.9646547,-0.4262634,-0.4244083
0.7081849,-0.3006271,-0.3795829
0.7105899,-0.2886652,-0.3856002
0.9011943,-0.4129993,-0.403155
0.9064947,-0.3968898,-0.3675643
0.9007559,-0.394947,-0.3448986
0.9395988,-0.4180043,-0.3109301
0.8611632,-0.3264587,-0.2776333
0.8573569,-0.2717822,-0.2586575
0.8343565,-0.1860925,-0.2310117
0.7794278,-0.1200777,-0.2578964
0.8000599,-0.1305375,-0.2734171
0.7277733,-0.1055943,-0.2548172
0.6978826,-0.1452465,-0.2582981
0.7059303,-0.1688055,-0.2271023
0.6909578,-0.1698791,-0.2212508
0.7574133,-0.2111799,-0.2545376
0.7962914,-0.1991303,-0.2588566
0.8708076,-0.2039657,-0.2640993
0.95277,-0.1770668,-0.2531399
1.006821,-0.1220823,-0.2386753
1.153903,-0.1235193,-0.230759
1.26041,-0.1295581,-0.2235435
1.317373,-0.1809889,-0.2631764
1.370335,-0.2511619,-0.3168558
1.379934,-0.2956279,-0.374438
1.376317,-0.3001293,-0.4744965
1.331817,-0.3005985,-0.6075119
1.243611,-0.3743869,-0.6848942
1.094415,-0.4302151,-0.6337098
0.9532508,-0.4618999,-0.5726524
0.9185587,-0.4498151,-0.5423367
0.8925988,-0.3586275,-0.4545824
0.8645776,-0.3073747,-0.3943924
0.9020541,-0.2697288,-0.3972382
0.9278143,-0.2467266,-0.366027
0.9140325,-0.2466942,-0.3135365
0.9282398,-0.2186689,-0.2713604
0.9259335,-0.23062,-0.2578392
0.8706835,-0.2500321,-0.2816005
0.8056615,-0.2781265,-0.2737992
0.7559058,-0.3242161,-0.2560265
0.7616665,-0.3042646,-0.2380951
0.7394169,-0.2869611,-0.175551
0.6760451,-0.2879398,-0.1660155
0.6997475,-0.2492103,-0.190346
0.7141999,-0.203747,-0.1673011
0.7015771,-0.1896795,-0.1603896
0.7587875,-0.2228243,-0.1536438
0.8040146,-0.2608131,-0.1302934
0.8451337,-0.2805508,-0.1074223
0.9277205,-0.2901766,-0.0720164
1.021919,-0.2730168,-0.0546444
1.116162,-0.2497327,-0.04356157
1.179514,-0.2365936,-0.04824625
1.24308,-0.2487939,-0.1098913
1.308724,-0.3519897,-0.218482
1.356657,-0.5271462,-0.31804
1.402544,-0.5993514,-0.32025
1.28794,-0.5017948,-0.2934377
0.9931989,-0.3698855,-0.3205364
0.798672,-0.2764219,-0.344411
0.7962617,-0.2690637,-0.4031759
0.8520564,-0.3703202,-0.4607828
0.8843349,-0.4338029,-0.4218988
0.9347209,-0.434531,-0.3899531
0.9835834,-0.4406095,-0.3873079
0.9503412,-0.4029713,-0.351708
0.9248291,-0.3330426,-0.3093108
0.9080918,-0.2572371,-0.2591856
0.8461957,-0.1917967,-0.2412527
0.8338109,-0.1638403,-0.2816061
0.8205928,-0.1544233,-0.3057265
0.7739196,-0.1688025,-0.294345
0.739341,-0.1777771,-0.2663642
0.6825294,-0.1780672,-0.2297684
0.66269,-0.1929384,-0.2159588
0.6973194,-0.2000156,-0.2316634
0.7417688,-0.2110918,-0.2453066
0.8027083,-0.1905116,-0.252383
0.868466,-0.1409902,-0.2735099
0.9300418,-0.1228547,-0.2786514
0.9996754,-0.1181836,-0.2543946
1.107226,-0.122644,-0.2357073
1.199725,-0.1332757,-0.2311523
1.270977,-0.1713306,-0.2640495
1.363043,-0.2623446,-0.332701
1.391343,-0.3318941,-0.4059579
1.425754,-0.3361603,-0.4988964
1.467513,-0.3149265,-0.5910487
1.344254,-0.3187713,-0.621567
1.133802,-0.3506863,-0.5809668
0.9304777,-0.3820256,-0.5370814
0.8127117,-0.3937098,-0.5299083
0.8174741,-0.371107,-0.4982617
0.8074946,-0.3445313,-0.4291615
0.8205107,-0.3204263,-0.3612951
0.8798924,-0.2959201,-0.3038286
0.9078089,-0.2990682,-0.2912754
0.9358373,-0.2862247,-0.3293653
0.9535996,-0.2624017,-0.3715957
0.9462597,-0.2760556,-0.3839651
0.8958959,-0.2954733,-0.3505368
0.8251908,-0.3141714,-0.2797958
0.802603,-0.3264918,-0.2074325
0.7957019,-0.3131996,-0.1830957
0.7869161,-0.2881168,-0.2057912
0.7643845,-0.2423684,-0.2168865
0.7397546,-0.1989168,-0.2134045
0.7464685,-0.2036294,-0.2151354
0.7429017,-0.2321463,-0.1952491
0.7408773,-0.2606224,-0.1599123
0.7552625,-0.2915636,-0.131687
0.7819604,-0.301475,-0.1061784
0.8377178,-0.2911935,-0.07881875
0.9001715,-0.2749142,-0.05251875
0.9651616,-0.2516866,-0.05018525
1.017076,-0.2416639,-0.04698801
1.065062,-0.2417353,-0.02753278
1.137514,-0.2368125,-0.03684593
1.186352,-0.2649656,-0.0614435
1.235469,-0.38353,-0.1387454
1.373461,-0.5475448,-0.2524041
1.539983,-0.6060692,-0.2583411
1.530617,-0.5464503,-0.267919
1.197117,-0.437127,-0.3605299
0.7674941,-0.2910274,-0.3504145
0.704133,-0.2830362,-0.3160362
0.5696545,-0.2658035,-0.3113897
0.5569312,-0.2689264,-0.2733339
0.6170535,-0.2463303,-0.2287149
0.6417977,-0.2325872,-0.1902012
0.7175444,-0.1972727,-0.1870291
0.9004167,-0.1445432,-0.2272259
1.156899,-0.09696922,-0.2715244
1.401499,-0.08326379,-0.3151401
1.400551,-0.1355123,-0.3561011
1.426261,-0.2328966,-0.3707132
1.559967,-0.3441357,-0.3951536
1.43469,-0.3651266,-0.4613341
1.263793,-0.3608276,-0.6376711
1.162972,-0.4799088,-0.8693116
1.035799,-0.5329226,-0.8363878
0.9551998,-0.4696938,-0.6302439
0.7972179,-0.4035363,-0.5144992
0.70579,-0.3066343,-0.3957805
0.8230054,-0.2874969,-0.3965368
0.8972834,-0.284838,-0.4243864
0.9433828,-0.2319647,-0.3025933
1.002682,-0.2746647,-0.3393186
0.9318604,-0.2933166,-0.395597
0.8380798,-0.284069,-0.3468446
0.7608078,-0.3271548,-0.3516468
0.6578366,-0.3070545,-0.2395074
0.6344108,-0.2783757,-0.1587164
0.6190413,-0.2316478,-0.1834221
0.593852,-0.1490788,-0.1875028
0.617258,-0.1479622,-0.2584914
0.6342696,-0.1773325,-0.2533465
0.7414071,-0.2222586,-0.2153137
0.9383931,-0.2972695,-0.219614
1.08781,-0.3105609,-0.1406199
1.143886,-0.2815117,-0.08511439
1.154965,-0.2780815,-0.07581167
1.208128,-0.2894929,-0.1359491
1.20352,-0.344534,-0.2736042
1.167565,-0.5060925,-0.370633
1.234391,-0.6239477,-0.4275089
1.196159,-0.5081976,-0.4176812
0.8992858,-0.3376047,-0.4125501
0.6351794,-0.3180998,-0.4572656
0.8022027,-0.3688212,-0.4604261
1.09196,-0.429227,-0.4695581
1.02238,-0.4711892,-0.4638508
0.9415256,-0.439963,-0.3955513
0.9296996,-0.3750232,-0.3239623
0.8078574,-0.2790067,-0.2818063
0.7924124,-0.1784803,-0.284012
0.7269637,-0.1470284,-0.300095
0.6304819,-0.1403803,-0.3270846
0.639353,-0.158997,-0.3561321
0.5698688,-0.2064132,-0.3203845
0.5731249,-0.2280036,-0.2644896
0.6179544,-0.2525099,-0.2431038
0.6261221,-0.2647005,-0.2279341
0.6993708,-0.2391846,-0.2425615
0.741183,-0.2139403,-0.2762778
0.9020314,-0.1810245,-0.2737539
1.150763,-0.1264175,-0.2788275
1.241161,-0.1049233,-0.3088244
1.332811,-0.1761567,-0.3762162
1.519652,-0.2674708,-0.5080985
1.542614,-0.3012738,-0.5632147
1.375565,-0.3387292,-0.5764745
1.250338,-0.437245,-0.7046991
1.078841,-0.521911,-0.7540974
0.9580613,-0.477482,-0.6647485
0.930266,-0.3985949,-0.597401
0.7769981,-0.3694606,-0.5127831
0.8221599,-0.3142483,-0.4404407
0.8977657,-0.2840754,-0.3888
0.8280215,-0.2738504,-0.3041246
0.965616,-0.261254,-0.3121403
0.9581619,-0.2911559,-0.3672659
0.8700591,-0.2989401,-0.3802227
0.8873452,-0.3326962,-0.4000029
0.774407,-0.3723096,-0.346424
0.7719935,-0.3419789,-0.2638364
0.7540361,-0.3201798,-0.2457409
0.6754605,-0.2668739,-0.2340793
0.6993243,-0.2106466,-0.2340096
0.6533494,-0.2100584,-0.2235114
0.6685912,-0.2083949,-0.1961327
0.7240979,-0.2434749,-0.1735532
0.7892545,-0.2842928,-0.1333043
0.937563,-0.2832408,-0.1118264
1.034064,-0.2620509,-0.07418908
1.157173,-0.2262129,-0.02845241
1.221202,-0.2294059,-0.07507025
1.183635,-0.30875,-0.1910307
1.231814,-0.4410114,-0.3160891
1.294156,-0.5473238,-0.3760948
1.321576,-0.5811075,-0.40307
1.178593,-0.5080106,-0.4851221
0.8096582,-0.3486434,-0.4979847
0.6253198,-0.3104927,-0.4641824
0.7854179,-0.3954107,-0.4966486
0.9747401,-0.4540111,-0.472522
1.003728,-0.4971066,-0.4276916
0.961666,-0.4762178,-0.4017251
0.924941,-0.3957015,-0.3151394
0.9064563,-0.2999602,-0.2909139
0.899499,-0.190167,-0.3181067
0.8425631,-0.1464719,-0.3205167
0.7927029,-0.1404199,-0.3477437
0.7627129,-0.1477686,-0.339788
0.6797136,-0.1864536,-0.304487
0.6155565,-0.2026487,-0.2713941
0.580216,-0.2163343,-0.2280326
0.5748002,-0.2168007,-0.2274751
0.6148865,-0.2039134,-0.2345308
0.6536296,-0.2025303,-0.2215596
0.7356785,-0.1625921,-0.2206301
0.855318,-0.1173435,-0.2339805
0.9982194,-0.1022728,-0.2585835
1.168436,-0.1171411,-0.2738506
1.31733,-0.1711169,-0.3004285
1.428651,-0.240817,-0.3509255
1.44902,-0.3099185,-0.3920784
1.425303,-0.3240333,-0.4883597
1.423999,-0.3255543,-0.6928717
1.369848,-0.4158267,-0.8496012
1.265144,-0.5000922,-0.806583
1.103496,-0.4771419,-0.6403053
0.9149937,-0.4307337,-0.5037655
0.865573,-0.3956894,-0.4461886
0.8718247,-0.275516,-0.3693731
0.8354744,-0.2001672,-0.2818197
0.9275433,-0.2801211,-0.323124
1.009927,-0.3101271,-0.3468111
0.9405669,-0.311431,-0.2968771
0.9215499,-0.3566269,-0.3179121
0.8738046,-0.3611739,-0.2888996
0.773288,-0.3774834,-0.2534538
0.7471801,-0.3412031,-0.2583998
0.7067965,-0.2526345,-0.169444
0.6997799,-0.2369662,-0.1499679
0.7005927,-0.2305523,-0.23403
0.6515446,-0.2163397,-0.2889163
0.659072,-0.2215971,-0.2685086
0.6816928,-0.2514345,-0.169401
0.6924593,-0.3097308,-0.1112345
0.6995473,-0.3345106,-0.08313996
0.7262132,-0.3095745,-0.07589403
0.8257235,-0.2616051,-0.07799934
0.9358333,-0.2347914,-0.05008474
1.05106,-0.2342101,-0.07930438
1.178141,-0.2564437,-0.08819745
1.242704,-0.3512739,-0.1462913
1.269151,-0.5065464,-0.3153865
1.387582,-0.6452249,-0.3910897
1.486111,-0.6493378,-0.444394
1.241658,-0.5649837,-0.5037323
0.8481057,-0.55301,-0.4536462
0.7537157,-0.5860368,-0.350685
0.8475758,-0.6351928,-0.2956564
0.8729388,-0.6633878,-0.3547422
0.8746367,-0.6156847,-0.4336522
0.9101837,-0.5480899,-0.4447634
0.9023782,-0.4452675,-0.4111558
0.8545817,-0.3344087,-0.3751042
0.8535648,-0.2958926,-0.3945695
0.8647264,-0.2963944,-0.4388714
0.8735854,-0.281748,-0.4599505
0.8681727,-0.2477635,-0.4102508
0.8050865,-0.2459414,-0.319291
0.7469702,-0.2356019,-0.29218
0.6709004,-0.1585222,-0.2422235
0.5867905,-0.0849233,-0.1501459
0.6065564,-0.05362202,-0.1640962
0.6832711,-0.05438036,-0.1955428
0.7542836,-0.05558626,-0.1564716
0.8298857,-0.05626722,-0.1700187
0.8797642,-0.06356551,-0.2042511
0.9018181,-0.04871719,-0.19965
0.9594719,-0.05061169,-0.1912557
1.046948,-0.05548828,-0.1420362
1.159907,-0.05102599,-0.1113041
1.321182,-0.07165664,-0.1232188
1.420556,-0.08085699,-0.1539502
1.45521,-0.1327003,-0.2896603
1.543605,-0.2802177,-0.4635501
1.584008,-0.4226338,-0.5804104
1.415511,-0.4437532,-0.6483999
1.18313,-0.4045058,-0.6736257
1.054005,-0.4154374,-0.6402815
0.8973823,-0.3835166,-0.4980255
0.7728405,-0.331614,-0.3468206
0.8121124,-0.3372452,-0.272827
0.8760754,-0.3190474,-0.2637743
0.9593728,-0.3056588,-0.3161809
0.9998544,-0.2691649,-0.3332688
0.9128221,-0.2013298,-0.3327627
0.8459561,-0.1855414,-0.3313009
0.7820173,-0.1722834,-0.2907202
0.7083169,-0.1932035,-0.2644195
0.68698,-0.2385138,-0.1936751
0.6562976,-0.2330507,-0.1199277
0.6460653,-0.2148145,-0.09834338
0.655291,-0.1848589,-0.06700704
0.6699807,-0.1807304,-0.1022011
0.7543745,-0.2054555,-0.1564179
0.8545334,-0.2222285,-0.1446402
0.9554246,-0.2694464,-0.1297654
1.094339,-0.310495,-0.1159749
1.208132,-0.3224963,-0.1079581
1.24865,-0.3266109,-0.09441222
1.243377,-0.3323411,-0.08211155
1.251472,-0.3943604,-0.1535691
1.299951,-0.5057622,-0.2704785
1.319729,-0.5493573,-0.3327541
1.152205,-0.4428807,-0.3652958
0.8549707,-0.3171381,-0.3996047
0.7633858,-0.3189771,-0.4074487
0.9046631,-0.3761454,-0.4105538
0.9878321,-0.415593,-0.4010068
0.9569406,-0.4192681,-0.3501932
0.9224851,-0.3665694,-0.2944402
0.8881656,-0.2912926,-0.2523761
0.8668354,-0.2295038,-0.250404
0.8763004,-0.2035088,-0.2808127
0.8552265,-0.1871017,-0.3008859
0.8294223,-0.1710975,-0.3154712
0.8188532,-0.1925006,-0.3036218
0.7688021,-0.1992356,-0.2744557
0.7168322,-0.1860018,-0.2489331
0.6754721,-0.1948201,-0.2219117
0.6590503,-0.1891959,-0.2129306
0.7031484,-0.1776493,-0.1984262
0.7573476,-0.1567093,-0.1954907
0.8226306,-0.1229908,-0.2160887
0.9005887,-0.1213799,-0.2131837
1.03711,-0.1079988,-0.2191041
1.270604,-0.07447395,-0.2427567
1.363863,-0.09743816,-0.2773733
1.30384,-0.2004252,-0.3582971
1.35221,-0.3184497,-0.4600419
1.373609,-0.3380015,-0.5205526
1.278059,-0.32465,-0.5669659
1.221086,-0.429283,-0.6616538
1.096609,-0.5301156,-0.6549595
0.9324657,-0.4962733,-0.5222402
0.860401,-0.4126355,-0.4470058
0.8243914,-0.3069787,-0.3489046
0.8704622,-0.212379,-0.2626573
0.9350465,-0.2043942,-0.2798102
0.9532071,-0.2180609,-0.275055
0.9646934,-0.21642,-0.2900594
0.9166467,-0.2317742,-0.2939729
0.8901922,-0.2554613,-0.2661014
0.8748865,-0.2886022,-0.2761934
0.8306853,-0.3041563,-0.2437102
0.8278497,-0.2841423,-0.2278542
0.7849922,-0.2548673,-0.229109
0.734817,-0.2204409,-0.208487
0.7166652,-0.204368,-0.2205699
0.6914408,-0.2185319,-0.1884785
0.7007674,-0.2240648,-0.1409768
0.713238,-0.223499,-0.115963
0.7645861,-0.2337902,-0.09183144
0.8555214,-0.236372,-0.09649932
0.9250029,-0.2465914,-0.1099442
1.038744,-0.2699248,-0.1318433
1.175382,-0.2747568,-0.106542
1.263893,-0.2785249,-0.07144659
1.315222,-0.313513,-0.1321245
1.366262,-0.4326764,-0.2292856
1.400205,-0.6377098,-0.3358807
1.31682,-0.69695,-0.3884608
1.082516,-0.4851989,-0.3700427
0.8036091,-0.2975301,-0.4221398
0.6677043,-0.3274848,-0.4847646
0.7075953,-0.3843352,-0.4525129
0.8007641,-0.4175381,-0.4001917
0.916481,-0.5162069,-0.3718683
0.9598291,-0.5313717,-0.3729515
0.9285936,-0.4614511,-0.3895468
0.9891829,-0.4361009,-0.378894
1.01238,-0.3471416,-0.3722307
0.9293456,-0.2341665,-0.3712889
0.8850639,-0.1609686,-0.3467657
0.835283,-0.1130225,-0.3487707
0.7906459,-0.1987409,-0.3400878
0.7650971,-0.2535077,-0.2909151
0.726446,-0.2455588,-0.2668187
0.7166641,-0.3027847,-0.2394933
0.6827614,-0.2611724,-0.222959
0.6662362,-0.1958987,-0.2454039
0.6780638,-0.1442487,-0.2439689
0.6772239,-0.05144973,-0.2331018
0.7629276,-0.05397806,-0.2323081
0.8887605,-0.05191365,-0.2329294
1.034526,-0.04878818,-0.2476749
1.20556,-0.08592362,-0.2627452
1.30102,-0.0803151,-0.2765672
1.359434,-0.1242476,-0.2883959
1.370006,-0.1784019,-0.3280615
1.313522,-0.2062996,-0.4544905
1.269561,-0.2627264,-0.599088
1.22966,-0.3943626,-0.6281646
1.143328,-0.5864408,-0.5950775
1.006538,-0.5879406,-0.6075922
0.9074457,-0.4542253,-0.5697886
0.8484154,-0.3803166,-0.4650229
0.8045757,-0.2791557,-0.4024133
0.8752425,-0.2369614,-0.3599579
0.9856537,-0.267039,-0.3575589
1.011019,-0.2711103,-0.3893719
0.9686572,-0.317738,-0.3783018
0.8684499,-0.3389894,-0.3449537
0.7592862,-0.3255072,-0.2934235
0.7089655,-0.3303671,-0.2701852
0.7076263,-0.2770169,-0.270943
0.6982379,-0.2225558,-0.2386211
0.7004372,-0.1920236,-0.2525812
0.7394265,-0.1421658,-0.2690578
0.7528227,-0.1336021,-0.2416783
0.7641361,-0.165651,-0.2406194
0.7878914,-0.1999152,-0.2282084
0.807904,-0.2233202,-0.202569
0.8834371,-0.2322375,-0.1619883
0.9962832,-0.2397964,-0.1038174
1.120025,-0.2523395,-0.09957645
1.207111,-0.2616848,-0.09545908
1.203588,-0.2543251,-0.07117677
1.21047,-0.2719652,-0.1104883
1.251729,-0.3484688,-0.1971642
1.28916,-0.4649157,-0.3030494
1.312934,-0.5462905,-0.3883626
1.178471,-0.5198275,-0.4084996
0.9254979,-0.4792737,-0.4421576
0.8325796,-0.4779415,-0.4986949
0.8897226,-0.4678034,-0.495357
0.9258571,-0.4648339,-0.462529
0.9549928,-0.431324,-0.4212536
0.9644985,-0.3721055,-0.3627508
0.9211403,-0.320398,-0.3343203
0.8955363,-0.2392774,-0.3334249
0.8821013,-0.1775918,-0.3313793
0.8467734,-0.1516489,-0.3338632
0.8186624,-0.1406269,-0.3394387
0.7814117,-0.1519168,-0.3073705
0.7175614,-0.143373,-0.2500359
0.6779095,-0.148218,-0.2455723
0.667966,-0.1928882,-0.2508624
0.6346091,-0.2289068,-0.2275564
0.6311755,-0.2353834,-0.2304676
0.6913997,-0.2061684,-0.2300355
0.7385997,-0.1785151,-0.2116521
0.8025596,-0.1541732,-0.2139176
0.9472083,-0.1134995,-0.2416841
1.19055,-0.07740585,-0.2816009
1.3856,-0.06325344,-0.3023268
1.387964,-0.1120336,-0.3307763
1.439892,-0.1865366,-0.4097578
1.467231,-0.2663757,-0.5068627
1.294689,-0.3685957,-0.5975117
1.229053,-0.4083634,-0.6445007
1.111393,-0.4294438,-0.6222494
0.8993531,-0.456303,-0.6063351
0.9100483,-0.3972602,-0.5832519
0.8734991,-0.3227744,-0.4843124
0.811866,-0.2782642,-0.3779522
0.8872979,-0.2580315,-0.3143863
0.9081883,-0.2764122,-0.3127017
0.9544146,-0.2748509,-0.3441394
0.9658202,-0.2675323,-0.3307163
0.8768358,-0.2758229,-0.3189759
0.8080491,-0.2717158,-0.2955827
0.7174278,-0.2761887,-0.2330081
0.6738773,-0.2814765,-0.2027742
0.6743126,-0.2708433,-0.1765576
0.6518466,-0.2494861,-0.1620204
0.674904,-0.2245789,-0.1797294
0.7102471,-0.22776,-0.1871642
0.7722423,-0.2621053,-0.2022813
0.8929772,-0.3064757,-0.2025376
1.004809,-0.3351271,-0.167596
1.086493,-0.3200091,-0.1165306
1.143099,-0.2978731,-0.06492478
1.215714,-0.2971108,-0.05307197
1.283121,-0.2991171,-0.07355564
1.280878,-0.358717,-0.1409931
1.280147,-0.5080056,-0.2688602
1.252411,-0.5878804,-0.347613
1.04412,-0.4329578,-0.3667784
0.7698447,-0.2461948,-0.430514
0.693622,-0.2909734,-0.4622084
0.7686214,-0.3603289,-0.4238323
0.8515576,-0.3763341,-0.4437836
0.9845444,-0.4999805,-0.4639816
1.020256,-0.5198373,-0.4357815
0.9131925,-0.410233,-0.3899132
0.9153292,-0.3515049,-0.2786864
0.9246486,-0.2834589,-0.2456595
0.8562023,-0.2380639,-0.2975573
0.819018,-0.1723904,-0.2842443
0.7610625,-0.0993862,-0.3079524
0.7545659,-0.1472756,-0.3403176
0.7413551,-0.1800274,-0.3145047
0.6607339,-0.2254159,-0.2983055
0.6525602,-0.2972024,-0.2490298
0.6554391,-0.2634135,-0.2071026
0.6937949,-0.2490639,-0.211022
0.7896608,-0.2215769,-0.2071386
0.88687,-0.1288891,-0.2187595
1.056781,-0.08666337,-0.2614042
1.230273,-0.07330626,-0.3369645
1.370899,-0.1263007,-0.4252722
1.457224,-0.2219606,-0.4766961
1.416548,-0.278501,-0.5112118
1.329003,-0.3271074,-0.581668
1.207234,-0.3473663,-0.6612222
1.039413,-0.406005,-0.6661842
0.9060016,-0.4925093,-0.6026118
0.8375919,-0.4318994,-0.5314467
0.8034026,-0.3258406,-0.4668109
0.7865121,-0.3065702,-0.4016383
0.8264306,-0.2675816,-0.3290428
0.9023882,-0.2411518,-0.2962003
0.9515035,-0.269798,-0.3381353
0.9744374,-0.251735,-0.3907455
0.9435638,-0.2441507,-0.4124591
0.8687621,-0.2778128,-0.4076191
0.8296008,-0.283936,-0.3720748
0.7726517,-0.2841178,-0.2816126
0.67274,-0.2729563,-0.1598803
0.6583245,-0.2564673,-0.150308
0.6949421,-0.2148377,-0.2047469
0.6803787,-0.1536733,-0.1656483
0.6858608,-0.1775347,-0.1564009
0.7610015,-0.2395096,-0.1741402
0.8865162,-0.3066825,-0.1240085
1.001722,-0.3807456,-0.1247177
1.037854,-0.3452422,-0.1216713
1.109128,-0.2643831,-0.06919441
1.200046,-0.2425091,-0.05406437
1.165102,-0.2432447,-0.06738419
1.181274,-0.2890659,-0.1492317
1.248484,-0.3960466,-0.2806675
1.247983,-0.5481892,-0.3849229
1.277769,-0.6092832,-0.4307513
1.094502,-0.4285006,-0.4370226
0.7512514,-0.2299735,-0.4664034
0.7216244,-0.2175112,-0.4929537
0.8786645,-0.3047219,-0.5232905
0.9640774,-0.4156265,-0.5146213
0.9757493,-0.4683968,-0.422064
0.9403781,-0.4578537,-0.3498948
0.9280107,-0.4240018,-0.2835201
0.9033668,-0.345709,-0.2429115
0.854901,-0.2425237,-0.264509
0.8145446,-0.1394427,-0.284345
0.7866682,-0.09960401,-0.3169071
0.7832534,-0.1332651,-0.3123728
0.7444023,-0.1738659,-0.2767292
0.6976783,-0.2093779,-0.2604138
0.6936811,-0.2180294,-0.2289929
0.682701,-0.2072302,-0.221486
0.6900409,-0.200025,-0.2390293
0.7366906,-0.1738583,-0.2585823
0.8004897,-0.1293162,-0.2620786
0.9050033,-0.0941818,-0.249624
1.032737,-0.08727328,-0.2740167
1.170384,-0.1055826,-0.3094187
1.338386,-0.1537514,-0.3697455
1.450199,-0.2314128,-0.4460266
1.432889,-0.3129476,-0.4957102
1.362138,-0.353424,-0.5818105
1.265127,-0.3498491,-0.6548507
1.110663,-0.3815426,-0.6398194
0.9593721,-0.4360037,-0.5674971
0.8684888,-0.4281537,-0.4934286
0.8511183,-0.3988941,-0.4923159
0.8902809,-0.3844185,-0.5071532
0.9119965,-0.3494674,-0.4488653
0.9177718,-0.3265974,-0.3618991
0.9541051,-0.3053595,-0.3013254
0.975346,-0.2618518,-0.2975593
0.9412998,-0.2679868,-0.3210287
0.8669596,-0.2824158,-0.3153719
0.7933398,-0.270744,-0.3034398
0.7607521,-0.2913626,-0.2705299
0.7398531,-0.2925167,-0.2024751
0.6982418,-0.2606318,-0.1844758
0.6678398,-0.2190951,-0.2041614
0.6626794,-0.1708731,-0.2032698
0.6852374,-0.1740506,-0.215126
0.7578555,-0.2173414,-0.2234123
0.8541719,-0.2708995,-0.1986099
0.9328999,-0.31226,-0.1561447
0.9837846,-0.3069852,-0.1010996
1.026446,-0.2930935,-0.06238446
1.10401,-0.2861116,-0.05076608
1.195233,-0.2878273,-0.06131877
1.240021,-0.3322249,-0.1362513
1.259329,-0.4398619,-0.2698419
1.329376,-0.5812566,-0.369466
1.350787,-0.6141013,-0.391375
1.133586,-0.5011108,-0.3891243
0.8913232,-0.4247045,-0.3910653
0.8731966,-0.4441296,-0.3786967
0.844193,-0.4420806,-0.3714015
0.7855898,-0.4204452,-0.3761377
0.8748092,-0.4366869,-0.3700379
0.8858318,-0.4232575,-0.3497119
0.839191,-0.3740715,-0.3238929
0.8906681,-0.3423034,-0.3179421
0.8797949,-0.2756014,-0.3102507
0.8893835,-0.1895222,-0.282321
0.5624319,-0.1564801,-0.1251461
0.6011572,-0.1109449,-0.15864
0.6245904,-0.1045278,-0.1957243
0.6463474,-0.1052204,-0.2039659
0.743183,-0.1659299,-0.1804164
0.8444332,-0.271392,-0.1362673
0.9672868,-0.3224609,-0.1011183
1.078672,-0.3147235,-0.05140955
1.236621,-0.3244618,0.02245853
1.369861,-0.3201332,0.0163935
1.430537,-0.2942613,-0.142054
1.558255,-0.3972637,-0.3334356
1.535633,-0.5616868,-0.3736992
1.406778,-0.5848496,-0.2952759
1.241952,-0.4912424,-0.2554961
0.7978432,-0.3789308,-0.2807948
0.567137,-0.3334883,-0.3793307
0.7311013,-0.3772985,-0.5358417
0.8530064,-0.4194361,-0.5914833
1.00409,-0.4264214,-0.5567548
1.008664,-0.4192122,-0.499164
0.8378131,-0.3902533,-0.3182995
0.8412829,-0.3448883,-0.1948274
0.8142063,-0.2864808,-0.2489075
0.749308,-0.196294,-0.2559888
0.7295206,-0.1285533,-0.2619495
0.621473,-0.1333006,-0.3338506
0.5738458,-0.1495009,-0.3439077
0.5383709,-0.178701,-0.2936014
0.5069555,-0.2403456,-0.2224749
0.5669175,-0.2708797,-0.1851932
0.5949467,-0.2593542,-0.2045402
0.659173,-0.2161496,-0.2443049
0.7392797,-0.1428904,-0.2947566
0.8470685,-0.07304039,-0.2974523
1.095185,-0.02203067,-0.2160242
1.284322,0.002507945,-0.144844
1.407385,-0.05718122,-0.1717916
1.598318,-0.2255174,-0.2207329
1.689512,-0.3793491,-0.2536744
1.646264,-0.4019121,-0.357555
1.651037,-0.3589361,-0.5527743
1.596737,-0.360246,-0.7897375
1.431841,-0.3731218,-0.8440968
1.280409,-0.3853786,-0.697313
0.9887931,-0.4538567,-0.6776552
0.7561395,-0.4874691,-0.6470109
0.7345916,-0.4679267,-0.4511385
0.6669649,-0.4529951,-0.3107466
0.7357961,-0.3693504,-0.1978036
0.8420286,-0.26497,-0.1596893
0.8163417,-0.213216,-0.2500375
0.8459136,-0.2054223,-0.3352086
0.7739634,-0.2502465,-0.3732211
0.696474,-0.2962379,-0.306769
0.6878061,-0.3242733,-0.2304618
0.6377464,-0.3125395,-0.1793827
0.6709536,-0.2615884,-0.1382941
0.6619248,-0.2275733,-0.1993625
0.6457984,-0.2082302,-0.2285857
0.7008004,-0.239966,-0.2177976
0.7578078,-0.2893166,-0.1909997
0.9235786,-0.2937825,-0.09434834
1.056096,-0.2953013,-0.06374974
1.125648,-0.2889427,-0.05977752
1.249172,-0.2939615,-0.04078437
1.329508,-0.3266265,-0.101127
1.350378,-0.4026618,-0.2392417
1.317463,-0.5296942,-0.3621306
1.255836,-0.545777,-0.3545923
1.110064,-0.4239132,-0.3314863
0.8703334,-0.3113387,-0.3801329
0.7764381,-0.27489,-0.4069263
0.8451218,-0.3200604,-0.4333107
0.9286839,-0.3581029,-0.4517181
0.9740371,-0.3676224,-0.4308992
0.9360541,-0.3822728,-0.3789298
0.8499132,-0.3400924,-0.2708709
0.7999264,-0.278229,-0.2181253
0.7792229,-0.2334342,-0.2706787
0.7473443,-0.1801089,-0.2988517
0.7455059,-0.1767543,-0.332837
0.7324671,-0.2008542,-0.3839427
0.6686043,-0.2172211,-0.3509184
0.6430547,-0.2761411,-0.2997246
0.6349208,-0.3058739,-0.2492241
0.6416259,-0.2526563,-0.1918131
0.6958807,-0.1986356,-0.2053968
0.7758359,-0.1527804,-0.2187023
0.935056,-0.1031828,-0.221649
1.124785,-0.08360746,-0.2833334
1.266896,-0.1024677,-0.3428922
1.38022,-0.1831645,-0.3884737
1.421271,-0.2862382,-0.421986
1.400112,-0.3343701,-0.4508168
1.396046,-0.3569648,-0.5689945
1.381097,-0.3873895,-0.730819
1.261466,-0.4238117,-0.7700286
1.03746,-0.4581304,-0.6572303
0.836157,-0.4372634,-0.5018782
0.748398,-0.3703423,-0.3921727
0.750626,-0.3157394,-0.3584321
0.823404,-0.2875633,-0.3769179
0.9407783,-0.2960463,-0.3636227
0.9941335,-0.2936436,-0.3344273
0.9576508,-0.2699027,-0.346614
0.9050642,-0.2810288,-0.344887
0.8448213,-0.2809988,-0.3246935
0.7763443,-0.2793298,-0.2880952
0.705383,-0.2974445,-0.215019
0.6671178,-0.2801284,-0.1976322
0.6722927,-0.2526117,-0.2181723
0.6196205,-0.2057247,-0.194547
0.5874435,-0.1754084,-0.194042
0.6633726,-0.222426,-0.2089583
0.7216747,-0.265605,-0.19558
0.7807954,-0.286431,-0.1933719
0.8789159,-0.3031829,-0.1573339
1.005721,-0.3118349,-0.09014047
1.142068,-0.3136598,-0.08178716
1.201326,-0.2892596,-0.1045863
1.270017,-0.3164373,-0.1437948
1.306579,-0.4755482,-0.2774494
1.290344,-0.6854029,-0.417378
1.366499,-0.7290715,-0.3891069
1.302719,-0.5673267,-0.3408992
1.023628,-0.4087202,-0.4287592
0.7213426,-0.3022309,-0.4921409
0.6021708,-0.2913442,-0.5262272
0.8136451,-0.4088759,-0.5419887
0.9353131,-0.4824063,-0.4448275
0.8854509,-0.5229518,-0.3759011
0.9241324,-0.5285666,-0.3526989
0.8880971,-0.436755,-0.3180679
0.8752018,-0.3343032,-0.3208052
0.8814823,-0.2093916,-0.3180319
0.8105262,-0.1391106,-0.3464501
0.814336,-0.150205,-0.3759291
0.7876553,-0.159314,-0.3487349
0.757002,-0.2214774,-0.3167863
0.7445244,-0.2550339,-0.2601989
0.6780109,-0.2317432,-0.2309816
0.6642819,-0.1976323,-0.2421299
0.6610844,-0.1153598,-0.2404635
0.6829982,-0.06311417,-0.2544803
0.7517319,-0.05730821,-0.2660842
0.8379719,-0.07670967,-0.2595174
0.9838896,-0.1040044,-0.2344052
1.118214,-0.1019916,-0.2084675
1.242419,-0.1167139,-0.2100042
1.337258,-0.1530862,-0.2154192
1.344061,-0.2174491,-0.2509818
1.326929,-0.2726607,-0.3960249
1.313273,-0.2989702,-0.625093
1.308239,-0.436638,-0.756809
1.258548,-0.6331027,-0.7446268
1.147717,-0.6504076,-0.7078361
0.9879697,-0.4658532,-0.6115959
0.7766041,-0.293413,-0.4741505
0.7390064,-0.2844862,-0.4594029
0.8596214,-0.3143904,-0.4662814
0.9050041,-0.2701918,-0.3548841
0.9878899,-0.2741182,-0.314142
1.012108,-0.3297777,-0.3823793
0.8986108,-0.3441191,-0.3934084
0.8905392,-0.3712963,-0.3849632
0.8282153,-0.3784711,-0.3530525
0.7283189,-0.3439861,-0.2779552
0.7534919,-0.3175445,-0.2618629
0.7044728,-0.2490956,-0.270814
0.7055248,-0.1827194,-0.2596085
0.7473482,-0.1433642,-0.2509639
0.711753,-0.1185358,-0.2483499
0.758928,-0.1584456,-0.2511696
0.7715138,-0.2051386,-0.2385333
0.7908173,-0.2461432,-0.2200908
0.8818331,-0.2789903,-0.1878029
0.9344362,-0.26684,-0.1445679
1.066366,-0.2643414,-0.131734
1.205697,-0.26587,-0.1325125
1.260865,-0.2696282,-0.1539019
1.288749,-0.322742,-0.2266245
1.313157,-0.4448722,-0.3341905
1.360505,-0.590122,-0.4287325
1.309441,-0.606731,-0.451022
1.087507,-0.490488,-0.4295163
0.7638625,-0.3940373,-0.4422659
0.6067969,-0.3793496,-0.4632474
0.7710503,-0.4336966,-0.4550433
0.8895182,-0.4819216,-0.4625081
0.881698,-0.4723109,-0.4717461
0.9266174,-0.4531819,-0.4430312
0.9055382,-0.4283831,-0.4114349
0.8811782,-0.3538468,-0.3726923
0.8890445,-0.2397441,-0.3288846
0.838427,-0.1566208,-0.3464297
0.8342602,-0.1240316,-0.3798802
0.8176709,-0.09448248,-0.3500721
0.731691,-0.1040236,-0.3203377
0.6705866,-0.1489628,-0.3031508
0.6327437,-0.1856045,-0.2596804
0.6349841,-0.2443422,-0.2478731
0.6583259,-0.2479741,-0.2483506
0.7089308,-0.1953085,-0.2479454
0.8143554,-0.1673134,-0.2836924
0.9269126,-0.1122338,-0.287308
1.075598,-0.08350818,-0.2789892
1.223884,-0.1160761,-0.3027459
1.344779,-0.1854827,-0.328975
1.461588,-0.3426321,-0.398718
1.497956,-0.4764239,-0.5239197
1.48318,-0.4851787,-0.6577591
1.385089,-0.4126598,-0.6943889
1.079535,-0.3259484,-0.5959533
0.7789248,-0.3155787,-0.5163269
0.7585271,-0.3452663,-0.503394
0.815875,-0.3389881,-0.4594786
0.7654592,-0.3149329,-0.3672931
0.8245924,-0.2780581,-0.2954043
0.9216063,-0.2378685,-0.2883241
0.9106522,-0.2084183,-0.3153501
0.920656,-0.1974593,-0.346687
0.881353,-0.2254005,-0.3590915
0.8230756,-0.2725782,-0.3235571
0.790519,-0.3024243,-0.2493512
0.7055768,-0.2980537,-0.1799426
0.6698866,-0.2693877,-0.1508674
0.6366356,-0.2416849,-0.1521884
0.6210148,-0.2142713,-0.1632596
0.6835254,-0.2112089,-0.1699441
0.734908,-0.252288,-0.1776433
0.8449564,-0.2997947,-0.19304
0.9817771,-0.3305429,-0.1899505
1.09595,-0.3204497,-0.1633079
1.190831,-0.2888147,-0.1182872
1.227994,-0.2874672,-0.09200788
1.300093,-0.3141166,-0.1374986
1.339733,-0.3977894,-0.22715
1.312503,-0.5186824,-0.3343853
1.330354,-0.5778487,-0.4190589
1.289654,-0.5396508,-0.4116189
1.066381,-0.4382956,-0.3897305
0.7400909,-0.3450061,-0.4216027
0.6237352,-0.3171766,-0.4298703
0.7844652,-0.3843501,-0.4429304
0.8951527,-0.4614591,-0.480893
0.939725,-0.465536,-0.4531247
0.9691256,-0.4612609,-0.3994619
0.9048205,-0.4035644,-0.3379549
0.8860113,-0.2795185,-0.2536388
0.8634192,-0.1976519,-0.2465528
0.7889456,-0.1369238,-0.3026886
0.7855951,-0.09514514,-0.3401914
0.7417299,-0.1177386,-0.3415282
0.6571551,-0.1875769,-0.3095457
0.6075049,-0.2397278,-0.2777606
0.5949764,-0.2528272,-0.2434486
0.6433002,-0.2619898,-0.2221741
0.6643625,-0.2393971,-0.238734
0.7375143,-0.1953907,-0.254818
0.8831657,-0.1530097,-0.2763871
0.9979619,-0.1169571,-0.3003789
1.148294,-0.1160845,-0.3036286
1.269833,-0.1316927,-0.325301
1.353719,-0.1995898,-0.3599476
1.392546,-0.306519,-0.3716195
1.287478,-0.3399017,-0.4040484
1.193673,-0.3123106,-0.5148594
1.179324,-0.3374768,-0.6487662
1.169659,-0.4583332,-0.6898774
1.117632,-0.5480695,-0.6512126
0.9850003,-0.4703934,-0.6094963
0.8718565,-0.3243173,-0.5542801
0.8416493,-0.2731752,-0.5028313
0.8551127,-0.2449905,-0.4704488
0.8834795,-0.2015381,-0.4143625
0.9331283,-0.2471264,-0.3961816
0.9770711,-0.3009774,-0.4100423
0.955156,-0.3196954,-0.3743761
0.913043,-0.3336878,-0.3755033
0.8565282,-0.3113987,-0.3864073
0.7807716,-0.3084813,-0.3285764
0.7342063,-0.2912389,-0.2885512
0.6669422,-0.2469244,-0.24449
0.6051501,-0.2168237,-0.1876471
0.6003788,-0.1645254,-0.1640949
0.6121537,-0.1605244,-0.1508965
0.6641512,-0.2062158,-0.1737739
0.7574988,-0.2643579,-0.1970862
0.8430723,-0.3504216,-0.194867
0.9232435,-0.3784831,-0.1804593
1.025939,-0.3513038,-0.1208887
1.141977,-0.3109211,-0.08122467
1.243797,-0.2514007,-0.09632987
1.327355,-0.2451453,-0.1454254
1.342686,-0.3487999,-0.241556
1.286118,-0.5291885,-0.3307403
1.243037,-0.6509254,-0.3546177
1.16997,-0.6126012,-0.3380957
0.9495736,-0.5224268,-0.3671497
0.6791368,-0.4926855,-0.4354416
0.6281996,-0.4974438,-0.4594263
0.7774831,-0.5278222,-0.454457
0.8519706,-0.5494483,-0.4513648
0.8464462,-0.5264106,-0.4527246
0.857908,-0.5187675,-0.4457425
0.8540049,-0.5025571,-0.4026273
0.8528999,-0.4403022,-0.3523046
0.8584961,-0.3620127,-0.3459257
0.8704422,-0.2706235,-0.3887678
0.9039709,-0.2037843,-0.4299073
0.9088462,-0.1606597,-0.4379347
0.8478102,-0.134074,-0.3952749
0.7381362,-0.1562162,-0.3046531
0.6576423,-0.1988972,-0.2426731
0.6432596,-0.228448,-0.2124403
0.6468053,-0.2214915,-0.1988887
0.6641636,-0.2031509,-0.2329597
0.7110933,-0.1993748,-0.2797311
0.7720648,-0.1647969,-0.324425
0.8253702,-0.1281921,-0.34215
0.8966879,-0.1271432,-0.3076027
1.032833,-0.1120305,-0.26633
1.167037,-0.08742163,-0.2379078
1.248404,-0.102704,-0.245826
1.34785,-0.1670278,-0.2776988
1.430786,-0.2725848,-0.3056878
1.432156,-0.3537982,-0.3895694
1.42582,-0.3479716,-0.5253132
1.383101,-0.3377983,-0.6458039
1.243241,-0.3848692,-0.7225219
1.085535,-0.4241206,-0.7162425
0.905014,-0.4284269,-0.6005525
0.7399175,-0.4079284,-0.4531336
0.7298841,-0.3620026,-0.3958852
0.7860803,-0.3064223,-0.3951897
0.8299816,-0.2697326,-0.3949319
0.9471702,-0.2633553,-0.425724
0.9898132,-0.2504805,-0.4151935
0.8706331,-0.2258525,-0.3644744
0.7997215,-0.2063319,-0.3330685
0.7688618,-0.1942395,-0.2930669
0.7193086,-0.2133769,-0.3034689
0.7076083,-0.2262133,-0.3100735
0.682938,-0.2128514,-0.251417
0.6752765,-0.2024004,-0.2272999
0.6700486,-0.1773889,-0.1928387
0.6583234,-0.1712898,-0.1618003
0.7366848,-0.2146435,-0.1884757
0.8676534,-0.2803534,-0.1936428
1.031461,-0.3264298,-0.1877877
1.160762,-0.3038404,-0.1489918
1.206533,-0.259141,-0.07771721
1.265325,-0.2369513,-0.07645497
1.311729,-0.2208653,-0.1239744
1.32271,-0.2494957,-0.1682501
1.313494,-0.3706836,-0.2422046
1.286911,-0.5480022,-0.3453432
1.224102,-0.5943893,-0.3716115
1.020462,-0.4540863,-0.3441291
0.7717926,-0.3579965,-0.3930301
0.710607,-0.3638795,-0.4364577
0.8377642,-0.3898895,-0.4419275
0.9470826,-0.4300638,-0.4711996
0.9579024,-0.4301107,-0.4550199
0.9495638,-0.4169964,-0.4144434
0.9144166,-0.3903576,-0.3608789
0.8759074,-0.3121908,-0.274784
0.8430366,-0.2569529,-0.2449821
0.7771672,-0.1902955,-0.2401971
0.7541298,-0.1225004,-0.261259
0.7571794,-0.1326112,-0.3432734
0.734959,-0.1500903,-0.3571701
0.7005067,-0.1699712,-0.3063201
0.6498501,-0.2135083,-0.2685283
0.6343677,-0.2293159,-0.2420128
0.6733628,-0.2222841,-0.2504245
0.7492647,-0.2012211,-0.2630418
0.8527071,-0.1625577,-0.2760485
0.9683828,-0.1328071,-0.304764
1.105849,-0.1409543,-0.3047246
1.258026,-0.1816274,-0.3108004
1.389499,-0.233531,-0.3588948
1.438586,-0.2782788,-0.4403392
1.394372,-0.2892265,-0.5639501
1.319244,-0.3058979,-0.6815168
1.224111,-0.3842375,-0.7177866
1.080179,-0.4882808,-0.6556656
0.9193782,-0.527521,-0.5695281
0.8280988,-0.4389962,-0.5226654
0.8331435,-0.3097099,-0.4847264
0.8575812,-0.2343192,-0.4510717
0.8591823,-0.1898131,-0.425833
0.895998,-0.1927803,-0.3882245
0.9331278,-0.212261,-0.3473913
0.8927125,-0.2099073,-0.3230433
0.8410349,-0.2287448,-0.3368113
0.7984416,-0.2470752,-0.3413175
0.7505943,-0.2837247,-0.3003257
0.7311897,-0.3360522,-0.2685466
0.7142042,-0.3248421,-0.2430377
0.6909069,-0.2944807,-0.2076692
0.6643874,-0.2779689,-0.1860807
0.6644629,-0.25275,-0.1942593
0.7100701,-0.2488346,-0.2191921
0.7533405,-0.26388,-0.219919
0.8186554,-0.2770389,-0.2107838
0.906185,-0.2861351,-0.17865
1.00912,-0.2865143,-0.1155047
1.14748,-0.2829008,-0.09647286
1.261535,-0.2802678,-0.1109553
1.349439,-0.2856222,-0.1272595
1.380672,-0.3293773,-0.1935658
1.326627,-0.4318774,-0.3160268
1.293687,-0.510837,-0.3838959
1.231556,-0.4738269,-0.3694828
0.9869241,-0.3923152,-0.3934502
0.6794608,-0.3150622,-0.3956646
0.6159242,-0.2522119,-0.354628
0.7768829,-0.3351683,-0.4171035
0.8897348,-0.4518954,-0.4697028
0.9362367,-0.4223098,-0.4331629
0.9328109,-0.4113411,-0.4224393
0.8874139,-0.4271461,-0.4004647
0.8906435,-0.3569082,-0.3358114
0.8513614,-0.2744152,-0.280105
0.8019668,-0.1919265,-0.2650924
0.8105649,-0.1378446,-0.3012255
0.7802027,-0.1367046,-0.3405239
0.7691629,-0.1653269,-0.3577729
0.7446821,-0.2224973,-0.3445449
0.6714679,-0.2353311,-0.2895419
0.6493593,-0.2152934,-0.2342008
0.6406505,-0.2030456,-0.2171559
0.6899299,-0.1779386,-0.2406353
0.7988276,-0.1662126,-0.2562619
0.9049054,-0.1577485,-0.2588339
1.06597,-0.1462813,-0.3066564
1.175396,-0.1497305,-0.3589082
1.221583,-0.1760483,-0.3886632
1.338114,-0.2360935,-0.4334373
1.402806,-0.2933782,-0.4809813
1.346953,-0.3071516,-0.5767748
1.283683,-0.2962625,-0.7195143
1.192241,-0.3304818,-0.750687
1.058445,-0.4202848,-0.6852828
0.9690783,-0.4945362,-0.6606144
0.8612712,-0.4750655,-0.5553478
0.7224157,-0.3884039,-0.3829394
0.7328771,-0.3548534,-0.3983475
0.8338221,-0.3113323,-0.4418963
0.8926758,-0.2108709,-0.356964
0.9797403,-0.1829784,-0.3509715
0.9878136,-0.2180749,-0.3762182
0.9134128,-0.2551807,-0.3510829
0.9101776,-0.2854319,-0.3585922
0.8045358,-0.3142974,-0.3285042
0.6803246,-0.328242,-0.2624073
0.6984171,-0.2993829,-0.2243829
0.6616248,-0.2764243,-0.1962517
0.6638317,-0.2475658,-0.1901513
0.7093422,-0.2268419,-0.2018798
0.7044074,-0.2508043,-0.2194404
0.7878241,-0.2662811,-0.2239032
0.8701087,-0.3058588,-0.2140786
0.9402412,-0.3499373,-0.2159818
1.007229,-0.3446148,-0.1918113
1.039224,-0.3294792,-0.1316952
1.157472,-0.3064745,-0.07226611
1.248494,-0.2847643,-0.06785266
1.26011,-0.2965989,-0.1684947
1.253895,-0.3994971,-0.3166095
1.232991,-0.5674643,-0.4019325
1.224443,-0.6081791,-0.3880931
1.090381,-0.4845631,-0.3969361
0.879541,-0.3741289,-0.4587357
0.7787584,-0.3360399,-0.4412236
0.7543541,-0.3127779,-0.4276027
0.8092722,-0.3386104,-0.4639125
0.9179972,-0.3925809,-0.4437093
0.948645,-0.3813459,-0.4173755
0.9216852,-0.3604376,-0.3797543
0.9189462,-0.3435273,-0.3150289
0.8878556,-0.2706982,-0.2741642
0.829271,-0.2012558,-0.2509759
0.7937113,-0.1595174,-0.2867288
0.7572325,-0.1424017,-0.3261205
0.7411298,-0.1722138,-0.316845
0.7135343,-0.2094493,-0.3060413
0.665436,-0.2473759,-0.2600908
0.6658942,-0.2666723,-0.2298604
0.6857034,-0.2379375,-0.2465913
0.7208759,-0.2158559,-0.2438934
0.7704555,-0.1956295,-0.2419472
0.7987899,-0.1696162,-0.2434904
0.8390338,-0.17779,-0.2564969
1.014128,-0.1745116,-0.3164278
1.304292,-0.1568227,-0.3883421
1.397055,-0.1806592,-0.4115218
1.335617,-0.2291113,-0.426762
1.353255,-0.2866168,-0.5144056
1.3009,-0.3310991,-0.5946587
1.232816,-0.3393602,-0.6496817
1.1992,-0.3985018,-0.7221856
1.059888,-0.5223738,-0.6807524
0.9346393,-0.5572815,-0.5576872
0.8343106,-0.4676042,-0.5161736
0.7945947,-0.3534237,-0.5037634
0.8452234,-0.2743304,-0.4537343
0.851556,-0.2451288,-0.4004673
0.9297568,-0.2459462,-0.3607775
0.987924,-0.2638662,-0.3534896
