accx,accy,accz
0.9377132,-0.1655851,-0.08316086
0.8846903,-0.1525782,-0.09564005
0.8895755,-0.1522061,-0.1201442
0.879735,-0.1584066,-0.1439432
0.8618561,-0.1791545,-0.1638224
0.8560098,-0.1963664,-0.1541218
0.7915949,-0.210691,-0.1355027
0.7769121,-0.2207947,-0.1228731
0.7988789,-0.2141462,-0.12309
0.8057244,-0.2031895,-0.1333852
0.8079264,-0.1718136,-0.1266781
0.8080477,-0.1033969,-0.1292295
0.8666892,-0.05551906,-0.1412369
0.9423298,-0.04901024,-0.1468484
1.006307,-0.01948529,-0.166097
1.04813,0.009843265,-0.1665164
1.04161,5.157937e-05,-0.1427253
1.030918,0.01862087,-0.1194952
1.014874,0.04163224,-0.09662838
1.022068,0.02125209,-0.1027345
1.049511,0.01009947,-0.1127513
1.059253,-0.006163264,-0.1012447
1.092522,-0.05814678,-0.1197266
1.145881,-0.1349244,-0.1698854
1.195969,-0.187395,-0.2168051
1.220148,-0.1502029,-0.2388456
1.25697,-0.1318246,-0.2614468
1.339193,-0.2021746,-0.3092541
1.396367,-0.2521375,-0.3190587
1.425646,-0.2799885,-0.3085327
1.382315,-0.3040869,-0.3111438
1.282552,-0.292141,-0.2848992
1.233222,-0.2603803,-0.2695001
1.174195,-0.213809,-0.2629138
1.120601,-0.1844961,-0.2468957
1.083037,-0.1787047,-0.2377683
1.012698,-0.1632451,-0.1845795
0.983725,-0.1578804,-0.1193744
0.9721353,-0.1664021,-0.0973583
0.9597421,-0.1837161,-0.09797835
0.9409835,-0.217457,-0.09133884
0.8616845,-0.2499575,-0.05955008
0.7561327,-0.2750295,-0.02425353
0.6562132,-0.2931866,0.0009871233
0.6549784,-0.2867624,-0.004543588
0.7139091,-0.2664573,-0.0125449
0.7070225,-0.2520395,0.009224074
0.7223386,-0.2302281,0.02180864
0.7456518,-0.2238527,0.05326436
0.7546246,-0.240555,0.07544997
0.7918453,-0.2528517,0.07924398
0.7925415,-0.2864881,0.1389946
0.8198217,-0.3231313,0.1865833
0.8731058,-0.3226699,0.1995241
0.8745816,-0.3001297,0.2043746
0.876461,-0.2644447,0.1865555
0.8765878,-0.2354938,0.189745
0.8851431,-0.2160953,0.2069982
0.9145633,-0.1941077,0.2333909
0.9343568,-0.1807801,0.2527821
0.9551888,-0.1845892,0.2254736
0.9851181,-0.2298158,0.190837
1.098372,-0.3221103,0.1489118
1.291991,-0.402767,0.1101099
1.396766,-0.4115174,0.1127482
1.364047,-0.3993374,0.142633
1.29989,-0.4495311,0.1720018
1.257543,-0.5001813,0.1422953
1.228932,-0.4897177,0.09472051
1.219661,-0.4786152,0.09922629
1.166734,-0.4856583,0.08332375
1.043335,-0.4579031,0.04057603
0.9507207,-0.3959582,0.00316157
0.9146287,-0.3631806,-0.07101752
0.916591,-0.3778512,-0.1442295
0.9518729,-0.3824993,-0.1564473
0.9891987,-0.3444428,-0.1359267
1.00633,-0.3109635,-0.1277358
0.9817929,-0.2902394,-0.1307036
0.9435169,-0.2294232,-0.120957
0.8996016,-0.1644435,-0.1108296
0.8350738,-0.1420686,-0.1153949
0.7950839,-0.1289618,-0.1183622
0.7876392,-0.1174886,-0.1264802
0.7911017,-0.1031251,-0.1603995
0.7708572,-0.06953606,-0.1949717
0.7297474,-0.0527767,-0.203486
0.7368675,-0.06118975,-0.2076393
0.7876305,-0.06082268,-0.2031455
0.8543756,-0.06095885,-0.1733816
0.9195453,-0.05571629,-0.1561365
0.9660164,-0.02900728,-0.1528988
1.016397,-0.006274844,-0.1352128
1.048283,0.008995733,-0.1143745
1.048399,0.02320092,-0.09233544
1.030081,0.03992698,-0.08478352
0.9913866,0.05013355,-0.1013995
0.977212,0.03044633,-0.1164985
1.003397,-0.007356827,-0.1451336
1.051122,-0.06267392,-0.1867477
1.119249,-0.1210071,-0.213981
1.189915,-0.1439776,-0.2449976
1.248776,-0.150869,-0.2750663
1.297729,-0.1685094,-0.2762181
1.357031,-0.2065136,-0.2838427
1.411925,-0.2699592,-0.331569
1.410174,-0.3159907,-0.3605014
1.363402,-0.3072743,-0.3395916
1.30583,-0.2769766,-0.3143311
1.231935,-0.2459166,-0.2766534
1.144102,-0.2095717,-0.2258382
1.066755,-0.1834808,-0.2057787
1.01788,-0.1458196,-0.1790735
1.000029,-0.1161931,-0.1104806
0.994329,-0.1372785,-0.07311386
0.9832927,-0.164901,-0.08979335
0.9530973,-0.2131431,-0.09033384
0.8848548,-0.2924276,-0.07210763
0.8182724,-0.3336075,-0.04722104
0.7739393,-0.3420464,-0.0005782002
0.731539,-0.3356388,0.02104366
0.7284089,-0.3163515,0.009070442
0.736808,-0.2833589,5.701619e-05
0.7208221,-0.2307777,-0.01235483
0.7227331,-0.2223997,-0.009784006
0.7147678,-0.2294925,0.02669079
0.6982582,-0.1999648,0.06242164
0.7247466,-0.2380825,0.07829851
0.7653984,-0.3088677,0.09242335
0.8013057,-0.3169672,0.1116186
0.8467198,-0.3432938,0.1327042
0.8832041,-0.3754638,0.1620844
0.8936204,-0.355771,0.1755082
0.898499,-0.3290267,0.1655765
0.9087122,-0.3002099,0.1777451
0.912188,-0.2818506,0.1931138
0.9173589,-0.2876148,0.1825721
0.9269622,-0.2876017,0.1800868
0.9489958,-0.2913221,0.1802636
0.9789956,-0.3016414,0.1649676
0.9758053,-0.308809,0.1398464
0.9849963,-0.3442934,0.1061016
1.063464,-0.4027386,0.07678629
1.139597,-0.4242513,0.07141288
1.147676,-0.4107697,0.0965733
1.109006,-0.4146987,0.1148814
1.101146,-0.4363913,0.1018941
1.184747,-0.4653087,0.08916314
1.296467,-0.4971153,0.07300028
1.327547,-0.4997981,0.03895574
1.278227,-0.4806759,0.01912299
1.202477,-0.4527048,0.01319712
1.075048,-0.4004499,-0.00464095
0.9354337,-0.3691746,-0.03804771
0.9037331,-0.3826962,-0.1050277
0.9252513,-0.3849937,-0.1763424
0.9368271,-0.362682,-0.1857444
0.9612398,-0.3278248,-0.1585168
0.953693,-0.2833015,-0.1434508
0.9421145,-0.2652245,-0.1403966
0.950967,-0.2574749,-0.1348607
0.9314298,-0.2113338,-0.1277763
0.9091477,-0.1629747,-0.1397004
0.8929629,-0.1339162,-0.1556542
0.8669973,-0.1167965,-0.157531
0.8394658,-0.1367069,-0.1431301
0.8090473,-0.1643151,-0.1140586
0.7886393,-0.1727916,-0.108995
0.7865768,-0.1670464,-0.1344269
0.7998788,-0.138893,-0.1601822
0.8159008,-0.105237,-0.1725344
0.8280541,-0.0656187,-0.174896
0.8567884,-0.03445529,-0.1850899
0.9208064,-0.02117633,-0.1998419
1.001307,-0.00847663,-0.2139575
1.049196,-0.0336471,-0.2162074
1.064577,-0.05409763,-0.2008533
1.04134,-0.01945665,-0.2010315
0.9784714,-0.005188952,-0.2127269
0.9699688,-0.03410209,-0.2301535
0.998842,-0.08852769,-0.2597745
1.010621,-0.1543333,-0.275186
1.051831,-0.2016603,-0.2926724
1.077815,-0.2218945,-0.3136981
1.10757,-0.2019477,-0.3083688
1.199544,-0.1747537,-0.311049
1.279583,-0.1816289,-0.3515494
1.368596,-0.2246,-0.4094969
1.442853,-0.3163244,-0.4408351
1.389592,-0.4074673,-0.4211769
1.29826,-0.4300374,-0.3967218
1.227825,-0.4166533,-0.3910622
1.137872,-0.4044591,-0.3675655
1.074531,-0.3756343,-0.3266086
1.005405,-0.3482491,-0.2794091
0.9535059,-0.3363455,-0.235092
0.9889245,-0.2911718,-0.1977885
0.9767198,-0.2129216,-0.12904
0.9375033,-0.1587594,-0.07232296
0.9556601,-0.1548754,-0.0755906
0.9096374,-0.1973513,-0.07588793
0.8238956,-0.2423378,-0.05425667
0.7643544,-0.2384408,-0.01264571
0.7399728,-0.2080422,0.01997816
0.7793762,-0.1918551,-0.002527733
0.8076177,-0.1879174,-0.01303075
0.8063447,-0.2015419,0.01392773
0.7981889,-0.2338668,0.04999372
0.7790036,-0.2706351,0.1000756
0.7783071,-0.2943132,0.1164945
0.7806985,-0.2866466,0.1013476
0.7842996,-0.2844893,0.1120877
0.8009203,-0.3055903,0.1384127
0.826885,-0.310362,0.176139
0.858534,-0.2955341,0.2074838
0.8643106,-0.2625913,0.1882566
0.8583198,-0.2204637,0.1667571
0.8650224,-0.1989803,0.1685696
0.876892,-0.2075587,0.1596819
0.9076665,-0.225501,0.1570331
0.9400518,-0.2239448,0.1509737
0.9422171,-0.2358533,0.144884
0.9479832,-0.2602713,0.1526313
0.9898509,-0.264394,0.1387157
1.06492,-0.2930544,0.1292224
1.18326,-0.3250046,0.1334625
1.279357,-0.3186902,0.1271236
1.25801,-0.3109861,0.1383111
1.162351,-0.3139249,0.1755312
1.097654,-0.3343585,0.2117865
1.156361,-0.3853277,0.1962056
1.308179,-0.4630881,0.1530288
1.365579,-0.5336719,0.1475734
1.257649,-0.5517298,0.1416042
1.0826,-0.5417482,0.1202917
0.9552598,-0.547417,0.0869413
0.8757848,-0.5691244,0.02628948
0.7949931,-0.6089713,-0.02837399
0.786344,-0.6599955,-0.08114451
0.838611,-0.6613365,-0.1290725
0.8681836,-0.5690786,-0.1611443
0.8814653,-0.4306829,-0.2040372
0.8840688,-0.3431631,-0.2371213
0.9122441,-0.3300558,-0.245178
0.938598,-0.3000469,-0.2396693
0.9247113,-0.2407862,-0.2226934
0.9108694,-0.213781,-0.2007376
0.8818847,-0.2053772,-0.1855939
0.8514069,-0.2181301,-0.1868933
0.8338351,-0.2377519,-0.1835003
0.8253672,-0.2323631,-0.1764361
0.8470257,-0.2165743,-0.1747241
0.8856202,-0.1738894,-0.1628877
0.930178,-0.1363955,-0.1590177
0.9324988,-0.1262242,-0.1679563
0.908551,-0.06937552,-0.1881072
0.9166008,0.00996594,-0.2066054
0.9041125,0.04492996,-0.16939
0.8867814,0.08795589,-0.105541
0.9142919,0.134146,-0.08009935
0.9720141,0.1137887,-0.06944174
1.038114,0.1003874,-0.05451898
1.049942,0.09876584,-0.04951066
1.02954,0.05705448,-0.03812244
1.024547,0.07251321,-0.02798368
0.997788,0.08906765,-0.04096623
0.9968782,0.04750967,-0.0540399
1.014893,0.03017206,-0.06025727
0.9758504,0.005117568,-0.06548156
0.953113,0.0001127952,-0.06627961
0.9642593,0.00820391,-0.07867631
0.9709423,-0.03052039,-0.1039064
1.007161,-0.07445423,-0.1385791
1.066422,-0.1579925,-0.1777909
1.144317,-0.2146088,-0.1800338
1.190091,-0.1674319,-0.1444236
1.184023,-0.08947848,-0.1321474
1.239238,0.02740162,-0.1606954
1.362374,0.07748169,-0.1998614
1.49025,-0.0531896,-0.2100187
1.573021,-0.2060806,-0.1682791
1.545522,-0.276879,-0.1209609
1.435325,-0.2957134,-0.1134133
1.266849,-0.2940814,-0.1236897
1.077316,-0.3189049,-0.120697
0.9882696,-0.3407769,-0.1089742
0.9840576,-0.3299825,-0.1085782
0.9579174,-0.3201228,-0.1195993
0.9070456,-0.292182,-0.1306261
0.8876001,-0.2505691,-0.1162002
0.9114085,-0.2360876,-0.07771609
0.9099602,-0.2352812,-0.06073639
0.8724064,-0.2289947,-0.06772004
0.8281531,-0.2000004,-0.06991295
0.7862453,-0.1531229,-0.05264818
0.8155129,-0.1250071,-0.04147774
0.8612255,-0.1103017,-0.06703673
0.8515442,-0.1076363,-0.08360999
0.8546593,-0.1545598,-0.0558674
0.8414441,-0.2315305,0.0004651728
0.816969,-0.2787247,0.0674472
0.837188,-0.2780476,0.1094625
0.85987,-0.2503308,0.1048445
0.8887535,-0.2338881,0.08767087
0.9056544,-0.2322536,0.09451422
0.8835935,-0.2307101,0.1134903
0.8755263,-0.2373623,0.1423876
0.8871188,-0.2432323,0.1661126
0.8961745,-0.2432458,0.1624338
0.9007337,-0.2430958,0.1731637
0.8935788,-0.2444555,0.1927546
0.8795373,-0.2465206,0.1940323
0.8728187,-0.240056,0.1873789
0.8756043,-0.2347127,0.1675011
0.8950295,-0.2343684,0.1545811
0.9500553,-0.2389631,0.1328111
1.036502,-0.2615784,0.08906508
1.150019,-0.2969272,0.07167482
1.25027,-0.3138952,0.07298799
1.249277,-0.288525,0.08480855
1.162633,-0.2711435,0.1308228
1.084858,-0.2993873,0.1706746
1.083174,-0.3407692,0.1483678
1.193642,-0.4084108,0.1018532
1.339208,-0.4945472,0.0744479
1.389716,-0.5210089,0.03747937
1.346141,-0.4798438,0.0241244
1.25086,-0.4302968,0.03908466
1.086008,-0.3931481,0.02986662
0.9355008,-0.3801574,0.03383621
0.8978342,-0.4105317,0.02559685
0.8947517,-0.4427966,-0.02693918
0.9097981,-0.4438282,-0.06815287
0.9691636,-0.4092509,-0.0983307
0.9781056,-0.3194558,-0.1172609
0.9526912,-0.2270448,-0.1373744
0.929198,-0.1866758,-0.1510694
0.8735886,-0.172715,-0.1295584
0.8335606,-0.168043,-0.1275016
0.8290815,-0.1651999,-0.1249452
0.8416194,-0.1447147,-0.1080854
0.844314,-0.1131703,-0.1154674
0.820055,-0.09807019,-0.1171922
0.7837268,-0.08757285,-0.1428885
0.7435539,-0.07966389,-0.1779059
0.7600883,-0.09457435,-0.1740098
0.8149462,-0.0994524,-0.1767524
0.8513142,-0.1111256,-0.1804824
0.8959724,-0.1311106,-0.170769
0.9190569,-0.1005018,-0.1681904
0.9338494,-0.061311,-0.1926257
0.9688971,-0.04220784,-0.229859
1.01902,-0.04427075,-0.2280347
1.096481,-0.06730149,-0.2237381
1.10286,-0.06162916,-0.2307349
1.055226,-0.05182973,-0.2044057
1.040443,-0.03959904,-0.1751962
0.997697,-0.01473245,-0.1606144
0.9838087,-0.01742849,-0.15194
1.027737,-0.01681954,-0.1497141
1.060882,-0.02286808,-0.1549971
1.130166,-0.04482396,-0.1913887
1.206299,-0.04542422,-0.2400571
1.236489,-0.05069454,-0.2487349
1.278936,-0.08519892,-0.2416236
1.377556,-0.1741033,-0.2819964
1.470334,-0.2781046,-0.3272341
1.442623,-0.3215795,-0.3151885
1.357903,-0.3360971,-0.3008114
1.284254,-0.3435959,-0.2972863
1.170306,-0.3411904,-0.2666017
1.097408,-0.3461586,-0.256413
1.082376,-0.3501736,-0.2703756
1.049271,-0.3485758,-0.2456938
0.9975685,-0.333958,-0.1673382
0.9069644,-0.2974584,-0.05885805
0.8484792,-0.2596982,-0.01027269
0.8523114,-0.2542748,-0.04098864
0.8243382,-0.2742718,-0.03679636
0.7722657,-0.2846433,-0.01297447
0.7231041,-0.2851091,-0.008559255
0.7012437,-0.2710206,0.01430007
0.7079018,-0.2346555,0.0040519
0.7186352,-0.2078375,-0.01332612
0.7683054,-0.2091825,0.00764539
0.8023479,-0.2250959,0.02266337
0.7877346,-0.244115,0.06428665
0.7949751,-0.2668407,0.1057965
0.8189051,-0.2826535,0.1033933
0.8360156,-0.2893395,0.1153001
0.8564274,-0.3073297,0.1476278
0.87731,-0.3158981,0.1868618
0.8820427,-0.3030948,0.2108997
0.8827437,-0.292311,0.2035647
0.892339,-0.2662782,0.2011558
0.8871768,-0.2359926,0.1986365
0.8752037,-0.2374787,0.1975883
0.8668523,-0.2570381,0.2166584
0.8770067,-0.2833529,0.2327777
0.9135099,-0.2998678,0.2311628
0.9405401,-0.2942267,0.2088266
0.9598699,-0.2968056,0.1779457
0.9726373,-0.3195937,0.1461229
0.9998274,-0.3434628,0.118697
1.081692,-0.3462464,0.1282649
1.140518,-0.3255714,0.14881
1.108854,-0.3048891,0.1542306
1.046441,-0.2981257,0.1848898
1.025119,-0.328866,0.2054024
1.096908,-0.4129863,0.1775186
1.250382,-0.5029765,0.1527112
1.338263,-0.534855,0.1408818
1.328184,-0.5112038,0.1319237
1.356158,-0.5022874,0.1098762
1.349231,-0.5061576,0.06186389
1.195348,-0.4640564,0.04537574
1.014544,-0.4191422,0.03392984
0.9047438,-0.4101808,-0.01519834
0.8707757,-0.4111557,-0.05762032
0.8886888,-0.4112851,-0.1171027
0.9341197,-0.3997117,-0.1675312
0.9762462,-0.3690746,-0.1648639
0.9595727,-0.314446,-0.1534666
0.9282027,-0.271971,-0.1336219
0.9112091,-0.2573269,-0.123436
0.874698,-0.2189217,-0.1129394
0.8549505,-0.1853209,-0.08998667
0.8381215,-0.1749035,-0.1036977
0.8102152,-0.1461615,-0.1120458
0.8090396,-0.1189107,-0.1168471
0.8080594,-0.1082078,-0.1449859
0.8071851,-0.1145083,-0.1593217
0.8287511,-0.1283732,-0.1861947
0.86885,-0.1291286,-0.2142605
0.912316,-0.1319943,-0.2137408
0.9119563,-0.1302654,-0.1928106
0.9033154,-0.112764,-0.1663049
0.9417153,-0.09697357,-0.1783086
0.9914483,-0.09271147,-0.1932077
1.037787,-0.09289439,-0.1789305
1.046256,-0.0688036,-0.171416
1.004661,-0.02882891,-0.1561304
0.975333,-0.005677015,-0.1444994
0.9510337,0.01191126,-0.1513629
0.9415816,0.03375637,-0.1507448
0.9690591,0.04145224,-0.1564918
1.012045,0.009762567,-0.1600349
1.072458,-0.03871481,-0.1581338
1.08353,-0.05712817,-0.1730605
1.072449,-0.06601011,-0.18221
1.135484,-0.08153804,-0.200425
1.221098,-0.122897,-0.236991
1.348381,-0.2230905,-0.2578951
1.474407,-0.2893708,-0.2857401
1.475245,-0.2698988,-0.3242406
1.44103,-0.2658901,-0.3323874
1.39087,-0.2964826,-0.3181573
1.304838,-0.3125938,-0.3174009
1.271252,-0.3155904,-0.3063763
1.177585,-0.3100278,-0.2402283
0.9898536,-0.3040496,-0.1695591
0.9435233,-0.2964367,-0.1557365
0.9686656,-0.2656656,-0.1441577
0.8689544,-0.2108147,-0.08574734
0.8447735,-0.1690503,-0.06513337
0.9188246,-0.1680326,-0.08967524
0.9013431,-0.1621828,-0.06805055
0.8942269,-0.1483012,-0.06448029
0.8818141,-0.1637102,-0.08031751
0.8303013,-0.1585128,-0.04798458
0.8436666,-0.1445223,-0.03549534
0.8402544,-0.1533295,-0.02816585
0.8286285,-0.1455032,-0.01401251
0.8366835,-0.148711,-0.01698168
0.8153973,-0.1571308,0.007048124
0.8199273,-0.1584391,0.0377199
0.8346739,-0.185627,0.06096455
0.8530897,-0.2081169,0.06188605
0.8866571,-0.2213286,0.05312909
0.901979,-0.2177129,0.08501294
0.9138316,-0.2056552,0.1139036
0.9123663,-0.2241908,0.1341625
0.9054289,-0.2380184,0.1547228
0.9092017,-0.2518057,0.1678386
0.9118878,-0.2632723,0.1993957
0.9236645,-0.2551828,0.2131612
0.9278538,-0.2640005,0.2023743
0.9155818,-0.2599951,0.196181
0.9080263,-0.2455438,0.1958969
0.9154489,-0.2492415,0.2009506
0.9358147,-0.2452754,0.203186
0.9616367,-0.2506297,0.2133122
0.9889271,-0.2646472,0.2146158
1.002093,-0.2736318,0.2002574
1.005854,-0.2854578,0.1831423
1.050207,-0.2940413,0.1437167
1.165069,-0.3164806,0.1178015
1.276848,-0.3303194,0.1310758
1.274344,-0.2986794,0.1539025
1.183434,-0.2728824,0.1862131
1.094171,-0.2877019,0.2339322
1.060305,-0.3080429,0.269723
1.125403,-0.3349871,0.257778
1.214106,-0.3836037,0.2217962
1.230473,-0.4156085,0.1854293
1.182309,-0.4241516,0.1425089
1.040715,-0.4395518,0.1123424
0.8380582,-0.4656563,0.07610236
0.7313003,-0.5070458,0.01742459
0.7697596,-0.5559472,-0.04996077
0.8688885,-0.5833147,-0.1095478
0.9688136,-0.5606399,-0.1375685
1.028883,-0.4977046,-0.1695283
1.0293,-0.439594,-0.1988643
1.027054,-0.3821604,-0.181265
1.005086,-0.3067683,-0.1638831
0.9503512,-0.2389993,-0.1662376
0.9335041,-0.211202,-0.1633002
0.9050491,-0.188213,-0.1542956
0.8581344,-0.1429001,-0.1405166
0.8231356,-0.1476107,-0.1304158
0.77553,-0.1723781,-0.1213095
0.7786186,-0.1598612,-0.106154
0.8134155,-0.1308501,-0.1012059
0.844964,-0.05454718,-0.1149954
0.8928279,-0.001065704,-0.1219324
0.9222276,0.008335934,-0.1170498
0.948241,0.061121,-0.1197157
0.9737435,0.1101987,-0.1191653
1.002597,0.1287483,-0.1019033
1.02985,0.1106827,-0.06603048
1.024573,0.08163706,-0.03312569
1.029026,0.09839788,-0.03463126
1.029647,0.09380981,-0.05996283
1.019834,0.06424192,-0.08457215
1.01925,0.02965822,-0.08816921
0.999518,-0.02183875,-0.07392046
0.9979929,-0.0413362,-0.06934381
1.018695,-0.05719904,-0.07293873
1.055533,-0.08000182,-0.08429913
1.119436,-0.07733821,-0.1233664
1.149413,-0.06344278,-0.1611841
1.173802,-0.04753854,-0.1499552
1.248879,-0.08068324,-0.1368881
1.324368,-0.1361747,-0.1729671
1.388056,-0.1432807,-0.2129361
1.459432,-0.1634325,-0.2374363
1.473888,-0.1998532,-0.2425666
1.42268,-0.2246291,-0.2256382
1.366842,-0.279992,-0.2211574
1.248925,-0.3116909,-0.2092055
1.09049,-0.2876289,-0.1928058
1.01812,-0.2641426,-0.1708016
1.003217,-0.2242892,-0.1122098
0.9817652,-0.1564853,-0.08909316
0.942356,-0.1049367,-0.09092911
0.9101929,-0.09777137,-0.07270853
0.898455,-0.1457953,-0.07415534
0.8570926,-0.2102856,-0.05731273
0.7837402,-0.239866,-0.03373363
0.6999677,-0.2393372,-0.02536202
0.6658586,-0.2324917,-0.005201007
0.6860233,-0.2317303,-0.01148019
0.6686922,-0.2292514,-0.009530805
0.6838807,-0.2247821,0.01635161
0.7455583,-0.2279517,0.02368242
0.7612108,-0.2300752,0.03741788
0.8169121,-0.2479927,0.05032472
0.9104468,-0.2772115,0.06305121
0.9231847,-0.2805517,0.07422422
0.9049894,-0.2845594,0.06691613
0.9300549,-0.3193088,0.09211512
0.9443732,-0.3564061,0.1416114
0.9330897,-0.3566681,0.1715439
0.9379164,-0.3131109,0.1859774
0.9233272,-0.256552,0.1875251
0.9117575,-0.2216489,0.1961749
0.9362749,-0.2123111,0.2094339
0.9385769,-0.2027524,0.2113328
0.9308448,-0.1997869,0.2129025
0.9304103,-0.2160664,0.2137114
0.9468281,-0.2300762,0.2098699
0.9886081,-0.2512753,0.1852037
1.035251,-0.2787526,0.1411756
1.158971,-0.2915467,0.1202103
1.317183,-0.2982207,0.1259779
1.353591,-0.320155,0.1220397
1.315048,-0.3824793,0.1194092
1.273458,-0.4522961,0.166626
1.217259,-0.4865363,0.2075885
1.235138,-0.4915473,0.1493711
1.284884,-0.4762003,0.07437362
1.209711,-0.4718803,0.05927375
1.092133,-0.4594467,0.0210219
0.9659074,-0.4154801,-0.0302288
0.8347977,-0.4029176,-0.03228428
0.8384334,-0.4254737,-0.05072715
0.8803779,-0.430951,-0.09205201
0.8934596,-0.3793521,-0.1225102
0.9234996,-0.2949144,-0.1612965
0.9121356,-0.2596245,-0.1695251
0.8963104,-0.2477464,-0.1405121
0.8534905,-0.2089768,-0.1060982
0.7923358,-0.1667776,-0.09076606
0.8000362,-0.1231557,-0.1355273
0.8077109,-0.08137802,-0.1860489
0.7973183,-0.06994635,-0.1835399
0.7779816,-0.07378598,-0.1638184
0.7446154,-0.06070849,-0.1575366
0.7504732,-0.05775655,-0.1634236
0.8017897,-0.06443601,-0.1698163
0.8914339,-0.06899362,-0.1746786
0.9821229,-0.09990151,-0.1704751
1.02346,-0.108644,-0.1603471
1.019159,-0.07808683,-0.1629306
1.011407,-0.05516272,-0.1767409
1.026914,-0.04574663,-0.2012758
1.028861,-0.05753393,-0.2131472
1.006414,-0.0585202,-0.1923404
0.9820935,-0.03308616,-0.1722797
0.9731697,-0.01023402,-0.1707068
0.9834711,0.001771375,-0.1687805
0.995173,-0.007851666,-0.1566618
1.051241,-0.01952435,-0.1537505
1.164685,-0.04917311,-0.1879352
1.244665,-0.09714999,-0.23125
1.27741,-0.0969508,-0.2284917
1.347686,-0.09618626,-0.2175518
1.439544,-0.1255695,-0.2461312
1.464342,-0.1329771,-0.2621436
1.448791,-0.1459193,-0.2579829
1.409748,-0.1649771,-0.2748577
1.329157,-0.1822792,-0.2922824
1.286134,-0.2190728,-0.288648
1.23169,-0.2297312,-0.278714
1.077499,-0.2333628,-0.2734522
0.9852119,-0.2455404,-0.2577333
1.014889,-0.2199076,-0.2270466
0.9776742,-0.2125856,-0.1604942
0.8910921,-0.2190815,-0.05610542
0.8930823,-0.2051359,-0.0155526
0.8958284,-0.2227818,-0.03696295
0.8562164,-0.2422064,-0.04881924
0.812168,-0.2567807,-0.06831661
0.7438697,-0.2830231,-0.04797477
0.7082753,-0.2847462,-0.0008358616
0.6913369,-0.2739495,0.008054623
0.6739265,-0.2524307,0.03931905
0.7024288,-0.2258964,0.08773779
0.7234842,-0.204917,0.1126183
0.748711,-0.1807237,0.1255064
0.7974428,-0.1719565,0.1212763
0.8408584,-0.1865717,0.1308413
0.891544,-0.2355532,0.160714
0.9134381,-0.3087044,0.189213
0.9170122,-0.3608157,0.2077335
0.9216972,-0.3641231,0.2002051
0.9147907,-0.3255917,0.1965914
0.9207731,-0.278519,0.1974762
0.9113559,-0.2408243,0.1849967
0.8952414,-0.2292941,0.1998127
0.9057073,-0.2163782,0.234586
0.9128793,-0.1897343,0.2519831
0.9318092,-0.2123351,0.2338859
0.9914881,-0.2583365,0.1894433
1.11616,-0.3027141,0.1642989
1.281144,-0.3402814,0.1570946
1.332143,-0.3300983,0.1623937
1.249669,-0.3508041,0.172275
1.208784,-0.4177971,0.1542949
1.235325,-0.4682712,0.1444385
1.27195,-0.5063515,0.1445911
1.311377,-0.4917283,0.1033488
1.254718,-0.455524,0.03760585
1.111944,-0.4307876,-0.01075675
1.004491,-0.3851977,-0.03719852
0.9255842,-0.3706604,-0.06604748
0.8952777,-0.3731286,-0.08352263
0.9057615,-0.3665538,-0.08673026
0.9040879,-0.3578541,-0.1066593
0.9420044,-0.3022963,-0.1275788
0.9710798,-0.2402844,-0.1516612
0.9283998,-0.1980642,-0.1606742
0.8791191,-0.15787,-0.1336867
0.8499226,-0.1338246,-0.114401
0.8362078,-0.1169451,-0.1024553
0.8306991,-0.1166797,-0.1095741
0.8287831,-0.1179175,-0.1272971
0.8193353,-0.1105429,-0.1148636
0.7973866,-0.1118604,-0.119139
0.7971366,-0.09582115,-0.1386955
0.81881,-0.0714184,-0.1449914
0.8587608,-0.06851226,-0.1454822
0.9002876,-0.08306852,-0.1259024
0.9229939,-0.08295802,-0.1182494
0.9595192,-0.03992996,-0.1330656
0.9981584,-0.0003511669,-0.1427687
1.018641,-0.01178041,-0.1452447
1.036747,-0.02708659,-0.1456083
1.05023,-0.01380642,-0.159429
1.046392,-0.02497916,-0.1667821
1.027918,-0.04281537,-0.1619877
1.00375,-0.02874769,-0.1636172
0.9655452,-0.0297984,-0.1552298
0.9653312,-0.03445104,-0.1434367
1.016312,-0.04312284,-0.1240783
1.045987,-0.08051652,-0.09551202
1.072553,-0.09323338,-0.1042594
1.125443,-0.08109777,-0.1607115
1.23584,-0.07387621,-0.2179158
1.369161,-0.06793911,-0.2265845
1.411698,-0.06433119,-0.2155001
1.460585,-0.07027817,-0.2286951
1.529777,-0.1097109,-0.2326799
1.472474,-0.1728879,-0.2256534
1.353409,-0.2160876,-0.2290761
1.223919,-0.2223295,-0.2258005
1.102918,-0.2273079,-0.2258792
1.053809,-0.2396033,-0.2329024
1.025681,-0.2196941,-0.226976
1.017433,-0.1987457,-0.1975889
1.003953,-0.1943804,-0.1435792
0.9211519,-0.1863453,-0.1043306
0.8564767,-0.1944238,-0.08728941
0.8152545,-0.2129229,-0.06598851
0.7516385,-0.2500435,-0.05739075
0.712452,-0.3029623,-0.03981342
0.6890786,-0.3334109,-0.00420531
0.6912608,-0.3414789,0.00561765
0.7273931,-0.3224937,0.007066363
0.7647699,-0.2881506,0.01335218
0.7994771,-0.2565906,0.01297154
0.8006218,-0.2305374,0.02105102
0.7949743,-0.234353,0.04623406
0.8170418,-0.2451141,0.09035484
0.8351752,-0.2418691,0.1211927
0.8653156,-0.2484862,0.1306439
0.9101667,-0.2607487,0.1586941
0.9485424,-0.2732591,0.1766814
0.9719279,-0.2697907,0.1603929
0.9742974,-0.2338837,0.1490142
0.964042,-0.195164,0.1502921
0.9427247,-0.1782184,0.1619072
0.9370885,-0.1819872,0.1915067
0.9406305,-0.1906957,0.2192774
0.9249301,-0.2001805,0.2291651
0.9140196,-0.2148505,0.2305277
0.9095894,-0.2233469,0.2230894
0.9253885,-0.2298176,0.198926
0.969492,-0.230871,0.1713258
1.009734,-0.2332727,0.1495462
1.065665,-0.2684839,0.1247173
1.14907,-0.3192727,0.1038814
1.230805,-0.3591958,0.1020546
1.312261,-0.4067345,0.1036217
1.383034,-0.4663756,0.09961066
1.378503,-0.4829685,0.1066118
1.327293,-0.4612992,0.1067824
1.285921,-0.4505081,0.08518059
1.209461,-0.4063779,0.06910197
1.188433,-0.3774213,0.06547269
1.179633,-0.4203506,0.03906234
1.023021,-0.435571,-0.01527342
0.9517229,-0.4315574,-0.03126984
0.9614399,-0.4448661,-0.02780427
0.8525237,-0.4429261,-0.07713496
0.8257658,-0.4185365,-0.108857
0.8667417,-0.3425602,-0.09958281
0.8920918,-0.1525569,-0.1030771
0.8616962,-0.1620056,-0.09544242
0.8409725,-0.1522913,-0.0779624
0.8362533,-0.1395573,-0.1048825
0.8376479,-0.1101609,-0.1282322
0.8096275,-0.07751201,-0.1331128
0.8184444,-0.07634632,-0.1390297
0.8557446,-0.06427109,-0.127682
0.8831387,-0.04283219,-0.1159595
0.9191882,-0.02280418,-0.1166301
0.9580785,0.007111517,-0.1194724
1.021856,0.02463331,-0.09681857
1.042801,0.04823335,-0.05592807
1.01933,0.08673473,-0.02752735
1.014825,0.1222191,-0.03039078
0.9812808,0.1354189,-0.05075727
0.9909754,0.09712662,-0.05079633
1.054526,0.0271618,-0.07355969
1.086207,-0.03037251,-0.1226957
1.122314,-0.05627437,-0.1725648
1.15382,-0.06530899,-0.2289992
1.228425,-0.09442687,-0.2220322
1.374245,-0.1653188,-0.2111869
1.504396,-0.234328,-0.2715882
1.57662,-0.2357456,-0.3045665
1.495238,-0.2192394,-0.298139
1.334496,-0.2511731,-0.2909463
1.221403,-0.2848113,-0.2812829
1.096178,-0.2865919,-0.2578637
1.048841,-0.2782781,-0.2256269
1.061258,-0.2725153,-0.2265592
1.014941,-0.2772815,-0.2051605
0.9639942,-0.2796322,-0.1141324
0.8887821,-0.2615543,-0.007331581
0.8679627,-0.2401849,0.03727146
0.9192429,-0.2276602,-0.01444918
0.8955206,-0.2257648,-0.03963598
0.8430901,-0.2303444,-0.009340057
0.7651787,-0.2259169,-0.013156
0.6936,-0.2110216,-0.004117087
0.7042593,-0.1844171,0.01206585
0.6880678,-0.1694139,0.01771396
0.6775834,-0.1831556,0.0550218
0.7094228,-0.1996391,0.07613617
0.7147696,-0.2211256,0.08542146
0.7502735,-0.2391223,0.1024986
0.8100668,-0.2371214,0.103432
0.8568081,-0.2449235,0.1244918
0.9076997,-0.2552205,0.1674349
0.9485045,-0.2420576,0.2025651
0.9625405,-0.2207581,0.219005
0.9408448,-0.204514,0.2175507
0.9322185,-0.1979666,0.227185
0.9517341,-0.191947,0.2503237
0.9567217,-0.1750239,0.2657438
0.9645489,-0.1711316,0.2562627
1.009081,-0.2104498,0.21667
1.169465,-0.3121706,0.149642
1.414067,-0.4212478,0.07891451
1.48987,-0.4270164,0.07032824
1.38179,-0.4039396,0.09517185
1.302377,-0.4701367,0.09387287
1.23445,-0.5108806,0.1097951
1.182311,-0.4707413,0.1152645
1.197969,-0.4433118,0.0702853
1.107237,-0.4157012,0.01260753
0.9428098,-0.3442694,-0.04919704
0.863802,-0.2841292,-0.08951519
0.8526658,-0.2964382,-0.1122531
0.9026284,-0.3113178,-0.129973
0.9205967,-0.2837387,-0.1066049
0.9188145,-0.2780423,-0.08289252
0.9396073,-0.2498971,-0.09192803
0.9022612,-0.1949134,-0.0952901
0.8989507,-0.1649732,-0.09104326
0.8915493,-0.118515,-0.09553474
0.8573236,-0.1017143,-0.0999029
0.8921574,-0.1188548,-0.1016727
0.8945892,-0.1219426,-0.1073029
0.8947195,-0.1488005,-0.1017009
0.9003471,-0.1495388,-0.09762661
0.8683648,-0.09168383,-0.121547
0.8728647,-0.02750514,-0.1590991
0.8643692,-0.002804452,-0.1818531
0.857732,-0.02689755,-0.1613484
0.8674129,-0.0209361,-0.1405177
0.8711327,0.01841487,-0.1606263
0.9293228,0.04075584,-0.1688755
0.9965702,0.04566186,-0.1633683
1.029135,0.01185083,-0.1554063
1.027248,-0.03149393,-0.1242055
1.01197,-0.05248177,-0.1123266
1.007739,-0.05125729,-0.1356524
0.9888081,-0.03758872,-0.1634186
0.9875854,-0.04697075,-0.1861565
1.004496,-0.04452936,-0.1931573
1.024878,-0.03639869,-0.1864489
1.059418,-0.06367397,-0.1790207
1.073462,-0.1022353,-0.1747735
1.088226,-0.1449915,-0.1758219
1.131431,-0.139339,-0.179552
1.196981,-0.1112603,-0.1996178
1.28425,-0.1195538,-0.269885
1.40545,-0.09992276,-0.3665673
1.521916,-0.1183202,-0.406443
1.521111,-0.1859102,-0.3947928
1.459324,-0.1959637,-0.3919692
1.35693,-0.21827,-0.3657001
1.150728,-0.2549425,-0.2987994
1.070903,-0.2408539,-0.2567668
1.102913,-0.2195394,-0.25211
1.021208,-0.200135,-0.2396566
1.009548,-0.1784772,-0.2261915
1.028104,-0.1569004,-0.2023468
0.8886367,-0.1253386,-0.09237743
0.8264904,-0.1137353,0.007710006
0.8766441,-0.1552698,-0.03351546
0.8844651,-0.2153661,-0.06750721
0.8801461,-0.2400924,-0.03267798
0.8303691,-0.231653,-0.02372086
0.7541012,-0.2149702,0.004965863
0.7490744,-0.1999992,0.01909763
0.781308,-0.1560597,-0.01232653
0.7870761,-0.1139978,0.001509164
0.777838,-0.1308389,0.02308401
0.7607042,-0.1416919,0.05524182
0.7228058,-0.1480497,0.1192674
0.7237384,-0.1847367,0.1364966
0.7658655,-0.2117012,0.143429
0.7980793,-0.2314349,0.1546097
0.8394585,-0.2299493,0.1627927
0.8786644,-0.2132464,0.2127546
0.9261831,-0.1910437,0.2371133
0.9691943,-0.1461966,0.2246487
0.9570729,-0.1228622,0.2259118
0.9341223,-0.1231034,0.2274109
0.9153952,-0.1300663,0.238385
0.9055199,-0.1467296,0.2476143
0.9345651,-0.1632734,0.226575
1.029511,-0.2186618,0.1754821
1.216327,-0.3125174,0.1246012
1.329794,-0.3652701,0.1237371
1.259259,-0.3535839,0.1764596
1.191421,-0.3567003,0.2162659
1.194027,-0.3940818,0.1818595
1.234583,-0.4084271,0.1458096
1.337843,-0.4206235,0.1596131
1.350524,-0.4225013,0.1243447
1.245133,-0.3904231,0.04459724
1.153056,-0.3710031,0.00320022
1.013339,-0.3688587,-0.01784428
0.8766939,-0.3971414,-0.05139979
0.8589244,-0.449089,-0.1008072
0.9064437,-0.4693054,-0.1354768
0.9686859,-0.444118,-0.1529698
1.00685,-0.3715478,-0.1922037
1.015044,-0.2854259,-0.211048
0.9832269,-0.2278543,-0.1908231
0.9293467,-0.1999597,-0.1679254
0.8874495,-0.1667009,-0.1234221
0.8248326,-0.107773,-0.08585359
0.7931948,-0.06996281,-0.09400172
0.7846623,-0.04492654,-0.1087715
0.7562993,-0.03001025,-0.1235093
0.7513739,-0.06117223,-0.1459059
0.7580245,-0.09089033,-0.1542386
0.8032303,-0.09694507,-0.1627312
0.8712029,-0.08873625,-0.1733775
0.8996341,-0.07457166,-0.1602845
0.9169953,-0.06686356,-0.1567287
0.9642226,-0.04405105,-0.1792812
1.031065,-0.02358746,-0.1941166
1.034292,-0.02043202,-0.1956768
1.016889,-0.01565933,-0.1801543
1.036201,-0.0107199,-0.1616847
1.008586,-0.01441426,-0.1530243
0.9736129,-0.02319807,-0.1445686
0.9706689,-0.02714284,-0.1581774
0.991037,-0.04387076,-0.194383
1.04736,-0.06616575,-0.2364937
1.076296,-0.08042257,-0.2632089
1.102016,-0.1092617,-0.2624761
1.154165,-0.1391533,-0.291309
1.212299,-0.1548114,-0.3492226
1.319943,-0.1615645,-0.3697659
1.433158,-0.2089843,-0.3692506
1.481463,-0.3317286,-0.3896801
1.468479,-0.4158906,-0.4165625
1.409915,-0.4066183,-0.4176539
1.311874,-0.3897874,-0.3728854
1.172878,-0.3803326,-0.2870917
1.041676,-0.3550729,-0.216677
0.9527907,-0.3219878,-0.1856433
0.9103958,-0.264239,-0.1276765
0.9146814,-0.1798533,-0.04733539
0.9276211,-0.1217311,-0.02490351
0.9381498,-0.1211098,-0.0462811
0.9225892,-0.1673162,-0.05479564
0.8650236,-0.2340906,-0.05834919
0.7999993,-0.2568135,-0.05342234
0.7402069,-0.2184077,0.005481923
0.7074752,-0.1764661,0.06769767
0.7060644,-0.1510806,0.05344249
0.7120426,-0.1382559,0.03879467
0.7053655,-0.1395195,0.07800198
0.7023655,-0.1604712,0.1054
0.7390157,-0.2132158,0.1196554
0.7704173,-0.2567585,0.1323861
0.787574,-0.2661806,0.1376858
0.8238123,-0.2883314,0.1720075
0.8549372,-0.3114086,0.2049221
0.8712668,-0.3029738,0.2058864
0.8790052,-0.2994201,0.1953254
0.8948817,-0.30189,0.1737601
0.9063432,-0.2941254,0.1699035
0.9037175,-0.2959924,0.1833777
0.910513,-0.2988048,0.2071811
0.9148008,-0.2976753,0.2458824
0.9355583,-0.2990804,0.2406928
0.9974714,-0.2933106,0.2022167
1.098142,-0.2901587,0.1716974
1.185701,-0.304176,0.1492235
1.266015,-0.3699968,0.160534
1.475039,-0.4933672,0.1742247
1.607988,-0.5544841,0.1656597
1.418449,-0.5041359,0.1526304
1.193359,-0.4774537,0.1186787
1.110147,-0.5039585,0.0985521
1.067188,-0.503847,0.09628636
1.010925,-0.5191843,0.05290241
0.9181609,-0.5493949,0.005733637
0.8795963,-0.5402135,-0.01822134
0.8347528,-0.5382898,-0.04375488
0.7579152,-0.5311076,-0.04712779
0.7971557,-0.4834004,-0.05355569
0.8180278,-0.414251,-0.1003408
0.8297595,-0.3326443,-0.1475581
0.9022959,-0.2917265,-0.1746847
0.8822317,-0.2941957,-0.1834041
0.8647381,-0.2904513,-0.1689394
0.8597938,-0.2802941,-0.1460716
0.826851,-0.2623067,-0.1360559
0.8566367,-0.2460565,-0.1613207
0.8594392,-0.241795,-0.2030316
0.8451262,-0.245048,-0.2158339
0.8517105,-0.2484977,-0.2162693
0.8529983,-0.24488,-0.2317128
0.8821074,-0.2432647,-0.2514177
0.9066945,-0.2183355,-0.2627393
0.9400953,-0.1552987,-0.2470726
0.9685288,-0.08895651,-0.2146289
0.9653557,-0.04073295,-0.1961038
0.9740269,-0.005899371,-0.1780323
0.9783123,0.03752466,-0.1509616
0.9859981,0.07460577,-0.1258881
1.001882,0.09786694,-0.1010993
1.006518,0.1367772,-0.09312234
1.011868,0.1577695,-0.1022029
1.013477,0.1524184,-0.1012772
1.017708,0.1433904,-0.1027082
1.017825,0.1041754,-0.1116574
1.002069,0.07408736,-0.1094771
0.9747223,0.07704986,-0.1095278
0.9447934,0.05892074,-0.1195903
0.9486588,0.02959794,-0.1468295
0.994424,-0.005297886,-0.1965347
1.058808,-0.07233333,-0.2362952
1.11812,-0.1356246,-0.2579768
1.165278,-0.1477874,-0.2588832
1.21945,-0.1066976,-0.2361046
1.288447,-0.06028532,-0.2321622
1.383848,-0.06535343,-0.249264
1.458845,-0.1297637,-0.2563669
1.445015,-0.2305239,-0.2423672
1.39396,-0.3101191,-0.2172029
1.310445,-0.3190676,-0.2013724
1.158963,-0.3204666,-0.1538491
1.052938,-0.3534999,-0.09252658
1.050447,-0.3555536,-0.1028459
1.055798,-0.3429049,-0.126126
1.023016,-0.3321863,-0.1223167
0.9811173,-0.2716188,-0.1480537
0.941754,-0.1978891,-0.1583562
0.9330148,-0.1772715,-0.1221324
0.938881,-0.2077992,-0.09223801
0.8706757,-0.2289303,-0.07692001
0.7830496,-0.2020256,-0.06837833
0.740369,-0.1679541,-0.07119568
0.7164269,-0.1318003,-0.07677727
0.7505532,-0.1023916,-0.0717761
0.7801362,-0.1185098,-0.05042332
0.7614029,-0.1407961,-0.01665085
0.7597442,-0.1696347,0.02961295
0.7586521,-0.215912,0.06863551
0.7941319,-0.2385517,0.07775596
0.8822516,-0.2959766,0.08204254
0.9468819,-0.3732928,0.1017552
0.9712978,-0.3658603,0.1121133
0.9857749,-0.3467919,0.1160356
0.9988554,-0.3481575,0.1370981
0.9675853,-0.2950404,0.1519166
0.9184715,-0.2435663,0.1692998
0.893054,-0.2206286,0.1913739
0.8706188,-0.1882699,0.176962
0.8730838,-0.1667327,0.1723585
0.8826218,-0.1617144,0.1839136
0.8956276,-0.191344,0.1666052
0.9624164,-0.2497178,0.1383038
1.106386,-0.3003926,0.09266951
1.32268,-0.3596734,0.06065766
1.432488,-0.3907304,0.06380397
1.329883,-0.3718388,0.08479701
1.217387,-0.3754699,0.1255678
1.198461,-0.4053598,0.1171038
1.259279,-0.4467648,0.09136938
1.362948,-0.4997164,0.1051827
1.339274,-0.4896121,0.08285328
1.215498,-0.4253263,0.05571698
1.048645,-0.3625182,0.03641723
0.8460427,-0.298865,0.005980062
0.8483797,-0.330831,0.004514438
0.8937123,-0.416398,-0.03926928
0.8214683,-0.4086912,-0.08692014
0.8992018,-0.3942856,-0.0728925
0.9314192,-0.353583,-0.08414513
0.8906936,-0.2642915,-0.09522937
0.9429374,-0.2608899,-0.08787948
0.8863283,-0.2629108,-0.09692946
0.8865668,-0.2459937,-0.105322
0.9251334,-0.2573734,-0.1264133
0.8563728,-0.2173097,-0.1339187
0.8624278,-0.1479974,-0.1167656
0.8174662,-0.0783344,-0.1054663
0.7837815,-0.03780816,-0.1060273
0.8360534,-0.04767999,-0.1286228
0.8269983,-0.03811935,-0.1547641
0.8683776,-0.01979268,-0.1703856
0.8928037,-0.01702031,-0.1695236
0.8964255,-0.01889467,-0.1482889
0.9608895,-0.02913896,-0.1352322
0.9645011,-0.03338379,-0.1451944
0.9645644,-0.04434261,-0.1630407
0.9906978,-0.06774711,-0.1651624
1.0154,-0.09609595,-0.1749144
1.030091,-0.1194931,-0.1926407
0.9942414,-0.1095461,-0.1739245
0.9851915,-0.08517704,-0.1542913
1.005931,-0.05850727,-0.1506088
1.016572,-0.01115172,-0.1376215
1.017781,0.02695818,-0.131461
1.025366,0.03275949,-0.1327233
1.091776,0.01891097,-0.1473832
1.158689,-0.007568285,-0.1959019
1.198042,-0.04627217,-0.2488553
1.266584,-0.08834164,-0.2504672
1.334737,-0.1360046,-0.252346
1.354789,-0.2398604,-0.3245482
1.354834,-0.3659034,-0.3765255
1.363893,-0.4039484,-0.3777854
1.33924,-0.391752,-0.3988285
1.275324,-0.377499,-0.4093093
1.174947,-0.3384054,-0.3554609
1.076009,-0.3295993,-0.2698407
1.073417,-0.3431608,-0.2420325
1.078002,-0.3294712,-0.2365471
1.01397,-0.3175389,-0.1666914
0.9343908,-0.2848859,-0.08579996
0.8666407,-0.2318158,-0.0352791
0.8559159,-0.2174543,-0.03422939
0.8379537,-0.2281488,-0.05778211
0.7728349,-0.2494434,-0.04426509
0.7317619,-0.2838104,-0.02953656
0.7051175,-0.2934466,-0.01167809
0.7021356,-0.2672546,0.006898256
0.7195985,-0.2313814,0.01138979
0.7324837,-0.1948037,0.03171992
0.7548887,-0.1768639,0.03425508
0.7651176,-0.2045078,0.04913655
0.7732683,-0.2439865,0.09312581
0.7870667,-0.2665798,0.1285776
0.8046694,-0.2767868,0.1822001
0.8573287,-0.2588855,0.2159016
0.9140785,-0.2326823,0.2305708
0.9354802,-0.2062954,0.2528391
0.9381756,-0.1622579,0.2509079
0.9454981,-0.141909,0.2555853
0.9505808,-0.1541202,0.2579895
0.9446169,-0.1714276,0.254477
0.946398,-0.203884,0.2544365
0.9521991,-0.2490995,0.2108048
0.9675542,-0.2880561,0.1725338
1.034454,-0.3058781,0.1791304
1.196942,-0.3317962,0.1804731
1.364118,-0.3963642,0.1692425
1.311376,-0.434002,0.1801247
1.183282,-0.4448515,0.1987557
1.239374,-0.4817746,0.1812964
1.292902,-0.4858824,0.1500009
1.297304,-0.4807957,0.09559588
1.272632,-0.5033491,0.02293181
1.100791,-0.4782835,0.0116975
0.9742844,-0.4402457,0.01369549
0.892562,-0.4349538,-0.03636868
0.8197981,-0.456343,-0.09837366
0.8957739,-0.4870344,-0.1421534
0.923962,-0.4437552,-0.1490061
0.9093517,-0.348915,-0.1406926
0.929783,-0.2605481,-0.155566
0.8947095,-0.1878009,-0.1667982
0.8938296,-0.1486232,-0.1461178
0.8635142,-0.0992378,-0.1286489
0.8173469,-0.07310932,-0.1417968
0.8379667,-0.09500669,-0.1446232
0.8247096,-0.09307964,-0.114706
0.8105661,-0.1038401,-0.08959674
0.7993828,-0.1275852,-0.09173273
0.7942624,-0.1144782,-0.1097853
0.846837,-0.09185313,-0.1438549
0.9179048,-0.07077225,-0.1840579
0.983124,-0.07301491,-0.1736481
0.9839782,-0.08040601,-0.122308
0.9534612,-0.04865643,-0.1036353
0.9620614,-0.007166959,-0.115199
0.9786795,0.0255717,-0.136738
1.016016,0.02941623,-0.1497544
1.041985,0.01497024,-0.1332863
1.03232,0.02649841,-0.1219235
1.023572,0.02821507,-0.120955
0.9972754,0.02033142,-0.1187703
0.9818865,0.02725201,-0.1213542
1.010411,0.009553611,-0.1273643
1.055911,-0.03557508,-0.1689282
1.117345,-0.09170283,-0.2391569
1.187491,-0.1225092,-0.2750754
1.235903,-0.1396546,-0.2749537
1.290091,-0.2314007,-0.305666
1.401429,-0.331143,-0.3720786
1.497792,-0.348829,-0.4200689
1.490944,-0.3443181,-0.4356498
1.396494,-0.3456834,-0.3789666
1.23431,-0.3398096,-0.271402
1.084394,-0.3114654,-0.2088993
1.025098,-0.2616043,-0.1696952
1.016743,-0.2341198,-0.1324919
1.020329,-0.206074,-0.09130401
0.9959635,-0.1367564,-0.0115294
0.9503396,-0.08390479,0.033185
0.9438755,-0.09173525,0.01930627
0.9316852,-0.1089055,0.01139523
0.8756896,-0.1348687,-0.01136905
0.8136509,-0.2209416,-0.03996664
0.7622133,-0.2803528,-0.0106317
0.7483291,-0.2438988,0.02522454
0.7674442,-0.2114945,0.006917239
0.7696721,-0.2006655,0.00683807
0.761579,-0.1593989,0.05140538
0.7497299,-0.136186,0.08677946
0.728069,-0.1351289,0.1049584
0.748554,-0.1272554,0.1041667
0.7912428,-0.1310863,0.118598
0.8026626,-0.1306092,0.1520548
0.8508956,-0.1531256,0.1643329
0.9569194,-0.2272296,0.213855
1.01408,-0.2808725,0.264496
0.9659823,-0.2905715,0.2468074
0.8940596,-0.306942,0.253199
0.866546,-0.3232607,0.2708665
0.8597848,-0.2940267,0.252806
0.8821228,-0.2709017,0.2567466
0.9160541,-0.2893105,0.2590796
0.9391165,-0.2941563,0.2496392
0.9595673,-0.3188552,0.2467877
0.9613789,-0.3693374,0.2090672
1.053015,-0.4234537,0.1684216
1.251489,-0.5078702,0.159661
1.37357,-0.5329863,0.1526673
1.362119,-0.4562352,0.1776972
1.252944,-0.3544143,0.2253533
1.102246,-0.2892669,0.2183505
1.028591,-0.2994856,0.2015134
1.100324,-0.3677294,0.2083073
1.163274,-0.4675265,0.1505089
1.083027,-0.5460235,0.05139763
1.00862,-0.5731175,-0.01877319
0.9575943,-0.5992877,-0.07751206
0.8952221,-0.5983706,-0.1081963
0.9099174,-0.5490931,-0.1213501
0.9212977,-0.4962961,-0.1549168
0.9343894,-0.428009,-0.174868
0.9743621,-0.3692568,-0.1702788
0.9580785,-0.3436709,-0.1622528
0.9204528,-0.2920568,-0.1565342
0.8528753,-0.2224975,-0.1674415
0.7958773,-0.1629506,-0.1841286
0.8035186,-0.1090344,-0.1865649
0.8037005,-0.09001167,-0.2082393
0.8146471,-0.09922617,-0.2493337
0.8351668,-0.1097544,-0.254006
0.8478159,-0.1151061,-0.2400763
0.888899,-0.1115276,-0.2375336
0.9100054,-0.09368724,-0.2224593
0.8841772,-0.05269406,-0.1993339
0.8699154,-0.01457128,-0.1812005
0.911552,-0.009960614,-0.1752222
0.9713556,-0.03566618,-0.1781207
1.003252,-0.04856091,-0.163544
1.019484,-0.003038189,-0.1455675
1.02609,0.07248976,-0.1355825
1.020896,0.1165211,-0.1234502
1.010469,0.1046578,-0.1219495
1.030395,0.07255031,-0.1155991
1.083396,0.04629357,-0.105572
1.126926,0.004114354,-0.1146799
1.164857,-0.04133695,-0.1406099
1.210314,-0.07666356,-0.2014798
1.298667,-0.1162768,-0.2640213
1.392884,-0.1766179,-0.2830251
1.412697,-0.2729317,-0.3145078
1.421943,-0.366194,-0.3763616
1.408386,-0.395699,-0.3890998
1.321044,-0.3642707,-0.3256799
1.215454,-0.3212783,-0.2398428
1.099476,-0.2670145,-0.1761473
1.024704,-0.1944009,-0.1663667
1.004407,-0.147287,-0.1788308
0.9585748,-0.1236646,-0.1391953
0.9059108,-0.1283585,-0.07482994
0.8902935,-0.1608707,-0.03940157
0.9053257,-0.191707,-0.0539731
0.8909864,-0.2504095,-0.07849767
0.8268028,-0.2885849,-0.03844281
0.7522303,-0.2726054,0.008105854
0.6803502,-0.2465438,0.03235861
0.6747441,-0.1950412,0.05390241
0.7199542,-0.1669008,0.03495288
0.7419879,-0.1716999,0.02878859
0.7566225,-0.171389,0.03608738
0.7544458,-0.2012514,0.03127002
0.7585482,-0.2474434,0.07672471
0.77756,-0.3126331,0.1396389
0.7864335,-0.3512948,0.1758693
0.8373199,-0.3240934,0.1791356
0.9169525,-0.3214509,0.1691313
0.9681159,-0.3096905,0.1844441
0.9835636,-0.2678038,0.1906919
0.9880271,-0.2480291,0.196116
0.9742217,-0.2158307,0.2057516
0.9136144,-0.2097196,0.2044369
0.8887881,-0.2246816,0.2219882
0.9108956,-0.2227654,0.2198039
0.9060093,-0.2538465,0.2071429
0.9221056,-0.2834853,0.211986
1.024784,-0.3156319,0.1810688
1.219281,-0.3923626,0.1339199
1.343046,-0.4329983,0.1186662
1.282332,-0.4096963,0.1479405
1.258993,-0.4119827,0.1784562
1.314717,-0.4594859,0.1567774
1.291544,-0.4738986,0.1296321
1.276153,-0.4523199,0.1033291
1.247899,-0.4327271,0.0658981
1.105701,-0.4100716,0.05405745
0.9632996,-0.3800058,0.02928167
0.8645258,-0.3521108,-0.01347319
0.8406427,-0.3665436,-0.04132618
0.915422,-0.3780104,-0.06922324
0.966706,-0.3315316,-0.09278957
0.9742615,-0.265767,-0.1341984
0.9543945,-0.2031502,-0.1731178
0.9073047,-0.2067085,-0.1473601
0.8578484,-0.2234736,-0.10956
0.7904063,-0.1738626,-0.1004316
0.7841552,-0.1654418,-0.1104393
0.8307848,-0.1477638,-0.1540115
0.8242543,-0.09041428,-0.1862594
0.8016435,-0.1022224,-0.1766107
0.784376,-0.0983623,-0.1728157
0.795228,-0.06572936,-0.1916718
0.8554824,-0.0593693,-0.2011895
0.9107512,-0.03510989,-0.1856467
0.9564526,-0.03477057,-0.1634346
0.9728305,-0.03944604,-0.1544412
0.9661795,0.007041651,-0.1693259
0.975206,0.04396035,-0.1926949
0.9834326,0.04792229,-0.1929998
1.016629,0.03582892,-0.1825459
1.050455,0.01149757,-0.1767506
1.043201,-0.008495032,-0.1669314
1.035524,-0.004981609,-0.1594462
1.02992,0.00303379,-0.1640569
1.039136,-0.03127569,-0.1845002
1.09322,-0.07292372,-0.2214667
1.199303,-0.08441089,-0.2814534
1.321172,-0.1048831,-0.3275624
1.384241,-0.1396645,-0.3181184
1.45004,-0.1960548,-0.3314878
1.546572,-0.2788925,-0.3841603
1.523609,-0.3284019,-0.380531
1.400821,-0.3391793,-0.3545673
1.28914,-0.3466329,-0.3365236
1.154785,-0.3342329,-0.2794038
1.070868,-0.3124205,-0.2465144
1.080435,-0.2887982,-0.2603126
1.063441,-0.23948,-0.2400549
1.023688,-0.2005716,-0.1654407
0.9526378,-0.165608,-0.04153927
0.8767274,-0.1165576,0.06481158
0.8758385,-0.10799,0.06775869
0.8435854,-0.1195524,0.03561926
0.7930031,-0.1345319,0.01086001
0.7694752,-0.1616095,-0.02432045
0.707578,-0.1597369,0.01423871
0.6739264,-0.1450423,0.07773344
0.6948612,-0.1305159,0.05413986
0.7341247,-0.1116476,0.04690916
0.7635546,-0.1201557,0.07899021
0.7704582,-0.1487203,0.0822651
0.7869364,-0.179838,0.1137071
0.8059826,-0.2172746,0.1487765
0.8374023,-0.2457163,0.1548804
0.8716611,-0.2578842,0.1811036
0.9046688,-0.2597376,0.1994648
0.9489239,-0.2347901,0.2004035
0.9657344,-0.2007015,0.2023538
0.9705792,-0.1909643,0.2058987
0.9597997,-0.1787336,0.2279193
0.9266419,-0.1531443,0.2527218
0.9052383,-0.1363185,0.2640759
0.8965689,-0.1385673,0.2520557
0.9444446,-0.185197,0.2214551
1.076428,-0.2779989,0.19333
1.24562,-0.3412265,0.1580558
1.322682,-0.3265415,0.1425423
1.25579,-0.2934607,0.171762
1.217949,-0.2939628,0.1991905
1.242527,-0.3484252,0.1959005
1.260875,-0.4326939,0.1917634
1.325107,-0.4435125,0.1897609
1.337962,-0.3995957,0.1327716
1.215373,-0.3750415,0.0464835
1.048394,-0.3248454,0.01504782
0.8932896,-0.2866832,0.01201367
0.8018055,-0.3085162,-0.0295756
0.7850594,-0.3242401,-0.08596077
0.8280705,-0.329447,-0.09137153
0.9133338,-0.3083784,-0.09208404
0.9550021,-0.2412932,-0.1420567
0.9558829,-0.2073378,-0.1599515
0.9464051,-0.2189291,-0.1352829
0.9219296,-0.2228097,-0.122012
0.9100587,-0.2130095,-0.1124778
0.9019287,-0.195399,-0.115227
0.9001113,-0.1411657,-0.1210734
0.8720385,-0.07182579,-0.1182036
0.8155115,-0.08176033,-0.1127009
0.8065937,-0.1148179,-0.09585759
0.8107817,-0.09147118,-0.09862053
0.8218944,-0.08596327,-0.1391518
0.8731741,-0.07132501,-0.1813214
0.9205857,-0.04025703,-0.180374
0.9623986,-0.07144429,-0.1463778
0.9904183,-0.08234472,-0.1376811
0.9792559,-0.03634423,-0.1487082
0.960107,0.002692915,-0.1535402
0.9610073,0.0216072,-0.153471
0.9724631,0.01314797,-0.1541604
0.9868108,0.007582627,-0.1735469
0.9977739,-0.0001158283,-0.1869865
0.9990978,-0.03160161,-0.1827194
1.012888,-0.05873799,-0.1794847
1.016182,-0.07811417,-0.1597926
0.9863056,-0.06253317,-0.1288194
0.9747101,-0.03390007,-0.1169042
1.001326,-0.04239929,-0.129154
1.034613,-0.05149926,-0.135257
1.034732,-0.0662226,-0.1351959
1.034202,-0.0834731,-0.1731892
1.079655,-0.06822641,-0.2186824
1.121785,-0.06204307,-0.2282202
1.153693,-0.08312431,-0.2540976
1.205263,-0.1173031,-0.3261061
1.300764,-0.174798,-0.3743837
1.463029,-0.2557179,-0.3975818
1.572144,-0.3262813,-0.4491073
1.506397,-0.3401905,-0.453663
1.365109,-0.3458735,-0.419125
1.2526,-0.3787077,-0.4160826
1.141902,-0.354376,-0.3690237
1.105097,-0.3004729,-0.3307903
1.14108,-0.273272,-0.3633505
1.09864,-0.2254279,-0.3477347
1.012385,-0.1928972,-0.2581212
0.9053049,-0.1751086,-0.1259612
0.8202557,-0.1444532,-0.03471937
0.8359417,-0.1508997,-0.05678368
0.7851002,-0.1543117,-0.06479093
0.6878399,-0.149353,-0.02622012
0.6479573,-0.1630895,-0.01157864
0.6134192,-0.1591561,0.004855807
0.6478698,-0.1680841,0.008867807
0.7074971,-0.195361,0.003792229
0.7587321,-0.2300333,0.02043447
0.8054537,-0.2749001,0.05240963
0.7718558,-0.2871655,0.1035212
0.7738318,-0.2803948,0.1297909
0.834025,-0.2701367,0.1234885
0.8846496,-0.2417436,0.1266709
0.9497238,-0.2195851,0.1324988
0.971754,-0.2205006,0.1531325
0.9818172,-0.2272959,0.1810685
0.9861111,-0.2206615,0.1869479
0.9459507,-0.2131089,0.1906194
0.935354,-0.2069616,0.1986149
0.9173469,-0.1962763,0.205619
0.8950011,-0.1923652,0.2166893
0.9173241,-0.1899738,0.2217204
0.9178957,-0.1986114,0.2139049
0.9240928,-0.2076182,0.2062319
0.9515876,-0.1937967,0.2066955
0.9617103,-0.1899297,0.2068504
0.9938688,-0.2128949,0.2026053
1.066662,-0.2475192,0.1869391
1.144861,-0.2635658,0.1654492
1.15745,-0.2468568,0.1647067
1.09421,-0.2412212,0.1812003
1.023634,-0.2612453,0.1945288
1.002343,-0.2932359,0.1962101
1.062136,-0.3428567,0.1778144
1.169057,-0.3941379,0.1615945
1.295514,-0.4339344,0.1789863
1.399122,-0.4692619,0.1854632
1.401765,-0.477547,0.1285432
1.344113,-0.4398865,0.06615619
1.252594,-0.4122463,0.06627873
1.117774,-0.4324492,0.08303331
1.013658,-0.4417047,0.06267417
0.9209808,-0.4103643,0.02404199
0.822158,-0.38344,-0.02828776
0.8145055,-0.381624,-0.08038367
0.8556747,-0.3801274,-0.1005842
0.8702251,-0.3410364,-0.1172496
0.8959677,-0.2536618,-0.1402638
0.8988424,-0.1924675,-0.1597029
0.8643794,-0.2134381,-0.1638819
0.8169648,-0.2387247,-0.1194853
0.7517462,-0.2436585,-0.07891299
0.7535925,-0.2842604,-0.08523108
0.802413,-0.3018579,-0.09746544
0.8200666,-0.2676407,-0.1037821
0.8536583,-0.2259836,-0.1106616
0.8624359,-0.1535666,-0.121568
0.8718942,-0.0943222,-0.1379234
0.9585124,-0.09259342,-0.1503595
1.009549,-0.0960562,-0.1286742
1.006997,-0.1065501,-0.08225434
0.9967177,-0.1114246,-0.06014679
0.9638517,-0.07660842,-0.03638058
0.9556302,-0.03456846,-0.0159279
0.9650339,-0.02022957,-0.02597663
0.9735851,-0.03146698,-0.02690351
0.9897133,-0.03425467,-0.03251916
1.001484,-0.04054381,-0.05139793
1.012837,-0.0572258,-0.05680996
0.9999938,-0.04743231,-0.0525099
0.9875152,-0.03946371,-0.03921164
0.9965019,-0.03643989,-0.02870093
0.9937735,-0.02108377,-0.02754939
0.9993818,-0.02351755,-0.03017258
0.9656156,-0.1741324,-0.1034451
0.9401476,-0.1837077,-0.08892037
0.8898482,-0.1724896,-0.08147144
0.8411508,-0.1407718,-0.09112453
0.8221126,-0.08511047,-0.119145
0.8168512,-0.0185476,-0.1377196
0.7829532,0.01438731,-0.1535726
0.7801853,0.01992933,-0.1646341
0.835732,-0.00198366,-0.1435765
0.9210933,-0.02035024,-0.1411363
1.015088,-0.02043267,-0.1641617
1.06473,-0.02441228,-0.1725134
1.069941,-0.01342285,-0.1512081
1.04417,0.02800974,-0.1047492
1.001983,0.07227493,-0.08947277
0.9942771,0.06397373,-0.09069253
1.007941,0.02141609,-0.07479019
1.02364,0.005758332,-0.07545793
1.060444,-0.001188068,-0.09087503
1.109345,-0.01763201,-0.112747
1.153884,-0.02899993,-0.1298878
1.209912,-0.02972961,-0.150349
1.302839,-0.03509628,-0.2024831
1.395981,-0.07857521,-0.2488483
1.446289,-0.1493822,-0.2501154
1.454452,-0.2028744,-0.2058166
1.41903,-0.2092377,-0.155084
1.356994,-0.193629,-0.1462174
1.262954,-0.1935364,-0.1428008
1.145431,-0.1778624,-0.1107592
1.066279,-0.157486,-0.1021375
1.041114,-0.1655568,-0.1375612
1.048897,-0.1711026,-0.1554179
1.019682,-0.1780179,-0.0997694
0.9368648,-0.1927182,-0.003687763
0.8953111,-0.2048428,0.03540215
0.88354,-0.2239472,0.01194263
0.8596602,-0.2422238,0.005484885
0.831307,-0.2628442,0.01609187
0.7769471,-0.2786305,0.02047993
0.7303702,-0.2648797,0.04060707
0.7237249,-0.2310531,0.06146158
0.7454989,-0.1935162,0.07215114
0.7758634,-0.169458,0.09933351
0.7958748,-0.1729992,0.1237105
0.847907,-0.1843192,0.1376773
0.9281257,-0.1967638,0.1683991
0.9491311,-0.2155652,0.1767651
0.9186977,-0.221293,0.1657687
0.9123347,-0.2279807,0.1870869
0.9098303,-0.2374297,0.19578
0.8960443,-0.2239009,0.1779696
0.9052572,-0.2175339,0.1785649
0.8996638,-0.219915,0.1895981
0.8882631,-0.2159696,0.199361
0.8851632,-0.2238296,0.1984619
0.8509815,-0.2265992,0.1945868
0.8408129,-0.2252569,0.2031842
0.8582244,-0.2262737,0.2009468
0.8765583,-0.2208245,0.1999438
0.9269557,-0.2211994,0.2105373
0.9647589,-0.2176218,0.2074081
0.9692558,-0.2143207,0.1967208
0.9741444,-0.2229709,0.1823782
1.01421,-0.244849,0.1641884
1.10606,-0.2926226,0.1353247
1.196566,-0.3249617,0.1100098
1.255304,-0.3231735,0.1354041
1.283188,-0.3477476,0.164119
1.294291,-0.4016056,0.1541437
1.323651,-0.4337185,0.150777
1.348057,-0.4445421,0.1490193
1.339469,-0.4475852,0.1414457
1.287649,-0.4115811,0.1259048
1.173896,-0.3354783,0.08226801
1.048088,-0.2770479,0.04456423
0.9546135,-0.2646785,0.01198376
0.8929722,-0.2712258,-0.03381261
0.8886202,-0.2698449,-0.05691305
0.9140567,-0.2625682,-0.06585175
0.9325116,-0.2417157,-0.08450275
0.9442684,-0.2099351,-0.09466304
0.9166915,-0.2034863,-0.09275575
0.874001,-0.195595,-0.09166718
0.8534503,-0.1466174,-0.09217017
0.8402752,-0.1108432,-0.09758076
0.8484714,-0.1133218,-0.126568
0.857135,-0.1093135,-0.1615901
0.8354316,-0.1015948,-0.1601254
0.8224639,-0.1076293,-0.1441272
0.8402612,-0.09866897,-0.1510314
0.8657707,-0.07874775,-0.1674948
0.8805491,-0.07762124,-0.1793422
0.8857039,-0.07867017,-0.1758337
0.9010661,-0.0729955,-0.1596037
0.9335472,-0.0678317,-0.1547736
0.9612394,-0.06285724,-0.1476256
0.9972289,-0.06245107,-0.1404484
1.050088,-0.05034451,-0.1483522
1.060899,-0.02446488,-0.1453234
1.031976,-0.003691367,-0.1454319
1.013715,0.001383755,-0.1485106
0.9967632,0.001947895,-0.1372026
0.9874995,0.01947887,-0.1333907
1.006571,0.01817862,-0.1138406
1.034284,-0.01249949,-0.0838419
1.044877,-0.03217943,-0.08010883
1.039625,-0.04325228,-0.0903865
1.050475,-0.05057081,-0.1095774
1.090653,-0.05521018,-0.1269006
1.145644,-0.03655762,-0.1462403
1.206615,0.01982696,-0.1974296
1.266316,0.06303802,-0.2596405
1.325168,0.05045185,-0.2773155
1.409852,-0.03873988,-0.2622691
1.499212,-0.1340599,-0.2678827
1.469588,-0.1630913,-0.2685467
1.350043,-0.2215035,-0.2553627
1.303512,-0.2784963,-0.2621635
1.252078,-0.2251599,-0.2612661
1.134205,-0.1986221,-0.2495945
1.087098,-0.2311892,-0.24483
1.103718,-0.216868,-0.2384714
1.082152,-0.2170318,-0.2240132
0.9894449,-0.2125344,-0.1635869
0.8663861,-0.1788326,-0.05786722
0.7905846,-0.1972352,0.003727256
0.7904746,-0.2107731,-0.01245137
0.8086094,-0.2149752,-0.02835904
0.7707384,-0.2432221,-0.01928456
0.7360038,-0.2443969,-0.01775359
0.7381152,-0.2437733,-0.007190456
0.7422026,-0.2348757,-0.002825307
0.7759644,-0.2035417,0.002223681
0.8070289,-0.1905009,0.04519075
0.8217581,-0.1910331,0.07778053
0.8271509,-0.1897302,0.09044754
0.8204678,-0.1817606,0.1023599
0.8436337,-0.1914918,0.1116181
0.8685297,-0.2123507,0.1396448
0.8893401,-0.2170935,0.1571601
0.9086098,-0.2310192,0.1615769
0.9066653,-0.2362925,0.1714901
0.9129364,-0.2179113,0.1718811
0.9122295,-0.195958,0.185784
0.9038965,-0.1701738,0.1952469
0.9072016,-0.1624006,0.1939877
0.9334329,-0.1679591,0.2081728
0.9757225,-0.1655961,0.2049536
0.973771,-0.1673089,0.2047256
0.9535669,-0.1744015,0.2185968
0.9630015,-0.1943952,0.209598
0.9897495,-0.2351218,0.2025987
1.045637,-0.2706562,0.2002642
1.147448,-0.2902332,0.1978723
1.267062,-0.3136042,0.2071814
1.292928,-0.3206285,0.2015668
1.253202,-0.3036518,0.1712155
1.290305,-0.305986,0.1264575
1.316966,-0.3043122,0.1027721
1.29575,-0.3132937,0.1116164
1.268968,-0.4022253,0.1077316
1.186576,-0.4789336,0.1022016
1.15467,-0.4460703,0.09484622
1.090378,-0.3715277,0.03275326
0.9111699,-0.3295151,-0.04519408
0.8995901,-0.319413,-0.0601139
0.9643301,-0.3233132,-0.05187367
0.9316421,-0.3085169,-0.08179326
0.9541481,-0.2630638,-0.0919872
0.9630835,-0.2224536,-0.1000945
0.9296113,-0.1762282,-0.1506544
0.937158,-0.1660814,-0.1392986
0.9121999,-0.2052189,-0.1106916
0.8737947,-0.1924442,-0.1296974
0.8654538,-0.1918071,-0.1154526
0.8641648,-0.2019033,-0.1282173
0.8607954,-0.1575889,-0.162178
0.8342481,-0.1604924,-0.1495869
0.8111635,-0.1589627,-0.1544128
0.8108916,-0.1198963,-0.1640159
0.8180361,-0.08694498,-0.1696893
0.8349541,-0.03609616,-0.1793326
0.8596897,-0.03618616,-0.165193
0.8966747,-0.04599976,-0.1524791
0.921138,-0.02126472,-0.1302695
0.9404301,-0.01722743,-0.1165172
1.008299,-0.007600228,-0.1338364
1.075164,-0.005250903,-0.1434099
1.079852,-0.008947132,-0.1554458
1.050794,-0.0104079,-0.161401
1.01636,-0.02640434,-0.1524878
0.9883047,-0.04451987,-0.1478964
0.9875489,-0.07490185,-0.1335899
1.00483,-0.07996769,-0.1310266
1.009575,-0.07416937,-0.1438967
1.023898,-0.09580187,-0.1473436
1.063855,-0.1159767,-0.1585569
1.092316,-0.1511653,-0.164709
1.086608,-0.1585861,-0.1553281
1.083474,-0.1220848,-0.1581687
1.14379,-0.09381588,-0.1773456
1.238513,-0.06409134,-0.2134314
1.320502,-0.08689356,-0.2618377
1.392383,-0.1622439,-0.302338
1.414051,-0.2273952,-0.3117869
1.367604,-0.2983556,-0.2871523
1.282123,-0.3240027,-0.2664757
1.18412,-0.3091493,-0.250528
1.102569,-0.3173456,-0.2256211
1.054274,-0.2992815,-0.2123604
1.044648,-0.2663205,-0.2050433
1.051143,-0.2566878,-0.2064964
1.036223,-0.2526214,-0.2021179
0.9674675,-0.2520309,-0.1504481
0.8760768,-0.2378063,-0.07140447
0.8542875,-0.2275945,-0.01394548
0.8824012,-0.2346691,-0.01108418
0.8774474,-0.2333393,-0.02805108
0.8475806,-0.220123,-0.01914308
0.806125,-0.191212,-0.00706239
0.7534263,-0.168194,0.004136534
0.7442692,-0.1569225,0.002763558
0.768819,-0.1336503,-0.008466731
0.7882468,-0.1209007,0.003226028
0.8402563,-0.1344483,0.005485852
0.8727929,-0.1615982,-0.0003523539
0.8615855,-0.2288329,0.01086713
0.8915571,-0.3326829,0.03509811
0.9165859,-0.3593753,0.0797962
0.9190575,-0.3113946,0.09587111
0.9581256,-0.2747079,0.07025349
0.9924574,-0.1841082,0.05140894
1.006475,-0.1096897,0.03402149
1.014038,-0.1546647,0.03770379
1.01837,-0.2123981,0.08106151
1.033807,-0.2709534,0.1171073
1.021892,-0.2956745,0.1284298
0.9677277,-0.2730489,0.1470961
0.9166869,-0.3108752,0.1858833
0.9069288,-0.3073892,0.1943685
0.923724,-0.2727401,0.178356
0.917387,-0.310366,0.2112086
0.9141206,-0.3120401,0.251982
0.9264569,-0.2987606,0.2572217
0.9109154,-0.2686517,0.2514996
0.8956117,-0.193472,0.2310072
0.8890655,-0.1981873,0.2201671
0.8908156,-0.2190196,0.2155382
0.9212917,-0.198711,0.2004983
0.9397776,-0.2078994,0.1989977
0.9509958,-0.2157855,0.1955178
0.9783265,-0.2231124,0.1844957
0.9958545,-0.2348921,0.1774487
1.008806,-0.2404718,0.1788337
1.076909,-0.2975739,0.1799004
1.205421,-0.3862136,0.1599559
1.291686,-0.419167,0.1296988
1.341651,-0.4133232,0.09870628
1.373076,-0.4206479,0.09611609
1.325338,-0.4216188,0.1069807
1.289753,-0.4287372,0.08338854
1.255954,-0.4446209,0.07609711
1.12998,-0.4312057,0.08569323
1.017017,-0.4296811,0.06889064
0.9678338,-0.4559984,0.03423608
0.9172056,-0.4927016,-0.023841
0.8441754,-0.5408829,-0.06743893
0.8255125,-0.5430749,-0.09473028
0.8762552,-0.4747578,-0.1490436
0.8903368,-0.3756443,-0.1916465
0.8856346,-0.287209,-0.2113146
0.8995231,-0.22861,-0.2245751
0.9293446,-0.2135173,-0.2187739
0.9643806,-0.2503364,-0.2116159
0.9506101,-0.2732896,-0.2047756
0.9394586,-0.2721295,-0.1908119
0.9361267,-0.2756059,-0.1900252
0.9008123,-0.2500885,-0.1918189
0.8625666,-0.2156337,-0.1816697
0.822648,-0.164422,-0.183406
0.8223099,-0.1131857,-0.2047562
0.850771,-0.113022,-0.2234746
0.8686172,-0.1062303,-0.2234793
0.8872456,-0.09708588,-0.2234298
0.8919806,-0.07265866,-0.2335186
0.9129056,0.0004452349,-0.2085089
0.9341429,0.02963752,-0.1645265
0.9371651,0.02292006,-0.1445443
0.9795816,0.03599438,-0.1108468
1.017612,0.04782934,-0.08745705
1.00733,0.0632935,-0.097465
0.9949174,0.09094506,-0.08007638
1.002475,0.1013782,-0.05869143
1.032175,0.07130931,-0.06647852
1.076228,0.04885206,-0.06060999
1.094466,0.04614192,-0.04442373
1.090696,0.02972961,-0.05029453
1.125782,0.008218813,-0.06784293
1.174155,-0.04441065,-0.1006061
1.195596,-0.1164497,-0.1529595
1.242396,-0.1411062,-0.1627746
1.316471,-0.12237,-0.1231005
1.356666,-0.10056,-0.1006688
1.346997,-0.07192748,-0.1009853
1.335114,-0.05626751,-0.1077929
1.327808,-0.1360299,-0.1124339
1.260235,-0.2392438,-0.1085252
1.147327,-0.2413688,-0.1048004
1.075158,-0.2244389,-0.09778951
1.072084,-0.2292864,-0.09848459
1.052682,-0.2037373,-0.1038412
0.9513249,-0.191469,-0.09972656
0.8559943,-0.2031056,-0.0946922
0.8351376,-0.2006665,-0.06736063
0.8733418,-0.2097838,-0.0341731
0.915285,-0.2318938,-0.04495733
0.9073966,-0.2339657,-0.06497193
0.8827042,-0.217037,-0.06170888
0.8542824,-0.1801351,-0.05637294
0.8439694,-0.1395184,-0.04855298
0.8743907,-0.1243436,-0.04136201
0.8844291,-0.1351031,-0.03471065
0.8797711,-0.1796942,-0.003814118
0.8694563,-0.2535628,0.04574019
0.8534852,-0.3079084,0.09699729
0.8798963,-0.310244,0.1222863
0.9150931,-0.2930066,0.1095496
0.9314552,-0.2747499,0.1094262
0.9304091,-0.2389573,0.1208293
0.8920102,-0.2085002,0.1258838
0.8442079,-0.1948532,0.1549526
0.825628,-0.1921924,0.1852718
0.8294834,-0.2053868,0.197011
0.8213133,-0.2266623,0.2062362
0.8233263,-0.257857,0.2182591
0.8598737,-0.2713634,0.2332094
0.8945477,-0.2444316,0.2255209
0.9144309,-0.2157593,0.2002264
0.9127184,-0.2096371,0.1836358
0.9099499,-0.2285971,0.1635012
0.9504839,-0.2708316,0.1490657
1.072687,-0.3109437,0.144698
1.265421,-0.3176446,0.1308934
1.369672,-0.2989367,0.1195126
1.357552,-0.3040537,0.1038053
1.357958,-0.3538765,0.07299389
1.342998,-0.4297124,0.0589215
1.313269,-0.4890597,0.06740665
1.314788,-0.5053642,0.06782388
1.298079,-0.5184349,0.05344108
1.251422,-0.535417,0.04208895
1.165201,-0.499394,0.0222084
1.036941,-0.4049889,-0.02828311
0.9152991,-0.3359479,-0.08312127
0.8696425,-0.3594565,-0.103624
0.902749,-0.4080107,-0.1050957
0.9197768,-0.406006,-0.1260083
0.9519952,-0.3493159,-0.1418187
0.9943505,-0.238563,-0.1434647
0.9390288,-0.1578763,-0.1541706
0.8725962,-0.1561542,-0.1243531
0.8475069,-0.1708239,-0.07762992
0.8462773,-0.1871814,-0.08598829
0.884516,-0.1793722,-0.116698
0.8878473,-0.1425793,-0.156466
0.8493035,-0.1178372,-0.1795063
0.7769132,-0.1024868,-0.1446992
0.7116941,-0.104664,-0.1239181
0.7499369,-0.08616463,-0.1588876
0.8102935,-0.0542253,-0.180147
0.8541936,-0.06865879,-0.1560908
0.9174094,-0.07005093,-0.1415346
0.9699233,-0.05107297,-0.1542895
1.02935,-0.01987617,-0.1559454
1.050058,0.05492402,-0.1524053
1.02349,0.1062603,-0.1505758
1.024236,0.1133755,-0.1357647
1.017683,0.09056111,-0.11567
1.009501,0.03204204,-0.08858271
1.022914,-0.01911642,-0.06936332
1.029912,-0.04964866,-0.08107015
1.086619,-0.09311491,-0.1107681
1.186176,-0.154989,-0.1506969
1.232638,-0.1616161,-0.1749503
1.27459,-0.1143568,-0.187282
1.42992,-0.1141672,-0.2537913
1.561609,-0.1365552,-0.3112064
1.495763,-0.1933506,-0.2817171
1.423639,-0.3219076,-0.263393
1.411327,-0.3727331,-0.2724202
1.270403,-0.3333719,-0.2422488
1.103955,-0.3351301,-0.2167347
1.052789,-0.3500999,-0.2157452
1.047623,-0.3405369,-0.2216501
1.01215,-0.3359057,-0.2080291
0.9480404,-0.3088501,-0.104216
0.9171079,-0.2475094,0.01660831
0.9018918,-0.2152453,0.01006208
0.8958047,-0.2162225,-0.03814895
0.872903,-0.2306017,-0.02121903
0.7830766,-0.2679096,-0.01934511
0.7208151,-0.2719031,-0.01353695
0.7037767,-0.2476852,0.03034996
0.7179422,-0.2393079,0.01839961
0.7477295,-0.224031,0.01575777
0.7318755,-0.221935,0.05922189
0.7429801,-0.2342527,0.07680839
0.7711661,-0.2447222,0.1121231
0.7828055,-0.262802,0.1353772
0.8081454,-0.2753728,0.1370938
0.8233491,-0.2953896,0.1659835
0.8613055,-0.3093127,0.181478
0.8764049,-0.2895887,0.200121
0.8627034,-0.252187,0.2075114
0.8927061,-0.2069101,0.19228
0.9057468,-0.181916,0.1993473
0.9149643,-0.1827968,0.1995078
0.9444932,-0.1852817,0.2215018
0.9626059,-0.1967179,0.2748466
0.9861976,-0.2111753,0.2794121
0.996226,-0.247779,0.2304803
1.067002,-0.342899,0.1828899
1.247392,-0.436835,0.1764393
1.36742,-0.4569062,0.1766668
1.34008,-0.4306077,0.1707786
1.272281,-0.4295942,0.1871729
1.243419,-0.474685,0.1724733
1.233741,-0.5193884,0.1382715
1.217384,-0.5312943,0.1220876
1.178358,-0.5240939,0.08377185
1.071914,-0.4971295,0.04101471
0.9191045,-0.4408512,-0.01526111
0.848456,-0.3994277,-0.0791862
0.8702187,-0.402999,-0.1011491
0.8786372,-0.399979,-0.1319599
0.9124541,-0.3770946,-0.1576475
0.9454158,-0.3528192,-0.1552586
0.9030208,-0.2946486,-0.1633427
0.8950419,-0.2311514,-0.1500762
0.8975988,-0.2325603,-0.1442688
0.872921,-0.2443609,-0.1452336
0.8700613,-0.1944343,-0.1158727
0.8480604,-0.162735,-0.1147579
0.8608957,-0.1664592,-0.138242
0.8781789,-0.1252129,-0.1611449
0.8397467,-0.103575,-0.165471
0.8001488,-0.1200405,-0.1575285
0.7575421,-0.1085883,-0.1863314
0.7964032,-0.1120383,-0.1994114
0.8958242,-0.143811,-0.1805366
0.9302479,-0.1746157,-0.1644867
0.9353248,-0.1793539,-0.1434792
0.9422093,-0.1354498,-0.1366654
0.9782039,-0.07079655,-0.1343725
1.018463,-0.007631908,-0.1350486
1.021972,0.03116801,-0.1466406
1.036467,0.04349228,-0.1488383
1.045495,0.04890587,-0.1469033
1.054619,0.04146045,-0.1412512
1.062328,0.03215814,-0.1321059
1.045961,0.005441972,-0.1252278
1.059403,-0.04258022,-0.1355936
1.100026,-0.08406675,-0.1743125
1.196185,-0.1384821,-0.2393877
1.345197,-0.1782935,-0.3129665
1.446061,-0.1918703,-0.3281536
1.507853,-0.2558145,-0.3183176
1.521055,-0.3581209,-0.3322807
1.424664,-0.4118147,-0.3025877
1.248388,-0.396149,-0.2599228
1.089699,-0.3658987,-0.209974
1.013566,-0.3421203,-0.139799
0.9794363,-0.3082483,-0.1469154
0.970778,-0.2941782,-0.1498281
0.9678402,-0.281338,-0.08946545
0.9256449,-0.2473667,-0.06241595
0.8958137,-0.2200095,-0.03590895
0.8987553,-0.1848527,-0.01400009
0.8790144,-0.1856763,-0.03193766
0.8027576,-0.2414468,-0.03478555
0.7346812,-0.2687888,-0.01948863
0.7488804,-0.2573141,-0.008236132
0.7702378,-0.2207321,-0.01167376
0.7751465,-0.1625976,-0.009901371
0.8171992,-0.1166043,0.02200158
0.8502805,-0.1123832,0.06084998
0.8549678,-0.1500536,0.09209866
0.8602249,-0.1831076,0.112341
0.8673392,-0.210007,0.1314715
0.8769694,-0.2392293,0.1571331
0.8756611,-0.2598985,0.1842345
0.8721399,-0.2858387,0.2112483
0.8883215,-0.2867774,0.2221693
0.9000997,-0.2763543,0.2190239
0.8956081,-0.2745231,0.2071499
0.8809491,-0.258101,0.1959585
0.8645544,-0.2599625,0.205442
0.8720131,-0.2536558,0.2167473
0.8897773,-0.2202942,0.2170556
0.9122868,-0.2102455,0.2139416
0.9478883,-0.2139448,0.2111928
0.9554719,-0.2236909,0.2112594
0.953827,-0.2443435,0.2030275
1.015359,-0.2811438,0.1849619
1.146607,-0.3430518,0.1730282
1.276933,-0.3924742,0.1768786
1.300186,-0.4140898,0.1934229
1.227422,-0.4469963,0.2323494
1.191753,-0.4951312,0.2783072
1.232185,-0.5127353,0.2705027
1.29737,-0.5051799,0.2194397
1.329516,-0.502057,0.1642617
1.239121,-0.4947163,0.09987435
1.065269,-0.4948094,0.05829811
0.9692088,-0.4998881,0.03273829
0.8878346,-0.5037947,-0.03085021
0.7557535,-0.5251962,-0.1041305
0.778884,-0.537684,-0.1336138
0.8757232,-0.5221774,-0.1377222
0.8397018,-0.4868897,-0.1602473
0.8541462,-0.4354938,-0.1730062
0.9068752,-0.3699528,-0.1783996
0.8829397,-0.2867553,-0.2119664
0.9020922,-0.2490312,-0.2078128
0.8897679,-0.2514843,-0.1846229
0.8605747,-0.1885857,-0.1881161
0.8813974,-0.1411437,-0.1756816
0.8502996,-0.140564,-0.179886
0.8373157,-0.07655451,-0.1850962
0.8218803,-0.04350386,-0.1691786
0.794544,-0.05279482,-0.1723576
0.846845,-0.02718321,-0.1689012
0.8828639,-0.03646092,-0.1603676
0.9054225,-0.03629828,-0.149059
0.9300133,-0.02054232,-0.1290987
0.9262142,-0.03501639,-0.124882
0.9554831,-0.02708481,-0.1323498
1.018462,-0.02788198,-0.1459398
1.082107,-0.03102995,-0.1430096
1.083342,-0.01418943,-0.1267183
1.038647,8.663641e-05,-0.1187439
1.01009,0.02832634,-0.1178069
0.9944483,0.02580656,-0.1302755
1.028655,-0.02711955,-0.1406607
1.077902,-0.09249379,-0.1669389
1.120825,-0.1374356,-0.2210975
1.203486,-0.1515626,-0.259746
1.284701,-0.1544763,-0.2632661
1.350069,-0.1450318,-0.2633465
1.418725,-0.176878,-0.3139996
1.464488,-0.2789051,-0.3520554
1.463024,-0.3977923,-0.3280232
1.417175,-0.4587403,-0.321881
1.320319,-0.4025154,-0.3177332
1.168765,-0.3378158,-0.2772601
1.052391,-0.3138654,-0.2354516
1.038104,-0.2778359,-0.2065366
1.031704,-0.2665072,-0.1727714
0.9552104,-0.2091753,-0.1257379
0.86776,-0.120933,-0.08343369
0.8295281,-0.1071806,-0.02797421
0.8524705,-0.1339318,-0.006469421
0.8736472,-0.2071907,-0.03712311
0.81325,-0.2721459,-0.02355182
0.7492209,-0.2727955,-0.01287584
0.7183195,-0.2410231,-0.02279437
0.6848368,-0.1855684,-0.002817736
0.6930654,-0.1717814,-0.003445252
0.7124289,-0.1871073,0.0123855
0.7252703,-0.2145216,0.06280839
0.7401595,-0.2695254,0.1014584
0.7471444,-0.2788329,0.120446
0.7844409,-0.2765174,0.1076639
0.8133949,-0.2933316,0.1143975
0.8488938,-0.2981222,0.1458704
0.9174821,-0.3054811,0.1705602
0.9507505,-0.2858763,0.2030166
0.9712425,-0.2497419,0.215036
0.9823671,-0.2404012,0.2220981
0.9710848,-0.243373,0.2430122
0.9716986,-0.237776,0.2546206
0.9823316,-0.2247822,0.2512779
1.053998,-0.2377769,0.2140656
1.219885,-0.3211884,0.1595838
1.350726,-0.4282072,0.1249459
1.347862,-0.4626758,0.1469822
1.352334,-0.4840539,0.1934738
1.377356,-0.5115185,0.1861119
1.265504,-0.4708677,0.1538244
1.177253,-0.4573058,0.1000173
1.195048,-0.4547353,0.05222067
1.127725,-0.4107356,0.05105455
0.982002,-0.3999105,0.0008741979
0.8841604,-0.3591217,-0.05523403
0.8932724,-0.339162,-0.07607945
0.892895,-0.3445009,-0.1381112
0.8528571,-0.2776576,-0.1456092
0.8895964,-0.2596929,-0.1041824
0.8787769,-0.2522805,-0.118402
0.8405473,-0.2518875,-0.1115509
0.8518268,-0.3007368,-0.09329873
0.8009628,-0.2443251,-0.1108525
0.7783916,-0.1852892,-0.1093679
0.7945652,-0.1704098,-0.1332534
0.7919163,-0.1254095,-0.1832534
0.8021764,-0.1235003,-0.1908235
0.7924793,-0.1166086,-0.1904643
0.8147332,-0.1102477,-0.1897916
0.8622674,-0.1232733,-0.1796937
0.9068177,-0.1118182,-0.1763538
0.9413954,-0.08680696,-0.1693457
0.9327793,-0.01882632,-0.1699945
0.971523,0.02393758,-0.1790961
1.030588,0.01440134,-0.1946107
1.043594,0.02797084,-0.2157314
1.044166,0.03337046,-0.2117565
1.028921,0.01295694,-0.1871674
1.014354,-0.007846036,-0.1728868
0.9973454,-0.02144303,-0.1776563
1.036182,-0.05539345,-0.1983106
1.135632,-0.1068744,-0.2461754
1.21804,-0.1280652,-0.3146486
1.343446,-0.1766159,-0.3445215
1.43625,-0.2608499,-0.3477397
1.408032,-0.300073,-0.387155
1.36492,-0.3179239,-0.4023902
1.286511,-0.3118998,-0.3612153
1.141834,-0.2599523,-0.325574
1.039523,-0.2326482,-0.2862967
1.048626,-0.2338668,-0.2661486
1.101775,-0.234127,-0.284858
1.11803,-0.2460931,-0.276133
1.133916,-0.2529357,-0.2398938
1.098608,-0.2644737,-0.1607523
0.9888563,-0.2724349,-0.04164987
0.9398549,-0.25271,-1.90265e-05
0.9153664,-0.2375043,-0.02785306
0.8784259,-0.2342292,-0.02710601
0.8709297,-0.243556,-0.02406047
0.8307651,-0.2461245,-0.04379131
0.7727133,-0.21438,-0.02911454
0.7254222,-0.1846044,0.001482796
0.7180737,-0.1837348,0.0114164
0.7436538,-0.2040832,0.04480266
0.7191231,-0.2192215,0.07738468
0.7238441,-0.2283698,0.08092609
0.761221,-0.2454062,0.09146592
0.7760615,-0.2669557,0.1058284
0.8190311,-0.2982384,0.1381335
0.8329125,-0.3028464,0.1843348
0.8489871,-0.2880741,0.2115491
0.899956,-0.2896661,0.2279403
0.9143015,-0.269523,0.2337603
0.935359,-0.2331508,0.2465111
0.9538778,-0.203985,0.2777283
0.954189,-0.1825901,0.2919668
0.9518512,-0.1627524,0.2630301
0.967043,-0.1632867,0.217504
1.143903,-0.3090943,0.1840186
1.430106,-0.5405099,0.1254607
1.586767,-0.577806,0.0942976
1.571224,-0.4559729,0.1375465
1.406413,-0.4122923,0.1408692
1.129622,-0.4253819,0.1208041
0.9863867,-0.4353549,0.1247494
1.031848,-0.4677677,0.08860248
0.9935504,-0.4760331,0.02488575
0.9108081,-0.4647623,-0.07998243
0.9148424,-0.4580747,-0.1750774
0.9023272,-0.4347641,-0.1761549
0.903876,-0.3890305,-0.1705114
0.9091828,-0.3149605,-0.1767694
0.8749519,-0.2567314,-0.179804
0.8582892,-0.2226493,-0.1968537
0.8280997,-0.1819102,-0.1815458
0.7982259,-0.1578222,-0.1661746
0.7832613,-0.1413279,-0.1644843
0.7849837,-0.1323077,-0.1531846
0.8247395,-0.1429557,-0.1522538
0.8387859,-0.1531773,-0.1407044
0.8304958,-0.1605151,-0.1303694
0.8287943,-0.1439469,-0.1381761
0.8461642,-0.09753098,-0.1573902
0.8951775,-0.0635833,-0.1817195
0.9307143,-0.06495292,-0.1683302
0.9555915,-0.08133464,-0.1438799
0.9639697,-0.07636032,-0.1420441
0.9599571,-0.03679899,-0.1317123
0.9797115,0.01883259,-0.1294342
1.00507,0.04220062,-0.1445873
1.033348,0.0268757,-0.1511706
1.026558,0.02080101,-0.1477991
0.9885768,0.005865329,-0.1404059
0.984948,-0.02704591,-0.1374005
0.992792,-0.03760328,-0.1377009
1.007662,-0.04304141,-0.1367042
1.019297,-0.04466871,-0.1390053
1.014665,-0.0415119,-0.1417791
1.053422,-0.06459874,-0.1530677
1.132284,-0.08885746,-0.1788118
1.201653,-0.1053224,-0.2069978
1.24054,-0.145544,-0.2351658
1.298497,-0.2020383,-0.2782114
1.498364,-0.2186543,-0.374924
1.586496,-0.2669128,-0.3628654
1.547023,-0.3733426,-0.3459444
1.510326,-0.4222084,-0.3853673
1.457154,-0.3694857,-0.3455989
1.327009,-0.3485265,-0.2618106
1.219793,-0.3637402,-0.2087431
1.094428,-0.3057505,-0.1617845
0.9540087,-0.221603,-0.1168159
0.9306712,-0.1498446,-0.0112856
0.9823791,-0.1222849,0.05407605
0.9771707,-0.1723316,-0.006878496
0.8996519,-0.235212,-0.01604676
0.7927198,-0.2944467,0.002679934
0.713963,-0.3057685,0.003070721
0.6872082,-0.2477319,0.05597104
0.6651795,-0.1989707,0.06101921
0.660934,-0.1754953,0.04951698
0.677883,-0.1850417,0.07209471
0.6695118,-0.2216905,0.06711849
0.6604291,-0.2559501,0.09392353
0.6554802,-0.2779453,0.1430818
0.6650413,-0.2654495,0.1767016
0.7035878,-0.2491214,0.2033365
0.730191,-0.2489633,0.2088608
0.7628707,-0.2609123,0.2208389
0.7981762,-0.2794883,0.2209409
0.8239589,-0.2315253,0.2245736
0.8939232,-0.1449424,0.27423
1.002951,-0.0877646,0.3261837
1.095515,-0.03042784,0.3579011
1.134373,-0.03159168,0.3460654
1.207681,-0.1141945,0.3040043
1.350561,-0.1763184,0.2803967
1.436775,-0.2144996,0.2762424
1.571064,-0.2672959,0.2684432
1.691135,-0.3118084,0.2142259
1.490647,-0.3662585,0.1888879
1.21797,-0.4473896,0.2356373
1.068575,-0.4664138,0.2360464
0.9210363,-0.440423,0.171389
0.9002168,-0.4653064,0.07786466
0.9106181,-0.4795257,-0.006053563
0.8760802,-0.4806107,-0.05131442
0.9297141,-0.446535,-0.07347094
0.9489119,-0.2931402,-0.07453566
0.9325515,-0.1728124,-0.09832611
0.9317277,-0.1591325,-0.09089891
0.8978894,-0.1515462,-0.03964227
0.8626536,-0.1397111,-0.04447282
0.8160231,-0.1307162,-0.04347536
0.8104717,-0.1068257,-0.05185582
0.8298184,-0.06158728,-0.09956727
0.8188162,-0.03202186,-0.1109436
0.822777,-0.03113542,-0.1209448
0.8100139,-0.0608736,-0.1214116
0.8013495,-0.09770188,-0.123287
0.8168144,-0.0719684,-0.1450274
0.829294,-0.04281736,-0.1383319
0.8697945,-0.02201722,-0.135601
0.9290572,0.03633155,-0.1224557
0.9797966,0.07722407,-0.1059191
0.990282,0.09388462,-0.1095192
1.019464,0.0843189,-0.0820693
1.124016,0.07279313,-0.05491453
1.172986,0.07895068,-0.05473192
1.148281,0.05276017,-0.07108675
1.18047,-0.00562839,-0.1000883
1.272008,-0.09741253,-0.1457196
1.364214,-0.1538902,-0.2107058
1.450689,-0.1391776,-0.2340043
1.494651,-0.1894605,-0.2514061
1.479938,-0.2805895,-0.3191777
1.466889,-0.2963092,-0.3489833
1.399533,-0.2937334,-0.3104785
1.25239,-0.3085178,-0.2558387
1.156102,-0.3027649,-0.2085157
1.081053,-0.2819815,-0.1701594
0.9753229,-0.2533715,-0.1155715
0.9571759,-0.2309056,-0.04746803
1.006067,-0.2173112,-0.02545063
0.9975707,-0.1852297,-0.03447585
0.9635389,-0.178298,-0.02948995
0.8978545,-0.2251575,-0.04110466
0.7589803,-0.2684325,-0.03539611
0.6780943,-0.2722591,0.001456361
0.6630827,-0.2313849,0.02568703
0.6385785,-0.1835063,0.05746505
0.6559326,-0.1632645,0.06531575
0.6639786,-0.1611812,0.06457391
0.6469956,-0.1811173,0.1057617
0.6595581,-0.2113404,0.1501058
0.671533,-0.2355189,0.2031161
0.6974735,-0.2393492,0.2426651
0.7316348,-0.2190779,0.2572309
0.7682889,-0.2041249,0.2964594
0.8220415,-0.1914686,0.3338368
0.860864,-0.1632889,0.3542066
0.9246573,-0.1014513,0.3692598
1.00677,-0.02600207,0.3678607
1.062221,-0.02994052,0.3445508
1.208112,-0.1549938,0.3133574
1.49089,-0.3288521,0.3006832
1.660644,-0.3964578,0.2943349
1.536003,-0.3522991,0.2859835
1.312925,-0.3855141,0.2642793
1.141911,-0.4555883,0.2292557
1.052476,-0.4401935,0.2235685
1.09848,-0.4552605,0.1823829
1.063913,-0.4861689,0.06746627
0.9488959,-0.4279532,0.0002047804
0.9415932,-0.3585916,-0.01995004
0.913458,-0.2959563,-0.06417062
0.9518751,-0.1988676,-0.09081621
1.030384,-0.1213511,-0.1074709
0.9765892,-0.1297807,-0.1142766
0.962338,-0.1877954,-0.07905548
0.9146573,-0.1927678,-0.06076385
0.8102574,-0.1805396,-0.04937699
0.7793874,-0.1780517,-0.03339092
0.7278066,-0.1176506,-0.07226309
0.6849521,-0.05701898,-0.1143727
0.6758136,-0.05042534,-0.1234673
0.7180075,-0.06955502,-0.1308918
0.8062108,-0.07366867,-0.1412756
0.8785129,-0.06186437,-0.1533818
0.94927,-0.05109202,-0.149349
0.945671,0.005479503,-0.1455379
0.9614518,0.04062613,-0.1494965
1.051782,0.02334687,-0.1373902
1.09449,0.0501158,-0.1261696
1.116356,0.0855969,-0.1231182
1.103677,0.09330568,-0.1284328
1.122398,0.06016747,-0.1476769
1.212357,-0.03133166,-0.1848013
1.303757,-0.1357545,-0.2526243
1.41211,-0.1984526,-0.3301778
1.433577,-0.2006218,-0.3623632
1.403794,-0.2666605,-0.3415867
1.408036,-0.3919445,-0.3462003
1.368131,-0.4101637,-0.377106
1.338331,-0.3915285,-0.3562296
1.283119,-0.4143017,-0.2855227
1.173424,-0.4249906,-0.1956939
1.129292,-0.4037412,-0.1473924
1.057742,-0.2883742,-0.09563802
0.9046787,-0.1214515,0.04754988
0.87733,-0.07931214,0.08841233
0.9518226,-0.1406536,0.001618388
0.9099681,-0.1825312,-0.02170874
0.8129019,-0.2674228,-0.0474035
0.723772,-0.363275,-0.02635624
0.6576381,-0.3318168,0.0835563
0.6939993,-0.2839695,0.1021675
0.7219857,-0.2521671,0.08380031
0.7522271,-0.1703247,0.08041027
0.7781814,-0.1434163,0.06137629
0.6963946,-0.1469169,0.09249903
0.6586687,-0.1681559,0.1392033
0.6538223,-0.2468012,0.1934884
0.6503413,-0.2704202,0.244503
0.6922862,-0.2574362,0.2529309
0.699327,-0.2472855,0.2603254
0.7356677,-0.2123078,0.2493663
0.7549646,-0.193608,0.2326823
0.7826086,-0.1731961,0.2401852
0.9348117,-0.1477513,0.2532724
1.045199,-0.1311105,0.2793735
1.107168,-0.1222065,0.2880808
1.230816,-0.153735,0.2751611
1.470835,-0.2122219,0.2620101
1.746601,-0.2930014,0.248102
1.743274,-0.3632167,0.2663615
1.440757,-0.3712153,0.3230548
1.104604,-0.383318,0.353137
0.9544005,-0.4152844,0.2788155
0.9590031,-0.4554462,0.1741086
0.9486934,-0.5776206,0.1353568
0.9782487,-0.6591976,0.03747327
0.9679707,-0.5802967,-0.07209625
0.8984063,-0.4927249,-0.03058143
0.9252578,-0.4135362,-0.05154517
0.9096759,-0.341434,-0.1672198
0.8859645,-0.3715085,-0.1540011
0.9086132,-0.3638433,-0.1232761
0.8772856,-0.300255,-0.1234915
0.8808431,-0.2831284,-0.08731284
0.8687151,-0.232087,-0.08535466
0.8721896,-0.1756164,-0.0997584
0.9220163,-0.1474364,-0.1272444
0.882652,-0.1115817,-0.1418418
0.8324201,-0.0953083,-0.1060219
0.7620059,-0.06273264,-0.09681956
0.7226923,-0.03120524,-0.1146917
0.8457281,-0.03416272,-0.1469021
0.9939048,-0.03966689,-0.190859
1.062667,-0.06211722,-0.207688
0.9871919,-0.06071512,-0.169568
0.8533162,-0.00125743,-0.1073206
0.8367771,0.07795338,-0.121403
0.876099,0.154875,-0.1384783
0.9346335,0.2007149,-0.1016872
0.991587,0.2027271,-0.1034415
1.006921,0.1906894,-0.09673648
0.9913805,0.1976024,-0.07925884
0.9486713,0.1747558,-0.08640345
0.9932199,0.1085299,-0.0876896
1.129095,0.04491011,-0.1229637
1.23731,-0.06108909,-0.1616443
1.284886,-0.1011385,-0.1702994
1.340341,-0.02470857,-0.2027178
1.476669,-0.03667712,-0.2530024
1.517654,-0.1222589,-0.2695729
1.479648,-0.2405171,-0.263415
1.487715,-0.3816328,-0.2674393
1.366848,-0.4150967,-0.2358922
1.24887,-0.4239045,-0.1993156
1.208846,-0.433391,-0.2020383
1.103425,-0.3973691,-0.1706465
1.060282,-0.4001479,-0.1259753
1.039798,-0.3671025,-0.1112049
0.9873986,-0.2976816,-0.1031433
0.94395,-0.2481357,-0.06425561
0.8837635,-0.1713403,-0.001219725
0.891612,-0.1873864,-0.01360081
0.8855583,-0.289558,-0.03096287
0.7584767,-0.3358367,0.03439375
0.661128,-0.3501567,0.06261517
0.705978,-0.300002,0.04715135
0.769627,-0.205986,0.05260107
0.7698383,-0.1506203,0.07420089
0.7894078,-0.07817314,0.1094524
0.7609464,-0.03762966,0.1397576
0.6924149,-0.07647252,0.1676659
0.708945,-0.1351249,0.193032
0.7318812,-0.2247293,0.2343033
0.7416217,-0.2858087,0.29299
0.7609217,-0.2833608,0.3145928
0.7860933,-0.2973752,0.3360951
0.8681347,-0.29583,0.3610929
0.9372565,-0.2218038,0.3581855
0.9608908,-0.1307075,0.3802066
1.011793,-0.1213518,0.3815409
1.1903,-0.256603,0.3292312
1.506541,-0.4224309,0.2713295
1.636842,-0.4376652,0.2254573
1.449704,-0.3912087,0.228468
1.237127,-0.4124856,0.2306881
1.08849,-0.3969683,0.2019651
0.9877383,-0.3330963,0.1687524
0.9621254,-0.3157645,0.07584159
0.9432822,-0.3616817,-0.01200272
0.9857133,-0.4509621,-0.04215248
1.046855,-0.4789759,-0.05609774
1.016106,-0.3856555,-0.03964337
0.988006,-0.2434593,-0.06512309
0.9515256,-0.144464,-0.1064473
0.9199325,-0.1453544,-0.08830308
0.9133699,-0.1813192,-0.08142157
0.8275331,-0.1770613,-0.05928117
0.7719923,-0.1447809,-0.03494794
0.7699043,-0.09494757,-0.05476207
0.7417353,-0.07568156,-0.06474082
0.7468252,-0.09921048,-0.09469184
0.7534518,-0.1039498,-0.1420315
0.7728984,-0.1032237,-0.1620015
0.8329871,-0.1280892,-0.1602996
0.8889463,-0.1542005,-0.1469108
0.9391551,-0.1511077,-0.1515068
0.9789892,-0.09849301,-0.171038
1.006349,-0.03528309,-0.1910838
1.006232,-0.02106308,-0.1914769
1.034027,-0.01979676,-0.1749476
1.087046,0.00455867,-0.1669024
1.068975,0.01822804,-0.1369148
1.062277,0.03238899,-0.1225137
1.091095,0.03376999,-0.1480273
1.121905,-0.02460077,-0.1746742
1.215011,-0.1001527,-0.2459397
1.322263,-0.161267,-0.3210638
1.415393,-0.2146718,-0.3324281
1.470803,-0.2830437,-0.3448685
1.463129,-0.3890474,-0.3721027
1.477215,-0.4621613,-0.3756773
1.472115,-0.4663608,-0.3621577
1.387485,-0.4448293,-0.3307235
1.275607,-0.4088042,-0.2644228
1.159489,-0.3522001,-0.2055
1.066147,-0.2759528,-0.1947302
0.9920493,-0.2059305,-0.146949
0.9543583,-0.1611256,-0.05066251
0.9614406,-0.1619345,-0.0343888
0.9083089,-0.2335847,-0.09226453
0.8194052,-0.3218892,-0.1133923
0.7648209,-0.3533031,-0.06341699
0.6909566,-0.3350129,0.01495609
0.6280707,-0.2891661,0.05909815
0.6223252,-0.2002699,0.05353193
0.643429,-0.1362038,0.0337717
0.6608259,-0.1473552,0.03447042
0.6463324,-0.1593853,0.06344458
0.6338792,-0.2004056,0.1115964
0.6556802,-0.2755633,0.1604826
0.685213,-0.2888345,0.2039666
0.7435058,-0.270727,0.2512222
0.8313352,-0.2644353,0.2836769
0.8774324,-0.2482555,0.2930789
0.8987161,-0.1871977,0.2911042
0.9731627,-0.0963434,0.2840134
1.05993,-0.0580963,0.2889825
1.082971,-0.06672894,0.2910533
1.103206,-0.1036103,0.2835046
1.240531,-0.2505719,0.2709919
1.517799,-0.499175,0.2419353
1.699338,-0.6050254,0.2316946
1.494812,-0.4740376,0.2223552
1.161842,-0.4015773,0.1868775
1.047989,-0.4573269,0.1822759
0.9907776,-0.4482088,0.1695881
0.9515409,-0.4394186,0.07110749
0.9635738,-0.4786312,-0.03712833
0.9376887,-0.4738942,-0.04464591
0.9656596,-0.432676,-0.03056132
0.973502,-0.3540904,-0.07542538
0.9368037,-0.2576685,-0.07096005
0.942232,-0.202097,-0.04828252
0.8992004,-0.1802898,-0.07469503
0.8739321,-0.1587881,-0.08166347
0.8523345,-0.09630051,-0.1130962
0.8161837,-0.04841724,-0.1384134
0.8557063,-0.07138643,-0.1287501
0.8505373,-0.09117288,-0.1501689
0.835555,-0.1507339,-0.1264176
0.8449524,-0.2582618,-0.09929076
0.8164509,-0.2482781,-0.1229966
0.8236274,-0.1447547,-0.1253709
0.8060189,-0.05406736,-0.1409118
0.7712229,0.01205765,-0.1543138
0.813395,0.03146958,-0.1563673
0.915662,0.05772669,-0.1796606
1.018684,0.07646761,-0.1798056
1.004989,0.03578555,-0.1648256
0.9664178,0.04220132,-0.1376146
1.004682,0.06167895,-0.09988046
0.9795144,0.05415859,-0.09861754
0.960046,0.08079265,-0.1178092
1.06247,0.01531487,-0.1641853
1.213352,-0.1164567,-0.2577819
1.395852,-0.1625159,-0.3016476
1.520781,-0.1456139,-0.291176
1.548407,-0.1377799,-0.3156174
1.576575,-0.218314,-0.3083679
1.546268,-0.3200561,-0.2660685
1.443616,-0.3810175,-0.2314829
1.347316,-0.4322794,-0.1443308
1.237426,-0.4291796,-0.07627891
1.062621,-0.4074272,-0.07018965
0.843078,-0.3615511,-0.06445503
0.7865254,-0.2901308,-0.05439838
0.8900326,-0.2860999,-0.03129807
0.9110918,-0.2974006,-0.02217059
0.910244,-0.3009884,-0.0480692
0.8715384,-0.3485946,-0.08833579
0.7180725,-0.4115826,-0.09638469
0.6517458,-0.4346796,-0.0473018
0.6418928,-0.3898753,-0.00476229
0.6650131,-0.3256837,0.007726963
0.8056267,-0.2951299,-0.0104391
0.8731507,-0.2793497,-0.01705997
0.8706767,-0.2372675,0.04721186
0.8906189,-0.1595327,0.101524
0.8883462,-0.07429695,0.09853607
0.8934932,-0.034585,0.09688605
0.852396,-0.05510924,0.1455996
0.7872787,-0.09247387,0.2188909
0.7673667,-0.1461596,0.2707894
0.7657705,-0.1923028,0.3062421
0.7832424,-0.1893518,0.3067384
0.7923857,-0.1860525,0.3146534
0.8256727,-0.1798519,0.3584177
0.8854968,-0.1382195,0.3717101
0.9581375,-0.09773987,0.3579454
1.109922,-0.09339919,0.3224747
1.32603,-0.1833552,0.2832032
1.58221,-0.3736135,0.2893081
1.673997,-0.4969294,0.3217029
1.398254,-0.4482459,0.3412337
1.047506,-0.4048686,0.3197024
0.948468,-0.4585567,0.2615566
1.022118,-0.4798325,0.1711114
1.028954,-0.5235403,0.07251098
0.9536641,-0.5970841,0.01022616
0.9415133,-0.5754819,-0.04184738
0.9489373,-0.5478433,-0.07276299
0.937881,-0.4928128,-0.06647333
0.93673,-0.3604607,-0.07866594
0.9133584,-0.2746781,-0.09482622
0.9158755,-0.2183673,-0.0994984
0.9207276,-0.1724381,-0.1228914
0.8771903,-0.135789,-0.1245103
0.8418517,-0.09511227,-0.1029092
0.8281752,-0.1087142,-0.1083514
0.8451524,-0.1413688,-0.1189521
0.8569076,-0.1619648,-0.1264204
0.8362268,-0.1545633,-0.1295128
0.819514,-0.09877514,-0.126548
0.8039184,-0.04812667,-0.1610131
0.8536327,-0.02276098,-0.1948494
0.9266438,-0.02656694,-0.1852329
0.909649,-0.03126268,-0.1670222
0.9121931,-0.01235597,-0.1481266
0.9611638,0.01550907,-0.1312185
0.9807588,0.06205754,-0.1189134
1.014675,0.08374467,-0.1007356
1.044522,0.09838654,-0.07703078
1.050349,0.1408747,-0.07133118
1.068519,0.1206419,-0.09083646
1.104921,0.02369487,-0.103161
1.199287,-0.1121481,-0.1364721
1.312687,-0.2137789,-0.2046941
1.405549,-0.2137765,-0.2446787
1.523913,-0.2453962,-0.2681298
1.574788,-0.331109,-0.3212357
1.52867,-0.3450613,-0.3548858
1.459945,-0.3283218,-0.3143386
1.297342,-0.3169181,-0.2524691
1.111818,-0.2895217,-0.2177322
1.055016,-0.260393,-0.2021986
0.992259,-0.2303358,-0.2050654
0.8830932,-0.2207298,-0.1898943
0.8838217,-0.2412567,-0.143213
0.8943519,-0.2647922,-0.08182012
0.8608445,-0.2697663,-0.02593843
0.8814743,-0.2726685,-0.02593147
0.8453382,-0.2842371,-0.03643048
0.7627703,-0.273988,-0.01462439
0.7028767,-0.2447821,0.0002598422
0.6527431,-0.2027408,0.01947496
0.7048619,-0.1790459,0.0463564
0.7713342,-0.2056392,0.07594854
0.8057032,-0.2271097,0.09245209
0.8538683,-0.2441682,0.08185101
0.8254437,-0.2599982,0.09293434
0.782259,-0.2448934,0.1272085
0.748098,-0.2457326,0.174818
0.7243525,-0.2497475,0.2073596
0.7786708,-0.2484887,0.1936289
0.8123748,-0.2862433,0.2165234
0.8286377,-0.3122775,0.2579851
0.8782182,-0.2782113,0.2610727
0.945207,-0.1977923,0.2879886
1.020534,-0.1098079,0.3019292
1.019175,-0.07459065,0.2813126
0.9894578,-0.1078925,0.297468
0.9848773,-0.144202,0.3330215
0.9785093,-0.1452529,0.3578845
1.064288,-0.1880325,0.3411762
1.277406,-0.2960234,0.2670713
1.533832,-0.3619985,0.2154704
1.6209,-0.3108337,0.2124392
1.429434,-0.2569818,0.2123126
1.164395,-0.3381616,0.2088852
0.9657495,-0.4234395,0.224791
0.9118305,-0.4513649,0.2337343
0.9669767,-0.5120782,0.1500286
0.9408251,-0.5340216,0.01599963
0.9275767,-0.5248825,-0.05011559
0.9684492,-0.5074514,-0.06142045
0.9463303,-0.4029966,-0.06445614
0.9418522,-0.2453151,-0.07623527
0.9348046,-0.1262299,-0.09427076
0.9139413,-0.1269259,-0.09552419
0.9250343,-0.1800504,-0.08891596
0.8756767,-0.1899764,-0.07622439
0.8102512,-0.1818444,-0.05587126
0.7886043,-0.1418058,-0.05988191
0.7943006,-0.1063727,-0.08856645
0.811436,-0.1015359,-0.1147372
0.8024731,-0.09957102,-0.1415491
0.8321564,-0.09943701,-0.1654639
0.8848755,-0.07712583,-0.1787996
0.922586,-0.06663408,-0.1850363
0.9613669,-0.06061444,-0.1657462
0.9262416,-0.02786566,-0.1354034
0.8945831,0.0101911,-0.1285072
0.9414285,0.06044318,-0.1303196
0.9865512,0.07030473,-0.1228176
1.042361,0.0409311,-0.1148442
1.104701,0.03368521,-0.1086439
1.119388,0.04295844,-0.1034155
1.108081,0.04771089,-0.1195282
1.137571,-0.01007876,-0.1477197
1.244902,-0.1194796,-0.1775589
1.388806,-0.1972872,-0.2549364
1.489434,-0.2265141,-0.3395103
1.510182,-0.2733263,-0.3458695
1.490809,-0.366854,-0.3599513
1.445255,-0.3885997,-0.4208285
1.350335,-0.3556998,-0.3779866
1.236981,-0.3648396,-0.280972
1.138947,-0.322362,-0.2450702
1.036399,-0.2280517,-0.1558532
0.9278208,-0.1502241,-0.05392579
0.8948366,-0.09963196,-0.03045148
0.9241126,-0.1211389,-0.02043506
0.903514,-0.177756,-0.05380367
0.8402013,-0.2446103,-0.08620175
0.7639254,-0.3013402,-0.0518957
0.7080801,-0.2843745,-0.01493998
0.6943876,-0.2531701,0.02225447
0.6716396,-0.2327801,0.04346985
0.6761847,-0.1982597,0.03491549
0.7027239,-0.1807867,0.03712677
0.6954704,-0.1932336,0.05062929
0.6920955,-0.2664631,0.08410239
0.6830634,-0.3426761,0.1305075
0.6849916,-0.3375197,0.1436885
0.7283308,-0.3190928,0.1619697
0.7742906,-0.3248757,0.2372914
0.8140109,-0.3098289,0.2727883
0.8400199,-0.2484509,0.2678061
0.8934635,-0.156027,0.3114336
0.9519135,-0.107858,0.3140355
0.9607362,-0.1361981,0.2999129
1.024007,-0.1565519,0.3457338
1.096215,-0.1769769,0.3445717
1.196746,-0.3185437,0.2999383
1.51444,-0.4848879,0.265555
1.727663,-0.4915957,0.2380483
1.523349,-0.3783055,0.2270528
1.199004,-0.2970941,0.2056602
0.9678272,-0.3039964,0.1860442
0.862788,-0.3200352,0.1540957
0.908192,-0.3714122,0.07511867
0.9233536,-0.4999227,-0.009776172
0.9189292,-0.5397141,-0.05107959
0.9755819,-0.4660206,-0.0298825
0.945203,-0.36058,-0.03279117
0.9191957,-0.1860239,-0.08373266
0.9400726,-0.07134141,-0.1154475
0.9093899,-0.1192394,-0.1441477
0.9024915,-0.1667357,-0.1259157
0.8421286,-0.1854155,-0.09245746
0.7773931,-0.210096,-0.1053124
0.8133903,-0.1785912,-0.09937983
0.8081713,-0.1489261,-0.1193972
0.7936739,-0.1146171,-0.1509154
0.8046868,-0.06373833,-0.1500848
0.8202142,-0.07522474,-0.1591794
0.8813787,-0.0927814,-0.1427312
0.9247866,-0.1145001,-0.1272071
0.9295251,-0.1161291,-0.12513
0.925086,-0.008622883,-0.129961
0.9388054,0.07770635,-0.1562169
0.9664304,0.05424872,-0.1462828
0.9977831,0.02058836,-0.1401596
1.096394,0.01856637,-0.1371761
1.218653,-0.01197795,-0.1017799
1.248327,-0.03291851,-0.1034061
1.231064,-0.02262771,-0.1403874
1.269925,-0.07215629,-0.2474937
1.291489,-0.08524031,-0.371323
1.303657,-0.1074653,-0.3236785
1.404582,-0.285395,-0.2496371
1.430696,-0.4355159,-0.3105074
1.376008,-0.4649792,-0.339789
1.327995,-0.3842155,-0.3332621
1.191549,-0.2858275,-0.3181322
1.124957,-0.3108643,-0.240038
1.15003,-0.3046351,-0.2493837
1.079809,-0.2541584,-0.2493503
0.9876406,-0.2493476,-0.122116
0.9079759,-0.2217962,-0.06263823
0.8680292,-0.214636,-0.04949348
0.8831677,-0.2250057,-0.06631786
0.8201397,-0.2403783,-0.1022577
0.7180373,-0.2968696,-0.05438972
0.6692145,-0.328269,-0.03231232
0.6533354,-0.318602,0.0005183182
0.6638878,-0.2895499,0.06523371
0.6938005,-0.2440245,0.04701254
0.7236911,-0.2124985,0.04766507
0.7265539,-0.2155665,0.1004996
0.7385341,-0.2529568,0.144232
0.8024212,-0.3021808,0.1800858
0.850708,-0.324153,0.2065784
0.8601745,-0.3033052,0.2441763
0.8645553,-0.2818993,0.2897614
0.8560522,-0.263122,0.3063601
0.8458619,-0.2143014,0.3064477
0.8441644,-0.1777003,0.3378949
0.8487485,-0.1656752,0.3505251
0.8869906,-0.1688263,0.3305652
0.9594507,-0.1976846,0.3343903
1.084278,-0.2382682,0.3108627
1.419093,-0.3475543,0.2490874
1.800433,-0.4712632,0.1926864
1.691393,-0.4441747,0.187299
1.307703,-0.3964731,0.2207254
1.095731,-0.4471064,0.2077785
0.8991603,-0.4403448,0.2058402
0.9322089,-0.4240309,0.1715667
1.064226,-0.4827047,0.008166131
0.9244973,-0.4957834,-0.09857078
0.9725076,-0.4871005,-0.07112764
1.017061,-0.4739253,-0.05647427
0.9004657,-0.3934116,-0.08858997
0.9693951,-0.2848215,-0.09467027
0.9119844,-0.2175272,-0.1086233
0.8845856,-0.2301907,-0.1451957
0.9292412,-0.2094388,-0.1111768
0.809654,-0.1413659,-0.08406931
0.8130202,-0.1256835,-0.09010055
0.7974246,-0.1024235,-0.07229939
0.7907184,-0.1062113,-0.09635707
0.8526525,-0.1261722,-0.1121658
0.8004701,-0.1037629,-0.1286592
0.8286259,-0.1105149,-0.1677791
0.8569983,-0.1019964,-0.1602782
0.8993066,-0.09906115,-0.1639854
0.9915602,-0.1245872,-0.1538415
0.9504113,-0.1020151,-0.1203098
0.9461484,-0.0597517,-0.1181799
0.9723688,-0.003831052,-0.11512
0.9581639,0.0134322,-0.121334
0.9787252,-0.008443606,-0.1193168
0.9923854,0.008080727,-0.1107016
1.023477,-0.007546184,-0.1126279
1.05104,-0.02644492,-0.1012193
1.056599,-0.008206134,-0.09973476
1.065687,-0.01838138,-0.09648466
1.0887,-0.02922982,-0.1020291
1.156836,-0.06052172,-0.1428554
1.228575,-0.1021671,-0.2009281
1.287544,-0.1008342,-0.2554551
1.341166,-0.1561807,-0.2738494
1.359331,-0.2813629,-0.3003245
1.34674,-0.3562592,-0.3341069
1.339089,-0.3864837,-0.3230804
1.325731,-0.4237948,-0.318828
1.023929,-0.1444824,-0.1000852
0.9673924,-0.1645691,-0.0682343
0.8851293,-0.1302371,-0.05699866
0.8367197,-0.08678114,-0.03788359
0.8465474,-0.122831,-0.03020483
0.8672545,-0.1566528,-0.05023153
0.8341043,-0.1960761,-0.03786983
0.8315279,-0.2159995,-0.04009717
0.8562399,-0.1656011,-0.052329
0.8624656,-0.13547,-0.0657973
0.8851736,-0.1025533,-0.1102643
0.8626967,-0.05238104,-0.1231934
0.8437826,-0.02441698,-0.1304593
0.8883931,-0.004578749,-0.1517307
0.9456826,-0.01490876,-0.147556
1.017276,-0.0153394,-0.1540719
1.039115,0.006571824,-0.1444247
1.01361,0.02800615,-0.09643933
1.00419,0.07186114,-0.06341247
0.9871872,0.09387411,-0.06106844
0.9961947,0.09307366,-0.08862074
1.046797,0.08263271,-0.117027
1.092444,0.03947007,-0.1166703
1.106189,0.008133728,-0.1140383
1.102979,-0.02414675,-0.1319349
1.12903,-0.08130677,-0.1664523
1.163599,-0.1165234,-0.1912494
1.193802,-0.1254217,-0.1996033
1.239302,-0.1256564,-0.242799
1.254661,-0.1527345,-0.3021589
1.253936,-0.2295009,-0.3014826
1.286304,-0.3060509,-0.2924259
1.303605,-0.335295,-0.3145457
1.290207,-0.3273536,-0.301028
1.275288,-0.3178598,-0.2750747
1.249185,-0.2998807,-0.2552643
1.228755,-0.2834088,-0.2193682
1.211445,-0.2851886,-0.2163685
1.135232,-0.2457577,-0.1944063
1.022395,-0.1828841,-0.1010019
0.9763098,-0.1611033,-0.04022989
0.9859217,-0.1793688,-0.0508964
0.9562153,-0.2299049,-0.05470173
0.8878049,-0.2779022,-0.01884475
0.8050326,-0.2857856,0.005993772
0.72467,-0.2318524,0.02742431
0.714856,-0.1582105,0.04887925
0.7465991,-0.1342312,0.02691902
0.7752223,-0.1272791,0.03684426
0.8230889,-0.1133808,0.07068898
0.8151158,-0.1196632,0.08207372
0.7672422,-0.1649709,0.1297541
0.754681,-0.2104722,0.1590747
0.7274199,-0.2013311,0.1554582
0.7326714,-0.1905865,0.1716096
0.769824,-0.1988299,0.2157357
0.7655942,-0.1926992,0.2609388
0.7781414,-0.1742702,0.2594184
0.8049522,-0.1301622,0.3060376
0.8467476,-0.08580601,0.3692216
0.9324288,-0.06090958,0.3458067
1.021064,-0.03304727,0.3512296
1.084119,-0.0517196,0.360541
1.146811,-0.1630153,0.3089012
1.33135,-0.2813459,0.2816122
1.561784,-0.3233329,0.2862084
1.641764,-0.3177356,0.2833357
1.54436,-0.3188782,0.2650022
1.262173,-0.3507435,0.258293
0.9976082,-0.391315,0.2546287
0.9338374,-0.4235342,0.2137885
0.9657562,-0.4630499,0.1178844
0.981179,-0.4986417,-0.008320131
0.9258867,-0.4927458,-0.03689462
0.8983698,-0.4545605,-0.01091594
0.8978908,-0.4066449,-0.07022097
0.8912251,-0.2805479,-0.09564332
0.9439433,-0.1286654,-0.07858676
0.9392016,-0.09357354,-0.09990478
0.9224167,-0.1116038,-0.07711094
0.9037386,-0.1128023,-0.06267452
0.8298962,-0.1044894,-0.07270031
0.8593904,-0.09073058,-0.04891279
0.902103,-0.09136869,-0.04792659
0.9003293,-0.1020964,-0.0528534
0.891659,-0.1343493,-0.06347049
0.8475814,-0.1540521,-0.08913701
0.8760327,-0.1597283,-0.102425
0.8982184,-0.176923,-0.1176168
0.8609597,-0.1444323,-0.1125958
0.8669848,-0.06490112,-0.1200933
0.8930144,0.06821799,-0.1553591
0.9540322,0.1879107,-0.1729918
1.041225,0.1569277,-0.1636389
1.081873,0.110864,-0.1094083
1.060293,0.1275078,-0.0605522
1.038862,0.07728755,-0.06053115
1.089321,-0.01447048,-0.09730817
1.16577,-0.1057171,-0.1828077
1.251127,-0.1732343,-0.2678423
1.335497,-0.1794259,-0.2975001
1.396333,-0.2733494,-0.3429805
1.498463,-0.4401338,-0.4226978
1.522447,-0.448018,-0.3875239
1.355604,-0.3556716,-0.3000667
1.147733,-0.2897454,-0.274287
0.9997661,-0.247157,-0.1976733
0.9529622,-0.27618,-0.1633736
0.9669937,-0.3430152,-0.1906313
0.9438489,-0.4029191,-0.1490326
0.9324389,-0.4402995,-0.1115814
0.9497168,-0.401278,-0.02695251
0.9665323,-0.3584249,0.05854465
0.9752865,-0.3365141,0.03817062
0.9408774,-0.2798477,0.04265799
0.884719,-0.2390546,0.05699569
0.8221785,-0.1888714,0.05593237
0.7837468,-0.1364488,0.06635559
0.8169145,-0.1661045,0.05100361
0.851974,-0.1969015,0.05266624
0.8338535,-0.1998083,0.07293694
0.8067697,-0.2293656,0.1085766
0.7756406,-0.236885,0.1513193
0.7364987,-0.2185651,0.1585939
0.7390621,-0.2180472,0.1641671
0.7561034,-0.2227642,0.1785755
0.7665625,-0.2235254,0.1863964
0.8072108,-0.229021,0.190979
0.8184949,-0.2344236,0.2053822
0.7983603,-0.2373999,0.2402508
0.8013277,-0.2367938,0.2593767
0.8004794,-0.2324156,0.2646081
0.7957924,-0.2238185,0.301117
0.7921868,-0.2027431,0.35317
0.8069518,-0.1853777,0.3650403
0.8885024,-0.1598436,0.3625123
1.005365,-0.1043656,0.397466
1.086244,-0.0973733,0.3944597
1.21811,-0.1841889,0.3180868
1.467711,-0.2651854,0.2519738
1.539633,-0.26211,0.2472466
1.373881,-0.2481805,0.3044783
1.282462,-0.3129997,0.3616882
1.215975,-0.4171605,0.381187
1.166361,-0.4867398,0.3727647
1.203199,-0.4944437,0.3193284
1.135631,-0.4713415,0.229357
1.066843,-0.4456435,0.1212102
1.03685,-0.3725288,0.038528
0.9356497,-0.3310137,-0.02159063
0.8988506,-0.4159819,-0.06620616
0.8879068,-0.4697389,-0.01306326
0.8994274,-0.3983918,0.02494902
0.9741629,-0.2974342,-0.0497656
1.010865,-0.2129088,-0.1107211
1.02697,-0.1586425,-0.1304881
0.9695972,-0.1495394,-0.1033998
0.8577267,-0.1510287,-0.04966949
0.7741976,-0.1335563,-0.03852113
0.7282683,-0.1312022,-0.04226909
0.7868848,-0.1504838,-0.06841781
0.8397512,-0.1563573,-0.1150162
0.8353381,-0.1470537,-0.1455975
0.8384033,-0.1196033,-0.1523676
0.8291343,-0.09730427,-0.1471917
0.8839822,-0.1043063,-0.1651345
0.9451644,-0.1093827,-0.1596158
0.9213978,-0.09814237,-0.1290834
0.9036785,-0.07367218,-0.1253965
0.911126,-0.0398831,-0.125644
0.9419287,-0.01705257,-0.1373873
1.004818,-0.001201224,-0.1375385
1.047016,0.02784144,-0.1196363
1.043457,0.04685887,-0.107344
1.031557,0.04798083,-0.08004962
1.039295,0.04686938,-0.09155924
1.077299,0.01111688,-0.1251184
1.179749,-0.04961095,-0.1545264
1.311484,-0.09110669,-0.2368944
1.430639,-0.1278518,-0.293768
1.533084,-0.20347,-0.3138114
1.555532,-0.2946427,-0.3550012
1.50461,-0.3326889,-0.339649
1.44653,-0.3599096,-0.2984271
1.341271,-0.3745624,-0.2974412
1.150662,-0.3529429,-0.2435526
0.9925894,-0.377191,-0.1649509
0.9479383,-0.379047,-0.1520034
0.9243545,-0.3392998,-0.08863094
0.937915,-0.3259896,0.01307856
1.02994,-0.2893696,0.006281493
1.042863,-0.2700228,-0.01538757
0.9299589,-0.2466818,-0.01295551
0.81971,-0.1986095,-0.05693404
0.799129,-0.2170927,-0.05847462
0.8129932,-0.2362394,-0.02131552
0.7660099,-0.2300323,-0.005581972
0.759792,-0.2365296,0.021434
0.7945136,-0.2346979,0.02807667
0.7638302,-0.247372,0.04600229
0.764828,-0.2665781,0.1004439
0.7508161,-0.2900249,0.1260076
0.6903187,-0.335858,0.1845887
0.7008708,-0.3529963,0.2509673
0.7041171,-0.2965388,0.2379817
0.6889949,-0.2233819,0.2364128
0.6914066,-0.2000257,0.2502119
0.6844304,-0.1932642,0.247852
0.7316531,-0.1703911,0.258869
0.8194866,-0.1419233,0.2426777
0.8912169,-0.1278044,0.2318628
0.922933,-0.1352047,0.2592252
0.9232281,-0.14388,0.2882911
0.940537,-0.1502824,0.3197012
0.966722,-0.1398545,0.3357342
1.001026,-0.1365589,0.3298919
1.11527,-0.2150096,0.3037376
1.385419,-0.3543772,0.2759023
1.68801,-0.4667351,0.2906184
1.751583,-0.507783,0.3042476
1.51978,-0.5011481,0.2888139
1.182017,-0.5018908,0.2751108
1.008589,-0.5268982,0.2469528
1.058934,-0.5421936,0.17914
1.055084,-0.5324595,0.04360732
0.9293392,-0.5232667,-0.1007279
0.8947228,-0.511845,-0.1097793
0.8924678,-0.4937826,-0.07245637
0.8581756,-0.4701308,-0.1228007
0.8984952,-0.4195303,-0.1508608
0.9294497,-0.3505047,-0.1776577
0.9437269,-0.2716034,-0.2317927
0.962443,-0.2074378,-0.184
0.9098625,-0.1716677,-0.1273941
0.8865693,-0.114448,-0.116247
0.8789195,-0.06020574,-0.1003392
0.8679132,-0.05456448,-0.1370668
0.9035375,-0.07699913,-0.1686835
0.8909772,-0.1222767,-0.1717754
0.8678482,-0.1660433,-0.1760755
0.8357507,-0.1708392,-0.1673252
0.8081185,-0.1420532,-0.1887697
0.8767276,-0.1042964,-0.2043163
0.9214776,-0.05251711,-0.1997385
0.9183379,0.002463348,-0.1990074
0.9256316,0.02464259,-0.1666022
0.9406417,0.06120614,-0.140327
0.9651569,0.09909883,-0.1470686
0.976205,0.1009383,-0.1536558
1.01744,0.1457738,-0.1399268
1.031862,0.1667416,-0.1261303
0.9872032,0.1203585,-0.1147289
0.9723306,0.1006215,-0.06829666
0.9646696,0.06488139,-0.04320865
0.9870424,0.03054607,-0.06705333
1.050752,0.003141119,-0.09235314
1.101065,-0.0639068,-0.1278414
1.188349,-0.07428647,-0.1927755
1.369966,-0.0851664,-0.3089191
1.554759,-0.1279768,-0.3903639
1.607655,-0.183725,-0.3512688
1.628713,-0.3995726,-0.3261499
1.6254,-0.5935945,-0.3366156
1.452195,-0.5815297,-0.2854279
1.260395,-0.518876,-0.2414881
1.127078,-0.4345812,-0.2118541
1.033517,-0.3594756,-0.1859652
1.011251,-0.3205521,-0.2135775
0.928355,-0.2705976,-0.2066128
0.8309988,-0.2510627,-0.152719
0.7944084,-0.2386294,-0.1046985
0.7660509,-0.2340968,-0.07346376
0.7518667,-0.270324,-0.09918912
0.6961768,-0.3065412,-0.09604689
0.6405743,-0.3181254,-0.03638583
0.6147144,-0.2904493,0.02131747
0.6224082,-0.2483689,0.06899837
0.7492307,-0.1860267,0.0479145
0.8988853,-0.09709653,0.03298943
0.9509277,-0.06836698,0.06548191
0.8940358,-0.1188487,0.08382571
0.8338572,-0.1934929,0.1567825
0.8188099,-0.2420211,0.2356671
0.7536985,-0.2422488,0.2839085
0.7366142,-0.2242525,0.3533195
0.7701799,-0.2148658,0.360895
0.7695934,-0.1996012,0.3329963
0.8104559,-0.1566114,0.3384838
0.8517142,-0.1302658,0.3447668
0.9381668,-0.1778909,0.3509
1.145432,-0.3098898,0.3317991
1.32433,-0.437953,0.2967102
1.386149,-0.4059713,0.2474717
1.428741,-0.3243996,0.1301283
1.43447,-0.3535213,0.05877389
1.243905,-0.3799076,0.1294163
1.072797,-0.4253049,0.1824494
1.095411,-0.5021099,0.1430606
1.074005,-0.4781227,0.09496514
0.9949363,-0.435902,0.02194836
0.9258929,-0.3972846,-0.03958899
0.894779,-0.3541413,-0.039425
0.9442016,-0.3395152,-0.06126757
0.9654756,-0.2375648,-0.07749754
0.9691414,-0.1480214,-0.08498397
0.9768697,-0.1513046,-0.1452867
0.9524987,-0.1449695,-0.1636436
0.8989589,-0.1683224,-0.1180092
0.8179021,-0.1835622,-0.06260807
0.7805507,-0.1611075,-0.03551759
0.7800008,-0.1475821,-0.07367902
0.7716635,-0.1296361,-0.1226939
0.7528674,-0.1384813,-0.1647285
0.7433023,-0.1591186,-0.1822524
0.7742712,-0.1777543,-0.1687145
0.8250469,-0.2000511,-0.1820007
0.9094657,-0.2012217,-0.1774225
0.9684143,-0.1758417,-0.1644774
0.9661857,-0.08570114,-0.1867193
0.9848313,0.002639114,-0.1926649
1.003624,0.007553888,-0.1972261
1.029632,0.008979503,-0.2040858
1.064365,0.02756645,-0.1880676
1.055531,0.03518507,-0.1695977
1.0415,0.06997898,-0.1637583
1.028384,0.1009289,-0.1849025
1.033814,0.05857003,-0.2236086
1.102579,-0.03743097,-0.2741712
1.212003,-0.1318645,-0.3154098
1.331765,-0.1706202,-0.3224578
1.417721,-0.1973275,-0.3369931
1.440426,-0.3017135,-0.344147
1.422256,-0.3725666,-0.3262271
1.412428,-0.3800131,-0.3320404
1.398867,-0.4155737,-0.3317951
1.313294,-0.3919622,-0.3030394
1.172171,-0.3412226,-0.2742835
1.033496,-0.345185,-0.2449246
0.9677961,-0.3458715,-0.2014512
0.9630814,-0.3596518,-0.09627816
0.9399167,-0.3666314,-0.0007761812
0.9495932,-0.3421613,-0.01883817
0.9330956,-0.3196103,-0.02033097
0.8278934,-0.3018534,0.01737858
0.753236,-0.3069256,0.01215273
0.7054263,-0.2940556,0.05680959
0.6892868,-0.2352279,0.08796145
0.7082994,-0.1655125,0.04447565
0.724999,-0.1195547,0.05418426
0.7628066,-0.1354503,0.08890556
0.7452704,-0.1598913,0.1293527
0.7209169,-0.1729483,0.1849859
0.7429006,-0.201591,0.1940067
0.7194734,-0.1921165,0.2211808
0.7068029,-0.1800202,0.2745227
0.7273336,-0.1970909,0.2915359
0.7678628,-0.2011277,0.2982652
0.8285722,-0.2184187,0.3136721
0.8420065,-0.2234863,0.324795
0.8756394,-0.1953626,0.3327039
0.9692494,-0.169197,0.3692222
1.06376,-0.1816276,0.3698282
1.269476,-0.3577062,0.2898285
1.546189,-0.5716986,0.244738
1.583267,-0.529093,0.2679229
1.481141,-0.4302066,0.2963148
1.375358,-0.4724253,0.2831764
1.072592,-0.4473766,0.2582594
0.9083801,-0.3842032,0.2446109
1.007675,-0.3754057,0.1658559
0.9739006,-0.3958224,0.03073676
0.9993752,-0.4975549,-0.08462584
1.081156,-0.5160867,-0.09509906
0.9881341,-0.4018527,-0.04757817
0.9425912,-0.2862473,-0.06706097
0.9228293,-0.1731537,-0.06249539
0.8777016,-0.157575,-0.04864074
0.8603508,-0.1751227,-0.07779413
0.8128882,-0.144142,-0.07037668
0.7894507,-0.1455486,-0.09280819
0.7712294,-0.1123028,-0.1148702
0.7620249,-0.07966122,-0.100159
0.7574741,-0.08979695,-0.1183592
0.7373826,-0.0990129,-0.1269147
0.7886124,-0.1222208,-0.1366592
0.8718515,-0.1243685,-0.1513944
0.9561148,-0.1222797,-0.1562762
0.9778823,-0.08046508,-0.1674253
0.9191937,0.01964956,-0.1555199
0.9368993,0.06931992,-0.1586821
1.00134,0.07290144,-0.1823762
1.050757,0.08311283,-0.1931525
1.055063,0.1204638,-0.1882262
1.013263,0.159047,-0.1511211
1.033497,0.1514394,-0.1319303
1.049471,0.09284804,-0.1575376
1.085264,-0.02393255,-0.1940221
1.222643,-0.1444415,-0.2302398
1.325691,-0.1908195,-0.273541
1.398069,-0.1732097,-0.3317221
1.511552,-0.2047827,-0.3751111
1.592748,-0.3500593,-0.3823957
1.531821,-0.4785978,-0.358527
1.379663,-0.4956208,-0.3149041
1.242616,-0.4687476,-0.2245385
1.086102,-0.4717214,-0.09925925
1.015559,-0.4790605,-0.06801226
1.008996,-0.431044,-0.08673596
0.9248679,-0.3473459,-0.04826657
0.8945526,-0.24898,-0.01278638
0.890664,-0.1785447,0.01556581
0.859422,-0.1839597,0.0195624
0.8106937,-0.2361126,-0.03147324
0.6769765,-0.3210607,-0.05883237
0.5947278,-0.3589793,-0.01284106
0.5837643,-0.3171082,0.04122899
0.6139981,-0.291771,0.01418692
0.7386714,-0.2622663,-0.006556698
0.852524,-0.2269872,0.0300878
0.9006107,-0.2192048,0.05028539
0.8735202,-0.1903652,0.09863594
0.8500551,-0.1742583,0.1339095
0.8737327,-0.1910528,0.1362902
0.8485354,-0.2012231,0.2001233
0.8323188,-0.2101937,0.2593606
0.8211841,-0.2109092,0.2970258
0.8085218,-0.2047658,0.321378
0.8511581,-0.1989138,0.2978361
0.8599625,-0.1679058,0.3018138
0.8610042,-0.1341405,0.3156183
0.8724891,-0.144856,0.3290052
0.8707533,-0.1772161,0.3693615
0.9642156,-0.2417608,0.3500917
1.204517,-0.3982881,0.2977554
1.514819,-0.5147894,0.2810135
1.594487,-0.4252787,0.3040249
1.336451,-0.3066838,0.3438149
1.093452,-0.3217381,0.3227385
1.051603,-0.3271631,0.2891482
1.122386,-0.324847,0.253041
1.156353,-0.4014885,0.1262423
1.093498,-0.4591947,0.03020051
1.02439,-0.4728856,0.0159791
0.948274,-0.4652453,-0.03142401
0.9177046,-0.4435107,-0.06514464
0.9694277,-0.3975923,-0.04493726
0.9778602,-0.2883667,-0.0493318
0.9794917,-0.224833,-0.07721457
0.9927367,-0.232405,-0.08356465
0.9419063,-0.2053463,-0.08320734
0.8811197,-0.1545776,-0.07845995
0.8452258,-0.1155618,-0.06430897
0.847648,-0.1061076,-0.06933527
0.8631789,-0.1160691,-0.08278985
0.8507473,-0.1390274,-0.09904358
0.8557848,-0.1605267,-0.1216869
0.8578879,-0.1421142,-0.1367506
0.8492769,-0.1248204,-0.1652695
0.8672002,-0.1253755,-0.1769245
0.9003569,-0.1206615,-0.1582157
0.9410549,-0.09806694,-0.1590621
0.9310425,-0.05868239,-0.1549621
0.8889703,-0.02313056,-0.1460395
0.9013981,0.01280294,-0.1528312
0.959284,0.0003603917,-0.1438354
1.044258,-0.03108633,-0.1378296
1.071112,0.01884613,-0.1396211
1.035614,0.06373811,-0.1333341
1.065397,0.03811602,-0.1366836
1.122891,-0.01984687,-0.1361202
1.180931,-0.1110307,-0.138636
1.244016,-0.1714481,-0.1707388
1.263133,-0.1781756,-0.2191329
1.306676,-0.1871407,-0.2641974
1.39594,-0.209517,-0.2999799
1.480102,-0.2862191,-0.325506
1.480752,-0.3739063,-0.3197202
1.389218,-0.3923975,-0.2954919
1.313284,-0.4006103,-0.2718924
1.192322,-0.4034515,-0.2231186
1.075473,-0.3809074,-0.1900948
1.05307,-0.3593185,-0.1915586
0.9834043,-0.3296967,-0.1536307
0.9045494,-0.2934589,-0.05581212
0.8664641,-0.2300736,0.03739435
0.8612768,-0.1764166,0.0472344
0.884193,-0.1938855,-0.008687725
0.8114629,-0.2311824,-0.04387539
0.7016328,-0.2534233,-0.02014992
0.6053366,-0.2518412,0.02719192
0.5607446,-0.2266641,0.05321665
0.6438028,-0.2160409,0.07425869
0.7070461,-0.2189333,0.08347602
0.7332473,-0.2204699,0.08762529
0.7628192,-0.2209661,0.1263342
0.7713284,-0.225609,0.1642588
0.8011352,-0.2347758,0.1786363
0.8171161,-0.2364599,0.1835667
0.8485291,-0.2384426,0.2143321
0.8682333,-0.2407868,0.2651492
0.8447823,-0.2354813,0.2864386
0.8708935,-0.229306,0.3072867
0.8914366,-0.200323,0.3127651
0.911099,-0.1462202,0.3052608
0.9373994,-0.1169446,0.3343368
0.9087632,-0.1166066,0.3481428
0.9174658,-0.1164825,0.3366438
1.0103,-0.1484069,0.3130488
1.2529,-0.2582824,0.2689955
1.573286,-0.3594225,0.242642
1.620338,-0.3241671,0.2709749
1.365063,-0.2769663,0.3158416
1.106392,-0.3423183,0.2938251
1.033288,-0.3817056,0.2774221
1.115495,-0.4145301,0.2944099
1.164444,-0.5023192,0.2482142
1.115021,-0.496141,0.1882304
1.009692,-0.4194062,0.1160721
0.8696117,-0.3714979,0.033165
0.8539416,-0.3740968,0.006842445
0.9405222,-0.3986632,-0.02843797
0.9268088,-0.357236,-0.05565294
0.9255854,-0.3187734,-0.04479252
0.9544636,-0.2595949,-0.08637288
0.9159389,-0.144974,-0.1320782
0.8908813,-0.1512823,-0.09275545
0.8171362,-0.1874001,-0.0515793
0.7723535,-0.1632872,-0.07286304
0.8265757,-0.1988404,-0.09239368
0.8173898,-0.2147212,-0.1154457
0.8096498,-0.1658703,-0.1646879
0.8062,-0.1216748,-0.1871914
0.7838834,-0.09178439,-0.1868086
0.870025,-0.1139812,-0.1777325
0.9776819,-0.1705667,-0.1696783
0.9960756,-0.1847587,-0.1725304
0.9552745,-0.1174786,-0.1608861
0.9397365,-0.01160425,-0.153809
0.962275,0.00900439,-0.1563033
0.973988,-0.002060832,-0.148666
1.019638,0.05830037,-0.1373242
1.05924,0.07008732,-0.1282923
1.063776,0.03655977,-0.1303405
1.118076,0.02246621,-0.1212623
1.18927,-0.05675477,-0.1236082
1.238642,-0.1342837,-0.1955603
1.33421,-0.1426727,-0.2650096
1.471203,-0.1775127,-0.2501509
1.534331,-0.2507138,-0.2453945
1.533167,-0.3153786,-0.3135863
1.522163,-0.3541531,-0.335528
1.396834,-0.3251666,-0.3016007
1.190213,-0.2672191,-0.2741718
1.079443,-0.276093,-0.2274548
1.072077,-0.3024182,-0.2262039
1.048806,-0.3202508,-0.242588
0.9722383,-0.3461992,-0.1829899
0.9026289,-0.3255634,-0.1078982
0.8104986,-0.3010816,-0.04071302
0.7274117,-0.2688609,-0.0182973
0.7354109,-0.2262198,-0.04064628
0.7336674,-0.2478062,-0.02707787
0.7076998,-0.2663611,-0.01321954
0.684241,-0.2736663,-0.0008572439
0.6548696,-0.2887966,0.02191696
0.6872027,-0.2767224,0.03709146
0.7305198,-0.2818687,0.0838347
0.7694182,-0.276797,0.120262
0.8158088,-0.2565245,0.1262873
0.8176461,-0.2589361,0.1438654
0.8314631,-0.2558617,0.1632893
0.8676467,-0.256676,0.1894709
0.897456,-0.2497507,0.2139235
0.9036957,-0.2224681,0.227566
0.8760076,-0.1980894,0.2438637
0.8701004,-0.182872,0.2636067
0.8662973,-0.1726487,0.2978913
0.8512603,-0.1512495,0.3229325
0.8453206,-0.1537777,0.3178697
0.8326911,-0.1727704,0.3141813
0.8735113,-0.1878905,0.310215
1.055301,-0.2985086,0.262535
1.339625,-0.4363841,0.1967693
1.52122,-0.4197142,0.1991362
1.534733,-0.3249513,0.2493575
1.434865,-0.293036,0.2720807
1.195872,-0.3063637,0.2681521
1.065192,-0.3205274,0.2555911
1.14924,-0.3347136,0.2363503
1.16767,-0.3755324,0.1922554
1.135244,-0.4207871,0.1226543
1.062655,-0.3971511,0.06317004
0.8722362,-0.3566891,0.04132443
0.7791824,-0.3688749,0.04414571
0.8214026,-0.3975214,0.02284349
0.8646795,-0.4274547,0.005612914
0.9202262,-0.4017426,-0.005797035
0.9688894,-0.3294365,-0.0682497
0.9707685,-0.2919927,-0.1160941
0.9384927,-0.2353457,-0.1282916
0.8753764,-0.1939285,-0.1265298
0.8232981,-0.2207859,-0.1005118
0.8187073,-0.2336368,-0.103489
0.8260922,-0.2387021,-0.1221967
0.8328979,-0.2331063,-0.1446771
0.8193597,-0.1962521,-0.168628
0.8025976,-0.154296,-0.1725649
0.848954,-0.08535903,-0.2087081
0.9293811,-0.03770146,-0.2257806
1.009193,-0.05322254,-0.1885707
1.037675,-0.08307726,-0.160371
1.000882,-0.1082724,-0.1278799
0.9810924,-0.09593183,-0.105115
0.9606065,-0.05767512,-0.1102179
0.9511987,-0.03819838,-0.1172938
0.9955477,-0.002332988,-0.1204493
1.03702,0.01575194,-0.1256001
1.056023,-0.005647698,-0.135286
1.040749,0.0006076407,-0.1269099
1.021715,-0.01324931,-0.1117978
1.045705,-0.07294511,-0.09948316
1.070389,-0.1177747,-0.08642782
1.105255,-0.1223246,-0.1133564
1.150305,-0.07340366,-0.165127
1.17747,-0.04101225,-0.2072811
1.245187,-0.08143415,-0.2535925
1.367084,-0.1792868,-0.3142034
1.488988,-0.3086246,-0.3826449
1.520606,-0.3576097,-0.4123291
1.429804,-0.3223495,-0.3920041
1.316627,-0.2990851,-0.3489729
1.197748,-0.256298,-0.2587871
1.122627,-0.2250448,-0.1780313
1.161429,-0.25393,-0.1834279
1.14627,-0.2526426,-0.1970173
1.029674,-0.2256758,-0.1918132
0.9344171,-0.222461,-0.2038825
0.8936134,-0.230869,-0.20045
0.8622178,-0.2907109,-0.19437
0.7724884,-0.3553819,-0.1887289
0.8739625,-0.09962189,-0.04091073
0.8770063,-0.09078445,-0.06626923
0.874727,-0.09758227,-0.09197468
0.8706112,-0.08876821,-0.1043496
0.9065652,-0.07784277,-0.09720422
0.9250366,-0.06608436,-0.09570045
0.9641449,-0.0146184,-0.101549
1.019373,0.02615637,-0.09063418
1.037244,0.04735012,-0.08086872
1.0304,0.08494279,-0.06496678
1.013388,0.1057955,-0.05105084
1.021608,0.09041318,-0.06172844
1.056423,0.03674529,-0.07197681
1.134533,-0.04508616,-0.08243816
1.210338,-0.1016424,-0.105877
1.214891,-0.1101726,-0.1323536
1.270357,-0.1314767,-0.1838184
1.424021,-0.2172791,-0.285733
1.550593,-0.3209725,-0.3707981
1.551372,-0.3817969,-0.3639688
1.417045,-0.3977556,-0.3231669
1.255466,-0.3940789,-0.2828143
1.145784,-0.3709088,-0.1962294
1.102082,-0.3246211,-0.1401669
1.104626,-0.2810098,-0.1748048
1.07351,-0.222281,-0.184373
1.006963,-0.149669,-0.1259344
0.9185735,-0.1047311,-0.04434723
0.8227009,-0.0683896,0.0365451
0.8171084,-0.06467977,0.03934685
0.844397,-0.1226049,0.0003285867
0.7964486,-0.1684067,0.01653281
0.7263145,-0.1752759,0.02337973
0.6676882,-0.1745595,0.02125601
0.6677202,-0.1659728,0.0440796
0.7290604,-0.1569421,0.04839418
0.7493193,-0.1659703,0.07189746
0.7586506,-0.1947983,0.09558487
0.7728159,-0.2257097,0.09595712
0.7585046,-0.2441223,0.1219815
0.7694743,-0.2627401,0.1485927
0.8023468,-0.2839591,0.1846261
0.8663775,-0.2862813,0.2196101
0.9347256,-0.2684499,0.2342612
0.9353661,-0.2423883,0.270724
0.9193265,-0.2067275,0.2837489
0.9118934,-0.174614,0.2750776
0.9121082,-0.1504556,0.2850751
0.9148254,-0.1257022,0.2940809
0.9016325,-0.1229422,0.3164543
0.9125885,-0.1162304,0.326689
0.9436818,-0.08603045,0.3118368
1.033939,-0.1034045,0.2970767
1.250387,-0.1957022,0.2577221
1.506114,-0.3287874,0.2012477
1.614477,-0.4066974,0.1974502
1.504555,-0.3977097,0.2972361
1.360168,-0.4291528,0.3817756
1.236675,-0.4505822,0.3077837
1.093103,-0.3902907,0.223993
1.111456,-0.3903433,0.2304242
1.132558,-0.4306464,0.1474611
0.9750633,-0.4410939,0.02855219
0.916675,-0.4399017,0.03997681
0.9024419,-0.4167146,0.03643576
0.8713185,-0.4331733,-0.02496485
0.9610748,-0.4319445,-0.04881675
0.975389,-0.3329516,-0.07995355
0.959851,-0.2267369,-0.09472843
0.98427,-0.1825095,-0.07942753
0.9139635,-0.2072849,-0.06631639
0.865348,-0.1930692,-0.04364161
0.846707,-0.1303927,-0.05777759
0.8598033,-0.1117801,-0.09177604
0.8882156,-0.08127677,-0.1155362
0.8280426,-0.05578995,-0.1444919
0.7893666,-0.03348419,-0.146227
0.7621816,-0.004081035,-0.1420989
0.7582659,-0.03972343,-0.1446601
0.8276536,-0.08259058,-0.1276436
0.8686927,-0.1097037,-0.1038714
0.8944268,-0.07281085,-0.08938328
0.9108686,0.02220959,-0.1058266
0.9819056,0.0299528,-0.125471
1.115418,0.03576327,-0.1276161
1.181623,0.06777111,-0.1551761
1.210678,0.02207863,-0.1973411
1.246079,-0.05183559,-0.2452514
1.359938,-0.1604166,-0.2843169
1.516593,-0.2978319,-0.2501186
1.54424,-0.3598477,-0.2188727
1.512854,-0.3416429,-0.2809601
1.476497,-0.3161759,-0.3267285
1.354583,-0.3040019,-0.2960074
1.19597,-0.3070738,-0.2426558
1.107817,-0.3258676,-0.1816321
1.052584,-0.3057789,-0.1342968
0.949408,-0.2637852,-0.06581524
0.8997232,-0.2337665,0.03885629
0.9430884,-0.2144197,0.05099272
0.9438432,-0.2538269,-0.031461
0.8763173,-0.3014499,-0.07889148
0.8062232,-0.3219929,-0.06368538
0.7432627,-0.3336237,-0.02031427
0.6865177,-0.2900168,0.01952951
0.6550131,-0.2347048,0.05382502
0.6539707,-0.2135283,0.06767284
0.6641991,-0.2272257,0.06270264
0.6537463,-0.2698724,0.0979547
0.646734,-0.2961622,0.1597823
0.6592609,-0.3063483,0.2154462
0.6707852,-0.2777338,0.2388713
0.7377927,-0.192309,0.2471002
0.8342063,-0.1058294,0.3094673
0.8610477,-0.09624404,0.3409898
0.8840038,-0.1366986,0.3424517
0.9812286,-0.1071732,0.3866087
1.107594,-0.113107,0.3419322
1.320391,-0.259597,0.2397987
1.646339,-0.4483211,0.2196076
1.762603,-0.5611861,0.2417152
1.511096,-0.5016427,0.2558313
1.144431,-0.4619999,0.239254
0.8623142,-0.4992666,0.2245801
0.7997596,-0.4037821,0.2207465
0.8833731,-0.3579691,0.1411907
0.9110227,-0.4468934,-0.002288071
0.9739059,-0.5058683,-0.1071611
1.037482,-0.4853727,-0.1156911
0.9611132,-0.3163432,-0.08076825
0.8979889,-0.09497479,-0.07132249
0.8764997,0.01689961,-0.05341514
0.8498411,-0.01223619,-0.02697365
0.8747812,-0.09017063,-0.02915735
0.8734523,-0.1379591,-0.04799218
0.8672713,-0.1861402,-0.07257737
0.8909248,-0.1671148,-0.08994482
0.8583557,-0.1521486,-0.08877902
0.8085125,-0.1818531,-0.07482862
0.7551706,-0.1376635,-0.07203852
0.7326463,-0.1033776,-0.09018553
0.787059,-0.06966074,-0.113168
0.862668,-0.04840097,-0.1329967
0.95807,-0.06972938,-0.1437999
0.9843757,-0.02882015,-0.1574947
0.9675231,-0.02100921,-0.168933
1.039347,-0.0179395,-0.1688927
1.066151,0.03853037,-0.1726314
1.060545,0.05150006,-0.1579757
1.119953,0.05277224,-0.1312761
1.169223,0.01456998,-0.1279494
1.252262,-0.05447139,-0.1483821
1.385527,-0.1423156,-0.1962042
1.50839,-0.2802056,-0.2450367
1.523836,-0.3180496,-0.2592464
1.449067,-0.2803871,-0.2898638
1.456726,-0.2927222,-0.3553644
1.381365,-0.2897713,-0.3532411
1.193059,-0.3025976,-0.309597
1.108674,-0.3593088,-0.2961506
1.001519,-0.3696334,-0.2098699
0.9016556,-0.3730103,-0.08302189
0.9169425,-0.3872227,-0.009215877
0.9798836,-0.3643886,0.03674899
1.035846,-0.3525444,0.001732348
0.9341289,-0.3197964,-0.04403873
0.7936612,-0.2581447,-0.006968702
0.7791949,-0.2333257,0.002091567
0.7821489,-0.172832,-0.001256193
0.7738552,-0.07575838,0.03474308
0.7655091,-0.04746368,0.03939588
0.7747786,-0.06096053,0.03813139
0.766307,-0.04722142,0.07204884
0.7107784,-0.08319627,0.1270493
0.6657119,-0.1828338,0.1930201
0.6217518,-0.2069345,0.2225366
0.5821129,-0.2023983,0.2417692
0.5550744,-0.1985452,0.3016779
0.5984989,-0.1364877,0.3247591
0.7015057,-0.1234102,0.3099318
0.7832502,-0.1391448,0.3225505
0.9364767,-0.1604892,0.3391717
1.091887,-0.2415518,0.3690991
1.202232,-0.3344747,0.381559
1.455042,-0.5260152,0.3066943
1.706891,-0.6821901,0.1989862
1.663781,-0.5188296,0.151191
1.357581,-0.3623912,0.174918
0.9913734,-0.484483,0.1722891
0.753414,-0.5336283,0.1169197
0.7759655,-0.479406,0.06908291
0.9556544,-0.5655322,-0.02733496
1.08387,-0.6121247,-0.1298628
1.1069,-0.5213773,-0.1351567
1.038652,-0.3905339,-0.1381751
0.9982399,-0.2567339,-0.1566811
0.9691009,-0.212008,-0.1356501
0.885056,-0.1751327,-0.1374667
0.8858505,-0.1257697,-0.1435005
0.8748936,-0.1597742,-0.1282238
0.8374838,-0.1596914,-0.1394063
0.863732,-0.1623406,-0.144145
0.8189439,-0.2288822,-0.1439854
0.7695295,-0.2314056,-0.1616307
0.7296959,-0.196586,-0.1827457
0.6861093,-0.1479243,-0.2438101
0.7557408,-0.06306407,-0.3036507
0.8506532,-0.01058819,-0.3035065
0.9210426,0.005253784,-0.2643197
0.9652699,0.01016182,-0.2093922
0.9664971,0.02333327,-0.1990602
0.9524216,0.05796014,-0.2157855
0.9274849,0.08542266,-0.2016529
0.9410049,0.106552,-0.1875986
0.9531096,0.1217235,-0.1577231
0.9445004,0.125035,-0.1205212
0.9907307,0.1272151,-0.1260529
1.061676,0.1124448,-0.1322957
1.099297,0.09024772,-0.1261388
1.093449,0.08142905,-0.1366088
1.131174,0.04166129,-0.1417541
1.248738,-0.04608826,-0.1299167
1.329578,-0.09271737,-0.1459407
1.382437,-0.08549297,-0.2564374
1.469614,-0.1407232,-0.3964913
1.545773,-0.2557049,-0.402845
1.549754,-0.3314188,-0.3444991
1.435992,-0.3449816,-0.3315505
1.251285,-0.3357404,-0.2531121
1.089472,-0.3437566,-0.1897786
1.010803,-0.3109221,-0.2476077
1.009508,-0.2111354,-0.2512706
0.9993828,-0.1630984,-0.2057351
0.9872386,-0.1859356,-0.1836079
0.9888005,-0.208429,-0.1482317
0.9545376,-0.2379374,-0.1611067
0.9059516,-0.2666585,-0.1691446
0.8121379,-0.23393,-0.1193003
0.6780987,-0.1556028,-0.06620939
0.5999322,-0.1037508,0.002443347
0.5878543,-0.06716583,0.04170036
0.6510925,-0.05520289,0.04389915
0.7379271,-0.09396223,0.05456534
0.7637473,-0.1238882,0.05146316
0.7692492,-0.1468246,0.06413066
0.760041,-0.1882328,0.1207864
0.7268476,-0.2325569,0.1871178
0.7147681,-0.2416874,0.2081657
0.736454,-0.1997168,0.2095671
0.7940115,-0.1748882,0.2578877
0.8523762,-0.1536799,0.2656852
0.8972847,-0.1363842,0.243821
0.9854221,-0.1375981,0.2960758
1.084472,-0.09812972,0.335469
1.142133,-0.1010797,0.3473411
1.222869,-0.1454489,0.3609024
1.374753,-0.2351526,0.3094813
1.604501,-0.4765127,0.2213498
1.759656,-0.5905401,0.1648263
1.572037,-0.4066393,0.1590525
1.202413,-0.2845208,0.1125316
0.9580872,-0.3827823,0.02926327
0.814209,-0.4391784,0.07436235
0.766668,-0.404961,0.1093126
0.8481789,-0.4740504,-0.01327368
1.019196,-0.54986,-0.1258548
1.120518,-0.5227666,-0.1636779
1.055226,-0.4158498,-0.1510127
1.016401,-0.2265563,-0.1238654
0.9555791,-0.1469385,-0.1141534
0.8089962,-0.1417186,-0.07566156
0.7430432,-0.08460955,-0.06490927
0.7055994,-0.115039,-0.09119601
0.7166822,-0.1148828,-0.1003856
0.7858103,-0.05643211,-0.1331468
0.8081838,-0.05467599,-0.1500026
0.8112199,-0.02225058,-0.1326041
0.810255,-0.0407309,-0.1295825
0.8709451,-0.09601777,-0.1245866
0.949793,-0.1110443,-0.09532619
0.9444173,-0.1258225,-0.04713835
0.9197185,-0.04540532,-0.04106659
0.9014772,0.04673269,-0.07284413
0.9415667,0.04929388,-0.07940789
1.064827,0.02282617,-0.08922625
1.196781,-0.002002028,-0.1266377
1.253117,0.04226311,-0.1901534
1.205532,0.06509362,-0.2477533
1.219746,-0.01838129,-0.2810771
1.351475,-0.1379805,-0.3320042
1.509735,-0.2652052,-0.3600792
1.639795,-0.3740363,-0.3586767
1.618788,-0.4493966,-0.3731717
1.472491,-0.4117512,-0.3588441
1.300149,-0.3284698,-0.3280389
1.135909,-0.3594811,-0.307809
1.026743,-0.3753239,-0.2811312
0.9386248,-0.3608085,-0.2470145
0.8678253,-0.3697564,-0.1387116
0.8026133,-0.3239537,-0.01067332
0.7894787,-0.3013179,-0.01679059
