accx,accy,accz
0.9520183,-0.345948,-0.2544467
0.9806246,-0.3519539,-0.2479092
0.9916727,-0.3487152,-0.2435839
1.029273,-0.324945,-0.2215007
1.082293,-0.3111615,-0.2421856
1.135968,-0.3451233,-0.3267292
1.235467,-0.4426149,-0.4301067
1.41317,-0.5482636,-0.4846357
1.489507,-0.575021,-0.4792345
1.300642,-0.5357472,-0.5274077
0.9688244,-0.5067751,-0.5828141
0.7315146,-0.4837851,-0.5528362
0.7468967,-0.4466407,-0.5239009
0.8590163,-0.4283357,-0.507537
0.8663207,-0.4021924,-0.501994
0.9098632,-0.3566833,-0.5121784
0.9365705,-0.320115,-0.4673635
0.8505979,-0.2530347,-0.405794
0.8094573,-0.181933,-0.3760302
0.7090324,-0.1616748,-0.3644066
0.6027018,-0.1661198,-0.343354
0.6146471,-0.1722049,-0.302701
0.5900454,-0.1689947,-0.3254402
0.6283761,-0.1823123,-0.3704423
0.7077995,-0.2253932,-0.3536205
0.7296058,-0.2691943,-0.3501151
0.7941079,-0.2794601,-0.3440635
0.8184224,-0.1984305,-0.3202736
0.8186293,-0.0552244,-0.3493023
0.8476815,0.06084862,-0.382952
0.891048,0.094509,-0.3883766
0.9805759,0.03085236,-0.3961824
1.037984,-0.04983407,-0.4159739
1.09862,-0.1124477,-0.4506204
1.197141,-0.1807606,-0.4651631
1.241843,-0.1993914,-0.4718984
1.227455,-0.177117,-0.5454218
1.212847,-0.1875085,-0.689302
1.23364,-0.2418663,-0.7914897
1.208862,-0.3684953,-0.7594635
1.095164,-0.5145628,-0.6846982
0.9643798,-0.5244838,-0.6314695
0.9066943,-0.4604684,-0.5398571
0.9280773,-0.4280477,-0.4807919
0.9307621,-0.3327465,-0.491952
0.9745952,-0.2221988,-0.4844539
1.043394,-0.1837544,-0.4645968
1.012686,-0.1673161,-0.4377571
0.9556365,-0.2086402,-0.3865314
0.844425,-0.2703196,-0.3142903
0.6933056,-0.2852138,-0.2412719
0.6138935,-0.294705,-0.2396395
0.5556195,-0.2698327,-0.2600907
0.5356222,-0.223297,-0.2356961
0.5390422,-0.1875763,-0.2130673
0.5266405,-0.1635233,-0.1960273
0.5546874,-0.1994192,-0.2083077
0.6056555,-0.2407868,-0.2371084
0.6616097,-0.2441397,-0.2233546
0.7337044,-0.263547,-0.2330297
0.8554758,-0.2985477,-0.2811673
0.948903,-0.3160629,-0.2968875
0.9306752,-0.3125981,-0.2722592
0.9713182,-0.3215565,-0.2239146
1.033224,-0.3247348,-0.2033511
1.015722,-0.2971398,-0.2303638
1.07752,-0.2890032,-0.2546982
1.122549,-0.3163247,-0.2782216
1.132823,-0.387604,-0.3482943
1.316362,-0.4749925,-0.452709
1.501718,-0.5033399,-0.5085434
1.479645,-0.5145983,-0.5375713
1.269752,-0.5387605,-0.5829097
0.9574612,-0.5171299,-0.5393566
0.7662836,-0.4876299,-0.4656085
0.808246,-0.4889838,-0.487896
0.9207567,-0.4560977,-0.5280692
0.9837133,-0.401863,-0.5527238
1.015058,-0.3752909,-0.5276367
0.9770771,-0.3197159,-0.4387473
0.8918154,-0.2118389,-0.3942513
0.7993634,-0.1173517,-0.3793508
0.6734808,-0.1002639,-0.3624937
0.6166557,-0.1627342,-0.3406048
0.5995288,-0.2442612,-0.2895418
0.5858145,-0.3017971,-0.2790061
0.6486468,-0.3057382,-0.2965223
0.6602361,-0.2624995,-0.3061439
0.6668332,-0.2256574,-0.3260087
0.7247061,-0.2017614,-0.3040782
0.7410184,-0.1858883,-0.2778866
0.7793895,-0.1599664,-0.303354
0.8057854,-0.09814267,-0.3312568
0.8752324,-0.04769842,-0.3761987
1.019392,-0.03725851,-0.4552351
1.081635,-0.07125273,-0.4772818
1.14822,-0.1508984,-0.4321236
1.225198,-0.1895398,-0.4260268
1.203544,-0.1499675,-0.4818067
1.177689,-0.122436,-0.6014694
1.19648,-0.1606898,-0.740178
1.22203,-0.2672951,-0.7717485
1.22311,-0.4338634,-0.7678422
1.119198,-0.5337904,-0.7563089
0.9158428,-0.4961259,-0.6291351
0.8232005,-0.475312,-0.5338143
0.8665536,-0.4580166,-0.5249095
0.8930115,-0.3355446,-0.4887192
0.964351,-0.2377609,-0.4879413
1.060564,-0.1909076,-0.4934439
1.057602,-0.1695583,-0.4591031
0.9580277,-0.2363204,-0.4317126
0.7992838,-0.3106481,-0.3664186
0.6793694,-0.3515589,-0.2993257
0.6064836,-0.364931,-0.269164
0.5399829,-0.3310031,-0.243923
0.5384855,-0.2876898,-0.2467077
0.5715013,-0.2263525,-0.2647463
0.596913,-0.1748644,-0.2764318
0.635042,-0.1730205,-0.2743757
0.6510546,-0.1950147,-0.2579281
0.6566896,-0.2516222,-0.2319569
0.6993972,-0.3159723,-0.1882381
0.7610235,-0.3351564,-0.1817709
0.8556888,-0.3292053,-0.2100259
0.9661283,-0.3242493,-0.2098315
1.023589,-0.3082657,-0.2134342
1.081837,-0.3011849,-0.2402873
1.142919,-0.3223701,-0.2940911
1.145727,-0.362322,-0.408095
1.18482,-0.4647019,-0.5330545
1.309912,-0.6041894,-0.5803117
1.410169,-0.6631064,-0.5656221
1.30271,-0.5813689,-0.5565158
0.9827078,-0.4546241,-0.5241261
0.7543987,-0.4499241,-0.4825106
0.7600726,-0.4721095,-0.5080995
0.8671387,-0.4281118,-0.5523156
0.9280462,-0.4272087,-0.574882
0.9059544,-0.4115677,-0.5403124
0.8792507,-0.3481965,-0.4431288
0.8156298,-0.2688021,-0.3999835
0.7342829,-0.153086,-0.3906262
0.707448,-0.08598582,-0.373256
0.6786291,-0.07843002,-0.369946
0.6662608,-0.1039871,-0.3360813
0.6646868,-0.1727375,-0.3146466
0.6816182,-0.2617558,-0.3161248
0.7387757,-0.3498803,-0.3043232
0.7508862,-0.3742127,-0.3054717
0.7424336,-0.3405123,-0.3000192
0.7387755,-0.2481588,-0.3023504
0.7327698,-0.1163007,-0.3212713
0.7585502,-0.08551012,-0.3293846
0.8321089,-0.06015864,-0.3358763
0.922482,0.04216362,-0.334914
0.9189769,0.02471241,-0.3448282
0.9332976,-0.05805537,-0.3818861
1.064063,-0.07779113,-0.4284442
1.095099,-0.1284361,-0.4372169
1.053568,-0.1486893,-0.3860273
1.082398,-0.1339347,-0.3584069
1.093887,-0.1656023,-0.3862769
1.104079,-0.149859,-0.4723899
1.182836,-0.1618551,-0.6226026
1.278588,-0.2370976,-0.7209982
1.290364,-0.3178527,-0.7421247
1.15382,-0.4582111,-0.7673092
0.9745916,-0.5076633,-0.7692173
0.9146754,-0.4789912,-0.6996507
0.9708636,-0.4913646,-0.5858723
1.004669,-0.4222396,-0.5124962
0.988993,-0.315633,-0.5172631
0.9999901,-0.2318951,-0.5113028
0.9813232,-0.1730123,-0.4690493
0.9061778,-0.1604091,-0.4555224
0.8003635,-0.1413869,-0.4159872
0.6554393,-0.1606163,-0.3299533
0.5728922,-0.1915508,-0.2838629
0.5508922,-0.1882503,-0.2742041
0.5296837,-0.1938715,-0.3011892
0.5749807,-0.1900839,-0.3497189
0.6725027,-0.2135959,-0.3672347
0.7928624,-0.2530078,-0.3994587
0.9048944,-0.2590274,-0.4274334
0.9334714,-0.2646921,-0.4072276
0.8972146,-0.2789197,-0.3749946
0.8421371,-0.319731,-0.3028502
0.7978892,-0.3599329,-0.214382
0.7944978,-0.3549246,-0.1952919
0.8364959,-0.328779,-0.2158683
0.8970826,-0.3067008,-0.2304948
0.9450224,-0.3157309,-0.249339
0.9752567,-0.3293866,-0.2533626
0.9910806,-0.322099,-0.236826
1.02077,-0.3246426,-0.2535761
1.086936,-0.33423,-0.3407017
1.214355,-0.3745158,-0.4631439
1.34322,-0.4502291,-0.517051
1.28177,-0.5028034,-0.4954658
1.043945,-0.552845,-0.500022
0.8043371,-0.6029262,-0.5066347
0.7150054,-0.5858697,-0.5151477
0.8535105,-0.543484,-0.5790922
0.9595776,-0.5178488,-0.6071302
0.9186373,-0.4726222,-0.5728991
0.9199846,-0.4146535,-0.5242674
0.9001878,-0.3275646,-0.4678644
0.8664817,-0.2317601,-0.4341515
0.8669431,-0.1861947,-0.4269854
0.8026979,-0.1453847,-0.430864
0.7571156,-0.1182572,-0.4173736
0.7254517,-0.147883,-0.3886897
0.6731914,-0.1963432,-0.3570659
0.6672467,-0.2406991,-0.3049603
0.6689904,-0.2680685,-0.2917023
0.6813094,-0.2915446,-0.3126406
0.710341,-0.3049903,-0.3237091
0.7546884,-0.2680861,-0.3629726
0.7787347,-0.1935498,-0.3795326
0.757001,-0.0961661,-0.3652519
0.7876172,-0.02598956,-0.3818939
0.8499083,-0.02679239,-0.3808032
0.9247901,-0.04431066,-0.3730492
1.008454,-0.07151985,-0.39885
1.050252,-0.1277472,-0.4096112
1.131373,-0.1623952,-0.4075766
1.213169,-0.1679504,-0.4257554
1.220225,-0.1797679,-0.5057779
1.220109,-0.1914491,-0.6498242
1.246697,-0.2042669,-0.7336412
1.271511,-0.2752258,-0.7366908
1.173014,-0.408745,-0.7496619
0.959991,-0.4906895,-0.7183104
0.8214454,-0.5025618,-0.6242868
0.8240447,-0.5173874,-0.5870746
0.9058026,-0.4582361,-0.5794002
0.9600288,-0.3077675,-0.5207281
0.9584437,-0.2002558,-0.4548709
0.9538523,-0.1633302,-0.4077242
0.9453393,-0.1686414,-0.3963358
0.8984266,-0.1832316,-0.4135416
0.7898011,-0.1928797,-0.4039967
0.6611683,-0.2405453,-0.3581716
0.5696377,-0.2845405,-0.2922194
0.564925,-0.2901563,-0.2594098
0.6235114,-0.2951306,-0.2585885
0.6309671,-0.2875,-0.2480142
0.6456394,-0.2545774,-0.2618567
0.6984676,-0.2213458,-0.2705833
0.7053158,-0.214008,-0.2503644
0.7253515,-0.2238085,-0.2285424
0.7629121,-0.2300516,-0.1912465
0.8225591,-0.2458424,-0.1857405
0.9257815,-0.2724395,-0.2245717
0.989536,-0.2919602,-0.2444231
1.064847,-0.3162505,-0.2350017
1.176465,-0.3612416,-0.2176269
1.20011,-0.3826225,-0.224532
1.18168,-0.406681,-0.2937865
1.30064,-0.530941,-0.4518689
1.426149,-0.6315847,-0.5753785
1.288334,-0.5572475,-0.5281755
1.001435,-0.4234527,-0.4923557
0.8149843,-0.3514501,-0.546935
0.8565131,-0.3530042,-0.5424115
0.9624398,-0.3844131,-0.5579317
0.9115382,-0.3910136,-0.5854583
0.9198033,-0.4169487,-0.5093348
0.9467433,-0.4121198,-0.4352536
0.8555423,-0.3187263,-0.3913235
0.8469894,-0.2300373,-0.3800198
0.7908835,-0.1359704,-0.4008475
0.7083546,-0.1088842,-0.3654592
0.7032912,-0.1687727,-0.3426103
0.6304206,-0.1581754,-0.3409246
0.6577622,-0.1932781,-0.3242037
0.7382788,-0.2516603,-0.3397202
0.7377266,-0.2157803,-0.3368185
0.7609786,-0.2212022,-0.3354649
0.7464583,-0.211756,-0.3422533
0.7543958,-0.1757928,-0.3158985
0.778259,-0.1514594,-0.3129247
0.7615171,-0.06426658,-0.3284127
0.8286213,-0.002519358,-0.3506011
0.9380456,0.007633002,-0.3671278
1.038144,-0.03545368,-0.3655191
1.083013,-0.1041641,-0.3782123
1.084223,-0.103949,-0.3968548
1.156243,-0.1298702,-0.4424883
1.201825,-0.1852692,-0.5079887
1.182891,-0.18811,-0.623024
1.192728,-0.1990565,-0.8039019
1.229448,-0.2825852,-0.852249
1.238273,-0.470581,-0.7739523
1.129865,-0.6541393,-0.7129919
0.9404559,-0.6644958,-0.5930721
0.8203752,-0.5586112,-0.4977741
0.7979551,-0.459002,-0.5225741
0.8004056,-0.3285041,-0.5135161
0.846036,-0.1823219,-0.4678204
0.9288983,-0.1261315,-0.4455832
0.9282479,-0.1405236,-0.414878
0.8908246,-0.177418,-0.3951731
0.8465999,-0.2274724,-0.3469073
0.7008238,-0.2724503,-0.2833567
0.5831866,-0.2797102,-0.2788054
0.5820097,-0.2299857,-0.2784443
0.5799853,-0.1879912,-0.2657335
0.5867941,-0.1791079,-0.2681877
0.6517417,-0.2018996,-0.2701975
0.7140519,-0.2564264,-0.2636587
0.7574058,-0.2983775,-0.2456606
0.7901996,-0.348673,-0.2334907
0.7842372,-0.3692825,-0.223493
0.7804854,-0.3272466,-0.2094439
0.8198481,-0.3007258,-0.2072421
0.8975011,-0.2975284,-0.2330215
0.9941093,-0.3192495,-0.2639245
1.032095,-0.3527554,-0.2419565
1.034219,-0.3597883,-0.2323142
1.088637,-0.3711032,-0.3098024
1.19505,-0.43189,-0.4132783
1.363081,-0.541513,-0.4640119
1.459933,-0.592238,-0.4430717
1.276374,-0.5657227,-0.4321795
0.9111454,-0.5702229,-0.4329372
0.633272,-0.5811801,-0.3863195
0.6315273,-0.575141,-0.3994644
0.8263676,-0.5768838,-0.5133439
0.9535833,-0.5412255,-0.6361441
0.9892923,-0.4707969,-0.6649407
0.9415039,-0.3906627,-0.5466168
0.8398078,-0.3175076,-0.4459736
0.8353577,-0.2999176,-0.4462086
0.8067731,-0.3054932,-0.4286445
0.7652102,-0.2834495,-0.3945296
0.7939673,-0.2682547,-0.3758721
0.7533233,-0.2542247,-0.3808431
0.7478986,-0.2283304,-0.4036085
0.75053,-0.2023649,-0.3952672
0.6885611,-0.1416748,-0.3853784
0.7026444,-0.1039983,-0.3758076
0.7494606,-0.1477211,-0.3457152
0.852329,-0.2060032,-0.34134
0.9150268,-0.2611376,-0.3692187
0.8319431,-0.261483,-0.3934216
0.7986179,-0.1353699,-0.3727717
0.8042774,0.013066,-0.3505494
0.8226499,0.05541276,-0.3874245
0.8833127,0.0007178832,-0.4008167
0.9618603,-0.07066591,-0.3522659
1.094875,-0.1328138,-0.3149428
1.127894,-0.1436499,-0.320163
1.063534,-0.07086524,-0.335309
1.071354,-0.0352425,-0.3342701
1.066018,-0.05008112,-0.3638699
1.090667,-0.07294421,-0.4811405
1.284406,-0.1519833,-0.7041894
1.456885,-0.2193315,-0.8660377
1.372348,-0.3219895,-0.7853291
1.146028,-0.5111424,-0.7265768
0.9987903,-0.5772643,-0.7818166
0.892594,-0.5287221,-0.6579979
0.7884881,-0.5489194,-0.5140575
0.8091657,-0.52276,-0.5224978
0.9029119,-0.3525572,-0.5167654
0.9157346,-0.2294377,-0.4954131
0.9094372,-0.2012552,-0.4654834
0.9367508,-0.1778439,-0.4314681
0.900329,-0.1901493,-0.4371232
0.816915,-0.2170285,-0.4209552
0.7033347,-0.2296206,-0.3784745
0.5694321,-0.2504488,-0.3296384
0.5241908,-0.278508,-0.2787163
0.520074,-0.3002172,-0.2414966
0.5473941,-0.2921101,-0.2232666
0.6452518,-0.2546653,-0.2402185
0.7194549,-0.1891253,-0.2853876
0.7707429,-0.1653939,-0.3316443
0.7892985,-0.2348461,-0.3176298
0.8068734,-0.3327066,-0.2517419
0.8815771,-0.4194096,-0.2173583
0.9286774,-0.4405776,-0.2145887
0.9653732,-0.3969603,-0.2208192
1.011891,-0.3728172,-0.2154749
1.052891,-0.3672334,-0.2119586
1.107812,-0.3619243,-0.2499462
1.119177,-0.3843429,-0.3126481
1.117059,-0.4600066,-0.4060858
1.194852,-0.55788,-0.4795384
1.381061,-0.6090533,-0.4726127
1.514191,-0.6077693,-0.4674519
1.302738,-0.563328,-0.4859082
0.8898794,-0.4753825,-0.4759034
0.6933137,-0.4251807,-0.4660698
0.7349932,-0.4424002,-0.4736705
0.8108236,-0.4280932,-0.4717284
0.854933,-0.3716184,-0.4731318
0.8808654,-0.305132,-0.4713235
0.8468407,-0.2110588,-0.4165871
0.7693399,-0.1388534,-0.3411526
0.7612552,-0.1219846,-0.318962
0.7468192,-0.1482855,-0.3378133
0.6748341,-0.1979055,-0.3434156
0.6670776,-0.2348219,-0.3492943
0.7069278,-0.269572,-0.3741192
0.7718166,-0.2874534,-0.3902719
0.8250174,-0.2655471,-0.421091
0.8184082,-0.2286883,-0.4441792
0.8238163,-0.186574,-0.4219416
0.8299988,-0.1727753,-0.4058111
0.8342936,-0.1817699,-0.3708326
0.8432409,-0.1514173,-0.3155148
0.8395456,-0.09152955,-0.3008725
0.8744554,-0.04190112,-0.3003644
0.9421357,-0.01375741,-0.3133181
1.030361,-0.008948349,-0.3568253
1.09783,-0.03848252,-0.3943569
1.148803,-0.09767033,-0.3944856
1.21492,-0.1304597,-0.4114527
1.187172,-0.1288609,-0.5385644
1.163457,-0.1517427,-0.6831198
1.277274,-0.2089663,-0.7179963
1.333326,-0.2963977,-0.7265221
1.198744,-0.3913649,-0.7459535
0.9734151,-0.4112884,-0.6631789
0.8239097,-0.3930563,-0.5183177
0.7939718,-0.4083756,-0.4758784
0.7923874,-0.3839168,-0.5094218
0.7980146,-0.3243262,-0.5082056
0.8242486,-0.2808843,-0.4713186
0.8703243,-0.2464661,-0.4116321
0.9047061,-0.2522309,-0.3619056
0.8712206,-0.2578708,-0.3834104
0.8083093,-0.2472016,-0.4150426
0.7441666,-0.2496557,-0.3668276
0.665945,-0.2309437,-0.3227269
0.5998709,-0.2276365,-0.3248169
0.5734857,-0.2371354,-0.3161528
0.6297466,-0.2318463,-0.3089263
0.7224421,-0.2587098,-0.2667201
0.7527634,-0.3088248,-0.2235244
0.7542863,-0.357924,-0.2489907
0.7839581,-0.3645542,-0.2784844
0.8465522,-0.3378081,-0.301818
0.9016398,-0.3417955,-0.28802
0.9021886,-0.3449196,-0.2279305
0.8967429,-0.3475863,-0.2042039
0.9202075,-0.3734729,-0.2026572
0.9532734,-0.3938201,-0.2016727
0.9744634,-0.3972303,-0.1988105
0.9857811,-0.3903296,-0.2113483
1.075868,-0.4202894,-0.2860853
1.21509,-0.5080366,-0.3952732
1.29065,-0.6184289,-0.4660521
1.378223,-0.6670863,-0.4936835
1.409444,-0.5908127,-0.5838436
1.189172,-0.4947927,-0.6666189
0.9188148,-0.4445781,-0.6199948
0.8082034,-0.409314,-0.5967427
0.7766637,-0.4048095,-0.6198329
0.8431689,-0.3999817,-0.6373265
0.93142,-0.3775431,-0.6796684
0.8742696,-0.3163129,-0.5874477
0.788537,-0.1953081,-0.3878956
0.7429054,-0.1105737,-0.2860653
0.6610958,-0.08918425,-0.2579587
0.5755158,-0.08483405,-0.2463758
0.511244,-0.1000967,-0.2501181
0.5091285,-0.1423947,-0.2717332
0.5848657,-0.1879051,-0.3112842
0.6326007,-0.2017719,-0.3788986
0.6551211,-0.2276105,-0.4543926
0.7315803,-0.2888022,-0.4298251
0.8503771,-0.3217829,-0.3570268
0.9228348,-0.2767958,-0.3413863
0.917808,-0.150426,-0.3666782
0.9361642,-0.001530459,-0.4257176
0.9889577,0.05972621,-0.4288085
1.068896,-0.02581562,-0.3886968
1.162482,-0.09682247,-0.4003301
1.160724,-0.06087252,-0.4299031
1.139699,-0.07454783,-0.5213494
1.16903,-0.1258787,-0.6493157
1.224412,-0.1525249,-0.7045995
1.297151,-0.1936156,-0.6806865
1.236636,-0.2805639,-0.6464461
1.04968,-0.4183559,-0.6948486
0.8973823,-0.4326782,-0.7096681
0.8312839,-0.3616282,-0.6240483
0.8308574,-0.3624256,-0.5439617
0.8171982,-0.2917192,-0.4766062
0.8076041,-0.212244,-0.4709859
0.7729104,-0.2210326,-0.4855695
0.6865369,-0.2243416,-0.4567644
0.7003561,-0.2787288,-0.4200685
0.7430946,-0.339033,-0.3338376
0.7312607,-0.3461669,-0.3002908
0.7440804,-0.3464314,-0.3369244
0.7370763,-0.3220264,-0.3146242
0.7503459,-0.2739003,-0.3136939
0.8151905,-0.1810316,-0.3692235
0.8757247,-0.1449404,-0.416485
0.9171521,-0.2269099,-0.4119874
0.9000246,-0.2864089,-0.3528099
0.8829999,-0.345271,-0.30621
0.8813167,-0.4089882,-0.2736177
0.8665868,-0.4107106,-0.2561508
0.8843344,-0.3751313,-0.2505762
0.883856,-0.3016315,-0.2186096
0.8723536,-0.2757555,-0.181096
0.8821405,-0.3350356,-0.1453038
0.8983948,-0.4064052,-0.1306508
0.9847685,-0.4492093,-0.149513
1.12167,-0.4132543,-0.1956923
1.231861,-0.3921289,-0.3275674
1.286283,-0.4908469,-0.5039406
1.312306,-0.6082522,-0.5740623
1.298134,-0.631419,-0.5341122
1.13396,-0.5467525,-0.5095798
0.9347206,-0.4612387,-0.4965631
0.8937915,-0.4560915,-0.4601818
0.8950639,-0.4470644,-0.4803811
0.8287211,-0.4104251,-0.5081614
0.8242649,-0.4058797,-0.4890796
0.8788189,-0.366408,-0.4801961
0.8572801,-0.2669509,-0.4449057
0.846827,-0.2278322,-0.4081216
0.8354091,-0.2011748,-0.385365
0.7343062,-0.1090232,-0.3094125
0.6939067,-0.09752201,-0.2728471
0.6925633,-0.1539573,-0.3027841
0.6623398,-0.1735492,-0.2981417
0.6730643,-0.2199801,-0.2929154
0.6988819,-0.2351706,-0.3282146
0.733896,-0.2137201,-0.3558047
0.7714891,-0.2521528,-0.360022
0.8172115,-0.2628079,-0.3625247
0.8524106,-0.2545349,-0.3703332
0.8361776,-0.2461491,-0.3721871
0.8367386,-0.1690266,-0.359882
0.852788,-0.1154417,-0.3335898
0.8806416,-0.09335548,-0.2918294
0.9405368,-0.05671198,-0.273027
0.984123,-0.02734743,-0.3141804
1.035006,-0.005459228,-0.3502731
1.106524,-0.03837334,-0.335634
1.147348,-0.0903585,-0.3203621
1.153406,-0.1386089,-0.3333072
1.170182,-0.2006915,-0.3973204
1.225604,-0.2077053,-0.5142904
1.319886,-0.2092903,-0.5903148
1.368278,-0.2778716,-0.623155
1.244662,-0.3724234,-0.7031771
1.048541,-0.4150355,-0.7464473
0.9075705,-0.4156227,-0.6864209
0.8112856,-0.4772788,-0.6173583
0.8341801,-0.5132679,-0.5474858
0.8900328,-0.4467443,-0.4745251
0.8488533,-0.3632037,-0.4506931
0.8575537,-0.2646739,-0.4535714
0.8957471,-0.197434,-0.4421641
0.8784154,-0.1851751,-0.4110102
0.8815885,-0.1667859,-0.3918342
0.8388201,-0.1845251,-0.3837432
0.7803083,-0.2423763,-0.3444704
0.7806777,-0.3120253,-0.2876385
0.7728816,-0.3801089,-0.2425256
0.7736964,-0.3823374,-0.2434009
0.7492015,-0.3340184,-0.2924212
0.7125126,-0.263842,-0.3161906
0.7236436,-0.1879517,-0.29091
0.7311449,-0.1791059,-0.2606255
0.7608078,-0.2236981,-0.2534737
0.8018049,-0.2877455,-0.2358375
0.9797343,-0.04672033,-0.3105268
1.078165,-0.07926772,-0.3599452
1.167612,-0.1141852,-0.4042101
1.207312,-0.1437514,-0.4275289
1.202517,-0.1725775,-0.4740608
1.203259,-0.208262,-0.6051346
1.206519,-0.2523707,-0.7683013
1.196841,-0.3022441,-0.8607057
1.147696,-0.4024515,-0.8852602
1.031616,-0.4906277,-0.8176012
0.9394135,-0.4971202,-0.6693011
0.9380522,-0.4839696,-0.586911
0.9534791,-0.4390763,-0.5599204
0.9624525,-0.3198176,-0.488528
0.9905522,-0.1795481,-0.3979419
0.9941778,-0.08871289,-0.3526525
0.9483498,-0.07805089,-0.3831385
0.8490249,-0.1309654,-0.3988545
0.6792833,-0.2067006,-0.3617034
0.5342284,-0.2715923,-0.321947
0.498158,-0.2950512,-0.2388997
0.4974957,-0.2795907,-0.2029592
0.5064167,-0.286091,-0.2564634
0.5609918,-0.302237,-0.2553743
0.6413464,-0.2834735,-0.2425283
0.7055823,-0.2687332,-0.2550776
0.7445685,-0.2499801,-0.2462443
0.8004709,-0.2291444,-0.2571825
0.8546222,-0.2394975,-0.2691034
0.929501,-0.2455426,-0.274199
1.058297,-0.2541208,-0.2849385
1.09935,-0.2782852,-0.272432
1.117591,-0.2979482,-0.24465
1.198342,-0.3308551,-0.2322534
1.147157,-0.4059707,-0.3087253
1.090554,-0.5381026,-0.4609356
1.172764,-0.6223172,-0.552828
1.20942,-0.5510987,-0.5745414
1.175992,-0.4641071,-0.5912305
1.008812,-0.4192661,-0.582308
0.7839335,-0.3122935,-0.5490432
0.8245917,-0.3040633,-0.5407223
0.9406509,-0.4237097,-0.5451955
0.9241259,-0.4488279,-0.5350776
0.9575259,-0.4482621,-0.5198677
0.9578762,-0.4157231,-0.4842251
0.8947036,-0.2748896,-0.4137135
0.8871743,-0.1951884,-0.3622211
0.8096777,-0.1740051,-0.3725977
0.6802021,-0.1291672,-0.3753862
0.6268881,-0.09998952,-0.356645
0.6598202,-0.1578574,-0.379259
0.7214288,-0.2641911,-0.3833008
0.7258587,-0.2870465,-0.3578034
0.7416029,-0.2849071,-0.3483596
0.745799,-0.2631844,-0.3244987
0.7133504,-0.198458,-0.3160648
0.7364429,-0.1180321,-0.3192036
0.7311771,0.02383629,-0.3194142
0.7554955,0.06127307,-0.3410299
0.8547526,-0.00897981,-0.3404979
0.9047235,-0.02259815,-0.3393442
0.951142,-0.06512977,-0.3556975
1.041896,-0.145482,-0.3623343
1.151873,-0.1884637,-0.3796274
1.164391,-0.1659202,-0.4023226
1.125805,-0.1395054,-0.4613734
1.208396,-0.1755955,-0.5842954
1.291053,-0.2072574,-0.7065385
1.319872,-0.2804741,-0.7633522
1.241529,-0.3775835,-0.7594041
1.031211,-0.377064,-0.7141025
0.9240304,-0.3719426,-0.6183668
0.8986154,-0.4135837,-0.5514344
0.8930736,-0.4169634,-0.5416105
0.9201465,-0.3701722,-0.5142548
0.9023111,-0.3036255,-0.4920011
0.9216668,-0.2575749,-0.4481284
0.936923,-0.251013,-0.3872444
0.8924245,-0.2518699,-0.3933832
0.85086,-0.2484243,-0.3874267
0.7642126,-0.2492153,-0.3391885
0.6804618,-0.238735,-0.3013424
0.6223321,-0.2146164,-0.2702256
0.5739282,-0.1996564,-0.2708193
0.5773193,-0.2079617,-0.2679006
0.5822817,-0.2228836,-0.2305084
0.6249697,-0.2400811,-0.2115827
0.7359623,-0.2819984,-0.2392619
0.8116566,-0.2990668,-0.2935518
0.8210608,-0.2562639,-0.2978746
0.8498016,-0.2364314,-0.2363351
0.9400964,-0.2801569,-0.1779053
0.9869337,-0.3363746,-0.1619095
1.014107,-0.357081,-0.1859891
1.128454,-0.3488807,-0.2099224
1.242295,-0.3610895,-0.2516387
1.286264,-0.4413784,-0.3362025
1.29668,-0.6021336,-0.4274944
1.355658,-0.6982889,-0.4926642
1.403642,-0.5830427,-0.5117882
1.227695,-0.4007215,-0.5723539
0.9384328,-0.3022772,-0.6269281
0.8048853,-0.2717042,-0.5470454
0.8381081,-0.3110153,-0.5063012
0.9088609,-0.3558461,-0.5315707
0.925771,-0.3631176,-0.4885323
0.9085659,-0.3474494,-0.4415503
0.8653321,-0.2661292,-0.4146635
0.8064405,-0.1989287,-0.4161573
0.7537709,-0.1773403,-0.4237509
0.6699785,-0.1433499,-0.3842948
0.6288934,-0.1555047,-0.3504649
0.6471389,-0.1825795,-0.3258067
0.6506618,-0.2065909,-0.3110095
0.6935315,-0.2501737,-0.3161028
0.7460342,-0.2467362,-0.3092506
0.7388915,-0.2213861,-0.3024215
0.7265116,-0.1853562,-0.3001641
0.7354721,-0.1239962,-0.3005927
0.7514244,-0.05454156,-0.3118664
0.7934667,0.02453498,-0.3398999
0.8803169,0.02597251,-0.367164
0.995985,-0.0571567,-0.3764707
1.100387,-0.1129877,-0.4023187
1.126248,-0.1252473,-0.4237031
1.136777,-0.125467,-0.422527
1.200123,-0.1309276,-0.4650494
1.148419,-0.1442183,-0.5839328
1.080133,-0.1640617,-0.7230528
1.207953,-0.2352367,-0.8030179
1.291624,-0.4098734,-0.8634765
1.19807,-0.5700426,-0.8548962
1.001945,-0.5474343,-0.6575484
0.7671337,-0.5157298,-0.5006324
0.7336034,-0.5633923,-0.524375
0.8406491,-0.4440502,-0.5505122
0.8634214,-0.2512844,-0.5425334
0.9197426,-0.1801946,-0.528083
0.9433571,-0.2048485,-0.4845197
0.8657089,-0.29131,-0.3857604
0.8693201,-0.3089765,-0.3063852
0.7809935,-0.3123458,-0.3061563
0.5755434,-0.3451737,-0.2669907
0.5394831,-0.2970146,-0.2682297
0.5931916,-0.2553008,-0.3472997
0.6521912,-0.2052506,-0.3634731
0.733614,-0.1686141,-0.3892854
0.7834476,-0.2062076,-0.3954598
0.7883994,-0.2488006,-0.3274042
0.7391998,-0.3406302,-0.2768011
0.7127176,-0.3825874,-0.2282835
0.7122015,-0.3536203,-0.2107811
0.7277203,-0.3544619,-0.2331247
0.7802224,-0.3056096,-0.2441846
0.8144547,-0.2652351,-0.2606256
0.8873037,-0.2822772,-0.2692037
0.9969866,-0.29487,-0.2887373
1.115867,-0.3015199,-0.316993
1.216342,-0.3051037,-0.3330866
1.213952,-0.3665227,-0.4083792
1.234459,-0.5458697,-0.5059035
1.346904,-0.7570466,-0.5029979
1.389017,-0.7767635,-0.4030566
1.133213,-0.5900001,-0.3327104
0.6906073,-0.4334263,-0.3827829
0.5762524,-0.4020457,-0.4461126
0.730668,-0.4449753,-0.4440882
0.7898266,-0.4542277,-0.488007
0.8612079,-0.4132325,-0.5435027
0.9044448,-0.3925868,-0.4829386
0.8492254,-0.3467219,-0.4115187
0.8557996,-0.302196,-0.4144294
0.8195154,-0.2682666,-0.4116817
0.7183775,-0.1933718,-0.3993708
0.7102864,-0.1614096,-0.40364
0.7319338,-0.1690203,-0.4111293
0.7489187,-0.2012072,-0.4215491
0.7815286,-0.2636621,-0.4068864
0.8009388,-0.2717285,-0.3660941
0.8273339,-0.2737906,-0.3481531
0.83743,-0.2855897,-0.3598412
0.8239036,-0.2394183,-0.3642511
0.820054,-0.164736,-0.3370775
0.8273674,-0.0723715,-0.3164968
0.8443506,-0.008363709,-0.3416692
0.8753878,-0.01624394,-0.359642
0.9283706,-0.02893072,-0.3406972
0.9549658,-0.02540687,-0.331428
0.9426449,-0.04476377,-0.3364662
0.9608047,-0.1006671,-0.3286966
1.001516,-0.1791617,-0.3190913
1.027503,-0.2232912,-0.3257378
1.056094,-0.211393,-0.3589287
1.105094,-0.1980975,-0.4633962
1.189209,-0.1615051,-0.6135854
1.309257,-0.1180129,-0.6844061
1.361728,-0.2099662,-0.6980277
1.261404,-0.3748428,-0.7441841
1.088053,-0.4440076,-0.7553529
0.9044084,-0.4305529,-0.720285
0.8004032,-0.4247068,-0.6773136
0.8459536,-0.4625948,-0.5597643
0.8721051,-0.4667389,-0.4647656
0.8701513,-0.4102571,-0.5081176
0.9534133,-0.3441197,-0.533437
0.9852202,-0.2868569,-0.5005581
0.928133,-0.295117,-0.4914791
0.8507875,-0.3159064,-0.4293538
0.7476646,-0.3020825,-0.3428236
0.6673389,-0.324802,-0.3177882
0.6170646,-0.330337,-0.2929921
0.6042515,-0.3176942,-0.2758356
0.6360172,-0.325198,-0.3074643
0.654819,-0.2843362,-0.3349004
0.6847536,-0.2134019,-0.3252698
0.743329,-0.1704941,-0.3202302
0.7764746,-0.1956257,-0.3571007
0.7771425,-0.2812406,-0.3714323
0.7916822,-0.3772956,-0.3178612
0.83739,-0.4427911,-0.2548847
0.8776243,-0.4207749,-0.2390556
0.9126178,-0.4006647,-0.2609582
0.9701564,-0.4247561,-0.2617858
1.058229,-0.3925743,-0.2598989
1.149116,-0.3607864,-0.2780275
1.18141,-0.3577141,-0.3149382
1.176422,-0.4193542,-0.4248428
1.209474,-0.5738178,-0.5076086
1.236169,-0.6013179,-0.4819687
1.135435,-0.4867971,-0.4716729
0.946487,-0.4053839,-0.4846615
0.7865115,-0.3812729,-0.4626098
0.6912675,-0.394227,-0.4572026
0.7575754,-0.3883152,-0.4945053
0.9177623,-0.3825845,-0.5440487
0.9664528,-0.3877395,-0.5652065
0.9684169,-0.3573051,-0.5319513
0.9608251,-0.3341035,-0.4897027
0.8801457,-0.2795938,-0.4499606
0.7805821,-0.1999878,-0.3829947
0.7257491,-0.1930453,-0.3744622
0.7245904,-0.1985396,-0.4056697
0.6850119,-0.1662515,-0.3776616
0.6680315,-0.1640559,-0.3777562
0.7260952,-0.1960728,-0.3944122
0.7150084,-0.2134558,-0.3572896
0.720302,-0.2403808,-0.3290526
0.743766,-0.2483826,-0.3032019
0.7278018,-0.184556,-0.3044183
0.7851474,-0.1216104,-0.3327306
0.8105382,-0.09423421,-0.3208657
0.8268208,-0.08154675,-0.3244369
0.9051738,-0.05877056,-0.3301004
0.9265938,-0.04639941,-0.3181879
0.977599,-0.08205588,-0.3370092
1.102831,-0.1060266,-0.3648919
1.19689,-0.1487913,-0.4216537
1.23207,-0.2000221,-0.4767444
1.240272,-0.1977373,-0.5265325
1.249667,-0.2260339,-0.624708
1.277528,-0.2385435,-0.683392
1.307042,-0.2309846,-0.7303506
1.194358,-0.293928,-0.7880194
1.000114,-0.3441323,-0.737785
0.911238,-0.3726516,-0.655246
0.8633875,-0.4080929,-0.5928202
0.8747187,-0.4074968,-0.5403221
0.928648,-0.373628,-0.5596927
0.8987862,-0.3245687,-0.5440193
0.8877676,-0.2939,-0.4599515
0.8869985,-0.2890581,-0.3978526
0.8057802,-0.2963658,-0.3536623
0.7287397,-0.2919912,-0.358019
0.6546489,-0.2604546,-0.3531123
0.6121746,-0.2278152,-0.3229632
0.6517623,-0.2095826,-0.3430827
0.6684394,-0.2232122,-0.3284742
0.6660652,-0.2322927,-0.3082865
0.6818033,-0.2237804,-0.3220201
0.6752665,-0.2514641,-0.3032862
0.6765289,-0.2899514,-0.2934531
0.6960388,-0.3292812,-0.263605
0.7498591,-0.3539599,-0.2289985
0.8546317,-0.3352371,-0.2483895
0.9421711,-0.3190968,-0.2632679
0.9995154,-0.3022843,-0.2670762
1.052658,-0.2957591,-0.2466278
1.069414,-0.3348919,-0.2038423
1.075696,-0.3904415,-0.182807
1.111167,-0.4361213,-0.1903613
1.137279,-0.4589413,-0.2945478
1.239821,-0.4876729,-0.481165
1.369886,-0.5155949,-0.569741
1.21048,-0.4949969,-0.5310716
0.9110632,-0.4665094,-0.4981896
0.8088354,-0.4368278,-0.4841226
0.8107616,-0.4057094,-0.5020724
0.8848524,-0.4152041,-0.5775339
0.9961677,-0.4115462,-0.60147
0.9933995,-0.3874806,-0.5664548
0.956143,-0.3629263,-0.5088244
0.9187472,-0.2902369,-0.4232226
0.8495317,-0.2263546,-0.3947369
0.8011731,-0.2102587,-0.3939979
0.7646974,-0.1959165,-0.3571916
0.7453694,-0.1894141,-0.3539355
0.7538172,-0.189367,-0.3778307
0.7642416,-0.1949834,-0.3803714
0.7636163,-0.2218601,-0.3772639
0.7566965,-0.2565601,-0.3421877
0.7319069,-0.2673538,-0.2689453
0.673261,-0.2359408,-0.2356792
0.6529926,-0.1861311,-0.2441109
0.6776217,-0.1149358,-0.2611446
0.6974319,-0.03229636,-0.296502
0.7747053,-0.009412107,-0.3286914
0.9101882,-0.02482163,-0.3823213
1.002396,-0.04358382,-0.4426214
1.000527,-0.123586,-0.427889
0.9986044,-0.2155884,-0.3914797
1.085757,-0.2322762,-0.3970986
1.186217,-0.224986,-0.450638
1.246946,-0.2335238,-0.5687205
1.242473,-0.2371749,-0.690888
1.194006,-0.2335129,-0.7689344
1.151916,-0.2612989,-0.7850857
1.052835,-0.3891729,-0.7185852
0.9790569,-0.5753192,-0.6184608
0.9260687,-0.6511666,-0.5168201
0.7820646,-0.5950174,-0.4907125
0.771545,-0.5274299,-0.5402299
0.8793666,-0.415081,-0.5177407
0.9216779,-0.2896218,-0.5008524
0.9732842,-0.2777534,-0.5161455
0.9557319,-0.2685979,-0.4642937
0.8659571,-0.2434643,-0.438614
0.7743831,-0.2544117,-0.4035907
0.6861785,-0.2356894,-0.3350506
0.6960433,-0.2532677,-0.311555
0.7013618,-0.2802342,-0.2872951
0.6952035,-0.2693209,-0.2879701
0.7485208,-0.2756583,-0.3010257
0.7465691,-0.2541776,-0.3016793
0.7603282,-0.2140612,-0.3223481
0.7976826,-0.1720412,-0.3252081
0.7815252,-0.1727943,-0.3181466
0.7922814,-0.2521874,-0.2805835
0.8117667,-0.2991377,-0.2380777
0.8123687,-0.3045132,-0.2555672
0.8279602,-0.2964285,-0.2621024
0.8565768,-0.2843075,-0.2477092
0.8727557,-0.2731065,-0.2402186
0.8730045,-0.2339558,-0.2205423
0.8882255,-0.2486751,-0.1954247
0.8943994,-0.2842306,-0.1741915
0.8983754,-0.2730949,-0.1777341
0.9327075,-0.2734902,-0.2030627
1.008759,-0.2497506,-0.2434829
1.121795,-0.2396873,-0.3053788
1.165565,-0.3108326,-0.3499185
1.158877,-0.4287437,-0.3512723
1.253084,-0.5377604,-0.3159622
1.363955,-0.5330439,-0.2850783
1.281094,-0.4707679,-0.3500514
1.022779,-0.4666569,-0.4305558
0.7607774,-0.4963293,-0.3883264
0.6705336,-0.5335768,-0.3790467
0.841359,-0.5181899,-0.4919558
1.014852,-0.4493865,-0.6104783
1.007944,-0.3810591,-0.6722405
0.9679069,-0.3308455,-0.6065828
0.8990476,-0.3447398,-0.5088292
0.8622237,-0.3452359,-0.4811873
0.8775695,-0.3017226,-0.4434615
0.8416133,-0.2895308,-0.4425704
0.8581112,-0.2424142,-0.4538475
0.8718981,-0.1986785,-0.4322849
0.8521168,-0.2076558,-0.4608058
0.8536025,-0.1842687,-0.4642293
0.7806788,-0.1768665,-0.4234735
0.7225283,-0.21015,-0.3693065
0.7123205,-0.2525288,-0.2924623
0.7146457,-0.2999821,-0.2814361
0.7437864,-0.2969314,-0.2819092
0.7420594,-0.2469632,-0.2611738
0.7634075,-0.1611384,-0.2805828
0.788618,-0.05213194,-0.2765262
0.8256995,0.01285945,-0.2738225
0.9475341,0.0170308,-0.2925448
1.032054,-0.03297709,-0.2912398
1.067733,-0.09246026,-0.3137796
1.128327,-0.1167567,-0.3296339
1.186978,-0.1636057,-0.3408303
1.22023,-0.247394,-0.4585772
1.225978,-0.2912488,-0.6545372
1.226922,-0.2936236,-0.758369
1.202973,-0.3300472,-0.7327384
1.1202,-0.4175523,-0.6915507
0.9895798,-0.4879342,-0.6203607
0.8828599,-0.4983432,-0.5068807
0.8534444,-0.4846112,-0.4502047
0.8435823,-0.4462266,-0.4436637
0.849498,-0.3397714,-0.4747172
0.8805218,-0.2247891,-0.5031154
0.9092929,-0.1992032,-0.4486491
0.934725,-0.2107979,-0.3761622
0.8957525,-0.1991742,-0.3353309
0.819218,-0.2323529,-0.316467
0.7746756,-0.2726384,-0.3116485
0.7412122,-0.2709316,-0.2985908
0.7248541,-0.2827519,-0.2976134
0.7062675,-0.2653767,-0.3037671
0.7004348,-0.2352956,-0.3033273
0.7191687,-0.2392251,-0.2851121
0.708863,-0.2473195,-0.2401768
0.7126751,-0.2865118,-0.2188763
0.7245892,-0.3223518,-0.2185974
0.7221736,-0.3288837,-0.2126189
0.76306,-0.3142385,-0.2025594
0.8229202,-0.2728417,-0.1869926
0.8947967,-0.2660198,-0.1986077
0.9697362,-0.2784729,-0.2136069
1.024112,-0.2888557,-0.2060418
1.109034,-0.3040423,-0.2255984
1.187957,-0.3043524,-0.2799338
1.21403,-0.3631534,-0.3670178
1.262708,-0.5025829,-0.4485648
1.321545,-0.5950088,-0.4544166
1.229165,-0.5474251,-0.4742645
0.9991875,-0.4730519,-0.5414455
0.8274128,-0.4586421,-0.5219411
0.7753935,-0.4233928,-0.4950215
0.8346991,-0.4102259,-0.5383747
0.9191151,-0.4095255,-0.526505
0.9267185,-0.3670205,-0.4993925
0.909107,-0.3682936,-0.490618
0.8704291,-0.3518633,-0.4675822
0.8529763,-0.3052797,-0.4763727
0.8730136,-0.2600654,-0.448646
0.8492946,-0.1685466,-0.4087902
0.8525753,-0.1732868,-0.4214023
0.853497,-0.2408506,-0.402167
0.8122485,-0.2388979,-0.3654418
0.799985,-0.2569356,-0.3523136
0.7473117,-0.2498712,-0.3563829
0.6679171,-0.20679,-0.3518493
0.6463163,-0.2073839,-0.3295576
0.6864581,-0.2026278,-0.3392202
0.7548204,-0.201173,-0.3436875
0.7956347,-0.1931244,-0.3328449
0.799012,-0.155287,-0.3382025
0.7920763,-0.1175247,-0.3298594
0.8501187,-0.06938168,-0.3312644
0.9470159,-0.04326838,-0.356014
1.030177,-0.04150261,-0.3943667
1.133392,-0.06874753,-0.4279906
1.176349,-0.1313615,-0.4297023
1.163006,-0.1507745,-0.484114
1.169352,-0.1738175,-0.6356564
1.191027,-0.2311955,-0.7701775
1.211391,-0.2639369,-0.7891191
1.138512,-0.3213252,-0.7012653
0.9998201,-0.3987393,-0.5970901
0.9018891,-0.4332004,-0.5585557
0.8668449,-0.4380438,-0.5760847
0.8790038,-0.4312247,-0.5763924
0.8604887,-0.37083,-0.5309641
0.8448801,-0.2837623,-0.4960118
0.8950882,-0.2780076,-0.4744648
0.9339771,-0.2930275,-0.4137848
0.9014871,-0.2725429,-0.3582435
0.8098995,-0.2815425,-0.3674148
0.7222509,-0.2784568,-0.3812666
0.6902728,-0.2580295,-0.3445977
0.6913985,-0.2556208,-0.3171871
0.6787317,-0.2448227,-0.3189398
0.6768369,-0.2505365,-0.3185204
0.698449,-0.2621643,-0.3271676
0.7092882,-0.2593063,-0.3208399
0.7429473,-0.2701063,-0.3042415
0.7590451,-0.2779274,-0.2857699
0.7497663,-0.2858416,-0.2420298
0.8097895,-0.29761,-0.2243306
0.8880517,-0.2885725,-0.2287201
0.9475376,-0.2719582,-0.220059
0.9898136,-0.2622703,-0.2073867
1.007363,-0.2796092,-0.1749729
1.04975,-0.3092717,-0.1492313
1.082057,-0.3125882,-0.1774029
1.105999,-0.3359176,-0.2757683
1.17846,-0.4236579,-0.3891421
1.274981,-0.5618366,-0.4329884
1.31099,-0.6413525,-0.449126
1.197551,-0.5407766,-0.5112383
1.000964,-0.4022628,-0.5674064
0.8677727,-0.3647095,-0.5623946
0.8659553,-0.3562898,-0.5568231
0.9180092,-0.3753815,-0.5697026
0.9232339,-0.3973631,-0.5657993
0.9489957,-0.3875235,-0.548968
0.9429458,-0.375519,-0.4939469
0.8601865,-0.3205096,-0.4254379
0.8314504,-0.2694457,-0.391855
0.7773267,-0.2384203,-0.3793112
0.6909355,-0.1761866,-0.3774816
0.6769337,-0.1476102,-0.3722337
0.6760393,-0.1382915,-0.3756014
0.7092509,-0.1297508,-0.3902791
0.7484717,-0.1585715,-0.4003193
0.744603,-0.196471,-0.4021214
0.7485383,-0.2314935,-0.3616372
0.7501509,-0.2388504,-0.3053253
0.7653615,-0.2091456,-0.2837693
0.7725438,-0.1665673,-0.284597
0.7909605,-0.1298433,-0.2878933
0.923877,-0.09260715,-0.2875228
1.105597,-0.02950371,-0.3020789
1.202272,-0.01425204,-0.3336589
1.215683,-0.0515695,-0.3704261
1.224425,-0.07803575,-0.4118453
1.187751,-0.1667268,-0.4640397
1.130863,-0.2490392,-0.5560889
1.160906,-0.2336938,-0.7002173
1.166439,-0.2906375,-0.833535
1.131259,-0.402067,-0.8047387
1.081117,-0.435065,-0.6579115
0.9517894,-0.4943499,-0.6067399
0.887964,-0.5249548,-0.5912831
0.8795487,-0.4443823,-0.5449429
0.7954896,-0.3794707,-0.5086979
0.774595,-0.3005148,-0.4593259
0.8590307,-0.2376974,-0.4507182
0.9036005,-0.2130377,-0.4038741
0.8854667,-0.1347904,-0.349322
0.826692,-0.168066,-0.3895985
0.7291067,-0.233223,-0.3510487
0.669286,-0.202583,-0.3080439
0.6374933,-0.2371862,-0.3094239
0.5801343,-0.2250295,-0.2678963
0.5733718,-0.2069819,-0.3002149
0.6174764,-0.2624867,-0.3125103
0.6554544,-0.2631422,-0.2824673
0.7101372,-0.3123102,-0.2799477
0.7641421,-0.3489429,-0.2376625
0.7991226,-0.3332929,-0.2362509
0.8589569,-0.3402253,-0.2508913
0.9604241,-0.2935754,-0.2435932
1.06045,-0.2684233,-0.2750057
1.110866,-0.2698739,-0.2915842
1.129506,-0.2978711,-0.2969845
1.154741,-0.3867304,-0.3154909
1.185068,-0.4520436,-0.3444271
1.221008,-0.5039395,-0.3894623
1.202797,-0.5023867,-0.4383045
1.038239,-0.5029584,-0.4810935
0.8259903,-0.5466961,-0.4710138
0.7882753,-0.4829444,-0.4552747
0.8995223,-0.3965255,-0.5122807
0.9371175,-0.3638373,-0.5527459
0.9208158,-0.3306696,-0.5223918
0.9236195,-0.3241254,-0.4890676
0.88231,-0.3080008,-0.4618069
0.864604,-0.2745729,-0.4191821
0.862003,-0.2469898,-0.3770738
0.8220977,-0.2268756,-0.341259
0.7977539,-0.2348943,-0.330232
0.7688804,-0.2331868,-0.3402144
0.7697624,-0.217723,-0.3397342
0.772149,-0.2140593,-0.3465405
0.7368362,-0.2132949,-0.3517795
0.7565682,-0.2272584,-0.3426236
0.7747684,-0.2321828,-0.3458554
0.7705193,-0.2024848,-0.3410018
0.7952262,-0.1538995,-0.3265072
0.8022868,-0.1008808,-0.3240043
0.7024325,-0.2654688,-0.3556869
0.7324708,-0.2938371,-0.3241698
0.7410227,-0.2631322,-0.2950593
0.7455688,-0.1949428,-0.2932509
0.8133378,-0.1380269,-0.284779
0.9009462,-0.07167898,-0.282453
1.024231,0.01222445,-0.3084934
1.120149,0.06596124,-0.3333292
1.15004,0.04245608,-0.3644572
1.197955,0.004567057,-0.3925076
1.199471,-0.04704045,-0.4562203
1.121575,-0.2014674,-0.6193205
1.068224,-0.3172916,-0.7899702
1.097951,-0.3181738,-0.8364259
1.13862,-0.3753206,-0.7874631
1.096779,-0.4730846,-0.7615774
1.026035,-0.5274115,-0.6937115
0.9528207,-0.589557,-0.5475827
0.9058713,-0.5719913,-0.5211086
0.9179857,-0.3876353,-0.5255314
0.8796348,-0.2131647,-0.4179616
0.8649224,-0.1713108,-0.4023916
0.9000208,-0.178994,-0.4287083
0.8414296,-0.1548038,-0.3658168
0.8018133,-0.1450358,-0.355093
0.7545199,-0.2348393,-0.3516686
0.6149426,-0.3294988,-0.2869695
0.5658896,-0.3600401,-0.2578957
0.590567,-0.3411961,-0.2496385
0.581969,-0.2774688,-0.2302705
0.5988654,-0.2565662,-0.2372604
0.6802336,-0.2127018,-0.2746913
0.7536984,-0.163029,-0.2937298
0.7781903,-0.2120871,-0.2768008
0.8225662,-0.241849,-0.2538308
0.8678037,-0.2687413,-0.2307431
0.8992277,-0.2939509,-0.2334423
0.9628691,-0.2830673,-0.249206
1.044496,-0.2955653,-0.246495
1.123892,-0.2774335,-0.2598745
1.155991,-0.2914221,-0.2763966
1.157849,-0.4122233,-0.3233851
1.196824,-0.6311502,-0.4177286
1.254259,-0.7870336,-0.4598472
1.248475,-0.6234749,-0.5066325
1.112766,-0.4133966,-0.5882622
0.9216684,-0.4026114,-0.54854
0.8427524,-0.3846931,-0.4885245
0.8985646,-0.3831783,-0.5371698
0.9362439,-0.4206385,-0.5361261
0.9368831,-0.4061641,-0.494153
0.9510028,-0.4037901,-0.4836768
0.9088948,-0.3647502,-0.4345591
0.8604969,-0.277748,-0.4018822
0.8077296,-0.2106463,-0.3953093
0.7212919,-0.1373456,-0.384848
0.7095124,-0.114858,-0.3981263
0.7196867,-0.1552439,-0.3794027
0.7199902,-0.204112,-0.3499903
0.7336105,-0.259416,-0.3272906
0.7157936,-0.2797466,-0.2971153
0.7172712,-0.2634657,-0.3000255
0.7376247,-0.2294516,-0.2875635
0.7576248,-0.1734725,-0.2831051
0.7719387,-0.1175205,-0.3155401
0.7819446,-0.06899284,-0.3233777
0.8534031,-0.04895657,-0.3309665
0.9612552,-0.07504026,-0.3336742
1.076408,-0.1080227,-0.3376477
1.147184,-0.114907,-0.3685935
1.129912,-0.1036386,-0.3955924
1.130068,-0.1042937,-0.4613704
1.171549,-0.1759716,-0.5702377
1.238138,-0.2845088,-0.6597707
1.290378,-0.3416279,-0.7214153
1.207095,-0.4095584,-0.7411103
1.050595,-0.4771613,-0.6796707
0.9316151,-0.4773492,-0.5774483
0.8651513,-0.4921523,-0.5466404
0.8858865,-0.4737749,-0.5411858
0.9283134,-0.3670207,-0.4808607
0.9487223,-0.2686981,-0.4463192
1.007607,-0.2057688,-0.4371091
1.031989,-0.2049759,-0.4211047
0.9737349,-0.2392005,-0.4237778
0.8832936,-0.2588158,-0.4033103
0.7609068,-0.292736,-0.3476182
0.6758122,-0.2744469,-0.2840833
0.6419734,-0.2215875,-0.2505541
0.5930132,-0.2122466,-0.259968
0.5690625,-0.2068224,-0.253137
0.5727953,-0.2180614,-0.2279309
0.5909826,-0.2249937,-0.2048402
0.637637,-0.2153536,-0.1927325
0.6810708,-0.2349696,-0.2219926
0.7446964,-0.249934,-0.2425276
0.8304552,-0.2644544,-0.2143496
0.9190893,-0.276675,-0.1737821
1.012581,-0.2852061,-0.1523425
1.028649,-0.3258287,-0.1826355
1.045694,-0.3526439,-0.2180407
1.192238,-0.3584965,-0.1941866
1.278961,-0.386768,-0.2003648
1.25099,-0.4892111,-0.3178179
1.245208,-0.6791226,-0.4740838
1.212499,-0.7977816,-0.546703
1.163605,-0.7165727,-0.5266694
1.068982,-0.4812428,-0.5396248
0.8633177,-0.250784,-0.58787
0.7819471,-0.2334801,-0.5861988
0.9060327,-0.3520892,-0.5769702
0.9994156,-0.3859872,-0.5668323
0.9970036,-0.4288221,-0.5404718
0.9715165,-0.4535513,-0.508917
0.8906118,-0.3727926,-0.4184653
0.7868383,-0.3729226,-0.3371766
0.747328,-0.3176778,-0.3470574
0.6800316,-0.1444484,-0.3486109
0.5990314,-0.07104191,-0.3357031
0.6282492,-0.04402002,-0.3640275
0.6692987,-0.1187716,-0.3430196
0.7009142,-0.2651201,-0.3006375
0.7657087,-0.329479,-0.3246789
0.778023,-0.3507033,-0.3295523
0.7763376,-0.2671297,-0.3264046
0.7858645,-0.1425156,-0.3477836
0.7848479,-0.04965335,-0.3428426
0.8302018,0.01263203,-0.3456402
0.9050182,-0.02323748,-0.3268586
0.9909405,-0.04105947,-0.2961453
1.065375,-0.04220025,-0.3117876
1.129792,-0.0849845,-0.312347
1.178366,-0.08993206,-0.310911
1.12289,-0.07871798,-0.36383
1.093189,-0.06897431,-0.4826666
1.149835,-0.07616408,-0.631204
1.162842,-0.148428,-0.7256801
1.156208,-0.3549921,-0.7825975
1.045358,-0.6135839,-0.7936338
0.8418847,-0.6337043,-0.6782674
0.7907093,-0.5172415,-0.5239765
0.8708763,-0.4959227,-0.4826008
0.9136984,-0.3972644,-0.5066398
0.912136,-0.2496989,-0.4855191
0.9456931,-0.2042476,-0.4689523
0.9640748,-0.1788535,-0.4816649
0.8940301,-0.2208367,-0.4482099
0.7990707,-0.2940384,-0.3893914
0.708445,-0.3035234,-0.3324402
0.6599364,-0.3277643,-0.2952528
0.6584473,-0.3241373,-0.3206119
0.649808,-0.297127,-0.3409562
0.6805339,-0.2759707,-0.3525883
0.751558,-0.2024962,-0.3907997
0.8176865,-0.1588793,-0.3990553
0.8787932,-0.1765398,-0.399209
0.9233811,-0.2204711,-0.3821124
0.9321468,-0.2726698,-0.3415271
0.9156707,-0.2994455,-0.3229808
0.9196662,-0.3161605,-0.2807464
0.9061553,-0.303186,-0.239145
0.876064,-0.273465,-0.1982372
0.9114487,-0.267759,-0.1230646
0.9632071,-0.2750496,-0.1120894
1.013737,-0.3044375,-0.1648677
1.085562,-0.3426023,-0.2030053
1.124746,-0.3723049,-0.2440127
1.153291,-0.4300571,-0.3520793
1.221106,-0.5338341,-0.485183
1.265548,-0.5724828,-0.4876026
1.15298,-0.4871689,-0.4441257
0.9368207,-0.4307517,-0.4949302
0.8269688,-0.4410705,-0.5223602
0.8610447,-0.4348122,-0.5462941
0.9490399,-0.4139724,-0.6023585
1.005114,-0.3703179,-0.5780687
1.009762,-0.3236146,-0.5422882
0.9677935,-0.3020073,-0.4975565
0.8622359,-0.2836428,-0.4000519
0.7658552,-0.2600992,-0.346862
0.7321983,-0.2307861,-0.3421787
0.7281839,-0.2040256,-0.3674621
0.7082096,-0.1786743,-0.3684823
0.7036296,-0.1668443,-0.3502976
0.7342665,-0.1496931,-0.3701237
0.7164981,-0.1126431,-0.3515908
0.7164023,-0.1565821,-0.3343607
0.7577302,-0.2352608,-0.321955
0.7671101,-0.2366798,-0.2919289
0.7902479,-0.2273786,-0.3162088
0.7892561,-0.1773825,-0.3147631
0.7949185,-0.05433561,-0.3094097
0.8657432,0.03076669,-0.3339617
0.9528309,0.04185713,-0.3376193
1.044098,-0.002665403,-0.3669886
1.089925,-0.06295847,-0.3677709
1.152908,-0.1140919,-0.3484373
1.243666,-0.1670035,-0.3756706
1.241503,-0.1992356,-0.4581859
1.190369,-0.2355007,-0.6218801
1.147234,-0.2910832,-0.7133186
1.153359,-0.3373035,-0.6976912
1.142187,-0.4133147,-0.7268516
1.003663,-0.4828147,-0.6873109
0.8718134,-0.4765428,-0.5508136
0.8446566,-0.4733873,-0.5190785
0.8831831,-0.4526643,-0.5320106
0.9044875,-0.3724867,-0.5074427
0.8900002,-0.3486687,-0.5042672
0.9278044,-0.3096539,-0.4256494
0.9564449,-0.2217976,-0.3282762
0.9292668,-0.2432957,-0.3605486
0.8701441,-0.2668295,-0.3816612
0.7668034,-0.2129103,-0.3434991
0.7175591,-0.2080422,-0.3488933
0.7158032,-0.2097628,-0.3583225
0.6773734,-0.184318,-0.3498586
0.6706241,-0.1969549,-0.3498877
0.6943363,-0.2472702,-0.2986755
0.6769796,-0.3405111,-0.200175
0.6686363,-0.411705,-0.1633213
0.6888481,-0.391082,-0.189638
0.7110282,-0.3774252,-0.2076988
0.8019012,-0.3612405,-0.2261538
0.9164302,-0.2690811,-0.2549835
0.9480692,-0.240918,-0.2316312
0.9461855,-0.299035,-0.1630439
0.9633519,-0.3177757,-0.133967
1.016407,-0.3177148,-0.1502367
1.092551,-0.3300972,-0.1922865
1.134497,-0.4006307,-0.2719309
1.147336,-0.5700939,-0.4112227
1.225472,-0.6888947,-0.5394426
1.329978,-0.6423686,-0.5577596
1.230535,-0.5047835,-0.559994
0.9906255,-0.3602127,-0.55374
0.8510918,-0.2814806,-0.4933241
0.8333153,-0.3072031,-0.4904027
0.910235,-0.3416518,-0.5039214
0.9403126,-0.3549037,-0.483342
0.869545,-0.3804303,-0.4500313
0.8203744,-0.3438478,-0.3706378
0.7486271,-0.2828326,-0.3147017
0.6792957,-0.2462809,-0.3028354
0.6581924,-0.1882565,-0.3069887
0.6154671,-0.1322809,-0.3340495
0.5981321,-0.08686072,-0.3476016
0.6488554,-0.1123453,-0.3636695
0.7335964,-0.1786366,-0.3744955
0.7836667,-0.1933834,-0.3706228
0.7787045,-0.2264057,-0.3846093
0.7738443,-0.2275622,-0.3757469
0.7805574,-0.1870473,-0.36002
0.8008409,-0.1620036,-0.3656686
0.8372232,-0.1032357,-0.355646
0.8979135,-0.07268474,-0.3560659
0.9643445,-0.05420717,-0.3742788
1.006365,-0.03762456,-0.3799093
1.040047,-0.07554638,-0.3645394
1.063251,-0.07978779,-0.3423713
1.107739,-0.06129309,-0.3559098
1.177587,-0.05424943,-0.3936185
1.213658,-0.06748781,-0.4722749
1.207522,-0.1354326,-0.6288899
1.194502,-0.19367,-0.7576851
1.204958,-0.2394643,-0.7937826
1.181726,-0.3153938,-0.7878971
1.072341,-0.4105311,-0.7370074
0.9107224,-0.4837213,-0.6575056
0.8140642,-0.4969043,-0.6175726
0.8634906,-0.4623968,-0.5833953
0.8897362,-0.3986146,-0.5225812
0.8587199,-0.3265825,-0.5124425
0.8945449,-0.2408583,-0.4983735
0.8979197,-0.2055059,-0.4219108
0.8763772,-0.2695441,-0.4059471
0.8666277,-0.3302583,-0.410719
0.7865923,-0.3784658,-0.3557399
0.7023001,-0.379798,-0.2985289
0.6507475,-0.2830709,-0.2368839
0.6471361,-0.1895129,-0.2346596
0.6781861,-0.1357722,-0.2800856
0.6735092,-0.1488825,-0.2706178
0.7102539,-0.2031536,-0.282408
0.7674231,-0.2410588,-0.2990982
0.7915994,-0.2939823,-0.2849819
0.8392814,-0.3091837,-0.3028969
0.8580411,-0.3054404,-0.2837894
0.8634598,-0.3078606,-0.227644
0.8880393,-0.2659187,-0.1928375
0.9091546,-0.2508678,-0.1897474
0.9837938,-0.2599615,-0.2176957
1.059606,-0.2805104,-0.2177071
1.090674,-0.3413358,-0.2555964
1.129186,-0.4255161,-0.3776184
1.169895,-0.5861328,-0.4936144
1.226162,-0.7026923,-0.5462681
1.243955,-0.6368128,-0.5064178
1.134486,-0.5360163,-0.4762306
0.9857379,-0.4724947,-0.4864803
0.8199399,-0.4035776,-0.4729726
0.6221446,-0.3534918,-0.4960399
0.6586693,-0.3578778,-0.5087437
0.9002458,-0.437228,-0.4980279
0.9720066,-0.497969,-0.5178247
0.9428657,-0.4684893,-0.5112336
0.9201026,-0.422542,-0.4826844
0.8486502,-0.3480747,-0.4192486
0.813795,-0.258348,-0.3635481
0.7654323,-0.2154433,-0.387037
0.7190102,-0.1468794,-0.3898947
0.710654,-0.1078778,-0.360448
0.6953752,-0.1492748,-0.3613458
0.7222955,-0.1614324,-0.3761874
0.7451757,-0.2016551,-0.399679
0.7774917,-0.264667,-0.4132834
0.8136095,-0.2540052,-0.401314
0.8189663,-0.2570725,-0.3918913
0.8405587,-0.2615805,-0.3956901
0.8223199,-0.2264645,-0.387932
0.822777,-0.1721717,-0.3591513
0.8564395,-0.06403988,-0.3202554
0.8855657,-0.02391023,-0.2909447
0.9581341,-0.06606815,-0.2715165
1.006606,-0.06796835,-0.2477876
1.075139,-0.1096004,-0.2428322
1.155745,-0.1966409,-0.2614646
1.156725,-0.2509098,-0.3445342
1.153841,-0.2749408,-0.5315546
1.166871,-0.2585344,-0.6911702
1.179837,-0.2615304,-0.7397271
1.146148,-0.3659131,-0.7383822
1.033746,-0.5092441,-0.7286848
0.9425653,-0.5594716,-0.7208772
0.9409379,-0.5336152,-0.6715518
0.981481,-0.5071979,-0.5878714
0.9730663,-0.4206009,-0.5514009
0.9593608,-0.3005166,-0.5365378
0.9628388,-0.2593952,-0.5023207
0.9078986,-0.2445365,-0.473097
0.8437288,-0.2274118,-0.4347267
0.7791225,-0.2451444,-0.3852924
0.7101387,-0.235862,-0.3488604
0.688564,-0.2224655,-0.3324881
0.6899028,-0.2454662,-0.3416795
0.7060715,-0.2436969,-0.3255476
0.7115238,-0.2402413,-0.2699361
0.6871021,-0.24721,-0.2414709
0.6591543,-0.2533401,-0.2340513
0.6521381,-0.2791914,-0.2314949
0.6984045,-0.277721,-0.2357817
0.7725535,-0.2469254,-0.2338384
0.8472635,-0.2086612,-0.2413251
0.8954526,-0.1797897,-0.2387501
0.9293693,-0.2003709,-0.2166436
1.000557,-0.2346439,-0.2002211
1.060025,-0.2699343,-0.2018892
1.109062,-0.3085516,-0.217117
1.145056,-0.3471756,-0.2440169
1.128672,-0.4561233,-0.3473359
1.155875,-0.5843362,-0.47956
1.222872,-0.588479,-0.5245858
1.218473,-0.4867538,-0.5457234
1.101312,-0.4033805,-0.545906
0.8923413,-0.4000948,-0.4837591
0.7819279,-0.4360704,-0.4642875
0.8795544,-0.4627299,-0.4862928
0.9639917,-0.4793004,-0.4953001
0.9299139,-0.4576294,-0.5081768
0.9038262,-0.3755203,-0.4793498
0.8663989,-0.2849096,-0.4321742
0.7953428,-0.218487,-0.4132847
0.7282317,-0.1653331,-0.3710021
0.645983,-0.1451448,-0.3318908
0.6197316,-0.1740703,-0.3285047
0.6307919,-0.2213901,-0.3266825
0.657327,-0.2663022,-0.3297567
0.7539313,-0.289854,-0.3456258
0.7890503,-0.2548586,-0.3655724
0.7967777,-0.2107492,-0.3661162
0.8495999,-0.1954679,-0.3427979
0.8284733,-0.1618901,-0.3152164
0.8031193,-0.1213278,-0.2925582
0.8073666,-0.06517389,-0.2977487
0.8481795,-0.01026098,-0.3176931
0.9815477,-0.02375915,-0.3386662
1.077825,-0.05509311,-0.3774516
1.121025,-0.07464366,-0.3863313
1.178224,-0.08116294,-0.372897
1.227994,-0.07085114,-0.4007383
1.232399,-0.09572449,-0.44082
1.190338,-0.1533859,-0.5238457
1.201673,-0.2270325,-0.6650218
1.213875,-0.2680802,-0.7078743
1.182077,-0.3249226,-0.6532904
1.174333,-0.4943651,-0.6447161
1.104746,-0.5585415,-0.6259443
0.9773842,-0.4755867,-0.5409066
0.8588205,-0.4534324,-0.4740426
0.8362418,-0.4055668,-0.4612563
0.9092904,-0.3194929,-0.4709944
0.8823079,-0.2577402,-0.4157164
0.8918343,-0.1945838,-0.3325144
0.9749525,-0.2087093,-0.3487328
0.9514373,-0.2059321,-0.3719524
0.9413398,-0.170496,-0.3615861
0.8835423,-0.213092,-0.3772637
0.7721829,-0.222134,-0.351126
0.7196621,-0.2314877,-0.2955394
0.6384295,-0.2746386,-0.2629103
0.6187734,-0.2798526,-0.2580281
0.6454224,-0.3017632,-0.2568704
0.6703851,-0.2966322,-0.2240237
0.7517117,-0.2872259,-0.2234321
0.7834802,-0.3101129,-0.2473989
0.8028571,-0.2944421,-0.2357918
0.8699661,-0.2768543,-0.204077
0.9516107,-0.2598968,-0.1631261
1.028351,-0.2889638,-0.1632662
1.06944,-0.3697254,-0.1677904
1.097157,-0.3931389,-0.1173952
1.088708,-0.4085858,-0.126453
1.096933,-0.452372,-0.258186
1.149051,-0.5408394,-0.4565252
1.169797,-0.6272659,-0.5826678
1.166466,-0.5441132,-0.5669321
1.080729,-0.4132609,-0.5551764
0.9571888,-0.3850997,-0.558588
0.9102512,-0.3645474,-0.5115892
0.8805918,-0.353501,-0.4836632
0.8693395,-0.3685413,-0.4818992
0.8915284,-0.3615473,-0.4889478
0.8905481,-0.336607,-0.4717055
0.8666701,-0.2840637,-0.4175552
0.8163003,-0.2368575,-0.368332
0.7292325,-0.2148696,-0.3208397
0.6671113,-0.1637559,-0.3148235
0.6604668,-0.1149608,-0.3439561
0.6700792,-0.1165932,-0.3641892
0.697518,-0.1538864,-0.3893524
0.7311036,-0.222456,-0.4020098
0.7608988,-0.2957462,-0.3941253
0.7927166,-0.3185759,-0.3556443
0.8048935,-0.2710131,-0.3220209
0.8363206,-0.1986724,-0.3252572
0.8928765,-0.1303217,-0.321959
0.9581129,-0.05501416,-0.3316312
1.052231,-0.02231482,-0.3486076
1.144907,-0.05459142,-0.3543599
1.215618,-0.08248297,-0.3574791
1.220942,-0.08430294,-0.3498584
1.150572,-0.09129912,-0.3842836
1.0833,-0.1233224,-0.5064622
1.073276,-0.1904729,-0.749184
1.15267,-0.2803116,-0.9483701
1.202676,-0.4226678,-0.8497521
1.079695,-0.5860013,-0.6543283
0.9288745,-0.5950674,-0.5740112
0.8939039,-0.5143117,-0.5227167
0.8760585,-0.4816896,-0.5195538
0.8412716,-0.3460912,-0.4959144
0.8575085,-0.1860526,-0.4294633
0.8646122,-0.1792331,-0.4206102
0.8436836,-0.1994799,-0.3771656
0.8180022,-0.2266385,-0.3425488
0.7320079,-0.2690395,-0.344649
0.659835,-0.271448,-0.3129181
0.6435835,-0.2687263,-0.3282453
0.6334525,-0.2603958,-0.3244899
0.6578746,-0.2731192,-0.3014263
0.6807548,-0.2841379,-0.2990364
0.6868373,-0.2668195,-0.2544972
0.7084325,-0.2720716,-0.2533558
0.7346848,-0.2781299,-0.2651772
0.7826144,-0.2971703,-0.2579495
0.8496148,-0.3127774,-0.2657371
0.9264677,-0.2930894,-0.2475022
0.9931496,-0.2929515,-0.2460268
1.021324,-0.3113312,-0.2386219
1.033308,-0.3253834,-0.212112
1.063252,-0.3072232,-0.19362
1.122685,-0.2930224,-0.2019342
1.163902,-0.3761315,-0.3273306
1.201365,-0.5305102,-0.4884947
1.296444,-0.6469148,-0.544073
1.311762,-0.6161837,-0.5248067
1.109295,-0.4849402,-0.5046612
0.8810286,-0.3986094,-0.4814062
0.8756999,-0.3939093,-0.4629815
0.9535616,-0.4280038,-0.5097539
0.9431054,-0.4275407,-0.553711
0.9755565,-0.4263488,-0.5513455
0.9865814,-0.4320998,-0.536486
0.8928133,-0.3675392,-0.4811765
0.8547772,-0.3245709,-0.4320691
0.799255,-0.2938112,-0.3999057
0.6945564,-0.2067167,-0.359346
0.6746082,-0.167627,-0.3590262
0.6848627,-0.1588703,-0.3770431
0.6861925,-0.145988,-0.372742
0.7024694,-0.1680563,-0.3780864
0.7438639,-0.1897392,-0.3965456
0.7658779,-0.1954189,-0.3776284
0.7363785,-0.204819,-0.3485482
0.7277567,-0.2180422,-0.3304189
0.7289376,-0.2092807,-0.3003573
0.7560235,-0.1889508,-0.3083869
0.8339108,-0.1584074,-0.3401063
0.907635,-0.1029446,-0.359496
0.9871475,-0.07734146,-0.3549162
1.031545,-0.06857988,-0.3161235
1.034965,-0.04206578,-0.3034272
1.062624,-0.04161593,-0.3061575
1.092711,-0.07554247,-0.3244006
1.096382,-0.1291296,-0.4026892
1.071993,-0.1839918,-0.528341
1.074469,-0.2074605,-0.6592326
1.164113,-0.2074149,-0.6872698
1.236748,-0.2518597,-0.6693569
1.124387,-0.3406009,-0.7138819
0.9211457,-0.3659071,-0.7128876
0.8668304,-0.3448475,-0.6486966
0.9162847,-0.357367,-0.5806865
0.9217159,-0.3536057,-0.5288604
0.8994328,-0.3156102,-0.5185541
0.8899632,-0.2837876,-0.487274
0.8930096,-0.2648425,-0.4422591
0.885181,-0.2501636,-0.4383946
0.8788717,-0.2217923,-0.4314057
0.8673218,-0.2031219,-0.4167506
0.817691,-0.2060801,-0.4047598
0.7610451,-0.2354269,-0.3820615
0.7109968,-0.2986412,-0.3574782
0.6884777,-0.3102718,-0.3196978
0.6866226,-0.2808394,-0.2980922
0.6728906,-0.2859267,-0.3255793
0.711903,-0.2861861,-0.3385135
0.7806162,-0.2869296,-0.3088258
0.7884033,-0.303617,-0.2843796
0.7836668,-0.3305481,-0.2733453
0.8253974,-0.3710095,-0.2628032
0.8742284,-0.370682,-0.2559707
0.8885734,-0.3413823,-0.2646349
0.8978202,-0.3259765,-0.2793674
0.9302232,-0.3186633,-0.2563432
0.9602617,-0.317724,-0.215411
0.9837817,-0.3061313,-0.2065702
1.01508,-0.2993344,-0.2213146
1.022242,-0.3113192,-0.2388906
0.9975405,-0.3228275,-0.2529375
1.008063,-0.3534375,-0.3122921
1.105564,-0.3969106,-0.4022548
1.217519,-0.4157258,-0.4201004
1.187314,-0.4351298,-0.3983736
1.029155,-0.4848232,-0.343022
0.8867092,-0.5131363,-0.2681648
0.8375798,-0.4787287,-0.3784319
0.9207347,-0.4259934,-0.575142
0.9952216,-0.4051698,-0.5994929
0.9610907,-0.419736,-0.5695733
0.9353938,-0.4407113,-0.5579689
0.8994733,-0.4539632,-0.5131938
0.8681146,-0.4576996,-0.501327
0.8534655,-0.42134,-0.4703425
0.7742191,-0.3546971,-0.4066804
0.764256,-0.3014002,-0.4102244
0.7992226,-0.230974,-0.4286853
0.7665363,-0.1345964,-0.4121442
0.7696713,-0.1197701,-0.4123076
0.7795682,-0.1675807,-0.410093
0.7753888,-0.1558363,-0.3709046
0.7883664,-0.1616327,-0.3547831
0.7608491,-0.2076241,-0.3879731
0.7329452,-0.2259617,-0.4175339
0.7408294,-0.2746039,-0.4117949
0.7632943,-0.2888145,-0.3881477
0.9103205,0.2979596,-0.4455144
0.8674852,0.2259308,-0.4272872
0.9012317,0.196517,-0.4370485
0.874618,0.1668046,-0.3352879
0.8714225,0.1300065,-0.3149211
0.7991287,0.1789095,-0.3318336
0.6737693,0.1868351,-0.2849519
0.5946325,0.1788518,-0.2511923
0.5459245,0.2258652,-0.1936633
0.5336814,0.2257637,-0.1570715
0.559778,0.2152988,-0.1762406
0.6796935,0.1880475,-0.2074027
0.8056093,0.1485217,-0.2379492
0.8676787,0.160111,-0.2394513
0.8966298,0.1674233,-0.21623
0.8574337,0.2103516,-0.1661999
0.8615003,0.2779202,-0.09466825
0.9150365,0.2923426,-0.03420577
0.9791599,0.2820786,-0.02311489
1.095202,0.2476836,-0.05202233
1.178283,0.218333,-0.07190562
1.228062,0.247903,-0.1526771
1.255278,0.3679965,-0.3228147
1.318646,0.5138172,-0.4365364
1.389614,0.5209815,-0.4110203
1.238648,0.3913785,-0.3728296
1.003585,0.2444383,-0.3957453
0.8834497,0.1384044,-0.371912
0.8318639,0.1114587,-0.3565761
0.8506177,0.1645112,-0.3949185
0.8684401,0.2196178,-0.3846388
0.872048,0.2417694,-0.3798137
0.8976492,0.2566435,-0.3810013
0.8645512,0.2608565,-0.3581431
0.7928846,0.2678756,-0.3467719
0.7353214,0.2490122,-0.3064975
0.6875911,0.1763822,-0.2738694
0.6692361,0.1053922,-0.2526595
0.6900466,0.06316856,-0.2415022
0.7504363,0.0446695,-0.2856256
0.8072733,0.03447406,-0.3083718
0.8285342,0.05172625,-0.3123684
0.8451724,0.07550884,-0.3169832
0.8484562,0.05077016,-0.3015488
0.839635,0.03559677,-0.3067141
0.8619915,0.0201149,-0.2972623
0.9302613,-0.01465056,-0.2738706
1.042609,-0.01421431,-0.2587816
1.144928,-0.01826304,-0.2504189
1.183435,-0.02478495,-0.297256
1.205697,0.002457757,-0.3860661
1.257518,0.04160403,-0.514637
1.314616,0.06314409,-0.645265
1.321296,0.07309809,-0.6904476
1.229073,0.1627558,-0.7074716
1.073423,0.3283246,-0.7490158
0.9698638,0.4270382,-0.7570743
0.9765019,0.4166357,-0.6796645
0.9969485,0.3830138,-0.5599663
0.9541036,0.3590137,-0.5073807
0.9124994,0.313649,-0.5014652
0.8937229,0.2524179,-0.4259451
0.8894015,0.192096,-0.3295348
0.8922557,0.1834665,-0.334042
0.8295775,0.2054489,-0.3501076
0.7164391,0.1848779,-0.298062
0.6212446,0.1917265,-0.2703179
0.571839,0.2089657,-0.2372968
0.5788559,0.1858642,-0.1816229
0.6277834,0.1718082,-0.188141
0.7269396,0.1327164,-0.2094962
0.8252672,0.1164301,-0.2275222
0.8640231,0.1385165,-0.2459953
0.8782023,0.1287255,-0.2166945
0.8897672,0.167907,-0.165542
0.920124,0.2452748,-0.09036702
0.9621936,0.2763438,-0.03865288
1.013376,0.2665707,-0.05888999
1.101401,0.260699,-0.08214762
1.162764,0.3253692,-0.1805015
1.200123,0.4251107,-0.3887652
1.265509,0.5066307,-0.5053667
1.265927,0.5154317,-0.4570044
1.13181,0.4018294,-0.3954113
0.9459566,0.2606569,-0.3848285
0.8619413,0.1681209,-0.3687367
0.9084891,0.1461783,-0.3708097
0.9624217,0.1725974,-0.379079
1.003596,0.1961927,-0.3704275
1.033732,0.2422059,-0.3892395
1.001868,0.2784248,-0.3788412
0.9544355,0.2855129,-0.3521709
0.8742093,0.2936781,-0.3417202
0.7649935,0.2490173,-0.2894169
0.6973708,0.1277675,-0.2360862
0.6161593,-0.004130181,-0.1999586
0.6007642,-0.05863788,-0.2103811
0.6678581,-0.0473357,-0.2645304
0.6624234,0.006167854,-0.2683014
0.6711316,0.1132863,-0.266591
0.692568,0.1367316,-0.2707912
0.6874482,0.08742936,-0.2597316
0.7780714,0.09743152,-0.2625574
0.8818597,0.06766069,-0.2495306
1.009473,-0.01308888,-0.253624
1.187933,-0.07557569,-0.2670933
1.199871,-0.1031877,-0.2668224
1.171674,-0.04909225,-0.3077482
1.324621,-0.003293188,-0.3745135
1.393342,0.02356048,-0.452744
1.256483,0.07616397,-0.5876158
1.188399,0.1242971,-0.8145305
1.222455,0.2223874,-0.9385818
1.216564,0.331385,-0.8200409
1.13776,0.4435683,-0.7297831
0.9814675,0.4746873,-0.650626
0.8277965,0.3328163,-0.470349
0.7903245,0.2478778,-0.4189357
0.881832,0.1595854,-0.3820802
0.9658685,0.02831982,-0.2944091
0.9716743,0.02663907,-0.3207718
0.9634697,0.01075452,-0.3270713
0.9008264,0.06619678,-0.3142058
0.7878469,0.2147533,-0.3229925
0.6942925,0.2652262,-0.2651133
0.6235437,0.2941287,-0.1879237
0.5877938,0.2777731,-0.1182895
0.6348294,0.2139815,-0.1289077
0.7805155,0.1036213,-0.2030882
0.8803892,-0.01235536,-0.2274879
0.889765,0.02654735,-0.2396011
0.9104961,0.08422696,-0.2221979
0.9214859,0.1443303,-0.1824231
0.9163103,0.2351212,-0.1345037
0.9140589,0.2218387,-0.05095703
0.9221724,0.1970692,-0.03259368
0.9640184,0.1699924,-0.04101293
1.038164,0.1161649,-0.0188026
1.104942,0.1285099,-0.07170998
1.104776,0.2054663,-0.2448228
1.115299,0.372299,-0.4967155
1.180386,0.5506065,-0.6145828
1.197188,0.535086,-0.54614
1.109322,0.3348072,-0.5478862
1.001193,0.143609,-0.5838314
1.03562,0.08627581,-0.5366549
1.071039,0.1392881,-0.5034122
0.9729746,0.1894516,-0.4284948
0.9450008,0.2239197,-0.3088439
0.9629655,0.257229,-0.2697017
0.9405519,0.2022631,-0.2747423
0.9024842,0.1225734,-0.2877148
0.8015353,0.06219223,-0.3014676
0.7280249,-0.00596858,-0.2992226
0.6942828,0.01310074,-0.3058854
0.6683549,0.1043543,-0.2965458
0.6910692,0.2554775,-0.2832851
0.7079563,0.3507082,-0.2969157
0.7590456,0.2641938,-0.3122729
0.8256593,0.164328,-0.331171
0.8366116,0.009886711,-0.3446768
0.8442435,-0.1550748,-0.3444871
0.8465866,-0.1265793,-0.3458695
0.9062213,-0.06618252,-0.3491371
1.017876,-0.01354445,-0.356794
1.054345,0.04903436,-0.364672
1.071894,0.04853072,-0.3627672
1.147166,0.06392758,-0.3645616
1.224374,0.06018945,-0.4057005
1.226615,0.04041863,-0.5199271
1.205145,0.06711953,-0.6931498
1.23063,0.1492191,-0.8130334
1.21863,0.3324749,-0.8104906
1.13432,0.4443945,-0.7487916
1.022219,0.3910193,-0.6454572
0.9501207,0.3403764,-0.5271378
0.9265323,0.2881087,-0.4739309
0.8801783,0.2141192,-0.4577652
0.8914972,0.1881019,-0.4367536
0.9423592,0.1831219,-0.4263324
0.9166088,0.2039392,-0.4153844
0.8609298,0.2516042,-0.3740374
0.7653805,0.2625515,-0.322119
0.6720156,0.2373952,-0.296206
0.6095271,0.1977835,-0.2504991
0.5445917,0.1552043,-0.1996222
0.5890677,0.1271496,-0.2150463
0.6645715,0.1062255,-0.2264649
0.7183243,0.1082394,-0.2222608
0.8205871,0.128889,-0.2541266
0.8338996,0.1401192,-0.2411097
0.8134173,0.1667769,-0.1918883
0.8394769,0.2130233,-0.1515326
0.8529343,0.2633416,-0.08822328
0.928914,0.3009,-0.07232961
1.02466,0.2917844,-0.09925597
1.10826,0.2552683,-0.09888466
1.174812,0.2300152,-0.1170517
1.165058,0.2540804,-0.2070391
1.178291,0.3478378,-0.4104027
1.19628,0.4310818,-0.5680226
1.170333,0.4437777,-0.4923332
1.177988,0.4489952,-0.4061241
1.14905,0.4457976,-0.4230644
1.013683,0.325656,-0.3814606
0.8593286,0.1528827,-0.3625235
0.8356549,0.09420542,-0.4158335
0.9199023,0.1181783,-0.4503931
0.9403763,0.1517558,-0.4738809
0.9596626,0.2186739,-0.4586212
1.010401,0.3062139,-0.4386738
0.9646538,0.3410909,-0.4212059
0.8735654,0.3045249,-0.3402319
0.7455704,0.2424732,-0.2675077
0.6052393,0.1423105,-0.2085115
0.5645921,0.03787695,-0.1754418
0.5611872,-0.004035143,-0.2090466
0.6130083,-0.02975504,-0.242496
0.7126145,-0.03615561,-0.2905866
0.7431217,0.01129517,-0.3170464
0.766038,0.07693016,-0.2983148
0.7859188,0.1095427,-0.2990478
0.8100905,0.08351625,-0.2736421
0.9221148,0.05252342,-0.2534919
1.024686,0.03309263,-0.2754182
1.083658,0.00938042,-0.2939699
1.165777,-0.007353663,-0.3421273
1.217815,-0.04176069,-0.4040674
1.22447,-0.02800885,-0.48796
1.229346,0.06566752,-0.6546568
1.2228,0.1544841,-0.775255
1.202801,0.267226,-0.7452489
1.146897,0.4105682,-0.709226
1.042909,0.4745229,-0.6937063
0.981823,0.4151304,-0.5841268
0.9845183,0.3413998,-0.5021687
0.9858877,0.3130347,-0.5086236
1.003201,0.2292036,-0.4713794
1.037045,0.1639162,-0.4369874
1.030367,0.1804051,-0.4301309
0.9626452,0.1735129,-0.3773595
0.8454883,0.192714,-0.3161183
0.7279121,0.2275985,-0.2636464
0.6478915,0.230283,-0.2175241
0.6035688,0.2195266,-0.1972297
0.6138937,0.1434949,-0.182419
0.6536187,0.06643244,-0.1610623
0.6898836,0.04307065,-0.1729256
0.7547213,0.04926487,-0.2076619
0.797405,0.1002467,-0.1941517
0.7878596,0.1841102,-0.1684057
0.7967096,0.2528714,-0.1364092
0.8241983,0.2551099,-0.08172356
0.8843308,0.24842,-0.09347616
0.9831663,0.2494452,-0.1072491
1.063772,0.2257683,-0.06756238
1.108033,0.2555207,-0.1101726
1.096657,0.3657984,-0.3173417
1.115255,0.5386317,-0.5492208
1.261138,0.6113362,-0.5272325
1.355845,0.4454667,-0.4149852
1.196534,0.2368705,-0.47347
0.9613668,0.1036417,-0.4531139
0.9374007,0.0348654,-0.3970441
0.9866081,0.06394354,-0.4348414
0.9678418,0.1593245,-0.3954655
1.009971,0.2974575,-0.4058406
1.013009,0.3678478,-0.4274906
0.9465896,0.3134789,-0.3758432
0.934065,0.2765465,-0.3868154
0.9104001,0.2186153,-0.3502877
0.8484847,0.08467239,-0.3031013
0.7343383,0.03410675,-0.2765792
0.6323217,0.05999077,-0.2172611
0.6165467,0.07318424,-0.2277633
0.6305051,0.09074029,-0.2353237
0.7163859,0.08553949,-0.2693308
0.7773188,0.06754391,-0.3274221
0.7515593,0.05759315,-0.2971253
0.7641543,0.0468715,-0.2913858
0.7923152,0.07573807,-0.292455
0.8624757,0.1191682,-0.2587458
0.9625538,0.113762,-0.2370636
1.033607,0.04318239,-0.2146166
1.129819,-0.05343276,-0.2332316
1.227615,-0.08215762,-0.2998167
1.300837,-0.06724119,-0.4247386
1.316671,-0.1093505,-0.5940193
1.286148,-0.1403953,-0.7313097
1.230711,-0.03400394,-0.8063647
1.083195,0.1791742,-0.7992014
0.9478939,0.3326299,-0.7244114
0.9204333,0.3186353,-0.6133346
0.9265928,0.2715118,-0.5377668
0.9286196,0.2755682,-0.5233783
0.9318476,0.18697,-0.4688983
0.9506928,0.06771936,-0.4163918
0.9686148,0.06253742,-0.4365398
0.9797209,0.09508092,-0.4669973
0.9962421,0.1328328,-0.5039239
0.9665494,0.1697307,-0.5070917
0.8359518,0.2054369,-0.4164418
0.6840497,0.2648578,-0.3295279
0.6718934,0.2663323,-0.3336826
0.717118,0.2378865,-0.3340891
0.6871559,0.2390299,-0.2776366
0.7297296,0.1983113,-0.281606
0.8028928,0.1522045,-0.3021261
0.7339941,0.1322403,-0.2462866
0.6689019,0.08967296,-0.2147798
0.6775129,0.08755943,-0.2118266
0.7333889,0.1171513,-0.2115053
0.9149067,0.09798343,-0.2297924
1.061312,0.09770754,-0.2258797
1.029512,0.1351655,-0.2178697
1.028385,0.2106044,-0.1765322
1.108906,0.3208576,-0.1232386
1.090126,0.3236187,-0.1897228
1.08887,0.3696476,-0.4040516
1.189512,0.592569,-0.646512
1.213922,0.6425926,-0.6666213
1.200292,0.4293654,-0.5342603
1.104654,0.1916317,-0.5193243
0.9304125,0.05778847,-0.4975473
0.9585083,0.06183327,-0.4611745
1.012047,0.109567,-0.4877276
0.9528747,0.186231,-0.4265888
0.979919,0.2820238,-0.3877827
0.9813712,0.293441,-0.4001379
0.9283295,0.2751578,-0.3672286
0.8853655,0.2625806,-0.3780896
0.7762168,0.2106619,-0.3506517
0.6678078,0.1222047,-0.2920738
0.6003215,0.05854312,-0.2884669
0.5839273,0.0836397,-0.2893614
0.6443217,0.1415586,-0.3353809
0.6923868,0.1965247,-0.3694145
0.6921727,0.2135969,-0.3393628
0.6775234,0.1718066,-0.3067658
0.675468,0.1120762,-0.290906
0.7010514,-0.01185556,-0.2992246
0.7769438,-0.08821079,-0.3042786
0.9194987,-0.04241287,-0.3371245
1.034635,-0.02384991,-0.3943904
1.098618,0.01640637,-0.4186202
1.183039,0.08247003,-0.4320644
1.259352,0.08363816,-0.4450295
1.301954,0.06708517,-0.4917141
1.290312,0.01733963,-0.6093259
1.238705,0.01154841,-0.7652593
1.212568,0.1597277,-0.8640684
1.155471,0.3614229,-0.8684507
1.031145,0.458106,-0.8043597
0.9132051,0.4230802,-0.6587479
0.880708,0.3839874,-0.5739205
0.9245718,0.3122075,-0.5734297
0.9287527,0.1901225,-0.5147943
0.9083674,0.1703491,-0.4732239
0.908147,0.1655078,-0.4090188
0.8574869,0.1473352,-0.3227146
0.7659094,0.2044968,-0.3382229
0.6645412,0.2402114,-0.319453
0.5991871,0.2705821,-0.280517
0.6049698,0.2925561,-0.2873351
0.6281059,0.2390197,-0.2515655
0.6733079,0.1758124,-0.2509808
0.7300595,0.111746,-0.2710169
0.7650569,0.08052051,-0.2431773
0.7983593,0.1081724,-0.2324433
0.8220355,0.1414664,-0.2137474
0.8484881,0.1944486,-0.1734132
0.890593,0.2165081,-0.1301716
0.949625,0.1916509,-0.07680385
1.037362,0.2049436,-0.06471945
1.126732,0.2273285,-0.07879406
1.198896,0.2327381,-0.09141986
1.227647,0.2683757,-0.1825939
1.204513,0.404344,-0.3845885
1.191341,0.6079215,-0.5446113
1.204084,0.6243382,-0.5055679
1.184242,0.4321058,-0.4593702
1.08797,0.2676626,-0.5322259
0.949273,0.160041,-0.4925894
0.8594085,0.1238722,-0.399758
0.8422079,0.1463706,-0.3809589
0.8550956,0.1522878,-0.3577385
0.8840421,0.2154651,-0.3868464
0.8902096,0.2649588,-0.3928323
0.850798,0.2506007,-0.3676339
0.8067834,0.2494665,-0.3906124
0.747253,0.1993983,-0.3454106
0.682765,0.145191,-0.3071129
0.6622446,0.1169912,-0.2943518
0.6837565,0.08330011,-0.2625764
0.7327473,0.0917218,-0.2988681
0.786478,0.08920794,-0.3218698
0.8200468,0.07065252,-0.333699
0.8045724,0.0413353,-0.344186
0.7926893,-7.630051e-05,-0.3097613
0.8412636,0.01284464,-0.2938954
0.9080142,0.02469218,-0.2752811
1.017921,0.01528083,-0.2919467
1.125618,0.007795754,-0.3292279
1.16891,-0.005965279,-0.3225582
1.207914,0.03142124,-0.3508225
1.22125,0.08618767,-0.3917552
1.225274,0.08919858,-0.4613487
1.225442,0.08079043,-0.6050878
1.194896,0.1055988,-0.7075881
1.185803,0.1805368,-0.7382697
1.125915,0.3241161,-0.7264005
1.028637,0.4511454,-0.6567138
0.9982647,0.4319185,-0.5778198
0.9536208,0.3532937,-0.54029
0.8774209,0.323206,-0.5183017
0.8541383,0.2913818,-0.4766654
0.8647129,0.2808274,-0.4266953
0.8513851,0.3068224,-0.3931866
0.8275728,0.3181906,-0.3679551
0.7963069,0.3122286,-0.3582587
0.7242851,0.2856474,-0.3544231
0.651339,0.2668148,-0.2940186
0.6363894,0.2671337,-0.2461346
0.6745595,0.240839,-0.262087
0.7178415,0.1636527,-0.2270794
0.7746978,0.08385662,-0.1783123
0.8276688,0.09070064,-0.1874048
0.8501011,0.104259,-0.1892786
0.9398762,0.06307128,-0.1859875
0.9877109,0.08340204,-0.1815492
0.9405674,0.1404043,-0.1382088
0.9774816,0.196554,-0.05124574
0.9911399,0.2640455,0.03038039
0.993592,0.2714095,0.03040254
1.088643,0.2957657,-0.08070045
1.137757,0.4419444,-0.3294923
1.190674,0.6148559,-0.5477223
1.234136,0.6397162,-0.4975517
1.178144,0.5140586,-0.445745
1.085013,0.3759436,-0.5557079
0.9614221,0.2130759,-0.5119213
0.9163952,0.1266044,-0.4286578
0.9221192,0.1880694,-0.4384489
0.854362,0.1957586,-0.3616069
0.8756833,0.239092,-0.3665026
0.9164472,0.330846,-0.399184
0.8284562,0.3035562,-0.3318905
0.7848209,0.2969426,-0.3522698
0.7573658,0.2665476,-0.3354215
0.6600447,0.1534401,-0.2762589
0.601051,0.07416199,-0.2754794
0.588976,0.0147413,-0.2439556
0.5976749,0.02341143,-0.2570168
0.6307867,0.07702922,-0.2769282
0.6981126,0.1289791,-0.2885933
0.7795437,0.1731902,-0.337388
0.8284115,0.1484062,-0.3500999
0.8801548,0.1145472,-0.3652977
0.9696451,0.06552603,-0.3347879
1.103367,0.006504592,-0.2718567
1.217247,0.004632349,-0.282547
1.255966,-0.02263807,-0.3036094
1.29014,-0.05385715,-0.3507101
1.300815,-0.02015148,-0.4765169
1.255365,0.05065568,-0.6558942
1.216775,0.1566178,-0.7776958
1.187815,0.2588108,-0.7554812
1.117174,0.3598296,-0.7337013
1.034173,0.4458244,-0.7211439
1.042372,0.3981815,-0.6110929
1.028632,0.3120247,-0.5256827
0.9406319,0.298469,-0.4868665
0.9898283,0.2279002,-0.4392777
1.047646,0.1556524,-0.442443
0.9723428,0.1750733,-0.4457521
0.8973247,0.205623,-0.4321984
0.7586292,0.2657317,-0.4189972
0.6253122,0.3210798,-0.3542661
0.6117,0.3295988,-0.2922422
0.5906023,0.3126645,-0.2255304
0.6037523,0.2133625,-0.1518611
0.6664538,0.06325467,-0.1497523
0.7158624,-0.05480664,-0.1568902
0.7724008,-0.07987394,-0.1458946
0.7670067,-0.01992741,-0.1225566
0.7489538,0.06376669,-0.05252105
0.781767,0.1746796,0.01840545
0.8443887,0.2160848,0.03561016
1.008141,0.1651101,-0.004998545
1.177505,0.1661264,-0.03271599
1.23632,0.2250435,-0.03662274
1.2464,0.3095877,-0.1232906
1.255784,0.4456645,-0.347082
1.334149,0.6067445,-0.5575199
1.407621,0.6686067,-0.5233947
1.297822,0.5586183,-0.4396094
1.094349,0.4016142,-0.4798271
0.9586636,0.266747,-0.3957667
0.9033169,0.1569251,-0.3334322
0.9164152,0.1451118,-0.384509
0.9284768,0.1835432,-0.3240611
0.8870522,0.2136433,-0.331717
0.8537811,0.2498319,-0.3578933
0.8246204,0.2451699,-0.296873
0.7807797,0.2112085,-0.3134753
0.7421089,0.1739787,-0.2786022
0.6789871,0.1210692,-0.2445166
0.6257588,0.08549411,-0.2509809
0.6192726,0.06776295,-0.2090056
0.6615809,0.06948923,-0.2484408
0.7424623,0.08495783,-0.288082
0.7954701,0.08443723,-0.3283795
0.7725635,0.1468132,-0.3237669
0.6849218,0.1422684,-0.3171001
0.6711272,0.1585957,-0.2882283
0.6605659,0.1698814,-0.2885503
0.7152775,0.159741,-0.2691281
0.8252848,0.117605,-0.2795565
0.8133902,0.06937119,-0.2819597
0.7376565,0.03768353,-0.2535638
0.6373201,0.01933277,-0.2317473
0.5987611,0.004529002,-0.1946405
0.6339205,-0.01730284,-0.186556
0.6915163,-0.0499151,-0.216291
0.9066659,-0.03611664,-0.2561278
1.136588,0.009861174,-0.2958658
1.166003,0.00960982,-0.3182495
1.168468,0.03813287,-0.3576109
1.274554,0.1000717,-0.4189498
1.332136,0.1003618,-0.4769077
1.315948,0.06049565,-0.5445494
1.328014,0.03292722,-0.6431291
1.275264,0.1238903,-0.7382345
1.145893,0.3028932,-0.7579373
1.024316,0.3996721,-0.7306733
0.9564961,0.4238676,-0.6909384
1.013563,0.3789792,-0.6031194
1.036786,0.278804,-0.5191969
0.9387107,0.2137675,-0.4668015
0.8889463,0.1728762,-0.3938524
0.9085113,0.1630506,-0.3419595
0.9117798,0.1705485,-0.3295896
0.8429854,0.1699138,-0.3057169
0.730632,0.1837351,-0.2719638
0.6325101,0.1849848,-0.2315921
0.5685444,0.1864689,-0.2124857
0.5743725,0.1839761,-0.2217095
0.6129904,0.154181,-0.2010607
0.672623,0.1291158,-0.1853099
0.7718653,0.1133752,-0.2134127
0.8606664,0.1237169,-0.2313592
0.895684,0.150254,-0.2160884
0.8622976,0.1913004,-0.1868626
0.8538056,0.269837,-0.1549923
0.9035277,0.3173862,-0.1059489
0.9478412,0.3135021,-0.05735936
1.035488,0.2802361,-0.05508669
1.146217,0.2258506,-0.07246782
1.212816,0.2224989,-0.08621175
1.233705,0.3197852,-0.1683813
1.238855,0.5004409,-0.3611521
1.314336,0.6255561,-0.5177955
1.370039,0.5753336,-0.4968596
1.235551,0.4501569,-0.4418827
0.9892452,0.3069884,-0.4377335
0.8069484,0.1698266,-0.3646942
0.7609105,0.161501,-0.3317653
0.8210012,0.2022019,-0.3940711
0.9014228,0.2024114,-0.3981447
0.9574435,0.2439673,-0.4128046
0.9995899,0.2624291,-0.4211557
0.9951966,0.2404915,-0.3594479
0.9213041,0.2299755,-0.3421278
0.8025817,0.1627056,-0.3136175
0.6840326,0.109213,-0.2812783
0.6129199,0.108726,-0.257083
0.5582547,0.09100036,-0.1815997
0.5872624,0.08885435,-0.199876
0.7076222,0.08293263,-0.2572481
0.7356797,0.06789803,-0.2572027
0.7460196,0.07202798,-0.2676578
0.7937915,0.05158225,-0.2543155
0.7987016,0.02295316,-0.2624938
0.8674767,0.02066822,-0.2781031
0.9848551,0.02704074,-0.2496393
1.090578,0.01795887,-0.2460522
1.185528,-0.003639643,-0.243304
1.222011,-0.01043898,-0.2555139
1.23603,0.01980926,-0.3183393
1.24824,0.08840191,-0.4250916
1.278183,0.1480912,-0.5702218
1.308544,0.20317,-0.6696646
1.24777,0.2970216,-0.7296953
1.091863,0.3618041,-0.754516
0.9149335,0.3547294,-0.7045803
0.8708861,0.350146,-0.6486287
0.9492303,0.3594696,-0.5593822
0.9458725,0.3197603,-0.4344934
0.8687478,0.2521228,-0.3695636
0.8456034,0.2135796,-0.347213
0.9269796,0.1917108,-0.3632789
1.024606,0.1665057,-0.3950508
0.9643142,0.1650555,-0.3880415
0.8148747,0.2007336,-0.3584433
0.7169875,0.2198839,-0.3104189
0.6800812,0.2182782,-0.285287
0.6778265,0.2246217,-0.25042
0.626439,0.2115641,-0.1686188
0.6514357,0.1903422,-0.1734755
0.7702412,0.1601336,-0.2065161
0.781117,0.1255774,-0.1811999
0.8342106,0.1114297,-0.2051951
0.8699503,0.110371,-0.2051458
0.7962605,0.1645347,-0.1444522
0.8497427,0.2387361,-0.1036926
0.872214,0.2690046,-0.07076451
0.907515,0.2607003,-0.1014535
1.103733,0.2393687,-0.1416455
1.193269,0.2817145,-0.1458333
1.222563,0.3812538,-0.2684848
1.271961,0.5313079,-0.4361273
1.341492,0.6209603,-0.4851937
1.418152,0.4694907,-0.4908996
1.257875,0.2671852,-0.5188581
1.006774,0.145653,-0.5053694
0.9106214,0.07610502,-0.4657204
0.869644,0.1332732,-0.4628209
0.8642054,0.2127842,-0.4454382
0.8978405,0.2964177,-0.4219771
0.909318,0.3936962,-0.4080063
0.8969205,0.3654375,-0.3763423
0.8710619,0.3068248,-0.375023
0.8252115,0.2618491,-0.357195
0.7633095,0.1469614,-0.3155249
0.6723538,0.02937238,-0.2757029
0.5868649,-0.02703013,-0.2043943
0.5922788,0.02271235,-0.1998517
0.6163912,0.1174828,-0.2366004
0.6197902,0.1648023,-0.2319881
0.6818023,0.1796953,-0.2625569
0.7390445,0.1360308,-0.3062767
0.7725837,0.08361385,-0.3133303
0.8329412,0.0302586,-0.3037809
0.8932791,-0.04777444,-0.2827152
0.9766703,-0.0447867,-0.2626508
1.070212,-0.01826091,-0.2598056
1.155081,0.002568224,-0.2848551
1.275388,0.03678607,-0.3280193
1.357367,0.009920746,-0.4046141
1.339619,-0.01489318,-0.5426801
1.286144,-0.01769536,-0.6752039
1.230443,0.07798995,-0.7224607
1.133851,0.31569,-0.7422265
0.9556292,0.4528525,-0.7735924
0.8427794,0.4339186,-0.7073467
0.946061,0.3821808,-0.6022696
1.034184,0.3326928,-0.5925363
0.9749228,0.2629998,-0.5432043
0.9748262,0.1795207,-0.4214142
0.9953454,0.1684531,-0.3587807
0.9582954,0.1822008,-0.3324925
0.9454655,0.1672993,-0.3205734
0.8695708,0.1749198,-0.329015
0.7749612,0.1760976,-0.3091402
0.7626503,0.1688127,-0.2618642
0.7427953,0.1626856,-0.2297434
0.7439764,0.1186644,-0.2146765
0.774298,0.06103961,-0.2007473
0.7815927,0.04591781,-0.2003717
0.7966729,0.08004324,-0.2053789
0.7967079,0.1199,-0.2035801
0.7819741,0.1576599,-0.197999
0.7804508,0.2133084,-0.1659601
0.808505,0.240845,-0.1097771
0.8650559,0.2137649,-0.08173625
0.8976433,0.1711913,-0.08960951
0.9362438,0.1188863,-0.07925974
1.002654,0.08548264,-0.0739737
1.052941,0.1287185,-0.1389573
1.133205,0.2287275,-0.2771019
1.261742,0.3702403,-0.4462377
1.320036,0.5045584,-0.5269719
1.215695,0.5213561,-0.5064952
1.040604,0.45179,-0.504718
0.9362673,0.3490914,-0.48396
0.9157014,0.1920462,-0.4155976
0.9518868,0.07626345,-0.3940066
1.010201,0.09894551,-0.4068202
1.053477,0.1661992,-0.3951362
1.050941,0.1819996,-0.3494258
0.9945839,0.205923,-0.2832682
0.9647665,0.2193434,-0.2313105
0.9354282,0.1613219,-0.2232855
0.8483668,0.09925041,-0.2352055
0.7811711,0.04802119,-0.2193113
0.7316841,0.0351968,-0.2143475
0.6877379,0.06435085,-0.2396497
0.6836838,0.0934515,-0.274241
0.7044317,0.1799106,-0.334597
0.7228918,0.2288221,-0.3605096
0.7336047,0.1896794,-0.346568
0.7823145,0.1536774,-0.3522209
0.8617253,0.08064452,-0.3514702
0.9451902,0.03756208,-0.3553941
0.9972213,0.05560578,-0.3639433
0.9884859,0.01849627,-0.3446384
0.9988326,-0.04525544,-0.3104704
1.008865,-0.07527952,-0.2771161
1.019204,-0.0492154,-0.2860396
1.119975,0.02101495,-0.3532261
1.232507,0.07346485,-0.4387902
1.275232,0.0809618,-0.5099631
1.287298,0.0571154,-0.6261181
1.328108,0.05514108,-0.8059921
1.32541,0.09477558,-0.8367774
1.177085,0.2190093,-0.7457174
0.9678701,0.4232732,-0.753689
0.8420088,0.4755904,-0.7098757
0.8998906,0.3745376,-0.5827434
0.9785455,0.3374066,-0.4858749
0.9268926,0.2963031,-0.3951499
0.9081704,0.2274892,-0.4274314
0.8822669,0.1941372,-0.4413103
0.8548006,0.1689088,-0.3676539
0.888837,0.2189955,-0.4106035
0.8083267,0.2856041,-0.3976825
0.7382569,0.3176432,-0.3538729
0.7302067,0.3564145,-0.3611073
0.6926118,0.3212357,-0.2700519
0.7237156,0.2787472,-0.2400187
0.7264139,0.243405,-0.2466879
0.7289411,0.1529499,-0.207535
0.7906491,0.1098348,-0.2188461
0.8028415,0.08228036,-0.2113986
0.8108015,0.07014353,-0.2100058
0.8037301,0.1263302,-0.2120736
0.815655,0.2055724,-0.1735038
0.8801861,0.310335,-0.1309809
0.9372672,0.3441029,-0.08085677
1.010644,0.2889765,-0.06657048
1.070919,0.2571526,-0.06576141
1.148971,0.2573915,-0.1068178
1.218863,0.3347856,-0.2929707
1.227955,0.4944684,-0.5155953
1.280234,0.5881442,-0.5728127
1.272149,0.5227552,-0.4813307
1.100494,0.3948658,-0.4425949
0.8967165,0.2747852,-0.4212915
0.7993752,0.172624,-0.3719718
0.8252955,0.190397,-0.4223309
0.8350683,0.2388758,-0.4507158
0.8576589,0.2349875,-0.4281618
0.951011,0.2873964,-0.4458509
0.9617541,0.3178423,-0.4202044
0.912598,0.3172134,-0.3868304
0.8533386,0.325917,-0.3550205
0.7407735,0.262827,-0.2919354
0.6723008,0.1809299,-0.244047
0.6544642,0.08150563,-0.2178547
0.6277844,0.008694367,-0.245478
0.6393371,0.03280361,-0.2781425
0.6894168,0.06002795,-0.2815167
0.7426151,0.09574697,-0.2843496
0.7702726,0.09905059,-0.2650078
0.7624491,0.05266375,-0.2714807
0.7879139,0.05176383,-0.283512
0.8880127,0.04946999,-0.2767426
1.035205,0.04649595,-0.2985268
1.170162,0.04480911,-0.3024881
1.207657,0.02673426,-0.2992018
1.197672,0.04217427,-0.3049998
1.238637,0.04085865,-0.3184225
1.257875,0.01841836,-0.4242535
1.217981,0.02021168,-0.5968616
1.182231,0.09509323,-0.7287543
1.145163,0.2888932,-0.8036136
1.079057,0.4629037,-0.8320509
0.9934359,0.5267336,-0.766164
0.9246653,0.542686,-0.6493645
0.9058496,0.4716925,-0.5764029
0.9258553,0.2897931,-0.5127665
0.9418371,0.1374329,-0.4866792
0.9504248,0.0684731,-0.4689768
0.9607881,0.03688325,-0.3762209
0.9308704,0.09097079,-0.3351242
0.8480257,0.1833257,-0.3223985
0.7323662,0.2379769,-0.2667779
0.6494228,0.2794814,-0.2522826
0.650591,0.2606835,-0.2302177
0.6625888,0.1926665,-0.213685
0.6887956,0.1215866,-0.2306062
0.7455289,0.08508641,-0.2091923
0.7649155,0.1417929,-0.187076
0.7884123,0.192475,-0.1664605
0.8139358,0.1924668,-0.1436507
0.8024317,0.1917678,-0.1398074
0.826925,0.1832237,-0.1214783
0.9207141,0.2148573,-0.1325542
1.052142,0.2487476,-0.1516913
1.152314,0.230986,-0.1176297
1.189538,0.2293398,-0.1036754
1.210041,0.2693678,-0.1802808
1.215204,0.4040276,-0.3839874
1.224067,0.5892696,-0.5712297
1.252342,0.5835373,-0.5290941
1.212233,0.4002135,-0.4792922
1.100897,0.2699396,-0.5661527
0.995087,0.1975781,-0.5109616
0.9295429,0.1356953,-0.4096724
0.92335,0.1364011,-0.4118752
0.8942077,0.193575,-0.3566047
0.8499128,0.2660557,-0.3484335
0.8970161,0.2978472,-0.3733239
0.917175,0.2851639,-0.3419843
0.8580271,0.2475396,-0.3609498
0.7914699,0.1661031,-0.3073315
0.6819889,0.1063334,-0.2102764
0.5897848,0.1024386,-0.1872415
0.5747875,0.1084158,-0.1739685
0.5971858,0.1046195,-0.2012577
0.6290326,0.08696453,-0.2242669
0.6748791,0.06500963,-0.2487654
0.7532228,0.03808075,-0.2964988
0.7691079,0.03857067,-0.2832433
0.7535066,0.05539152,-0.2775331
0.8395362,0.03864631,-0.2977878
0.9027984,0.03355383,-0.2908729
0.9300578,0.02130107,-0.2849356
1.037054,-0.01405072,-0.2844304
1.093374,-0.007788342,-0.2762291
1.076031,-0.004140659,-0.2778941
1.1563,-0.02048822,-0.3019139
1.283115,-0.0131983,-0.3324607
1.348973,-0.02172279,-0.4283801
1.426346,-0.07146294,-0.613283
1.425188,-0.1240426,-0.7737411
1.267361,-0.1037348,-0.8633666
1.081401,0.03648369,-0.8922509
0.8319641,0.2130546,-0.8259253
0.7035936,0.2829337,-0.6817192
0.8378609,0.2510278,-0.5546158
0.8586573,0.2496575,-0.5163408
0.8148519,0.250609,-0.5445606
0.8905259,0.1896597,-0.5331635
0.9313212,0.1601351,-0.4965041
0.969074,0.1732729,-0.5395258
0.9206464,0.2120547,-0.5760502
0.8101511,0.2727785,-0.5576468
0.808038,0.2980471,-0.5215587
0.7755097,0.3258395,-0.4349598
0.7328396,0.3398524,-0.3843234
0.7333103,0.2978308,-0.3806052
0.7053116,0.2484593,-0.3405966
0.7157284,0.1894018,-0.3131232
0.7226874,0.145911,-0.2979358
0.6987373,0.1288295,-0.2620049
0.7062436,0.1230044,-0.244055
0.7319574,0.1656033,-0.255918
0.8068122,0.2201567,-0.2526375
0.9015327,0.2397291,-0.2206887
0.9401654,0.2386434,-0.1930416
0.9835438,0.24706,-0.1755565
1.081203,0.2731212,-0.174939
1.124389,0.3131943,-0.2590272
1.00477,0.4371252,-0.5512782
0.9163112,0.5833202,-0.8434916
1.087718,0.5522007,-0.7298362
1.236776,0.4222242,-0.5398487
1.098954,0.3136883,-0.6008851
0.945151,0.1647845,-0.5244099
0.8976554,0.1259526,-0.4234634
0.8292959,0.2111518,-0.4806955
0.8289484,0.2136522,-0.4198644
0.8816237,0.2501158,-0.4164371
0.8916347,0.3168113,-0.4507409
0.9025996,0.2968761,-0.3735503
0.8419003,0.283631,-0.3837747
0.7220206,0.2270187,-0.3538923
0.6430615,0.1528022,-0.3001165
0.5773408,0.1226238,-0.303037
0.5713209,0.08688135,-0.2634964
0.6466475,0.1002693,-0.299835
0.7369465,0.1307971,-0.3499293
0.7825856,0.1560614,-0.3822226
0.7654094,0.1633715,-0.4023985
0.7604494,0.1047053,-0.3379327
0.7754027,0.0569669,-0.3247261
0.8267229,0.03271444,-0.3191095
0.952546,0.02400692,-0.295644
1.085636,0.000804967,-0.3122215
1.19885,-0.05290307,-0.3022611
1.241538,-0.04086427,-0.3287119
1.239434,-0.02918208,-0.3715609
1.280477,-0.03180404,-0.4406417
1.240223,0.0727197,-0.6356776
1.166356,0.1961266,-0.8014594
1.183499,0.2631072,-0.7733801
1.110937,0.3803918,-0.694596
0.9764515,0.5083474,-0.7046894
0.9332788,0.4708842,-0.6252579
0.9011093,0.3773346,-0.5041375
0.8871572,0.3329069,-0.5212463
0.9075425,0.2187143,-0.5016783
0.89071,0.1695916,-0.4381463
0.8648617,0.2149099,-0.4018362
0.8447197,0.2169462,-0.388251
0.8059082,0.2764272,-0.4337035
0.7562545,0.3235927,-0.4193909
0.6973286,0.3109671,-0.3694425
0.6563745,0.3102878,-0.3069931
0.6599593,0.2368573,-0.2212864
0.6977304,0.1524154,-0.2150254
0.7776334,0.09336506,-0.1984473
0.8691817,0.03508486,-0.1751835
0.9216876,0.02289316,-0.1816692
0.9413436,0.02538081,-0.1657148
0.9345343,0.08795709,-0.1804547
0.9367981,0.2001894,-0.17995
0.9627987,0.2596353,-0.1513553
0.9950717,0.2824911,-0.0661244
1.06859,0.315924,0.0830756
1.113869,0.3373712,0.07204226
1.069215,0.3623211,-0.1469311
1.049889,0.5029816,-0.4121971
1.071428,0.596533,-0.5396401
1.059621,0.4553886,-0.513769
1.025354,0.3053885,-0.5475684
0.9569444,0.2647838,-0.5508347
0.8930846,0.2690696,-0.4394919
0.9179899,0.2734758,-0.42155
0.9488778,0.2433716,-0.3967099
0.9353411,0.2539657,-0.355389
0.9521592,0.2768681,-0.4250404
0.9528748,0.2667924,-0.4066326
0.8890786,0.2573005,-0.3608252
0.7889882,0.222006,-0.3467498
0.67376,0.1983595,-0.2565154
0.5975963,0.1650074,-0.2436966
0.5526432,0.09115207,-0.2366808
0.5444098,0.07539364,-0.2088432
0.6200344,0.09596574,-0.2722719
0.7143127,0.09641088,-0.3016593
0.7649608,0.1025415,-0.3156822
0.7705616,0.09112366,-0.3166871
0.7984244,0.04840093,-0.2981165
0.8912999,-0.006793547,-0.3079467
0.9738957,-0.05827865,-0.2824122
1.060616,-0.07734633,-0.2834502
1.17432,-0.06702059,-0.2958959
1.265844,-0.04990549,-0.2992314
1.315401,-0.0267089,-0.3537317
1.307004,0.005062423,-0.4245757
1.294746,0.05250942,-0.5753647
1.287079,0.1048022,-0.7139939
1.25493,0.1557299,-0.7060384
1.201003,0.2469885,-0.7063611
1.0424,0.3451663,-0.7123192
0.8951949,0.3733026,-0.6363241
0.933122,0.3382265,-0.600098
0.9674714,0.2745636,-0.5827102
0.8990493,0.23469,-0.5135322
0.8578418,0.2207642,-0.4732045
0.8238749,0.2150826,-0.3995695
0.8049448,0.2524255,-0.3336716
0.8152892,0.2885153,-0.3794477
0.7433315,0.2969874,-0.3770365
0.6617498,0.3007348,-0.3534585
0.6328247,0.2847247,-0.3557116
0.6132616,0.2619241,-0.2912116
0.6756876,0.2233985,-0.2589885
0.7759289,0.170425,-0.2633139
0.8535279,0.132324,-0.2580879
0.8983304,0.1158017,-0.2559321
0.8824306,0.120472,-0.2145338
0.9013724,0.1313209,-0.1629517
0.9385287,0.1666506,-0.1126879
0.9625398,0.2182048,-0.06819809
1.024249,0.2430456,-0.04826693
1.068221,0.2406545,-0.0274263
1.115852,0.2298093,0.005979269
1.15079,0.2449629,-0.003795424
1.094489,0.3091567,-0.2192294
1.077592,0.4325235,-0.5293916
1.223377,0.5100385,-0.5802846
1.331366,0.4234234,-0.4826677
1.138998,0.2970858,-0.4745715
0.8814165,0.2012633,-0.4103491
0.8853864,0.1116489,-0.3280078
0.9472579,0.1113248,-0.3551885
0.9415035,0.1401099,-0.3525328
1.000965,0.1421789,-0.3531145
1.022694,0.1928264,-0.3834933
0.9533002,0.2306975,-0.354755
0.878632,0.2193809,-0.3435124
0.7834364,0.2097765,-0.3199043
0.7015808,0.1908604,-0.2774914
0.6527013,0.1702175,-0.2689827
0.6288474,0.1517883,-0.248892
0.6760169,0.1327573,-0.2774222
0.7473537,0.1295683,-0.3282627
0.7863877,0.1236462,-0.338003
0.7880846,0.09654566,-0.3318503
0.7660661,0.03784967,-0.294558
0.7740856,-0.03124675,-0.269224
0.81578,-0.0500182,-0.2532795
0.9018956,-0.01823687,-0.234523
1.068495,0.005209316,-0.2391357
1.240475,0.0002581215,-0.2380309
1.291118,-0.02277104,-0.264637
1.268484,-0.07501708,-0.3240029
1.305335,-0.1063887,-0.3952833
1.307151,-0.03030585,-0.5298577
1.259524,0.1098426,-0.7055275
1.276125,0.2306033,-0.7827345
1.198233,0.3487738,-0.7379526
1.027169,0.4401428,-0.7077505
0.9518882,0.4116301,-0.6326383
0.9382806,0.3352986,-0.4892342
0.9346179,0.3094532,-0.4519996
0.9150788,0.2528627,-0.4485385
0.9129007,0.1872101,-0.4103129
0.9297503,0.1813894,-0.3980029
0.8797165,0.1959895,-0.3927251
0.8057611,0.2425325,-0.3914332
0.794693,0.04944337,-0.2907169
0.9509686,0.02937124,-0.2863554
1.105375,0.01170238,-0.2995225
1.220526,0.02776125,-0.3513775
1.259182,0.007842994,-0.3379039
1.257449,-0.02520741,-0.3878488
1.274694,-0.04382355,-0.5361004
1.253451,0.0273784,-0.7008246
1.226174,0.2082754,-0.7929962
1.218669,0.3536165,-0.7704999
1.157784,0.4353542,-0.7407798
1.052695,0.4982561,-0.6988246
1.007569,0.5036456,-0.6558933
1.004419,0.4131789,-0.6143904
0.9150871,0.2839279,-0.5039584
0.8468473,0.1759241,-0.4242724
0.9088927,0.1285073,-0.3813527
0.9387251,0.17178,-0.3325903
0.8715509,0.2077888,-0.3389833
0.786552,0.2310419,-0.340444
0.7011637,0.2728374,-0.3228689
0.6229461,0.2554179,-0.3043682
0.5777856,0.2389348,-0.2434051
0.5597457,0.2145624,-0.2041944
0.5823788,0.1490851,-0.2052645
0.6541228,0.1313203,-0.2038439
0.7180702,0.1198789,-0.2070444
0.7961913,0.1170124,-0.1991405
0.8862507,0.1388243,-0.1795224
0.8749483,0.1502665,-0.1552227
0.8434769,0.2280522,-0.1138304
0.9122957,0.3197464,-0.06450804
0.960566,0.3112337,-0.0464527
0.9917317,0.2793432,-0.07142289
1.141057,0.2955069,-0.09264728
1.265703,0.3022365,-0.1345418
1.249326,0.3236739,-0.217779
1.248742,0.4591243,-0.3365202
1.294868,0.5977694,-0.5083185
1.258086,0.5666106,-0.5488485
1.126546,0.4340083,-0.4706358
0.9998098,0.3405759,-0.5122206
0.9577682,0.2745248,-0.502953
0.9626871,0.2276299,-0.4261715
0.9351605,0.2453096,-0.4575698
0.9267817,0.2666331,-0.4217222
0.9262581,0.2729568,-0.3519655
0.86792,0.2836276,-0.3476981
0.841766,0.2527768,-0.3293932
0.7946523,0.1946467,-0.3365616
0.6924304,0.131573,-0.3320831
0.6572634,0.09657398,-0.3199947
0.644229,0.1071582,-0.3066795
0.6497135,0.1203164,-0.2468926
0.6652568,0.1351948,-0.2371803
0.6604507,0.1401151,-0.2459409
0.7170795,0.1248387,-0.2337121
0.792718,0.09427129,-0.2447856
0.8611042,0.0420158,-0.2403208
0.9540687,0.006085245,-0.230236
1.088164,-0.01291244,-0.2247678
1.23602,-0.04232152,-0.2549374
1.296404,-0.05748019,-0.3582297
1.321956,-0.04698805,-0.4878889
1.313901,0.01380891,-0.6100905
1.212134,0.123705,-0.6865581
1.131386,0.1694281,-0.6980831
1.114193,0.1932925,-0.6793973
1.083071,0.3409459,-0.6649273
1.010362,0.4625956,-0.6408396
0.9950431,0.4274362,-0.5972014
1.013644,0.3738,-0.5821849
0.9534287,0.3288946,-0.5661475
0.9331357,0.2489371,-0.5148122
0.953205,0.2087403,-0.4671911
0.9349046,0.2135356,-0.4202899
0.8917757,0.2219373,-0.3817404
0.7752901,0.2441981,-0.3585997
0.6813209,0.2505824,-0.3222006
0.641648,0.2414114,-0.272685
0.6073791,0.2340827,-0.2403427
0.6382039,0.1880564,-0.2192747
0.6944134,0.1197244,-0.1860519
0.7588223,0.06369336,-0.1843416
0.8121986,0.04231825,-0.1924579
0.8269368,0.07193301,-0.1497063
0.8766033,0.1097755,-0.08789657
0.9437365,0.1503347,-0.02533528
0.9820046,0.1908545,-0.0008313879
1.001386,0.2242905,-0.007288058
1.046813,0.3106566,0.03248676
1.126472,0.4052282,0.01222692
1.165419,0.4578467,-0.2641201
1.21577,0.5977065,-0.6821484
1.314402,0.7324998,-0.8035253
1.322566,0.5882693,-0.6009617
1.158402,0.3264764,-0.4732404
0.8943072,0.1823996,-0.3937304
0.7626077,0.1101173,-0.3019028
0.8130332,0.1343864,-0.3317903
0.8466058,0.1851958,-0.3332342
0.9081926,0.2150712,-0.3311097
0.9747491,0.2790801,-0.3951961
0.9023572,0.2635097,-0.3788394
0.8074542,0.2245743,-0.3483201
0.7019059,0.1954706,-0.326198
0.6065682,0.1209465,-0.3027149
0.5914719,0.1244684,-0.3251005
0.5651965,0.1490989,-0.310843
0.5979281,0.1651748,-0.2999189
0.6757147,0.1911142,-0.3063639
0.6930816,0.1262758,-0.2909236
0.736292,0.03939254,-0.2980709
0.8100373,-0.02063923,-0.2854003
0.93331,-0.04464428,-0.2729184
1.107939,-0.03454936,-0.2895661
1.200042,-0.03192461,-0.3051678
1.249325,0.01271951,-0.3475816
1.337128,0.05162276,-0.3864017
1.370414,0.04288796,-0.4212857
1.278606,0.03813762,-0.5585225
1.17304,0.05459124,-0.7694746
1.162607,0.1508437,-0.8352222
1.149616,0.3537959,-0.7741327
1.071979,0.5268236,-0.776783
0.9552908,0.5121488,-0.7278156
0.8399331,0.4339619,-0.6070293
0.8631797,0.4230376,-0.5568993
0.9200145,0.3603042,-0.5218248
0.8880959,0.2247286,-0.482065
0.9395307,0.08172916,-0.4099536
0.960451,0.07205631,-0.3624125
0.8394052,0.2153237,-0.4243082
0.7437685,0.2761908,-0.4298332
0.6724571,0.2990022,-0.397196
0.6359889,0.3281423,-0.3646909
0.5878716,0.3064688,-0.2424882
0.5414303,0.3168716,-0.1876994
0.6515566,0.2103317,-0.2367116
0.7613138,0.02861492,-0.2619132
0.8067828,-0.01154016,-0.2596712
0.811045,0.0388387,-0.2444864
0.7625992,0.1270481,-0.2086448
0.8165007,0.1926831,-0.1548218
0.8788135,0.2683656,-0.1305451
0.9462694,0.3065433,-0.1298868
1.063847,0.2221378,-0.1227806
1.08677,0.1830717,-0.1213244
1.119952,0.1835009,-0.1244076
1.110171,0.2393552,-0.226852
1.066749,0.4010726,-0.4719687
1.170668,0.5461253,-0.6408424
1.237395,0.6287074,-0.5727633
1.185722,0.507409,-0.5020323
1.009008,0.2479205,-0.5592889
0.8199632,0.1082035,-0.5278826
0.9106075,0.1091253,-0.4889723
1.046127,0.1958853,-0.5126287
1.008226,0.2408139,-0.4462004
0.9779141,0.2529589,-0.3986579
0.9402622,0.2873863,-0.3653679
0.8779219,0.2480378,-0.3444234
0.8325644,0.1864143,-0.4151439
0.7597525,0.1239049,-0.4216908
0.7545691,0.08426705,-0.3977957
0.7722056,0.1194786,-0.362933
0.7164039,0.1621932,-0.2751121
0.7139233,0.2465532,-0.2558766
0.6922153,0.2824237,-0.2379981
0.6516894,0.1813797,-0.2004387
0.7222458,0.06646517,-0.2031617
0.7782801,-0.04600434,-0.2268811
0.8310154,-0.07832089,-0.2887341
0.8973266,-0.02510336,-0.3210695
0.9113942,-0.03404567,-0.3005649
0.9253688,-0.04060481,-0.2815185
0.8998605,-0.0210272,-0.2731207
0.8758655,-0.01384853,-0.2587818
0.9293111,0.02338893,-0.2437984
1.09003,0.0435308,-0.2728598
1.320324,0.0351036,-0.3104308
1.360502,0.002332977,-0.3677535
1.270452,-0.07011607,-0.5080529
1.300406,-0.0742582,-0.6645226
1.303279,0.07532618,-0.8042816
1.211544,0.2938784,-0.9733132
1.130107,0.3855338,-1.054662
1.048513,0.3320035,-0.9084018
1.013897,0.3269067,-0.7336729
0.9813013,0.3406678,-0.6515169
0.8896949,0.2723197,-0.5529489
0.8584859,0.2389667,-0.4984347
0.8655021,0.2569902,-0.4645162
0.833813,0.278614,-0.4392812
0.7844499,0.315104,-0.4303399
0.7253305,0.3101603,-0.338911
0.6857065,0.2891818,-0.3057514
0.6516074,0.2769417,-0.3042471
0.6212256,0.216712,-0.2407407
0.6211241,0.1513103,-0.2224082
0.6505311,0.1070097,-0.1925828
0.7120988,0.07619896,-0.1980882
0.7503333,0.07987394,-0.2346687
0.7718249,0.0938153,-0.21398
0.8370199,0.131203,-0.2139386
0.9150041,0.201559,-0.1813574
0.9725324,0.2420826,-0.1456533
1.021869,0.2337763,-0.1577761
1.093363,0.2229774,-0.122799
1.139846,0.2310059,-0.09398944
1.107047,0.2472411,-0.1665685
1.103558,0.3353495,-0.3980453
1.183563,0.4899523,-0.6272422
1.234096,0.5302297,-0.5885768
1.187682,0.4385711,-0.5070683
1.078125,0.3413387,-0.54811
0.9683038,0.2420114,-0.4389454
0.9001013,0.1754667,-0.3273971
0.8824755,0.1868926,-0.3799669
0.8894905,0.2043772,-0.3492064
0.8859753,0.2244415,-0.3350093
0.8706047,0.2664326,-0.3714626
0.8353834,0.2676511,-0.341287
0.7766639,0.2338239,-0.3622812
0.7086438,0.1792477,-0.3433789
0.6314705,0.09665502,-0.2962396
0.5786693,0.05298447,-0.2839344
0.5821594,0.05634057,-0.2454357
0.6321593,0.06734108,-0.2783373
0.7120542,0.08931929,-0.3158889
0.7759971,0.09816168,-0.330207
0.7914169,0.08330352,-0.3476224
0.8071587,0.06133241,-0.3091437
0.8642574,0.03786408,-0.3022213
0.9489616,0.02442135,-0.2904822
1.053458,0.001387156,-0.2555954
1.106072,-0.02591713,-0.2597138
1.079984,0.002529293,-0.2642199
1.104961,0.08105704,-0.2944694
1.173419,0.1453872,-0.3287705
1.205703,0.1239863,-0.3635047
1.271827,0.02261846,-0.4976867
1.350815,-0.03485659,-0.6793567
1.334888,6.869674e-05,-0.7173165
1.256184,0.1201727,-0.6940488
1.139241,0.2968273,-0.7923009
0.9938643,0.372254,-0.7942632
0.9881943,0.3203344,-0.6907846
1.041159,0.299307,-0.6465435
0.9678468,0.3141013,-0.5400377
0.9407502,0.2813858,-0.4974807
0.9109532,0.2434633,-0.4695515
0.8509415,0.2224093,-0.3403492
0.9105137,0.2071136,-0.3777973
0.8671488,0.23253,-0.4167751
0.7652528,0.2504167,-0.3673493
0.6990054,0.2541026,-0.3775226
0.5896229,0.2712844,-0.2906444
0.6217526,0.2621367,-0.2376313
0.67431,0.2504835,-0.2694131
0.6981555,0.2147116,-0.2407717
0.7892453,0.1629081,-0.2288618
0.8015409,0.1409434,-0.1881733
0.8212243,0.1028681,-0.15199
0.8273213,0.0976235,-0.1711171
0.8043215,0.1518375,-0.155172
0.8906204,0.2114248,-0.1308005
0.9850141,0.2421793,-0.1130352
1.07469,0.2229218,-0.1207964
1.146479,0.2114481,-0.139637
1.168695,0.2167418,-0.1374578
1.167673,0.2760366,-0.2217244
1.083584,0.4685703,-0.4359471
1.051011,0.6394673,-0.6014974
1.182985,0.6130372,-0.5308354
1.283426,0.4518778,-0.4393608
1.125782,0.2733772,-0.5078693
0.894948,0.1356135,-0.4901409
0.9029714,0.1090979,-0.428952
0.9431093,0.1502679,-0.4414614
0.9124062,0.175472,-0.4048304
0.9610288,0.2632311,-0.4039798
0.9736959,0.353112,-0.4015763
0.9354972,0.3392107,-0.3471519
0.865614,0.2870442,-0.3447189
0.7501397,0.1930733,-0.3045428
0.684688,0.09683703,-0.2507248
0.6344318,0.05211241,-0.2355658
0.6085112,0.03898899,-0.2315126
0.6539585,0.08066796,-0.2720237
0.7049564,0.1352503,-0.293259
0.7401175,0.1690553,-0.3008206
0.7691159,0.1685013,-0.2954754
0.782133,0.1209766,-0.2743067
0.7928305,0.06977685,-0.2860099
0.8542223,0.02221676,-0.2488243
0.9349944,0.013504,-0.1893045
0.974383,-0.006112818,-0.1504651
1.012154,-0.07996053,-0.1091145
1.073303,-0.06087367,-0.1238573
1.205198,0.004215985,-0.1853604
1.372082,0.0008119773,-0.3269132
1.399791,-0.03150042,-0.5881312
1.349235,-0.06216595,-0.8140688
1.341126,0.05568669,-0.8650357
1.217731,0.2691658,-0.8362088
0.9572066,0.3060855,-0.7806705
0.8391294,0.2267963,-0.5881813
0.9421092,0.1775517,-0.4363111
1.008461,0.1308542,-0.4631924
0.9540507,0.05265667,-0.4369072
0.9594741,0.01155806,-0.3748952
0.9730464,0.1032757,-0.4050698
0.9075231,0.2187199,-0.442304
0.8719824,0.2644034,-0.4632754
0.8126412,0.2797796,-0.4522167
0.7227457,0.2646424,-0.4086731
0.6849046,0.2445902,-0.3781576
0.6549648,0.2124203,-0.3212073
0.6657301,0.1882098,-0.2819426
0.724918,0.2125793,-0.3112004
0.7932819,0.2104783,-0.3060555
0.8441789,0.177556,-0.2700873
0.850025,0.1528699,-0.2476502
0.8441684,0.1321247,-0.2065006
0.793256,0.1110283,-0.178756
0.763047,0.08553275,-0.1438326
0.8337809,0.1148616,-0.1049719
0.8836437,0.1520928,-0.09024572
0.8845857,0.1011824,-0.0351337
0.9034269,0.04829744,-0.0003229165
0.9774162,0.0283103,-0.01210782
1.095609,0.01264374,-0.02074942
1.216455,0.05796062,-0.08921339
1.284782,0.1763791,-0.2615367
1.264121,0.3563619,-0.5506443
1.299997,0.5127259,-0.7206954
1.339442,0.4882662,-0.6022591
1.131719,0.3630565,-0.5245351
0.8771751,0.3000373,-0.5058138
0.8765319,0.2742852,-0.4157704
0.9882545,0.2767684,-0.4714156
1.024453,0.3040897,-0.5224001
1.039101,0.3116543,-0.4538058
1.007735,0.2945962,-0.4478003
0.904821,0.2239152,-0.4050069
0.8439152,0.1429675,-0.3599506
0.7784892,0.09911677,-0.3764274
0.71391,0.07379074,-0.3361304
0.7049045,0.09270779,-0.3209
0.6540103,0.1547433,-0.320085
0.6134507,0.2359765,-0.2890013
0.6553256,0.2458264,-0.3064912
0.7295589,0.1816164,-0.3265459
0.7594234,0.1557235,-0.327792
0.7124811,0.09458058,-0.3193234
0.6951298,0.0230083,-0.2983045
0.7510161,-0.005961805,-0.2885603
0.8445025,-0.08547332,-0.2728733
0.9196531,-0.1001174,-0.2746578
0.96763,-0.04198101,-0.3016707
1.087896,-0.0395985,-0.3147253
1.180015,-0.02748586,-0.3190233
1.167732,-0.001425465,-0.323616
1.224514,0.03282396,-0.335708
1.288102,0.08860762,-0.3763509
1.251329,0.08676594,-0.5050595
1.289002,0.09234464,-0.7174596
1.351825,0.1714092,-0.8206367
1.270064,0.273469,-0.7744361
1.127084,0.3836768,-0.7199792
0.9849781,0.396203,-0.5970979
0.9373398,0.3148974,-0.4429409
0.9697608,0.2711765,-0.3986787
0.9144712,0.2036467,-0.3636814
0.9058906,0.1378744,-0.3269567
0.9400795,0.1416368,-0.3360488
0.852006,0.1519242,-0.3425922
0.7585555,0.1891445,-0.3567967
0.6648876,0.2251548,-0.3410687
0.5801673,0.2380003,-0.3082938
0.5804039,0.2449329,-0.2879303
0.5777828,0.2154061,-0.2460489
0.608648,0.1937226,-0.2308652
0.6917055,0.1651753,-0.2279242
0.7583479,0.1284346,-0.2127945
0.8142248,0.1281842,-0.2189339
0.824653,0.1347231,-0.2103057
0.818879,0.1585359,-0.1803791
0.8524795,0.1837839,-0.149632
0.9292592,0.222482,-0.1292516
1.049877,0.2673019,-0.1357868
1.142373,0.2478951,-0.1344285
1.173532,0.2529191,-0.1046136
1.179401,0.3048068,-0.1163694
1.1604,0.3893289,-0.2698818
1.156042,0.5810729,-0.5018419
1.251511,0.6885365,-0.5742859
1.330132,0.5324058,-0.4916769
1.172196,0.3203976,-0.4675151
0.9494066,0.2134577,-0.4457395
0.9147911,0.132382,-0.3803402
0.9228119,0.09967167,-0.3821121
0.892926,0.1498904,-0.379428
0.9097658,0.1928383,-0.3685223
0.9056636,0.2480918,-0.3862931
0.8641739,0.2952957,-0.3687829
0.805636,0.2771621,-0.358306
0.7075096,0.2649892,-0.3367762
0.6416723,0.2167572,-0.3059827
0.5910857,0.1100484,-0.3077137
0.5505656,0.0558311,-0.2877891
0.5972183,0.06652191,-0.2829731
0.6383889,0.08599481,-0.2895499
0.667681,0.09914053,-0.2841911
0.733859,0.1227105,-0.2956251
0.7564798,0.09610267,-0.2908122
0.8094861,0.01996342,-0.2932097
0.9489308,0.01034418,-0.3007468
1.104401,0.02616647,-0.3053921
1.243934,0.01287518,-0.3322509
1.292875,-0.01671773,-0.348712
1.267572,-0.06479665,-0.3759226
1.262329,-0.0541729,-0.446064
1.260227,0.0185128,-0.5887029
1.231214,0.1076643,-0.7434278
1.188791,0.2321707,-0.7719762
1.130768,0.3677276,-0.7612611
1.072207,0.4398382,-0.7660524
1.090647,0.4031712,-0.6943976
1.130353,0.3351026,-0.5975947
1.049853,0.2706621,-0.518384
0.9247633,0.1874873,-0.4609205
0.8421522,0.1601541,-0.4288854
0.8007923,0.176855,-0.3887509
0.7711021,0.2158652,-0.3760043
0.6612343,0.2843171,-0.3484833
0.5660443,0.3155948,-0.2981559
0.5489668,0.3164881,-0.3044156
0.5443351,0.2850272,-0.2819328
0.6319969,0.2049461,-0.2445758
0.7387574,0.113585,-0.2509582
0.7673207,0.06494976,-0.2403676
0.7929849,0.08070998,-0.2440027
0.7913296,0.102465,-0.2217382
0.7792837,0.1579094,-0.1547596
0.8091116,0.2264688,-0.1145127
0.8758555,0.2289584,-0.08480572
0.99796,0.2107071,-0.07937765
1.115533,0.1768639,-0.07145844
1.146787,0.1818259,-0.04192908
1.135632,0.2469984,-0.05758899
1.158397,0.3444724,-0.193581
1.190999,0.5103899,-0.4544016
1.239536,0.5668878,-0.5790273
1.28634,0.4383473,-0.4952444
1.174076,0.2900335,-0.4628738
0.9851739,0.1824514,-0.4505825
0.9513321,0.1496612,-0.3905379
0.9935243,0.1736715,-0.3952164
1.001788,0.2096237,-0.4091536
1.023194,0.2437709,-0.3973973
0.9967575,0.2358922,-0.397389
0.9094059,0.2017649,-0.3736762
0.8664285,0.1746797,-0.3572685
0.8372056,0.1639181,-0.3558348
0.7523813,0.1521004,-0.320052
0.6450505,0.1312835,-0.2842629
0.6252462,0.1336775,-0.2817472
0.6755676,0.1428384,-0.2854733
0.6562224,0.1358092,-0.2701959
0.6530568,0.1251491,-0.271167
0.6946799,0.08772961,-0.2988068
0.6911577,0.03402802,-0.3078553
0.7287816,0.0401793,-0.3139483
0.7758184,0.06571926,-0.3132332
0.8389551,0.05835507,-0.3068178
0.9726632,0.07861436,-0.3201626
1.019225,0.08376841,-0.3179362
1.040253,0.04331773,-0.3168138
1.143008,-0.02405961,-0.3218899
1.169656,-0.114018,-0.3252113
1.138766,-0.08172955,-0.3686147
1.191669,0.005249655,-0.4298795
1.247562,-0.01112045,-0.5038312
1.270138,0.01376021,-0.5915311
1.325005,0.07432503,-0.6715912
1.298779,0.1447866,-0.7831587
1.164336,0.2882219,-0.8489109
1.010291,0.3280352,-0.741081
0.8851149,0.3024623,-0.6017288
0.8951964,0.3253066,-0.562286
0.9402331,0.2853048,-0.5244261
0.9181644,0.2429165,-0.4933963
0.9035697,0.2315153,-0.459019
0.8655162,0.2144458,-0.3778124
0.8443586,0.2542788,-0.3685934
0.8130956,0.3047292,-0.3891472
0.6995908,0.3114213,-0.366418
0.6085946,0.3021191,-0.3526798
0.5446517,0.3017473,-0.3089569
0.5635729,0.2900545,-0.2595695
0.6704048,0.2480761,-0.2544946
0.7259788,0.2052705,-0.2758959
0.794522,0.1528859,-0.3082676
0.8491856,0.1153135,-0.3061011
0.8554848,0.1252413,-0.2744741
0.8864344,0.1525841,-0.2394765
0.8740299,0.1927454,-0.2044586
0.9007918,0.2105968,-0.190092
0.9902259,0.1924455,-0.1742573
1.033935,0.1797291,-0.1473826
