accx,accy,accz
1.141482,-0.4456242,-0.2519887
1.128473,-0.3674054,-0.2131414
1.102985,-0.2076743,-0.1983051
1.025684,-0.1246996,-0.1675369
0.9374242,-0.03547285,-0.1509164
0.8727694,0.02577972,-0.05987883
0.8408311,-0.1309054,0.01626891
0.8405053,-0.20535,-0.05335009
0.8079987,-0.2369725,-0.07048871
0.7715669,-0.2670879,-0.04116459
0.8007976,-0.1762668,-0.06574441
0.8534722,-0.1931174,-0.06450942
0.8925786,-0.1724828,-0.06685714
0.9038181,-0.1118954,-0.05899068
0.886462,-0.1554825,-0.03378671
0.8484058,-0.15254,-0.03454536
0.8110384,-0.2260029,-0.0172467
0.8231946,-0.3136174,0.01012598
0.8702403,-0.3100205,0.05043928
0.9028313,-0.3043239,0.09293306
0.9102192,-0.2689287,0.1091899
0.923055,-0.290624,0.1478471
1.024169,-0.307187,0.1758028
1.229672,-0.2998347,0.1137224
1.396832,-0.3595797,-0.02191143
1.466227,-0.4010019,-0.1564661
1.492095,-0.4781142,-0.2748533
1.432131,-0.5258067,-0.3720164
1.280898,-0.4264576,-0.361688
1.052882,-0.3054069,-0.3160092
0.8317133,-0.2621327,-0.3448849
0.8518087,-0.3353974,-0.3204377
0.9926508,-0.4035724,-0.2632006
0.9985618,-0.3592631,-0.2709041
0.9501952,-0.2897928,-0.2075426
0.8513734,-0.1833478,-0.1166936
0.7281117,-0.05623083,-0.1134023
0.7085779,-0.03176163,-0.1191075
0.6932964,-0.04656023,-0.1289195
0.6572471,-0.02247667,-0.1460102
0.6740975,-0.04159133,-0.1559244
0.7257996,-0.0749271,-0.1545239
0.7801922,-0.06455203,-0.1382159
0.7867708,-0.0928653,-0.1566189
0.7912502,-0.1468094,-0.1660355
0.8374625,-0.1399623,-0.156681
0.8786382,-0.08850466,-0.1648739
0.9006809,-0.02551059,-0.1579285
0.921911,0.04632185,-0.1532478
0.9702293,0.09614734,-0.1439847
1.025051,0.09762874,-0.1323971
1.099453,0.06889436,-0.1386754
1.229145,0.0242325,-0.1426993
1.359705,-0.0560596,-0.1602374
1.433776,-0.1689271,-0.1772756
1.446703,-0.2073732,-0.2068499
1.473917,-0.1276889,-0.3083304
1.530731,-0.1044274,-0.4276049
1.5029,-0.2499474,-0.433585
1.32144,-0.4190465,-0.3443519
1.082084,-0.4398127,-0.2865523
1.019926,-0.3852266,-0.2521016
1.09515,-0.3723754,-0.2425209
1.073057,-0.2985731,-0.2204764
1.042312,-0.1690456,-0.1087605
1.02371,-0.1105903,-0.08046255
0.8874182,-0.09193298,-0.1402812
0.7584502,-0.1100866,-0.1339376
0.6827893,-0.1593897,-0.1186843
0.6348223,-0.1954571,-0.08919239
0.6614836,-0.2429023,-0.06074133
0.6663146,-0.2460404,-0.06734241
0.6611267,-0.1886739,-0.05150188
0.7127464,-0.1327138,-0.05174561
0.7549917,-0.1052158,-0.07372337
0.7919228,-0.1614726,-0.08191999
0.815858,-0.2643655,-0.05694789
0.8577533,-0.3382682,0.0009426387
0.9742525,-0.3544787,0.03206268
1.053896,-0.3054582,0.04364643
1.06393,-0.28746,0.05805545
1.087163,-0.3089521,0.07488468
1.153717,-0.3053559,0.08454464
1.269881,-0.3047829,0.05337271
1.372235,-0.3251493,-0.02112075
1.427706,-0.4111482,-0.1465963
1.454384,-0.5130435,-0.2383166
1.344576,-0.4685046,-0.2310159
1.105135,-0.3206414,-0.2439076
0.9630425,-0.2337515,-0.2941576
0.9450579,-0.2711738,-0.3249882
0.9272722,-0.3651157,-0.336259
0.9475936,-0.397118,-0.2828148
1.001229,-0.3825575,-0.2118343
0.9692782,-0.3547341,-0.198188
0.873449,-0.2394595,-0.1878099
0.7896157,-0.09449505,-0.1499933
0.7434744,-0.07857218,-0.1314247
0.7526963,-0.1136327,-0.140206
0.7355958,-0.05105468,-0.1253179
0.7170605,-0.02063687,-0.1085871
0.7705297,-0.0618509,-0.1241441
0.7802221,-0.0469533,-0.1191337
0.7758487,-0.07290547,-0.1001999
0.7949402,-0.1166249,-0.09630493
0.7967479,-0.06843416,-0.1082392
0.8655255,-0.02742278,-0.132401
0.9225914,0.02034087,-0.1273949
0.9324094,0.08664836,-0.1256853
0.9876603,0.1006958,-0.1343563
1.076458,0.06616859,-0.09058598
1.19152,0.01919702,-0.0578267
1.285361,-0.002778049,-0.09561343
1.357312,-0.07512527,-0.1564941
1.399332,-0.1813423,-0.2276374
1.398984,-0.2038521,-0.3625156
1.458451,-0.2405493,-0.5019863
1.485394,-0.3628264,-0.4740453
1.328155,-0.427027,-0.3540942
1.106747,-0.3930907,-0.2960918
1.066834,-0.359881,-0.2533829
1.173427,-0.284932,-0.2447174
1.173834,-0.1643017,-0.2157692
1.092802,-0.113367,-0.09382957
0.9873198,-0.1087697,-0.05728666
0.8480895,-0.1312365,-0.1021729
0.7644009,-0.1685659,-0.09891183
0.7074437,-0.1686408,-0.07994424
0.7003883,-0.1837751,-0.05964525
0.7433818,-0.2199097,-0.06510482
0.7469663,-0.2308051,-0.08651463
0.7490578,-0.2094749,-0.08744428
0.7376219,-0.1592432,-0.07067103
0.7265825,-0.129348,-0.03259102
0.7567842,-0.1549335,-0.01516316
0.7935808,-0.2046114,0.01011154
0.8780463,-0.2269514,0.04260974
0.9899608,-0.2281082,0.04461105
1.027231,-0.2629052,0.0811537
0.9998787,-0.3162781,0.1056659
1.045827,-0.3146818,0.09780177
1.234635,-0.2640741,0.09767424
1.434378,-0.2482834,0.0452131
1.468188,-0.3119247,-0.05899006
1.340199,-0.4816463,-0.248335
1.268988,-0.67599,-0.4159945
1.269946,-0.6841373,-0.3515226
1.150928,-0.5368941,-0.2864182
0.946848,-0.4355664,-0.343483
0.8209408,-0.4180385,-0.2965012
0.9056392,-0.4363592,-0.2498899
1.02978,-0.4150832,-0.261156
0.9758865,-0.3470822,-0.2260445
0.9532453,-0.3113109,-0.2436986
0.914001,-0.2787049,-0.2444126
0.7278488,-0.2098124,-0.2035427
0.6385843,-0.1550799,-0.2224059
0.6307893,-0.1399166,-0.2257788
0.6457361,-0.1355741,-0.2494259
0.7175705,-0.1158698,-0.2682093
0.7523297,-0.0980492,-0.2273209
0.803163,-0.09664106,-0.2076848
0.8720676,-0.1004895,-0.1713151
0.9055818,-0.07984135,-0.1691447
0.9201927,-0.01141375,-0.2057845
0.9084799,0.05726135,-0.1968303
0.9473032,0.06421458,-0.1903043
1.002415,0.03775155,-0.1338741
1.001088,0.05177655,-0.03121703
1.00029,0.1013051,0.03417291
1.016978,0.1716972,0.06070881
1.119987,0.2075068,0.03849572
1.315417,0.06655281,-0.02763847
1.443365,-0.1283984,-0.1495553
1.456677,-0.1759581,-0.2746408
1.467329,-0.1897293,-0.3682978
1.4552,-0.2492485,-0.4178648
1.299528,-0.2697075,-0.3583117
1.169552,-0.2480977,-0.3369585
1.192673,-0.2370538,-0.3870723
1.184184,-0.1961225,-0.3660046
1.093899,-0.1023297,-0.312838
1.001603,-0.06327291,-0.222707
0.9611708,-0.09800999,-0.1743484
0.9525209,-0.1507307,-0.230623
0.9003791,-0.2043812,-0.2316847
0.8502156,-0.2093706,-0.1916044
0.8269022,-0.1981837,-0.1424012
0.8186439,-0.2121711,-0.07764267
0.8316779,-0.1797016,-0.07373416
0.8027695,-0.1132036,-0.06067008
0.7710292,-0.06477083,-0.02864186
0.7874951,-0.0436803,-0.03631713
0.7817961,-0.08927323,-0.03332109
0.7908269,-0.1559014,-0.03513736
0.8478694,-0.2098922,-0.05367284
0.8726142,-0.2791888,-0.04157407
0.8525616,-0.2951362,0.01302379
0.8370192,-0.265035,0.08505333
0.8856948,-0.2451624,0.09026733
0.9877409,-0.2186865,0.05192509
1.11442,-0.2157886,0.06153849
1.280574,-0.2326356,0.03791493
1.398014,-0.2929302,-0.06605173
1.439077,-0.4728867,-0.1938567
1.494251,-0.6073775,-0.2830581
1.499723,-0.4979719,-0.2784658
1.286994,-0.3078959,-0.2680666
0.9643748,-0.2300673,-0.2863886
0.8327664,-0.2373238,-0.2915012
0.8350611,-0.3037073,-0.3069397
0.87613,-0.3632204,-0.2769101
1.025122,-0.3682419,-0.2190619
1.053249,-0.3331145,-0.1869633
0.9143186,-0.241619,-0.1455225
0.7937389,-0.1845462,-0.106248
0.681749,-0.1452524,-0.05468802
0.6621069,-0.04919291,-0.03607843
0.703441,-0.002059714,-0.1036569
0.7102361,-0.003125745,-0.1458505
0.7489943,-0.01462047,-0.1150796
0.7505919,-0.04170901,-0.08461746
0.7558758,-0.06133992,-0.08497306
0.8659514,-0.07182913,-0.09569647
0.999779,-0.02264062,-0.1332228
1.081641,0.05867569,-0.1814385
1.087252,0.1152974,-0.1618674
1.137177,0.140986,-0.1274491
1.246086,0.1262867,-0.1308406
1.260097,0.117402,-0.1219622
1.219532,0.07379278,-0.1240255
1.203163,-0.08974858,-0.1415459
1.24217,-0.289743,-0.1909987
1.342329,-0.3362644,-0.3457565
1.385092,-0.2783845,-0.4643907
1.276372,-0.3138891,-0.371262
1.152421,-0.3310055,-0.2482626
1.206793,-0.2989558,-0.2700645
1.250225,-0.2851326,-0.2754094
1.14253,-0.1539277,-0.200646
1.082183,-0.03947454,-0.1197486
1.03159,-0.04879937,-0.05056674
0.9428251,-0.09051498,-0.07833339
0.8652762,-0.184039,-0.1186592
0.7963561,-0.227997,-0.09267656
0.8075106,-0.2298761,-0.1099095
0.7710324,-0.2650581,-0.09496432
0.7266305,-0.253554,-0.0494492
0.7736078,-0.2157606,-0.04865346
0.7293307,-0.1723448,-0.04079306
0.7264847,-0.1330371,-0.05739332
0.771838,-0.1308978,-0.05971889
0.7414081,-0.1419452,-0.04068509
0.7874116,-0.1579914,-0.02661107
0.8208662,-0.1902614,0.01710615
0.849511,-0.2307736,0.007825271
0.9295223,-0.2349344,0.004120235
0.9594446,-0.2261109,0.06298568
1.023108,-0.2358043,0.07885608
1.088716,-0.2449533,0.07447973
1.205161,-0.274849,0.07418448
1.411841,-0.2971691,0.04985038
1.479455,-0.3081499,-0.05298507
1.451585,-0.3653294,-0.2144793
1.424251,-0.4462245,-0.2689077
1.350045,-0.4583594,-0.2542244
1.237065,-0.375553,-0.2633982
1.054823,-0.304723,-0.2509632
0.8780735,-0.2964621,-0.287385
0.8538562,-0.3361389,-0.3365101
0.9607991,-0.3941231,-0.2648301
1.026468,-0.3853014,-0.1920449
0.9882405,-0.3112616,-0.194953
0.8954345,-0.2092617,-0.177946
0.7621105,-0.1334827,-0.146326
0.7151552,-0.1192548,-0.1464916
0.757148,-0.1035183,-0.1713217
0.7513227,-0.1150113,-0.1799282
0.7511003,-0.1332019,-0.1414469
0.7399262,-0.08140887,-0.1053414
0.701215,-0.04816465,-0.1198898
0.7402842,-0.06162327,-0.1363851
0.7915365,-0.05868646,-0.1244386
0.8106973,-0.01913604,-0.1369723
0.8674401,0.03954986,-0.1519718
0.9507246,0.07701932,-0.1355816
1.033261,0.101933,-0.1210122
1.072696,0.1280974,-0.08948437
1.059253,0.1559773,-0.06657436
1.098338,0.1574123,-0.08227397
1.216697,0.07551484,-0.09860514
1.318479,-0.05214642,-0.1183902
1.357302,-0.1390096,-0.1235278
1.377446,-0.1561014,-0.1544762
1.416175,-0.1671885,-0.3066182
1.410611,-0.2801776,-0.4572636
1.314599,-0.4513603,-0.4159728
1.176871,-0.4907275,-0.2973126
1.095876,-0.4056244,-0.2640416
1.117653,-0.3301914,-0.2252409
1.084049,-0.1928325,-0.179607
0.977428,-0.06299425,-0.1454462
0.9569374,-0.09032043,-0.07725356
0.8938586,-0.1203846,-0.09938641
0.7519282,-0.1399884,-0.1300056
0.7261227,-0.19559,-0.09178724
0.7758305,-0.2059868,-0.1087564
0.7987153,-0.2450409,-0.09660101
0.8147478,-0.265577,-0.08395374
0.8361833,-0.2097981,-0.1054175
0.8458633,-0.1517972,-0.06701576
0.8419635,-0.07555124,-0.05500333
0.8313303,-0.05311358,-0.04395471
0.8193104,-0.06428704,0.007902287
0.8245812,-0.04692362,0.03297178
0.8200963,-0.1277916,0.03486539
0.8108176,-0.2215793,0.03269044
0.8425406,-0.2260873,0.05954024
0.9088243,-0.2311877,0.08103495
0.9715952,-0.2254155,0.09512421
0.979533,-0.2204754,0.1140912
1.027055,-0.2350748,0.1149942
1.204785,-0.2540362,0.1579512
1.3834,-0.2852606,0.1562833
1.464905,-0.2783286,0.04929304
1.453218,-0.2951624,-0.1010621
1.452275,-0.4031784,-0.2472229
1.495428,-0.4882219,-0.2455605
1.392609,-0.4814067,-0.2368094
1.134311,-0.4702811,-0.3348698
0.8930104,-0.5037348,-0.3186875
0.8338699,-0.4885418,-0.3027252
0.9532623,-0.4250213,-0.3627216
0.9933766,-0.3514915,-0.349218
0.9891991,-0.2676086,-0.3414501
0.9881392,-0.2507371,-0.322567
0.8701964,-0.2320119,-0.2749075
0.8325496,-0.176219,-0.2489334
0.8420929,-0.1632147,-0.1951673
0.7908727,-0.1428477,-0.1923453
0.7929137,-0.1349812,-0.2188408
0.7734246,-0.1334584,-0.1996419
0.7667578,-0.09682124,-0.2024975
0.7656769,-0.07513109,-0.1803631
0.7330789,-0.04682877,-0.1245986
0.7642537,-0.02277762,-0.106479
0.7652708,0.02035039,-0.1216229
0.7661743,0.09332698,-0.1430005
0.8346494,0.09457505,-0.1365025
0.915083,0.09099918,-0.1349309
0.9947718,0.1172335,-0.141152
1.014874,0.09676683,-0.1186304
1.02115,0.08308129,-0.08845523
1.077537,0.06017363,-0.06581054
1.239471,-0.0421835,-0.1324155
1.425218,-0.1699773,-0.2494569
1.380842,-0.2179851,-0.2635132
1.312768,-0.1837567,-0.2967747
1.399372,-0.2353468,-0.419033
1.382423,-0.3758807,-0.4601806
1.314836,-0.4452687,-0.4238958
1.278906,-0.4392356,-0.3654347
1.179941,-0.3355622,-0.2790152
1.13185,-0.1620423,-0.2605345
1.11819,-0.06372879,-0.2593262
1.084518,-0.05798143,-0.1683706
1.062432,-0.1116974,-0.1284907
0.9494006,-0.1828409,-0.1585441
0.8117233,-0.234571,-0.137984
0.7376456,-0.2416422,-0.1100025
0.7062428,-0.1907216,-0.07951192
0.7397492,-0.1560745,-0.05222304
0.7650671,-0.1464294,-0.07119143
0.7832913,-0.1315003,-0.07504864
0.7883548,-0.1223319,-0.06743866
0.7659667,-0.1187504,-0.06396366
0.8222973,-0.140514,-0.03374174
0.8701015,-0.1760028,-0.01756301
0.8545636,-0.2207169,-0.01181433
0.8608062,-0.2566224,0.03122175
0.8812658,-0.2435944,0.07467288
0.9257765,-0.2299902,0.07177649
0.9815796,-0.2362687,0.0710969
1.059946,-0.2374022,0.08933773
1.19867,-0.2629041,0.0442496
1.341369,-0.3578619,-0.08679935
1.470492,-0.4906218,-0.2373793
1.531662,-0.5195398,-0.307129
1.37543,-0.4069443,-0.310873
1.112754,-0.308776,-0.3350692
1.01153,-0.3080954,-0.317739
1.011478,-0.3577876,-0.2944457
1.00603,-0.4174834,-0.306559
1.039374,-0.4317155,-0.2543948
1.035751,-0.363909,-0.2152234
0.9701425,-0.2468672,-0.1845793
0.8611606,-0.1314421,-0.125944
0.7447483,-0.06116799,-0.1365131
0.7059559,-0.04628854,-0.1449399
0.6784568,-0.07504541,-0.1438436
0.6661248,-0.1179168,-0.1452491
0.6979556,-0.1344613,-0.1065746
0.7090359,-0.1092937,-0.0972734
0.7357244,-0.06445533,-0.1020424
0.7696213,-0.05121888,-0.1287025
0.8003182,-0.05372029,-0.1638349
0.8383188,-0.0364679,-0.1455809
0.8616979,-0.01673751,-0.1377652
0.9151197,0.01098655,-0.134735
0.9575373,0.02474692,-0.1208044
0.9872901,0.0192893,-0.1235639
1.11427,0.02384325,-0.1237988
1.261261,0.007648599,-0.1240252
1.292253,-0.05388151,-0.1251224
1.311439,-0.171749,-0.1391397
1.397563,-0.2571905,-0.1795581
1.393014,-0.208145,-0.2680943
1.348253,-0.1833729,-0.4108422
1.339277,-0.2844436,-0.481647
1.211249,-0.3873259,-0.3804482
1.124077,-0.4218217,-0.254922
1.177069,-0.3303812,-0.2574862
1.170684,-0.1627252,-0.2697066
1.134873,-0.08046392,-0.2070364
1.090684,-0.06703796,-0.139443
0.9918738,-0.08704853,-0.08486623
0.8912001,-0.1381395,-0.07394967
0.8196465,-0.1663455,-0.1036393
0.8019837,-0.1912939,-0.1209769
0.8154309,-0.199441,-0.1104497
0.8171617,-0.1970299,-0.09101595
0.7905204,-0.2239777,-0.1040026
0.7658751,-0.2226086,-0.09375557
0.7639782,-0.1847816,-0.032165
0.7495712,-0.1411428,0.01219889
0.7545741,-0.1342947,0.007299939
0.7877102,-0.1741793,-0.04065837
0.8067644,-0.2055229,-0.05589779
0.8093759,-0.2403472,-0.03797028
0.8157216,-0.2520812,-0.02410314
0.8545292,-0.2445226,0.008572611
0.9131344,-0.2541401,0.0218206
0.9734573,-0.2395541,0.04927978
1.014333,-0.267985,0.1004957
1.111589,-0.3102619,0.115735
1.352176,-0.2685378,0.09714912
1.500889,-0.2743668,0.001804929
1.472524,-0.4018121,-0.1185682
1.485898,-0.5342765,-0.1892041
1.445626,-0.5247935,-0.255568
1.251776,-0.415843,-0.2794881
1.075806,-0.3664958,-0.2563455
0.973074,-0.3279077,-0.2821118
0.9141822,-0.2866695,-0.3159735
0.9186873,-0.3015744,-0.280889
0.9822063,-0.3141295,-0.2500978
1.013908,-0.317586,-0.2396283
0.9608379,-0.2857807,-0.1816887
0.8653174,-0.2050677,-0.1055479
0.7615731,-0.1378342,-0.07044073
0.7188836,-0.08589525,-0.1065705
0.707937,-0.0427591,-0.1431802
0.6714421,-0.02594785,-0.128498
0.6832385,-0.04858693,-0.1229139
0.7041136,-0.05955967,-0.09901263
0.713155,-0.05340627,-0.07261643
0.7676405,-0.09631759,-0.08046616
0.8322712,-0.1198852,-0.07533295
0.8955541,-0.07435658,-0.1094928
0.9236352,-0.01117668,-0.1656418
0.9222893,0.01480371,-0.1548942
0.9578133,0.001794235,-0.1189949
1.0133,0.01864413,-0.09525139
1.059249,0.03347386,-0.07771432
1.064889,0.0264612,-0.07149804
1.091915,0.02437072,-0.0633816
1.224508,-0.03619883,-0.05989376
1.386065,-0.1369588,-0.09875752
1.469672,-0.1831059,-0.1590582
1.455073,-0.152485,-0.2074962
1.460975,-0.1419626,-0.2905908
1.485015,-0.2188442,-0.3826596
1.372634,-0.3260216,-0.3626878
1.213215,-0.4260095,-0.2708843
1.147455,-0.4309862,-0.2391113
1.164099,-0.3157592,-0.2360773
1.170275,-0.1941255,-0.2116454
1.07949,-0.1084251,-0.1650999
0.9525112,-0.1109729,-0.09399697
0.826617,-0.1709356,-0.07348134
0.7353259,-0.2052822,-0.08281
0.715483,-0.2424123,-0.06834644
0.7030185,-0.2334113,-0.08458395
0.7055096,-0.1951755,-0.09530412
0.6969416,-0.1894971,-0.06805269
0.6683234,-0.1764124,-0.04679366
0.6929124,-0.1691789,-0.04027412
0.7271155,-0.1472079,-0.03437948
0.7555664,-0.138308,-0.02070575
0.7849325,-0.1808828,-0.02734854
0.8143702,-0.2256805,-0.03542553
0.8774995,-0.3016376,-0.01093799
0.9458507,-0.3318896,0.015097
1.013025,-0.2846766,0.03471178
1.03,-0.2812042,0.040767
0.9985875,-0.2768682,0.04068038
1.019283,-0.2443465,0.07213035
1.037131,-0.2207602,0.1034762
1.068799,-0.2149604,0.07985045
1.229619,-0.2756142,0.004804573
1.458255,-0.4080363,-0.0735811
1.586526,-0.5670878,-0.1125288
1.150583,0.02974279,-0.1531256
1.186735,-0.04168481,-0.1567632
1.283969,-0.134653,-0.1721442
1.35398,-0.1718605,-0.1854483
1.393823,-0.1448073,-0.2603438
1.47321,-0.1504823,-0.3965611
1.513687,-0.231034,-0.4616932
1.40795,-0.3420213,-0.397277
1.213316,-0.4121954,-0.2968215
1.090155,-0.3927145,-0.248383
1.075037,-0.3269985,-0.2770939
1.092422,-0.2857211,-0.3282839
1.066031,-0.2757816,-0.2804962
0.996375,-0.2316741,-0.1682973
0.9113165,-0.1432079,-0.08589214
0.816907,-0.1529127,-0.07392391
0.7358577,-0.2057798,-0.1193313
0.6750235,-0.176152,-0.08966718
0.678853,-0.1948775,-0.05205335
0.6903382,-0.2206662,-0.07035583
0.6620213,-0.1885573,-0.04381424
0.7018101,-0.1748012,-0.05602145
0.7471463,-0.1245605,-0.06516528
0.7804238,-0.1209944,-0.04082605
0.8295807,-0.1936591,-0.06209339
0.8382211,-0.2574248,-0.03335375
0.8970533,-0.3479188,-0.01585226
0.9360657,-0.3615676,-0.008556523
0.9306769,-0.3064302,0.07948861
0.9987051,-0.2918589,0.1467773
1.024266,-0.2742041,0.1463857
1.059105,-0.281627,0.09606627
1.236912,-0.2903507,0.06572928
1.396591,-0.2921052,0.02231909
1.437126,-0.3789247,-0.08827294
1.482321,-0.4956381,-0.192941
1.491108,-0.5222614,-0.2873349
1.314516,-0.4214845,-0.315723
1.10683,-0.3035586,-0.3196144
0.9575761,-0.2738591,-0.3372896
0.8830834,-0.2976508,-0.30918
0.9565368,-0.3334778,-0.3144484
0.9984622,-0.3413723,-0.2900273
1.006551,-0.307662,-0.2301257
0.9718972,-0.252807,-0.1992573
0.8062944,-0.2032343,-0.147664
0.7488462,-0.1625493,-0.1336144
0.7417821,-0.1128195,-0.1202141
0.7003496,-0.1064729,-0.1151396
0.7285381,-0.1113461,-0.1365803
0.7090045,-0.07663044,-0.1112254
0.7023923,-0.04378361,-0.1101241
0.725271,-0.00635623,-0.1021666
0.7470354,-0.01641252,-0.1010591
0.8670838,-0.04449664,-0.1500374
0.942245,-0.02411286,-0.1579674
0.9272605,-0.03537444,-0.1620493
0.9248387,-0.0328877,-0.1527163
0.9576354,0.008278857,-0.126263
1.035959,0.04535165,-0.1281137
1.085972,0.09479236,-0.1158266
1.086862,0.0850021,-0.1117499
1.113132,0.0230303,-0.1104116
1.216464,-0.05897304,-0.1261261
1.340914,-0.1337227,-0.1887898
1.400832,-0.1098286,-0.2339641
1.432534,-0.1168003,-0.2744328
1.462117,-0.2182299,-0.331495
1.41379,-0.2725041,-0.3752221
1.242866,-0.3002157,-0.3869283
1.138317,-0.3096087,-0.368326
1.206298,-0.2905323,-0.351343
1.22923,-0.2976439,-0.3220884
1.164619,-0.2672733,-0.2526154
1.092319,-0.1992955,-0.1443298
0.9932037,-0.1455442,-0.05765402
0.9282669,-0.1087043,-0.06335131
0.9010764,-0.1267825,-0.110892
0.8497264,-0.1496689,-0.1315645
0.8008355,-0.1613844,-0.1084395
0.7783837,-0.2021596,-0.07561379
0.7650701,-0.223809,-0.08232089
0.7600748,-0.2277073,-0.08514963
0.7300576,-0.1979149,-0.0667435
0.6962116,-0.149662,-0.05982213
0.7315363,-0.1621981,-0.04988996
0.7622148,-0.1765388,-0.03800902
0.7644377,-0.2050919,-0.02824738
0.8154189,-0.2809959,-0.001814521
0.8933751,-0.2842835,0.04014842
0.9480444,-0.2562766,0.05951084
0.9847491,-0.2787451,0.04776683
1.054728,-0.2820621,0.05743212
1.113515,-0.2752519,0.07071169
1.17134,-0.2619854,0.05235905
1.33744,-0.245763,-0.003793218
1.485152,-0.3493801,-0.1401195
1.514065,-0.5004908,-0.2583016
1.427299,-0.5036646,-0.2631174
1.220652,-0.4093583,-0.2769675
1.077417,-0.341866,-0.3345768
1.015588,-0.3170778,-0.3571933
0.9481756,-0.3268715,-0.3579104
0.9560149,-0.3683387,-0.3505117
1.00106,-0.4123903,-0.3067318
1.020871,-0.395216,-0.231605
0.9817476,-0.3127805,-0.1711137
0.8740081,-0.212121,-0.1412004
0.7717622,-0.1043049,-0.1214842
0.6872466,-0.02612695,-0.1215308
0.6615779,-0.004562404,-0.1286181
0.6819534,-0.01333636,-0.1171801
0.6814887,-0.03138304,-0.1196573
0.7089322,-0.04599621,-0.147632
0.7590603,-0.09490668,-0.179456
0.8002411,-0.1778695,-0.1909481
0.8375292,-0.2083331,-0.1779702
0.8474011,-0.1520412,-0.1823063
0.8564409,-0.05161,-0.1883124
0.9299955,0.01985501,-0.1708179
1.045961,0.06829241,-0.1509777
1.10336,0.1096591,-0.1165293
1.10777,0.1013666,-0.08942324
1.154484,0.06428199,-0.08907972
1.262065,-0.029099,-0.1007719
1.382097,-0.2134275,-0.1389683
1.45034,-0.3499384,-0.1860656
1.43286,-0.2828364,-0.2514678
1.404162,-0.1889678,-0.3586879
1.415129,-0.3119073,-0.4182087
1.341258,-0.4116456,-0.3777794
1.19592,-0.3843109,-0.3140202
1.136702,-0.3915596,-0.2529391
1.110121,-0.3281686,-0.1920418
1.056039,-0.2468771,-0.154865
0.9951636,-0.1900605,-0.08720051
0.9230794,-0.1005544,-0.03482724
0.8590898,-0.0879366,-0.06235686
0.7940822,-0.09199085,-0.07537158
0.7617696,-0.1188088,-0.09326979
0.751628,-0.1805123,-0.1018544
0.7167342,-0.1757299,-0.05905721
0.7264667,-0.1653011,-0.06417585
0.7616178,-0.1522018,-0.067708
0.7685298,-0.1606863,-0.05484734
0.7747984,-0.2018108,-0.04848662
0.7693762,-0.221565,0.005085905
0.7785226,-0.2443806,0.01743547
0.8348102,-0.2436963,-0.003329817
0.8820328,-0.2569578,-0.009000749
0.8804153,-0.2669993,-0.01775263
0.909452,-0.2377782,0.0259108
1.027044,-0.2488331,0.08526229
1.109202,-0.2609787,0.1013391
1.151363,-0.3072715,0.07657934
1.266996,-0.391351,0.04005538
1.350342,-0.409621,-0.003794195
1.418444,-0.4321105,-0.09866112
1.508615,-0.4493144,-0.2099597
1.36225,-0.431758,-0.309299
1.101486,-0.4680379,-0.3365725
1.012017,-0.5117453,-0.2617965
0.9639941,-0.5110925,-0.2075606
0.96018,-0.4783507,-0.1949062
1.030676,-0.4128761,-0.2355758
1.031055,-0.3665308,-0.3010499
0.9833051,-0.3457918,-0.2498776
0.8927572,-0.3276422,-0.1775492
0.817209,-0.3178707,-0.1715166
0.8270369,-0.2812808,-0.1792949
0.8033059,-0.2410212,-0.2157609
0.7520151,-0.2238266,-0.2187444
0.6987605,-0.1896172,-0.2085855
0.611996,-0.1651342,-0.2477613
0.5753738,-0.1537036,-0.2616201
0.6619599,-0.1245661,-0.2571199
0.8212181,-0.1089008,-0.2515316
0.8925702,-0.1206264,-0.2437926
0.8949701,-0.130995,-0.2486098
0.9426702,-0.1014771,-0.2386598
0.9709745,-0.0502222,-0.2350316
0.9669756,-0.02276644,-0.2207383
0.9644947,-0.01745477,-0.1808628
0.9597559,-0.01573941,-0.13426
0.9601732,0.01608171,-0.07255766
0.9702124,0.065908,-0.05240331
0.9983781,0.09249552,-0.04395993
1.01066,0.09930746,0.03025857
1.045961,0.091508,0.1018569
1.162865,0.07591737,0.09632679
1.306588,0.02998346,0.01444065
1.440957,-0.04295367,-0.1050349
1.52743,-0.08801436,-0.2131388
1.493811,-0.1655549,-0.2750855
1.337664,-0.3039598,-0.3310642
1.17875,-0.3507696,-0.4080165
1.162405,-0.2942708,-0.4242171
1.255376,-0.2873407,-0.4332745
1.294952,-0.3001241,-0.4970193
1.254465,-0.2777426,-0.4862117
1.179643,-0.2899228,-0.3928088
1.014598,-0.2880965,-0.27132
0.851067,-0.2258285,-0.1699116
0.833334,-0.1543104,-0.1858768
0.8387352,-0.1130933,-0.1985163
0.7997011,-0.1296482,-0.1549595
0.778958,-0.1441561,-0.1644707
0.7496155,-0.1381578,-0.1298869
0.7161195,-0.1288539,-0.0615374
0.7078245,-0.06863995,-0.04983592
0.7235858,-0.0347857,-0.03248151
0.7764983,-0.09265857,-0.03814139
0.8287012,-0.1769418,-0.0531133
0.8242501,-0.2271988,-0.03612983
0.8223147,-0.2331368,-0.02403618
0.8951144,-0.2554678,0.01070746
0.9576853,-0.2728862,0.03855308
0.9525796,-0.2500739,0.04371704
0.9615603,-0.2569151,0.08527819
0.9893376,-0.2710265,0.125378
1.054593,-0.2675759,0.1238688
1.243707,-0.2824451,0.09843064
1.408372,-0.3173636,0.004289857
1.422968,-0.4358871,-0.1841642
1.445737,-0.6013992,-0.3303868
1.457076,-0.6067423,-0.349085
1.311739,-0.4140624,-0.3319628
1.074638,-0.2114218,-0.3346374
0.8356274,-0.1722018,-0.3430309
0.7696554,-0.2780124,-0.3314784
0.9357992,-0.3787563,-0.3035488
1.023748,-0.4102461,-0.2686207
0.9654089,-0.3507431,-0.1948805
0.890609,-0.2233518,-0.150931
0.7553416,-0.1362733,-0.1599646
0.6471793,-0.06540872,-0.1221816
0.6325863,-0.01826397,-0.09565253
0.6555299,-0.05445894,-0.118825
0.7101964,-0.05313528,-0.1116012
0.7474099,-0.03310985,-0.1122776
0.7742653,-0.06020289,-0.1477515
0.8219007,-0.06594586,-0.1749719
0.8624251,-0.08126481,-0.1805667
0.8932676,-0.06408231,-0.1635035
0.8955997,-0.005788228,-0.15513
0.8908824,0.01515373,-0.1522584
0.9377345,0.06088963,-0.1363231
1.027437,0.08945496,-0.1359576
1.110453,0.05279694,-0.1365609
1.155374,0.01746232,-0.1200408
1.207169,-0.04105156,-0.09760217
1.308365,-0.1067559,-0.08731366
1.403981,-0.1544514,-0.1213635
1.445486,-0.2023804,-0.1868911
1.438665,-0.210963,-0.2934493
1.427715,-0.2096262,-0.4419331
1.407835,-0.2471943,-0.4844698
1.248745,-0.3394555,-0.3447376
1.043722,-0.4394556,-0.208585
1.04716,-0.3523942,-0.2171697
1.107291,-0.1777534,-0.2273957
1.052321,-0.1796654,-0.1272779
1.028921,-0.2091218,-0.04017713
0.9850828,-0.1930921,-0.03131867
0.8715325,-0.2198733,-0.02358169
0.8393845,-0.20807,-0.03483606
0.7846171,-0.200818,-0.09144878
0.6976615,-0.2155519,-0.08646072
0.7436557,-0.211041,-0.05666525
0.7592614,-0.2235581,-0.08397496
0.7196279,-0.2005943,-0.07283222
0.7549472,-0.1633311,-0.05741576
0.7635506,-0.1524986,-0.06770204
0.7835265,-0.1652291,-0.03746214
0.8280107,-0.2298886,-0.02374192
0.8198092,-0.2928205,-0.007139762
0.8518722,-0.3179714,0.01969869
0.9059475,-0.3015443,0.03260987
0.9410693,-0.27376,0.07055717
0.9873366,-0.2713024,0.08501686
1.036149,-0.2673138,0.105435
1.13302,-0.2761557,0.1398804
1.279839,-0.2662834,0.119322
1.414435,-0.2579666,0.06445294
1.464123,-0.3435802,-0.05198805
1.459348,-0.453077,-0.1997265
1.461103,-0.4900162,-0.2887669
1.346128,-0.4405976,-0.3147178
1.102297,-0.3782033,-0.2917603
0.8763576,-0.3589635,-0.2693247
0.7917926,-0.3587994,-0.2708145
0.8864121,-0.3813517,-0.2646687
1.002083,-0.3687173,-0.2508946
1.048584,-0.3119849,-0.2424252
0.9975971,-0.2449275,-0.2285552
0.8549995,-0.1645747,-0.1973241
0.7873651,-0.1369654,-0.1620606
0.76206,-0.1131954,-0.1507492
0.7301585,-0.08619729,-0.169036
0.7757795,-0.1061897,-0.1820536
0.7905537,-0.08347636,-0.174801
0.7375139,-0.0582615,-0.1524843
0.7135106,-0.06709086,-0.1324096
0.7608025,-0.08743004,-0.161524
0.8386505,-0.1278246,-0.1945805
0.8428729,-0.09914144,-0.1690823
0.8359114,-0.02138227,-0.1479785
0.8792515,0.05487772,-0.1553689
0.9357573,0.1309744,-0.1429979
1.021778,0.1658899,-0.1062478
1.055781,0.1792406,-0.06363851
1.039937,0.1448711,-0.04509397
1.097458,0.08973466,-0.04377203
1.187624,0.07699616,-0.04366828
1.288923,0.01858027,-0.09746398
1.408728,-0.04952058,-0.192068
1.414081,-0.0516357,-0.3023657
1.343132,-0.125222,-0.4064698
1.311335,-0.2981469,-0.3796735
1.20962,-0.3714125,-0.3057277
1.152593,-0.3347107,-0.3194067
1.21876,-0.3147387,-0.3082882
1.158725,-0.2656892,-0.2729309
1.088992,-0.2456936,-0.2453455
1.051814,-0.2848668,-0.1817115
0.9111162,-0.2625626,-0.1445975
0.8925154,-0.2540447,-0.1435509
0.8944124,-0.2245335,-0.146272
0.7502296,-0.12257,-0.1255515
0.68716,-0.1006112,-0.1067619
0.7042873,-0.1306123,-0.1322204
0.6863958,-0.1660177,-0.1262535
0.6790887,-0.2004789,-0.121893
0.7266411,-0.1748982,-0.1181178
0.7850851,-0.1409281,-0.05710485
0.8327872,-0.1415523,-0.04345189
0.8766684,-0.1505458,-0.0510086
0.8816342,-0.1565792,-0.03278798
0.9071576,-0.1840551,-0.02235355
0.9434044,-0.2055968,-0.007605113
0.949156,-0.1889585,-0.001167855
0.9745334,-0.1791585,0.03369724
0.9488565,-0.1568306,0.07609422
0.9070255,-0.1287141,0.09895215
0.9418116,-0.1456768,0.1128805
0.9798639,-0.1800488,0.09931939
1.03309,-0.2215322,0.1170033
1.148346,-0.2606617,0.1212641
1.315126,-0.2869259,0.08597906
1.473392,-0.3359865,0.03271555
1.497994,-0.4016876,-0.1190332
1.443888,-0.4600939,-0.2624156
1.415764,-0.5299967,-0.324002
1.328159,-0.5575221,-0.3415727
1.130773,-0.500171,-0.3038156
0.8893216,-0.4659048,-0.3087312
0.803993,-0.4596355,-0.3191487
0.9632548,-0.4067068,-0.2998196
1.080892,-0.3455606,-0.3200498
1.070565,-0.2929346,-0.2888569
1.009425,-0.251477,-0.2442587
0.8451752,-0.2067683,-0.2458983
0.7654479,-0.1402566,-0.2300124
0.781996,-0.100569,-0.2151434
0.738536,-0.08149705,-0.1917805
0.7190458,-0.07542278,-0.1727586
0.6973554,-0.09615604,-0.1612095
0.6919875,-0.1072163,-0.1480073
0.737482,-0.1007726,-0.1672644
0.7583095,-0.08518689,-0.1623844
0.7875286,-0.05575074,-0.1577587
0.7959578,-0.01069223,-0.1838604
0.8167189,0.04271518,-0.1854889
0.8913826,0.1049181,-0.1790938
0.9596842,0.1385261,-0.1334675
1.045019,0.1041778,-0.07257939
1.08872,0.09844002,-0.07300275
1.101918,0.1136457,-0.09095488
1.204693,0.04834753,-0.1026241
1.336445,-0.05278821,-0.1274557
1.381725,-0.1695162,-0.1831594
1.355648,-0.2360373,-0.2740876
1.351007,-0.2335043,-0.3733877
1.3352,-0.2983868,-0.4260825
1.279953,-0.3693311,-0.3969359
1.255334,-0.3564363,-0.3457961
1.219623,-0.2955806,-0.2872441
1.163414,-0.2000189,-0.2051462
1.130475,-0.1227049,-0.1506842
1.111161,-0.08079338,-0.1212165
1.075362,-0.06335567,-0.1151492
0.9666434,-0.08212807,-0.1398294
0.8371472,-0.1229954,-0.1460717
0.7441326,-0.1696221,-0.1276963
0.6828228,-0.1898364,-0.112701
0.6846286,-0.1878278,-0.1171642
0.6952847,-0.2038878,-0.1289897
0.6849073,-0.2137297,-0.1168763
0.6909293,-0.1855303,-0.07804852
0.7022623,-0.163713,-0.03598247
0.7485821,-0.1781167,-0.04400408
0.8219485,-0.2024582,-0.07535729
0.8521877,-0.2378617,-0.06241519
0.884969,-0.2791787,-0.04650644
0.9886642,-0.2924422,-0.01392671
1.06597,-0.2860233,0.03620954
1.04493,-0.2947335,0.03786444
1.036989,-0.3130016,0.05281851
1.099505,-0.3004531,0.08821078
1.207799,-0.2484831,0.07533789
1.360951,-0.2212312,-0.02054345
1.458538,-0.3158751,-0.1827619
1.419327,-0.4676489,-0.2728286
1.31886,-0.4882144,-0.2934689
1.185772,-0.4218983,-0.3015303
1.039239,-0.3995185,-0.2731673
0.9662312,-0.380509,-0.3091867
0.9417374,-0.3621939,-0.3445712
0.9460179,-0.3549909,-0.2847083
0.9649379,-0.3148148,-0.2495104
0.9010465,-0.2551057,-0.2093536
0.8026486,-0.1752407,-0.1432668
0.7220222,-0.08704696,-0.1251059
0.6515882,-0.03394161,-0.1331366
0.6405436,-0.019772,-0.1380291
0.6479896,-0.03141711,-0.1194795
0.6672518,-0.04519106,-0.1110715
0.6977696,-0.05892052,-0.1155908
0.7050307,-0.06018023,-0.1147617
0.7669308,-0.04559269,-0.1311749
0.848732,-0.05169695,-0.1208268
0.8730389,-0.0546605,-0.1148252
0.8969025,-0.04795573,-0.1426562
0.9203376,-0.04195236,-0.1600642
0.9279899,-0.02202039,-0.1716207
1.000551,-0.02178073,-0.1551934
1.104255,-0.01046405,-0.1405389
1.096081,0.02804236,-0.1476732
1.066752,0.03985839,-0.1232521
1.134692,0.04988645,-0.08024405
1.237577,0.01299307,-0.0606053
1.376616,-0.1201397,-0.1096404
1.464524,-0.20433,-0.1762087
1.442562,-0.1712912,-0.1979566
1.458263,-0.158211,-0.2763344
1.472416,-0.2344042,-0.3920256
1.40291,-0.3304662,-0.3962445
1.280672,-0.3932824,-0.3224363
1.125329,-0.3806808,-0.280981
1.101514,-0.3155564,-0.2716764
1.160383,-0.2696033,-0.2351998
1.073145,-0.2034612,-0.1494872
0.9546684,-0.1532826,-0.07449542
0.8679988,-0.1585892,-0.07245146
0.7812782,-0.1500603,-0.09697846
0.7522389,-0.1750566,-0.09481011
0.6891478,-0.1997961,-0.09946659
0.6422981,-0.1826724,-0.09480746
0.6636277,-0.1951224,-0.0615368
0.6535388,-0.1879632,-0.06012675
0.6685172,-0.1607471,-0.05203542
0.6910456,-0.1363583,-0.02365564
0.713169,-0.1193373,-0.04979175
0.7676179,-0.1509463,-0.06503382
0.7984144,-0.2078207,-0.04647425
0.8902124,-0.3107717,-0.04767974
0.9937766,-0.3800292,-0.03414434
1.016912,-0.3402611,0.001040223
1.09831,-0.3097055,0.04523258
1.189811,-0.2810617,0.06594017
1.183071,-0.2481616,0.05508231
1.208048,-0.2599432,0.0663065
1.29218,-0.2243676,0.06547807
1.313197,-0.1873922,-0.002759516
1.308413,-0.3066051,-0.1805017
1.37076,-0.5248857,-0.4016554
1.41177,-0.617744,-0.4263396
1.26593,-0.4674083,-0.3091465
0.9862444,-0.280038,-0.278381
0.824582,-0.2785759,-0.2634166
0.8327732,-0.3444947,-0.2502404
0.9191063,-0.3707789,-0.2655557
1.002504,-0.3772369,-0.2097878
0.9606974,-0.3077795,-0.1774068
0.8746922,-0.2114776,-0.1952143
0.8293819,-0.1620567,-0.1816691
0.7453796,-0.09847842,-0.1770577
0.6797411,-0.02675552,-0.1627563
0.6923241,-0.0567926,-0.1580963
0.7359233,-0.126141,-0.1574367
0.7577758,-0.06810215,-0.1225752
0.7745036,-0.02109555,-0.1198283
0.8268592,-0.05762572,-0.115948
0.8558974,-0.03590749,-0.1107885
0.864463,-0.03745903,-0.1435505
0.8744898,-0.04259751,-0.1567149
0.8929795,-0.008479397,-0.1550217
0.967522,-0.0229309,-0.1455742
1.035577,0.0004722381,-0.1306965
1.064133,0.02819271,-0.1227192
1.088516,0.003624581,-0.09985957
1.15403,-0.01437268,-0.07284552
1.257315,-0.06853688,-0.06452445
1.344847,-0.1862582,-0.0975054
1.455627,-0.3099515,-0.1281747
1.462917,-0.2902805,-0.1438216
1.39475,-0.2159202,-0.2815211
1.487584,-0.2588132,-0.4803961
1.495022,-0.2692633,-0.4905895
1.302668,-0.3116378,-0.3752238
1.158679,-0.4193097,-0.3379436
1.137067,-0.3688607,-0.3295604
1.185622,-0.2932769,-0.3103529
1.110495,-0.2518562,-0.2632795
0.9750917,-0.1692507,-0.1295063
0.8992254,-0.1625851,-0.07715065
0.7796409,-0.1580803,-0.130062
0.7448473,-0.1424803,-0.117925
0.7266106,-0.1804506,-0.09375125
0.6651675,-0.1760851,-0.08854269
0.7032114,-0.1840176,-0.08149236
0.7031708,-0.2186485,-0.08783957
0.7088137,-0.2154176,-0.07007005
0.7608797,-0.2086764,-0.04928683
0.7688258,-0.1889726,-0.04385647
0.805589,-0.1946993,-0.05147723
0.8172384,-0.2417309,-0.06072396
0.8472219,-0.2845062,-0.04338978
0.94113,-0.3113913,-0.02918873
0.9827543,-0.2991419,-0.01913085
0.9871126,-0.2967976,0.009712324
0.9744388,-0.3025496,0.05317378
0.9788584,-0.2692994,0.09681523
1.05662,-0.2356742,0.09627647
1.205904,-0.2178673,0.02344305
1.406719,-0.2760799,-0.09914091
1.56864,-0.3963373,-0.1978807
1.577129,-0.4754804,-0.2594547
1.417021,-0.5312879,-0.3329479
1.242907,-0.5358737,-0.3382471
1.144422,-0.4627982,-0.2900415
1.041245,-0.379885,-0.3181337
0.9450149,-0.3235515,-0.3107544
0.918748,-0.323188,-0.2589604
0.9279649,-0.326042,-0.2709385
0.902802,-0.2692715,-0.2355127
0.8457967,-0.1895713,-0.1962065
0.7879431,-0.1222397,-0.2082161
0.7415879,-0.1178758,-0.1830475
0.7421834,-0.1592072,-0.1743389
0.747856,-0.175771,-0.1714561
0.7275224,-0.1817815,-0.1639697
0.7250379,-0.1686839,-0.1711164
0.7449845,-0.1154005,-0.1465862
0.7954704,-0.04892865,-0.142902
0.8401667,-0.02126898,-0.1564135
0.8449361,-0.04058354,-0.1654015
0.8355313,-0.02271039,-0.1888792
0.8279903,0.01158845,-0.2020012
0.8544071,0.01252908,-0.2207855
0.9021638,0.02167045,-0.2220793
0.951134,0.01676901,-0.202495
0.9992103,-0.002031753,-0.1926667
1.013525,-0.02268229,-0.165151
1.007851,-0.03537411,-0.1254206
1.010471,0.01060651,-0.09927455
1.049371,0.05470742,-0.1106793
1.13614,0.03973917,-0.1347834
1.248226,-0.03959497,-0.1487838
1.392949,-0.1848198,-0.204808
1.534998,-0.2812488,-0.2877796
1.560736,-0.3007184,-0.339199
1.387172,-0.377043,-0.296288
1.147723,-0.4520428,-0.2173376
1.084982,-0.3971607,-0.2523639
1.162702,-0.3101653,-0.2782428
1.381618,-0.05278534,-0.1774343
1.378797,-0.03971605,-0.1906338
1.362636,-0.02736082,-0.300327
1.441042,-0.1514706,-0.5222339
1.480857,-0.3748788,-0.5890471
1.369626,-0.5671586,-0.4751491
1.246658,-0.5619794,-0.4196993
1.23415,-0.4256259,-0.410381
1.204226,-0.3505663,-0.3546427
1.154197,-0.28188,-0.3267435
1.106468,-0.1773992,-0.244155
0.949943,-0.07898859,-0.06163626
0.8756868,-0.08028036,-0.03943544
0.8991287,-0.1824935,-0.1117702
0.7654236,-0.1902925,-0.06148483
0.701509,-0.1882651,-0.06394836
0.7838568,-0.2091646,-0.1184592
0.7702452,-0.1623805,-0.1132691
0.747057,-0.2116863,-0.1149786
0.7323199,-0.2355775,-0.06940697
0.7091735,-0.1652441,-0.02118001
0.7642674,-0.1483463,-0.02941464
0.8082277,-0.138654,-0.03913513
0.8029198,-0.200172,-0.05849351
0.7984223,-0.2763852,-0.0234579
0.8356874,-0.283575,0.02407712
0.9131934,-0.2895422,0.01961272
0.9817081,-0.2848059,0.03949097
1.049015,-0.3271383,0.05907097
1.15072,-0.3553433,0.05938455
1.302022,-0.337806,0.01954535
1.399719,-0.3644491,-0.08799513
1.414425,-0.4210981,-0.1913082
1.42394,-0.475595,-0.2643296
1.328278,-0.4198251,-0.3123298
1.148214,-0.3517267,-0.3517099
1.054599,-0.4030909,-0.3968393
1.033814,-0.4070534,-0.397992
0.9882318,-0.364768,-0.3331146
0.9215825,-0.3530567,-0.2743089
0.9247626,-0.3346531,-0.2736014
0.9288708,-0.3095372,-0.2580499
0.8722461,-0.2566943,-0.1965242
0.837855,-0.1948778,-0.1571908
0.7780211,-0.1474296,-0.1544109
0.7266138,-0.09615728,-0.1524457
0.7250351,-0.07254429,-0.1444137
0.6891238,-0.08623927,-0.1446347
0.6804288,-0.07827765,-0.1339541
0.704954,-0.04624147,-0.1197349
0.7307368,-0.04298038,-0.1222861
0.7661996,-0.0541413,-0.120553
0.7804743,-0.05434641,-0.1335434
0.822744,-0.03711486,-0.1638317
0.884257,0.01541523,-0.1826513
0.9762521,0.07073884,-0.1851571
1.095136,0.08343369,-0.174683
1.143415,0.05574975,-0.1592975
1.198127,0.01451674,-0.1371691
1.287704,-0.06627036,-0.1612893
1.348948,-0.2113277,-0.2217139
1.378598,-0.2930689,-0.242067
1.369761,-0.2598193,-0.3097993
1.392219,-0.2780259,-0.4240944
1.394973,-0.3590804,-0.438836
1.278193,-0.3565758,-0.3905461
1.133066,-0.3096523,-0.3510186
1.067654,-0.279215,-0.2981398
1.094102,-0.2153107,-0.2655134
1.104871,-0.1663516,-0.2496384
1.075003,-0.179231,-0.1879058
1.045772,-0.2045615,-0.1457926
0.9596995,-0.2186425,-0.1516311
0.8776422,-0.2305293,-0.1397293
0.8247831,-0.2361076,-0.1298572
0.771483,-0.2078336,-0.1015394
0.7842225,-0.178209,-0.06924073
0.7786563,-0.1757741,-0.07528082
0.7330415,-0.1608037,-0.05569423
0.7319002,-0.1536153,-0.04314785
0.7317824,-0.1650228,-0.05868012
0.7360841,-0.1678332,-0.05629827
0.7404285,-0.1777096,-0.05856057
0.7604199,-0.2051888,-0.05631178
0.874916,-0.2446736,-0.04172991
1.000331,-0.2702119,-0.0301976
1.021871,-0.2646045,-0.01979687
1.031993,-0.2644529,0.02200054
1.167707,-0.2775427,0.09680958
1.285679,-0.2771617,0.08899143
1.327446,-0.3128683,-0.04948313
1.492505,-0.4197059,-0.2300039
1.578939,-0.4918637,-0.3234515
1.378358,-0.4464851,-0.3011436
1.1531,-0.3814907,-0.3170618
1.029838,-0.387012,-0.3515526
0.9639541,-0.3956921,-0.3087253
0.9343442,-0.3943442,-0.3161127
0.9319422,-0.4036067,-0.327611
0.9861805,-0.3757407,-0.2758175
1.001344,-0.337821,-0.260308
0.9388052,-0.2814813,-0.2165335
0.8731408,-0.1991775,-0.1639513
0.8083722,-0.1590986,-0.1666789
0.7607597,-0.1391257,-0.1742956
0.7092301,-0.1274834,-0.1911722
0.68239,-0.1208684,-0.1634752
0.7078202,-0.08220926,-0.1242103
0.6962263,-0.02186645,-0.1253326
0.7029652,0.01769463,-0.104592
0.7515313,-0.01870693,-0.09554073
0.7866803,-0.05152455,-0.1122435
0.829475,-0.01183252,-0.1607485
0.8424832,-0.002578811,-0.2113465
0.8819255,-0.02436882,-0.1737204
0.989761,-0.0232832,-0.1228206
1.098804,-0.01756574,-0.122324
1.210192,-0.004503214,-0.1271546
1.317065,-0.02470146,-0.1427246
1.42028,-0.1304953,-0.1956828
1.450899,-0.2318957,-0.2688046
1.38606,-0.1916625,-0.3601385
1.368489,-0.1617048,-0.4772671
1.364361,-0.3461198,-0.5040034
1.263103,-0.4927465,-0.4041064
1.127725,-0.4179314,-0.3265749
1.096348,-0.3265756,-0.2931561
1.145959,-0.2456741,-0.2550489
1.107653,-0.1365541,-0.2209519
1.009509,-0.1282275,-0.1520446
0.9034191,-0.1810274,-0.08789749
0.8048962,-0.205033,-0.1091311
0.8016354,-0.2540891,-0.1363495
0.801577,-0.2784177,-0.1191502
0.7887796,-0.2538771,-0.1226605
0.8047358,-0.2542935,-0.1234253
0.764918,-0.2026403,-0.09173092
0.73084,-0.1116618,-0.07083499
0.7254783,-0.08989898,-0.05615471
0.7313388,-0.09972413,-0.05219997
0.7500217,-0.1094289,-0.05451462
0.7130346,-0.1410615,-0.03309771
0.6935273,-0.22382,-0.01407553
0.73001,-0.2818199,0.01181532
0.7972148,-0.2497795,0.0263238
0.8953311,-0.2198094,0.005107032
0.938504,-0.2013591,0.008023126
0.9707454,-0.206967,0.01664394
1.092512,-0.2480697,0.01402271
1.272932,-0.2474929,0.006106416
1.438736,-0.2589597,-0.05520011
1.542732,-0.3270486,-0.1427578
1.613396,-0.4125495,-0.1996608
1.616824,-0.4581112,-0.235391
1.414017,-0.4342953,-0.2791261
1.022981,-0.4484124,-0.2576826
0.7523252,-0.4960388,-0.174399
0.8031673,-0.4936124,-0.1925147
0.9411837,-0.4644533,-0.2577499
0.9880304,-0.4202705,-0.2977004
0.9902926,-0.4184114,-0.3315032
0.8949514,-0.4249067,-0.274839
0.7867043,-0.3514686,-0.2383572
0.8029283,-0.2798716,-0.2813985
0.8332658,-0.2211555,-0.2904516
0.8310946,-0.1799761,-0.2985417
0.8279876,-0.1960167,-0.2905835
0.807834,-0.192915,-0.2727825
0.7943412,-0.1873044,-0.2819755
0.7761419,-0.1963014,-0.2546497
0.7528311,-0.1808431,-0.2099481
0.7488944,-0.1466787,-0.178609
0.7512296,-0.0433163,-0.1759085
0.7623418,0.08518684,-0.2156036
0.8218,0.1153812,-0.2626272
0.9280559,0.06048312,-0.2756207
0.9693218,0.02086417,-0.2066653
0.9352847,0.03151138,-0.1023772
0.9387908,0.03328247,-0.05707509
0.9703251,0.02041357,-0.07385068
1.012066,0.001420004,-0.0826191
1.089618,-0.04778577,-0.06322689
1.195698,-0.1139129,-0.08366156
1.34985,-0.1921002,-0.1270973
1.43613,-0.1911672,-0.1623534
1.386418,-0.07075498,-0.231698
1.421111,0.004085233,-0.373979
1.47362,-0.06246783,-0.5267011
1.352154,-0.2807456,-0.5279386
1.257002,-0.4906105,-0.4866279
1.187668,-0.4334486,-0.4394267
1.04305,-0.3171646,-0.2482016
0.997962,-0.3160933,-0.2140617
1.006171,-0.205542,-0.2951441
0.9555384,-0.1382113,-0.2152543
0.9504633,-0.2200606,-0.2193571
0.9663136,-0.2135847,-0.2333819
0.9198436,-0.2189238,-0.1832032
0.8853882,-0.2398842,-0.1949937
0.8743052,-0.1904667,-0.125005
0.8551192,-0.1989985,-0.1025419
0.8310894,-0.1693134,-0.1171154
0.7653464,-0.1195323,-0.04771836
0.7419162,-0.143923,-0.05791892
0.7657978,-0.149789,-0.05687821
0.770943,-0.1776287,-0.03202028
0.8075053,-0.2266138,-0.04343044
0.7862846,-0.2738197,-0.0109719
0.7581257,-0.3109578,0.001579212
0.8473861,-0.296495,0.02631708
0.9203196,-0.3028529,0.08159075
0.9896151,-0.2985186,0.09201177
1.154706,-0.2559373,0.06024165
1.335336,-0.2696749,-0.0250497
1.44795,-0.3725549,-0.1605075
1.535788,-0.5378827,-0.3136162
1.58248,-0.624898,-0.4016391
1.488548,-0.5617338,-0.3911162
1.284717,-0.4219795,-0.3352898
1.002398,-0.2710651,-0.2841109
0.7916212,-0.2539674,-0.2926365
0.7603717,-0.3363863,-0.3062048
0.8134074,-0.3584231,-0.2869334
0.9849108,-0.4102633,-0.2659132
1.035176,-0.4041825,-0.2010152
0.8860312,-0.2643588,-0.1339591
0.820788,-0.1963495,-0.1283965
0.7146086,-0.1211333,-0.138157
0.6524758,-0.06468067,-0.1383009
0.6928872,-0.1155266,-0.144236
0.6474252,-0.08079298,-0.1437895
0.670925,-0.0463875,-0.1249336
0.712681,-0.04764225,-0.1146845
0.7614486,-0.04800987,-0.1199923
0.8469253,-0.1108778,-0.1321236
0.8277012,-0.08026542,-0.1543291
0.8383559,-0.01239583,-0.1649636
0.8723357,0.04166014,-0.1518618
0.911797,0.1167386,-0.1411848
0.9989159,0.07813912,-0.1569827
1.066703,0.04827249,-0.1790224
1.18375,0.03765947,-0.1839845
1.276875,-0.05096876,-0.1682961
1.326349,-0.09333186,-0.1294863
1.363119,-0.1052876,-0.1269733
1.361304,-0.09120657,-0.2393772
1.46467,-0.1086328,-0.4224346
1.521117,-0.3241754,-0.4881387
1.316606,-0.556397,-0.3630698
1.062928,-0.5344099,-0.2508379
1.014229,-0.3827501,-0.2556421
1.106208,-0.290424,-0.2582523
1.116273,-0.1660439,-0.212368
1.083742,-0.0944064,-0.1549598
1.025573,-0.1645804,-0.1282961
0.8791669,-0.1651762,-0.1238287
0.8000402,-0.1789056,-0.1075854
0.7611128,-0.2330333,-0.100143
0.7198485,-0.1853046,-0.09005831
0.7485514,-0.1841705,-0.09340402
0.7328137,-0.2070023,-0.117401
0.7072901,-0.2044063,-0.08880211
0.7389082,-0.2268267,-0.04900137
0.7708201,-0.1971861,-0.0426933
0.8391474,-0.1710082,-0.04242839
0.8632689,-0.1733532,-0.05431838
0.837791,-0.1820917,-0.04566383
0.8834214,-0.230067,-0.02505321
0.9325844,-0.2683817,-0.004605052
0.9677226,-0.2631904,0.0299269
1.027165,-0.2474447,0.04933623
1.121757,-0.2701227,0.08443904
1.237023,-0.281029,0.09560272
1.296152,-0.2658226,0.02920322
1.386186,-0.3198462,-0.07815389
1.439257,-0.4605923,-0.222384
1.342091,-0.5767131,-0.2908878
1.261048,-0.4410376,-0.2995117
1.109231,-0.2312903,-0.3824591
0.9371507,-0.2882913,-0.3951244
0.9299327,-0.3516456,-0.3331699
0.92303,-0.368199,-0.3165615
1.001039,-0.4863053,-0.2802838
1.096914,-0.4448324,-0.2508492
0.995145,-0.3116244,-0.2232894
0.8945541,-0.2041571,-0.1907936
0.7958565,-0.04648845,-0.2056561
0.7094656,-0.03600119,-0.1896433
0.7166259,-0.09604523,-0.1720134
0.6900565,-0.08810214,-0.1714877
0.6753063,-0.1188755,-0.1362828
0.692683,-0.1129012,-0.1414615
0.715765,-0.1008171,-0.1564885
0.747416,-0.1161003,-0.1469047
0.7441124,-0.05280933,-0.1589916
0.7603014,0.01917477,-0.173892
0.7995917,0.04575799,-0.2023205
0.8501378,0.03586744,-0.2097135
0.9428767,0.02551862,-0.1585328
1.045884,0.03941184,-0.1114178
1.086652,0.02641843,-0.08883212
1.091447,0.01853362,-0.07901359
1.193274,-0.01651389,-0.1186714
1.344908,-0.1286082,-0.2181118
1.443742,-0.2008826,-0.3092598
1.474933,-0.1833022,-0.399752
1.443236,-0.1933516,-0.4792438
1.3372,-0.2883842,-0.3920736
1.131078,-0.3262412,-0.2506027
1.081482,-0.2945049,-0.2509547
1.183746,-0.3061965,-0.2289932
1.143586,-0.2991078,-0.1393
1.151763,-0.2753234,-0.1067963
1.177809,-0.2560187,-0.09307451
1.072891,-0.2029679,-0.1013295
0.9765404,-0.177019,-0.1364045
0.8198572,-0.1699491,-0.1433801
0.7607759,-0.1678665,-0.121753
0.8055283,-0.1878136,-0.08062581
0.7431438,-0.1897703,-0.07258063
0.7490107,-0.1822535,-0.08639724
0.756887,-0.1684611,-0.06989127
0.7227876,-0.1450769,-0.0701005
0.747603,-0.1283812,-0.07176577
0.7143529,-0.1111625,-0.0492562
0.7112857,-0.1214525,-0.03453579
0.7534809,-0.1884715,-0.01998834
0.7770206,-0.2740657,-0.002518481
0.8470834,-0.3097074,0.01959341
0.8984384,-0.2841665,0.04040363
0.9171942,-0.2571806,0.07581568
0.9221765,-0.2462775,0.1236859
0.9460033,-0.2354995,0.1139475
1.046664,-0.238718,0.08320238
1.192261,-0.244853,0.07610072
1.391652,-0.2909136,0.04101291
1.538346,-0.4268984,-0.03546199
1.549387,-0.5487933,-0.158285
1.543174,-0.5531929,-0.2610571
1.447075,-0.4733202,-0.2692883
1.145177,-0.4104736,-0.2596105
0.8172667,-0.4193401,-0.2758841
0.7607099,-0.45532,-0.3223448
0.9581351,-0.4850813,-0.3833457
1.077524,-0.4897685,-0.3670206
1.059563,-0.4548585,-0.3171197
0.9740702,-0.3806667,-0.2929903
0.8213135,-0.2652827,-0.2556932
0.7693553,-0.1722437,-0.2367506
0.7791233,-0.1176656,-0.2333789
0.7427631,-0.06953087,-0.2307532
0.7460622,-0.07404076,-0.2314492
0.7226236,-0.08709676,-0.1987359
0.6668048,-0.04985045,-0.1678024
0.672734,-0.04843755,-0.1400956
0.6951423,-0.06569773,-0.0878326
0.7178862,-0.04329033,-0.0770286
0.7686323,-0.0162611,-0.1301449
0.8347955,0.056682,-0.1781237
0.9141598,0.1237079,-0.1695608
1.026067,0.09830643,-0.1329886
1.112765,0.07529447,-0.102028
1.127166,0.05929255,-0.07687244
1.176182,0.006577124,-0.07380825
1.301984,-0.0548181,-0.1064601
1.374131,-0.1236535,-0.1556599
1.329405,-0.1377726,-0.1840067
1.303753,-0.1137698,-0.2631192
1.36828,-0.1653253,-0.4237978
1.3923,-0.274175,-0.4773026
1.339774,-0.3905213,-0.4088639
1.254274,-0.4599687,-0.3473392
1.142734,-0.4267342,-0.2684295
1.09034,-0.3424571,-0.2266702
1.101112,-0.2232712,-0.2224002
1.066326,-0.1241474,-0.1482785
0.9745048,-0.1363415,-0.108773
0.8603345,-0.1618019,-0.125249
0.7469363,-0.1615996,-0.09403054
0.6869161,-0.1665582,-0.07714785
0.6853643,-0.1476587,-0.07797622
0.6921867,-0.153854,-0.06989792
0.7050966,-0.1682116,-0.07684952
0.733388,-0.1726285,-0.06519261
0.754241,-0.1907607,-0.0607396
0.7633662,-0.1814008,-0.05674566
0.7673605,-0.186389,-0.03344277
0.7886134,-0.22,-0.03114762
0.8384754,-0.2512137,-0.01460987
0.9039635,-0.2797585,0.02745143
0.9918106,-0.2779603,0.07892005
1.03539,-0.2714575,0.1173311
0.996903,-0.2505073,0.1181827
0.9930582,-0.2155137,0.1369795
1.043793,-0.223201,0.1496285
1.185874,-0.2473255,0.09116438
1.500078,-0.3092096,-0.02226828
1.6757,-0.4114803,-0.1369472
1.558056,-0.4854916,-0.2025764
1.491578,-0.5440088,-0.2908059
1.410604,-0.5111284,-0.366939
1.101443,-0.3612604,-0.3183086
0.8828545,-0.2838248,-0.3107943
0.8736403,-0.2900972,-0.349412
0.8973015,-0.3223826,-0.3127044
0.9800268,-0.3805029,-0.318709
1.044019,-0.3290538,-0.2822002
0.9737912,-0.2324072,-0.176448
0.8626686,-0.1803694,-0.1700733
0.7832374,-0.09704835,-0.1847097
0.7330881,-0.07198223,-0.1831791
0.7080978,-0.08706217,-0.1774398
0.7278301,-0.09017317,-0.1513555
0.7536442,-0.1161567,-0.1363152
0.7537035,-0.08431025,-0.1060266
0.7746633,-0.05530414,-0.1095783
0.7756677,-0.07056363,-0.1300654
0.7587,-0.0579807,-0.1279304
0.7801625,-0.01984681,-0.1497794
0.8528649,0.0585847,-0.1600855
0.9866811,0.1008597,-0.1746445
1.091071,0.03609495,-0.1856528
1.181986,-0.05541175,-0.1648877
1.328813,-0.1227774,-0.163474
1.40536,-0.1699527,-0.1637737
1.394218,-0.167539,-0.1835993
1.392085,-0.1218263,-0.2682105
1.398188,-0.1420381,-0.3673505
1.392338,-0.2983865,-0.4291943
1.371042,-0.475182,-0.4774083
1.339371,-0.4699724,-0.4765325
1.259911,-0.3818264,-0.3591665
1.126367,-0.3784847,-0.2666572
1.067285,-0.2811914,-0.2528086
1.116931,-0.1328157,-0.2004387
1.099782,-0.0731524,-0.1286012
0.9454388,-0.0587585,-0.07166312
0.814223,-0.137416,-0.05419363
0.7852221,-0.1664063,-0.07008078
0.7521823,-0.1985964,-0.087281
0.7063137,-0.2825472,-0.1041481
0.7288241,-0.1988795,-0.09613554
0.7279717,-0.1875568,-0.1010598
0.6870489,-0.2223565,-0.08475726
0.7160021,-0.1548923,-0.04606169
0.7407114,-0.1810759,-0.05508434
0.7707882,-0.1632947,-0.05607279
0.8196544,-0.1728438,-0.06224322
0.8313417,-0.2757881,-0.05397262
0.9220255,-0.306531,-0.01475149
1.018239,-0.3228122,0.009390495
1.077033,-0.2941573,0.06058217
1.188315,-0.3005295,0.08597757
1.257847,-0.3216194,0.09377596
1.299496,-0.2805613,0.07790026
1.305102,-0.3247369,-0.09344717
1.280796,-0.3972275,-0.2920087
1.30206,-0.4657719,-0.3329172
1.257585,-0.4267835,-0.3113538
1.153367,-0.2930859,-0.3536927
1.043432,-0.3120753,-0.3689128
0.9723718,-0.3393999,-0.3352067
1.001535,-0.3851044,-0.3130541
1.014336,-0.4926455,-0.2259816
1.006774,-0.4275993,-0.1703387
0.975602,-0.2984777,-0.1770928
0.8696986,-0.1623667,-0.1404613
0.7994034,-0.02795479,-0.1500128
0.7432599,-0.04731711,-0.150942
0.6855785,-0.09593828,-0.1206061
0.6870287,-0.1000547,-0.1324487
0.6992681,-0.09653068,-0.107485
0.7180277,-0.03346031,-0.09596982
0.7318752,0.01209348,-0.1109774
0.7646734,-0.02408702,-0.1168333
0.8383581,-0.0675923,-0.154427
0.8587342,-0.06475452,-0.1660583
0.8911808,-0.02724923,-0.1460903
1.004883,0.02206791,-0.1212599
1.078898,0.05681381,-0.1076679
1.127268,0.05098397,-0.121746
1.248866,0.02108696,-0.126819
1.367929,-0.08658784,-0.1393347
1.392009,-0.2194322,-0.1499146
1.333088,-0.1247112,-0.1509842
1.242332,0.04157585,-0.1874852
1.236205,-0.01759711,-0.2537179
1.293677,-0.1923984,-0.3637595
1.289203,-0.3902291,-0.4752959
1.274859,-0.4531815,-0.4425843
1.224201,-0.3420435,-0.3057167
1.126927,-0.3159755,-0.2465552
1.115852,-0.2422714,-0.2500016
1.128563,-0.1071393,-0.2471221
1.101268,-0.1055504,-0.2088957
1.026735,-0.07955391,-0.1078956
0.8955962,-0.09956162,-0.07420984
0.8383653,-0.1818955,-0.1151331
0.861564,-0.1942536,-0.1261296
0.8392743,-0.2330097,-0.1313863
0.7801032,-0.2217944,-0.1091717
0.7531084,-0.2005334,-0.07638517
0.7395831,-0.207202,-0.06237839
0.7238603,-0.1350047,-0.05274465
0.7363391,-0.1187527,-0.05416989
0.7560172,-0.1516349,-0.04281082
0.7694528,-0.1928829,-0.04441177
0.7857972,-0.2541853,-0.03471105
0.8498663,-0.2491813,0.01635568
0.9598606,-0.244284,0.05953787
0.9906307,-0.247837,0.08300203
1.02044,-0.2345774,0.07552357
1.288759,-0.08299593,-0.4527244
1.362761,-0.1001785,-0.453804
1.321814,-0.1317735,-0.4949937
1.276922,-0.1498608,-0.5142455
1.306933,-0.1606144,-0.5230444
1.320404,-0.1900793,-0.5930888
1.280206,-0.2725439,-0.6662388
1.198006,-0.3750166,-0.6255181
1.00346,-0.458547,-0.5147079
0.8788742,-0.4078625,-0.4668736
0.9226615,-0.247773,-0.4943048
0.9213602,-0.2076185,-0.5062589
0.9041314,-0.1950072,-0.4083809
0.8830692,-0.1477455,-0.2766218
0.8139234,-0.2122941,-0.2698387
0.785145,-0.2568224,-0.2959105
0.7386397,-0.2536605,-0.2774301
0.6941638,-0.275685,-0.2795649
0.7172499,-0.2699852,-0.2596263
0.7208117,-0.2793796,-0.2195348
0.7074936,-0.259914,-0.2138854
0.7208556,-0.2006424,-0.2405201
0.7245476,-0.1776908,-0.2670971
0.7200508,-0.1836899,-0.2560489
0.7382748,-0.2228175,-0.2270172
0.7707401,-0.27831,-0.2012409
0.8203205,-0.3533148,-0.1993024
0.8721605,-0.3824466,-0.2104043
0.9052821,-0.3401606,-0.1908507
0.9486476,-0.3442506,-0.1672425
0.9833979,-0.34146,-0.142015
0.99274,-0.306951,-0.1224625
1.054841,-0.3026725,-0.1748816
1.236513,-0.2963961,-0.2956704
1.413547,-0.3058126,-0.4130908
1.405856,-0.3583684,-0.4576575
1.344478,-0.5257908,-0.4887326
1.333453,-0.7062266,-0.5728725
1.200627,-0.5955851,-0.5780877
1.006404,-0.3734655,-0.5320104
0.8825174,-0.3370058,-0.5605546
0.7777405,-0.3336826,-0.5395998
0.7618642,-0.3679432,-0.4855701
0.849135,-0.4760055,-0.4702386
0.9220269,-0.4677469,-0.4160898
0.9215992,-0.3985484,-0.3899326
0.8419248,-0.3180738,-0.3634248
0.7440317,-0.2089429,-0.2882345
0.6236023,-0.135069,-0.2521002
0.5056864,-0.06797685,-0.2217129
0.4947976,-0.07019226,-0.2212662
0.5694586,-0.09388205,-0.2528616
0.6866995,-0.06499366,-0.2644298
0.7848661,-0.08103701,-0.2988287
0.8153422,-0.07851755,-0.3142171
0.8170809,-0.06624698,-0.3131876
0.8094693,-0.07361072,-0.3192924
0.8222291,-0.03792855,-0.3089222
0.873796,0.004602086,-0.3220364
0.9825265,0.07287981,-0.350261
1.071895,0.08904034,-0.3782233
1.029472,0.02402163,-0.3719225
1.00529,-0.02156609,-0.3443973
1.083781,-0.1039487,-0.3799793
1.196456,-0.1833331,-0.4531558
1.363628,-0.1974744,-0.5436158
1.442164,-0.1900288,-0.5956417
1.387498,-0.1904691,-0.6349585
1.385241,-0.3053283,-0.7889542
1.303679,-0.4555898,-0.8412512
1.065629,-0.4601203,-0.6696811
0.9480838,-0.4149201,-0.5278583
0.971609,-0.386869,-0.5043318
0.9926505,-0.2894477,-0.5144721
0.9917348,-0.1747829,-0.4608253
0.9112533,-0.1203892,-0.3634065
0.7591095,-0.08598288,-0.3145858
0.6453312,-0.09278808,-0.2682919
0.6191151,-0.1436859,-0.241614
0.6260542,-0.179383,-0.2617567
0.6267627,-0.227123,-0.2623301
0.653793,-0.2463935,-0.2537548
0.6904059,-0.2202665,-0.252997
0.706366,-0.2127212,-0.2537778
0.7104266,-0.1957764,-0.2501078
0.7091157,-0.2189035,-0.2356906
0.7238312,-0.2977201,-0.2182704
0.7736589,-0.3571203,-0.2011226
0.8557687,-0.4025112,-0.1947314
0.9465556,-0.3938901,-0.1882651
1.035434,-0.335395,-0.1800695
1.09425,-0.2919468,-0.1757294
1.095582,-0.2795145,-0.1742267
1.130195,-0.2856655,-0.1839252
1.217017,-0.2909153,-0.208168
1.27335,-0.4098311,-0.3223331
1.326105,-0.5995067,-0.5134451
1.30525,-0.6106277,-0.591047
1.138389,-0.5292779,-0.5529083
0.9725792,-0.4661692,-0.5579006
0.8533796,-0.3303882,-0.5854565
0.7897153,-0.2745447,-0.5735857
0.8203127,-0.3551533,-0.5427454
0.8656538,-0.3899536,-0.4862759
0.9325417,-0.4223909,-0.4604819
0.9648898,-0.4308012,-0.4688737
0.8775895,-0.2852595,-0.4007708
0.7862176,-0.1350972,-0.3181875
0.7293666,-0.09868132,-0.3079589
0.6632164,-0.08559382,-0.3006633
0.5915979,-0.03303376,-0.2647695
0.5944901,-0.02350521,-0.2598284
0.6810374,-0.07339357,-0.2972195
0.7233926,-0.06380779,-0.3142756
0.7611539,-0.07792923,-0.3250267
0.7791372,-0.1333265,-0.3327897
0.7479229,-0.1419319,-0.3200974
0.7732504,-0.1601193,-0.3311697
0.761061,-0.09869212,-0.3282816
0.7612461,0.006528766,-0.3232783
0.8579448,0.03957179,-0.3501358
0.9327471,0.05781133,-0.3799714
1.017749,0.03594073,-0.4254192
1.09519,0.02964863,-0.4163301
1.192316,0.02693428,-0.3816161
1.310481,-0.03514452,-0.4107441
1.309368,-0.09025652,-0.4490639
1.290416,-0.1509818,-0.519259
1.286118,-0.1602111,-0.5802713
1.272557,-0.1965692,-0.589987
1.236675,-0.3755813,-0.6389368
1.033215,-0.5236735,-0.6518503
0.8333857,-0.5538099,-0.6059718
0.8521239,-0.4795221,-0.5939344
0.9656472,-0.3711525,-0.5898637
1.031288,-0.2770155,-0.5853732
1.039324,-0.1845315,-0.5429069
0.9594563,-0.1926184,-0.4322979
0.792572,-0.2241205,-0.3420614
0.7142627,-0.2273591,-0.3112173
0.7132492,-0.2804912,-0.3057326
0.7092323,-0.2886599,-0.2901216
0.7567529,-0.2786474,-0.2826822
0.7684532,-0.2807573,-0.3036939
0.7434657,-0.2197919,-0.3075759
0.7277506,-0.1601489,-0.2812055
0.7194549,-0.1468818,-0.2444627
0.7374503,-0.1735022,-0.2287455
0.7299783,-0.2125808,-0.2337302
0.7490382,-0.2691485,-0.2197918
0.7882929,-0.3405471,-0.1925293
0.8177648,-0.3204125,-0.1506034
0.8823953,-0.2560585,-0.1248293
0.907007,-0.2484212,-0.1501303
0.9347377,-0.3048203,-0.1821948
1.026628,-0.4133739,-0.2088632
1.111081,-0.4403688,-0.2273952
1.18552,-0.3820457,-0.2862991
1.286315,-0.3858502,-0.4251746
1.367957,-0.4468101,-0.5185661
1.365839,-0.507582,-0.5644823
1.310989,-0.5241322,-0.6082284
1.104489,-0.5317296,-0.545913
0.8064034,-0.5854317,-0.4538254
0.754719,-0.6351803,-0.4299017
0.853113,-0.6658989,-0.4335788
0.8997103,-0.5945599,-0.4793372
0.9319571,-0.4235199,-0.5280569
0.8950769,-0.3220519,-0.5513164
0.8062529,-0.2575146,-0.5144267
0.7390896,-0.2143094,-0.4135644
0.6819673,-0.2122704,-0.4006252
0.6374985,-0.1847778,-0.426635
0.6344321,-0.1938751,-0.4157564
0.6403464,-0.211226,-0.433714
0.6286357,-0.2189236,-0.4262618
0.6368539,-0.2762608,-0.4157209
0.6471248,-0.2836254,-0.4282675
0.6681526,-0.2235721,-0.4370187
0.7088893,-0.1289175,-0.4682805
0.7593549,-0.01346014,-0.4667458
0.8389937,0.03485273,-0.4417101
0.8800914,0.01964987,-0.4237663
0.8810736,0.01007986,-0.3925631
0.8966049,0.02815539,-0.3781829
0.9120965,0.03501003,-0.3474128
0.9202742,0.03148103,-0.2984261
0.9166941,0.0439696,-0.2784256
0.9250775,0.03571296,-0.2576799
0.9721982,0.02555857,-0.2465249
1.085077,-0.004739949,-0.2787447
1.22443,-0.08233872,-0.3457487
1.29661,-0.1287007,-0.4870192
1.332386,-0.1501076,-0.6512344
1.323482,-0.1908729,-0.669324
1.229249,-0.2643671,-0.62818
1.094741,-0.3833142,-0.681396
0.9462247,-0.4540747,-0.7077202
0.9043326,-0.3884544,-0.6861146
0.9805736,-0.3201838,-0.7047359
0.9893615,-0.3475438,-0.7038098
0.9553996,-0.3359632,-0.6479176
0.908668,-0.2992851,-0.5622596
0.8046713,-0.2818308,-0.4830013
0.7696605,-0.2203178,-0.4232453
0.7862871,-0.2142473,-0.391656
0.7722558,-0.2299956,-0.4116493
0.7774949,-0.2036104,-0.3993598
0.7644475,-0.2121283,-0.3326227
0.7358063,-0.1872391,-0.2602529
0.734197,-0.139781,-0.2014539
0.7236284,-0.1256082,-0.2385744
0.7249535,-0.1252623,-0.2834388
0.7584806,-0.1784757,-0.2567852
0.7929032,-0.2566593,-0.2552693
0.8021707,-0.3140232,-0.2273813
0.7841993,-0.3438538,-0.1745694
0.7787678,-0.3604993,-0.1349655
0.8064392,-0.3783514,-0.09474295
0.8966247,-0.363204,-0.1546342
1.089772,-0.3209102,-0.2504408
1.25811,-0.3009959,-0.3216018
1.281509,-0.4081492,-0.4619503
1.299495,-0.6104695,-0.5842951
1.336342,-0.6639893,-0.5966334
1.237287,-0.5380792,-0.5677021
1.061813,-0.3669722,-0.5439255
0.8770769,-0.2163082,-0.5065598
0.7091053,-0.1876521,-0.4999887
0.6876321,-0.2782439,-0.5245682
0.7704663,-0.3634894,-0.4927002
0.8771382,-0.4028781,-0.4818842
0.9549435,-0.3720457,-0.4909931
0.9093389,-0.2750587,-0.4427413
0.8348798,-0.2054767,-0.4166882
0.7820482,-0.1832072,-0.3825559
0.698952,-0.1683504,-0.3366202
0.6382549,-0.1440261,-0.314857
0.6453105,-0.130872,-0.3062268
0.694068,-0.1356117,-0.3528356
0.6951307,-0.09395045,-0.3624065
0.6778443,-0.06819729,-0.338789
0.6984979,-0.0895986,-0.3357809
0.7156241,-0.07719094,-0.3028681
0.765553,-0.08208738,-0.3199367
0.7860689,-0.05591592,-0.3552206
0.7604871,0.01845815,-0.3599633
0.8104033,0.03856839,-0.3711326
0.9179777,0.05472667,-0.3645029
1.057689,0.05605882,-0.4007653
1.137039,0.04326285,-0.4330169
1.143505,0.03785041,-0.4133843
1.225683,-0.06533266,-0.4369628
1.272159,-0.2125575,-0.4965433
1.232719,-0.2554219,-0.5768011
1.241255,-0.2220053,-0.6588067
1.25396,-0.2640793,-0.7149402
1.233921,-0.3542405,-0.7412412
1.154771,-0.3554202,-0.7010611
0.9635952,-0.3290422,-0.6084729
0.8250127,-0.2991802,-0.5199741
0.8790047,-0.2361696,-0.5288664
0.9480056,-0.211818,-0.5664487
0.924772,-0.2355358,-0.4906061
0.8881679,-0.2726093,-0.4276279
0.8032489,-0.2888931,-0.4006691
0.7348287,-0.2775324,-0.3680395
0.7514274,-0.2532063,-0.395888
0.747045,-0.2212455,-0.3710357
0.7593486,-0.2162377,-0.328254
0.7708522,-0.2266326,-0.3387582
0.7320849,-0.221334,-0.3056119
0.7299795,-0.1941925,-0.2943669
0.7362117,-0.1682444,-0.2924578
0.7548586,-0.196496,-0.268726
0.7798997,-0.2543801,-0.2789682
0.7765063,-0.3007116,-0.2611807
0.8115488,-0.3210816,-0.2379374
0.8546449,-0.2921341,-0.2423051
0.8988731,-0.256946,-0.2415879
0.9532141,-0.2587052,-0.2294815
0.9759336,-0.2777459,-0.1990799
1.009749,-0.3015285,-0.187107
1.090853,-0.3226964,-0.2176821
1.221007,-0.3660166,-0.3334199
1.311547,-0.4707814,-0.5000688
1.292666,-0.5606621,-0.5652564
1.262397,-0.5840964,-0.5983327
1.242378,-0.5836694,-0.6925391
1.112407,-0.4726617,-0.664468
0.8708591,-0.2751628,-0.5533223
0.6880971,-0.23845,-0.5508385
0.6572704,-0.3338265,-0.506007
0.7694005,-0.3895057,-0.4458241
0.9396733,-0.4257494,-0.5149706
0.984363,-0.3950289,-0.5281067
0.9014287,-0.3025026,-0.4841486
0.82677,-0.269642,-0.4613746
0.7452283,-0.2045754,-0.4054064
0.6134277,-0.0845009,-0.3609267
0.5731253,-0.06647421,-0.3580393
0.6628278,-0.1158605,-0.3958366
0.6887922,-0.1241077,-0.4015245
0.7020488,-0.1179946,-0.3837828
0.7545258,-0.1369007,-0.4036259
0.734756,-0.1390091,-0.3994419
0.7395884,-0.09990282,-0.4067325
0.7448377,-0.04365934,-0.3940004
0.7217831,0.006079833,-0.3539412
0.7604094,0.01649186,-0.3750616
0.8083532,0.008376269,-0.3745793
0.8839673,0.01752594,-0.3582501
0.9197311,0.0512109,-0.3439405
0.9350565,0.0886156,-0.3029046
1.072143,0.06449863,-0.3144472
1.175798,0.005732477,-0.3603871
1.222536,-0.03885634,-0.4200425
1.290644,-0.08354491,-0.5081254
1.394182,-0.1097744,-0.5859695
1.519333,-0.1261165,-0.6269742
1.374739,-0.1769983,-0.6193187
1.072555,-0.2749631,-0.6371617
0.9792109,-0.3458257,-0.6916876
0.9732942,-0.3317092,-0.6823766
1.038516,-0.3165813,-0.6675727
1.112787,-0.3275765,-0.6689163
0.9616032,-0.327693,-0.5549133
0.7985952,-0.3265617,-0.4105117
0.7596085,-0.2858575,-0.3777394
0.7196314,-0.214768,-0.3772869
0.7053068,-0.1916069,-0.3581198
0.7048584,-0.1947421,-0.3494208
0.6722858,-0.1789121,-0.3401644
0.6512691,-0.190939,-0.3504033
0.668758,-0.2377772,-0.3899899
0.687724,-0.2525418,-0.3937659
0.7145091,-0.2345613,-0.3619972
0.7478558,-0.2133546,-0.3340619
0.7372523,-0.1907268,-0.2996837
0.7527791,-0.1813306,-0.2906123
0.8105343,-0.214018,-0.3046395
0.8351097,-0.2815244,-0.3036889
0.8339173,-0.3041813,-0.2851065
0.826077,-0.2687056,-0.2411021
0.8483158,-0.240494,-0.2173803
0.8933635,-0.2276255,-0.2267183
0.9269482,-0.2311135,-0.2177187
0.9472641,-0.254189,-0.1923825
0.9619729,-0.3034856,-0.185123
1.043017,-0.38002,-0.216455
1.182617,-0.4095741,-0.2648768
1.314993,-0.3745463,-0.3320265
1.384996,-0.3875817,-0.4555533
1.347964,-0.525492,-0.5997471
1.337582,-0.6409516,-0.6650937
1.354601,-0.529161,-0.6500444
1.189114,-0.3534811,-0.6347212
0.8531033,-0.3475816,-0.5659722
0.5696632,-0.3815515,-0.4555346
0.5783153,-0.4096638,-0.4553348
0.8007376,-0.4887809,-0.5221033
0.9558031,-0.4813589,-0.5739987
0.9923693,-0.4091868,-0.6049534
0.8649878,-0.3388119,-0.5389444
0.6872819,-0.2294368,-0.4300226
0.6771669,-0.154212,-0.3927016
0.6970589,-0.09674282,-0.3761725
0.6833119,-0.06009088,-0.370129
0.6736424,-0.1183492,-0.3892926
0.6390872,-0.1708338,-0.36678
0.6445729,-0.1733902,-0.3393628
0.6544964,-0.1400201,-0.327775
0.6550763,-0.06683435,-0.3091731
0.6699888,-0.02497939,-0.3323707
0.6966058,0.01728743,-0.3612597
0.7681281,0.07910781,-0.3854623
0.8079317,0.05594663,-0.4112372
0.8460035,0.002342621,-0.3846417
0.9628763,0.02041913,-0.3689912
1.070858,0.03522397,-0.3807366
1.140475,0.03747366,-0.3818605
1.220171,0.03285952,-0.4227744
1.313827,-0.1121528,-0.5113823
1.358581,-0.276591,-0.5957155
1.320778,-0.2424441,-0.6125167
1.21474,-0.1777086,-0.5998338
1.095308,-0.2249983,-0.6648814
1.094543,-0.298964,-0.7786705
1.139117,-0.4043932,-0.8191843
1.08888,-0.4512541,-0.7328373
1.032676,-0.3527871,-0.6372327
0.9593862,-0.2708908,-0.6197352
0.865242,-0.1957503,-0.5500201
0.8412752,-0.1024643,-0.4162328
0.7835522,-0.1180084,-0.3763172
0.7073816,-0.1515607,-0.3896818
0.6782921,-0.1781065,-0.3458905
0.6261855,-0.2159382,-0.3102098
0.6391894,-0.2024199,-0.3145851
0.6927311,-0.2162052,-0.3133584
0.7034521,-0.2302943,-0.3185501
0.7266849,-0.2104198,-0.3078426
0.7071563,-0.1872243,-0.2715296
0.691531,-0.1495482,-0.2573235
0.7260808,-0.1791757,-0.2645182
0.7366979,-0.246455,-0.2746749
0.7818659,-0.2879236,-0.2744249
0.8747004,-0.3386433,-0.2893027
0.9568418,-0.3636379,-0.3155993
0.9714359,-0.3569104,-0.2787008
0.9590238,-0.3592413,-0.2088073
1.034064,-0.3749844,-0.1763487
1.140507,-0.3687406,-0.2141717
1.293881,-0.3283024,-0.327402
1.423772,-0.316841,-0.4491304
1.365485,-0.3935537,-0.5427216
1.339522,-0.5349461,-0.5965282
1.351657,-0.5779568,-0.603362
1.164542,-0.4409567,-0.5677461
0.9103307,-0.2869915,-0.5223204
0.7305494,-0.2417834,-0.539434
0.6759965,-0.2783337,-0.5454764
0.7201606,-0.3431558,-0.4924183
0.7562543,-0.4235472,-0.4681801
0.8230652,-0.4520971,-0.4426086
0.848913,-0.3520924,-0.3988945
0.773637,-0.2378871,-0.3659065
0.7048468,-0.1469662,-0.327165
0.6383084,-0.02451194,-0.2966951
0.6096507,-0.003988475,-0.285271
0.6628384,-0.08219484,-0.3009911
0.7130104,-0.1054716,-0.3160935
0.7408945,-0.0913476,-0.3276681
0.7723188,-0.06696106,-0.3556687
0.7965856,-0.03888943,-0.3569491
0.802251,-0.07378158,-0.3587208
0.8050211,-0.1251736,-0.3803497
0.8034446,-0.1131077,-0.3860259
0.7829894,-0.07386273,-0.3720564
0.7752948,-0.04409228,-0.3474164
0.7980306,-0.04066313,-0.3665725
0.8703799,-0.04843534,-0.4128833
0.9598358,-0.03254439,-0.4294473
0.9909785,-0.02127408,-0.4165928
1.050078,-0.009242036,-0.3829656
1.166675,-0.006092385,-0.389795
1.227046,-0.05310035,-0.4257559
1.257006,-0.1150059,-0.4531
1.271569,-0.1609155,-0.4976136
1.252056,-0.1469629,-0.5284646
1.25576,-0.1355473,-0.5990855
1.235067,-0.2562932,-0.747497
1.162631,-0.3907592,-0.8217504
1.061197,-0.4113244,-0.7403101
0.9458923,-0.3577135,-0.6272181
0.933615,-0.3060404,-0.5984851
0.9831382,-0.2921477,-0.5938732
0.9637742,-0.2518015,-0.53708
0.8946853,-0.1965866,-0.4175494
0.7894558,-0.1687594,-0.3185408
0.714516,-0.1616851,-0.3418065
0.6969394,-0.1910704,-0.3682992
0.6668008,-0.2229723,-0.3488984
0.6674293,-0.2599273,-0.3478393
0.6932335,-0.2916607,-0.3163322
0.6921541,-0.2897595,-0.2963899
0.6935946,-0.2768333,-0.3003219
0.6864175,-0.2263538,-0.2818251
0.6811862,-0.1862973,-0.2701868
0.6971918,-0.2066336,-0.2569091
0.7298852,-0.2509241,-0.2626536
0.7954364,-0.3154652,-0.291464
0.8277757,-0.3532424,-0.3026054
0.824133,-0.3434833,-0.2988866
0.8861247,-0.3473274,-0.2809918
0.9886638,-0.3657904,-0.2650206
1.067704,-0.3707427,-0.2514244
1.132393,-0.3951214,-0.2375222
1.199568,-0.4211048,-0.2575624
1.264726,-0.4084409,-0.3382304
1.311012,-0.4364192,-0.488151
1.338327,-0.5142111,-0.6243024
1.334848,-0.5457172,-0.6655017
1.239906,-0.4680398,-0.6407367
1.012995,-0.3273914,-0.5788736
0.8046864,-0.2918911,-0.533168
0.8002067,-0.3502025,-0.5413549
0.851041,-0.4037736,-0.5434151
0.8418845,-0.4628245,-0.5199258
0.9032552,-0.4508613,-0.5029351
0.9126025,-0.3569742,-0.4641928
0.7865375,-0.2565319,-0.3883355
0.6917348,-0.1672327,-0.3489108
0.6280213,-0.1162035,-0.3584793
0.6041813,-0.09018452,-0.3620017
0.6173544,-0.1048987,-0.3647749
0.6293042,-0.1477391,-0.3638223
0.6822391,-0.1323399,-0.3547794
0.675728,-0.09524758,-0.3466309
0.653559,-0.06564364,-0.3262255
0.6927272,-0.0491627,-0.3162616
0.6969155,-0.06978132,-0.3371951
0.7228527,-0.05826224,-0.3691742
0.7548529,-0.04167524,-0.3791397
0.7909467,-0.04929457,-0.3804201
0.9202462,-0.02423968,-0.416621
1.043053,-0.001908112,-0.4571918
1.091567,0.02371254,-0.4572556
1.09408,0.03428152,-0.4141674
1.142366,-0.03060351,-0.3756592
1.244668,-0.1132366,-0.4139179
1.284397,-0.1501143,-0.5091161
1.304089,-0.1204245,-0.5946285
1.305219,-0.1088465,-0.6387894
1.246282,-0.1850162,-0.6748281
1.147836,-0.271573,-0.7268805
1.008489,-0.3196651,-0.7174003
0.9972302,-0.3148945,-0.6959141
1.092074,-0.3068294,-0.7440317
1.059594,-0.3067922,-0.7201043
0.9628387,-0.2421864,-0.5585896
0.8459325,-0.1967211,-0.3814103
0.7247546,-0.1836455,-0.3361095
0.6618414,-0.1374897,-0.3673158
0.5710993,-0.132358,-0.3179127
0.5286911,-0.1489109,-0.3134025
0.5405263,-0.1561845,-0.3239552
0.5262378,-0.1996723,-0.2528089
0.5667672,-0.2411022,-0.2739872
0.5969155,-0.2652435,-0.2937318
0.6488482,-0.2909703,-0.2837631
0.7401801,-0.2775166,-0.3241793
0.7775039,-0.2399006,-0.3015067
0.8431378,-0.260114,-0.309213
0.8622751,-0.3007987,-0.3295265
0.8566861,-0.3335876,-0.2917049
0.924706,-0.383664,-0.2914465
0.9562192,-0.3601903,-0.2910061
0.9844589,-0.3150119,-0.2943098
0.9857467,-0.3278596,-0.2776955
0.9366129,-0.3135056,-0.2097519
0.9337158,-0.3022229,-0.1627909
1.000136,-0.2897293,-0.1649234
1.138733,-0.2671616,-0.2462312
1.210746,-0.3265722,-0.3947932
1.266141,-0.4564598,-0.5803633
1.467659,-0.5943112,-0.6934356
1.534988,-0.5793546,-0.6753568
1.245436,-0.410873,-0.6176613
0.8635233,-0.3286206,-0.5184442
0.7453804,-0.3488805,-0.5009435
0.8377987,-0.3968992,-0.5678448
0.8602177,-0.4222431,-0.5432302
0.8416008,-0.3999849,-0.5341057
0.8436549,-0.3706801,-0.5049618
0.782775,-0.2746153,-0.4157354
0.7148417,-0.1582121,-0.3888979
0.6452601,-0.1001317,-0.331036
0.5583045,-0.081553,-0.2830397
0.5753008,-0.1093081,-0.3050628
0.6443601,-0.1119453,-0.3077878
0.6880171,-0.1064018,-0.3266833
0.7461885,-0.1286504,-0.3745032
0.7486727,-0.1292244,-0.4078346
0.7398347,-0.1357761,-0.4008921
0.7957192,-0.1223835,-0.3858662
0.8509409,-0.103036,-0.3938456
0.8990045,-0.1165503,-0.4042389
0.9066221,-0.1213157,-0.4325382
0.9002971,-0.1265595,-0.436794
0.9172236,-0.1056437,-0.4095437
0.8850721,-0.05533073,-0.3924644
0.857726,-0.02781474,-0.3618606
0.8579021,-0.01866777,-0.3431896
0.8565376,-0.01362821,-0.3425304
0.8854411,0.008822229,-0.3425471
0.7283045,-0.1406273,-0.2979339
0.7358248,-0.1235555,-0.2934285
0.732505,-0.1863594,-0.3018902
0.7269977,-0.2494065,-0.2936847
0.7369349,-0.2866027,-0.2714618
0.7749718,-0.3081392,-0.254634
0.8422208,-0.2781731,-0.2562937
0.8696297,-0.2451267,-0.2614057
0.8997243,-0.2521606,-0.230924
0.9985195,-0.2731373,-0.2130904
1.102727,-0.2918512,-0.2627879
1.185707,-0.2778911,-0.3302154
1.238804,-0.276787,-0.3994741
1.265868,-0.3807182,-0.5117964
1.293559,-0.5571838,-0.6306356
1.268339,-0.6550019,-0.6759526
1.184623,-0.5815926,-0.6676601
1.044259,-0.4007379,-0.6186776
0.8315354,-0.2063887,-0.5403492
0.705643,-0.1445736,-0.5387276
0.7302608,-0.2677201,-0.535904
0.7933702,-0.3865147,-0.4510602
0.8579776,-0.4594638,-0.4130188
0.8744943,-0.4552517,-0.4112065
0.8372772,-0.2993013,-0.4055639
0.7974225,-0.1908686,-0.3994223
0.7285027,-0.1367127,-0.362289
0.649522,-0.07840097,-0.3471034
0.6246175,-0.1122484,-0.3353652
0.6433731,-0.146117,-0.3200272
0.6707934,-0.1666825,-0.3357429
0.7151321,-0.1464653,-0.3346763
0.7487242,-0.07185031,-0.3356178
0.7403976,-0.06753812,-0.3480314
0.7485068,-0.05865262,-0.3618713
0.7863934,-0.04365665,-0.3850828
0.8230093,-0.04560084,-0.3945955
0.8582014,-0.01383879,-0.4140415
0.8965974,-0.01357014,-0.4264312
0.9259041,-0.01386408,-0.4166104
0.8954035,-0.009668679,-0.4164588
0.8852715,-0.02679025,-0.4050085
1.025014,-0.04885476,-0.4010642
1.227601,-0.1005704,-0.4499439
1.340169,-0.1336938,-0.5101613
1.325224,-0.137975,-0.5148328
1.281002,-0.128666,-0.5240296
1.276666,-0.1046726,-0.5848836
1.269052,-0.1397075,-0.6050088
1.232533,-0.2853052,-0.6367803
1.111,-0.461674,-0.7142477
0.9905758,-0.4781655,-0.6936206
1.008595,-0.3962337,-0.6494735
1.011459,-0.3899496,-0.6690039
0.9742628,-0.3424142,-0.6524756
0.98656,-0.2772543,-0.5938114
0.9093006,-0.2281069,-0.4628698
0.7986248,-0.114467,-0.3298003
0.7736413,-0.1449111,-0.3648598
0.6980952,-0.2315211,-0.3888293
0.6305595,-0.2228597,-0.3229824
0.6684106,-0.3044106,-0.3335849
0.6641224,-0.3284536,-0.3188044
0.647535,-0.2856793,-0.2840151
0.6779011,-0.2960658,-0.3157435
0.676308,-0.2221401,-0.3016031
0.6962347,-0.1946585,-0.2957443
0.7310774,-0.2247622,-0.3070313
0.7422521,-0.2321171,-0.2802604
0.7682891,-0.3079202,-0.293672
0.7897571,-0.3440091,-0.2938595
0.8572195,-0.3301345,-0.278228
0.9511663,-0.3121088,-0.2891372
0.9626305,-0.2826237,-0.2740169
0.930712,-0.30881,-0.2538457
0.9247583,-0.3252561,-0.2354273
1.004737,-0.3061609,-0.2727418
1.165806,-0.306662,-0.4105316
1.276613,-0.3477304,-0.5469954
1.281054,-0.4634502,-0.6231355
1.253576,-0.5887326,-0.6605032
1.190257,-0.5895414,-0.6842861
1.020182,-0.4543492,-0.6477955
0.8827232,-0.327286,-0.5909757
0.8522708,-0.3058291,-0.6146962
0.8114311,-0.3734764,-0.6000873
0.8328181,-0.453781,-0.5292011
0.8986872,-0.4663472,-0.5016716
0.8929277,-0.4181738,-0.4659497
0.8665255,-0.3143571,-0.4095127
0.788325,-0.1938098,-0.3488872
0.6794498,-0.110322,-0.3283829
0.6139915,-0.05710565,-0.3449161
0.5843767,-0.06791039,-0.3150784
0.6109289,-0.1109046,-0.3071755
0.6333238,-0.1338077,-0.3303207
0.6526072,-0.1324522,-0.3260798
0.7135924,-0.1057076,-0.3313813
0.7504533,-0.1001295,-0.3339063
0.7545047,-0.08579984,-0.3419285
0.7593857,-0.04775644,-0.3579367
0.8052482,-0.02375277,-0.3754338
0.857352,0.0001843567,-0.4102663
0.8972029,0.009185779,-0.4020681
0.9857913,0.03575366,-0.3709584
1.019009,0.07011405,-0.3647814
1.001158,0.04698388,-0.3586685
1.042161,-0.01690541,-0.3664903
1.116845,-0.1288688,-0.3998351
1.255581,-0.2076512,-0.4902231
1.340329,-0.1656908,-0.5919512
1.2734,-0.09720601,-0.6021311
1.252022,-0.0921781,-0.6435294
1.267833,-0.2582885,-0.770963
1.146382,-0.517749,-0.7723034
0.9466531,-0.5427898,-0.6328232
0.8457847,-0.4249783,-0.5531497
0.899979,-0.384922,-0.588139
0.9836055,-0.2775597,-0.6126515
0.9988133,-0.1913953,-0.5278058
0.9396068,-0.2267748,-0.4275138
0.8240436,-0.2239024,-0.3822722
0.7777137,-0.2506587,-0.3534821
0.7913562,-0.2950677,-0.3586331
0.7610699,-0.2760746,-0.3554383
0.7634188,-0.2819571,-0.3315182
0.7597388,-0.2726762,-0.3277461
0.7275153,-0.2539951,-0.3079298
0.7368346,-0.2504652,-0.3000238
0.7058526,-0.204627,-0.291999
0.6819172,-0.1589728,-0.2674744
0.6925945,-0.1466605,-0.2692104
0.6956258,-0.1725668,-0.2521113
0.7425511,-0.2227118,-0.240615
0.7570384,-0.2896556,-0.2469581
0.7622297,-0.3366385,-0.2271957
0.8426233,-0.310714,-0.2196364
0.9386703,-0.2966912,-0.2175454
0.9964488,-0.2872798,-0.228661
0.9986116,-0.2591548,-0.2607035
1.065478,-0.2888957,-0.2715998
1.211415,-0.3381862,-0.3164448
1.273239,-0.4475369,-0.432085
1.285603,-0.6095567,-0.5474424
1.340019,-0.6611512,-0.6000783
1.344471,-0.6016181,-0.6034095
1.149486,-0.431197,-0.5961619
0.8661822,-0.2169305,-0.57096
0.7286179,-0.2242912,-0.5517719
0.6899548,-0.3712974,-0.5596014
0.7217054,-0.4085523,-0.5564307
0.8502092,-0.4457068,-0.5538103
0.9152717,-0.4709867,-0.5461905
0.8790053,-0.3599366,-0.4958909
0.7629729,-0.2370329,-0.4206403
0.6204749,-0.1555892,-0.3585385
0.6516947,-0.1414657,-0.3589059
0.7496657,-0.1587929,-0.402035
0.7530156,-0.1172745,-0.4352455
0.7719274,-0.09276488,-0.451252
0.760632,-0.05713903,-0.4207784
0.7199371,-0.03611467,-0.3768715
0.7146369,-0.05693491,-0.3629533
0.6799246,-0.01677805,-0.3579911
0.7003599,-0.01366846,-0.36465
0.7621743,-0.03225305,-0.363998
0.8161209,-0.009885326,-0.3644667
0.9347906,-0.01052914,-0.3833336
0.9815489,0.02081212,-0.3764931
0.9271133,0.06536837,-0.3344734
0.9110165,0.09738561,-0.2810632
0.9336071,0.1035361,-0.2784813
0.9996458,0.06851934,-0.3435686
1.094286,0.0725588,-0.3947896
1.1438,0.03707464,-0.4343305
1.20411,-0.08853561,-0.5432227
1.376329,-0.202347,-0.6800746
1.459457,-0.2242092,-0.6769841
1.250708,-0.1840021,-0.6154162
0.9672725,-0.2457568,-0.6726329
0.8391871,-0.3081962,-0.6880288
0.9237472,-0.2850696,-0.6852895
1.081093,-0.3444548,-0.7898733
1.101033,-0.389132,-0.8049124
1.048641,-0.3833701,-0.7172444
0.9323371,-0.3959297,-0.5818526
0.7817379,-0.3392205,-0.4371199
0.7381707,-0.2725403,-0.4323781
0.7195535,-0.232866,-0.4645229
0.7198652,-0.2222519,-0.4581764
0.7343154,-0.2703767,-0.4623553
0.7172482,-0.3098544,-0.4285442
0.7287753,-0.3254905,-0.3821845
0.7135965,-0.3091729,-0.3758744
0.7062995,-0.249991,-0.3949687
0.7407707,-0.1689861,-0.3913899
0.7578534,-0.1429532,-0.3758833
0.7706936,-0.2128957,-0.3471465
0.7455124,-0.2430355,-0.2744985
0.7225519,-0.2289995,-0.2399222
0.7274422,-0.2437098,-0.2430462
0.7482962,-0.2489164,-0.2330969
0.8331026,-0.2620297,-0.2316862
0.9166487,-0.2799142,-0.226739
0.9557886,-0.3015254,-0.2294579
0.9733604,-0.3494264,-0.2372001
1.030277,-0.3919966,-0.2578441
1.186914,-0.4258885,-0.3518425
1.332646,-0.4951367,-0.5090222
1.341505,-0.6068981,-0.6295197
1.257356,-0.6648621,-0.6551118
1.202154,-0.6387361,-0.6814831
1.089608,-0.509469,-0.6866098
0.8345807,-0.296717,-0.5928088
0.6646943,-0.2809593,-0.5690588
0.6644753,-0.3998374,-0.6078004
0.7500389,-0.404945,-0.5894736
0.8861768,-0.4580115,-0.5790438
0.9216373,-0.4831561,-0.5339256
0.829258,-0.3900048,-0.4700332
0.7575165,-0.3533935,-0.4542155
0.7114591,-0.2537303,-0.4274258
0.6397791,-0.1100058,-0.4058625
0.6307505,-0.1029044,-0.4074004
0.6864942,-0.1535929,-0.4251278
0.6771869,-0.1645652,-0.4321866
0.6655303,-0.1400322,-0.4171246
0.6939614,-0.1279186,-0.4121318
0.7021167,-0.1016435,-0.3804577
0.7389278,-0.08801813,-0.3663026
0.7472835,-0.09673834,-0.3821807
0.7339896,-0.01587651,-0.3650249
0.7749052,0.060515,-0.3507292
0.7935537,0.05727356,-0.3371867
0.846815,0.04165626,-0.3340174
0.9174551,0.03111476,-0.3422262
0.9109184,0.01933955,-0.3367286
0.9711233,-0.01882042,-0.3669488
1.119013,-0.04512501,-0.4350278
1.243904,-0.1016605,-0.5477448
1.303778,-0.1784781,-0.6735923
1.278505,-0.1731359,-0.7023559
1.241579,-0.2473422,-0.6792786
1.186315,-0.4037105,-0.717715
1.050683,-0.4012801,-0.7674608
0.9607833,-0.2909504,-0.752892
0.9759957,-0.2242888,-0.7474637
0.9783133,-0.2026004,-0.7553922
0.9283277,-0.2119749,-0.6615256
0.8556511,-0.2293211,-0.487369
0.800677,-0.2253895,-0.3592778
0.7948618,-0.2067365,-0.3668472
0.7938281,-0.1793319,-0.436008
0.7750563,-0.1912959,-0.4403994
0.765392,-0.2316224,-0.4172905
0.7648666,-0.2374854,-0.376534
0.7503053,-0.2480944,-0.3296991
0.7163345,-0.2272649,-0.3324225
0.7056698,-0.1617646,-0.3184457
0.7280424,-0.1417698,-0.3030217
0.7461456,-0.160505,-0.3229431
0.7575887,-0.2111426,-0.3196802
0.7600775,-0.2735279,-0.3116978
0.7562625,-0.3279862,-0.290394
0.773278,-0.3765754,-0.2295118
0.8273393,-0.3727138,-0.1932485
0.9388153,-0.334213,-0.227113
1.057592,-0.2993455,-0.271683
1.109012,-0.3043297,-0.2806995
1.145771,-0.3324638,-0.3600388
1.170372,-0.3648727,-0.5307488
1.153274,-0.4973262,-0.6707636
1.180301,-0.6003986,-0.7415674
1.170724,-0.4862305,-0.7238641
0.979792,-0.3246397,-0.6338073
0.719767,-0.2914239,-0.5567065
0.6092178,-0.3204468,-0.5299842
0.7053226,-0.3279249,-0.5377749
0.8471566,-0.343052,-0.5322571
0.9571903,-0.3734517,-0.5173699
0.9584373,-0.3460622,-0.5062722
0.7857705,-0.2372973,-0.4614583
0.6978978,-0.1366182,-0.4116429
0.7078426,-0.1375287,-0.3892372
0.6581486,-0.1493908,-0.3694195
0.6292348,-0.09715432,-0.3374622
0.632187,-0.1015993,-0.335658
0.6990548,-0.1207479,-0.3734689
0.7413407,-0.0498063,-0.375181
0.7082279,-0.01645499,-0.3703569
0.7183948,-0.04444817,-0.3716063
0.7129451,-0.04907658,-0.3486703
0.7407344,-0.04314257,-0.3713574
0.8036688,-0.03109229,-0.3915308
0.8223563,-0.02590401,-0.3902632
0.8431159,-0.01778929,-0.4152887
0.8557216,-0.01618874,-0.4077864
0.9130806,-0.03182175,-0.399778
0.9648672,-0.004751352,-0.4088995
0.9836712,0.03362717,-0.3983089
1.076492,0.05365994,-0.404426
1.197863,0.02765748,-0.4606102
1.303506,-0.07791967,-0.5788576
1.330495,-0.1492598,-0.6645881
1.27814,-0.1533796,-0.6525905
1.240427,-0.2126889,-0.6637862
1.198501,-0.3675979,-0.7348911
1.082585,-0.4470321,-0.7561508
0.9052565,-0.3744605,-0.6920353
0.8798758,-0.3360387,-0.6286665
0.9932673,-0.333713,-0.6534898
0.9895904,-0.2949069,-0.6651769
0.900783,-0.2832074,-0.5308248
0.7794969,-0.2497937,-0.3845192
0.6755325,-0.190993,-0.3582439
0.6750469,-0.1853119,-0.392935
0.6711897,-0.1963646,-0.4029333
0.67961,-0.1915097,-0.3739679
0.7355366,-0.2145055,-0.363252
0.7576326,-0.2497219,-0.3467837
0.7740299,-0.2422397,-0.3371604
0.7685258,-0.2096947,-0.3544405
0.7504094,-0.162376,-0.3075873
0.7717705,-0.1285896,-0.2661191
0.7714804,-0.1787889,-0.2605107
0.7539604,-0.2730165,-0.2157802
0.7545736,-0.3088573,-0.1722955
0.7947923,-0.2540861,-0.165282
0.9109779,-0.2031548,-0.2126103
1.01584,-0.2579071,-0.2449843
1.031901,-0.3288416,-0.2299177
1.040668,-0.3403445,-0.2409896
1.106229,-0.3528425,-0.2759037
1.164472,-0.3847338,-0.360697
1.243136,-0.4912605,-0.500282
1.417779,-0.6526429,-0.6436174
1.481154,-0.6741891,-0.7023367
1.263968,-0.532341,-0.6308803
0.9914479,-0.3922397,-0.5482958
0.8995312,-0.3787071,-0.484228
0.8627721,-0.4496473,-0.4838815
0.7421444,-0.4842418,-0.5638909
0.7530591,-0.4883421,-0.5629045
0.8833779,-0.4378243,-0.5488664
0.8859984,-0.3338741,-0.5621695
0.8621633,-0.2994527,-0.5216868
0.8128255,-0.2954464,-0.4809788
0.705388,-0.2488092,-0.4140189
0.6921378,-0.2007124,-0.4020341
0.6787878,-0.1496163,-0.4516109
0.6654843,-0.1077032,-0.42334
0.6981335,-0.1188308,-0.423799
0.6705536,-0.1548809,-0.433909
0.6611286,-0.1838125,-0.4127005
0.6766645,-0.1965049,-0.4477188
0.6940494,-0.1338377,-0.4538453
0.7531886,-0.03987392,-0.4348039
0.7728155,-0.001929479,-0.4170409
0.774474,0.05044448,-0.3940814
0.7890694,0.08926694,-0.4242473
0.8072134,0.02209128,-0.4436567
0.8719145,-0.04944836,-0.4291351
0.9201186,-0.045446,-0.4047133
0.9254312,-0.01738257,-0.3584778
0.9429944,0.007385183,-0.3301811
0.9751768,0.02480961,-0.3363269
1.032739,-0.001265686,-0.3655211
1.107822,-0.06121671,-0.400599
1.17103,-0.122482,-0.4469127
1.234465,-0.1921336,-0.5213322
1.282071,-0.2162334,-0.6264697
1.271955,-0.15625,-0.707525
1.222954,-0.1248636,-0.6857116
1.120853,-0.2391299,-0.6493974
0.9339035,-0.4007998,-0.646525
0.8198523,-0.4224721,-0.6358961
0.8721505,-0.3488099,-0.6551658
0.9341197,-0.3092873,-0.6573121
0.965225,-0.2958267,-0.6492329
0.9811626,-0.2862254,-0.6446021
0.9168719,-0.2650681,-0.5618973
0.8316514,-0.2153193,-0.4703453
0.7556305,-0.1541081,-0.4233964
0.677943,-0.1123454,-0.3929653
0.6702851,-0.1155923,-0.3699116
0.6951089,-0.1577129,-0.3635656
0.6893944,-0.207484,-0.3743555
0.6758591,-0.2092079,-0.3261133
0.6653886,-0.1660994,-0.2733713
0.6803507,-0.1339911,-0.2767732
0.7163848,-0.117101,-0.2832754
0.7489428,-0.1580074,-0.3007079
0.785546,-0.2530727,-0.2872102
0.8232332,-0.3150635,-0.2698275
0.8697485,-0.3426178,-0.2867901
0.9291944,-0.3411174,-0.2730703
0.9873034,-0.3400022,-0.2597765
1.031717,-0.3639768,-0.2470534
1.061401,-0.3547386,-0.2483789
1.149498,-0.3289496,-0.3186861
1.308604,-0.3182134,-0.4320492
1.392428,-0.3819032,-0.5738272
1.369476,-0.5577113,-0.6638877
1.321413,-0.6390935,-0.6467666
1.198845,-0.4943691,-0.5872898
0.9872621,-0.3077189,-0.5519003
0.7900766,-0.2460061,-0.586607
0.6737048,-0.240503,-0.6346259
0.7154532,-0.273678,-0.6270056
0.8752495,-0.4014433,-0.5903256
0.9619541,-0.4579772,-0.5534945
0.9400254,-0.4038689,-0.5366551
0.8523953,-0.3474269,-0.4987929
0.7285509,-0.2485874,-0.4002034
0.6260401,-0.1581551,-0.3375835
0.5487973,-0.1051668,-0.341184
0.5408406,-0.06958692,-0.3293944
0.5870185,-0.08740074,-0.3216181
0.6244956,-0.08907462,-0.3315267
0.6732643,-0.06891742,-0.328562
0.6959348,-0.05729709,-0.3373432
0.7179823,-0.03451109,-0.3582601
0.7737402,-0.04351077,-0.3935626
0.8043145,-0.05323068,-0.4185073
0.8249593,-0.01070601,-0.3999854
0.8670033,0.04319299,-0.4005939
0.9665884,0.08238306,-0.4268946
1.077616,0.09711106,-0.4356742
1.09176,0.08462677,-0.4279924
1.068391,0.04249493,-0.4129766
1.093256,-0.06207114,-0.4246553
1.151851,-0.1497517,-0.4804443
1.19554,-0.095303,-0.5807339
1.188604,0.02765436,-0.6750628
1.15803,0.04199364,-0.7121141
1.144149,-0.1965418,-0.7869876
1.114128,-0.508856,-0.8538029
1.017928,-0.4940009,-0.7281342
0.9154467,-0.3816099,-0.5800038
0.8975123,-0.3969809,-0.6025963
0.9337157,-0.2024335,-0.5967231
0.9286745,-0.06428988,-0.4932699
0.8665757,-0.175026,-0.420297
0.7864437,-0.157914,-0.3664886
0.7170649,-0.1727054,-0.3667684
0.6960615,-0.2483274,-0.38334
0.6989957,-0.2314182,-0.3284067
0.6939305,-0.2778101,-0.3130948
0.6979345,-0.2852177,-0.3184362
0.702288,-0.2498801,-0.3074086
0.7172403,-0.2179637,-0.3266629
0.7297383,-0.1398031,-0.3084486
0.7176772,-0.1564184,-0.2979177
0.7015425,-0.2056547,-0.2925542
0.6845969,-0.2253489,-0.2583534
0.7048393,-0.2747647,-0.2715049
0.7915144,-0.3007481,-0.2677146
0.9051339,-0.3265439,-0.2475964
0.9943937,-0.3311286,-0.2584821
1.046672,-0.2932919,-0.246481
1.073532,-0.2976176,-0.2200919
1.092027,-0.2996918,-0.2066155
1.176104,-0.2594233,-0.2595517
1.272965,-0.2414998,-0.3950816
1.258672,-0.2852474,-0.5631767
1.219064,-0.4445239,-0.7148335
1.200855,-0.6069158,-0.7582576
1.139947,-0.5511117,-0.7083304
1.015589,-0.3692715,-0.6684224
0.8395747,-0.2335934,-0.6242551
0.7344627,-0.1903662,-0.5581524
0.7591029,-0.2948978,-0.5336145
0.8264744,-0.3906123,-0.5325797
0.865843,-0.3434655,-0.5072588
0.8234461,-0.2811862,-0.4748548
0.7387619,-0.1940357,-0.4134603
0.681089,-0.09469877,-0.3593262
0.6201143,-0.09110601,-0.3629054
0.5841421,-0.100796,-0.343324
0.6214288,-0.1040909,-0.3033485
0.6634646,-0.1039348,-0.301532
0.6769575,-0.04962237,-0.313453
0.678824,-0.005894049,-0.3258445
0.6772935,-0.01447237,-0.3285944
0.7176062,-0.06826353,-0.341616
0.7710892,-0.09701876,-0.3889493
0.7814483,-0.06046499,-0.4276813
0.7925376,-0.01956263,-0.433185
0.8581619,0.01977828,-0.4254464
0.963902,0.04393313,-0.4363003
1.021552,0.04234062,-0.4470105
1.046618,0.03276447,-0.4188288
1.166221,0.008135276,-0.40711
1.345485,-0.05271975,-0.4821633
1.446618,-0.125062,-0.6313795
1.407466,-0.1195365,-0.7279524
1.293468,-0.1295578,-0.7010158
1.223555,-0.2822561,-0.7254507
1.179631,-0.434409,-0.8083559
1.065526,-0.422006,-0.7293953
0.8993025,-0.316895,-0.6078414
0.8521348,-0.2646792,-0.606714
0.9256595,-0.2118938,-0.5893558
0.9067243,-0.15582,-0.5096989
0.845047,-0.1670312,-0.4067158
0.7818118,-0.152739,-0.3397754
0.6444334,-0.1402371,-0.3487581
0.6014783,-0.1576104,-0.3431428
0.6289348,-0.161682,-0.3474546
0.6174141,-0.1926295,-0.3615625
0.6565919,-0.220707,-0.3399225
0.7085675,-0.2677318,-0.3478399
0.7208073,-0.2933831,-0.3327898
0.7018918,-0.2257299,-0.2991445
0.6866958,-0.1807216,-0.2872497
0.6955386,-0.1846227,-0.2734671
0.7112019,-0.2255163,-0.3044659
0.7747156,-0.3113731,-0.3252944
0.8248797,-0.359469,-0.3300089
0.8634144,-0.3405759,-0.3354108
0.9706429,-0.3107645,-0.3042286
1.025958,-0.3171205,-0.3084986
1.009943,-0.3185066,-0.3114026
1.06702,-0.3184805,-0.3022759
1.177215,-0.341437,-0.3468596
1.239028,-0.355028,-0.4277041
1.2722,-0.4286531,-0.5553994
1.299729,-0.536242,-0.6525639
1.261186,-0.5430865,-0.6704455
1.075955,-0.4487241,-0.6390464
0.7961958,-0.3437556,-0.5861378
0.7079718,-0.3163953,-0.6016872
0.8006063,-0.3213478,-0.6167702
0.8059931,-0.3264854,-0.5821716
0.8226319,-0.3580462,-0.5501541
0.8530022,-0.3259296,-0.4633333
0.7585187,-0.2393734,-0.3933988
0.6643957,-0.163297,-0.3734818
0.5893828,-0.09412838,-0.3364392
0.5527916,-0.06635547,-0.3522663
0.5962784,-0.05275531,-0.3745232
0.6156041,-0.06190712,-0.361506
0.6740154,-0.1064748,-0.3802603
0.7529013,-0.09753446,-0.3933759
0.7406337,-0.07231628,-0.4103176
0.7588753,-0.06980225,-0.4327709
0.8133968,-0.06683205,-0.4274744
0.7989366,-0.0813286,-0.4334099
0.7862695,-0.05971979,-0.4214788
0.8247872,-0.007081478,-0.393501
0.873121,0.04067017,-0.3965814
0.952887,0.08640405,-0.4143079
1.032928,0.09113555,-0.4468938
1.056691,0.06150556,-0.4748811
1.127371,-0.06372174,-0.5172095
1.250524,-0.2212225,-0.6176297
1.305448,-0.1897804,-0.7084624
1.293435,-0.1341019,-0.7592469
1.254032,-0.2226184,-0.8087932
1.166381,-0.3227047,-0.8058593
1.002852,-0.4245886,-0.6957168
0.9015363,-0.4123995,-0.5857145
0.9399604,-0.2403759,-0.5935098
0.9378205,-0.1566501,-0.6593897
0.8946744,-0.1293054,-0.6946862
0.8860618,-0.11704,-0.6590058
0.81567,-0.1890844,-0.494943
0.7181857,-0.2282377,-0.3213091
0.6939229,-0.2367851,-0.3594547
0.70252,-0.2173018,-0.4498657
0.6812615,-0.1884605,-0.4092931
0.6725968,-0.1944498,-0.4194215
0.6976562,-0.1821209,-0.4272789
0.7027188,-0.2219399,-0.3352567
0.7221347,-0.2468002,-0.3047108
0.755441,-0.2185369,-0.3254327
0.7246195,-0.2359077,-0.2447367
0.754474,-0.257924,-0.2628273
0.8302523,-0.2726371,-0.2793643
0.867262,-0.2858022,-0.2547322
0.9283402,-0.286301,-0.2696968
1.021704,-0.3053554,-0.2728606
1.142656,-0.3192019,-0.3068069
1.270299,-0.335823,-0.4218897
1.266125,-0.4236038,-0.5574768
1.242607,-0.5475494,-0.6701727
1.254744,-0.5627392,-0.7091639
1.139796,-0.4451941,-0.6896457
0.9571982,-0.3244405,-0.6367694
0.8302939,-0.2392724,-0.578434
0.6933135,-0.237215,-0.5899919
0.5822642,-0.3151087,-0.601355
0.719046,-0.3644934,-0.5533802
0.9629012,-0.4052396,-0.5387106
0.9838552,-0.3727571,-0.5412202
0.8789303,-0.263527,-0.4951109
0.7636867,-0.195543,-0.4257656
0.6347494,-0.1178788,-0.3595653
0.5895273,-0.1057478,-0.3227562
0.6028581,-0.145057,-0.3118762
0.6433795,-0.1014775,-0.3120913
0.6908536,-0.06958763,-0.3261093
0.6979384,-0.04451111,-0.3338923
0.7109121,-0.05256184,-0.3504711
0.7248883,-0.09808426,-0.3662719
0.736824,-0.02834989,-0.3658012
0.757412,0.04732885,-0.375887
0.8009337,0.05772645,-0.3825458
0.9192586,0.05313143,-0.4128847
1.025198,0.008147944,-0.4510126
1.075244,-0.02374016,-0.4494766
1.182243,-0.06102686,-0.4786522
1.330915,-0.1101402,-0.5432951
1.373965,-0.1308361,-0.609838
1.299247,-0.1417936,-0.6658832
1.224983,-0.1342342,-0.7011031
1.162553,-0.1758823,-0.7900479
1.076083,-0.2937137,-0.8478948
0.9859706,-0.4167392,-0.7524398
0.9240245,-0.4581141,-0.6578296
0.9016012,-0.3545791,-0.6318702
0.8813693,-0.233507,-0.5983087
0.8857962,-0.1757508,-0.5734326
0.909394,-0.1372604,-0.5215399
0.8655873,-0.1343722,-0.4432653
0.7790316,-0.1706356,-0.4079239
0.6766671,-0.2385324,-0.3711609
0.6115792,-0.2648876,-0.3402323
0.6631822,-0.2494294,-0.359039
0.7092197,-0.2735756,-0.362753
0.7034815,-0.2596333,-0.3497059
0.7152056,-0.2132516,-0.3505099
0.7028516,-0.2021699,-0.3359603
0.688477,-0.1961131,-0.3303466
0.6851924,-0.2001775,-0.3366927
0.6784594,-0.2051322,-0.3240436
0.7086127,-0.2467557,-0.3059558
0.7397103,-0.3274324,-0.2605344
0.7704844,-0.3462658,-0.2233283
0.8395896,-0.3214382,-0.2495678
0.9597518,-0.3152201,-0.2738605
1.065853,-0.3231388,-0.2907512
1.09806,-0.3431676,-0.3614838
1.285641,-0.4200115,-0.5214463
1.554518,-0.5145689,-0.6784238
1.514001,-0.4859269,-0.6638604
1.353995,-0.4174058,-0.6606249
1.209966,-0.4116265,-0.7685607
0.9523464,-0.3836331,-0.6920763
0.8113555,-0.3799046,-0.5546887
0.7590491,-0.3982571,-0.5541437
0.7033469,-0.3747304,-0.5250558
0.7933191,-0.3837351,-0.5256624
0.8340434,-0.375585,-0.5540854
0.8144438,-0.3048284,-0.5280858
0.8423462,-0.2205732,-0.5236979
0.7716296,-0.1405315,-0.4709512
0.7170526,-0.1240074,-0.4249017
0.701577,-0.1242945,-0.4374322
0.6493235,-0.1109852,-0.3998405
0.6152459,-0.1243803,-0.3653531
0.5676781,-0.114117,-0.3379549
0.5949329,-0.1072912,-0.3088787
0.6501116,-0.1078845,-0.3226572
0.6691184,-0.09458769,-0.3619172
0.7385976,-0.09013037,-0.4195592
0.7686824,-0.04245852,-0.4293716
0.795543,0.007383419,-0.4029025
0.8521561,0.02944914,-0.3993635
0.9202886,0.06606913,-0.3926848
1.063095,0.0738215,-0.4158901
1.155617,0.05109313,-0.4622536
1.219956,0.00361655,-0.4914179
1.329307,-0.07620414,-0.557279
1.3506,-0.1194921,-0.649649
1.258029,-0.0988078,-0.6811554
1.106324,-0.1036595,-0.6983398
1.000057,-0.1973835,-0.7983057
0.9972251,-0.3204761,-0.8761629
1.007944,-0.4169404,-0.8100039
0.9852539,-0.4450763,-0.7207528
0.9485262,-0.3706127,-0.6923132
0.9101296,-0.2434406,-0.6024879
0.8729729,-0.1482404,-0.4775005
0.8505577,-0.1300729,-0.4444275
0.8071784,-0.1335651,-0.4261124
0.7302015,-0.1514128,-0.3906574
0.6812753,-0.2239302,-0.394586
0.6408714,-0.2545596,-0.3682638
0.6322309,-0.2412372,-0.3193871
0.6663156,-0.2535625,-0.3248241
0.6606732,-0.2270052,-0.3315095
0.6635683,-0.1677831,-0.3152329
0.6784533,-0.1432825,-0.31322
0.6702642,-0.1549864,-0.3126384
0.6899974,-0.1988789,-0.3129635
0.7114066,-0.2728012,-0.3090254
0.7652125,-0.3404355,-0.2920253
0.8758038,-0.3479695,-0.2835935
0.9373235,-0.3285055,-0.2747183
0.9410976,-0.3278797,-0.2427433
1.002972,-0.3085494,-0.2160293
1.172946,-0.2963498,-0.3179174
1.320073,-0.3505107,-0.5707938
1.383836,-0.4590171,-0.7460807
1.413474,-0.5345861,-0.723484
1.271015,-0.46456,-0.6631068
0.9578556,-0.3356187,-0.65069
0.7565412,-0.317063,-0.6051845
0.7431739,-0.4011375,-0.5775968
0.7806618,-0.5144331,-0.5792538
0.8138933,-0.540776,-0.5061475
0.8784475,-0.4431172,-0.4941487
0.9326966,-0.3292017,-0.5354382
0.8969886,-0.2362189,-0.4963642
0.8326839,-0.2020604,-0.4861413
0.7203567,-0.1726792,-0.4309256
0.5593716,-0.0789829,-0.3410589
0.5978025,-0.08722444,-0.3878753
0.7145008,-0.1414268,-0.4240213
0.6830683,-0.1097123,-0.3976448
0.7150337,-0.123461,-0.4032252
0.7507322,-0.1461872,-0.3997323
0.7036418,-0.1226311,-0.3856171
0.7129896,-0.06018007,-0.3814235
0.6738053,0.070457,-0.3595304
0.6900424,0.0988846,-0.346885
0.8447018,0.03939557,-0.4008186
0.9565651,0.04615866,-0.450159
0.9949394,0.03676394,-0.4301661
0.9603495,0.01975758,-0.4207229
1.003619,0.007801768,-0.4407769
1.104173,-0.0487315,-0.4481965
1.136084,-0.08036114,-0.4881672
1.264573,-0.1048329,-0.5784002
1.312501,-0.1080807,-0.628714
1.195458,-0.07073807,-0.6311192
1.127317,-0.1208209,-0.6826863
1.024882,-0.2597029,-0.7935207
0.9480363,-0.427807,-0.8385665
0.945412,-0.5094804,-0.7105238
0.9037498,-0.4071995,-0.5745965
0.8907426,-0.3037902,-0.600282
0.9045241,-0.2257316,-0.6022071
0.9115663,-0.1363551,-0.5124797
0.9105991,-0.1721201,-0.4851557
0.8627917,-0.2144713,-0.4739869
0.7865022,-0.2170623,-0.433001
0.7195919,-0.243427,-0.3977085
0.7120153,-0.2280543,-0.3626992
0.7437203,-0.2357201,-0.3807364
0.7615143,-0.1974693,-0.4030304
0.768355,-0.0937898,-0.385751
0.7448913,-0.08742648,-0.3856434
0.7143018,-0.1165704,-0.3373562
0.6973576,-0.1738002,-0.2575352
0.6654279,-0.2702986,-0.2316333
0.6555092,-0.2958697,-0.2284073
0.7096574,-0.2765705,-0.2282647
0.8007774,-0.2688415,-0.2326316
0.862139,-0.2719706,-0.2473814
0.879591,-0.2771694,-0.238813
0.919987,-0.3038541,-0.2177931
0.9978659,-0.3306873,-0.2460554
1.093625,-0.3335482,-0.2978651
1.265893,-0.3844518,-0.4345649
1.489007,-0.466625,-0.6518593
1.547648,-0.5125821,-0.7568173
1.360314,-0.5018912,-0.7261812
1.12583,-0.4736762,-0.6480409
0.9861988,-0.4864319,-0.5674541
0.8563854,-0.4793632,-0.5578463
0.7181958,-0.4605355,-0.6014685
0.7204256,-0.454325,-0.6154368
0.8091678,-0.4099144,-0.6294674
0.8338501,-0.3924243,-0.6431159
0.8564192,-0.3861388,-0.6232086
0.8786936,-0.3205259,-0.621383
0.8197849,-0.2414861,-0.5789596
0.7142158,-0.1702142,-0.4821231
0.6428839,-0.1321112,-0.4415651
0.6278998,-0.1402918,-0.4345279
0.5998431,-0.1569005,-0.4400682
0.5748709,-0.1769363,-0.4486685
0.6047582,-0.1777003,-0.4281605
0.6394176,-0.1035556,-0.3972828
0.6600151,-0.00983471,-0.3604728
0.6532672,-0.005028823,-0.368455
0.6415794,0.003113497,-0.3966076
0.6727862,0.0916439,-0.3896342
0.7145855,0.1212893,-0.4150395
0.7715165,0.07201732,-0.4406164
0.849876,0.044638,-0.4264433
0.9023643,0.06190758,-0.4205576
0.9329384,0.09978026,-0.4126716
1.029483,0.10949,-0.4248832
1.209716,0.0707088,-0.4793615
1.313073,0.00253088,-0.5447077
1.307231,-0.0323592,-0.6140506
1.303862,-0.04101353,-0.6935519
1.293309,-0.1272717,-0.7981039
1.246088,-0.2985782,-0.8886562
1.087249,-0.4730633,-0.8795661
0.8319466,-0.4612101,-0.7634398
0.7481079,-0.2718638,-0.6694841
0.874656,-0.1822001,-0.7237441
0.9615995,-0.1588436,-0.7710978
0.9499737,-0.1499882,-0.6607263
0.918811,-0.1914631,-0.5523847
0.8457,-0.1724458,-0.4864584
0.7591077,-0.1704133,-0.4040722
0.7375819,-0.1773372,-0.3848825
0.7273157,-0.1733369,-0.3759209
0.7083618,-0.2349403,-0.3370624
0.7175423,-0.2433824,-0.3556879
0.7174834,-0.2328078,-0.3745418
0.7015841,-0.1947668,-0.3482596
0.6858661,-0.1147751,-0.3442836
0.6757311,-0.149995,-0.344165
0.6839029,-0.1926223,-0.304408
0.7028091,-0.2370806,-0.2564724
0.7256883,-0.3452873,-0.2375006
0.7653988,-0.3621333,-0.2431386
0.8792794,-0.3370378,-0.259114
1.033135,-0.3637248,-0.2829844
1.072574,-0.3761771,-0.2960425
1.102104,-0.3577308,-0.3463988
1.234554,-0.3510561,-0.4914787
1.221569,-0.3644451,-0.5990048
1.137808,-0.3980013,-0.6428619
1.163765,-0.462065,-0.7651946
1.079201,-0.4787636,-0.8300296
0.9579259,-0.3890891,-0.7420779
0.8369241,-0.293969,-0.6777795
0.6741077,-0.3044564,-0.61082
0.7459371,-0.3787806,-0.5216334
0.848586,-0.4101846,-0.5175676
0.8377663,-0.361597,-0.5030385
0.8477271,-0.2388001,-0.4700212
0.7187597,-0.1013937,-0.4512644
0.6194937,-0.04613749,-0.3862123
0.6162439,-0.0810707,-0.3612798
0.59411,-0.1105411,-0.3575137
0.6518014,-0.09671397,-0.3425333
0.6750387,-0.08702742,-0.3717749
0.7172023,-0.07258502,-0.3797258
0.7847219,-0.09024723,-0.3947924
0.7563458,-0.1314075,-0.4250567
0.742816,-0.07851828,-0.4170866
0.693357,-0.02381342,-0.405046
0.6949811,-0.01292565,-0.3861309
0.8148314,0.07410638,-0.3821139
0.8878769,0.1553421,-0.3963373
0.956627,0.1107908,-0.4429568
1.069363,0.004638018,-0.5256215
1.204146,-0.0516196,-0.5396625
1.23858,-0.07493523,-0.5482053
1.189542,-0.09069104,-0.6258983
1.216163,-0.08778995,-0.6868247
1.201237,-0.1246328,-0.7321259
1.143509,-0.225647,-0.797816
1.085602,-0.418387,-0.8648601
1.010079,-0.5310542,-0.8161004
0.9536093,-0.4168445,-0.648653
0.810394,-0.3202823,-0.573101
0.7363998,-0.2302331,-0.5535239
0.8213375,-0.09864774,-0.4972212
0.8341821,-0.09611766,-0.4742852
0.8047164,-0.1116716,-0.4506282
0.7642003,-0.1597395,-0.4197262
0.6898551,-0.2622675,-0.3775844
0.6887258,-0.2428511,-0.3521996
0.7364419,-0.2078162,-0.3752628
0.7923891,-0.2170038,-0.3639877
0.8547615,-0.1895643,-0.3824285
0.8313415,-0.1794975,-0.4050625
0.7683095,-0.1772921,-0.345105
0.7816684,-0.1732149,-0.3012898
0.7620006,-0.2169441,-0.2803409
0.7185745,-0.2776883,-0.2646113
0.7591904,-0.3293595,-0.23208
0.7809159,-0.3556789,-0.1800037
0.8008257,-0.3437177,-0.1697479
0.8912518,-0.3626979,-0.193546
1.058732,-0.4179612,-0.2668046
1.282963,-0.4439569,-0.3767153
1.375871,-0.4647576,-0.5427832
1.327547,-0.5118876,-0.7037249
1.256266,-0.5469528,-0.7050459
1.113696,-0.5254772,-0.6881609
0.8985434,-0.4556959,-0.6930265
0.696748,-0.3971563,-0.6372853
0.6375577,-0.401845,-0.6516798
0.7298953,-0.416647,-0.6739215
0.8157773,-0.3773224,-0.6456936
0.8529489,-0.367689,-0.6519633
0.8350781,-0.3668348,-0.5976482
0.7385357,-0.280671,-0.4870244
0.6446433,-0.1793222,-0.4383546
0.6099384,-0.08429544,-0.4440176
0.6470997,-0.02990983,-0.4680501
0.7095,-0.04497417,-0.4855464
0.71609,-0.04895139,-0.4939373
0.6954344,-0.08204687,-0.4905965
0.6382654,-0.1329696,-0.4768786
0.5749754,-0.1293893,-0.4741205
0.6103936,-0.1060127,-0.4619123
0.6577802,-0.04901665,-0.4471955
0.6647638,0.03021507,-0.4438788
0.6747701,0.09352632,-0.428475
0.6882177,0.1739095,-0.4186601
0.7596407,0.2217119,-0.4431982
0.8665569,0.1670305,-0.4828266
0.926903,0.1098794,-0.4788244
0.9272152,0.08102135,-0.4434715
0.9097388,0.0273175,-0.4331796
0.9296878,0.01400216,-0.4429655
0.9865542,-0.01975759,-0.4716353
1.075157,-0.08457022,-0.5246047
1.141647,-0.06322643,-0.6825004
1.186797,0.003990829,-0.9581195
1.307151,0.02136758,-1.074095
1.359235,-0.2079872,-0.9364669
1.200767,-0.4787259,-0.7804692
0.9330733,-0.3418342,-0.6736738
0.6919053,-0.1628302,-0.6192224
0.6972012,-0.2062491,-0.6864355
0.8820829,-0.1864129,-0.7849517
0.9228084,-0.2061119,-0.8396523
0.8695499,-0.273207,-0.7753656
0.7614011,-0.23913,-0.5743336
0.5805197,-0.2264563,-0.4942447
0.5392965,-0.1959938,-0.524335
0.6186454,-0.16064,-0.5231058
0.7010792,-0.1825752,-0.5719396
0.7765593,-0.1467082,-0.5780954
0.7989353,-0.1253598,-0.5385475
0.7856501,-0.1343209,-0.5180713
0.7663611,-0.1194543,-0.4762678
0.73139,-0.1429193,-0.4441341
0.6924968,-0.1718998,-0.3601269
0.7220091,-0.2312708,-0.307735
0.7812817,-0.3079681,-0.3463869
0.7900973,-0.321718,-0.3298653
0.8503068,-0.307458,-0.295562
0.9300372,-0.2844039,-0.2835833
0.9378621,-0.271854,-0.3035018
0.9415008,-0.2707422,-0.3451294
0.9825331,-0.2772816,-0.3652936
1.063998,-0.312192,-0.4917314
1.140335,-0.3702307,-0.6946266
1.188151,-0.470702,-0.804711
1.16831,-0.528469,-0.8451908
1.034868,-0.4283606,-0.8126504
0.9090383,-0.3038039,-0.7169203
0.8400398,-0.326954,-0.6952457
0.7603924,-0.3805059,-0.6751035
0.7205013,-0.3839758,-0.5832774
0.7987616,-0.4175029,-0.557992
0.8878328,-0.3441385,-0.5537637
0.8605791,-0.1985972,-0.5154363
0.7803356,-0.1574896,-0.4847496
0.6611038,-0.07847763,-0.429916
0.5646187,-0.02359981,-0.4030534
0.5888812,-0.08954241,-0.3863453
0.6072389,-0.1105182,-0.3567255
0.6226725,-0.1190401,-0.3684717
0.679066,-0.1193044,-0.3613001
0.682498,-0.05925758,-0.3530725
0.6763613,-0.03347132,-0.3797739
0.6950664,-0.03451666,-0.3961855
0.7183152,-0.01637191,-0.4169108
0.757747,0.02359178,-0.4337108
0.8359846,0.0657658,-0.4303664
0.9602341,0.07063012,-0.4333882
1.053625,0.0572903,-0.4647157
1.109901,0.03224971,-0.5056721
1.169581,-0.008929544,-0.5196592
1.197736,-0.05233706,-0.5364533
1.195797,-0.08986581,-0.6065806
1.206848,-0.1412938,-0.7254098
1.219948,-0.231136,-0.8467229
1.188426,-0.3040863,-0.915643
1.124871,-0.3764217,-0.8538794
1.013454,-0.4139782,-0.6956634
0.8825931,-0.3055451,-0.628146
0.876381,-0.1789132,-0.6358921
0.9323049,-0.08158881,-0.6222966
0.9258102,-0.02635998,-0.5972593
0.8587011,-0.09744919,-0.4953572
0.7231981,-0.1396708,-0.394189
0.6154898,-0.1667446,-0.3702497
0.5730935,-0.2336343,-0.3358553
0.5419224,-0.2290283,-0.3214951
0.5637291,-0.2245559,-0.3299642
0.6247957,-0.2169245,-0.3489513
0.6815281,-0.1934198,-0.4038867
0.6900144,-0.2057214,-0.429338
0.6592273,-0.192791,-0.3899523
0.6743647,-0.1807599,-0.3179053
0.685361,-0.1897127,-0.2971322
0.699571,-0.2066735,-0.3454796
0.7643094,-0.2547352,-0.3801033
0.7835791,-0.310834,-0.3636362
0.7972581,-0.3390253,-0.3325289
0.8676537,-0.3212548,-0.3322466
0.9344378,-0.3094337,-0.3337752
0.9744776,-0.3133033,-0.3403257
1.01024,-0.30422,-0.3581861
1.143603,-0.3084205,-0.3749231
1.328836,-0.3141768,-0.4816275
1.379407,-0.3641678,-0.6512989
1.367846,-0.4776933,-0.7477758
1.373588,-0.5397738,-0.7542536
1.258603,-0.5025711,-0.740948
1.022618,-0.3930801,-0.698348
0.8453818,-0.2852439,-0.5946204
0.7912426,-0.2949567,-0.573676
0.7536925,-0.3784385,-0.607946
0.7391646,-0.4118248,-0.5792433
0.8285532,-0.4101844,-0.5958948
0.8765777,-0.3571014,-0.5977743
0.8074871,-0.2391134,-0.5365888
0.7108523,-0.1752674,-0.4813987
0.5872679,-0.146049,-0.3899536
0.5068689,-0.1014658,-0.3407884
0.4988631,-0.1013139,-0.3402104
0.5185971,-0.1175381,-0.3286784
0.5930378,-0.1126082,-0.3440417
0.6500549,-0.06980826,-0.3526776
0.6646356,0.003277715,-0.3703841
0.6779063,0.02906725,-0.3862228
0.6930014,-0.007977634,-0.3955461
0.7560244,-0.03190791,-0.4530865
0.8426249,0.005992368,-0.485457
0.9351457,0.06457936,-0.4994736
1.049241,0.1089087,-0.5223774
1.14063,0.1102458,-0.5010576
1.177175,0.07058077,-0.4787259
1.198106,0.01770352,-0.4919342
1.276365,-0.1138434,-0.5553584
1.315478,-0.2044759,-0.6493647
1.216536,-0.1148762,-0.7243999
1.124443,-0.08593498,-0.8193725
1.124444,-0.2370732,-0.9217591
1.091554,-0.3765563,-0.9474807
0.9959398,-0.3908419,-0.9109448
0.9533053,-0.3443705,-0.8335225
0.9187033,-0.3239312,-0.7157451
0.8900413,-0.2813836,-0.6683001
0.9228594,-0.2049785,-0.6516878
0.8541922,-0.1397284,-0.5096889
0.76801,-0.1018243,-0.4114294
0.7579442,-0.1381442,-0.4613717
0.6517203,-0.1591572,-0.4514507
0.5715117,-0.1418493,-0.3825194
0.5745488,-0.1797837,-0.3538631
0.5543932,-0.2095647,-0.331119
0.5804011,-0.2416887,-0.3517875
0.6281608,-0.2523623,-0.3803152
0.671796,-0.1882219,-0.3368568
0.7056982,-0.1640656,-0.3178593
0.6828206,-0.1652432,-0.3451434
0.6794241,-0.1907372,-0.3474373
0.7349018,-0.2686699,-0.3309487
0.8221471,-0.3274921,-0.3155569
0.9251711,-0.3594929,-0.3313761
0.9866866,-0.3352861,-0.3445239
1.004598,-0.318929,-0.3154689
1.058559,-0.3399963,-0.2923116
1.164659,-0.3103215,-0.3156976
1.253719,-0.2930838,-0.4498436
1.271423,-0.2989793,-0.6405399
1.236019,-0.3308419,-0.7107305
1.172886,-0.4441676,-0.7049526
1.065122,-0.5218681,-0.7159386
0.9931544,-0.45669,-0.6882148
0.9615182,-0.336154,-0.6718598
0.8506906,-0.2961415,-0.6844996
0.779876,-0.3026279,-0.639758
0.793667,-0.3186734,-0.5794042
0.7933778,-0.3440216,-0.5243
0.8134784,-0.280029,-0.4938487
0.7777162,-0.1774008,-0.5050725
0.6949548,-0.1066936,-0.4549933
0.6371661,-0.05680458,-0.389362
0.571888,-0.06336746,-0.3766653
0.5693417,-0.08807017,-0.3683809
