accx,accy,accz
0.5984287,-0.05806218,0.1399588
0.5740394,-0.07732386,0.1547742
0.5571375,-0.154498,0.1903341
0.5910093,-0.2216479,0.2226228
0.6308385,-0.2552033,0.2580095
0.6897403,-0.2231501,0.315599
0.8027566,-0.1701016,0.3671033
0.8638916,-0.1288022,0.3832156
0.9630399,-0.09877181,0.4389896
1.103958,-0.1041201,0.5283048
1.187451,-0.102818,0.4830017
1.397482,-0.1575702,0.3399871
1.641595,-0.2487096,0.2769412
1.56797,-0.3222777,0.3352339
1.421678,-0.4501878,0.3987036
1.327738,-0.4711204,0.2708822
0.9738248,-0.3965302,0.06955955
0.7773727,-0.4173914,0.02786
0.8766308,-0.3929688,0.04537972
0.8821575,-0.3202344,0.04335246
1.015348,-0.2994385,0.02486258
1.068936,-0.2519237,-0.004782257
0.9132133,-0.1751794,-0.003225357
0.8641743,-0.07390262,-0.01307103
0.7379832,-0.02600459,-0.01205693
0.7223192,-0.08755702,-0.01739023
0.8392963,-0.1304408,-0.04491806
0.819922,-0.1601669,-0.02860289
0.8570649,-0.1690757,-0.03229528
0.8276202,-0.1124855,-0.04315316
0.7649466,-0.0975068,-0.0368631
0.8038678,-0.09374523,-0.05163817
0.7866439,-0.07192597,-0.0547583
0.8370688,-0.06055943,-0.07464708
0.9404318,0.002423532,-0.1031909
1.026247,0.04562638,-0.1085036
1.11618,0.02725502,-0.07717204
1.183627,0.02273167,-0.01145049
1.279271,0.03173601,0.008703701
1.32208,0.01367908,0.0007606006
1.421279,-0.07920312,-0.03138533
1.610636,-0.2488731,-0.1400142
1.641008,-0.4130566,-0.2153783
1.567946,-0.4486849,-0.1651679
1.384824,-0.3775848,-0.1032253
1.114675,-0.3375,-0.122985
1.0425,-0.3153424,-0.1298588
1.077933,-0.2529418,-0.1073018
1.027248,-0.1569631,-0.09886535
1.012284,-0.08287576,-0.05626069
1.047734,-0.07881596,-0.04503871
1.025743,-0.08915931,-0.06773094
0.9973651,-0.1216132,-0.03874073
0.9122671,-0.2605254,0.00980211
0.7724105,-0.4008934,0.06103896
0.7743803,-0.3084025,0.054239
0.7572493,-0.1059368,0.01866678
0.6619979,-0.07486406,0.04933873
0.7072013,-0.1023995,0.04998816
0.7208408,-0.1176859,0.04985323
0.6635861,-0.1593549,0.1039964
0.6850067,-0.1520485,0.1294631
0.6828768,-0.1893285,0.1742806
0.689526,-0.2531412,0.2274364
0.7333986,-0.2552433,0.2467546
0.7534842,-0.2551887,0.2857909
0.8140743,-0.2105562,0.3059398
0.8791975,-0.1399598,0.3132495
0.8982272,-0.1159611,0.3589134
0.9188463,-0.1075269,0.411437
0.9857722,-0.09259914,0.4571129
1.088302,-0.112912,0.4722589
1.228517,-0.1948672,0.4464896
1.51052,-0.2804482,0.426455
1.717283,-0.3429283,0.3960362
1.527865,-0.3567145,0.3210596
1.171658,-0.3496642,0.2331846
0.9080544,-0.3785984,0.1579035
0.7985464,-0.3715768,0.09346867
0.9017661,-0.3578864,0.0409202
1.003681,-0.3558308,0.01278559
1.020391,-0.305251,0.0009656662
1.052156,-0.2746896,-0.004054608
0.9955031,-0.249927,-0.002578654
0.9097456,-0.1730926,-0.02251217
0.8240052,-0.09663986,-0.03561733
0.7517083,-0.09022776,-0.05083931
0.8420823,-0.157144,-0.09782419
0.8859819,-0.2182688,-0.0890131
0.8714531,-0.2349892,-0.05655839
0.8880009,-0.2086134,-0.04467787
0.7980489,-0.1663196,-0.01760068
0.777752,-0.1258922,-0.04158183
0.7850796,-0.06815912,-0.07856188
0.7744485,-0.02769372,-0.09238535
0.8884829,0.0173635,-0.1298107
0.958815,0.05631256,-0.118283
1.005743,0.02416712,-0.06020687
1.037828,0.01020048,-0.02583969
1.021639,0.02016079,-0.02069736
1.081172,-0.0230244,-0.03855565
1.196315,-0.09231834,-0.05154866
1.435477,-0.1897394,-0.09640827
1.674409,-0.2808193,-0.1982661
1.72373,-0.3375496,-0.2598219
1.672727,-0.3956745,-0.2310907
1.460363,-0.3935871,-0.1765699
1.20051,-0.3493904,-0.1372478
1.194958,-0.3591507,-0.07746549
1.25001,-0.3399703,-0.04726553
1.069905,-0.2341186,-0.08139678
0.9172978,-0.1420228,-0.07511632
0.9829953,-0.1485118,-0.05666282
0.9922013,-0.199419,-0.0415294
0.9231152,-0.2078227,0.02353224
0.9043435,-0.2462046,0.04110152
0.8581128,-0.2765473,0.03902392
0.7679121,-0.2425987,0.07156305
0.7094081,-0.2570983,0.06409268
0.7326825,-0.2029161,0.0549037
0.7423272,-0.09596131,0.0677855
0.7150683,-0.1083863,0.07278348
0.7368497,-0.1336389,0.1044179
0.7313893,-0.1681989,0.1671061
0.7005385,-0.2097527,0.2041673
0.6960714,-0.2133906,0.2085519
0.6923082,-0.2332923,0.2422308
0.7136552,-0.2332127,0.294317
0.726275,-0.2347165,0.3054014
0.7366425,-0.2249784,0.2926972
0.7759707,-0.1962693,0.3013271
0.7998766,-0.1952808,0.3158961
0.843835,-0.1811211,0.322919
0.9252782,-0.1801825,0.3549756
1.020148,-0.1598336,0.388587
1.139536,-0.1239532,0.3931159
1.320894,-0.1826721,0.3807033
1.624567,-0.3122214,0.3610865
1.820729,-0.4200608,0.3525752
1.582584,-0.396935,0.3316025
1.135156,-0.349613,0.2740491
0.8346742,-0.3989564,0.1712944
0.729921,-0.3871221,0.06306843
0.8500615,-0.3668326,0.04666863
0.9968014,-0.3979332,0.04185166
0.9985246,-0.358118,0.0007855419
1.017814,-0.3259008,0.01857913
1.014532,-0.2947448,0.01173493
0.9784446,-0.2008718,-0.03179031
0.9346144,-0.1184236,-0.03499341
0.8295987,-0.09222865,-0.05654089
0.8608973,-0.1774134,-0.08954325
0.9094198,-0.2671956,-0.1174551
0.8567526,-0.2631502,-0.1050268
0.8725983,-0.266769,-0.05156716
0.8241746,-0.2266207,-0.06764118
0.7406269,-0.1059184,-0.08549698
0.7379982,-0.01014077,-0.08348845
0.7762157,0.03525046,-0.1292569
0.8749995,0.04101809,-0.1411909
0.9283951,0.01134315,-0.1300609
0.9630811,-0.04945872,-0.1131533
1.018614,-0.101976,-0.06424652
1.024727,-0.09799147,-0.01881406
1.061636,-0.03883524,0.009922499
1.095206,0.02609889,-0.01001025
1.144155,0.02005687,-0.02653317
1.312134,-0.04580858,-0.0122778
1.486622,-0.1204278,-0.0603825
1.615528,-0.202499,-0.1683576
1.667989,-0.2967208,-0.2470961
1.562196,-0.4096198,-0.1997961
1.368189,-0.4727339,-0.1226059
1.182146,-0.4146849,-0.1307233
1.09931,-0.3290434,-0.1003389
1.077913,-0.2757104,-0.08570923
0.9637868,-0.1943067,-0.1259188
0.9226762,-0.1542097,-0.07304699
1.064303,-0.2328398,-0.01741276
1.13067,-0.3176028,0.000234317
1.006309,-0.3762028,0.02294826
0.8495005,-0.4550345,0.0106199
0.8239688,-0.4298989,0.01613543
0.8286343,-0.2998217,-0.002573849
0.7714665,-0.2433079,-0.03599763
0.7796813,-0.215011,-0.01607578
0.7811158,-0.1798266,-0.001216596
0.7551283,-0.2285463,0.0403503
0.7753576,-0.2606386,0.07163519
0.7361634,-0.2250724,0.07203476
0.6944373,-0.2076801,0.1140506
0.6989697,-0.2293433,0.1585583
0.7148573,-0.2731074,0.2321955
0.75315,-0.2909874,0.2835344
0.7379398,-0.2497162,0.2605965
0.7217554,-0.1561668,0.2723147
0.7408595,-0.09252241,0.2885742
0.752588,-0.07156687,0.3104031
0.8200607,-0.007481405,0.3836512
0.8820857,0.01037173,0.419731
0.9116361,-0.03618302,0.4348801
0.9940007,-0.03367098,0.5045814
1.051157,-0.02603013,0.5501
1.100422,-0.04442257,0.5223716
1.35641,-0.09968323,0.5299179
1.711492,-0.2334304,0.5607365
1.755393,-0.3572846,0.5329926
1.393972,-0.4311581,0.4600143
0.9213251,-0.5428176,0.2758075
0.7350316,-0.6112891,0.0938723
0.9108859,-0.5602548,0.1081176
1.041005,-0.5262385,0.09039518
1.042975,-0.46495,-0.0355651
1.107361,-0.3336575,-0.03746916
1.048911,-0.3041051,-0.02009417
0.9389676,-0.2712617,-0.0593304
0.9586487,-0.149364,-0.0553419
0.8687499,-0.09768003,-0.06367559
0.7269286,-0.07034048,-0.06128446
0.7368722,-0.06813945,-0.05553505
0.7957437,-0.1482869,-0.0692673
0.845979,-0.2065258,-0.04851779
0.8563181,-0.2370828,-0.06165506
0.8063971,-0.2045285,-0.07021176
0.7404528,-0.1178321,-0.05693031
0.7095275,-0.0754212,-0.07448547
0.7753401,-0.006557437,-0.06574259
0.8952532,0.0605122,-0.07299606
1.001418,0.07866064,-0.0866202
1.063048,0.08371603,-0.07366487
1.066892,0.02820062,-0.05722164
1.054091,-0.01374593,-0.01386082
1.049732,-0.008696617,-0.01724466
1.089853,-0.01798596,-0.05767564
1.206941,-0.05508876,-0.08329006
1.39925,-0.1470609,-0.13037
1.620166,-0.2191149,-0.1530656
1.690333,-0.2777819,-0.1598678
1.542342,-0.373295,-0.1882432
1.388159,-0.400354,-0.1928791
1.322952,-0.3866123,-0.1560655
1.215065,-0.4034493,-0.09524988
1.097081,-0.3848809,-0.05331409
1.068377,-0.3366037,-0.04755066
1.04372,-0.3107195,-0.03957942
1.025487,-0.2739305,-0.02273752
1.034036,-0.2509702,-0.01600689
0.9547906,-0.2932041,0.003705561
0.8358448,-0.3160617,0.03380513
0.7850999,-0.2879927,0.04252539
0.7643884,-0.241953,0.04885918
0.7203587,-0.1759551,0.05784872
0.6913379,-0.1473238,0.06597673
0.7122406,-0.1495612,0.07180685
0.6913836,-0.1239823,0.08220528
0.6370345,-0.1152068,0.1307621
0.6186759,-0.142902,0.170021
0.5962899,-0.1640028,0.1854447
0.6068572,-0.1947397,0.2126211
0.6440976,-0.2273168,0.2465956
0.677384,-0.219347,0.3245935
0.7572026,-0.200422,0.3968168
0.8254254,-0.1852611,0.4188534
0.8663361,-0.1884325,0.4707233
0.97008,-0.206883,0.5361132
1.171577,-0.1952231,0.5552911
1.407609,-0.2137499,0.52546
1.560206,-0.3177395,0.4646955
1.58638,-0.4964313,0.3835127
1.466992,-0.616475,0.3007415
1.182229,-0.5087186,0.2559283
0.8717879,-0.3733433,0.1466254
0.8194328,-0.3655319,-0.01573859
0.9778662,-0.3271905,0.001583751
0.9916549,-0.2751723,0.05692699
0.9562243,-0.2487756,-0.008964682
1.031164,-0.2284569,0.01012827
1.029769,-0.225982,0.01794445
0.9250332,-0.1472587,-0.04993748
0.7674477,-0.04774029,-0.02819635
0.712952,-0.03972168,-0.05604695
0.8046833,-0.1032157,-0.1040215
0.8234805,-0.1951423,-0.06912949
0.8245896,-0.211292,-0.07603163
0.8011215,-0.1741247,-0.07587326
0.7265572,-0.160279,-0.07810532
0.7567204,-0.1437305,-0.1244468
0.7883849,-0.1283999,-0.1650263
0.8195786,-0.09074701,-0.2136995
0.9254905,-0.06623511,-0.2121046
1.002116,-0.09191477,-0.1607954
1.040503,-0.09037098,-0.1045453
1.041297,-0.04470189,-0.07247263
1.035812,-0.01042701,-0.09412591
1.077504,-0.05426628,-0.08952717
1.170937,-0.132821,-0.08135512
1.353631,-0.1813598,-0.1274597
1.531242,-0.2397148,-0.1712703
1.622447,-0.2762648,-0.2150706
1.69598,-0.3030438,-0.2605966
1.598536,-0.3461567,-0.2512496
1.295381,-0.3332988,-0.1997144
1.189076,-0.3212865,-0.1755653
1.232528,-0.3139745,-0.1600376
1.109246,-0.2290545,-0.1302347
0.9950401,-0.1451213,-0.09445657
0.9835693,-0.1134908,-0.02536469
0.9959769,-0.1263357,-0.003187087
0.9889871,-0.1776568,-0.02422789
0.9215596,-0.2573407,0.009649534
0.8955838,-0.3588606,0.02838345
0.8672295,-0.37684,0.02420635
0.7883679,-0.3055169,0.03233015
0.7348712,-0.2498913,0.0359543
0.7280946,-0.2302732,0.06546529
0.7485003,-0.2252954,0.08864938
0.7075543,-0.1896103,0.09473953
0.6788648,-0.1488852,0.1030088
0.6520381,-0.1372115,0.1015906
0.5766296,-0.1722953,0.1202818
0.5897103,-0.2625498,0.1607755
0.5866974,-0.2959684,0.2071491
0.5886173,-0.277723,0.2476915
0.6812808,-0.2549846,0.2737591
0.7500246,-0.1892184,0.3046611
0.882883,-0.1256372,0.3341235
1.033736,-0.08663436,0.3602502
1.141656,-0.08667126,0.3969131
1.32363,-0.10413,0.4414673
1.516961,-0.1429,0.4700544
1.694592,-0.3079032,0.4578458
1.755913,-0.4456915,0.4475514
1.436332,-0.4032842,0.4455122
0.92213,-0.400063,0.3623286
0.7017334,-0.5098772,0.2002614
0.7373326,-0.552313,0.07306023
0.7947109,-0.5670078,0.03139181
0.9109239,-0.6063971,-0.009027434
0.9516943,-0.5698315,-0.08250379
0.9261318,-0.5333253,-0.1008432
1.04574,-0.5225327,-0.1238408
1.143213,-0.4558044,-0.2154568
1.064841,-0.3455544,-0.2433091
0.9344249,-0.1929846,-0.2156431
0.8848393,-0.1407276,-0.2246675
0.8998832,-0.2044364,-0.2243942
0.8915717,-0.2014422,-0.1941953
0.854205,-0.2026505,-0.1655088
0.7853605,-0.1997186,-0.1584948
0.7506124,-0.1033051,-0.1633456
0.7706352,0.001242356,-0.1777911
0.793302,0.114136,-0.1956091
0.8976303,0.1709373,-0.1431171
1.016331,0.1390311,-0.07085657
1.004434,0.1627023,-0.06807245
0.9747086,0.2153177,-0.04069767
0.9839146,0.2374056,0.009536606
0.9351022,0.2268957,0.01956469
0.9325612,0.1571597,0.07112733
1.000233,0.1072205,0.1326227
0.9962102,0.1043999,0.1249787
1.045182,0.1095892,0.1123926
1.242565,0.1187671,0.1197248
1.517656,0.1240684,0.1135399
1.681049,0.1164531,0.1019211
1.669475,0.01400841,0.1042413
1.754053,-0.2100733,0.09882173
1.663085,-0.3829004,0.06856805
1.293498,-0.3498694,0.017012
1.210017,-0.2753007,-0.06073941
1.229683,-0.3117307,-0.09524655
1.096783,-0.2883544,-0.07455776
0.981779,-0.2635136,-0.05435664
0.913379,-0.3295043,0.007143065
0.9980584,-0.3402925,0.05722413
1.047001,-0.3544486,0.06145194
0.9462641,-0.34068,0.09598546
0.8768109,-0.2748612,0.1012265
0.7919022,-0.2430407,0.07392479
0.7429811,-0.1577932,0.06995257
0.7471615,-0.1177575,0.06672032
0.7395479,-0.1544194,0.09219578
0.7518404,-0.1476454,0.1252962
0.7464993,-0.1417829,0.1403776
0.7419996,-0.1109182,0.1670119
0.7368686,-0.07871909,0.1913246
0.7396117,-0.1133815,0.2182206
0.7584462,-0.1569998,0.2461225
0.7381895,-0.1676436,0.2832112
0.7460662,-0.169206,0.337027
0.8143695,-0.17848,0.3580708
0.910138,-0.1828797,0.3794858
0.9912021,-0.2497245,0.4539113
1.061252,-0.3091593,0.5213426
1.19481,-0.2019307,0.53491
1.286093,-0.1111391,0.5015813
1.284229,-0.2221322,0.3888735
1.293112,-0.3679329,0.2425488
1.270746,-0.3923148,0.1912096
1.138635,-0.3745798,0.1387771
0.944785,-0.3922445,0.04488539
0.8617713,-0.4311508,0.08700209
0.9008593,-0.4585837,0.1202273
0.936175,-0.4309518,0.05540309
1.013381,-0.373346,0.05188525
1.030924,-0.2785743,0.01337743
0.9030847,-0.1590886,-0.009816224
0.8102669,-0.1004664,0.02285663
0.77127,-0.08148302,-0.03600782
0.7677438,-0.1174543,-0.04757243
0.7931612,-0.1835148,-0.03579969
0.7918738,-0.1866628,-0.06942651
0.8130947,-0.171981,-0.04929366
0.8209336,-0.1335578,-0.06438818
0.8073082,-0.06112914,-0.06970622
0.8197646,-0.01737784,-0.05359995
0.8737807,-0.007054088,-0.09579427
0.9786071,-0.02096605,-0.1153372
1.007633,-0.035864,-0.1250991
0.9958885,-0.05963262,-0.1170787
1.057001,-0.0932059,-0.0935935
1.117507,-0.09571176,-0.0851783
1.1676,-0.0967955,-0.05490407
1.195588,-0.1366669,-0.06421449
1.239589,-0.2169362,-0.08002118
1.356356,-0.2796262,-0.06916969
1.4174,-0.2604707,-0.1168398
1.430022,-0.2497454,-0.1824419
1.44205,-0.3227056,-0.2030261
1.355735,-0.4038328,-0.1653867
1.248645,-0.4357176,-0.1040116
1.199843,-0.3923687,-0.07647412
1.140853,-0.3000199,-0.075575
1.088855,-0.2183749,-0.08757165
1.074575,-0.138129,-0.08070346
1.080633,-0.1270191,-0.05155519
1.046025,-0.2132566,-0.03382275
0.9401276,-0.3102207,-0.02154444
0.8561748,-0.413348,0.007965971
0.8353521,-0.4456678,0.05928238
0.8238478,-0.389239,0.06330068
0.7830878,-0.3496251,0.04301975
0.7618294,-0.2789451,0.06438463
0.7678779,-0.1975053,0.05567615
0.7317939,-0.1806816,0.07430556
0.7159987,-0.1779791,0.1455582
0.7175075,-0.1714227,0.1691777
0.6988238,-0.173767,0.2004198
0.720444,-0.1952827,0.2236065
0.7210893,-0.2248408,0.2205641
0.7138285,-0.2333985,0.2698947
0.7374677,-0.215162,0.3291418
0.7498922,-0.1747515,0.3772032
0.8111782,-0.1456807,0.4312314
0.9141696,-0.1351798,0.484891
1.054325,-0.1091677,0.5108244
1.244452,-0.09912983,0.4757536
1.419337,-0.2191175,0.4100454
1.530291,-0.4204015,0.323642
1.443022,-0.4950789,0.2744018
1.191521,-0.4732875,0.2558851
0.9907304,-0.4613365,0.1516367
0.8925847,-0.4308131,0.04731349
0.8889189,-0.4241385,0.0067745
0.9271409,-0.4241971,-0.01387421
1.010113,-0.3788072,-0.02147219
1.126078,-0.3311312,-0.07039724
1.110648,-0.2586885,-0.06743818
0.9603409,-0.1617435,-0.01343909
0.8178166,-0.1135744,-0.04438256
0.8579798,-0.1421111,-0.06455044
0.9730408,-0.207179,-0.08230126
0.9371963,-0.2563887,-0.1062103
0.9281202,-0.2832846,-0.0724035
0.8795353,-0.2458272,-0.08323898
0.7183884,-0.1931355,-0.08105652
0.680521,-0.2076631,-0.06553328
0.664885,-0.1825138,-0.1055077
0.6862481,-0.123559,-0.1160632
0.7884221,-0.08213671,-0.1435557
0.8514317,-0.01981202,-0.1626631
0.9155108,-0.01484667,-0.1195582
0.9454993,-0.03378507,-0.06373707
1.034966,-0.01339831,-0.004772711
1.180454,-0.02120694,-0.01740048
1.280071,-0.06209794,-0.05885096
1.467472,-0.1662024,-0.08125184
1.646721,-0.3537167,-0.1722322
1.715319,-0.5160477,-0.2653545
1.634908,-0.5213073,-0.2605789
1.381486,-0.4168953,-0.1965878
1.213808,-0.3550932,-0.1439721
1.153604,-0.2891959,-0.09836934
1.094337,-0.2053378,-0.08135656
1.083715,-0.1830929,-0.1079766
1.079098,-0.174709,-0.08680249
1.059823,-0.1836716,-0.04933553
1.003471,-0.2075667,-0.01818191
0.934512,-0.2458751,0.01970033
0.8881886,-0.3341592,0.006763034
0.823045,-0.3717344,0.02869771
0.774525,-0.3334588,0.06357415
0.7386204,-0.2789583,0.0499863
0.7166911,-0.2212698,0.06632551
0.7239069,-0.1798106,0.07066097
0.7063838,-0.1504553,0.07907971
0.6746421,-0.1452497,0.1189674
0.6549985,-0.1571875,0.1489973
0.6626581,-0.191147,0.2018394
0.6861474,-0.2523313,0.2405484
0.7125378,-0.2646892,0.2739109
0.7659945,-0.2273296,0.3417579
0.8167968,-0.1779355,0.3824503
0.8365663,-0.1300248,0.393742
0.8288644,-0.1313426,0.4081523
0.8545828,-0.14674,0.4276789
0.9850464,-0.1166265,0.4439226
1.18325,-0.1291599,0.4362939
1.413188,-0.2981954,0.3951678
1.602393,-0.5469741,0.3562867
1.575701,-0.6234494,0.3631416
1.330207,-0.456878,0.3426196
1.054598,-0.3170709,0.2125811
0.8496665,-0.3170019,0.06098646
0.8037925,-0.3301704,0.008810103
0.931009,-0.3370026,0.02725501
1.036864,-0.3114629,0.02002775
1.052326,-0.2615512,-0.005306457
0.9764116,-0.214455,-0.005088967
0.8188208,-0.1372204,-0.00445465
0.7505991,-0.114293,-0.01469017
0.8103528,-0.1457524,-0.04144561
0.886593,-0.163171,-0.0844156
0.897568,-0.1898963,-0.09841744
0.8731741,-0.1970957,-0.09690659
0.8451774,-0.1878484,-0.1032107
0.7546073,-0.1859492,-0.1027297
0.6966762,-0.1733063,-0.1099862
0.7236801,-0.1527728,-0.1123209
0.7812978,-0.1060203,-0.1134838
0.8831474,-0.04158265,-0.1355736
0.9631855,-0.02305186,-0.143104
1.007001,-0.04774039,-0.1284318
1.062234,-0.05028607,-0.103286
1.107748,-0.04145739,-0.07386813
1.136091,-0.05094559,-0.06989008
1.209267,-0.07529107,-0.08304322
1.356364,-0.1481391,-0.09710498
1.469009,-0.2305859,-0.1218699
1.563766,-0.2860978,-0.15091
1.691939,-0.3836681,-0.1758442
1.647644,-0.431507,-0.1849958
1.415695,-0.3316318,-0.2015246
1.272769,-0.2722114,-0.226619
1.232516,-0.3000285,-0.1468697
1.130726,-0.2716157,-0.03780171
1.00974,-0.2448197,-0.06824775
0.9798854,-0.2466135,-0.07623796
1.016695,-0.2248379,-0.01512935
1.019884,-0.2249244,-0.03065351
0.9537849,-0.2516908,-0.02546717
0.8608998,-0.3041366,0.0133378
0.8044804,-0.3479079,0.02415464
0.7840789,-0.323282,0.04680081
0.7368594,-0.2684748,0.0395025
0.7145967,-0.2003264,0.04881484
0.7391587,-0.1470912,0.09339464
0.7358001,-0.1527274,0.1114446
0.722847,-0.1608531,0.1493318
0.7125798,-0.1586556,0.1789522
0.7070241,-0.1874297,0.1860478
0.7020563,-0.2221713,0.2108363
0.672782,-0.2475799,0.2438039
0.6632503,-0.2699402,0.2909435
0.6916638,-0.266842,0.3127974
0.7352616,-0.2395189,0.3236624
0.591026,-0.1486874,0.1872783
0.6277188,-0.215998,0.247964
0.6421398,-0.22254,0.2835392
0.6425479,-0.2022891,0.3144489
0.6549612,-0.1599906,0.3991877
0.7153092,-0.1236613,0.4652364
0.8925299,-0.1595359,0.5209254
1.157988,-0.1930603,0.5740643
1.436739,-0.1944821,0.5634657
1.645836,-0.2683472,0.4696475
1.713277,-0.3873274,0.3593324
1.576909,-0.4050669,0.3485282
1.171705,-0.3819806,0.3121745
0.7490595,-0.4218296,0.1254508
0.7825562,-0.4128257,0.03244364
1.028283,-0.3580255,0.07683902
0.9818613,-0.324716,0.04570877
0.9713709,-0.2888964,0.006181493
1.088776,-0.2944955,0.003084353
1.049028,-0.261886,-0.04482512
0.9647942,-0.139381,-0.04946986
0.8306335,-0.07954828,-0.02669402
0.845311,-0.1045719,-0.07264263
0.9575241,-0.1350105,-0.09650134
0.8561555,-0.1817703,-0.07657868
0.8710193,-0.2587717,-0.07350136
0.8287076,-0.2627314,-0.06244522
0.6387585,-0.1990847,-0.05741819
0.6854958,-0.181166,-0.06636069
0.6966357,-0.1030272,-0.07735844
0.6726129,0.007663166,-0.1172289
0.7329306,0.03252684,-0.141954
0.81514,0.06565872,-0.09390536
1.057346,0.0648339,-0.0136664
1.296468,0.03744808,0.0264562
1.483963,0.03174053,0.02923759
1.630996,-0.05803412,0.005907262
1.635089,-0.2244452,-0.1033121
1.6166,-0.4081501,-0.2606579
1.579129,-0.4479353,-0.2936564
1.436874,-0.3353988,-0.1686465
1.215239,-0.30167,-0.09279433
1.085648,-0.292558,-0.1435957
1.107297,-0.2519259,-0.1536605
1.111581,-0.2272798,-0.1003623
1.097706,-0.1957508,-0.06998648
1.04727,-0.2633781,-0.05809276
0.9398737,-0.387484,-0.04641941
0.9049144,-0.4441351,-1.900456e-05
0.8731447,-0.4804,0.0569237
0.7737855,-0.4270108,0.04503285
0.6729802,-0.2638272,0.01574772
0.6110169,-0.1795879,0.03676166
0.6241988,-0.1678351,0.06647856
0.6221612,-0.1181241,0.0976052
0.5714749,-0.1102978,0.1122096
0.5719295,-0.1438272,0.1011941
0.5700573,-0.141989,0.1418939
0.5538988,-0.1597749,0.2155256
0.5954423,-0.1732151,0.305251
0.6952388,-0.1382926,0.3960007
0.898104,-0.1162217,0.4348256
1.153177,-0.09698859,0.5207302
1.357222,-0.1052399,0.5610595
1.522381,-0.1889344,0.3834314
1.594869,-0.2941142,0.201169
1.478794,-0.405088,0.1960736
1.233409,-0.4608499,0.2398888
1.038511,-0.4172772,0.1909092
0.9432567,-0.3698325,0.0922052
0.8884201,-0.3305078,0.02077061
0.9113372,-0.2752445,0.01400394
1.001812,-0.2388472,0.04618561
1.073254,-0.2374749,-0.007368853
1.065854,-0.2298755,-0.04537393
0.9335253,-0.1664083,-0.0259482
0.7634066,-0.1205104,-0.08267105
0.7378604,-0.1553556,-0.1029573
0.8555038,-0.2277821,-0.09645138
0.9310172,-0.2853195,-0.1076282
0.8994862,-0.2864119,-0.0774289
0.8320355,-0.2337342,-0.07411056
0.7537893,-0.1552528,-0.06272941
0.6910476,-0.08449488,-0.06377773
0.6647714,-0.03259362,-0.09286565
0.6533859,0.01651424,-0.1104339
0.7100359,0.03560999,-0.1509947
0.8832489,0.01932149,-0.1145778
1.105115,0.00435664,-0.04306714
1.326786,-0.01161377,-0.03019786
1.515814,-0.02639022,-0.03107692
1.633381,-0.06410086,-0.08063383
1.680311,-0.2095264,-0.1756062
1.64747,-0.3710619,-0.2728807
1.575092,-0.3699152,-0.256652
1.448564,-0.3062742,-0.1577107
1.254673,-0.3152894,-0.173128
1.130854,-0.3248613,-0.2080452
1.066813,-0.3224568,-0.2051488
1.048878,-0.3436395,-0.1798821
1.081623,-0.3452041,-0.08137036
1.005917,-0.3576926,-0.04741608
0.9041537,-0.4212264,-0.05162885
0.8335922,-0.4757457,-0.01681031
0.7495218,-0.4689819,-0.001859822
0.7606409,-0.3853448,0.03311493
0.7402301,-0.2754298,0.03317104
0.6621978,-0.1837587,0.01281692
0.6246173,-0.09478799,0.04747963
0.5834552,-0.06222601,0.05973054
0.6154813,-0.09946587,0.08970839
0.6316847,-0.1301519,0.1607278
0.626334,-0.1623129,0.1938963
0.7110346,-0.2236492,0.2308018
0.7516071,-0.2707733,0.3113067
0.7632645,-0.2624012,0.3544858
0.8037824,-0.202628,0.3557339
0.9209146,-0.1619588,0.4301922
1.095956,-0.196888,0.5089731
1.228037,-0.2849379,0.4907068
1.455727,-0.3612829,0.4277619
1.574084,-0.3296611,0.3305973
1.300552,-0.2738256,0.2504997
1.005253,-0.3248246,0.1639152
1.001935,-0.3654765,0.05386714
1.105602,-0.3721997,0.04332525
1.11194,-0.3559814,0.01364923
1.118988,-0.2864779,-0.05475172
1.18969,-0.2968344,-0.03851974
1.21626,-0.2936612,-0.0790266
1.125872,-0.2008732,-0.1450581
0.9413375,-0.1844018,-0.1329153
0.847703,-0.2243681,-0.1308544
0.845341,-0.303711,-0.1300289
0.7859367,-0.364717,-0.1029633
0.6697196,-0.3075588,-0.0872628
0.5176551,-0.2311133,-0.1067078
0.4798678,-0.1344233,-0.1390293
0.5619331,-0.03751438,-0.1674709
0.5839562,-0.02947576,-0.18477
0.6141825,-0.02896919,-0.1477696
0.6994035,0.002011264,-0.09168833
0.7802799,0.03934589,-0.05609416
0.8946167,0.07040722,-0.01473966
1.067827,0.04586334,0.03928892
1.256274,-0.03502587,0.04696732
1.454404,-0.1204369,-0.06131087
1.666046,-0.2085892,-0.1710459
1.761109,-0.2896986,-0.1787563
1.745495,-0.3070149,-0.1703794
1.697662,-0.3075703,-0.1619066
1.50147,-0.3017279,-0.108678
1.240131,-0.2535559,-0.06461703
1.066575,-0.2619209,-0.09908565
0.9662201,-0.3124751,-0.1358961
1.003696,-0.3617429,-0.08789585
1.102856,-0.4654137,-0.04339523
1.11304,-0.5359123,-0.04488647
1.070675,-0.5342471,-0.05823564
0.9641652,-0.5067251,-0.08959923
0.8195949,-0.436954,-0.1048085
0.7651235,-0.3608583,-0.108569
0.7590421,-0.2742367,-0.1111674
0.7563368,-0.2015154,-0.0729062
0.7887679,-0.2002201,-0.01457228
0.7968467,-0.1889111,0.04220156
0.7833784,-0.1479914,0.08259437
0.7556062,-0.07761187,0.1141795
0.7022613,0.008608392,0.1815213
0.6936165,-0.02739998,0.2522879
0.6770434,-0.1007507,0.307586
0.6455579,-0.08012903,0.3355785
0.6818203,-0.07878274,0.3357186
0.7203731,-0.08729736,0.3966234
0.7679678,-0.0523089,0.4691938
0.8477468,-0.03099798,0.4968226
0.9109042,0.02205491,0.5301481
1.094306,0.05702669,0.5143645
1.453846,-0.07228918,0.4483645
1.690094,-0.311162,0.3869606
1.553468,-0.5262684,0.3714508
1.166662,-0.6908351,0.3876644
0.8732025,-0.8005987,0.3305311
0.9429633,-0.7335941,0.2456921
1.144243,-0.5240576,0.1080361
1.107844,-0.4012926,-0.04348202
1.050193,-0.3467393,0.001773764
1.040904,-0.2972619,0.0312468
0.9715577,-0.2764364,-0.04396612
1.024792,-0.2400196,-0.04252647
0.9916797,-0.2054057,-0.08316767
0.8158507,-0.1572968,-0.114316
0.7120179,-0.1144354,-0.08741435
0.6719438,-0.1352575,-0.1161765
0.7538935,-0.1846729,-0.09845618
0.7468605,-0.2307544,-0.0645159
0.6986672,-0.2236153,-0.06228199
0.7468314,-0.1783958,-0.05132451
0.6869108,-0.1194533,-0.0933068
0.7427059,-0.04240747,-0.1288607
0.8554431,-0.007909973,-0.1535561
0.9201684,-0.0004180162,-0.1722907
1.142883,0.004163423,-0.1073272
1.304949,0.009057412,-0.06263947
1.384742,0.008159021,-0.06647536
1.485288,-0.06514268,-0.06116251
1.601252,-0.2386423,-0.0939682
1.701372,-0.4275729,-0.1680876
1.648097,-0.4515041,-0.2045718
1.521247,-0.3872623,-0.1509085
1.295825,-0.4074684,-0.1053668
1.082429,-0.3874487,-0.1104748
1.06623,-0.3303869,-0.103073
1.054089,-0.2764008,-0.09238195
1.069654,-0.1649866,-0.05559454
1.104221,-0.1467446,-0.01457233
1.028006,-0.2244637,-0.01355887
0.9127698,-0.288037,0.006067224
0.7706516,-0.3512248,0.04225364
0.6983456,-0.3428929,0.04088578
0.6830805,-0.2570727,0.03672461
0.6340917,-0.1645746,0.06163264
0.6325759,-0.1227234,0.06403638
0.6085153,-0.1450881,0.07630718
0.5811177,-0.1435632,0.131954
0.6334854,-0.1624094,0.1727297
0.6577308,-0.2365514,0.2151857
0.6714273,-0.2684382,0.2490855
0.694541,-0.2750884,0.2773296
0.6961527,-0.2573591,0.3383757
0.7316419,-0.1956385,0.3801932
0.7958612,-0.1566562,0.4224579
0.8894292,-0.1478314,0.4843092
1.038586,-0.1498592,0.5052361
1.274197,-0.1983039,0.451189
1.568763,-0.3709982,0.3392653
1.674982,-0.5461982,0.2861536
1.443365,-0.4594861,0.3435657
1.174674,-0.3306165,0.3965147
1.140119,-0.4074236,0.3335692
1.07139,-0.4231802,0.154663
0.8913425,-0.3940973,-0.006586551
0.9378112,-0.427635,0.0106156
1.035327,-0.3429799,0.08092938
0.9884189,-0.2676909,0.01138577
1.007672,-0.2685514,-0.005045003
0.99773,-0.2234217,0.03011282
0.9111751,-0.1744818,-0.043097
0.8491552,-0.1221685,-0.0521522
0.7724371,-0.114507,-0.06739866
0.7912931,-0.1490355,-0.1102057
0.8470319,-0.1948437,-0.05783177
0.8372544,-0.2655232,-0.06621014
0.8623841,-0.2416016,-0.06891193
0.8372495,-0.1621971,-0.05158063
0.7916025,-0.09719804,-0.08845468
0.8107385,-0.03849346,-0.07924333
0.8172311,-0.007154436,-0.09263691
0.8716803,0.04116892,-0.1124006
0.9482149,0.02797385,-0.1123565
0.9876073,-0.0207233,-0.1190689
1.047827,-0.03097705,-0.08544213
1.120251,-0.06958606,-0.08185472
1.22919,-0.06600378,-0.08899561
1.408409,-0.09528371,-0.1067922
1.629674,-0.2313034,-0.1882965
1.800708,-0.3321424,-0.2495884
1.812275,-0.3796963,-0.2388246
1.589685,-0.3535133,-0.1679482
1.229087,-0.3020142,-0.1108277
1.073255,-0.2941227,-0.08614873
1.097409,-0.2498657,-0.07203083
1.048608,-0.2033953,-0.06225864
1.045421,-0.1642692,-0.01519382
1.061836,-0.1418053,0.002810211
0.9786242,-0.2113771,-0.004787725
0.8982941,-0.2975977,0.01394335
0.8416048,-0.3641602,0.02682301
0.8211403,-0.3784928,0.04989639
0.8078995,-0.3245954,0.05313123
0.7753027,-0.2899408,0.04479006
0.7583376,-0.2190525,0.04684979
0.692831,-0.1447551,0.05958758
0.6466209,-0.1660962,0.1108088
0.6445106,-0.1850227,0.1326543
0.6017633,-0.1892014,0.1513617
0.6009873,-0.2129203,0.193407
0.6096071,-0.2125638,0.2096921
0.6013687,-0.2037608,0.2445417
0.6418683,-0.1985817,0.2790179
0.6862191,-0.1742118,0.3258746
0.7671576,-0.1374269,0.398795
0.8684289,-0.1130031,0.4293479
1.042213,-0.08610441,0.4994161
1.335589,-0.02049333,0.6199604
1.430166,0.02317637,0.6153612
1.453377,-0.08049689,0.540949
1.741442,-0.249502,0.5535252
1.760801,-0.2975928,0.5386105
1.191722,-0.3255852,0.4244389
0.6567003,-0.4556328,0.2712472
0.6569274,-0.5664124,0.1384495
0.9540314,-0.6041601,0.1060406
1.02555,-0.6175444,0.07755687
0.9277447,-0.568279,0.04243085
0.8924282,-0.4682105,0.05521927
0.8526704,-0.4463383,0.0206716
0.9412276,-0.4564672,-0.01581414
1.032967,-0.3665032,-0.09841301
0.9133308,-0.2336299,-0.2043628
0.801435,-0.1814634,-0.1710376
0.7701235,-0.2866348,-0.1331983
0.7860198,-0.392073,-0.1272046
0.7978053,-0.3378099,-0.1182726
0.7790006,-0.3058411,-0.1503067
0.7963644,-0.2942292,-0.1551521
0.7941952,-0.1483077,-0.1725658
0.8066769,0.01104424,-0.1893844
0.8619283,0.1169038,-0.1552758
0.9262044,0.1727688,-0.135242
0.9858011,0.148605,-0.1179728
1.010566,0.101483,-0.07164902
1.045344,0.03202956,0.02714852
0.9997555,-0.01356201,0.1347131
0.9294072,0.05696903,0.1674659
1.068758,0.156289,0.1727881
1.282933,0.2050109,0.2071669
1.440792,0.2009522,0.2140301
1.576843,0.1317924,0.1504983
1.606242,-0.01286085,0.1032196
1.525288,-0.2250021,0.08416515
1.386702,-0.3258286,0.03140991
1.262141,-0.2587486,-0.0002762852
1.262097,-0.2452839,-0.02437141
1.258166,-0.2524668,-0.08465413
1.138573,-0.2049263,-0.1219723
1.094862,-0.2557981,-0.1025963
1.179598,-0.3473206,-0.06271737
1.213796,-0.3741347,-0.04283733
1.082945,-0.3718371,0.01727319
0.9051325,-0.3402688,0.09381098
0.8922948,-0.2690641,0.05729998
0.8831953,-0.130106,0.004132838
0.7454231,-0.02603072,0.02497244
0.6865135,-0.03379421,0.02305621
0.647248,-0.03913211,0.02432581
0.5628322,-0.07162643,0.07809667
0.5827633,-0.1230571,0.1161126
0.6464261,-0.1387999,0.1485832
0.6783904,-0.2099574,0.2309238
0.7145258,-0.2552509,0.3043068
0.7364262,-0.2302864,0.2948031
0.7511875,-0.2308934,0.3080348
0.7770637,-0.1953577,0.3974517
0.7763562,-0.0974519,0.428828
0.8055638,-0.0236693,0.4528496
0.9051602,-0.003020231,0.5244736
1.004445,-0.01869619,0.5604273
1.123936,-0.06975146,0.5906754
1.279077,-0.1509157,0.5479359
1.503012,-0.2423513,0.4081647
1.677063,-0.2911931,0.3098481
1.493009,-0.2691352,0.2627244
1.08329,-0.2709378,0.1941913
0.7793164,-0.3067126,0.0911007
0.7712447,-0.3131543,0.06914789
0.9730565,-0.3176748,0.0755491
1.008472,-0.3032762,0.01749938
1.026477,-0.2802513,0.03800374
1.114919,-0.2587914,0.03747117
0.9752863,-0.1554657,-0.01540437
0.8226035,-0.009180066,-0.0005079887
0.7708956,0.04679747,-0.04048056
0.766365,0.002454111,-0.07088554
0.8442835,-0.06147829,-0.05383964
0.8611867,-0.1320783,-0.07063166
0.8808567,-0.1694306,-0.05902531
0.87522,-0.1293248,-0.06561328
0.8338028,-0.118166,-0.08320485
0.8765149,-0.1221766,-0.1007676
0.8723753,-0.08314656,-0.1588251
0.888891,-0.06641953,-0.1730157
0.9549909,-0.04156526,-0.1540617
1.019393,-0.03222738,-0.1481361
1.14928,-0.05159811,-0.1515482
1.214592,-0.03775737,-0.160515
1.277199,-0.04944629,-0.1569779
1.411283,-0.103716,-0.1796263
1.541008,-0.2619368,-0.2671884
1.722229,-0.4543891,-0.3762892
1.728985,-0.4051802,-0.3607877
1.423307,-0.2960729,-0.2079993
1.186511,-0.3274245,-0.1049035
1.182527,-0.2984931,-0.1047695
1.140584,-0.254135,-0.1171145
0.9784377,-0.1959719,-0.04830249
0.9493322,-0.06559527,0.02769631
1.047235,-0.1149118,-0.00286735
1.016709,-0.2096636,-0.009047361
0.9132692,-0.2111315,0.01840351
0.8224199,-0.3392193,0.002348259
0.7602088,-0.4287579,0.02095029
0.7828435,-0.4115334,0.03639904
0.7539197,-0.3698114,0.03300646
0.712859,-0.2276315,0.0521645
0.7079229,-0.1833057,0.05788137
0.6654048,-0.2151493,0.07625647
0.6965271,-0.1524311,0.1133414
0.7034323,-0.1188514,0.1524208
0.6808861,-0.1309337,0.2006914
0.7210378,-0.1780767,0.2391946
0.7090704,-0.23778,0.292401
0.7339975,-0.2360563,0.3778384
0.801408,-0.212861,0.4567855
0.8895235,-0.1929278,0.5233729
1.030558,-0.1827605,0.6021599
1.116997,-0.1873761,0.6087453
1.249279,-0.2675732,0.4316066
1.386622,-0.4167736,0.2330545
1.339858,-0.485777,0.2259011
1.193205,-0.4864188,0.2419174
1.06134,-0.4082898,0.08696494
1.017486,-0.2506507,-0.04857287
1.045605,-0.2267274,-0.02520081
1.040705,-0.2743064,0.0007304274
1.011418,-0.2394563,-0.02441369
1.00953,-0.2399174,-0.02317509
1.01475,-0.2435324,-0.02584482
0.9988912,-0.167042,-0.05532638
0.9172653,-0.09002054,-0.06043542
0.7910081,-0.06197886,-0.0756507
0.7770783,-0.1065196,-0.1073923
0.8250989,-0.1909093,-0.07820224
0.8195753,-0.285656,-0.0498951
0.8375978,-0.3250163,-0.06358041
0.8132936,-0.2182816,-0.06560834
0.7298363,-0.1030081,-0.0809068
0.7333965,-0.04413523,-0.1150838
0.8205695,0.01504214,-0.1599292
0.9351396,0.03927794,-0.1851858
1.002833,0.05368221,-0.1514022
1.02249,0.03350142,-0.1067068
1.111824,0.007742946,-0.06312126
1.214872,0.0398462,-0.04757083
1.266873,0.02620459,-0.08780161
1.390102,-0.07128043,-0.1181952
1.602992,-0.2453559,-0.1636378
1.748776,-0.3850149,-0.2250019
1.709071,-0.3702743,-0.2005229
1.495546,-0.3361179,-0.1315908
1.226308,-0.3068227,-0.1011873
1.096622,-0.2408836,-0.108168
1.100135,-0.2218857,-0.1331752
1.046779,-0.2032803,-0.1305888
1.027883,-0.160869,-0.1025359
1.06831,-0.1708562,-0.07506049
1.029473,-0.2075676,-0.05602168
1.021612,-0.2451945,-0.06479436
0.9694045,-0.3226195,-0.04821161
0.8414154,-0.4236223,-0.002043494
0.8240434,-0.4537269,0.003388962
0.7459872,-0.3652059,-0.005532275
0.6001911,-0.2685768,-0.003845971
0.5931037,-0.2312419,0.01595793
0.6319299,-0.2118819,0.06899781
0.6667853,-0.2213386,0.1224266
0.7187947,-0.2029353,0.1554932
0.7533815,-0.1474127,0.1662352
0.7757623,-0.1553972,0.1848789
0.7857225,-0.2233424,0.2366458
0.7784386,-0.3132833,0.3016997
0.7786364,-0.3286157,0.3613075
0.8276986,-0.2478573,0.4007148
0.9116046,-0.1780636,0.4373257
0.9805,-0.1044566,0.4783144
1.005552,-0.05237323,0.511977
1.036999,-0.06246093,0.5189596
1.179603,-0.1212208,0.4233204
1.400471,-0.2936383,0.2535639
1.478215,-0.4834523,0.1740198
1.249579,-0.5166624,0.1971658
0.9929051,-0.4814889,0.1641833
0.9939549,-0.4772804,0.08159346
1.005671,-0.409166,0.06337847
0.954016,-0.3246479,0.04354907
0.9968706,-0.304347,0.01174048
1.013164,-0.2506836,0.02029338
1.004348,-0.2229984,-0.01186676
1.021381,-0.225048,-0.04486683
0.9593327,-0.165491,-0.03128828
0.8545284,-0.1544707,-0.04466101
0.7925929,-0.1639993,-0.05874206
0.8093207,-0.1657072,-0.06141582
0.84381,-0.2080595,-0.07226932
0.8222425,-0.1847646,-0.07783262
0.8158406,-0.148984,-0.09524704
0.8091973,-0.1524801,-0.1108536
0.7999895,-0.1309743,-0.1119977
0.8492133,-0.1252507,-0.1070417
0.883891,-0.09277967,-0.1055991
0.9092727,-0.022652,-0.1138274
0.9478545,-0.0118067,-0.1097314
0.9849092,-0.04353643,-0.09254759
1.03591,-0.05993912,-0.07719724
1.045269,-0.04994634,-0.09032523
1.090818,-0.05727729,-0.1186013
1.260166,-0.1266257,-0.11991
1.496892,-0.226982,-0.1466718
1.725987,-0.2816197,-0.2106806
1.778391,-0.2720762,-0.2360159
1.621635,-0.2921227,-0.1992957
1.39221,-0.3205714,-0.1463733
1.160871,-0.07396633,-0.03922505
1.27179,-0.1212627,-0.07399039
1.61085,-0.2167198,-0.1925319
1.86428,-0.3235852,-0.3081029
1.730223,-0.3499514,-0.2864839
1.597018,-0.4129833,-0.209411
1.458102,-0.4412995,-0.2140725
1.158226,-0.3460253,-0.1357615
1.078368,-0.3156255,-0.05960478
1.121449,-0.2778035,-0.1133572
1.023426,-0.1897041,-0.08426835
1.034541,-0.1637126,-0.02181264
1.034512,-0.1435513,-0.003439956
0.8997037,-0.2043262,0.0157273
0.8446239,-0.3020476,-0.002953931
0.8169611,-0.3284274,0.01762654
0.8495264,-0.3647422,0.04660043
0.8727902,-0.3313099,0.05371227
0.7772824,-0.2375402,0.07954436
0.7413161,-0.1745978,0.06529895
0.7109295,-0.1346098,0.07194361
0.6641449,-0.1531428,0.1023193
0.6207087,-0.1714593,0.1190514
0.5667524,-0.1857558,0.1591355
0.5907694,-0.2054226,0.1869709
0.5865159,-0.1669175,0.246987
0.6084345,-0.126378,0.3343157
0.6975329,-0.1083733,0.3849157
0.765988,-0.1240375,0.436668
0.9093153,-0.1577887,0.4832526
1.085679,-0.157284,0.5003969
1.337706,-0.2395688,0.4703979
1.694344,-0.4361719,0.4190896
1.834315,-0.5473209,0.393435
1.521478,-0.4394658,0.3562217
1.009463,-0.2807041,0.2585205
0.7828434,-0.2788573,0.08077686
0.8187651,-0.3129534,-0.0255048
0.9225942,-0.3335488,0.01152276
1.043258,-0.4024079,-0.01423732
1.001697,-0.3895692,-0.04749107
0.9198348,-0.311948,-0.0008631815
0.8979668,-0.2305898,-0.02317092
0.8044504,-0.1321675,-0.0356445
0.7608793,-0.1039085,-0.02382759
0.8205107,-0.1452289,-0.0676855
0.8659875,-0.2108184,-0.05700557
0.8502526,-0.2375006,-0.04019739
0.7775494,-0.1844488,-0.05266001
0.6811584,-0.1371239,-0.03563421
0.6490402,-0.1151907,-0.04896606
0.7317563,-0.07435148,-0.06882877
0.8077516,-0.0007761054,-0.08535043
0.8394531,0.03260336,-0.1010807
0.9098435,0.01343202,-0.07678748
1.042768,0.04266196,-0.05537507
1.150594,0.04686164,-0.0300938
1.115467,0.005665976,-0.02776524
1.126831,-0.01245601,-0.05642906
1.242605,-0.0602309,-0.04581668
1.297781,-0.09780965,-0.06505547
1.510809,-0.1411941,-0.1514629
1.815056,-0.2406306,-0.2367142
1.831398,-0.3445453,-0.2461925
1.636158,-0.4482333,-0.1974048
1.355569,-0.448443,-0.1945095
1.093488,-0.3703433,-0.152926
1.010087,-0.3423378,-0.07925828
1.009263,-0.2503541,-0.08809227
0.9943681,-0.1358063,-0.05087719
0.9910948,-0.1071504,-0.001525928
0.9855186,-0.108496,-0.02777865
0.9181312,-0.1594785,-0.001702263
0.8236449,-0.2388148,0.03926604
0.8147608,-0.3171964,0.02907813
0.8206851,-0.352819,0.03372744
0.7793445,-0.2950643,0.05835881
0.7475275,-0.2211009,0.07724922
0.6972123,-0.1423684,0.09431556
0.6600176,-0.09323882,0.1072352
0.6699628,-0.1208454,0.1190587
0.6644841,-0.1581073,0.1534369
0.6614324,-0.2093589,0.1870933
0.6816905,-0.2414464,0.2250273
0.7045567,-0.2026148,0.3001827
0.7376168,-0.1561595,0.3747282
0.7574716,-0.1322765,0.4421579
0.7844072,-0.1350349,0.4868124
0.9105336,-0.1553229,0.509624
1.138393,-0.1694425,0.5397416
1.394032,-0.2326839,0.5056654
1.63513,-0.3590075,0.4215311
1.724264,-0.4329066,0.3516774
1.422866,-0.3746897,0.2699188
0.8996742,-0.2613754,0.1254769
0.6722717,-0.2270265,-0.0557433
0.76507,-0.268047,-0.05592354
0.8821439,-0.3081086,0.03299229
1.00052,-0.3304981,-0.03073056
1.068309,-0.332973,-0.008800576
1.001095,-0.3047989,0.06093776
0.8909254,-0.2085089,0.004196584
0.7747249,-0.09987778,0.01372506
0.7251116,-0.07903321,-0.01189109
0.7985991,-0.1048572,-0.07403473
0.8234152,-0.1518846,-0.04118604
0.7999019,-0.2022453,-0.05258495
0.8070011,-0.1898966,-0.05409098
0.7433063,-0.1343592,-0.04147242
0.707277,-0.09358358,-0.06651279
0.7669661,-0.06349593,-0.06873519
0.8264742,-0.004114301,-0.08952211
0.9101618,0.05025551,-0.08571005
1.013014,0.05146359,-0.06917925
1.123359,0.0318428,-0.07291982
1.199352,0.02996424,-0.05796733
1.215118,0.03976275,-0.07754534
1.251147,0.03415525,-0.09702811
1.348708,0.006894702,-0.0962908
1.563124,-0.05535963,-0.1314564
1.763368,-0.1711107,-0.1668547
1.755409,-0.2993193,-0.1566399
1.560642,-0.323417,-0.1385411
1.30566,-0.2819419,-0.1552226
1.179105,-0.3631112,-0.1544198
1.065947,-0.4482805,-0.1509088
0.9680733,-0.4085904,-0.1627769
1.051308,-0.3648057,-0.1067185
0.8712002,-0.3483721,0.03004401
0.8852736,-0.3171764,0.0461389
0.9332502,-0.286098,0.03358985
0.945342,-0.2700453,0.01081512
0.9637967,-0.2218802,0.01138031
0.8856243,-0.147634,0.01268801
0.7810402,-0.08052979,0.002311179
0.8297365,-0.1088073,-0.02067631
0.8772258,-0.1620835,-0.05149012
0.8693898,-0.1804514,-0.03469012
0.8897518,-0.2120356,-0.01268743
0.8507432,-0.185306,-0.0302047
0.7632158,-0.1398742,-0.02968814
0.7099374,-0.09928826,-0.02554402
0.7460441,-0.04926181,-0.03737824
0.8605933,-0.0336543,-0.05303667
0.9287263,0.02464228,-0.08613301
0.9719967,0.04012777,-0.08983008
1.041181,-0.0109936,-0.04052621
1.068517,0.01184384,-0.007054041
1.070869,0.03575744,-0.02417956
1.11259,0.03567254,-0.06720498
1.238254,-0.05120946,-0.1208114
1.476494,-0.2691419,-0.1901682
1.770242,-0.4110672,-0.2368461
1.878533,-0.4469878,-0.2108416
1.649889,-0.4324601,-0.170155
1.339784,-0.3769401,-0.1581725
1.16158,-0.343797,-0.1252669
1.091647,-0.3015837,-0.09900205
1.062058,-0.2552819,-0.09836188
1.002521,-0.2178925,-0.044582
0.9883226,-0.1887952,0.03476774
0.9847242,-0.2079124,0.05217056
0.9082517,-0.2365537,0.03669358
0.8542955,-0.2862398,0.04421459
0.7967995,-0.3214794,0.06091707
0.7635505,-0.2721494,0.06155107
0.788412,-0.2250643,0.06399502
0.773843,-0.1990283,0.06740091
0.7578863,-0.1800488,0.0600346
0.6921159,-0.164872,0.06837782
0.5855472,-0.1194913,0.07770233
0.5945891,-0.1274266,0.08518879
0.6249576,-0.1951444,0.140645
0.6079424,-0.2455368,0.2131074
0.6263713,-0.2702222,0.2370321
0.6732831,-0.2477755,0.2633821
0.741767,-0.2174593,0.3452053
0.8069238,-0.2078397,0.3723201
0.8449792,-0.2005032,0.3458628
0.9698657,-0.2139196,0.4110262
1.126201,-0.2151909,0.4723169
1.176592,-0.2427576,0.4455029
1.372003,-0.3530111,0.4393837
1.709391,-0.4649894,0.4386982
1.755602,-0.5013148,0.3973668
1.441471,-0.4219841,0.3273187
0.9945913,-0.3475751,0.1962544
0.7523915,-0.3880843,0.05183795
0.8039832,-0.3959757,-0.003917018
0.9005581,-0.3635782,-0.01987725
1.012651,-0.3707918,-0.05032859
1.030669,-0.3549947,-0.03336021
0.962273,-0.3265967,-0.01319704
0.9850058,-0.2453044,-0.03061199
0.8781219,-0.07571765,-0.02542693
0.7314388,0.01492016,-0.02705984
0.7626728,-0.01895398,-0.05529935
0.8148514,-0.0764777,-0.07364011
0.8764202,-0.1596296,-0.06958583
0.8948974,-0.2144325,-0.05375921
0.8329301,-0.1796868,-0.05532375
0.7858956,-0.1479691,-0.06029145
0.7715078,-0.1056151,-0.06667413
0.8046453,-0.03234951,-0.08171174
0.8443706,-0.02516097,-0.08042879
0.9264365,-0.005181424,-0.09120719
1.019037,0.03906255,-0.1045899
1.000429,-0.002727819,-0.05780761
0.9961794,-0.02118137,0.01254943
1.054136,0.01054261,0.03152999
1.06556,0.0035392,0.01234872
1.065104,-0.01162125,0.006603423
1.138175,-0.05433675,-0.002253097
1.299584,-0.09985356,-0.03214256
1.485321,-0.08987924,-0.05550079
1.611041,-0.1160681,-0.08664764
1.64672,-0.2201569,-0.1111373
1.584979,-0.3129759,-0.1021495
1.427694,-0.3356716,-0.1216174
1.248449,-0.3311309,-0.1592482
1.122414,-0.3340931,-0.1509241
1.01671,-0.3069363,-0.1344173
0.9181352,-0.2691435,-0.1124461
0.9305904,-0.2693617,-0.06301575
1.033959,-0.3079831,-0.0413536
1.073122,-0.3688067,-0.03640413
1.030221,-0.4067342,-0.02492571
0.9435025,-0.4027767,-0.03549688
0.8909435,-0.3716737,-0.02606456
0.9180449,-0.3092841,-0.007913078
0.9078227,-0.22475,-0.02070897
0.8653107,-0.1550885,-0.01439122
0.8098293,-0.1470583,0.000189193
0.6923087,-0.1602484,0.02448266
0.6215769,-0.132906,0.08769133
0.6403915,-0.1286138,0.1435538
0.6529506,-0.1532829,0.1957288
0.6471214,-0.1774582,0.2533337
0.6675958,-0.2138432,0.2951616
0.6792563,-0.1861384,0.3155052
0.6923575,-0.1281838,0.3094791
0.7684769,-0.1083686,0.3258143
0.8428047,-0.0719831,0.3522491
0.8778564,-0.04986183,0.3491619
0.9082403,-0.03063201,0.3853669
0.9877552,0.01130969,0.4453783
1.120507,-0.01573138,0.4573549
1.261933,-0.1265498,0.4659787
1.499495,-0.251592,0.4940269
1.657222,-0.2909968,0.4794745
1.431535,-0.2953183,0.411223
1.056726,-0.4106507,0.3430192
0.8224141,-0.5294101,0.2735705
0.7808547,-0.5640275,0.1617735
0.9157841,-0.5722316,0.03612066
1.01042,-0.5025459,-0.04635655
1.022133,-0.3877056,-0.08345069
1.076715,-0.3565797,-0.08485738
1.095869,-0.3400886,-0.0687661
1.008652,-0.2263889,-0.06545165
0.827474,-0.1123324,-0.04732667
0.720837,-0.05958798,-0.03964438
0.7984432,-0.04664224,-0.07110361
0.8376627,-0.09258965,-0.07122331
0.8350684,-0.139156,-0.06365937
0.8990445,-0.2067381,-0.05869415
0.8890627,-0.2488459,-0.035328
0.8312353,-0.169365,-0.04278518
0.8146158,-0.1180976,-0.04113049
0.7985407,-0.07536385,-0.03766646
0.8154861,-0.002644996,-0.06542163
0.8920241,0.04316334,-0.07592561
0.9955876,0.1085316,-0.07382709
1.061674,0.06846823,-0.06224349
1.047545,-0.001928205,-0.04357809
1.05365,0.006596362,-0.02466659
1.082502,0.0149977,-0.02520206
1.079577,0.06471772,-0.06313971
1.205874,-0.02934745,-0.1177661
1.458907,-0.224639,-0.2315903
1.687715,-0.2995523,-0.3071349
1.800138,-0.3887774,-0.208608
1.661687,-0.404593,-0.1210311
1.398543,-0.3173856,-0.1426905
1.195829,-0.2846122,-0.1107635
1.063963,-0.2759385,-0.05139002
1.021257,-0.283357,-0.06655215
0.9863106,-0.2633847,-0.06073175
0.9813627,-0.2562101,-0.01798954
1.003451,-0.2775652,0.004092533
0.9187933,-0.256603,0.03786233
0.8428658,-0.2816253,0.05999215
0.8296501,-0.3038833,0.07291745
0.8197992,-0.2748839,0.07162127
0.7896741,-0.2446587,0.0425974
0.703772,-0.1923676,0.05717704
0.6935902,-0.1933779,0.08186532
0.7135059,-0.2282775,0.1181525
0.6715455,-0.2180424,0.1702827
0.6878389,-0.186412,0.1655941
0.7038304,-0.1438652,0.1747572
0.7007827,-0.1500203,0.1983536
0.7050215,-0.1984729,0.218562
0.6791107,-0.2300167,0.2908124
0.7130717,-0.2498653,0.353409
0.8013471,-0.214096,0.4018165
0.9117993,-0.1372685,0.4398828
0.9945598,-0.08638391,0.4329896
0.9977584,-0.0718232,0.4447194
1.071394,-0.1148715,0.4760168
1.243986,-0.204242,0.4707095
1.454321,-0.3291256,0.4258876
1.601706,-0.4115295,0.360002
1.459629,-0.3361142,0.3154142
1.139634,-0.2771167,0.2640577
0.8735108,-0.3515924,0.1412442
0.7501601,-0.3892132,0.04844895
0.8544412,-0.3978801,0.05797348
0.9477678,-0.4218154,0.0605445
0.9510403,-0.3907243,0.03199211
1.049154,-0.3639305,0.0133332
1.030594,-0.346011,-0.004645567
0.8742469,-0.2435704,-0.006569318
0.7702899,-0.1188616,0.004533904
0.7385688,-0.09802807,0.004427571
0.8212511,-0.1326982,-0.0225519
0.8633245,-0.1637257,-0.05470512
0.8832643,-0.2486638,-0.04768972
0.9335078,-0.2848726,-0.04273777
0.8645652,-0.2187531,-0.06490658
0.8291135,-0.1847224,-0.07347182
0.8094545,-0.1352684,-0.08686312
0.7758643,-0.06540881,-0.1075886
0.853545,-0.05247989,-0.1074079
0.9275805,-0.03679474,-0.1099054
1.032828,-0.03263136,-0.1090795
1.090644,-0.03070375,-0.07083623
1.045827,-0.01512668,-0.007693112
1.089103,-0.0328156,0.02899992
1.155365,-0.04270705,0.006770277
1.274362,-0.05742822,-0.02416733
1.4841,-0.09356341,-0.06637993
1.633592,-0.1600313,-0.1885492
1.667132,-0.2969823,-0.2820476
1.540743,-0.4096036,-0.2454992
1.349089,-0.4339618,-0.1905168
1.205147,-0.405751,-0.1692267
1.123121,-0.3685487,-0.1590755
1.083301,-0.3369638,-0.1676176
0.9927642,-0.2418651,-0.1387874
0.9449515,-0.1200382,-0.07545848
0.979325,-0.08552645,-0.04440381
0.9501587,-0.1332817,-0.02786789
0.8925087,-0.2101715,-0.007309939
0.8464584,-0.2765575,0.009609053
0.8013044,-0.3111329,0.0230401
0.7754529,-0.3030301,0.03433808
0.7437585,-0.2715686,0.04406043
0.7372667,-0.2392904,0.04602242
0.7561416,-0.1977631,0.06941359
0.7669796,-0.1618008,0.1028924
0.7747848,-0.1512217,0.1107845
0.7651066,-0.1755528,0.1334079
0.7591913,-0.193911,0.1731745
0.7535178,-0.1955379,0.1881472
0.7351026,-0.2298395,0.1977581
0.7297572,-0.2590571,0.2492564
0.7311474,-0.2663901,0.2976885
0.7664337,-0.2322898,0.3015866
0.8326992,-0.1456248,0.3346276
0.8701054,-0.1007633,0.365331
0.8857654,-0.09181931,0.3668346
0.9502905,-0.08369005,0.4077528
1.0913,-0.1246871,0.408788
1.223812,-0.2551907,0.3713181
1.34045,-0.3705259,0.3802912
1.526341,-0.3483427,0.3792173
1.684348,-0.3413889,0.3793871
1.550969,-0.3717136,0.3788233
1.169576,-0.3316527,0.3021997
0.9499841,-0.3388145,0.1887863
0.9217535,-0.3595459,0.08549351
0.9139602,-0.3393244,0.01948385
0.970795,-0.3577364,0.02201288
0.9961031,-0.3437229,0.03679387
0.9895782,-0.3000439,0.01443708
0.9745257,-0.2760062,-0.0001951829
0.8942207,-0.21198,-0.002810083
0.8308898,-0.132581,-0.02548088
0.7863882,-0.1034952,-0.03203899
0.8241249,-0.149035,-0.04690459
0.8906938,-0.2235522,-0.07298889
0.883036,-0.2709053,-0.0562091
0.8983781,-0.289487,-0.05209494
0.852442,-0.2378622,-0.05172059
0.7829292,-0.1551559,-0.04971536
0.7761668,-0.1028602,-0.09297447
0.7609292,-0.05884166,-0.1155202
0.8218937,-0.04632744,-0.1124878
0.9323539,-0.0296427,-0.115013
1.007808,-0.007223535,-0.1151281
1.054225,-0.02721123,-0.08830361
1.086413,-0.02642289,-0.02496057
1.161583,-0.02121734,-0.01068512
1.277117,-0.05003508,-0.03202216
1.435436,-0.1080783,-0.05546996
1.593127,-0.2235018,-0.1540079
1.641712,-0.3399826,-0.275709
1.570962,-0.4184272,-0.2910931
1.42869,-0.4528928,-0.2118289
1.269993,-0.401232,-0.1666242
1.156737,-0.3347368,-0.1595107
1.104074,-0.3288018,-0.123583
1.067607,-0.310771,-0.1002916
1.062729,-0.2454509,-0.08962066
1.060932,-0.1865057,-0.06037947
1.002886,-0.1632204,-0.03099018
0.9442683,-0.2082807,-0.01941467
0.8435206,-0.2887554,-0.002235248
0.7695737,-0.3132173,0.04102123
0.8006541,-0.2904659,0.05354279
0.7444059,-0.2446625,0.05899578
0.6761536,-0.180114,0.08964272
0.7079539,-0.1419915,0.1011307
0.7167831,-0.1452806,0.1367788
0.7263544,-0.1571087,0.1692614
0.7317688,-0.1651792,0.1611759
0.6981981,-0.1944708,0.1879796
0.6690568,-0.2218781,0.2331112
0.6646543,-0.2350872,0.2724465
0.6971314,-0.248921,0.3149115
0.7362313,-0.2118723,0.3434939
0.7724468,-0.1451793,0.3675108
0.8118783,-0.1098253,0.3827559
0.8812757,-0.0993392,0.4031558
1.009937,-0.1122985,0.4316977
1.181437,-0.1793217,0.4389391
1.504061,-0.3600601,0.4351651
1.80018,-0.4996857,0.4336243
1.560932,-0.3953484,0.4240266
1.106162,-0.2965222,0.3617062
1.015503,-0.3709168,0.2455472
0.9374393,-0.3861312,0.1488646
0.8051724,-0.36801,0.1006053
0.891327,-0.4036325,0.1017066
0.9301642,-0.3552259,0.09766404
0.9393702,-0.27447,0.05008598
0.9682145,-0.2100157,0.05141859
0.9057422,-0.1449932,0.06394457
0.9025483,-0.1196895,0.01521358
0.8660051,-0.07783912,0.0009729717
0.8221123,-0.09565273,-0.007811536
0.8713907,-0.1850838,-0.04917643
0.8745035,-0.2419329,-0.0482084
0.8910664,-0.2946992,-0.03717912
0.8975805,-0.2581118,-0.03271574
0.84893,-0.1641004,-0.02433592
0.8069565,-0.0956716,-0.03638438
0.7763837,-0.00828367,-0.04953238
0.8174426,0.03543994,-0.05564519
0.8629904,0.07879101,-0.05640179
0.9068355,0.08747931,-0.05403651
0.9989092,0.05036345,-0.05051734
1.007592,0.07714492,-0.04572413
0.978173,0.01991265,-0.03464336
1.007136,-0.04354344,-0.0113643
1.006558,-0.001988789,-0.01292579
0.992235,-0.01409808,-0.02842853
1.018523,-0.03236812,-0.04247049
1.045686,-0.0464098,-0.08063844
1.185486,-0.09293138,-0.1165301
1.529921,-0.1234326,-0.1585736
1.764772,-0.1374566,-0.1779969
1.65928,-0.1659791,-0.1211394
1.555222,-0.2580409,-0.09310589
1.59209,-0.2832742,-0.1331835
1.448018,-0.2366958,-0.1473443
1.244124,-0.2422845,-0.1169752
1.147209,-0.191984,-0.07329878
0.9657694,-0.141876,-0.04490639
0.8425262,-0.1651132,-0.03677721
0.8497957,-0.1657142,-0.04773331
0.8562754,-0.1946158,-0.06165457
0.9004458,-0.2512039,-0.03289731
0.9178222,-0.2832008,0.006845566
0.9082572,-0.3166671,0.02633441
0.9064342,-0.3333023,0.03105721
0.8654543,-0.3036928,-0.006803577
0.8055093,-0.2530508,-0.04408021
0.7613663,-0.2421752,-0.03134014
0.794101,-0.2766322,-0.0005210197
0.8135505,-0.3158104,0.02813116
0.757901,-0.3259109,0.05640804
0.7454088,-0.3073104,0.07359411
0.7701623,-0.2875007,0.07756014
0.7966473,-0.2470364,0.09002878
0.8058703,-0.2111396,0.105552
0.8070331,-0.2125788,0.1157712
0.8420042,-0.2166217,0.135556
0.8607816,-0.2324432,0.1450183
0.8579024,-0.2413461,0.1438938
0.8414445,-0.2148724,0.1496991
0.8021653,-0.1824034,0.1337706
0.7531336,-0.1551328,0.09267553
0.7220866,-0.1519052,0.0760065
0.8950753,-0.1906468,0.1083788
1.372841,-0.2522537,0.1301861
1.721021,-0.2784619,0.07240567
1.419197,-0.2669093,-0.01188026
0.9173817,-0.303469,-0.03380516
0.8554824,-0.3469438,-0.008240793
0.8925277,-0.3055535,0.02372619
1.015409,-0.2904688,-0.1379511
1.161664,-0.2046975,-0.106989
1.108719,-0.1070766,-0.0996271
1.108601,-0.1188388,-0.02807566
1.054672,-0.1942993,-0.03360469
0.8329127,-0.2873101,-0.05435355
0.8110758,-0.3960959,0.02901264
0.8385383,-0.4065498,0.05796475
0.789949,-0.3339829,0.0577657
0.7895608,-0.270582,0.0710326
0.7131309,-0.1903186,0.0466584
0.6226765,-0.1152965,0.04744569
0.5923091,-0.1113846,0.05359433
0.5611693,-0.1734048,0.07446415
0.5280388,-0.2235332,0.1210445
0.5262172,-0.2169907,0.1471894
0.5784932,-0.1841625,0.1985554
0.6018093,-0.1292249,0.2398489
0.6420932,-0.08744671,0.2538129
0.7772069,-0.09263506,0.3142697
0.9640494,-0.1384214,0.3932307
1.207595,-0.2033575,0.4152777
1.500171,-0.2520492,0.3500308
1.809986,-0.3814881,0.2805353
1.893326,-0.5175619,0.2779126
1.522387,-0.4507612,0.2621666
0.9849628,-0.3854803,0.1928823
0.7066239,-0.4292341,0.1006977
0.7573721,-0.40552,0.003758022
0.9343438,-0.3872858,-0.02961273
1.10028,-0.3666535,-0.01811093
1.145005,-0.2794227,-0.04504157
1.025821,-0.241405,-0.03781841
0.9051884,-0.1808114,-0.01050849
0.7895646,-0.08148964,-0.04432386
0.7248062,-0.066542,-0.06344134
0.7847111,-0.1038053,-0.07762969
0.7852401,-0.1794908,-0.08975182
0.7669169,-0.2428775,-0.06386353
0.750896,-0.2202826,-0.06810045
0.6574115,-0.1648498,-0.07908448
0.6640212,-0.1178345,-0.1001595
0.7312052,-0.07577102,-0.1460178
0.7913514,0.0110861,-0.1533967
0.9312991,0.109012,-0.1613785
1.065726,0.07161751,-0.1557449
1.200182,-0.01655924,-0.1016904
1.308924,0.004224873,-0.06868735
1.310507,-0.007237295,-0.08008927
1.391676,-0.1356031,-0.1321605
1.591349,-0.2684406,-0.2198586
1.708713,-0.3724686,-0.315124
1.733257,-0.4127405,-0.3509088
1.613047,-0.4070047,-0.292104
1.288045,-0.3953275,-0.2321436
1.077773,-0.3744802,-0.2126596
1.079367,-0.3524018,-0.1728989
1.072799,-0.2399228,-0.1245969
1.087256,-0.1120663,-0.1182317
1.083491,-0.1034987,-0.115455
0.9492963,-0.1667449,-0.07165191
0.7667083,-0.2724683,-0.03053935
0.6907654,-0.3472907,-0.0008833627
0.7370027,-0.3647149,0.02359027
0.7073081,-0.3295128,0.01552895
0.6181965,-0.2176702,0.01215944
0.5639297,-0.1201271,0.01725247
0.5298879,-0.1183681,0.01265627
0.5637232,-0.1672787,0.03289544
0.5556903,-0.1589722,0.06743555
0.5417078,-0.174496,0.09880631
0.6267458,-0.2423791,0.1419004
0.7056486,-0.245167,0.2326107
0.7751921,-0.2459537,0.3161966
0.7966092,-0.1954563,0.3004859
0.8475539,-0.1222233,0.3254402
0.9927216,-0.1338368,0.4135463
1.0988,-0.1014389,0.390406
1.302465,-0.08254958,0.3428043
1.562902,-0.1506775,0.3368264
1.739253,-0.2506741,0.3252091
1.833593,-0.3443224,0.3361431
1.491675,-0.4072813,0.2959513
0.9307771,-0.4784737,0.201899
0.8367646,-0.4447559,0.1071278
0.9817926,-0.3767611,0.02224869
1.019646,-0.4141068,0.01793652
1.072429,-0.3635075,0.02039756
1.030923,-0.2586808,-0.007082256
0.8934006,-0.2119159,0.004985281
0.8701939,-0.1541785,-0.01584543
0.8367514,-0.09525229,-0.05920469
0.7562053,-0.03162396,-0.06666311
0.7745131,-0.0260567,-0.0749667
0.7848499,-0.1236265,-0.08680258
0.7833501,-0.2423128,-0.09154099
0.8008966,-0.3084275,-0.08504122
0.7343576,-0.2698602,-0.08235187
0.6938833,-0.2058666,-0.08803802
0.7460357,-0.1473711,-0.1003584
0.7989804,-0.03807867,-0.135083
0.8357816,0.05002436,-0.1593245
0.925734,0.114034,-0.1711825
1.062688,0.1375141,-0.176443
1.112227,0.08485055,-0.1579291
1.157931,0.05270894,-0.1440984
1.259151,0.01438434,-0.1263448
1.287758,-0.0820651,-0.1302453
1.362246,-0.2212758,-0.2011836
1.525318,-0.3287967,-0.2821054
1.623737,-0.2960102,-0.3335926
1.627211,-0.2913991,-0.3395239
1.455192,-0.394213,-0.3111543
1.188421,-0.4384767,-0.2766399
1.15771,-0.4363882,-0.2082624
1.223724,-0.4009116,-0.1610413
1.115524,-0.3491842,-0.1665121
1.08468,-0.3278582,-0.1469536
1.12568,-0.2734231,-0.116519
1.041915,-0.2596081,-0.09881253
0.9295819,-0.3417079,-0.08188468
0.7816704,-0.4248869,-0.0638071
0.7158461,-0.445841,-0.01842285
0.7255066,-0.3607181,0.006461288
0.6075674,-0.2352568,-0.002493242
0.5447599,-0.1506894,0.01815517
0.5466152,-0.1018912,0.04474609
0.5088884,-0.1004996,0.07200786
0.5611722,-0.1257717,0.1045026
0.6387,-0.1619406,0.1052968
0.6707951,-0.2143896,0.1493351
0.6680523,-0.2545544,0.2743661
0.6740631,-0.2417398,0.3481372
0.7729746,-0.1977648,0.3283251
0.8783535,-0.1956088,0.330018
0.993325,-0.1956756,0.3624167
1.266797,-0.2101853,0.3398501
1.638794,-0.3273678,0.2955613
1.783846,-0.4217287,0.2738921
1.499442,-0.3609385,0.2670238
1.076727,-0.2440701,0.2705157
0.8989129,-0.2286891,0.2171373
0.9763696,-0.3091993,0.08959606
1.039612,-0.3854659,-0.02516171
0.9845636,-0.4039586,-0.01669066
1.011268,-0.3530082,0.06497404
1.051807,-0.2896441,0.05524187
1.000233,-0.2206264,0.04900356
0.997989,-0.1593971,0.03741755
0.9480621,-0.1101063,-0.08126869
0.8825934,-0.04527852,-0.1218828
0.9110586,-0.1158435,-0.1357495
0.9060932,-0.2389072,-0.1743961
0.9024945,-0.2704245,-0.1326885
0.8539353,-0.3055448,-0.1227881
0.753005,-0.2531919,-0.1233626
0.7373802,-0.1644478,-0.1220464
0.7029724,-0.1128348,-0.1625019
0.6668711,-0.03119456,-0.1760252
0.7127216,-0.03233879,-0.1774725
0.7574868,-0.07762746,-0.1634881
0.8094201,-0.1092254,-0.1505454
0.9219262,-0.089325,-0.1289808
1.055933,-0.02020366,-0.09866334
1.098935,-0.06690353,-0.1126823
1.11198,-0.1381236,-0.1151025
1.270259,-0.1883108,-0.1568398
1.494956,-0.223981,-0.2530309
1.589008,-0.2016759,-0.3244762
1.506697,-0.2695128,-0.3734837
1.37296,-0.3765834,-0.3310167
1.269262,-0.4833046,-0.262489
1.181328,-0.5341717,-0.256151
1.167431,-0.4278914,-0.2263365
1.140777,-0.383954,-0.2153526
1.051717,-0.3708568,-0.2176526
1.08601,-0.3560353,-0.1528363
1.158579,-0.4509334,-0.1149734
1.136368,-0.5015883,-0.1154454
1.025295,-0.5236193,-0.09235954
0.8377548,-0.454681,-0.09376008
0.8137175,-0.2528964,-0.1296738
0.8785495,-0.1086677,-0.1675909
0.8193187,-0.005609922,-0.1513275
0.8138505,0.002160671,-0.05855288
0.81053,-0.03691261,0.05755975
0.7675864,-0.03155076,0.1586108
0.7661201,-0.08401954,0.1793264
0.6943785,-0.07316247,0.1836943
0.6626172,-0.03145785,0.2451135
0.676617,-0.03861216,0.2716973
0.6314241,0.008878911,0.2988433
0.6244923,0.01391444,0.3131101
0.6160743,0.01560215,0.302571
0.686646,0.05636221,0.3681635
0.8907335,0.005254317,0.4250936
1.021909,-0.04721713,0.4864887
1.068809,-0.03651911,0.5539935
1.119332,-0.04163623,0.5297512
1.308137,-0.1144532,0.5224586
1.664774,-0.3059114,0.5127595
1.782384,-0.5064992,0.456763
1.341933,-0.5498721,0.3906786
0.7490225,-0.5535813,0.2408759
0.6871127,-0.5998055,0.1152264
0.9982366,-0.5321339,0.08360723
1.135292,-0.410287,-0.01422155
1.133241,-0.3318797,-0.1322335
1.043452,-0.2624068,-0.09401892
0.9073911,-0.2539236,-0.02784323
0.8693971,-0.2059592,-0.07497326
0.830919,-0.11752,-0.07161493
0.808886,-0.1220687,-0.04079664
0.8202227,-0.1210622,-0.07812904
0.804337,-0.1180595,-0.06677267
0.7969029,-0.1377204,-0.06415463
0.7610506,-0.1325096,-0.0766153
0.7330993,-0.1392678,-0.05110746
0.7285312,-0.1221045,-0.07271771
0.7412128,-0.09399604,-0.0852054
0.8327777,-0.0644612,-0.1058798
0.9260498,-0.008994957,-0.1434023
0.969916,0.02722732,-0.1142968
1.015569,0.01937131,-0.1133484
1.095793,-0.02383184,-0.1280497
1.148196,-0.02736901,-0.1169655
1.151751,-0.02868582,-0.1317839
1.257944,-0.0815768,-0.1736453
1.440334,-0.1387765,-0.2957662
1.539345,-0.2437662,-0.3916157
1.595078,-0.3751182,-0.3235215
1.687046,-0.5205073,-0.2648892
1.667873,-0.5787065,-0.3008672
1.415818,-0.4658824,-0.2578624
1.10232,-0.3935563,-0.1513664
0.9206588,-0.310067,-0.123636
0.9979739,-0.2332431,-0.100129
1.142326,-0.2540467,-0.02112412
1.107708,-0.1705561,0.02843487
1.074491,-0.1934035,0.01052119
0.9345354,-0.2887032,0.000590657
0.72297,-0.2462543,0.04074796
0.736053,-0.2892668,0.03780428
0.7218232,-0.2446008,0.02276863
0.6890933,-0.1428512,0.03906887
0.71442,-0.1662927,0.02969704
0.6437285,-0.1356743,0.05338931
0.604293,-0.1513569,0.08663498
0.5911212,-0.1740425,0.10714
0.6035922,-0.1787768,0.1522602
0.6250346,-0.2511992,0.1697063
0.6201805,-0.2596801,0.2144168
0.6800972,-0.2677522,0.2877194
0.7050205,-0.2217154,0.3105093
0.7627994,-0.1202094,0.3226908
0.9355731,-0.1316456,0.3466839
1.136784,-0.1615965,0.3643144
1.392838,-0.2431832,0.3617784
1.664664,-0.4658159,0.3491072
1.811939,-0.6140884,0.3157886
1.586151,-0.4304748,0.2540991
1.089819,-0.2156322,0.187697
0.7626535,-0.3516306,0.06369764
0.7092835,-0.4401116,-0.03769861
0.892134,-0.3841414,-0.01398244
1.067052,-0.4500489,-0.01084429
1.028297,-0.3946582,-0.03072352
0.9867951,-0.292489,-0.004936247
0.925055,-0.2677999,-0.02910564
0.8025517,-0.1271862,-0.05295109
0.7587295,-0.02878395,-0.0501525
0.7458102,-0.03652498,-0.08621009
0.7562142,-0.08558268,-0.09570055
0.775797,-0.1830576,-0.0874529
0.7810802,-0.2026284,-0.08875548
0.7892113,-0.1809347,-0.07964422
0.7606817,-0.1432686,-0.08921
0.7538063,-0.05418795,-0.1067697
0.7836214,-0.01250845,-0.1412565
0.8173696,0.005117044,-0.1682352
0.8771877,0.03541741,-0.1545173
0.9727934,0.01725178,-0.1232425
1.077798,-0.03423034,-0.07847192
1.090947,-0.05495065,-0.09694089
1.083953,-0.0659744,-0.1539127
1.145234,-0.1211079,-0.160108
1.202826,-0.1858276,-0.185562
1.382823,-0.224697,-0.2436255
1.667511,-0.2566238,-0.3019216
1.771294,-0.3354381,-0.3348997
1.678651,-0.44699,-0.325908
1.491203,-0.4686114,-0.3055489
1.247072,-0.4032076,-0.2341797
1.083664,-0.3275587,-0.1527377
1.036188,-0.2217199,-0.1320732
1.004243,-0.1468541,-0.131905
1.04232,-0.1689351,-0.1256773
1.093996,-0.1981469,-0.09827101
0.9708758,-0.2595715,-0.077141
0.8490064,-0.3824999,-0.03711443
0.8500227,-0.4117617,0.02432409
0.8184446,-0.3587111,0.02107552
0.7600049,-0.2963099,0.02341641
0.707884,-0.1883975,0.05077997
0.6561785,-0.09226315,0.05129209
0.6162456,-0.04745947,0.05666043
0.6012829,-0.04090744,0.05534548
0.6256043,-0.09389493,0.06872554
0.6178625,-0.182678,0.09945769
0.5682228,-0.2556283,0.1561418
0.5297662,-0.2927476,0.2468057
0.5533584,-0.2665716,0.2631251
0.6356212,-0.1914839,0.2422356
0.6961468,-0.1489604,0.2712472
0.8048424,-0.1204729,0.2908453
1.045459,-0.07641562,0.2976399
1.294049,-0.06679288,0.3154273
1.41725,-0.1009229,0.3377316
1.565322,-0.2006287,0.3793249
1.808922,-0.3267113,0.4110107
1.84676,-0.3617771,0.4021489
1.655808,-0.3435127,0.3804426
1.20615,-0.4238276,0.3122602
0.6146522,-0.5481699,0.158138
0.6562608,-0.5503142,0.05181955
0.9746492,-0.5405476,0.03147181
0.8603385,-0.5927834,-0.05114407
0.8898396,-0.5742977,-0.1031243
0.9706897,-0.5300704,-0.04531003
0.885837,-0.501222,-0.05747477
1.004631,-0.4489536,-0.09055483
0.9770447,-0.3778884,-0.1098831
0.9034061,-0.2120442,-0.2025226
0.9674475,-0.08003153,-0.2049196
0.8539075,-0.1610355,-0.163341
0.7991091,-0.2427874,-0.1937929
0.7746913,-0.2554215,-0.1742223
0.7242923,-0.3086679,-0.1733685
0.7684615,-0.2623437,-0.1961468
0.7477821,-0.1517239,-0.1654466
0.8071163,-0.04004728,-0.155353
0.8767544,0.1477589,-0.1353053
0.8600732,0.2212472,-0.1140239
0.8908348,0.210138,-0.1308834
0.8832608,0.2639987,-0.1276643
0.9337516,0.1978102,-0.08533683
1.027882,0.06211814,0.01109765
1.057,0.02385313,0.0966215
1.085374,0.02554965,0.08744701
1.160612,0.02733223,0.06358923
1.392269,0.02531071,0.0591585
1.656285,0.02989114,-0.01973384
1.775704,-0.05954043,-0.108271
1.756658,-0.3221665,-0.08839272
1.5556,-0.5478693,-0.06955887
1.292366,-0.5542456,-0.09326041
1.224793,-0.4445645,-0.09308358
1.246402,-0.3662591,-0.1234445
1.073403,-0.2628001,-0.1475651
0.9549804,-0.1702485,-0.113889
1.058033,-0.224407,-0.0725035
1.067311,-0.2913969,-0.02682757
1.022787,-0.328483,0.001375473
0.9857108,-0.3551669,0.01917433
0.8350242,-0.2678278,0.03722361
0.7125015,-0.1694901,0.02156302
0.675551,-0.1081305,0.02132704
0.6505607,-0.07278586,0.04734586
0.6152975,-0.09973837,0.06734931
0.573958,-0.09398788,0.09357347
0.5595698,-0.09256838,0.1203455
0.5794369,-0.1398747,0.1515309
0.6172238,-0.191999,0.1789905
0.6501195,-0.2728875,0.2308311
0.6961179,-0.3126303,0.3220173
0.7518313,-0.2598392,0.346463
0.8232593,-0.1568056,0.3171026
0.9346879,-0.07666105,0.325191
1.03019,-0.08584706,0.3350818
1.165482,-0.1361625,0.3293649
1.380651,-0.2386047,0.3151909
1.617703,-0.4492904,0.2935738
1.793858,-0.5774209,0.295633
1.581723,-0.456405,0.2772882
1.067872,-0.3480305,0.1850123
0.7866017,-0.4097726,0.07479402
0.7460853,-0.4132755,0.02289015
0.8740809,-0.3862722,0.0228913
1.071831,-0.4108788,0.007648656
1.045637,-0.3606375,-0.01942001
0.9909343,-0.3016967,-0.009168389
0.9615373,-0.2439003,-0.004834353
0.8333501,-0.124361,-0.03209977
0.786255,-0.04012241,-0.05924015
0.7755081,-0.0331739,-0.09515001
0.7948491,-0.1087432,-0.1125098
0.843561,-0.2153126,-0.09505795
0.8163665,-0.2519882,-0.08885543
0.7860027,-0.2206227,-0.09189863
0.7337658,-0.1714733,-0.1026684
0.7278405,-0.1308456,-0.1369272
0.7915458,-0.08423109,-0.1693066
0.8361126,-0.04593356,-0.1799395
0.9271103,-0.02646872,-0.1762283
0.9884907,-0.02237196,-0.1649309
1.062724,-0.02946591,-0.1266434
1.224732,0.007733755,-0.08126695
1.265331,0.02682886,-0.09225821
1.268889,-0.02405719,-0.1177392
1.433028,-0.1081118,-0.1237508
1.582,-0.252673,-0.2015162
1.617003,-0.3820316,-0.3129694
1.623197,-0.4574413,-0.3160707
1.502428,-0.4998554,-0.2271148
1.242116,-0.4537178,-0.1592765
1.055552,-0.4047142,-0.1658529
1.003562,-0.3660574,-0.1746308
1.004755,-0.2337943,-0.1345818
1.003323,-0.1228033,-0.1038816
1.009455,-0.1388996,-0.07732542
1.010981,-0.199747,-0.06802623
0.9357261,-0.2713735,-0.07887658
0.8269124,-0.3696444,-0.01602346
0.7736954,-0.4207894,0.04319857
0.7712255,-0.3782534,0.02660195
0.7351958,-0.3018814,0.02313064
0.669238,-0.2282301,0.0282891
0.6648247,-0.15585,0.03449026
0.6589729,-0.1254512,0.06241632
0.636005,-0.1412115,0.09585236
0.6635278,-0.1660591,0.1339871
0.6836693,-0.2220697,0.1638819
0.6902995,-0.2619842,0.2157706
0.7212092,-0.2321358,0.2930297
0.7682762,-0.1900591,0.3414073
0.8229229,-0.1400213,0.3676673
0.901106,-0.1208756,0.3926051
1.04287,-0.1495159,0.4236087
1.226955,-0.1540993,0.4249928
1.42838,-0.2340857,0.3393097
1.607618,-0.4397687,0.2393657
1.625941,-0.5621594,0.2262611
1.385122,-0.4568973,0.2134426
0.9915025,-0.3020581,0.09895336
0.7370351,-0.305285,0.002603901
0.7528561,-0.3595642,0.01702885
0.8775178,-0.3821416,0.02233478
1.007275,-0.3823853,-0.02027965
1.101238,-0.3316649,-0.02137181
1.070904,-0.3072835,-0.01252424
0.9834494,-0.2551373,-0.03056649
0.9046202,-0.129642,-0.03813255
0.8046695,-0.03847934,-0.0730345
0.7814602,-0.01595226,-0.1168399
0.81119,-0.1074271,-0.1184255
0.7912602,-0.2249349,-0.1160423
0.793574,-0.2575886,-0.1101288
0.7818754,-0.2483274,-0.1053542
0.7448473,-0.2055575,-0.1109854
0.7575253,-0.1683329,-0.1229228
0.7617351,-0.1319326,-0.1604802
0.7868631,-0.07293188,-0.1925141
0.8896744,-0.03188723,-0.1952544
1.038353,-0.02542584,-0.1547469
1.17815,-0.0435168,-0.09261759
1.255475,-0.02417708,-0.08556541
1.352143,-0.01789238,-0.1198266
1.521597,-0.09209411,-0.1636276
1.673594,-0.2307571,-0.239516
1.70793,-0.4124275,-0.3100039
1.593305,-0.4980098,-0.2895869
1.399634,-0.4939164,-0.2190443
1.18995,-0.479531,-0.1914996
1.056096,-0.403432,-0.1700466
1.031491,-0.3102113,-0.1577022
1.007999,-0.2008076,-0.1561724
1.029497,-0.1217037,-0.1104236
1.077106,-0.1579805,-0.08634057
0.9963993,-0.1990848,-0.08926873
0.8854666,-0.2467656,-0.07175342
0.7972265,-0.3242522,-0.05173085
0.6959343,-0.3411446,-0.01487767
0.6850969,-0.3048829,0.01844827
0.7068568,-0.2331918,0.02398314
0.6797302,-0.1914799,0.01985289
0.6629277,-0.2130239,0.03445791
0.6424137,-0.2075516,0.0563664
0.6222021,-0.1762724,0.07447133
0.6198385,-0.1568804,0.1258236
0.6234826,-0.1767506,0.1454329
0.6806051,-0.2558448,0.1733514
0.7592514,-0.3179665,0.2840242
0.7861877,-0.2945201,0.3196269
0.8249863,-0.2127094,0.3134374
0.9302997,-0.1312217,0.372122
1.008883,-0.08214125,0.3845612
1.064036,-0.129908,0.3575661
1.265032,-0.2520761,0.353274
1.497186,-0.3346774,0.3393231
1.626941,-0.4283103,0.3212834
1.769741,-0.5041889,0.2777735
1.572522,-0.405077,0.1707415
0.9894507,-0.2799704,0.07991431
0.7408878,-0.3470698,0.03913716
0.7964886,-0.4149087,0.007490559
0.8892321,-0.3478926,0.002739352
1.077961,-0.3516293,-0.0116074
1.071261,-0.3455291,-0.02668782
0.963266,-0.2585372,0.0002771998
0.8948364,-0.2140899,0.001832295
0.7239515,-0.08108008,-0.02771047
0.6801274,0.00966687,-0.06874241
0.6077586,-0.1552427,0.249657
0.604201,-0.1652401,0.2988245
0.6517148,-0.1737722,0.3305133
0.7604862,-0.2380909,0.3703464
0.9433441,-0.2710895,0.4289802
1.195126,-0.2563943,0.4483689
1.488612,-0.2923532,0.3777741
1.736619,-0.4473254,0.3117355
1.720281,-0.6046201,0.3277834
1.355232,-0.5517621,0.298667
0.9074444,-0.4203701,0.1469711
0.8061069,-0.3813704,-0.011468
0.9996403,-0.3520391,-0.07798795
1.057339,-0.3355091,-0.0699006
1.026068,-0.3109248,-0.06421509
1.031038,-0.2513821,-0.06654927
0.9457692,-0.2135668,-0.03428755
0.8862019,-0.1513128,-0.04773439
0.8654832,-0.1231054,-0.0871684
0.7996865,-0.1552015,-0.0662697
0.7703841,-0.163456,-0.07796681
0.7638314,-0.1976596,-0.08758297
0.7757346,-0.2279672,-0.05512365
0.7516305,-0.2350607,-0.06498209
0.6935199,-0.2118547,-0.07482846
0.7042254,-0.1253736,-0.09318921
0.7066024,-0.09465102,-0.1291364
0.7352235,-0.07006496,-0.16141
0.8617548,-0.01713257,-0.1915252
1.039095,-0.02757323,-0.1456316
1.171726,-0.02167824,-0.1184668
1.179542,-0.006274999,-0.1892435
1.267934,-0.01177037,-0.231299
1.479843,-0.05692893,-0.2239928
1.647415,-0.2091187,-0.2442564
1.700816,-0.3615885,-0.2944973
1.531456,-0.4467565,-0.2871339
1.329341,-0.4731059,-0.2569877
1.225875,-0.432154,-0.2669235
1.072857,-0.3890908,-0.2186511
0.9906203,-0.364009,-0.1614904
1.015911,-0.3392926,-0.1384691
1.037846,-0.3026343,-0.06685706
1.074549,-0.2613384,-0.02150438
1.067706,-0.2535594,-0.02289883
0.9466897,-0.2770564,-0.01593284
0.8190656,-0.311937,-0.0166625
0.840881,-0.3138658,0.002679181
0.8740298,-0.2641019,0.03881509
0.7910418,-0.1975311,0.05361544
0.7463631,-0.1373659,0.06395423
0.7037051,-0.1072764,0.07771364
0.624239,-0.09895531,0.08941875
0.6149804,-0.1112936,0.1234153
0.624059,-0.163277,0.1674272
0.6361809,-0.2186329,0.1755451
0.6456564,-0.2265301,0.1976283
0.6359811,-0.1887443,0.2769314
0.6650321,-0.1779191,0.3353322
0.7519209,-0.2133179,0.3574754
0.9709127,-0.2569407,0.3742693
1.29871,-0.328404,0.347148
1.629966,-0.4331663,0.2948073
1.809258,-0.5154857,0.2689719
1.540119,-0.4819942,0.2731299
1.053546,-0.3801535,0.2499035
0.8377502,-0.3405395,0.105391
0.8345084,-0.3299547,-0.05864137
0.9342242,-0.3547674,-0.07276412
1.03308,-0.3898576,-0.0349737
0.9981688,-0.355442,-0.03507954
1.005264,-0.3256175,0.00641224
1.025408,-0.2709251,0.03237821
0.9516968,-0.188629,-0.00563883
0.9025092,-0.1320731,-0.0181642
0.835238,-0.04837371,-0.05107443
0.7881148,-0.03657379,-0.09588973
0.8131397,-0.119754,-0.0694319
0.7973639,-0.2018247,-0.05134326
0.77157,-0.2505717,-0.04367066
0.7228522,-0.2113315,-0.03933201
0.6573715,-0.1570277,-0.08012039
0.6926866,-0.1094269,-0.1142058
0.7838736,-0.02958772,-0.1621229
0.8867689,-0.003721832,-0.2065937
0.9975037,-0.01187429,-0.188923
1.087224,-0.04626785,-0.1576691
1.186428,-0.09523179,-0.139201
1.249198,-0.04740094,-0.1428039
1.284089,-0.001886661,-0.1710197
1.435035,-0.0736125,-0.2281525
1.650513,-0.2194396,-0.3023372
1.771032,-0.4049815,-0.3102456
1.720215,-0.4967285,-0.2734604
1.449067,-0.4658533,-0.25513
1.124127,-0.4668005,-0.2073633
1.017559,-0.4343166,-0.1468996
1.040505,-0.3393761,-0.1114652
1.004342,-0.3148339,-0.08065939
1.040533,-0.2528823,-0.05869972
1.092073,-0.1547668,-0.01492532
0.9622761,-0.2082702,0.004977074
0.8617652,-0.2906465,-0.02039503
0.8465376,-0.3099234,0.01699071
0.7847966,-0.3705347,0.04677265
0.7797107,-0.3436715,0.04057358
0.798482,-0.2037936,0.0621627
0.7414654,-0.1475582,0.04274023
0.65533,-0.1014688,0.03710217
0.6006634,-0.06245591,0.07707771
0.5935947,-0.1329772,0.1062526
0.5986631,-0.1953861,0.1356105
0.5926831,-0.2640682,0.1576736
0.5902817,-0.2995688,0.2137633
0.6253361,-0.228276,0.2799582
0.6797817,-0.1755174,0.3050075
0.754093,-0.131359,0.3216608
0.8705734,-0.1366426,0.3433084
1.015896,-0.1819902,0.3834258
1.257425,-0.1944544,0.3864673
1.560028,-0.3321068,0.3590014
1.713286,-0.4556322,0.3460444
1.599516,-0.3697266,0.2975711
1.251937,-0.3005996,0.2499713
0.8170506,-0.326357,0.1590355
0.6526136,-0.3255008,0.0266204
0.8860883,-0.3586799,0.01249753
1.043073,-0.431591,0.01797939
1.026362,-0.4021997,-0.02213737
1.074318,-0.3481845,1.78715e-05
1.028709,-0.3197169,0.01023974
0.9747237,-0.1939102,-0.02993292
0.9528047,-0.07495662,-0.04965449
0.8546455,-0.04931305,-0.04930562
0.8678983,-0.08065,-0.05255157
0.8821742,-0.1769934,-0.06197067
0.8420179,-0.2751874,-0.05458478
0.8223909,-0.3135345,-0.04629441
0.7300446,-0.2411265,-0.06099895
0.6865509,-0.1074844,-0.08360252
0.6764306,0.004047897,-0.1259117
0.677862,0.08290042,-0.1670363
0.7543059,0.05118639,-0.1797838
0.8111413,-0.02623061,-0.1703132
0.9160067,-0.09201816,-0.1346519
0.9969149,-0.1394673,-0.113607
0.9785065,-0.04958429,-0.1076317
1.066694,0.01544947,-0.0870508
1.252868,-0.03722737,-0.08808384
1.435587,-0.04794578,-0.09915156
1.583728,-0.05041418,-0.1134236
1.663631,-0.0599677,-0.1706751
1.700175,-0.0795432,-0.2298202
1.623353,-0.1775274,-0.2354733
1.452621,-0.3225869,-0.2189585
1.336516,-0.4351133,-0.2140979
1.203696,-0.4483827,-0.2015316
1.013258,-0.4337114,-0.1899323
0.878955,-0.4508788,-0.17917
0.8589955,-0.4479001,-0.1349694
0.9947283,-0.4574681,-0.09925006
1.116451,-0.4772497,-0.1057076
1.071612,-0.4525386,-0.1034786
1.011918,-0.4181107,-0.08413598
0.9505114,-0.3798299,-0.09283197
0.8527137,-0.2964021,-0.103868
0.8142585,-0.1952719,-0.07637606
0.8107485,-0.1263168,-0.04408708
0.8001596,-0.08951729,0.0022885
0.7822192,-0.08003676,0.06164081
0.7295574,-0.08613359,0.0843176
0.653629,-0.06976423,0.1252425
0.6146079,-0.05172764,0.1965227
0.5995169,-0.07614063,0.2189379
0.5664514,-0.09495797,0.2358821
0.5755675,-0.05666812,0.2818449
0.620025,0.013174,0.2829423
0.6862376,0.05118734,0.2891662
0.8346843,-0.003285822,0.3552536
1.004494,-0.08089619,0.4063174
1.14899,-0.07459941,0.4640687
1.2389,-0.05795598,0.501395
1.301767,-0.1000543,0.4428752
1.494326,-0.2252422,0.3942031
1.583641,-0.4621421,0.3780891
1.288116,-0.5903949,0.3089359
0.8991676,-0.5194027,0.1838021
0.7518021,-0.5084097,0.0701452
0.915798,-0.5107753,0.01382384
1.111581,-0.3819812,-0.0517186
1.068556,-0.2908484,-0.08013597
1.037315,-0.2719933,-0.02079689
1.046085,-0.2570975,-0.01939467
0.9422117,-0.2310378,-0.05632581
0.8644852,-0.1548871,-0.0552518
0.8102374,-0.125289,-0.06867133
0.8014745,-0.1595103,-0.08074185
0.8092447,-0.1706678,-0.09360358
0.7711422,-0.2105148,-0.07076802
0.7875894,-0.2379806,3.322957e-05
0.7228788,-0.1712434,-0.0007251561
0.6322796,-0.08098109,-0.05029599
0.6748972,-0.0250261,-0.1076918
0.734232,0.00878191,-0.1628225
0.855007,0.03837869,-0.1655304
0.995994,0.02419572,-0.1862879
1.069806,-0.0525642,-0.2091784
1.113854,-0.1084702,-0.1932912
1.13273,-0.1026027,-0.2001619
1.3109,-0.1018494,-0.2059595
1.629803,-0.1599585,-0.2285722
1.776497,-0.2510138,-0.2663277
1.724043,-0.3645911,-0.2464817
1.600793,-0.448009,-0.223338
1.390321,-0.4192366,-0.2118376
1.162857,-0.394392,-0.1504092
1.065173,-0.4076572,-0.09866087
1.028216,-0.3260236,-0.09381079
1.002661,-0.2176253,-0.05191659
1.039777,-0.1561214,0.01169798
1.05515,-0.135865,0.01965818
0.9639718,-0.2004469,0.01962247
0.8206164,-0.2891881,0.04276202
0.76291,-0.3228134,0.05202877
0.7599425,-0.2842942,0.04891396
0.705536,-0.2030998,0.04062543
0.6686352,-0.1379085,0.03686869
0.6456386,-0.0913772,0.04222103
0.6017779,-0.09094265,0.05343649
0.5847762,-0.1399801,0.07698464
0.5976842,-0.2088517,0.09608587
0.6364625,-0.291914,0.1358095
0.6967186,-0.3063067,0.2208144
0.7582052,-0.2516601,0.2867376
0.7650697,-0.2093979,0.3151283
0.7742438,-0.1956208,0.3472494
0.9376111,-0.2426498,0.3927354
1.259009,-0.333651,0.4114949
1.643058,-0.4322971,0.3444749
1.839377,-0.4960646,0.2736729
1.717564,-0.456517,0.2968459
1.492328,-0.4061379,0.284615
1.150018,-0.4113799,0.1562536
0.7917134,-0.3938682,0.03271719
0.852697,-0.3767637,-0.01445052
1.023813,-0.3841478,-0.01816101
0.9462455,-0.3621233,-0.02836536
0.9711079,-0.3130592,-0.03028804
0.9915236,-0.2631058,-0.01775593
0.8956021,-0.2269093,-0.05129863
0.8746484,-0.173872,-0.08070344
0.752975,-0.08779512,-0.07107463
0.679347,-0.05599793,-0.08303643
0.7169628,-0.1073646,-0.09066344
0.6829084,-0.1754834,-0.08608327
0.7172879,-0.2033997,-0.09688604
0.7258458,-0.1687933,-0.1153687
0.7581654,-0.1267046,-0.1380514
0.9064676,-0.1066505,-0.1530154
0.9598466,-0.05811147,-0.1620207
0.9620575,-0.01320474,-0.1616045
0.9710579,-0.02955598,-0.1445772
1.031584,-0.03601803,-0.1124305
1.118308,0.001754333,-0.08685801
1.150893,0.03182315,-0.1042757
1.231128,0.03492474,-0.1403688
1.332386,-0.06299365,-0.1776849
1.480934,-0.2617743,-0.2534289
1.65503,-0.4092518,-0.3723115
1.705283,-0.4516817,-0.425103
1.643962,-0.4245953,-0.3608494
1.44346,-0.3927123,-0.3247365
1.233312,-0.3952303,-0.3119805
1.191995,-0.3859697,-0.2470969
1.164735,-0.3623944,-0.217948
1.054138,-0.310337,-0.2009101
1.010841,-0.2318017,-0.1624103
1.032544,-0.2042354,-0.1289736
0.9749154,-0.2275924,-0.0838493
0.8854858,-0.3067175,-0.05441496
0.7852984,-0.4155732,-0.01637066
0.7360242,-0.4247983,0.005344654
0.7818162,-0.3248684,-0.02955428
0.7312826,-0.2050103,-0.04622803
0.6932351,-0.1266784,-0.05461256
0.7003368,-0.1228396,-0.05031887
0.6280783,-0.177584,-0.003202088
0.6488636,-0.2588981,0.04145787
0.6551367,-0.3397727,0.08185959
0.5821216,-0.3664513,0.1305205
0.5667934,-0.3113137,0.1930754
0.5580293,-0.228327,0.2364491
0.6247127,-0.1468626,0.2535004
0.7369012,-0.07254535,0.2841286
0.8753627,-0.05394409,0.3058765
1.137325,-0.09276311,0.3603487
1.338384,-0.1317767,0.449753
1.442875,-0.1419612,0.4764557
1.667034,-0.1906252,0.4641099
1.818863,-0.2922039,0.4753043
1.463559,-0.3568646,0.4823134
0.8893105,-0.4280521,0.4053281
0.7016809,-0.5318625,0.2613418
0.7546436,-0.6173781,0.1246742
0.7825271,-0.7198793,-0.01140005
0.8295126,-0.7575323,-0.09682965
0.8747519,-0.6817452,-0.1312403
0.9058648,-0.627042,-0.1816274
0.9056366,-0.605568,-0.1793279
0.9492498,-0.572482,-0.1765728
1.053723,-0.493863,-0.2822433
1.050964,-0.3206146,-0.3618357
0.9587259,-0.1836799,-0.3442199
0.8667808,-0.185291,-0.3210502
0.8252544,-0.2278451,-0.3059283
0.8482327,-0.2489064,-0.2599619
0.8312114,-0.2283833,-0.2071133
0.7902982,-0.1535981,-0.21244
0.7896467,-0.03293462,-0.2305554
0.8000387,0.09820298,-0.2123116
0.8347653,0.1577872,-0.1992444
0.9070544,0.1806756,-0.1388487
0.9795643,0.2376082,-0.0653449
0.9864387,0.3028845,-0.095232
0.9493097,0.3299238,-0.1025264
0.9506199,0.2577874,0.02472925
0.938396,0.1543329,0.1634797
0.948935,0.09894089,0.1934149
1.097432,0.038246,0.146107
1.302238,0.01130076,0.1186974
1.511869,0.002448959,0.08624071
1.725489,-0.1038855,0.01556677
1.825093,-0.2844869,0.0143907
1.742444,-0.4686746,0.07008773
1.611405,-0.5511014,0.07386776
1.444269,-0.4904336,0.02047505
1.113971,-0.4191546,-0.07541163
0.964321,-0.3164539,-0.1485928
1.064471,-0.1482749,-0.168848
1.016744,-0.120794,-0.1657444
1.043394,-0.2380862,-0.1130679
1.138283,-0.3383764,-0.05023289
1.058469,-0.3926989,-0.01438851
1.010127,-0.3637489,-0.01056389
0.8885922,-0.2740784,-0.02312943
0.7598787,-0.1788072,-0.0009508573
0.7814493,-0.1306588,0.004534937
0.7397291,-0.1743061,0.01393924
0.6956948,-0.1860107,0.04898407
0.6568822,-0.1673294,0.05308051
0.5960564,-0.1801837,0.07775059
0.5892957,-0.1599143,0.1041868
0.5803781,-0.196351,0.1331564
0.6118081,-0.2701734,0.1736405
0.6330664,-0.2640671,0.1849222
0.6607755,-0.2299045,0.2625541
0.7710081,-0.1722167,0.3386548
0.8643635,-0.1256499,0.3173612
0.9948294,-0.1254221,0.3029829
1.18609,-0.1313067,0.3085981
1.418116,-0.1826778,0.2961751
1.648749,-0.2945872,0.2637411
1.707873,-0.4114918,0.2443247
1.625145,-0.4426737,0.2414296
1.32224,-0.3871002,0.1965735
0.8050062,-0.3734635,0.1073349
0.6437695,-0.4209428,0.04793304
0.9063309,-0.4540857,0.06135215
1.05387,-0.4312543,0.03265148
1.07671,-0.3616919,-0.02929159
1.080189,-0.2815913,-0.01341429
0.976771,-0.2117062,-0.01698166
0.8977696,-0.1461373,-0.04695881
0.8184261,-0.06537364,-0.04749057
0.7608004,-0.05480463,-0.06538178
0.8249966,-0.1574646,-0.07439813
0.82421,-0.2593606,-0.0637423
0.812561,-0.2986368,-0.05757897
0.8100275,-0.2452706,-0.05726301
0.7198778,-0.1529349,-0.07356358
0.7111554,-0.08989803,-0.1022718
0.7256632,-0.006755635,-0.1236371
0.7383095,0.04084695,-0.1271198
0.8094434,0.03713873,-0.1253442
0.85287,0.02240415,-0.1166743
0.9950941,-0.03195414,-0.08727654
1.144078,-0.0507134,-0.05787462
1.119437,-0.04019822,-0.06863969
1.17938,-0.0593371,-0.09957323
1.45767,-0.1128725,-0.1225607
1.764805,-0.2464291,-0.1896856
1.889091,-0.3788089,-0.2605852
1.741313,-0.4517087,-0.2644845
1.479308,-0.4878134,-0.2527489
1.259182,-0.4491275,-0.2184524
1.090569,-0.3880647,-0.1608544
1.006245,-0.3228343,-0.1410574
0.965088,-0.2050951,-0.137469
0.9799815,-0.1308021,-0.107664
1.042629,-0.1518472,-0.06961161
0.9630423,-0.1980116,-0.06881752
0.8232116,-0.2779117,-0.06473562
0.7262199,-0.3575987,-0.02084088
0.686495,-0.3495929,0.01258135
0.7577249,-0.3051269,0.03481215
0.7330096,-0.2547316,0.04117981
0.6691522,-0.1930393,0.04553248
0.6616266,-0.163401,0.0642827
0.6097548,-0.1463582,0.06618483
0.6490403,-0.1474804,0.1049281
0.6765321,-0.1983393,0.1685603
0.6737071,-0.2620643,0.2009502
0.7360094,-0.2658877,0.2443872
0.7258818,-0.1789221,0.2961896
0.7586669,-0.1192448,0.3374586
0.848426,-0.1748091,0.3667985
0.9907131,-0.2372244,0.3815613
1.281074,-0.2650173,0.3710541
1.569683,-0.3947927,0.3094134
1.741972,-0.56116,0.2541079
1.598783,-0.5204354,0.247835
1.218045,-0.3762964,0.2111409
0.9412065,-0.3382094,0.09653594
0.8031173,-0.3725705,0.001049092
0.8686478,-0.4193484,0.006249214
0.9613069,-0.3885322,0.02685324
0.9464008,-0.3147903,-0.001012581
1.00255,-0.2909248,-0.01440948
0.9645859,-0.2257382,-0.003504924
0.89132,-0.1490177,-0.01681502
0.8714078,-0.1195887,-0.03734383
0.7547035,-0.09717493,-0.06015052
0.7120745,-0.0758796,-0.09883329
0.7285405,-0.07778323,-0.1032662
0.7667337,-0.1733955,-0.09520008
0.8281214,-0.2587769,-0.1187281
0.8061839,-0.2470396,-0.1200393
0.8246775,-0.2212952,-0.1125874
0.8262641,-0.1837796,-0.1345693
0.8177844,-0.161139,-0.1489274
0.8770546,-0.1151524,-0.1577742
0.9244143,-0.03821873,-0.1675426
1.016886,-0.0348173,-0.1440681
1.082134,-0.05808765,-0.1081648
1.153079,-0.05897028,-0.1127157
1.268918,-0.05346408,-0.1492907
1.372751,-0.06877379,-0.1869868
1.565893,-0.1316253,-0.2321884
1.666942,-0.2694814,-0.2878648
1.635712,-0.4569377,-0.3237278
1.613608,-0.5493528,-0.309828
1.469536,-0.5376597,-0.2695204
1.207294,-0.4594355,-0.2324604
0.9753306,-0.3553593,-0.1924108
0.938781,-0.334907,-0.1752841
0.9807712,-0.2741301,-0.1610871
0.9294762,-0.1741381,-0.1206648
0.982383,-0.2157689,-0.09893055
1.006334,-0.2536563,-0.07041922
0.8641923,-0.2608581,-0.04492429
0.7679912,-0.3567847,-0.04023386
0.7159075,-0.3765963,0.001270901
0.7176085,-0.3128787,0.02476529
0.7173307,-0.279,0.03785451
0.6773435,-0.2366641,0.07588496
0.697593,-0.2149069,0.0837474
0.6760256,-0.1825771,0.1075927
0.6759268,-0.1458265,0.142222
0.7383945,-0.1869335,0.1660718
0.7492502,-0.2180091,0.2037634
0.7500107,-0.2090259,0.240997
0.7256979,-0.1939139,0.3111868
0.73701,-0.172096,0.3437923
0.7963207,-0.1792027,0.3406883
0.8745213,-0.1859426,0.4034482
1.04931,-0.1882108,0.4083538
1.274605,-0.2632582,0.3266075
1.613332,-0.4301831,0.2691006
1.825319,-0.5358582,0.2414527
1.480626,-0.4244801,0.2196582
0.9729574,-0.3207344,0.1873541
0.8031257,-0.4261542,0.1396463
0.8584278,-0.4800696,0.03771041
0.9578413,-0.4164768,-0.03139775
1.024561,-0.4190674,-0.003379373
1.017308,-0.39538,-0.001484701
0.9716739,-0.3182414,0.01160995
0.9092391,-0.2549748,0.01744837
0.812941,-0.1540766,-0.02825972
0.7385911,-0.08715915,-0.02841566
0.7394932,-0.09388593,-0.07256517
0.7489618,-0.1167243,-0.1295378
0.7596215,-0.1663986,-0.1110254
0.8197348,-0.225325,-0.115741
0.8547705,-0.2422464,-0.1268437
0.8322081,-0.2170423,-0.1314058
0.8036183,-0.1896476,-0.1354097
0.7786445,-0.1337768,-0.1338805
0.8031421,-0.05669198,-0.1556447
0.9062997,-0.04504844,-0.1593175
1.040488,-0.06293439,-0.1454725
1.125783,-0.06431801,-0.1082793
1.113382,-0.06199158,-0.06286451
1.085571,-0.05247359,-0.08229026
1.105954,-0.06672234,-0.1172392
1.201023,-0.1359437,-0.1358625
1.423482,-0.2413527,-0.1896976
1.640516,-0.2914171,-0.239253
1.696703,-0.3228051,-0.2276473
1.612186,-0.4175363,-0.2224305
1.426348,-0.4195383,-0.2711901
1.233897,-0.3569764,-0.2911847
1.133968,-0.2288076,-0.02148193
0.9852458,-0.2826967,-0.04061308
0.8056039,-0.3864272,-0.02949973
0.7152065,-0.4346213,-0.007650172
0.7718616,-0.4244717,-0.0003503573
0.7872104,-0.3468495,0.000991754
0.7086564,-0.2328012,0.009951766
0.700308,-0.1408765,0.02121483
0.6648448,-0.1293466,0.01103596
0.6040496,-0.1593554,0.02359442
0.582412,-0.1551198,0.07913804
0.5836195,-0.201664,0.1462985
0.6394109,-0.243057,0.1994232
0.6787354,-0.1862637,0.2835028
0.7324812,-0.1548636,0.4053931
0.8100533,-0.1482261,0.4479892
0.943758,-0.1551092,0.4570721
1.279058,-0.2109965,0.4657872
1.628612,-0.3022712,0.3409977
1.72103,-0.4336039,0.2111033
1.408123,-0.4771304,0.2313338
0.9379555,-0.4727591,0.2172223
0.8769345,-0.5123789,0.06933865
1.042012,-0.4513457,-0.05760807
1.044397,-0.3659879,-0.1052419
1.023601,-0.3166396,-0.1002523
1.014673,-0.2370776,-0.06437104
0.997347,-0.2198535,-0.07585642
0.9775317,-0.207308,-0.09476078
0.8971419,-0.1607308,-0.09799882
0.8124951,-0.1439464,-0.131077
0.8014774,-0.1442716,-0.1378636
0.8698744,-0.2131121,-0.1455396
0.9058816,-0.2768261,-0.1435164
0.8946265,-0.2691155,-0.1083267
0.8954912,-0.2700745,-0.1053148
0.8054399,-0.2314839,-0.104127
0.6631772,-0.1454273,-0.1175511
0.6184514,-0.09147194,-0.1282342
0.6516301,-0.04398872,-0.1286884
0.7235067,0.007458018,-0.1557665
0.8659396,0.003740517,-0.131561
1.030262,-0.01216432,-0.1198763
1.156008,0.002639711,-0.1658485
1.310208,-0.02231743,-0.201232
1.485574,-0.1026795,-0.2441187
1.646459,-0.2613485,-0.2935635
1.735759,-0.4159811,-0.3527794
1.670343,-0.4283446,-0.3493022
1.550049,-0.424095,-0.2753388
1.35178,-0.43788,-0.2404822
1.111555,-0.4020147,-0.1826603
1.011493,-0.3737096,-0.1259618
0.9571522,-0.3330984,-0.1268031
0.9573533,-0.2909078,-0.07323856
0.9987403,-0.2547089,-0.02506113
0.9529839,-0.2105918,-0.03884253
0.8895421,-0.2515906,-0.02042444
0.7513713,-0.3403046,0.004341617
0.6456222,-0.3726748,0.01990233
0.7129089,-0.3411141,0.03245939
0.7302202,-0.2499719,0.01513384
0.70123,-0.1704121,0.02284529
0.6677928,-0.1557253,0.04242916
0.5883836,-0.1560728,0.07347061
0.6192457,-0.1636053,0.1338342
0.6667036,-0.2105751,0.134627
0.6210997,-0.2586714,0.1406921
0.6292047,-0.2530917,0.2138406
0.6585374,-0.2073972,0.2805978
0.6864128,-0.1502154,0.335759
0.819681,-0.1256094,0.3505927
1.038405,-0.1544492,0.357496
1.318273,-0.2026878,0.3839888
1.599157,-0.3398006,0.3350554
1.727727,-0.5345807,0.2817998
1.613485,-0.536045,0.302177
1.265275,-0.3552967,0.2773318
0.8769543,-0.2608026,0.1689247
0.7631461,-0.3214606,0.05892331
0.9272503,-0.3787453,0.001448691
1.000373,-0.34892,0.002320447
0.9558809,-0.3411132,0.01083301
0.9825486,-0.3580052,-0.009009233
0.9300711,-0.3073299,-0.03001319
0.8570952,-0.2259681,-0.06329054
0.8207771,-0.1178887,-0.1019884
0.7381516,-0.07002875,-0.09970395
0.771136,-0.1737837,-0.09720873
0.7905676,-0.2702552,-0.0952027
0.7712249,-0.3097459,-0.06721953
0.8138078,-0.3124758,-0.07120011
0.7358449,-0.2497589,-0.1020234
0.6787223,-0.1979377,-0.129975
0.692551,-0.1333677,-0.1691458
0.6842363,-0.03669629,-0.2129159
0.7990023,-0.01160171,-0.2411506
0.9955182,-0.05427658,-0.2348453
1.126003,-0.06424547,-0.199176
1.135154,-0.04221557,-0.1636559
1.128177,-0.0299218,-0.1922351
1.210017,-0.003697907,-0.2463747
1.392644,-0.05325991,-0.2299624
1.624845,-0.1805068,-0.2514951
1.68944,-0.279086,-0.3253489
1.632821,-0.3993999,-0.3336694
1.56854,-0.4591828,-0.3130704
1.349324,-0.4428882,-0.2734909
1.071218,-0.4708399,-0.2378073
0.9570913,-0.4270035,-0.2148847
0.9714582,-0.3162981,-0.1485853
1.000454,-0.2445715,-0.08268061
1.091734,-0.2006008,-0.03944376
1.167137,-0.2199028,-0.03143094
1.016071,-0.2750072,-0.02341632
0.8254397,-0.3335238,-0.001476578
0.7951966,-0.3680959,-0.02789966
0.7771159,-0.3367062,-0.01725335
0.7554184,-0.2888455,-0.003523606
0.7828886,-0.1872365,-0.02820468
0.7467165,-0.07871881,-0.002338697
0.6715986,-0.1004022,0.01766154
0.6441255,-0.1507778,0.08338933
0.6167802,-0.2004038,0.1790406
0.6083258,-0.2864448,0.1858127
0.5948563,-0.2846204,0.2071661
0.5577227,-0.2180194,0.2496249
0.5718807,-0.1706624,0.2585879
0.5976428,-0.1216295,0.2648316
0.6878006,-0.1081999,0.2784123
0.9116077,-0.1573634,0.3354086
1.181251,-0.1959212,0.4257454
1.426476,-0.1446629,0.4755265
1.623768,-0.09733893,0.4481065
1.774369,-0.176553,0.429528
1.697727,-0.2613866,0.4468841
1.24667,-0.3254621,0.4026945
0.7140867,-0.4970224,0.2876981
0.578926,-0.6639907,0.1163279
0.8709074,-0.7199213,0.004547968
1.029842,-0.7221476,0.01593357
0.956335,-0.6356882,-0.0290731
0.9612448,-0.4905234,-0.08427615
0.9491308,-0.4209706,-0.05713635
1.0019,-0.3650658,-0.08893846
1.10223,-0.2218954,-0.1716793
0.9804898,-0.1039251,-0.2092009
0.8109624,-0.09973618,-0.1829635
0.7310166,-0.1449081,-0.1443124
0.7529585,-0.2008481,-0.1363851
0.8035825,-0.2508649,-0.1078026
0.7349373,-0.2293414,-0.07786322
0.7333529,-0.1280882,-0.06014247
0.8114218,0.01556065,-0.03831634
0.8327326,0.1345028,-0.04948929
0.8232484,0.1301856,-0.06662428
0.7947889,0.1129756,-0.0928199
0.8623094,0.1265657,-0.09582504
0.956396,0.02063856,-0.02997029
0.9680213,-0.0438014,0.007180704
0.9947908,-0.002557894,0.03511435
1.005652,0.01660846,0.09076512
1.078791,0.08199729,0.09408906
1.317714,0.07752145,0.04944375
1.59197,-0.01520735,-0.01202732
1.785223,-0.09073181,-0.03926991
1.804048,-0.2306401,-0.04893303
1.666974,-0.3306051,-0.1200694
1.511955,-0.3743921,-0.1815031
1.367942,-0.4107637,-0.1837599
1.175556,-0.3744116,-0.1555266
0.9796019,-0.3707652,-0.1122021
0.9301194,-0.3901176,-0.09429306
0.9776835,-0.3884993,-0.0756579
0.9770959,-0.407783,-0.03501745
0.9569244,-0.4033367,-0.02473496
0.9353199,-0.3823651,-0.02870921
0.8899239,-0.3153526,-0.01284996
0.8409565,-0.2007954,-0.00837634
0.7774263,-0.1235757,-0.01246998
0.693849,-0.0750523,-0.002779625
0.6396912,-0.04502041,0.007598607
0.630105,-0.07664259,0.0473072
0.6208812,-0.1344555,0.1129806
0.6259196,-0.1389875,0.1544358
0.6922905,-0.1705865,0.2175544
0.7645054,-0.2391358,0.2835346
0.7594892,-0.2085546,0.3024909
0.7267719,-0.1389851,0.3723856
0.734583,-0.1021666,0.4521611
0.7902683,-0.1704016,0.4657793
0.9364594,-0.3629541,0.4885543
1.129811,-0.4338472,0.4725569
1.349779,-0.3737746,0.4083199
1.590983,-0.3576485,0.3573995
1.526792,-0.3832907,0.3088095
1.174473,-0.4319909,0.2423524
1.038912,-0.4815581,0.05594563
1.095826,-0.5009225,-0.0865324
1.094555,-0.4462274,-0.005583823
1.010639,-0.3463233,0.01459507
0.9084232,-0.272454,-0.04040741
0.933632,-0.2121485,-0.01241606
0.9263381,-0.1534759,-0.04218444
0.8605568,-0.09254728,-0.08172815
0.8751965,-0.07840373,-0.06351296
0.8058285,-0.07047403,-0.07223512
0.7546986,-0.06708184,-0.05712926
0.7686817,-0.1750848,-0.02585415
0.7413124,-0.2386554,-0.03212355
0.7587908,-0.2135661,-0.04364146
0.7343426,-0.1740321,-0.08064216
0.6894141,-0.08297034,-0.1358038
0.6959338,-0.02004754,-0.1632601
0.7573769,0.02168222,-0.2117456
0.9207771,0.0227502,-0.2597127
1.051826,-0.03319104,-0.2026812
1.148172,-0.06621616,-0.1411514
1.235113,-0.09224593,-0.1745971
1.25013,-0.08039733,-0.1896867
1.328878,-0.1059704,-0.185615
1.519155,-0.208086,-0.2179405
1.692333,-0.280111,-0.2761194
1.727672,-0.3317228,-0.3573315
1.640853,-0.359988,-0.3352375
1.50802,-0.3927468,-0.2295927
1.300606,-0.4149218,-0.1854039
1.070099,-0.4085561,-0.1438215
0.9248728,-0.4313418,-0.1152679
0.922884,-0.3747615,-0.1172643
0.9949977,-0.2419931,-0.06934208
0.9855497,-0.1659899,-0.02255766
0.9770327,-0.1844897,-0.0254862
0.9591027,-0.2654755,-0.03945399
0.8289734,-0.3193241,-0.01600791
0.7767951,-0.3674064,0.01595445
0.7728204,-0.3677447,0.03409552
0.7146111,-0.29829,0.0636453
0.6821859,-0.2628904,0.06039297
0.6248227,-0.194593,0.07086483
0.6091991,-0.1494232,0.09877402
0.6226406,-0.1764088,0.09146459
0.5810279,-0.1777556,0.1151839
0.5926229,-0.2162545,0.138776
0.6099602,-0.2268418,0.1740574
0.6207768,-0.1641049,0.2424997
0.6838027,-0.134583,0.2724149
0.7835187,-0.1592535,0.3098283
0.9689859,-0.2445257,0.3580133
1.204182,-0.3126031,0.3886145
1.498914,-0.3544585,0.4025589
1.829598,-0.4246717,0.402003
1.895896,-0.4601379,0.4102015
1.503691,-0.4351673,0.3592137
0.9542884,-0.3795601,0.2470979
0.78069,-0.3525456,0.1507364
0.930354,-0.364935,0.08382813
0.9548965,-0.382717,0.007920301
0.923114,-0.3832827,-0.05015502
0.9945676,-0.350721,0.00572916
1.028058,-0.3104974,0.03158412
1.043093,-0.2535166,-0.01791557
1.017783,-0.1910309,-0.01822942
0.8765677,-0.08856633,-0.07633543
0.7669845,0.003133193,-0.1157865
0.7338872,-0.08822129,-0.09777825
0.7496896,-0.2137174,-0.1360082
0.7717888,-0.2757247,-0.1172292
0.7360168,-0.318991,-0.1079862
0.7209292,-0.2519128,-0.1342595
0.7103112,-0.1634051,-0.1211249
0.7515676,-0.06712487,-0.1559337
0.8689275,0.0188856,-0.1707178
0.8759338,-0.01894655,-0.1640125
0.8916262,-0.03578679,-0.1587582
1.006289,-0.03437451,-0.1067036
1.071237,-0.0273592,-0.09254068
1.101211,0.0403777,-0.08035433
1.160765,0.01560718,-0.03807959
1.288961,-0.03658779,-0.02007987
1.425651,-0.08399558,-0.02775024
1.566449,-0.183815,-0.07658428
1.685707,-0.2002218,-0.1321193
1.613591,-0.1920699,-0.1698696
1.484791,-0.2186851,-0.1919847
1.333068,-0.2412229,-0.2163746
1.123445,-0.3096803,-0.2449917
1.066491,-0.3774139,-0.2417493
0.9543806,-0.4039593,-0.2536596
0.8129396,-0.4283108,-0.2174351
0.9631412,-0.482698,-0.1112239
1.082664,-0.5113938,-0.09046131
1.068327,-0.4618554,-0.0999252
1.078641,-0.4082535,-0.08246086
1.016627,-0.3447848,-0.09256122
0.9931286,-0.2729021,-0.1059328
0.9731034,-0.2437174,-0.1155064
0.8625962,-0.1937481,-0.0998641
0.8097161,-0.1315239,-0.06818943
0.7984027,-0.1220776,-0.02195455
0.771156,-0.1328563,0.06408693
0.7137464,-0.1230354,0.1481416
0.6865806,-0.1175345,0.1880986
0.7171066,-0.137046,0.1738199
0.6872422,-0.1591996,0.2073947
0.6694259,-0.1785596,0.2860637
0.6621239,-0.1540078,0.3055985
0.5964958,-0.07571856,0.3263272
0.5945228,-0.008198841,0.345471
0.6640736,0.0388244,0.3706983
0.8199619,0.04737949,0.429181
1.054172,0.03625299,0.4714119
1.242811,0.005540682,0.5069967
1.448428,-0.1730558,0.4809183
1.713018,-0.3937858,0.4549039
1.746289,-0.4099801,0.4725148
1.334101,-0.3546292,0.3881449
0.8463709,-0.4465412,0.2393081
0.7319728,-0.5404717,0.1071509
0.9007907,-0.5179372,0.01952203
1.028083,-0.4617962,-0.04730242
1.054788,-0.3687353,-0.1240049
1.096275,-0.3148499,-0.1117129
1.029269,-0.3411093,-0.06828562
0.8567511,-0.2853633,-0.06133353
0.7673184,-0.1789765,-0.06459541
0.7361731,-0.1495778,-0.1040499
0.7971737,-0.1513581,-0.1284744
0.8471583,-0.1390763,-0.1486107
0.7969881,-0.1799882,-0.1257783
0.7992993,-0.2505622,-0.04519849
0.782963,-0.208815,-0.06484435
0.7514106,-0.1217481,-0.1029101
0.7334978,-0.07301291,-0.09666484
0.6905112,-0.01728708,-0.1202417
0.7495371,-0.003918751,-0.1184125
0.8745962,-0.007676598,-0.1235157
1.029638,-0.01088258,-0.1113342
1.162423,-0.03796316,-0.05693322
1.186332,-0.02233891,-0.05955596
1.268481,-0.01918236,-0.06936049
1.430728,-0.07152587,-0.08446359
1.586437,-0.1942472,-0.1658097
1.718306,-0.4043217,-0.2553461
1.709631,-0.4837166,-0.2738917
1.53318,-0.3743924,-0.2111732
1.253963,-0.2974791,-0.1716804
1.04243,-0.2934075,-0.1660029
1.034432,-0.2818051,-0.1449724
1.036696,-0.2436592,-0.1326357
0.9978526,-0.199279,-0.1035455
1.045122,-0.2124677,-0.07748328
1.057029,-0.2927994,-0.06122897
0.9776327,-0.3703399,-0.02239442
0.8921293,-0.3979343,-0.00193754
0.8264636,-0.3459011,-0.004845938
0.7663287,-0.252681,-0.002236811
0.6909026,-0.1783564,0.01640165
0.6569365,-0.1256608,0.02046144
0.6288929,-0.1404925,0.02432901
0.5667035,-0.1672183,0.0624468
0.5663499,-0.1576272,0.08275567
0.5880859,-0.1974667,0.1197476
0.6042981,-0.2255187,0.1703971
0.6719578,-0.2309492,0.1984562
0.7529915,-0.2520116,0.2962974
0.8137006,-0.2130314,0.3815454
0.8734198,-0.1599671,0.3719795
0.9950031,-0.133551,0.4073113
1.137599,-0.1414509,0.4626206
1.269443,-0.2333088,0.403861
1.531698,-0.4075963,0.2955818
1.72932,-0.5410027,0.2363399
1.540373,-0.4297658,0.2147731
1.170147,-0.2789001,0.1817042
0.8512001,-0.3364373,0.07962481
0.6989631,-0.359961,-0.02532897
0.8463456,-0.3444184,-0.03096225
0.9873593,-0.3843232,-0.01660085
1.000128,-0.3359538,-0.03717357
1.058884,-0.2885445,-0.03866759
0.9937207,-0.2502294,-0.03433679
0.8892626,-0.1457353,-0.0564188
0.8244182,-0.07466716,-0.06981745
0.7418848,-0.05511081,-0.07716337
0.8189956,-0.1079496,-0.1024664
0.8480028,-0.1739782,-0.1090692
0.8319688,-0.2059583,-0.1087159
0.9164563,-0.2739787,-0.1088036
0.8552906,-0.2653908,-0.09967528
0.7998564,-0.1940725,-0.1023746
0.8147179,-0.1702325,-0.09927906
0.7841972,-0.1121841,-0.1164362
0.8071081,-0.05441923,-0.1428026
0.8358715,-0.02595292,-0.14722
0.9341433,0.004654786,-0.1488977
1.095496,-0.02426344,-0.0896388
1.186594,-0.0438928,-0.02253276
1.234253,-0.01597645,-0.0625476
1.297197,-0.04270212,-0.1375505
1.473003,-0.169029,-0.1917763
1.631118,-0.3795194,-0.2654669
1.609433,-0.492005,-0.3116474
1.528246,-0.4281834,-0.2751858
1.386766,-0.3743434,-0.2030894
1.176879,-0.3089802,-0.1262597
1.068882,-0.2116868,-0.09639506
1.041374,-0.202032,-0.1241347
1.002551,-0.1786331,-0.10856
1.040193,-0.1445166,-0.07913751
1.065052,-0.2078188,-0.07263735
0.9481544,-0.2903056,-0.04440664
0.8398687,-0.371823,-0.02879891
0.808691,-0.411994,-0.01400373
0.7988548,-0.3645211,0.01117325
0.7665585,-0.3296335,0.01453439
0.7135836,-0.2670173,0.01531461
0.6876831,-0.1580599,0.02043144
0.6570339,-0.1528025,0.04206209
0.6373201,-0.1867843,0.07572274
0.6270017,-0.1643509,0.1143442
0.628934,-0.1915056,0.1578566
0.6754054,-0.2370623,0.1697649
0.694481,-0.225243,0.2230237
0.7502615,-0.2164852,0.335877
0.8361865,-0.1875929,0.3685118
0.894547,-0.1385105,0.3588982
1.024995,-0.1293961,0.396105
1.181504,-0.1680508,0.3969482
1.413686,-0.3019299,0.3240144
1.674027,-0.4734824,0.2448517
1.677739,-0.5043724,0.2129922
1.486555,-0.3570555,0.2030862
1.161656,-0.2481742,0.1414471
0.764818,-0.3321733,0.043294
0.6870022,-0.3935782,-0.005792123
0.8987307,-0.3579915,-0.001099724
1.026644,-0.3964015,-0.02031572
1.061093,-0.4190622,-0.05159817
1.038012,-0.3437357,-0.03198357
0.9342138,-0.2647686,-0.03266042
0.8642208,-0.2021799,-0.05852567
0.8175145,-0.1450889,-0.05665912
0.7655705,-0.06290356,-0.09077135
0.7747751,-0.02467077,-0.1103658
0.8230274,-0.1366736,-0.08614395
0.8569452,-0.2473601,-0.08574863
0.8510784,-0.2630277,-0.06850761
0.8156696,-0.2449301,-0.05744486
0.7698717,-0.1711641,-0.07631502
0.7526139,-0.09042258,-0.08380142
0.7761844,-0.04522322,-0.09316658
0.818066,-0.02029964,-0.09902731
0.9280097,-0.00556159,-0.1189918
1.039592,0.0066257,-0.1377105
1.079113,-0.02443253,-0.08608296
1.104742,-0.03233619,-0.02663186
1.11065,-0.001862281,-0.04515362
1.153027,-0.01224054,-0.08158103
1.305081,-0.08203547,-0.1144238
1.554561,-0.2388975,-0.2213749
1.796306,-0.3677246,-0.3184674
1.812083,-0.4255562,-0.2905809
1.554813,-0.4711505,-0.2319083
1.194088,-0.4202289,-0.2080335
1.005014,-0.3559675,-0.1838255
1.038264,-0.3411671,-0.1700883
1.024561,-0.2543665,-0.1609433
1.006828,-0.1684472,-0.1300588
1.089971,-0.1903207,-0.1059806
1.10675,-0.2368194,-0.09814431
1.034027,-0.2706435,-0.07745119
0.8919503,-0.3457495,-0.0382886
0.7822149,-0.3908405,0.004614002
0.7925127,-0.3356158,0.0137917
0.760636,-0.2573665,0.0105925
0.6945417,-0.2044902,0.04037935
0.6674038,-0.166262,0.05435018
0.6343258,-0.1454448,0.05725384
0.6396496,-0.1360588,0.0886519
0.6722565,-0.1257214,0.1224961
0.6976584,-0.1562833,0.160596
0.7223021,-0.2377148,0.196107
0.7210309,-0.2868669,0.2349332
0.7233749,-0.2791158,0.2773436
0.7465116,-0.2373902,0.2859727
0.7741976,-0.1785948,0.3036118
0.8298503,-0.1210603,0.3326459
0.9266419,-0.08606218,0.349502
1.070194,-0.0957508,0.3612125
1.226912,-0.1207907,0.3067977
1.330997,-0.1642087,0.2554639
1.429318,-0.2344511,0.2954182
1.551903,-0.2899912,0.3228376
1.478255,-0.308549,0.2825884
1.098229,-0.3459212,0.1861768
0.7733951,-0.4493012,0.04943194
0.791524,-0.4519152,-0.00571678
0.9193388,-0.3860962,0.04864623
0.9541473,-0.4147583,0.05627609
1.025397,-0.3669522,0.03717528
1.034859,-0.2866919,0.06024545
0.9113087,-0.2243312,0.02956162
0.9282141,-0.07167751,-0.01721815
0.9447372,-0.01075843,-0.06007893
0.8816397,-0.01757885,-0.1117982
0.9247618,-0.03911806,-0.1030247
0.8840408,-0.1536258,-0.107647
0.8629885,-0.2618619,-0.1027359
0.9150897,-0.3452695,-0.05962909
0.8749824,-0.3334227,-0.07303173
0.8906366,-0.2462672,-0.08313887
