accx,accy,accz
1.21002,-0.1032044,-0.2730356
1.199902,-0.1375231,-0.2830794
1.233389,-0.1873027,-0.3144509
1.339033,-0.294099,-0.3481286
1.315584,-0.4701822,-0.4784887
1.324511,-0.5886395,-0.5710168
1.275333,-0.6546049,-0.5420617
1.073844,-0.6039926,-0.5423762
1.003579,-0.4658302,-0.5936772
1.04279,-0.4392746,-0.592069
1.046264,-0.4640235,-0.5459502
0.9654597,-0.4932006,-0.4383539
0.8594735,-0.5732758,-0.2848586
0.840104,-0.5639759,-0.2700713
0.8078322,-0.4816836,-0.3289312
0.7085009,-0.4119315,-0.2931536
0.5696053,-0.3419286,-0.2772871
0.4862174,-0.3319958,-0.2769626
0.5191186,-0.3161442,-0.2428976
0.5506631,-0.2741505,-0.2671758
0.620737,-0.2892633,-0.2972619
0.6813869,-0.3193326,-0.2998944
0.609069,-0.3687729,-0.242357
0.5632784,-0.4137089,-0.09999544
0.6078512,-0.4178029,-0.06373764
0.6811038,-0.433687,-0.1416366
0.7809574,-0.4448529,-0.1859708
0.8623814,-0.4387561,-0.187843
0.8979964,-0.430055,-0.1379711
0.939026,-0.4312762,-0.07381892
1.012305,-0.467659,-0.05485257
1.092753,-0.5070874,-0.0797759
1.148401,-0.5279961,-0.1174059
1.144008,-0.5976788,-0.1655618
1.166573,-0.7119028,-0.2837367
1.222563,-0.7055862,-0.4056835
1.140838,-0.5894241,-0.4379063
0.9674851,-0.5449206,-0.4284784
0.8587143,-0.5735219,-0.4115518
0.9022651,-0.6106443,-0.4017319
1.034416,-0.6004347,-0.4331629
1.055935,-0.5169,-0.4681535
0.981876,-0.4213276,-0.4190577
0.8715164,-0.3790435,-0.3134464
0.7786936,-0.4243448,-0.2443607
0.7621688,-0.429925,-0.2352444
0.7091679,-0.33667,-0.2769383
0.6511877,-0.2561053,-0.3064351
0.6221518,-0.2106589,-0.3024512
0.5860463,-0.2331812,-0.2849427
0.5944338,-0.2789775,-0.2522172
0.6051737,-0.3183188,-0.2709878
0.6558018,-0.3783393,-0.3075758
0.7417745,-0.3304797,-0.3173427
0.79731,-0.2386612,-0.3467206
0.844249,-0.1983086,-0.3410853
0.8594509,-0.1553985,-0.3282305
0.9356442,-0.1468699,-0.3485688
1.038083,-0.1487099,-0.3417237
1.08153,-0.1659814,-0.3378729
1.167226,-0.1839755,-0.3229059
1.226573,-0.193531,-0.2890237
1.253625,-0.2877161,-0.3224068
1.301285,-0.3822271,-0.4360457
1.292611,-0.4838004,-0.5525752
1.234059,-0.6132927,-0.5595292
1.115956,-0.6012292,-0.5385532
1.008089,-0.5122627,-0.6008615
1.02053,-0.4686203,-0.5952799
1.043867,-0.4523332,-0.5267326
0.992206,-0.4676279,-0.4522616
0.9393865,-0.4999183,-0.3041893
0.9163475,-0.5092316,-0.2634539
0.8915005,-0.4532045,-0.3290543
0.8276081,-0.3698181,-0.3116028
0.7160419,-0.3592886,-0.3013487
0.6135122,-0.3882735,-0.2911646
0.5138239,-0.377201,-0.2503327
0.4845881,-0.3740859,-0.2611748
0.568807,-0.3663271,-0.2658455
0.5798456,-0.3146688,-0.2553101
0.5916412,-0.3091603,-0.2548483
0.6323429,-0.3497332,-0.2151828
0.5774016,-0.3901452,-0.1295406
0.6171249,-0.4202807,-0.08126962
0.6911748,-0.4321065,-0.1426074
0.7333094,-0.4682224,-0.1966376
0.82988,-0.4809338,-0.1652337
0.8715765,-0.4634361,-0.1549687
0.9491923,-0.4753026,-0.1614505
1.009578,-0.4680547,-0.1194466
1.026878,-0.4650804,-0.07235062
1.10632,-0.4905689,-0.06187665
1.110089,-0.5470183,-0.1248674
1.200255,-0.736769,-0.2731256
1.322553,-0.9127764,-0.4297769
1.215964,-0.8017503,-0.5018126
1.018774,-0.5998099,-0.4490282
0.7750061,-0.5944351,-0.3734941
0.7075271,-0.6544724,-0.3660616
0.8793258,-0.6723762,-0.3855393
0.9095413,-0.6302305,-0.4209173
0.8709586,-0.4945624,-0.4060217
0.8850144,-0.4126955,-0.3274363
0.8313079,-0.394772,-0.2770581
0.7590891,-0.3806797,-0.2395127
0.698068,-0.3597141,-0.2326417
0.6505352,-0.2587081,-0.2384486
0.6064327,-0.2052993,-0.2448431
0.5739285,-0.2375887,-0.2907663
0.6052646,-0.2918277,-0.2761302
0.6398256,-0.3859609,-0.2573633
0.68761,-0.4092105,-0.2860607
0.7496475,-0.38506,-0.2870704
0.7506284,-0.31629,-0.3260028
0.7855173,-0.1616247,-0.3546814
0.8833609,-0.1106684,-0.3613135
0.9869996,-0.1463519,-0.4011955
1.103502,-0.1308292,-0.3886174
1.167668,-0.1127599,-0.3658098
1.176623,-0.121252,-0.3639668
1.195399,-0.1912496,-0.3559794
1.227725,-0.3569613,-0.4017185
1.267807,-0.5264038,-0.479456
1.274559,-0.6670388,-0.5255086
1.168894,-0.7612501,-0.5186567
0.9762544,-0.6519548,-0.5185995
0.9070454,-0.477592,-0.5603111
0.9996177,-0.4958013,-0.5499417
1.016473,-0.5410202,-0.4800453
0.9307185,-0.5482391,-0.3735134
0.8777701,-0.5973614,-0.2584261
0.8699839,-0.5503829,-0.2548067
0.8354863,-0.4489716,-0.2970068
0.7090935,-0.3887851,-0.2833988
0.5767934,-0.3434474,-0.2807269
0.5505557,-0.3653111,-0.2794819
0.6098464,-0.3917342,-0.2772522
0.6515703,-0.3816996,-0.2967395
0.6134999,-0.3791953,-0.2842661
0.5849829,-0.3452902,-0.2336283
0.5928908,-0.3388133,-0.1831046
0.6117447,-0.3795176,-0.1929621
0.6742891,-0.4126338,-0.2197408
0.7125171,-0.4432704,-0.1863166
0.7425718,-0.4232104,-0.1831473
0.8287826,-0.3800029,-0.2030659
0.8843076,-0.3717029,-0.1867333
0.9143758,-0.3843565,-0.1736348
0.967258,-0.4227326,-0.145059
1.002795,-0.4550583,-0.1340815
1.059932,-0.5000481,-0.1663243
1.168356,-0.6112969,-0.2651591
1.285349,-0.8246918,-0.4328775
1.427144,-1.027774,-0.4569267
1.415848,-0.9669532,-0.3899383
0.961534,-0.8805251,-0.4192091
0.4546804,-0.9701588,-0.3794349
0.528991,-0.9349721,-0.3215571
0.8373827,-0.8682282,-0.4127093
0.8592154,-0.7639346,-0.4994317
0.8413821,-0.518094,-0.5013969
0.8623405,-0.4785148,-0.4472049
0.8587179,-0.4479962,-0.360396
0.9227112,-0.3440688,-0.3070517
0.8761603,-0.4529008,-0.30014
0.8136796,-0.4447239,-0.3122358
0.8030707,-0.3564602,-0.3108156
0.6968076,-0.3868439,-0.3086283
0.6803238,-0.3696229,-0.3109233
0.6908107,-0.4344776,-0.3009585
0.6657193,-0.4881203,-0.3206684
0.7000137,-0.4470962,-0.3521517
0.6967095,-0.4266234,-0.374267
0.7316316,-0.3052442,-0.4017088
0.7689134,-0.1903389,-0.3867063
0.7492861,-0.138265,-0.34498
0.7558188,-0.09005134,-0.3127368
0.7500748,-0.1131481,-0.2675632
0.7694761,-0.1202131,-0.2274161
0.8422567,-0.1232005,-0.2234464
0.982032,-0.1361928,-0.2630432
1.151755,-0.1210239,-0.2988064
1.231083,-0.1382952,-0.2584482
1.259492,-0.1579557,-0.182315
1.287681,-0.1889286,-0.1720799
1.344706,-0.2521746,-0.2840826
1.417621,-0.3782995,-0.4542519
1.371783,-0.5783937,-0.51881
1.153875,-0.7170769,-0.524128
0.9097099,-0.7458902,-0.6045975
0.8892017,-0.6554965,-0.6503548
1.017366,-0.5516147,-0.6055157
1.009955,-0.5971271,-0.5463943
0.9263336,-0.6142619,-0.453795
0.865165,-0.5309519,-0.3280261
0.82221,-0.5013047,-0.2830558
0.8288673,-0.476197,-0.3327136
0.7714721,-0.4326453,-0.3183479
0.669113,-0.3753574,-0.2738348
0.6067573,-0.2819334,-0.2810782
0.5372785,-0.252688,-0.2570914
0.5484852,-0.2749214,-0.2588708
0.6288912,-0.3141175,-0.2613719
0.6746184,-0.3937342,-0.2074602
0.6763551,-0.4297341,-0.1762548
0.6718895,-0.4161784,-0.1472416
0.7571535,-0.4077775,-0.1942966
0.8205866,-0.4112242,-0.2611154
0.832421,-0.4471592,-0.1803216
0.9105478,-0.4850948,-0.1142726
0.9325759,-0.4715267,-0.1259086
0.934701,-0.4495286,-0.1120784
1.009327,-0.4670215,-0.09509134
1.056631,-0.4656246,-0.08659795
1.084341,-0.4944927,-0.1161912
1.143435,-0.6744291,-0.2558705
1.222094,-0.8450259,-0.4380498
1.201128,-0.7980923,-0.472442
1.07346,-0.6923078,-0.4174399
0.9695265,-0.6840147,-0.4501999
0.8552791,-0.6459533,-0.4509683
0.8063912,-0.6508626,-0.3985726
0.8817937,-0.718873,-0.4234358
0.9357447,-0.6346071,-0.4547423
0.9499953,-0.5393951,-0.466635
0.8946776,-0.4822438,-0.4190279
0.8000602,-0.4102395,-0.2785835
0.7511892,-0.440379,-0.2264401
0.6596892,-0.3856682,-0.2652669
0.5797941,-0.2580507,-0.275073
0.5847666,-0.2171287,-0.2753643
0.5907176,-0.1930509,-0.2773268
0.6044136,-0.2344093,-0.2810334
0.6541891,-0.2941533,-0.2805566
0.7174881,-0.3157812,-0.2908298
0.7503982,-0.284649,-0.3166054
0.7608923,-0.1845604,-0.3346917
0.8257965,-0.1499635,-0.3544116
0.9217258,-0.1554933,-0.3648214
1.000733,-0.1764316,-0.3782156
1.098074,-0.2130104,-0.3774532
1.211227,-0.1699792,-0.3546786
1.296242,-0.1511382,-0.3515816
1.344724,-0.2257402,-0.3557354
1.394489,-0.3469589,-0.4380148
1.433878,-0.5017733,-0.547843
1.38383,-0.6547672,-0.5183349
1.274363,-0.7278043,-0.49177
1.081212,-0.6050143,-0.5542455
0.8376231,-0.446621,-0.564524
0.8709875,-0.4827136,-0.5429499
0.9898803,-0.567221,-0.5048219
0.8755443,-0.5990241,-0.3908457
0.8760854,-0.6078394,-0.3069638
0.8774775,-0.543549,-0.3171016
0.7211179,-0.4524788,-0.3126938
0.7391962,-0.3802125,-0.2884792
0.6655816,-0.3474248,-0.3024032
0.4309075,-0.342101,-0.2961877
0.3809004,-0.3152649,-0.27842
0.4301617,-0.3405921,-0.2810422
0.4954558,-0.360207,-0.2490397
0.5662415,-0.3434411,-0.2263562
0.6601248,-0.3831697,-0.2090552
0.7262609,-0.3725895,-0.1742401
0.7365729,-0.3606034,-0.2040393
0.8209241,-0.4113238,-0.2167207
0.8307233,-0.4451311,-0.186353
0.808434,-0.5240406,-0.1897841
0.858038,-0.5815805,-0.1701243
0.8522654,-0.5772302,-0.1363879
0.9116326,-0.5294602,-0.1136407
0.9527831,-0.3944671,-0.1138211
0.932468,-0.2977541,-0.1396323
0.9810243,-0.2946247,-0.1528509
0.9672047,-0.3960638,-0.2128954
0.9803084,-0.6384194,-0.295914
1.102599,-0.9225266,-0.3750827
1.220532,-1.048393,-0.4865237
1.223584,-0.8364143,-0.5133638
0.9989396,-0.5503939,-0.4460712
0.7814832,-0.5388802,-0.4140072
0.7881641,-0.67659,-0.4511381
0.8878832,-0.7739414,-0.4896154
0.9117342,-0.7257833,-0.4580194
0.8187485,-0.5716969,-0.399104
0.7448952,-0.4693441,-0.3331138
0.7401591,-0.4210275,-0.2697315
0.7293396,-0.4178229,-0.2282968
0.6989122,-0.4008777,-0.1842225
0.6753818,-0.3424847,-0.2098844
0.6464848,-0.2944107,-0.2483043
0.6065744,-0.2237279,-0.2198113
0.6308138,-0.2280326,-0.2387072
0.6771988,-0.2796099,-0.282633
0.7326029,-0.2803127,-0.3417143
0.8314863,-0.3239359,-0.4141771
0.8784531,-0.3467518,-0.41629
0.9074582,-0.345759,-0.4339226
0.9111274,-0.3360377,-0.4436093
0.8836997,-0.2624093,-0.4104394
0.9097173,-0.2363322,-0.4242904
0.9058592,-0.2251118,-0.4040512
0.918022,-0.2033238,-0.3696096
1.008525,-0.1959703,-0.3938214
1.081243,-0.1537908,-0.4029078
1.093823,-0.1580896,-0.3876436
1.082608,-0.1762487,-0.3058784
1.142356,-0.1671726,-0.1921223
1.166628,-0.2001485,-0.2156645
1.136816,-0.2898224,-0.3348381
1.213398,-0.4933886,-0.4544333
1.245187,-0.6537213,-0.545869
1.127578,-0.5795203,-0.5231293
0.9463533,-0.499559,-0.5140969
0.8559108,-0.5281029,-0.5929439
0.9765737,-0.5295623,-0.5636303
1.065292,-0.5631869,-0.5133988
1.007766,-0.5904547,-0.4871965
0.9430845,-0.5384366,-0.3665576
0.8611672,-0.5237206,-0.3390671
0.8023908,-0.5027168,-0.3810474
0.7788726,-0.4994417,-0.3486211
0.7005368,-0.5620526,-0.3234767
0.6362506,-0.5591218,-0.2848225
0.6363486,-0.5072815,-0.2748278
0.616253,-0.4023927,-0.3052483
0.607111,-0.2947135,-0.2991021
0.6323223,-0.2847444,-0.3079856
0.6295658,-0.2904199,-0.3025444
0.6488154,-0.3388099,-0.2592189
0.6961667,-0.4131307,-0.2269546
0.7276432,-0.4407108,-0.207549
0.7438916,-0.4549955,-0.1901552
0.7416296,-0.4530424,-0.1636681
0.7609908,-0.458495,-0.1665214
0.7821405,-0.4422712,-0.1739188
0.8052782,-0.4257144,-0.1578313
0.8765532,-0.4726591,-0.1615041
0.9235342,-0.5106038,-0.1335974
0.9265971,-0.5099286,-0.09252947
0.9772169,-0.4702973,-0.0949129
1.075048,-0.4337696,-0.105068
1.11022,-0.5044158,-0.1774906
1.146244,-0.7551715,-0.3255889
1.289177,-0.9915029,-0.4082329
1.296248,-0.803158,-0.3719489
1.033618,-0.4900295,-0.3618211
0.8207265,-0.5649632,-0.4153983
0.8896971,-0.7322034,-0.425941
0.9939628,-0.809125,-0.4805067
0.9304219,-0.8019435,-0.5437899
0.8889285,-0.5944041,-0.4557267
0.8388029,-0.4573784,-0.3552674
0.7616045,-0.4519328,-0.312193
0.806746,-0.4412825,-0.2848068
0.78356,-0.4451998,-0.2849819
0.7346759,-0.3889527,-0.2561623
0.7319552,-0.3517156,-0.2432874
0.616058,-0.2677315,-0.2289471
0.5417314,-0.1255347,-0.1656557
0.5527975,-0.163225,-0.1875313
0.6148576,-0.2275,-0.2678647
0.7267071,-0.2547936,-0.3186249
0.8186278,-0.3420452,-0.3552802
0.9111408,-0.3538632,-0.3496545
0.9108615,-0.2553148,-0.3501333
0.894786,-0.144466,-0.3737344
0.9325075,-0.1307843,-0.3793185
0.9406507,-0.1902073,-0.3867877
0.9769458,-0.2312376,-0.3755565
0.978148,-0.2410774,-0.3719697
1.021209,-0.2075614,-0.3896312
1.138935,-0.1774152,-0.3867011
1.159943,-0.2011209,-0.3875805
1.190207,-0.2659166,-0.3937068
1.274782,-0.3857958,-0.4384453
1.302418,-0.5668434,-0.4994548
1.166681,-0.660076,-0.4909183
0.9282508,-0.5542347,-0.5067075
0.878309,-0.4605073,-0.5674207
0.9717955,-0.5187631,-0.5633156
0.9891304,-0.5620453,-0.5158215
0.9462952,-0.5548072,-0.4527301
0.8740468,-0.5514787,-0.374257
0.7930543,-0.481104,-0.3235924
0.767812,-0.4106283,-0.2838236
0.7593792,-0.3845262,-0.2492294
0.6667361,-0.3262816,-0.2613882
0.5726765,-0.2941834,-0.2774161
0.5658001,-0.2874224,-0.2800677
0.5690904,-0.2935878,-0.2843065
0.5771742,-0.3451769,-0.2601075
0.6069671,-0.3785939,-0.2479902
0.6321244,-0.3928162,-0.245503
0.6440259,-0.4061013,-0.1987377
0.6704224,-0.4336705,-0.1539618
0.7428027,-0.444479,-0.1671115
0.781467,-0.4182856,-0.2079506
0.7996218,-0.438389,-0.2128514
0.8265784,-0.4395398,-0.2055331
0.8181737,-0.4235468,-0.1960291
0.8836076,-0.448492,-0.1608491
0.9448894,-0.4423603,-0.1461426
0.923143,-0.4631264,-0.1300775
0.9813214,-0.4939431,-0.1081084
1.043633,-0.4836728,-0.1369425
1.082513,-0.5426069,-0.2185076
1.190051,-0.7210284,-0.3420373
1.257426,-0.8798876,-0.4194223
1.202835,-0.769484,-0.3928264
1.026925,-0.5794347,-0.3597848
0.8457792,-0.6177133,-0.3787302
0.8049999,-0.6579919,-0.4251036
0.8807015,-0.6418116,-0.4956786
0.927871,-0.6462367,-0.5253129
0.8824474,-0.5385663,-0.4638585
0.846618,-0.4261231,-0.3948498
0.797792,-0.3780836,-0.3125593
0.7519418,-0.3574709,-0.2369449
0.7850186,-0.3660011,-0.2465351
0.7485487,-0.3070248,-0.252824
0.6755129,-0.2401782,-0.2485522
0.6571537,-0.2206673,-0.2449585
0.6364618,-0.2329744,-0.2195806
0.6454815,-0.2809705,-0.2471995
0.6636885,-0.2861109,-0.2806993
0.7180775,-0.3090145,-0.2982301
0.8019706,-0.3370681,-0.3240961
0.8010511,-0.281268,-0.3212712
0.8010178,-0.2110654,-0.3323077
0.8586438,-0.1510344,-0.3561066
0.9035053,-0.1554679,-0.3743083
0.9554902,-0.1930143,-0.3844697
1.008409,-0.177022,-0.3586632
1.024169,-0.1633723,-0.3403594
1.048946,-0.1230097,-0.3444675
1.107165,-0.1112614,-0.3567928
1.217053,-0.2493489,-0.4131929
1.353108,-0.4249921,-0.5169936
1.332505,-0.533216,-0.5793939
1.216184,-0.6213041,-0.5577437
1.14068,-0.6719225,-0.5564506
0.9934456,-0.6146023,-0.5903726
0.9674514,-0.5540952,-0.6029908
1.120636,-0.5379003,-0.6148633
1.122625,-0.5017418,-0.5842136
0.9927331,-0.5063433,-0.4816917
0.8358499,-0.4869779,-0.3485213
0.7749539,-0.4315176,-0.2518872
0.8133619,-0.4285285,-0.2548315
0.6764102,-0.3803436,-0.2715073
0.5288222,-0.3290198,-0.2542899
0.5077947,-0.3240697,-0.2658931
0.4920068,-0.3104447,-0.2653012
0.5366752,-0.3289946,-0.246158
0.5623877,-0.3435351,-0.2405128
0.5742186,-0.3438985,-0.2173161
0.6118151,-0.3513361,-0.1940769
0.6665872,-0.363635,-0.1941223
0.7895042,-0.4101915,-0.2340396
0.8105827,-0.4488515,-0.277629
0.8045613,-0.4750042,-0.2296351
0.8884633,-0.5055441,-0.1732606
0.8759127,-0.5027944,-0.1931774
0.8643361,-0.4743374,-0.1736432
0.9162779,-0.4640796,-0.1032867
0.9212128,-0.4676289,-0.07553046
0.9630734,-0.4537252,-0.08744978
1.047732,-0.4686505,-0.1230649
1.113641,-0.5854532,-0.2200252
1.211231,-0.815753,-0.394583
1.296494,-0.9447375,-0.500716
1.232556,-0.756865,-0.4400744
1.039613,-0.548366,-0.3890523
0.855979,-0.5725491,-0.4043158
0.821823,-0.6356411,-0.4041496
0.9283368,-0.6502993,-0.4220554
0.9499478,-0.6104555,-0.3971201
0.8868391,-0.4767929,-0.3363258
0.8441957,-0.3453552,-0.3235551
0.7593981,-0.3014029,-0.2483677
0.7151141,-0.3501564,-0.1616536
0.6669107,-0.3804608,-0.1859042
0.5504005,-0.3040866,-0.1942436
0.5273249,-0.2282079,-0.1680382
0.5284384,-0.1937585,-0.1919425
0.5335519,-0.1960006,-0.2303959
0.6357751,-0.2598123,-0.281669
0.7576875,-0.3244993,-0.3518681
0.8649237,-0.3711552,-0.3736316
0.932882,-0.3711534,-0.3590153
0.9870532,-0.3292853,-0.3645559
1.003892,-0.3032847,-0.3637466
0.9566824,-0.2437005,-0.3462966
0.975171,-0.1856767,-0.3218173
0.9896686,-0.1939996,-0.3005738
0.9800724,-0.1864331,-0.3205396
1.025668,-0.1182585,-0.3439342
1.054058,-0.09971618,-0.3379541
1.155955,-0.2171758,-0.3403071
1.29497,-0.3599337,-0.3498911
1.291019,-0.4139392,-0.3737377
1.25082,-0.4220328,-0.4459681
1.261327,-0.52932,-0.5194405
1.233711,-0.6638213,-0.5087986
1.127908,-0.5863746,-0.488218
1.012582,-0.4830611,-0.5535025
0.9828913,-0.4945468,-0.5856839
1.052629,-0.4462397,-0.5420115
1.081479,-0.4273306,-0.4911424
0.9828905,-0.4439192,-0.398447
0.8564996,-0.406627,-0.3109626
0.7633761,-0.4057488,-0.2895204
0.7412626,-0.4105341,-0.3059046
0.6994226,-0.4103796,-0.3246236
0.562691,-0.4188048,-0.2883332
0.5120815,-0.4018431,-0.2432286
0.5141142,-0.3780789,-0.2274271
0.5006791,-0.3171832,-0.2091532
0.5412994,-0.282005,-0.2157848
0.5686716,-0.3224265,-0.2168355
0.6194758,-0.3685658,-0.2028197
0.7001558,-0.4278201,-0.2082007
0.7770154,-0.4668345,-0.2216903
0.860087,-0.4748036,-0.2371139
0.8686021,-0.5038484,-0.2059727
0.877303,-0.5061228,-0.1642944
0.8980929,-0.4789804,-0.1797546
0.873846,-0.4698975,-0.1709012
0.9070941,-0.4816599,-0.1219188
0.9374294,-0.5038705,-0.08320562
0.9317952,-0.503225,-0.0532579
0.9686793,-0.4853411,-0.05814877
1.037039,-0.5073228,-0.1200893
1.175305,-0.6281403,-0.2529933
1.294707,-0.7716496,-0.4033605
1.258216,-0.7496443,-0.4578856
1.117481,-0.6684508,-0.4630336
0.9114516,-0.6999804,-0.469357
0.7780093,-0.7259168,-0.4390538
0.8684803,-0.7456358,-0.444062
0.9640352,-0.7525973,-0.4498055
0.928241,-0.641228,-0.3850389
0.9019453,-0.5077814,-0.3467855
0.855589,-0.3938552,-0.3212578
0.8211839,-0.3472604,-0.2860172
0.8344817,-0.3776752,-0.2808523
0.7586075,-0.3484923,-0.2659941
0.6731129,-0.3091307,-0.2415656
0.6082365,-0.2597958,-0.2113003
0.5521632,-0.2151258,-0.1948985
0.5862267,-0.2618519,-0.2189118
0.6114579,-0.2724569,-0.2559798
0.6717218,-0.2688457,-0.3035906
0.7814683,-0.3100679,-0.3437583
0.8213178,-0.3181822,-0.3534955
0.8578409,-0.3171081,-0.3472931
0.885629,-0.2934647,-0.37503
0.9209231,-0.2439916,-0.4194346
0.9669278,-0.2061661,-0.4088894
0.9439909,-0.1863885,-0.3937374
0.9440477,-0.1859969,-0.3908795
0.9712564,-0.1645986,-0.3745887
0.9702439,-0.134941,-0.3683963
0.9666189,-0.1282345,-0.3334803
0.9549868,-0.1609803,-0.291627
0.9798159,-0.2564613,-0.3143704
1.058348,-0.3492547,-0.3835298
1.184117,-0.4052531,-0.4722999
1.359085,-0.5083389,-0.5717121
1.447821,-0.6252692,-0.6207195
1.284127,-0.591266,-0.5678729
0.9830899,-0.4911852,-0.4813285
0.8541599,-0.4753688,-0.457662
0.5109626,-0.2605983,-0.2106363
0.5119225,-0.2608512,-0.1937395
0.5522493,-0.2885915,-0.2296151
0.6306218,-0.2948138,-0.2728994
0.7606342,-0.2468644,-0.3195398
0.9088875,-0.2065312,-0.368333
0.9486794,-0.1760612,-0.3575969
0.9344285,-0.1013675,-0.3683981
0.9772477,-0.02028177,-0.4104405
1.009146,-0.09672309,-0.3633323
1.048183,-0.1971578,-0.2780086
1.140203,-0.1370479,-0.2546669
1.247032,-0.1334334,-0.3038049
1.330769,-0.1946102,-0.3607703
1.314928,-0.2224699,-0.365109
1.277302,-0.3483369,-0.4284304
1.273783,-0.524131,-0.5582387
1.192042,-0.6632552,-0.5827454
1.120384,-0.6684425,-0.5798805
1.094647,-0.5210104,-0.6161102
1.070895,-0.4432132,-0.5702707
1.085965,-0.4193975,-0.5091274
1.004869,-0.40275,-0.4439685
0.8661718,-0.4506456,-0.3103743
0.8125454,-0.4706521,-0.2540354
0.7702209,-0.4726447,-0.2893744
0.6799853,-0.4436913,-0.2759931
0.5462969,-0.3824911,-0.237711
0.4914304,-0.3674539,-0.2359739
0.5233751,-0.3441325,-0.2385724
0.5247466,-0.3217836,-0.2380642
0.5600287,-0.3132494,-0.241685
0.62982,-0.3254096,-0.2333044
0.6743502,-0.390587,-0.2165867
0.6843403,-0.4365547,-0.1567912
0.6869675,-0.4425292,-0.09314525
0.7567873,-0.4115828,-0.1295319
0.8359581,-0.3946314,-0.1716763
0.8871307,-0.4208366,-0.1405046
0.9233729,-0.4201356,-0.1301071
0.9136823,-0.4230021,-0.1186246
0.9209441,-0.4374113,-0.05297739
0.9693703,-0.447785,-0.02227032
1.044195,-0.4654983,-0.06106624
1.149623,-0.5559611,-0.1622068
1.215245,-0.830036,-0.3330396
1.238281,-1.028668,-0.4320805
1.239283,-0.8618098,-0.3745253
1.17739,-0.5780024,-0.334664
1.099583,-0.4754374,-0.3722984
0.9763687,-0.5420065,-0.3724005
0.8184893,-0.6459705,-0.415063
0.8666209,-0.6693904,-0.5115215
0.9795813,-0.6477554,-0.4893222
0.9181627,-0.5897126,-0.4039209
0.8781535,-0.4192086,-0.327495
0.8211908,-0.3156753,-0.2768474
0.718694,-0.3486242,-0.3080701
0.7401637,-0.3741778,-0.3029978
0.7151691,-0.4023829,-0.2540433
0.6265722,-0.3672852,-0.239591
0.5830933,-0.2857905,-0.2182321
0.5452555,-0.2649396,-0.2242518
0.5748924,-0.2589172,-0.2447408
0.6126014,-0.2800989,-0.2693417
0.6649703,-0.3022097,-0.325906
0.7897021,-0.302979,-0.3444852
0.8675116,-0.2916723,-0.3495626
0.9374015,-0.2277601,-0.371697
1.030032,-0.1689955,-0.3709371
1.086637,-0.1421847,-0.3647544
1.128458,-0.1395056,-0.3410995
1.17071,-0.1430004,-0.3051434
1.216266,-0.149032,-0.3037376
1.231466,-0.2323583,-0.344135
1.256652,-0.3488722,-0.431359
1.288383,-0.4681719,-0.5277521
1.228468,-0.6113965,-0.5423237
1.124764,-0.661162,-0.5131289
1.031343,-0.5609857,-0.5508544
1.005337,-0.4410201,-0.5803062
1.051459,-0.4249882,-0.5368775
1.036877,-0.4583632,-0.4666607
0.9661252,-0.4705251,-0.3536266
0.9003438,-0.4729935,-0.2905994
0.8596436,-0.442944,-0.3288908
0.8045584,-0.391522,-0.3328397
0.6703725,-0.3492201,-0.3040943
0.5650645,-0.3260405,-0.2718993
0.5178101,-0.3164481,-0.2131897
0.5028005,-0.2939045,-0.2120945
0.5509419,-0.2750389,-0.2416696
0.5515632,-0.2761616,-0.2172463
0.5402872,-0.3187,-0.2008113
0.5735837,-0.3749638,-0.1823126
0.5914487,-0.395291,-0.151978
0.67412,-0.4462782,-0.1765573
0.747876,-0.5038713,-0.1801596
0.7891552,-0.4986141,-0.1464192
0.9100139,-0.4996799,-0.1350432
0.9698004,-0.4950702,-0.1174443
0.9763733,-0.4580046,-0.1058287
1.039121,-0.4766546,-0.08954131
1.076031,-0.505515,-0.07561111
1.115317,-0.4974276,-0.1015582
1.174697,-0.5671363,-0.1414693
1.164662,-0.6456308,-0.2115676
1.129964,-0.6103717,-0.3249836
1.110472,-0.5684245,-0.4496216
1.02854,-0.5672236,-0.4709125
0.8888016,-0.5737971,-0.3820996
0.7869937,-0.621439,-0.3597126
0.8569322,-0.6648688,-0.367648
1.041156,-0.6170717,-0.4236188
1.039449,-0.5018,-0.5337739
0.8823945,-0.3848207,-0.4248878
0.7354139,-0.3385345,-0.2494954
0.6174075,-0.3977271,-0.2257327
0.6176987,-0.4203993,-0.220998
0.6023855,-0.3208601,-0.2730491
0.5487313,-0.2108826,-0.3350723
0.5851979,-0.1741728,-0.3331455
0.6255988,-0.2486044,-0.3355393
0.7458637,-0.3713713,-0.3284015
0.8510165,-0.409804,-0.3516845
0.8047737,-0.3363007,-0.3696454
0.7957868,-0.1995956,-0.3398949
0.7961738,-0.1139004,-0.3096677
0.7731517,-0.1071273,-0.270375
0.8034851,-0.1073962,-0.2653993
0.8789999,-0.1269631,-0.2652464
1.012034,-0.1447608,-0.2314782
1.140149,-0.1113434,-0.1935152
1.229815,-0.04464479,-0.1266324
1.278449,-0.007906938,-0.09108263
1.283766,-0.06659975,-0.1147808
1.299764,-0.1954598,-0.1994392
1.308212,-0.3179211,-0.3851209
1.284128,-0.3914177,-0.5320778
1.219603,-0.5281185,-0.5872373
1.100018,-0.7167299,-0.6806164
1.039664,-0.6625237,-0.7345744
1.105282,-0.5539239,-0.6778265
1.120242,-0.6805619,-0.6100229
0.9922982,-0.7034633,-0.4494022
0.8376241,-0.6028384,-0.2692554
0.7461645,-0.55659,-0.3107534
0.7246241,-0.4353614,-0.354422
0.6823806,-0.3884277,-0.2916769
0.6103457,-0.4036828,-0.3092461
0.5820679,-0.3301067,-0.3065797
0.5498565,-0.2848251,-0.2891836
0.5488346,-0.2226456,-0.3186923
0.6248092,-0.2011409,-0.2913551
0.6729652,-0.2894249,-0.2608157
0.6595807,-0.3498322,-0.2277023
0.6452052,-0.4023817,-0.1596048
0.6876721,-0.4537926,-0.1259544
0.7742934,-0.4509648,-0.1546173
0.8533302,-0.4189096,-0.2134155
0.8830477,-0.4261456,-0.1880086
0.8882724,-0.4424447,-0.1384577
0.9508373,-0.4194915,-0.1381858
0.9833807,-0.438024,-0.08656707
0.9820282,-0.437264,-0.0572778
1.062447,-0.4182746,-0.06302455
1.120328,-0.4471173,-0.06545782
1.113949,-0.4646641,-0.1264301
1.052157,-0.5756798,-0.1791382
0.9750726,-0.7898961,-0.2280348
1.026428,-0.9148435,-0.2957173
1.047504,-0.8099103,-0.3994318
0.9028371,-0.6499681,-0.507207
0.8013653,-0.7061769,-0.4365912
0.859942,-0.7223455,-0.376966
0.9537313,-0.6192713,-0.5035895
0.9715718,-0.5842344,-0.5618976
0.9553137,-0.4752781,-0.5030243
0.8880406,-0.4077406,-0.4213558
0.7742223,-0.4654534,-0.3268713
0.7081133,-0.4727862,-0.2830455
0.637732,-0.439505,-0.294403
0.5742981,-0.3522831,-0.319032
0.5733705,-0.2834242,-0.3422926
0.6037511,-0.3270921,-0.3352764
0.6770981,-0.4052296,-0.3125446
0.7091323,-0.4250092,-0.3159312
0.6852749,-0.3240947,-0.3001401
0.7046154,-0.1681428,-0.2724143
0.7418581,-0.06112579,-0.2757647
0.8221387,-0.03216176,-0.2476022
0.9554045,-0.02290064,-0.2241563
1.078213,-0.01100091,-0.2416606
1.189485,-0.03660164,-0.2376373
1.252951,-0.05973266,-0.2434119
1.311876,-0.1324887,-0.2690048
1.391139,-0.2738743,-0.3271605
1.378788,-0.3881659,-0.4601392
1.352507,-0.4608427,-0.5653935
1.34221,-0.5555382,-0.5949063
1.216635,-0.702007,-0.6435672
1.106714,-0.6949307,-0.6599012
1.06554,-0.5755791,-0.5753023
0.9139921,-0.5540109,-0.4812464
0.7746266,-0.4735717,-0.3905432
0.8095075,-0.4462743,-0.3589714
0.8174108,-0.5103842,-0.3883949
0.7586956,-0.4474778,-0.3358594
0.7547794,-0.4452581,-0.3144056
0.6296469,-0.4279156,-0.3011291
0.4497008,-0.3310438,-0.2383438
0.4417443,-0.3541144,-0.2774693
0.4635861,-0.3291554,-0.2601048
0.513609,-0.3158215,-0.2103336
0.630677,-0.3878598,-0.2314736
0.6834958,-0.4103403,-0.1932743
0.6836426,-0.4514317,-0.1776668
0.7056508,-0.440639,-0.1536064
0.7992619,-0.4221255,-0.1342341
0.8677253,-0.4532328,-0.1503119
0.8858748,-0.4269445,-0.09205046
0.9255636,-0.4356928,-0.0946471
0.9411964,-0.4537415,-0.09337268
1.014087,-0.4511555,-0.03900141
1.094415,-0.503179,-0.08241261
1.117128,-0.6324213,-0.1444507
1.230765,-0.8394683,-0.2465512
1.283626,-0.870253,-0.3579393
1.119234,-0.7014879,-0.3703669
0.9388774,-0.6332771,-0.3423786
0.9068185,-0.6472212,-0.3126651
0.9171506,-0.6551533,-0.3888973
0.8914851,-0.654,-0.4835475
0.9421143,-0.6167653,-0.4260962
1.001355,-0.5492752,-0.3557538
0.9818398,-0.4506589,-0.3176762
0.9215108,-0.403748,-0.3027315
0.7994022,-0.3899033,-0.3249742
0.7129078,-0.3523166,-0.2899869
0.6599941,-0.3504065,-0.2560164
0.5597989,-0.295898,-0.242118
0.4978538,-0.2319897,-0.2125543
0.4890224,-0.2728878,-0.2375205
0.5703205,-0.3152868,-0.2659467
0.722834,-0.366476,-0.298571
0.78154,-0.3762046,-0.3487377
0.7791617,-0.2636987,-0.3306878
0.8028913,-0.1477747,-0.3274832
0.8476689,-0.08666762,-0.3574915
0.9477779,-0.107773,-0.3406317
1.080848,-0.1579737,-0.3287265
1.184072,-0.163554,-0.3128394
1.25865,-0.1701939,-0.2745214
1.307772,-0.1681064,-0.2617688
1.346353,-0.2094382,-0.2806266
1.397921,-0.287718,-0.379304
1.403128,-0.350539,-0.5143597
1.323738,-0.5299603,-0.5235106
1.159843,-0.6858281,-0.494699
0.9678445,-0.5772892,-0.5466035
0.9464066,-0.4386158,-0.5490524
1.035429,-0.4466785,-0.5156634
1.003016,-0.4306058,-0.4938011
0.9226033,-0.4203041,-0.3883115
0.865597,-0.4767219,-0.2942194
0.8302063,-0.4650094,-0.3150872
0.7645555,-0.4474272,-0.335203
0.5863576,-0.4483603,-0.2737755
0.5378008,-0.4213919,-0.2382314
0.5835151,-0.4303038,-0.2560422
0.4872972,-0.3841104,-0.2283717
0.5020707,-0.3160502,-0.2319606
0.6217543,-0.3117804,-0.2704391
0.649897,-0.3046689,-0.2569219
0.6473699,-0.3401957,-0.224183
0.6033432,-0.3949488,-0.168054
0.6098945,-0.4191387,-0.1568116
0.652684,-0.4505323,-0.1616045
0.6710132,-0.4737467,-0.1145184
0.7751015,-0.4605436,-0.1257651
0.8664184,-0.4168944,-0.1283077
0.9094987,-0.3834835,-0.09766197
0.9480457,-0.3594893,-0.102183
0.9814186,-0.3879512,-0.07433296
1.057812,-0.4691032,-0.06869196
1.093112,-0.5058192,-0.1202972
1.134937,-0.5939104,-0.2315339
1.254591,-0.7989637,-0.4236071
1.282641,-0.9300783,-0.5237488
1.037028,-0.8362341,-0.4588431
0.6957426,-0.7359412,-0.3409796
0.7285164,-0.837631,-0.2624227
0.9553611,-0.8532866,-0.3340764
0.9881824,-0.6978726,-0.4908279
0.970071,-0.5506074,-0.5089173
0.9213316,-0.4028036,-0.4001454
0.8779827,-0.363903,-0.304716
0.8563997,-0.3807787,-0.2742975
0.7853141,-0.3587215,-0.2987967
0.7890751,-0.3881639,-0.2934825
0.7184694,-0.3803364,-0.2810762
0.5802994,-0.3704879,-0.2934434
0.5549156,-0.3824311,-0.2720773
0.524975,-0.3436395,-0.2839187
0.5630667,-0.3422614,-0.3177816
0.6573507,-0.3380514,-0.3379553
0.7083258,-0.3222503,-0.3899672
0.7879773,-0.3097748,-0.4244999
0.8400377,-0.2562905,-0.4483635
0.8849059,-0.2366958,-0.4448048
0.9235708,-0.2108274,-0.3915331
0.9046725,-0.1662447,-0.3598802
0.880907,-0.1653152,-0.3425562
0.8589261,-0.1583446,-0.3077789
0.9045503,-0.1705289,-0.2520434
1.024996,-0.2031719,-0.2431603
1.123018,-0.1780269,-0.2642016
1.17335,-0.1126814,-0.2203823
1.22204,-0.07336811,-0.1930677
1.283877,-0.1241668,-0.194993
1.270303,-0.2601027,-0.2498493
1.257891,-0.3962338,-0.4139274
1.302036,-0.5230372,-0.505875
1.250235,-0.6073178,-0.4846221
1.115527,-0.5635587,-0.5052939
1.00131,-0.4765311,-0.6003556
1.04096,-0.4341272,-0.6571253
1.143432,-0.4514768,-0.6105552
1.048338,-0.5436878,-0.5391814
0.9273385,-0.5887781,-0.4241136
0.8187907,-0.5254102,-0.3132077
0.6836453,-0.4448769,-0.3312152
0.7095007,-0.4074463,-0.3524237
0.6620681,-0.396155,-0.3243791
0.5368752,-0.3653081,-0.3110431
0.5358441,-0.3348616,-0.2720323
0.515408,-0.2888465,-0.2519118
0.5525011,-0.2390666,-0.2756096
0.6284764,-0.2658476,-0.2669465
0.6805336,-0.3525083,-0.2312856
0.7606644,-0.4759817,-0.1884725
0.7330309,-0.5310537,-0.1455205
0.7251604,-0.4786657,-0.1336591
0.7918873,-0.4558756,-0.1380126
0.8034596,-0.4296618,-0.1563662
0.8587493,-0.4104263,-0.1711522
0.925197,-0.4457599,-0.1291874
0.9389925,-0.4354689,-0.07816347
0.941815,-0.4265957,-0.05803053
0.9582207,-0.4323463,-0.02802927
1.011918,-0.4017813,-0.0111089
1.0558,-0.4339149,-0.05818933
1.15702,-0.5960119,-0.1694883
1.359913,-0.7945054,-0.3246604
1.39276,-0.7884791,-0.4068983
1.083099,-0.6248909,-0.3202662
0.7868564,-0.5883378,-0.2260486
0.8494325,-0.6166279,-0.2285467
0.9573583,-0.637685,-0.266861
0.9047651,-0.6590778,-0.3571006
0.9563984,-0.5858501,-0.4300659
0.9815769,-0.485631,-0.4475284
0.8730259,-0.4167006,-0.4551945
0.8242919,-0.4050449,-0.394788
0.7361736,-0.4420944,-0.3068929
0.6483528,-0.4300883,-0.246467
0.6040567,-0.3827615,-0.213009
0.4955661,-0.2898765,-0.2196127
0.4759293,-0.2015712,-0.2136819
0.504979,-0.1895907,-0.2223093
0.5202971,-0.1893747,-0.2492117
0.6146932,-0.2112185,-0.2625448
0.7262414,-0.2379936,-0.3169135
0.8480773,-0.261064,-0.3743311
0.9479353,-0.3036171,-0.3907906
0.9948513,-0.2957682,-0.380689
1.000747,-0.2346812,-0.3666614
1.008612,-0.1612145,-0.368605
1.101415,-0.1350917,-0.3587744
1.205315,-0.1618732,-0.3536596
1.332884,-0.1904712,-0.358134
1.413808,-0.280975,-0.3819184
1.337648,-0.4182581,-0.4486918
1.275539,-0.530021,-0.4858958
1.167369,-0.5977851,-0.4885063
1.023814,-0.5620835,-0.5074722
1.046832,-0.4921606,-0.5471497
1.063061,-0.4824984,-0.5797865
1.022623,-0.4698789,-0.5471503
1.001329,-0.4535048,-0.4617478
0.8698294,-0.4491272,-0.3422098
0.7504232,-0.4337423,-0.2429822
0.7806324,-0.4350892,-0.2457954
0.7543248,-0.4194016,-0.2610501
0.6140603,-0.3790429,-0.2629287
0.5200704,-0.3467321,-0.2934502
0.4908198,-0.3096687,-0.2635617
0.4967083,-0.3023771,-0.2171943
0.5209666,-0.3321359,-0.2300981
0.5489203,-0.3908174,-0.2361281
0.6047219,-0.4507252,-0.2317884
0.6347292,-0.4435485,-0.216593
0.6985021,-0.4286673,-0.1895789
0.8249992,-0.4454221,-0.1976431
0.8236819,-0.4445096,-0.195477
0.834726,-0.4425855,-0.1490252
0.9633159,-0.4466958,-0.1090389
0.9896934,-0.4443292,-0.09176798
1.053612,-0.4462112,-0.07731351
1.184673,-0.4602289,-0.07470477
1.18804,-0.5431501,-0.1479948
1.233,-0.7420795,-0.3027588
1.29361,-0.8897701,-0.4273868
1.219178,-0.8077569,-0.4496593
1.079524,-0.656511,-0.4066766
0.855273,-0.6092719,-0.3901635
0.7491835,-0.6485398,-0.4350991
0.8752483,-0.7303329,-0.4511296
0.9255535,-0.708095,-0.3841713
0.8927522,-0.5670046,-0.3232574
0.8426101,-0.4007937,-0.3350473
0.6870217,-0.228203,-0.3361955
0.588675,-0.2135136,-0.2777807
0.5599169,-0.2907328,-0.2332496
0.4989515,-0.2909106,-0.2150814
0.4958887,-0.3110716,-0.2317894
0.5247384,-0.2974953,-0.275564
0.5752974,-0.2771725,-0.2730262
0.6685478,-0.3171769,-0.2750097
0.7342024,-0.3212299,-0.2986859
0.8404533,-0.3301884,-0.3160461
0.9612974,-0.3043315,-0.3663094
0.9800494,-0.2365747,-0.3798677
1.00646,-0.1957564,-0.3598854
1.072045,-0.1582204,-0.3709649
1.106454,-0.1675198,-0.3685725
1.184944,-0.2048095,-0.3585474
1.256132,-0.2610017,-0.3328325
1.236113,-0.3027659,-0.2963258
1.233997,-0.2646211,-0.3171874
1.231127,-0.2745177,-0.3737932
1.160711,-0.3761728,-0.4214929
1.068849,-0.4697084,-0.463508
1.011625,-0.4752942,-0.5433278
1.078667,-0.4474041,-0.6649064
1.18941,-0.517145,-0.7286947
1.216357,-0.5924903,-0.7048552
1.156495,-0.5943616,-0.5967086
0.9602676,-0.5365015,-0.3845469
0.7583787,-0.4210335,-0.2301793
0.7431846,-0.3764365,-0.2383032
0.7767073,-0.3902982,-0.2857136
0.6648596,-0.3725582,-0.3216041
0.4904419,-0.3529493,-0.3251748
0.4032829,-0.3161794,-0.2853592
0.400692,-0.3037085,-0.2519543
0.483942,-0.3448387,-0.2174219
0.5795882,-0.377219,-0.2079805
0.6047995,-0.3868298,-0.2150238
0.7008483,-0.3884061,-0.2096107
0.8277075,-0.4297669,-0.2217356
0.8316111,-0.5147896,-0.20014
0.8569904,-0.5632915,-0.1623316
0.9408518,-0.5327438,-0.1504343
0.94728,-0.4776033,-0.1223207
0.9732802,-0.4527486,-0.08173743
1.061025,-0.4175421,-0.03269747
1.077237,-0.4031697,-0.05227859
1.081526,-0.5099442,-0.1910768
1.133634,-0.7170403,-0.3755058
1.154018,-0.8478922,-0.5036442
1.108702,-0.7627562,-0.4713719
0.989844,-0.6507828,-0.412298
0.8528222,-0.6378763,-0.4198378
0.799418,-0.6017822,-0.3978108
0.880393,-0.6032701,-0.4174435
0.9838762,-0.6011659,-0.4365575
0.979816,-0.4956454,-0.4016088
0.9355655,-0.4188161,-0.3774272
0.8645521,-0.3777129,-0.3023425
0.7620628,-0.3758459,-0.2629841
0.6868793,-0.4041773,-0.2895856
0.6261435,-0.3743675,-0.2671384
0.6082692,-0.3628988,-0.2532029
0.6072872,-0.3428465,-0.2635169
0.5977461,-0.3072791,-0.2657594
0.6144015,-0.3264536,-0.2621179
0.6256325,-0.3129435,-0.2494857
0.6564846,-0.2918334,-0.247504
0.6920515,-0.2563084,-0.2539897
0.7276688,-0.169681,-0.2780986
0.8412808,-0.1299281,-0.3139947
0.9674783,-0.1092729,-0.3535015
1.061193,-0.1178424,-0.3632435
1.182313,-0.1603709,-0.3170414
1.277992,-0.1397816,-0.2922899
1.267522,-0.140107,-0.2826391
1.271992,-0.2074791,-0.2839849
1.346879,-0.2912362,-0.3685896
1.343238,-0.4352459,-0.4624308
1.288188,-0.5643593,-0.4865033
1.16443,-0.549787,-0.5256373
0.9632596,-0.4782994,-0.6472733
0.9384701,-0.4711665,-0.7102125
0.9944766,-0.4891135,-0.6292209
0.9400721,-0.5122615,-0.4991803
0.9059403,-0.5483115,-0.3569956
0.8765213,-0.5178109,-0.2951941
0.8196916,-0.4426749,-0.2875547
0.8166928,-0.3971604,-0.2517727
0.7773182,-0.3593424,-0.3143935
0.6252313,-0.3117028,-0.3424269
0.7050244,-0.4716828,-0.1293748
0.7510155,-0.4861724,-0.105624
0.7988242,-0.5159395,-0.1088371
0.9008452,-0.5055539,-0.1218544
0.9611579,-0.4920833,-0.1045327
0.9591922,-0.4626549,-0.07966795
0.9849314,-0.426725,-0.04107333
1.047903,-0.4353138,-0.03128757
1.123697,-0.4372768,-0.09037239
1.181919,-0.5117038,-0.1470688
1.248652,-0.759113,-0.2260395
1.317231,-0.9376018,-0.3443907
1.227407,-0.7717157,-0.40318
0.9777132,-0.5363628,-0.3785261
0.8081707,-0.5746613,-0.3418519
0.8012549,-0.6573087,-0.3422578
0.8996868,-0.6858428,-0.361975
0.98523,-0.7089667,-0.3894272
0.9342995,-0.534782,-0.3869435
0.877685,-0.3452819,-0.3629458
0.8546051,-0.3506897,-0.3636407
0.7636761,-0.3912267,-0.2948043
0.6693929,-0.3908522,-0.1887154
0.6218721,-0.36464,-0.1773819
0.636287,-0.3060307,-0.2192066
0.6212163,-0.1775593,-0.258111
0.5648205,-0.1096751,-0.2684131
0.6018975,-0.1929585,-0.2558716
0.6329199,-0.2415236,-0.2461511
0.6683047,-0.261548,-0.249804
0.7787236,-0.2891795,-0.2813835
0.8573367,-0.268785,-0.3139777
0.9368739,-0.2363368,-0.3497907
0.9946483,-0.1609563,-0.3837635
1.042017,-0.1156614,-0.3778603
1.147255,-0.12867,-0.3367005
1.197646,-0.07311874,-0.306077
1.23502,-0.03701587,-0.3370053
1.313609,-0.1725133,-0.3955406
1.366089,-0.3960663,-0.4860735
1.388084,-0.5464982,-0.591598
1.330895,-0.6587722,-0.5802114
1.215516,-0.7483606,-0.5659845
1.098795,-0.6809038,-0.6341694
1.016093,-0.5602785,-0.5695679
0.9935211,-0.5138955,-0.4508258
0.9255988,-0.4683942,-0.4152091
0.8291693,-0.4728548,-0.3052671
0.8024268,-0.5012481,-0.2218781
0.7946484,-0.461547,-0.2505136
0.7332173,-0.4252589,-0.2261366
0.5878743,-0.3454081,-0.2096187
0.4670629,-0.2453583,-0.2393954
0.4617693,-0.2485027,-0.2372401
0.5108409,-0.2709432,-0.2185113
0.571894,-0.3133765,-0.1835857
0.5959992,-0.3908523,-0.1559983
0.6065166,-0.4095241,-0.1294173
0.660179,-0.4010045,-0.1031856
0.7345363,-0.4188472,-0.1397948
0.8327401,-0.4604846,-0.1785631
0.8869577,-0.4675419,-0.1430825
0.8958393,-0.4385022,-0.09392841
0.9660471,-0.4264632,-0.07018022
1.027473,-0.3919563,-0.0445217
1.053617,-0.3614821,-0.03997277
1.118605,-0.3804881,-0.08520996
1.179812,-0.4777812,-0.1759979
1.196269,-0.6734665,-0.2963451
1.134003,-0.8190519,-0.4219227
1.039815,-0.8337344,-0.5142003
1.014794,-0.7777479,-0.4810933
0.9614758,-0.6852321,-0.4219872
0.8938538,-0.6248624,-0.4832417
0.9737659,-0.6193538,-0.4993054
1.071301,-0.5777765,-0.4603455
1.042159,-0.4878346,-0.4436305
0.9586049,-0.4576324,-0.3355679
0.852739,-0.4711305,-0.2545267
0.7408696,-0.4511034,-0.2674856
0.635707,-0.4194482,-0.2495277
0.5420439,-0.3487908,-0.2384531
0.5261796,-0.2659278,-0.2558462
0.542902,-0.2446013,-0.275659
0.559485,-0.238107,-0.302301
0.630733,-0.2331584,-0.3312379
0.6781422,-0.2253867,-0.3646862
0.728229,-0.2129924,-0.3752933
0.8215401,-0.2399582,-0.3360536
0.8462283,-0.2552453,-0.2708802
0.8966502,-0.2073589,-0.2594037
1.046994,-0.1315734,-0.3115934
1.183051,-0.08064616,-0.3512255
1.249519,-0.08117412,-0.3460393
1.239313,-0.1484476,-0.3260589
1.209001,-0.2690763,-0.3538277
1.198313,-0.365442,-0.4433676
1.20857,-0.4823691,-0.5321752
1.222811,-0.614816,-0.538612
1.177117,-0.5671005,-0.566534
1.135575,-0.4785916,-0.6916114
1.140959,-0.5300933,-0.6530532
1.073156,-0.5135431,-0.4836278
0.9396393,-0.4649945,-0.4105475
0.8852585,-0.5002631,-0.373137
0.8913583,-0.4781369,-0.3676465
0.8503863,-0.4624779,-0.3287903
0.81942,-0.4746944,-0.2981015
0.7447135,-0.4083091,-0.337213
0.5347361,-0.3258782,-0.2533674
0.4456668,-0.2635674,-0.2144125
0.50531,-0.2257339,-0.2600461
0.4755906,-0.1902045,-0.2149381
0.4811715,-0.2314028,-0.2204693
0.5852541,-0.4083264,-0.2094445
0.622118,-0.4990422,-0.1572136
0.6136653,-0.4802753,-0.1491986
0.6510064,-0.4454082,-0.1399263
0.7545773,-0.3961636,-0.1707154
0.8634039,-0.4310802,-0.1696992
0.9190165,-0.4883531,-0.1306876
0.9507633,-0.5319093,-0.0925918
0.9993666,-0.5701283,-0.05429701
1.089286,-0.5150504,-0.08677593
1.133124,-0.5076771,-0.1275373
1.154385,-0.6499253,-0.2474482
1.271359,-0.7958716,-0.4727942
1.26798,-0.7967368,-0.5526168
1.027309,-0.7053326,-0.4481546
0.7869435,-0.6991412,-0.3443127
0.7597741,-0.7390912,-0.3549905
0.9122423,-0.7502782,-0.4027404
0.9692496,-0.705882,-0.4113173
0.9315743,-0.5614835,-0.3726508
0.9061228,-0.4396317,-0.3014322
0.7945672,-0.3700438,-0.3081793
0.6995106,-0.2910737,-0.3084099
0.6777227,-0.2571293,-0.2534753
0.6746692,-0.2738379,-0.2731817
0.6908313,-0.2993862,-0.2827123
0.703951,-0.3327888,-0.2796368
0.7656828,-0.3837757,-0.3240256
0.8035195,-0.3848893,-0.3688889
0.7921712,-0.3441441,-0.4205292
0.8101948,-0.3435866,-0.3882956
0.7867966,-0.3241754,-0.3055914
0.7501552,-0.2619293,-0.2921738
0.7479872,-0.1613856,-0.3009467
0.7591741,-0.078874,-0.3429674
0.7926283,-0.1085242,-0.3674123
0.8310067,-0.1390822,-0.3078401
0.8793299,-0.1369134,-0.2598929
0.9386123,-0.137705,-0.2433379
1.0299,-0.106828,-0.2153383
1.120676,-0.1179002,-0.1915906
1.163762,-0.1937618,-0.2259222
1.230221,-0.308657,-0.3380479
1.290813,-0.4154821,-0.4855224
1.283198,-0.4802409,-0.5874005
1.204355,-0.5818779,-0.6074811
1.065882,-0.6326765,-0.6462064
1.014794,-0.5894037,-0.6686072
1.06826,-0.6214785,-0.6162152
1.060528,-0.665686,-0.5746873
0.9672548,-0.6334241,-0.4580062
0.8499891,-0.5956626,-0.3385101
0.7790253,-0.5219817,-0.3559422
0.7723501,-0.4458036,-0.3511803
0.7369737,-0.4208209,-0.3291636
0.670744,-0.3826166,-0.3285528
0.6289332,-0.3440746,-0.298334
0.5842084,-0.308352,-0.3043527
0.5611805,-0.2609487,-0.3096562
0.6023244,-0.2742641,-0.2863815
0.6439611,-0.3288551,-0.2734158
0.6381738,-0.3622031,-0.2440458
0.6353305,-0.3798087,-0.1859614
0.6719823,-0.3789585,-0.1346746
0.7131649,-0.3823314,-0.1512332
0.7617678,-0.4014519,-0.1867159
0.8230223,-0.4189852,-0.1749006
0.8476223,-0.4459467,-0.1615627
0.8967245,-0.4636866,-0.1425991
0.980874,-0.4534458,-0.1292413
0.9630272,-0.440328,-0.135804
0.9383177,-0.4549766,-0.1062404
1.032327,-0.4685157,-0.07356555
1.141447,-0.4340089,-0.07497121
1.235508,-0.4419271,-0.138439
1.265083,-0.590184,-0.2816481
1.224804,-0.7714103,-0.3655924
1.188976,-0.7836797,-0.3518078
1.017338,-0.6805857,-0.3537882
0.8103141,-0.6848896,-0.3640856
0.8165149,-0.750815,-0.3600138
0.9190206,-0.7828492,-0.415483
0.9758094,-0.755381,-0.4924059
0.9239914,-0.6199814,-0.4579061
0.8206226,-0.4899147,-0.3518779
0.7619734,-0.424259,-0.2559
0.6722829,-0.4088454,-0.2050084
0.5906258,-0.3865464,-0.2276219
0.5565625,-0.2654277,-0.2220893
0.5052948,-0.1628663,-0.2063562
0.4711739,-0.1241349,-0.2412656
0.4966805,-0.1434056,-0.2467434
0.5980447,-0.2375849,-0.2861162
0.7663733,-0.3102196,-0.3662579
0.911596,-0.3490218,-0.4031177
0.9263475,-0.3142178,-0.4217354
0.9274777,-0.2532348,-0.423454
1.029832,-0.2334825,-0.4238444
1.097416,-0.1897732,-0.3840638
1.197442,-0.1785714,-0.3216445
1.351852,-0.1425204,-0.3517078
1.373594,-0.1029671,-0.3751218
1.323117,-0.1660946,-0.3553767
1.24384,-0.2301653,-0.3984762
1.168049,-0.3451966,-0.4477388
1.153583,-0.4896842,-0.4726841
1.090177,-0.5990975,-0.549056
1.019909,-0.6795993,-0.6570221
1.032449,-0.641864,-0.6729909
1.036963,-0.643237,-0.5729214
0.9663786,-0.6488374,-0.4291826
0.8875155,-0.5227955,-0.2935656
0.8563377,-0.4749092,-0.2820394
0.8337693,-0.4543103,-0.338888
0.7453629,-0.3938924,-0.3067875
0.5833272,-0.3550222,-0.299687
0.5238075,-0.2775031,-0.2988993
0.5288703,-0.2339693,-0.2350115
0.4711485,-0.2262073,-0.2436524
0.5028066,-0.2561267,-0.2274427
0.5271763,-0.3413838,-0.1402752
0.5290242,-0.3681044,-0.1096468
0.6147746,-0.3745883,-0.1189311
0.5944751,-0.4020226,-0.1557746
0.6200308,-0.4394161,-0.1686482
0.7781807,-0.4678826,-0.1593392
0.8608386,-0.4330234,-0.1815063
0.9309594,-0.4172006,-0.1817059
1.011636,-0.4336418,-0.1581819
1.13607,-0.4287251,-0.1238056
1.273538,-0.4400278,-0.1305372
1.268087,-0.4965254,-0.2008727
1.239856,-0.6794939,-0.2852439
1.241119,-0.9090231,-0.380951
1.1995,-0.895489,-0.4174454
1.124562,-0.703356,-0.4271647
0.9590338,-0.6077986,-0.4457515
0.7838403,-0.5841999,-0.4112332
0.8001048,-0.5960358,-0.408891
0.9373204,-0.6167254,-0.4156995
0.9809677,-0.5463844,-0.4171519
0.9283125,-0.475489,-0.4465805
0.8436591,-0.4379684,-0.3632832
0.760077,-0.4520964,-0.2622536
0.7084143,-0.4931683,-0.2659765
0.6261392,-0.376997,-0.2588382
0.5424142,-0.2264757,-0.2469656
0.5081231,-0.1639589,-0.2607211
0.4955236,-0.1679687,-0.2585002
0.5398119,-0.280214,-0.2464397
0.6057471,-0.3948239,-0.2479276
0.6447799,-0.4535486,-0.2622893
0.6730261,-0.372071,-0.2984183
0.7422124,-0.1548063,-0.3653488
0.8568468,-0.03187371,-0.3885128
0.9267294,-0.06454093,-0.3653897
1.062927,-0.15456,-0.366801
1.228709,-0.1519895,-0.3359528
1.210321,-0.1342248,-0.2672387
1.212949,-0.1999964,-0.2705424
1.307323,-0.2853505,-0.369957
1.371123,-0.4757351,-0.5026188
1.435419,-0.6166321,-0.578168
1.312901,-0.6237528,-0.5706432
1.040746,-0.5807707,-0.5676271
0.8999624,-0.4283475,-0.595952
0.9188535,-0.4032276,-0.609345
1.05247,-0.4937462,-0.6112912
1.139888,-0.5320041,-0.6100404
1.121243,-0.59441,-0.6110925
1.087582,-0.5701614,-0.5752143
0.971422,-0.5428403,-0.4180705
0.7794884,-0.5363998,-0.2513705
0.6066331,-0.4221757,-0.2755855
0.4825384,-0.3649749,-0.3423926
0.4303813,-0.3519696,-0.2833634
0.4819146,-0.3044741,-0.2874895
0.5363319,-0.2767598,-0.3151947
0.5170983,-0.2719544,-0.2405781
0.5447276,-0.3028612,-0.2195566
0.5538445,-0.3434351,-0.2011893
0.5510086,-0.4039375,-0.165123
0.6568427,-0.4625361,-0.1553392
0.7601007,-0.4482442,-0.104019
0.8810195,-0.3929008,-0.1365604
0.9605783,-0.3583524,-0.1656894
0.9600719,-0.3860105,-0.08040411
1.052209,-0.4157522,-0.03866662
1.1231,-0.3892771,-0.0436728
1.124706,-0.4509791,-0.120402
1.168779,-0.7522117,-0.306051
1.21593,-1.04323,-0.4670069
1.15958,-0.9201274,-0.4564121
0.8958629,-0.7034345,-0.3849824
0.641455,-0.8130655,-0.3986942
0.7047462,-0.9331489,-0.3386224
0.8988913,-0.977181,-0.3414833
0.927889,-0.9219279,-0.4641058
0.8788709,-0.6076018,-0.4503407
0.8223111,-0.433843,-0.4597726
0.7556184,-0.4328991,-0.4033779
0.7788075,-0.4464406,-0.2494286
0.781564,-0.5553599,-0.3167188
0.7397756,-0.5192799,-0.3483864
0.7155631,-0.4536479,-0.3033442
0.6479866,-0.4242333,-0.3646157
0.6391245,-0.3502606,-0.3432207
0.6483688,-0.4257081,-0.308094
0.626492,-0.4360722,-0.3199756
0.6383501,-0.37754,-0.3200353
0.6157679,-0.3396991,-0.354627
0.6199537,-0.177769,-0.3688962
0.6476878,-0.07755495,-0.3779143
0.6645112,-0.06484601,-0.3836422
0.7362787,-0.1189368,-0.3413883
0.8034573,-0.1846376,-0.3229268
0.8904365,-0.09626652,-0.3379344
1.035782,-0.01489323,-0.3315307
1.154096,-0.004137573,-0.2557673
1.201614,-0.0317184,-0.1319567
1.261447,-0.1107208,-0.0955142
1.410722,-0.1791268,-0.1694834
1.516788,-0.2232199,-0.2823784
1.496731,-0.2434681,-0.4208776
1.430668,-0.3836809,-0.4918298
1.318653,-0.6311584,-0.454976
1.112994,-0.6974653,-0.483171
0.9638786,-0.6166662,-0.6009177
1.085214,-0.6085633,-0.6935467
1.189966,-0.6445572,-0.7263296
0.9560745,-0.6344126,-0.5390715
0.6963172,-0.606788,-0.2400106
0.6243114,-0.557265,-0.2306063
0.6160894,-0.4828124,-0.3470956
0.6251635,-0.4464557,-0.3455537
0.5907954,-0.3993784,-0.3662032
0.5253059,-0.2901365,-0.3347317
0.4692239,-0.1812129,-0.2442294
0.438656,-0.1511081,-0.2303567
0.5206156,-0.2096961,-0.2192658
0.6572935,-0.2960055,-0.2136826
0.7665869,-0.4229204,-0.2215141
0.8070054,-0.5133016,-0.2085048
0.7771773,-0.485568,-0.2109248
0.8289245,-0.4915641,-0.1792622
0.9082012,-0.5130932,-0.1410032
0.9085338,-0.484671,-0.1572569
0.9128976,-0.4752738,-0.1600458
0.943283,-0.4230596,-0.1328996
1.016182,-0.3698618,-0.09922665
1.059682,-0.368989,-0.07972411
1.01664,-0.4249086,-0.1307831
1.018588,-0.6677746,-0.2750603
1.099747,-0.9126868,-0.4408671
1.15482,-0.8414281,-0.5129214
1.07189,-0.6334048,-0.4969577
0.9404265,-0.5704498,-0.4852305
0.9407397,-0.5818486,-0.4868194
1.008496,-0.6093772,-0.5015029
1.074894,-0.6343651,-0.5425358
1.102109,-0.5800698,-0.538175
0.9856089,-0.5274466,-0.4536969
0.7854386,-0.4770211,-0.3317599
0.6066094,-0.4357692,-0.2356989
0.4887939,-0.4231969,-0.214521
0.4637588,-0.3008143,-0.2136099
0.4764868,-0.1594755,-0.24086
0.4963691,-0.1064379,-0.310195
0.563731,-0.1722842,-0.3161796
0.651548,-0.3165953,-0.306462
0.7328074,-0.3325949,-0.3201012
0.7892538,-0.3085521,-0.3051582
0.7940287,-0.2758533,-0.3317461
0.8483039,-0.1592773,-0.394305
0.9974355,-0.1259407,-0.4326158
1.135424,-0.164561,-0.4347124
1.222896,-0.1852939,-0.3954781
1.25289,-0.1746162,-0.365755
1.275722,-0.1768164,-0.3560973
1.331703,-0.2550129,-0.3897809
1.337446,-0.3548689,-0.4869779
1.320863,-0.4954285,-0.5566737
1.273221,-0.6054726,-0.5865346
1.12413,-0.5742171,-0.6431463
1.055226,-0.5155903,-0.697634
1.149638,-0.4989552,-0.6665201
1.167883,-0.5009973,-0.5843801
0.9549337,-0.5265951,-0.4578079
0.7278812,-0.5586487,-0.2606945
0.7465767,-0.542016,-0.242342
0.8002506,-0.4882467,-0.3443336
0.6914914,-0.4230036,-0.2915841
0.6138958,-0.3480563,-0.3069812
0.5259554,-0.319654,-0.3403322
0.3531712,-0.2813243,-0.2388052
0.34137,-0.2564692,-0.2328106
0.4610444,-0.328524,-0.2452324
0.573821,-0.3833012,-0.2442717
0.7025281,-0.4271553,-0.2703516
0.6964789,-0.4371271,-0.2183247
0.6567164,-0.3954452,-0.2030479
0.7628123,-0.4403798,-0.2100616
0.7754075,-0.4775542,-0.1794935
0.7872175,-0.4882858,-0.1280626
0.9187724,-0.4797304,-0.07132905
0.9382784,-0.3627006,-0.1192642
1.01684,-0.3173407,-0.1570614
1.160979,-0.3441327,-0.1347426
1.144325,-0.3714662,-0.1566474
1.107238,-0.5407987,-0.2067897
1.071086,-0.7984456,-0.3318381
1.046226,-0.9360361,-0.4670543
1.039825,-0.8537787,-0.506066
0.9718011,-0.7707951,-0.4953926
0.9523542,-0.7608732,-0.4804207
0.9522903,-0.6802114,-0.4737347
0.9787698,-0.6685489,-0.4511632
1.04958,-0.5991142,-0.4348031
0.9892028,-0.3912057,-0.4249347
0.8855915,-0.3153583,-0.3548662
0.7717416,-0.2854253,-0.2399998
0.5866273,-0.2607792,-0.1687102
0.5217196,-0.2685275,-0.1961815
0.5152095,-0.2091574,-0.216526
0.4323407,-0.1765091,-0.1899736
0.4401482,-0.1997304,-0.2238047
0.5204139,-0.2930686,-0.2515589
0.5995088,-0.4433368,-0.2567506
0.7507192,-0.4967577,-0.3255479
0.8711078,-0.3970196,-0.3883837
0.9517287,-0.2114818,-0.4461051
1.03643,-0.09990729,-0.5004207
1.048238,-0.114961,-0.4229314
1.123736,-0.174323,-0.2975151
1.250482,-0.1998378,-0.3037816
1.293343,-0.1851233,-0.3448571
1.315266,-0.2144725,-0.3523892
1.269592,-0.279389,-0.4354391
1.212935,-0.3883331,-0.509178
1.200056,-0.5440916,-0.525448
1.132863,-0.6472973,-0.5991877
1.086411,-0.6593914,-0.6700334
1.06712,-0.6107191,-0.6804371
1.062165,-0.6011988,-0.6296167
1.04748,-0.5847583,-0.5066043
0.8797495,-0.485483,-0.3871753
0.722365,-0.4130046,-0.2960268
0.7577037,-0.3970382,-0.2756649
0.7507056,-0.4123995,-0.3160268
0.5642427,-0.3925274,-0.2895207
0.4415915,-0.3380932,-0.2607992
0.4168517,-0.3218976,-0.2505378
0.3692558,-0.2927371,-0.1980639
0.4502635,-0.3013277,-0.2127766
0.5810192,-0.3424835,-0.2286339
0.6004806,-0.3444408,-0.1938973
0.6365034,-0.3750202,-0.2121696
0.7056549,-0.4174979,-0.2014264
0.7819765,-0.4770811,-0.1717511
0.8373376,-0.5363491,-0.1691439
0.868088,-0.5270065,-0.1393145
0.9410186,-0.517904,-0.1408445
0.983433,-0.5141136,-0.1347797
1.022417,-0.4852944,-0.0795564
1.090348,-0.4334333,-0.06303714
1.086509,-0.4050637,-0.09994491
1.078804,-0.5546389,-0.2033964
1.120661,-0.8042943,-0.3769922
1.158422,-0.8743427,-0.5189954
1.142957,-0.7513684,-0.539341
0.9923086,-0.6219389,-0.4625926
0.8069832,-0.5729718,-0.3752091
0.806552,-0.6197528,-0.3533258
0.9326938,-0.6745088,-0.3905611
0.9935632,-0.5874426,-0.3938619
0.9807747,-0.4328875,-0.3469713
0.9149709,-0.3172954,-0.2951979
0.8156074,-0.2663144,-0.2547545
0.7370153,-0.3265105,-0.2231807
0.6321306,-0.3528564,-0.1830885
0.557891,-0.2983218,-0.1707088
0.5441447,-0.2482586,-0.1794029
0.4701853,-0.1686881,-0.1719417
0.4667559,-0.181266,-0.2130053
0.5546522,-0.2645445,-0.2869859
0.5935023,-0.2953033,-0.3190367
0.7091417,-0.3689761,-0.3370652
0.8389657,-0.3865646,-0.3775979
0.8807796,-0.3166148,-0.4266845
0.9469924,-0.2302367,-0.4438568
1.015686,-0.06786817,-0.4277439
1.11453,-0.03025255,-0.4137266
1.230979,-0.1131538,-0.3978436
1.307362,-0.1004028,-0.3874393
1.37389,-0.1534035,-0.4100165
1.357981,-0.2936453,-0.442391
1.298948,-0.3978838,-0.4740138
1.218522,-0.5266371,-0.5177566
1.154486,-0.4875289,-0.7097441
1.153104,-0.519316,-0.7300754
1.111762,-0.602745,-0.5932977
0.9667195,-0.7592114,-0.4423722
0.8574752,-0.7240055,-0.2864887
0.8010122,-0.6103652,-0.1693249
0.7904198,-0.5032457,-0.1770952
0.7992352,-0.3110131,-0.2616337
0.6785314,-0.2204276,-0.3478881
0.5262527,-0.2315437,-0.3360048
0.4601886,-0.2507922,-0.2585457
0.4079958,-0.3260151,-0.2173332
0.4126734,-0.3868184,-0.2020364
0.5294503,-0.3910078,-0.2245013
0.6660802,-0.3490301,-0.2314688
0.6868869,-0.2926916,-0.1924444
0.7003577,-0.3128325,-0.1426997
0.8536145,-0.3840245,-0.04688853
0.9400868,-0.4341131,0.009698291
0.9299372,-0.4337949,-0.03160402
0.9660354,-0.4051806,-0.04755677
1.00826,-0.4076669,-0.002227036
1.088874,-0.4048889,0.007985409
1.143814,-0.4806224,-0.09489784
1.145277,-0.7519687,-0.2863772
1.182226,-0.9379996,-0.452645
1.139504,-0.7845139,-0.4814165
1.024757,-0.5421049,-0.4231258
0.9449656,-0.4786173,-0.4162798
0.9424517,-0.4781689,-0.4425818
1.030885,-0.4639276,-0.4521342
1.063042,-0.4698739,-0.4501827
1.032187,-0.4306009,-0.400745
0.9930972,-0.3999613,-0.2905904
0.8721342,-0.372667,-0.1843521
0.7216441,-0.3077449,-0.1691876
0.6248191,-0.261099,-0.2022241
0.6052997,-0.1908509,-0.2069321
0.5952781,-0.1641648,-0.2345266
0.5747747,-0.2032606,-0.2699037
0.6246495,-0.2651655,-0.2702382
0.6674532,-0.3746767,-0.2827135
0.7132349,-0.4008385,-0.2994402
0.7953272,-0.3128868,-0.3345093
0.8579883,-0.164166,-0.4118023
1.013229,-0.02415919,-0.4294741
1.17047,-0.005151291,-0.3489944
1.182393,-0.02674137,-0.2652488
1.217868,-0.06396241,-0.2738311
1.312002,-0.1869671,-0.4015027
1.319895,-0.3404964,-0.5369707
1.237995,-0.471067,-0.5658728
1.155089,-0.6020121,-0.587782
1.101769,-0.6469276,-0.6940255
1.088889,-0.5746485,-0.7328012
1.08156,-0.5866497,-0.6675518
0.9851298,-0.593555,-0.5920346
0.8689203,-0.5151622,-0.4386686
0.8437326,-0.5137949,-0.2809323
0.8591285,-0.4743902,-0.2371423
0.8342635,-0.4231831,-0.2766097
0.7310004,-0.3984222,-0.3691192
0.5855364,-0.3143576,-0.3538993
0.4716724,-0.3096771,-0.2658218
0.3996812,-0.2878143,-0.2314133
0.3672756,-0.2330185,-0.1832489
0.4286553,-0.2678557,-0.223169
0.5529999,-0.2818418,-0.2593454
0.6550636,-0.3420812,-0.1841613
0.7387966,-0.4315947,-0.1757777
0.8041754,-0.4539117,-0.172517
0.8852481,-0.472324,-0.1421575
0.9438124,-0.4395175,-0.1032406
0.9524522,-0.3918219,-0.04923135
1.049756,-0.3847549,-0.07561623
1.143885,-0.4229673,-0.09272443
1.183521,-0.6246331,-0.1300215
1.281295,-0.8921702,-0.250613
1.290907,-0.9263071,-0.3194226
1.174953,-0.7668071,-0.3768898
1.045461,-0.6691308,-0.4524775
0.907793,-0.5836935,-0.4221138
0.8436001,-0.5122238,-0.3513693
0.9322643,-0.5499207,-0.4042508
1.042538,-0.5047955,-0.438863
1.0225,-0.4054405,-0.3674035
0.9630564,-0.3660507,-0.3405648
0.9102162,-0.3235209,-0.2983859
0.7933592,-0.3546154,-0.2576644
0.6759474,-0.3828835,-0.2673843
0.5923488,-0.3348506,-0.2435091
0.5656772,-0.2824957,-0.253404
0.6019164,-0.2111464,-0.2519802
0.6108489,-0.2038273,-0.2340742
0.6048237,-0.2233337,-0.2565717
0.6134676,-0.1928807,-0.2448795
0.6456765,-0.1971907,-0.2765802
0.728169,-0.1551065,-0.346871
0.8142264,-0.08127881,-0.3748085
0.9412529,-0.08856883,-0.3657552
1.142072,-0.05325408,-0.3203793
1.216454,0.005957105,-0.3100448
1.151901,-0.05962776,-0.3243162
1.236043,-0.2387093,-0.3913817
1.366997,-0.455673,-0.5447692
1.328625,-0.5428199,-0.6201997
1.286271,-0.5658839,-0.5815438
1.205523,-0.7062019,-0.5676448
1.052674,-0.6781258,-0.6376448
1.038311,-0.510606,-0.672633
1.054807,-0.5364313,-0.6062944
0.9695839,-0.5482256,-0.4956867
0.8874641,-0.5524341,-0.3471862
0.8568481,-0.6361616,-0.2852601
0.8592102,-0.592525,-0.3410889
0.8140515,-0.5344009,-0.3500831
0.6629594,-0.4551951,-0.3286742
0.5275902,-0.3480076,-0.3238332
0.5218002,-0.3516027,-0.2878358
0.5458714,-0.3200574,-0.2499669
0.5260842,-0.2868651,-0.2593407
0.5191193,-0.2860332,-0.2542472
0.5201842,-0.2604513,-0.1962934
0.5139662,-0.2997808,-0.152174
0.5309433,-0.3381589,-0.1318322
0.5836048,-0.3515481,-0.1279869
0.664912,-0.3487498,-0.1159373
0.7691432,-0.3232767,-0.08466439
0.875112,-0.3386836,-0.09382244
0.949511,-0.3530525,-0.1001898
1.029824,-0.366495,-0.08835573
1.157509,-0.3645924,-0.1095195
1.253446,-0.3475629,-0.1646713
1.249575,-0.4636231,-0.2988547
1.209359,-0.7582885,-0.4802852
1.11196,-1.013937,-0.5709412
0.8345665,-0.9659234,-0.4508742
0.5156944,-0.9285153,-0.1561998
0.471744,-1.151089,-0.005954831
0.7679111,-1.123078,-0.2341276
1.027174,-0.8263331,-0.5723637
0.9286624,-0.5905383,-0.6145078
0.840925,-0.4462061,-0.4554261
0.9379009,-0.5119131,-0.3424994
0.85377,-0.5327298,-0.2588005
0.7695566,-0.4610569,-0.2786443
0.8094705,-0.5056821,-0.3708891
0.7223371,-0.4454108,-0.4069118
0.6659417,-0.4383557,-0.4320279
0.639635,-0.5089819,-0.409051
0.5861063,-0.4759549,-0.3967694
0.6477996,-0.5051762,-0.425715
0.6822273,-0.4373949,-0.4170635
0.6702522,-0.2660692,-0.4341935
0.6828439,-0.1104422,-0.427228
0.698494,0.01785479,-0.4132786
0.759823,-0.03720808,-0.4222311
0.7992426,-0.09122935,-0.3577894
0.8342592,-0.08484978,-0.2867771
0.9725749,-0.07873664,-0.2289608
1.166917,0.02000578,-0.2065129
1.25014,0.0370382,-0.2252047
1.217219,-0.06458498,-0.210855
1.259473,-0.2325102,-0.2584614
1.309923,-0.4451659,-0.4042639
1.262531,-0.5767816,-0.5754308
1.222034,-0.6849668,-0.6468436
1.170787,-0.7372203,-0.6248377
1.10185,-0.681781,-0.668535
1.081886,-0.6572291,-0.613424
0.9958552,-0.6343866,-0.4167231
0.8178223,-0.5920661,-0.3191989
0.7899843,-0.5918722,-0.3258741
0.843337,-0.5590865,-0.3278663
0.7610087,-0.5051107,-0.2538449
0.6956594,-0.4815743,-0.2262426
0.6482995,-0.4244401,-0.2628667
0.5559263,-0.3288059,-0.2284225
0.5203072,-0.2235834,-0.2505199
0.5200928,-0.1877839,-0.2640995
0.589301,-0.2503555,-0.2184917
0.632704,-0.276662,-0.2177635
0.5950511,-0.309906,-0.1513977
0.6220454,-0.3786887,-0.1135639
0.6541425,-0.3977101,-0.109578
0.6965047,-0.4300775,-0.07823387
0.7568221,-0.4283286,-0.1285741
0.8139133,-0.4263652,-0.127606
0.9107052,-0.474789,-0.1060706
0.9612241,-0.444048,-0.1067373
1.048735,-0.4346422,-0.05067627
1.139284,-0.4687257,-0.08191745
1.171162,-0.5599296,-0.1491877
1.332745,-0.7984776,-0.2184588
1.414863,-0.8906252,-0.3312339
1.216722,-0.7642765,-0.3613869
0.9569846,-0.6580751,-0.3537627
0.812694,-0.6190787,-0.3627036
0.8002759,-0.6451194,-0.3912523
0.8544059,-0.6599776,-0.4431593
0.9455303,-0.5855182,-0.4327416
0.9955593,-0.4827012,-0.3635047
0.9825523,-0.4194857,-0.2898667
0.9434597,-0.3903717,-0.2680679
0.8111865,-0.370542,-0.2420106
0.686498,-0.342555,-0.1585736
0.629423,-0.28551,-0.1615214
0.5481703,-0.2314563,-0.2055446
0.5055769,-0.2063771,-0.2119982
0.5419392,-0.2345233,-0.2566517
0.6101232,-0.3197471,-0.2851342
0.6993179,-0.3838085,-0.3184662
0.7776509,-0.3735886,-0.3763184
0.8011236,-0.2722502,-0.3717242
0.8525801,-0.1479401,-0.3647194
0.9991336,-0.07439856,-0.3760144
1.146156,-0.03148608,-0.364511
1.219659,-0.02508328,-0.3595555
1.208656,-0.09359847,-0.3453354
1.235537,-0.263148,-0.3471196
1.333855,-0.409254,-0.4506603
1.32493,-0.4594731,-0.5903867
1.226572,-0.5566492,-0.6282951
1.109201,-0.6641874,-0.6246745
1.022177,-0.6778114,-0.6408822
1.027549,-0.6498948,-0.5924997
1.007999,-0.6294713,-0.5063294
0.9185392,-0.6014246,-0.4027795
0.8298067,-0.5337872,-0.3098369
0.8296137,-0.4816566,-0.3071251
0.8405968,-0.4631963,-0.289723
0.6638533,-0.4325125,-0.2735763
0.4774448,-0.3864585,-0.2978915
0.457254,-0.3352598,-0.2596057
0.4792975,-0.3124624,-0.2563963
0.484333,-0.29494,-0.2761966
0.5013545,-0.2841736,-0.2430651
0.5495773,-0.3187703,-0.2077983
0.5634344,-0.3505119,-0.1449241
0.6035746,-0.3819121,-0.1397963
0.7193045,-0.4166296,-0.1664303
0.7673023,-0.4157723,-0.1466606
0.8282785,-0.4117463,-0.1736895
0.9258016,-0.4422508,-0.1568505
0.9597246,-0.4922544,-0.09038151
1.013514,-0.5022686,-0.07017011
1.058573,-0.4492599,-0.05402094
1.073474,-0.4514394,-0.1253754
1.125343,-0.6608992,-0.2792417
1.175241,-0.8823972,-0.3794288
1.140074,-0.8091447,-0.4229352
0.9431341,-0.723334,-0.4317545
0.7349836,-0.8309971,-0.3846876
0.7876985,-0.8408222,-0.3223749
0.9523637,-0.8113234,-0.3871929
0.9626787,-0.7406567,-0.4802337
0.9402838,-0.4777407,-0.421533
0.9287456,-0.3498958,-0.3511705
0.8878878,-0.3680339,-0.2687347
0.8516317,-0.3430828,-0.1810323
0.6984696,-0.3517781,-0.2391607
0.5625533,-0.2982548,-0.2708428
0.5619795,-0.2629155,-0.2469035
0.5625938,-0.310623,-0.2680523
0.610095,-0.315252,-0.2547125
0.7070061,-0.369878,-0.2927415
0.8270515,-0.442755,-0.3507182
0.8289735,-0.4195554,-0.3179757
0.661397,-0.2745175,-0.2936821
0.6104451,-0.08426056,-0.2673107
0.6509722,-0.05186201,-0.2370253
0.7338415,-0.1095481,-0.2811477
0.8870388,-0.1159502,-0.3201344
0.958685,-0.1276399,-0.2982407
1.033971,-0.1350879,-0.2856783
1.175115,-0.1014568,-0.2768348
1.260445,-0.09075248,-0.2222764
1.247766,-0.1272865,-0.1878331
1.268615,-0.1839297,-0.2398835
1.331119,-0.2886369,-0.3775287
1.271624,-0.4430252,-0.5313957
1.179714,-0.6277574,-0.5776954
1.048018,-0.7192361,-0.6127218
0.9529581,-0.5981605,-0.7243672
1.078723,-0.5151025,-0.7119002
1.119236,-0.6070201,-0.5798823
0.9769906,-0.6420427,-0.4358207
0.8420645,-0.5907621,-0.2875143
0.7791202,-0.5471912,-0.310434
0.7791236,-0.4716037,-0.3753477
0.6860652,-0.4041213,-0.3110653
0.5707936,-0.4087472,-0.3400563
0.5216753,-0.4261075,-0.3590648
0.491734,-0.4302755,-0.29146
0.5553544,-0.4168918,-0.3003796
0.6233778,-0.3567935,-0.2988577
0.6270423,-0.2857013,-0.3047913
0.6506118,-0.244574,-0.305336
0.7087304,-0.2615493,-0.2610825
0.7618143,-0.3150026,-0.2486565
0.7626079,-0.3902084,-0.1925162
0.7990334,-0.5095474,-0.1632499
0.8980901,-0.5519168,-0.1770959
0.9145039,-0.4937088,-0.1463624
0.8987852,-0.4588687,-0.1370455
0.9503911,-0.4095382,-0.09138112
0.9885626,-0.3234043,-0.06834047
1.004095,-0.3373958,-0.1625631
1.033393,-0.5816374,-0.3090931
1.114142,-0.838401,-0.465136
1.189856,-0.7620056,-0.4724372
0.983072,-0.6361253,-0.4048629
0.7033494,-0.7135203,-0.4213687
0.7967907,-0.7262927,-0.3932252
0.977562,-0.7330484,-0.4248742
1.011204,-0.7229596,-0.5344352
1.003855,-0.5388279,-0.4910107
0.9016704,-0.4615471,-0.3657957
0.8280252,-0.4702218,-0.2283331
0.7670827,-0.4145856,-0.1553951
0.6105783,-0.3525059,-0.2232199
0.5529481,-0.2017467,-0.2336167
0.5494244,-0.1128123,-0.2189995
0.5352575,-0.1600952,-0.2501475
0.5888282,-0.2419747,-0.2244684
0.6245402,-0.3521854,-0.2457124
0.6745513,-0.3475209,-0.2944234
0.7554213,-0.2828127,-0.3187749
0.8127407,-0.2412938,-0.3914832
0.910045,-0.1457785,-0.4365115
1.047343,-0.1166872,-0.4304778
1.166368,-0.14979,-0.3867658
1.249116,-0.1358928,-0.3414609
1.299831,-0.1957632,-0.3693624
1.330214,-0.3728281,-0.4382744
1.365663,-0.5059095,-0.5259651
1.331042,-0.5565727,-0.5628421
1.194384,-0.6441592,-0.5599202
1.068507,-0.7332045,-0.6066114
0.9503533,-0.6886665,-0.6163787
0.9146013,-0.6110836,-0.5874793
0.9494724,-0.5842329,-0.5277699
0.8689599,-0.5302271,-0.3840157
0.777153,-0.5084673,-0.3020978
0.7567508,-0.4903572,-0.3158775
0.7536981,-0.4415443,-0.3059603
0.6910676,-0.4248096,-0.294761
0.5455633,-0.3573797,-0.3066676
0.5144051,-0.3212858,-0.3035135
0.5607144,-0.3232232,-0.2658077
0.5608788,-0.2680583,-0.2245409
0.578801,-0.2889789,-0.2305472
0.57885,-0.3257922,-0.2209028
0.5777033,-0.3350898,-0.1685156
0.6304044,-0.3719679,-0.1682794
0.6968488,-0.3854013,-0.1812513
0.7481695,-0.4363389,-0.1457322
0.8057906,-0.466304,-0.1146622
0.8692173,-0.4169916,-0.09557618
0.9205962,-0.3769635,-0.09671808
1.057341,-0.3511129,-0.111313
1.222315,-0.3899549,-0.1223448
1.245182,-0.5683642,-0.2058651
1.237178,-0.8303656,-0.3460579
1.244451,-0.9325602,-0.4259563
1.126726,-0.7620881,-0.4165887
0.9167098,-0.6009251,-0.3878352
0.7699765,-0.5832766,-0.4019094
0.7877426,-0.6131015,-0.4364748
0.9174501,-0.6560677,-0.4952705
1.011639,-0.6220796,-0.5381282
0.9785318,-0.5415062,-0.4657219
0.8430282,-0.4673136,-0.3259087
0.7263999,-0.3894149,-0.1941975
0.6729764,-0.4184224,-0.145846
0.6304279,-0.4271595,-0.1843698
0.556917,-0.3114614,-0.1845797
0.4969281,-0.223837,-0.1900861
0.5213122,-0.1719573,-0.2116041
0.5706919,-0.2074359,-0.1950227
0.6382622,-0.2909124,-0.2316024
0.730615,-0.3046055,-0.2866114
0.804188,-0.3205297,-0.3373056
0.9123607,-0.2747078,-0.4030911
1.00354,-0.1940215,-0.4247826
1.095637,-0.1758414,-0.446446
1.229585,-0.1483947,-0.4303148
1.261414,-0.1646595,-0.3685236
1.255688,-0.2613895,-0.3696173
1.270683,-0.4115475,-0.4306632
1.242016,-0.5315285,-0.5296717
1.212115,-0.5718693,-0.5718057
1.154445,-0.6533762,-0.5666249
1.059813,-0.667192,-0.6176142
0.9697637,-0.5780831,-0.616366
0.9265582,-0.5419754,-0.532424
0.8991963,-0.4868973,-0.4103002
0.7887583,-0.4637415,-0.3086243
0.7282438,-0.4875355,-0.3081796
0.7727487,-0.4439173,-0.3006307
0.7524293,-0.4222244,-0.290516
0.6733578,-0.3829257,-0.3175582
0.6124167,-0.3225664,-0.2946849
0.6034855,-0.3398344,-0.2791403
0.6248791,-0.3450069,-0.2739258
0.6087625,-0.3658946,-0.2448638
0.5936625,-0.4189822,-0.2216794
0.6064886,-0.4287375,-0.1836391
0.6518428,-0.445544,-0.1765438
0.7130727,-0.4554433,-0.189094
0.7305602,-0.4358231,-0.1683527
0.7887263,-0.4243367,-0.1551491
0.8870239,-0.4374957,-0.1485273
0.9126697,-0.4641433,-0.144915
0.9609466,-0.4590519,-0.1338834
1.073063,-0.4360984,-0.09741534
1.1412,-0.4377954,-0.1023122
1.165336,-0.5622963,-0.2078933
1.174711,-0.8384167,-0.3899247
1.168751,-0.9814587,-0.5164123
1.11344,-0.8188885,-0.5090165
0.9332141,-0.6191555,-0.4570012
0.7345449,-0.6004796,-0.4079052
0.7329267,-0.6542777,-0.3827837
0.871092,-0.6707073,-0.4087009
0.9338172,-0.5977714,-0.4146632
0.8893263,-0.4317511,-0.3733005
0.8292107,-0.324194,-0.3042464
0.7851064,-0.3189848,-0.2193727
0.7381549,-0.3370307,-0.1909819
0.6690862,-0.3205304,-0.2103411
0.5749785,-0.2419642,-0.2012272
0.5388178,-0.1876269,-0.197493
0.5926615,-0.2071889,-0.231057
0.6275723,-0.2590711,-0.2652364
0.6613226,-0.2984457,-0.2847458
0.7276136,-0.3618386,-0.291191
0.7848537,-0.4613585,-0.3178271
0.8567726,-0.4375639,-0.3626022
0.867057,-0.299444,-0.3707295
0.8827744,-0.1744243,-0.3853277
1.00014,-0.1043791,-0.4125553
1.091863,-0.1056939,-0.3979728
1.202115,-0.09075022,-0.3840375
1.258897,-0.1111362,-0.3496314
1.24672,-0.2315371,-0.3257998
1.332069,-0.3494428,-0.4389832
1.315989,-0.4941987,-0.5748874
1.222558,-0.6222502,-0.5957487
1.137424,-0.6237795,-0.5988557
0.9900944,-0.5763309,-0.6575049
1.003671,-0.54128,-0.6850862
1.040825,-0.5200257,-0.6172256
0.9449422,-0.527755,-0.4847194
0.8625579,-0.5402022,-0.3238336
0.7727727,-0.5048561,-0.2407371
0.7839913,-0.437316,-0.2794268
0.7808836,-0.3717449,-0.3036358
0.5908836,-0.3055163,-0.2885297
0.4604398,-0.2839659,-0.2797546
0.446853,-0.2978791,-0.2403886
0.49342,-0.3229565,-0.2155626
0.5521333,-0.3720441,-0.2331571
0.5390548,-0.3857352,-0.2215315
0.5589645,-0.3805853,-0.1924678
0.6256111,-0.3971809,-0.1799827
0.6951061,-0.4207718,-0.1766487
0.7634508,-0.4798279,-0.1798423
0.8062845,-0.5288843,-0.1635896
0.8904296,-0.5164316,-0.1516288
0.9647835,-0.4919651,-0.1395427
0.9750885,-0.4740545,-0.09173042
1.023069,-0.4418181,-0.07817229
1.094361,-0.4312516,-0.1158588
1.134115,-0.5439522,-0.2164261
1.190495,-0.7711952,-0.4020882
1.232253,-0.8850119,-0.499412
1.135127,-0.7873059,-0.4434319
0.9614812,-0.6864891,-0.4119852
0.8417281,-0.6763376,-0.4296114
0.7972171,-0.6984661,-0.4306873
0.8693485,-0.7321961,-0.4621787
0.9284503,-0.6632233,-0.4680599
0.8703427,-0.4937747,-0.3936413
0.8157735,-0.3598839,-0.3065617
0.7545543,-0.2903648,-0.2193132
0.691954,-0.304192,-0.1931251
0.6512526,-0.3094296,-0.2218081
0.5844271,-0.2490136,-0.2177412
0.5662946,-0.2157504,-0.240643
0.5770206,-0.1969908,-0.2720459
0.5948133,-0.2447981,-0.2715498
0.6730817,-0.3519967,-0.2772987
0.7266193,-0.3968341,-0.2728499
0.7591443,-0.4016083,-0.2896743
0.804913,-0.3245041,-0.3361116
0.8302993,-0.1980151,-0.3794335
0.8816775,-0.1623509,-0.4045797
0.9400132,-0.1853337,-0.4118979
0.9846651,-0.1988936,-0.4230242
1.009613,-0.185109,-0.3866882
0.9815986,-0.1730883,-0.3293028
0.983756,-0.1555453,-0.3231981
1.021189,-0.1447988,-0.3218265
1.069333,-0.2060219,-0.3364495
1.17017,-0.2696936,-0.4127683
1.258841,-0.3429134,-0.5157488
1.355079,-0.5277088,-0.555894
1.439976,-0.7235483,-0.5312173
1.365288,-0.7277419,-0.5429759
1.244762,-0.6140946,-0.5514103
1.152764,-0.5357059,-0.5380751
1.233525,-0.5388615,-0.1430528
1.274515,-0.7446862,-0.2187773
1.29944,-0.9369579,-0.4119189
1.290596,-0.8542327,-0.4931724
1.081972,-0.6431683,-0.4493896
0.8085751,-0.6358141,-0.4200636
0.7041674,-0.6347894,-0.4009013
0.8483043,-0.6199734,-0.4244535
1.016696,-0.6141738,-0.4512963
0.9931498,-0.4792098,-0.432377
0.9058104,-0.375491,-0.3756186
0.7550862,-0.3077407,-0.2854957
0.5755342,-0.2825963,-0.187753
0.4933289,-0.2915803,-0.1548135
0.4442216,-0.1913071,-0.1865272
0.4855596,-0.150261,-0.2132291
0.5710308,-0.1826456,-0.2727803
0.6248079,-0.2191619,-0.3096852
0.7195494,-0.2996812,-0.2799804
0.8039004,-0.2873653,-0.2980506
0.9401317,-0.207962,-0.3402739
1.080989,-0.1317456,-0.3732547
1.147839,-0.09260065,-0.3954005
1.278802,-0.1512937,-0.3646438
1.363638,-0.2176803,-0.3267699
1.36578,-0.2965547,-0.3259449
1.386864,-0.4378516,-0.407271
1.378486,-0.613282,-0.5353206
1.367352,-0.7198083,-0.5669051
1.304857,-0.6456178,-0.5452841
1.197213,-0.5655181,-0.5712403
1.141229,-0.5362589,-0.6098277
1.076273,-0.4280324,-0.6478226
1.023295,-0.4303048,-0.6036805
0.9002816,-0.5206408,-0.3790739
0.6593362,-0.4930572,-0.1507096
0.6425182,-0.4998818,-0.1409067
0.6946531,-0.4856152,-0.2381545
0.4462291,-0.3450572,-0.2629545
0.3015414,-0.2655673,-0.3032948
0.368617,-0.2484246,-0.3178299
0.3478868,-0.2440024,-0.2261477
0.4109259,-0.2707825,-0.2266715
0.5597706,-0.3433965,-0.2388194
0.6035669,-0.4021884,-0.1795491
0.6472385,-0.3724609,-0.1801744
0.7939396,-0.4134407,-0.1546986
0.924314,-0.4886947,-0.1428193
0.9633455,-0.486234,-0.1442934
1.060169,-0.4943773,-0.1097307
1.158955,-0.480329,-0.1220619
1.161045,-0.4846965,-0.1051374
1.188665,-0.574088,-0.1573455
1.205684,-0.7663555,-0.3270058
1.170393,-0.9304615,-0.4705359
1.117161,-0.8119563,-0.5542676
1.035861,-0.6617284,-0.5210863
0.9408261,-0.6759465,-0.4811528
0.8800526,-0.642812,-0.47788
0.9301766,-0.6213958,-0.457739
0.9828132,-0.6098866,-0.4676236
0.9363363,-0.5085014,-0.3897104
0.8618859,-0.452303,-0.2705873
0.7031606,-0.3902666,-0.2179768
0.5293763,-0.284589,-0.186153
0.4985208,-0.2475952,-0.2112765
0.4857809,-0.1815823,-0.2274832
0.4881427,-0.131189,-0.2200611
0.5894075,-0.1786783,-0.2501147
0.6437705,-0.2052952,-0.2691666
0.6552741,-0.2961486,-0.2724996
0.6830248,-0.4255389,-0.259705
0.6990917,-0.3970423,-0.2645754
0.8417925,-0.2658033,-0.3368724
1.072821,-0.1469503,-0.4409896
1.164673,-0.1359623,-0.4798984
1.19322,-0.1894871,-0.3970911
1.302898,-0.1951194,-0.3454439
1.329566,-0.2743736,-0.4212885
1.250375,-0.4227597,-0.5317432
1.271659,-0.558036,-0.6165075
1.254548,-0.70169,-0.6316943
1.150615,-0.6947953,-0.6526832
1.140131,-0.5991741,-0.7058602
1.112861,-0.5921179,-0.5975021
0.9931762,-0.5238672,-0.404424
0.7963368,-0.4380005,-0.3197831
0.6959883,-0.4347098,-0.2691996
0.7723207,-0.4246828,-0.276979
0.676855,-0.4338642,-0.3280358
0.493872,-0.4239133,-0.2900827
0.4286038,-0.3870151,-0.2554582
0.3922653,-0.3509541,-0.222558
0.4658407,-0.2662241,-0.1802396
0.5356253,-0.2363132,-0.2380089
0.540345,-0.2690622,-0.2614745
0.5834019,-0.2896181,-0.2188175
0.6116885,-0.3414906,-0.1996833
0.6708974,-0.4153938,-0.1444974
0.7449177,-0.4804039,-0.0834251
0.8083122,-0.4896096,-0.06198337
0.9147382,-0.4420773,-0.08461042
1.012408,-0.3993512,-0.1104495
1.076971,-0.3599923,-0.09297591
1.096837,-0.3461989,-0.09797845
1.110464,-0.4234763,-0.1298359
1.219145,-0.6689708,-0.2538776
1.447814,-0.944115,-0.4897702
1.547274,-0.8842438,-0.5724647
1.142187,-0.5968353,-0.4500398
0.6133514,-0.509942,-0.3313424
0.6413941,-0.639236,-0.2906617
0.9254995,-0.7718563,-0.3745892
0.98862,-0.7175849,-0.5197305
0.9489919,-0.5279887,-0.5075602
0.8810674,-0.3873051,-0.3992191
0.8246719,-0.3000927,-0.3161079
0.8016801,-0.388,-0.2123913
0.7334246,-0.4796556,-0.2016288
0.6938028,-0.3509908,-0.2659909
0.6405997,-0.2567151,-0.3006759
0.5695749,-0.1666518,-0.3478757
0.5920843,-0.1561668,-0.3346893
0.607462,-0.2917892,-0.3156538
0.6363979,-0.3094847,-0.3412007
0.6976711,-0.3526178,-0.3250758
0.6795649,-0.3313877,-0.3448101
0.6610399,-0.1859632,-0.3687731
0.6862967,-0.1637939,-0.3467393
0.7408656,-0.1374952,-0.3441108
0.9045899,-0.1340469,-0.3359015
1.16357,-0.1308726,-0.3299294
1.364126,-0.06149935,-0.3237222
1.403204,-0.05279686,-0.2946217
1.340065,-0.04740007,-0.2744904
1.295481,-0.1578475,-0.2918033
1.291328,-0.3421746,-0.3715458
1.283592,-0.4271788,-0.495403
1.2625,-0.53474,-0.6062459
1.156721,-0.6180426,-0.6756359
1.029258,-0.5996001,-0.761575
1.069671,-0.577142,-0.793948
1.082254,-0.6259818,-0.6191139
0.876865,-0.6467025,-0.4064035
0.7006165,-0.5783561,-0.3198771
0.6939052,-0.5289735,-0.3173836
0.6958704,-0.4518004,-0.3554563
0.5938667,-0.3951643,-0.3663834
0.4799171,-0.3956122,-0.3879095
0.4242453,-0.3436201,-0.3716205
0.3973063,-0.3132089,-0.2898491
0.4300082,-0.2980906,-0.2986243
0.5206134,-0.275354,-0.3063368
0.6314994,-0.2692808,-0.2677254
0.7035349,-0.2739055,-0.2600922
0.7214988,-0.3459661,-0.2371334
0.7743182,-0.4389825,-0.2307938
0.8081009,-0.5556494,-0.204444
0.8818613,-0.6832173,-0.1761899
1.050955,-0.6875341,-0.2000883
1.072204,-0.5437289,-0.161932
1.072804,-0.3342927,-0.06546996
1.143289,-0.2365912,0.007762992
1.063818,-0.3080301,-0.04346209
1.053759,-0.4690538,-0.2259096
1.160833,-0.7508619,-0.3976324
1.160109,-0.9822116,-0.5004153
1.039192,-0.8734793,-0.4684567
0.8026117,-0.7216967,-0.398616
0.7314682,-0.7773879,-0.4072648
0.8974866,-0.7028572,-0.3993385
1.004959,-0.5819227,-0.4500938
1.048028,-0.5500143,-0.5023801
0.9887176,-0.4217145,-0.4104072
0.8337654,-0.3716936,-0.3084409
0.6820872,-0.3751278,-0.2259144
0.5106624,-0.3368492,-0.1625999
0.4214643,-0.2960051,-0.1547356
0.3973826,-0.1557244,-0.1860527
0.4312513,-0.1127656,-0.2681876
0.5770042,-0.1823534,-0.3310218
0.7026023,-0.2390801,-0.3433428
0.7755135,-0.3426549,-0.293923
0.7867822,-0.3511147,-0.2362141
0.8079345,-0.2175869,-0.2717532
0.9358024,-0.07027809,-0.3029943
1.088837,-0.07075738,-0.3063682
1.266549,-0.1862411,-0.3234305
1.382609,-0.2257905,-0.3347128
1.40914,-0.2580801,-0.3778348
1.435248,-0.3055846,-0.4030034
1.395543,-0.3353459,-0.4100238
1.357452,-0.4112511,-0.4415186
1.2937,-0.5757439,-0.4438999
1.141902,-0.7437336,-0.4517471
1.020415,-0.6866947,-0.5039967
0.9590869,-0.5597159,-0.5951544
1.065245,-0.5310409,-0.6711609
1.154816,-0.4858814,-0.6180206
0.9709168,-0.5327033,-0.446616
0.7842265,-0.5688676,-0.2307913
0.7184081,-0.4761929,-0.1434047
0.6789133,-0.4043443,-0.2443045
0.5890286,-0.3091842,-0.2802419
0.438307,-0.2562461,-0.2693497
0.390687,-0.2734998,-0.2885939
0.4208496,-0.2613922,-0.2425623
0.5029278,-0.2994126,-0.276977
0.6109929,-0.3424682,-0.3149763
0.5805218,-0.3648037,-0.2170473
0.5500869,-0.3943996,-0.1531132
0.6377033,-0.3897668,-0.1340955
0.7533073,-0.4239726,-0.1348675
0.8944669,-0.4687088,-0.1286265
0.9802829,-0.4490227,-0.08631439
1.012854,-0.4327818,-0.08007494
1.096787,-0.4605191,-0.06949708
1.156053,-0.494125,-0.08167427
1.202648,-0.572474,-0.1458517
1.251755,-0.7688465,-0.2605952
1.216208,-0.9011263,-0.4451115
1.154436,-0.8235732,-0.5088242
1.021744,-0.7357926,-0.4170012
0.8416363,-0.7228759,-0.3521732
0.7894756,-0.68641,-0.3729865
0.8428507,-0.6816728,-0.4311955
0.9460903,-0.6803051,-0.4591635
0.9746496,-0.5584475,-0.4587416
0.9024784,-0.418463,-0.4145411
0.8150302,-0.3295943,-0.3341374
0.6565181,-0.2973155,-0.2498357
0.534246,-0.3103668,-0.1966519
0.4750594,-0.2303313,-0.2420611
0.4391215,-0.1449287,-0.2704331
0.5232422,-0.1677663,-0.2605387
0.6290514,-0.2425278,-0.2964228
0.7047262,-0.3410399,-0.2927996
0.7600307,-0.3576176,-0.2934203
0.778848,-0.3120056,-0.3215629
0.8438887,-0.2481942,-0.3190628
0.9688049,-0.1290733,-0.3385046
1.119238,-0.09847621,-0.357299
1.227045,-0.1554838,-0.3433669
1.301817,-0.1754054,-0.3096922
1.334857,-0.209947,-0.2952444
1.244809,-0.2469093,-0.3776959
1.194392,-0.3152385,-0.5142441
1.202182,-0.5832666,-0.584808
1.112168,-0.8353636,-0.59703
1.038373,-0.7632161,-0.6320655
1.073035,-0.6557522,-0.6469711
1.089438,-0.6874632,-0.586295
0.9516508,-0.6102162,-0.4347979
0.8082251,-0.5058688,-0.2585806
0.8247563,-0.4818535,-0.2803241
0.8129128,-0.4179384,-0.3600979
0.6915101,-0.3614068,-0.2835534
0.5603292,-0.3347317,-0.2831424
0.4567748,-0.3289495,-0.2825284
0.437686,-0.3481411,-0.1694318
0.490722,-0.334789,-0.1691101
0.5442592,-0.3489701,-0.1735913
0.5651163,-0.369388,-0.1452193
0.5608301,-0.355466,-0.1671146
0.5822223,-0.3871301,-0.1452198
0.6726646,-0.4398796,-0.1400474
0.7861878,-0.475296,-0.1157254
0.865851,-0.4635806,-0.05476005
0.9471097,-0.4336536,-0.04465824
1.025276,-0.4319451,-0.03060108
1.109596,-0.3930379,-0.03921974
1.205618,-0.3690942,-0.07519407
1.199194,-0.4936284,-0.1442555
1.174148,-0.9068961,-0.2649837
1.212985,-1.305142,-0.3355729
1.133551,-1.023708,-0.3685168
0.9976285,-0.6346464,-0.3850005
0.8852076,-0.8541358,-0.3218039
0.7192881,-0.8892033,-0.2342932
0.7656844,-0.69397,-0.2873361
1.01974,-0.7214989,-0.4609854
1.113233,-0.4923726,-0.5373452
1.070517,-0.3236503,-0.4254811
0.9702534,-0.395761,-0.2426214
0.8735461,-0.3257291,-0.2226748
0.8433442,-0.4257136,-0.2796856
0.7737535,-0.4587708,-0.260751
0.7210593,-0.3302277,-0.3429788
0.6805089,-0.3597098,-0.3877291
0.6401304,-0.3457568,-0.3354213
0.6717317,-0.4155956,-0.3538634
0.6634046,-0.4710387,-0.3225163
0.6392314,-0.3851592,-0.3118085
0.6129302,-0.3390549,-0.3186734
0.5615786,-0.1748159,-0.2653682
0.6023642,-0.03491994,-0.2911984
0.6861764,0.02460346,-0.3155546
0.7954071,0.0696687,-0.3151965
0.9553583,0.005076395,-0.3012592
1.10211,-0.01726917,-0.207094
1.241067,-0.04815849,-0.1368372
1.357193,-0.08799602,-0.1304549
1.458667,-0.1064879,-0.1943857
1.529249,-0.2301043,-0.333039
1.486892,-0.3916673,-0.4443833
1.363347,-0.6240775,-0.4656068
1.209719,-0.7436924,-0.5587405
1.123268,-0.5829345,-0.777059
1.169586,-0.5173416,-0.7664621
1.123893,-0.6188628,-0.5583502
0.8971835,-0.6353817,-0.3935941
0.6812861,-0.5716402,-0.1912497
0.5771053,-0.4957529,-0.1642537
0.5890671,-0.4121474,-0.29586
0.5689961,-0.3169247,-0.3150428
0.4828632,-0.2281092,-0.3368714
0.4551891,-0.1856198,-0.2985453
0.4269203,-0.1782426,-0.222844
0.4651717,-0.1835077,-0.2315832
0.6032818,-0.2206039,-0.1919531
0.7030621,-0.3038951,-0.1776336
0.7536436,-0.4131012,-0.1886717
0.7775599,-0.4889917,-0.151393
0.8830998,-0.5131283,-0.1379287
0.9926309,-0.525903,-0.1433253
0.9785849,-0.524179,-0.1632854
0.9843013,-0.5069896,-0.1348778
0.9880696,-0.4905267,-0.06492558
0.987803,-0.4509332,-0.004159079
1.022668,-0.4017853,0.04957529
1.02049,-0.3918221,0.02405223
1.044108,-0.4751178,-0.04354122
1.114432,-0.6976546,-0.1677221
1.183905,-0.8797361,-0.3400599
1.143663,-0.7904474,-0.4048234
1.017446,-0.642904,-0.4122275
0.984136,-0.6477106,-0.4035709
0.9648103,-0.6226615,-0.3609549
0.943245,-0.5757119,-0.3517384
0.9997872,-0.5782434,-0.3851343
1.04436,-0.5144408,-0.4289178
1.002061,-0.4476131,-0.3974281
0.8624291,-0.4154682,-0.3234249
0.7007636,-0.3993714,-0.2753602
0.5581814,-0.4418557,-0.1991638
0.4732479,-0.4546192,-0.1752237
0.4690982,-0.3727528,-0.2163491
0.4716058,-0.2345483,-0.2456509
0.5334499,-0.167878,-0.2885268
0.6359397,-0.2130657,-0.2810656
0.6818129,-0.2495165,-0.2459378
0.6865787,-0.27198,-0.2575148
0.7239296,-0.2508739,-0.2613894
0.8826469,-0.179022,-0.2986599
1.051181,-0.165857,-0.3800493
1.185477,-0.1813762,-0.4171384
1.318482,-0.1820328,-0.3969648
1.331488,-0.1801233,-0.3486997
1.327254,-0.1838897,-0.3312307
1.386642,-0.228097,-0.393813
1.400338,-0.3228467,-0.5140655
1.342968,-0.4670417,-0.5790068
1.202206,-0.583857,-0.5461733
1.058947,-0.5791568,-0.5556588
1.026948,-0.5266279,-0.6097882
1.069637,-0.497091,-0.6065354
1.037015,-0.4505489,-0.5577166
0.8443652,-0.4350451,-0.3926498
0.6742651,-0.4628235,-0.1850987
0.7134958,-0.4426991,-0.2033042
0.7739052,-0.4150092,-0.289141
0.6699417,-0.3800504,-0.2348786
0.575585,-0.3017775,-0.251968
0.5149542,-0.2657154,-0.2807105
0.4732257,-0.2644053,-0.2060811
0.5969997,-0.2868472,-0.2013868
0.6679154,-0.333202,-0.1900982
0.621142,-0.3618588,-0.1594715
0.6616073,-0.4018783,-0.1539501
0.7336741,-0.4136671,-0.0978599
0.8185322,-0.4224455,-0.1277834
0.8864227,-0.4933885,-0.1658647
0.9478577,-0.5250598,-0.113347
1.022617,-0.4918014,-0.09692739
1.028247,-0.4565014,-0.0619309
1.074191,-0.4490139,-0.04334325
1.128543,-0.51503,-0.1240883
1.132717,-0.6969412,-0.2909698
1.160858,-0.8604432,-0.4804046
1.11324,-0.7888296,-0.5029548
1.013773,-0.6429754,-0.4235594
0.9284273,-0.6056546,-0.422963
0.8691273,-0.5678967,-0.440192
0.933739,-0.5702994,-0.4563891
1.00443,-0.5590119,-0.4715394
0.9296384,-0.4417023,-0.3690084
0.8147525,-0.3889606,-0.2009915
0.7120941,-0.3695763,-0.1407129
0.6183945,-0.3429254,-0.1529729
0.5802395,-0.3190072,-0.149438
0.4920536,-0.1412875,-0.1570986
0.4309194,0.005866937,-0.179871
0.5628498,-0.1061073,-0.2323061
0.6581295,-0.2803095,-0.2993247
0.6684935,-0.3524939,-0.2897904
0.7568861,-0.4259435,-0.2733584
0.8860636,-0.5041269,-0.358015
1.012402,-0.374322,-0.4492084
1.06311,-0.149312,-0.473723
1.0722,-0.1248023,-0.4511367
1.08851,-0.1887449,-0.4157276
1.095427,-0.1842875,-0.4015704
1.19144,-0.1969167,-0.3841974
1.320544,-0.2642033,-0.4107307
1.40296,-0.3549543,-0.5253301
1.396645,-0.4694262,-0.620805
1.275662,-0.6011912,-0.613771
1.174295,-0.7062521,-0.5803914
1.081089,-0.6801426,-0.6143875
1.009661,-0.5806287,-0.602314
1.016462,-0.5460069,-0.5259936
0.9888445,-0.4819009,-0.4818505
0.9104604,-0.421103,-0.3725654
0.8328228,-0.4054889,-0.2716525
0.8109944,-0.3288766,-0.2644379
0.7586553,-0.2991098,-0.2599171
0.5810001,-0.281708,-0.2730877
0.4753407,-0.2322482,-0.2515102
0.4937292,-0.2645231,-0.1941755
0.5071447,-0.2863153,-0.1589829
0.5243778,-0.3322507,-0.1461766
0.553291,-0.4148901,-0.1467784
0.5763183,-0.3911508,-0.1001619
0.6703254,-0.3719252,-0.1323937
0.8298085,-0.4340148,-0.2256468
0.8683712,-0.4982866,-0.2098201
0.8534301,-0.5383526,-0.1796736
0.9447224,-0.5167842,-0.1244723
0.9917059,-0.4524608,-0.06773037
1.026518,-0.418761,-0.07697127
1.127524,-0.4234868,-0.06950259
1.133484,-0.541367,-0.1625094
1.113479,-0.7597615,-0.3380039
1.125649,-0.8238735,-0.4155775
1.071468,-0.7285929,-0.445506
0.9981804,-0.667279,-0.4610481
0.9219475,-0.6335176,-0.4480604
0.8827398,-0.6142199,-0.4564055
0.8081941,-0.4364706,-0.1156654
0.9114758,-0.4268184,-0.1049927
1.039577,-0.4087812,-0.08071572
1.136761,-0.3953222,-0.06042034
1.192999,-0.3856905,-0.04647972
1.247303,-0.4697533,-0.05844888
1.267106,-0.657819,-0.1645075
1.283858,-0.8152696,-0.3420167
1.232662,-0.7249306,-0.418926
1.012913,-0.5396625,-0.4097345
0.8057366,-0.5366524,-0.4125951
0.7985053,-0.5954081,-0.3944897
0.8813903,-0.6420329,-0.4129737
0.9200083,-0.6231924,-0.455052
0.9748461,-0.5032139,-0.4277581
0.9648603,-0.4454386,-0.3655883
0.8170108,-0.4128449,-0.2484862
0.7409508,-0.3732964,-0.1552663
0.6947151,-0.3139732,-0.1956105
0.5957888,-0.1729614,-0.2201217
0.5539187,-0.1163277,-0.1982166
0.528921,-0.1535383,-0.1959016
0.5355517,-0.2011218,-0.1765856
0.5706318,-0.2763662,-0.2100734
0.6695346,-0.3388239,-0.2792191
0.8544078,-0.345918,-0.3082193
0.9302343,-0.2395366,-0.3768436
0.9560336,-0.1043283,-0.4304067
1.044611,-0.04045837,-0.3875996
1.159573,-0.04314964,-0.3780025
1.285741,-0.1051165,-0.4291486
1.357899,-0.2028822,-0.4729328
1.398597,-0.3874948,-0.5201667
1.378904,-0.5770165,-0.5391483
1.290846,-0.6720314,-0.5393196
1.204688,-0.685278,-0.5846655
1.108952,-0.6396178,-0.6484227
1.067559,-0.6473303,-0.6430092
1.018001,-0.5925925,-0.4812876
0.899784,-0.4736361,-0.2795242
0.8577672,-0.4916238,-0.2595188
0.8566474,-0.474145,-0.2979297
0.7975294,-0.4019967,-0.2267172
0.7419634,-0.4131835,-0.1991205
0.6683957,-0.3827897,-0.2301515
0.4770456,-0.2967857,-0.2054362
0.3551387,-0.2628472,-0.2074225
0.4474351,-0.2878265,-0.2315237
0.5100206,-0.2910445,-0.223746
0.5378071,-0.2920632,-0.231263
0.6323079,-0.3750707,-0.222555
0.667291,-0.4702577,-0.1827402
0.6620413,-0.5040001,-0.1070087
0.651436,-0.4975698,-0.03850966
0.6848592,-0.4842269,-0.08315412
0.8009649,-0.4609227,-0.1343882
0.9056383,-0.4399557,-0.1224138
0.9848816,-0.434435,-0.1223464
0.9954702,-0.4087235,-0.09484467
0.9986435,-0.4104448,-0.04344451
1.064696,-0.4278229,-0.02246144
1.075925,-0.4260723,-0.06736701
1.134096,-0.5343019,-0.2123916
1.350348,-0.7352202,-0.3673853
1.485456,-0.8184902,-0.4211806
1.194402,-0.6806537,-0.3661324
0.7342057,-0.5641873,-0.2743194
0.7308679,-0.6868316,-0.2419485
0.9398596,-0.7556056,-0.3562374
0.9668513,-0.639506,-0.5569694
0.946513,-0.5219493,-0.564124
0.8744035,-0.3911436,-0.3861225
0.8231782,-0.333012,-0.2669063
0.7938783,-0.3736591,-0.213445
0.7298308,-0.341561,-0.2123191
0.7214419,-0.2879966,-0.1951229
0.6441151,-0.2476479,-0.1458961
0.5431435,-0.1654232,-0.1532193
0.5109359,-0.1255535,-0.1242784
0.5358201,-0.1641414,-0.1268642
0.6818664,-0.2266128,-0.2189747
0.7945108,-0.2523864,-0.287675
0.8717323,-0.2279032,-0.3336942
0.9649199,-0.2082074,-0.3281303
0.9767761,-0.2002324,-0.3194266
0.9833618,-0.1752028,-0.312539
0.9978122,-0.1354974,-0.2679289
1.044943,-0.1061276,-0.269994
1.12952,-0.1013039,-0.2752427
1.157759,-0.08017041,-0.3001662
1.197668,-0.04627587,-0.3623819
1.320844,-0.1164948,-0.3835166
1.482729,-0.3016824,-0.4188989
1.563318,-0.4618104,-0.4982905
1.536867,-0.56454,-0.5784737
1.381446,-0.601594,-0.5744088
1.097043,-0.5178053,-0.5383415
0.9903351,-0.4239427,-0.5654353
1.051972,-0.4426753,-0.5117651
0.9776474,-0.50696,-0.3620154
0.8551808,-0.5305643,-0.2145625
0.7818722,-0.5151104,-0.1528512
0.7214209,-0.4385615,-0.2197368
0.6668183,-0.3158947,-0.2368136
0.5387194,-0.2548938,-0.2274524
0.4214952,-0.2683028,-0.2737867
0.4340418,-0.3061732,-0.2504511
0.4788641,-0.3381324,-0.2207388
0.5225193,-0.3394437,-0.214095
0.5588695,-0.334922,-0.1915337
0.5682632,-0.3502681,-0.1860459
0.6292418,-0.3738616,-0.1412625
0.6867243,-0.3773235,-0.1062627
0.7196475,-0.3757986,-0.1086778
0.8197989,-0.3821092,-0.08650295
0.9355438,-0.3796373,-0.05987485
1.055939,-0.386577,-0.00692879
1.183486,-0.3962506,0.01471233
1.246295,-0.5291901,-0.09199272
1.263543,-0.9806206,-0.3101752
1.252409,-1.309713,-0.5040963
1.133381,-0.8281469,-0.4504333
0.8676706,-0.2541376,-0.3023891
0.7211199,-0.5000494,-0.3134847
0.9148851,-0.6772174,-0.3100953
1.074376,-0.4764114,-0.301403
0.9696756,-0.4932333,-0.4077363
0.9171115,-0.2968094,-0.4620836
0.8891074,-0.1582698,-0.3956491
0.6588005,-0.3762884,-0.1842158
0.4327376,-0.330371,0.03008156
0.4179828,-0.299268,-0.0273663
0.4936197,-0.2921719,-0.1822577
0.5025209,-0.1160026,-0.2786961
0.5513858,-0.1451401,-0.3879984
0.7280838,-0.2672894,-0.3622403
0.8415746,-0.4806879,-0.2777621
0.8206576,-0.6130617,-0.3188206
0.7898201,-0.4333902,-0.341869
0.8675635,-0.2611672,-0.378721
0.9664774,-0.1110125,-0.4595507
0.9618854,-0.02792082,-0.4476562
1.001693,-0.06232064,-0.3793879
1.088944,-0.07542485,-0.267039
1.196151,-0.1110506,-0.242357
1.305216,-0.1077246,-0.2739996
1.261039,-0.1056814,-0.2058581
1.246434,-0.1745562,-0.2938617
1.304954,-0.2855949,-0.4575711
1.277515,-0.5622701,-0.5618155
1.231874,-0.8192127,-0.7160512
1.121388,-0.6520125,-0.7142815
1.015841,-0.4050585,-0.5930215
1.045592,-0.5584301,-0.4858255
1.030721,-0.6363784,-0.4103651
0.9115714,-0.5448195,-0.3528436
0.8618712,-0.6195132,-0.2363646
0.8520164,-0.5022506,-0.2742869
0.7412478,-0.3370845,-0.3685959
0.5949178,-0.3787525,-0.3624841
0.5161472,-0.3575883,-0.397036
0.5146247,-0.3792106,-0.3242588
0.5139976,-0.3906203,-0.2523016
0.5051174,-0.3138366,-0.2821207
0.5739969,-0.246403,-0.2446146
0.646767,-0.1782277,-0.2328812
0.68359,-0.2638999,-0.2338404
0.7292952,-0.3993589,-0.2234973
0.8059784,-0.4985745,-0.1930405
0.9457567,-0.567076,-0.09748186
1.054842,-0.464742,-0.07750012
1.116554,-0.3727677,-0.1135271
1.170391,-0.3408945,-0.1368795
1.138803,-0.2985711,-0.1492812
1.092857,-0.3188893,-0.1502631
1.111304,-0.3845981,-0.2021192
1.069943,-0.6374891,-0.3492
0.96444,-0.9146584,-0.5466104
0.8911431,-0.7807178,-0.5473787
0.8398411,-0.5736404,-0.4455874
0.9032486,-0.662979,-0.5052751
1.027043,-0.6500133,-0.4921036
1.001364,-0.5296732,-0.4179196
0.9607778,-0.5211936,-0.396227
0.8767972,-0.4043839,-0.2979336
0.6264479,-0.2861769,-0.2398539
0.523023,-0.220631,-0.2032635
0.5737814,-0.1204198,-0.1833767
0.5522104,-0.1311662,-0.2265906
0.5722385,-0.1830055,-0.1989657
0.6315256,-0.2942473,-0.2239231
0.6299328,-0.3617007,-0.2673282
0.6875778,-0.2711262,-0.2643456
0.8610171,-0.2168249,-0.3707055
1.031483,-0.1272769,-0.4280788
1.140716,-0.1079411,-0.3974284
1.20924,-0.1867335,-0.3558559
1.235151,-0.1920093,-0.311005
1.249345,-0.3319668,-0.441741
1.266668,-0.5104598,-0.6703366
1.251032,-0.6375586,-0.7813168
1.202131,-0.7983038,-0.7597222
1.102968,-0.7970488,-0.6879683
1.002897,-0.7101683,-0.5988104
0.9812211,-0.6202209,-0.4564759
0.8964382,-0.4932666,-0.3924159
0.7540216,-0.4719818,-0.3946137
0.7459009,-0.4732312,-0.2978875
0.7271549,-0.4200491,-0.2196967
0.6387228,-0.422379,-0.2446287
0.5538885,-0.4149007,-0.288592
0.3805063,-0.3475909,-0.2975085
0.3686639,-0.326991,-0.2838796
0.5263812,-0.3197582,-0.2657091
0.528619,-0.2722805,-0.2096648
0.563915,-0.2868157,-0.1784455
0.6416976,-0.3385092,-0.2004704
0.6641299,-0.3624178,-0.2115311
0.7355183,-0.3925161,-0.2151713
0.7457513,-0.4104823,-0.1911188
0.8271678,-0.4569913,-0.1267809
0.9468613,-0.5230597,-0.05129704
0.9895879,-0.5359759,-0.01772748
1.145064,-0.5685046,-0.06973191
1.219023,-0.6626169,-0.17279
1.232862,-0.8263961,-0.3376062
1.283715,-0.9526459,-0.5140128
1.137099,-0.8405789,-0.5246781
0.9504034,-0.6500287,-0.4131281
0.8422844,-0.5846276,-0.3841986
0.8440443,-0.5819802,-0.4489523
0.9680342,-0.5844237,-0.5347612
1.004355,-0.5168611,-0.5674494
0.9481452,-0.3938934,-0.4461178
0.8064385,-0.3024957,-0.2585438
0.6405663,-0.2735362,-0.1549139
0.5450813,-0.3029601,-0.1315652
0.4479868,-0.2484769,-0.1389716
0.4054513,-0.1396449,-0.1647179
0.4270553,-0.133213,-0.2073102
0.5232075,-0.216989,-0.227282
0.6911081,-0.3681523,-0.2642201
0.7878731,-0.428725,-0.3468065
0.8557327,-0.3382395,-0.3916455
0.9399365,-0.2340179,-0.4418702
1.004837,-0.1393528,-0.4863542
1.135291,-0.131502,-0.4403055
1.311126,-0.1551858,-0.4194334
1.33218,-0.1260231,-0.4332576
1.270043,-0.1967043,-0.390589
1.307627,-0.301579,-0.3742369
1.277109,-0.3406839,-0.4345069
1.212242,-0.4249402,-0.5088765
1.205201,-0.5326788,-0.5439398
1.093213,-0.6000372,-0.5684895
0.9905979,-0.6228255,-0.6026057
0.9577655,-0.5758415,-0.5748794
0.9315931,-0.5254917,-0.4673108
0.8934368,-0.5115182,-0.3083403
0.797445,-0.4622181,-0.219612
0.7717496,-0.4055869,-0.269484
0.7144536,-0.376141,-0.2990587
0.5552461,-0.3425604,-0.3128921
0.5159194,-0.3338892,-0.3239175
0.5253412,-0.3387749,-0.2639748
0.5134525,-0.3444525,-0.25322
0.5608664,-0.3715775,-0.2447797
0.6469561,-0.3758182,-0.1928498
0.7065912,-0.3646255,-0.1833327
0.7050901,-0.3758655,-0.1770155
0.7618091,-0.4001108,-0.1866518
0.8834144,-0.4258416,-0.1798605
0.9594673,-0.4154535,-0.152764
1.044715,-0.3906073,-0.1483665
1.096867,-0.4038782,-0.1133703
1.012217,-0.4886024,-0.1574743
0.9254802,-0.7598572,-0.372884
0.9267513,-1.00544,-0.5838934
0.8743457,-0.8136424,-0.5303277
0.7526284,-0.5910483,-0.3533346
0.7225645,-0.7659371,-0.3671871
0.8762289,-0.8121798,-0.4113455
1.076258,-0.6410776,-0.4969161
1.035033,-0.5647378,-0.6127652
0.8808175,-0.364817,-0.4313522
0.8453731,-0.2096842,-0.2542504
0.7684573,-0.3181716,-0.2837666
0.6890204,-0.3948039,-0.2779085
0.6544264,-0.4074511,-0.2835397
0.6225469,-0.4184446,-0.3167454
0.6704937,-0.4214726,-0.3289926
0.6519786,-0.4662405,-0.3218769
0.6404001,-0.4996343,-0.3258519
0.6830734,-0.4868083,-0.3489153
0.6301945,-0.409899,-0.3348645
0.6238456,-0.241289,-0.3470627
0.6156695,-0.08003022,-0.3696475
0.6833685,-0.1177655,-0.394947
0.9224303,-0.2037193,-0.4657832
1.01979,-0.1426115,-0.4775093
1.051126,-0.1519786,-0.4044718
1.172298,-0.1496568,-0.312858
1.255916,-0.05155025,-0.2746618
1.261912,-0.09650877,-0.2910032
1.274858,-0.2301275,-0.3267584
1.311496,-0.4484081,-0.4338764
1.244924,-0.6514555,-0.5384012
1.172545,-0.6558233,-0.5485362
1.12238,-0.6427433,-0.5861769
1.045273,-0.6154903,-0.6545641
1.040089,-0.5760398,-0.5688587
0.9507927,-0.6125814,-0.4004185
0.8286198,-0.6121752,-0.3105717
0.8264853,-0.5820199,-0.2795321
0.7984805,-0.5160966,-0.3086737
0.7272743,-0.4131523,-0.3127639
0.6164965,-0.335855,-0.282014
0.5129345,-0.2705674,-0.3025707
0.4927536,-0.2356876,-0.2763646
0.5255763,-0.2322477,-0.2467257
0.5897529,-0.2934319,-0.24158
0.5958139,-0.3765937,-0.1931514
0.6006594,-0.3858905,-0.1902573
0.6831211,-0.3802407,-0.1964259
0.7625187,-0.4028946,-0.1774532
0.8328779,-0.4637504,-0.152917
0.8598354,-0.5015,-0.109178
0.9011853,-0.4599522,-0.1193496
1.04125,-0.4346459,-0.1410408
1.155733,-0.4529951,-0.1393878
1.196996,-0.5375463,-0.1898905
1.175881,-0.7871202,-0.3307616
1.125132,-1.002579,-0.5152789
1.080246,-0.8108717,-0.5488432
0.9503031,-0.5164883,-0.4491856
0.8081457,-0.5778393,-0.4407403
0.80082,-0.658561,-0.4796798
0.8862354,-0.6309894,-0.4912931
0.9521949,-0.6301137,-0.4921738
0.9244721,-0.4897323,-0.3833135
0.8474437,-0.3768207,-0.2093837
0.7617489,-0.349381,-0.14769
0.6814401,-0.2878232,-0.1870077
0.6365329,-0.2563662,-0.1997466
0.5820457,-0.1704138,-0.1825711
0.5459439,-0.129009,-0.1978467
0.5593187,-0.1579908,-0.1988703
0.5881305,-0.173995,-0.2126011
0.6903524,-0.3041981,-0.3065089
0.8336015,-0.3923056,-0.3913503
0.9149604,-0.3486365,-0.4119557
0.9550078,-0.2890899,-0.3897464
0.9977671,-0.1974667,-0.3744983
1.094501,-0.08951129,-0.3651434
1.22645,0.003894132,-0.3373115
1.276839,-0.02779007,-0.3743858
1.296382,-0.2139812,-0.4309975
1.355247,-0.3956901,-0.4521756
1.354814,-0.4658481,-0.5240298
1.328155,-0.48843,-0.5966105
1.276968,-0.57377,-0.5968111
1.107503,-0.5800019,-0.5934501
1.00472,-0.504652,-0.6148968
1.021359,-0.5075142,-0.5393599
0.9471574,-0.4842184,-0.377663
0.8343834,-0.4436373,-0.2722716
0.8169279,-0.4170562,-0.1995388
0.8116493,-0.3562846,-0.1936559
0.7015977,-0.2995374,-0.2489487
0.5250081,-0.2170321,-0.2323041
0.4076129,-0.2002756,-0.2068791
0.4067692,-0.2452286,-0.1953061
0.4741465,-0.2579847,-0.1891573
0.519458,-0.3172553,-0.2300782
0.547012,-0.3378731,-0.2362271
0.6538103,-0.342915,-0.2326617
0.8222458,-0.4513603,-0.2538179
0.8625564,-0.507375,-0.2404622
0.8169118,-0.4673945,-0.16652
0.8840847,-0.4234984,-0.06786348
0.9257088,-0.3999437,-0.08825591
0.9556853,-0.4093973,-0.1408639
1.127417,-0.4355114,-0.1059436
1.205558,-0.4575216,-0.125114
1.177058,-0.5432289,-0.18983
1.240917,-0.7769354,-0.337613
1.26773,-0.9253382,-0.5257889
1.125343,-0.7244873,-0.4758688
0.9127923,-0.4897101,-0.3726755
0.7706924,-0.5333104,-0.397633
0.737623,-0.6016209,-0.3927758
0.8459779,-0.5767591,-0.4472466
0.9955427,-0.5592867,-0.5108204
0.9653821,-0.4329515,-0.4121627
0.8475687,-0.2983865,-0.2817542
0.772378,-0.313875,-0.1766066
0.7194202,-0.3308995,-0.1107652
0.7106364,-0.2951438,-0.1406383
0.6391829,-0.2097885,-0.1859128
0.5476994,-0.1005152,-0.2073738
0.5821936,-0.09809653,-0.2157612
0.6591905,-0.217565,-0.2096613
0.7799361,-0.3594358,-0.2284091
0.8810723,-0.4026849,-0.2992422
0.8773558,-0.2964134,-0.3867459
0.9126312,-0.1270042,-0.4016428
0.9478401,-0.05765962,-0.3697009
0.9699039,-0.125409,-0.3917949
1.075154,-0.1784736,-0.4097347
1.136208,-0.1549358,-0.39317
1.178473,-0.1571805,-0.4135118
1.31306,-0.2230802,-0.4678236
1.43815,-0.3123477,-0.5743056
1.479687,-0.465238,-0.6571775
1.412746,-0.6101459,-0.597937
1.228835,-0.5834855,-0.5331661
1.031928,-0.4809899,-0.5201403
0.9907103,-0.4051606,-0.465535
1.069115,-0.3456756,-0.4199577
1.039989,-0.3836128,-0.3925825
0.9354874,-0.4685828,-0.3073814
0.8687513,-0.4744902,-0.2105896
0.7904592,-0.4183217,-0.214238
0.6960615,-0.3166817,-0.2342704
0.5820279,-0.2560106,-0.1859229
0.5126648,-0.2970862,-0.2186436
0.4743023,-0.3054137,-0.2619876
0.4446548,-0.3055569,-0.2052287
0.5419034,-0.3434408,-0.1973657
0.6043999,-0.3158435,-0.2126848
0.6499813,-0.2913157,-0.2330382
0.7756799,-0.3283123,-0.2751893
0.7997164,-0.4152954,-0.22751
0.8722804,-0.5233522,-0.1817122
0.9344298,-0.5177968,-0.199126
0.916546,-0.4723233,-0.1947347
1.034085,-0.5021344,-0.173898
1.041262,-0.4935177,-0.1606875
1.017359,-0.4819882,-0.1785481
1.157144,-0.5374171,-0.2293315
1.224001,-0.5869241,-0.3041003
1.379659,-0.7101515,-0.4121595
1.546288,-0.8322335,-0.5042476
1.25678,-0.7110934,-0.4433286
0.8064076,-0.5720738,-0.2667049
0.7596635,-0.6640472,-0.2428406
0.9136136,-0.7236424,-0.3663765
0.9371282,-0.6424807,-0.4407524
