accx,accy,accz
0.07815351,0.8699775,0.4717409
0.09271287,0.8810138,0.4419717
0.09968984,0.9187061,0.4121042
0.1078656,0.9220691,0.4111509
0.1392801,0.9218799,0.4245886
0.1695512,0.9444294,0.4061332
0.1733243,0.9374729,0.3984946
0.1451101,0.9030057,0.4106937
0.1050124,0.8643378,0.4102032
0.08400051,0.8320042,0.4232022
0.102221,0.8468689,0.4290316
0.1558352,0.871683,0.4320187
0.1881671,0.8591667,0.4412439
0.1780232,0.8716866,0.4289829
0.1683126,0.8984112,0.4248318
0.1652078,0.9159366,0.4167999
0.1517775,0.9381584,0.3894377
0.1467518,0.9190993,0.3730051
0.1627521,0.8966787,0.3706563
0.1644224,0.8947292,0.3815376
0.1558765,0.8828137,0.3901784
0.1585976,0.8936644,0.4014309
0.154942,0.9088408,0.418947
0.1587955,0.9125417,0.4171372
0.1646952,0.9154498,0.4102882
0.1650046,0.908044,0.4031364
0.1657005,0.907891,0.3916741
0.1511209,0.9056771,0.3867305
0.1436681,0.9020533,0.383106
0.1372858,0.9065844,0.3897706
0.1310124,0.9031976,0.401111
0.1447966,0.9061735,0.4020029
0.1486497,0.9116698,0.4037701
0.1494873,0.9103901,0.4037386
0.1516441,0.9121952,0.3987523
0.1479647,0.9090433,0.3987056
0.15158,0.9031866,0.396043
0.1494736,0.8960884,0.3881668
0.1493752,0.8935684,0.3897228
0.1506773,0.9006324,0.3998062
0.1449083,0.9004758,0.4066239
0.144404,0.9003127,0.4053972
0.1441156,0.9066525,0.4021027
0.1465545,0.9108783,0.4035517
0.1483265,0.9128007,0.397753
0.1462694,0.9092346,0.3894207
0.1477576,0.9063122,0.3939039
0.1459834,0.9039981,0.3970937
0.1456114,0.902386,0.3963132
0.1471674,0.9065879,0.39624
0.1471383,0.9075238,0.3916915
0.1491189,0.9106113,0.3889252
0.1504712,0.9125746,0.3870744
0.1539389,0.9084256,0.385745
0.1549111,0.9118793,0.3877755
0.1521803,0.9121148,0.3888056
0.1504292,0.9100022,0.3955829
0.1456319,0.9150757,0.4065828
0.1444973,0.9151117,0.4085728
0.1508633,0.9118545,0.4035556
0.1563021,0.9067177,0.39874
0.154324,0.9027345,0.3959455
0.1494581,0.904736,0.3950199
0.1484026,0.9041479,0.3943822
0.1457957,0.9038611,0.3931671
0.1431291,0.905335,0.3930277
0.1418836,0.9072944,0.3941446
0.141759,0.9111168,0.3940072
0.1470675,0.9098866,0.3919428
0.1479967,0.9078647,0.3898778
0.1455088,0.908744,0.392519
0.1461935,0.9079132,0.3959912
0.1458739,0.9074004,0.3931254
0.1491184,0.9069076,0.3912274
0.15282,0.9072916,0.392782
0.1528876,0.9108767,0.3948991
0.1515821,0.913305,0.3982574
0.1479169,0.9117183,0.3961662
0.1466514,0.9091709,0.3908856
0.1471656,0.9084986,0.3890488
0.1473253,0.9074809,0.3864837
0.1474184,0.9064634,0.3846295
0.1464498,0.9080628,0.3879259
0.1457923,0.9085948,0.3920364
0.1445361,0.9072163,0.3915489
0.1477412,0.9069226,0.3907856
0.1528259,0.9077195,0.3925457
0.1514823,0.9086145,0.3913057
0.1507885,0.9075017,0.3902697
0.1518743,0.906334,0.3907601
0.1510166,0.9071495,0.3901638
0.1504759,0.9070291,0.3932544
0.1498193,0.9067673,0.3954888
0.150359,0.9067346,0.3947374
0.1529106,0.9050807,0.3970666
0.1548841,0.9036371,0.3994376
0.1537394,0.9036177,0.3993505
0.1495187,0.902758,0.3997644
0.1454504,0.9017492,0.4006904
0.1449227,0.9064188,0.3948076
0.1472669,0.9113154,0.3883553
0.1469579,0.9063752,0.3962988
0.1456987,0.9018037,0.4023564
0.1477679,0.9048582,0.3931467
0.1499482,0.9057639,0.3874233
0.1520287,0.9047681,0.3917834
0.1524388,0.9052149,0.3940415
0.1526951,0.9037702,0.3933088
0.1578865,0.903236,0.3961671
0.1594232,0.9021371,0.4010725
0.1559484,0.8996471,0.4044792
0.1533596,0.9041699,0.4009714
0.1493483,0.909222,0.3937589
0.1464943,0.9067855,0.3939284
0.1440869,0.9060593,0.3913129
0.1431884,0.9073811,0.3869483
0.1456291,0.9049263,0.3945109
0.1445877,0.9037373,0.3988127
0.1457537,0.9061337,0.3966079
0.1499492,0.9076354,0.3981867
0.1511328,0.9071661,0.4011762
0.1561916,0.9074965,0.4065812
0.159743,0.9088206,0.4071104
0.1548518,0.9084833,0.3994726
0.1499391,0.9079216,0.3940693
0.148454,0.9084549,0.39548
0.1487174,0.9074062,0.400519
0.1497218,0.9064879,0.4006862
0.1515006,0.9070919,0.398626
0.1536149,0.9071469,0.3984428
0.1541559,0.907955,0.3973122
0.1525794,0.9099078,0.3994539
0.1505382,0.9118428,0.3996534
0.1507233,0.912993,0.3957373
0.1492996,0.9116716,0.3921415
0.1459161,0.907784,0.3856123
0.1466755,0.9043338,0.386176
0.1462494,0.9052215,0.3920881
0.1436217,0.9073891,0.3914295
0.1461683,0.9067798,0.3933602
0.148954,0.9068449,0.3942205
0.1495485,0.9072555,0.3922546
0.1519736,0.9066131,0.3975083
0.1517239,0.9071127,0.3989033
0.1483903,0.9073601,0.3937599
0.1466118,0.9085107,0.390468
0.1453107,0.9110518,0.3910268
0.1460762,0.9128174,0.3939113
0.1491301,0.916083,0.3927126
0.1500491,0.9171498,0.3922016
0.1481744,0.9122247,0.3912044
0.1449471,0.9078716,0.3878998
0.1453705,0.9069278,0.3926376
0.1487253,0.9063916,0.3962444
0.1490489,0.9042663,0.3934742
0.1499721,0.9021026,0.3920645
0.1505631,0.9034063,0.3918041
0.1484477,0.9046762,0.392845
0.1485184,0.9021576,0.3925714
0.1487555,0.9009326,0.3922775
0.1483978,0.9042327,0.3922174
0.1484895,0.9097317,0.3898101
0.14666,0.9142575,0.3902388
0.1463881,0.9132161,0.3910556
0.1510811,0.9057914,0.3923815
0.1553335,0.8989149,0.3977776
0.1511923,0.8997236,0.3979186
0.1459208,0.9061507,0.3927028
0.1481309,0.910765,0.3908836
0.147911,0.9126399,0.3905625
0.1461352,0.9145082,0.3900063
0.1491261,0.9163266,0.3922375
0.1495548,0.9151963,0.3937879
0.1485876,0.9099738,0.3918537
0.1471469,0.9051941,0.3916197
0.1449539,0.9022663,0.3936533
0.1483862,0.9018901,0.3949018
0.1523213,0.9027978,0.3943825
0.1531433,0.9010495,0.3916311
0.1529693,0.9028343,0.3886628
0.1509856,0.9061056,0.3866266
0.1493727,0.9062918,0.3872136
0.1474453,0.9088753,0.3882837
0.1472205,0.9081472,0.3871177
0.1486039,0.9058078,0.3884317
0.1468321,0.9083544,0.3906174
0.1467601,0.9087767,0.3938373
0.1480608,0.9079917,0.3990251
0.148057,0.9085152,0.3975222
0.1507273,0.9082535,0.3944005
0.1520605,0.9083599,0.3965139
0.1502247,0.9081606,0.397589
0.1494481,0.9074092,0.3972985
0.1493409,0.9065429,0.39718
0.1493677,0.905709,0.3972408
0.1500415,0.9041119,0.3983567
0.1503271,0.9009746,0.3983855
0.1495999,0.9004943,0.3965321
0.1490466,0.9063533,0.392408
0.1489377,0.9128675,0.3868228
0.1500585,0.9119732,0.3834675
0.1516927,0.9087661,0.3861283
0.1489054,0.9073721,0.3955114
0.1457602,0.9030384,0.4022915
0.147405,0.90322,0.399012
0.1477319,0.9077222,0.3950713
0.1468738,0.9071972,0.3972748
0.1483438,0.9094721,0.3969123
0.1491253,0.9125516,0.3955988
0.1499484,0.9106412,0.4006529
0.1529222,0.9110345,0.4012738
0.1547623,0.9113583,0.3979807
0.152506,0.9108387,0.3979252
0.1501099,0.9110184,0.3941917
0.1506515,0.9085647,0.3932264
0.1501584,0.9052403,0.3962418
0.149411,0.9033166,0.3965072
0.150255,0.9055505,0.3991595
0.1487166,0.9093301,0.3983818
0.1462732,0.9109281,0.3948372
0.1457163,0.9117453,0.3961638
0.1468455,0.9111836,0.3961322
0.1496176,0.9126966,0.3961509
0.1507371,0.9140006,0.3972302
0.1507105,0.9092209,0.3962532
0.1516591,0.9053438,0.3972525
0.1509676,0.9068807,0.3977775
0.1485213,0.9090585,0.395817
0.1466833,0.9099343,0.3934626
0.1477811,0.9115694,0.391555
0.1493159,0.9111351,0.3937454
0.147337,0.9070941,0.3950798
0.145567,0.9038453,0.3923175
0.1449923,0.9019904,0.3920782
0.1440034,0.9045084,0.3905529
0.1446419,0.9108493,0.3874005
0.1457429,0.9142255,0.3876574
0.1472908,0.9129908,0.3875689
0.1504123,0.9065373,0.3894531
0.1515749,0.9012531,0.392492
0.1488325,0.9017106,0.3929963
0.1460351,0.9048039,0.3934939
0.1470544,0.9088079,0.3921739
0.1479811,0.9089681,0.3925745
0.1466584,0.9092118,0.3949736
0.1472815,0.9104918,0.3968455
0.1480945,0.9070117,0.4012086
0.1494573,0.9051308,0.3999161
0.1528606,0.9040485,0.3951181
0.1531049,0.9027111,0.3941779
0.1521102,0.9047154,0.3907903
0.151475,0.9047745,0.3904131
0.1497446,0.9054721,0.3912035
0.1502853,0.9078433,0.3838577
0.1510199,0.9070213,0.3816271
0.1511137,0.906508,0.3903263
0.151015,0.9068801,0.39723
0.1489338,0.9055048,0.3946649
0.1483323,0.9052474,0.3897973
0.1480972,0.9076089,0.390581
0.1481092,0.9084311,0.3902557
0.1496185,0.907896,0.3897213
0.1491166,0.9087101,0.3911523
0.1502048,0.9083209,0.3896049
0.1516158,0.9078543,0.3905675
0.1506924,0.9078139,0.3916309
0.1509709,0.9064438,0.3911893
0.149676,0.9064761,0.3922585
0.1496839,0.9055537,0.3902691
0.1518465,0.9032716,0.3904943
0.1520153,0.9042735,0.3933639
0.1532388,0.9057192,0.3940805
0.1528103,0.9063365,0.3912508
0.1509424,0.9083196,0.3850011
0.1498792,0.9114295,0.3844699
0.1478834,0.9142411,0.3867649
0.1499435,0.9109552,0.3901089
0.1535871,0.9051987,0.3973685
0.1541187,0.9065095,0.3979195
0.1527876,0.907143,0.3975435
0.1503801,0.9043518,0.3992994
0.1514234,0.905581,0.3928643
0.1530267,0.9051478,0.3872624
0.1520185,0.9032282,0.3871017
0.150818,0.9047063,0.3873531
0.1467363,0.9051479,0.3883195
0.144508,0.9055432,0.3889867
0.1468879,0.9057749,0.3907341
0.1489677,0.9039015,0.3915978
0.1523,0.9022812,0.3929884
0.1537224,0.9015278,0.3972186
0.1509866,0.9049146,0.3947518
0.1492462,0.9098248,0.3892809
0.1483197,0.9100836,0.3891869
0.1481084,0.9091891,0.3913432
0.148158,0.9082418,0.3948901
0.1471163,0.9062456,0.3939756
0.1487894,0.9044044,0.3899399
0.1510192,0.9019656,0.3907869
0.1498791,0.9031174,0.3929505
0.1496277,0.9081871,0.3938783
0.1503924,0.9107489,0.3888417
0.1498204,0.9108418,0.3823409
0.1499587,0.9096308,0.3872056
0.1501569,0.9077244,0.3911115
0.1498442,0.9065788,0.3870263
0.1504398,0.9063475,0.3871198
0.1517911,0.9065954,0.3895698
0.1525456,0.9054916,0.3914645
0.149498,0.9069142,0.3940572
0.1456575,0.9096244,0.3925775
0.1475507,0.9074844,0.3887717
0.1515545,0.9056578,0.3877993
0.1550923,0.905327,0.3914872
0.1580836,0.9049474,0.3965433
0.1549745,0.904304,0.39546
0.1508275,0.9014634,0.3932403
0.1511167,0.9018869,0.3950513
0.1494158,0.9051955,0.3941067
0.1470223,0.9079936,0.3925966
0.1470409,0.9092514,0.3927247
0.1479207,0.9073846,0.3911582
0.1509867,0.9069623,0.3899973
0.1535283,0.9069981,0.3900384
0.1523046,0.9075552,0.3915412
0.1504607,0.9090462,0.3923927
0.1516266,0.9069979,0.393256
0.152841,0.9066046,0.3962043
0.1526139,0.9069115,0.3959801
0.1542277,0.9048082,0.3945553
0.1551068,0.9043219,0.3944543
0.1543561,0.9056993,0.3941534
0.1523147,0.9091484,0.3947539
0.1493696,0.910638,0.3934381
0.1499449,0.9109024,0.3898525
0.1505196,0.9118901,0.3864124
0.1504746,0.9104966,0.3870344
0.1520052,0.9108057,0.3905104
0.1513311,0.9092393,0.3902851
0.1511361,0.9044756,0.3901704
0.1516982,0.9045084,0.3906321
0.150626,0.908584,0.38979
0.148815,0.9127033,0.390643
0.1467626,0.9116419,0.3902169
0.1486128,0.9090741,0.3898534
0.1512796,0.9084372,0.3897887
0.149799,0.9044078,0.3882538
0.1495358,0.9047373,0.3894872
0.1505257,0.9080124,0.3918436
0.1497562,0.9070202,0.3926378
0.1497466,0.9105603,0.3891623
0.1493543,0.9140938,0.3840168
0.1481004,0.9118592,0.3865697
0.1489696,0.910063,0.3909653
0.1506505,0.907475,0.3919259
0.1515088,0.9052196,0.3932178
0.1508277,0.9054642,0.3927194
0.1489691,0.906716,0.3920675
0.1482189,0.9109285,0.3917976
0.1472518,0.9154468,0.3910863
0.1476703,0.9140667,0.3919588
0.1503826,0.909057,0.3907424
0.1502394,0.9049927,0.3898116
0.1495984,0.9018002,0.3915775
0.1503578,0.9040359,0.3910605
0.1503365,0.9085735,0.3881745
0.1526816,0.9076684,0.3855149
0.1551406,0.9090493,0.3884009
0.1542668,0.9105568,0.3930967
0.1533708,0.9071092,0.3912344
0.1522486,0.9066341,0.3891289
0.148788,0.9071654,0.3880978
0.1456575,0.907746,0.3869646
0.1447599,0.9089049,0.3896808
0.1447095,0.9078671,0.3909848
0.1469984,0.9075091,0.3900461
0.1499499,0.906579,0.3908193
0.1495428,0.9059237,0.3933084
0.1502458,0.9064604,0.3979887
0.1527173,0.9060629,0.4016339
0.1521315,0.9065786,0.399897
0.1502096,0.9069275,0.392646
0.1500595,0.9074387,0.3877659
0.1505057,0.9088131,0.3882781
0.1496451,0.9097834,0.3857738
0.149666,0.9091887,0.3850102
0.1495926,0.9066079,0.3882132
0.1482577,0.9063078,0.3874217
0.1504166,0.9054423,0.3912404
0.1521775,0.9024745,0.3984566
0.1502136,0.9032594,0.3984471
0.1498029,0.9043822,0.3991449
0.1509509,0.9052705,0.4006553
0.1524815,0.9093501,0.3902426
0.1550202,0.9136294,0.3705683
0.1568432,0.9161041,0.3627182
0.1524751,0.9161167,0.3726029
0.1435768,0.916765,0.3802793
0.1403064,0.9205573,0.3806772
0.1395225,0.9218798,0.3833913
0.1390247,0.9186304,0.3873644
0.1448709,0.9124255,0.3929247
0.1498966,0.904466,0.4001452
0.14905,0.9034456,0.3996483
0.1481279,0.9062172,0.3940988
0.1496486,0.9015962,0.3942015
0.1506077,0.8999664,0.3946156
0.1494924,0.9033314,0.3930345
0.1491074,0.9043685,0.3933085
0.1485613,0.9083393,0.3926744
0.1483831,0.9096513,0.392262
0.1499532,0.9088,0.3889004
0.150074,0.9113851,0.3834979
0.1498229,0.9124808,0.38246
0.1491921,0.9170109,0.3803491
0.1481321,0.9193103,0.3799633
0.1487333,0.9134125,0.3842692
0.1481549,0.9110903,0.38689
0.1457966,0.9108427,0.3926772
0.1460703,0.9093368,0.3984129
0.1577797,0.9111725,0.3887939
0.177455,0.9178677,0.3687108
0.1797552,0.9221253,0.3614466
0.1550852,0.9095806,0.3776322
0.1247645,0.895503,0.4009335
0.1167328,0.9010131,0.4087898
0.1346262,0.905513,0.4034232
0.1463176,0.901254,0.4041846
0.1393037,0.9057477,0.4126692
0.1391917,0.9089259,0.4172639
0.1468571,0.9041014,0.4165807
0.1477384,0.8992696,0.415959
0.1473337,0.8931728,0.416796
0.147189,0.8972983,0.4150269
0.1468649,0.9058592,0.4113782
0.1468714,0.9042691,0.4066535
0.1423885,0.9104407,0.3990925
0.1389035,0.9176427,0.3965528
0.141871,0.9118476,0.3930354
0.1497873,0.9086756,0.380935
0.1560163,0.9073955,0.3810786
0.1508326,0.9081843,0.3933535
0.1426299,0.912689,0.3976745
0.14136,0.9075949,0.3965317
0.1402346,0.8994949,0.3958224
0.1393781,0.8951064,0.3975055
0.14197,0.891948,0.3979827
0.145161,0.8976719,0.3937352
0.1507753,0.9061301,0.388959
0.1525259,0.907969,0.3839953
0.1452224,0.9073681,0.3894579
0.1403078,0.9073776,0.3984623
0.1397845,0.9102641,0.3918662
0.1402304,0.912581,0.3884879
0.1418318,0.9109699,0.3927509
0.1407145,0.9074485,0.393875
0.1380511,0.9036974,0.3986274
0.1345181,0.9040189,0.397949
0.1354845,0.9046039,0.3936451
0.1431676,0.9030407,0.3957282
0.1466042,0.9019794,0.3995296
0.1461929,0.8993723,0.4097728
0.1457568,0.9026738,0.4164202
0.1466069,0.9115685,0.4067041
0.1490057,0.9154809,0.3980619
0.1476098,0.9143323,0.3982584
0.1441112,0.9118694,0.3963883
0.1409127,0.9118672,0.3931042
0.1424942,0.9093889,0.3951991
0.1459148,0.9052917,0.3997189
0.1412372,0.9081823,0.4021017
0.1387863,0.9103614,0.4020659
0.1410286,0.910263,0.4004622
0.1400948,0.9111681,0.4001981
0.1398642,0.9083447,0.3988531
0.1386241,0.9057615,0.3982042
0.1367835,0.9059559,0.4035997
0.1374834,0.90575,0.4050673
0.138085,0.9045075,0.4007039
0.1392066,0.9020347,0.3993213
0.141255,0.8998762,0.4007353
0.1433183,0.9029866,0.4048709
0.1447965,0.9087397,0.4072867
0.1448787,0.9081873,0.4027647
0.1437268,0.9074617,0.3982023
0.1422036,0.9095903,0.4005277
0.139387,0.908846,0.4030023
0.135965,0.9114529,0.4003895
0.136047,0.9156781,0.4002779
0.1375666,0.916265,0.400545
0.1393152,0.9132997,0.399067
0.1412094,0.9066178,0.4006315
0.1402636,0.9055689,0.400879
0.1406892,0.9071383,0.4039682
0.1418377,0.9045563,0.4080894
0.1419251,0.9044142,0.4025044
0.1453891,0.903146,0.3981046
0.1478377,0.9000907,0.4019668
0.1467195,0.9005934,0.4038046
0.1453634,0.9037379,0.4005264
0.1440409,0.9086055,0.399084
0.1435914,0.9097249,0.3997173
0.1421974,0.9094168,0.396401
0.1393123,0.9128438,0.3931922
0.1397924,0.9124626,0.3952927
0.1411885,0.9073376,0.4006341
0.1397686,0.9017174,0.4050206
0.140525,0.8982436,0.4036229
0.142564,0.9006014,0.3971968
0.1427237,0.9039134,0.3926405
0.1417513,0.9059487,0.3945822
0.1393786,0.9077271,0.3983707
0.140503,0.9050019,0.3997349
0.1432847,0.9033802,0.4008344
0.1424194,0.9064797,0.4017572
0.1426528,0.9074856,0.4028036
0.144594,0.9065575,0.4024823
0.1452012,0.9050291,0.4005208
0.1435408,0.9036056,0.4014073
0.1413926,0.9041449,0.4017395
0.1401777,0.9043539,0.3995606
0.1390887,0.9042542,0.3973419
0.139118,0.9048629,0.3919918
0.1369231,0.9051462,0.3877087
0.1356437,0.9047425,0.3896343
0.1374342,0.9048879,0.3939999
0.1373325,0.9061984,0.3987342
0.1403239,0.907061,0.4024682
0.1418052,0.9072868,0.4047348
0.1406618,0.9067754,0.4043898
0.1433671,0.9063859,0.4003585
0.1412958,0.9057207,0.3974888
0.1388015,0.9040536,0.3968386
0.13948,0.9049149,0.3973834
0.1387988,0.905723,0.3994596
0.1428323,0.9058638,0.3999127
0.1456065,0.9074648,0.3981764
0.1433491,0.905139,0.3955164
0.1425778,0.9030483,0.3942934
0.1424848,0.9053252,0.394775
0.1407126,0.9077792,0.3934144
0.1381757,0.9102369,0.3921395
0.1403144,0.9082271,0.3943491
0.1434896,0.9036213,0.3996672
0.1429904,0.903906,0.400335
0.1446995,0.9048647,0.3955955
0.145186,0.9056734,0.3960833
0.1432657,0.9076751,0.3947266
0.1426622,0.9076246,0.3914515
0.1394736,0.9091636,0.3959288
0.1377335,0.9122543,0.3974633
0.1398196,0.9104887,0.3968636
0.1407112,0.9058778,0.3978731
0.1418792,0.9036548,0.3972742
0.1422156,0.905422,0.4011448
0.1410722,0.9083753,0.4034355
0.1418691,0.9079121,0.3991706
0.1418717,0.9077847,0.3930802
0.141102,0.9093694,0.3904716
0.1410897,0.9084338,0.3960124
0.1399011,0.9080138,0.4035051
0.1402383,0.9070939,0.4079068
0.1416092,0.9053995,0.4059712
0.1416135,0.9056074,0.3996047
0.1418549,0.9045726,0.3968688
0.1414068,0.9072259,0.3939702
0.1406586,0.9104537,0.3913448
0.1402363,0.9087832,0.3954996
0.1399628,0.9098727,0.4024792
0.1403912,0.9082921,0.4035462
0.1391641,0.9054437,0.3982091
0.1375274,0.9075057,0.3954237
0.137759,0.9058268,0.396839
0.13918,0.9040091,0.3994624
0.1409759,0.904511,0.4008304
0.1404551,0.9046656,0.3996288
0.1395704,0.9062297,0.3999701
0.1397788,0.9058423,0.3998831
0.1387167,0.9071892,0.3980934
0.1398572,0.910571,0.3978247
0.1429864,0.9116506,0.3985239
0.1442966,0.9112855,0.3991444
0.1442158,0.9047051,0.3990233
0.1417307,0.8971507,0.4020222
0.1394483,0.8996154,0.404466
0.141079,0.9038367,0.3971857
0.1424369,0.9035383,0.3883248
0.1412719,0.9061753,0.3879232
0.1402013,0.9081864,0.392629
0.1385288,0.906215,0.3981036
0.1370365,0.9067087,0.404009
0.1392467,0.9054764,0.4048714
0.1413009,0.9032846,0.3981764
0.1402487,0.9053184,0.3931607
0.140883,0.9058095,0.3928871
0.1421133,0.9043627,0.3967903
0.1405142,0.9029623,0.4039469
0.1387229,0.9023798,0.4059192
0.1378292,0.9032014,0.4003517
0.1372472,0.9035769,0.3950986
0.137455,0.9044339,0.3977265
0.1380149,0.9043504,0.4004624
0.1391883,0.9040092,0.3978807
0.1408088,0.9053091,0.4007087
0.1405798,0.9064615,0.4045061
0.1397694,0.9091778,0.404011
0.1410618,0.9119391,0.404187
0.1430595,0.9097349,0.4019229
0.1447888,0.9040911,0.3995268
0.1436128,0.9006844,0.3981112
0.1391824,0.9010347,0.3968549
0.1373141,0.90159,0.4000427
0.1377726,0.900826,0.4051644
0.139165,0.9012997,0.4083186
0.1403897,0.903951,0.406877
0.1366988,0.9058565,0.4032948
0.1332259,0.9070906,0.3994946
0.1350499,0.9076493,0.3937798
0.1371439,0.9063604,0.3937424
0.1378033,0.9069382,0.3975618
0.1387555,0.907242,0.3981055
0.1399403,0.905488,0.3993695
0.1405778,0.905605,0.4005406
0.1406985,0.9058432,0.4017969
0.1418623,0.9072385,0.4038781
0.1433457,0.9098816,0.4040627
0.141375,0.9117964,0.4027255
0.1377182,0.9147508,0.3951809
0.1360732,0.9145551,0.3873844
0.1344375,0.9125636,0.3909523
0.1351597,0.9118534,0.3967245
0.138252,0.9071358,0.4003312
0.1382662,0.9039752,0.4059494
0.1381308,0.9068499,0.4053712
0.1386129,0.9078547,0.4024226
0.1385503,0.9071855,0.4058073
0.139239,0.9078018,0.4044509
0.1376291,0.906918,0.3980371
0.1358978,0.9064455,0.3940903
0.1351385,0.9073722,0.3896879
0.1332598,0.9068615,0.3887972
0.1337208,0.9072741,0.3916243
0.1361295,0.9099156,0.393401
0.1381771,0.9117336,0.3919786
0.1380065,0.9107429,0.3884994
0.1367065,0.9070303,0.3896349
0.1378808,0.9047803,0.3899331
0.1382165,0.9062785,0.3903891
0.1396728,0.9076568,0.3946619
0.1424417,0.9069005,0.3922059
0.1390703,0.9071044,0.3910872
0.1359817,0.9099791,0.3963637
0.1383134,0.9118493,0.3988378
0.1405898,0.9103475,0.3987029
0.1418843,0.9063227,0.3955009
0.1412236,0.9032389,0.3934953
0.1391532,0.9055892,0.3942912
0.1383064,0.9083148,0.3936172
0.1363387,0.9072598,0.3954056
0.1342998,0.9091079,0.3991428
0.1352527,0.9125004,0.399735
0.1376394,0.9104896,0.3992663
0.1431227,0.9056975,0.4008474
0.1473172,0.8997408,0.401019
0.1422656,0.8960692,0.4009108
0.1377771,0.9025207,0.4017365
0.1393258,0.9084401,0.3990825
0.1391263,0.9054543,0.3996278
0.1390335,0.9071232,0.4007097
0.1393787,0.9134742,0.3954928
0.1373584,0.9143725,0.396123
0.1369196,0.911466,0.3999043
0.1365938,0.9076568,0.398352
0.137051,0.9060317,0.399172
0.1423643,0.9071432,0.400585
0.1442919,0.9069739,0.3978137
0.1403558,0.9058209,0.397085
0.1387249,0.9053711,0.4000881
0.1383273,0.9056632,0.4020522
0.1359493,0.90676,0.4006291
0.1331643,0.9080541,0.3980032
0.1331515,0.9084983,0.397461
0.1370998,0.9074164,0.3961894
0.1409523,0.9065045,0.3941732
0.1424804,0.9075326,0.3951014
0.141765,0.9097841,0.3972239
0.1411051,0.911588,0.4002334
0.1422812,0.9104272,0.4008623
0.1425165,0.9079586,0.3996914
0.1430417,0.9081907,0.4030072
0.1431962,0.9086212,0.4051779
0.140428,0.9080633,0.4040235
0.1381005,0.9083067,0.4039916
0.1369346,0.9074446,0.403516
0.1373327,0.906542,0.4007061
0.1382208,0.9071929,0.3971958
0.1379567,0.9079058,0.3973232
0.1392485,0.9089096,0.3975472
0.1390547,0.9102345,0.3952398
0.1372309,0.9114519,0.3968174
0.1367517,0.9114482,0.3994911
0.1361827,0.9090822,0.3988484
0.138694,0.9032116,0.3981867
0.1415205,0.8964951,0.3987019
0.140003,0.8982551,0.3988334
0.1389604,0.9023717,0.398337
0.1389778,0.8996541,0.3987175
0.1385056,0.9021896,0.3985493
0.1381108,0.9079083,0.3972904
0.1372537,0.9086915,0.3962905
0.1372939,0.9114164,0.3955269
0.1379694,0.9092344,0.3967701
0.1382701,0.903825,0.397597
0.1390859,0.905773,0.39609
0.1395216,0.9061103,0.3957477
0.1408664,0.9046745,0.3968821
0.1446705,0.9051529,0.3984961
0.1451885,0.9037247,0.3986231
0.1414693,0.9039645,0.3966066
0.1386909,0.9046052,0.3958837
0.135361,0.9041837,0.3983271
0.1335398,0.9060706,0.401168
0.1361646,0.9077355,0.4001959
0.1367029,0.9082615,0.3993942
0.1360916,0.9101078,0.4014912
0.1390799,0.9115467,0.401379
0.1412749,0.9094085,0.3999502
0.1412914,0.9069319,0.398159
0.1419349,0.9067275,0.3963594
0.1436684,0.9053632,0.397874
0.1444352,0.9049203,0.4004109
0.1418035,0.9061987,0.402715
0.1390585,0.9051808,0.4032394
0.1392091,0.9044239,0.4004462
0.1395717,0.9044872,0.3998053
0.1402303,0.9046281,0.4019466
0.1421425,0.9064878,0.4031351
0.1412353,0.9074739,0.4019608
0.1392286,0.9083874,0.3997295
0.140416,0.9088137,0.3986179
0.1397087,0.9070241,0.3939726
0.1385828,0.9076695,0.3886644
0.1424478,0.9088413,0.3932863
0.1466138,0.9079729,0.4002264
0.1472175,0.9074891,0.398356
0.1427269,0.9066582,0.3955481
0.1382191,0.9068071,0.3987869
0.1393655,0.9074283,0.3998512
0.1394602,0.9075886,0.3966419
0.1379404,0.9087051,0.3969699
0.1383391,0.9083042,0.3978272
0.1373741,0.9065726,0.3968297
0.1370198,0.904054,0.3985564
0.1380141,0.9007213,0.4007835
0.1373119,0.9000324,0.4044815
0.1376941,0.9009802,0.4086038
0.1396162,0.9034076,0.405887
0.1403671,0.9074954,0.399789
0.1395135,0.9074084,0.396318
0.1374069,0.9071728,0.3981556
0.1371143,0.9117259,0.4013808
0.1377122,0.9121267,0.3978635
0.1361886,0.9101568,0.3941752
0.1349913,0.9123375,0.3929644
0.1351774,0.9120425,0.3897143
0.1381845,0.9102412,0.3906514
0.1416809,0.9102414,0.3925633
0.1404414,0.9086009,0.393134
0.1395187,0.9083862,0.3983601
0.1409868,0.9112137,0.4005241
0.1411126,0.9126152,0.3979323
0.1413279,0.9090167,0.3947663
0.1402839,0.9043409,0.3899019
0.1378047,0.9052002,0.3894288
0.1374931,0.906907,0.3916137
0.1360492,0.907676,0.3931138
0.1334111,0.9109905,0.3979411
0.1339254,0.912077,0.3999616
0.1341285,0.9120744,0.3980503
0.1353222,0.91327,0.3983123
0.1388199,0.9116075,0.3980581
0.1381284,0.9095793,0.3963579
0.1383497,0.9080789,0.3953635
0.1413737,0.9073387,0.3949223
0.1390675,0.9082407,0.3975762
0.1361281,0.9067111,0.4011742
0.136118,0.9074185,0.3985721
0.1356552,0.9105948,0.3955815
0.1354171,0.9103919,0.3977714
0.1345165,0.9113181,0.397586
0.1347041,0.9115381,0.3970755
0.1373604,0.9101004,0.4004243
0.139578,0.9098077,0.4009763
0.1409618,0.9074866,0.3961868
0.140184,0.9071934,0.3920072
0.139221,0.9081876,0.3968894
0.1408724,0.9070336,0.4023603
0.1419546,0.9071137,0.3961892
0.1413819,0.9069352,0.3901404
0.1388011,0.9080942,0.389268
0.1363654,0.9109356,0.3883209
0.1366248,0.9120788,0.3915451
0.1361789,0.9122789,0.3979198
0.1357509,0.9113992,0.4031416
0.1362032,0.9117315,0.402011
0.1351565,0.9122539,0.3968963
0.1347275,0.9109631,0.3980924
0.1365076,0.9100825,0.4018677
0.1385476,0.9073216,0.4040928
0.1397653,0.9050409,0.4009579
0.1421678,0.9046412,0.3943088
0.1437685,0.9027921,0.3965193
0.1408612,0.9028824,0.3953205
0.13845,0.9047379,0.3888462
0.1389127,0.9059542,0.39279
0.1392636,0.9057535,0.3966294
0.1406651,0.9041049,0.3990124
0.1417121,0.9041535,0.4030219
0.1391293,0.9049195,0.4023013
0.1363488,0.9075601,0.4030981
0.1376821,0.9110937,0.4025789
0.1400047,0.909378,0.3998164
0.1403196,0.9062804,0.4021424
0.1401528,0.9054466,0.4070598
0.138414,0.9060522,0.4094915
0.1367479,0.9077988,0.4029942
0.1379739,0.9079016,0.3961851
0.1394749,0.9079566,0.3971598
0.1406177,0.9079783,0.3966126
0.140793,0.9063144,0.3970842
0.1405245,0.9068072,0.3985381
0.1409102,0.9065717,0.3968012
0.1253664,0.9239355,0.3803759
0.1364348,0.9177211,0.3661646
0.1557809,0.9157333,0.3550559
0.1730089,0.9099699,0.3654174
0.1785818,0.8948413,0.3821866
0.1794025,0.8866409,0.3907217
0.1838543,0.8882309,0.3885425
0.1830709,0.8883192,0.3833642
0.1857939,0.8871877,0.3849857
0.1874234,0.8881487,0.3848806
0.1778733,0.8938203,0.3803877
0.1752941,0.9083123,0.373608
0.1952375,0.9209781,0.352976
0.2224897,0.9176195,0.3307302
0.2242257,0.9119209,0.3251616
0.2200781,0.9174074,0.3227031
0.2225476,0.9211227,0.3198337
0.1942777,0.9310108,0.3223814
0.165825,0.9514638,0.3143567
0.1730317,0.9515191,0.2945312
0.1734334,0.9421191,0.2861849
0.1523952,0.9460441,0.2961212
0.1519483,0.9490237,0.3054016
0.1939672,0.9546661,0.2979019
0.2331742,0.9591894,0.2967474
0.2140657,0.9486192,0.3224691
0.1818213,0.9318976,0.3425609
0.1917472,0.917847,0.3369934
0.2014381,0.9207672,0.3262065
0.2090486,0.9317507,0.3228623
0.2238738,0.9294192,0.320538
0.2098821,0.9259886,0.3203653
0.2056262,0.9195862,0.3263676
0.2139841,0.910266,0.3260349
0.2067263,0.9119353,0.3244875
0.2108862,0.9147202,0.3223686
0.2103837,0.9183055,0.3130895
0.2056284,0.922016,0.3166249
0.2008274,0.927842,0.3267352
0.185246,0.9405548,0.3319887
0.1882433,0.9354778,0.3327334
0.1951323,0.9201505,0.3286742
0.1935502,0.9144281,0.3349598
0.1953527,0.9133225,0.3385095
0.1918257,0.9247635,0.3355585
0.1911532,0.9332379,0.3395693
0.1931306,0.9275521,0.3372358
0.1965977,0.9249709,0.3295232
0.2021394,0.922847,0.3232661
0.2005559,0.9210875,0.3249917
0.2007553,0.9212211,0.3310118
0.2033053,0.920432,0.3270369
0.1993435,0.9231042,0.3286161
0.1954358,0.9238321,0.3318468
0.1958344,0.921624,0.3238914
0.1909523,0.9207423,0.3214757
0.1836476,0.9222389,0.3258894
0.1892851,0.9249528,0.3301855
0.1983705,0.9243973,0.3299728
0.1990609,0.9247269,0.3290434
0.1975153,0.9250261,0.3363435
0.1949185,0.9208429,0.3396531
0.1938501,0.9201008,0.3329397
0.1961004,0.9274788,0.3244179
0.1985253,0.9355439,0.3214943
0.2027294,0.9337813,0.3234033
0.2049196,0.9304873,0.3235837
0.2006911,0.9367633,0.3294388
0.1951596,0.9446222,0.3427063
0.1940815,0.9504504,0.3498846
0.1990842,0.9445919,0.3337152
0.2059093,0.9279146,0.3087778
0.2078368,0.9204708,0.3156707
0.2026809,0.9133318,0.3337266
0.1942485,0.9122458,0.3342958
0.1896886,0.9281026,0.3267783
0.1934438,0.9330721,0.3122995
0.2035273,0.9300625,0.3121798
0.2104668,0.9307662,0.3177214
0.2059961,0.929772,0.3136826
0.1975913,0.9311715,0.3237396
0.1957039,0.9283409,0.3242278
0.192404,0.9271223,0.3240786
0.1818479,0.9304841,0.3495999
0.1755634,0.9303006,0.3590224
0.1802138,0.9309373,0.3536453
0.1899668,0.9274147,0.3533547
0.1944733,0.9205344,0.3536165
0.1930377,0.9103138,0.3540793
0.1891025,0.9042622,0.3524622
0.1742698,0.9201893,0.3613944
0.1636322,0.9319846,0.3681018
0.1906249,0.9159202,0.3630398
0.2285525,0.8931783,0.357202
0.2269347,0.8856111,0.3401191
0.2161109,0.8897615,0.3280209
0.2252742,0.890667,0.3398324
0.2165405,0.8879945,0.3699472
0.1882843,0.8871444,0.4072135
0.1668947,0.8861838,0.4159069
0.1703929,0.8829338,0.3824793
0.194981,0.8786107,0.3462862
0.2101768,0.8711726,0.338867
0.229787,0.8648096,0.3506003
0.2345796,0.8670741,0.3636286
0.1994603,0.8623217,0.3795996
0.1831346,0.8582466,0.4005226
0.1912027,0.8850978,0.4017873
0.2030407,0.9196599,0.3875873
0.2254031,0.9294916,0.3803808
0.2506793,0.9274622,0.3479617
0.2639596,0.9218876,0.3172308
0.2420953,0.9108399,0.3270037
0.2138128,0.9187323,0.3255148
0.1995915,0.9409378,0.3163417
0.1940119,0.9452035,0.299661
0.202087,0.9373781,0.2594098
0.1896043,0.913919,0.2419783
0.1704651,0.8834175,0.2267695
0.1582763,0.8843627,0.1892668
0.1418878,0.9050679,0.1600491
0.1484294,0.9222321,0.1340515
0.1581841,0.9290535,0.1038674
0.1743906,0.9244291,0.08549622
0.2074783,0.9274909,0.07713443
0.2306362,0.9467009,0.05108281
0.2398526,0.9810885,0.03778534
0.2020799,1.024147,0.09269117
0.1435527,1.05236,0.1574883
0.1156563,1.051146,0.1577697
0.1025405,1.028266,0.1350992
0.1347665,0.989866,0.1206596
0.2051355,0.9481303,0.08156969
0.2320931,0.9402863,0.06567477
0.2039776,0.9677107,0.08945831
0.1738022,1.002902,0.08458862
0.1771623,1.041923,0.078222
0.2047433,1.078972,0.05575382
0.2283302,1.123282,9.828559e-05
0.2180984,1.13903,-0.00483218
0.2011817,1.068202,-0.004077918
0.2207498,0.9972307,-0.0236679
0.2267714,0.9878085,-0.01011085
0.2022231,0.9864785,3.435723e-05
0.1710239,0.9938228,0.03204635
0.1379443,1.010023,0.08790852
0.1559483,1.021514,0.09151565
0.186424,1.021457,0.08898345
0.1828512,0.9995569,0.1047565
0.2237049,0.977215,0.09370699
0.2725872,0.9537431,0.09335058
0.2644693,0.9492642,0.1156518
0.2514892,0.9615626,0.1305434
0.2493688,0.9486985,0.1468416
0.252872,0.9378762,0.1645182
0.2639666,0.9249029,0.1935901
0.2708776,0.9069796,0.2199146
0.2771765,0.9073392,0.2190867
0.2856685,0.9022536,0.2262412
0.3025566,0.9101424,0.2316866
0.3186388,0.9179001,0.2304892
0.3161481,0.8862328,0.2491395
0.3092268,0.8524292,0.2553242
0.3024538,0.8447989,0.2521194
0.2908994,0.8575754,0.2511737
0.2871243,0.8727674,0.2386238
0.2870318,0.8888922,0.2272184
0.2892807,0.9071441,0.2210265
0.2983048,0.9204907,0.2201472
0.2913522,0.9427258,0.2070625
0.2786934,0.9481867,0.1901326
0.2832888,0.9357429,0.1899016
0.2851899,0.9336645,0.1800586
0.2841364,0.9249256,0.1771332
0.2807995,0.9320092,0.187398
0.2713276,0.9526358,0.1857397
0.276644,0.9579492,0.1862259
0.2843637,0.9685574,0.1804509
0.2834139,0.968868,0.1700102
0.2796707,0.958789,0.1757007
0.2656972,0.9541788,0.185763
0.2590679,0.9373901,0.1926137
0.2670214,0.9255247,0.1927332
0.275343,0.9264477,0.19028
0.28182,0.9326652,0.1961644
0.2817643,0.9427817,0.2015974
0.2809687,0.9380413,0.2032682
0.2839957,0.9290331,0.2047586
0.284383,0.922068,0.2076602
0.2883087,0.9047653,0.2163428
0.2931118,0.9003364,0.2209493
0.2869368,0.9147971,0.2189745
0.2754421,0.926706,0.2160348
0.2669557,0.9329636,0.2078145
0.2613189,0.9356884,0.2059017
0.2555015,0.9411744,0.2086058
0.2448116,0.9483511,0.2063715
0.231829,0.9467814,0.2167437
0.2228057,0.9463487,0.225102
0.2240857,0.9547452,0.2067893
0.2338405,0.9600838,0.1899468
0.2346794,0.9580749,0.1985519
0.2320317,0.9546107,0.2113937
0.236824,0.9492174,0.2146167
0.2387924,0.9466941,0.2201224
0.2436888,0.9604862,0.227518
0.2481042,0.971818,0.2317185
0.2472559,0.9515741,0.2176707
0.2574694,0.9309603,0.1893182
0.2689988,0.937419,0.1905095
0.271101,0.9281962,0.2039582
0.2732961,0.9019986,0.2018836
0.2759486,0.9066891,0.2040172
0.2765796,0.9249504,0.2021495
0.2793962,0.933835,0.1998486
0.2810062,0.9396678,0.2019125
0.2765788,0.9321636,0.2018645
0.2749105,0.9220098,0.2114298
0.271721,0.9172083,0.2165265
0.2681646,0.9159834,0.2201058
0.2711906,0.9265434,0.2285467
0.2686875,0.9362879,0.2204522
0.2697599,0.9445863,0.210322
0.272777,0.9459186,0.2104262
0.2698843,0.9363209,0.2092499
0.2755482,0.9385781,0.208806
0.279499,0.9386831,0.21006
0.2786178,0.9372934,0.2068943
0.2767494,0.9450688,0.2025441
0.2712376,0.9430422,0.2017247
0.2712085,0.9452315,0.1995441
0.2706836,0.9491829,0.2008639
0.269396,0.9448537,0.2063809
0.27013,0.9435282,0.2068472
0.2695572,0.9349788,0.2045859
0.2711071,0.9276207,0.2021889
0.2675319,0.9318883,0.2051297
0.261258,0.9396785,0.209875
0.2586708,0.9450992,0.2079884
0.2580015,0.9422188,0.2065928
0.2614689,0.9395705,0.2017355
0.2635663,0.9407603,0.1945328
0.2633201,0.942164,0.197576
0.2647118,0.9430475,0.2032718
0.2679004,0.9403954,0.204057
0.2723529,0.9381569,0.2019245
0.2725081,0.9394086,0.199358
0.2679759,0.9411069,0.2027689
0.2615454,0.9391897,0.2092422
0.2556215,0.9380857,0.2116849
0.2535758,0.939734,0.2143544
0.2526687,0.9396123,0.2174444
0.2524246,0.9421611,0.2181272
0.2540895,0.9458975,0.2186086
0.2544569,0.9477873,0.217687
0.255202,0.9463451,0.2164363
0.2607192,0.9382453,0.211317
0.2668449,0.9326257,0.2032872
0.267126,0.9344472,0.2046833
0.2657111,0.9376957,0.2070952
0.2669878,0.9377399,0.2034267
0.2658359,0.9370717,0.20288
0.2632876,0.9380068,0.202254
0.263344,0.9371688,0.2019834
0.2629013,0.9374615,0.2064738
0.2628126,0.9370011,0.2102389
0.2616324,0.9323121,0.2138599
0.2573951,0.9289069,0.2202221
0.2536685,0.9296526,0.2248361
0.2510196,0.9342543,0.2227077
0.256019,0.9352046,0.2155546
0.2655282,0.9314256,0.2100472
0.2661725,0.9300304,0.2089503
0.2638091,0.930504,0.2106048
0.2637734,0.9328697,0.2127826
0.2638853,0.9347281,0.2132671
0.2651109,0.9375379,0.2116923
0.2653368,0.9418837,0.2100968
0.2653521,0.9405626,0.2083436
0.2649546,0.9390046,0.2077377
0.2631036,0.9389347,0.211507
0.2611579,0.9357707,0.2131099
0.2593675,0.9345361,0.2116696
0.2588695,0.9353443,0.2139725
0.2579435,0.936298,0.2169658
0.2571123,0.9380458,0.2203037
0.257535,0.9378793,0.2206585
0.258299,0.936728,0.2173636
0.2604727,0.9370536,0.2170527
0.2602802,0.9368938,0.2131154
0.2599777,0.937449,0.2114977
0.2630508,0.9388848,0.2183308
0.2636656,0.9372912,0.2204795
0.263761,0.9345941,0.2185906
0.2645262,0.9333484,0.2147763
0.2643471,0.9374633,0.2111009
0.2657231,0.9462096,0.21341
0.2653234,0.948465,0.2143449
0.2637122,0.945086,0.2118307
0.263116,0.9436251,0.210442
0.2619894,0.9426315,0.2119334
0.2624946,0.9360386,0.21604
0.2628297,0.927376,0.2190012
0.2621432,0.9299054,0.2187345
0.2626935,0.9358041,0.2173327
0.2625119,0.9377525,0.2191618
0.2623471,0.9436431,0.2202255
0.2623329,0.9438425,0.2194997
0.2605752,0.9411038,0.2233386
0.2588638,0.9436303,0.2250748
0.257766,0.9380829,0.2197307
0.257078,0.9320171,0.2141059
0.2587647,0.9335283,0.2139277
0.2625063,0.9332735,0.2159309
0.264368,0.9342834,0.2161638
0.2649568,0.938066,0.2173453
0.267478,0.9420536,0.2151654
0.2683531,0.9418264,0.2115186
0.2657576,0.9378183,0.2112532
0.2625045,0.9387739,0.2099892
0.2600223,0.9385354,0.2095951
0.2593924,0.9364701,0.2072149
0.2596788,0.9385454,0.2066529
0.2598512,0.9408466,0.2135078
0.2597288,0.9458181,0.2159316
0.2595735,0.9484577,0.2128984
0.2602524,0.9434705,0.2098485
0.2614279,0.9388984,0.2105746
0.2629905,0.9364383,0.2126727
0.2626893,0.9355904,0.2109529
0.2610194,0.9362478,0.2132645
0.2613316,0.9360138,0.2150861
0.2623282,0.9351422,0.2145828
0.264095,0.934615,0.2160729
0.2645526,0.9361104,0.2133455
0.2624486,0.9390456,0.2144615
0.2628429,0.9401914,0.2180807
0.2630587,0.938408,0.2164606
0.2617674,0.9364897,0.2164583
0.2624423,0.9362744,0.2168048
0.2609195,0.9368891,0.2161017
0.2587323,0.9387911,0.2140493
0.2598782,0.9394542,0.211498
0.2600191,0.9384536,0.2124435
0.2592089,0.9392107,0.2129012
0.2590049,0.9398964,0.2122625
0.25859,0.9403002,0.2124948
0.2611733,0.9402783,0.2124174
0.265417,0.9374209,0.2115773
0.2659739,0.9334909,0.2107517
0.264844,0.9309708,0.211152
0.2653047,0.9330783,0.2119194
0.2654699,0.937166,0.2149489
0.2650768,0.9378179,0.2196037
0.2650148,0.9376357,0.2194801
0.2631617,0.9373925,0.2144053
0.2600688,0.9373298,0.2110916
0.2590673,0.9382045,0.2123456
0.2596853,0.9389987,0.2131899
0.2590409,0.9408842,0.2120958
0.2579979,0.9406716,0.2129744
0.2595613,0.9395546,0.2156649
0.2622509,0.9405816,0.2181123
0.2639614,0.9388033,0.2187174
0.2653312,0.9360055,0.2165889
0.2663093,0.9356223,0.2125946
0.2662199,0.9358452,0.2095383
0.263019,0.9350169,0.2140945
0.2585118,0.9338295,0.2208734
0.257412,0.9351387,0.2173312
0.2578372,0.9350533,0.2146172
0.259965,0.9339996,0.2175976
0.2635573,0.9362189,0.2137065
0.261241,0.93902,0.2113966
0.2587011,0.9425696,0.2154655
0.2638322,0.9418318,0.2183806
0.2668111,0.9381225,0.2188162
0.2649446,0.9391352,0.2114156
0.2657115,0.9377972,0.2030211
0.2691302,0.9384429,0.2021121
0.2698975,0.9435148,0.2016202
0.2606425,0.9414789,0.2076417
0.2482257,0.9390866,0.2249104
0.2483293,0.9395157,0.2349504
0.2539065,0.9375069,0.2327806
0.2565382,0.9362855,0.2294338
0.2623869,0.9358469,0.2231988
0.2658094,0.9361309,0.2192392
0.2662952,0.9359365,0.2248052
0.2702608,0.9337142,0.2277647
0.2686166,0.931208,0.2243321
0.2645281,0.9297076,0.2225633
0.2635426,0.9317834,0.2238154
0.2596561,0.9366284,0.2238675
0.2591018,0.941844,0.2221678
0.2597915,0.943152,0.2229526
0.2561783,0.9407697,0.2259434
0.2533103,0.9425992,0.2299932
0.2517851,0.9440191,0.2319422
0.2532212,0.9416334,0.2305629
0.2548472,0.9397479,0.2277082
0.2572698,0.9363558,0.2217434
0.2620315,0.93618,0.2205241
0.262452,0.9381409,0.2226394
0.2637436,0.9350629,0.2190753
0.2651251,0.9324055,0.2201869
0.2628482,0.9320635,0.2274626
0.2641166,0.9322181,0.2319198
0.2638279,0.9328896,0.2304155
0.2603075,0.9333041,0.2255462
0.258378,0.9337782,0.2262294
0.2568626,0.9337149,0.2267337
0.258069,0.9371907,0.22335
0.2603773,0.9421783,0.2219501
0.2633111,0.9414446,0.2206245
0.2659403,0.9377631,0.2242527
0.2618164,0.9350398,0.2270905
0.2580668,0.9359408,0.2196576
0.2607862,0.9380285,0.2151191
0.2620406,0.9381129,0.2199808
0.2604711,0.9392925,0.2251583
0.2601193,0.939312,0.2258349
0.2598049,0.9392493,0.2285802
0.2593226,0.9404442,0.2304059
0.2599972,0.9375718,0.2243161
0.2597668,0.9349415,0.2224534
0.2594388,0.9363497,0.2245705
0.2598605,0.9374149,0.2250152
0.2586556,0.9374779,0.2272785
0.258025,0.9376055,0.2267577
0.259314,0.9369454,0.2276725
0.2627657,0.9347359,0.2302961
0.2663583,0.9326171,0.2289513
0.2639398,0.9331542,0.228224
0.2607658,0.9348009,0.2253103
0.2619658,0.9347879,0.2191725
0.2613322,0.9349716,0.2155712
0.2603546,0.9361495,0.2156338
0.2616636,0.9351932,0.2190038
0.2614246,0.9327978,0.2228843
0.2625474,0.9326704,0.222641
0.2646998,0.9345251,0.2192033
0.2627553,0.9359686,0.2173912
0.2609189,0.9375027,0.216786
0.2613357,0.9362174,0.2194638
0.2618889,0.9313224,0.2250478
0.2628753,0.9303006,0.225694
0.2629525,0.9302787,0.2241092
0.2639943,0.9293024,0.2224394
0.2656993,0.932805,0.2197303
0.2636319,0.9360592,0.2203001
0.2614776,0.9375006,0.2223678
0.2631417,0.9356287,0.2243572
0.2655814,0.9315004,0.2259563
0.2661984,0.9334259,0.2257913
0.2626531,0.9349727,0.2240885
0.2578571,0.9362763,0.2210554
0.2594378,0.9422688,0.2199379
0.2619762,0.9425225,0.217068
0.2606312,0.9397429,0.2118335
0.26215,0.9404703,0.2152863
0.2631804,0.9395166,0.2242523
0.26195,0.9371299,0.2286889
0.2631681,0.9363507,0.2249641
0.2642447,0.9381668,0.216864
0.2656279,0.9385084,0.2170925
0.2652864,0.9361785,0.2200701
0.2616801,0.9368599,0.2196358
0.2599754,0.9364595,0.2231843
0.2599223,0.9350969,0.2220689
0.2606135,0.9365669,0.2191131
0.2599054,0.9341885,0.2216497
0.2585321,0.9322997,0.2196613
0.2584235,0.934573,0.2175996
0.2554158,0.9367409,0.2174797
0.2548281,0.9397767,0.2159271
0.2580756,0.9382178,0.2165749
0.2603375,0.9343626,0.2149967
0.2636394,0.9358282,0.2130408
0.2631073,0.9400223,0.2138199
0.261306,0.9446233,0.2131731
0.2632857,0.9432263,0.2121289
0.2619091,0.9377462,0.2134051
0.259343,0.9363587,0.2181824
0.2584888,0.9355994,0.2219627
0.2593705,0.93639,0.2195782
0.2620225,0.939041,0.217242
0.2594215,0.9414484,0.2217755
0.2572753,0.9436909,0.2245894
0.2611165,0.9390041,0.2187284
0.2634806,0.9328386,0.2158883
0.2641148,0.9333474,0.2221399
0.263177,0.93521,0.2270897
0.2617562,0.9363766,0.2237938
0.2627743,0.9345566,0.2198645
0.2626056,0.9325261,0.221652
0.2624162,0.9359406,0.2215588
0.2638178,0.9396076,0.2179442
0.2649095,0.9411012,0.2144988
0.2656888,0.9413365,0.2115285
0.2652317,0.9410754,0.2131455
0.2650742,0.9403471,0.2185224
0.2655204,0.9379229,0.2214981
0.2647771,0.9374905,0.2177739
0.2635014,0.9370785,0.214411
0.2616841,0.9352046,0.2218035
0.2603805,0.9361092,0.2286223
0.2596886,0.9356001,0.2253941
0.2599741,0.9349888,0.2222799
0.2641534,0.9403334,0.2213122
0.2691227,0.9448372,0.217725
0.2692783,0.9432379,0.2144003
0.2639141,0.9411473,0.2129731
0.2592949,0.940828,0.2159235
0.2620965,0.9360807,0.221727
0.2657137,0.9295076,0.2206915
0.2651194,0.9297686,0.221241
0.2653516,0.9314329,0.2274613
0.2645285,0.9302083,0.2250009
0.2603205,0.9309812,0.2223899
0.2565582,0.9336832,0.2239099
0.2570689,0.9362397,0.2204875
0.2603663,0.9367442,0.218522
0.2600048,0.9358446,0.2164108
0.2585476,0.9377211,0.2147918
0.2576225,0.9418024,0.2153649
0.2544735,0.9448538,0.2112319
0.2556608,0.9436418,0.2123731
0.2594025,0.9363763,0.2176734
0.2607107,0.9294378,0.2180013
0.2615055,0.9298309,0.2188753
0.2587465,0.9342822,0.2188468
0.2552765,0.9381711,0.2201752
0.2536149,0.9409973,0.222059
0.2519731,0.9392283,0.2194712
0.2528917,0.9356328,0.218285
0.2532967,0.9365143,0.2166481
0.2532376,0.9341211,0.2176195
0.2549117,0.9281111,0.2226396
0.2550865,0.9288736,0.2234166
0.256059,0.9360852,0.2238621
0.258631,0.9446224,0.218704
0.2601883,0.9444513,0.2089133
0.2596156,0.9385819,0.2083524
0.2561719,0.937985,0.2077953
0.253061,0.935543,0.2061463
0.2518366,0.9349996,0.210033
0.2506386,0.9382052,0.2103243
0.2478672,0.9391083,0.2102238
0.2441533,0.9490758,0.2103941
0.2404758,0.9619547,0.206041
0.236166,0.9655718,0.2064381
0.2357509,0.9634416,0.2077674
0.2347613,0.9597397,0.205564
0.2258591,0.9603066,0.20689
0.2209276,0.9591495,0.2062474
0.2214526,0.9569372,0.2032944
0.2224589,0.959297,0.2042099
0.2290638,0.9570553,0.2065698
0.2343246,0.9518193,0.2097687
0.2360381,0.9455446,0.2156995
0.2369856,0.9427286,0.2215732
0.2394787,0.9513531,0.2140409
0.2621633,0.9620657,0.1830559
0.301525,0.9631066,0.1453108
0.3058145,0.9368677,0.1509816
0.2345266,0.9069442,0.225915
0.1537034,0.9247824,0.2894046
0.1587437,0.9554475,0.2667094
0.1983319,0.9612197,0.2282668
0.2045573,0.9639085,0.2286932
0.2118349,0.9563382,0.2243192
0.2145757,0.9456161,0.2264263
0.2118911,0.948011,0.2393191
0.2275243,0.9477977,0.2280778
0.2260626,0.9535225,0.2218671
0.2209157,0.9608766,0.2168499
0.2275079,0.9577677,0.2081174
0.2203938,0.9566132,0.2177007
0.2209839,0.9501219,0.2139653
0.2227849,0.9416965,0.2131202
0.2266716,0.9432469,0.2208341
0.2450893,0.9443895,0.2139626
0.2460089,0.9391579,0.217928
0.2455262,0.9358578,0.2203192
0.2488098,0.9390274,0.2191588
0.2405182,0.9391763,0.2205529
0.2417789,0.9402937,0.2135855
0.2448835,0.943574,0.2151269
0.2475437,0.9421692,0.2109662
0.2521927,0.9425276,0.2040368
0.2483492,0.936915,0.2121402
0.2475901,0.9310325,0.2175889
0.2469806,0.9377167,0.221621
0.2421013,0.945165,0.2239323
0.2409625,0.9494398,0.2182917
0.2414095,0.9502412,0.2134167
0.2408611,0.9502883,0.2155459
0.2379429,0.9490916,0.2185962
0.2370976,0.9438327,0.214794
0.2396713,0.9454408,0.2110332
0.2405248,0.9473008,0.204925
0.2396162,0.9446128,0.2006815
0.2382309,0.9462305,0.2089166
0.2390772,0.9461671,0.2142962
0.2403964,0.9448238,0.2134879
0.2409435,0.9446087,0.211556
0.2423365,0.9422667,0.2082913
0.2419284,0.9427513,0.2098288
0.2434722,0.9434074,0.2107046
0.2475888,0.9398563,0.2106387
0.2494457,0.9353818,0.2127445
0.2506059,0.9323197,0.2118606
0.2512018,0.9361031,0.2121082
0.2521901,0.9448981,0.2118233
0.2523704,0.94839,0.2045565
0.2470563,0.9447683,0.1977413
0.2411913,0.9404134,0.1989565
0.2393954,0.9426231,0.2014605
0.2372275,0.9488838,0.1985514
0.2348793,0.9524845,0.1968469
0.2362503,0.9532679,0.1952198
0.2363987,0.9552616,0.1891353
0.2335919,0.9624853,0.1850135
0.2333057,0.963441,0.18223
0.2348792,0.9541046,0.1860952
0.2385291,0.9495852,0.1964519
0.2417391,0.9496823,0.1955993
0.240159,0.9519084,0.1935083
0.2397452,0.953468,0.1975466
0.240785,0.9486614,0.1955796
0.2404153,0.9440091,0.1961977
0.2420371,0.9405244,0.1984104
0.243552,0.9416786,0.1966984
0.2422605,0.9471897,0.1983286
0.2412137,0.9477313,0.1988314
0.2426477,0.9479049,0.1969788
0.2436128,0.9506821,0.1944234
0.2417584,0.9544748,0.192287
0.2376571,0.9571549,0.1949372
0.2343009,0.9581413,0.1967833
0.2392996,0.9587437,0.1956611
0.2458528,0.9537461,0.1963017
0.2417998,0.9492078,0.2003311
0.238095,0.9483973,0.2060666
0.2397736,0.9470582,0.2082808
0.2393551,0.948384,0.2067344
0.2402431,0.9478685,0.206978
0.2396932,0.9462918,0.210127
0.2360004,0.9461845,0.2121601
0.2360932,0.9450344,0.2126232
0.2374369,0.9462751,0.2122228
0.2394111,0.9460316,0.2097376
0.2410495,0.9452112,0.2075643
0.2390617,0.9462991,0.205712
0.2384893,0.9445877,0.2035411
0.2390748,0.944487,0.2050229
0.238818,0.9464634,0.2083118
0.2389742,0.9475393,0.2083043
0.2387698,0.9474932,0.2063841
0.2386263,0.9457466,0.2052922
0.237095,0.9459641,0.2061307
0.2351141,0.9470174,0.2076943
0.2342675,0.9483119,0.206883
0.2334106,0.9502096,0.2068789
0.2347836,0.9499325,0.2092315
0.236646,0.9505743,0.209094
0.234473,0.9527846,0.2054403
0.2329266,0.9538383,0.2025066
0.2370883,0.9501323,0.208373
0.239689,0.944155,0.2157752
0.2352378,0.9451584,0.2124327
0.2316788,0.9461614,0.2109394
0.2333479,0.9430965,0.2135793
0.2341011,0.9441897,0.2102047
0.2334405,0.9460078,0.2088237
0.2369701,0.9476457,0.2111327
0.2399866,0.9499344,0.2139803
0.2370663,0.9497614,0.2175403
0.2350146,0.9497527,0.2145745
0.2364977,0.947424,0.2105142
0.2375191,0.9447225,0.2128574
0.2384967,0.947636,0.2128246
0.2402459,0.9514355,0.2088354
0.2402584,0.9530251,0.2051053
0.2380649,0.9505633,0.2040965
0.2361608,0.9469922,0.2090992
0.2356535,0.9485288,0.2102932
0.2363035,0.9484667,0.2063932
0.2360855,0.9463754,0.2093372
0.2349093,0.9485108,0.2119075
0.2346937,0.9499249,0.2117747
0.2347365,0.9488594,0.2128915
0.2356959,0.9476342,0.2104207
0.2366828,0.946687,0.2137793
0.2368664,0.9471597,0.2218969
0.2376027,0.9460144,0.2231236
0.2367428,0.9425754,0.2173561
0.235936,0.9409363,0.2098053
0.2379737,0.9417151,0.2143978
0.2392275,0.9431399,0.2200443
0.2370058,0.9440404,0.2151576
0.234099,0.9443308,0.2173806
0.2337825,0.9423115,0.2195463
0.2357126,0.9384621,0.2186153
0.241817,0.9384463,0.2276177
0.247323,0.9411516,0.232664
0.2408928,0.9415775,0.2228218
0.2332596,0.9417387,0.2124846
0.2366347,0.9439097,0.217803
0.2390884,0.945888,0.2229943
0.2380661,0.9459147,0.2175004
0.2385323,0.9446869,0.2201345
0.2363123,0.9431989,0.2216498
0.2367712,0.942928,0.2175769
0.241206,0.9444288,0.2198592
0.2420046,0.9465083,0.2178329
0.2408823,0.9483718,0.2145194
0.2397924,0.9499419,0.2128111
0.2392083,0.9513254,0.2092226
0.2360071,0.9486035,0.2147746
0.2296988,0.942127,0.2216664
0.2303339,0.9404656,0.219342
0.2355257,0.9428647,0.2162027
0.2388394,0.9456417,0.214858
0.2412699,0.9500996,0.2122983
0.2404567,0.9517999,0.2127593
0.2398498,0.9499443,0.2180195
0.2412415,0.9483966,0.2227794
0.2404279,0.9448102,0.2258887
0.2399118,0.939012,0.2267863
0.2414438,0.9362865,0.2250809
0.2416997,0.938652,0.2197109
0.2395237,0.9420284,0.211832
0.2376149,0.9436247,0.2113138
0.2382023,0.9442398,0.2156207
0.2402223,0.9411599,0.2191612
0.2398763,0.9377545,0.2233938
0.235486,0.9418599,0.2212535
0.2329111,0.9461738,0.2174777
0.2374103,0.9445302,0.2199698
0.2424708,0.9441086,0.2200481
0.2402927,0.9462784,0.217834
0.2380639,0.9465745,0.2176765
0.2391445,0.9459798,0.2176149
0.2358993,0.9466817,0.2187975
0.2344726,0.9460043,0.2175918
0.2395545,0.9452663,0.2167596
0.2423143,0.947279,0.2210179
0.2384056,0.9469466,0.223652
0.2331263,0.94405,0.2255868
0.234794,0.9416687,0.2221275
0.2376218,0.940827,0.2164323
0.2368702,0.9424339,0.2202217
0.2363263,0.9431237,0.2182779
0.231182,0.9455222,0.2145995
0.2280251,0.948725,0.2183288
0.2336422,0.9469782,0.2179872
0.2388274,0.9468859,0.2196195
0.2398164,0.9487466,0.2188547
0.2381147,0.9484933,0.2144203
0.2369091,0.9486205,0.2170932
0.2358793,0.9469323,0.2211252
0.2345455,0.943261,0.2236397
0.2343751,0.9408793,0.2217877
0.2314274,0.9421153,0.219483
0.2306274,0.9441797,0.2209251
0.2341679,0.9427242,0.2230338
0.2341773,0.9425043,0.2281444
0.2336475,0.9427805,0.2272722
0.2358899,0.9416508,0.224172
0.2357192,0.9452451,0.2255724
0.2328959,0.948895,0.2208757
0.2313913,0.9481034,0.2185216
0.2284918,0.9483074,0.2205288
0.225263,0.948571,0.2203893
0.2286143,0.9455619,0.2254143
0.2331652,0.9427572,0.2303394
0.2337438,0.9441684,0.2301999
0.2330549,0.9477414,0.2289759
0.2309447,0.94941,0.2278856
0.2283286,0.9484994,0.2259935
0.2272944,0.9472908,0.2216719
0.2288513,0.9465255,0.2219146
0.2307172,0.9433756,0.2242335
0.2304018,0.9396698,0.2214402
0.2296671,0.9397235,0.2217722
0.2303522,0.9408243,0.2231152
0.2361048,0.9403541,0.2224307
0.2419072,0.9407532,0.2269011
0.2361151,0.9415198,0.2307268
0.2283075,0.9415829,0.22896
0.229588,0.9461926,0.226688
0.229842,0.9542972,0.2265364
0.2283381,0.9564312,0.2286821
0.2306699,0.9509465,0.2323862
0.2308546,0.9437188,0.2344709
0.2305398,0.9405852,0.2326026
0.2328884,0.9408427,0.2302222
0.2346833,0.9405572,0.228876
0.2365361,0.941811,0.2285475
0.2379912,0.9433136,0.2313916
0.2392736,0.9404958,0.2371168
0.2389991,0.9376171,0.242825
0.2358879,0.9393899,0.2380133
0.2325214,0.9422193,0.2275214
0.2267543,0.943878,0.228518
0.2213778,0.9461603,0.2307532
0.2205647,0.9476677,0.2296687
0.2227129,0.9474836,0.2322241
0.2262928,0.9476962,0.2292133
0.2262338,0.9507041,0.2233329
0.2251587,0.9541598,0.2203536
0.2268429,0.9529822,0.2212771
0.2279916,0.9499774,0.2256179
0.2332229,0.942686,0.2235054
0.2398726,0.9299101,0.2223893
0.2372365,0.9297131,0.2250299
0.2304597,0.9432391,0.2224586
0.2283625,0.9520296,0.2217597
0.22922,0.9524269,0.2211523
0.2314422,0.9487169,0.2206571
0.2333905,0.9467527,0.2235284
0.2320954,0.9472785,0.2224899
0.2297362,0.9445732,0.2245333
0.2276613,0.9412454,0.2296444
0.2276608,0.9397333,0.2316467
0.2300587,0.9407944,0.2359427
0.2302965,0.942569,0.237337
0.2280726,0.9403607,0.2351439
0.2253961,0.9399239,0.2346203
0.226295,0.941657,0.2311439
0.2291674,0.9410542,0.2271259
0.2290393,0.9392779,0.2264211
0.2290553,0.9368332,0.2260029
0.2270747,0.9394314,0.2294747
0.2236439,0.9453309,0.2356493
0.2235602,0.9492569,0.2336423
0.2245359,0.9526165,0.2295734
0.226566,0.9494908,0.2303449
0.2276676,0.9414552,0.2287912
0.2276734,0.9379247,0.2299332
0.2281651,0.9417155,0.2332592
0.2276047,0.9494908,0.2308295
0.2300047,0.9510098,0.2275981
0.2358956,0.9473666,0.2253681
0.2405496,0.9459405,0.2260831
0.2394,0.9446753,0.2273955
0.23469,0.9424472,0.2255361
0.2318206,0.9395546,0.2266239
0.2283115,0.9403333,0.2265857
0.2313004,0.9429829,0.2248149
0.2413578,0.9402858,0.225523
0.2444864,0.9395555,0.2254873
0.2427704,0.9410067,0.2267854
0.2395161,0.939798,0.2267567
0.2361305,0.9413232,0.2256907
0.2357866,0.9448855,0.2273094
0.2349088,0.9475498,0.2279878
0.2349799,0.9445375,0.2297065
0.2355215,0.9398185,0.2301329
0.2361616,0.9446849,0.2273326
0.2367191,0.9485058,0.2261304
0.2354091,0.9455422,0.2260873
0.2362435,0.9445423,0.2278057
0.2354355,0.9434083,0.2298355
0.2338778,0.9425594,0.2325864
0.2352259,0.943151,0.236397
0.2350915,0.9420733,0.2357439
0.2373134,0.9413833,0.2355183
0.2399644,0.9416211,0.236604
0.2387033,0.941607,0.233316
0.2374849,0.9407685,0.2304096
0.2364748,0.9404176,0.2299549
0.2356759,0.9433663,0.2300069
0.2351196,0.9469847,0.2277352
0.2346333,0.9470762,0.2255057
0.2345855,0.9452175,0.230326
0.2349423,0.9455929,0.2336968
0.2357639,0.94602,0.2307172
0.2361585,0.9436767,0.2281479
0.2363567,0.9423597,0.2260184
0.236119,0.9420024,0.2278671
0.2370945,0.9404318,0.2324276
0.2387717,0.9390158,0.232268
0.2382579,0.9385872,0.2298015
0.2381658,0.9395503,0.2232629
0.2390095,0.9416113,0.2155467
0.2391321,0.9442797,0.2191623
0.2387603,0.9453056,0.2249447
0.2387511,0.9430265,0.2218101
0.2386268,0.9404711,0.2215678
0.2354729,0.9411133,0.2250012
0.2312281,0.9439475,0.2245952
0.2299557,0.9449122,0.2261289
0.2323847,0.9451489,0.2291351
0.234405,0.9431108,0.2302612
0.2332243,0.9383881,0.2306731
0.2339525,0.9401733,0.2286067
0.2354249,0.9425146,0.2270941
0.2345129,0.9407505,0.2281855
0.2349813,0.9422074,0.2301067
0.2370344,0.9415919,0.2327951
0.239357,0.9401714,0.2333112
0.2391236,0.9407303,0.2296888
0.2358451,0.9396757,0.2255097
0.2354173,0.9405783,0.222774
0.2370605,0.9406274,0.2184968
0.2377509,0.9406705,0.2163856
0.2392332,0.9426609,0.2191295
0.2394037,0.9423324,0.2193484
0.2382751,0.9431373,0.2197867
0.239288,0.9433401,0.2234094
0.2399947,0.9416198,0.2275653
0.2396037,0.9418872,0.2334741
0.2380422,0.9426122,0.2316451
0.2356946,0.9442423,0.2262044
0.2393311,0.9447971,0.2289728
0.2429762,0.9430268,0.2272563
0.2378423,0.9418149,0.2227732
0.2346577,0.9404545,0.2214711
0.2383939,0.9406849,0.216377
0.2408407,0.9441686,0.2173446
0.2402528,0.947779,0.2210986
0.2404585,0.9472285,0.2206063
0.2422612,0.9425473,0.2250417
0.2434858,0.9384573,0.2270646
0.2429119,0.9355348,0.2244146
0.2404111,0.934397,0.2207586
0.2376627,0.9369058,0.2148505
0.2386602,0.9403682,0.2187928
0.2446697,0.942898,0.228144
0.2487326,0.9442896,0.2300834
0.2469172,0.9442071,0.2297135
0.2467502,0.9417687,0.2295595
0.2479086,0.9392314,0.2298472
0.2467408,0.9401905,0.2267915
0.2469698,0.9399281,0.221402
0.2454802,0.9354045,0.2234627
0.2426308,0.932232,0.2245157
0.2436159,0.9341926,0.2201758
0.2467765,0.9376283,0.2180146
0.2493063,0.9379362,0.2165957
0.2472584,0.9381854,0.2197772
0.2440508,0.9391837,0.2240691
0.244341,0.937919,0.2209282
0.2431653,0.937289,0.2189116
0.2434776,0.938617,0.220029
0.2472679,0.9404962,0.220259
0.2473188,0.9424233,0.2220309
0.2449449,0.9434207,0.222928
0.2432,0.9430957,0.2228095
0.2424393,0.9418321,0.2232155
0.2430592,0.9413123,0.2202432
0.2413222,0.9410174,0.2173462
0.2394134,0.9410007,0.2217402
0.2404131,0.9428343,0.2277023
0.2410285,0.9435662,0.2282367
0.2427433,0.9428376,0.2271106
0.2453531,0.9431952,0.2253751
0.245124,0.9438812,0.22314
0.2455837,0.9435872,0.2236947
0.2478984,0.9419795,0.2234607
0.2463303,0.9413077,0.2217963
0.2424546,0.9429099,0.2224323
0.2402295,0.9443563,0.223965
0.2380789,0.9446138,0.2250404
0.2386663,0.9444615,0.2249161
0.2411706,0.9436429,0.225296
0.2426565,0.9409097,0.2270785
0.2450364,0.9378361,0.2265459
0.2431705,0.9389221,0.2210239
0.2402567,0.9428145,0.2150591
0.2430631,0.9448867,0.2201694
0.2436698,0.9447077,0.2270823
0.2423529,0.9426257,0.2223237
0.2422785,0.9422738,0.21978
0.2404029,0.943244,0.2201876
0.2396814,0.939708,0.2185064
0.2399606,0.9385643,0.2228546
0.2401833,0.9419971,0.2274542
0.2411968,0.9413291,0.2293539
0.2404265,0.9399037,0.2275143
0.2398518,0.9397777,0.2228394
0.2422414,0.9383564,0.2250493
0.2455953,0.9387205,0.2242789
0.2479099,0.9395331,0.2174081
0.2464907,0.9398077,0.215078
0.242952,0.9423584,0.2158756
0.242373,0.9439249,0.2229417
0.2413673,0.9422575,0.2329591
0.2385851,0.9407528,0.236419
0.2384324,0.9406637,0.2341675
0.238048,0.9417458,0.2288436
0.2358833,0.9416498,0.2248132
0.2334532,0.9409886,0.2229585
0.2301486,0.9431998,0.2240559
0.2295624,0.9434667,0.2261788
0.2353296,0.9421048,0.2247152
0.2412663,0.9417833,0.2256438
0.2393566,0.9391561,0.2272562
0.2369886,0.9381344,0.2261157
0.2381422,0.938126,0.227187
0.2353575,0.9387795,0.2272844
0.2345045,0.9435927,0.2251212
0.2362084,0.9455937,0.2218166
0.2338013,0.9455099,0.2182346
0.2330277,0.9455674,0.2199929
0.2333989,0.9439692,0.2257037
0.2331293,0.9462602,0.2290314
0.2337166,0.9477269,0.2283793
0.232989,0.9439941,0.2282417
0.2339592,0.941119,0.2315144
0.2356919,0.940328,0.2328607
0.2354186,0.9409487,0.2307818
0.2341128,0.9429938,0.2283468
0.2338476,0.9459052,0.2255625
0.2353614,0.9458002,0.2265673
0.2327823,0.9433667,0.2318627
0.2310736,0.9447569,0.234265
0.2348227,0.9458389,0.2332451
0.2368423,0.945296,0.2309486
0.2380843,0.9452751,0.2290827
0.2378787,0.9430083,0.2287371
0.2377236,0.9425651,0.2272677
0.2398015,0.9435252,0.2258013
0.2387093,0.9427649,0.2253084
0.2385512,0.9424337,0.2259982
0.2392213,0.9395543,0.2306924
0.2377501,0.9365953,0.2364999
0.2381519,0.9394067,0.2365577
0.2381774,0.9433004,0.2331469
0.2368301,0.9434577,0.2331413
0.2351769,0.942727,0.2303497
0.2356142,0.943208,0.2261637
0.2399512,0.9428738,0.2309048
0.2413326,0.94206,0.234502
0.2381118,0.9413691,0.2331205
0.2348462,0.9405238,0.2342836
0.2329693,0.9402915,0.23432
0.2345804,0.9404356,0.2301212
0.2373804,0.9423233,0.2226026
0.236127,0.944451,0.2196312
0.2353399,0.9437884,0.2256788
0.2368637,0.9426763,0.229748
0.2361883,0.9423595,0.2280362
0.2378433,0.9406603,0.2289247
0.2408385,0.937974,0.2326548
0.2402817,0.9386062,0.2320083
0.2402051,0.9410133,0.2294452
0.2401655,0.9418345,0.2287737
0.239278,0.9432688,0.2273961
0.2387801,0.941737,0.2274887
0.2394961,0.9383824,0.2275026
0.2438633,0.9384458,0.2242874
0.2479736,0.9383812,0.2233332
0.2478937,0.940182,0.2273395
0.245494,0.9421785,0.2310349
0.2404795,0.9422555,0.2311297
0.2305458,0.9471167,0.2326474
0.2255139,0.9480829,0.2342997
0.2337768,0.9421756,0.2319043
0.2389155,0.9401235,0.2315018
0.2349637,0.9398882,0.2323673
0.2336588,0.940689,0.231296
0.2325915,0.9426685,0.2306505
0.2314467,0.9438997,0.2300674
0.2345807,0.9453201,0.2308913
0.2381126,0.9434279,0.232118
0.2396004,0.9403386,0.2331487
0.2390095,0.9375764,0.2337515
0.2382673,0.9363989,0.2301395
0.238271,0.9393453,0.2293065
0.2374398,0.9389461,0.2362018
0.2380614,0.9374195,0.2425544
0.2394145,0.9384274,0.2428657
0.2377309,0.939767,0.2398459
0.2360213,0.9437123,0.2367976
0.2359252,0.9437866,0.2285493
0.2351081,0.942039,0.2218765
0.2340134,0.9437299,0.2292487
0.2319517,0.9429042,0.239448
0.2298181,0.9427932,0.2442557
0.2304712,0.9429657,0.2419113
0.2326365,0.9397913,0.2344237
0.2356121,0.9374032,0.2311933
0.2389041,0.9368976,0.2254172
0.2404854,0.9378585,0.2241445
0.2435013,0.9374543,0.2323523
0.2472098,0.9363512,0.2326356
0.2433825,0.9378684,0.2347761
0.2368531,0.9410476,0.2383537
0.2351699,0.9445499,0.2343546
0.2332482,0.9438106,0.235643
0.2292557,0.9409513,0.2350459
0.2248127,0.9403469,0.2334757
0.2238825,0.9396522,0.235865
0.2270684,0.9407419,0.2330777
0.2318129,0.9415133,0.2328528
0.2439435,0.9400095,0.23297
0.2532073,0.934657,0.2304783
0.2508239,0.922528,0.2297662
0.2516175,0.9184422,0.2268151
0.2544325,0.9275192,0.226267
0.2540384,0.9392737,0.223347
0.2552556,0.9523587,0.2146136
0.251148,0.9573047,0.2050938
0.2405108,0.9522426,0.1904361
0.2338994,0.95339,0.1849907
0.2342134,0.9618106,0.1945712
0.2361885,0.9669781,0.1962833
0.2363161,0.963402,0.1946886
0.2359698,0.9549506,0.2049987
0.2368794,0.9491952,0.2166234
0.2396911,0.945959,0.2225552
0.2423555,0.9468325,0.2240144
0.2400112,0.9505344,0.2213936
0.235497,0.9514661,0.2169405
0.2348849,0.9551449,0.2125949
0.2348393,0.9582688,0.2111796
0.2341335,0.9538197,0.2106626
0.2336769,0.9487186,0.209938
0.2295412,0.9453479,0.2090011
0.2243339,0.946349,0.2092535
0.2218225,0.9502402,0.2177811
0.2222912,0.9494218,0.2260731
0.2257773,0.9449616,0.2256626
0.2290019,0.9359402,0.2284276
0.230556,0.9287039,0.2357494
0.229529,0.9311812,0.2349564
0.2267952,0.9361917,0.2322569
0.2268723,0.9404919,0.233986
0.2307681,0.9435611,0.2252801
0.2352699,0.9452956,0.2162247
0.2356255,0.9491619,0.2166919
0.23506,0.9510975,0.2112928
0.2349757,0.948794,0.2111216
0.2306031,0.9453322,0.2169374
0.2294202,0.9419968,0.2165347
0.2313426,0.9430483,0.2196123
0.2292265,0.9480561,0.2209874
0.2291835,0.951046,0.221136
0.231404,0.9524164,0.2260732
0.2331336,0.9526755,0.2249053
0.2337039,0.9513061,0.2212946
0.2310708,0.949039,0.2197674
0.2303858,0.947606,0.2182301
0.2324469,0.9499978,0.2181245
0.2338751,0.9499856,0.2171244
0.2336559,0.9454933,0.2206438
0.2329119,0.9422315,0.2267487
0.2345579,0.9387096,0.2258909
0.2343893,0.9370127,0.226636
0.2308509,0.9386098,0.2307424
0.2288405,0.9412457,0.2293216
0.2312672,0.9436292,0.2287996
0.2350138,0.9438268,0.232035
0.2333535,0.9447343,0.231828
0.2325156,0.9447195,0.2309043
0.2352179,0.9437112,0.2327285
0.2342104,0.9440396,0.2322689
0.2328493,0.9431116,0.229304
0.2317451,0.9456916,0.2288121
0.2314395,0.9494777,0.2293894
0.233632,0.9487149,0.228987
0.2332712,0.9481554,0.229292
0.2332154,0.9467772,0.2297024
0.2326042,0.9416022,0.231881
0.227535,0.9376454,0.2352642
0.2245849,0.9411033,0.2349542
0.2287471,0.9454849,0.2326583
0.2349105,0.9440213,0.2284205
0.235055,0.9442711,0.2203746
0.2360293,0.9454284,0.2158088
0.2378879,0.9453709,0.2188179
0.2308055,0.947599,0.2226498
0.2258835,0.9474615,0.2235166
0.2251153,0.9475104,0.2223791
0.224121,0.9486011,0.2198893
0.2277885,0.9460422,0.2206225
0.2286355,0.9443441,0.2225123
0.2286503,0.9429894,0.2210761
0.2302619,0.9434507,0.2227024
0.2283912,0.9470554,0.2280023
0.2292341,0.9455988,0.2316054
0.2296697,0.9423336,0.2296243
0.2281194,0.9410908,0.2252653
0.2282573,0.9395687,0.2260742
0.2278194,0.9391871,0.2261201
0.2316477,0.9379428,0.2263504
0.2361662,0.9376526,0.2289801
0.2359704,0.9418031,0.2277421
0.2347662,0.9472445,0.2295045
0.2307347,0.9501438,0.229429
0.2279672,0.9497274,0.224167
0.2305803,0.9480473,0.2231364
0.2329996,0.9458132,0.2216574
0.2336669,0.9453852,0.2222429
0.2335793,0.9472228,0.2245112
0.2336586,0.9473705,0.2232719
0.2335261,0.9466129,0.2232384
0.232205,0.9444581,0.2215712
0.2320512,0.9411954,0.2222659
0.231478,0.9419314,0.2273617
0.2297565,0.9456933,0.2290336
0.2307523,0.947808,0.2290758
0.2324745,0.9454149,0.22859
0.2343836,0.9414323,0.2256492
0.236899,0.9414135,0.2223629
0.2345622,0.9429064,0.2228759
0.2319397,0.9433357,0.2235304
0.2337907,0.9444546,0.2215472
0.2335923,0.9466928,0.2191505
0.2321284,0.9500352,0.2112273
0.2301397,0.9524739,0.2075314
0.2272598,0.9530366,0.212554
0.2308557,0.9522357,0.2117805
0.235074,0.9484116,0.2114533
0.2313885,0.9435187,0.2148934
0.2291222,0.9419636,0.2189927
0.2313721,0.9436782,0.2260725
0.2321107,0.9452401,0.2246104
0.2344438,0.945871,0.2214545
0.2365422,0.9462814,0.2250507
0.2315967,0.9455346,0.2252446
0.2272059,0.9457116,0.231771
0.2297199,0.94624,0.2389221
0.2326902,0.9457938,0.2262516
0.233508,0.9477806,0.2139866
0.2337213,0.9492835,0.2193677
0.2325232,0.9483353,0.2218857
0.2305414,0.9476255,0.2165036
0.2290526,0.9471423,0.218039
0.2308691,0.9480862,0.2189091
0.2358612,0.9490291,0.2158911
0.2361138,0.9484005,0.2181038
0.2311429,0.9470706,0.2209781
0.2283256,0.9441397,0.223505
0.2307746,0.9412939,0.2192009
0.2352281,0.9411875,0.210418
0.2351256,0.9428406,0.2141766
0.2334102,0.945142,0.2182491
0.2316815,0.948092,0.2178347
0.2277778,0.9479788,0.2240683
0.229255,0.9461558,0.2280851
0.2329718,0.9476715,0.2267939
0.2333257,0.9473481,0.2264858
0.2338447,0.945639,0.2274534
0.2328359,0.946169,0.2238074
0.2322642,0.9454923,0.2191124
0.2321829,0.9458661,0.2235782
0.2313301,0.9457969,0.2266751
0.2325743,0.9435687,0.2234281
0.2328248,0.9428884,0.223162
0.2332454,0.9434414,0.2235453
0.2330318,0.9468821,0.2217849
0.2283043,0.949824,0.220221
0.2252182,0.9486285,0.2210058
0.2267699,0.9473137,0.2230983
0.2305912,0.9443449,0.2238286
0.2329073,0.9405606,0.2238568
0.2317961,0.9418616,0.2232026
0.2307543,0.9444254,0.2226768
0.2304001,0.9427577,0.2222082
0.2305162,0.9429753,0.2218317
0.2312218,0.9465914,0.2220406
0.2332728,0.9469855,0.2194845
0.2365424,0.9448279,0.2175499
0.2368332,0.9424361,0.2207428
0.2364649,0.9444122,0.2227051
0.2377806,0.9482706,0.2187234
0.2366407,0.9462366,0.2153019
0.234362,0.9453972,0.2184688
0.2338584,0.9448068,0.2215552
0.2340894,0.9420646,0.2224673
0.2349772,0.9449649,0.2260905
0.2359817,0.9473297,0.2260619
0.2362437,0.9466395,0.2222342
0.236956,0.9467784,0.222204
0.2368984,0.9454604,0.2237297
0.2354022,0.9454842,0.2245016
0.2342272,0.946203,0.2248211
0.2333481,0.9442714,0.2255474
0.2347867,0.9419838,0.2273819
0.2370943,0.9394998,0.2292839
0.2361382,0.9385859,0.2301818
0.2354238,0.9421679,0.2285559
0.2358254,0.9458775,0.2288274
0.2352319,0.9463502,0.2297119
0.2361191,0.9453155,0.2260611
0.2368536,0.9438715,0.2233738
0.2365161,0.942751,0.2217703
0.2376878,0.9429147,0.2228402
0.2369658,0.9442888,0.2263947
0.2352642,0.9450541,0.2245597
0.2365419,0.9464318,0.2230462
0.2377484,0.9496674,0.2235023
0.2400825,0.9503316,0.2226034
0.2425329,0.9467531,0.2221066
0.2395165,0.9403127,0.2208472
0.2354459,0.9356903,0.221284
0.2331765,0.9384031,0.2229381
0.2313445,0.942828,0.2256932
0.2325973,0.9453655,0.2276209
0.2343625,0.9496627,0.2248556
0.2343466,0.9522318,0.2215269
0.236533,0.9520405,0.2167481
0.2385312,0.9506248,0.2153876
0.237088,0.9460285,0.2209476
0.2359458,0.9432834,0.2259855
0.2346392,0.9416307,0.2304235
0.2333285,0.9387534,0.2281263
0.235186,0.9406171,0.2220294
0.2361765,0.9413221,0.2229726
0.2355651,0.9415779,0.2225388
0.2355992,0.9470148,0.2227864
0.2341885,0.9480973,0.2276795
0.2327843,0.946763,0.2290952
0.2300336,0.947418,0.2294728
0.2264117,0.9467002,0.2292425
0.2291667,0.9456054,0.2287153
0.2341777,0.9441695,0.2289792
0.2360366,0.9459437,0.2252861
0.2371365,0.9484066,0.2223067
0.237237,0.9469517,0.2227796
0.2373965,0.9465842,0.2232685
0.2359509,0.9456231,0.2236806
0.2332568,0.9427945,0.2236558
0.2335378,0.9426035,0.2236527
0.2331824,0.9439587,0.2235156
0.2330823,0.9456752,0.2241699
0.2338935,0.9478793,0.2264046
0.2328126,0.9477479,0.2278534
0.2337002,0.9468422,0.2256119
0.2346172,0.9492922,0.2219102
0.2357797,0.9506154,0.2228122
0.2387504,0.9477534,0.2244891
0.2390625,0.9429676,0.2270161
0.2384433,0.9386235,0.2335874
0.236195,0.9399273,0.2335866
0.2336756,0.9424214,0.2279165
0.2347709,0.9411702,0.2254547
0.2350475,0.9417374,0.2247721
0.234667,0.9418344,0.2218526
0.2244244,0.8958273,-0.2411899
0.2162785,0.8906106,-0.22969
0.2165097,0.9015104,-0.2313999
0.2242869,0.9187831,-0.242629
0.223855,0.9219001,-0.250328
0.2224147,0.9211409,-0.2631411
0.2214955,0.9171626,-0.2822841
0.2141096,0.9174083,-0.2890619
0.2102646,0.926508,-0.29129
0.2046816,0.9362976,-0.2982892
0.1990147,0.9412978,-0.3043809
0.1965543,0.940686,-0.3146209
0.1906438,0.9469456,-0.3235696
0.197325,0.946922,-0.3268161
0.2119797,0.9291627,-0.3332678
0.2153024,0.9230773,-0.3374802
0.2136362,0.9299065,-0.3380819
0.2126099,0.9315479,-0.3455947
0.2124074,0.9276711,-0.3555684
0.21273,0.9247079,-0.3621759
0.2129254,0.9266895,-0.3645761
0.2125301,0.9251945,-0.3624742
0.2094847,0.9247215,-0.3597568
0.2053472,0.9300976,-0.3504679
0.2021009,0.9315273,-0.3418484
0.203977,0.9305846,-0.3459845
0.2090673,0.9311031,-0.3461374
0.2083849,0.9315934,-0.3392696
0.2054958,0.9258902,-0.3335882
0.203807,0.9141094,-0.3255001
0.2024663,0.910887,-0.3198804
0.2064641,0.9233754,-0.3135712
0.209967,0.9354339,-0.3086465
0.2082694,0.9288855,-0.3176671
0.2089807,0.921385,-0.3269907
0.2112829,0.9240613,-0.3279696
0.2108307,0.918902,-0.3265202
0.2082647,0.9144815,-0.3218977
0.2062898,0.9175994,-0.3222166
0.2078232,0.9175703,-0.3242177
0.2099881,0.9185008,-0.3222335
0.2107505,0.9203109,-0.3259562
0.2139988,0.9216713,-0.3311988
0.2169146,0.9220088,-0.3342252
0.2105605,0.9187777,-0.3335405
0.2016039,0.9173168,-0.3274303
0.2004701,0.917778,-0.3256121
0.1982013,0.9234663,-0.3273591
0.1928348,0.9342611,-0.3318166
0.1934179,0.9361199,-0.3374501
0.1974138,0.928612,-0.3383297
0.202121,0.9198445,-0.3385764
0.2036066,0.9148794,-0.3315181
0.1984803,0.9192019,-0.3200917
0.1966468,0.9249181,-0.31966
0.201025,0.9236172,-0.3194794
0.2049675,0.9226699,-0.3167534
0.2075679,0.9221459,-0.3205134
0.2101526,0.9180711,-0.3193285
0.2097497,0.917335,-0.3160992
0.2029126,0.9189048,-0.3194267
0.1968159,0.9196285,-0.3190845
0.1958822,0.9214384,-0.3206856
0.1966494,0.9214225,-0.3276599
0.1989012,0.9221268,-0.3328784
0.199746,0.9252008,-0.3378109
0.1999949,0.9273369,-0.3370878
0.2004085,0.9293682,-0.3358777
0.1995078,0.9281702,-0.3380216
0.2002711,0.924988,-0.3371929
0.2000661,0.9263804,-0.3396325
0.1989568,0.9266675,-0.3404107
0.1968397,0.9229245,-0.3357797
0.1930413,0.9216894,-0.3322523
0.1942946,0.9226731,-0.3307048
0.1964707,0.9250255,-0.3318915
0.196325,0.9273516,-0.3285998
0.1975443,0.9260348,-0.3234492
0.1964948,0.9235094,-0.3210526
0.1950973,0.9197947,-0.3150174
0.1964559,0.9166433,-0.3145278
0.1984356,0.9174921,-0.322825
0.2024996,0.9160465,-0.3322228
0.2051175,0.9132684,-0.3371771
0.2014374,0.9173951,-0.3277794
0.1983298,0.9221186,-0.3179379
0.1993752,0.9203907,-0.3241809
0.1986296,0.9202632,-0.3283893
0.1972606,0.923257,-0.3268535
0.1982824,0.9224294,-0.3318119
0.1987587,0.9213918,-0.3311311
0.1986449,0.921794,-0.3257859
0.1986337,0.9210124,-0.3285852
0.1979459,0.9232194,-0.3314712
0.1960742,0.9260983,-0.3318503
0.1935746,0.9241678,-0.3317929
0.1940512,0.9235769,-0.3307768
0.195398,0.9284907,-0.3304106
0.194884,0.9309523,-0.3282878
0.1962325,0.9252227,-0.3272643
0.1973885,0.9189377,-0.3267728
0.1977699,0.9206768,-0.3252153
0.1993232,0.9242655,-0.3260615
0.1983885,0.9247494,-0.3273157
0.1972982,0.9257288,-0.3278113
0.1974485,0.9246852,-0.324914
0.1973513,0.9229669,-0.3214252
0.2001211,0.9218504,-0.3222195
0.201778,0.9198073,-0.3230783
0.1985263,0.9239956,-0.3269534
0.1954025,0.9302969,-0.3352056
0.1960784,0.9317533,-0.3382678
0.1973941,0.928493,-0.3304634
0.1964799,0.9223324,-0.323699
0.1979112,0.9233739,-0.3300637
0.199514,0.9232294,-0.3342322
0.1968328,0.9177997,-0.3291827
0.195065,0.9208357,-0.3284289
0.1940516,0.9228683,-0.3320594
0.1936269,0.922221,-0.3369532
0.1960385,0.9238359,-0.3393888
0.1978499,0.9213189,-0.3337845
0.198332,0.9210494,-0.3307616
0.1969159,0.9213051,-0.3333082
0.1933852,0.9201968,-0.3321782
0.1908735,0.9223373,-0.334863
0.1925501,0.9223462,-0.3399457
0.1969382,0.9222466,-0.3379246
0.1977445,0.9233606,-0.337775
0.1970273,0.9235732,-0.3363723
0.1973858,0.9234475,-0.3315212
0.1969694,0.9206103,-0.3343305
0.1974447,0.9191916,-0.3370786
0.1971887,0.9220524,-0.3366733
0.1970227,0.924694,-0.339083
0.1977388,0.9239077,-0.3401907
0.1978026,0.922768,-0.3399049
0.1988544,0.9241678,-0.3378079
0.1978904,0.9234687,-0.3322904
0.196153,0.9222432,-0.3285051
0.1957162,0.9225142,-0.3278187
0.194108,0.9219399,-0.3270153
0.1949806,0.9233402,-0.3291183
0.1966612,0.9240467,-0.3336778
0.1956361,0.9232956,-0.3324007
0.1952492,0.923836,-0.3307771
0.1943452,0.9234772,-0.3338119
0.192537,0.9237948,-0.333313
0.1938813,0.924638,-0.3319861
0.1961621,0.9250496,-0.3322217
0.1955215,0.9251515,-0.3321274
0.1939139,0.9237628,-0.3362206
0.1923215,0.9234447,-0.3404426
0.1908958,0.9236614,-0.3394261
0.1906004,0.9235254,-0.3329942
0.1916471,0.9237757,-0.3266569
0.193847,0.9232647,-0.3290756
0.1932469,0.9229713,-0.3324575
0.1913467,0.9230808,-0.331497
0.1919546,0.9250432,-0.3322089
0.1917066,0.9284546,-0.3324402
0.1923831,0.928759,-0.3333133
0.1937346,0.9249007,-0.3353186
0.192939,0.9205693,-0.3324348
0.1939346,0.9220391,-0.3283893
0.194901,0.9255098,-0.3279241
0.1944892,0.9255933,-0.3284586
0.1951653,0.9264865,-0.3275897
0.1955421,0.9249349,-0.3251467
0.196483,0.9223186,-0.3232376
0.1992043,0.9242034,-0.3234395
0.2001395,0.9249112,-0.3262549
0.1953787,0.9258763,-0.3301964
0.191191,0.9280841,-0.331291
0.1931213,0.9271742,-0.3264108
0.1939718,0.9251341,-0.3205581
0.1933414,0.9230307,-0.3258389
0.1948704,0.9240082,-0.3324674
0.1941989,0.9266585,-0.3270654
0.1911157,0.9273007,-0.324642
0.1888235,0.9297145,-0.325928
0.1888744,0.9296494,-0.3239234
0.1918659,0.9263375,-0.3251705
0.1943469,0.9261275,-0.3229095
0.1948491,0.9253219,-0.3180873
0.1959983,0.9236729,-0.3169164
0.1959646,0.9240953,-0.317259
0.1935959,0.9264317,-0.3239752
0.1925988,0.930439,-0.3320318
0.1930537,0.9304971,-0.3323975
0.192646,0.9275719,-0.3268021
0.1903523,0.9254993,-0.3223044
0.1885178,0.9219285,-0.3233384
0.1913521,0.9212159,-0.3239628
0.1937481,0.9241683,-0.3258192
0.1894448,0.9275543,-0.3325103
0.1859399,0.9327533,-0.3330889
0.1888855,0.9324568,-0.3229443
0.191641,0.9260059,-0.3146562
0.1918614,0.9242685,-0.3183961
0.1927533,0.9258893,-0.3244864
0.1932251,0.9267855,-0.3251299
0.1930504,0.9270342,-0.3258163
0.1930839,0.9275993,-0.3266325
0.1929597,0.9297055,-0.3279171
0.1929715,0.9276938,-0.3286265
0.1921444,0.9249831,-0.327119
0.1911397,0.9268886,-0.3288623
0.1909715,0.9265779,-0.3299006
0.1906397,0.9259413,-0.3285459
0.1903411,0.9264375,-0.3295166
0.1904454,0.9243679,-0.3298439
0.1920615,0.9234757,-0.3326853
0.1941532,0.9252641,-0.3370837
0.1943054,0.927202,-0.3360977
0.1937231,0.9261984,-0.3329074
0.1929624,0.9239822,-0.3281806
0.1936072,0.9235628,-0.3230966
0.1950336,0.9222126,-0.3240494
0.1934129,0.9184424,-0.3305376
0.1924599,0.913803,-0.3351458
0.1930363,0.9149609,-0.3333993
0.1911713,0.9206392,-0.3304946
0.1896927,0.9220592,-0.3305117
0.1901685,0.92274,-0.3318198
0.1902104,0.9239003,-0.3366707
0.1884023,0.9258617,-0.3423928
0.1867956,0.9288196,-0.3405516
0.1882488,0.9249984,-0.3369761
0.1913299,0.9219755,-0.3378687
0.1939239,0.9242314,-0.337359
0.1935694,0.9242086,-0.3372208
0.1922346,0.926566,-0.3389336
0.1934268,0.9314938,-0.3414895
0.1932455,0.9322291,-0.3459782
0.1925833,0.9278147,-0.3442648
0.1931126,0.9227473,-0.3385475
0.191114,0.9213446,-0.3375774
0.1899722,0.9210346,-0.3396254
0.1921202,0.9223018,-0.3429357
0.1935736,0.9245277,-0.3421875
0.1921377,0.9231234,-0.3403806
0.1896573,0.9202837,-0.3426126
0.1884156,0.9182772,-0.3415445
0.1869327,0.9188217,-0.3410962
0.1861923,0.9227607,-0.3421266
0.1866253,0.9246397,-0.3390824
0.1869382,0.9228498,-0.3376301
0.1896715,0.9206933,-0.3372642
0.1911843,0.9189052,-0.3374953
0.1896872,0.9191726,-0.3383472
0.1890431,0.9213017,-0.336546
0.1869864,0.9226694,-0.3372485
0.1858075,0.9240617,-0.3410975
0.1889402,0.9240044,-0.3427229
0.1911293,0.9228114,-0.3404928
0.1893225,0.9230492,-0.3397489
0.1869713,0.9222238,-0.3433191
0.1865994,0.9226411,-0.3465722
0.1861619,0.9244772,-0.3507078
0.1866755,0.9234067,-0.3522561
0.1885499,0.9233322,-0.3477436
0.1888226,0.9240377,-0.3417042
0.1889352,0.9223969,-0.3362458
0.1882482,0.9192564,-0.3376911
0.1872114,0.9159195,-0.3414654
0.1871272,0.91898,-0.3400378
0.1863786,0.9246753,-0.341378
0.190309,0.9236585,-0.3447286
0.1951518,0.9221283,-0.3472821
0.1926144,0.9228403,-0.3497422
0.1904064,0.9237897,-0.3476834
0.1906857,0.9266597,-0.3434182
0.1913926,0.9266071,-0.3392301
0.1957857,0.9230947,-0.3344164
0.1983423,0.9189258,-0.3280646
0.1955085,0.9150858,-0.3216875
0.1896125,0.9175882,-0.3228957
0.1795543,0.924561,-0.3264566
0.1717835,0.9303529,-0.328978
0.1747152,0.9334826,-0.3361906
0.1788187,0.9329298,-0.335192
0.1772581,0.9329371,-0.3262277
0.1792541,0.9314974,-0.3242023
0.182759,0.9288111,-0.3234752
0.1839114,0.9300344,-0.3198031
0.1867204,0.927454,-0.3145631
0.1890146,0.923722,-0.3150606
0.1939591,0.921921,-0.3252173
0.1991735,0.917567,-0.3298355
0.1971568,0.9232566,-0.3288329
0.1945403,0.9313468,-0.3288156
0.1946911,0.9256262,-0.3275822
0.196141,0.9201978,-0.325402
0.1976976,0.919953,-0.3221467
0.196478,0.9214098,-0.3233849
0.1953724,0.9259831,-0.3237322
0.1971283,0.9244426,-0.3204588
0.2006771,0.9175904,-0.3201032
0.2056997,0.9143187,-0.3155233
0.2089753,0.9160438,-0.3153102
0.2024162,0.9217113,-0.3254767
0.191696,0.9245633,-0.3324556
0.1904005,0.9256847,-0.3357669
0.1933799,0.9299252,-0.3361579
0.1949362,0.9307788,-0.3362922
0.1982678,0.9278026,-0.3400187
0.2006396,0.9254413,-0.3391092
0.1979218,0.9258141,-0.3349474
0.1923284,0.9262441,-0.334217
0.1913947,0.9230341,-0.3320953
0.1955013,0.9219664,-0.3268432
0.1983789,0.9207804,-0.321013
0.1974427,0.9180589,-0.3181699
0.1954301,0.9192247,-0.3223951
0.1960265,0.9198593,-0.3249821
0.19594,0.9215065,-0.3221658
0.1957784,0.9252274,-0.3218188
0.1977546,0.9267472,-0.3231358
0.1970689,0.9270125,-0.3257841
0.1954744,0.9254956,-0.3293993
0.1953334,0.9241604,-0.3311636
0.1951457,0.9218459,-0.3338633
0.1938409,0.9194565,-0.3358649
0.1912302,0.9217048,-0.3348789
0.1899864,0.9234686,-0.3365389
0.1896705,0.9261544,-0.3416692
0.1896733,0.9292357,-0.3442477
0.1899151,0.9265151,-0.3443506
0.1935831,0.9256083,-0.342877
0.1991974,0.927355,-0.3399878
0.1954928,0.9275414,-0.337965
0.1905456,0.9275883,-0.3336964
0.1921413,0.9243923,-0.3290577
0.1919011,0.9220886,-0.3261712
0.1932357,0.9232785,-0.3198696
0.1954224,0.922141,-0.312308
0.1945782,0.9218108,-0.3100029
0.1964359,0.9238801,-0.3158351
0.1997369,0.9245687,-0.3204444
0.2001317,0.9246746,-0.3174595
0.1969675,0.9225593,-0.3180025
0.1938874,0.9196266,-0.321596
0.1941842,0.9214639,-0.3244106
0.1947568,0.9250564,-0.3325511
0.1943502,0.9271276,-0.3405473
0.1943643,0.9276793,-0.3413825
0.1945556,0.9264907,-0.3400577
0.1942286,0.9263548,-0.3395552
0.1934949,0.9264538,-0.3349013
0.1930658,0.925986,-0.3317655
0.1937546,0.9259589,-0.3330662
0.1953065,0.9252762,-0.3257601
0.1968167,0.9252545,-0.3120349
0.2001091,0.923485,-0.3031877
0.2027293,0.9216916,-0.3108961
0.2002892,0.9260483,-0.3296872
0.1960597,0.9285916,-0.3326461
0.1918762,0.9240456,-0.3273855
0.1904702,0.9208544,-0.3259224
0.1933446,0.9232121,-0.3249126
0.1931175,0.9257824,-0.332532
0.1907008,0.926368,-0.3394162
0.1901816,0.9303464,-0.3403861
0.1898742,0.9343486,-0.3423711
0.1907842,0.9329108,-0.3437134
0.1914196,0.9295689,-0.3404364
0.1926145,0.9248184,-0.3330299
0.1951351,0.9210925,-0.3336148
0.1961505,0.9208562,-0.3309812
0.196833,0.9192076,-0.3208534
0.1931811,0.9178264,-0.3244549
0.1881768,0.9218273,-0.3304222
0.1904115,0.9267687,-0.3326564
0.192353,0.9288646,-0.3352595
0.1920018,0.931204,-0.3318967
0.1938449,0.9322554,-0.3329111
0.1940941,0.9313629,-0.3376251
0.194214,0.931194,-0.3394677
0.1951525,0.926054,-0.3390024
0.1951785,0.9179095,-0.3322175
0.1969612,0.917487,-0.3254621
0.1979021,0.92282,-0.328386
0.1971468,0.9274445,-0.3386244
0.1992601,0.9278167,-0.3423022
0.2016159,0.9229947,-0.3344048
0.2014349,0.9194675,-0.3254392
0.1993274,0.9214883,-0.3232658
0.1942752,0.9233656,-0.3230439
0.19007,0.9219936,-0.3196371
0.1913415,0.9228008,-0.323303
0.1936552,0.9244656,-0.3273749
0.193162,0.9232941,-0.3236509
0.194858,0.9234774,-0.3245016
0.1982702,0.9239448,-0.3214721
0.2008197,0.9215111,-0.3147265
0.2065607,0.9148522,-0.3165445
0.2085541,0.9087746,-0.3232677
0.1985895,0.9178176,-0.3314134
0.1856996,0.931812,-0.3334604
0.1820722,0.933974,-0.3357185
0.1868671,0.9356889,-0.3393502
0.1917328,0.9308588,-0.3329029
0.1962667,0.9165827,-0.3295079
0.1980233,0.917624,-0.3293224
0.1965567,0.9213172,-0.3260343
0.1984898,0.9181201,-0.3313498
0.1970795,0.9232379,-0.3369604
0.1954349,0.9198417,-0.3324067
0.1986171,0.913194,-0.3275755
0.195004,0.9186444,-0.327945
0.1924859,0.9201667,-0.3298072
0.1929552,0.9237713,-0.332224
0.1887964,0.9301329,-0.3362344
0.1903928,0.9298348,-0.3436894
0.1930963,0.9305126,-0.3510452
0.1926296,0.9276583,-0.3469389
0.1939571,0.9230084,-0.3409219
0.1938718,0.9223571,-0.3436018
0.1964004,0.9210063,-0.340965
0.1987342,0.9208424,-0.3379816
0.1980694,0.9222496,-0.3397719
0.1988407,0.9251677,-0.3355162
0.1963491,0.9276396,-0.3336508
0.1925939,0.9271509,-0.3330016
0.1905318,0.9275642,-0.3284987
0.1892873,0.9267297,-0.3288027
0.1907756,0.9231428,-0.3280922
0.1905105,0.9213614,-0.3263153
0.1902011,0.9221959,-0.3268784
0.193849,0.9222846,-0.3242502
0.1968615,0.9204803,-0.3249414
0.1977395,0.9212469,-0.3286955
0.1962817,0.9254212,-0.3289525
0.1952867,0.9263524,-0.3270684
0.197121,0.9199866,-0.3220108
0.1974773,0.9142393,-0.3207626
0.1971054,0.9176947,-0.3288143
0.1967785,0.9242058,-0.3364461
0.1944035,0.9273828,-0.3375868
0.1923856,0.9272194,-0.3364601
0.1926565,0.9256081,-0.336239
0.1936409,0.9274052,-0.3343127
0.192888,0.9286729,-0.3344086
0.1932908,0.9262114,-0.3379363
0.1962203,0.923527,-0.3365432
0.1975112,0.919681,-0.3339442
0.1965202,0.9200278,-0.3343399
0.1942727,0.9232148,-0.3329551
0.1940159,0.9217261,-0.3282484
0.1949729,0.9226476,-0.3246672
0.1942517,0.9255068,-0.3280971
0.1954271,0.9264733,-0.329282
0.1955781,0.9268441,-0.3262821
0.192023,0.9239149,-0.3284995
0.1893177,0.9228767,-0.3292461
0.1901114,0.9233003,-0.3296762
0.1929367,0.9224795,-0.3329246
0.1930682,0.9244358,-0.3335697
0.1920617,0.9255987,-0.3351613
0.1916323,0.9264762,-0.335259
0.191203,0.9266597,-0.3338966
0.1919738,0.9239441,-0.3352532
0.1906396,0.9233277,-0.3346813
0.1893753,0.9232104,-0.3338585
0.1888703,0.9218373,-0.3324859
0.1870893,0.9204772,-0.3290498
0.1891516,0.9206724,-0.3294425
0.1913107,0.9234509,-0.3324397
0.1906227,0.9248017,-0.3353244
0.192715,0.9252488,-0.3359706
0.1947701,0.9253631,-0.334568
0.1911688,0.925445,-0.3365263
0.1875914,0.9270384,-0.3368555
0.1915663,0.925871,-0.3347182
0.1944566,0.9227574,-0.3349228
0.1907337,0.9191905,-0.3328628
0.1897581,0.9180531,-0.3334546
0.1925734,0.9257299,-0.3390549
0.1945554,0.9327091,-0.3417198
0.194441,0.9310146,-0.3411946
0.192385,0.9285456,-0.3365458
0.1915387,0.9266243,-0.3300848
0.1933363,0.922301,-0.3257286
0.1952554,0.9215958,-0.3250264
0.1943968,0.9238045,-0.328048
0.19282,0.9233172,-0.3287071
0.1923134,0.9252627,-0.332452
0.1917564,0.9263036,-0.3371791
0.1942186,0.9247601,-0.3339503
0.1970834,0.9281552,-0.3341796
0.1954169,0.928464,-0.335747
0.1933735,0.9273435,-0.3329608
0.192052,0.931248,-0.3306713
0.1910381,0.9316896,-0.3264676
0.1918803,0.928577,-0.3268739
0.1918439,0.9251289,-0.3292901
0.1911795,0.9255277,-0.3268799
0.1908116,0.9265348,-0.3282919
0.1890748,0.9220096,-0.3314319
0.1885795,0.9215949,-0.3334818
0.1900424,0.9228938,-0.3333456
0.1905361,0.9216509,-0.3264798
0.1902752,0.9227925,-0.3230551
0.1901923,0.922986,-0.3255746
0.1903035,0.9237319,-0.3261756
0.1906941,0.9237146,-0.3290516
0.191974,0.9212136,-0.3327966
0.1936573,0.9206863,-0.3289204
0.1932793,0.9207468,-0.3243401
0.1923959,0.9220874,-0.3276034
0.1924497,0.9238962,-0.3303583
0.1914173,0.9253843,-0.330276
0.1913393,0.9266879,-0.3327915
0.1922918,0.9236346,-0.3319808
0.192685,0.9208669,-0.3290684
0.1950592,0.9219507,-0.3284474
0.1967179,0.9237933,-0.3270849
0.1955962,0.9263515,-0.3280042
0.194582,0.9271543,-0.3300498
0.1907325,0.9259689,-0.3339968
0.1860674,0.9262817,-0.3415647
0.1890205,0.9267436,-0.3421457
0.1939211,0.9257604,-0.3360704
0.1929446,0.9244496,-0.3316893
0.1915825,0.9225391,-0.3308472
0.1907989,0.9221927,-0.3311845
0.1884836,0.9236558,-0.3275717
0.1879058,0.9225791,-0.3252265
0.1875781,0.9214645,-0.3276711
0.1885748,0.9211012,-0.3275486
0.1923114,0.9200828,-0.3239825
0.1937065,0.9212441,-0.3211255
0.1933136,0.9215653,-0.3234513
0.1936934,0.923121,-0.3311091
0.1947318,0.9277947,-0.3366836
0.194803,0.929422,-0.3352579
0.1937433,0.9298368,-0.3314799
0.1938209,0.9268764,-0.3327791
0.1932473,0.9221651,-0.3367912
0.1943737,0.9269002,-0.33824
0.1967991,0.9306977,-0.332408
0.1944643,0.9240904,-0.3213923
0.1917423,0.92025,-0.3175793
0.1906446,0.9225238,-0.3164319
0.1898758,0.9227963,-0.3175281
0.1915937,0.9216929,-0.3252541
0.1931102,0.9228659,-0.3229791
0.1940692,0.9253113,-0.3208643
0.1948571,0.9277894,-0.3276736
0.1943207,0.92766,-0.3274296
0.1950898,0.9228139,-0.3261288
0.1981364,0.9194038,-0.3193313
0.200644,0.9210776,-0.3127202
0.1981503,0.9234072,-0.3260584
0.1924398,0.9258043,-0.3367212
0.1888535,0.9309136,-0.3342487
0.1865058,0.9358494,-0.3308561
0.1861141,0.934542,-0.3282531
0.1872461,0.9287404,-0.3309071
0.1882251,0.9237928,-0.3331307
0.1918633,0.9206725,-0.3315746
0.194597,0.9205268,-0.331991
0.1957308,0.9205991,-0.3330199
0.197301,0.9179188,-0.3332212
0.1968879,0.9165126,-0.3310263
0.19876,0.9193946,-0.3272053
0.1980923,0.9239234,-0.3258373
0.1918853,0.9247251,-0.3281787
0.1902047,0.9246955,-0.3300172
0.1900511,0.9272444,-0.3280615
0.1900683,0.9266718,-0.3280868
0.1909118,0.9256793,-0.3328909
0.1896193,0.9263944,-0.3378439
0.1905821,0.9235561,-0.3390481
0.1908143,0.9215948,-0.3385156
0.192071,0.9241639,-0.3380983
0.1968795,0.9268076,-0.3340923
0.1978531,0.9265105,-0.3330487
0.197191,0.9250836,-0.3356746
0.1970536,0.9249602,-0.3305631
0.196657,0.9252634,-0.326414
0.1944777,0.9268075,-0.3282581
0.1900748,0.928454,-0.3276629
0.1900057,0.9277849,-0.3286076
0.1924954,0.927518,-0.3328152
0.1931024,0.927781,-0.3375444
0.1915018,0.9265002,-0.3383845
0.189295,0.924275,-0.3337693
0.1904902,0.923004,-0.3324591
0.1921821,0.9232545,-0.3326988
0.19361,0.922094,-0.3325881
0.1942982,0.9200854,-0.3374399
0.190646,0.9208204,-0.3418692
0.1888533,0.9227788,-0.3400274
0.1900445,0.9248556,-0.3344683
0.1909392,0.9272827,-0.3315105
0.1939364,0.926227,-0.3312513
0.1938488,0.9227292,-0.330932
0.192353,0.9210016,-0.3329143
0.1965929,0.9206431,-0.3369543
0.1990854,0.9230821,-0.3386744
0.1983369,0.9266646,-0.3346058
0.1979389,0.928441,-0.3309184
0.19664,0.9298017,-0.3309419
0.1972937,0.9290356,-0.331642
0.197518,0.9278375,-0.3344299
0.1960912,0.9279415,-0.3336496
0.193452,0.9276339,-0.3327777
0.1877474,0.9288392,-0.3370374
0.1861955,0.9295459,-0.3376948
0.1892881,0.9284472,-0.3365364
0.1928215,0.9265782,-0.3349552
0.1971968,0.9241204,-0.3339482
0.1967346,0.924876,-0.3357745
0.1944761,0.9265699,-0.3361688
0.1965998,0.9262368,-0.3377848
0.1970547,0.9265114,-0.336868
0.1963823,0.9264251,-0.3332924
0.1958018,0.9262144,-0.3340218
0.1912045,0.9264068,-0.3340042
0.1880554,0.925384,-0.3326118
0.1881238,0.9241821,-0.3302376
0.1904269,0.922312,-0.3264834
0.1947575,0.9206372,-0.3259673
0.1934035,0.9233513,-0.327415
0.1917882,0.9272795,-0.3287972
0.1944469,0.9263895,-0.3303711
0.1945462,0.9239319,-0.3325226
0.1954819,0.9234841,-0.3333198
0.1936606,0.9233836,-0.3348232
0.1879061,0.9237591,-0.3398542
0.1875839,0.9237361,-0.3396519
0.1887012,0.9233167,-0.3367016
0.1914273,0.9236856,-0.3372429
0.1962439,0.9226532,-0.333845
0.1948288,0.9218122,-0.3305477
0.1934579,0.9230736,-0.3327315
0.1962989,0.9257829,-0.33592
0.1969416,0.9283303,-0.3376433
0.1971728,0.9246427,-0.3342982
0.1976244,0.9174505,-0.3301932
0.197017,0.9156572,-0.3318362
0.197872,0.918067,-0.3325171
0.1972662,0.9204626,-0.3294589
0.1945588,0.9219509,-0.3295829
0.1928033,0.9243723,-0.3338245
0.1903889,0.9273827,-0.3373858
0.1894283,0.9265069,-0.3365584
0.1907946,0.9237947,-0.3334068
0.1903127,0.9234364,-0.3313494
0.1899298,0.9235652,-0.3281362
0.1909754,0.9236049,-0.3281856
0.1924575,0.9237536,-0.3333462
0.1962058,0.9234344,-0.3353256
0.1982705,0.9236938,-0.3342618
0.1960475,0.9236712,-0.3292819
0.1948728,0.9234533,-0.3229762
0.1943601,0.9237746,-0.3238548
0.1924983,0.92388,-0.3265415
0.1932562,0.9253784,-0.3264694
0.1962654,0.9268604,-0.3268664
0.1968941,0.9255766,-0.3303525
0.1929856,0.9244126,-0.335597
0.1885551,0.9248869,-0.3397463
0.1901747,0.924358,-0.3397882
0.1933091,0.9230894,-0.3342032
0.19246,0.9235739,-0.3329402
0.1910658,0.9237532,-0.3322871
0.188156,0.9224231,-0.3262742
0.1867903,0.9220627,-0.3274973
0.1910151,0.9221858,-0.3303056
0.1934217,0.9222611,-0.3311947
0.194076,0.9221083,-0.334361
0.1975492,0.9211932,-0.3316354
0.2010919,0.9206775,-0.3292369
0.2004952,0.9206964,-0.3315782
0.1966694,0.9216882,-0.3333414
0.1949383,0.9246057,-0.3354694
0.1920415,0.9283919,-0.3351764
0.1880942,0.9293744,-0.3318483
0.1862036,0.9279038,-0.3308146
0.1827352,0.9290334,-0.3344677
0.1827592,0.9313043,-0.3389599
0.1851078,0.9321554,-0.3393116
0.1874898,0.9312151,-0.3324218
0.1943823,0.9281464,-0.3197803
0.1978715,0.9254395,-0.3138343
0.1984715,0.9229978,-0.3150039
0.199398,0.9237379,-0.3106869
0.1962732,0.925842,-0.3077049
0.1926668,0.9219072,-0.3141101
0.1870981,0.9199152,-0.3205885
0.1823352,0.9236269,-0.3194713
0.1835117,0.9271901,-0.3138563
0.1840132,0.9304982,-0.3115421
0.1860352,0.9310802,-0.3139387
0.1908578,0.9302755,-0.3213862
0.1926263,0.9297522,-0.3296983
0.1931179,0.9260395,-0.3283946
0.192373,0.92338,-0.3251234
0.1910658,0.9285731,-0.327256
0.1917554,0.9354898,-0.3254981
0.1918639,0.9334811,-0.3232788
0.1909236,0.9295185,-0.3253072
0.1888947,0.9284451,-0.3216875
0.1854614,0.9254964,-0.317143
0.1836545,0.9279326,-0.3190947
0.1837183,0.9321639,-0.318267
0.1853357,0.9318332,-0.3171834
0.1894915,0.9329837,-0.318144
0.1914592,0.9294237,-0.3141154
0.1900587,0.9241301,-0.3116819
0.1909825,0.9264704,-0.3142183
0.1923007,0.9274862,-0.3162388
0.191503,0.9264985,-0.3153888
0.1913787,0.9282692,-0.3145785
0.1907403,0.9279332,-0.3164169
0.1888611,0.9263241,-0.3178184
0.1874397,0.9266181,-0.3199482
0.1864551,0.9281067,-0.3201116
0.1858336,0.9324519,-0.3174771
0.1862252,0.93567,-0.3182781
0.1872166,0.9312842,-0.3187152
0.1879807,0.927033,-0.3202886
0.1890379,0.9286554,-0.3226997
0.1891213,0.9291462,-0.3176868
0.1880204,0.9291544,-0.3133622
0.1886674,0.9323791,-0.3149234
0.1894919,0.9340758,-0.3142695
0.1884161,0.9329574,-0.3126983
0.1878481,0.9308362,-0.3184533
0.187583,0.9273693,-0.324995
0.1871182,0.9256308,-0.3218122
0.18775,0.9274649,-0.3181296
0.1875672,0.9293498,-0.3183858
0.1872069,0.929273,-0.3176206
0.1874515,0.9292073,-0.3191769
0.1855625,0.9301878,-0.3200346
0.1842943,0.9309255,-0.3193245
0.1859701,0.9315556,-0.3214966
0.1885228,0.9317352,-0.3227307
0.1902126,0.9298849,-0.322996
0.1893788,0.9267766,-0.3256338
0.1874659,0.9257497,-0.328831
0.1862317,0.9279501,-0.32825
0.1862739,0.9299914,-0.3261751
0.1879699,0.9303416,-0.3280452
0.1894066,0.928152,-0.3286173
0.1891314,0.9251553,-0.3282617
0.1886379,0.9262515,-0.3312694
0.1897783,0.9271379,-0.3304869
0.1899942,0.9257829,-0.3261804
0.1889358,0.9265466,-0.3245968
0.1887173,0.9266067,-0.3264876
0.1867611,0.9260324,-0.3288585
0.1842102,0.9266669,-0.3274317
0.1832947,0.9262968,-0.3253887
0.1837305,0.9264835,-0.325902
0.1854076,0.9274589,-0.3290655
0.1854067,0.9278801,-0.333202
0.1869921,0.9281573,-0.3306325
0.1909331,0.9284668,-0.325975
0.1896458,0.9291063,-0.3258169
0.1870082,0.9276352,-0.3221604
0.187585,0.9254321,-0.3201851
0.1875079,0.9267727,-0.3270451
0.1874341,0.9286189,-0.331882
0.1877956,0.928938,-0.3311268
0.1882607,0.9274016,-0.3302381
0.189261,0.9237156,-0.3302392
0.1889631,0.9228692,-0.3295725
0.1888225,0.924245,-0.3297468
0.1899662,0.9245819,-0.3318957
0.1896123,0.9260638,-0.3332564
0.1858607,0.9269303,-0.3343041
0.1827431,0.9261526,-0.3340698
0.1873023,0.9261785,-0.3328778
0.1927429,0.9254512,-0.328623
0.1893119,0.9238995,-0.3217718
0.1846265,0.9243501,-0.3292799
0.1830667,0.9268105,-0.3420889
0.1827929,0.9295236,-0.341546
0.1858288,0.9307982,-0.3396418
0.1869575,0.9290493,-0.338403
0.1863041,0.9267616,-0.3338697
0.1868804,0.9277378,-0.3297047
0.1840073,0.9285482,-0.3270425
0.1825508,0.9281442,-0.325728
0.1848112,0.9295953,-0.3226731
0.1860411,0.9291133,-0.3248581
0.187308,0.9273542,-0.3283594
0.1877272,0.9289232,-0.3250621
0.1872799,0.9310858,-0.3245372
0.1864357,0.930742,-0.3239131
0.1848623,0.9280588,-0.3234911
0.1844857,0.9263229,-0.3262769
0.1845249,0.926174,-0.3246838
0.1839585,0.9247761,-0.3249264
0.1831838,0.9222702,-0.3274896
0.1840356,0.9200412,-0.3277416
0.1851965,0.9216084,-0.330753
0.1836739,0.9242165,-0.3399307
0.1828779,0.9233804,-0.348295
0.1834946,0.923952,-0.335733
0.1833485,0.9256418,-0.3188975
0.183299,0.9265732,-0.3265259
0.1827908,0.926918,-0.3295421
0.1806841,0.9258296,-0.3203052
0.1794057,0.926887,-0.3225569
0.1841787,0.9284722,-0.3237699
0.1898201,0.9292232,-0.3253932
0.1874153,0.9303126,-0.3300621
0.1841963,0.9312968,-0.3200228
0.1844344,0.934216,-0.3119722
0.1834582,0.9327931,-0.3184837
0.1838753,0.9259086,-0.3235608
0.183846,0.9227673,-0.3234704
0.1829549,0.9246805,-0.3252871
0.186522,0.9278424,-0.3285545
0.1884768,0.9265444,-0.3277672
0.1872216,0.9256062,-0.327395
0.1878606,0.9292639,-0.3283251
0.1892615,0.9293218,-0.3269279
0.1908789,0.9286485,-0.3257144
0.1896183,0.9277627,-0.3218275
0.1852468,0.9249318,-0.3196673
0.1827633,0.9248523,-0.3222449
0.1844595,0.9233472,-0.3225561
0.187552,0.9232996,-0.3219261
0.1862646,0.9262265,-0.3216508
0.1861244,0.9264589,-0.3228897
0.1881723,0.9266155,-0.3270145
0.1844855,0.9259188,-0.3297251
0.1823314,0.9244127,-0.3299476
0.1847163,0.9243463,-0.3314219
0.18598,0.9275008,-0.3345696
0.1860651,0.9316061,-0.3345959
0.1841709,0.9265028,-0.3344737
0.1832914,0.9208679,-0.3372206
0.1863181,0.924471,-0.3377651
0.190309,0.9264162,-0.3369581
0.1907634,0.9268496,-0.3348795
0.1877307,0.928386,-0.3319391
0.1861592,0.9253999,-0.3313095
0.1858682,0.9222954,-0.3290655
0.1858859,0.922012,-0.3256335
0.1858605,0.9218795,-0.3258318
0.1855796,0.9215859,-0.3315641
0.1861068,0.9211981,-0.3399768
0.1834321,0.9241474,-0.3418437
0.1803084,0.9279468,-0.3394321
0.1814546,0.9265101,-0.3407167
0.1839476,0.9255651,-0.3423671
0.1867661,0.9268438,-0.3435887
0.1849078,0.9251889,-0.3446061
0.180501,0.9235812,-0.3424654
0.1810176,0.9241215,-0.3402786
0.1798903,0.9261587,-0.3407719
0.1781039,0.9281972,-0.3421958
0.1799515,0.9254036,-0.341668
0.180012,0.9220603,-0.3395715
0.1808629,0.9232146,-0.3364499
0.1828844,0.9215722,-0.3316716
0.1833302,0.9178076,-0.3313243
0.1837884,0.9184793,-0.3345786
0.1830247,0.9185496,-0.3349557
0.1825093,0.9176684,-0.3351514
0.1801733,0.9203984,-0.3364431
0.1762532,0.9223933,-0.337916
0.1779286,0.9223035,-0.3386991
0.1808185,0.921946,-0.340587
0.1822038,0.9202572,-0.3453369
0.1838975,0.9190089,-0.3453232
0.1815779,0.9201642,-0.3432687
0.1794469,0.9241665,-0.3450789
0.1808781,0.9277303,-0.3445026
0.1807622,0.9272658,-0.344134
0.1802266,0.9282555,-0.3458878
0.1807659,0.9308945,-0.3452313
0.1805182,0.9265397,-0.3427603
0.1799409,0.9212351,-0.3381669
0.177986,0.9238718,-0.33616
0.1758502,0.9256118,-0.3370287
0.1778739,0.9242394,-0.3322261
0.1807229,0.9252882,-0.3278743
0.1808093,0.9241823,-0.3327923
0.1819924,0.9230411,-0.3393934
0.1825166,0.9251207,-0.3425048
0.1802223,0.9260457,-0.3487358
0.1794927,0.9266661,-0.3531338
0.1793324,0.9261542,-0.3456874
0.1796541,0.9240712,-0.3372
0.1812731,0.9225043,-0.335345
0.1799504,0.9215836,-0.3359008
0.1775143,0.9226525,-0.3382352
0.1760216,0.9233177,-0.3379431
0.1757688,0.9238238,-0.336507
0.1776085,0.9258641,-0.3373187
0.1789026,0.9265853,-0.3372169
0.1810125,0.9266123,-0.3400445
0.1816241,0.9258941,-0.3431982
0.1800374,0.9244383,-0.3413935
0.1806634,0.9234139,-0.3411788
0.1781683,0.9231026,-0.34028
0.1763633,0.9241026,-0.3315405
0.1791953,0.9235672,-0.3244415
0.1798654,0.923237,-0.3307698
0.1833358,0.9241158,-0.3384381
0.1862882,0.9234488,-0.334531
0.1829714,0.924536,-0.3339131
0.1814462,0.9258731,-0.3378415
0.1794062,0.9265288,-0.333655
0.1765927,0.9280673,-0.3321906
0.178168,0.9261751,-0.3342552
0.1800187,0.924188,-0.3336809
0.1807496,0.9259805,-0.3379808
0.1810096,0.927014,-0.341779
0.181163,0.9260294,-0.3406312
0.1820977,0.9251338,-0.3405622
0.1812871,0.9241097,-0.3415749
0.1799089,0.9230715,-0.3394386
0.1809914,0.9236883,-0.3365179
0.1826206,0.9242331,-0.3402158
0.1835627,0.9250615,-0.343285
0.1829905,0.9271406,-0.3411439
0.1792046,0.9265951,-0.3418417
0.1758356,0.9263599,-0.3437937
0.1759491,0.9294798,-0.3447617
0.1769524,0.9311113,-0.3447504
0.1776458,0.9294635,-0.3439977
0.1799384,0.9263649,-0.3436098
0.1835849,0.9237269,-0.338591
0.1852729,0.9214462,-0.3315867
0.1844376,0.9202763,-0.3319567
0.1818199,0.9218802,-0.3391682
0.1792393,0.9225561,-0.344498
0.1793158,0.9211209,-0.3435906
0.1799631,0.9205482,-0.3411053
0.1802126,0.9208003,-0.3380288
0.1782809,0.9211687,-0.3351186
0.1752082,0.922357,-0.3430937
0.1774056,0.9260181,-0.3555639
0.1800546,0.9282166,-0.3542426
0.1806335,0.9234037,-0.3508714
0.1826814,0.9182606,-0.3529957
0.1821597,0.9186347,-0.347409
0.1808181,0.9197105,-0.3425135
0.1797171,0.921442,-0.3418082
0.1771932,0.9233708,-0.3399802
0.1791015,0.920916,-0.3435455
0.1819657,0.9199959,-0.3462866
0.179915,0.9216389,-0.348423
0.1786539,0.9204219,-0.3531069
0.1796195,0.9207658,-0.3516201
0.1805558,0.9212491,-0.3504626
0.1811613,0.9208514,-0.3520854
0.1801903,0.92407,-0.3511677
0.1803825,0.92661,-0.3502184
0.1810558,0.9268084,-0.346216
0.1799236,0.925852,-0.3414672
0.1796352,0.9243594,-0.3433532
0.178363,0.9235055,-0.3461428
0.1775602,0.9227106,-0.3448352
0.1781113,0.9221042,-0.34562
0.1758759,0.9196047,-0.3466057
0.1759516,0.9201112,-0.3441309
0.1781008,0.925545,-0.3443574
0.1770847,0.9272398,-0.3447472
0.1751536,0.9264262,-0.343983
0.1738076,0.9254304,-0.3448936
0.1775092,0.9224058,-0.3447376
0.1827828,0.9183159,-0.3470662
0.1806636,0.9170395,-0.3499136
0.1788228,0.9209973,-0.3492506
0.1788771,0.9233027,-0.3490661
0.1754848,0.9236491,-0.3486427
0.1765959,0.9243547,-0.347599
0.1792719,0.9238732,-0.3452517
0.1771223,0.9255104,-0.3426445
0.1775735,0.9248255,-0.3461363
0.1784075,0.9215658,-0.3505911
0.1771805,0.920651,-0.3473811
0.1782488,0.9204491,-0.341317
0.1789082,0.9216523,-0.3386079
0.1803967,0.9204472,-0.3414708
0.1830683,0.9194742,-0.3466182
0.183176,0.9234902,-0.3453158
0.181365,0.9247067,-0.3455043
0.1780512,0.9245994,-0.3504548
0.1767753,0.9251199,-0.3466035
0.1775295,0.922001,-0.3433406
0.1774691,0.9198932,-0.3460274
0.1806631,0.9212066,-0.3438683
0.1839902,0.9226048,-0.339814
0.1823782,0.9225056,-0.3372541
0.1804198,0.9222623,-0.342997
0.1804092,0.923698,-0.3525001
0.180628,0.9242832,-0.3493897
0.1807415,0.9229537,-0.3435708
0.181417,0.9226602,-0.3446622
0.1815286,0.922534,-0.3451288
0.1784644,0.9226103,-0.3440829
0.1750976,0.9244162,-0.3456183
0.1762363,0.9246523,-0.3480279
0.1781589,0.9245382,-0.3470135
0.1777056,0.9247226,-0.3452377
0.1787049,0.9229311,-0.3446678
0.1796768,0.9236499,-0.3443824
0.1790955,0.925086,-0.3444959
0.1801131,0.9245352,-0.3442793
0.1808926,0.9244765,-0.3446248
0.1801736,0.9232054,-0.3445837
0.1785371,0.9236693,-0.345176
0.1763142,0.9265196,-0.3467525
0.1760013,0.9291623,-0.3476339
0.1771445,0.9311736,-0.3497878
0.1790798,0.9277835,-0.349767
0.181273,0.9233949,-0.3471353
0.1809361,0.9224149,-0.345077
0.179956,0.9206296,-0.3415497
0.1802511,0.9220298,-0.3387825
0.1780678,0.9251254,-0.3394823
0.1752065,0.924345,-0.3474244
0.1765068,0.9242021,-0.3564143
0.1778863,0.9230042,-0.3475184
0.1775536,0.9195494,-0.336147
0.1780279,0.9208788,-0.34445
0.1775384,0.9235662,-0.3536582
0.1767321,0.9234645,-0.3568928
0.1763608,0.9230378,-0.3535141
0.1760882,0.9190833,-0.3338095
0.1766583,0.9150148,-0.3234169
0.1763565,0.9169171,-0.3326636
0.1762052,0.9191948,-0.3374791
0.176644,0.9198573,-0.3360646
0.1765646,0.9218233,-0.342012
0.1782099,0.9243842,-0.3534939
0.1798114,0.925194,-0.3527451
0.1786831,0.9217325,-0.3471356
0.1762131,0.9169897,-0.3495851
0.1744992,0.9162117,-0.3480802
0.1756305,0.9186583,-0.347257
0.1771433,0.9201911,-0.3479703
0.1762843,0.9194268,-0.3460557
0.1760693,0.9192795,-0.3482397
0.1767397,0.9206223,-0.3485479
0.1762458,0.9212337,-0.3509919
0.1768332,0.9216945,-0.3538696
0.1792822,0.9224789,-0.3485545
0.1811807,0.9223074,-0.3461427
0.1809554,0.9217054,-0.348157
0.1798042,0.920511,-0.3492604
0.1789436,0.9190975,-0.3486304
0.1746932,0.9200676,-0.3487805
0.1704947,0.9215594,-0.3529663
0.1730975,0.920916,-0.3558575
0.1753251,0.9214069,-0.3559505
0.1759862,0.9230386,-0.354362
0.1804014,0.9225141,-0.3528946
0.1817477,0.9214677,-0.3507293
0.1798009,0.9217247,-0.3454539
0.1806262,0.9237217,-0.3445052
0.1808942,0.9244916,-0.3447366
0.1798087,0.9217538,-0.3412409
0.1788026,0.9211605,-0.3422303
0.1763586,0.922568,-0.3475374
0.1757262,0.9245408,-0.3510648
0.1772627,0.9268808,-0.3488276
0.178044,0.922035,-0.345535
0.1791859,0.9176915,-0.3477389
0.1778726,0.9224775,-0.3487626
0.1757395,0.924907,-0.3480453
0.179145,0.9221879,-0.3490149
0.1819235,0.9207065,-0.3471853
0.1799523,0.9211901,-0.3452458
0.1784019,0.9230081,-0.3469537
0.1779746,0.9254752,-0.3523677
0.1792102,0.9258721,-0.3583311
0.1814358,0.9236568,-0.3543542
0.1803682,0.9218437,-0.3418347
0.1779792,0.9182452,-0.3357431
0.176789,0.9164616,-0.3439256
0.1763832,0.9201358,-0.3528251
0.1791232,0.9190918,-0.3478301
0.1811812,0.9150308,-0.3438739
0.1772509,0.9145137,-0.3460584
0.1717682,0.9192727,-0.3470285
0.2355815,0.9103558,-0.3458202
0.2372708,0.9127913,-0.3453743
0.2366296,0.9123751,-0.3503968
0.2369982,0.910895,-0.3491767
0.2364441,0.908434,-0.3473499
0.2326005,0.9057388,-0.3517273
0.2347329,0.9069928,-0.3515251
0.2394122,0.9071341,-0.3511587
0.2420286,0.9042703,-0.3518213
0.2444151,0.902068,-0.3508318
0.2440558,0.9010438,-0.3514797
0.2432966,0.9033488,-0.349461
0.240198,0.9060266,-0.3471514
0.2383587,0.9050968,-0.3452398
0.2438444,0.9020182,-0.3426673
0.2473451,0.8970841,-0.3462568
0.2456469,0.8950946,-0.35133
0.2437036,0.8996297,-0.3533074
0.2443973,0.9033352,-0.3569101
0.2457719,0.90327,-0.358429
0.244928,0.9049486,-0.3557995
0.2449133,0.9060649,-0.3550092
0.2442212,0.9024515,-0.3516717
0.2420377,0.9010335,-0.3482553
0.2407381,0.9051797,-0.3584529
0.2404254,0.9076987,-0.3675492
0.2412505,0.9041398,-0.3610332
0.2402816,0.8993991,-0.3564305
0.2399966,0.8995708,-0.3597272
0.2426417,0.9005512,-0.3595412
0.243076,0.8996228,-0.3570034
0.2412759,0.8999536,-0.3567636
0.2398523,0.8997266,-0.3558578
0.2408762,0.9008018,-0.3587851
0.2421801,0.9039074,-0.3675945
0.2396322,0.9040325,-0.3713224
0.2380773,0.9037552,-0.3692111
0.2391145,0.9040842,-0.3675317
0.2389756,0.9013648,-0.3663468
0.2384213,0.8989935,-0.365554
0.2371386,0.8999541,-0.3683491
0.2361082,0.9004652,-0.3719037
0.2385835,0.8994866,-0.367229
0.2414686,0.8989634,-0.3623799
0.2395663,0.8976165,-0.3657673
0.2350533,0.8966345,-0.3694998
0.2326976,0.8974452,-0.3706899
0.2336479,0.8973273,-0.366864
0.2349783,0.8969926,-0.3625965
0.2311845,0.8974057,-0.3682525
0.2273742,0.897695,-0.3735193
0.2298046,0.9002108,-0.3715156
0.2315133,0.9040965,-0.3727289
0.232381,0.9049376,-0.3757751
0.2352011,0.903626,-0.3748245
0.2364641,0.9033506,-0.3742598
0.2364938,0.9033242,-0.3718268
0.2357662,0.9021575,-0.3650003
0.2363836,0.9002985,-0.3616624
0.2383123,0.8993148,-0.3634567
0.2391782,0.9003875,-0.365802
0.2400201,0.9011727,-0.3669305
0.2393415,0.9012295,-0.3672807
0.2386211,0.9015889,-0.3686864
0.2381038,0.900302,-0.3719579
0.2342822,0.8995913,-0.3753906
0.2311059,0.9002365,-0.3755951
0.2331149,0.8998812,-0.3713992
0.2362258,0.9000378,-0.3662915
0.2346444,0.9000476,-0.3672445
0.2338453,0.9002292,-0.3707069
0.2356787,0.9019528,-0.3688291
0.2342773,0.9031828,-0.3691677
0.2347092,0.9023388,-0.370375
0.2362139,0.8988254,-0.3684465
0.2355632,0.8962245,-0.3689114
0.2357137,0.8970121,-0.3638528
0.234406,0.8977186,-0.3570528
0.2356667,0.8970529,-0.3584663
0.2388599,0.8979155,-0.3627256
0.2389416,0.902354,-0.3695223
0.238961,0.9071524,-0.3737344
0.237814,0.9068836,-0.3694069
0.2371083,0.9008139,-0.3637319
0.2375795,0.8961061,-0.3620662
0.2360592,0.8984604,-0.3635985
0.2336466,0.9034915,-0.3689546
0.2299786,0.9068537,-0.3728539
0.2285893,0.9076055,-0.3666316
0.2313302,0.9057773,-0.3596426
0.2342579,0.9023702,-0.355973
0.2372616,0.8986805,-0.3523385
0.2398369,0.8984329,-0.3558267
0.2402877,0.8993857,-0.3584545
0.2396867,0.898242,-0.3576001
0.2392971,0.8994345,-0.3583222
0.2357509,0.900773,-0.355754
0.2287499,0.8997662,-0.3546186
0.2255926,0.9016288,-0.3526308
0.229949,0.9054654,-0.3504995
0.2368957,0.9076534,-0.3556633
0.2377756,0.9063381,-0.35875
0.2354926,0.9033834,-0.3585404
0.2347608,0.9025711,-0.3581504
0.2324011,0.8992484,-0.3572672
0.2334409,0.8955767,-0.3597497
0.2356543,0.8973688,-0.3594005
0.2343843,0.8985294,-0.356792
0.2348139,0.9004044,-0.3600969
0.234736,0.9049959,-0.3651729
0.2352901,0.9043933,-0.367209
0.2382292,0.9005789,-0.3605073
0.2394062,0.8998935,-0.3505229
0.2380198,0.9016735,-0.3563361
0.2355238,0.9033249,-0.3639679
0.2352451,0.901958,-0.3596917
0.2352007,0.899784,-0.3610559
0.2374119,0.9010739,-0.3609812
0.2430548,0.9027156,-0.3534318
0.2432645,0.902897,-0.3508599
0.2400292,0.9025787,-0.3528884
0.2381474,0.9007409,-0.3594451
0.2384837,0.8995718,-0.3633177
0.23969,0.8998813,-0.3665304
0.2380395,0.9001773,-0.373501
0.2370497,0.9005752,-0.3702808
0.2360137,0.9024649,-0.3647664
0.2353598,0.9051903,-0.3638719
0.2365332,0.9042608,-0.3626485
0.2340509,0.9025137,-0.3649353
0.2326912,0.90305,-0.3664991
0.2345678,0.9025792,-0.3673801
0.2349076,0.9029121,-0.3692083
0.2350367,0.9041057,-0.3761236
0.2354038,0.9048479,-0.3843323
0.2366049,0.9047056,-0.3760061
0.2372907,0.9010928,-0.3684722
0.2369151,0.8993717,-0.370569
0.2361691,0.9029095,-0.3660623
0.2341015,0.9047283,-0.3662971
0.2352944,0.9013418,-0.3695104
0.2371546,0.897753,-0.3682876
0.235637,0.8989334,-0.3682218
0.2360325,0.9018227,-0.3669361
0.2364655,0.9028405,-0.3677991
0.2361038,0.9007138,-0.3679402
0.2381165,0.8953757,-0.37453
0.2393982,0.8932263,-0.3851926
0.2390011,0.8947525,-0.3794709
0.2384539,0.8949847,-0.3745109
0.2375233,0.8962061,-0.3733675
0.234529,0.8987196,-0.3683157
0.2312807,0.8991326,-0.3708682
0.2320632,0.8977402,-0.3679693
0.2343379,0.8958936,-0.3630929
0.2358737,0.8946047,-0.3668298
0.2365002,0.8977894,-0.3672397
0.2349718,0.9034327,-0.3656097
0.2345073,0.9028062,-0.3640302
0.2357977,0.9010712,-0.3645196
0.2363421,0.9034897,-0.3692352
0.235858,0.9028598,-0.3701281
0.2341298,0.9012888,-0.3684878
0.2326858,0.9015728,-0.3701166
0.2321326,0.9011271,-0.3716831
0.2312046,0.9013277,-0.3720332
0.2308303,0.9005908,-0.3727245
0.232005,0.8995054,-0.3709697
0.2342515,0.9001064,-0.3695698
0.2366481,0.9002785,-0.3678348
0.2368841,0.9005917,-0.3646505
0.2353665,0.9008375,-0.3694609
0.2361492,0.8994607,-0.3746014
0.2366507,0.8978911,-0.3719313
0.2358356,0.8969957,-0.3714746
0.2382151,0.8974794,-0.3721787
0.2395589,0.9001631,-0.3684932
0.2383165,0.9018561,-0.3660512
0.2371599,0.8995403,-0.3704771
0.2354824,0.8969386,-0.3758021
0.2358017,0.8976797,-0.3759907
0.2356467,0.8986988,-0.3771451
0.2340974,0.8986705,-0.3791402
0.2345837,0.9001889,-0.3738287
0.2335276,0.9005102,-0.3660811
0.2301647,0.8984641,-0.3651557
0.2290417,0.8986447,-0.3672572
0.2326426,0.8997258,-0.3698804
0.236292,0.9000085,-0.3735508
0.2346406,0.9003267,-0.373989
0.2331844,0.8997109,-0.3752968
0.2345802,0.9000158,-0.377048
0.2347965,0.9002418,-0.3738361
0.2347277,0.8996699,-0.3714155
0.2344558,0.9002355,-0.3709104
0.233111,0.900315,-0.3713994
0.2333394,0.9016455,-0.3736934
0.2350252,0.903557,-0.3753998
0.2354255,0.9024226,-0.3757016
0.2351654,0.9003243,-0.3744781
0.2361837,0.897899,-0.3752023
0.2356915,0.8962395,-0.373521
0.2338581,0.8966402,-0.3681688
0.2348682,0.8963826,-0.3693882
0.2349294,0.8956535,-0.3720775
0.2331226,0.8962907,-0.3721488
0.2325308,0.8983972,-0.3721486
0.2314934,0.9003054,-0.3691452
0.2320398,0.9000403,-0.3680164
0.2334287,0.8997797,-0.3715523
0.2342546,0.9002748,-0.3740611
0.2362168,0.9001791,-0.3695765
0.2363153,0.9017795,-0.3642088
0.2358981,0.9034925,-0.3668406
0.2363147,0.9025861,-0.3682784
0.2359349,0.9016351,-0.3682619
0.2362121,0.9012864,-0.3721229
0.2357642,0.9010883,-0.3707772
0.234212,0.900643,-0.3670423
0.232952,0.8996648,-0.366632
0.2333283,0.8998728,-0.3655039
0.2356141,0.9002622,-0.3633523
0.2366419,0.8998512,-0.3602225
0.2370514,0.8999818,-0.3605568
0.2375252,0.8995764,-0.3648741
0.2366166,0.8972152,-0.367452
0.2358294,0.8954085,-0.3704158
0.2352459,0.8975133,-0.3704484
0.2327826,0.9006022,-0.3677159
0.2295743,0.8997073,-0.3654794
0.2310503,0.8968625,-0.358534
0.2345474,0.8955191,-0.3579043
0.2348992,0.8966895,-0.3633106
0.2364281,0.8999459,-0.3625018
0.236801,0.9014668,-0.3658612
0.2352312,0.9015293,-0.3699131
0.2365622,0.9023248,-0.372502
0.2360555,0.9017569,-0.3794895
0.2345497,0.9003729,-0.3744863
0.234087,0.8993988,-0.366925
0.2326361,0.8992175,-0.370931
0.2336231,0.8996112,-0.369747
0.234926,0.8998162,-0.3663527
0.2363025,0.9002382,-0.3680857
0.2390404,0.8987842,-0.3682616
0.2400803,0.897196,-0.3699115
0.2413328,0.8972856,-0.3710893
0.2389116,0.8969686,-0.3679184
0.2341112,0.8974157,-0.3663459
0.2356573,0.8972661,-0.3691224
0.2354334,0.897137,-0.3718202
0.2318247,0.8986265,-0.3691682
0.233596,0.8999002,-0.3678975
0.234942,0.9022055,-0.3748381
0.2342443,0.903014,-0.3798959
0.2351905,0.9006712,-0.3778486
0.2345917,0.8981677,-0.3753273
0.2344876,0.8963367,-0.3728774
0.2351244,0.8958356,-0.3661979
0.2342139,0.896653,-0.3625731
0.2339404,0.8985782,-0.3703415
0.2333554,0.8989214,-0.3782587
0.2338709,0.8972981,-0.3776672
0.2352737,0.8971456,-0.372988
0.2336891,0.8973284,-0.3689218
0.2326315,0.8986614,-0.368823
0.2326727,0.9022506,-0.3684257
0.2316472,0.9061367,-0.3679074
0.2319783,0.907008,-0.372129
0.2330743,0.9009699,-0.3748017
0.2334883,0.8948062,-0.3735792
0.2332428,0.8953448,-0.3728761
0.2319519,0.8974346,-0.3723832
0.2299335,0.8973377,-0.3718058
0.2290876,0.8972249,-0.3722969
0.2317717,0.8984557,-0.3728554
0.23487,0.9005903,-0.3742174
0.235189,0.9048032,-0.3787004
0.2356817,0.9076357,-0.3814194
0.2350126,0.9034538,-0.3788836
0.2323024,0.8984416,-0.3764277
0.233616,0.8990127,-0.3759406
0.2368375,0.900061,-0.3742937
0.2376691,0.8995898,-0.3708192
0.237962,0.9000024,-0.3689066
0.2369986,0.8982593,-0.3709654
0.2364394,0.896281,-0.3760884
0.2358035,0.8978179,-0.380178
0.2328489,0.8991878,-0.3794703
0.2316932,0.9002608,-0.3775098
0.2325834,0.9008043,-0.3741595
0.2338039,0.9012314,-0.3693199
0.2339965,0.9035753,-0.3715097
0.234643,0.9025703,-0.3762061
0.2380177,0.8993587,-0.3749926
0.2377941,0.8983226,-0.3736955
0.2359142,0.8978332,-0.3739626
0.2363647,0.8972161,-0.3718227
0.2350717,0.8956797,-0.3699763
0.2326703,0.8972024,-0.3699219
0.2296302,0.9008977,-0.3668001
0.2299403,0.9000545,-0.3627383
0.232834,0.8995474,-0.3663932
0.2324833,0.9004973,-0.3724721
0.2335401,0.8996676,-0.3730617
0.2338918,0.9006222,-0.3733709
0.2325446,0.9028093,-0.3737228
0.23385,0.9038469,-0.3711611
0.2336487,0.8999078,-0.3640787
0.2347744,0.8936547,-0.3571046
0.2367893,0.8958316,-0.3638407
0.23415,0.9007828,-0.3705641
0.2325154,0.9015849,-0.3658711
0.2334348,0.9041821,-0.3671428
0.2339193,0.9064011,-0.3692689
0.234796,0.904321,-0.3696293
0.2356879,0.9015153,-0.3749894
0.2348722,0.9001056,-0.3739733
0.2341954,0.9002924,-0.3723576
0.2364295,0.9026796,-0.373726
0.2382585,0.9045991,-0.371409
0.2387178,0.9015105,-0.3717707
0.2374302,0.8971243,-0.3710009
0.2340976,0.8957544,-0.3674207
0.2342377,0.8948463,-0.3651168
0.2342311,0.89751,-0.3618446
0.2316734,0.9026939,-0.363932
0.2318093,0.9019071,-0.3698818
0.2322475,0.900168,-0.3708694
0.2329082,0.9013662,-0.3707283
0.2348153,0.9000105,-0.3715104
0.2361952,0.8986739,-0.3724732
0.2381918,0.8979404,-0.3751765
0.23922,0.8970037,-0.3745343
0.2379055,0.8978203,-0.3688891
0.2360748,0.8969257,-0.3638522
0.2352869,0.8969024,-0.361744
0.2336642,0.8971949,-0.3604895
0.2310085,0.8930527,-0.3570582
0.2319914,0.8911204,-0.3561857
0.2344299,0.8938198,-0.3635477
0.2346573,0.8981667,-0.3707978
0.2340462,0.9006204,-0.3689346
0.2329088,0.8997537,-0.366082
0.2331395,0.8997447,-0.3696022
0.2336028,0.8982785,-0.3720507
0.2321196,0.8967881,-0.3762838
0.2320629,0.8991377,-0.3805359
0.2339995,0.900309,-0.3709912
0.2359208,0.8983482,-0.3620761
0.2356175,0.8969766,-0.364234
0.2328054,0.9007753,-0.3669334
0.2315405,0.9042754,-0.3693927
0.2317918,0.901725,-0.3708902
0.2320278,0.9005494,-0.3726432
0.2324916,0.9014342,-0.3732358
0.2332627,0.8996498,-0.3694276
0.234878,0.8978567,-0.3673955
0.2348055,0.8985261,-0.367857
0.2342438,0.8995925,-0.3695191
0.23443,0.9002398,-0.3707349
0.2338164,0.8997115,-0.3706913
0.2358147,0.8948569,-0.3712553
0.2369538,0.8929331,-0.3698062
0.2355109,0.8977178,-0.3672203
0.2363033,0.8996223,-0.3645464
0.235701,0.8999661,-0.3643853
0.2326146,0.9002811,-0.3678714
0.2287368,0.89757,-0.3719477
0.2269732,0.896705,-0.3783889
0.2311858,0.8965696,-0.3787659
0.2351023,0.8963479,-0.3747532
0.2359123,0.897645,-0.3771939
0.2363557,0.8979732,-0.3751232
0.236031,0.9006068,-0.3709626
0.2360789,0.9036819,-0.3711884
0.2361853,0.900942,-0.3697529
0.2362106,0.8963857,-0.3704637
0.2368944,0.8946723,-0.3689352
0.2366521,0.8952984,-0.3655777
0.2348954,0.8975056,-0.3647325
0.2334281,0.8985597,-0.36355
0.2341233,0.8981922,-0.3687557
0.2352606,0.9007058,-0.3734882
0.2356274,0.90178,-0.3742401
0.2355616,0.9006504,-0.3794923
0.2326852,0.9029996,-0.3817294
0.2298241,0.9023322,-0.3794908
0.2328695,0.898677,-0.3762285
0.2365907,0.8967595,-0.3728276
0.2354609,0.8963131,-0.3703891
0.2356267,0.8981892,-0.3656799
0.237184,0.8970575,-0.3653475
0.2364712,0.8965727,-0.3687459
0.2376973,0.8981821,-0.3665411
0.2379185,0.8968687,-0.3666711
0.2358526,0.8991591,-0.3730407
0.2360783,0.9009346,-0.3757862
0.2348116,0.8995454,-0.3717144
0.23248,0.9002011,-0.3649323
0.2318332,0.8998854,-0.3619671
0.2324751,0.9000243,-0.3631061
0.2339196,0.9001193,-0.3629722
0.2323651,0.8997425,-0.3629432
0.2312486,0.9003094,-0.3622442
0.2325505,0.8997606,-0.3614812
0.2330524,0.9000767,-0.3639919
0.2353433,0.9001061,-0.3651054
0.2369181,0.899767,-0.3667854
0.2357478,0.9002592,-0.3678836
0.2350723,0.8999926,-0.3654837
0.2344166,0.901481,-0.3675103
0.2336996,0.9044248,-0.3699201
0.2335654,0.9055968,-0.3703382
0.2351408,0.9022787,-0.3696069
0.2375524,0.8979015,-0.363948
0.2370292,0.8985257,-0.3627094
0.2354829,0.8993636,-0.3638028
0.2360867,0.8995541,-0.3624199
0.2364415,0.9008674,-0.3662322
0.2358338,0.8996113,-0.3679245
0.2367118,0.9002417,-0.3602783
0.2389123,0.9033256,-0.3507086
0.2407245,0.9040803,-0.3508237
0.2398558,0.9028761,-0.3595495
0.237946,0.9004293,-0.3643604
0.238318,0.9010638,-0.3647093
0.2352284,0.9026796,-0.3629565
0.2289966,0.9024244,-0.3606186
0.2291433,0.9047075,-0.3586326
0.2341604,0.9034944,-0.3562378
0.2374185,0.8996955,-0.3569179
0.2365168,0.9007832,-0.3566141
0.2351621,0.9036139,-0.3592142
0.2366325,0.9074979,-0.366687
0.2355409,0.9079517,-0.3663946
0.232001,0.9057898,-0.3655104
0.2307042,0.9073007,-0.3663633
0.2334598,0.9060503,-0.3574004
0.2379363,0.9038026,-0.3478264
0.2364476,0.9047476,-0.3484754
0.2352977,0.9058884,-0.3557712
0.2398913,0.9084903,-0.3603188
0.2411803,0.9078667,-0.3591905
0.2419166,0.9011329,-0.3609998
0.2435758,0.892411,-0.3648103
0.2416891,0.8880782,-0.3608275
0.239553,0.8932784,-0.3566968
0.2382719,0.9000335,-0.3631565
0.2381254,0.9061413,-0.3715957
0.2357501,0.9153578,-0.3774674
0.2318003,0.919378,-0.3812825
0.2338476,0.9171528,-0.378864
0.2377692,0.9099008,-0.3748061
0.239356,0.8928275,-0.3636783
0.238713,0.8808143,-0.3479336
0.2347249,0.8920752,-0.3496237
0.2330602,0.90622,-0.3525561
0.2375252,0.9029473,-0.3452929
0.2446538,0.9001973,-0.3476383
0.2506458,0.8932121,-0.343308
0.2574977,0.8735905,-0.3316403
0.2654553,0.8687008,-0.3319299
0.2667266,0.8718453,-0.3281849
0.2634171,0.8791258,-0.3313319
0.2588409,0.905537,-0.3506774
0.2465642,0.919178,-0.358598
0.2372629,0.9142755,-0.3557045
0.2408097,0.9152521,-0.3535772
0.2419238,0.9176802,-0.3529702
0.2379192,0.9256873,-0.3495582
0.2369925,0.9355745,-0.343322
0.233369,0.9328556,-0.3458199
0.2332174,0.9295637,-0.349256
0.2433599,0.931445,-0.3515261
0.2515446,0.9271196,-0.3530635
0.2555629,0.922654,-0.3320082
0.2578097,0.9257024,-0.309016
0.2573379,0.9244914,-0.3142472
0.2589343,0.9184652,-0.3123645
0.2621793,0.9145799,-0.2930611
0.2644553,0.911369,-0.2969014
0.2659506,0.9084664,-0.3062494
0.2716315,0.904209,-0.3000931
0.2811405,0.9054647,-0.3030368
0.2835308,0.9090789,-0.2998164
0.280236,0.9037026,-0.2849875
0.2781262,0.8960115,-0.2708521
0.2783862,0.8935638,-0.2480947
0.2843922,0.9155538,-0.2401192
0.2968051,0.9426678,-0.249403
0.3040392,0.9219612,-0.2515872
0.2929658,0.8948422,-0.2496338
0.2747119,0.898624,-0.2472086
0.2637686,0.8903348,-0.2478284
0.2623833,0.8786575,-0.2494389
0.2759826,0.8811866,-0.2546676
0.2922812,0.8826271,-0.266736
0.2932982,0.8964659,-0.2762417
0.2868367,0.9176162,-0.2843625
0.285049,0.9230324,-0.2915796
0.2872889,0.912305,-0.3011517
0.2879113,0.8927353,-0.3078965
0.2852643,0.8756556,-0.3090133
0.2800879,0.8742351,-0.3265235
0.2743904,0.8928504,-0.3510915
0.2760544,0.9158393,-0.3609933
0.2877534,0.927696,-0.3694513
0.300079,0.9191309,-0.3842985
0.3023804,0.8968638,-0.382753
0.2977656,0.8861269,-0.3680076
0.2971032,0.876866,-0.3690156
0.2951592,0.8708453,-0.3678445
0.2895927,0.8827206,-0.3578815
0.2921472,0.8869103,-0.3527374
0.2979082,0.8839033,-0.3468717
0.3015569,0.8819213,-0.3583368
0.3072073,0.8791757,-0.3696291
0.3082029,0.8831654,-0.362681
0.3027709,0.8891183,-0.3681898
0.297363,0.8958187,-0.3785553
0.2985857,0.8880785,-0.3831075
0.3054743,0.8708611,-0.3840889
0.3075722,0.8693132,-0.378048
0.3053941,0.8719635,-0.373406
0.3044233,0.8754906,-0.3659273
0.3093775,0.879034,-0.3573262
0.3169824,0.8757603,-0.3539219
0.3148762,0.8742612,-0.3549906
0.3093447,0.8751946,-0.3574158
0.3046533,0.8776391,-0.3573945
0.2969084,0.8799217,-0.3654452
0.2934332,0.8809885,-0.3756479
0.2957396,0.8809934,-0.3770571
0.3004322,0.8802917,-0.3743728
0.3035706,0.8844834,-0.3685633
0.3036659,0.889141,-0.3670889
0.2954066,0.8901135,-0.3674608
0.278943,0.8839723,-0.3618594
0.2749344,0.8721128,-0.3551895
0.2765934,0.869783,-0.3515261
0.2729425,0.8780307,-0.353297
0.2757614,0.8903707,-0.3568109
0.2745014,0.9033402,-0.3649092
0.2709784,0.9115461,-0.37526
0.2736243,0.9101171,-0.3728535
0.273402,0.8958374,-0.3670585
0.2754667,0.8820396,-0.3658322
0.2755289,0.8801892,-0.3610304
0.272253,0.8827328,-0.3587648
0.2745631,0.8872064,-0.3636616
0.2769344,0.896656,-0.3694945
0.2814847,0.9019064,-0.3715592
0.2867086,0.8974485,-0.3682856
0.2905007,0.891658,-0.3662049
0.2991014,0.8843637,-0.3721788
0.3037923,0.8801779,-0.3742726
0.2998015,0.8819682,-0.3590341
0.2925828,0.8789997,-0.341709
0.2850567,0.8780413,-0.3406186
0.2819253,0.8757981,-0.342067
0.2837066,0.8700023,-0.338016
0.2837047,0.8748231,-0.3450403
0.2796461,0.8829968,-0.3548989
0.2714507,0.8957044,-0.3584784
0.2591863,0.9062481,-0.3668327
0.2575479,0.9030488,-0.3675724
0.2656214,0.9023045,-0.3629482
0.2657904,0.9005901,-0.3687547
0.264903,0.8980133,-0.3721392
0.2662739,0.90018,-0.3737185
0.2673529,0.8987374,-0.3777259
0.2713243,0.9017375,-0.379796
0.2722512,0.9022346,-0.3865353
0.2741178,0.895157,-0.3908425
0.2776113,0.8909856,-0.3909498
0.278609,0.8863698,-0.391451
0.2813367,0.8867102,-0.3844553
0.2824746,0.8892866,-0.3768411
0.2826807,0.8882338,-0.3734589
0.2805847,0.8907307,-0.3703629
0.276701,0.8875172,-0.3669871
0.2825085,0.8777722,-0.3599334
0.2891752,0.8733588,-0.3542107
0.2882477,0.8760045,-0.3483244
0.2880575,0.8826854,-0.3456174
0.2884912,0.8852169,-0.3517846
0.2900196,0.8841796,-0.3520184
0.2955487,0.8822859,-0.3531738
0.3006052,0.8792682,-0.3550238
0.3011435,0.8804084,-0.3478718
0.2997674,0.8803089,-0.3480919
0.2969429,0.8781948,-0.3470863
0.2891248,0.8801929,-0.3471664
0.2848827,0.88341,-0.3591405
0.2876028,0.8882045,-0.3668606
0.289411,0.8903984,-0.3761283
0.2922737,0.8882034,-0.3771846
0.2916886,0.8887567,-0.3689671
0.287626,0.8889974,-0.3737978
0.2894336,0.8865342,-0.371707
0.2901324,0.884282,-0.3646208
0.2897913,0.8816253,-0.3653496
0.2906092,0.8795282,-0.3612401
0.2869575,0.8785867,-0.3609243
0.2853775,0.8776241,-0.3620413
0.286209,0.8781222,-0.3600876
0.2862805,0.8830658,-0.3613698
0.2874017,0.891607,-0.3592275
0.2883275,0.8957335,-0.3573285
0.2884197,0.8881016,-0.3562398
0.2834758,0.8768816,-0.3495287
0.2781604,0.8756226,-0.344856
0.2786608,0.8815885,-0.351631
0.2781087,0.8873417,-0.3613211
0.2775532,0.8933647,-0.3624978
0.2811939,0.8975134,-0.3698797
0.2846864,0.8923335,-0.3809782
0.2850489,0.8839646,-0.3766285
0.2836706,0.887613,-0.3740037
0.2824254,0.8925539,-0.3783333
0.2810152,0.890315,-0.3757093
0.2803395,0.8903372,-0.3746499
0.2819862,0.8840057,-0.3748862
0.2821068,0.8791821,-0.3715807
0.2766825,0.8902468,-0.3694163
0.2698489,0.8977683,-0.365567
0.2674562,0.8943231,-0.3640053
0.2721229,0.8911505,-0.3639059
0.2774607,0.8925903,-0.3598563
0.2752688,0.8955166,-0.3623974
0.2762492,0.897411,-0.3641331
0.2831516,0.8974822,-0.3539314
0.2830295,0.8921364,-0.3458191
0.2773958,0.8841899,-0.3413332
0.2703659,0.8765987,-0.332705
0.2645969,0.8812995,-0.3275354
0.2615949,0.8936472,-0.3331598
0.2594889,0.8905041,-0.3427102
0.261313,0.8907327,-0.3488471
0.2658426,0.8931205,-0.349212
0.2735749,0.8855192,-0.3451735
0.2763297,0.8963757,-0.3471493
0.265562,0.9050816,-0.3479232
0.2623688,0.8922929,-0.3436176
0.2762105,0.8841868,-0.3462553
0.2871334,0.8789957,-0.3436321
0.280238,0.8753595,-0.3416148
0.274423,0.8836998,-0.3538981
0.2921619,0.8941512,-0.363099
0.3044658,0.8888353,-0.3627035
0.2954641,0.8789026,-0.3599038
0.2855535,0.8802432,-0.3634016
0.2787293,0.877842,-0.3647254
0.2816682,0.8777625,-0.3589276
0.2878428,0.8858869,-0.361193
0.2834985,0.8889804,-0.3624819
0.2806187,0.8901691,-0.3617205
0.2793363,0.8871712,-0.3651001
0.2763504,0.8869542,-0.3628487
0.2789745,0.8916592,-0.3628039
0.2801669,0.8939685,-0.3683356
0.2783054,0.8986606,-0.372257
0.2795342,0.8939419,-0.3705307
0.279661,0.8874673,-0.3639181
0.2813953,0.8883172,-0.3605148
0.2874525,0.8805676,-0.3595288
0.2901483,0.8754536,-0.3597928
0.2883306,0.8798268,-0.360557
0.284515,0.8849051,-0.3621837
0.2816064,0.8893989,-0.3669945
0.2815262,0.891254,-0.3677547
0.2817738,0.8918873,-0.3677606
0.2803726,0.8903774,-0.3704068
0.2784625,0.8878633,-0.3687739
0.280176,0.8862186,-0.365266
0.2822857,0.8853793,-0.3617143
0.2817687,0.8856421,-0.3589855
0.2822918,0.8841378,-0.3582365
0.2826069,0.8832355,-0.3583777
0.2825897,0.8817668,-0.3613692
0.2818475,0.8800252,-0.363944
0.2804781,0.8834148,-0.36528
0.2807555,0.885714,-0.3679807
0.2803733,0.8837271,-0.3680555
0.2806655,0.8825047,-0.3666323
0.2813962,0.8829571,-0.3675129
0.2800751,0.8837073,-0.3675049
0.2789464,0.8848168,-0.3662333
0.2789272,0.8853399,-0.3671522
0.2803888,0.8842345,-0.3697552
0.2809275,0.8846893,-0.3727014
0.2802507,0.8851592,-0.3738091
0.2807663,0.8843999,-0.3707356
0.2806543,0.885891,-0.3674855
0.2813712,0.8862579,-0.3676424
0.2824205,0.8846692,-0.3685239
0.2821671,0.8831777,-0.3679413
0.2837004,0.8829206,-0.3687315
0.2849668,0.8853644,-0.3728426
0.2827442,0.8854439,-0.3761582
0.2792551,0.8848143,-0.3755272
0.2785318,0.8866472,-0.3730745
0.2795364,0.8853592,-0.3695473
0.27909,0.8840995,-0.3639955
0.2790832,0.8859593,-0.3640304
0.2793058,0.8866102,-0.3699248
0.2790293,0.8870803,-0.370127
0.279271,0.8886474,-0.3702566
0.2792926,0.8889265,-0.3717941
0.2802318,0.8870299,-0.3680617
0.2817793,0.8855908,-0.3676311
0.2822384,0.8871406,-0.3684703
0.2815697,0.8888404,-0.3675627
0.2799985,0.8872218,-0.3685571
0.2787748,0.8826931,-0.3677438
0.2790878,0.8791111,-0.3680345
