accx,accy,accz
-0.1156122,0.7712939,0.6440968
-0.1144809,0.7730685,0.648342
-0.1129715,0.7718858,0.6543957
-0.1140681,0.771811,0.6570922
-0.1143441,0.7706821,0.6628437
-0.1120266,0.7680742,0.6626332
-0.113157,0.7667917,0.6610891
-0.1130762,0.7650893,0.6649762
-0.113855,0.7665681,0.6620354
-0.1136485,0.7692138,0.6566149
-0.1124061,0.7685963,0.6570647
-0.118353,0.7701364,0.6577367
-0.1226004,0.7735529,0.6582019
-0.1209998,0.7724387,0.6569748
-0.1201166,0.7713401,0.65455
-0.1210645,0.7729136,0.6575154
-0.1214011,0.7726073,0.6621497
-0.1211209,0.7745971,0.6638695
-0.1226858,0.7773251,0.6599789
-0.1211551,0.7743736,0.6536342
-0.1181273,0.7714925,0.6553486
-0.1175141,0.7710925,0.6580904
-0.1150279,0.7698412,0.6583124
-0.1133416,0.7684452,0.6625048
-0.1145413,0.7666498,0.662979
-0.1185903,0.7639535,0.6600395
-0.1223554,0.7639524,0.6595234
-0.1205827,0.7661723,0.6596065
-0.1183786,0.7653437,0.6609371
-0.1179454,0.7653975,0.6613643
-0.1176227,0.7694278,0.6607571
-0.1167056,0.7716769,0.6593236
-0.112743,0.7713253,0.6539222
-0.1100168,0.7712202,0.6497297
-0.1119085,0.7718542,0.6513605
-0.1132316,0.7691191,0.6541615
-0.1113,0.7648972,0.6544302
-0.1105827,0.7669564,0.654285
-0.1116344,0.7694058,0.6531827
-0.1120673,0.7694879,0.652473
-0.1137971,0.7719511,0.6576147
-0.1152979,0.7732364,0.6613292
-0.1152899,0.7729982,0.660733
-0.1145166,0.7719321,0.6624085
-0.1106824,0.7704237,0.6620345
-0.107343,0.7693658,0.6621999
-0.109683,0.7668376,0.6676115
-0.1120172,0.7660355,0.6698957
-0.1082481,0.7667536,0.6643622
-0.1054625,0.7706532,0.655913
-0.1079081,0.777191,0.6539648
-0.1099072,0.7739711,0.6569082
-0.1114675,0.769695,0.6583459
-0.1114039,0.7733782,0.6611688
-0.1085864,0.7721446,0.6620096
-0.1080426,0.7692806,0.6601895
-0.1085532,0.7689246,0.6604431
-0.1093375,0.7671322,0.6598175
-0.111084,0.7684461,0.6603426
-0.1112665,0.7693856,0.662588
-0.1114778,0.7688624,0.6619444
-0.1132145,0.7691763,0.6620877
-0.1161653,0.7675982,0.6654787
-0.1175785,0.76875,0.6677126
-0.1162999,0.7703499,0.6658272
-0.1165409,0.7687828,0.661639
-0.1169881,0.7687914,0.6589659
-0.1160307,0.7690451,0.6603926
-0.1150104,0.7702273,0.6643154
-0.1131831,0.7713085,0.6661409
-0.1124935,0.7686968,0.666627
-0.1117041,0.767392,0.6657299
-0.1095317,0.7685288,0.6616142
-0.1104036,0.7704905,0.6594302
-0.1144352,0.7740046,0.6598109
-0.1173005,0.7756057,0.6605388
-0.1144517,0.7732334,0.6611033
-0.109917,0.7710159,0.658311
-0.1116705,0.7714709,0.6561285
-0.1127181,0.7704437,0.6578048
-0.1098057,0.767391,0.6589743
-0.1093426,0.7654025,0.6588105
-0.1089643,0.7646285,0.6610333
-0.1111926,0.7660648,0.6654471
-0.1156954,0.7682244,0.6649772
-0.1140617,0.7697744,0.6593309
-0.1128402,0.7706677,0.6555157
-0.1149199,0.7716124,0.6563526
-0.1145546,0.7754159,0.6580433
-0.1147256,0.7760602,0.656479
-0.1131781,0.7727707,0.6571235
-0.1097284,0.7701678,0.6603827
-0.1109913,0.7654054,0.6612983
-0.1119123,0.7666489,0.6616223
-0.1107971,0.7720192,0.6607475
-0.1132747,0.7699505,0.6609146
-0.1158963,0.7679192,0.6613536
-0.1171744,0.7668838,0.6587302
-0.1185974,0.7675269,0.6578686
-0.118156,0.7718533,0.6572141
-0.1175622,0.7702262,0.6557391
-0.1173687,0.7691161,0.6554687
-0.1160145,0.7709829,0.6547212
-0.1146858,0.7688971,0.6532442
-0.1141817,0.7691617,0.6516977
-0.1162102,0.769983,0.6571114
-0.1190547,0.7688419,0.6638768
-0.117439,0.7685718,0.6602697
-0.1157246,0.7668774,0.6580569
-0.118217,0.766372,0.6607548
-0.1195827,0.767791,0.6596424
-0.1200478,0.7679549,0.6595967
-0.1203719,0.7663233,0.6620417
-0.1180962,0.764907,0.6633151
-0.1171637,0.7675062,0.6644468
-0.1166554,0.7717069,0.6630267
-0.1145906,0.7725859,0.6595246
-0.1153992,0.7703878,0.6607889
-0.1177482,0.7684435,0.6641628
-0.1193712,0.768544,0.6635247
-0.1208191,0.7678446,0.661623
-0.120088,0.7658099,0.6590945
-0.1162854,0.7650196,0.6579309
-0.1140068,0.7651128,0.6628298
-0.1208119,0.7654262,0.6679507
-0.1300295,0.7653484,0.6682034
-0.1272604,0.7650664,0.6637165
-0.1189173,0.7659906,0.654657
-0.1155343,0.7679299,0.6505512
-0.1157926,0.7692472,0.6592403
-0.11784,0.76549,0.668546
-0.1177159,0.760714,0.6647565
-0.1183968,0.7641077,0.6578625
-0.1207894,0.7674123,0.6573572
-0.1190356,0.7664563,0.6596764
-0.120037,0.7693196,0.6668051
-0.121923,0.7705301,0.6702745
-0.1201146,0.7684193,0.6670922
-0.121079,0.7687839,0.6685319
-0.1208062,0.7682177,0.6680238
-0.1197173,0.7685819,0.6660732
-0.1205362,0.7709902,0.6665511
-0.1206279,0.7699116,0.6598049
-0.1213067,0.7676904,0.6546864
-0.120246,0.766108,0.6598773
-0.1183157,0.7652017,0.6625567
-0.1153056,0.7681092,0.6575076
-0.1125595,0.7714465,0.6548368
-0.1151277,0.7710219,0.6558023
-0.1158441,0.7694815,0.6557597
-0.1138169,0.7693311,0.6578041
-0.1142346,0.769476,0.6608622
-0.1164266,0.7695764,0.6627645
-0.1217962,0.7704227,0.6637435
-0.1252262,0.770857,0.6639716
-0.1231911,0.7700491,0.6651064
-0.1208569,0.7690383,0.6646201
-0.1184018,0.7687921,0.6612052
-0.1146242,0.7667507,0.6558736
-0.1129815,0.7624226,0.6531532
-0.1146048,0.7620109,0.6548663
-0.1168087,0.7652251,0.656989
-0.1185931,0.7674836,0.6653209
-0.1185242,0.7686592,0.674412
-0.1168865,0.768076,0.6696423
-0.1156165,0.7671536,0.6598501
-0.1138115,0.765534,0.6555008
-0.116371,0.7620609,0.6562933
-0.1225209,0.7627001,0.6599376
-0.1229383,0.7676856,0.6601242
-0.1215011,0.7703492,0.6591593
-0.121603,0.7689448,0.6604159
-0.1195596,0.767607,0.6603718
-0.1162637,0.7708583,0.6612547
-0.1124595,0.7732073,0.6616248
-0.1113176,0.7697846,0.6606227
-0.1126217,0.7666094,0.6623941
-0.1148444,0.7654359,0.6628119
-0.1192088,0.7651282,0.6611695
-0.1172685,0.7663334,0.6573983
-0.1133736,0.7669311,0.6526454
-0.1183582,0.7667062,0.6556284
-0.1220404,0.7670812,0.6594872
-0.1232203,0.7697261,0.6572945
-0.1255727,0.7733605,0.6571014
-0.1246508,0.7734375,0.6589581
-0.1250328,0.7714597,0.6606001
-0.1253518,0.7703983,0.6623902
-0.1244383,0.7669014,0.6605749
-0.1254863,0.7611579,0.6591395
-0.1248045,0.7608909,0.6622027
-0.1246782,0.7662508,0.6647613
-0.1244792,0.7695132,0.6669244
-0.1229262,0.7692408,0.6659693
-0.1239604,0.7689763,0.6620275
-0.1246593,0.7698635,0.6632527
-0.1250126,0.7691447,0.6603583
-0.1253409,0.7663408,0.654182
-0.1249945,0.7620975,0.6563066
-0.1269525,0.758144,0.6565961
-0.1283827,0.7608779,0.6564028
-0.1277974,0.7652652,0.6610459
-0.1272143,0.7647018,0.6632879
-0.1264154,0.7629402,0.6666119
-0.1263573,0.7607143,0.6687121
-0.1281092,0.7635141,0.6647141
-0.129408,0.7690516,0.6599168
-0.1283085,0.7679873,0.6558157
-0.1256924,0.7665808,0.6561155
-0.1199828,0.7657697,0.6606788
-0.1175299,0.7636248,0.6625699
-0.1265214,0.7639465,0.6642723
-0.1333396,0.7642099,0.6644351
-0.1288626,0.7652421,0.6608321
-0.1258626,0.765816,0.6601023
-0.1284574,0.7641878,0.6596188
-0.1280998,0.7654707,0.6592026
-0.1260034,0.7679261,0.6603062
-0.1265028,0.7694139,0.6584949
-0.1254048,0.7713448,0.6589604
-0.1239367,0.7700618,0.6603297
-0.1223353,0.7643731,0.659414
-0.118004,0.7609588,0.6604481
-0.1172519,0.7633887,0.6622824
-0.1191183,0.7649789,0.664696
-0.1205867,0.7633572,0.6649263
-0.123008,0.7637579,0.6656419
-0.1225941,0.7645206,0.669486
-0.1217553,0.7643805,0.667427
-0.1236179,0.7656945,0.6626052
-0.1248537,0.7656849,0.6616169
-0.1251155,0.7660555,0.6656845
-0.1245752,0.7687226,0.6708399
-0.1221751,0.7684042,0.664613
-0.1196889,0.7668737,0.6567951
-0.1188155,0.7680467,0.6573327
-0.1174738,0.7686143,0.6538539
-0.1149248,0.7677032,0.6526696
-0.113566,0.7678008,0.6577264
-0.114505,0.7674853,0.6569836
-0.1159052,0.7661101,0.6563006
-0.1153332,0.7673406,0.6567739
-0.114859,0.7706043,0.6546165
-0.1156337,0.7729472,0.655764
-0.1153791,0.7728324,0.6560765
-0.1161717,0.7710656,0.6558867
-0.1181079,0.7706683,0.6582441
-0.1176932,0.7692786,0.6594834
-0.1151441,0.7686064,0.6618642
-0.1112852,0.7703243,0.6626761
-0.1073978,0.7687937,0.6620386
-0.1055201,0.7673139,0.6637887
-0.1087489,0.7671381,0.662977
-0.1148528,0.7680177,0.6604102
-0.114687,0.7724312,0.6574226
-0.1127801,0.7727427,0.6553868
-0.1151119,0.7702942,0.6607279
-0.1164929,0.7690472,0.665886
-0.1181355,0.766309,0.6622496
-0.1167743,0.766713,0.6595464
-0.1118948,0.7688703,0.6626498
-0.1120279,0.7696574,0.6631488
-0.1120502,0.7698573,0.6623947
-0.1104118,0.7689656,0.6655232
-0.1109788,0.7690584,0.667476
-0.1093694,0.7666273,0.6674734
-0.1076497,0.7622746,0.6699261
-0.1089865,0.7628684,0.6724799
-0.112181,0.7675959,0.6668027
-0.1148864,0.7726163,0.6547501
-0.1147097,0.7732054,0.6508756
-0.1159621,0.7715865,0.6557875
-0.1191475,0.773308,0.6584104
-0.1179734,0.7741589,0.6568127
-0.1144558,0.7733101,0.6571242
-0.1135795,0.773684,0.6622804
-0.1136968,0.7732997,0.6659705
-0.1139969,0.7715631,0.6657382
-0.1137364,0.7694732,0.6649208
-0.1117494,0.7689016,0.6649386
-0.1111535,0.7697809,0.6637682
-0.1127236,0.7694494,0.6577279
-0.1145775,0.7688785,0.652925
-0.1142432,0.7678835,0.6537801
-0.1138608,0.7656454,0.6547591
-0.1179394,0.7651842,0.6544152
-0.1203929,0.767086,0.6556337
-0.1185517,0.7710015,0.6580443
-0.1176531,0.7737883,0.6582818
-0.1189001,0.7717454,0.6597815
-0.1190708,0.7703244,0.6623501
-0.1138432,0.7695868,0.6606705
-0.1092833,0.7671477,0.6598206
-0.1117577,0.7688646,0.6601809
-0.1168177,0.7704481,0.66048
-0.1207734,0.7688354,0.6634993
-0.1211727,0.7693817,0.6639951
-0.117634,0.7685882,0.6608024
-0.1147109,0.7665528,0.6580031
-0.115438,0.7665785,0.6584737
-0.1173991,0.7664356,0.6633553
-0.1183731,0.7658772,0.6692864
-0.1183534,0.7649803,0.6711721
-0.1180209,0.7652555,0.6639188
-0.1199582,0.7665431,0.6547179
-0.1208631,0.7666864,0.6544877
-0.1165981,0.7668036,0.6564168
-0.111367,0.7666034,0.6547692
-0.1106961,0.7665639,0.6532747
-0.1153485,0.7672253,0.6534745
-0.1190346,0.7682773,0.6559146
-0.1195132,0.770051,0.6565215
-0.121363,0.7697266,0.6546721
-0.1238315,0.7688803,0.6558631
-0.1236789,0.7698006,0.6574786
-0.1214553,0.7696151,0.6592578
-0.1203611,0.770286,0.6624107
-0.1204448,0.7722759,0.6609047
-0.1190096,0.7718921,0.6584565
-0.116618,0.7691036,0.6585617
-0.1160477,0.765271,0.6581937
-0.1169262,0.7635098,0.6599813
-0.116474,0.7640762,0.660109
-0.1179254,0.7636468,0.6574974
-0.1207503,0.7630938,0.6586917
-0.1200636,0.7634707,0.6616347
-0.1221989,0.7647816,0.6643075
-0.1262305,0.7659491,0.6662951
-0.1247117,0.7650967,0.6667691
-0.1232071,0.7653885,0.6656873
-0.1222194,0.7674438,0.6601927
-0.1199555,0.7683382,0.6550048
-0.1217279,0.7683133,0.6560586
-0.1231016,0.7679588,0.6556615
-0.1222367,0.7689365,0.6501691
-0.1249991,0.7694459,0.6518669
-0.1272024,0.7662063,0.662179
-0.1241224,0.7626294,0.6659399
-0.1171838,0.7616056,0.6616581
-0.1135724,0.7618525,0.6605783
-0.1224758,0.7614323,0.6651459
-0.1327039,0.7623958,0.665914
-0.1298251,0.7649053,0.6558205
-0.1269865,0.7641672,0.6471627
-0.1306439,0.7639508,0.6542818
-0.1291196,0.765427,0.6635722
-0.1281987,0.7649231,0.660102
-0.129429,0.7679639,0.6593593
-0.1240214,0.7718915,0.6658282
-0.1211827,0.7704911,0.6646284
-0.1240537,0.768288,0.6623177
-0.1258342,0.7657294,0.6643169
-0.1252605,0.7623933,0.6654502
-0.1242155,0.7610578,0.6699923
-0.1255532,0.7602417,0.6743715
-0.1250383,0.7607806,0.6732347
-0.1244637,0.7641711,0.6707072
-0.1258642,0.7662608,0.6661376
-0.125414,0.7651153,0.6616896
-0.1265638,0.7644679,0.6619026
-0.1251869,0.7666159,0.660605
-0.1199132,0.7693068,0.65842
-0.1157777,0.7710394,0.6595676
-0.1122408,0.7725562,0.6564073
-0.1127579,0.7725204,0.6540302
-0.1154934,0.7708871,0.6623592
-0.1169817,0.7705831,0.6688176
-0.1163954,0.770838,0.6626379
-0.1140163,0.7698332,0.6566498
-0.1145848,0.7691977,0.6595119
-0.1143059,0.7695719,0.6573717
-0.1139495,0.7704365,0.6516262
-0.1166328,0.771113,0.6553555
-0.1165912,0.771019,0.6603644
-0.1161527,0.7716192,0.665241
-0.1146806,0.7725719,0.6707301
-0.1125464,0.7719498,0.669355
-0.1139904,0.7700453,0.6678739
-0.1114476,0.7681109,0.6640743
-0.1085499,0.7676148,0.6546066
-0.1120463,0.7686025,0.650504
-0.1142371,0.7701169,0.6498346
-0.1123743,0.7720753,0.650335
-0.105777,0.7719439,0.6550433
-0.09922311,0.7674528,0.6590342
-0.1032613,0.7645189,0.6617191
-0.110911,0.7688049,0.6642271
-0.1118148,0.7735933,0.6619825
-0.1109195,0.7723134,0.6544381
-0.1111869,0.7703226,0.6479938
-0.1109316,0.7702496,0.6455446
-0.1104081,0.7690071,0.6479497
-0.1066101,0.7692042,0.6573892
-0.1031679,0.7703541,0.6652532
-0.106952,0.7707915,0.6631565
-0.1117376,0.7728731,0.6582557
-0.1115445,0.7726485,0.6558109
-0.1111379,0.7714419,0.6522966
-0.1143886,0.7727473,0.6522599
-0.1179441,0.7718048,0.6575926
-0.1186761,0.7701394,0.659456
-0.1179106,0.7698474,0.6622096
-0.1177933,0.7715959,0.6654805
-0.1183717,0.7751304,0.6636259
-0.1179405,0.7747165,0.6657977
-0.1179216,0.7743516,0.6661175
-0.1183288,0.7758695,0.6638658
-0.117626,0.7736768,0.6658518
-0.1172713,0.7703797,0.6620989
-0.1164591,0.7673729,0.6589355
-0.1163711,0.767907,0.6600265
-0.1169135,0.7710242,0.6581188
-0.1155169,0.7694362,0.6535052
-0.1150028,0.7705562,0.646453
-0.1155397,0.7737716,0.647587
-0.1164914,0.7717348,0.65257
-0.1188054,0.7719267,0.6515265
-0.1199949,0.7728092,0.6551396
-0.1195111,0.7717054,0.6603406
-0.1191518,0.7724972,0.6624453
-0.119596,0.7722091,0.6642759
-0.1195332,0.7720463,0.6604302
-0.1190404,0.7724767,0.6561735
-0.1187521,0.771816,0.6567235
-0.1182505,0.7718158,0.6565613
-0.1205474,0.771804,0.6591875
-0.1223479,0.7712758,0.6637641
-0.1169119,0.7691945,0.6589035
-0.112217,0.7691771,0.6517213
-0.1174272,0.7740751,0.6532439
-0.1254178,0.776857,0.6575097
-0.1266439,0.776049,0.6625969
-0.1215778,0.7736548,0.6651698
-0.1159183,0.7715387,0.6602989
-0.1158676,0.7739674,0.6564948
-0.1186213,0.7755286,0.6560986
-0.1179151,0.7719109,0.6560675
-0.1184312,0.7688699,0.6573475
-0.1211385,0.7694842,0.6571182
-0.1224036,0.771659,0.656223
-0.1212324,0.7725919,0.6554227
-0.1163486,0.7719744,0.6544365
-0.114503,0.7702646,0.6583542
-0.1173279,0.7694177,0.6622959
-0.1190294,0.7722664,0.6575893
-0.1202293,0.7753768,0.6526749
-0.122122,0.7738439,0.6549268
-0.1247454,0.7692531,0.656169
-0.1254219,0.767012,0.6561799
-0.1238564,0.768206,0.6600191
-0.1207505,0.7693578,0.6605643
-0.1168574,0.7702105,0.6577337
-0.1193707,0.7730449,0.6574471
-0.1221959,0.7753809,0.6573595
-0.1182814,0.7718154,0.6592708
-0.1163087,0.7675405,0.6623797
-0.1167646,0.7689263,0.6611932
-0.1167359,0.7676878,0.6609669
-0.117674,0.7636531,0.6643477
-0.1182639,0.7653564,0.6652315
-0.1183358,0.7670868,0.6614848
-0.1189747,0.7665095,0.656523
-0.1206428,0.7687953,0.6560483
-0.121309,0.769864,0.6579341
-0.120591,0.7684018,0.6575745
-0.1208263,0.7679651,0.6578547
-0.1204287,0.7687991,0.6561798
-0.1180158,0.7699923,0.6534972
-0.1155737,0.7697979,0.6576672
-0.1145442,0.7708906,0.6620913
-0.1144701,0.7733204,0.6621929
-0.1160988,0.7731262,0.664081
-0.1191213,0.7730892,0.6644329
-0.1176535,0.7712512,0.6607832
-0.1125711,0.7645661,0.6579968
-0.1121633,0.7607016,0.6572322
-0.119559,0.7628085,0.6609624
-0.1273503,0.7654544,0.6659794
-0.121698,0.7670647,0.6633698
-0.1147499,0.7689544,0.6590727
-0.1227042,0.7691646,0.6577344
-0.1259351,0.769249,0.6549497
-0.1217781,0.7707521,0.6538065
-0.1223094,0.7699479,0.6540673
-0.1204411,0.7690747,0.6541172
-0.1201641,0.7696001,0.6553997
-0.1217704,0.7693247,0.6582428
-0.119846,0.7693799,0.6626314
-0.1190158,0.7685156,0.6618255
-0.1168484,0.7680448,0.6596626
-0.1159618,0.7699333,0.6623986
-0.1184107,0.7710184,0.6628722
-0.1197289,0.7692877,0.663102
-0.123239,0.7672353,0.6611212
-0.1259398,0.7689299,0.6554149
-0.123266,0.7703,0.6565462
-0.1211245,0.7689826,0.6580158
-0.1221685,0.7694775,0.656972
-0.1212672,0.7698359,0.6617324
-0.1172176,0.7700673,0.665411
-0.115014,0.7711329,0.6631391
-0.1150611,0.7694218,0.6587591
-0.1157189,0.7662634,0.656776
-0.1175677,0.7650826,0.6610895
-0.1201641,0.7677711,0.664604
-0.1217195,0.7711201,0.6579754
-0.1204973,0.7712576,0.6522433
-0.1195509,0.7720951,0.6605137
-0.1196682,0.7730018,0.6674802
-0.1190486,0.7718451,0.6641389
-0.1199971,0.7727431,0.6643872
-0.121184,0.7725227,0.6656094
-0.1215336,0.7699159,0.6629023
-0.1207572,0.7706636,0.664114
-0.1183495,0.7717678,0.6659969
-0.1178806,0.7723565,0.6646447
-0.1185591,0.7751741,0.6628777
-0.1206303,0.7750752,0.6617595
-0.1220905,0.771083,0.6626731
-0.1159793,0.7666116,0.6628854
-0.1104473,0.7648712,0.6624948
-0.1148658,0.7697268,0.665504
-0.1215725,0.7742743,0.6664504
-0.1228651,0.7721775,0.6613157
-0.1212848,0.7711277,0.6568147
-0.1204226,0.7721059,0.6595199
-0.120673,0.7705504,0.6630763
-0.1212353,0.7713206,0.6599834
-0.1204284,0.7731601,0.6578086
-0.1200028,0.7717257,0.6571748
-0.1198873,0.7711389,0.6563809
-0.117947,0.7709466,0.6599038
-0.1159969,0.7702242,0.6598175
-0.1143134,0.7702851,0.659123
-0.1141252,0.7689419,0.6654398
-0.1158082,0.7684161,0.6684429
-0.1183022,0.7691841,0.666326
-0.1206747,0.7692797,0.6660785
-0.1209671,0.7697862,0.6658309
-0.1219495,0.7688028,0.6592472
-0.1225368,0.7669053,0.6521039
-0.1215783,0.7662554,0.653565
-0.1207344,0.7662068,0.6557374
-0.1183296,0.7656419,0.6553386
-0.1179815,0.7650177,0.657364
-0.1194507,0.7682021,0.6576173
-0.1208634,0.7703644,0.6561738
-0.1214717,0.7672424,0.6580876
-0.1182797,0.7660054,0.6617073
-0.1174746,0.766916,0.6647306
-0.1188611,0.7675173,0.6644572
-0.1194737,0.7676289,0.6604604
-0.1218234,0.7673532,0.6581588
-0.1218689,0.7691731,0.6564994
-0.1220952,0.7698252,0.657026
-0.1235756,0.7683032,0.6624742
-0.1225182,0.767952,0.6647776
-0.1221501,0.7689113,0.6641107
-0.1219506,0.7699123,0.6629258
-0.1211144,0.7692257,0.6598667
-0.1198952,0.7683457,0.657136
-0.1185991,0.7681901,0.6577223
-0.1191888,0.7687064,0.6647344
-0.1196884,0.7699509,0.6682606
-0.1213044,0.7698546,0.6644245
-0.1233642,0.7709042,0.6631396
-0.1232737,0.7721661,0.6629547
-0.1229268,0.7675042,0.6598253
-0.1209667,0.7616487,0.6561076
-0.1204942,0.7617677,0.6597362
-0.1233844,0.7634591,0.664981
-0.1248058,0.7636593,0.6608508
-0.1253898,0.7666501,0.6587489
-0.1253559,0.7689916,0.6587167
-0.1264376,0.7660997,0.6560823
-0.1291018,0.7642831,0.6588075
-0.1295334,0.7655312,0.6600953
-0.1306547,0.7654945,0.6557775
-0.1310447,0.7650072,0.6535282
-0.128828,0.7653867,0.6565749
-0.1276845,0.7651581,0.6597596
-0.1249231,0.7640792,0.6572935
-0.1226822,0.7628162,0.6559544
-0.1251517,0.7622879,0.6595589
-0.1283054,0.7634331,0.6666336
-0.1297845,0.7643557,0.6744743
-0.1293612,0.763429,0.6703314
-0.12855,0.7619842,0.661115
-0.1285064,0.7621452,0.6623251
-0.1273884,0.7679545,0.6630098
-0.1265574,0.7739421,0.6603696
-0.1267034,0.7682617,0.6601391
-0.1269967,0.7612255,0.6593545
-0.128162,0.7643496,0.6628602
-0.1280248,0.7658257,0.6665421
-0.1273068,0.7643818,0.6666783
-0.1284454,0.7654454,0.6691895
-0.1295588,0.7624875,0.6692926
-0.1308715,0.7598623,0.6675358
-0.1310652,0.761425,0.666636
-0.1299329,0.7614331,0.6668413
-0.1308011,0.7621821,0.668436
-0.1307496,0.764651,0.6643036
-0.1301348,0.7658785,0.6606647
-0.1309332,0.7653589,0.661813
-0.1302174,0.7648591,0.660167
-0.1295753,0.765793,0.6596497
-0.1293181,0.7666481,0.6625706
-0.1296844,0.7694277,0.6644538
-0.1312121,0.7713391,0.6623414
-0.13071,0.7671322,0.6598628
-0.1310957,0.763758,0.6617556
-0.1324296,0.7649063,0.6641526
-0.1305784,0.7641659,0.6683964
-0.1281194,0.7613024,0.6727424
-0.1266529,0.7613715,0.6705162
-0.1272143,0.7614381,0.668819
-0.130075,0.7596918,0.6711407
-0.1312109,0.760657,0.6703797
-0.1304323,0.7621989,0.6646579
-0.1303754,0.7644954,0.6583355
-0.1307303,0.7677388,0.6566894
-0.1305226,0.7653435,0.6602971
-0.1304685,0.7606476,0.6639901
-0.1306734,0.7593911,0.6627385
-0.1301282,0.7612386,0.6604699
-0.1287621,0.7642583,0.6619005
-0.127121,0.7660967,0.6629018
-0.1267634,0.7674768,0.6639747
-0.1278454,0.7636749,0.6647223
-0.1300431,0.7570649,0.6626968
-0.1339864,0.7596837,0.662328
-0.135729,0.7632497,0.6606325
-0.1342528,0.7615038,0.6582015
-0.133667,0.7620971,0.6581049
-0.1333052,0.7614035,0.6578104
-0.1328998,0.762062,0.6638144
-0.131437,0.7655942,0.6710268
-0.124801,0.764665,0.6708272
-0.1174551,0.7658856,0.6671535
-0.1171882,0.7678453,0.6601507
-0.1209429,0.7657914,0.6564885
-0.1221823,0.7653412,0.658941
-0.1222485,0.7626171,0.6609317
-0.1228022,0.7599368,0.6631308
-0.1237312,0.7622521,0.6638759
-0.1256661,0.7631088,0.6603525
-0.1253139,0.7622546,0.6570594
-0.1243426,0.7624264,0.6591914
-0.1254469,0.7626506,0.6621813
-0.1245992,0.7626232,0.6625554
-0.122772,0.7634968,0.6653589
-0.1211398,0.7651969,0.6688171
-0.1200855,0.7655398,0.6713958
-0.1212175,0.7652084,0.6706627
-0.1212921,0.7652347,0.6634608
-0.1222428,0.7653024,0.6594347
-0.1245353,0.7653215,0.6616824
-0.1232712,0.7646594,0.6652541
-0.1208431,0.7626634,0.6674771
-0.1180033,0.7602857,0.6652939
-0.1158395,0.7607351,0.662459
-0.1188453,0.7632515,0.6634981
-0.1223472,0.7678708,0.6676936
-0.122459,0.7741376,0.6680044
-0.1223666,0.7721973,0.6601503
-0.123061,0.7663809,0.6550334
-0.1238824,0.7666188,0.6586049
-0.1227281,0.7651064,0.6626227
-0.1175852,0.7642427,0.6628561
-0.1120135,0.7663206,0.6632891
-0.111547,0.7636044,0.6621043
-0.1142446,0.7623252,0.6592245
-0.114144,0.7619791,0.6651922
-0.1132788,0.7606653,0.6722768
-0.1137268,0.7644483,0.6688424
-0.1138501,0.767411,0.6650729
-0.1158071,0.7688058,0.6649901
-0.117034,0.7710659,0.6647708
-0.1170195,0.7719076,0.6628072
-0.118256,0.7720394,0.6596886
-0.1154519,0.7694325,0.6591382
-0.1124953,0.767134,0.658439
-0.113986,0.7679632,0.6574823
-0.1131395,0.768244,0.6579277
-0.1106087,0.767052,0.6566576
-0.1089484,0.7661956,0.6565167
-0.1066289,0.7670227,0.6571634
-0.1050744,0.7676302,0.6548566
-0.1056193,0.7681263,0.6551564
-0.1080601,0.768749,0.6622937
-0.1109644,0.7696373,0.6692219
-0.112918,0.7724431,0.6675954
-0.1121625,0.772801,0.6647319
-0.1102061,0.7716559,0.6673032
-0.1111242,0.772493,0.6647146
-0.1118354,0.7722349,0.659359
-0.1116323,0.7724096,0.6586525
-0.1138795,0.7742051,0.6568667
-0.1140709,0.7748715,0.6566698
-0.111642,0.7724079,0.6579243
-0.1104369,0.7685493,0.659105
-0.1085668,0.768098,0.6626921
-0.105206,0.7684553,0.6632773
-0.1022349,0.7672057,0.6644949
-0.103769,0.7664781,0.6666768
-0.1105673,0.7655892,0.6655384
-0.1156836,0.7683056,0.6661576
-0.1147418,0.772462,0.6631311
-0.1130492,0.7700392,0.6566268
-0.1170155,0.7683594,0.6561135
-0.1189402,0.7710734,0.6576203
-0.1143367,0.7708859,0.657974
-0.111358,0.7696762,0.6593489
-0.1105043,0.7693978,0.6607518
-0.1107694,0.769172,0.6623059
-0.1092874,0.7693726,0.664508
-0.1045088,0.7675784,0.6641038
-0.1040142,0.7661577,0.6615227
-0.1069898,0.7681259,0.6617403
-0.1095672,0.7712208,0.6631732
-0.1106988,0.7730159,0.6643085
-0.1122025,0.7721399,0.6658142
-0.1164296,0.7710663,0.6652193
-0.1178947,0.7717569,0.6640678
-0.117296,0.7727215,0.6638253
-0.116467,0.7741628,0.6637351
-0.114803,0.7754208,0.6640532
-0.1134841,0.7744617,0.6640195
-0.1098764,0.7711555,0.664712
-0.1088639,0.7682481,0.665674
-0.1105651,0.7680654,0.664921
-0.1102779,0.767375,0.6627978
-0.1110837,0.7648925,0.6593887
-0.1095847,0.7640837,0.6572898
-0.1078377,0.7643177,0.6581977
-0.1113786,0.7653508,0.657913
-0.1144494,0.767639,0.656267
-0.1142379,0.76778,0.6572746
-0.1134658,0.7678713,0.6593114
-0.1140061,0.7695336,0.6607801
-0.1140825,0.7694186,0.6617456
-0.1135668,0.7697814,0.6607183
-0.1144977,0.7717667,0.6598113
-0.1156066,0.7742726,0.6589579
-0.1156702,0.7750995,0.6576497
-0.1094159,0.7695543,0.6577916
-0.1000664,0.7627845,0.6550114
-0.100752,0.7615716,0.6523634
-0.1074669,0.7641681,0.6583646
-0.1128574,0.7672547,0.6652755
-0.1170608,0.7686941,0.6642085
-0.1156954,0.7695665,0.6603914
-0.114314,0.7711828,0.6574573
-0.1179848,0.7724989,0.6551259
-0.1180228,0.7705816,0.6589884
-0.1142665,0.7669768,0.6654186
-0.1098344,0.7656589,0.666334
-0.1066572,0.7624303,0.6683287
-0.1088063,0.7601984,0.6707596
-0.109872,0.764542,0.6687817
-0.1089972,0.7683736,0.6683534
-0.1094374,0.7696991,0.6678848
-0.1081566,0.7714101,0.6655885
-0.1100144,0.7724952,0.6638797
-0.1133761,0.771423,0.6611687
-0.1135149,0.7692031,0.6590901
-0.1154849,0.7692867,0.6587524
-0.1184655,0.7696664,0.6599612
-0.1191369,0.7692279,0.6615734
-0.1151467,0.7697912,0.662278
-0.109653,0.7702623,0.6637333
-0.1104144,0.7710702,0.6657164
-0.1112741,0.7707069,0.6702148
-0.1086124,0.7685055,0.6716651
-0.1087501,0.7668426,0.6634397
-0.1086538,0.766172,0.6592717
-0.1080281,0.7670053,0.6634336
-0.1116231,0.7679349,0.6655332
-0.1175664,0.7692515,0.6639197
-0.1230976,0.7720259,0.6593047
-0.1222043,0.7735162,0.6546065
-0.1167575,0.7738644,0.6505079
-0.1173648,0.7731145,0.64737
-0.1181939,0.7706775,0.6494895
-0.1156576,0.7688763,0.6547624
-0.1165638,0.7688519,0.6591472
-0.1162364,0.7690867,0.6595535
-0.1137622,0.7676727,0.6591769
-0.1119121,0.7678064,0.6626638
-0.1093372,0.769616,0.6651951
-0.1117124,0.7693166,0.6668417
-0.1150104,0.7693314,0.6660534
-0.1101626,0.7685321,0.6576186
-0.1071403,0.7667257,0.6508466
-0.113206,0.7673418,0.652324
-0.1199386,0.7673737,0.6547253
-0.1220326,0.7665291,0.6541115
-0.1204644,0.7664632,0.6545935
-0.1184633,0.7669315,0.6583006
-0.1177919,0.767724,0.6614908
-0.1165423,0.7680544,0.6617453
-0.1147519,0.768164,0.6595954
-0.1133812,0.7669805,0.655633
-0.1132219,0.7661097,0.6530285
-0.1126613,0.7659802,0.6592299
-0.1102714,0.7657854,0.669208
-0.1107805,0.7696896,0.6669675
-0.1119052,0.7734643,0.6604601
-0.1114133,0.7705738,0.6591512
-0.1156921,0.7669149,0.6572603
-0.1197024,0.766969,0.6605745
-0.1181552,0.7658174,0.6640862
-0.117362,0.763662,0.6638775
-0.1184419,0.7648626,0.6667011
-0.1181639,0.7656411,0.6639756
-0.1171721,0.7651236,0.6586746
-0.1156399,0.7657636,0.6548083
-0.1130592,0.7669085,0.6532736
-0.113176,0.7681729,0.6616928
-0.1140882,0.7656142,0.6660428
-0.1122513,0.7626683,0.6637415
-0.1121731,0.7648985,0.6655865
-0.1113702,0.7660638,0.6664297
-0.1104083,0.7649189,0.6635585
-0.1142231,0.7655731,0.6592912
-0.1174269,0.7672813,0.6596239
-0.1205015,0.7686296,0.6601277
-0.1227085,0.7689863,0.6574935
-0.1205633,0.7688716,0.6593933
-0.1185652,0.7697556,0.6577909
-0.1152545,0.7712132,0.6555792
-0.1116467,0.7707908,0.659242
-0.1111739,0.7686818,0.660672
-0.1124868,0.7674223,0.6640895
-0.1147175,0.7676293,0.6667175
-0.1131587,0.7692938,0.6641915
-0.11162,0.7716159,0.6625277
-0.1147239,0.7722129,0.6598413
-0.1176567,0.7715195,0.657531
-0.1196522,0.7707263,0.6575454
-0.1161288,0.7684118,0.6582966
-0.1103109,0.7662408,0.6601641
-0.1130708,0.7662725,0.6637956
-0.1178032,0.769968,0.6683242
-0.1180445,0.7756997,0.6664187
-0.1154825,0.7735285,0.6628249
-0.1126937,0.7671321,0.6643428
-0.1137922,0.7655955,0.6636732
-0.114583,0.7644859,0.6647441
-0.1133159,0.7656935,0.665027
-0.1143987,0.7679881,0.6594572
-0.1160567,0.7685262,0.6576914
-0.1177711,0.7705156,0.6562667
-0.1188006,0.7692003,0.660318
-0.1171312,0.7688506,0.6678105
-0.1152838,0.7703901,0.6588532
-0.1134316,0.7686908,0.6523556
-0.1128537,0.7696829,0.6594028
-0.1129029,0.7697398,0.6610135
-0.1111933,0.7688322,0.6587197
-0.1150483,0.770423,0.6568567
-0.1204076,0.7708531,0.6549972
-0.1179269,0.772792,0.6559592
-0.116709,0.7727182,0.6600009
-0.1168485,0.7711959,0.6649424
-0.1125826,0.7719286,0.6647416
-0.1117506,0.7704268,0.6579499
-0.1140008,0.7704803,0.6517055
-0.114019,0.7714477,0.6540821
-0.1138588,0.7698405,0.6585693
-0.1138871,0.7681134,0.6585712
-0.1138461,0.7650882,0.6613266
-0.1141518,0.7647823,0.663467
-0.1150612,0.7679995,0.6625867
-0.1173655,0.7690857,0.6643228
-0.1187387,0.768815,0.665769
-0.1172809,0.76787,0.6657142
-0.1140556,0.7678109,0.666001
-0.1107285,0.7694455,0.6676557
-0.1105454,0.769162,0.6673513
-0.1126435,0.767613,0.6631804
-0.1130421,0.7662511,0.6617222
-0.1140636,0.7660676,0.6631125
-0.1160248,0.766367,0.6646234
-0.1153687,0.7649278,0.6646309
-0.1148637,0.7665974,0.6637024
-0.1154132,0.7711433,0.6669506
-0.1135947,0.7723906,0.66796
-0.1099411,0.7695371,0.6643583
-0.1081838,0.7649222,0.664452
-0.1126441,0.7648586,0.6648841
-0.1184783,0.7680275,0.6635862
-0.1179493,0.7689023,0.6619554
-0.1169237,0.7692242,0.6573205
-0.1171031,0.7686387,0.6549748
-0.1144281,0.7692371,0.655999
-0.1139056,0.7702485,0.6564178
-0.1117606,0.7684484,0.6585744
-0.1063173,0.7675811,0.6605758
-0.1078687,0.7655993,0.661668
-0.1099382,0.7640633,0.6633081
-0.1081841,0.765299,0.6642952
-0.1099971,0.7643758,0.666253
-0.1094173,0.7651051,0.6680562
-0.1077074,0.7661062,0.6690705
-0.1116708,0.7650872,0.6677126
-0.1143479,0.7676523,0.6612252
-0.113696,0.7678258,0.6564456
-0.1120057,0.7643169,0.6578498
-0.1111419,0.7650976,0.6594863
-0.1150673,0.7687038,0.6581882
-0.1198034,0.7728213,0.65974
-0.1191218,0.7757943,0.662449
-0.1131987,0.7728369,0.6607103
-0.1076922,0.7682351,0.6608003
-0.1076524,0.7674794,0.6616984
-0.1102677,0.7650485,0.6605882
-0.1117451,0.7640446,0.6613879
-0.1127736,0.7676792,0.6614743
-0.1128928,0.7673584,0.6628543
-0.1120532,0.7672235,0.6656423
-0.1129525,0.7687613,0.6653068
-0.1145506,0.7675707,0.6640493
-0.11543,0.7683049,0.6627255
-0.1159422,0.7681209,0.6621698
-0.1157328,0.7680383,0.6627851
-0.1167626,0.7700158,0.6630512
-0.1160854,0.7694926,0.6627222
-0.1134217,0.7689918,0.6624274
-0.113913,0.7676569,0.6645877
-0.114037,0.7660919,0.6672994
-0.1137922,0.7671626,0.6675266
-0.115106,0.770005,0.664543
-0.1160108,0.774402,0.65915
-0.1190472,0.7755843,0.6575582
-0.12181,0.772859,0.6581608
-0.1202543,0.7703603,0.6562379
-0.115457,0.7683814,0.656771
-0.110869,0.7633107,0.6575873
-0.1112251,0.7588833,0.6568781
-0.1159945,0.7663679,0.6598813
-0.1198882,0.7745129,0.6620551
-0.1200705,0.7705129,0.660895
-0.1199736,0.7686871,0.6599722
-0.1189603,0.7720011,0.6604178
-0.1155716,0.7701673,0.6642228
-0.1172808,0.7668174,0.6673387
-0.1201642,0.7649651,0.6635887
-0.1181336,0.7630143,0.6599403
-0.1174315,0.7630445,0.6655627
-0.116485,0.7657956,0.670024
-0.1144962,0.7693312,0.6648618
-0.115123,0.7684688,0.6627154
-0.1146556,0.7659345,0.6662473
-0.1137528,0.767158,0.6673311
-0.115826,0.7669765,0.6666086
-0.1183218,0.7680155,0.6663823
-0.118776,0.7697556,0.6658323
-0.1194899,0.7646709,0.660769
-0.1211513,0.761051,0.6543526
-0.1193382,0.7634737,0.6563592
-0.116915,0.7657233,0.6634755
-0.1182165,0.7655407,0.6655137
-0.1186424,0.7659862,0.6645013
-0.1185039,0.7682354,0.6672023
-0.1192064,0.7680418,0.6684328
-0.116033,0.7666278,0.6639358
-0.1129379,0.7648127,0.6592867
-0.1164198,0.763,0.6553487
-0.1196688,0.7642588,0.6518451
-0.1178207,0.7650243,0.6539456
-0.1174622,0.7655714,0.6601204
-0.1186956,0.7677742,0.6603998
-0.1177905,0.7700667,0.6558011
-0.1179213,0.7709881,0.6560872
-0.1183904,0.7671564,0.6583494
-0.1177515,0.7637734,0.6580533
-0.1180074,0.7653284,0.658496
-0.1168694,0.7658543,0.6594584
-0.1144215,0.7648439,0.66202
-0.1136147,0.7654971,0.6645929
-0.1153643,0.7662167,0.6595006
-0.1194518,0.7659766,0.6545284
-0.1218665,0.7659316,0.6582904
-0.1197122,0.7656228,0.6630177
-0.1140907,0.7643576,0.6688412
-0.1103224,0.7630481,0.6732421
-0.1149674,0.762071,0.6699091
-0.1202227,0.7617893,0.6673957
-0.1162952,0.765081,0.6640795
-0.1134015,0.76952,0.6589079
-0.1165699,0.7667862,0.661038
-0.1172086,0.7633327,0.662301
-0.1178853,0.766017,0.6605945
-0.1182741,0.7660061,0.6643166
-0.1131644,0.766233,0.6679954
-0.1088707,0.7689478,0.6702713
-0.1075306,0.7662018,0.6732592
-0.10782,0.7647074,0.6718708
-0.1072778,0.7683388,0.6677295
-0.1049176,0.7694604,0.6641952
-0.1085144,0.7651177,0.6601663
-0.1130932,0.7611317,0.6577558
-0.1127651,0.7649676,0.6596512
-0.1133883,0.7687894,0.6618043
-0.1140888,0.7673753,0.6581123
-0.113812,0.7698223,0.6535946
-0.112759,0.7729105,0.6548703
-0.1111958,0.7711662,0.6590262
-0.1104567,0.7702177,0.6632003
-0.1083134,0.7701037,0.6634683
-0.1062877,0.7689715,0.6612453
-0.106605,0.7686307,0.6621634
-0.1074115,0.7688622,0.6617146
-0.1068777,0.7695168,0.660215
-0.1068038,0.7697465,0.6596925
-0.1082476,0.7691891,0.6568507
-0.1087423,0.7694692,0.6549259
-0.1101519,0.7697756,0.6555204
-0.1117436,0.7703304,0.6626213
-0.1107288,0.7721033,0.6712277
-0.1091727,0.7726152,0.6659578
-0.1076775,0.7720251,0.6581065
-0.1070685,0.7720513,0.6591843
-0.1060053,0.771221,0.6624769
-0.1040122,0.7697787,0.6665516
-0.1040408,0.7701707,0.6649285
-0.1042736,0.7724514,0.6602068
-0.1040789,0.7744874,0.6614083
-0.1037211,0.7744167,0.6612312
-0.1014062,0.770354,0.660409
-0.1002981,0.7646519,0.6608934
-0.1050427,0.7649664,0.6591398
-0.1107251,0.7698277,0.6605997
-0.1096311,0.7721484,0.6617074
-0.1085556,0.7736677,0.6597317
-0.1108345,0.7753072,0.6596436
-0.1099844,0.7744446,0.6603321
-0.1118851,0.7728216,0.6635552
-0.1146218,0.772056,0.6671763
-0.1091528,0.7695605,0.6662268
-0.1048994,0.7660813,0.6638397
-0.1061289,0.7676949,0.6616316
-0.1059464,0.771719,0.6592821
-0.1048416,0.773,0.6601716
-0.104781,0.7738843,0.6640333
-0.1041804,0.772905,0.664225
-0.1042135,0.7692106,0.6624612
-0.107422,0.7669267,0.6626489
-0.1104007,0.768844,0.6621793
-0.1117605,0.7732716,0.66194
-0.1133186,0.7757594,0.6596436
-0.1143235,0.7756088,0.6581134
-0.1154547,0.773997,0.6619235
-0.1145583,0.7726321,0.6622293
-0.1122379,0.769613,0.6616088
-0.112373,0.7663511,0.6667874
-0.1124528,0.7684455,0.6694728
-0.1115215,0.768505,0.6677983
-0.1101862,0.7660509,0.6662507
-0.1073772,0.7663591,0.6612963
-0.1057873,0.7656029,0.654818
-0.1107171,0.7667828,0.6570418
-0.1181015,0.7673729,0.6613769
-0.1174104,0.7658321,0.6591148
-0.1144242,0.7671329,0.6595227
-0.115753,0.7666975,0.6613161
-0.1155723,0.7666414,0.6598841
-0.1167326,0.7689335,0.6611155
-0.1185731,0.7698106,0.6632495
-0.1151811,0.7703188,0.6652167
-0.1133241,0.7693622,0.6649616
-0.1166048,0.769193,0.6592483
-0.1187264,0.7703988,0.655549
-0.115119,0.7686103,0.6561503
-0.1105542,0.7645345,0.6559439
-0.111366,0.7613625,0.6549017
-0.1148166,0.7629491,0.6607558
-0.1194576,0.7677986,0.6694665
-0.1223856,0.770404,0.665961
-0.1205509,0.7696678,0.658639
-0.1205069,0.7677184,0.6572936
-0.1223144,0.7669034,0.6602842
-0.1222004,0.7656918,0.6662877
-0.1221191,0.764645,0.6642637
-0.1209733,0.7655768,0.6610499
-0.1184831,0.7653397,0.6636481
-0.1564355,0.8387645,0.5609556
-0.1536812,0.8363823,0.5637564
-0.1601573,0.8316744,0.5632312
-0.1734455,0.8196984,0.5686716
-0.1778511,0.8117667,0.5741564
-0.1704046,0.8298121,0.5707681
-0.163378,0.8508625,0.5664816
-0.1670508,0.8409111,0.5635884
-0.1701848,0.8322341,0.5595388
-0.1683998,0.8355127,0.5634537
-0.1701617,0.830311,0.5718049
-0.1692085,0.8342672,0.5689812
-0.1661494,0.8399924,0.5671309
-0.1634711,0.8359548,0.5688837
-0.1592562,0.8376125,0.5634194
-0.1619614,0.8361937,0.5653352
-0.1670602,0.8335048,0.5699509
-0.1700496,0.837708,0.5667837
-0.1724953,0.8397733,0.5652239
-0.1699156,0.8417868,0.564368
-0.1696918,0.841394,0.5654553
-0.1710966,0.8375186,0.5650426
-0.1700584,0.8357128,0.5628007
-0.1713827,0.8362573,0.5664903
-0.1692792,0.8382969,0.5675843
-0.1654473,0.8350858,0.5680251
-0.1624626,0.8307542,0.570982
-0.1595407,0.83047,0.5716595
-0.1615305,0.8302107,0.5734863
-0.1610789,0.8317609,0.5724238
-0.157616,0.8315041,0.5709187
-0.1580165,0.8313341,0.5710526
-0.1626295,0.8359504,0.5677302
-0.1690675,0.8402655,0.5673982
-0.1671117,0.8421957,0.5687311
-0.1627228,0.8407309,0.5675453
-0.1634415,0.8398575,0.567698
-0.1601189,0.8390742,0.5694188
-0.158683,0.8353143,0.5726228
-0.1608973,0.8358007,0.5745445
-0.1610534,0.8370001,0.5731372
-0.1629637,0.836722,0.5711884
-0.1620244,0.8398852,0.5684068
-0.1600392,0.8404187,0.5659533
-0.1612512,0.8373384,0.5681014
-0.1593496,0.8353187,0.5733934
-0.1575047,0.8357718,0.5746324
-0.1584324,0.8368095,0.5671219
-0.1585319,0.8357273,0.5594141
-0.1578597,0.8358186,0.5626011
-0.156128,0.8354673,0.5682201
-0.1530135,0.8331157,0.5687835
-0.1501325,0.8331833,0.5702484
-0.1505283,0.8340153,0.5705605
-0.1545908,0.8358752,0.570283
-0.1582744,0.8384706,0.5710144
-0.1573652,0.837505,0.5667662
-0.1549274,0.8360523,0.5639944
-0.1558291,0.8361735,0.565524
-0.1557114,0.8361954,0.5657407
-0.1550545,0.8370086,0.5677781
-0.1559242,0.8375014,0.5720603
-0.1543631,0.8355467,0.5749617
-0.1538255,0.8332903,0.5728736
-0.1542358,0.8342343,0.5682196
-0.153221,0.8370608,0.5655683
-0.153971,0.8377417,0.5632165
-0.1559976,0.8356222,0.562773
-0.1574092,0.8341639,0.5643772
-0.1552515,0.8355844,0.5680514
-0.153007,0.8367524,0.5720189
-0.1545321,0.8359455,0.572261
-0.1543574,0.8357455,0.5725747
-0.1536265,0.8354823,0.5721083
-0.153568,0.8346534,0.5716602
-0.1534249,0.8363934,0.5716367
-0.1585885,0.8378376,0.5682263
-0.1656936,0.83479,0.5666574
-0.1665435,0.8325054,0.563874
-0.1644001,0.8351103,0.5605845
-0.1653139,0.8370251,0.5665794
-0.1657703,0.8348358,0.5732904
-0.164555,0.8331802,0.5715661
-0.1643032,0.8332224,0.5695736
-0.1618987,0.832681,0.5730269
-0.1599795,0.8331498,0.5731456
-0.1603765,0.8339822,0.5709078
-0.1586462,0.8341764,0.5720755
-0.1580953,0.8354343,0.5678273
-0.1603936,0.8349446,0.5640015
-0.1616708,0.8321513,0.5690547
-0.1612139,0.8323189,0.5717618
-0.1607669,0.8356842,0.5670844
-0.1613178,0.8384486,0.5626937
-0.1613302,0.8380648,0.5650007
-0.1618045,0.8366168,0.5681117
-0.1626264,0.8374683,0.5676413
-0.1603518,0.8360622,0.5665877
-0.1571639,0.8335252,0.5645191
-0.1567554,0.8350135,0.5649592
-0.1588392,0.8353915,0.5660517
-0.1601039,0.8360189,0.5646743
-0.1577577,0.8384362,0.5654364
-0.1551654,0.8368207,0.5656912
-0.1555221,0.8334822,0.5666513
-0.1567018,0.8314068,0.5708774
-0.1576426,0.8322702,0.57026
-0.1597043,0.8345765,0.5647029
-0.1612753,0.8340229,0.5642447
-0.158597,0.8347299,0.5697635
-0.1543231,0.8361286,0.5730713
-0.153387,0.8345739,0.5747938
-0.1541757,0.8328793,0.5757654
-0.1583839,0.8319012,0.5732233
-0.1639478,0.8346567,0.5725088
-0.158145,0.8393839,0.5700128
-0.1487268,0.8391371,0.5600179
-0.1500928,0.8372208,0.5526825
-0.1535246,0.8356814,0.5598046
-0.155132,0.8339617,0.5709072
-0.1551133,0.8347436,0.5671053
-0.1505298,0.8350687,0.5651193
-0.1489248,0.8340381,0.5720537
-0.1494694,0.8330771,0.5706557
-0.1478869,0.831429,0.5720133
-0.1468006,0.8317981,0.5738669
-0.1459317,0.8335387,0.5699197
-0.1484044,0.8342371,0.5709995
-0.1523666,0.8350246,0.5700941
-0.152581,0.8347016,0.5717681
-0.152924,0.8333079,0.574139
-0.1550829,0.8324019,0.5695665
-0.1568399,0.8317355,0.5715204
-0.1571724,0.8327688,0.5742074
-0.1557462,0.8339303,0.5747086
-0.1542558,0.8333278,0.5763111
-0.1539737,0.8341124,0.5730056
-0.1543629,0.8357415,0.5715947
-0.1547567,0.8368021,0.570976
-0.1543802,0.8368975,0.5702949
-0.15427,0.8343392,0.5685866
-0.1567965,0.833748,0.5629845
-0.1591872,0.8356274,0.5646829
-0.1600637,0.8345662,0.5671431
-0.1626959,0.8340755,0.567547
-0.1641356,0.8344495,0.5697538
-0.1635458,0.8330492,0.56674
-0.1641768,0.8349838,0.5680774
-0.1633428,0.8371909,0.5691988
-0.1609522,0.8358219,0.5659762
-0.159963,0.8359229,0.5668591
-0.1627356,0.836217,0.5642518
-0.1668456,0.8350261,0.5644989
-0.1644856,0.834881,0.5650743
-0.1615184,0.8363998,0.5610354
-0.1634506,0.8389417,0.5636516
-0.1641515,0.8412175,0.5644426
-0.1653428,0.8427598,0.5650537
-0.1647633,0.839024,0.5677523
-0.1611284,0.8320656,0.5665603
-0.1615898,0.8324964,0.5693871
-0.1618611,0.8345584,0.5711208
-0.1596689,0.832609,0.5723185
-0.1585314,0.8339012,0.575398
-0.1581716,0.8369827,0.5734634
-0.159566,0.8404538,0.5708045
-0.1609191,0.8422843,0.5658695
-0.1613295,0.8368206,0.5641277
-0.1612213,0.8328616,0.5668699
-0.1613601,0.8349196,0.564677
-0.164024,0.8356252,0.5662074
-0.1660458,0.8359104,0.5667011
-0.1654679,0.8373541,0.5642405
-0.1648759,0.8371681,0.5722507
-0.1653828,0.8370395,0.5827164
-0.1649684,0.8380596,0.5877206
-0.1622714,0.8370499,0.5797933
-0.1606606,0.8353353,0.5647119
-0.1620879,0.8346949,0.5652103
-0.1651309,0.8341903,0.566352
-0.1667929,0.8351058,0.5599211
-0.1661002,0.8351917,0.5636489
-0.1641515,0.8356622,0.5652905
-0.162256,0.8371429,0.5615444
-0.1657179,0.8359076,0.5649247
-0.1692687,0.8373227,0.5722437
-0.1636161,0.8386996,0.5797425
-0.1570722,0.8363473,0.5756068
-0.1568706,0.8368056,0.5668326
-0.1606467,0.8364649,0.5713662
-0.1638732,0.836231,0.5720619
-0.1624863,0.8384759,0.5675421
-0.1608204,0.8370082,0.569991
-0.1615674,0.8349227,0.5695296
-0.1618653,0.8329545,0.5676627
-0.1626526,0.8311601,0.5664962
-0.1628877,0.8340208,0.5642772
-0.1622215,0.8354567,0.5672186
-0.1633981,0.8333114,0.5745411
-0.1626999,0.8321382,0.5805986
-0.1584381,0.8316772,0.5760365
-0.1563684,0.8323337,0.5690345
-0.1593818,0.8342191,0.574483
-0.1626278,0.8368877,0.5767129
-0.161069,0.8380208,0.5711338
-0.1603136,0.8354711,0.5691127
-0.1618972,0.8339361,0.565623
-0.1607997,0.8348662,0.5646019
-0.1603854,0.8352677,0.5688456
-0.1588908,0.836334,0.5694187
-0.1556833,0.8380738,0.5669277
-0.1564969,0.8376164,0.565482
-0.1558171,0.8360964,0.5710997
-0.1529072,0.8360797,0.5782956
-0.1530446,0.8357664,0.5768043
-0.1521575,0.834043,0.5769325
-0.1509325,0.8320704,0.5786496
-0.1533644,0.8311357,0.5741349
-0.1550006,0.831386,0.5719616
-0.1539829,0.8302104,0.5731757
-0.1546952,0.8297335,0.573733
-0.1579657,0.8321284,0.5739526
-0.1606946,0.8337826,0.5737832
-0.1598034,0.8344692,0.5763675
-0.1571455,0.8365132,0.5781076
-0.1567634,0.8393627,0.5739974
-0.1560315,0.8370783,0.5698814
-0.152417,0.8326231,0.5709078
-0.149738,0.8349872,0.5742337
-0.1542397,0.8358535,0.5755009
-0.1621232,0.8346449,0.5738939
-0.1613304,0.8381214,0.5678389
-0.1563908,0.8387732,0.5597276
-0.1551649,0.8385798,0.5581351
-0.1549969,0.8395149,0.560541
-0.1562716,0.8383563,0.5602067
-0.1565144,0.8387153,0.5615319
-0.1566293,0.8372799,0.5668169
-0.1572013,0.8353629,0.5712333
-0.1536697,0.8371707,0.5721017
-0.1516372,0.8377857,0.5680499
-0.1516693,0.8365223,0.5634794
-0.152113,0.8357071,0.5659205
-0.1551311,0.8361023,0.5688819
-0.1557159,0.836367,0.5693917
-0.1561997,0.8358497,0.5732868
-0.1589182,0.8364138,0.5719541
-0.160327,0.8373983,0.56398
-0.1614687,0.8394169,0.5586954
-0.1612205,0.8407386,0.5574349
-0.1592796,0.8382008,0.562168
-0.1567547,0.8357831,0.5675344
-0.1538389,0.8359134,0.5690009
-0.1535729,0.8362976,0.5701281
-0.1549062,0.8360782,0.5673125
-0.1549138,0.8354963,0.5635027
-0.1557851,0.8333556,0.5647723
-0.1567294,0.8303531,0.5662836
-0.1558616,0.8306678,0.5651958
-0.1555368,0.832436,0.5654764
-0.155963,0.833076,0.5676334
-0.1587317,0.8359433,0.5692593
-0.1634623,0.8373128,0.573038
-0.164571,0.8351354,0.5736614
-0.1621147,0.8352098,0.5698098
-0.158413,0.8349923,0.5693027
-0.1559458,0.8341866,0.56611
-0.1569396,0.8361501,0.5652759
-0.1581792,0.8361559,0.5701329
-0.1567633,0.8349621,0.570333
-0.1530715,0.834385,0.571387
-0.1509771,0.8325664,0.5709851
-0.1551982,0.8319122,0.5707394
-0.1614614,0.8331196,0.5739311
-0.1614435,0.8364459,0.5680542
-0.1577464,0.8385994,0.5637888
-0.1572723,0.8372328,0.5644447
-0.1611585,0.8369431,0.5637458
-0.164938,0.8356286,0.5698198
-0.1606125,0.8322094,0.5720471
-0.1550024,0.8314508,0.5687252
-0.1571771,0.8335378,0.5692987
-0.1576112,0.836511,0.570492
-0.1557866,0.8377921,0.5719453
-0.1556572,0.8359316,0.5732116
-0.1544224,0.8334007,0.5751707
-0.1582078,0.8332072,0.5730961
-0.1632187,0.8338185,0.5688088
-0.1606296,0.8348559,0.5705572
-0.1574379,0.8372979,0.5678707
-0.1576119,0.837825,0.5642132
-0.1600662,0.8381525,0.5699415
-0.1636866,0.838512,0.574185
-0.1621877,0.8369573,0.5722593
-0.1596063,0.8374628,0.5703803
-0.161395,0.8374513,0.5684526
-0.1594387,0.8353791,0.5642806
-0.1561467,0.8344183,0.5659813
-0.1571302,0.8343979,0.5703001
-0.1569736,0.8349434,0.5675369
-0.1567956,0.8333818,0.5686719
-0.1577143,0.8310264,0.5726348
-0.1593677,0.8304729,0.572334
-0.1621215,0.8314924,0.5739724
-0.1613714,0.8345857,0.5733318
-0.1604027,0.8361539,0.5698015
-0.1616019,0.8361641,0.5686061
-0.1608543,0.8362919,0.5683224
-0.1600117,0.836006,0.5675576
-0.1597187,0.8373623,0.5674875
-0.1592654,0.8386936,0.5722088
-0.1592395,0.8387101,0.5759596
-0.159292,0.8372613,0.572919
-0.1615181,0.8350865,0.5677818
-0.1628447,0.834847,0.564061
-0.1581746,0.8329116,0.5665348
-0.15228,0.8301856,0.5703654
-0.1493129,0.8313338,0.57072
-0.1500035,0.8324709,0.5752869
-0.1583284,0.8320436,0.5777249
-0.1668655,0.8327043,0.5728927
-0.1625577,0.8342521,0.5711991
-0.1555568,0.836119,0.5725357
-0.1577319,0.8376753,0.5717708
-0.160039,0.8362232,0.5694366
-0.1609275,0.8335536,0.5674149
-0.1613314,0.8346779,0.568865
-0.1586329,0.8352506,0.5712057
-0.1606381,0.8333474,0.5705089
-0.1619251,0.8341881,0.5685526
-0.1583425,0.8352642,0.5658833
-0.1584366,0.8353383,0.564746
-0.1594431,0.8357339,0.5673261
-0.1617341,0.835162,0.568653
-0.1633712,0.8350872,0.5668372
-0.1610411,0.833984,0.5653188
-0.1609672,0.8330928,0.5650735
-0.1613274,0.836246,0.5656949
-0.1619195,0.8385255,0.5667534
-0.1622969,0.8374855,0.5671008
-0.1587017,0.837104,0.5667832
-0.1559217,0.8377644,0.5683067
-0.156526,0.8369917,0.5703198
-0.1580513,0.8349694,0.5694226
-0.1583011,0.8345059,0.5690278
-0.1591873,0.8362574,0.5703869
-0.1596307,0.8370627,0.5721216
-0.1580826,0.8364289,0.5749141
-0.1585083,0.8377093,0.5743469
-0.1573836,0.8381141,0.5723946
-0.1567676,0.8367675,0.5741225
-0.1602104,0.8378266,0.5739456
-0.1615952,0.8376894,0.5729034
-0.1614497,0.8362883,0.5738051
-0.1605827,0.8344208,0.571701
-0.1599098,0.8306011,0.5698425
-0.1589161,0.8327008,0.5694459
-0.1561229,0.8393327,0.5654834
-0.1552711,0.8422562,0.561715
-0.1548236,0.8394958,0.5627579
-0.1589335,0.8338103,0.5672008
-0.1643284,0.8338842,0.5716478
-0.1589794,0.834537,0.5732252
-0.1546394,0.8304683,0.5721101
-0.1580751,0.8303378,0.5717273
-0.1601371,0.8324217,0.5723637
-0.1607363,0.8355552,0.5688697
-0.1590272,0.8389887,0.5615128
-0.1561793,0.8369173,0.5576008
-0.1596412,0.8342046,0.5638044
-0.1647173,0.8336012,0.5715394
-0.1640583,0.8354755,0.5676779
-0.1635003,0.8381751,0.5644269
-0.1637408,0.8340941,0.5664742
-0.1612712,0.8305174,0.5644187
-0.1604718,0.8348996,0.5652441
-0.161158,0.8370548,0.5660666
-0.1607247,0.8330713,0.5642826
-0.1606856,0.8305824,0.566302
-0.1616964,0.8313684,0.5669788
-0.1621086,0.8319499,0.5678186
-0.1622971,0.833513,0.5671388
-0.1630493,0.8356789,0.5639279
-0.1623607,0.8344182,0.5674911
-0.1632342,0.8323546,0.5728994
-0.1639451,0.832092,0.5755896
-0.1599056,0.832651,0.5738467
-0.1572989,0.8347231,0.5685757
-0.1584499,0.8354187,0.5684714
-0.1604655,0.8353254,0.5672365
-0.1606623,0.8375069,0.5658531
-0.1589337,0.8368383,0.5714849
-0.1577473,0.8318271,0.5722388
-0.1556197,0.828232,0.5687706
-0.1555112,0.8314913,0.5682377
-0.1588214,0.8373735,0.5672016
-0.1616551,0.8373011,0.5692322
-0.1636412,0.8370248,0.5704957
-0.1648921,0.8383061,0.5656442
-0.1656025,0.8362001,0.5647594
-0.164021,0.8340149,0.567634
-0.1614453,0.8315628,0.5682421
-0.1608989,0.8327677,0.5684635
-0.1608727,0.8361833,0.5676615
-0.1608339,0.8325684,0.5680142
-0.1584485,0.8312337,0.5685096
-0.1560236,0.8353876,0.5676688
-0.1578682,0.8366824,0.5691276
-0.1588304,0.8363618,0.5674068
-0.1572366,0.8355241,0.5604116
-0.157605,0.83474,0.5566968
-0.1623769,0.8321061,0.564951
-0.1670777,0.8296877,0.575315
-0.1651848,0.8338106,0.5710376
-0.161452,0.8378172,0.5683427
-0.1611136,0.8374205,0.5738867
-0.1619906,0.8356582,0.574644
-0.1637352,0.8340059,0.5784394
-0.1641141,0.8346985,0.5795876
-0.1617004,0.8350819,0.5744282
-0.1606317,0.8344127,0.5724465
-0.1610979,0.8348369,0.5671469
-0.1610466,0.8347672,0.5687518
-0.1598964,0.8342597,0.5753333
-0.1574995,0.8330224,0.5694449
-0.1571502,0.8311848,0.5682036
-0.1606793,0.8311867,0.5727892
-0.1646642,0.8325113,0.5718158
-0.1647242,0.8339024,0.5723207
-0.1639242,0.8358235,0.5707065
-0.1661151,0.8381619,0.5699009
-0.1664493,0.8388863,0.5718439
-0.1662551,0.8353834,0.5706745
-0.1673351,0.8323109,0.5722117
-0.1655611,0.8359495,0.5731309
-0.1628414,0.838588,0.5709189
-0.1591728,0.8344759,0.5697593
-0.1571302,0.8318838,0.567449
-0.1593823,0.8330235,0.5679347
-0.1607158,0.8334631,0.5719429
-0.161733,0.8333689,0.5741191
-0.162559,0.8333462,0.5735135
-0.1641112,0.8330671,0.569943
-0.1672162,0.8328741,0.5682047
-0.1656931,0.8331046,0.5702474
-0.1636525,0.8334704,0.5706339
-0.1640427,0.8313943,0.5714896
-0.1639463,0.826013,0.5731037
-0.1659304,0.8226939,0.5713416
-0.1664671,0.826676,0.5693714
-0.1630941,0.8338643,0.5685488
-0.1601238,0.8351383,0.5719821
-0.1616539,0.8324314,0.5780922
-0.1647277,0.8322616,0.5763694
-0.1626075,0.8318713,0.5722891
-0.1582637,0.8305451,0.5715869
-0.1557131,0.8296437,0.5728965
-0.160984,0.8295954,0.5824965
-0.1705168,0.8336918,0.5897884
-0.1685997,0.8373144,0.5815823
-0.1653603,0.8344526,0.5732319
-0.1678006,0.8309873,0.5736596
-0.1661183,0.8319507,0.5710165
-0.165937,0.8324081,0.5684293
-0.1652147,0.8316156,0.5705705
-0.1635971,0.8331094,0.5680598
-0.1676431,0.8336508,0.5693491
-0.1668536,0.8331672,0.5750013
-0.1616626,0.8334573,0.5728294
-0.1597917,0.8330245,0.5748368
-0.1597905,0.8325322,0.5792607
-0.1637462,0.8316777,0.5799978
-0.1675208,0.8319,0.585669
-0.1674042,0.8332243,0.5842349
-0.1690094,0.8331627,0.5741958
-0.1715808,0.8325856,0.5689612
-0.169814,0.8317864,0.5697721
-0.165034,0.8326169,0.5725788
-0.1611189,0.8340365,0.5712859
-0.1590723,0.8333177,0.5717131
-0.1611328,0.8340543,0.5739233
-0.1639301,0.8349218,0.5729253
-0.1621736,0.8328245,0.5757624
-0.1621754,0.8312777,0.5758132
-0.1641182,0.8320407,0.572737
-0.1636686,0.8332029,0.5715257
-0.1640895,0.8335634,0.5661256
-0.1639177,0.8346405,0.5652587
-0.163612,0.8367957,0.5665587
-0.1642593,0.8373173,0.5640388
-0.1637938,0.8340765,0.5667128
-0.164845,0.8304719,0.5674015
-0.1656959,0.831715,0.5657944
-0.1647682,0.8328761,0.5680547
-0.1635315,0.8312581,0.5699519
-0.1619184,0.8320396,0.5731888
-0.1632102,0.8330163,0.5728818
-0.1673978,0.8350344,0.5700115
-0.1703421,0.8383853,0.5722204
-0.1680607,0.8350126,0.5752446
-0.1614929,0.8306134,0.5780384
-0.1583531,0.8320373,0.5751537
-0.1611814,0.8323922,0.5687115
-0.1683242,0.8318396,0.5708226
-0.17377,0.8346716,0.5720958
-0.1693642,0.8388665,0.5705893
-0.1642598,0.8403437,0.5731079
-0.1680297,0.8345736,0.5725285
-0.1703429,0.8268999,0.5735262
-0.1686512,0.8275199,0.5799135
-0.1696136,0.8322936,0.5825996
-0.1685933,0.8333535,0.5788221
-0.1657874,0.8300509,0.5742105
-0.1641574,0.826729,0.57522
-0.1617045,0.8305048,0.5750642
-0.1630652,0.835671,0.5721033
-0.1655481,0.8340439,0.5739156
-0.1663786,0.8308407,0.5742544
-0.1706239,0.8284452,0.5750154
-0.1718615,0.8287733,0.5769085
-0.1691587,0.8319756,0.573381
-0.1693042,0.8318871,0.5750976
-0.1692413,0.8306044,0.5758116
-0.1671741,0.8289387,0.5698679
-0.1644424,0.8276181,0.5728728
-0.1630525,0.8301157,0.5744183
-0.1641203,0.8313025,0.5717496
-0.164121,0.8318282,0.5742045
-0.1637261,0.8326603,0.5715644
-0.1649911,0.8313571,0.5713253
-0.1653604,0.8320372,0.5730951
-0.1643653,0.8322814,0.5673482
-0.1637466,0.8307439,0.5669129
-0.1646685,0.8287369,0.5713303
-0.166,0.8257269,0.5757247
-0.1661141,0.828501,0.5763967
-0.1665225,0.8324787,0.573291
-0.1661469,0.8302031,0.5752789
-0.1646579,0.8299154,0.5726634
-0.16508,0.8306158,0.5701818
-0.1647478,0.8265755,0.5779272
-0.1632638,0.8247624,0.581845
-0.1642902,0.8293442,0.5783598
-0.1659449,0.8330958,0.5748605
-0.1669296,0.8286849,0.5781588
-0.167022,0.8240944,0.5804528
-0.1659057,0.8267951,0.574811
-0.1649836,0.8272081,0.5717215
-0.1642525,0.8259269,0.5714027
-0.1674798,0.8297872,0.5766343
-0.1738487,0.8321298,0.5825852
-0.1737254,0.8312288,0.5758317
-0.1684219,0.8302508,0.5696025
-0.1658773,0.8302297,0.5697912
-0.1681979,0.8310474,0.5679912
-0.1715425,0.8304878,0.5681288
-0.1702655,0.831331,0.5704027
-0.1692762,0.8325728,0.569532
-0.1699901,0.83168,0.5691121
-0.1654407,0.8315874,0.5718668
-0.1615913,0.8306385,0.572579
-0.1636455,0.8302474,0.5728663
-0.1663471,0.8324261,0.5764398
-0.1671194,0.8321098,0.5807498
-0.166603,0.8295807,0.5806169
-0.1665389,0.8285914,0.5749017
-0.1666067,0.8282924,0.5727674
-0.165546,0.8275913,0.5732508
-0.1641176,0.8280021,0.5739666
-0.1638644,0.8297452,0.5787839
-0.1657882,0.8310119,0.5785267
-0.1669499,0.8309431,0.5763351
-0.164944,0.83108,0.5776301
-0.1630321,0.8323759,0.5749681
-0.1638484,0.832163,0.5734049
-0.1641851,0.8314889,0.5712299
-0.1626057,0.8322602,0.5673235
-0.1624828,0.8319106,0.5730205
-0.1638345,0.8321132,0.5789909
-0.1658708,0.8338125,0.5743124
-0.1670723,0.834538,0.568176
-0.1647904,0.834762,0.5669986
-0.1634074,0.8342386,0.5713995
-0.1657784,0.8323825,0.5773084
-0.1674677,0.8311571,0.575474
-0.1675595,0.8324636,0.5717548
-0.1707402,0.8341399,0.5718947
-0.1743995,0.8347376,0.5685046
-0.1694613,0.8352083,0.5687887
-0.163179,0.8344093,0.5728617
-0.164705,0.8340328,0.5724252
-0.1630284,0.8325152,0.5760499
-0.1567488,0.8292769,0.5792033
-0.1561187,0.8302454,0.5774092
-0.1579807,0.830434,0.5777692
-0.1595105,0.8285743,0.5775659
-0.1618755,0.8311141,0.5749896
-0.1614983,0.8324511,0.5663459
-0.1604528,0.8299695,0.5582884
-0.1614351,0.8282835,0.5631855
-0.1610357,0.8283793,0.569581
-0.159899,0.8293629,0.5725814
-0.1591934,0.8316893,0.5793949
-0.1568409,0.8344953,0.5799332
-0.1548526,0.8328391,0.5752639
-0.1547851,0.8285592,0.5781838
-0.1531104,0.8255654,0.5770493
-0.1492046,0.824064,0.5726695
-0.1474283,0.8262063,0.5761112
-0.1478261,0.827319,0.5751749
-0.1490827,0.8266513,0.5740273
-0.1533618,0.8283428,0.5757964
-0.1554967,0.8284736,0.5729184
-0.1535857,0.8299608,0.574249
-0.1537445,0.8332244,0.5758806
-0.1527276,0.832032,0.5747503
-0.149951,0.831301,0.5758714
-0.1487283,0.8324422,0.5767254
-0.147101,0.831825,0.5799618
-0.1484256,0.8317895,0.5828068
-0.1512263,0.8314512,0.5805234
-0.1499793,0.8282391,0.5780098
-0.1493818,0.825298,0.580134
-0.1503858,0.8262274,0.5816205
-0.1489394,0.828016,0.5785347
-0.1481331,0.8276902,0.5745113
-0.1488612,0.8279161,0.5692094
-0.1487202,0.828862,0.5700718
-0.1500082,0.8292081,0.5753349
-0.1530422,0.8294058,0.5740557
-0.1549728,0.8295248,0.5741129
-0.1540374,0.8317919,0.5748765
-0.151784,0.8343796,0.5739472
-0.1506667,0.8328827,0.5764609
-0.1485567,0.8301356,0.5778141
-0.1464812,0.8287209,0.5805989
-0.147417,0.8289641,0.5820745
-0.1493549,0.8305385,0.5768629
-0.1513297,0.8312325,0.5760118
-0.154555,0.8331275,0.5784169
-0.1580566,0.8353083,0.5751233
-0.1576402,0.8331315,0.5719583
-0.1558783,0.8303056,0.5709161
-0.1572297,0.8295628,0.5699721
-0.1563139,0.8281152,0.5727201
-0.1548466,0.8279668,0.5753094
-0.1570438,0.8294546,0.5784726
-0.1581397,0.8300256,0.5832481
-0.1582602,0.8315791,0.5807496
-0.1571234,0.8315383,0.5769827
-0.1536582,0.8286884,0.5742693
-0.1522517,0.8280659,0.5696303
-0.1539038,0.828304,0.5715032
-0.1565866,0.8301055,0.5761831
-0.1572959,0.8333555,0.5794165
-0.1558686,0.8329327,0.5803088
-0.1552845,0.8327628,0.577271
-0.1554725,0.8327348,0.5754401
-0.1555655,0.8295074,0.5734881
-0.1546035,0.8288423,0.5736231
-0.1543059,0.8315836,0.574923
-0.1569538,0.834291,0.5732038
-0.1591864,0.8353989,0.5753419
-0.158419,0.8342057,0.5773063
-0.156864,0.8325508,0.5773221
-0.1569276,0.8307747,0.5777234
-0.1573791,0.8299228,0.5733357
-0.1585345,0.8308543,0.5692881
-0.1606768,0.8308446,0.5663736
-0.1605246,0.8315004,0.5680163
-0.1600215,0.8342671,0.5757949
-0.1597839,0.8349265,0.5792621
-0.1583526,0.8328584,0.5836606
-0.1588457,0.8312619,0.5811467
-0.161018,0.8323431,0.5695748
-0.1630143,0.8350963,0.570093
-0.1619781,0.8366058,0.572072
-0.158576,0.8362533,0.5711931
-0.1563361,0.8339418,0.5760435
-0.1514675,0.8299981,0.5768831
-0.1504806,0.8269725,0.5758513
-0.162882,0.8288766,0.5737401
-0.1755465,0.832216,0.5710356
-0.1749435,0.8302997,0.5715938
-0.1690734,0.8297837,0.5666537
-0.169018,0.8315317,0.5574716
-0.1699479,0.8299831,0.5538038
-0.1687524,0.8308905,0.5599592
-0.1689312,0.8328057,0.5697371
-0.167526,0.8332855,0.5738736
-0.1662623,0.8343388,0.5727804
-0.1643801,0.8345806,0.5701071
-0.1610382,0.8365039,0.5708881
-0.1625646,0.8355115,0.5715921
-0.1632088,0.8314775,0.571223
-0.1628198,0.8306746,0.5751025
-0.1682674,0.8288336,0.57644
-0.1719173,0.8289537,0.5764193
-0.1685623,0.8323296,0.5779496
-0.1652567,0.8323493,0.5783631
-0.1685159,0.8316428,0.5795444
-0.1709652,0.831971,0.5771311
-0.1683163,0.8320394,0.5744794
-0.167275,0.8319056,0.5751611
-0.1646255,0.8318617,0.5746389
-0.1616935,0.8317448,0.5742709
-0.1628007,0.8298438,0.5740349
-0.161963,0.827945,0.5769014
-0.1596125,0.8282599,0.5802319
-0.1583552,0.8299562,0.5765174
-0.1605941,0.8312176,0.5732968
-0.1649906,0.8316443,0.5745044
-0.1641752,0.8306711,0.5747512
-0.1633002,0.8285911,0.5746652
-0.1650553,0.8306761,0.5754282
-0.1635227,0.8333103,0.5749312
-0.1619434,0.831509,0.5748776
-0.1623835,0.8320347,0.5764782
-0.1625363,0.8342341,0.5778501
-0.161084,0.8336134,0.5802589
-0.1579478,0.8288566,0.5798929
-0.1558827,0.8228965,0.5750569
-0.1544353,0.8251774,0.5737054
-0.1513575,0.828401,0.5745311
-0.149723,0.8253963,0.5725219
-0.1543533,0.8268696,0.5709369
-0.1590716,0.8308388,0.5699175
-0.1561418,0.8322005,0.5676897
-0.1524367,0.8325733,0.5695322
-0.1511654,0.830353,0.574653
-0.1506403,0.8302404,0.5766051
-0.1520411,0.8311023,0.5778283
-0.1512023,0.8299976,0.5766785
-0.1499786,0.8314207,0.5739204
-0.1503494,0.8330863,0.5769912
-0.1493505,0.834306,0.5789289
-0.1492879,0.8331375,0.5763464
-0.1487404,0.8286466,0.5731818
-0.14894,0.827349,0.5687264
-0.1514363,0.8276666,0.5691809
-0.1525011,0.8289956,0.5742607
-0.1546339,0.8306791,0.5765888
-0.1550029,0.83015,0.5766613
-0.1531473,0.8300136,0.5752837
-0.1546194,0.8289288,0.5745233
-0.1543843,0.8299114,0.5743866
-0.1534041,0.8324022,0.5718907
-0.1538338,0.831571,0.5737637
-0.1516929,0.8311557,0.5813169
-0.149927,0.8305388,0.5827036
-0.148656,0.8310677,0.5789752
-0.1497983,0.8324308,0.5756158
-0.153842,0.8296907,0.5690866
-0.1544317,0.8275871,0.5686568
-0.15648,0.8276097,0.5725938
-0.1598419,0.8279617,0.5684255
-0.1579787,0.828866,0.5705167
-0.1568809,0.8291968,0.5758151
-0.1572757,0.829591,0.5736789
-0.156534,0.8300585,0.577488
-0.1571335,0.8316609,0.5799093
-0.1566847,0.8325755,0.5783973
-0.154899,0.8315635,0.5797949
-0.1538694,0.8319997,0.5772008
-0.1536522,0.8321069,0.5745124
-0.1536621,0.8315276,0.5716899
-0.1524276,0.8312531,0.5714523
-0.1529745,0.8301798,0.5759968
-0.1568933,0.8304413,0.5760985
-0.1618984,0.8313887,0.5780171
-0.1655529,0.8330101,0.5786379
-0.164076,0.8356053,0.5702596
-0.1628179,0.8358179,0.5669398
-0.1649308,0.8375636,0.5707321
-0.1644249,0.8419412,0.5707728
-0.1638925,0.8413325,0.5713131
-0.1625587,0.8378849,0.5781268
-0.161023,0.8336703,0.5828942
-0.1676041,0.8269126,0.5815052
-0.1730978,0.8244623,0.5778747
-0.1690828,0.8228902,0.5751013
-0.1635431,0.818575,0.5765727
-0.1607638,0.8187033,0.5824092
-0.16076,0.818987,0.5865806
-0.1623718,0.8218709,0.5826049
-0.1628377,0.8282435,0.5758801
-0.162323,0.8286194,0.5702067
-0.1619649,0.8356895,0.5658081
-0.1599346,0.8489886,0.5657698
-0.157721,0.8509663,0.5633648
-0.1602693,0.8497661,0.5624111
-0.16404,0.8490504,0.5638554
-0.164098,0.8443048,0.5629029
-0.162792,0.8440507,0.5666141
-0.1625953,0.8428295,0.5666618
-0.1644184,0.8353121,0.5685565
-0.1674075,0.834401,0.5770963
-0.1697507,0.8336826,0.5770435
-0.1713087,0.825796,0.5801901
-0.1712451,0.8200622,0.5853601
-0.1704952,0.8141122,0.5808663
-0.1718578,0.8135275,0.5776332
-0.1727531,0.817455,0.5783968
-0.1717624,0.815515,0.5823712
-0.1713772,0.8211215,0.5856055
-0.1706581,0.8288498,0.581322
-0.1700269,0.8282753,0.5735871
-0.1681688,0.8320862,0.5707191
-0.163849,0.8352402,0.573981
-0.1626502,0.8342038,0.576931
-0.1626864,0.8351114,0.5772529
-0.1604629,0.8346963,0.5726945
-0.1608952,0.8344617,0.5679797
-0.162648,0.8350371,0.5727294
-0.1620762,0.8341819,0.5769468
-0.160751,0.8329365,0.5728353
-0.1605156,0.8311628,0.5706788
-0.1655785,0.8298045,0.5720164
-0.1719295,0.8289375,0.5711592
-0.1694102,0.827506,0.5729566
-0.1646018,0.8263379,0.5766654
-0.1628896,0.8257121,0.5755093
-0.1600896,0.8249378,0.5748995
-0.1616277,0.8218407,0.5773891
-0.1635566,0.8199262,0.5799297
-0.1597116,0.8249151,0.5818113
-0.1575971,0.8278891,0.5819219
-0.1547835,0.8249496,0.5823228
-0.151524,0.8251146,0.5802221
-0.1544253,0.8282508,0.5747102
-0.1587125,0.8317183,0.5695287
-0.1612276,0.8335933,0.564357
-0.1604607,0.8349585,0.5678218
-0.1571166,0.838651,0.5760849
-0.1564467,0.8378128,0.5730018
-0.1570991,0.8345606,0.5697605
-0.1568192,0.8343029,0.5738996
-0.1558163,0.8318725,0.576039
-0.1543676,0.8296821,0.5787944
-0.1538647,0.8298196,0.580816
-0.1541933,0.8272549,0.5792369
-0.1539434,0.823808,0.5785734
-0.151729,0.8244676,0.5787573
-0.1478179,0.825988,0.5796347
-0.1444845,0.8255971,0.5792644
-0.1440623,0.8303043,0.5786062
-0.1461553,0.8364754,0.5783197
-0.149336,0.8349157,0.5714264
-0.1534603,0.8326975,0.5638928
-0.1543456,0.8329474,0.5643403
-0.1494229,0.8323943,0.567153
-0.1455923,0.8334538,0.5695966
-0.1475705,0.8338287,0.5737998
-0.1507744,0.8323061,0.5769131
-0.1504072,0.8304495,0.5763419
-0.1453944,0.8267327,0.5722601
-0.1399391,0.8254052,0.5665241
-0.1432646,0.8286255,0.5697208
-0.1507125,0.8316905,0.577354
-0.1521196,0.8339058,0.5756735
-0.1537742,0.8331142,0.576764
-0.1571403,0.8307118,0.5794796
-0.1592003,0.8326022,0.5765145
-0.1597833,0.8340398,0.5781973
-0.1553834,0.8336348,0.5777897
-0.1536835,0.833623,0.5751633
-0.1548576,0.8318074,0.5753238
-0.1534256,0.8318279,0.5745735
-0.1536742,0.8313502,0.5774899
-0.1498281,0.8270386,0.5793238
-0.146028,0.8242107,0.5786693
-0.1509247,0.825196,0.57784
-0.1549647,0.8282807,0.5745896
-0.1554951,0.8300821,0.5728955
-0.1569547,0.8333072,0.5702618
-0.1579976,0.8360464,0.569955
-0.1573092,0.8346539,0.5724674
-0.1581665,0.8365838,0.5692418
-0.1582948,0.8364824,0.5670984
-0.1557865,0.8329413,0.5682178
-0.1573314,0.8328022,0.568826
-0.1583981,0.8312457,0.5718865
-0.1577711,0.8318101,0.5753991
-0.1590959,0.8327204,0.5758402
-0.1578951,0.8310521,0.5736008
-0.1582317,0.8324955,0.5721302
-0.158669,0.8319271,0.5722919
-0.1568167,0.8315142,0.5741374
-0.1576497,0.8325644,0.5747702
-0.1601218,0.8314192,0.5714323
-0.1655013,0.8320052,0.5720257
-0.1676528,0.8313203,0.5731081
-0.1624656,0.8306683,0.5711808
-0.1598534,0.8317984,0.5735786
-0.1612635,0.8311783,0.575825
-0.1625323,0.8319212,0.5777308
-0.1624919,0.8325823,0.5763496
-0.1631462,0.8324611,0.5713092
-0.1662974,0.8329953,0.5739239
-0.1683351,0.8299641,0.5746376
-0.1659627,0.8263371,0.5723032
-0.1617546,0.8271737,0.5748299
-0.1610658,0.8268731,0.5755785
-0.1610566,0.8249432,0.5779881
-0.1637719,0.8303094,0.5787587
-0.170656,0.8367043,0.5747296
-0.1687143,0.83495,0.5744712
-0.1658342,0.8341208,0.5736055
-0.1687526,0.8368284,0.5720805
-0.1658438,0.8361442,0.5733077
-0.1648222,0.8337697,0.5722243
-0.1653941,0.8326404,0.5692992
-0.1634298,0.831831,0.5681119
-0.1687423,0.8315946,0.5722025
-0.1717516,0.8320168,0.5763708
-0.1659236,0.830933,0.5715347
-0.1612824,0.8291349,0.5672362
-0.1624197,0.8290194,0.570648
-0.1667717,0.8291993,0.5736293
-0.1696335,0.8298796,0.5749616
-0.1712157,0.8327924,0.5740434
-0.1685323,0.8357138,0.570707
-0.164844,0.8352392,0.5705154
-0.1669501,0.8335066,0.5678804
-0.1659041,0.8329391,0.5635976
-0.1624571,0.829876,0.567158
-0.1624301,0.8283779,0.5695656
-0.1622585,0.8325155,0.5676523
-0.1625569,0.8340501,0.5704017
-0.1612672,0.8322711,0.5743899
-0.1587813,0.8319333,0.5751375
-0.1580437,0.8336099,0.5724481
-0.1580547,0.8354572,0.5697139
-0.1592585,0.8337843,0.5724526
-0.1608881,0.8322607,0.5763359
-0.163293,0.8319141,0.5769875
-0.1640862,0.8296023,0.5762907
-0.1625007,0.8284579,0.5766259
-0.1608572,0.8277738,0.5799111
-0.1572523,0.8272538,0.5836276
-0.15742,0.8281889,0.5826478
-0.1599536,0.8282887,0.5736975
-0.1584223,0.8301957,0.5627724
-0.1591421,0.8330701,0.5619425
-0.1570087,0.8326341,0.5704297
-0.1520425,0.8339735,0.5761282
-0.1543211,0.8368593,0.5733189
-0.1550506,0.8335189,0.5695639
-0.15325,0.8293673,0.5695815
-0.1546277,0.8305758,0.5698018
-0.1545424,0.831364,0.573208
-0.1556613,0.8319033,0.5774016
-0.1576421,0.8337323,0.5763638
-0.1553355,0.8317886,0.5751041
-0.1513482,0.8294271,0.5751447
-0.1490788,0.8307309,0.5758924
-0.1497348,0.8312961,0.577777
-0.1506152,0.8319207,0.5780253
-0.1496864,0.8338859,0.5773266
-0.1498884,0.8327205,0.5759738
-0.1503289,0.8314178,0.5744706
-0.149184,0.8340097,0.5746473
-0.147401,0.8354788,0.5744418
-0.1456686,0.8345683,0.5732092
-0.1494039,0.8342145,0.5728572
-0.1587785,0.833435,0.5713409
-0.163227,0.8329829,0.5691077
-0.1611725,0.834283,0.5726401
-0.1602308,0.8346417,0.5764298
-0.1616071,0.8346132,0.5721728
-0.1603981,0.8369088,0.5692038
-0.1559344,0.8379267,0.570584
-0.1525242,0.8364077,0.5675861
-0.1527804,0.8358527,0.5646073
-0.1554705,0.8354951,0.5695623
-0.1561673,0.8335842,0.57463
-0.1566361,0.8311278,0.5730573
-0.1580945,0.8314453,0.5728509
-0.1575506,0.8328023,0.5742735
-0.1602746,0.8313134,0.572075
-0.1626346,0.8307308,0.5734613
-0.1612212,0.829721,0.5771329
-0.1629226,0.8273702,0.5761162
-0.1627084,0.8278812,0.5766212
-0.1611066,0.8280061,0.5784745
-0.1628238,0.8291587,0.5754814
-0.1650945,0.833345,0.5722065
-0.1675697,0.835804,0.5739566
-0.1660323,0.8359688,0.5820093
-0.1643119,0.8355416,0.5886399
-0.1667798,0.8355632,0.5786947
-0.1667515,0.8343654,0.5660659
-0.165548,0.8332731,0.5715725
-0.1644747,0.8330313,0.5750607
-0.1614317,0.8293297,0.5700674
-0.1595006,0.8261971,0.5727352
-0.1625366,0.825042,0.5733802
-0.1695649,0.8236228,0.5732662
-0.1733528,0.8259599,0.5792227
-0.1738351,0.8293289,0.5791522
-0.174006,0.8308862,0.575009
-0.1731123,0.8356959,0.5718742
-0.1734105,0.8400981,0.5712485
-0.1720818,0.8339103,0.5730501
-0.1696463,0.8273606,0.57168
-0.1701182,0.8312802,0.5738149
-0.1694492,0.8325252,0.5792907
-0.1689936,0.8309351,0.582661
-0.169702,0.833107,0.5873819
-0.1685379,0.8335266,0.5867793
-0.1689852,0.8345724,0.5818991
-0.1721029,0.8337172,0.5817067
-0.1755892,0.8305089,0.5807878
-0.1766811,0.8315973,0.5755046
-0.1736508,0.8298542,0.5706116
-0.1711066,0.826433,0.57123
-0.1723107,0.8287629,0.5737255
-0.1737156,0.8300358,0.571664
-0.173463,0.8289065,0.5725679
-0.1733594,0.8296842,0.5777167
-0.1719208,0.8292625,0.5795634
-0.170039,0.827149,0.5787899
-0.171033,0.8275902,0.5752907
-0.1724156,0.8292545,0.5724184
-0.173979,0.8291636,0.5715491
-0.17578,0.8291606,0.5720552
-0.1755638,0.8299863,0.5769472
-0.1772768,0.8325625,0.5778687
-0.1801382,0.8356015,0.5739167
-0.1783333,0.8331541,0.5714498
-0.1758685,0.8290467,0.5716725
-0.176497,0.8279546,0.5748619
-0.1764924,0.8260852,0.5737048
-0.1761603,0.8269161,0.5727369
-0.1762667,0.8307204,0.57423
-0.1744722,0.8308512,0.5715543
-0.1730456,0.8299653,0.5732568
-0.1738919,0.8291635,0.5799949
-0.1756391,0.8279156,0.5836431
-0.1766799,0.8293567,0.5772661
-0.1755927,0.8297025,0.5677489
-0.1746607,0.8293174,0.5695247
-0.1764398,0.8329718,0.570533
-0.1795832,0.8359115,0.5721061
-0.1811123,0.8345416,0.580101
-0.1797833,0.8321484,0.5742044
-0.177971,0.8306395,0.5674545
-0.1765669,0.8289516,0.5752483
-0.1741298,0.8270585,0.5779131
-0.1725639,0.8260366,0.5754756
-0.1718933,0.8261264,0.5751305
-0.1691212,0.8269217,0.5755454
-0.1676653,0.8272047,0.5817493
-0.1698665,0.8278295,0.5867218
-0.1715296,0.827857,0.5840345
-0.1704882,0.8255572,0.5803136
-0.167661,0.8247498,0.5805167
-0.1660905,0.8260739,0.5826016
-0.1665075,0.827601,0.5806059
-0.1668948,0.8289751,0.5784449
-0.1667171,0.8310569,0.5774181
-0.1660599,0.8344458,0.5737115
-0.1652655,0.8339419,0.5758926
-0.1638825,0.8315264,0.5807668
-0.1633367,0.8303914,0.5800435
-0.1620622,0.8267506,0.5787041
-0.1580735,0.8268447,0.5755112
-0.156164,0.8291659,0.5740858
-0.1558198,0.8268682,0.5781748
-0.1554787,0.8267188,0.5808034
-0.1560285,0.8270005,0.5819536
-0.157087,0.8264479,0.5777502
-0.1591186,0.8286404,0.5690097
-0.1583319,0.8278441,0.5668443
-0.1562722,0.8271527,0.5701052
-0.1545585,0.8284517,0.5755347
-0.1517883,0.827395,0.5800309
-0.1540005,0.8277758,0.5808171
-0.1579398,0.8280656,0.5810716
-0.1585745,0.8275711,0.5815271
-0.1588546,0.8289758,0.5831997
-0.1588752,0.8287835,0.5826869
-0.1598161,0.8265212,0.5784523
-0.1588985,0.8241738,0.5744465
-0.1556659,0.8249096,0.569938
-0.1554373,0.8276207,0.5729288
-0.1577231,0.8278418,0.5822661
-0.1634789,0.8282728,0.5828382
-0.06825195,0.8245468,0.5997353
-0.07316379,0.8246745,0.6065404
-0.07723132,0.8248546,0.6071645
-0.07551671,0.82107,0.597448
-0.07109304,0.8185403,0.592876
-0.07069807,0.8205053,0.5951051
-0.0715324,0.8237821,0.6009992
-0.07272813,0.8258509,0.6024637
-0.07183989,0.8265393,0.6010488
-0.06903302,0.8256052,0.6047811
-0.06769046,0.8234,0.6059379
-0.06739181,0.8230464,0.605311
-0.06765351,0.8221023,0.6027701
-0.06673861,0.8202064,0.6000876
-0.06793507,0.8216931,0.6015518
-0.07070452,0.8232187,0.5995303
-0.06925926,0.8241779,0.5973965
-0.06913009,0.8272232,0.5960022
-0.07095479,0.8283229,0.5936337
-0.07088872,0.8253952,0.5948887
-0.07155514,0.8223904,0.5977105
-0.07066605,0.8218436,0.6008551
-0.06884059,0.822407,0.5999786
-0.06930029,0.8232684,0.5959103
-0.06954401,0.8231049,0.5962054
-0.06848462,0.8200561,0.6014008
-0.06765079,0.8169224,0.6057032
-0.0681075,0.8181363,0.602311
-0.0687545,0.8218091,0.5974265
-0.07053358,0.8236729,0.59592
-0.07299674,0.8248938,0.5941098
-0.07161526,0.8253105,0.5964722
-0.07006328,0.8238143,0.6021002
-0.0720262,0.8207343,0.6044117
-0.07308048,0.8166558,0.6062462
-0.07338082,0.8173742,0.6091836
-0.07379053,0.8195368,0.6083701
-0.07180648,0.818536,0.6048705
-0.07040148,0.8217949,0.6036296
-0.07019395,0.8256259,0.6037265
-0.06784376,0.8266606,0.6023988
-0.06665048,0.8279066,0.5999389
-0.06706335,0.824244,0.5993609
-0.0671853,0.8205937,0.6006482
-0.06800922,0.8221654,0.6008468
-0.06538847,0.8218781,0.6013985
-0.0616654,0.8203037,0.6018299
-0.06305486,0.8216808,0.6011496
-0.06697509,0.8228953,0.6023938
-0.07159441,0.8220143,0.603245
-0.07299451,0.8220476,0.602734
-0.06905458,0.8223486,0.6037323
-0.06699518,0.8210985,0.6044496
-0.06820705,0.8206257,0.6047569
-0.06835622,0.8209927,0.6067266
-0.06779948,0.8221237,0.6080768
-0.06772573,0.824341,0.6034278
-0.06605292,0.8253401,0.5970445
-0.06224707,0.8242296,0.5983131
-0.05913739,0.8229966,0.6026891
-0.05828981,0.8236769,0.6062125
-0.06079339,0.8239187,0.6080516
-0.0637707,0.8230728,0.6052135
-0.06277658,0.8223782,0.6033733
-0.06266626,0.8192937,0.6014086
-0.0647472,0.8176655,0.6008957
-0.06386995,0.8217338,0.6059528
-0.06324718,0.8247119,0.6069437
-0.06348046,0.821946,0.6083523
-0.06216981,0.8193331,0.6096987
-0.06341072,0.8202586,0.6031514
-0.06549651,0.8196076,0.6003372
-0.0651203,0.8189041,0.6014992
-0.06440068,0.8211003,0.6033612
-0.06307673,0.8218822,0.6052021
-0.0610394,0.8223084,0.6035168
-0.05922799,0.8223915,0.6043736
-0.05971987,0.8205187,0.6043814
-0.06304636,0.8190254,0.6036344
-0.06452797,0.8178137,0.6048073
-0.06373593,0.8197399,0.6036679
-0.06284329,0.8227331,0.6048746
-0.06237414,0.821526,0.6070414
-0.06382042,0.821042,0.6085194
-0.06600985,0.8219219,0.6082746
-0.06738824,0.8219356,0.6056734
-0.0678613,0.8239707,0.6070784
-0.06898727,0.8259016,0.6063635
-0.07119758,0.8250096,0.6034243
-0.0718701,0.82452,0.6035247
-0.07105389,0.8248649,0.6023598
-0.06609788,0.8222582,0.6026395
-0.05914468,0.8196041,0.6032108
-0.0593752,0.8199477,0.6023486
-0.06088152,0.8195678,0.6040954
-0.05921241,0.8194165,0.6081141
-0.06159216,0.8214663,0.6113544
-0.06355522,0.8227792,0.6057142
-0.06279332,0.8222929,0.5985751
-0.06603382,0.8219317,0.604041
-0.06954182,0.8225759,0.60665
-0.06915809,0.8231412,0.5972324
-0.06956628,0.8239143,0.5933302
-0.07258378,0.8244067,0.6008283
-0.0734743,0.8228437,0.6078838
-0.06792728,0.8200857,0.6060985
-0.05877991,0.8185929,0.6039654
-0.05570814,0.8195457,0.6071841
-0.06262984,0.8202162,0.608187
-0.06759541,0.8207779,0.6090906
-0.06413322,0.8233137,0.6066839
-0.06323938,0.8243408,0.5982726
-0.06819585,0.8244809,0.5981738
-0.07330269,0.8239147,0.6031173
-0.07542813,0.8210231,0.6047287
-0.07082932,0.8210508,0.6048341
-0.06578293,0.8214305,0.6020616
-0.06808961,0.8200163,0.5981627
-0.06898474,0.8214189,0.5931717
-0.06598705,0.8218925,0.5953992
-0.06580676,0.8219748,0.6062685
-0.06522703,0.8232162,0.6092257
-0.06496164,0.8235189,0.6044679
-0.06694299,0.825603,0.5985545
-0.0675157,0.8260769,0.5970888
-0.06836413,0.8267894,0.5999473
-0.06794118,0.8300235,0.5981033
-0.065584,0.8265945,0.5986309
-0.06425153,0.8219368,0.6012397
-0.06345825,0.8220303,0.601049
-0.0649258,0.8205688,0.6019752
-0.06587379,0.8199186,0.6002099
-0.06453717,0.8196795,0.6004334
-0.06364061,0.8175984,0.6022452
-0.06198354,0.8195093,0.6009171
-0.06249364,0.8220973,0.6022931
-0.06508683,0.8205817,0.604988
-0.06632048,0.8204284,0.6078189
-0.06736465,0.8213459,0.6071861
-0.06747445,0.8205477,0.6025279
-0.06803207,0.8208229,0.5999493
-0.06855966,0.8212159,0.5979307
-0.06776808,0.821484,0.6000957
-0.06907598,0.8226549,0.6029333
-0.07010139,0.822658,0.6007421
-0.07009195,0.8237167,0.6014301
-0.07047731,0.8257835,0.6027824
-0.06718101,0.8240651,0.602545
-0.06304431,0.8191653,0.6037347
-0.06355103,0.8157102,0.6051747
-0.06562361,0.8181454,0.6082844
-0.06621867,0.8233815,0.6096648
-0.0670098,0.8252546,0.6072244
-0.06783841,0.8264676,0.6012832
-0.06813258,0.8261047,0.5946475
-0.06922704,0.8229928,0.5981753
-0.06943816,0.8234714,0.6067542
-0.0683038,0.8241052,0.6077057
-0.06699758,0.8230489,0.599947
-0.06667138,0.8234618,0.5914126
-0.0695486,0.8208556,0.5970733
-0.07124685,0.8184089,0.6057108
-0.068183,0.8196743,0.6017857
-0.06549605,0.820793,0.6015721
-0.06687086,0.8218758,0.6059443
-0.06935819,0.8225072,0.6045965
-0.07036878,0.822628,0.602999
-0.0713179,0.8238625,0.6024972
-0.071098,0.8255712,0.6007919
-0.07124161,0.8251715,0.5979954
-0.07262324,0.8234886,0.5970718
-0.07016766,0.8236825,0.5987045
-0.06728917,0.8230522,0.6032801
-0.0664321,0.8207723,0.6102277
-0.06541857,0.8192821,0.6119068
-0.06593753,0.8206314,0.6092635
-0.06545668,0.8235078,0.6065789
-0.06489149,0.8222192,0.6036788
-0.0665557,0.8214472,0.6008092
-0.06709292,0.8230365,0.5996359
-0.06780867,0.8218248,0.599209
-0.07033379,0.8221208,0.591602
-0.07216514,0.8226447,0.5851289
-0.07164237,0.8217459,0.589483
-0.07015991,0.8225359,0.5977509
-0.06967891,0.8219869,0.6029066
-0.06841215,0.8211606,0.5986076
-0.06619636,0.8208417,0.5967892
-0.06474364,0.8204638,0.6004713
-0.06345459,0.8213674,0.5987535
-0.06358645,0.8219826,0.6037759
-0.06438054,0.8241178,0.6088277
-0.06364141,0.82541,0.6028722
-0.06379643,0.8220673,0.5998549
-0.06435759,0.8194621,0.6020802
-0.06485717,0.8195502,0.6056874
-0.06746786,0.8206299,0.6065333
-0.0687601,0.8225636,0.6017805
-0.06788746,0.8228814,0.5968267
-0.06775777,0.8216704,0.5984053
-0.0672814,0.8220159,0.6039233
-0.06637919,0.8217664,0.6043329
-0.06525876,0.8201156,0.6042493
-0.06066288,0.8201744,0.6055555
-0.05494886,0.8176398,0.6087608
-0.05608485,0.8142595,0.6149049
-0.05842381,0.8181811,0.612297
-0.05517635,0.8228468,0.6082632
-0.05520634,0.8224994,0.6081551
-0.05777984,0.8219201,0.6038941
-0.05923835,0.8223388,0.6021084
-0.0628467,0.8222618,0.6029879
-0.06405568,0.8221183,0.6046712
-0.06513708,0.8223089,0.6062426
-0.06643514,0.8221976,0.6043122
-0.06397856,0.8221812,0.6035505
-0.06307237,0.8217674,0.6018966
-0.05950772,0.8192829,0.5981193
-0.05451997,0.8163925,0.5978004
-0.05479537,0.8158937,0.6041813
-0.05415163,0.8162496,0.6102814
-0.05504562,0.8149686,0.6039082
-0.05857834,0.8148851,0.5965448
-0.06028214,0.8168983,0.5984112
-0.06184494,0.8203457,0.5974617
-0.06167648,0.8253534,0.5955058
-0.06330265,0.8254574,0.60044
-0.06696317,0.8235046,0.6045599
-0.06711487,0.8250325,0.6039639
-0.06795748,0.8233752,0.6072567
-0.06825864,0.8227486,0.613351
-0.06481048,0.824699,0.6117581
-0.06313479,0.8229995,0.6094479
-0.06387577,0.8235315,0.6118259
-0.06377683,0.8241838,0.6093413
-0.06201191,0.8229252,0.607027
-0.06045932,0.8230052,0.6093487
-0.06213176,0.8181661,0.6100408
-0.06680315,0.8133856,0.6114093
-0.07083282,0.8159526,0.6111515
-0.06995458,0.8207836,0.6067942
-0.06775635,0.8242447,0.6020676
-0.06969664,0.8250958,0.5988949
-0.06981595,0.8239314,0.6024262
-0.0668697,0.8204361,0.6057658
-0.06574324,0.8158727,0.6016097
-0.0633868,0.8159235,0.5997136
-0.06146365,0.8187012,0.6014635
-0.06257317,0.8188251,0.6037966
-0.06188353,0.8179477,0.6076405
-0.06084303,0.8156397,0.6091138
-0.06313594,0.8130029,0.6082781
-0.06593658,0.8171,0.6080833
-0.06765952,0.8223716,0.6079393
-0.07033801,0.8216388,0.6057325
-0.07239114,0.8178387,0.6026196
-0.07159966,0.8140727,0.6013176
-0.07165098,0.8170625,0.5997891
-0.07429667,0.8225793,0.5996148
-0.07508267,0.8223793,0.6024593
-0.07080723,0.8221896,0.6032227
-0.0653422,0.8219736,0.6024354
-0.06435336,0.8201528,0.6019671
-0.06569356,0.8187094,0.6010128
-0.06537072,0.816675,0.6017208
-0.06501693,0.8166795,0.6033921
-0.06580708,0.8182547,0.6044983
-0.06705688,0.8187213,0.6041444
-0.06849563,0.8186866,0.6015896
-0.06892809,0.8198495,0.5995624
-0.0702508,0.8217931,0.6001664
-0.07323513,0.8222424,0.6036065
-0.07251633,0.822342,0.605397
-0.07020819,0.8212661,0.6035922
-0.07006154,0.8204174,0.6036539
-0.0683906,0.8220997,0.6032479
-0.06868122,0.8223798,0.6017974
-0.07201536,0.8222166,0.6022169
-0.0713914,0.8221064,0.5979677
-0.06593695,0.8205786,0.5950832
-0.06067689,0.818164,0.6033763
-0.06314469,0.8157231,0.610052
-0.06938204,0.8181649,0.6081694
-0.0725048,0.8227906,0.6091525
-0.07630731,0.8250656,0.6121574
-0.07569651,0.8257429,0.6080019
-0.07251679,0.8244976,0.6038581
-0.07414398,0.8247516,0.6061288
-0.07230841,0.8245704,0.6086116
-0.06957592,0.8221173,0.6096213
-0.06981584,0.8202125,0.6093341
-0.06968354,0.8175598,0.6069158
-0.07088409,0.8190486,0.6050682
-0.06741471,0.8221479,0.6059979
-0.06381239,0.8187155,0.6066203
-0.067407,0.8169079,0.6005946
-0.06900736,0.8186344,0.5958621
-0.06782554,0.817992,0.602469
-0.06821207,0.8178799,0.608466
-0.07001282,0.8187992,0.6059779
-0.07180331,0.8205894,0.6042275
-0.07258598,0.8229267,0.6040262
-0.0739884,0.821651,0.6000037
-0.07357843,0.8198947,0.5969719
-0.07138596,0.8216258,0.5958883
-0.07050231,0.8237943,0.5929011
-0.07064698,0.8250419,0.5936423
-0.07111284,0.8232573,0.5997966
-0.07074623,0.8183695,0.6045696
-0.07035016,0.8171485,0.6034431
-0.06926148,0.8185029,0.6012305
-0.06752064,0.8183309,0.602768
-0.06878504,0.8199577,0.6022634
-0.07001756,0.8223715,0.6028593
-0.06833226,0.8220628,0.6077827
-0.06760629,0.8193459,0.6102057
-0.06822129,0.8173212,0.6102062
-0.0682768,0.8188527,0.6067237
-0.06885021,0.8205356,0.6018453
-0.06978176,0.8210333,0.5989014
-0.06900564,0.8225759,0.5984904
-0.06635302,0.8218024,0.6038811
-0.06370216,0.8172197,0.6054456
-0.06384795,0.8147826,0.6032916
-0.06697874,0.8188933,0.6056737
-0.06887986,0.8247572,0.6051504
-0.06810705,0.8260969,0.6025212
-0.06806636,0.8260956,0.6000248
-0.07056644,0.8268235,0.5989156
-0.074113,0.8248264,0.6007825
-0.07550756,0.8227502,0.5988124
-0.07324388,0.822062,0.598156
-0.07124862,0.8217607,0.6000931
-0.07230739,0.8228915,0.6003644
-0.0722946,0.823018,0.6032074
-0.06982527,0.8233854,0.6056682
-0.06816805,0.8229649,0.6060359
-0.06786355,0.8193897,0.6054186
-0.06900375,0.8181041,0.6050311
-0.06994962,0.8180047,0.604301
-0.06962246,0.8177961,0.5990671
-0.07116865,0.8193515,0.5964708
-0.07310174,0.8222284,0.6009587
-0.07300206,0.8264027,0.6052573
-0.07302607,0.825739,0.6043189
-0.07312835,0.8234568,0.6014229
-0.07081412,0.8247309,0.6023123
-0.06705571,0.8225086,0.6060617
-0.06716317,0.8212229,0.611376
-0.06914457,0.82301,0.6126098
-0.06773606,0.8219318,0.609794
-0.06762252,0.8222532,0.6111315
-0.06927497,0.8234909,0.6085512
-0.07063714,0.8233265,0.6006849
-0.07484993,0.8230529,0.5979293
-0.07583715,0.8217163,0.6015419
-0.07236146,0.8224348,0.6063641
-0.07188832,0.8244724,0.6044164
-0.07226421,0.8247793,0.6036681
-0.0716741,0.8235878,0.607023
-0.06969841,0.8213535,0.6041922
-0.06734326,0.8219771,0.6039195
-0.06971812,0.8231414,0.6076534
-0.07197219,0.8225316,0.6082162
-0.07023931,0.8236632,0.6071279
-0.06874353,0.822189,0.6046205
-0.06784848,0.819838,0.6062519
-0.06772218,0.821961,0.6081431
-0.06837838,0.8229971,0.6061662
-0.06766506,0.822635,0.6069505
-0.06607074,0.8230261,0.6061331
-0.0649636,0.8215828,0.6039322
-0.06460183,0.8193597,0.6042144
-0.06384541,0.818446,0.6038384
-0.06191657,0.8193467,0.6034074
-0.06221356,0.8200218,0.602337
-0.06430631,0.8194732,0.6019653
-0.06467193,0.8212987,0.6033561
-0.06553192,0.8241864,0.6042946
-0.06562017,0.824696,0.6049938
-0.064715,0.8250383,0.6055997
-0.06566212,0.824712,0.6074032
-0.06542884,0.8220529,0.6070335
-0.06589581,0.8201303,0.6034142
-0.06679572,0.8203905,0.6030932
-0.06378229,0.8204114,0.60619
-0.0619424,0.8190179,0.6088191
-0.06416677,0.8191263,0.6052329
-0.06625678,0.8201806,0.5995474
-0.06531932,0.8199952,0.6014135
-0.06466907,0.8210749,0.6022523
-0.06565795,0.8221371,0.6018919
-0.06420889,0.8247276,0.6090661
-0.06393996,0.8291223,0.6135701
-0.06740059,0.8265466,0.6076861
-0.07139898,0.8231321,0.6000506
-0.07342637,0.8256494,0.5977334
-0.07104739,0.8251962,0.5951756
-0.06715328,0.8226679,0.5966518
-0.06343756,0.8203053,0.6049576
-0.06197822,0.8167134,0.603643
-0.06411512,0.8178242,0.6022879
-0.06465775,0.8200097,0.60625
-0.06717633,0.8189873,0.6011269
-0.07100761,0.8196176,0.6006146
-0.06943081,0.8194792,0.6039108
-0.06880257,0.8181129,0.6036589
-0.06963167,0.8187146,0.6063997
-0.06746024,0.8204664,0.6028141
-0.06605725,0.8231393,0.5997191
-0.06660044,0.8230806,0.6025247
-0.066976,0.823042,0.6022636
-0.06631563,0.8257988,0.6016582
-0.06570488,0.8232585,0.6005192
-0.06557703,0.8197358,0.6030797
-0.06674812,0.8202101,0.6071283
-0.06926092,0.8193791,0.6064653
-0.07017736,0.8202327,0.6069015
-0.0716735,0.8227946,0.6041749
-0.07319015,0.8240798,0.6000646
-0.07160541,0.8255278,0.5997761
-0.07043801,0.8252052,0.5981219
-0.06746906,0.824553,0.5982756
-0.06346686,0.8249299,0.5995643
-0.0645248,0.8231979,0.5999663
-0.06533241,0.820979,0.6020647
-0.06473365,0.8195164,0.6017125
-0.06617289,0.8180841,0.6007569
-0.0667727,0.8202014,0.6017956
-0.06776278,0.8234901,0.601353
-0.06920123,0.8212947,0.600107
-0.07093025,0.8189568,0.5962854
-0.07309954,0.8206801,0.5923356
-0.06985074,0.8214072,0.59778
-0.06545582,0.8225056,0.6041973
-0.06562665,0.8241263,0.6003921
-0.06780905,0.822736,0.5984972
-0.07163457,0.8216827,0.6020858
-0.07223093,0.822126,0.6014527
-0.07011904,0.8214921,0.6013397
-0.06804173,0.820073,0.6036903
-0.06280094,0.8194547,0.6046597
-0.06167399,0.8205316,0.6063271
-0.06609757,0.8225839,0.607184
-0.07094661,0.822977,0.6068988
-0.07522454,0.8215577,0.6051385
-0.0722375,0.8220446,0.6005809
-0.06621701,0.8222071,0.5974647
-0.06542175,0.8213949,0.5981017
-0.06839674,0.8222048,0.6001922
-0.07242224,0.8190373,0.6019059
-0.07058141,0.8163744,0.6050164
-0.06593888,0.8188744,0.607086
-0.06515461,0.8181787,0.6089503
-0.06454466,0.8174534,0.6133711
-0.06431215,0.8183022,0.6079881
-0.06217889,0.8159397,0.6005858
-0.06028453,0.8154499,0.604938
-0.06437308,0.8188577,0.6051944
-0.06626311,0.8220516,0.6027884
-0.06503893,0.8212811,0.605042
-0.06524321,0.8198257,0.6039885
-0.0655665,0.8214358,0.6034943
-0.06725719,0.8210974,0.6028681
-0.06755676,0.8213656,0.600085
-0.06377344,0.8237966,0.5992214
-0.05937562,0.8227731,0.5967174
-0.05939896,0.8218126,0.5957815
-0.06010909,0.8223125,0.601508
-0.05837461,0.8218364,0.6066299
-0.06195297,0.8205378,0.6065317
-0.06507773,0.8191197,0.6054515
-0.06407571,0.8210864,0.6043239
-0.06573851,0.8232402,0.6036171
-0.0643703,0.8220705,0.6064109
-0.06193348,0.8219104,0.6077993
-0.06204078,0.8221753,0.6064581
-0.06109222,0.8201538,0.6072678
-0.06121005,0.8179301,0.6077501
-0.06046485,0.8182336,0.6074773
-0.06076561,0.8209697,0.6063483
-0.06327615,0.8232042,0.602828
-0.06405842,0.8231576,0.6003471
-0.0654494,0.8222845,0.5991723
-0.06382839,0.8212576,0.5989239
-0.06022114,0.8194522,0.6003786
-0.06204166,0.8192515,0.602962
-0.0660702,0.8208292,0.6046497
-0.06992258,0.8222039,0.6045206
-0.07055776,0.824377,0.6044193
-0.06783125,0.8255747,0.6005997
-0.06704506,0.8247548,0.5965735
-0.06491206,0.823977,0.5977101
-0.06423066,0.8234102,0.5956996
-0.06609326,0.8224654,0.5945617
-0.06304205,0.8183973,0.601977
-0.06159209,0.8135539,0.6079702
-0.06306269,0.8155397,0.6058767
-0.06221982,0.8210218,0.6028372
-0.06223524,0.8224031,0.6020353
-0.06078536,0.8198503,0.5965014
-0.05985546,0.8172395,0.5943682
-0.06425962,0.8194306,0.6057552
-0.06855158,0.8225836,0.614837
-0.06891107,0.8219954,0.6117136
-0.06889938,0.8255838,0.6090733
-0.07023936,0.8297759,0.6109479
-0.0683575,0.8273972,0.6052731
-0.06448357,0.8272121,0.5982585
-0.06189328,0.8279336,0.6016951
-0.06143537,0.8243418,0.6029095
-0.06358881,0.8210678,0.6021399
-0.06237365,0.8202864,0.6062186
-0.06189971,0.8219491,0.6060484
-0.06444662,0.8227423,0.604888
-0.06346873,0.8221173,0.6059759
-0.06420646,0.8231746,0.6057918
-0.06511288,0.8235842,0.6072779
-0.06488093,0.8218387,0.6089939
-0.06605565,0.8201678,0.6084634
-0.06471019,0.8208331,0.607237
-0.065122,0.8222243,0.6049614
-0.06485827,0.8219847,0.6017721
-0.06294005,0.8214386,0.6017429
-0.06414904,0.8205869,0.6020577
-0.06300122,0.8203667,0.5989497
-0.06266897,0.8203689,0.5993752
-0.06633898,0.818938,0.6005154
-0.06794358,0.8191006,0.5996876
-0.06323633,0.8190139,0.6039595
-0.0575222,0.8177564,0.6063987
-0.06181687,0.8198621,0.6047585
-0.06760648,0.8217015,0.6048136
-0.06821087,0.8208879,0.6031978
-0.0700792,0.8216679,0.6030097
-0.06877606,0.8235939,0.6049085
-0.06683005,0.8239598,0.6039182
-0.06722431,0.8232386,0.6028443
-0.06363389,0.8225373,0.6020491
-0.06150276,0.8211661,0.6010512
-0.06363463,0.8203293,0.599957
-0.06439861,0.8211923,0.5981686
-0.06359849,0.8218185,0.5998959
-0.06280868,0.8219528,0.6021526
-0.06244176,0.820687,0.6010485
-0.0623273,0.8189955,0.6019013
-0.06260363,0.8210916,0.6023004
-0.06276563,0.8232929,0.601641
-0.06318897,0.822049,0.6050751
-0.06487333,0.8220419,0.6059744
-0.06698693,0.8236935,0.6044799
-0.07035419,0.8245971,0.6053323
-0.07180315,0.8244309,0.6040204
-0.068867,0.8206112,0.6046827
-0.06635109,0.8164179,0.608051
-0.06463083,0.817918,0.6093274
-0.06350309,0.819768,0.6109559
-0.0625297,0.8181977,0.6096475
-0.06035269,0.8178591,0.6068976
-0.06196337,0.8181828,0.6071729
-0.06462395,0.8187928,0.6061032
-0.06486394,0.822684,0.6042341
-0.0676064,0.826281,0.6023557
-0.06973979,0.824598,0.6019581
-0.06924147,0.8196365,0.6037152
-0.06865965,0.8172196,0.6024783
-0.06763634,0.8187227,0.6023771
-0.06747417,0.8205334,0.6036807
-0.06530563,0.8214242,0.6030728
-0.0610026,0.8232051,0.6046387
-0.06039181,0.8237746,0.6044926
-0.06116835,0.8196812,0.604031
-0.05932871,0.8166921,0.6074124
-0.05813024,0.8187249,0.6089231
-0.06095558,0.8211165,0.6083596
-0.06371346,0.8225641,0.6067841
-0.06252325,0.8211777,0.6048371
-0.06191855,0.8174939,0.6038808
-0.06331523,0.8169057,0.6032136
-0.06456468,0.8188302,0.6025398
-0.06739787,0.8216428,0.6017105
-0.06874123,0.825402,0.6043823
-0.06589213,0.8275115,0.6056075
-0.06452162,0.8259946,0.6024587
-0.06548363,0.823995,0.601644
-0.06537358,0.823636,0.5961019
-0.06498607,0.8230546,0.5911092
-0.06441328,0.8228956,0.5987698
-0.0636414,0.8221647,0.6057678
-0.0632306,0.8215029,0.6065272
-0.06121292,0.8218991,0.6073046
-0.05796528,0.820184,0.6079587
-0.05817895,0.8194268,0.6062396
-0.06220338,0.8189445,0.6028272
-0.06582035,0.8175082,0.6029852
-0.06773568,0.8200981,0.6007207
-0.06766389,0.8216789,0.5959262
-0.06770244,0.8207074,0.6013733
-0.06867452,0.8219188,0.6058169
-0.06740098,0.8235912,0.5982857
-0.06572655,0.8248895,0.5941193
-0.06341807,0.8246438,0.6000271
-0.06147134,0.8218974,0.6051182
-0.06379377,0.8186448,0.6052758
-0.06465509,0.8185146,0.6081671
-0.06411666,0.8201104,0.6126358
-0.06511722,0.817791,0.6106403
-0.06452487,0.8177514,0.6074406
-0.06535111,0.8226535,0.6058295
-0.06675638,0.8241738,0.6011318
-0.06628534,0.822834,0.5989677
-0.06599894,0.8217152,0.5998428
-0.06496964,0.8223889,0.6013959
-0.06482346,0.8243792,0.6084797
-0.0646593,0.8242267,0.6100908
-0.06244043,0.8236032,0.6032171
-0.06212146,0.8235545,0.6030265
-0.06280025,0.8244986,0.6042938
-0.06289659,0.8255761,0.6042667
-0.06519691,0.8243827,0.607935
-0.06753563,0.8231855,0.6057188
-0.06637695,0.8213502,0.6028997
-0.0634313,0.8190527,0.6075158
-0.06194643,0.8180702,0.609261
-0.06266809,0.8186562,0.6063978
-0.06476377,0.8220252,0.6029985
-0.06667385,0.8231184,0.6001353
-0.06714745,0.8229548,0.6000917
-0.06728266,0.8259466,0.5996818
-0.0675347,0.825539,0.6001336
-0.06730924,0.8189706,0.6075123
-0.06693354,0.8121153,0.6134172
-0.06584349,0.8132715,0.6095482
-0.06472259,0.8184884,0.6064296
-0.06527527,0.8196492,0.6081517
-0.06544127,0.8232909,0.604274
-0.06353164,0.8261656,0.5995791
-0.06101893,0.8228438,0.6032159
-0.06002034,0.8214751,0.6056596
-0.06489163,0.8226325,0.6044546
-0.07131213,0.8242505,0.6084615
-0.07030888,0.8256345,0.6116663
-0.07034282,0.8260943,0.6050687
-0.07539214,0.8274719,0.5985136
-0.07565821,0.8281071,0.6012688
-0.07384556,0.8277939,0.6028796
-0.07229238,0.8274518,0.6003857
-0.06798124,0.8267468,0.6023095
-0.06620251,0.8249985,0.602732
-0.06678438,0.8226145,0.6004229
-0.06544903,0.821947,0.602862
-0.06408146,0.8220883,0.607883
-0.06365495,0.8227266,0.6110269
-0.06401039,0.8240874,0.6041497
-0.06515642,0.8251039,0.5946978
-0.06701624,0.8244086,0.5994544
-0.07062469,0.8220957,0.60344
-0.07242282,0.8228496,0.6002125
-0.06794687,0.8244771,0.6037669
-0.06331187,0.8242343,0.6060184
-0.06506762,0.825105,0.6041376
-0.06641552,0.8243105,0.6038697
-0.06444897,0.8229928,0.6003772
-0.06569713,0.8235798,0.5957476
-0.06739881,0.8228295,0.5934763
-0.06706694,0.8218194,0.5960954
-0.06646808,0.8221633,0.6029951
-0.06292202,0.8219127,0.6073141
-0.0587543,0.8194151,0.6071524
-0.05579997,0.8171865,0.6039164
-0.05632699,0.818432,0.6048423
-0.06412605,0.821203,0.607249
-0.07007692,0.8227985,0.604244
-0.06679242,0.8222885,0.6039326
-0.06236527,0.8209287,0.6012074
-0.06361868,0.8206985,0.5963143
-0.06295711,0.8206853,0.5991195
-0.05902499,0.819744,0.5992458
-0.05874852,0.8183144,0.5982399
-0.05669268,0.8178263,0.601948
-0.05613073,0.8190433,0.6035201
-0.06002473,0.8193274,0.6039142
-0.05916031,0.81668,0.6044291
-0.05698883,0.8143538,0.6062558
-0.05543278,0.8150798,0.6085224
-0.05734695,0.8161988,0.6079293
-0.06467812,0.8176458,0.6049722
-0.06719682,0.822978,0.5996426
-0.06663036,0.8268919,0.5981405
-0.06579,0.8248326,0.603394
-0.06426404,0.8242609,0.6072062
-0.06336217,0.8246347,0.6056118
-0.05916746,0.8193891,0.6042216
-0.05732531,0.8150449,0.6073835
-0.05982478,0.8172527,0.6100052
-0.06094646,0.8193046,0.609624
-0.06136424,0.8181778,0.6071972
-0.06068263,0.8198188,0.6025639
-0.05960594,0.820999,0.6003686
-0.05990204,0.8171407,0.6016592
-0.06270586,0.8171177,0.6037978
-0.06675444,0.8193044,0.6052616
-0.06975686,0.817992,0.6047451
-0.07277058,0.8205585,0.6028967
-0.07180039,0.823633,0.6012452
-0.06702474,0.8219775,0.6013841
-0.06441657,0.8218607,0.601811
-0.06464843,0.8229699,0.6029851
-0.06607284,0.8238313,0.6049742
-0.06515587,0.8255275,0.6038247
-0.06420262,0.8249553,0.6023498
-0.06332861,0.8218253,0.6033455
-0.05983952,0.8174372,0.6062879
-0.0609401,0.8146981,0.6088458
-0.06340717,0.8193586,0.6068461
-0.06387759,0.8246437,0.6037091
-0.0672905,0.8221031,0.6024238
-0.06860856,0.821282,0.6032507
-0.07030911,0.8241895,0.6050753
-0.07329452,0.8233089,0.6045419
-0.06964817,0.8225552,0.6064312
-0.06471199,0.8219716,0.609711
-0.06318293,0.8197283,0.60829
-0.06325454,0.818488,0.6065031
-0.0623205,0.8170835,0.602603
-0.05884834,0.8163416,0.5966903
-0.05976951,0.8155069,0.5986592
-0.06489353,0.8163028,0.6024751
-0.06655063,0.8200786,0.6018992
-0.06699733,0.8216306,0.6047252
-0.06965503,0.8239271,0.6054489
-0.07193676,0.8250412,0.5999705
-0.07241986,0.8232388,0.5978711
-0.07142001,0.8252822,0.5981322
-0.06768203,0.8234943,0.597942
-0.06384328,0.8187713,0.5981768
-0.06452846,0.8195178,0.6014743
-0.06480041,0.8199871,0.6097748
-0.06355494,0.8221397,0.6140634
-0.06731469,0.8256695,0.6154216
-0.06967018,0.8244757,0.6159159
-0.06739968,0.8211915,0.6114797
-0.06883714,0.8184073,0.6105212
-0.0697961,0.8192344,0.6114248
-0.06626182,0.821178,0.6082628
-0.06454867,0.8205866,0.5990509
-0.0651294,0.8209418,0.588397
-0.06581264,0.8213129,0.5955655
-0.06610011,0.8223453,0.6076583
-0.0666837,0.8237077,0.605345
-0.06695171,0.8201213,0.6035004
-0.0653504,0.8166923,0.6020841
-0.06578493,0.8192292,0.5991893
-0.06902568,0.8226074,0.6047601
-0.07099975,0.8241323,0.6087099
-0.06790601,0.8243187,0.6058347
-0.06322876,0.8189845,0.6050938
-0.06522202,0.8135308,0.6076288
-0.06681984,0.8186449,0.6094766
-0.06629715,0.824287,0.6095952
-0.07083036,0.8219107,0.6092903
-0.07149304,0.8220992,0.6063402
-0.0678583,0.8251584,0.602741
-0.066479,0.8239105,0.6020488
-0.06590998,0.8204645,0.6010231
-0.06719407,0.8181288,0.6018614
-0.06720844,0.8179819,0.6041224
-0.06743708,0.81809,0.6064998
-0.06848803,0.8180495,0.6114411
-0.06374614,0.8193999,0.6100434
-0.06021297,0.8202586,0.6052783
-0.06172954,0.8206313,0.6058992
-0.0646915,0.8212735,0.6055566
-0.07065155,0.8231507,0.6071673
-0.07347072,0.824658,0.6090417
-0.06993288,0.822737,0.6040027
-0.06658242,0.821623,0.5980184
-0.06682357,0.8203588,0.5950631
-0.06958869,0.8173519,0.5998511
-0.0712033,0.8172609,0.6051384
-0.06936003,0.8199812,0.600518
-0.06696771,0.8242247,0.5991057
-0.06783734,0.8237485,0.6035216
-0.0678442,0.8206084,0.6057084
-0.06645641,0.8228108,0.6087809
-0.07037189,0.8225927,0.6120678
-0.07372113,0.8208673,0.6109376
-0.0728234,0.8202946,0.6057529
-0.07534059,0.8168649,0.6029858
-0.07864286,0.8176654,0.6039545
-0.07519437,0.8194166,0.6036142
-0.0699701,0.8190638,0.6024254
-0.07035379,0.820901,0.6024921
-0.06946104,0.8157283,0.6028163
-0.06328835,0.8035347,0.6008855
-0.06019204,0.7998114,0.5993957
-0.06334982,0.8134996,0.6010675
-0.06702363,0.8292291,0.6017839
-0.06579837,0.8259514,0.6018775
-0.06727514,0.8192713,0.6039691
-0.07309627,0.8220503,0.606035
-0.0726635,0.8214374,0.6042151
-0.07100489,0.8213198,0.6014193
-0.07010385,0.8207813,0.6030019
-0.06761421,0.8158983,0.6035005
-0.0714043,0.8172588,0.6024476
-0.0750807,0.8179679,0.6027134
-0.07170152,0.8185771,0.6015777
-0.06978445,0.8252784,0.6024192
-0.07206154,0.8262908,0.6022386
-0.07285471,0.8260512,0.6000077
-0.07163444,0.828362,0.6019868
-0.07140841,0.8258357,0.6019901
-0.07035625,0.8230424,0.6013493
-0.06798339,0.8224592,0.6036611
-0.06435763,0.8222196,0.6017366
-0.06169579,0.8210086,0.6004354
-0.06654481,0.8168849,0.6009019
-0.07285438,0.8129556,0.5987083
-0.07344272,0.8156796,0.5993613
-0.07235053,0.8210055,0.6013976
-0.07028702,0.8213385,0.6009177
-0.06881189,0.8236616,0.5978333
-0.07062027,0.8252886,0.5948753
-0.07228343,0.8220821,0.5977727
-0.07178505,0.8241448,0.6020593
-0.06936024,0.8252502,0.6039541
-0.06595474,0.8240965,0.6072399
-0.0641116,0.8260155,0.6090476
-0.06299953,0.8239955,0.6062758
-0.0618748,0.8220513,0.6038676
-0.06331403,0.821126,0.6047919
-0.06639802,0.8214993,0.6051305
-0.06873581,0.8252593,0.6031467
-0.06871293,0.8233326,0.6003374
-0.06725769,0.8217919,0.597654
-0.06842029,0.8230565,0.5971951
-0.06938027,0.8214199,0.5978463
-0.0688958,0.8225204,0.5977784
-0.06873712,0.8221522,0.5997074
-0.06540163,0.819808,0.6037158
-0.06261946,0.8198744,0.6072576
-0.06245045,0.8206723,0.6072701
-0.06247372,0.8231668,0.6026023
-0.06468675,0.8223537,0.6002189
-0.06574361,0.8202409,0.6014456
-0.06485907,0.8204452,0.6006373
-0.06351872,0.8187902,0.5998002
-0.06214588,0.819324,0.6016923
-0.06429156,0.820215,0.6063122
-0.0659515,0.819898,0.6094493
-0.06430731,0.8225202,0.6063159
-0.06336118,0.8236884,0.6021739
-0.06411744,0.8243992,0.6006593
-0.06505713,0.8252804,0.6000395
-0.0650824,0.822793,0.6015185
-0.06441494,0.8200015,0.6027852
-0.06245377,0.8169687,0.5984336
-0.0610859,0.8146645,0.5945773
-0.06103714,0.8167593,0.5993649
-0.05980018,0.8192076,0.6034166
-0.05869568,0.8180307,0.6010597
-0.05803415,0.8174401,0.6012698
-0.05872167,0.8186298,0.6049313
-0.06156978,0.8180678,0.6068475
-0.0639033,0.8190665,0.6062791
-0.06419884,0.8219269,0.6042308
-0.06138459,0.8225216,0.6041507
-0.0586078,0.8223546,0.6072277
-0.05840047,0.8218465,0.6082036
-0.06007588,0.8213096,0.6039998
-0.06273857,0.8211603,0.5996699
-0.0615937,0.8222108,0.6006004
-0.05838833,0.8243716,0.6008288
-0.05714246,0.8228457,0.5981763
-0.05670278,0.821125,0.6028003
-0.05799162,0.821798,0.6079803
-0.05874382,0.8201902,0.6053412
-0.05816207,0.818711,0.6057289
-0.05891327,0.8183441,0.6080122
-0.06099208,0.8196915,0.6068409
-0.06333173,0.8236163,0.6076099
-0.0623069,0.8243051,0.6089296
-0.05912368,0.8229642,0.6087987
-0.05792794,0.8228688,0.6097296
-0.05821656,0.8223513,0.6074483
-0.05991031,0.823961,0.5992284
-0.06179494,0.8267653,0.5966906
-0.06249839,0.8265139,0.603113
-0.06105216,0.8242853,0.6059615
-0.05870171,0.8198495,0.6051375
-0.05986174,0.8139486,0.6054226
-0.06158398,0.8131702,0.605553
-0.06311982,0.8176295,0.605841
-0.06746218,0.8208852,0.6050978
-0.0688233,0.8221636,0.6050127
-0.06666738,0.822496,0.6052924
-0.06544638,0.8224027,0.6040669
-0.06498961,0.8240497,0.6037385
-0.0650127,0.8250715,0.6045256
-0.06320647,0.8222427,0.6080628
-0.05984746,0.8188181,0.6097364
-0.05838469,0.8193413,0.6044494
-0.05889084,0.8218417,0.6011344
-0.05976083,0.8219464,0.6026724
-0.06081079,0.8196563,0.6046487
-0.06314621,0.817315,0.6076962
-0.06463798,0.8186998,0.6075137
-0.06606876,0.8214753,0.6029595
-0.06866052,0.8207076,0.602511
-0.06580924,0.8204622,0.6039931
-0.06203688,0.8203233,0.6045294
-0.06410255,0.8187835,0.6078096
-0.06339048,0.8195602,0.6108118
-0.06057275,0.8196695,0.6137312
-0.06119544,0.8189494,0.613845
-0.06116494,0.8188011,0.6088058
-0.06096952,0.8176628,0.6032251
-0.06112508,0.8179405,0.5997756
-0.06021787,0.8185402,0.6033199
-0.06097966,0.8187111,0.6054122
-0.06413794,0.8197978,0.6012165
-0.06721454,0.8195953,0.6001947
-0.06707861,0.8194996,0.6001161
-0.06574082,0.8214151,0.6018178
-0.06519342,0.8225893,0.6048538
-0.06336378,0.8214297,0.6050392
-0.06308125,0.8202645,0.6058392
-0.0626192,0.820519,0.6059894
-0.05946065,0.819136,0.6070893
-0.06097247,0.8165312,0.6071838
-0.06648906,0.8171634,0.5985214
-0.06845172,0.8187237,0.5908119
-0.06466047,0.8172858,0.5974378
-0.05976318,0.8142267,0.6053256
-0.06089864,0.8118368,0.6009691
-0.06335819,0.8130442,0.6006521
-0.06381529,0.8167384,0.6042668
-0.0662695,0.8198187,0.5983135
-0.06685997,0.8234056,0.5957375
-0.06789578,0.8240508,0.597484
-0.07040225,0.8224111,0.5952549
-0.06729931,0.8233595,0.594921
-0.06430845,0.8221228,0.5985742
-0.06370159,0.8213782,0.6028097
-0.06183082,0.8231962,0.6001324
-0.06234561,0.8217463,0.5978475
-0.06295769,0.8218632,0.6060936
-0.06215605,0.8215842,0.6118998
-0.06224286,0.8181083,0.6096919
-0.06115025,0.8179861,0.6063747
-0.06118375,0.8192862,0.6063632
-0.0650748,0.8215046,0.6079428
-0.06821023,0.8230817,0.6073599
-0.06816897,0.8218751,0.60856
-0.06801901,0.8225735,0.6083437
-0.06723684,0.8241512,0.6045375
-0.06308688,0.8248375,0.6020629
-0.05810222,0.8225252,0.601708
-0.05755935,0.8183803,0.6077569
-0.06087928,0.8180798,0.6126812
-0.06170437,0.81765,0.6063316
-0.06076914,0.8167831,0.6001753
-0.06109336,0.8187095,0.6019032
-0.06015992,0.8192647,0.6038477
-0.0601222,0.8192001,0.602239
-0.06332838,0.8198506,0.6016235
-0.06638118,0.8196092,0.6016199
-0.06577808,0.8211221,0.6010512
-0.06432023,0.8225015,0.6033456
-0.06576717,0.819523,0.6066503
-0.06547515,0.8168964,0.6088446
-0.06432007,0.8183865,0.6068252
-0.06371566,0.8203712,0.6022013
-0.06025838,0.821181,0.6027093
-0.06009917,0.8219454,0.604791
-0.06165122,0.822326,0.6068788
-0.0611016,0.8220868,0.6076869
-0.06440167,0.8215041,0.6027749
-0.06615361,0.82121,0.6011674
-0.06381392,0.8215561,0.6021781
-0.06289916,0.8208835,0.5998054
-0.0608693,0.8205131,0.6005656
-0.06136264,0.8221025,0.6015579
-0.06566838,0.8224785,0.600746
-0.06556572,0.8222484,0.6014076
-0.06484491,0.8234054,0.5990223
-0.06594437,0.8246812,0.5974267
-0.06576871,0.8254284,0.6000381
-0.06709595,0.8238586,0.6021798
-0.0667425,0.8194323,0.6048346
-0.06520007,0.8154824,0.6052422
-0.0651556,0.8167409,0.6043197
-0.06315719,0.8199557,0.6080235
-0.06208206,0.8194401,0.6093385
-0.06300372,0.8205839,0.6074586
-0.0652207,0.8210932,0.6077041
-0.06746461,0.8179379,0.6063785
-0.06582498,0.818723,0.6048011
-0.06456877,0.8190094,0.6043082
-0.06585132,0.8197085,0.604505
-0.06718667,0.8242352,0.6057747
-0.06772687,0.8239303,0.6029336
-0.06472807,0.8236598,0.6000301
-0.06108721,0.824333,0.601622
-0.06215061,0.8217369,0.6017396
-0.06347925,0.8222899,0.6010203
-0.06171738,0.8219491,0.6013667
-0.06152807,0.8190359,0.6001658
-0.06137027,0.8177558,0.5978519
-0.06061017,0.8176153,0.5973384
-0.06251065,0.8195505,0.6011535
-0.06274208,0.8196922,0.6059256
-0.06240498,0.8192268,0.6063209
-0.06388515,0.8209589,0.6044314
-0.06477162,0.8216805,0.6029658
-0.06579653,0.8226606,0.5999338
-0.06488668,0.8223336,0.5960959
-0.06261363,0.8213923,0.5930106
-0.05971325,0.8211069,0.5937186
-0.05699982,0.8193526,0.603373
-0.05902331,0.8197732,0.6134747
-0.0615919,0.8190809,0.6142646
-0.06229934,0.8169084,0.612959
-0.0614009,0.8186289,0.6139998
-0.05926162,0.8190506,0.6121936
-0.06315541,0.8182752,0.6087261
-0.06684557,0.8183414,0.6081898
-0.06315126,0.8179196,0.6082015
-0.06141835,0.8204219,0.6082146
-0.06288177,0.8231608,0.6087518
-0.06299645,0.8232569,0.607917
-0.06404217,0.8230057,0.6082745
-0.06592502,0.8234104,0.6064429
-0.06520467,0.8239495,0.6011941
-0.06293024,0.8219617,0.6022611
-0.06173142,0.8190442,0.6098873
-0.059679,0.8175866,0.6113907
-0.05779716,0.8177423,0.6035682
-0.05902224,0.8197557,0.6013387
-0.06037484,0.8206181,0.6046293
-0.0597109,0.8219433,0.6036213
-0.05919539,0.8236699,0.6026181
-0.0591273,0.8220238,0.601716
-0.05802368,0.8194149,0.6052739
-0.05856162,0.8171744,0.6107436
-0.06150034,0.8176743,0.6084311
-0.06302223,0.8192981,0.6092661
-0.06298003,0.8193947,0.6113069
-0.06230788,0.8228679,0.6045955
-0.06093851,0.8257871,0.5991249
-0.05912463,0.8261646,0.6011779
-0.05883168,0.8257008,0.6036356
-0.05824944,0.8214721,0.60223
-0.05294866,0.8195212,0.6030891
-0.05007829,0.8194562,0.6056726
-0.05162525,0.8173993,0.608245
-0.05181711,0.8182462,0.6119265
-0.05322087,0.8204152,0.6091373
-0.05478409,0.8220114,0.602507
-0.0552449,0.8222461,0.5994137
-0.05583174,0.8192575,0.6029459
-0.05640425,0.8170266,0.6098593
-0.05720307,0.817561,0.6087852
-0.05559327,0.8189874,0.6071531
-0.05336789,0.8191799,0.6104729
-0.05236715,0.8187583,0.6131753
-0.05250682,0.8200035,0.617488
-0.05330049,0.8199631,0.6133668
-0.05244186,0.8178108,0.6036692
-0.05222201,0.8178492,0.6034592
-0.05004268,0.8184419,0.6045602
-0.04561707,0.8176946,0.6042954
-0.04561324,0.8182057,0.6064194
-0.04830036,0.8185336,0.6080607
-0.05093823,0.8195396,0.6093825
-0.05205353,0.8216918,0.6098296
-0.05174369,0.8208772,0.6116031
-0.05412382,0.8203798,0.6125474
-0.05741926,0.8214219,0.6111804
-0.05748435,0.8211877,0.6122454
-0.05639524,0.8205033,0.6126398
-0.05673469,0.8178904,0.6122057
-0.05537559,0.8154273,0.6118808
-0.05273754,0.8156041,0.6104823
-0.05134794,0.8170292,0.6108854
-0.04847833,0.8196045,0.6093692
-0.0467786,0.8198753,0.6061815
-0.04832751,0.8179922,0.6053433
-0.05133339,0.8192312,0.6060785
-0.05731359,0.8243396,0.6099635
-0.06051633,0.8292398,0.6117949
-0.05961011,0.8269085,0.6072261
-0.06224596,0.8228294,0.6040651
-0.06345352,0.8252238,0.6054236
-0.06045484,0.823969,0.6053021
-0.0591839,0.8205139,0.6033727
-0.05767009,0.8222679,0.6041436
-0.05606038,0.8198435,0.6051756
-0.05548507,0.8167624,0.6063818
-0.05376245,0.8199272,0.6093513
-0.05241605,0.8236098,0.6085639
-0.05090913,0.8248162,0.6065629
-0.05090629,0.81978,0.6067023
-0.05304709,0.813631,0.6048456
-0.05542188,0.8156565,0.605575
-0.06013626,0.8182853,0.6103079
-0.06201381,0.817701,0.6095062
-0.06174967,0.821621,0.6025597
-0.06312706,0.825434,0.5982468
-0.0593822,0.8231682,0.6001934
-0.05700094,0.822455,0.6041673
-0.05899918,0.8244202,0.6072024
-0.0581375,0.8251005,0.6094464
-0.05792794,0.8248526,0.6090775
-0.05656971,0.8220419,0.6074941
-0.053457,0.8199198,0.6070084
-0.05221538,0.8210477,0.6066972
-0.05163138,0.8219908,0.6079807
-0.05553147,0.8223531,0.6088989
-0.06195697,0.8222842,0.6079646
-0.06376301,0.822477,0.608808
-0.06201057,0.824073,0.6100452
-0.06101907,0.8251608,0.6106928
-0.06047183,0.8234424,0.6106606
-0.05801819,0.8210707,0.6097643
-0.05436637,0.82132,0.6100221
-0.05070837,0.8207247,0.6087763
-0.0529489,0.8188147,0.6056277
-0.05700605,0.8196798,0.6008683
-0.05080041,0.8211838,0.5954783
-0.04687124,0.8206253,0.5949779
-0.05312265,0.8178823,0.5995854
-0.0570106,0.8162981,0.6056133
-0.05854816,0.8193398,0.6053539
-0.06108278,0.8216454,0.6020235
-0.06196523,0.8191158,0.6033344
-0.06172375,0.8178238,0.600005
-0.06251666,0.8226879,0.5948164
-0.06307677,0.8268289,0.5932751
-0.06197489,0.824824,0.5933628
-0.06187597,0.8233134,0.5986031
-0.05872719,0.8237723,0.601551
-0.05266715,0.8221496,0.6042119
-0.05192083,0.8201135,0.6061914
-0.05354413,0.8190149,0.6013207
-0.0549484,0.8192176,0.602812
-0.05776521,0.8202095,0.6040567
-0.05909332,0.8212157,0.601952
-0.05826494,0.8235573,0.6049097
-0.05796037,0.8240053,0.6040588
-0.05887549,0.8211017,0.6084234
-0.05913416,0.8194751,0.6156999
-0.05962802,0.8195808,0.6133373
-0.05925488,0.8211737,0.6114422
-0.05722891,0.8230295,0.6089691
-0.05663755,0.8218389,0.6065146
-0.05553179,0.8199048,0.6068395
-0.05597922,0.8183396,0.6032546
-0.05881794,0.81742,0.6022571
-0.05808253,0.8183423,0.6076573
-0.05624762,0.8181661,0.6089931
-0.05569668,0.817938,0.6052387
-0.05741182,0.8193885,0.6069452
-0.06208165,0.8206797,0.6084173
-0.06337359,0.8220595,0.6063733
-0.06145774,0.8228866,0.6096917
-0.0589157,0.8238696,0.6105035
-0.05609001,0.8253866,0.6104768
-0.05740878,0.824342,0.6125141
-0.05941675,0.8227154,0.6091581
-0.05783667,0.8228474,0.6064239
-0.05713823,0.8220264,0.6020689
-0.05749703,0.8203847,0.6015912
-0.05833415,0.8182318,0.6090696
-0.0599439,0.8158641,0.6089371
-0.05735496,0.8172512,0.6075987
-0.0540337,0.8191198,0.6090058
-0.0567807,0.8181713,0.6074298
-0.06187256,0.8210677,0.606507
-0.06668614,0.8261959,0.6032122
-0.06796245,0.8271177,0.6015696
-0.06444861,0.8260728,0.6025107
-0.06262575,0.8250876,0.6012818
-0.05987952,0.8240285,0.6030159
-0.05639332,0.8234345,0.6052443
-0.05692118,0.8244073,0.6050068
-0.05548731,0.8247094,0.6058804
-0.0546446,0.8203787,0.6076499
-0.05681734,0.8170592,0.6087191
-0.05700224,0.820467,0.6079148
-0.05863773,0.8238749,0.6054573
-0.05907757,0.8215785,0.6042877
-0.05760985,0.8187427,0.6083882
-0.0600198,0.8182048,0.6121304
-0.06228132,0.8187121,0.6066885
-0.06445067,0.8222229,0.6002955
-0.06597693,0.8248782,0.6000435
-0.06310881,0.8249647,0.5986923
-0.06141535,0.8245502,0.5978754
-0.06090427,0.8201673,0.6016122
-0.05923863,0.8173726,0.6036622
-0.05929922,0.8214941,0.6048862
-0.05917591,0.8248748,0.6064743
-0.05795127,0.8217329,0.604207
-0.05811336,0.8174182,0.6015279
-0.05888313,0.818048,0.6036991
-0.05976909,0.8184706,0.6117736
-0.06346307,0.8185256,0.6170915
-0.06584156,0.8203701,0.6125038
-0.06079967,0.8204814,0.6074906
-0.05632193,0.8227117,0.6079673
-0.05833564,0.8244466,0.6092601
-0.0597702,0.822,0.6098361
-0.06032803,0.8201032,0.6108226
-0.0630189,0.8191333,0.6075968
-0.1012217,0.8494419,0.5614175
-0.09998003,0.8479766,0.5600307
-0.09749207,0.8479924,0.5603487
-0.0977218,0.8463506,0.5591182
-0.09344655,0.8432718,0.5618577
-0.08728265,0.8445953,0.5646269
-0.08951898,0.8471349,0.5670965
-0.09639674,0.8481549,0.5721825
-0.1009011,0.8487946,0.5678201
-0.1006714,0.8467772,0.5623248
-0.09789144,0.8456776,0.5645297
-0.09684072,0.8495639,0.5642829
-0.09655477,0.8525351,0.5648742
-0.09691885,0.8504795,0.5668165
-0.09773597,0.8481339,0.5668346
-0.09599914,0.8486454,0.568019
-0.09532327,0.8484472,0.5681293
-0.09610058,0.846542,0.5701149
-0.09466522,0.8455084,0.5739403
-0.09422513,0.8455635,0.5712978
-0.09485473,0.8456003,0.5671278
-0.09668325,0.8431551,0.5663756
-0.1006371,0.8409322,0.5663318
-0.1013149,0.844347,0.5679639
-0.0969381,0.8499148,0.5675513
-0.09272169,0.8525935,0.5665376
-0.09355995,0.8514419,0.5672987
-0.09294792,0.8493774,0.5660648
-0.08879391,0.8484127,0.5667602
-0.09093126,0.8466223,0.567094
-0.09341959,0.846113,0.5642368
-0.09259766,0.8443789,0.5586035
-0.09510604,0.8410021,0.5529168
-0.09502637,0.8457031,0.5614523
-0.09353043,0.8511521,0.5723897
-0.09483478,0.8483114,0.5717728
-0.09280077,0.8476844,0.5770922
-0.08834184,0.8490172,0.5827312
-0.08404238,0.8455583,0.5801578
-0.08201156,0.8434443,0.5813162
-0.08344271,0.8443774,0.5766118
-0.08167609,0.8436288,0.5661556
-0.0781835,0.841717,0.5652144
-0.0773238,0.8412633,0.5654983
-0.07728672,0.8418898,0.563548
-0.08227277,0.8416844,0.5655296
-0.0881763,0.8415125,0.5674731
-0.08463393,0.8418326,0.5668584
-0.08038112,0.8415732,0.5660912
-0.08241028,0.8418403,0.5670028
-0.08213066,0.8426408,0.5669665
-0.08017882,0.8433981,0.5674804
-0.07976285,0.8439654,0.5705742
-0.07790999,0.8435791,0.5712458
-0.07846234,0.8427945,0.5707736
-0.08073907,0.8419467,0.5720666
-0.08062764,0.8416984,0.5769658
-0.08113782,0.8429021,0.5819889
-0.08334336,0.84547,0.5775225
-0.0872841,0.8485138,0.5716116
-0.09134798,0.8499923,0.5709559
-0.09349356,0.8498152,0.567569
-0.09261003,0.8482271,0.5672472
-0.08857829,0.8458152,0.5730921
-0.08744511,0.843397,0.5736775
-0.08780397,0.8397031,0.569561
-0.08729648,0.8378683,0.5659313
-0.08972614,0.8396995,0.5638941
-0.09076627,0.8415828,0.5648117
-0.09017224,0.843593,0.5663704
-0.09053089,0.8456442,0.569618
-0.09096637,0.8459775,0.5704883
-0.09182342,0.8444185,0.5669826
-0.08969914,0.8435485,0.5664493
-0.08713597,0.8452519,0.564997
-0.08738967,0.8454484,0.5644414
-0.0879,0.8454804,0.5663982
-0.08937554,0.846413,0.5656737
-0.09089848,0.8442546,0.570965
-0.09139159,0.8432289,0.5774264
-0.09163867,0.8433489,0.5759397
-0.09179604,0.8434415,0.5738982
-0.09188068,0.8452283,0.5731187
-0.09253926,0.8443614,0.572147
-0.09442229,0.8445699,0.5708203
-0.09476894,0.847672,0.5680622
-0.09421754,0.8484853,0.5646609
-0.0943932,0.8460378,0.5668783
-0.09329858,0.8416855,0.5721601
-0.09191785,0.8426253,0.5708686
-0.09131836,0.845818,0.5717201
-0.09149828,0.8440332,0.5737847
-0.09100198,0.8431741,0.5704179
-0.08975207,0.84323,0.5698399
-0.09047818,0.843394,0.5678242
-0.09141245,0.84691,0.5673031
-0.09168948,0.8494624,0.5716356
-0.09226526,0.8480312,0.569362
-0.09323414,0.8462945,0.5654696
-0.09502752,0.8475607,0.5646418
-0.09442854,0.848374,0.5649497
-0.09205651,0.8470784,0.5651042
-0.09075147,0.8455809,0.5631341
-0.08863401,0.8436265,0.5650228
-0.08890771,0.8442468,0.5673747
-0.09331503,0.845687,0.568083
-0.0947084,0.846524,0.5698959
-0.0940882,0.8496066,0.5663656
-0.09708232,0.8491647,0.5621795
-0.09743452,0.8470187,0.5627296
-0.09407911,0.8466278,0.5657604
-0.09330127,0.8435673,0.5703805
-0.09142688,0.8433583,0.5715616
-0.09061135,0.8438192,0.5695235
-0.0924072,0.8404348,0.5680979
-0.08951256,0.8414218,0.5678532
-0.08794258,0.8425937,0.5681752
-0.08944048,0.8408676,0.5679887
-0.08864678,0.8419536,0.5686288
-0.08894402,0.8418672,0.5707409
-0.0889791,0.8412249,0.5729769
-0.08903553,0.8420774,0.5726521
-0.09094424,0.8414615,0.5705918
-0.09215574,0.8419865,0.5686702
-0.09289187,0.8438381,0.5665395
-0.09294578,0.8454524,0.5685934
-0.09338703,0.8456136,0.5702778
-0.09367857,0.8438018,0.5673676
-0.09244114,0.8442698,0.5679772
-0.09048973,0.8449793,0.5678491
-0.08852924,0.8440003,0.5664339
-0.08894445,0.8445922,0.56894
-0.08891103,0.8445718,0.5690362
-0.08795644,0.8441837,0.5718965
-0.08905478,0.8446853,0.5766997
-0.08890578,0.8439648,0.5727583
-0.08819614,0.8426413,0.5680608
-0.0887161,0.841594,0.5677353
-0.08887074,0.8430931,0.5678161
-0.08714064,0.8455192,0.567362
-0.0860774,0.8445891,0.5661052
-0.0907547,0.8448091,0.565644
-0.0941814,0.8464424,0.5658402
-0.08977639,0.8439477,0.5676598
-0.08378281,0.8393926,0.5704786
-0.08282207,0.8374647,0.5697686
-0.08710015,0.8423291,0.5683104
-0.09199116,0.8484104,0.5681276
-0.094236,0.8460533,0.5661736
-0.09323456,0.8443289,0.5667786
-0.09329208,0.8468672,0.571424
-0.09479209,0.8443213,0.5746896
-0.0914863,0.8418524,0.5756507
-0.08798566,0.8418203,0.5734311
-0.08789865,0.8416013,0.5701661
-0.08795614,0.8448093,0.5707492
-0.09004354,0.8464879,0.5770383
-0.09224002,0.8444758,0.5839332
-0.0901883,0.8423101,0.5784957
-0.08786289,0.8413017,0.5709313
-0.09024001,0.8436275,0.5739756
-0.0929273,0.8453692,0.5711757
-0.09289154,0.8452353,0.5651428
-0.09246161,0.8463124,0.5657552
-0.09155017,0.8477894,0.5657392
-0.09323215,0.84904,0.5681535
-0.0951883,0.8484364,0.5698677
-0.0924123,0.8464975,0.5689324
-0.09084095,0.8458218,0.5715485
-0.09183882,0.8474097,0.5744439
-0.09182135,0.8489515,0.5800824
-0.09119316,0.8460129,0.5835203
-0.08983512,0.8431059,0.5783064
-0.08848217,0.8441887,0.5739096
-0.08874462,0.8431796,0.5695384
-0.09073375,0.8406525,0.5631286
-0.09313331,0.8415789,0.5616682
-0.09459729,0.8422506,0.5658334
-0.09223384,0.841375,0.5697844
-0.08869269,0.8431968,0.5695196
-0.09014408,0.8465738,0.5683875
-0.0902035,0.8492603,0.5678702
-0.0879671,0.8491068,0.5676529
-0.09022591,0.84631,0.5675292
-0.09177564,0.8464782,0.5663376
-0.09153412,0.846254,0.567979
-0.09124023,0.8428203,0.571424
-0.08766651,0.8412389,0.5727675
-0.08419314,0.8387621,0.5721543
-0.08414283,0.8383425,0.5699492
-0.08594385,0.8444658,0.5690831
-0.0886509,0.8477294,0.5694285
-0.09331832,0.847894,0.5687638
-0.09712093,0.8487037,0.5659854
-0.09669252,0.8458133,0.5631464
-0.09476344,0.8433591,0.5662532
-0.09226902,0.844507,0.5697505
-0.09234861,0.8447862,0.5679696
-0.09345847,0.8445798,0.5683693
-0.08888267,0.8462014,0.5701694
-0.08622951,0.847748,0.5683908
-0.08794053,0.8462458,0.5683553
-0.08848884,0.8442415,0.5731674
-0.08916758,0.8443904,0.5781437
-0.08922365,0.8444776,0.5787342
-0.09054351,0.8444142,0.5767278
-0.09241856,0.8445057,0.5760034
-0.09165775,0.8443626,0.5741755
-0.09160649,0.8445125,0.5705588
-0.09286748,0.8444194,0.5681086
-0.09425305,0.8445989,0.5672285
-0.09474784,0.8457519,0.5677022
-0.09399189,0.8474732,0.5648232
-0.09211365,0.8476982,0.5605689
-0.08843727,0.8459998,0.5620338
-0.08650827,0.8458714,0.5633901
-0.08791593,0.8454809,0.5637598
-0.0898722,0.8435731,0.5659094
-0.09139746,0.8448207,0.5673944
-0.09216035,0.8464202,0.5713023
-0.09158815,0.8452129,0.5735174
-0.09139279,0.8433223,0.5717134
-0.09217477,0.8415369,0.5721406
-0.09205228,0.8431761,0.5712571
-0.09180736,0.8474221,0.5657202
-0.09169644,0.8502777,0.5612665
-0.09202514,0.8500733,0.5643842
-0.0922759,0.8457765,0.5689328
-0.09099142,0.8433673,0.5664858
-0.09173688,0.8441636,0.5667739
-0.09217914,0.8428664,0.5705766
-0.09081174,0.8412744,0.5702566
-0.09119667,0.8425448,0.5730683
-0.090019,0.8456659,0.5793107
-0.08944036,0.8461469,0.5814591
-0.08919909,0.8446402,0.5740036
-0.08647077,0.8443699,0.5642988
-0.08789611,0.844192,0.5697615
-0.0910473,0.8452303,0.5762142
-0.09274863,0.847131,0.5714347
-0.09393508,0.8484398,0.5703422
-0.09241556,0.8455615,0.5684215
-0.0920115,0.8401626,0.5645061
-0.09189711,0.8413348,0.5675473
-0.09106401,0.8430395,0.5709458
-0.09194443,0.8426059,0.5722425
-0.09054478,0.845317,0.5700709
-0.08881327,0.8448141,0.5674208
-0.08875132,0.8437977,0.5725312
-0.08760221,0.8459555,0.5769017
-0.08670838,0.8455826,0.574037
-0.08750043,0.8439553,0.5728052
-0.09216915,0.8426428,0.5760176
-0.09645235,0.8430196,0.5763222
-0.09531796,0.8454182,0.5725338
-0.09530875,0.8461021,0.5698133
-0.09658875,0.8459268,0.5703846
-0.09529812,0.846122,0.5713097
-0.09481193,0.8474893,0.568687
-0.09453905,0.8488629,0.5672321
-0.09366376,0.8456105,0.5696961
-0.09297135,0.841429,0.5742087
-0.09112387,0.841519,0.5792895
-0.09120181,0.8437231,0.5759779
-0.09238563,0.8450419,0.5683333
-0.09092448,0.8444798,0.5674125
-0.08978579,0.8437932,0.5680615
-0.08891874,0.8426935,0.5681299
-0.08932708,0.8401982,0.5680723
-0.09209115,0.8398753,0.5667805
-0.09222359,0.8415937,0.5668814
-0.09305106,0.8418818,0.5673993
-0.09539612,0.8415822,0.5686849
-0.09420882,0.8425885,0.5698276
-0.09301777,0.8461007,0.5694058
-0.09205308,0.8501806,0.5694995
-0.0902262,0.8498679,0.5691469
-0.09012113,0.8482886,0.5689552
-0.08997505,0.8490303,0.5693343
-0.0884948,0.8475519,0.5702989
-0.08696765,0.8438901,0.5732
-0.08759134,0.8407852,0.5757204
-0.08994997,0.8412714,0.575856
-0.09145922,0.8454939,0.5751186
-0.09208507,0.8463298,0.5758501
-0.09090191,0.8456018,0.5726051
-0.08783489,0.8459264,0.5678405
-0.08586362,0.8444117,0.5730232
-0.08838567,0.8436951,0.5772469
-0.09277101,0.8437872,0.5739606
-0.09186177,0.8455759,0.5728806
-0.08988017,0.8478211,0.5720208
-0.09087854,0.8478039,0.5710094
-0.09123114,0.8490639,0.5711722
-0.09366784,0.8482878,0.5694195
-0.09493818,0.8450039,0.5693255
-0.0911266,0.84238,0.5727654
-0.08856398,0.8405338,0.5734454
-0.08797333,0.8420194,0.5711114
-0.08647405,0.842062,0.5721656
-0.08383329,0.8409839,0.5720117
-0.08315399,0.8422053,0.5700644
-0.08420911,0.8418445,0.5731789
-0.08366662,0.8432841,0.5751442
-0.08497663,0.845174,0.5740175
-0.08570176,0.843224,0.5732076
-0.08565945,0.8418697,0.5708992
-0.08837844,0.8427231,0.5679725
-0.08684746,0.8451529,0.5657773
-0.08516389,0.8460464,0.5675403
-0.08766084,0.843018,0.5704238
-0.08765547,0.8408295,0.5717827
-0.08738486,0.8424304,0.577694
-0.08691405,0.8440847,0.5823593
-0.08356205,0.8436832,0.578656
-0.08016388,0.8444662,0.5694554
-0.07989232,0.8447997,0.5624685
-0.08219679,0.8430323,0.566397
-0.08211216,0.8429547,0.5723083
-0.081618,0.8431324,0.5722229
-0.08232213,0.8429091,0.5724741
-0.08165778,0.8432643,0.5720532
-0.08202568,0.8428813,0.5709466
-0.08208513,0.8432847,0.5715886
-0.08202332,0.8449329,0.5732923
-0.08401222,0.8490035,0.576697
-0.08474335,0.8526826,0.5761163
-0.08315119,0.8492916,0.5727184
-0.08148047,0.8444384,0.5726337
-0.08369279,0.8440686,0.5712424
-0.08684492,0.8444879,0.5697664
-0.08588662,0.8445059,0.5694942
-0.08501274,0.8444735,0.5677338
-0.08400378,0.8441475,0.5695432
-0.08080457,0.8434852,0.5714517
-0.07843645,0.8409689,0.5679555
-0.07930572,0.8367552,0.5667545
-0.08365423,0.8344639,0.5729673
-0.08653137,0.8388429,0.5780657
-0.08659162,0.8448548,0.572648
-0.08687516,0.8436393,0.5656395
-0.08756783,0.8427425,0.5661951
-0.08790854,0.8456201,0.5664559
-0.08715674,0.8443687,0.566016
-0.08712054,0.8438313,0.5697551
-0.086054,0.8451636,0.5719215
-0.08375937,0.8441898,0.5710808
-0.08458601,0.8451918,0.571904
-0.08408213,0.8456606,0.5729997
-0.08171692,0.8446179,0.5723002
-0.0818169,0.844483,0.5733203
-0.08201042,0.8408976,0.5744803
-0.08247947,0.8377095,0.5720972
-0.08463643,0.84059,0.5717632
-0.08686567,0.8433473,0.5728056
-0.08635511,0.8431126,0.572471
-0.08449674,0.8445802,0.5759787
-0.08480793,0.8452481,0.5773998
-0.08457357,0.8436704,0.5698092
-0.08362181,0.8446486,0.5623865
-0.0833541,0.8449705,0.5653514
-0.0824697,0.844766,0.5727213
-0.08090552,0.8463751,0.5768249
-0.07837945,0.8449173,0.5808281
-0.07929144,0.8441361,0.5793008
-0.08404504,0.8465821,0.5734851
-0.08708651,0.8473191,0.5692643
-0.08800072,0.8456182,0.563025
-0.08560461,0.8435586,0.5659579
-0.08398843,0.8445197,0.5728612
-0.08696252,0.8459395,0.5718063
-0.0879286,0.8455744,0.5738945
-0.0863433,0.8461234,0.5748868
-0.08485763,0.846136,0.5744903
-0.08430481,0.846867,0.5757008
-0.08501395,0.8469921,0.5722942
-0.08462266,0.8444695,0.5719447
-0.08447701,0.8454435,0.5724568
-0.08400445,0.8468877,0.5717787
-0.08303036,0.8453532,0.5728473
-0.08428485,0.8463349,0.5720444
-0.08513534,0.8461795,0.5738326
-0.08468366,0.8433316,0.5734736
-0.08477625,0.8433683,0.5686666
-0.08586107,0.8433784,0.5686157
-0.08733644,0.842686,0.5751272
-0.08774837,0.8444344,0.5810026
-0.08750831,0.8456689,0.5751956
-0.08737132,0.8457501,0.5690786
-0.0875732,0.8451349,0.5737039
-0.08719168,0.8439109,0.5766212
-0.08558251,0.8442782,0.5777508
-0.08394963,0.8438347,0.5788385
-0.08266103,0.8424858,0.5762228
-0.08232027,0.8431009,0.574602
-0.08448049,0.843458,0.5733188
-0.08786486,0.8437231,0.5735271
-0.08748716,0.8448218,0.5738937
-0.08590638,0.8445663,0.5682461
-0.08838403,0.8438055,0.5653744
-0.08977437,0.8431889,0.5684403
-0.09004192,0.8429143,0.5710731
-0.09101362,0.844654,0.5731373
-0.08996263,0.8452073,0.5710374
-0.09110783,0.8442903,0.5653948
-0.09241499,0.8472312,0.5618792
-0.09104933,0.8498173,0.5653677
-0.09089191,0.8484129,0.5725806
-0.09011129,0.8483109,0.5721882
-0.08994466,0.8489214,0.5712912
-0.09091178,0.8482933,0.5734037
-0.09088262,0.8475396,0.5711565
-0.09197149,0.8459249,0.5704114
-0.09175848,0.844528,0.5693007
-0.09032973,0.8439225,0.5668761
-0.09030213,0.843727,0.5651769
-0.09101391,0.8469174,0.5612916
-0.09481563,0.8531458,0.5637696
-0.09832486,0.8540426,0.5672174
-0.09542007,0.8495865,0.5642216
-0.09106389,0.8484757,0.5646142
-0.09046198,0.8475793,0.5661937
-0.09036028,0.8448182,0.5673768
-0.08992623,0.8451466,0.5691178
-0.09057995,0.8459793,0.5675847
-0.0902304,0.8458335,0.5678437
-0.08990029,0.8449142,0.5691509
-0.08950312,0.844463,0.5696801
-0.08749646,0.8473545,0.5700683
-0.08717636,0.8494395,0.5649497
-0.0877158,0.8482392,0.5623844
-0.08775343,0.8455285,0.5674945
-0.08934301,0.8437264,0.5694578
-0.09132308,0.8443736,0.5696095
-0.0931766,0.8448904,0.5728145
-0.09488435,0.8452345,0.5749236
-0.09489607,0.8460439,0.5733046
-0.09398685,0.8463752,0.567249
-0.09481421,0.847608,0.5634902
-0.0965769,0.8500356,0.5673358
-0.09720149,0.8501339,0.5694618
-0.09671437,0.8468159,0.5675561
-0.0952585,0.8450852,0.5695806
-0.09563235,0.8459624,0.5737335
-0.09589828,0.8467923,0.5750605
-0.09300182,0.8462158,0.571313
-0.09242077,0.8433303,0.5649863
-0.09328453,0.8406285,0.5650001
-0.09244362,0.8406512,0.5698146
-0.09276107,0.8447604,0.5725175
-0.09312891,0.8488805,0.5728582
-0.09122447,0.8474645,0.5704867
-0.08944723,0.846294,0.5659108
-0.09036187,0.8472852,0.561403
-0.09027215,0.8445488,0.5630373
-0.08808346,0.841859,0.5675437
-0.08720343,0.8431232,0.5648396
-0.08778489,0.8436964,0.5642653
-0.09046721,0.8435422,0.5668444
-0.09230672,0.8448397,0.5652781
-0.09081972,0.8443097,0.5668293
-0.09008497,0.8422486,0.5664738
-0.09204747,0.8415584,0.564318
-0.09374857,0.8423346,0.5677186
-0.0921211,0.843409,0.5695053
