accx,accy,accz
0.3020555,0.6726735,0.6694937
0.3044005,0.6586718,0.6813712
0.3048749,0.6672073,0.7012089
0.3026941,0.6663667,0.7026765
0.2985381,0.6617069,0.695367
0.2987575,0.6623013,0.696375
0.2987473,0.6573815,0.691438
0.2945262,0.6584094,0.6873554
0.2971517,0.6637771,0.6845436
0.3006027,0.6688063,0.6775259
0.2977965,0.6725991,0.6769172
0.2994622,0.6694596,0.685966
0.2994721,0.6657844,0.698865
0.290978,0.6627443,0.7038462
0.2807623,0.657068,0.7101794
0.2765132,0.6539537,0.7207844
0.280871,0.648415,0.7169759
0.2816826,0.6384061,0.7123407
0.2791776,0.6387688,0.7150071
0.2801378,0.6453649,0.7124927
0.2781602,0.6482436,0.7110968
0.2780591,0.6538204,0.7097
0.2809751,0.6552832,0.7054944
0.2807988,0.6525707,0.7093375
0.2813731,0.655081,0.7185984
0.2826267,0.654367,0.7242232
0.283752,0.6528507,0.7226021
0.2844807,0.6528868,0.7169329
0.2813206,0.6475821,0.7161864
0.277977,0.6461238,0.7149486
0.2797067,0.648767,0.7064566
0.2815994,0.6517579,0.7005057
0.2786726,0.6576287,0.7082606
0.2755367,0.6588761,0.721271
0.2729341,0.6577028,0.7219312
0.2712221,0.6585624,0.7213943
0.2735821,0.6570111,0.7210265
0.274148,0.6547335,0.709107
0.2725851,0.6537135,0.7080868
0.2712523,0.6534978,0.7149797
0.2684964,0.6514725,0.7150688
0.2685377,0.6471831,0.7192346
0.2675737,0.6465234,0.7228976
0.2639139,0.6486761,0.7272866
0.2657467,0.6486562,0.7282898
0.2697308,0.6475737,0.7230447
0.2712764,0.647205,0.7257563
0.2711949,0.647959,0.7255429
0.2690392,0.6485794,0.7238094
0.2672256,0.6459536,0.7273042
0.2655368,0.6438551,0.7258533
0.2643371,0.6472732,0.7264623
0.2643004,0.650831,0.7267042
0.2609855,0.650754,0.7246433
0.2587711,0.6522074,0.725009
0.2628999,0.6550862,0.7215952
0.2686695,0.6532542,0.7192599
0.2723301,0.6495303,0.7188692
0.2709124,0.6472055,0.7180348
0.2675918,0.6422024,0.7196952
0.2663938,0.638648,0.723027
0.2645752,0.6403423,0.7269164
0.2651358,0.6414263,0.7270439
0.2669482,0.6424942,0.7280682
0.2656321,0.6454917,0.7293737
0.2633147,0.6460609,0.7252802
0.2604735,0.6468408,0.7248149
0.2621006,0.651765,0.7230389
0.2656866,0.6548522,0.7173851
0.2632644,0.6537162,0.7191993
0.262397,0.6513585,0.7219886
0.2631347,0.6487918,0.7220497
0.2626395,0.64763,0.7237471
0.2673332,0.6446108,0.7214448
0.2709631,0.638793,0.7177681
0.2693129,0.6367597,0.7197896
0.2680246,0.6396929,0.7217734
0.2676399,0.6439921,0.7238837
0.2658297,0.6458369,0.7276347
0.2619216,0.6471536,0.7243486
0.2605099,0.651183,0.7198297
0.2630529,0.6529255,0.7224983
0.2646715,0.6537175,0.7269671
0.2641065,0.657246,0.7285084
0.2645116,0.6560176,0.7241885
0.2667966,0.6467332,0.7184304
0.2670209,0.6378173,0.7164803
0.2648855,0.636397,0.7171093
0.2597539,0.6357698,0.7221733
0.2532807,0.630442,0.7286158
0.2539475,0.6338912,0.7309732
0.2537837,0.6506329,0.7316214
0.2479135,0.6644825,0.7336193
0.2493898,0.6637559,0.7335223
0.2516927,0.6529272,0.7289411
0.2487492,0.6482872,0.7267621
0.2505626,0.6501442,0.7282723
0.2526008,0.6476916,0.7296687
0.2533082,0.6449941,0.7311381
0.2553095,0.6437723,0.7306252
0.253887,0.6446213,0.7305601
0.2547409,0.6470096,0.7330282
0.256914,0.6468081,0.7354798
0.2567666,0.6466993,0.7369097
0.2588216,0.6444822,0.7359761
0.2578533,0.6440061,0.7357728
0.2562558,0.6472804,0.7363633
0.2591901,0.6480789,0.7347698
0.2595973,0.6497622,0.7335941
0.2561002,0.6512806,0.73309
0.2536339,0.6530429,0.7328751
0.2577136,0.6536633,0.7316455
0.2639257,0.6505349,0.7285311
0.2648132,0.6506676,0.726602
0.2660875,0.6505441,0.7239219
0.2674197,0.6519388,0.720006
0.2649495,0.6558868,0.7196907
0.2631526,0.6539434,0.7239133
0.2621972,0.6538865,0.7279895
0.2626759,0.6576081,0.7262776
0.2658589,0.6614666,0.7218623
0.2683242,0.6641766,0.7185277
0.269427,0.6543059,0.7153266
0.2695117,0.6361228,0.7173621
0.2700668,0.6281838,0.7237009
0.2731752,0.6343181,0.7284626
0.2759362,0.6411899,0.730743
0.2751261,0.6428507,0.7283798
0.2724619,0.6480752,0.7257731
0.271914,0.6521122,0.722095
0.2721699,0.6507596,0.7148419
0.2711848,0.6536533,0.7128095
0.2709232,0.6579696,0.7099838
0.2715131,0.6586675,0.7053836
0.2729958,0.6572203,0.7080764
0.2742315,0.6544865,0.7113813
0.2750322,0.6535799,0.7161505
0.2756146,0.6529614,0.7212213
0.2745009,0.6507737,0.7196916
0.2749882,0.6493945,0.7156363
0.2754421,0.6501997,0.7109185
0.2742721,0.65225,0.7114885
0.2744577,0.6530273,0.7144297
0.2733246,0.6525916,0.7124056
0.2732294,0.6506855,0.714172
0.274215,0.6479011,0.7168665
0.2728222,0.6457236,0.7197264
0.2715654,0.6444231,0.7260021
0.2686937,0.6477329,0.7227021
0.2675023,0.6515172,0.7147181
0.2712387,0.6491569,0.7116983
0.2730896,0.6475168,0.7118064
0.2711788,0.6493195,0.7163696
0.2665219,0.6496128,0.7180123
0.2624045,0.6498672,0.7186725
0.2628549,0.6504565,0.7234657
0.2621767,0.650395,0.7277615
0.2585018,0.6535523,0.7354209
0.2585893,0.6554983,0.7384384
0.2582197,0.648332,0.7330407
0.2535053,0.6407275,0.7310933
0.2528043,0.6427088,0.7296315
0.2536308,0.6463896,0.7297536
0.2540841,0.6442826,0.7318955
0.2588529,0.6395943,0.7298425
0.2603078,0.6351297,0.7301689
0.2582857,0.6376416,0.730428
0.256115,0.6436862,0.7279454
0.2525479,0.6406085,0.7283731
0.251515,0.6388794,0.7269136
0.250259,0.6415665,0.7260214
0.2494877,0.6403094,0.7299736
0.2502678,0.6438345,0.7330535
0.2487864,0.6472798,0.7340158
0.2490116,0.6446408,0.7335678
0.2512676,0.6437575,0.7347604
0.2533525,0.6434172,0.7371241
0.2524578,0.6421437,0.7362252
0.2501529,0.6411061,0.736755
0.2518367,0.641671,0.7389252
0.2515108,0.6424637,0.738334
0.2498536,0.6425705,0.7381937
0.2503075,0.643867,0.7399714
0.2494301,0.6431556,0.740863
0.2490873,0.6440486,0.7399182
0.2476213,0.6455167,0.7391925
0.2464557,0.6426786,0.7389241
0.2475277,0.6424475,0.7385761
0.2462267,0.6417722,0.7391159
0.2457484,0.6388342,0.7385628
0.2479721,0.6386548,0.7368722
0.250002,0.6378132,0.7370786
0.250533,0.6395804,0.7419973
0.2494531,0.6431505,0.7483225
0.2491316,0.6415164,0.7475978
0.2485623,0.6400423,0.746652
0.2482126,0.6406217,0.749025
0.2492057,0.6405387,0.7424653
0.2495254,0.64296,0.7341681
0.251039,0.6454895,0.7349303
0.2520461,0.6444934,0.7394179
0.2510279,0.6439717,0.7433811
0.2512335,0.6442448,0.7429448
0.2506684,0.6417283,0.7421864
0.2495122,0.6393007,0.7439808
0.2495141,0.6403163,0.7427358
0.2474694,0.6417076,0.7427304
0.2450621,0.6414272,0.7436838
0.2466225,0.6408503,0.7419833
0.2488634,0.6400515,0.7404082
0.2475714,0.6405477,0.7373128
0.245844,0.6433269,0.7367401
0.2462517,0.6452723,0.7392731
0.2487749,0.6450286,0.7383011
0.2527629,0.6428686,0.7361147
0.2537744,0.6401375,0.7343281
0.253333,0.6398818,0.7351572
0.2554132,0.6414938,0.7381514
0.2561018,0.6418536,0.7374888
0.2552448,0.640608,0.7371791
0.2555873,0.6401603,0.7375945
0.25566,0.6411859,0.7353337
0.2552709,0.6420109,0.733629
0.2545289,0.6417633,0.7310129
0.2530153,0.641399,0.7282473
0.2523571,0.6418323,0.7291707
0.2525547,0.6422366,0.7315092
0.2510907,0.6441687,0.7323568
0.2496484,0.6468495,0.7320653
0.2529257,0.6460418,0.7334902
0.2599858,0.6450156,0.7365144
0.2638177,0.6453645,0.7355795
0.2598007,0.6441426,0.7280658
0.2546425,0.6441082,0.7237721
0.2553077,0.6450951,0.7272155
0.2559339,0.6461622,0.72652
0.2541877,0.6514104,0.7226013
0.2544669,0.6559663,0.7223369
0.2562649,0.6524011,0.7226688
0.2592406,0.6461093,0.724318
0.2608384,0.6434017,0.7246743
0.2601824,0.6438158,0.7237896
0.2606099,0.6442672,0.7267385
0.2579378,0.6429553,0.7337372
0.2552074,0.6443725,0.7403143
0.2616642,0.6472885,0.7326981
0.2676682,0.6465267,0.7210343
0.2636382,0.6469927,0.7243861
0.2603832,0.6479637,0.7264524
0.262241,0.6466196,0.7260946
0.2602831,0.6471923,0.7304941
0.2592296,0.6469468,0.7247754
0.2642531,0.6465551,0.7176955
0.2671542,0.647983,0.7209844
0.2669908,0.6473517,0.7263947
0.2662959,0.6483353,0.7280403
0.2655653,0.6496422,0.7254127
0.2652387,0.6479286,0.7246867
0.2639704,0.6485746,0.7202653
0.2636662,0.6491261,0.7131765
0.2630374,0.6475199,0.720564
0.2620259,0.6462121,0.7289414
0.262706,0.643698,0.7260906
0.2624587,0.6438174,0.7257304
0.262085,0.6459464,0.7276214
0.2608516,0.6469616,0.7287284
0.2589873,0.6511039,0.7318901
0.2605821,0.6518696,0.7326847
0.2644982,0.6459745,0.7293657
0.2672821,0.6430937,0.725459
0.2641982,0.6435436,0.7252863
0.258913,0.6443703,0.7274966
0.2591475,0.6455776,0.7262933
0.2594245,0.6471333,0.7258355
0.2576545,0.6488518,0.7281436
0.2583471,0.6494627,0.7278112
0.2582923,0.6503524,0.728588
0.2560538,0.6498171,0.7285762
0.2542678,0.6473991,0.7224907
0.2540592,0.6451199,0.7189783
0.2564957,0.6426375,0.7251481
0.2597736,0.6428588,0.7335708
0.2616393,0.6434607,0.7326181
0.260548,0.6424805,0.7304853
0.2555647,0.642589,0.7335344
0.2529819,0.6424289,0.7329161
0.2561722,0.6441401,0.7327544
0.2580223,0.6463591,0.730163
0.2564536,0.6465507,0.7245903
0.2557975,0.6472429,0.725661
0.2556588,0.6452319,0.726267
0.254704,0.6417157,0.7299884
0.2530605,0.6412443,0.7371596
0.250641,0.6419171,0.7344963
0.2511901,0.642702,0.7291804
0.2542102,0.642325,0.7297848
0.2551937,0.6386682,0.7361331
0.2555082,0.6343182,0.7436621
0.25361,0.6342755,0.7441716
0.2499625,0.6366382,0.740679
0.2496392,0.6374811,0.7387565
0.2501105,0.6391225,0.737105
0.2498185,0.6426865,0.7368303
0.2486485,0.6472372,0.7385999
0.2453096,0.6476539,0.7394722
0.2427951,0.644034,0.7421911
0.2429607,0.6446035,0.7444624
0.2457185,0.6441308,0.74238
0.2490927,0.6410596,0.7423884
0.2507312,0.6402983,0.7409569
0.2496998,0.6387417,0.7370892
0.2467289,0.6372464,0.737528
0.2453574,0.6342586,0.7382781
0.2450782,0.6353824,0.7404756
0.2433811,0.6410486,0.7432551
0.240959,0.6402804,0.7418141
0.2408205,0.641404,0.7402351
0.2418811,0.6420803,0.7359958
0.2403514,0.6385996,0.7318655
0.2407893,0.6407015,0.737105
0.241726,0.6397595,0.7425078
0.2401986,0.6379344,0.74266
0.2416853,0.6405178,0.7443191
0.2431181,0.6397253,0.7426073
0.2448213,0.6376561,0.7390429
0.2465861,0.6351672,0.7430134
0.2436047,0.6346495,0.7455917
0.2422222,0.6357965,0.7412444
0.2423372,0.6361261,0.7391743
0.2413701,0.640066,0.7409671
0.2418697,0.6413538,0.7439991
0.2425355,0.6394914,0.7485688
0.2434088,0.640396,0.7505213
0.2431169,0.6394571,0.7455261
0.2431282,0.6381803,0.7409613
0.2447845,0.6381739,0.7431442
0.2447559,0.6372257,0.7437939
0.2447381,0.6373784,0.7409791
0.2467184,0.6378757,0.7396878
0.2485355,0.6384757,0.7377658
0.2483858,0.6405809,0.7376726
0.2483147,0.6428459,0.7397197
0.2473879,0.6424637,0.7393771
0.2452581,0.639652,0.7411835
0.2461839,0.6395171,0.7442899
0.2456083,0.6414656,0.7431524
0.2434507,0.6422152,0.7424278
0.243217,0.6450226,0.7429797
0.2438407,0.6473036,0.7399552
0.2505817,0.6453019,0.7360695
0.2562135,0.6424435,0.7355094
0.2525836,0.6378076,0.7370891
0.2496741,0.6358802,0.7397738
0.2507529,0.6400769,0.7425606
0.2505532,0.6429534,0.7416761
0.2502685,0.6485183,0.7379899
0.252958,0.6537071,0.7361025
0.2534129,0.6486598,0.7357813
0.2525522,0.6442764,0.7355845
0.2559745,0.6435901,0.7326461
0.257653,0.6419447,0.7245777
0.2569942,0.6415888,0.7172764
0.2568021,0.640422,0.717578
0.2569625,0.6425282,0.727517
0.2582316,0.6471251,0.7369681
0.2582634,0.6469182,0.733049
0.2585053,0.647063,0.7278377
0.2587305,0.6487093,0.7290049
0.2597983,0.6484992,0.7255781
0.2620886,0.6489143,0.7241839
0.2610198,0.6495392,0.7261957
0.2609044,0.6500767,0.723189
0.2628037,0.6499814,0.7232748
0.2642657,0.6478696,0.7250443
0.2660395,0.6467645,0.7263981
0.2649588,0.6471827,0.7305997
0.2630643,0.6473535,0.7286414
0.2623426,0.6472413,0.7263027
0.2619437,0.647076,0.7288422
0.261448,0.6473574,0.72906
0.2580879,0.6472043,0.731801
0.2563449,0.6471119,0.7334617
0.2599892,0.6466804,0.7268339
0.2631368,0.643507,0.7213535
0.2627811,0.6415154,0.7232127
0.2622629,0.6464771,0.7249632
0.2635699,0.6542545,0.7227967
0.2644341,0.6542681,0.7232863
0.2646663,0.647046,0.7234688
0.2655321,0.6426968,0.7211828
0.2650679,0.6446683,0.7226568
0.2628982,0.6491091,0.723642
0.2604746,0.6506493,0.7241994
0.2596847,0.6500261,0.7258671
0.2604354,0.6499439,0.7248539
0.2589528,0.6494683,0.7255474
0.2575983,0.6481094,0.7261689
0.2597534,0.6446224,0.7240906
0.2609143,0.642621,0.7231226
0.2603506,0.643683,0.7219647
0.2607546,0.645157,0.7219909
0.2619694,0.6491262,0.7242928
0.2631056,0.6511677,0.7272848
0.2624529,0.6492713,0.7302502
0.2621326,0.6480833,0.7297919
0.2629231,0.6468864,0.7291578
0.2619292,0.6461974,0.7302514
0.2606475,0.6440613,0.7254202
0.2594333,0.6403909,0.7199047
0.2592182,0.6415364,0.722495
0.260326,0.64445,0.7251106
0.2594949,0.6444497,0.724694
0.2595162,0.6445272,0.7253759
0.2601491,0.6447184,0.725468
0.259342,0.6450619,0.7274125
0.2598829,0.6461942,0.7303629
0.2598094,0.6447856,0.7294164
0.2594749,0.6427521,0.7301614
0.259994,0.6421546,0.7348935
0.2595424,0.6416421,0.7362884
0.2595766,0.6434507,0.7311697
0.2589291,0.6452146,0.7250031
0.257712,0.6445895,0.7256999
0.2573171,0.6452544,0.7302099
0.2558922,0.647349,0.7331734
0.2554325,0.6485183,0.7367063
0.2576556,0.6484764,0.735569
0.2598822,0.6472851,0.7313322
0.259708,0.6440271,0.7334065
0.2573217,0.6409914,0.7334089
0.2544811,0.6405426,0.7305076
0.2526044,0.6408162,0.7322984
0.2525872,0.6427538,0.7313351
0.2533178,0.6457847,0.7296117
0.25429,0.6465204,0.7310799
0.2552243,0.6465438,0.7304345
0.253966,0.6451444,0.7307769
0.2526881,0.6415465,0.7327753
0.2533369,0.6407957,0.7352185
0.254396,0.6407832,0.7389843
0.256046,0.6395632,0.7407904
0.2554719,0.6413927,0.7390666
0.2523862,0.6413592,0.7341585
0.2514328,0.6394101,0.7304101
0.251256,0.6411136,0.73018
0.2506785,0.6430536,0.7309246
0.2514973,0.6451532,0.7329576
0.2526063,0.6459897,0.7356381
0.2529522,0.6446773,0.7377295
0.2527268,0.6437059,0.7372853
0.2527745,0.640961,0.7344052
0.252816,0.641843,0.7331572
0.2525218,0.6445155,0.7347384
0.2521618,0.642438,0.7365959
0.2524668,0.6422927,0.7319991
0.2556401,0.64102,0.7222854
0.2572429,0.6374568,0.7198714
0.2523806,0.6387047,0.7313933
0.2481848,0.6386547,0.7440056
0.2495028,0.6370009,0.7398582
0.2491647,0.6397548,0.7354695
0.2460084,0.6429121,0.7413102
0.2468406,0.6434931,0.7383422
0.2472009,0.643171,0.7356253
0.244826,0.6437866,0.7374436
0.2461177,0.6448667,0.7346799
0.2475635,0.6443418,0.7375452
0.2486883,0.6432764,0.7411505
0.2515678,0.6422643,0.742482
0.2526267,0.6393586,0.7408315
0.2539392,0.6365031,0.7329942
0.2520002,0.6371105,0.7341068
0.2464763,0.6385653,0.7367847
0.2466579,0.6389872,0.7364986
0.247956,0.6402722,0.743175
0.246737,0.6391119,0.7441953
0.2473757,0.6362328,0.7417999
0.2473285,0.636646,0.7412422
0.2469872,0.6337158,0.7367918
0.2474568,0.6288375,0.7355357
0.2474334,0.6321398,0.7385775
0.2490337,0.6355608,0.7423427
0.2506216,0.6355189,0.7439803
0.2500885,0.6389907,0.7422514
0.2497005,0.6400247,0.7402859
0.2501389,0.6379596,0.7381934
0.2495488,0.6390984,0.7388703
0.2467817,0.6394305,0.7411525
0.2433582,0.6392465,0.740943
0.242365,0.640916,0.7398533
0.2444295,0.6405121,0.7381982
0.2458665,0.6407507,0.7373039
0.2457759,0.6423575,0.7382868
0.2465572,0.6415631,0.7393103
0.2483948,0.6412518,0.7392039
0.2507521,0.641062,0.7395925
0.2505308,0.6396434,0.7422242
0.2491473,0.6393243,0.7447466
0.2502588,0.6390529,0.7463269
0.249249,0.6394839,0.7461399
0.2474937,0.6407987,0.7442857
0.2472069,0.6399926,0.7442394
0.245249,0.6385085,0.7431436
0.245993,0.6391894,0.739844
0.2491635,0.6416251,0.7382558
0.2504004,0.6433398,0.7385974
0.2507277,0.6429975,0.7397506
0.2513666,0.642945,0.7401585
0.2533604,0.6432904,0.7401607
0.2533077,0.6428341,0.7390108
0.2519554,0.6429583,0.7384448
0.2535879,0.6422549,0.742265
0.2546581,0.6410139,0.7435897
0.255472,0.6410443,0.7409415
0.2548321,0.6411815,0.7396682
0.2503343,0.6427731,0.7388802
0.2483787,0.6449846,0.7378566
0.2485444,0.6458925,0.7351913
0.2491896,0.6461455,0.7339764
0.2526774,0.6443376,0.735136
0.2558768,0.6416343,0.7345625
0.2563193,0.6391225,0.735262
0.2550003,0.6385036,0.7375234
0.255458,0.6429874,0.739128
0.2562788,0.6458486,0.7376828
0.2560668,0.6437989,0.7342006
0.2583604,0.6422203,0.7327079
0.258857,0.6405102,0.7272778
0.2574692,0.6396568,0.7236399
0.2568805,0.6409742,0.7310762
0.2548812,0.6420586,0.7365561
0.2552814,0.6434384,0.7349231
0.2561679,0.6434404,0.7349695
0.2551022,0.6427175,0.7360741
0.2555046,0.6441774,0.7327001
0.2553253,0.644823,0.7291139
0.2565253,0.6444609,0.7314202
0.260309,0.6453634,0.7330017
0.2613248,0.6457658,0.7310345
0.2609342,0.6441302,0.7299591
0.262418,0.6423309,0.7282131
0.2637167,0.6430869,0.7278808
0.264023,0.6444412,0.7300746
0.2638515,0.6443748,0.7301913
0.2624419,0.6451048,0.7303161
0.260497,0.6471375,0.7309058
0.2595445,0.6492565,0.7293324
0.2613023,0.6489707,0.7288505
0.26352,0.6462489,0.7286472
0.2624265,0.6436677,0.725469
0.2620327,0.6410864,0.7226025
0.2629919,0.6427069,0.7233418
0.2624406,0.6461602,0.7252785
0.2635263,0.6440659,0.7249793
0.2652688,0.643987,0.7255306
0.2650657,0.6464304,0.7294456
0.2631833,0.6469069,0.73348
0.2600347,0.6504071,0.7330456
0.2595682,0.6515098,0.7265014
0.2626504,0.6466575,0.7210411
0.2647935,0.6430187,0.719889
0.2638736,0.6442974,0.7228592
0.2620911,0.6473352,0.7283633
0.2611264,0.6471971,0.7251312
0.2605594,0.6471874,0.7220994
0.2611274,0.6475391,0.7293753
0.2609092,0.6461902,0.7314161
0.2603562,0.6449334,0.7272139
0.2616458,0.6421687,0.7240905
0.2602007,0.6424625,0.7243778
0.2592171,0.6441352,0.7277068
0.2621205,0.6423349,0.726595
0.2626648,0.6433063,0.7267162
0.2616529,0.6443743,0.7297297
0.2606315,0.644485,0.7289101
0.2593673,0.6467896,0.7276947
0.2573315,0.6474004,0.7254881
0.2542509,0.6470553,0.725337
0.2554395,0.6457122,0.7303265
0.2564076,0.6454643,0.7342029
0.2545786,0.6479414,0.7378831
0.2551806,0.6471881,0.7409903
0.2549234,0.644877,0.7394762
0.2553131,0.6442111,0.7373888
0.2563008,0.6442221,0.735664
0.2555086,0.6447204,0.7321299
0.2583443,0.6441873,0.7313773
0.2608368,0.6430746,0.7310094
0.2595969,0.6411903,0.7279297
0.2589104,0.6405488,0.7300759
0.2572311,0.6456756,0.7354343
0.2545782,0.6488265,0.7377526
0.2542222,0.6399798,0.7358076
0.2545946,0.6312216,0.731451
0.2536076,0.6366746,0.7326097
0.2528816,0.6428862,0.7320112
0.2510945,0.6412884,0.7276022
0.2489302,0.642803,0.7323693
0.2503708,0.6447095,0.7369245
0.2513104,0.6440663,0.735841
0.2511031,0.6449446,0.7360227
0.2520501,0.6441769,0.734142
0.2519939,0.6442976,0.7332832
0.2529875,0.644907,0.7360622
0.2532067,0.6433921,0.738372
0.2525508,0.6420855,0.7380969
0.2549145,0.6387414,0.7375572
0.2557487,0.6364674,0.7390964
0.2537181,0.636442,0.7364481
0.2517996,0.6369626,0.7331634
0.250017,0.6385888,0.7352528
0.2464597,0.63761,0.7363174
0.2433225,0.6396957,0.7377163
0.247054,0.6435898,0.7407139
0.2502286,0.6419506,0.7425679
0.2471484,0.6416618,0.7432714
0.2469891,0.6394722,0.7400411
0.2496484,0.6335858,0.7387114
0.251236,0.6336005,0.7420748
0.2515501,0.6367544,0.7423535
0.2493316,0.6371224,0.7421141
0.2481878,0.6360527,0.7421741
0.249527,0.6370493,0.7407195
0.2500919,0.6374659,0.7437877
0.2477133,0.637105,0.7496027
0.2437053,0.6400535,0.7540558
0.2422646,0.6406992,0.752076
0.2429342,0.6399485,0.7467412
0.2422579,0.640487,0.7497697
0.2403255,0.6389923,0.750249
0.2403767,0.6388246,0.7468411
0.2432517,0.6387016,0.7476825
0.2451993,0.6376624,0.7423759
0.2446634,0.6368632,0.7379995
0.2439873,0.6364218,0.7388949
0.244427,0.6389774,0.7387883
0.2437493,0.6392588,0.7452183
0.2422663,0.6374568,0.7527169
0.2421077,0.6375758,0.7507738
0.2405288,0.6368962,0.746797
0.2388839,0.6358841,0.7470858
0.2396598,0.6342369,0.7439679
0.2395683,0.6346036,0.7415356
0.2387419,0.6368895,0.7460636
0.2386743,0.6360011,0.7462246
0.2393831,0.634902,0.7458979
0.240951,0.6346677,0.7491172
0.2428738,0.6348912,0.7499922
0.2437311,0.6365653,0.7498775
0.2423581,0.6380829,0.7469464
0.2409582,0.6407087,0.7448801
0.2390538,0.6424259,0.7439659
0.2371372,0.6398057,0.7469597
0.2384142,0.6372231,0.7537369
0.2410504,0.6368919,0.7480825
0.2439264,0.6354736,0.7427946
0.2436651,0.635231,0.7472059
0.2406614,0.637494,0.7452097
0.2401353,0.6400885,0.7415268
0.2385083,0.6429434,0.7399219
0.2378066,0.6420534,0.7392289
0.2380978,0.6415241,0.7403384
0.2350059,0.6440969,0.7386621
0.2365186,0.6410454,0.7402103
0.2406521,0.6364008,0.7430749
0.2419056,0.6343883,0.741238
0.2424406,0.6355672,0.7412258
0.2409985,0.6392222,0.7412484
0.2418009,0.637301,0.7399926
0.2435555,0.6362568,0.7421077
0.2443548,0.6366438,0.744207
0.2462245,0.6322307,0.7448112
0.2422935,0.6311282,0.7450039
0.2388192,0.6314577,0.740905
0.2427816,0.6333064,0.7359957
0.2457717,0.637933,0.7402856
0.245296,0.6366717,0.7475727
0.2413192,0.6369729,0.7471668
0.2377039,0.6412436,0.7442588
0.2407222,0.6404801,0.7424701
0.2447044,0.6398925,0.7422639
0.2442045,0.6412789,0.7434033
0.243851,0.6399589,0.742076
0.2451028,0.6382199,0.7410399
0.244624,0.6377532,0.7386931
0.2455614,0.6375653,0.7362507
0.246839,0.6375076,0.7376206
0.2451747,0.6384048,0.7365266
0.2455984,0.6394956,0.7397827
0.2454787,0.6397098,0.7451531
0.243762,0.6409485,0.7389359
0.2455471,0.6430636,0.7328753
0.2463597,0.6442155,0.7339503
0.2460727,0.6439665,0.7352171
0.2486248,0.6433334,0.7335045
0.2509655,0.6444785,0.7311922
0.2513881,0.6463837,0.7315441
0.251969,0.6477031,0.7295946
0.2537482,0.6465122,0.7303582
0.2546796,0.6401922,0.7332313
0.2555659,0.6321834,0.7325954
0.2559029,0.6295142,0.7359017
0.2531874,0.6367897,0.7350964
0.2522565,0.6451691,0.7323098
0.253371,0.6451074,0.7345021
0.2544031,0.6441663,0.7325543
0.2562706,0.6453203,0.7340038
0.2558446,0.6451225,0.7376943
0.2561611,0.6444113,0.7378278
0.2586977,0.6439914,0.734816
0.2594213,0.6448086,0.7281375
0.259692,0.6444637,0.7318213
0.2589714,0.6440988,0.7359703
0.2578296,0.6448763,0.7315485
0.258562,0.6441602,0.7326926
0.2593967,0.6442904,0.7323172
0.2598448,0.6437569,0.7307306
0.2600437,0.6424718,0.7311121
0.2604591,0.6432193,0.7253733
0.2615966,0.6440275,0.7223927
0.2621817,0.6473792,0.7258694
0.2621165,0.6511307,0.7293374
0.2609665,0.6486591,0.7306113
0.2593889,0.6455167,0.7302563
0.2612184,0.6465972,0.7293853
0.2636663,0.64636,0.726052
0.2623323,0.6458677,0.7243557
0.2620473,0.6480728,0.7273033
0.2630295,0.647352,0.7306733
0.261858,0.6463568,0.7325985
0.2606952,0.646833,0.7318708
0.2595701,0.6443425,0.7300998
0.2601455,0.6439641,0.7305376
0.261619,0.6451058,0.7327431
0.2591826,0.6450083,0.7333291
0.2576029,0.6460783,0.7305637
0.25948,0.6450607,0.7282731
0.2606568,0.6440043,0.7285491
0.2623312,0.6455317,0.7279715
0.2644071,0.6461691,0.7266575
0.2634179,0.6454796,0.7313255
0.2616186,0.643884,0.7372133
0.2613433,0.6426202,0.7346303
0.2566988,0.6428686,0.7325682
0.2508922,0.6433417,0.733762
0.2551263,0.6435329,0.7311315
0.26004,0.6455651,0.730079
0.2568165,0.6477346,0.7316797
0.2553073,0.6447381,0.7323456
0.2558996,0.6412145,0.7333525
0.2549748,0.641242,0.7356561
0.2548784,0.6393986,0.7395638
0.2541374,0.6378654,0.740671
0.2546926,0.6397318,0.7370089
0.2563241,0.6408301,0.7333553
0.2553878,0.6417508,0.7326356
0.2553063,0.6419219,0.73387
0.2552003,0.6393308,0.7344868
0.2517278,0.6393066,0.7354063
0.2489841,0.643496,0.7360631
0.2494694,0.6464173,0.7351099
0.2497907,0.6429116,0.7361254
0.2480705,0.6380367,0.7367329
0.248255,0.6400097,0.7358953
0.2492945,0.6396612,0.738076
0.2483273,0.6364687,0.7396247
0.2498809,0.6413881,0.7391142
0.2520369,0.6446031,0.7407213
0.2511982,0.641734,0.7432062
0.249783,0.6411472,0.7435499
0.2493944,0.6412837,0.7426894
0.249973,0.6396894,0.7430802
0.2473602,0.6391661,0.7429184
0.2445358,0.6421839,0.7415351
0.2460633,0.6426122,0.7427547
0.2461569,0.6395749,0.7459403
0.2452812,0.6403976,0.7467165
0.2451602,0.6405886,0.7442138
0.2440999,0.6397217,0.7410653
0.2445099,0.6402582,0.7399511
0.2457558,0.6373528,0.7430251
0.2468563,0.6357375,0.7447248
0.2476126,0.6387977,0.740885
0.247174,0.6406261,0.7417277
0.2472552,0.6368033,0.745453
0.248252,0.631931,0.7456014
0.2488508,0.6326191,0.7466263
0.2479495,0.6314383,0.7458145
0.2449061,0.6283782,0.7468275
0.2422069,0.6327081,0.7488526
0.2435414,0.6365266,0.747663
0.2449626,0.63401,0.7526837
0.2413144,0.6314018,0.756513
0.237844,0.6310058,0.7557537
0.237042,0.6337129,0.7577732
0.2362851,0.6370155,0.7556607
0.2386649,0.6339179,0.7502012
0.2422349,0.6301313,0.7459131
0.2413461,0.63343,0.7467679
0.2403196,0.6351935,0.7514979
0.2421208,0.6341674,0.7484267
0.2422195,0.6350261,0.742602
0.2420049,0.633668,0.7421792
0.2436214,0.6330403,0.7434314
0.2432232,0.6345241,0.7434082
0.2420387,0.6353468,0.7424792
0.2405822,0.6376196,0.7437037
0.2370721,0.6392996,0.7450148
0.2367608,0.6379776,0.7466033
0.2384527,0.6350229,0.7495941
0.2378949,0.6340777,0.7491095
0.2383148,0.6350724,0.7469791
0.2385797,0.6346221,0.7468264
0.2385205,0.6346746,0.7494058
0.2394614,0.635041,0.7509178
0.2386566,0.6354251,0.7494532
0.2386728,0.6371018,0.7501519
0.2393333,0.6387855,0.749813
0.2385107,0.6408913,0.7478292
0.239017,0.64009,0.7472989
0.2390256,0.6359577,0.7475675
0.2386014,0.6339821,0.749227
0.2395267,0.6340663,0.747765
0.2403444,0.6333913,0.7463416
0.2414786,0.6313349,0.7479792
0.2414447,0.632129,0.7479135
0.2421038,0.6363379,0.748797
0.2440166,0.638162,0.7491525
0.2428631,0.6374363,0.7495248
0.2426385,0.6353669,0.7533104
0.2439919,0.6340868,0.7539292
0.2444595,0.6349342,0.7487917
0.2460729,0.6343714,0.7442645
0.2439427,0.6332103,0.7471038
0.2390934,0.6340283,0.7501954
0.2384991,0.6386378,0.7456114
0.2402155,0.6432373,0.7421533
0.2426388,0.6423576,0.7422235
0.2445837,0.6409346,0.7446572
0.2447566,0.6376638,0.7496494
0.2453277,0.6323463,0.7507065
0.2463843,0.6332531,0.7509163
0.24795,0.6358093,0.7492397
0.2498912,0.6384459,0.740629
0.2504698,0.6420599,0.7357372
0.2498531,0.6394144,0.7379558
0.2498193,0.6357508,0.7400135
0.250265,0.6350574,0.7392633
0.2498617,0.6355511,0.7402106
0.2495867,0.6387353,0.7446156
0.2489379,0.6382301,0.7441019
0.2489759,0.6382641,0.7410812
0.2515687,0.6427587,0.7381189
0.2522716,0.641639,0.7331316
0.2522587,0.6400842,0.7349455
0.2537709,0.6407568,0.7377932
0.2533759,0.6396512,0.7353335
0.2542774,0.6406482,0.7357831
0.2559623,0.6403448,0.7357808
0.2560435,0.6402238,0.7339591
0.2577023,0.6425774,0.734626
0.2580271,0.6423318,0.7335938
0.2579787,0.6389127,0.7300572
0.2588499,0.6355551,0.7282122
0.2569866,0.6408316,0.7282067
0.2573437,0.647167,0.7280505
0.2608389,0.6423482,0.7283681
0.2632725,0.6402608,0.7295661
0.2631821,0.6444894,0.7290367
0.2615689,0.6448634,0.7269515
0.2628134,0.6442787,0.7268067
0.2629092,0.6444773,0.729799
0.261754,0.6443846,0.7331965
0.2631094,0.6440212,0.7320899
0.2614214,0.6416598,0.7290858
0.2577816,0.6394969,0.7292444
0.2546928,0.6405366,0.7290705
0.2547081,0.6436656,0.728984
0.2577679,0.6461213,0.7295983
0.2567162,0.6471447,0.7291024
0.2564183,0.6473195,0.7313015
0.2569513,0.6469973,0.7335356
0.2561833,0.6462011,0.7334517
0.26104,0.6440942,0.7332348
0.2636565,0.6413671,0.7322015
0.2603786,0.6396425,0.7318585
0.2593087,0.6408451,0.7318467
0.2614664,0.6453076,0.7319475
0.2631601,0.6481588,0.7321321
0.2603912,0.6466998,0.7313125
0.2578503,0.6450747,0.730354
0.257675,0.6468047,0.728967
0.2547201,0.6480259,0.7311038
0.2517568,0.6467563,0.7358473
0.2523214,0.646883,0.7367085
0.2537239,0.6453691,0.7358614
0.2537647,0.6417294,0.7350747
0.2557142,0.6415519,0.7344786
0.2572878,0.6435651,0.7349473
0.2548551,0.6447367,0.7356012
0.2555574,0.6422785,0.7364272
0.2582538,0.6379325,0.7361841
0.2591993,0.6375746,0.7362334
0.2598743,0.6410867,0.7380949
0.2563275,0.6447392,0.7400653
0.2517549,0.6451706,0.7423002
0.2507347,0.6454127,0.7434053
0.251492,0.646707,0.7416748
0.2527253,0.6446722,0.7404024
0.2529158,0.6420387,0.7402719
0.2537486,0.6397987,0.7374312
0.2545294,0.6392758,0.7355257
0.2552659,0.6418893,0.7366881
0.2604846,0.6421529,0.735661
0.2654079,0.6425681,0.7355414
0.2621194,0.6428022,0.7378464
0.2556237,0.6409704,0.7399531
0.2548308,0.640877,0.7392109
0.2559646,0.6394675,0.7290233
0.2552998,0.6407053,0.7209384
0.2557576,0.6439521,0.7275567
0.2554787,0.6441145,0.7337083
0.2554314,0.6448239,0.7308711
0.2558488,0.641363,0.7336671
0.2552249,0.6389424,0.7430838
0.2557724,0.6412126,0.7443616
0.2558991,0.6408155,0.7422465
0.2571614,0.6420174,0.7434188
0.2591613,0.6417955,0.7419927
0.2575747,0.6401189,0.7386326
0.2544784,0.6406577,0.7345142
0.2520983,0.639587,0.7334974
0.2531653,0.6398277,0.7333074
0.2550772,0.6403751,0.7278347
0.2529902,0.6435475,0.7262463
0.252152,0.648138,0.7313375
0.2528337,0.6471837,0.7375523
0.2512247,0.6475714,0.7388867
0.2511682,0.6475781,0.7354168
0.2536162,0.6439581,0.7364411
0.2550606,0.6416683,0.738309
0.2559038,0.6390516,0.7388264
0.2573301,0.6380927,0.739671
0.256751,0.6383772,0.7386957
0.254177,0.6393563,0.7412008
0.2533807,0.6425923,0.7416036
0.2535816,0.6403752,0.7371785
0.25259,0.6376776,0.735837
0.2524301,0.6424084,0.734074
0.2531488,0.6450488,0.7310232
0.2526815,0.6443647,0.727977
0.2526048,0.644519,0.7246611
0.2530467,0.6442713,0.7260179
0.2534835,0.643895,0.7307954
0.2572612,0.6401239,0.7333836
0.2610391,0.6340957,0.7339054
0.2584604,0.6336465,0.7358896
0.2532378,0.641565,0.7374621
0.2502608,0.6482822,0.7359979
0.2493784,0.6435755,0.736272
0.2500634,0.6391275,0.7401207
0.2501652,0.642335,0.7428964
0.2484059,0.6413488,0.7425788
0.2466414,0.6388149,0.742031
0.2455344,0.6399615,0.742528
0.2464305,0.6387339,0.7423821
0.2483931,0.6383147,0.7420624
0.2489915,0.6393822,0.7414099
0.2511457,0.6376478,0.7399229
0.252324,0.6368087,0.7397338
0.2503901,0.6362868,0.7397878
0.2495167,0.6354524,0.7385195
0.2469446,0.6368814,0.7391457
0.243625,0.6383201,0.7420162
0.2428703,0.6404963,0.7438122
0.2422727,0.6413716,0.7443876
0.2419701,0.6393903,0.7452315
0.2416126,0.6401236,0.7459143
0.2429585,0.6400047,0.7441913
0.2439632,0.6373719,0.7420963
0.2413133,0.6364659,0.7436732
0.2417931,0.6342148,0.745617
0.2441388,0.6333448,0.7443737
0.2456661,0.6330922,0.7401139
0.2485106,0.6292605,0.7376755
0.248947,0.6301935,0.7420047
0.2489388,0.63322,0.7445276
0.2470632,0.634172,0.7424413
0.2409948,0.6381059,0.7426583
0.2377836,0.6382998,0.741916
0.2369647,0.636455,0.7412299
0.2362524,0.6383133,0.7435825
0.2375857,0.6386867,0.743594
0.2396486,0.6406003,0.7424398
0.2392378,0.6427993,0.7432361
0.2381267,0.6407678,0.7438101
0.2395563,0.63845,0.7461163
0.2398275,0.6352392,0.7518048
0.2402775,0.6332294,0.7542322
0.241827,0.6334658,0.7516578
0.2413673,0.6313356,0.7483791
0.2419208,0.6304339,0.743851
0.2419185,0.6310551,0.7423197
0.2421692,0.6309896,0.7474844
0.2438095,0.635445,0.7518171
0.2424847,0.6409481,0.7517921
0.2409113,0.6407707,0.7498891
0.2390004,0.6386495,0.7442121
0.2370074,0.6378003,0.73544
0.2368492,0.6373395,0.7330408
0.2362145,0.6371959,0.7386794
0.2386295,0.6367778,0.7420756
0.2422644,0.6357968,0.7425311
0.2437692,0.6360834,0.7435779
0.2461093,0.6371827,0.7425719
0.2448603,0.636502,0.7410646
0.2417594,0.6350052,0.7398874
0.244028,0.6341654,0.7388937
0.2456378,0.6339841,0.7391485
0.2452296,0.63423,0.7395247
0.2488731,0.6353509,0.7433124
0.2510425,0.6386706,0.7478761
0.2488141,0.6411922,0.7477737
0.247931,0.6405427,0.7476233
0.2478823,0.6397904,0.745796
0.2472217,0.6402226,0.7415214
0.2478865,0.6392666,0.7430843
0.249105,0.6365133,0.7471194
0.2487148,0.6357771,0.7480017
0.2487626,0.637109,0.748088
0.2515945,0.6378187,0.7459378
0.2538998,0.6372661,0.7433094
0.2547151,0.6355925,0.740906
0.2557348,0.6352471,0.7357741
0.2558736,0.6364091,0.7350275
0.2549717,0.6378283,0.7378482
0.2537014,0.6406566,0.7395812
0.2526391,0.6442451,0.7444621
0.253286,0.6453659,0.7449167
0.2548481,0.6439636,0.7380252
0.2544138,0.6438092,0.7325066
0.2550888,0.6427193,0.731612
0.258989,0.6415405,0.7360992
0.2604741,0.6444393,0.738643
0.2598502,0.6448497,0.7385552
0.2606235,0.6443327,0.7414503
0.2621091,0.6463628,0.7410611
0.2621693,0.6430249,0.7385847
0.2601698,0.6392246,0.7345836
0.2591858,0.6404317,0.7264818
0.2582544,0.6404532,0.7247535
0.2580617,0.6407619,0.7273301
0.2607165,0.6440395,0.7264764
0.2609748,0.6466223,0.7268121
0.2583601,0.645422,0.7274258
0.2561706,0.6433519,0.7261321
0.2566399,0.6446813,0.7262057
0.2584913,0.6449109,0.7278459
0.2574687,0.644147,0.7286835
0.2573179,0.6466495,0.728624
0.2575792,0.6470317,0.7289565
0.254768,0.6433919,0.7311689
0.2536872,0.6396687,0.7347421
0.2550775,0.639828,0.7356157
0.2560821,0.6429776,0.7361227
0.2555409,0.6434496,0.738245
0.254858,0.643689,0.7374678
0.2545015,0.6436494,0.736151
0.2540135,0.640785,0.7349242
0.2567125,0.6402462,0.7303673
0.2577346,0.6433123,0.7281968
0.2543612,0.6470788,0.7324682
0.2542654,0.6471428,0.7353263
0.2570085,0.6442539,0.7359391
0.2585346,0.6421482,0.7413703
0.2557532,0.6386344,0.7435588
0.2507788,0.6383553,0.7412907
0.2514527,0.6425118,0.7410753
0.2546423,0.6432638,0.7361838
0.2559883,0.6412669,0.7356772
0.2560325,0.6396259,0.7439179
0.2546069,0.6396346,0.7466696
0.2539258,0.639128,0.7437316
0.2525459,0.6365505,0.7366116
0.2520571,0.6372507,0.7308159
0.2532234,0.6380907,0.7313175
0.2506938,0.6361676,0.7353362
0.2491805,0.636903,0.7412309
0.2505332,0.637891,0.7392235
0.2507984,0.6374171,0.7361865
0.2514992,0.6378861,0.738911
0.2506323,0.6397378,0.738162
0.2488846,0.6435956,0.7406942
0.2474801,0.6451025,0.7424209
0.2450875,0.6419383,0.7372076
0.2454118,0.6381782,0.7356284
0.2465081,0.6367102,0.7376442
0.2455106,0.6370239,0.7398872
0.2457298,0.6351235,0.7394597
0.2461379,0.6322549,0.7399565
0.2452269,0.6332567,0.7442836
0.244465,0.6349334,0.7459216
0.2444109,0.6345686,0.7502777
0.2459767,0.6347771,0.7547484
0.2464346,0.6350398,0.7509066
0.2440971,0.635367,0.7468343
0.2433345,0.6360434,0.7455118
0.2431198,0.6335066,0.7462354
0.2425946,0.6307863,0.7488373
0.2435032,0.6315779,0.7506871
0.2423896,0.6301142,0.7520178
0.2401547,0.62558,0.7465441
0.2386541,0.6250789,0.7391252
0.2390977,0.6306265,0.744734
0.2413367,0.6351992,0.7503863
0.2401565,0.6336651,0.7462909
0.239697,0.6322428,0.7483857
0.2410183,0.6341511,0.7540455
0.2396273,0.6347032,0.7534028
0.2390707,0.6362186,0.7511847
0.2371342,0.6385092,0.7502429
0.2350165,0.6362326,0.7511088
0.2368262,0.6339244,0.750383
0.2380592,0.6322923,0.7508142
0.239109,0.6294368,0.7539626
0.2393723,0.6305702,0.7508401
0.2381519,0.6319781,0.7486705
0.23823,0.6312866,0.7509517
0.2373516,0.6334268,0.7506485
0.2370866,0.6362651,0.7514132
0.2381691,0.6358504,0.7508329
0.2383358,0.6312899,0.7492227
0.2399802,0.6276538,0.7499251
0.2412703,0.6295749,0.7482584
0.2417033,0.6325513,0.7465287
0.2439907,0.633715,0.7471421
0.2452177,0.6336269,0.7470072
0.2455786,0.6333468,0.744053
0.2455072,0.6351756,0.7403097
0.2439652,0.6363098,0.7403945
0.245167,0.6334144,0.7440567
0.245974,0.6311791,0.7467033
0.2415139,0.6340172,0.7442926
0.2373449,0.6376202,0.7420689
0.237522,0.6378594,0.7451669
0.2413945,0.6373121,0.746769
0.2446929,0.6371836,0.7458687
0.2448709,0.6357152,0.7475192
0.2461892,0.6341743,0.7493487
0.2482234,0.6345172,0.748544
0.2488732,0.6354687,0.7462222
0.249756,0.6363441,0.7418565
0.2499387,0.6379264,0.7373569
0.2491193,0.6379618,0.7391197
0.2483644,0.6368923,0.74194
0.2485904,0.6382744,0.7394272
0.2498023,0.640377,0.7390102
0.2501484,0.6420712,0.7399938
0.2500085,0.6428781,0.7407581
0.2500059,0.6441316,0.7443195
0.2502733,0.6489833,0.7427913
0.2522504,0.6488489,0.7383313
0.2550589,0.644096,0.7358744
0.2564533,0.6449405,0.7307624
0.2563539,0.6432202,0.7300655
0.2568892,0.6385853,0.7356657
0.257231,0.6411708,0.7365599
0.2556958,0.6438474,0.7335019
0.2552907,0.6426799,0.7329562
0.2566113,0.6427116,0.7315042
0.2598934,0.6415199,0.7305186
0.263616,0.6394187,0.7333682
0.2603112,0.6404331,0.7319621
0.2532583,0.6423105,0.731796
0.250063,0.6451398,0.7350151
0.2499183,0.6485528,0.7325228
0.2530117,0.6471674,0.7334972
0.256187,0.6443468,0.7365201
0.2553743,0.643622,0.7383078
0.2534827,0.6425324,0.7420493
0.2523788,0.6428198,0.7405145
0.2525503,0.6426042,0.7416785
0.2531589,0.6404163,0.7441499
0.2522381,0.6390641,0.7413326
0.2509136,0.6375405,0.7428134
0.2498502,0.6394637,0.7420105
0.2506569,0.6428266,0.7375221
0.253058,0.6389575,0.7376018
0.2529935,0.6358091,0.7382884
0.2524741,0.6380309,0.7380089
0.2526758,0.6379499,0.7339463
0.2508514,0.638638,0.7294549
0.2494562,0.6430433,0.7355143
0.2498971,0.6459297,0.7426309
0.2500771,0.6460064,0.7417721
0.24904,0.6451988,0.7425836
0.2483697,0.6432309,0.7423749
0.2496067,0.6404304,0.7383633
0.250187,0.6399171,0.7389325
0.2490699,0.6404767,0.7393826
0.2486049,0.6401336,0.7391491
0.2506833,0.6400363,0.7411942
0.2538072,0.6384621,0.7395288
0.2538416,0.6368612,0.7372573
0.2521296,0.637823,0.7358634
0.2513552,0.6397008,0.7349327
0.2492778,0.6416086,0.7353735
0.2462317,0.6419173,0.7328905
0.2460804,0.6400352,0.7322378
0.2477712,0.6372821,0.7338224
0.2475612,0.635487,0.7352823
0.2477273,0.6371795,0.7384743
0.249146,0.6402406,0.7373845
0.2488584,0.6413639,0.7375636
0.2488225,0.641167,0.7415206
0.2483868,0.6404086,0.7407007
0.1887818,0.5778953,0.8098778
0.1881308,0.5791794,0.8026576
0.1907439,0.5801289,0.7996004
0.1944984,0.5879673,0.8013184
0.1999853,0.5891765,0.7971831
0.2060033,0.5991918,0.7910126
0.20862,0.6082368,0.7833788
0.214178,0.613748,0.7788339
0.2214322,0.6156336,0.7761532
0.225701,0.6125364,0.7761871
0.226422,0.6143304,0.7755029
0.2212973,0.6130866,0.7722154
0.218103,0.6077708,0.7732132
0.2112293,0.6026973,0.7779097
0.2026122,0.5977017,0.7896016
0.2005948,0.5933828,0.79949
0.1979431,0.5880883,0.7991882
0.1997231,0.5861581,0.7986355
0.1976662,0.5823953,0.7992807
0.1911951,0.5771992,0.8007758
0.191448,0.5786457,0.8020712
0.190139,0.5802853,0.8026762
0.1956518,0.5827858,0.8035594
0.2012483,0.5847974,0.8005354
0.1967467,0.5844316,0.7944238
0.1968907,0.5895382,0.7867052
0.1978118,0.5958178,0.786206
0.1988419,0.6001679,0.7918673
0.2008634,0.598677,0.7910259
0.1991738,0.5909708,0.7926911
0.1974245,0.5878912,0.7939767
0.1949177,0.5866348,0.7896976
0.195538,0.587331,0.7921145
0.196614,0.5885757,0.7924801
0.195182,0.5870495,0.7905714
0.1964783,0.5917981,0.7946284
0.1976603,0.5953293,0.7983454
0.1989275,0.5937385,0.802118
0.1991047,0.5920056,0.798027
0.1979594,0.5890411,0.7884446
0.1977109,0.5899288,0.789425
0.1923993,0.5891313,0.7955259
0.1867008,0.5862521,0.8002786
0.1884467,0.5875742,0.7988033
0.1896232,0.5866809,0.7923007
0.1855168,0.5842969,0.7918111
0.1837109,0.5827125,0.7948212
0.1852535,0.5821569,0.8001948
0.1861742,0.5854557,0.8019517
0.1893045,0.5887835,0.7932735
0.1931055,0.5877139,0.7885793
0.1934172,0.5856478,0.7927134
0.1919753,0.5863939,0.7962049
0.1906973,0.5864916,0.7944784
0.1880497,0.5877084,0.7950664
0.1812429,0.5908298,0.8045042
0.1763125,0.5904066,0.8105109
0.1796077,0.5898377,0.807702
0.1855538,0.5899866,0.8033353
0.1887093,0.5907293,0.801578
0.1883555,0.5949421,0.799491
0.1883938,0.5968203,0.795184
0.1906418,0.5943575,0.7950219
0.1877439,0.592043,0.7959201
0.1828891,0.5906438,0.7982822
0.1854049,0.587666,0.8026992
0.1897712,0.5826466,0.8006624
0.1912902,0.5786221,0.7972376
0.1934663,0.576107,0.7907847
0.1993446,0.5749156,0.7818538
0.2036204,0.5756102,0.7818684
0.1949586,0.5781818,0.7877649
0.1851465,0.5838365,0.7962892
0.1870648,0.5928178,0.803973
0.1811434,0.6063655,0.8130333
0.1616564,0.6215836,0.8276576
0.150721,0.6264866,0.8326923
0.1565577,0.6179004,0.8246824
0.1714795,0.6026236,0.8081614
0.1958693,0.5881356,0.7789735
0.2179346,0.5886969,0.761862
0.2082104,0.600716,0.775701
0.1900529,0.6050472,0.7911977
0.194026,0.6060885,0.798677
0.1926373,0.607329,0.8033258
0.1901512,0.6029857,0.7938985
0.1929841,0.5985676,0.7884753
0.1800417,0.5961802,0.7911157
0.1740596,0.5978446,0.7913843
0.1820076,0.5999536,0.7981385
0.1887409,0.5977892,0.7955591
0.1917561,0.5990378,0.7895384
0.1888509,0.601947,0.7921266
0.1898775,0.6066207,0.7872554
0.189646,0.6114075,0.7866292
0.1902448,0.6045331,0.7888594
0.1952508,0.5938869,0.787565
0.1914982,0.5896458,0.792004
0.191177,0.5902474,0.7932576
0.1944207,0.5916508,0.7948101
0.193994,0.5916418,0.7969223
0.1943356,0.5958693,0.7962988
0.1917534,0.6004928,0.8014767
0.1912816,0.602521,0.8046471
0.1900404,0.6046252,0.798631
0.1872397,0.5997555,0.7896666
0.1871313,0.5949621,0.7887518
0.1853475,0.5972503,0.7915575
0.1874379,0.596032,0.7879599
0.1902029,0.5932715,0.7849932
0.1900729,0.5944959,0.7826833
0.1907193,0.5956254,0.7834775
0.188736,0.5976512,0.7899941
0.1877077,0.6011154,0.792593
0.1888122,0.5999475,0.7921761
0.1932708,0.595319,0.7911118
0.1996631,0.5939028,0.7914917
0.197187,0.5947715,0.7924271
0.1927763,0.5976565,0.7914208
0.1913822,0.6014315,0.794678
0.1855676,0.6016366,0.7968978
0.1822213,0.6000542,0.7955253
0.1862983,0.5978321,0.7958758
0.1908951,0.5965902,0.795737
0.1915762,0.59756,0.7961429
0.1895664,0.5981702,0.7967106
0.1858916,0.5988313,0.7966009
0.1817606,0.5996247,0.7940775
0.1828009,0.6028398,0.7907636
0.1848112,0.6065715,0.7952628
0.1835484,0.6031495,0.8010173
0.1858977,0.5979144,0.8021356
0.1870932,0.5964093,0.8010673
0.1854534,0.593637,0.793529
0.1877256,0.5912698,0.7877549
0.1896587,0.5895061,0.7910549
0.1907254,0.583408,0.7927004
0.1916164,0.5807942,0.794333
0.1909575,0.5863504,0.7989716
0.1903258,0.5944427,0.7965523
0.1883957,0.6031346,0.7942724
0.1909057,0.6053991,0.7963549
0.2000069,0.5985522,0.7922024
0.2074198,0.5900553,0.7861856
0.2085835,0.5853626,0.7817422
0.2049562,0.5877931,0.7800235
0.2023206,0.5913883,0.7853793
0.1995814,0.5916413,0.7895567
0.1985125,0.5920451,0.7888138
0.2012847,0.5915205,0.7874094
0.1986342,0.5912384,0.7859294
0.196076,0.5908466,0.786241
0.1954123,0.5882587,0.7900362
0.1910671,0.5886786,0.7929494
0.191237,0.5910181,0.7916289
0.1912507,0.5905067,0.7911697
0.1927409,0.5893149,0.7926266
0.2018633,0.5877627,0.7943672
0.2051588,0.585771,0.7975011
0.2024263,0.5877194,0.797219
0.1983157,0.592324,0.793028
0.1917808,0.5948361,0.7912746
0.1851924,0.5989787,0.7941102
0.181146,0.6020179,0.7971981
0.1896977,0.5939018,0.79503
0.2058233,0.5825937,0.7905729
0.2099847,0.5811484,0.7892484
0.2000972,0.5879365,0.7937534
0.189427,0.5933392,0.8006725
0.1892425,0.5910742,0.8003557
0.1937832,0.5862609,0.7977053
0.1958613,0.5839926,0.7966992
0.1978999,0.5844792,0.7914881
0.1955925,0.5877653,0.7923952
0.1893835,0.5906029,0.7977472
0.1879637,0.5917261,0.7966333
0.1949999,0.5894757,0.7946463
0.2015188,0.5859136,0.7860442
0.1918165,0.5880697,0.7789485
0.1810353,0.5910249,0.7920611
0.1866722,0.5912665,0.8038922
0.1881027,0.5905992,0.7987049
0.1858163,0.5880163,0.7950643
0.195951,0.5901607,0.79507
0.203042,0.5951269,0.7885905
0.1985229,0.5956524,0.789295
0.1897032,0.5934567,0.7977826
0.1802754,0.5895257,0.7989915
0.175993,0.5867007,0.8013648
0.1752108,0.5767238,0.8050261
0.1725902,0.5611865,0.808677
0.1765904,0.5636312,0.8137631
0.1890846,0.5718747,0.8088873
0.1915852,0.5705409,0.8057474
0.1823868,0.5752396,0.8077964
0.1754676,0.5802867,0.8111675
0.1724518,0.580748,0.8190261
0.1722296,0.5846345,0.8125297
0.1720652,0.5875852,0.8021921
0.1725586,0.5943316,0.8016278
0.1763577,0.6072324,0.7953838
0.1812816,0.6203384,0.7903517
0.1868453,0.6267533,0.7877856
0.1887271,0.6191719,0.7848055
0.189815,0.6130318,0.7870074
0.189415,0.6112952,0.7868086
0.1826798,0.5974978,0.7898444
0.1801541,0.5808805,0.7985178
0.1778504,0.5731339,0.801928
0.1721529,0.572853,0.8036678
0.169858,0.5742104,0.8055864
0.166342,0.5736575,0.8057222
0.1670153,0.5765646,0.8054833
0.1711987,0.5823728,0.8033236
0.1708563,0.5867069,0.7994346
0.1714381,0.5873889,0.7975184
0.1742326,0.5890534,0.8009203
0.1793758,0.5945615,0.8012478
0.1831802,0.5950982,0.7963902
0.1811918,0.593713,0.7974018
0.1789873,0.5939966,0.7986727
0.1775149,0.5924498,0.7979977
0.1780753,0.5929051,0.7989677
0.1801835,0.5924862,0.7954059
0.1786174,0.5907994,0.7936633
0.1769674,0.5904611,0.7956753
0.1762171,0.5871978,0.7954175
0.1749321,0.584343,0.7934674
0.1750019,0.5853493,0.7915254
0.1739946,0.5866987,0.7968097
0.1731863,0.586344,0.8023639
0.1738442,0.5866155,0.7989372
0.1738635,0.5884722,0.7970676
0.1757654,0.5892959,0.7974774
0.1788009,0.5904702,0.7953244
0.1803111,0.590503,0.7954445
0.1818111,0.587875,0.7974206
0.183822,0.5875176,0.7972698
0.1839677,0.5892886,0.7970493
0.1826283,0.5906549,0.7975024
0.1833057,0.5893777,0.7974974
0.1826528,0.5863795,0.7999986
0.1802032,0.5865218,0.8023258
0.1805696,0.5866124,0.8017992
0.1806208,0.584086,0.8028322
0.1807399,0.5835292,0.8048523
0.1826079,0.5878829,0.804319
0.1836174,0.5931694,0.8024896
0.183871,0.5932376,0.8006448
0.1838377,0.5932417,0.7949343
0.1852032,0.5945511,0.7901353
0.1863994,0.5898237,0.7949933
0.1875314,0.586239,0.7992996
0.1901129,0.5903781,0.7957988
0.1894489,0.5940712,0.7936973
0.1881174,0.593177,0.7939999
0.187735,0.5926998,0.7926034
0.1867304,0.5943625,0.7927849
0.1890477,0.5944615,0.793622
0.1929969,0.5927343,0.792637
0.19655,0.5893184,0.7941892
0.1947536,0.5861621,0.7988452
0.1882537,0.5877454,0.8035374
0.1886026,0.5908997,0.803825
0.1904542,0.5947364,0.8002696
0.1900374,0.5987366,0.7992847
0.1918082,0.5966624,0.795863
0.1915388,0.593884,0.789903
0.1916834,0.5933129,0.7884764
0.1924928,0.5881353,0.7896275
0.1938316,0.5848895,0.7934022
0.1967708,0.58776,0.7959632
0.1941661,0.5914398,0.7941723
0.1920947,0.5957551,0.7902963
0.1953331,0.5955226,0.7869976
0.1957574,0.5926835,0.7893289
0.1922262,0.5942828,0.7895374
0.1889351,0.5931311,0.7867781
0.1901849,0.5914841,0.7880718
0.1920857,0.5912623,0.7874321
0.1911014,0.5867109,0.7890188
0.1909729,0.5866696,0.7935633
0.1901285,0.5892144,0.7930346
0.189649,0.5893978,0.7899403
0.1897618,0.5922936,0.7892568
0.1876184,0.5905196,0.7938185
0.1879357,0.5875538,0.797363
0.1897483,0.5912263,0.7988269
0.1896648,0.5925225,0.8001397
0.1903914,0.5912975,0.7986724
0.1900284,0.5915114,0.8000469
0.1860426,0.5908284,0.8007401
0.1791668,0.5901781,0.8040562
0.1743865,0.5912022,0.8110191
0.1779216,0.5930728,0.8069926
0.1837791,0.5933488,0.8021807
0.1851241,0.5926707,0.7990072
0.1842022,0.592254,0.7946151
0.1823188,0.5911977,0.7983398
0.1813365,0.5906387,0.7975762
0.1806836,0.590271,0.7949357
0.179613,0.590175,0.7969036
0.1801828,0.5915808,0.7957352
0.1790072,0.5928098,0.7995405
0.1784786,0.5927554,0.8031925
0.1800092,0.5902817,0.8023887
0.1785488,0.5869539,0.8054701
0.1783264,0.5874143,0.8070377
0.1785587,0.5898105,0.8054397
0.1771334,0.5905965,0.8043817
0.1772598,0.5904214,0.8029341
0.1765796,0.5897104,0.7986115
0.1761012,0.5885161,0.795373
0.1746275,0.5871074,0.7964416
0.1723649,0.5870931,0.7964011
0.1721051,0.5882007,0.79738
0.1710826,0.5882147,0.7976912
0.1741498,0.5889558,0.7956377
0.1790491,0.5893721,0.7971758
0.1774934,0.5882043,0.7986421
0.1741101,0.5881764,0.8007161
0.1713785,0.5872293,0.8035908
0.1704953,0.5861309,0.804957
0.1737427,0.5867382,0.8089115
0.1759039,0.5878951,0.8101801
0.174082,0.5913207,0.8064452
0.172869,0.5926553,0.8028325
0.1738903,0.5910742,0.8017924
0.1737422,0.5914209,0.8022255
0.1733352,0.5900611,0.7999872
0.1731088,0.5880697,0.7984698
0.1699714,0.5889076,0.799154
0.1676223,0.5891775,0.8002872
0.1713104,0.5881627,0.802842
0.1757944,0.5861988,0.8025617
0.1754646,0.5836662,0.8015159
0.1759383,0.5825183,0.8038973
0.1770876,0.5830947,0.8068427
0.1739832,0.5868705,0.8098809
0.172736,0.5920891,0.8099178
0.1733284,0.5911466,0.8049419
0.1727771,0.5886275,0.8004198
0.174785,0.591172,0.7991696
0.1761526,0.5905251,0.7995165
0.1773023,0.5891571,0.7984697
0.1800931,0.5901514,0.7990899
0.1798739,0.5874473,0.8070464
0.1802641,0.5880312,0.8127724
0.182682,0.5909157,0.8099982
0.1809712,0.5909943,0.8067001
0.1776153,0.5912444,0.8023636
0.176865,0.5872008,0.7996247
0.1773743,0.5835854,0.8019808
0.1797035,0.5872586,0.8007493
0.1815597,0.5904402,0.7993631
0.1800974,0.589195,0.8026862
0.1792252,0.5898779,0.8046699
0.178417,0.592941,0.8038009
0.1770895,0.5915267,0.7994541
0.178695,0.589995,0.7962308
0.1815357,0.590803,0.7974701
0.1841045,0.5901307,0.7971891
0.1845526,0.5927328,0.7960405
0.1850745,0.5965635,0.7958284
0.188692,0.5963334,0.7955651
0.1879281,0.5904149,0.7964326
0.1853815,0.5833197,0.7975843
0.1868308,0.5862649,0.7989975
0.187205,0.591532,0.7981659
0.1892489,0.5914557,0.7935486
0.1918503,0.592245,0.7900297
0.1915785,0.5909808,0.7885974
0.1934784,0.5885223,0.7873611
0.1934869,0.5874079,0.7875323
0.1913463,0.5871862,0.7904575
0.1918552,0.5910616,0.7937539
0.1915721,0.5935827,0.7969257
0.1913771,0.5939042,0.800232
0.1910507,0.5951542,0.7954357
0.1898872,0.5948945,0.7878976
0.1914183,0.5952094,0.79018
0.1930438,0.5944982,0.7905251
0.1928277,0.5937903,0.7875184
0.1913309,0.5950825,0.7931678
0.1899329,0.593833,0.7970017
0.19214,0.5914264,0.7967805
0.1949074,0.5861602,0.8008298
0.1941038,0.5817893,0.8038307
0.191491,0.5872837,0.8058359
0.1897763,0.5927882,0.8046436
0.1908618,0.591424,0.7999699
0.1922934,0.5893125,0.8007747
0.1903097,0.5877179,0.7985455
0.1878403,0.5873146,0.7937523
0.187643,0.5894994,0.7961555
0.1897819,0.5909674,0.796432
0.194637,0.5903896,0.7951409
0.1964307,0.590955,0.7958985
0.1920385,0.5924807,0.7939124
0.1883066,0.5935089,0.7924719
0.1875012,0.5947411,0.7929445
0.1860295,0.5944614,0.7933601
0.1852963,0.592077,0.7929552
0.1866896,0.5903098,0.7932361
0.1862169,0.5901741,0.795148
0.1864353,0.5915605,0.7964936
0.1911449,0.5938866,0.7978937
0.1941922,0.5949426,0.7986889
0.1930523,0.59376,0.797906
0.1904802,0.5906635,0.7973719
0.18892,0.5880697,0.7996459
0.1888417,0.5894272,0.8023349
0.1886557,0.5914225,0.7992809
0.1886144,0.5909553,0.7959358
0.1860034,0.591585,0.7976874
0.1827572,0.5922379,0.7999877
0.1831266,0.5908574,0.7998762
0.1835419,0.5899255,0.7961306
0.1833177,0.5884567,0.7935584
0.1832688,0.5873973,0.7961897
0.183328,0.5886071,0.798793
0.1832811,0.5907479,0.7998345
0.1822504,0.5937281,0.8008371
0.1818213,0.5917377,0.7976719
0.1818069,0.5866504,0.7932693
0.1822286,0.5874176,0.7984407
0.1825642,0.5882616,0.8042764
0.1815913,0.5889316,0.8002679
0.1801687,0.5921964,0.7979893
0.1789551,0.5918967,0.7984503
0.1784601,0.5913179,0.7982412
0.1777725,0.5919429,0.8011832
0.1792562,0.5909445,0.8016053
0.1815116,0.589097,0.8002124
0.1794588,0.5870048,0.8004039
0.1786859,0.5889203,0.8013494
0.1804646,0.5912021,0.8039
0.1801492,0.5882568,0.8038366
0.1779873,0.5863581,0.8038896
0.1759497,0.5868829,0.8053053
0.1787712,0.5860201,0.8026473
0.1816023,0.5860991,0.8003138
0.1774926,0.5884148,0.7994637
0.1741106,0.5904325,0.7982985
0.1748171,0.5915015,0.7984789
0.1743816,0.5916787,0.7987045
0.1740287,0.5905469,0.7985196
0.1780046,0.5891019,0.797757
0.1814989,0.5888801,0.7985854
0.1773032,0.5907588,0.8024845
0.1728932,0.5918164,0.8055229
0.1750259,0.5888317,0.805376
0.174988,0.5854879,0.804451
0.1724524,0.5857218,0.8034667
0.1738339,0.5866245,0.8004993
0.1740531,0.5860732,0.8006341
0.1731859,0.5868931,0.8026056
0.1747218,0.5875082,0.800691
0.1739652,0.5846901,0.8012796
0.1714453,0.5825731,0.8022281
0.1704701,0.5840806,0.8018875
0.1715619,0.5856728,0.8053022
0.1729577,0.5854672,0.8061804
0.1720239,0.5865903,0.8052275
0.1721622,0.5893167,0.8057261
0.1736814,0.5903077,0.8057507
0.1744772,0.5888632,0.8074916
0.1754833,0.5866111,0.8081077
0.1748042,0.5877387,0.8047103
0.1738107,0.5909983,0.8005805
0.1736797,0.5918774,0.8006572
0.1736579,0.5920575,0.8018337
0.1759745,0.5917844,0.7982298
0.178751,0.5932156,0.7962534
0.1797002,0.5951659,0.7976049
0.1783395,0.5924125,0.7981967
0.1743186,0.5908293,0.7985225
0.1713386,0.5913643,0.7968254
0.1725474,0.5890385,0.7960583
0.1749034,0.5863083,0.8002302
0.1749137,0.5856567,0.8044253
0.177332,0.5866989,0.8023216
0.1801129,0.587505,0.7973047
0.175335,0.5887869,0.7961083
0.1724103,0.5918889,0.7970245
0.177025,0.5949037,0.7975766
0.1807188,0.5924544,0.7962968
0.1810746,0.586337,0.7954218
0.1798845,0.5870601,0.7981059
0.1787425,0.5890417,0.7990877
0.1776504,0.5892385,0.7992583
0.1783569,0.5928076,0.8023961
0.1809355,0.5911439,0.8057703
0.1806936,0.5887297,0.8052938
0.1800933,0.590568,0.8008446
0.1799645,0.5898773,0.7989223
0.1793739,0.5902419,0.7975195
0.1827354,0.5900609,0.7955653
0.1862432,0.5896436,0.797433
0.1857917,0.592423,0.7990955
0.1858694,0.5936414,0.8003255
0.1874989,0.5955999,0.7990121
0.1876789,0.596767,0.7948437
0.1873196,0.5949449,0.7937409
0.1883891,0.5949345,0.7922952
0.1909645,0.5935582,0.7903859
0.1934127,0.5916728,0.7910527
0.1900563,0.5908681,0.7958531
0.1853764,0.5881956,0.8024632
0.1876386,0.5894057,0.8022264
0.1891683,0.5931059,0.7996739
0.1901176,0.5954102,0.7975846
0.1947259,0.599988,0.7911939
0.1947225,0.6007196,0.7884981
0.1943193,0.5962192,0.790575
0.1972374,0.5939581,0.7895061
0.1969309,0.5923964,0.7904854
0.1986711,0.5911553,0.7969739
0.2007031,0.5916954,0.7983518
0.195969,0.5917746,0.7935682
0.1930546,0.5916288,0.792604
0.1944071,0.5916341,0.7950394
0.1939225,0.5915119,0.7968148
0.1929157,0.590454,0.7978077
0.1946483,0.5881294,0.7982893
0.1966423,0.5871164,0.7973647
0.1945373,0.5885244,0.7949112
0.1917165,0.590341,0.7955213
0.190634,0.5906708,0.7966802
0.1895688,0.5910084,0.7955434
0.1897221,0.5920317,0.79774
0.1897082,0.5917332,0.7994922
0.1901011,0.5914498,0.798134
0.1906944,0.5916464,0.7973507
0.1889657,0.59073,0.7952299
0.1886105,0.5899707,0.7939177
0.1885778,0.590225,0.795397
0.1858322,0.5904494,0.7966744
0.1831723,0.5903642,0.797603
0.1828463,0.5911351,0.7992432
0.1846947,0.5924054,0.8008711
0.184864,0.5934594,0.8003745
0.1835329,0.5948203,0.7963233
0.1829344,0.5947934,0.7916677
0.1813134,0.593815,0.7943268
0.1802036,0.5935396,0.7997953
0.1803839,0.592028,0.7984916
0.1808998,0.5904855,0.7981588
0.1815434,0.5892922,0.7993399
0.1819466,0.5867416,0.7979498
0.1822831,0.5869348,0.7985723
0.1808054,0.5881877,0.7969359
0.1774123,0.586172,0.7948617
0.1739516,0.586238,0.7964872
0.1741086,0.5891428,0.7983799
0.1762458,0.5908584,0.8026256
0.1743371,0.590706,0.8055552
0.1736817,0.5895043,0.8033724
0.1742079,0.5895535,0.8000928
0.1733013,0.5892805,0.7992991
0.1767544,0.5900672,0.8053647
0.1778579,0.5927922,0.8117454
0.1730371,0.5911766,0.8066784
0.1695141,0.5884847,0.8001019
0.1708993,0.5880798,0.8023282
0.1748885,0.5877882,0.8011276
0.1733469,0.5886216,0.795588
0.1698203,0.5884793,0.7942678
0.17044,0.5898534,0.7947813
0.1716289,0.5926992,0.7975264
0.17307,0.5917673,0.7979027
0.1757007,0.590854,0.7967768
0.1783481,0.5898258,0.8006434
0.1779187,0.5864915,0.8020137
0.1772663,0.585482,0.8015296
0.1781791,0.5872415,0.8023279
0.1759753,0.5880053,0.80271
0.1734555,0.5872732,0.8033675
0.171606,0.587638,0.8022543
0.1714596,0.5889212,0.8028328
0.1722716,0.5907667,0.8032038
0.1703625,0.5919047,0.8028508
0.1724417,0.5889587,0.8068742
0.1747074,0.5863226,0.8088835
0.1716701,0.5875193,0.8067859
0.1692372,0.5878103,0.8038951
0.1680784,0.5864215,0.8011772
0.171279,0.5871085,0.797481
0.1759347,0.5896722,0.7952831
0.1762591,0.5905349,0.7983913
0.1788794,0.5885095,0.7980875
0.1841186,0.5866562,0.7982804
0.1855341,0.5874798,0.8020239
0.1795009,0.5879598,0.7996182
0.1713229,0.5872731,0.8009931
0.1736027,0.5885113,0.8036888
0.1786395,0.5893109,0.8002277
0.1773023,0.5885514,0.8013286
0.1794741,0.5880117,0.802038
0.1803264,0.5875969,0.8006927
0.1777374,0.5891673,0.8018527
0.1799381,0.5908799,0.8012255
0.1793119,0.589443,0.8013051
0.1791005,0.5882262,0.8012602
0.1840052,0.5890472,0.7986251
0.1869988,0.589098,0.7947034
0.1885677,0.5886111,0.7920009
0.1867014,0.5890333,0.7948216
0.1842363,0.5889251,0.7971061
0.1834158,0.588915,0.7954126
0.1823444,0.5899471,0.7956148
0.1841077,0.5906332,0.7969348
0.1839017,0.5909178,0.798446
0.1852968,0.5900268,0.7980409
0.1892171,0.5882632,0.7902908
0.1879372,0.5877033,0.7830755
0.1905136,0.5872401,0.7829173
0.1948592,0.5858741,0.7827658
0.192632,0.5860068,0.7856092
0.1906233,0.588306,0.7914751
0.1903783,0.5899485,0.7924595
0.1909309,0.5911521,0.7989696
0.1921146,0.5918047,0.8075718
0.1921491,0.5888581,0.8025742
0.1929535,0.5865423,0.7988689
0.1942657,0.58884,0.8022355
0.1930805,0.5913438,0.7985797
0.1926553,0.5917997,0.7948595
0.1954681,0.5906917,0.796807
0.1964687,0.5888979,0.7970559
0.1963903,0.5886068,0.7969108
0.1970613,0.5890463,0.796877
0.19658,0.5888654,0.7938861
0.1954149,0.5888507,0.7922581
0.1924674,0.5891121,0.7954346
0.191832,0.5902894,0.7986275
0.1932827,0.5932396,0.7980923
0.1910575,0.59466,0.7941973
0.1911394,0.5909739,0.7874264
0.1925811,0.5876433,0.7849489
0.1910374,0.5911233,0.7909094
0.1917487,0.5957384,0.7967585
0.1920227,0.5960271,0.7981329
0.1911613,0.5949514,0.7969949
0.1920469,0.5940807,0.7958733
0.1915559,0.593566,0.7963302
0.1909829,0.5910886,0.7974093
0.1892765,0.5866256,0.7991828
0.1864011,0.5873424,0.7986646
0.1875143,0.5911217,0.7961239
0.1892048,0.5919967,0.7957001
0.1896058,0.5913901,0.7956644
0.190195,0.5887407,0.7960725
0.1876787,0.5865914,0.7965719
0.1849599,0.5875232,0.7955523
0.1864168,0.5877835,0.7949719
0.1884593,0.5875065,0.7949346
0.189011,0.588741,0.7955157
0.1889807,0.5910258,0.7960791
0.1876171,0.5924673,0.796534
0.1859043,0.5923351,0.7971193
0.184198,0.5922162,0.7972239
0.1831887,0.5913188,0.7989594
0.1859829,0.5898906,0.8008352
0.1881551,0.5903796,0.8059129
0.1848115,0.5920003,0.813009
0.1816533,0.5919504,0.8073799
0.181784,0.5899711,0.7987565
0.1813128,0.5880857,0.8016156
0.1807776,0.5862303,0.8027344
0.1819886,0.5856783,0.8014902
0.1830045,0.587742,0.8027032
0.1843039,0.5897485,0.7988383
0.1842436,0.5915531,0.7961365
0.1812284,0.5922596,0.7966075
0.178964,0.5910899,0.7957542
0.1776116,0.5908179,0.7984152
0.1790241,0.5902167,0.8011467
0.1818766,0.5895242,0.8050885
0.1803902,0.588916,0.8109592
0.1798111,0.586427,0.8088012
0.1803327,0.5852039,0.8036718
0.1781491,0.5839758,0.8005267
0.1771138,0.582553,0.8001858
0.1753947,0.5849505,0.8028342
0.1744568,0.5870367,0.8018297
0.1774677,0.5876255,0.8055726
0.1790722,0.5875852,0.8126106
0.1784156,0.585247,0.8103909
0.1775622,0.5846504,0.8055607
0.1771095,0.5865446,0.8004033
0.1763764,0.5884114,0.7976241
0.1743147,0.5896194,0.8003302
0.1746397,0.58969,0.8015957
0.1758837,0.5879418,0.8041497
0.175439,0.5841198,0.8060186
0.1763156,0.5837375,0.8018057
0.175019,0.5850303,0.7982636
0.1724718,0.5835851,0.7985781
0.1739342,0.5862355,0.8004826
0.1751015,0.5898795,0.8033072
0.1755195,0.5901315,0.8051689
0.1759461,0.5899439,0.8031333
0.1737316,0.5883648,0.8021819
0.1729783,0.5895892,0.8052531
0.1743862,0.5912583,0.8059305
0.175314,0.5897104,0.8054935
0.1760905,0.5903656,0.8054526
0.1732136,0.5901603,0.8040598
0.1695548,0.5874094,0.8024186
0.1724304,0.5835306,0.8005519
0.1751169,0.5797423,0.8018627
0.1734599,0.5811711,0.8046507
0.1750897,0.5834074,0.8061382
0.1773256,0.5844257,0.8077852
0.1751223,0.5875823,0.807408
0.1735094,0.5875991,0.8054843
0.1736038,0.5860322,0.7997406
0.1738819,0.5878405,0.7938196
0.1754923,0.5880533,0.7978497
0.1769064,0.5875473,0.8040987
0.1765595,0.5913662,0.8043213
0.1760481,0.5937518,0.802137
0.1765302,0.5904345,0.7996834
0.1764982,0.5882906,0.7988067
0.1767028,0.5924092,0.7996167
0.1792396,0.5957085,0.8009908
0.1811623,0.5914638,0.8047808
0.1797092,0.5876017,0.8091327
0.1775287,0.5881717,0.8090563
0.1775784,0.5876236,0.8075431
0.1780516,0.5880182,0.8090953
0.1775724,0.5895433,0.8112804
0.1782027,0.5888307,0.8118368
0.1803532,0.5884512,0.8066488
0.1845094,0.5882531,0.7965458
0.1875864,0.5871265,0.7936711
0.1860223,0.5876984,0.7969797
0.1856571,0.5896134,0.7968603
0.1875933,0.5906235,0.7969457
0.1875679,0.5906573,0.7976129
0.1876433,0.5912664,0.7959305
0.1884689,0.5934011,0.7950814
0.1890334,0.593846,0.7932501
0.1889404,0.5923372,0.7907756
0.1882658,0.5931398,0.7914469
0.1901599,0.59384,0.7923702
0.1933991,0.5941301,0.7924758
0.1938245,0.5961446,0.7941309
0.193312,0.595502,0.7952591
0.1940212,0.5937311,0.7950364
0.1938697,0.592992,0.7960292
0.1932345,0.5924489,0.7956765
0.193304,0.5933996,0.7926817
0.1927708,0.591804,0.7917941
0.1926543,0.5889685,0.794992
0.1916073,0.5881086,0.7984992
0.1897173,0.5875561,0.7961895
0.1920204,0.5892035,0.7914049
0.1941234,0.5909942,0.7897181
0.1925923,0.5924309,0.788211
0.1919769,0.5924089,0.7890197
0.191112,0.5895656,0.7914064
0.188569,0.5914512,0.7924609
0.1860081,0.5961031,0.7965573
0.187052,0.5989312,0.798548
0.1946184,0.5968942,0.7926189
0.2008737,0.5906915,0.7864745
0.1976865,0.5931503,0.7881847
0.1914557,0.5970843,0.7910754
0.1892669,0.5942685,0.7911571
0.1875717,0.5916916,0.8000871
0.1868503,0.5873862,0.8071611
0.1884622,0.5872577,0.7998256
0.1892165,0.5897309,0.795399
0.1915555,0.5889077,0.7967349
0.192754,0.5937481,0.7957852
0.1918051,0.5975083,0.7954785
0.1928766,0.5956107,0.7960414
0.1897785,0.5955437,0.7957571
0.1861339,0.595773,0.7939641
0.1897371,0.5941875,0.7907874
0.1928801,0.5895299,0.7884276
0.1906279,0.587103,0.7925559
0.1851684,0.5927432,0.7992427
0.1819008,0.5975615,0.7982906
0.1841775,0.5934901,0.7936355
0.1861276,0.5894397,0.791115
0.1862401,0.5923118,0.7943858
0.1892709,0.5923173,0.8013404
0.1925331,0.5906064,0.8017334
0.1930126,0.59243,0.7980797
0.1925622,0.5916674,0.7958546
0.1904287,0.5922295,0.7960198
0.1877934,0.5938932,0.7981163
0.1862373,0.5924791,0.7968433
0.1878406,0.5922059,0.7949091
0.1907666,0.5920793,0.7953886
0.1842487,0.5940142,0.7983478
0.1782627,0.5963701,0.8019309
0.1854471,0.5923095,0.7957077
0.1897069,0.5886006,0.7895518
0.1860904,0.5897577,0.7985374
0.184903,0.5883538,0.8064375
0.1848164,0.5848829,0.803637
0.182878,0.5876276,0.8005253
0.1827164,0.5937627,0.7988951
0.1848224,0.5978301,0.7968179
0.1867818,0.5990172,0.7933628
0.1909671,0.593529,0.787613
0.193328,0.5879015,0.7857566
0.1916527,0.5886242,0.7884518
0.1901132,0.5890535,0.7925927
0.1863877,0.5878744,0.7992712
0.1864975,0.5873987,0.7988279
0.1894605,0.5882727,0.7943811
0.1883412,0.5894608,0.7966747
0.1905552,0.5887655,0.7945446
0.1904073,0.5885476,0.7945465
0.1872502,0.5882226,0.8024343
0.18942,0.5875989,0.8033452
0.188212,0.5901406,0.8020837
0.1865125,0.5927015,0.7993573
0.187423,0.5918357,0.7954894
0.1836782,0.5910612,0.7970948
0.1808168,0.5922162,0.7946525
0.1817254,0.5924396,0.7910772
0.1826782,0.5922816,0.7927206
0.1830379,0.5925584,0.7953133
0.1850684,0.5917778,0.7966167
0.1870815,0.590856,0.795865
0.1847237,0.5898433,0.7982717
0.1832208,0.5900833,0.8029919
0.1831571,0.5907996,0.8053295
0.1811963,0.5898604,0.8049967
0.1806594,0.5901741,0.8034182
0.1820622,0.5896362,0.8035757
0.1844812,0.5880407,0.8031686
0.1854276,0.5882185,0.8010614
0.1860548,0.5874894,0.7948147
0.1872748,0.5884382,0.7877504
0.1851007,0.5917225,0.7914175
0.1846666,0.5938466,0.79901
0.1856636,0.5946786,0.8042252
0.1829482,0.5926725,0.8100713
0.1824692,0.5907844,0.8085253
0.1838849,0.5917617,0.80107
0.1823718,0.5917883,0.797383
0.1811115,0.5903255,0.7955529
0.181338,0.5891769,0.7958783
0.1800179,0.588966,0.7981811
0.1787287,0.5913482,0.796276
0.1798711,0.5959731,0.7955876
0.1824248,0.5978622,0.800067
0.1844307,0.5938311,0.8014095
0.1830408,0.5888614,0.7971437
0.1816423,0.5903842,0.7926356
0.1813274,0.5961309,0.794312
0.1789043,0.5963751,0.7976411
0.1790785,0.591362,0.7967902
0.1804807,0.5896152,0.7974754
0.1804053,0.5920923,0.7974824
0.1809594,0.5939255,0.7965679
0.1806231,0.5922149,0.7977004
0.1823043,0.588082,0.7960162
0.1842012,0.5858578,0.7954165
0.1822451,0.5894675,0.7969121
0.1787424,0.5953318,0.7990729
0.1755266,0.5941681,0.8027444
0.1782741,0.5880405,0.8013551
0.1843792,0.585602,0.7990209
0.1849084,0.5881639,0.8001806
0.1817588,0.5917311,0.799414
0.1787248,0.589633,0.7966926
0.1789282,0.5873639,0.7949595
0.1816308,0.5898728,0.7969916
0.1822055,0.5884393,0.7989904
0.1820123,0.5865227,0.7984994
0.1818985,0.5869068,0.8000758
0.1816258,0.5879566,0.8020763
0.1811142,0.5917209,0.8030001
0.1792152,0.5902459,0.802234
0.1789676,0.5871408,0.8003635
0.1806774,0.5870931,0.8010608
0.1824952,0.5853986,0.8014568
0.1836624,0.5870951,0.8009594
0.1815726,0.5883355,0.8000615
0.1798129,0.5868546,0.798246
0.1815709,0.5878239,0.7991787
0.1825079,0.5874776,0.8005098
0.1819585,0.5874793,0.8011334
0.1827018,0.5888778,0.8003379
0.1834428,0.5901206,0.798232
0.181206,0.5926248,0.8030298
0.1774361,0.5932944,0.8077436
0.1745632,0.5916259,0.8052308
0.1734532,0.5882687,0.804953
0.1768338,0.5850942,0.805964
0.1826333,0.5860332,0.8044501
0.1841149,0.5883488,0.8038109
0.1811339,0.5887406,0.8042171
0.1788134,0.5886162,0.8043016
0.1789959,0.5895411,0.8038429
0.1790289,0.5906961,0.8027961
0.1770952,0.5919085,0.8004034
0.1747591,0.5922271,0.800261
0.1736964,0.5907255,0.8035937
0.1735693,0.5899987,0.8030163
0.1735481,0.5888719,0.7991307
0.1734624,0.589038,0.7981431
0.1727662,0.5906462,0.8008984
0.1718694,0.5865256,0.81031
0.1725193,0.5833005,0.8186894
0.174233,0.5862499,0.8098418
0.1753778,0.5885039,0.7991112
0.1752473,0.5887147,0.804764
0.1746542,0.5862694,0.807304
0.1751012,0.5836677,0.8035728
0.1751599,0.5849568,0.8065246
0.1745653,0.5870413,0.8059165
0.1744642,0.5877416,0.8045693
0.1740355,0.5876354,0.8074388
0.1741489,0.5871891,0.8057372
0.1738344,0.5867518,0.8052367
0.172691,0.5868578,0.8059142
0.172146,0.5881184,0.8048935
0.1703915,0.5904633,0.8051508
0.1700679,0.5922962,0.8037969
0.1707314,0.5913823,0.8048841
0.1687854,0.5884049,0.8058737
0.1693705,0.5857354,0.8023841
0.1711872,0.5847705,0.800545
0.1712511,0.5852908,0.8000591
0.1720905,0.587473,0.7992756
0.1715122,0.5906449,0.7983369
0.1719269,0.5909175,0.7992568
0.1723163,0.589676,0.8010634
0.1680659,0.5902618,0.8004993
0.1661572,0.5895956,0.8015688
0.1703701,0.5877498,0.8011549
0.1775171,0.586328,0.7968263
0.1817839,0.5844434,0.793363
0.1797122,0.5859443,0.7923782
0.1776345,0.5884746,0.7964978
0.175907,0.5855803,0.8031415
0.172598,0.5837585,0.8079181
0.1737252,0.5865905,0.8070107
0.1780995,0.5891641,0.8002685
0.1798778,0.5909207,0.7973805
0.1793552,0.5900848,0.7985084
0.1788396,0.5869761,0.7985669
0.1791968,0.5863467,0.7969434
0.179388,0.5894334,0.7950165
0.1789366,0.5928893,0.7972478
0.1792246,0.5910345,0.800749
0.1791235,0.587816,0.8054591
0.1778703,0.5883399,0.8095075
0.1767893,0.5877112,0.8040293
0.1768589,0.5887294,0.7989304
0.1808577,0.5915362,0.8006274
0.1853371,0.5897214,0.79688
0.1853447,0.5883958,0.7916852
0.1857736,0.5896709,0.7981579
0.1868784,0.59202,0.8054893
0.1857214,0.5943261,0.8020542
0.1861265,0.5925923,0.7990242
0.1874465,0.5914696,0.7985442
0.187586,0.5912283,0.7959733
0.1885892,0.5894184,0.7958207
0.1887731,0.5904419,0.7959386
0.187018,0.590654,0.7967143
0.1861729,0.5897371,0.7988285
0.1886652,0.5906731,0.7985626
0.1924535,0.5903438,0.7985052
0.1921031,0.5910272,0.797762
0.1909316,0.5918589,0.7965503
0.1921573,0.5897218,0.7958178
0.1917609,0.5886432,0.791949
0.1923287,0.5907397,0.7890488
0.1942149,0.5934476,0.7906722
0.1955533,0.5933872,0.7930301
0.1977769,0.5926206,0.7922718
0.1962719,0.5935031,0.7896197
0.1921243,0.5939045,0.7895573
0.1909559,0.5945921,0.7901672
0.1910941,0.5947466,0.7893883
0.1919835,0.5929956,0.7908854
0.1934579,0.5892723,0.7948526
0.1935159,0.5852435,0.797911
0.1930778,0.5888379,0.7977433
0.1922815,0.5942251,0.7950785
0.1906282,0.5909924,0.7951711
0.191373,0.5888052,0.7968354
0.1935029,0.5893668,0.7953366
0.1923611,0.5872,0.7956199
0.1902024,0.5874969,0.7964797
0.1881493,0.5883005,0.7946535
0.1859851,0.5902359,0.793471
0.1846036,0.5956365,0.7909526
0.1830985,0.5956702,0.7909371
0.1866451,0.5900709,0.7933124
0.1907335,0.5860729,0.7936925
0.1875997,0.5877717,0.7966147
0.1857612,0.5911882,0.7972055
0.1836647,0.5918499,0.797266
0.179283,0.5949444,0.8015493
0.1823684,0.5948534,0.8001755
0.187854,0.5904965,0.7977534
0.1888085,0.5907724,0.7984057
0.1887912,0.590387,0.7967186
0.1876216,0.5917666,0.7982935
0.1843102,0.5931678,0.8018473
0.1825196,0.5880255,0.8037576
0.1833009,0.5876786,0.8052262
0.183299,0.5882658,0.8037628
0.1813856,0.5875786,0.8035759
0.1799292,0.5919639,0.8040312
0.1814108,0.591467,0.8019342
0.1853341,0.5885451,0.802782
0.1880818,0.5870734,0.8024034
0.1854237,0.5858593,0.7980697
0.1811846,0.5877757,0.7964535
0.1809102,0.5878341,0.7980328
0.177362,0.5900605,0.7994281
0.1731165,0.5930477,0.7985733
0.1771639,0.591238,0.7995051
0.178618,0.5915876,0.8029828
0.1742949,0.5918863,0.8044407
0.1733094,0.5910668,0.8047641
0.1752808,0.5896052,0.8041489
0.1765447,0.585228,0.8053239
0.1729622,0.5829867,0.8072561
0.169079,0.5834586,0.8071988
0.1713275,0.5858614,0.8098505
0.1736514,0.5899164,0.8102576
0.175304,0.593738,0.8102649
0.1773919,0.5945714,0.8132903
0.1757609,0.5896946,0.808001
0.1732434,0.5859008,0.8031638
0.171901,0.5873286,0.8065323
0.1722097,0.5881032,0.8080931
0.1754542,0.5861898,0.810123
0.1764223,0.5853056,0.8121782
0.1727812,0.5847055,0.8108388
0.1695811,0.5825899,0.8108677
0.1704334,0.5832822,0.810712
0.1721284,0.5848374,0.8073945
0.1721114,0.5845134,0.8044239
0.1739781,0.584984,0.8041745
0.1744169,0.5851774,0.800947
0.1726225,0.5876,0.7962388
0.1740628,0.5917827,0.801855
0.1738388,0.5917389,0.8080958
0.1729787,0.5886928,0.8016595
0.1738883,0.5866231,0.7964849
0.1714892,0.5873429,0.796678
0.1713013,0.5882294,0.7956508
0.1763311,0.5878414,0.8004683
0.1802384,0.5881099,0.8033614
0.1772657,0.5866639,0.7988531
0.1727287,0.5854354,0.7982114
0.1752397,0.5877251,0.7958962
0.1750337,0.5898778,0.7957367
0.1722932,0.5914564,0.803812
0.1753414,0.5917294,0.8050862
0.1772008,0.5886536,0.8033451
0.1811977,0.5868267,0.8017813
0.1880699,0.5885029,0.7948578
0.1890628,0.5904059,0.7917216
0.1876045,0.5905081,0.7930849
0.1862467,0.5902302,0.7962134
0.1850031,0.5916521,0.7999357
0.1854536,0.5937256,0.8020283
0.1868663,0.5944603,0.8022338
0.1890482,0.5919176,0.8002979
0.1904268,0.5895551,0.8015631
0.1889109,0.5929369,0.7999779
0.1871796,0.5957086,0.7933468
0.1909224,0.5933365,0.7908088
0.1948915,0.5923192,0.7903606
0.19339,0.5932365,0.7898466
0.1950628,0.5923937,0.7872537
0.1983719,0.592589,0.7889796
0.1954518,0.5960958,0.7945519
0.1928447,0.5984818,0.7922771
0.1919387,0.5980468,0.7922112
0.1858775,0.5984562,0.7949214
0.1801596,0.598359,0.797445
0.1818571,0.5945934,0.8030063
0.1839933,0.5910031,0.7993507
0.1841542,0.5905135,0.7927227
0.1869999,0.5885789,0.7909307
0.1882691,0.5856142,0.7917157
0.1871666,0.5890771,0.7975552
0.1882396,0.5938338,0.8001519
0.1911527,0.5915596,0.7987508
0.1940586,0.5906253,0.7948733
0.1932051,0.5930497,0.7909791
0.1901857,0.5930554,0.7930986
0.1891302,0.5940254,0.7935343
0.1876431,0.591489,0.795969
0.1870618,0.585948,0.8044548
0.1873172,0.5874379,0.8095804
0.1846379,0.589639,0.8068509
0.1834104,0.5902045,0.8006874
0.1876179,0.5926164,0.8025836
0.1917038,0.5915959,0.8035864
0.1889018,0.5899793,0.7976124
0.1860527,0.5898382,0.7969325
0.1899151,0.589547,0.7971771
0.1912487,0.5925112,0.7980513
0.1896641,0.5953242,0.7995187
0.189627,0.5961239,0.7978408
0.1854416,0.5975763,0.7990126
0.1804234,0.5962599,0.7986819
0.1807349,0.5932444,0.7981371
0.1809289,0.5929028,0.7987304
0.1769678,0.5939481,0.7953729
0.1771579,0.5944564,0.7938792
0.1828637,0.5925887,0.7947732
0.1837466,0.5899078,0.7968232
0.1822956,0.5902027,0.797457
0.1824186,0.5914606,0.7955937
0.1842649,0.5916102,0.7968286
0.1884489,0.5905462,0.7982594
0.1873303,0.5884099,0.8025776
0.184006,0.5890378,0.8067212
0.1832302,0.5926871,0.7981309
0.1826451,0.5938131,0.7900594
0.1830561,0.59182,0.7947883
0.17884,0.5911872,0.8022203
0.1752268,0.5919318,0.8054143
0.1804697,0.5914621,0.7986115
0.1853781,0.5903105,0.7881036
0.1852745,0.5883537,0.791752
0.1836347,0.5874608,0.799736
0.1821607,0.591107,0.8034389
0.1800178,0.5935875,0.8083767
0.1801566,0.5887132,0.802128
0.18348,0.5840158,0.7948641
0.1843755,0.5860639,0.7994533
0.1847465,0.5873497,0.7974717
0.1836373,0.5861394,0.7951174
0.1797692,0.5879419,0.8019791
0.1790661,0.5880127,0.8057678
0.1807537,0.5867042,0.8038428
0.1829088,0.5880154,0.8001373
0.182987,0.5874664,0.8000992
0.181877,0.5871613,0.8013919
0.1824264,0.5881358,0.7997712
0.1815042,0.5880542,0.7987956
0.1819066,0.5897937,0.7999416
0.1819033,0.5919913,0.8049859
0.1786378,0.5942905,0.8070516
0.1777324,0.5950507,0.8037581
0.1792105,0.592021,0.803513
0.1810609,0.5911159,0.8003491
0.1791366,0.591005,0.7964786
0.1764744,0.5869185,0.7997431
0.1797249,0.5825767,0.8008411
0.1827451,0.582782,0.8006249
0.1854495,0.5860724,0.8006314
0.187317,0.586624,0.7973144
0.1851432,0.5872766,0.798969
0.1846353,0.5907415,0.802268
0.1846212,0.5923121,0.8022834
0.1842069,0.5919165,0.8017718
0.1831841,0.5912327,0.7982231
0.1797258,0.5917426,0.7960475
0.1788051,0.5919985,0.7944415
0.1793092,0.5906575,0.7936141
0.1794488,0.5892994,0.7982885
0.1781135,0.5866861,0.8001885
0.173528,0.5868941,0.8026278
0.1728707,0.5885238,0.8068141
0.1755183,0.5866923,0.8029833
0.1768582,0.5865993,0.7997769
0.1783531,0.5862967,0.8021906
0.1775829,0.5854374,0.8045305
0.1755493,0.58671,0.8059712
0.174421,0.5859187,0.8051673
0.1734588,0.5860718,0.8016605
0.1746681,0.5874307,0.7988821
0.1774789,0.5873792,0.7992989
0.179617,0.5878052,0.7973945
0.1811561,0.5873279,0.7919293
0.1827263,0.5873979,0.7905741
0.182724,0.5877972,0.7932131
0.1789534,0.5870089,0.7971472
0.17495,0.5867816,0.8013093
0.1757959,0.5865721,0.801582
0.1778865,0.5894043,0.8023083
0.1776398,0.5931924,0.807114
0.1795942,0.5912801,0.8055361
0.1810057,0.5881753,0.7994179
0.1797787,0.5872665,0.7983011
0.1807127,0.587105,0.7984648
0.1783645,0.5883794,0.8006259
0.1739113,0.5902134,0.8024018
0.173667,0.5919958,0.8014815
0.1750604,0.5914172,0.8051862
0.1775016,0.5888872,0.8081508
0.1775162,0.5882444,0.8073587
0.1771909,0.5857275,0.8078425
0.1784947,0.5838204,0.8075922
0.1763584,0.5879869,0.8045883
0.176562,0.5897809,0.8005081
0.1795023,0.5876797,0.798422
0.1805817,0.5871819,0.7984
0.1792453,0.5874283,0.802151
0.1755902,0.5882977,0.804519
0.1766249,0.5900249,0.8007313
0.1798007,0.5922215,0.7975393
0.1805065,0.591362,0.791572
0.1803547,0.5890868,0.791921
0.178462,0.5904726,0.8056136
0.1799564,0.589732,0.8090155
0.1805038,0.588168,0.8013481
0.1745076,0.5901816,0.798946
0.1709793,0.5905713,0.8026358
0.1728176,0.5897995,0.8053213
0.1756562,0.5885461,0.8011228
0.1753335,0.5865029,0.7986108
0.1749185,0.5856333,0.8006384
0.175188,0.5844859,0.8010059
0.1710215,0.5846807,0.8014578
0.1701365,0.5878124,0.8015802
0.1733646,0.592402,0.8011979
0.1738618,0.5955131,0.8007572
0.173822,0.5928225,0.7978149
0.1731636,0.588899,0.7947283
0.1725459,0.5885929,0.7961094
0.1713363,0.5873472,0.8009826
0.1700625,0.5866045,0.8056211
0.171227,0.587357,0.8082883
0.1708695,0.5857622,0.8074071
0.170893,0.5866228,0.8081928
0.1729744,0.5886874,0.8128225
0.1738974,0.5883024,0.8127265
0.1739184,0.591048,0.8099575
0.1732607,0.5937448,0.8086752
0.1736506,0.5938438,0.8072947
0.1731664,0.5935171,0.8063306
0.1694883,0.5882657,0.8022992
0.1663284,0.5825842,0.7992238
0.1662878,0.5841636,0.8009612
0.1690144,0.5862728,0.8017347
0.1700442,0.5848968,0.8039321
0.1689901,0.5861352,0.8073051
0.1688385,0.5869892,0.8059613
0.168629,0.5852177,0.8044455
0.1695859,0.586437,0.8060989
0.1702372,0.5865985,0.8054717
0.1709079,0.586354,0.8027447
0.1739082,0.588374,0.8013282
0.1741544,0.5873307,0.8007606
0.1727022,0.5873534,0.8023078
0.1724468,0.5888881,0.8020431
0.171728,0.5891027,0.8003515
0.1723561,0.5906344,0.8029789
0.1725216,0.5902338,0.8032168
0.1712431,0.5884784,0.80178
0.1701802,0.5889045,0.8026665
0.1693926,0.5909652,0.8033835
0.1731383,0.5923076,0.8038652
0.1776232,0.5910014,0.7970548
0.1764469,0.5888664,0.7928084
0.1753692,0.5868398,0.8003889
0.1741346,0.5875825,0.8039066
0.1717198,0.5909134,0.8056193
0.1755108,0.5915564,0.8075479
0.1823711,0.5890481,0.8057719
0.1836992,0.5857118,0.8083872
0.1785958,0.5863283,0.8048497
0.1736532,0.5891713,0.7983418
0.1745721,0.5898398,0.802428
0.1764314,0.5921891,0.8030896
0.1773431,0.5916279,0.7992889
0.180822,0.5859581,0.7977551
0.1815496,0.5829584,0.7976645
0.1796272,0.5832534,0.7996493
0.1808481,0.5863745,0.7970535
0.1812131,0.588749,0.7948419
0.1823219,0.5881283,0.7961103
0.1870185,0.5893723,0.7942868
0.1883673,0.5909897,0.792761
0.1870863,0.5918495,0.7915854
0.1863268,0.5926321,0.7919252
0.1848333,0.5938767,0.794045
0.1837116,0.5966274,0.7952713
0.1842599,0.5950811,0.7969653
0.1874055,0.5912507,0.7960092
0.1909388,0.5903585,0.7956777
0.1921313,0.5882132,0.7964097
0.1909375,0.5871158,0.7957212
0.1897264,0.5896853,0.7966227
0.191683,0.5917759,0.795304
0.1940102,0.5920544,0.7955459
0.1943452,0.5914136,0.7961982
0.1927454,0.5916343,0.7922198
0.1898741,0.5918861,0.7913183
0.1899016,0.591429,0.7911507
0.1911158,0.5921522,0.7898764
0.191766,0.5934747,0.7894979
0.1933043,0.5948555,0.7917696
0.1912406,0.5948279,0.7971478
0.1873444,0.5939003,0.7952101
0.1878209,0.594691,0.7919066
0.1921673,0.5945741,0.7929983
0.1985858,0.5935741,0.7917396
0.2008875,0.5918996,0.7926836
0.1950429,0.5884246,0.7934639
0.190024,0.5882362,0.7926638
0.1906194,0.5901324,0.7938199
0.1906749,0.5910789,0.7947196
0.1897252,0.5928929,0.7980412
0.1905098,0.5920013,0.8011407
0.190426,0.5906607,0.8013945
0.1899527,0.5926779,0.799712
0.190541,0.5931352,0.796071
0.1902082,0.5926925,0.7943886
0.1901592,0.5919026,0.793021
0.1904871,0.5907278,0.7940669
0.1900951,0.5925995,0.7973369
0.1903549,0.5936309,0.7952539
0.1897871,0.5943112,0.7937769
0.1874706,0.5951699,0.7954472
0.1847238,0.5926288,0.7974426
0.182115,0.5921378,0.799878
0.180295,0.5925379,0.7978987
0.1811144,0.591792,0.7952782
0.1846262,0.5921477,0.7944551
0.185759,0.59109,0.7932592
0.186164,0.5917673,0.7933038
0.189203,0.5921149,0.7918769
0.1891798,0.5908007,0.7949634
0.1875045,0.5913088,0.8021236
0.187869,0.5902195,0.8018179
0.1890921,0.591698,0.7995349
0.1902791,0.5942964,0.7981487
0.1869183,0.5926935,0.7952684
0.1828722,0.5930434,0.7944221
0.1838342,0.5942847,0.7929444
0.1837983,0.5939166,0.7935454
0.1826412,0.591662,0.7995706
0.1836474,0.5874077,0.8026337
0.1831272,0.5872731,0.7984896
0.1811737,0.5906663,0.7946763
0.1803157,0.5925934,0.7959268
0.1806198,0.5927346,0.7978568
0.182618,0.5926761,0.8033863
0.1835588,0.5925262,0.8098434
0.1811175,0.591441,0.8015664
0.177936,0.5922919,0.7875301
0.1761935,0.5931104,0.787513
0.1763119,0.5892691,0.7972003
0.1766795,0.5862037,0.8037624
0.1771512,0.5874062,0.800323
0.1781808,0.5879085,0.7951552
0.1781605,0.5862681,0.7977879
0.1793489,0.5857538,0.7982857
0.1812981,0.5864931,0.7972617
0.180672,0.5869488,0.7996925
0.1796103,0.5873722,0.7994611
0.178125,0.5859225,0.8029619
0.1755957,0.5838507,0.8043935
0.1755278,0.5850564,0.7981158
0.1753981,0.58694,0.798296
0.1727057,0.5875032,0.7996914
0.1731974,0.5869299,0.8005187
0.1745183,0.5857007,0.8043708
0.1731529,0.5869288,0.8026509
0.1745745,0.5881935,0.8019165
0.1756546,0.5872359,0.8023249
0.1747566,0.5874097,0.7984387
0.1760746,0.5877296,0.7963491
0.1764825,0.5872998,0.796641
0.1754754,0.5877712,0.8019206
0.1747175,0.5884099,0.8079262
0.1746159,0.5888988,0.8055568
0.1744942,0.5882016,0.8019206
0.1730854,0.5869476,0.8003624
0.1731379,0.5875189,0.7976496
0.1722518,0.5877721,0.7993606
0.1699004,0.5872308,0.805865
0.1707881,0.5876148,0.8089189
0.1714863,0.587545,0.8047182
0.1711504,0.5873709,0.7972119
0.1719078,0.5876255,0.7968663
0.171832,0.5874349,0.8036351
0.1730803,0.5874921,0.8062983
0.175146,0.5875587,0.8033163
0.1741799,0.5874277,0.7996474
0.1731404,0.5879092,0.8013181
0.1737315,0.5892717,0.8063303
0.1738308,0.5904455,0.8089441
0.1746221,0.5887467,0.8103895
0.1762112,0.586496,0.8085885
0.176548,0.5875171,0.8068463
0.1754417,0.5878186,0.805858
0.1744021,0.5861496,0.8050701
0.1743368,0.5859901,0.8085635
0.1742093,0.5861402,0.807499
0.1741014,0.5860572,0.8056933
0.1733879,0.586941,0.8063231
0.1717589,0.58992,0.8033344
0.1726543,0.5945973,0.8036216
0.1758423,0.5949272,0.8000281
0.1769049,0.5906739,0.7954835
0.1741102,0.587792,0.8004072
0.1708862,0.5874607,0.8025752
0.1706823,0.5902116,0.8014193
0.1723088,0.5928322,0.8017969
0.1754106,0.5912751,0.8020739
0.1782325,0.5892095,0.800645
0.1782149,0.5878724,0.7992462
0.1782165,0.5874252,0.8029252
0.1784518,0.5903712,0.8060958
0.17677,0.5926837,0.8068785
0.1759129,0.5913085,0.8039504
0.1778516,0.5892934,0.7965953
0.1800346,0.5877352,0.7946692
0.1812371,0.5870063,0.7961944
0.1827416,0.5876415,0.7969201
0.1844519,0.5876765,0.7975019
0.1852939,0.5874243,0.7970305
0.1847742,0.5885345,0.7973808
0.1853218,0.5890109,0.7973233
0.1860676,0.5879612,0.7980432
0.1824216,0.588423,0.7992821
0.1800982,0.593662,0.7993308
0.1854841,0.598299,0.8002849
0.1921207,0.5924806,0.7996053
0.1921552,0.5857419,0.7970518
0.1874642,0.5894895,0.7941493
0.1832975,0.5920508,0.7900554
0.181523,0.5912085,0.7870428
0.1854573,0.5941813,0.7892502
0.1903482,0.5949068,0.7935721
0.1889388,0.5935935,0.7921287
0.1887803,0.5920756,0.7923932
0.1921604,0.5891697,0.7970505
0.1935941,0.589736,0.7958999
0.1930014,0.5890382,0.7946306
0.1908268,0.5854612,0.7939132
0.189833,0.5865541,0.7903266
0.1906863,0.5901117,0.7914916
0.1920845,0.5923074,0.792664
0.1929583,0.5911015,0.7922252
0.1895809,0.588315,0.7959137
0.1864,0.5893921,0.7992718
0.1894891,0.5920529,0.8005514
0.1933691,0.594399,0.7997254
0.1929773,0.5952978,0.7968047
0.1906591,0.5938635,0.795301
0.1881133,0.5944267,0.7955741
0.1866533,0.5948787,0.7954756
0.1880544,0.593591,0.7925769
0.1895921,0.5929399,0.7907235
0.1903911,0.5911468,0.7938351
0.1905957,0.5911947,0.7959144
0.1887533,0.5924112,0.7970933
0.1877668,0.5912198,0.8015387
0.1881562,0.5911175,0.8033361
0.1907421,0.5891431,0.7996653
0.1945439,0.5853822,0.7957035
0.1929514,0.5865037,0.7942493
0.1894216,0.5901509,0.7918274
0.185988,0.5926954,0.7874948
0.1816008,0.5926384,0.7893492
0.1838205,0.5906242,0.7964973
0.1890642,0.5892812,0.7996233
0.1898374,0.5883675,0.7982908
0.1864651,0.5888772,0.7961919
0.1814122,0.5894732,0.7971364
0.1826656,0.5893595,0.7982343
0.1850151,0.590722,0.7973008
0.1821723,0.5905122,0.7991634
0.183038,0.5895884,0.7990417
0.182685,0.5899619,0.7981036
0.1806153,0.5897557,0.8007554
0.1836221,0.5920778,0.7995427
0.1829256,0.5941949,0.7962659
0.1812126,0.5927056,0.7955163
0.1806084,0.5928271,0.7978733
0.1765333,0.5934428,0.8013701
0.1776819,0.5926065,0.8007082
0.1812318,0.592058,0.7994846
0.1806509,0.5907521,0.7990808
0.1795171,0.5904857,0.7981436
0.1761051,0.5914295,0.7979947
0.1724703,0.5908894,0.7979517
0.1739678,0.5905717,0.8006191
0.1762342,0.5905464,0.8050784
0.1747224,0.5900425,0.8072489
0.174651,0.5912886,0.8038006
0.1766226,0.5919843,0.7985975
0.1760511,0.5903523,0.8004493
0.1753832,0.5891416,0.8017663
0.1740215,0.5886002,0.7989914
0.1728452,0.5888489,0.7998107
0.1740911,0.589132,0.7992562
0.1731818,0.5884752,0.7958706
0.1715887,0.5877348,0.7945436
0.1706557,0.5855032,0.7945278
0.1706471,0.5839094,0.7964565
0.1732123,0.5852418,0.7991666
0.1739642,0.5867192,0.8006906
0.1739365,0.5878064,0.8022808
0.1754421,0.5869317,0.8046291
0.1767348,0.5826304,0.8078501
0.1766816,0.5807615,0.8093222
0.1749305,0.5872968,0.8080089
0.1747044,0.5942941,0.8078776
0.1742994,0.5898695,0.8073546
0.1730434,0.5837463,0.8037123
0.1738043,0.5846588,0.8018493
0.1733032,0.5829794,0.8043
0.1716626,0.5816665,0.8101941
0.1701313,0.5859547,0.8149898
0.1686453,0.588674,0.8099054
0.1680555,0.5885691,0.8015426
0.1675989,0.5876167,0.8005882
0.1685081,0.5871393,0.8004672
0.1692844,0.5858091,0.8005637
0.1703532,0.5838641,0.8027328
0.1727,0.5861173,0.8008547
0.173114,0.5912292,0.8008607
0.173767,0.59511,0.8024386
0.1739615,0.5910224,0.8005279
0.173101,0.5850316,0.801631
0.1739471,0.5907728,0.8017789
0.1735863,0.5956717,0.800306
0.1733786,0.5929316,0.8002746
0.1737659,0.5902688,0.7988053
0.1724459,0.5860308,0.8036607
0.1722392,0.5857071,0.808877
0.1732495,0.5873404,0.8040089
0.1749848,0.5853201,0.7999485
0.1763758,0.5871226,0.8007913
0.1767263,0.5883694,0.8010517
0.1785202,0.586797,0.8018438
0.180491,0.5882045,0.8054018
0.1809886,0.5893009,0.8073778
0.1807925,0.5898336,0.8044172
0.1821272,0.5872955,0.8015669
0.1832994,0.5832567,0.8013049
0.1788933,0.5869642,0.7971592
0.1745829,0.5916966,0.7897281
0.1767855,0.59132,0.7907374
0.1804912,0.5889977,0.794435
0.1834736,0.5855753,0.7922362
0.1856482,0.5865669,0.7932687
0.1835889,0.5922256,0.7945766
0.1805316,0.5956958,0.7938616
0.1812195,0.5948575,0.7960747
0.1845611,0.5911808,0.798542
0.1898494,0.5859219,0.8025651
0.1917795,0.5808091,0.8021402
0.1890772,0.5855914,0.7972235
0.1884816,0.5977854,0.7953893
0.1881725,0.5992561,0.7919385
0.1902821,0.5927051,0.7927054
0.1947537,0.5887148,0.7971274
0.1923191,0.5894517,0.7962842
0.1902948,0.5918232,0.7968436
0.1928598,0.5896927,0.7974448
0.1933473,0.5911091,0.7971126
0.1944639,0.5948606,0.7991286
0.1942089,0.5939983,0.8010956
0.1917127,0.5944229,0.8031794
0.1914371,0.5914999,0.7993356
0.1899551,0.5880741,0.794062
0.1886491,0.5896402,0.794391
0.1893566,0.591381,0.791362
0.188548,0.5938792,0.7890489
0.1890003,0.5924719,0.7922527
0.1901772,0.5905182,0.7925034
0.1899256,0.5926602,0.7915379
0.1897415,0.5933532,0.7948697
0.1886256,0.5944244,0.7960476
0.1896952,0.593173,0.7921175
0.1918414,0.5900842,0.7921944
0.1906968,0.5900433,0.7945451
0.1891351,0.5889497,0.7939655
0.185789,0.5891134,0.7946056
0.1819765,0.591526,0.7939378
0.1834699,0.5916617,0.7929231
0.1868442,0.5913538,0.794237
0.187952,0.5902478,0.7929267
0.1876199,0.588725,0.7929664
0.1873058,0.5900307,0.796056
0.1875132,0.5907726,0.7962935
0.1876162,0.5907271,0.7953805
0.1868702,0.5914798,0.7942181
0.1844475,0.590836,0.7914075
0.1808383,0.5916119,0.7914293
0.1800998,0.5921078,0.7961073
0.1840641,0.5898513,0.7974087
0.1874707,0.5884129,0.7947437
0.2297132,0.6585588,0.7491212
0.2307395,0.6510497,0.7332402
0.2328878,0.6414437,0.7493456
0.2394797,0.627777,0.7519386
0.2517466,0.6310963,0.7303995
0.2683638,0.6486811,0.7168334
0.2584422,0.6677403,0.7042356
0.2501435,0.7010079,0.689679
0.2655317,0.7097847,0.6769734
0.3047075,0.6937495,0.68255
0.3463589,0.6837493,0.7073529
0.3322834,0.6662857,0.7149087
0.291275,0.6452987,0.7230718
0.28323,0.6249469,0.7340704
0.2906242,0.6186449,0.7229361
0.2943417,0.6432909,0.7045796
0.2849152,0.6614463,0.6870118
0.2675552,0.6662274,0.6857324
0.2706636,0.6703254,0.6984263
0.2675097,0.6603552,0.7129137
0.2551919,0.6548173,0.7361949
0.259669,0.651025,0.7592904
0.2476147,0.6302726,0.7803589
0.2357794,0.6064102,0.7865926
0.241987,0.5927735,0.778109
0.2339071,0.5933244,0.7767582
0.2262217,0.5931253,0.7681305
0.2311228,0.5954371,0.7544954
0.2406082,0.6071935,0.7483878
0.2467719,0.6154026,0.7426864
0.2480145,0.6307242,0.7449371
0.2527056,0.6451653,0.7521962
0.2579995,0.6499672,0.757705
0.2646119,0.6587073,0.7609813
0.2638999,0.6694745,0.7515707
0.2606405,0.6729896,0.7344775
0.2670367,0.657307,0.7204658
0.2691604,0.6387786,0.7142177
0.2671431,0.6324881,0.7185893
0.258526,0.6353536,0.7259118
0.2474531,0.6428441,0.7399622
0.25473,0.6368863,0.7559662
0.2668519,0.6353976,0.7533475
0.2710401,0.6404332,0.7410101
0.2735802,0.633481,0.733593
0.2714101,0.6287483,0.7371341
0.2660796,0.6188347,0.7495195
0.2612132,0.6147558,0.7540098
0.2578696,0.6204506,0.7530977
0.2599267,0.6147287,0.7525005
0.2605453,0.6164044,0.7506889
0.2573152,0.6195875,0.7493638
0.2566623,0.6191891,0.7461494
0.2542138,0.6312595,0.7490139
0.2531767,0.6393799,0.7536695
0.2549744,0.6393674,0.7527887
0.2527563,0.6375443,0.7569195
0.2528143,0.6349479,0.764014
0.2554493,0.6299823,0.7712431
0.258395,0.616457,0.7737784
0.2600543,0.5981446,0.7685008
0.2520697,0.5749822,0.7674139
0.2391567,0.5490141,0.7718306
0.2312893,0.5267212,0.7840231
0.2325882,0.5229654,0.7990868
0.2358677,0.5407509,0.7991144
0.2335515,0.5528043,0.7922069
0.2320053,0.564239,0.7915802
0.2313952,0.5848514,0.7908667
0.2348451,0.598673,0.7862211
0.24167,0.6102604,0.7766189
0.2391308,0.6250968,0.7630892
0.2386454,0.6364887,0.7575172
0.2480225,0.6375648,0.7541464
0.2545433,0.6435429,0.7457331
0.2563588,0.6574098,0.7503904
0.2552537,0.6544319,0.7563921
0.25518,0.6517978,0.7498238
0.2564708,0.6525775,0.7458898
0.2561966,0.6413115,0.7367302
0.2598766,0.6358464,0.7276732
0.2642599,0.6337769,0.730282
0.2650958,0.6365001,0.7298855
0.2618049,0.6488124,0.7379446
0.2551099,0.6566339,0.7546787
0.2546064,0.6556252,0.7541401
0.256432,0.6477212,0.7459846
0.2550664,0.6434286,0.7443395
0.2553416,0.6381889,0.745787
0.2522599,0.6285827,0.7537236
0.2439593,0.618987,0.7622195
0.2369923,0.6070142,0.7615217
0.2350309,0.6100574,0.7632162
0.2337707,0.6130035,0.7724269
0.2312508,0.6061391,0.7748306
0.231453,0.6123878,0.7747351
0.228841,0.6117682,0.7810216
0.227627,0.6069462,0.7819367
0.2308624,0.6091174,0.7787238
0.2281481,0.6051267,0.7782252
0.226836,0.6071413,0.7745015
0.2270487,0.6070476,0.7719111
0.2250465,0.6036307,0.7712826
0.2273366,0.6070997,0.7671059
0.2261997,0.6061155,0.7650378
0.2243532,0.6078273,0.7660918
0.2239975,0.6095176,0.7701478
0.2207799,0.6076387,0.7765774
0.2224374,0.6112919,0.7756976
0.2230565,0.6145259,0.7665966
0.222025,0.617864,0.7591388
0.2229769,0.6196995,0.7617585
0.2182089,0.6210678,0.7690283
0.2151222,0.6259768,0.7704956
0.2169449,0.6256303,0.7711182
0.2169889,0.6235844,0.7728514
0.2164309,0.6224507,0.7721306
0.2165963,0.6181813,0.771814
0.2165543,0.617192,0.7701197
0.2145117,0.619537,0.7670459
0.2117319,0.6192189,0.7667619
0.2086327,0.616337,0.7713211
0.2062508,0.6135067,0.7790458
0.2088716,0.6123991,0.7812099
0.2126434,0.612483,0.7750706
0.2125828,0.6115266,0.7703135
0.2099227,0.611595,0.7739914
0.2065104,0.6157392,0.7779269
0.2046425,0.6188722,0.7769403
0.2063987,0.6154932,0.7787698
0.2105413,0.6099913,0.7788606
0.2134493,0.6088421,0.7722215
0.2130955,0.6085218,0.7679588
0.211874,0.6081171,0.7697164
0.2135724,0.6116,0.772238
0.2146089,0.6132887,0.771101
0.2130048,0.6134348,0.7727847
0.2122823,0.6178486,0.7767983
0.2108872,0.6218064,0.7747371
0.211985,0.619003,0.7743202
0.2162365,0.6144957,0.7758548
0.2175007,0.6170323,0.7744354
0.2188799,0.6196034,0.7744291
0.221638,0.6214781,0.7716194
0.2226922,0.6259067,0.7680026
0.2210939,0.6185027,0.7698875
0.2182418,0.6081498,0.7727522
0.2178194,0.609437,0.7738757
0.2180169,0.6113622,0.7729811
0.2184156,0.6120134,0.7716084
0.2200323,0.6118915,0.7723707
0.2209042,0.6067875,0.7734711
0.2187693,0.6018346,0.7746724
0.2106934,0.6043688,0.7791027
0.205658,0.6154068,0.7819555
0.2144101,0.6284842,0.7726234
0.2288029,0.6375574,0.7568146
0.236185,0.6392224,0.7513107
0.2367107,0.6388562,0.7540036
0.2361879,0.640316,0.7528431
0.2362902,0.6371831,0.7510147
0.2389101,0.634388,0.7517703
0.2417044,0.6327986,0.7506197
0.2419542,0.6279921,0.748453
0.2433056,0.6271756,0.7458256
0.243172,0.6280191,0.7448909
0.240564,0.6276246,0.7474466
0.2390731,0.627854,0.7505672
0.2386331,0.6265928,0.756058
0.2408031,0.6262793,0.7598634
0.2455399,0.6259925,0.7587983
0.2502146,0.6240063,0.7564628
0.250533,0.6206241,0.7493599
0.2465367,0.6184665,0.7451099
0.2459852,0.6218811,0.7500335
0.2503905,0.624983,0.7524654
0.2544379,0.6251668,0.7517383
0.2538499,0.6264456,0.7536516
0.2512944,0.631654,0.7578775
0.250356,0.6403604,0.7599216
0.2475169,0.6420264,0.7580553
0.2453305,0.6368559,0.760759
0.2451833,0.632515,0.7637818
0.2436796,0.6276889,0.7599156
0.2432556,0.6279814,0.7569102
0.2413267,0.6308984,0.7557643
0.239164,0.6285689,0.7544334
0.2409931,0.6296536,0.7516898
0.2422387,0.6318404,0.7461587
0.2436135,0.6297706,0.745623
0.2453469,0.6303192,0.7517926
0.2457997,0.6291459,0.7560872
0.2462974,0.6266539,0.7564046
0.2453567,0.6277019,0.7602031
0.2448325,0.6261774,0.7658617
0.2445544,0.6238195,0.7622813
0.2437695,0.6232076,0.7565825
0.2441301,0.6219695,0.7560575
0.2434547,0.6224072,0.7532841
0.2436194,0.6257402,0.7524528
0.2445583,0.6309753,0.7537409
0.2449037,0.6368242,0.7517599
0.246201,0.639359,0.7520422
0.2439526,0.6338265,0.7516157
0.24101,0.6279419,0.7506984
0.2423423,0.6292959,0.7530804
0.2443546,0.6255694,0.7536691
0.2465527,0.6178608,0.7568863
0.2461613,0.6210506,0.7605761
0.2440893,0.626286,0.7581363
0.2444878,0.6263,0.7584073
0.2434898,0.6278711,0.7634618
0.2425897,0.6279531,0.7658181
0.2427675,0.6273402,0.761983
0.2400814,0.6281682,0.7578681
0.2372183,0.6266536,0.7593698
0.2367606,0.6270474,0.7588432
0.2373749,0.6286297,0.7561627
0.2374962,0.6300881,0.7595957
0.2382484,0.6349713,0.7621178
0.2398172,0.6381993,0.7577261
0.2428241,0.6372788,0.753771
0.2475905,0.6337017,0.753088
0.2465222,0.6284508,0.753532
0.2442223,0.6234517,0.7544454
0.2465792,0.6197362,0.755561
0.2437989,0.6181746,0.7601904
0.2408963,0.6177651,0.7648337
0.2415837,0.6190816,0.7591325
0.2386457,0.6205292,0.7514779
0.2368124,0.6221429,0.7540351
0.237154,0.6263393,0.7566639
0.23686,0.6271212,0.758263
0.2359505,0.6245625,0.7643733
0.2357675,0.6234146,0.7621062
0.2378006,0.6238339,0.7561378
0.2389557,0.62718,0.7573126
0.241718,0.6289295,0.7566092
0.2446457,0.6273138,0.7557362
0.2445533,0.6272392,0.755432
0.246692,0.6263984,0.7527976
0.2484906,0.6241671,0.7546999
0.2475165,0.6248257,0.7580741
0.2449457,0.6259267,0.7593028
0.241319,0.6267286,0.7597695
0.2399426,0.6312392,0.7584992
0.2396732,0.6368934,0.7535106
0.2396368,0.6398422,0.7468545
0.2388838,0.6384642,0.7486562
0.2382332,0.6346072,0.7545832
0.240057,0.6318124,0.755993
0.2408768,0.6260272,0.7574049
0.2413842,0.620721,0.7618042
0.2416519,0.6207078,0.7697533
0.2424411,0.6188831,0.771113
0.2439544,0.6180771,0.7645722
0.2397221,0.6199679,0.7631345
0.237538,0.6208084,0.7623239
0.239738,0.6231105,0.7616096
0.2379701,0.6228837,0.7625996
0.2353396,0.623112,0.7594972
0.2297108,0.6263214,0.7574214
0.2258076,0.625117,0.7551977
0.2292444,0.6254265,0.7543228
0.2300281,0.6280848,0.7565279
0.2308306,0.6270327,0.7533
0.2372319,0.6264179,0.7517707
0.2428322,0.6257219,0.7541958
0.243329,0.6243923,0.7559585
0.2429427,0.624673,0.7593839
0.2439542,0.6238483,0.7579606
0.2413874,0.6228709,0.7559198
0.2374447,0.6239316,0.7593907
0.2339235,0.6238787,0.7603364
0.2327165,0.6229193,0.7593369
0.2332956,0.6230695,0.7588275
0.2275524,0.6219573,0.7580441
0.2260672,0.6221624,0.7597452
0.2297048,0.6246199,0.76558
0.2277724,0.6251626,0.7715726
0.2302285,0.6243225,0.7703024
0.2345304,0.6204154,0.7679599
0.2362885,0.6165004,0.771185
0.2374719,0.6180815,0.7706696
0.2348799,0.6200205,0.7663098
0.2360747,0.62126,0.7637036
0.2358987,0.6237317,0.7617432
0.2321789,0.6237927,0.7609697
0.2329238,0.6212392,0.7592889
0.2315923,0.6196148,0.7592093
0.2313098,0.6206141,0.7615879
0.2318897,0.6238111,0.7610403
0.2299022,0.6260918,0.762496
0.2325756,0.6247756,0.7658571
0.2341955,0.6235999,0.7661198
0.2326692,0.6238226,0.7627735
0.2315925,0.6231353,0.7580621
0.229951,0.6228302,0.7610987
0.2306393,0.6217291,0.764178
0.2317763,0.6200576,0.7597239
0.2316243,0.6195288,0.7590905
0.2301666,0.6202719,0.7601511
0.2277033,0.6232177,0.759455
0.2288093,0.6241492,0.7599379
0.2324622,0.6223677,0.7600927
0.2339798,0.6221974,0.7622816
0.231767,0.6232395,0.7638942
0.2276848,0.624889,0.7623607
0.2256681,0.6253921,0.7619841
0.2270403,0.6242082,0.7632146
0.22861,0.6222373,0.7643552
0.2276358,0.6191345,0.7653216
0.2275829,0.6196653,0.7647032
0.2291336,0.6245389,0.7622509
0.2297278,0.6273637,0.7621465
0.2322638,0.6258846,0.7633289
0.2361507,0.6236095,0.7639214
0.2377004,0.6232206,0.765429
0.2361456,0.6210933,0.7629127
0.2302226,0.6188272,0.7597891
0.2239574,0.6200093,0.7621885
0.2237154,0.6206426,0.763272
0.224673,0.6225803,0.7621121
0.223226,0.6243909,0.7626634
0.2264446,0.6214414,0.7639278
0.2302704,0.6199129,0.7658161
0.2288815,0.6201413,0.7676826
0.2297871,0.6192195,0.7681916
0.233035,0.6193311,0.7672468
0.2354223,0.619555,0.7639591
0.2349793,0.6199911,0.7610368
0.2309941,0.6220563,0.7625913
0.2301451,0.6240933,0.7632684
0.230602,0.621683,0.7617016
0.2304087,0.6168478,0.7628322
0.2307608,0.6169593,0.7628703
0.2292463,0.6213031,0.7630848
0.2287228,0.6249964,0.7653546
0.2272485,0.6240063,0.7646918
0.2247537,0.6215418,0.7643683
0.2257507,0.6227764,0.7655935
0.2298034,0.6231769,0.7648787
0.2354154,0.6221757,0.7624579
0.2366293,0.6180352,0.7613255
0.2338328,0.6117595,0.7662955
0.2285378,0.6150411,0.7708874
0.2226904,0.6190087,0.7661791
0.2304456,0.6161571,0.7621052
0.2395417,0.6199795,0.7671018
0.2296246,0.6269746,0.7706675
0.2221591,0.6285077,0.769017
0.2267747,0.6266054,0.7693931
0.2254893,0.6222685,0.7690149
0.2232323,0.618537,0.7653588
0.2242876,0.6155785,0.7614485
0.2219556,0.6149587,0.7581124
0.2242814,0.6184542,0.7581465
0.2282709,0.6202213,0.7645032
0.2261792,0.6196943,0.7722753
0.2267441,0.62005,0.7702223
0.2287424,0.6207907,0.7647122
0.2265872,0.6192121,0.7648509
0.2231416,0.6162851,0.761522
0.2201276,0.616791,0.7600503
0.2218725,0.6160827,0.760497
0.225257,0.6128109,0.7547649
0.2233675,0.6140917,0.756593
0.2228924,0.6174604,0.764597
0.2244732,0.6193738,0.7695128
0.2226213,0.62035,0.7698744
0.2208509,0.62098,0.7668991
0.2192359,0.6226389,0.7703272
0.2195306,0.6225377,0.7692862
0.2218545,0.6201794,0.7613006
0.2197177,0.6179252,0.7601423
0.2191626,0.6150556,0.7632791
0.2231379,0.6148529,0.7696869
0.2258937,0.61779,0.7693504
0.226903,0.6183866,0.765384
0.2244092,0.6180048,0.7682842
0.2226469,0.6181097,0.7667807
0.2240013,0.6180514,0.7701355
0.2236111,0.6191688,0.7747618
0.2234737,0.6197869,0.7687357
0.2241198,0.6203697,0.768203
0.2252608,0.6211159,0.769345
0.2270517,0.6204388,0.7696347
0.2263415,0.6190402,0.7739703
0.2251063,0.6174854,0.77534
0.2244368,0.618214,0.7756052
0.2220232,0.620307,0.7741921
0.219212,0.6210562,0.7722411
0.2188583,0.6202122,0.7688917
0.2204292,0.6160862,0.7645587
0.2220887,0.6127149,0.7673976
0.2240023,0.6151887,0.7692496
0.2233296,0.6198805,0.7691072
0.2213433,0.6218694,0.7705666
0.2232993,0.6215689,0.7676282
0.2243552,0.6213017,0.7676627
0.2231009,0.6204528,0.7709178
0.2236003,0.6187963,0.7698781
0.2226363,0.6176957,0.7689546
0.2208237,0.6178289,0.7714575
0.221588,0.6180214,0.7739016
0.2252413,0.615981,0.7750798
0.2292825,0.6137183,0.7769309
0.2280695,0.6141503,0.7752798
0.2250605,0.6167175,0.7728275
0.2232151,0.6194489,0.7721663
0.2203955,0.621305,0.7661155
0.2236896,0.6239075,0.7635667
0.2287409,0.6242346,0.7663058
0.2257354,0.6200545,0.7644152
0.2234866,0.6174774,0.7628214
0.223223,0.6146582,0.763713
0.2213859,0.6092074,0.7702626
0.2233412,0.6070898,0.7774584
0.2245183,0.6072185,0.770871
0.2241085,0.6133474,0.7621834
0.2264513,0.6231777,0.7623097
0.2265786,0.6210955,0.7643678
0.2239609,0.6210172,0.7657732
0.2186389,0.631552,0.7645735
0.2142324,0.631906,0.7628884
0.2212252,0.6278051,0.7629226
0.2319571,0.625279,0.7606098
0.2326936,0.6194849,0.7598131
0.2275162,0.6243489,0.7658567
0.224369,0.6311082,0.7726224
0.2249201,0.6252561,0.7724514
0.2280321,0.6178974,0.7670186
0.2317499,0.6123885,0.763906
0.2352954,0.6130318,0.7635699
0.2385397,0.6204286,0.7576706
0.2425416,0.6215956,0.7490895
0.2448334,0.6204839,0.7500583
0.2432333,0.621399,0.7540039
0.2442889,0.6212283,0.7531016
0.2460523,0.6228395,0.7559424
0.2463069,0.6230838,0.7543587
0.2506356,0.6251706,0.7404959
0.2509963,0.6297179,0.7316841
0.2487152,0.6294189,0.7356961
0.2511464,0.6337817,0.741891
0.2522386,0.6447012,0.7399796
0.2566263,0.6492359,0.7362829
0.2639791,0.6443548,0.7368556
0.265044,0.6339458,0.7388935
0.2576931,0.6206858,0.7544864
0.2425135,0.6096353,0.7759905
0.2308917,0.6091009,0.7817047
0.2277944,0.6103386,0.7771974
0.2287936,0.6083954,0.7691426
0.2317782,0.6141069,0.7597293
0.2303159,0.6156013,0.7561696
0.2279388,0.6120297,0.7615757
0.2282107,0.6160327,0.7644262
0.2289828,0.620119,0.760061
0.2360009,0.6275401,0.7597033
0.2467022,0.632252,0.7568479
0.2525381,0.628662,0.7521078
0.2502954,0.6344293,0.7530956
0.2458789,0.6399596,0.7534121
0.2450556,0.6347168,0.7546394
0.2422562,0.6277961,0.7543804
0.2420938,0.6213757,0.7533387
0.2440298,0.6209974,0.7539657
0.2392651,0.6247957,0.7531397
0.2371249,0.6292408,0.7580874
0.237522,0.6360713,0.7632303
0.2361342,0.636334,0.7604918
0.2364251,0.6323648,0.7566712
0.2356413,0.6326067,0.754943
0.2362591,0.6304107,0.755829
0.2368012,0.6289241,0.7585865
0.2379872,0.6309139,0.7601362
0.2435861,0.6265204,0.7580845
0.2454845,0.6206847,0.7568131
0.2436133,0.6154503,0.7617132
0.2406592,0.6118792,0.7663187
0.2378004,0.6179122,0.7646811
0.2396415,0.6212877,0.7606444
0.2438276,0.6203369,0.7562545
0.2471467,0.6216182,0.7520415
0.2472045,0.6205683,0.7564796
0.2448028,0.6230788,0.7647968
0.2388839,0.6263763,0.7636638
0.2304832,0.6262619,0.7611471
0.2319653,0.6259305,0.756214
0.2351349,0.6242055,0.7472279
0.2284285,0.6279416,0.7537445
0.2270534,0.6406433,0.765557
0.2329367,0.6554163,0.7635356
0.23848,0.6572066,0.7524449
0.2451703,0.6452826,0.7374047
0.2478107,0.6300188,0.7361478
0.245502,0.6033965,0.7529204
0.2383301,0.5893351,0.7650188
0.2308273,0.6044963,0.7672174
0.2360207,0.6091929,0.7639593
0.2438325,0.6068274,0.7628417
0.242543,0.6143444,0.7669802
0.2392844,0.6131139,0.7667355
0.2351943,0.6122074,0.7655755
0.2296791,0.619283,0.7621681
0.2255905,0.6248862,0.7548026
0.227384,0.6308007,0.7536988
0.2348866,0.6364358,0.7537364
0.2396958,0.6391029,0.7532817
0.2432313,0.6373461,0.7560484
0.2446734,0.6344525,0.7585751
0.2409519,0.6247554,0.7608516
0.2396668,0.6019173,0.7620198
0.2372857,0.5917943,0.7643393
0.2358541,0.6038939,0.7656877
0.2391811,0.6155292,0.7613914
0.2369646,0.624733,0.7583611
0.2366269,0.63546,0.7591507
0.237906,0.6417827,0.7576504
0.2347038,0.6453619,0.7552246
0.2366499,0.6457508,0.759656
0.2374975,0.6397828,0.7648324
0.2367145,0.6305249,0.7620081
0.2371734,0.6226302,0.7604352
0.233027,0.6190193,0.7629699
0.2310088,0.6169373,0.7618849
0.2305719,0.613883,0.7573036
0.2314552,0.6122815,0.7546569
0.2356326,0.6136866,0.7581858
0.2367504,0.6190823,0.7651503
0.2371272,0.6224908,0.7715704
0.236355,0.6209066,0.7734678
0.2312157,0.6229509,0.770884
0.2264183,0.6290156,0.7704646
0.2292189,0.6356407,0.7657658
0.2374395,0.6419966,0.7584278
0.2420415,0.6444973,0.7588285
0.2452318,0.6439573,0.7560766
0.2438205,0.6435669,0.7523308
0.240067,0.6403479,0.7562491
0.2461296,0.626789,0.7588292
0.2497491,0.606917,0.7600452
0.2460505,0.5946521,0.7617077
0.2419305,0.5942087,0.7661783
0.2374767,0.5990865,0.7733277
0.241847,0.6067458,0.7705661
0.2488453,0.6197271,0.7625579
0.2482287,0.6252642,0.7605393
0.244602,0.62147,0.7614176
0.2390949,0.6251527,0.7622058
0.2381366,0.6248922,0.7551731
0.2430841,0.6188387,0.7399752
0.2478333,0.6226215,0.7335533
0.2524772,0.6252512,0.7412281
0.2540616,0.6268738,0.7508472
0.2541474,0.6319869,0.7528224
0.2555493,0.6321786,0.7520677
0.2528895,0.6321921,0.7517284
0.2478961,0.6337565,0.7488928
0.2460159,0.6377345,0.7497896
0.2445492,0.6410182,0.7520114
0.2404207,0.6332182,0.7551413
0.2330856,0.6233563,0.7640103
0.2258291,0.6194661,0.7657177
0.2267751,0.6179306,0.7618636
0.2308484,0.6202469,0.7606984
0.2314498,0.6225522,0.7581642
0.238116,0.6169234,0.7616354
0.2456171,0.6103844,0.7691424
0.2436019,0.6133743,0.7701882
0.238761,0.6189638,0.7680331
0.235224,0.6220824,0.7635522
0.2379507,0.624479,0.7587795
0.2423976,0.6249458,0.7585193
0.2381696,0.6263932,0.7553289
0.2342609,0.6277565,0.7505222
0.2332159,0.6316127,0.7537254
0.2324138,0.638667,0.756652
0.2348897,0.6375009,0.754895
0.2375007,0.6303125,0.7535901
0.2430136,0.6217483,0.7534409
0.2460058,0.6162622,0.7559072
0.2399326,0.6241489,0.7557669
0.2376513,0.6304362,0.7538731
0.2402235,0.6227435,0.7553754
0.2397175,0.6188252,0.7585193
0.2353279,0.6242479,0.7674496
0.2286435,0.6259956,0.7736889
0.2262366,0.6225676,0.7692997
0.22643,0.6197002,0.7641579
0.225124,0.6162216,0.7621193
0.2244305,0.6131781,0.7666158
0.222232,0.6160298,0.7718383
0.2223333,0.6202024,0.7692072
0.2322775,0.6202644,0.7683804
0.2426615,0.6231831,0.7694085
0.2392464,0.6269187,0.7674617
0.234352,0.6245574,0.7672541
0.2389976,0.6241708,0.7648557
0.2375501,0.6250328,0.7573526
0.2331633,0.6227292,0.753965
0.2343564,0.6234171,0.7575612
0.2345929,0.6232441,0.7595398
0.2386389,0.6211934,0.7586813
0.239094,0.6215692,0.7621483
0.231309,0.6207246,0.7680958
0.2284883,0.6206183,0.7687198
0.2311184,0.6221683,0.7651587
0.234516,0.6222725,0.7626083
0.231029,0.6223054,0.762999
0.2269586,0.6221772,0.765955
0.2315267,0.6216153,0.7663113
0.2327455,0.6196866,0.7649834
0.2331667,0.6171093,0.7658585
0.233934,0.617783,0.762596
0.2305367,0.6199693,0.7584527
0.2305169,0.6253347,0.759932
0.2310082,0.6368053,0.7600504
0.2339695,0.641578,0.7583561
0.2404875,0.6353004,0.7556315
0.242054,0.6314998,0.7517808
0.2380414,0.6262672,0.7566657
0.2321089,0.6129504,0.768098
0.2307266,0.6066075,0.7743936
0.2291774,0.6091646,0.7746991
0.2235118,0.6101458,0.7743813
0.2219657,0.6150839,0.7747235
0.2245092,0.6240339,0.7703817
0.2275043,0.6260869,0.7645301
0.2257432,0.6220502,0.7628951
0.2226037,0.6195501,0.7606832
0.2247321,0.6208925,0.7609199
0.2267398,0.6214803,0.7656665
0.2308684,0.6205771,0.7670572
0.2341042,0.6229874,0.7650119
0.2324819,0.6252823,0.7625444
0.2336097,0.6247034,0.760942
0.2330575,0.6232671,0.7596453
0.2323535,0.6215328,0.7588661
0.2339552,0.6220924,0.7603825
0.2300005,0.6225224,0.7597878
0.2271376,0.6205832,0.7596329
0.2279107,0.6187224,0.7638221
0.2276351,0.6167861,0.7678979
0.227973,0.6170838,0.7711302
0.2276663,0.6187147,0.771822
0.2277103,0.6180291,0.7735058
0.2281791,0.6177797,0.776486
0.2284034,0.6183113,0.7734568
0.2296282,0.6179573,0.7715284
0.2292367,0.6183694,0.7704585
0.2288466,0.6199439,0.7655837
0.2294646,0.6212956,0.7642474
0.2293752,0.6212532,0.7636561
0.2309477,0.6209783,0.7619752
0.2325909,0.6210419,0.7623897
0.2322106,0.6200267,0.7626638
0.2325207,0.6207872,0.7625439
0.2337636,0.6234442,0.7632183
0.2331625,0.6230265,0.7670829
0.2309659,0.6200532,0.770862
0.2290158,0.6169176,0.7701325
0.2269096,0.6164352,0.7704318
0.225939,0.6176866,0.7729451
0.2271449,0.6180272,0.7715758
0.2302145,0.6237578,0.768449
0.2339196,0.6296837,0.7674308
0.2338081,0.626504,0.7643533
0.2317377,0.6206977,0.76201
0.2315669,0.6159775,0.7637377
0.2302106,0.6166636,0.7645675
0.2286924,0.6218331,0.7665617
0.23034,0.6228228,0.76897
0.2329275,0.6239017,0.7679468
0.2329148,0.6246702,0.7668304
0.2288396,0.6214312,0.7659922
0.2250352,0.6187081,0.7630803
0.2268657,0.6173218,0.7572858
0.2289162,0.6191579,0.7541481
0.2264028,0.6212517,0.7582295
0.2257729,0.6196068,0.7638194
0.2269455,0.6166087,0.7681808
0.2260959,0.6129148,0.7706939
0.2263968,0.6150057,0.7694553
0.2274809,0.6199286,0.7687991
0.2305753,0.6203836,0.7692555
0.2349291,0.6254174,0.7657925
0.2335911,0.629734,0.7614418
0.2313463,0.6253046,0.7584853
0.2323448,0.6226489,0.7548657
0.2311417,0.6213137,0.7582506
0.2281371,0.6164801,0.7699951
0.2258411,0.613275,0.7760372
0.2265861,0.6144781,0.7721486
0.2289349,0.6164527,0.7691411
0.2272624,0.6177666,0.7721801
0.2253883,0.6228075,0.7732141
0.2252107,0.6264129,0.7708269
0.2243503,0.6220132,0.7698441
0.2255552,0.6176218,0.7676575
0.2260786,0.6159771,0.768281
0.2260953,0.6131251,0.7717311
0.2270678,0.6131217,0.7706594
0.2259031,0.6157669,0.7700076
0.2269187,0.6185265,0.7685113
0.2294947,0.6245557,0.7644339
0.2306304,0.6266191,0.7651567
0.2303972,0.6220012,0.7667037
0.2279889,0.6211556,0.7665754
0.2280931,0.6198925,0.7672686
0.2273169,0.6155431,0.7684285
0.2251926,0.6140657,0.7709284
0.2271478,0.6108937,0.7707092
0.2272187,0.6075717,0.7667793
0.2266266,0.6092954,0.7655868
0.226817,0.6148735,0.7712054
0.2256788,0.6226288,0.7775498
0.2267879,0.6255742,0.7753129
0.2261522,0.6230155,0.7724252
0.2241215,0.6231097,0.7744971
0.2235988,0.6245262,0.7725585
0.2234252,0.6241201,0.7671856
0.225836,0.6251754,0.7589483
0.2273177,0.6249624,0.7522604
0.2279685,0.6217122,0.7572788
0.229816,0.6203179,0.7641809
0.2292491,0.6197204,0.7672866
0.228856,0.6166308,0.768066
0.2292077,0.6124312,0.7643123
0.228019,0.6122754,0.7650932
0.2266164,0.6143467,0.7667982
0.2261844,0.6128711,0.7667911
0.227403,0.6143291,0.7713542
0.2279634,0.6184594,0.7711866
0.226651,0.6200305,0.7697448
0.2251472,0.6219413,0.7702811
0.2248371,0.6225739,0.768421
0.2263916,0.6237078,0.7708723
0.2286602,0.6243978,0.7715013
0.2306093,0.6224232,0.7698192
0.2307537,0.6221578,0.7706388
0.2292156,0.6210513,0.7684694
0.2282382,0.6227552,0.7669352
0.2281932,0.6265942,0.7640602
0.228526,0.6239222,0.7611906
0.2278122,0.621908,0.7647686
0.227099,0.6205417,0.7668969
0.2276197,0.6158591,0.7677568
0.2282488,0.6162205,0.7681945
0.231123,0.6197492,0.763229
0.2332359,0.6215692,0.7595206
0.2310911,0.6235262,0.7590783
0.2298961,0.6226623,0.758811
0.2282977,0.618837,0.7644116
0.2236626,0.6174745,0.77339
0.2196554,0.6192849,0.7743812
0.2195297,0.6216198,0.7694226
0.2261658,0.621853,0.7668526
0.2314826,0.620089,0.7691461
0.2287924,0.6186696,0.7748633
0.2263054,0.616927,0.7782964
0.2255922,0.6165579,0.7761229
0.2246219,0.6203565,0.7714826
0.2261059,0.6253166,0.7689414
0.227837,0.6275425,0.7670709
0.2278879,0.6264044,0.7638561
0.2279335,0.625795,0.7615524
0.2286688,0.6261499,0.7595913
0.2285221,0.62239,0.7602795
0.2244898,0.6164528,0.7651171
0.2188486,0.6111671,0.7703996
0.218971,0.6075403,0.7719847
0.223771,0.6118884,0.76836
0.2277259,0.620331,0.7670244
0.2302987,0.6241636,0.7675586
0.2303459,0.6294416,0.7645018
0.2327355,0.6359603,0.7612264
0.2381204,0.6351218,0.7579242
0.2362383,0.6318728,0.7587712
0.2326878,0.6273316,0.7654483
0.2326008,0.6181895,0.7694108
0.2294976,0.6131797,0.7677904
0.2284179,0.6128979,0.766205
0.2289608,0.6111939,0.771373
0.2253144,0.6111328,0.7758576
0.2226242,0.6136695,0.7744701
0.2232399,0.6173432,0.7765607
0.2244338,0.620922,0.7782847
0.225412,0.6209451,0.7739124
0.2302584,0.6187721,0.7708617
0.2356354,0.6175747,0.7726459
0.2334064,0.6178612,0.7756279
0.2310981,0.6202281,0.7749226
0.2289671,0.6269856,0.7677589
0.2241178,0.6352729,0.7595393
0.2294576,0.6340606,0.7612803
0.2368859,0.6289079,0.7649809
0.2336746,0.629542,0.7611257
0.232226,0.6250751,0.7621741
0.2318794,0.6215997,0.7645741
0.2276403,0.6276539,0.7641671
0.2308346,0.628309,0.767126
0.2374684,0.6248519,0.7637239
0.2382622,0.6218542,0.7617329
0.2334523,0.6179937,0.7654995
0.2264513,0.6192789,0.7641492
0.2285483,0.6196241,0.7670607
0.2319439,0.616589,0.7692232
0.2277626,0.616262,0.766186
0.2295211,0.6181087,0.7671677
0.2324976,0.6205731,0.7652223
0.2316556,0.6223374,0.7659678
0.2324174,0.6244652,0.7700479
0.2315014,0.625497,0.767405
0.2324042,0.6245101,0.7672704
0.2345953,0.6229044,0.7655259
0.2373516,0.6196128,0.755932
0.2404937,0.6180618,0.7506697
0.2377809,0.6199683,0.7540421
0.234823,0.6250191,0.7608078
0.2335397,0.6300401,0.7646456
0.2349923,0.6298382,0.7657944
0.23922,0.63002,0.7643917
0.2358808,0.6311303,0.7607725
0.2308418,0.6267234,0.7601775
0.2283143,0.6182666,0.7592979
0.2246846,0.6095677,0.758462
0.2248788,0.6081795,0.758939
0.2254075,0.6151909,0.7592452
0.2260576,0.6218701,0.76396
0.230473,0.6266201,0.7666275
0.2349485,0.6261919,0.7645848
0.2384154,0.6224358,0.7633916
0.2387871,0.6222576,0.7609345
0.2380916,0.618508,0.7568247
0.2377172,0.6159901,0.751991
0.2348804,0.6180803,0.7522884
0.2340098,0.6155874,0.7580028
0.2335938,0.6175011,0.7612888
0.2319507,0.6221837,0.7644045
0.2312498,0.6241818,0.7667182
0.2287169,0.6282507,0.7676946
0.2301572,0.630136,0.7702135
0.2338697,0.6328142,0.7698487
0.2323781,0.6309879,0.767698
0.2332718,0.622508,0.7639138
0.2351393,0.6154152,0.7568268
0.2341998,0.6091408,0.7554227
0.2347435,0.6158887,0.7604199
0.2329605,0.6244991,0.7656721
0.2306658,0.6196841,0.7721958
0.2304214,0.6202703,0.7761529
0.2292458,0.6220152,0.7774691
0.2314797,0.6194344,0.7765615
0.2346796,0.6196157,0.7635021
0.2333722,0.6174337,0.751347
0.2325158,0.6173956,0.7551492
0.2329196,0.6179914,0.7591373
0.2316249,0.6159836,0.7596841
0.2313913,0.6190397,0.7646348
0.231045,0.6258555,0.768803
0.2273312,0.6308727,0.7711683
0.2253766,0.6286037,0.7719958
0.2262321,0.6230689,0.7701637
0.2247987,0.6220179,0.7716921
0.2236044,0.6189513,0.7748276
0.2269944,0.6140776,0.7760118
0.2310903,0.6126822,0.7796328
0.231141,0.6096986,0.7788158
0.2311767,0.6048239,0.7716038
0.2311114,0.6035988,0.7673447
0.2284296,0.609776,0.7662462
0.2320092,0.621939,0.764517
0.2413752,0.6351499,0.7552803
0.2481991,0.6445118,0.7438929
0.2500109,0.6455303,0.7404574
0.2457565,0.642135,0.7431825
0.2430018,0.6343925,0.7535063
0.2436553,0.6215203,0.7624934
0.2442658,0.6179105,0.7635712
0.2467828,0.6232501,0.7619071
0.2461161,0.6277344,0.7560574
0.244946,0.6361598,0.7467262
0.2466201,0.6410154,0.7393794
0.2455204,0.6322264,0.7475243
0.2447646,0.6238151,0.7625395
0.241827,0.6230591,0.7630807
0.2370463,0.6225378,0.7589339
0.2395423,0.6226046,0.7534752
0.2445403,0.6216603,0.7481215
0.2473912,0.6198106,0.7488823
0.2481155,0.6214014,0.748829
0.2466022,0.6230204,0.7523909
0.2482341,0.6280669,0.7552776
0.2530687,0.6365013,0.7505814
0.25617,0.6383146,0.7436713
0.2533656,0.6366524,0.7396394
0.2471171,0.6351465,0.7488487
0.2453772,0.6305008,0.7585791
0.2445815,0.6268304,0.7549682
0.2432058,0.6270466,0.7540429
0.2444221,0.6256142,0.7563486
0.2425313,0.6215641,0.7515861
0.2407119,0.6186674,0.7502749
0.2385239,0.6152322,0.7606462
0.232432,0.6146261,0.77035
0.2331503,0.6207206,0.7677162
0.2386217,0.6264062,0.7577391
0.2456346,0.6292212,0.7509848
0.2527132,0.6300548,0.7506173
0.2484525,0.6293426,0.753639
0.2439085,0.6277851,0.7551477
0.2462328,0.623674,0.7538657
0.2431837,0.6240912,0.754974
0.2402575,0.6266296,0.7559097
0.24218,0.6239858,0.7533632
0.2428036,0.6244154,0.7532669
0.242319,0.6231431,0.7570709
0.2397177,0.6190153,0.7613263
0.2362241,0.6211721,0.7603137
0.2369201,0.6227951,0.7583285
0.2375305,0.6272681,0.7588745
0.2353137,0.6346327,0.7507422
0.2375097,0.6308144,0.7430263
0.2448317,0.6212988,0.7489448
0.2490689,0.6166942,0.7577143
0.2420583,0.6188731,0.7649906
0.2309806,0.6227264,0.7712865
0.2321865,0.6207207,0.7676776
0.2357527,0.6208243,0.7605
0.2339059,0.6282177,0.7626139
0.2379364,0.6351797,0.7629715
0.2399574,0.6395687,0.7570907
0.2404781,0.6382307,0.7510795
0.2476048,0.6311851,0.7436951
0.2486351,0.6223801,0.7467383
0.2421235,0.6086494,0.7588567
0.2361509,0.5974118,0.768504
0.2339258,0.5987756,0.7752069
0.2319203,0.6055653,0.7731459
0.2295218,0.6109451,0.76968
0.2344767,0.6211336,0.7653668
0.2349087,0.6316748,0.758442
0.231088,0.6295335,0.7638173
0.2348266,0.626748,0.7677721
0.2343171,0.6289853,0.7637175
0.234088,0.628135,0.7644452
0.237395,0.6302759,0.7620205
0.2370706,0.630123,0.7560707
0.2398145,0.6255707,0.7521509
0.2392279,0.6221873,0.7529706
0.2367783,0.6168436,0.760128
0.237944,0.6156246,0.7662277
0.2351493,0.6172638,0.7735523
0.2341829,0.6161507,0.7811539
0.23484,0.6148741,0.7779391
0.2328133,0.6129936,0.7721371
0.2296793,0.6118975,0.7752936
0.225034,0.6122536,0.7750283
0.2241694,0.6173918,0.7662586
0.2247973,0.6258967,0.7621998
0.2274088,0.6264553,0.7620295
0.2334636,0.6234788,0.7601617
0.232468,0.6245105,0.7572443
0.229763,0.6238928,0.7561476
0.2314646,0.6237552,0.7582648
0.2321385,0.6259447,0.7569328
0.2336909,0.6234878,0.7577972
0.2321686,0.6171892,0.7654514
0.2236082,0.6112288,0.7706541
0.2172763,0.6101053,0.771873
0.2199403,0.6127955,0.7706245
0.2256118,0.6129348,0.7665598
0.2262201,0.6174545,0.7615836
0.2261523,0.6247958,0.7665243
0.2276132,0.6262923,0.7740825
0.2284309,0.6255992,0.7665548
0.2311887,0.6190812,0.7627154
0.2289095,0.6127498,0.7667657
0.223291,0.6161507,0.7650568
0.223455,0.618146,0.7659834
0.2234114,0.6164419,0.7675034
0.2226357,0.6160178,0.7674521
0.2222927,0.6171475,0.7700557
0.2218146,0.6226169,0.7734489
0.2240516,0.6279932,0.7768501
0.2254807,0.6290742,0.7758285
0.2267861,0.6330699,0.771956
0.2269025,0.6364226,0.767104
0.2248746,0.6294147,0.7612035
0.2233192,0.6209298,0.7619629
0.2195726,0.6105305,0.7675932
0.219106,0.5960193,0.7727178
0.2196453,0.5941399,0.7785233
0.2140581,0.6005827,0.7799803
0.2120248,0.60442,0.7770969
0.2167513,0.6115073,0.7743141
0.2230135,0.6200451,0.7694277
0.2250044,0.6209111,0.7700195
0.2219462,0.6175307,0.7756568
0.22224,0.6193421,0.7757392
0.2245727,0.6167632,0.7760847
0.226113,0.6125191,0.7739894
0.2272986,0.6215727,0.7680272
0.2270228,0.6302547,0.7654627
0.2294584,0.632601,0.7580857
0.2330982,0.6336859,0.751191
0.2363153,0.6305716,0.7532712
0.2382952,0.6264985,0.7572059
0.2345749,0.6228219,0.7610517
0.2323665,0.6200349,0.7621238
0.2354436,0.6152667,0.76155
0.2367135,0.610678,0.7627798
0.2349819,0.6129081,0.762943
0.2334074,0.6181633,0.7632734
0.2350043,0.6250619,0.7651194
0.2397372,0.6254262,0.7656204
0.243925,0.6218418,0.7635695
0.2434197,0.6273239,0.7608995
0.2403423,0.6290926,0.7584907
0.2402786,0.6262261,0.7570272
0.2417481,0.6257517,0.7572136
0.2444802,0.6224857,0.7583629
0.24721,0.6237678,0.7599555
0.2465812,0.6272913,0.7596851
0.2470596,0.6277511,0.7582317
0.2478088,0.628459,0.7539219
0.2465725,0.6272503,0.7480482
0.2464565,0.6277287,0.7515076
0.2453662,0.6283008,0.75679
0.2436624,0.6276766,0.7551743
0.2429492,0.6315882,0.7556473
0.2435293,0.6362879,0.7568454
0.2482263,0.6386424,0.7558404
0.2535242,0.637715,0.751512
0.2553419,0.6342986,0.7411742
0.254908,0.6255194,0.7391804
0.2513889,0.610407,0.7545584
0.245296,0.6077107,0.7679189
0.2437223,0.6141058,0.7631913
0.2494393,0.6128906,0.7563012
0.2527798,0.6171943,0.7558513
0.2493068,0.6269264,0.7496372
0.2467491,0.6328665,0.748545
0.2486147,0.639438,0.7516495
0.2518457,0.6392423,0.7438971
0.2532864,0.6334536,0.7415571
0.2520547,0.6293651,0.7448873
0.2508898,0.6266419,0.7471537
0.2526846,0.6309488,0.753581
0.255571,0.6354495,0.7528686
0.2575942,0.6345534,0.7507619
0.2585111,0.633997,0.7530111
0.255317,0.6299951,0.7515536
0.25075,0.6253978,0.7513077
0.2488298,0.6258855,0.7521077
0.2463197,0.6269755,0.7546229
0.2441921,0.6265,0.7581961
0.2441354,0.6269334,0.7585541
0.2436411,0.6279071,0.7600672
0.2429788,0.6248841,0.7600795
0.2437734,0.6213398,0.7583269
0.2449762,0.6213759,0.7591097
0.2444521,0.6218502,0.7583595
0.2439619,0.623226,0.7545052
0.2438472,0.6237901,0.7519043
0.2428361,0.6216488,0.7548245
0.243786,0.6202082,0.759611
0.2450826,0.6212726,0.7597043
0.2444674,0.6242509,0.7561714
0.2451815,0.6273533,0.7511799
0.2457853,0.6284483,0.748878
0.242778,0.6256145,0.7533446
0.2388637,0.6203989,0.7600385
0.238008,0.6169773,0.7640405
0.2381961,0.6182332,0.7626251
0.2360133,0.6208354,0.7585606
0.2331796,0.6193276,0.7588304
0.2304148,0.6196866,0.7620663
0.2281644,0.6223778,0.7657139
0.2292451,0.6223217,0.766372
0.2313837,0.6248568,0.7641638
0.2339183,0.6262106,0.7652601
0.2370447,0.6250236,0.7639434
0.2344178,0.6270009,0.761141
0.2299336,0.626463,0.7633231
0.2301361,0.6248824,0.7644593
0.2289626,0.6243615,0.7653955
0.2271459,0.6196567,0.7650241
0.2287392,0.6138128,0.7601009
0.2292992,0.6105063,0.7594366
0.2251842,0.6092132,0.7689999
0.2149458,0.6085099,0.7807075
0.2069063,0.6107179,0.7787982
0.2119163,0.6148735,0.7714492
0.2186423,0.6141701,0.7725746
0.2163745,0.6132021,0.7721169
0.2157428,0.6144529,0.7715163
0.2169934,0.6136508,0.7722994
0.2146577,0.613821,0.7698724
0.2142317,0.6143123,0.7719362
0.2122792,0.6148646,0.7730309
0.210296,0.6178875,0.7713155
0.2124258,0.6204317,0.7720066
0.2128085,0.6220397,0.7708815
0.2162517,0.6237257,0.7705225
0.2202071,0.6232346,0.7695281
0.2198759,0.6186614,0.7685011
0.2211574,0.6161615,0.7706438
0.2187783,0.6193522,0.7709983
0.2150848,0.6201845,0.7724255
0.2152629,0.6194991,0.7728525
0.2149954,0.6169101,0.7704057
0.2150254,0.608952,0.7716993
0.212416,0.6070349,0.7746484
0.2090969,0.6071497,0.7780635
0.2095661,0.6011664,0.7794386
0.209532,0.5987645,0.7793953
0.207954,0.5988664,0.78325
0.2061285,0.6010675,0.7833855
0.2058493,0.6078679,0.7803089
0.2067157,0.6117338,0.7773073
0.2096818,0.6126459,0.7713977
0.2155989,0.6146502,0.7711468
0.2176194,0.6182759,0.7702736
0.2185108,0.6214849,0.7641811
0.2207056,0.6239033,0.7665548
0.2188314,0.6284924,0.7681714
0.2181301,0.6313741,0.7653811
0.2185542,0.6280906,0.7683871
0.2171699,0.6232535,0.7692686
0.217534,0.6220984,0.7687393
0.2165384,0.619619,0.7704043
0.2157149,0.613308,0.7695196
0.2156042,0.6092357,0.7698528
0.2129528,0.6098483,0.773271
0.2143151,0.6168703,0.7777779
0.2191679,0.6231462,0.7799475
0.2246863,0.6235279,0.7790905
0.2302013,0.6248088,0.7771103
0.2292291,0.6222066,0.7719332
0.2258744,0.6146792,0.7683386
0.2228907,0.6088663,0.7707535
0.219632,0.6052993,0.7736333
0.2225203,0.6061486,0.7713436
0.2256068,0.6088449,0.7668263
0.2258733,0.613212,0.7644757
0.2295355,0.6199205,0.7628241
0.2314192,0.6215058,0.76334
0.2322876,0.6202196,0.7632851
0.2370902,0.6211494,0.761853
0.2396539,0.6217969,0.7625296
0.2394553,0.6264027,0.759848
0.2402316,0.6368115,0.7553042
0.2414015,0.6423196,0.7523472
0.2438687,0.6401401,0.7512782
0.2455683,0.6374808,0.7497873
0.2464753,0.6322168,0.7437174
0.2509222,0.6207961,0.7423967
0.2549418,0.61476,0.7441768
0.2546507,0.6199091,0.7433623
0.2535214,0.6253546,0.7458849
0.2532737,0.6279644,0.7467782
0.2540592,0.6260344,0.7475798
0.2586458,0.6200506,0.7522098
0.2630545,0.6237536,0.7536576
0.2553006,0.6346332,0.7528338
0.2457566,0.6418096,0.7533938
0.2506233,0.6445162,0.7526818
0.2547016,0.6431175,0.7445013
0.2526075,0.6382782,0.7356197
0.2513528,0.6211768,0.7421639
0.2429966,0.6003596,0.7588572
0.2354491,0.5994271,0.7689721
0.2361329,0.6088662,0.7668478
0.2368593,0.6162929,0.7626506
0.2379594,0.6250031,0.7654438
0.2377039,0.6347659,0.7627579
0.2379656,0.6415551,0.755099
0.2443332,0.6333644,0.7515251
0.2516684,0.6210495,0.7439289
0.2534266,0.6253294,0.7446648
0.2461727,0.6313369,0.7552432
0.2403062,0.6324425,0.7560135
0.2433529,0.6359969,0.7556701
0.2434227,0.6316333,0.7553506
0.239543,0.625687,0.7518732
0.2383505,0.6266808,0.7515198
0.2385492,0.6263625,0.7477974
0.2383348,0.6282586,0.7411891
0.2370935,0.6295857,0.7357997
0.2372735,0.6259903,0.7451644
0.2379403,0.6244067,0.7640558
0.2372101,0.6240761,0.7651724
0.237342,0.6228473,0.7664
0.2367802,0.6192625,0.7755298
0.235085,0.6164464,0.7758395
0.2331083,0.6153179,0.7741995
0.2295314,0.6131674,0.7659662
0.2277566,0.6143823,0.7571145
0.2282278,0.6140645,0.7588848
0.2277605,0.6139748,0.7570008
0.2290968,0.6198425,0.7562339
0.2295997,0.6246547,0.766168
0.2255722,0.6289937,0.771353
0.2233139,0.632628,0.7667871
0.2247815,0.6336474,0.7663107
0.2297647,0.6257744,0.7669476
0.2351415,0.6103392,0.7611296
0.2317487,0.6090526,0.7599032
0.2267405,0.6153422,0.7659426
0.2277859,0.6163651,0.7716922
0.2265422,0.6190243,0.7713287
0.2230486,0.6187284,0.7705644
0.2213281,0.6196855,0.7791935
0.2200974,0.6256895,0.7826061
0.2197807,0.626849,0.7731202
0.2208379,0.6234564,0.7639619
0.2218772,0.619644,0.7642233
0.2172934,0.6173812,0.7707304
0.2114239,0.6143653,0.7711872
0.214297,0.6099159,0.7695813
0.2178677,0.6065726,0.7713325
0.2167271,0.6029077,0.7771799
0.2129568,0.6030566,0.7883719
0.2060287,0.6040838,0.7904248
0.2061841,0.6025738,0.7875787
0.2130323,0.6091987,0.7837632
