accx,accy,accz
0.0578526,0.654303,0.7603864
0.05621769,0.6551221,0.7554337
0.0567841,0.6544018,0.7558678
0.05493667,0.661813,0.7565437
0.05160106,0.6703414,0.7601637
0.05136151,0.6719911,0.7586081
0.0545115,0.6676911,0.7585324
0.05859095,0.6652398,0.7591826
0.06017705,0.6671866,0.757266
0.06147171,0.6664837,0.7600488
0.06295803,0.6644672,0.7599393
0.06174427,0.6636946,0.7592553
0.06062241,0.6634967,0.7605103
0.06212445,0.6643189,0.7600466
0.06213613,0.6635984,0.7626056
0.0578308,0.6629565,0.7651617
0.05413771,0.6634782,0.7662189
0.05463313,0.6637683,0.7636306
0.05432224,0.6641206,0.7592967
0.05316239,0.6627835,0.7592546
0.05798218,0.6626141,0.7577611
0.06233991,0.6654416,0.7578924
0.06136707,0.6675261,0.7598986
0.06288234,0.6679248,0.7606497
0.06308246,0.6677525,0.7662955
0.06153574,0.6683423,0.767263
0.0621405,0.6681333,0.7611821
0.05700219,0.6676754,0.7587315
0.0521435,0.6686372,0.7592504
0.0539748,0.6687677,0.7601296
0.05397899,0.6696008,0.7577571
0.05266443,0.6698724,0.7559025
0.05521366,0.6687095,0.7582064
0.0583139,0.6688692,0.7603822
0.05696636,0.6678168,0.76329
0.05600043,0.6678354,0.7621319
0.05679239,0.6695206,0.7587761
0.05532437,0.6693488,0.7602254
0.05780974,0.669233,0.7607218
0.06324282,0.667132,0.7608271
0.06555713,0.6632336,0.7607651
0.06472199,0.6624723,0.7591037
0.05893157,0.6663059,0.7607097
0.05248731,0.6714063,0.7617387
0.05073371,0.670816,0.7609568
0.05234831,0.6663649,0.7624396
0.05514769,0.6636325,0.7642434
0.05781427,0.6632055,0.7637149
0.05858515,0.665121,0.7595307
0.05735954,0.667851,0.755369
0.0568574,0.6718947,0.7553647
0.0553013,0.6729595,0.7572035
0.05504767,0.6675943,0.7574055
0.05832742,0.6644512,0.7553825
0.05814149,0.6643212,0.7544935
0.05623954,0.6634583,0.7554954
0.05408812,0.6620185,0.7577959
0.05140031,0.6568219,0.7619466
0.05120847,0.652419,0.7645828
0.04928058,0.6538243,0.768846
0.04805873,0.6551426,0.7755332
0.04883763,0.6536959,0.7740104
0.04840672,0.6539154,0.7665196
0.04886027,0.6547649,0.7610654
0.0480975,0.6544124,0.7569531
0.04675627,0.6579904,0.7573953
0.04611648,0.6623659,0.758685
0.04951522,0.6640267,0.7523942
0.05994246,0.6689061,0.7482785
0.0667524,0.6742771,0.752956
0.06559529,0.674395,0.7586563
0.06229808,0.6730602,0.7623003
0.0601053,0.6744678,0.7618459
0.05768917,0.6743742,0.7600531
0.05298173,0.6699125,0.7617021
0.04938382,0.6638671,0.7624527
0.04817071,0.657324,0.7629513
0.04779421,0.6534344,0.7641312
0.04525126,0.6511146,0.7634691
0.04054006,0.6502425,0.764363
0.03973532,0.6535396,0.7658298
0.04644243,0.6541548,0.7658073
0.05565305,0.6552614,0.7648453
0.05491841,0.6603266,0.7611868
0.05197871,0.662356,0.7594648
0.05600262,0.6653039,0.7637655
0.05504249,0.6693224,0.7693404
0.05569989,0.6701543,0.7701078
0.05855978,0.6692462,0.7657286
0.05493026,0.6680161,0.7626106
0.05523223,0.6686592,0.7621318
0.05501427,0.6696338,0.7623695
0.05227244,0.6714085,0.7625628
0.05307818,0.6722387,0.7603935
0.05248586,0.670658,0.7598962
0.05269549,0.6708063,0.7633648
0.05209793,0.6681767,0.7656773
0.05067085,0.6634609,0.7620531
0.05175702,0.6609232,0.7567328
0.05129403,0.6602338,0.7581412
0.0513123,0.6617173,0.7598277
0.05157506,0.6600909,0.7606677
0.05132473,0.6593124,0.7662147
0.05251503,0.6623235,0.7670246
0.05307455,0.6637399,0.7639288
0.05398772,0.6658877,0.7629922
0.05521724,0.6681069,0.7596072
0.05586474,0.6696505,0.7582934
0.05443225,0.668343,0.7647355
0.0489475,0.6647783,0.7701002
0.04439026,0.6644618,0.766019
0.04645374,0.6603571,0.7607023
0.05218482,0.6563889,0.7613734
0.05561372,0.6597933,0.7629473
0.05851929,0.6608172,0.764277
0.05943334,0.6607511,0.7642169
0.05639012,0.6625587,0.7622928
0.05416934,0.6619565,0.7625602
0.05012655,0.6625136,0.7625577
0.0486053,0.6648837,0.7622479
0.05159783,0.6653824,0.7628503
0.05092501,0.6644346,0.7620562
0.0523364,0.6635559,0.7616583
0.05542163,0.663717,0.7615411
0.0569195,0.6640391,0.7633989
0.05733541,0.663012,0.7665665
0.05447959,0.6630269,0.7644751
0.05734137,0.6643004,0.7606388
0.05943004,0.6641536,0.7602478
0.05455088,0.6645608,0.7625841
0.05340123,0.6658671,0.7624763
0.05257776,0.6662518,0.7553773
0.05273229,0.6667053,0.7511096
0.05500449,0.6668971,0.7549583
0.05505104,0.6663242,0.7585325
0.05579232,0.6657466,0.7587418
0.05538407,0.6651497,0.7580271
0.05472249,0.664507,0.7580415
0.05498362,0.6628318,0.7566876
0.05546052,0.6602711,0.7547676
0.05595745,0.6609757,0.7555619
0.05346307,0.6637452,0.75587
0.05039198,0.6639907,0.7553005
0.04826848,0.663789,0.7559967
0.05058332,0.6627041,0.7570147
0.05473168,0.6601647,0.7573983
0.05248295,0.6597443,0.7568535
0.05200274,0.6615206,0.7580756
0.05408567,0.6639954,0.7607176
0.05381667,0.6636739,0.7611393
0.05526228,0.6625466,0.7597502
0.05423894,0.6643792,0.7590345
0.0523266,0.6645537,0.7602227
0.05360178,0.6647832,0.7608845
0.05431186,0.6654373,0.7610355
0.05596539,0.6616794,0.7624794
0.05581812,0.6598221,0.762561
0.05293634,0.6618843,0.762405
0.05265434,0.6623209,0.7627349
0.05304988,0.6632208,0.7622046
0.05451187,0.6646272,0.7625098
0.05638331,0.6635162,0.7616336
0.05506426,0.6627449,0.7599016
0.05337591,0.6624376,0.7586223
0.05159253,0.6615826,0.7589087
0.05073145,0.6632432,0.7637548
0.0524956,0.6661489,0.7657271
0.05511952,0.6675495,0.7640822
0.05872677,0.6666721,0.7650815
0.05927577,0.6637734,0.7639316
0.0574442,0.6618746,0.7639465
0.05769246,0.6628688,0.7665179
0.05417653,0.6642791,0.7647465
0.04933785,0.6635063,0.7639843
0.05033433,0.6638019,0.7641386
0.05068436,0.6642714,0.7621316
0.04938553,0.6627256,0.761054
0.0517167,0.6644765,0.7570184
0.05457824,0.6668076,0.7532651
0.05602765,0.6668327,0.7540802
0.05601574,0.6668153,0.7554622
0.05495217,0.6657635,0.7594769
0.05609994,0.6640791,0.7640652
0.05726225,0.6608225,0.7630019
0.05661846,0.6601907,0.7604359
0.05505148,0.6620711,0.7612849
0.05180678,0.6613838,0.761063
0.04886078,0.6645556,0.7587558
0.04651242,0.6687624,0.7591437
0.04706452,0.6692608,0.7624846
0.05086728,0.6711542,0.7669547
0.0521439,0.6713192,0.7662721
0.05323775,0.6689583,0.7618058
0.05506901,0.6675117,0.7610708
0.05607541,0.6660966,0.761643
0.05870575,0.6654431,0.7665842
0.05950694,0.6656418,0.7711283
0.05637071,0.6659069,0.7665329
0.05285597,0.6669577,0.7638151
0.05360988,0.6670087,0.7655496
0.05483047,0.6661671,0.7659984
0.05057921,0.6669185,0.7669706
0.04819139,0.6664206,0.7692074
0.0483287,0.664534,0.7681552
0.04658876,0.6637035,0.7603477
0.04563343,0.663658,0.754259
0.0457588,0.6651649,0.7560515
0.04851043,0.6655576,0.7605152
0.05194108,0.6650293,0.7609835
0.05368808,0.6653356,0.7603575
0.05499785,0.6633161,0.7644722
0.05539777,0.6591879,0.7674229
0.05590635,0.6554215,0.7687877
0.05448989,0.6560223,0.7660915
0.05334018,0.6595024,0.7579861
0.05362913,0.6616938,0.7594179
0.05114292,0.664205,0.7640282
0.05029148,0.6631821,0.7634435
0.05098371,0.6606214,0.7650095
0.05126226,0.6617116,0.7653578
0.0519275,0.6627446,0.7662818
0.05077825,0.6643747,0.7650248
0.05000384,0.6652886,0.7604998
0.04735854,0.6675417,0.7621929
0.04445749,0.6721817,0.7606936
0.04732668,0.668493,0.7571719
0.05284076,0.6635453,0.7622524
0.05878398,0.6655099,0.7653054
0.05989117,0.6647382,0.7628213
0.05615428,0.6632341,0.7617334
0.05391182,0.665084,0.7634625
0.04954755,0.6654476,0.7668848
0.04714174,0.664294,0.7713717
0.04799862,0.6633846,0.7721713
0.04501087,0.6629318,0.7636509
0.04626592,0.6624591,0.7575402
0.04987072,0.6622245,0.7631281
0.0496151,0.662903,0.7676436
0.05395425,0.663749,0.764223
0.05712286,0.6657742,0.7607477
0.05515086,0.667346,0.7603628
0.05521418,0.6656645,0.7625101
0.05466319,0.6644943,0.7661339
0.05242263,0.6646414,0.7622443
0.04971306,0.6636479,0.7561374
0.04801183,0.6636472,0.7592637
0.04997496,0.6638511,0.7625882
0.05325779,0.6619531,0.7667943
0.05496685,0.6606994,0.7715389
0.05347525,0.6619295,0.7670833
0.05021242,0.663068,0.7643526
0.04783259,0.6622655,0.7660288
0.04808129,0.6611741,0.7660348
0.04956451,0.6602048,0.7677351
0.04938556,0.6601378,0.7669277
0.05090752,0.664217,0.7621666
0.05228292,0.6690042,0.7578711
0.05104355,0.6710334,0.7555931
0.05231154,0.6750751,0.7546273
0.05370411,0.6782057,0.7538236
0.05428944,0.6759183,0.7552877
0.05617018,0.6750481,0.75721
0.05560846,0.6733487,0.7583781
0.05383672,0.666722,0.7614016
0.05238936,0.6623988,0.7631506
0.051261,0.6571014,0.7616884
0.05391801,0.6519504,0.7592151
0.05630315,0.6561033,0.7549219
0.05288259,0.6592183,0.7499924
0.04977716,0.6586547,0.751348
0.05032799,0.6620002,0.7555537
0.04881112,0.662037,0.7539272
0.04836282,0.6614166,0.7533523
0.053603,0.666254,0.7540468
0.05634421,0.6692569,0.751091
0.05397235,0.671545,0.752044
0.05205585,0.6749645,0.7535341
0.05113944,0.6748079,0.752355
0.05240069,0.6745148,0.7531635
0.05564869,0.6753768,0.7535964
0.05772847,0.6735723,0.7550965
0.05813014,0.6708132,0.7580355
0.05472559,0.6674873,0.7603351
0.05017875,0.6638138,0.7605092
0.0501155,0.6630121,0.7587826
0.05113288,0.6624104,0.7600063
0.05306467,0.6606788,0.7601419
0.05721666,0.6622831,0.7597111
0.05789678,0.6661041,0.7638752
0.05721858,0.668238,0.7654767
0.05617242,0.6683908,0.7619086
0.05086229,0.6674871,0.7589577
0.04840149,0.6662286,0.7628454
0.04913316,0.665438,0.7672522
0.04833188,0.6675995,0.7630541
0.05062781,0.6708929,0.7607956
0.05223932,0.6703431,0.7615328
0.05154084,0.6693932,0.7589541
0.0541824,0.6695536,0.7593905
0.05636752,0.6672311,0.7603698
0.05580543,0.6659418,0.7592963
0.05490895,0.6650547,0.7601591
0.05475723,0.6604742,0.7616494
0.05367975,0.6576618,0.7628635
0.05110386,0.6615161,0.7628219
0.05056444,0.66624,0.7618961
0.0512735,0.6656968,0.7619383
0.05142362,0.6662696,0.7616938
0.04958937,0.6688196,0.761514
0.0476549,0.6675557,0.7613437
0.04907536,0.667854,0.760841
0.05021037,0.6677128,0.762521
0.05260838,0.6658327,0.7644234
0.05525041,0.6679776,0.7633969
0.05315197,0.6675638,0.7604661
0.05207175,0.6632557,0.7586028
0.05343424,0.6603979,0.7598068
0.05461404,0.6626328,0.760011
0.05542483,0.6683279,0.7609722
0.05314343,0.6687436,0.7652862
0.05022049,0.6681287,0.7641679
0.05079648,0.6683576,0.7601282
0.05039375,0.6658496,0.7585078
0.04806485,0.6664588,0.7576014
0.05106757,0.6675845,0.7613609
0.05424347,0.6680131,0.7639425
0.05151227,0.6701722,0.7637917
0.05070455,0.6693173,0.7666191
0.05218289,0.66678,0.7649177
0.05305778,0.664654,0.7624511
0.05448549,0.6631221,0.7628064
0.05356125,0.6635626,0.7598387
0.05204864,0.6624822,0.7594733
0.05288591,0.6604005,0.7603461
0.05341847,0.6618769,0.7613788
0.05425177,0.6633373,0.7654185
0.05533528,0.6623475,0.7652946
0.05138546,0.6632688,0.7632666
0.04664027,0.6642952,0.7616184
0.04916503,0.6628327,0.7594854
0.05342279,0.6623144,0.7591659
0.0557045,0.663605,0.759242
0.05817558,0.6651745,0.7603664
0.05852436,0.6657609,0.7598556
0.05718281,0.6662114,0.7600275
0.05296065,0.6680134,0.7621729
0.04687495,0.6693723,0.7612348
0.04607357,0.6695761,0.7634188
0.04645054,0.6691164,0.7659108
0.04573153,0.6670365,0.7644401
0.05008969,0.6633105,0.7660958
0.0545225,0.660408,0.7671117
0.05443038,0.6598172,0.7646246
0.0530947,0.6590898,0.7630021
0.05253554,0.6588234,0.7630051
0.05395702,0.6613475,0.7615226
0.05546946,0.6636846,0.7566834
0.05571899,0.6658317,0.7528766
0.05580208,0.6708243,0.7536808
0.05627915,0.6766401,0.7558868
0.05714291,0.6796901,0.7548241
0.05618746,0.6784662,0.7551243
0.05494404,0.6764558,0.7598448
0.05534559,0.677649,0.7619318
0.05392083,0.6779532,0.7593221
0.05273544,0.6736047,0.7546739
0.05626883,0.6671746,0.7551231
0.05927881,0.6629578,0.761613
0.05583458,0.6640069,0.7628157
0.05267064,0.6659291,0.7603641
0.05533978,0.6651203,0.7578896
0.05642826,0.6668339,0.7527976
0.05478646,0.6695214,0.7543089
0.05479738,0.6718644,0.7598548
0.05424868,0.676471,0.7571215
0.05467662,0.6749306,0.7531347
0.05625323,0.6714839,0.7496124
0.05529619,0.6737061,0.7445943
0.0543727,0.6715939,0.749252
0.05386946,0.6685756,0.7566035
0.05191069,0.6683575,0.7571805
0.05033789,0.66657,0.7613241
0.05042155,0.6657882,0.7674383
0.05232074,0.6625539,0.7652865
0.05439583,0.6618603,0.7601616
0.05567164,0.6649584,0.7597918
0.05492029,0.6635725,0.7617057
0.05153793,0.6655717,0.7644432
0.05075752,0.6687153,0.7642862
0.05271364,0.6693113,0.7594853
0.05563926,0.6731566,0.7579133
0.05974624,0.6734883,0.7550054
0.05896095,0.6727015,0.7484896
0.0570963,0.6725249,0.7467899
0.05818103,0.668595,0.7461248
0.05372323,0.6681447,0.7468399
0.04842636,0.6688347,0.7505905
0.04888242,0.6691657,0.7524013
0.04894291,0.6715116,0.7561365
0.04854439,0.6691658,0.7605106
0.05108946,0.6668471,0.7615791
0.05490509,0.6687965,0.7619308
0.05710209,0.6700059,0.7574525
0.05634886,0.6710937,0.7518995
0.05499185,0.6706841,0.7539822
0.05568603,0.6673553,0.7553414
0.05750096,0.6638575,0.7538338
0.0605112,0.6613687,0.756984
0.06286702,0.6621631,0.7595338
0.05785103,0.6685052,0.758701
0.05057189,0.6753544,0.7606762
0.05065241,0.6747109,0.7627392
0.05174943,0.6714936,0.7582668
0.04928734,0.6715768,0.7534752
0.04859087,0.6690566,0.7556472
0.051944,0.6681988,0.7582416
0.05743037,0.6708219,0.759927
0.05980904,0.668926,0.7638617
0.05910755,0.6695319,0.7611615
0.06056569,0.673068,0.7513635
0.06168959,0.673585,0.7456145
0.05942639,0.6735733,0.7486985
0.05659832,0.6696153,0.7541013
0.05493085,0.6665315,0.7521878
0.05506723,0.6678284,0.7515061
0.05519938,0.6684455,0.754531
0.0536656,0.6707282,0.7518522
0.05407338,0.6715107,0.7531942
0.05562158,0.6703688,0.7574683
0.05543719,0.6709873,0.7582129
0.05569841,0.6712028,0.7598242
0.05559725,0.6727506,0.759141
0.05531572,0.6749108,0.7605455
0.05584696,0.6741901,0.7601501
0.05555588,0.6713185,0.7546454
0.05625555,0.6700757,0.7522662
0.05668004,0.6711096,0.7498559
0.05622341,0.6709037,0.7557173
0.05798081,0.6706586,0.7640589
0.0589626,0.6709802,0.7600146
0.05810026,0.6707446,0.7586966
0.05822475,0.6706991,0.7596426
0.05835218,0.6701036,0.7578984
0.0573383,0.669699,0.7604491
0.05681251,0.6690666,0.7602448
0.05784849,0.6668816,0.7587945
0.0587066,0.6659242,0.7597869
0.05837281,0.6671732,0.7562985
0.05813217,0.6677377,0.7515081
0.0584538,0.6681155,0.75171
0.05801273,0.6695271,0.7530188
0.05641156,0.6703602,0.7519259
0.05514135,0.671134,0.7530985
0.0552893,0.6710448,0.7576008
0.05575034,0.6703967,0.7607265
0.05456146,0.6713267,0.7618798
0.05370261,0.6717012,0.7609378
0.05471324,0.6715538,0.7590901
0.05595944,0.6690806,0.7571833
0.05704029,0.6656485,0.7535598
0.05548842,0.6691038,0.7529534
0.05345396,0.6720874,0.752976
0.05601965,0.6677401,0.7519586
0.05778517,0.6655561,0.7583172
0.05579859,0.6683734,0.7615767
0.05505747,0.6716896,0.7560044
0.05484346,0.6745753,0.7545436
0.05098766,0.6755967,0.7559064
0.04621355,0.6735589,0.7556224
0.04720228,0.6710986,0.7558173
0.05175204,0.6696551,0.7573025
0.05419546,0.6689698,0.7590154
0.05655546,0.6692538,0.7587815
0.05908487,0.6678156,0.7597316
0.05877276,0.6660137,0.7619394
0.05759949,0.6681008,0.7612715
0.0575478,0.6713695,0.7605885
0.05677148,0.6728421,0.7614567
0.05506687,0.6726093,0.7596829
0.05295888,0.6726624,0.7537322
0.0504692,0.6741118,0.7489719
0.05097481,0.6738112,0.7540075
0.05227479,0.6731371,0.7620899
0.05100615,0.6739545,0.7589316
0.05224689,0.6735587,0.754011
0.05387315,0.6734294,0.7555377
0.05411902,0.6738705,0.7543243
0.05623964,0.6734203,0.7536645
0.05585288,0.6733041,0.7564099
0.05492551,0.671728,0.7568172
0.05601336,0.6694235,0.7570909
0.05543169,0.6701688,0.7589639
0.05560015,0.6722359,0.7602469
0.05650345,0.6720596,0.7598007
0.0555902,0.6693294,0.7585328
0.05280803,0.6674056,0.7554729
0.05061559,0.669117,0.7518944
0.05327577,0.6719898,0.7548617
0.05661164,0.6726406,0.7589056
0.05729641,0.6713999,0.7566635
0.05869423,0.6686141,0.7559894
0.05840653,0.6656055,0.7569208
0.05597555,0.6664152,0.7547116
0.0552769,0.6692942,0.7533296
0.0550899,0.672345,0.7492019
0.05334429,0.6761852,0.7453244
0.04963401,0.6746769,0.754508
0.04808269,0.6710992,0.7630661
0.05334884,0.6724007,0.7561976
0.06011142,0.670883,0.7512
0.06168108,0.6663768,0.7546553
0.05753886,0.6646649,0.7521192
0.05381736,0.6654845,0.7483913
0.05580689,0.6694978,0.7524157
0.05725409,0.6718166,0.756188
0.05628343,0.6708096,0.7610387
0.05642638,0.6704626,0.7667532
0.05526703,0.6700971,0.761568
0.05533008,0.6702564,0.7552842
0.05704391,0.6712208,0.7583916
0.05631861,0.6730449,0.7572004
0.05436509,0.6749906,0.7510474
0.05256308,0.6741844,0.7517777
0.05489325,0.6696679,0.7562421
0.05866821,0.6648257,0.759404
0.05661294,0.6668652,0.7593069
0.05528319,0.6717545,0.7580165
0.05611325,0.6733313,0.7605049
0.0550363,0.673993,0.7602187
0.05533965,0.6714541,0.7586516
0.05402267,0.6689554,0.7605879
0.05179797,0.6705158,0.7594728
0.05292576,0.6737594,0.7581226
0.05305906,0.677806,0.7537715
0.05246795,0.6768676,0.7456929
0.05330115,0.6741919,0.7469506
0.05453853,0.6753445,0.7522839
0.05605542,0.6738511,0.7541126
0.05618169,0.6718985,0.7546368
0.05688904,0.6713275,0.752931
0.05910146,0.6691551,0.7527187
0.05808653,0.6685847,0.7548512
0.05501061,0.6686316,0.7559657
0.0537526,0.6689096,0.7557912
0.05421686,0.6699095,0.7546582
0.05627999,0.6700687,0.752811
0.05752018,0.6711581,0.7496704
0.05684526,0.6733775,0.7482248
0.05685532,0.6757392,0.7490694
0.05720049,0.6744619,0.7483669
0.05779977,0.6715907,0.7484686
0.0586446,0.6728317,0.7490132
0.05855737,0.6712069,0.748927
0.0590848,0.6673554,0.7523691
0.06006268,0.6677946,0.7553431
0.06002795,0.6681479,0.7545024
0.06036305,0.6671345,0.7545297
0.06131762,0.6668421,0.7558638
0.05987064,0.6692577,0.7549583
0.05638103,0.6719817,0.7538861
0.05488376,0.6712044,0.7570437
0.05508726,0.6721248,0.759275
0.05445442,0.6736437,0.757294
0.05391402,0.6692789,0.7558612
0.05624573,0.6647679,0.7550806
0.05914754,0.6670134,0.7560834
0.05955468,0.6698841,0.7607043
0.05926487,0.6687091,0.7620026
0.05792339,0.6684116,0.7567727
0.05786714,0.6684622,0.7541222
0.0591113,0.6665289,0.7559844
0.05730477,0.6659129,0.7558807
0.05543393,0.6670833,0.7563663
0.0527413,0.6676192,0.7583082
0.05070501,0.6697011,0.7573332
0.05204493,0.6735001,0.7520721
0.05128053,0.6716219,0.7470771
0.05238852,0.6680956,0.7508572
0.05544052,0.6681582,0.7561313
0.05577863,0.6664408,0.754787
0.05678065,0.6678877,0.755229
0.05695899,0.6707497,0.7564142
0.05659211,0.667943,0.7549066
0.05536228,0.6665776,0.7562009
0.05324778,0.6671756,0.7587501
0.05410955,0.6681479,0.7607721
0.05339847,0.6702598,0.7613367
0.05089271,0.6697347,0.7599327
0.0492953,0.6698478,0.7620891
0.04716008,0.6714852,0.7636151
0.04702581,0.6708448,0.761901
0.04887901,0.6699691,0.7644516
0.05154227,0.6684398,0.7689358
0.05364074,0.6663012,0.7694917
0.05292276,0.6689272,0.7596041
0.05229056,0.6724435,0.7463236
0.05323215,0.6705429,0.7489066
0.05391553,0.6692178,0.7549661
0.0550801,0.6697168,0.7534285
0.05615585,0.6685066,0.7567976
0.05522011,0.6690957,0.7591812
0.05408648,0.6693944,0.7590554
0.05244652,0.6680312,0.7610408
0.05049458,0.6680498,0.7589963
0.05232253,0.6651228,0.7594095
0.05629643,0.6621297,0.761075
0.05923955,0.6644052,0.7604958
0.05909327,0.6644862,0.7635559
0.05696765,0.6629719,0.7625065
0.05615969,0.6648171,0.7596715
0.05167474,0.6660418,0.760304
0.04708034,0.6687345,0.7601382
0.04887222,0.671649,0.7625852
0.04919319,0.670536,0.762426
0.0492933,0.6707753,0.7580159
0.05320913,0.6711506,0.7556693
0.05681421,0.6704176,0.7553675
0.05938451,0.6708102,0.7556807
0.05828793,0.6689173,0.7492676
0.05607452,0.6674149,0.7431347
0.0573682,0.6679101,0.7480689
0.05860784,0.6673007,0.7538611
0.05829061,0.6663856,0.756541
0.05579715,0.6666017,0.7572173
0.05235946,0.6679148,0.7562341
0.05161368,0.6681927,0.7577367
0.05302157,0.6685454,0.7588795
0.05444061,0.670839,0.7593886
0.05491239,0.6721475,0.7572304
0.05584954,0.6691282,0.7486144
0.0558978,0.6647352,0.744778
0.05498845,0.6657211,0.7529391
0.05591147,0.6670594,0.7628334
0.05559208,0.6664063,0.7630265
0.05520953,0.6699173,0.7560627
0.05563163,0.6717148,0.7526977
0.05293155,0.6705784,0.7541212
0.0496088,0.6708941,0.7559205
0.04811067,0.6707165,0.7568676
0.05019596,0.6709644,0.7587492
0.05299052,0.6708211,0.7607161
0.05284544,0.6706705,0.7586156
0.05439113,0.6711081,0.7548996
0.05541574,0.6705772,0.7519454
0.05570941,0.6713111,0.7516549
0.05805005,0.6725006,0.753077
0.05727841,0.6730639,0.7512411
0.05762824,0.6716957,0.7534931
0.05947937,0.6679345,0.7574575
0.0567536,0.6662376,0.7550502
0.05569384,0.6673514,0.7551305
0.05407237,0.6694515,0.7562391
0.05028449,0.6690129,0.7550312
0.05384938,0.667219,0.755783
0.0568267,0.6690242,0.7552306
0.0523976,0.6718064,0.7535861
0.05073172,0.6739824,0.7531685
0.05425994,0.6724253,0.756135
0.05726959,0.6683416,0.7606519
0.05840745,0.6694128,0.7589624
0.06066467,0.6700296,0.7550433
0.0606189,0.6689606,0.7536515
0.05502823,0.6707669,0.7523716
0.05217403,0.6710213,0.7536573
0.05354087,0.6705609,0.7558528
0.05342691,0.6698873,0.7553721
0.05176159,0.6680782,0.7544443
0.0512473,0.6678778,0.7532731
0.05483096,0.6682312,0.7538636
0.05928913,0.6688344,0.7582469
0.06026269,0.6690181,0.7607827
0.05849463,0.6688389,0.7586999
0.05586953,0.6704587,0.7562506
0.05519201,0.6710532,0.7551299
0.05558746,0.6688937,0.7537857
0.05558063,0.6676954,0.753923
0.05475096,0.6698473,0.7561653
0.05092599,0.6720697,0.7580957
0.04736324,0.6725482,0.7597507
0.04862635,0.6738187,0.7592903
0.05254872,0.6741299,0.7577558
0.05523818,0.6727515,0.7570825
0.05731888,0.6719342,0.7554138
0.0595734,0.6705214,0.758682
0.06125569,0.6702881,0.7625045
0.06144524,0.6718162,0.7571897
0.05824892,0.6724132,0.753962
0.05709988,0.6730214,0.7571949
0.05839018,0.6692646,0.7593582
0.05633514,0.6623902,0.7603885
0.05658714,0.6643078,0.761551
0.05769976,0.6696934,0.762737
0.05632136,0.6700265,0.7615249
0.05700353,0.6708181,0.7575639
0.05618882,0.6714046,0.7525331
0.05511182,0.6703703,0.7487488
0.05670584,0.6709102,0.7516546
0.05737093,0.6710484,0.7562676
0.0578874,0.6705598,0.7556562
0.05847166,0.6709847,0.7559448
0.05792799,0.6703214,0.7596749
0.05557105,0.6680121,0.7628208
0.0532581,0.6660066,0.7625737
0.05457075,0.6666111,0.7583087
0.05732154,0.669071,0.7558339
0.05886095,0.6697669,0.7577144
0.05918324,0.669067,0.7608129
0.06055461,0.6676739,0.7634472
0.06240666,0.6668872,0.7628639
0.0572649,0.6710696,0.7617753
0.04983869,0.6753407,0.7625478
0.05070751,0.6734897,0.7607566
0.05323514,0.67071,0.7588839
0.05447607,0.6696041,0.759799
0.05894826,0.667257,0.7600001
0.05942485,0.6659605,0.7600214
0.0562524,0.6674361,0.7629847
0.05435656,0.6694237,0.7669492
0.05008854,0.6714695,0.7660286
0.04935432,0.6713301,0.7605182
0.05150275,0.6700844,0.7572591
0.05091303,0.6711961,0.7568975
0.05604092,0.6709758,0.7567684
0.06059101,0.6702261,0.7580383
0.05776515,0.670536,0.758415
0.05772904,0.6702165,0.7562811
0.05803835,0.6727338,0.7551077
0.05647096,0.6741654,0.7557361
0.05785111,0.6705642,0.7577999
0.05866935,0.6682844,0.7597469
0.05736211,0.6685404,0.7599745
0.05650039,0.6687279,0.7595337
0.05645696,0.670557,0.7583027
0.05428913,0.6738909,0.7564098
0.05083391,0.6732976,0.7549293
0.05145833,0.6702468,0.7559104
0.05477076,0.6707606,0.7587665
0.05688872,0.6711489,0.7597938
0.05654929,0.6702903,0.7582964
0.05496813,0.6702173,0.7558478
0.05540445,0.6690658,0.7563262
0.05636309,0.6690837,0.7587728
0.05701845,0.6687779,0.7597954
0.05873217,0.6665654,0.7601969
0.05731382,0.6667579,0.7573686
0.05367625,0.6686319,0.7531524
0.05401375,0.669919,0.7525021
0.05605266,0.6696913,0.7555977
0.05577053,0.6688149,0.7577083
0.05426352,0.6691474,0.7560841
0.05406837,0.6696386,0.75865
0.05543856,0.6717315,0.7598205
0.05643514,0.6750855,0.7562233
0.05643368,0.6764716,0.7573866
0.05528497,0.6749931,0.7550171
0.05499632,0.6714904,0.7522339
0.05517355,0.6704043,0.7529757
0.05363546,0.6695981,0.7499739
0.0530842,0.66688,0.7510778
0.05020947,0.6680763,0.7495447
0.04561109,0.6692711,0.7460591
0.04790895,0.6699878,0.7530535
0.05111181,0.6732764,0.7593956
0.05050523,0.6716665,0.7603664
0.05160321,0.6696109,0.7577289
0.05236411,0.6710969,0.7544357
0.05367784,0.6688793,0.7540722
0.05774597,0.6662822,0.7532165
0.05849807,0.6661779,0.7578093
0.05760827,0.6651609,0.7632742
0.05779283,0.6642705,0.7602909
0.05472282,0.6655955,0.7584214
0.05048487,0.6676575,0.760326
0.04757624,0.6680128,0.7593775
0.04712298,0.6673292,0.7565224
0.0488724,0.6663411,0.7544051
0.0486114,0.6669101,0.7523453
0.05010822,0.6696541,0.752839
0.05429482,0.6704841,0.7564528
0.05621944,0.6687054,0.7573325
0.05608696,0.6654549,0.7563563
0.0548826,0.6629665,0.7573417
0.05547057,0.6636839,0.7582659
0.05480821,0.6643464,0.7594421
0.0512327,0.6646032,0.7621299
0.05030173,0.6682417,0.7633694
0.04989039,0.6723801,0.7633901
0.05071813,0.6713037,0.7622926
0.0521638,0.6696968,0.758813
0.05099099,0.6716998,0.7579954
0.05160884,0.6717968,0.7561797
0.052472,0.6708624,0.7500501
0.05328923,0.6675816,0.7507051
0.05585866,0.6617084,0.7548497
0.05735022,0.6633104,0.7548225
0.05743229,0.6654938,0.7562622
0.05643847,0.6627639,0.7577054
0.05678274,0.6640318,0.7580116
0.05647731,0.6648248,0.7581829
0.05421101,0.6652678,0.7566801
0.05309732,0.6695115,0.7594426
0.05079486,0.670118,0.7626774
0.05048811,0.6689741,0.7605316
0.05148016,0.6696468,0.7600884
0.04993589,0.6695663,0.7609837
0.05334977,0.6697967,0.7618389
0.05734318,0.6684704,0.7625193
0.05501294,0.6658768,0.7578232
0.05318205,0.6662361,0.7511742
0.05276653,0.6674831,0.7492766
0.05240126,0.6673429,0.7535965
0.05323756,0.6688075,0.7577378
0.05368361,0.6721333,0.7571422
0.05422657,0.6742294,0.7581727
0.05431664,0.6741404,0.7592679
0.05296977,0.6726829,0.7577969
0.05291047,0.6716505,0.7593102
0.05463914,0.669869,0.7603992
0.05641349,0.6682385,0.7593074
0.05762128,0.6691139,0.7598432
0.05841001,0.6679283,0.7598065
0.05838988,0.6675302,0.7595364
0.05628429,0.6697915,0.7597385
0.05416688,0.6692625,0.7586952
0.05213589,0.6698257,0.7575636
0.04900321,0.6714861,0.755421
0.0496301,0.6723155,0.752555
0.05270596,0.6721532,0.7521955
0.05564559,0.6680208,0.7528215
0.05970854,0.6657031,0.7510232
0.05943053,0.6666194,0.7491678
0.05842339,0.6669022,0.7504094
0.06060984,0.6672701,0.7524835
0.05797229,0.6690246,0.7547795
0.05612173,0.6719391,0.7564585
0.0578151,0.671481,0.7553894
0.05512105,0.6717442,0.7553947
0.05328839,0.6752091,0.756689
0.0530385,0.6757684,0.7559148
0.05289621,0.6777145,0.7544862
0.05516169,0.6784171,0.7530305
0.05410841,0.673373,0.7514944
0.05426106,0.671176,0.7519065
0.05852063,0.6699836,0.7547716
0.05939409,0.6676631,0.7556909
0.05578148,0.6713513,0.7553951
0.05157148,0.6751227,0.7580158
0.05576848,0.6717295,0.7571056
0.06105037,0.670018,0.7550511
0.05720159,0.6740303,0.757059
0.05589482,0.675835,0.755528
0.05608029,0.6739872,0.7533644
0.0549096,0.673044,0.7533896
0.05801949,0.6737231,0.7556178
0.05832303,0.6740119,0.7602597
0.05538329,0.6749547,0.7577378
0.05355546,0.6789578,0.7535701
0.05396776,0.680577,0.752854
0.05730359,0.6743451,0.7510658
0.05981934,0.6683639,0.749953
0.06152833,0.6700961,0.7465748
0.05964703,0.6705284,0.7487181
0.05592218,0.6665304,0.7567428
0.05709372,0.6678048,0.7575449
0.05690597,0.6690238,0.7580021
0.05465489,0.6661416,0.7623468
0.05407957,0.6669268,0.7659668
0.05351559,0.6693728,0.7634975
0.05369554,0.6759195,0.7566245
0.05303502,0.6830882,0.7563469
0.05497518,0.6775809,0.7532142
0.05864224,0.6702573,0.7473924
0.05771569,0.6706388,0.7507916
0.05799073,0.6708918,0.7525743
0.05907868,0.6707657,0.7525457
0.05691286,0.6710109,0.7551962
0.05395914,0.6706232,0.7570742
0.05026135,0.6709544,0.7595713
0.05051745,0.6708555,0.7585482
0.05267787,0.671061,0.7579671
0.05079808,0.6727706,0.7595111
0.05200146,0.6731722,0.7582138
0.05658575,0.6693569,0.7618151
0.05904439,0.6653235,0.7639734
0.05912015,0.668013,0.7543363
0.05675935,0.6712017,0.7460214
0.054841,0.6688819,0.7486444
0.05268276,0.6689942,0.7547485
0.05331322,0.6702362,0.7562011
0.05724954,0.6688618,0.7555984
0.05451509,0.6697676,0.7555693
0.05282953,0.6705734,0.7559469
0.0549937,0.6710561,0.7595148
0.05180592,0.6730842,0.7618958
0.05129949,0.6737803,0.7600477
0.05438222,0.6742369,0.7573031
0.05612414,0.6752207,0.7558997
0.05654858,0.6766056,0.7555176
0.05642851,0.6757175,0.7537671
0.0592929,0.672015,0.7546518
0.05846312,0.6709949,0.7562027
0.05508216,0.6705961,0.7533525
0.05411775,0.6694466,0.7514374
0.05155713,0.6685554,0.7500079
0.05179166,0.6664812,0.7501694
0.05227675,0.6670341,0.7552275
0.0523934,0.669599,0.7571999
0.05627843,0.6713601,0.7552708
0.05579423,0.6714142,0.7579465
0.05392299,0.6704282,0.7600872
0.05450205,0.6728941,0.7531693
0.05394467,0.6739247,0.7473881
0.05524778,0.6703777,0.7490381
0.05595401,0.6680007,0.7511426
0.05532625,0.6681932,0.7568081
0.05570329,0.6690893,0.7651468
0.0547292,0.6670327,0.762918
0.05203367,0.6656721,0.7573685
0.04930954,0.6675265,0.7600458
0.05122702,0.6677781,0.7586074
0.05396747,0.6701969,0.7574033
0.05065883,0.6733541,0.7630084
0.04910354,0.6711086,0.7597175
0.05139377,0.6659012,0.7568208
0.05217462,0.6630701,0.7594785
0.05400571,0.6682186,0.7558227
0.05633705,0.6732243,0.7547908
0.05587593,0.6699852,0.7563067
0.05429606,0.6673168,0.7560404
0.05217578,0.6668898,0.7557143
0.04911637,0.667243,0.7479998
0.04921122,0.6705951,0.7412972
0.05108141,0.6713673,0.7485654
0.0495799,0.6695087,0.7565314
0.04981873,0.6694983,0.7522528
0.0521613,0.6702556,0.7498388
0.05391069,0.6710183,0.7541186
0.05756343,0.6697413,0.752588
0.0577531,0.6669971,0.7509754
0.05693796,0.6659566,0.7533544
0.05885431,0.6648122,0.7549359
0.05616153,0.6636849,0.7564468
0.05259108,0.6651001,0.7571614
0.05164568,0.6686544,0.7588337
0.05080103,0.6714514,0.7576928
0.05068937,0.6719076,0.7522112
0.0497562,0.6722814,0.7496546
0.0500926,0.6722409,0.7527593
0.05218375,0.6711091,0.7576925
0.05342582,0.6706696,0.7557803
0.05481544,0.6705603,0.7542297
0.05580219,0.6698877,0.7578383
0.05580918,0.6682697,0.7567026
0.05534961,0.6675664,0.7570167
0.05547602,0.6683025,0.7594039
0.05582397,0.6680641,0.7588039
0.05477807,0.6682756,0.7568643
0.05294127,0.6701681,0.752583
0.0512333,0.6721787,0.7532702
0.0535173,0.6727335,0.7538158
0.1473459,0.7410793,0.6895942
0.1526231,0.7334958,0.6952374
0.1433132,0.7266077,0.6959581
0.1305264,0.7215837,0.6999036
0.1148155,0.7116158,0.7013504
0.09469845,0.7051656,0.7031176
0.09224204,0.7063488,0.7095089
0.1052072,0.7046479,0.7060632
0.1112448,0.7074149,0.69985
0.1197103,0.7173746,0.6966348
0.1314586,0.7234253,0.6903277
0.139009,0.7296376,0.6852131
0.1451325,0.7370207,0.6807713
0.1428994,0.7389859,0.6810004
0.1427942,0.7401094,0.6825107
0.1459389,0.7414902,0.6785224
0.1392823,0.7372563,0.6770321
0.1320681,0.7283523,0.67597
0.1207296,0.7243917,0.6805312
0.106885,0.7285891,0.6920812
0.1035778,0.730975,0.6933451
0.1101554,0.7310784,0.6920825
0.1224808,0.7332051,0.692397
0.1263257,0.7319282,0.6827559
0.1295173,0.7291985,0.6728557
0.1394893,0.7297372,0.6724662
0.1421653,0.7320627,0.67734
0.1476149,0.7371358,0.6786611
0.1514698,0.7434866,0.6762515
0.1473731,0.7467031,0.6759831
0.1488115,0.7440851,0.674548
0.1474634,0.7379031,0.673034
0.1445547,0.7362469,0.6739877
0.1419139,0.7371733,0.6759911
0.1333108,0.7358292,0.6797122
0.132768,0.7370741,0.6814064
0.1345224,0.7398985,0.6809078
0.1281223,0.7433956,0.6820208
0.1253844,0.7473285,0.684017
0.1242674,0.7438533,0.6837191
0.1226257,0.7327382,0.6834881
0.1253115,0.7221458,0.6882431
0.1266378,0.7213906,0.6917087
0.1288746,0.7258443,0.6903801
0.1346892,0.724667,0.6897393
0.1370602,0.7276846,0.6904728
0.1354618,0.7351527,0.6901509
0.1338303,0.7362074,0.6877807
0.1348154,0.737337,0.6851605
0.13473,0.7391027,0.6819441
0.1308534,0.739393,0.6766827
0.1274036,0.74031,0.6721462
0.1253419,0.7390753,0.672242
0.1261079,0.7393314,0.67311
0.1262872,0.7394035,0.6688865
0.1246898,0.7378206,0.6699644
0.1287447,0.7383709,0.6797734
0.1320878,0.7363688,0.6880191
0.1303607,0.735265,0.6910551
0.1300125,0.7357143,0.6869201
0.1299102,0.7304602,0.6844847
0.1289328,0.7264461,0.6856016
0.1288879,0.729714,0.6831191
0.1292947,0.7347244,0.6823003
0.1282419,0.7351954,0.6794651
0.1272645,0.7333847,0.6782979
0.1283537,0.7333038,0.6810679
0.1295616,0.733132,0.676612
0.1313493,0.733482,0.6751829
0.1327133,0.7330754,0.6773864
0.1332995,0.7312346,0.6758075
0.13388,0.7308918,0.6766012
0.1324082,0.7338921,0.6771801
0.1305951,0.7412864,0.6796828
0.1289167,0.7450317,0.6834069
0.1294813,0.743227,0.6823881
0.1324157,0.745266,0.682571
0.1307886,0.7483063,0.6835081
0.1280427,0.7463658,0.6830135
0.1276624,0.7439098,0.6863567
0.1273875,0.7438091,0.6886616
0.1276572,0.7407151,0.6827653
0.1246679,0.7354805,0.6775351
0.1207137,0.7345636,0.6776301
0.1223767,0.7349379,0.6780486
0.132149,0.734695,0.680944
0.1471766,0.7360788,0.6835045
0.1543443,0.7390471,0.6817458
0.1541767,0.7439844,0.677218
0.155153,0.7474058,0.673967
0.1496818,0.7463954,0.6785216
0.1396266,0.7438612,0.6827239
0.1341917,0.7417221,0.6810815
0.1287068,0.7399064,0.6816851
0.1214432,0.7383965,0.6836701
0.1125866,0.7320831,0.6885289
0.09973946,0.71625,0.6999072
0.09524008,0.6985705,0.7091811
0.1020942,0.69242,0.71745
0.1025642,0.6990433,0.7297931
0.1024714,0.7007844,0.7277642
0.1163934,0.6906837,0.7122707
0.1327231,0.6858517,0.7055542
0.1377301,0.692543,0.7006915
0.1332087,0.7014581,0.6973427
0.1311139,0.7088624,0.6969168
0.1318308,0.7234581,0.6895962
0.1318725,0.7457816,0.6893216
0.1355008,0.7563076,0.6916316
0.131393,0.7545451,0.688285
0.1235975,0.7549989,0.6873682
0.1250254,0.755208,0.6816819
0.1242078,0.7529113,0.6756973
0.1242157,0.7528766,0.6668348
0.1305531,0.7533133,0.6571735
0.1360325,0.7487897,0.6653771
0.1378897,0.7442807,0.672962
0.1349618,0.7426504,0.6742966
0.1300112,0.7351719,0.6878923
0.1229301,0.7253404,0.7020036
0.1238821,0.7191351,0.7038594
0.1325611,0.7102973,0.7013935
0.1327906,0.7018325,0.7021084
0.1331809,0.7028531,0.7003916
0.1322223,0.7087259,0.6970842
0.127654,0.7142593,0.6980176
0.1300545,0.7212504,0.6972108
0.1309404,0.7260793,0.6970542
0.1346897,0.7281841,0.6992513
0.139917,0.7308575,0.6981881
0.1365837,0.734361,0.695566
0.1347212,0.7367054,0.6920313
0.1314033,0.7373676,0.6882346
0.1255213,0.7410767,0.6832112
0.1245927,0.742974,0.6794261
0.1270067,0.7423354,0.6823208
0.1306294,0.7428782,0.6862301
0.1309987,0.736284,0.6881568
0.1300775,0.7305283,0.6887913
0.1303814,0.7308499,0.6902444
0.1312387,0.7283051,0.6944967
0.1336381,0.7259639,0.6935453
0.1335792,0.7244433,0.6907854
0.1324059,0.7237046,0.6924671
0.1313543,0.7238753,0.6924203
0.1304863,0.7235585,0.6925983
0.1352006,0.725644,0.6919893
0.1382741,0.7274778,0.688132
0.1320435,0.7290926,0.6858626
0.1268569,0.731384,0.6831524
0.1297801,0.7319496,0.6851202
0.1338843,0.7326742,0.6915545
0.1349874,0.7336092,0.6906105
0.1351757,0.7324093,0.6894063
0.1344348,0.7305514,0.6912747
0.1345024,0.7315104,0.6908925
0.1350454,0.733262,0.692855
0.1330803,0.7326357,0.6932054
0.1313177,0.7289583,0.6894859
0.1307277,0.7247935,0.6861806
0.1328013,0.7261737,0.6830834
0.1356562,0.7285602,0.6812789
0.132018,0.728212,0.6801028
0.1289936,0.7297731,0.68131
0.1309772,0.7301966,0.6870557
0.1310055,0.729151,0.6931615
0.1309028,0.7283755,0.6961283
0.1315005,0.726204,0.6950411
0.1304056,0.726469,0.6948723
0.1301543,0.7285418,0.6967809
0.1309136,0.7293981,0.697496
0.1301663,0.7297285,0.6988811
0.1285347,0.7300145,0.6961421
0.1282331,0.732656,0.6857934
0.1309836,0.7342936,0.6756643
0.134615,0.7329216,0.6760499
0.1328594,0.732942,0.6869018
0.1305251,0.7315955,0.6925741
0.1324578,0.7288735,0.6886005
0.1310193,0.7288563,0.6859818
0.1286096,0.7293919,0.687706
0.1285024,0.7291665,0.6882425
0.1272776,0.7290511,0.6872462
0.1277549,0.7292538,0.6904216
0.1281152,0.7288252,0.6912503
0.1277563,0.727275,0.6832727
0.1298065,0.7259733,0.6768415
0.1310503,0.7260889,0.6800902
0.1304872,0.7275235,0.6870887
0.129423,0.7298291,0.6883397
0.1287539,0.7333764,0.6874576
0.1283479,0.7353883,0.6858928
0.1271125,0.7358351,0.6818548
0.1259243,0.7367291,0.6830932
0.1250076,0.7347077,0.6844391
0.1264199,0.7328138,0.6834381
0.1288031,0.73191,0.6848128
0.1274325,0.7295185,0.6816446
0.125459,0.7305822,0.6762516
0.1252893,0.730972,0.6742136
0.1265915,0.7289797,0.6767399
0.1293231,0.7294959,0.6860018
0.1284522,0.7298946,0.692725
0.1251176,0.7308043,0.688196
0.1251858,0.731277,0.6834383
0.1277163,0.7317705,0.6870588
0.1296849,0.7346273,0.6878587
0.1277462,0.7349263,0.685531
0.1250658,0.7342171,0.6840553
0.126638,0.7335636,0.678868
0.1272287,0.7330182,0.680475
0.1275511,0.7365417,0.6868957
0.1295549,0.7379086,0.6874222
0.126673,0.7344058,0.6872747
0.1235402,0.7315716,0.6855229
0.1255435,0.7308375,0.6855287
0.1272665,0.7298241,0.6874296
0.1276804,0.7268447,0.6862895
0.1270705,0.7271537,0.6890428
0.1249325,0.7288628,0.6904565
0.1244261,0.7281949,0.6882202
0.1244422,0.7330968,0.6866472
0.123198,0.7377327,0.6835836
0.1241774,0.7323917,0.686296
0.1277173,0.7249029,0.6920303
0.1308855,0.7225904,0.6943002
0.1311446,0.7260875,0.692977
0.1284981,0.7311278,0.6838432
0.1253604,0.7329817,0.6770078
0.1200144,0.7332473,0.6788231
0.1164496,0.7349876,0.6811288
0.1206373,0.7370053,0.6845783
0.1247901,0.7356415,0.6905826
0.1255982,0.7328778,0.6919874
0.1272417,0.7312492,0.6889795
0.1292293,0.7296976,0.6899708
0.1315131,0.7296077,0.6893754
0.1320386,0.7316307,0.6858888
0.129686,0.7334787,0.6873726
0.1266673,0.7303179,0.6852922
0.1246936,0.7259209,0.6820825
0.1256949,0.7287222,0.6863618
0.1288639,0.7301145,0.6915969
0.1325452,0.726289,0.6955341
0.1340857,0.7249992,0.6968072
0.13453,0.7239008,0.696622
0.1362806,0.7237086,0.6958988
0.1328965,0.7265899,0.6922356
0.1285726,0.7284275,0.6903804
0.1309977,0.7285118,0.6886195
0.1321233,0.7291717,0.6863308
0.1314925,0.7319806,0.6868766
0.1322242,0.7318431,0.6834164
0.1308752,0.7291151,0.6800841
0.129976,0.7288566,0.6875081
0.1300101,0.726661,0.6946673
0.1297514,0.7253872,0.6900506
0.1307244,0.726932,0.6839057
0.1312275,0.7253229,0.6818436
0.1329109,0.7246637,0.6759017
0.1384417,0.7261807,0.6683849
0.1394665,0.7288624,0.6677739
0.1277132,0.7381561,0.6747272
0.1154085,0.7479478,0.6825867
0.1154463,0.7468083,0.6906415
0.1158862,0.7418954,0.7044721
0.115378,0.7374286,0.7098489
0.125793,0.7222784,0.7027589
0.1327988,0.7102056,0.7021168
0.1301694,0.7116827,0.7003635
0.1255269,0.7108216,0.6948605
0.1155215,0.7131685,0.6960744
0.1132994,0.7195924,0.692635
0.1204977,0.723543,0.687949
0.1241526,0.7289931,0.6881781
0.1310637,0.7263605,0.6889277
0.1365528,0.7244974,0.6945122
0.1347653,0.7276009,0.6947507
0.1292546,0.7245475,0.6898979
0.1218682,0.7266527,0.6913688
0.121273,0.7285194,0.6908202
0.1204658,0.7269203,0.6896384
0.1183965,0.7306211,0.6922189
0.1255195,0.730747,0.6920599
0.1286236,0.7303713,0.6898276
0.1261438,0.7311394,0.6882879
0.1282144,0.7315618,0.6872028
0.1287725,0.7363351,0.6870824
0.130151,0.7386374,0.686552
0.1351553,0.7381041,0.6800907
0.1364018,0.7369052,0.6728018
0.1356259,0.7345436,0.6736477
0.1349328,0.7337255,0.6754422
0.1309788,0.7337281,0.6767305
0.1256144,0.7333526,0.6862194
0.1218066,0.7284051,0.6968996
0.1198613,0.7227033,0.6958144
0.1199226,0.7231293,0.6914253
0.1228413,0.7237789,0.6936492
0.126483,0.7216721,0.6930972
0.1263006,0.7208782,0.6903615
0.1258505,0.72471,0.6905405
0.1281732,0.730183,0.690102
0.1286159,0.7328597,0.6922628
0.128262,0.7354146,0.691793
0.1279813,0.7374255,0.6815618
0.1269843,0.7376761,0.6714624
0.1272889,0.7391053,0.6721426
0.1261952,0.7391663,0.6779316
0.125838,0.7363065,0.6781076
0.127103,0.7342629,0.6795155
0.1263428,0.7318818,0.6836976
0.1281191,0.7293974,0.6855398
0.1297438,0.7296581,0.6888966
0.1271234,0.7298519,0.6868374
0.1262898,0.7313861,0.6844507
0.1289875,0.7341269,0.6874365
0.1318867,0.7318156,0.6856123
0.1316246,0.7292343,0.6866918
0.1314308,0.7308529,0.6913815
0.1321558,0.7316682,0.692296
0.1287142,0.7336135,0.6875732
0.1259144,0.7371121,0.6788163
0.1267995,0.7348061,0.6823402
0.1291139,0.7315264,0.6912279
0.1315223,0.7325442,0.6920855
0.1303342,0.7303233,0.6922653
0.1276659,0.7283573,0.6905806
0.1248027,0.7323126,0.6888183
0.1217574,0.7343773,0.6874616
0.1228079,0.7331937,0.6861248
0.1243965,0.7330691,0.6873714
0.1233922,0.7335101,0.6838122
0.1236299,0.7333873,0.6818668
0.1251053,0.7329751,0.6834401
0.1270885,0.7325822,0.681894
0.1293373,0.7316627,0.6854289
0.1295214,0.7313633,0.6891267
0.1286864,0.7305333,0.6873334
0.1283713,0.7280342,0.6870868
0.1275695,0.7271565,0.6873952
0.1270067,0.7268005,0.685796
0.1254154,0.7280634,0.6843066
0.1226437,0.7328857,0.6864196
0.1234083,0.7343554,0.688019
0.1254843,0.7326987,0.6845703
0.1262229,0.7319191,0.6833649
0.1294075,0.7291242,0.6886543
0.1305741,0.7265576,0.6916335
0.1250094,0.7268382,0.6813062
0.1208539,0.7271374,0.6714511
0.1250611,0.728638,0.6803815
0.1310409,0.7313795,0.6891856
0.1310426,0.7301277,0.6854915
0.1300729,0.7283335,0.6853021
0.1309044,0.7315513,0.6872467
0.1300017,0.7335107,0.6853788
0.128786,0.7321471,0.6862038
0.1277446,0.7309548,0.68651
0.1290939,0.7305482,0.6851884
0.1317635,0.7335401,0.6847536
0.1300723,0.736504,0.6826584
0.1282495,0.7352518,0.6834891
0.127644,0.7331501,0.6858723
0.1263388,0.7320746,0.6829538
0.1267265,0.7318863,0.6778465
0.1271637,0.7325727,0.6768259
0.1277484,0.7355504,0.6812426
0.1273073,0.7379818,0.6829033
0.1252365,0.7341742,0.6804817
0.1243866,0.730518,0.6813162
0.1216018,0.7336931,0.6849913
0.1201642,0.7347348,0.6888773
0.1247437,0.7270819,0.6881923
0.1295183,0.7209284,0.6861605
0.1319206,0.7224622,0.6877673
0.1325126,0.7231774,0.6847147
0.1326387,0.7215661,0.6809595
0.1310307,0.7244467,0.6831756
0.1259169,0.7311678,0.6873639
0.1245142,0.7376315,0.6911227
0.1260016,0.7400233,0.6874456
0.1264422,0.7382594,0.6820526
0.129353,0.7387451,0.6841996
0.1288356,0.7391977,0.6861284
0.1225179,0.7364121,0.6934364
0.1169055,0.7346385,0.7070149
0.1155733,0.7285532,0.7080788
0.1191159,0.7174438,0.7047978
0.1192622,0.7102285,0.7078192
0.113491,0.7063853,0.7032382
0.1097295,0.7004314,0.6955193
0.1118903,0.6952342,0.6928386
0.1193447,0.6999221,0.6887182
0.1240392,0.7083077,0.6843328
0.122761,0.7119122,0.6827739
0.1223089,0.7208456,0.6887095
0.1240647,0.7420539,0.697188
0.1250447,0.7600771,0.6974193
0.1273375,0.7533265,0.6932879
0.1314949,0.739615,0.6854359
0.127823,0.7354584,0.6791704
0.1209823,0.7270035,0.680582
0.1194007,0.7330413,0.6841236
0.1145525,0.7469371,0.6937098
0.1179692,0.739589,0.7036271
0.1351854,0.7300874,0.7007946
0.1423034,0.7196398,0.6947143
0.1329858,0.7149586,0.691721
0.1234887,0.7231355,0.6826623
0.1268457,0.7187742,0.6734166
0.1278941,0.7187073,0.6732387
0.1200854,0.7253336,0.6793124
0.122025,0.7268513,0.6916287
0.1222344,0.7363804,0.6984361
0.1193967,0.7347933,0.6970962
0.1242112,0.7288375,0.6962426
0.1218509,0.731308,0.6885572
0.1205434,0.7231773,0.6841411
0.1240733,0.7181689,0.6834718
0.1237884,0.7218808,0.6784176
0.1260638,0.7278074,0.6816351
0.1249714,0.7368354,0.6859786
0.1244968,0.736276,0.6926237
0.1281052,0.7352031,0.7031179
0.1283867,0.7393174,0.701848
0.1295108,0.7349799,0.6959257
0.1265505,0.7287089,0.6877531
0.1206798,0.7253852,0.6803844
0.1187317,0.7242003,0.6837785
0.1189082,0.7270269,0.689656
0.1212883,0.7297991,0.6930468
0.1210146,0.736442,0.6957556
0.1213076,0.7411056,0.6972681
0.1231832,0.7359212,0.6975944
0.1216989,0.7299185,0.6990585
0.1224711,0.723519,0.6991957
0.1233865,0.724952,0.692084
0.1234335,0.7329943,0.6828748
0.1241672,0.7300876,0.6804911
0.1236441,0.7293938,0.6841954
0.1264511,0.7312963,0.6886894
0.1288042,0.7278499,0.6957156
0.1275042,0.7314316,0.6992137
0.1264891,0.7326692,0.6954035
0.1252962,0.7293428,0.695491
0.1247451,0.7290109,0.6934957
0.125298,0.7278718,0.6895228
0.126927,0.7289299,0.6910167
0.1283142,0.7293019,0.6903049
0.1280129,0.7289935,0.6928091
0.1282985,0.7301054,0.6960153
0.1285972,0.7309734,0.6936531
0.1277011,0.7327258,0.6932209
0.127365,0.7301387,0.6908334
0.1277324,0.7283126,0.6873915
0.1260391,0.7287002,0.686362
0.1241419,0.7240017,0.6859922
0.1258318,0.7217909,0.6881863
0.1288388,0.7232382,0.6902867
0.1306373,0.7268125,0.6930617
0.1275849,0.7326305,0.6952422
0.1233829,0.7328081,0.6921108
0.1267436,0.730763,0.6874043
0.129378,0.7304539,0.6846876
0.1266958,0.7282077,0.684933
0.1258773,0.7260171,0.6867443
0.1251191,0.7249525,0.6865886
0.1259464,0.7255197,0.686744
0.1310349,0.7281934,0.6902612
0.1336958,0.7290807,0.693195
0.1319487,0.7287728,0.6946091
0.1277317,0.7286804,0.6949248
0.1236778,0.727629,0.6909296
0.1220598,0.7293611,0.6853382
0.1213597,0.7314596,0.6813813
0.1247286,0.7292479,0.6844583
0.1297807,0.7277265,0.6922568
0.1281085,0.7277662,0.6918341
0.1263306,0.7276366,0.691275
0.1270813,0.7286737,0.693601
0.1224465,0.7312468,0.6898517
0.1196665,0.7345882,0.6894139
0.1239329,0.7347607,0.6892272
0.1261527,0.7336673,0.6825504
0.1250594,0.7332081,0.6796682
0.1256871,0.7295188,0.6839361
0.1278375,0.7283838,0.6917199
0.1281985,0.7318509,0.6947695
0.1274166,0.733257,0.6918959
0.1275744,0.733556,0.6891039
0.1260393,0.7334081,0.6857358
0.1242785,0.7328525,0.6858799
0.1249923,0.732386,0.6895267
0.1250887,0.7295765,0.6901054
0.1237662,0.727716,0.6869182
0.1224264,0.729151,0.6836147
0.1224789,0.7320869,0.6865406
0.1254743,0.7340125,0.690697
0.1299663,0.7315801,0.6893949
0.1312895,0.7292888,0.6885061
0.12826,0.7300891,0.6884373
0.1260865,0.7300658,0.6859958
0.1262909,0.7303772,0.682756
0.1264606,0.7308551,0.6808276
0.1264117,0.7292099,0.6818364
0.1263293,0.7279281,0.6872576
0.1264217,0.7278505,0.6959979
0.1265866,0.728696,0.6988142
0.127224,0.7305309,0.6952086
0.1279371,0.7308768,0.6926287
0.12695,0.7301675,0.6876344
0.1259112,0.7293865,0.6858163
0.1267719,0.7271018,0.6898256
0.1281999,0.7257009,0.6881666
0.1286413,0.7273347,0.684782
0.127403,0.7311017,0.6837063
0.1255432,0.7345062,0.6860303
0.1249345,0.7335207,0.692152
0.1259123,0.7304427,0.6917794
0.1276925,0.7295072,0.6915229
0.1278627,0.7287533,0.6940485
0.1251768,0.7278705,0.6896144
0.1218032,0.7272027,0.6870534
0.1204824,0.7266411,0.6885369
0.1234084,0.7284717,0.68897
0.1263887,0.7300454,0.6892891
0.1252415,0.730785,0.6882712
0.1262112,0.7329386,0.688834
0.1292554,0.7329738,0.6903345
0.1295384,0.7307262,0.6900168
0.1305901,0.7280686,0.6874554
0.1312355,0.7267563,0.6862986
0.1290841,0.7268042,0.6904202
0.1261831,0.7258953,0.6907762
0.1225543,0.7276335,0.6883712
0.1226609,0.729401,0.688454
0.125097,0.7288162,0.68709
0.1241555,0.7297913,0.6893067
0.1259502,0.7302117,0.6913992
0.1286795,0.7324244,0.689552
0.1283155,0.7344606,0.6895302
0.1303843,0.7324794,0.6879517
0.1297071,0.7315278,0.6855823
0.1256031,0.7297403,0.6853766
0.1245113,0.7273424,0.6878614
0.1247112,0.726078,0.6906395
0.1254335,0.7248001,0.6897871
0.1247506,0.7254979,0.6904889
0.12376,0.7261301,0.690665
0.124031,0.7281872,0.6896988
0.1240179,0.7304807,0.6916543
0.1255512,0.7300095,0.6910001
0.1254136,0.732438,0.6905621
0.1252567,0.7343984,0.6905751
0.1265232,0.7329598,0.686294
0.1226777,0.7332321,0.6835683
0.1199519,0.7326641,0.6844679
0.1235339,0.7287152,0.6861342
0.126311,0.7250766,0.6879936
0.1250518,0.7262105,0.6912597
0.1238962,0.7292169,0.6921955
0.1238305,0.7291802,0.6904265
0.1219337,0.7292003,0.6912565
0.1234373,0.7291428,0.6893079
0.126485,0.7277707,0.687866
0.1246169,0.7269102,0.6907773
0.124601,0.7259084,0.6901611
0.1256214,0.7263564,0.6901643
0.1243626,0.7271266,0.6906632
0.1240873,0.7277633,0.6897346
0.1227212,0.7299277,0.6905715
0.1226852,0.7294261,0.68918
0.1251099,0.7285168,0.6888485
0.1256941,0.7298336,0.6909345
0.1265772,0.7299382,0.6914547
0.1283508,0.7306514,0.6894152
0.1280438,0.7309563,0.6864839
0.1264311,0.7304603,0.6895154
0.1235054,0.7321943,0.6934881
0.1208474,0.7319891,0.6930142
0.1262712,0.7289155,0.693175
0.1335529,0.7270726,0.6931741
0.129667,0.7252114,0.6936559
0.1258623,0.7231188,0.6938968
0.1269347,0.725332,0.6915565
0.1232623,0.7295028,0.6903389
0.1223089,0.7295207,0.6902135
0.122929,0.7289967,0.6901822
0.1196268,0.7303186,0.6904158
0.121399,0.7304847,0.689657
0.1252006,0.7298183,0.6874314
0.1269138,0.7284057,0.6844376
0.1280656,0.7272071,0.6842518
0.1272656,0.7262817,0.6861817
0.1276495,0.725823,0.6862534
0.1262797,0.7270749,0.6858252
0.1238617,0.7272323,0.6851425
0.1253061,0.7280488,0.6836329
0.1252341,0.730155,0.6840864
0.1246012,0.7307403,0.6865342
0.125336,0.7316322,0.6888482
0.1248141,0.7311569,0.6891572
0.1250329,0.7301561,0.6871774
0.1250827,0.7312382,0.6879022
0.1248554,0.7331544,0.6934851
0.1251509,0.7354158,0.6970128
0.1248889,0.7338216,0.6940033
0.125044,0.7305076,0.6895382
0.125026,0.7304237,0.688113
0.1249232,0.7308376,0.687362
0.1245599,0.7322175,0.6870377
0.1222404,0.7330941,0.6879673
0.1200558,0.7314819,0.6881226
0.1210526,0.7305604,0.6907945
0.1240974,0.72989,0.6938443
0.1255663,0.7294268,0.6890856
0.1251481,0.7299162,0.6823967
0.1247506,0.7292568,0.680369
0.1248247,0.7291848,0.6805156
0.124309,0.7321744,0.6830575
0.1229566,0.7336901,0.6870892
0.1231942,0.7306433,0.6896577
0.1247887,0.7280485,0.6882418
0.1258847,0.7290239,0.6819399
0.1254021,0.7298128,0.6773555
0.1242146,0.728933,0.6797253
0.1253032,0.7303522,0.6847644
0.1253312,0.7329977,0.6886054
0.1243735,0.7332292,0.6917119
0.1256711,0.7313839,0.6936731
0.1259597,0.7279955,0.6930815
0.1272941,0.7268128,0.6904338
0.1286036,0.7271792,0.6873185
0.1272797,0.7249305,0.6828883
0.1278536,0.7236268,0.6780543
0.1276411,0.7246946,0.6781503
0.1254764,0.7289618,0.6845014
0.1240371,0.7346771,0.6904528
0.1236761,0.7339791,0.6896892
0.1248694,0.7310733,0.6874442
0.1242901,0.7313182,0.6885685
0.1238697,0.7300245,0.6875016
0.1250145,0.7283109,0.6861612
0.125062,0.7278108,0.6861684
0.1266667,0.7274518,0.6852395
0.126663,0.728809,0.6897167
0.1242526,0.7286883,0.6932136
0.1247987,0.7268108,0.6906978
0.1255959,0.726459,0.691264
0.1256773,0.7265628,0.6891699
0.1264687,0.7287982,0.6841184
0.1257022,0.7302521,0.6844451
0.1244653,0.7281638,0.6849555
0.1251422,0.7273597,0.6844326
0.1267567,0.7260931,0.6839365
0.1290618,0.724806,0.682902
0.1315412,0.7257792,0.6833942
0.1302792,0.7266388,0.6837998
0.126941,0.7291622,0.6853538
0.1252168,0.7300275,0.6885319
0.1243479,0.7285999,0.6895849
0.125204,0.7303148,0.688916
0.1253222,0.7308516,0.6891793
0.124476,0.7286307,0.6890563
0.1255526,0.7255055,0.6869454
0.126022,0.7224982,0.6869841
0.1273142,0.7251779,0.6900127
0.1285234,0.730563,0.6960734
0.1273723,0.732805,0.702937
0.127972,0.7320308,0.6974741
0.1288965,0.7294721,0.6889648
0.1291471,0.7288197,0.6930924
0.1289685,0.7292878,0.691897
0.1261746,0.7290521,0.6852056
0.124259,0.7293313,0.6882655
0.1248349,0.7290458,0.6903576
0.125364,0.7293293,0.6912089
0.1249128,0.7300387,0.6930144
0.1247846,0.7298946,0.689576
0.1256574,0.7300679,0.6888442
0.1266192,0.730994,0.6888447
0.1282706,0.7335779,0.687775
0.1282109,0.7347154,0.6901355
0.1271056,0.7308927,0.6895853
0.1281505,0.7260296,0.6899195
0.1278441,0.7252796,0.6909509
0.1274238,0.7262659,0.687437
0.1274582,0.724936,0.6863032
0.1239634,0.7263214,0.6860068
0.1215047,0.7290578,0.6853801
0.1241021,0.7276833,0.6849295
0.1279274,0.7283013,0.6823353
0.1286825,0.7304859,0.6840855
0.1294647,0.7316018,0.6877951
0.1332861,0.7326271,0.6877455
0.1348076,0.7266869,0.6861164
0.1332055,0.7196498,0.685709
0.1303281,0.7245754,0.6871352
0.1270425,0.7326958,0.6855315
0.1253118,0.7340057,0.684099
0.1199512,0.7347822,0.6828308
0.112622,0.739736,0.6800637
0.1137078,0.746517,0.6884419
0.1201425,0.745674,0.701263
0.124413,0.732942,0.7048102
0.1256854,0.7207366,0.7029792
0.1215144,0.7169106,0.7010424
0.1130396,0.719667,0.7001417
0.10822,0.7204862,0.6944241
0.1125131,0.7162331,0.6907705
0.1208052,0.7167544,0.6941827
0.1228618,0.7186614,0.6939792
0.1216715,0.7215409,0.6968783
0.1217259,0.7279226,0.70211
0.1207723,0.7293452,0.7001783
0.1234607,0.7299263,0.7000568
0.1262967,0.7269627,0.7012049
0.1245779,0.7211491,0.6947995
0.1231534,0.7240661,0.6847207
0.1198116,0.7264579,0.6823732
0.1158911,0.7259334,0.6900808
0.1167126,0.7264926,0.6957195
0.1199293,0.7226722,0.6940597
0.1211606,0.7177186,0.6932961
0.1187298,0.715613,0.6945521
0.1154949,0.7170533,0.6936318
0.115132,0.720398,0.6977862
0.1184099,0.7234675,0.7025795
0.1220044,0.7271939,0.6938963
0.1246888,0.7286815,0.6850673
0.1267005,0.7291997,0.6877339
0.1237632,0.7331433,0.6912406
0.1189524,0.736844,0.6913147
0.1195707,0.7364469,0.6890859
0.1235797,0.734408,0.6855924
0.1258819,0.7337458,0.6854189
0.1253175,0.7328521,0.686884
0.1242479,0.7310469,0.6860086
0.1241067,0.7297033,0.6878291
0.122528,0.7295688,0.6936329
0.1205423,0.7320861,0.6964338
0.1209102,0.7335359,0.692848
0.1212282,0.7328238,0.6881867
0.1224203,0.7326221,0.6892842
0.124448,0.7306613,0.6871159
0.1235896,0.7299776,0.6809367
0.1234353,0.7317499,0.6844678
0.124841,0.7338841,0.6889258
0.1251052,0.7372199,0.6904101
0.1249445,0.736508,0.6934379
0.1239599,0.7341579,0.6871395
0.1233638,0.7350776,0.6804063
0.1236091,0.7346429,0.6844483
0.1236579,0.7343101,0.6861621
0.1238186,0.7342161,0.6838149
0.1244133,0.7327409,0.6854754
0.1255305,0.7335161,0.6887689
0.1261691,0.7345412,0.690867
0.1271008,0.7346617,0.6907529
0.127653,0.7348377,0.6886526
0.1266764,0.7336091,0.6880179
0.1270471,0.7330546,0.685315
0.1274185,0.7332361,0.6800421
0.1263764,0.7324155,0.6811042
0.1256373,0.7315432,0.6874264
0.1245437,0.731242,0.6912249
0.1248239,0.7322974,0.6874532
0.1254982,0.7337124,0.6820713
0.1245986,0.7330913,0.6840586
0.1250825,0.7301611,0.6836845
0.125216,0.72729,0.6792814
0.1246552,0.7265134,0.6800581
0.1252823,0.7265743,0.6833668
0.1250775,0.7275159,0.687441
0.1258002,0.7302804,0.6874702
0.1268753,0.7329887,0.6862386
0.1260931,0.7338476,0.6896377
0.1250722,0.7332663,0.6857382
0.1230272,0.7331543,0.6817775
0.1222288,0.7329632,0.6885894
0.1258268,0.730609,0.6919845
0.1291408,0.7282965,0.6897725
0.128008,0.7294563,0.6876423
0.1265832,0.7327862,0.6854109
0.1265405,0.7356231,0.6845573
0.1244796,0.7363577,0.6869521
0.1243672,0.7333287,0.692181
0.1258889,0.73073,0.6940534
0.1245308,0.7320649,0.6929213
0.1250669,0.7320281,0.6937808
0.1263728,0.7297281,0.6975277
0.1261475,0.7287939,0.7003144
0.1264342,0.7290154,0.69407
0.1244036,0.729418,0.6873666
0.1229234,0.7296406,0.6898628
0.1237655,0.7317024,0.6893207
0.1236542,0.7343652,0.6832408
0.124317,0.7331562,0.6831261
0.1271426,0.7309259,0.6875641
0.1297324,0.7304297,0.6877576
0.1266348,0.7306675,0.6794606
0.1214152,0.7325302,0.6706929
0.1224496,0.7339398,0.6765082
0.1255791,0.7333193,0.6850895
0.1277157,0.7331324,0.6829897
0.128568,0.7338189,0.6847573
0.1267032,0.7351227,0.6878268
0.125097,0.7365909,0.6886151
0.1231734,0.7361947,0.6944357
0.1230178,0.734806,0.6934864
0.1254064,0.7344326,0.6894065
0.1249498,0.733851,0.6891132
0.1246125,0.7330174,0.6854517
0.1243379,0.7333098,0.6829331
0.1220265,0.7334751,0.6800701
0.1224256,0.733228,0.6799656
0.1243406,0.7333668,0.6866073
0.1262725,0.7333452,0.6883365
0.1270732,0.7331317,0.6874517
0.1257219,0.7324574,0.6875527
0.1255795,0.7314827,0.6870923
0.1249564,0.7309532,0.6880501
0.1245483,0.7308374,0.6861104
0.12549,0.7321428,0.6820287
0.1242425,0.7340405,0.6788913
0.1222271,0.7335582,0.682597
0.1206537,0.7327842,0.6902002
0.1221817,0.7336745,0.6886865
0.1258537,0.7333638,0.6886304
0.1251629,0.7330526,0.6915476
0.1244505,0.7331093,0.6862483
0.1258759,0.7304817,0.6824094
0.1266932,0.7286823,0.6824594
0.1293813,0.7309783,0.6859128
0.1307598,0.7337996,0.6903485
0.1302452,0.7336631,0.6853479
0.1294425,0.7328601,0.6811602
0.1233066,0.7336115,0.6840539
0.1181911,0.7333419,0.684516
0.1242143,0.7331144,0.68405
0.1306684,0.7336126,0.6860969
0.126805,0.7331325,0.6881038
0.1247637,0.7333822,0.6878881
0.1285787,0.7325395,0.6864549
0.1274887,0.7286851,0.6849604
0.1249337,0.7257404,0.6829038
0.1229869,0.7287813,0.6837764
0.1217702,0.7343889,0.6868714
0.1253849,0.7346591,0.6871015
0.1249809,0.734432,0.6873772
0.1228313,0.7359565,0.6878663
0.1245232,0.7344934,0.6861224
0.1233486,0.7346958,0.685781
0.1242251,0.7365823,0.6853564
0.1260032,0.7363761,0.6842415
0.1245694,0.7357013,0.6846855
0.1260389,0.7354814,0.6838627
0.126685,0.7363313,0.6829668
0.1252288,0.7370329,0.6831665
0.1250679,0.7369347,0.6825171
0.1256526,0.7356046,0.682401
0.126956,0.7315506,0.6854793
0.1260468,0.7277846,0.6901583
0.1242333,0.7289079,0.6914317
0.1234702,0.7321313,0.6922479
0.1233383,0.7319266,0.6933041
0.1251151,0.7318411,0.6891906
0.1264687,0.7318014,0.6855554
0.1282573,0.7290921,0.6843949
0.1296692,0.7289296,0.6802646
0.1268376,0.7300707,0.6779025
0.1238375,0.7304515,0.6808922
0.123148,0.7313946,0.6840089
0.1239671,0.7325595,0.685056
0.1256872,0.7341075,0.6850817
0.126303,0.7340135,0.6843529
0.1249075,0.731587,0.6839955
0.1229261,0.7280812,0.6814834
0.1246546,0.7294738,0.6784117
0.1277453,0.7333454,0.6828482
0.127893,0.732671,0.6881712
0.127004,0.7352303,0.6858135
0.123252,0.7370742,0.6828089
0.1202103,0.7333524,0.6836529
0.1254044,0.7321407,0.686642
0.1317289,0.7317634,0.6900229
0.1308379,0.7328139,0.6910505
0.1276712,0.7340063,0.690024
0.1259026,0.7327388,0.6895195
0.1215519,0.7327889,0.6874131
0.1179467,0.7325813,0.6827669
0.1193564,0.7335199,0.6825614
0.1200831,0.7349643,0.6859444
0.1195899,0.7351459,0.6862786
0.122277,0.7356612,0.6874622
0.1255558,0.733203,0.6892528
0.1254107,0.7307606,0.6848029
0.1244896,0.7309232,0.6795037
0.1250606,0.7325015,0.6823817
0.12416,0.7368491,0.6907584
0.1231284,0.7376759,0.6940576
0.1240763,0.7326401,0.6867967
0.1254812,0.7294785,0.6808737
0.1268405,0.7319843,0.6861351
0.1266407,0.7351702,0.6891163
0.1252614,0.7348445,0.6837722
0.1230156,0.7360398,0.6813405
0.1203462,0.7367643,0.6818827
0.1228824,0.7334472,0.6810104
0.1264715,0.7329685,0.6805334
0.1230628,0.733575,0.6812786
0.1211873,0.7330544,0.682424
0.1246845,0.7336563,0.6822032
0.1255716,0.7331085,0.6835447
0.1248436,0.732979,0.6894615
0.1253337,0.7308788,0.6942008
0.1267528,0.7252054,0.6924076
0.127914,0.7235761,0.6859695
0.1251847,0.7296179,0.6813304
0.12241,0.7361838,0.6805808
0.1234039,0.7349584,0.678266
0.12362,0.7352638,0.675523
0.1233518,0.7403422,0.6792229
0.1254374,0.7385885,0.6841214
0.1255047,0.7360765,0.6838194
0.122951,0.7354472,0.6853212
0.1218381,0.7327489,0.6896986
0.1204557,0.7334433,0.6915424
0.1201126,0.7335722,0.6930217
0.1207008,0.7328431,0.6941592
0.1189559,0.7338553,0.6912131
0.1204568,0.7330089,0.6864325
0.1235751,0.7328106,0.6863852
0.1236514,0.7302003,0.6858281
0.1240515,0.724391,0.679207
0.124493,0.723779,0.6805359
0.1262358,0.7299089,0.6906571
0.1280107,0.7358864,0.6941517
0.1275706,0.7348363,0.6925184
0.1279937,0.7343474,0.6922859
0.1277422,0.7375778,0.6893822
0.1275809,0.7357317,0.6833056
0.1273866,0.7343118,0.6822096
0.1237435,0.7344893,0.6837124
0.1203583,0.7327266,0.6817092
0.1205598,0.7356217,0.681861
0.123322,0.7389228,0.6852985
0.125079,0.7386313,0.6884764
0.1245203,0.7366587,0.691113
0.1224772,0.7313036,0.6914768
0.1210433,0.7270211,0.6870531
0.1268418,0.7247448,0.6821678
0.133227,0.7232038,0.6836537
0.1310831,0.7256724,0.6851506
0.1311937,0.7290785,0.6834823
0.1357228,0.7302459,0.6847815
0.1351307,0.7320017,0.6855405
0.1338926,0.7360016,0.6845033
0.1353194,0.7382748,0.6838687
0.133892,0.7382592,0.680354
0.1306861,0.7408214,0.6757446
0.127266,0.7444112,0.6730977
0.1249417,0.7461777,0.6751674
0.125473,0.7437226,0.6842061
0.1257826,0.7365375,0.6900648
0.1274333,0.7307063,0.686653
0.1286524,0.726617,0.6820475
0.1280249,0.7236193,0.6805163
0.1324189,0.7237966,0.6836375
0.1356168,0.7265449,0.6871614
0.1312234,0.7342033,0.68274
0.1269403,0.7427618,0.6784118
0.1263238,0.7443374,0.6809083
0.125214,0.7417107,0.6813033
0.1240789,0.740828,0.6797066
0.1270967,0.741021,0.6816565
0.1295898,0.738744,0.6842679
0.1306323,0.7364509,0.6865912
0.1315061,0.736357,0.6858958
0.1296669,0.7375713,0.6825032
0.1301512,0.7393775,0.6833218
0.1284904,0.7364334,0.6841871
0.1259127,0.7298604,0.6846554
0.1330104,0.7254754,0.6880236
0.1375769,0.7239117,0.6878609
0.1317506,0.7251167,0.6866197
0.1266617,0.7245191,0.6855774
0.1282078,0.7230836,0.6812929
0.1285102,0.7260476,0.6795502
0.1246718,0.7292477,0.681642
0.124982,0.7317181,0.685814
0.1257602,0.7347423,0.691319
0.1278413,0.7368955,0.6924754
0.1342503,0.7381307,0.6875617
0.1354664,0.7372873,0.681899
0.1333286,0.7354035,0.6796547
0.1311259,0.7316925,0.6820326
0.1296611,0.7278989,0.6874175
0.1298312,0.7305993,0.6898526
0.1278954,0.7332057,0.6880726
0.127372,0.72949,0.6868303
0.1280143,0.7273204,0.6878586
0.1276526,0.7279504,0.6896981
0.1279017,0.7276567,0.6899329
0.1278186,0.7285373,0.6871295
0.1287632,0.7314154,0.6815776
0.1296322,0.7342782,0.6793226
0.1303926,0.7339161,0.6828947
0.1326058,0.7325861,0.6837753
0.1339023,0.7346349,0.6812448
0.1331249,0.7352437,0.6809015
0.1307752,0.7342453,0.6848271
0.1282785,0.734488,0.6893406
0.1256831,0.7314276,0.6870319
0.1233277,0.7265742,0.6828196
0.1225436,0.7237155,0.6820476
0.1252281,0.723107,0.6831376
0.1302107,0.724773,0.6864674
0.1316626,0.7287581,0.6889508
0.1331933,0.7353946,0.6922291
0.1349337,0.7380652,0.6937057
0.1331428,0.7364199,0.6868955
0.1350041,0.7384566,0.6827496
0.1356644,0.7394858,0.6848168
0.1334955,0.7361947,0.6842508
0.135451,0.7338106,0.682782
0.1333321,0.7328413,0.68318
0.1262486,0.7332327,0.6844259
0.1181023,0.7337175,0.6867413
0.1128597,0.7330427,0.6896342
0.1153562,0.7333685,0.688778
0.1191808,0.733507,0.685551
0.1264375,0.7325614,0.6852187
0.1334565,0.7308172,0.6830354
0.1351975,0.7279657,0.6816132
0.139733,0.7269615,0.6819424
0.1364119,0.72698,0.6778491
0.1287273,0.7278748,0.6795304
0.1294988,0.732033,0.6860053
0.1256936,0.7337643,0.6880345
0.1221721,0.7320365,0.6883977
0.1245648,0.7288456,0.6867128
0.1223997,0.7231456,0.6875334
0.1188985,0.7223519,0.6894599
0.1158406,0.724231,0.6899718
0.1159698,0.7205335,0.6961604
0.1201422,0.7180012,0.7007883
0.1216129,0.7187773,0.7002109
0.1243586,0.7219956,0.7001508
0.1262039,0.7308978,0.6998625
0.1242655,0.7352677,0.6963729
0.1271016,0.7281059,0.6899953
0.1351102,0.7221752,0.6837897
0.1410323,0.7236216,0.6728336
0.1327625,0.7251445,0.6663571
0.1197104,0.7288725,0.6690965
0.1219238,0.7356247,0.6669706
0.1210344,0.7397987,0.6746915
0.1128931,0.7532189,0.693648
0.1161439,0.7696982,0.7038543
0.1237957,0.7554256,0.7040678
0.1314449,0.7284752,0.700067
0.1309207,0.7240651,0.7004514
0.123261,0.7176179,0.6872034
0.1256256,0.7024947,0.6685666
0.1256918,0.7057299,0.6768352
0.1246063,0.7180202,0.6827008
0.1295516,0.7264717,0.6839313
0.1289585,0.7346819,0.7009526
0.1304036,0.7424185,0.7090434
0.127853,0.7453325,0.7048892
0.1183048,0.7400407,0.6957161
0.1154572,0.7346633,0.6831733
0.1147705,0.7286901,0.6788478
0.1180121,0.7215959,0.67864
0.1229522,0.7231899,0.6790233
0.1260533,0.7288826,0.6897657
0.1323835,0.737908,0.7012263
0.1356152,0.7463719,0.6997455
0.1342387,0.7443899,0.6983843
0.1304963,0.7369637,0.695673
0.1297012,0.7258394,0.6885028
0.1308211,0.7199433,0.6875934
0.12538,0.7221592,0.6806712
0.1196336,0.7221539,0.6779652
0.1160896,0.7270181,0.6888639
0.1149616,0.7333305,0.6953443
0.1147903,0.734676,0.703119
0.1152959,0.7331173,0.7035646
0.1234783,0.7248975,0.6965488
0.1267196,0.7216116,0.6961522
0.1223877,0.7234706,0.6845694
0.122522,0.7217241,0.6761718
0.1262938,0.7240453,0.683496
0.132857,0.7316322,0.6855205
0.1347522,0.7416594,0.6871881
0.1320308,0.747079,0.6894419
0.130676,0.7475591,0.6882562
0.1274821,0.7458206,0.6881826
0.1263868,0.7356374,0.686176
0.1246674,0.7281304,0.6856617
0.1199549,0.7232268,0.6866171
0.1201288,0.7168485,0.6868327
0.1220284,0.7223007,0.6885755
0.1225009,0.7261467,0.6916625
0.1248254,0.7233419,0.6961032
0.1262525,0.7264302,0.6960961
0.1258507,0.7274596,0.6924056
0.1274145,0.7275747,0.6932776
0.1286699,0.730027,0.6932774
0.1280631,0.7299853,0.6885405
0.1265347,0.7323336,0.6862647
0.1248261,0.7360495,0.6857606
0.1256722,0.7351748,0.6843112
0.1251916,0.7337406,0.684918
0.1264269,0.7348806,0.6878099
0.1311923,0.7324104,0.693315
0.130603,0.7272293,0.6974993
0.1290508,0.7260051,0.694274
0.1248073,0.7279318,0.6887087
0.1188019,0.7303617,0.6866604
0.1233118,0.7303626,0.6879321
0.1267262,0.7309469,0.6915597
0.1225813,0.7330506,0.6940331
0.1214761,0.7313946,0.6930566
0.1239722,0.7305454,0.6907614
0.1273205,0.7298553,0.6871848
0.1311765,0.7271456,0.6844014
0.1340086,0.7269746,0.6895225
0.1334296,0.7260204,0.6958137
0.1322123,0.7251345,0.6927502
0.1298216,0.7254635,0.6898377
0.1244644,0.7260919,0.6909652
0.1231708,0.7307227,0.6899121
0.1242847,0.7341083,0.6909415
0.1241589,0.7331164,0.6916148
0.1255233,0.7313291,0.6894308
0.1261393,0.7299934,0.69019
0.1260711,0.7303428,0.6897271
0.1258523,0.7297488,0.6883511
0.1246964,0.7274365,0.6903729
0.1257291,0.7256846,0.6920334
0.1270908,0.7249276,0.6917899
0.1258242,0.7266409,0.689678
0.1244376,0.7287993,0.6887608
0.1233468,0.7283868,0.6898986
0.1235432,0.7275354,0.6911533
0.1258813,0.7279097,0.6939056
0.1267892,0.728549,0.6926204
0.1263956,0.72891,0.686832
0.1263266,0.729206,0.6845714
0.1263184,0.7302166,0.6858216
0.1265457,0.7312814,0.6869559
0.1260992,0.7321889,0.6860232
0.1256553,0.7338678,0.6869013
0.1255812,0.733661,0.6902803
0.1254799,0.732575,0.6904675
0.1251755,0.7326204,0.6902493
0.124375,0.7305966,0.6904052
0.1248344,0.7292146,0.6899586
0.1258555,0.7300184,0.6906451
0.1263045,0.7297166,0.6891784
0.1253208,0.7291235,0.6857465
0.1239525,0.7285515,0.6822665
0.1258998,0.7280387,0.6822406
0.1271027,0.7288472,0.6837719
0.1275152,0.7321225,0.6814253
0.1285389,0.7346167,0.6836505
0.1263886,0.7330612,0.687751
0.1269527,0.7329333,0.6859323
0.1285941,0.7337061,0.6860854
0.1276544,0.7324217,0.6878759
0.1297684,0.7340908,0.6874841
0.1307699,0.7383289,0.6846218
0.1287595,0.7407814,0.68019
0.1276964,0.7365331,0.6802279
0.1301055,0.7260012,0.6846923
0.1332993,0.7189164,0.6887014
0.1309173,0.717472,0.6911858
0.1296084,0.717061,0.6925191
0.1308406,0.7184634,0.6901001
0.1285551,0.7236276,0.688304
0.1266258,0.7288003,0.6895302
0.1247153,0.731511,0.6870901
0.1212299,0.7326275,0.687193
0.1207972,0.730822,0.6865414
0.12555,0.7304362,0.6820492
0.1294989,0.7342486,0.6848408
0.1281697,0.7380213,0.6838161
0.1291497,0.7396253,0.6817275
0.1334768,0.7368308,0.6863147
0.1336254,0.7331926,0.6856563
0.1305847,0.7302484,0.6865411
0.1274063,0.72532,0.6881242
0.1253071,0.7244337,0.6888893
0.1254249,0.7249342,0.6922994
0.1252461,0.7227139,0.6902969
0.1245002,0.723767,0.694177
0.125603,0.7252376,0.6995976
0.1272815,0.725777,0.6941311
0.1297562,0.7281109,0.6908196
0.131634,0.7290889,0.6899257
0.1302361,0.7300643,0.689485
0.1302352,0.7309784,0.6892166
0.1309098,0.7290671,0.6864264
0.1294436,0.7270272,0.687421
0.1298998,0.7259611,0.6886582
0.1308642,0.7261652,0.6903128
0.1306002,0.726829,0.6963382
0.1303215,0.7263067,0.6981078
0.1295824,0.7272433,0.6941818
0.1294054,0.7282925,0.6910041
0.1309217,0.727435,0.6886768
0.1335667,0.7266604,0.6857724
0.1331448,0.7253226,0.6877967
0.1292271,0.7250721,0.6922872
0.1267579,0.7278387,0.6900417
0.1268606,0.7300506,0.6886575
0.1288677,0.729013,0.6909662
0.1312365,0.7268221,0.6889566
0.1323945,0.7265084,0.6859909
0.1312568,0.7285862,0.6827959
0.129692,0.7321321,0.6804604
0.1304992,0.7326768,0.6855768
0.1290066,0.7295306,0.6911605
0.127284,0.7291775,0.6896526
0.1310304,0.729707,0.6892627
0.1349504,0.7285972,0.6932622
0.1362014,0.7289912,0.6927484
0.1356156,0.727599,0.6908411
0.1331776,0.7263472,0.6904095
0.130017,0.7309492,0.6859304
0.1283647,0.734663,0.6852445
0.1301803,0.7315862,0.6868562
0.133835,0.7282094,0.6845636
0.1376049,0.7292261,0.684713
0.1378772,0.7295776,0.6851008
0.1350789,0.7285001,0.686665
0.1344534,0.7285632,0.6905853
0.1345811,0.7275098,0.6923907
0.1348414,0.7274372,0.6936693
0.1348725,0.7279387,0.6923502
0.1343744,0.7254766,0.6890943
0.1346878,0.7237684,0.6868468
0.1326436,0.7245858,0.6873208
0.1303661,0.7270732,0.6905539
0.1303718,0.7286659,0.6893148
0.1305525,0.7273327,0.6850374
0.1312803,0.7266999,0.6819862
0.1330516,0.7264309,0.6802737
0.135568,0.7263994,0.68409
0.1346605,0.7290163,0.6913461
0.1311693,0.732313,0.695348
0.1302655,0.733343,0.6948073
0.1302608,0.7289889,0.6923919
0.1307784,0.724783,0.6879824
0.1307181,0.7281022,0.6847127
0.130133,0.7306847,0.6863551
0.1309418,0.7284373,0.6846761
0.1304246,0.7281808,0.6820725
0.1305726,0.7287577,0.6848375
0.1317843,0.7280616,0.6845442
0.1318867,0.7278865,0.6817083
0.1322328,0.7277152,0.6809269
0.1315795,0.729219,0.6856747
0.1309695,0.7323639,0.6959403
0.1305716,0.7337709,0.6984172
0.1306635,0.7323684,0.6922173
0.1336351,0.7294094,0.6885609
0.1354441,0.7286504,0.6900991
0.1348314,0.7290638,0.6914869
0.1344508,0.7272786,0.6904281
0.1345536,0.7266036,0.6915912
0.133179,0.7304705,0.6894739
0.1283232,0.736938,0.6820849
0.125555,0.7378952,0.6792517
0.1293986,0.7313145,0.6812275
0.1350884,0.7263689,0.6863562
0.1373505,0.7263403,0.69247
0.1371619,0.7276469,0.6955058
0.1356981,0.7296085,0.6965095
0.1320958,0.7325241,0.6964507
0.1311607,0.7310704,0.6936999
0.1322846,0.7273408,0.6875584
0.1308652,0.7300423,0.6856753
0.1306097,0.7320964,0.6868118
0.1327348,0.7303949,0.6845495
0.1356868,0.7290307,0.6878274
0.1367676,0.7263248,0.6923179
0.1348505,0.7263809,0.6898026
0.1343933,0.7265984,0.6887855
0.134851,0.725816,0.6892122
0.1347011,0.7270728,0.6883838
0.134225,0.7259816,0.6888177
0.1319577,0.7266632,0.6908954
0.1298255,0.7292128,0.6938839
0.1298415,0.7317423,0.6930695
0.1293535,0.7348577,0.6878463
0.12738,0.7325612,0.6825893
0.1296492,0.7300094,0.6781065
0.1344482,0.7291907,0.6774838
0.1345079,0.728267,0.6822145
0.1336601,0.7303066,0.6864163
0.1334603,0.7308393,0.6878495
0.1305761,0.7319952,0.688391
0.1277988,0.7326951,0.6895701
0.1269634,0.7299159,0.6918917
0.1256599,0.7295726,0.6927725
0.1244449,0.7281901,0.6894013
0.1271674,0.727136,0.6832846
0.1303962,0.7292801,0.6825786
0.1325578,0.7293779,0.6871452
0.1357582,0.7300724,0.6889424
0.1342487,0.7307454,0.6895877
0.1322394,0.7295164,0.6900994
0.1348221,0.7289957,0.6877645
0.1345452,0.7293008,0.6802194
0.1315592,0.7314126,0.6735149
0.1290373,0.7333172,0.6786893
0.1286386,0.7338071,0.6841028
0.1311646,0.7342355,0.6827995
0.1334126,0.7345461,0.6844989
0.1353693,0.7336816,0.6869088
0.1352231,0.72972,0.6889632
0.1333931,0.7260694,0.6873007
0.1324489,0.7242527,0.6832911
0.1302299,0.7229973,0.6885073
0.1317402,0.7240597,0.6923955
0.1362122,0.7259544,0.6909315
0.1364605,0.7284813,0.6972816
0.1375497,0.7300893,0.7036151
0.1379672,0.7288931,0.6994392
0.1343309,0.7293142,0.6924331
0.1314706,0.731283,0.6898519
0.1283274,0.7322733,0.6883955
0.1285809,0.7318484,0.6880859
0.1319864,0.7298103,0.6885773
0.1321567,0.7287265,0.6847833
0.1352167,0.7291043,0.6829564
0.1387057,0.7293332,0.6842733
0.134608,0.7284304,0.6855044
0.1306925,0.7251192,0.6886734
0.131071,0.7208701,0.6878133
0.1306768,0.7198068,0.6865454
0.1302724,0.7221101,0.6882982
0.1319548,0.7248909,0.6872016
0.1331135,0.7287795,0.6873379
0.1332811,0.7316495,0.688078
0.1326424,0.7337543,0.6887061
0.1313852,0.7389813,0.6929832
0.131971,0.7374024,0.6948803
0.1320628,0.7284138,0.6893738
0.1307168,0.7251635,0.6792145
0.1311913,0.7258685,0.6746744
0.1340111,0.7266204,0.68088
0.1372847,0.7248365,0.6857814
0.1362562,0.722939,0.6845234
0.1325888,0.727748,0.6894538
0.1290992,0.730994,0.6974354
0.1227976,0.7325437,0.6934076
0.1197198,0.7384662,0.6871538
0.1221956,0.7419101,0.6877923
0.1252406,0.7402863,0.6861925
0.1289659,0.7382277,0.6822664
0.1285867,0.7381743,0.6762133
0.1264765,0.7363734,0.6744019
0.1284554,0.7343473,0.6859198
0.1279526,0.7322229,0.6964084
0.1271072,0.7265735,0.6968758
0.1284461,0.7268355,0.6927747
0.1270916,0.7291801,0.6882492
0.1259072,0.7269111,0.6861428
0.1248163,0.7282446,0.6849939
0.1250822,0.7299733,0.6847005
0.1294503,0.7307175,0.683102
0.1322777,0.7326288,0.6824025
0.1320598,0.7343074,0.684396
0.1299148,0.737174,0.6836029
0.1285619,0.7363374,0.6864124
0.130314,0.7331599,0.6898529
0.1310771,0.72963,0.6868943
0.1311998,0.7234556,0.6873249
0.1313008,0.7232137,0.689966
0.1299775,0.7263352,0.6906421
0.1284252,0.7278922,0.6916063
0.1263182,0.7346502,0.6925044
0.1251835,0.7381865,0.693753
0.1260268,0.7340849,0.6933943
0.1274971,0.729696,0.691728
0.1287659,0.7249306,0.6893808
0.1305019,0.7256305,0.686864
0.1337197,0.7298188,0.6860375
0.1349968,0.7289484,0.6858166
0.1343624,0.7292404,0.6872321
0.1349529,0.7305206,0.6880407
0.1347771,0.7300633,0.6869088
0.1339302,0.7294583,0.6867999
0.13213,0.7250673,0.6865906
0.1285403,0.7225945,0.689359
0.1276261,0.725817,0.69272
0.12855,0.7282716,0.6888984
0.1291752,0.7293027,0.6844715
0.1308328,0.7312867,0.6839685
0.1291927,0.7346339,0.683671
0.1268451,0.7363315,0.6828883
0.1298048,0.7360057,0.6785743
0.1311789,0.7362848,0.6759576
-0.001527952,0.5627077,0.8593217
0.01212549,0.5683031,0.8475186
0.02426763,0.561956,0.8170525
0.02482713,0.567832,0.7968848
0.01088297,0.5778216,0.8156376
0.005619329,0.5959678,0.8125972
0.0001577006,0.6131763,0.8151318
-0.003663742,0.6201064,0.8369027
-0.00540663,0.6216771,0.8345027
-0.006740613,0.617568,0.8341824
-0.0006265226,0.6084475,0.8247758
-0.003034188,0.5918971,0.8177071
-0.003022957,0.5724247,0.8278641
-0.001266554,0.5589226,0.8249365
-0.01563699,0.5461666,0.8326395
-0.03131803,0.5356585,0.8402875
-0.04668827,0.5401107,0.8391108
-0.05931087,0.5523576,0.8521075
-0.06643759,0.5578055,0.8631633
-0.06670746,0.5631358,0.8631334
-0.05760961,0.5709532,0.8532875
-0.05299694,0.5748155,0.8482362
-0.04191928,0.575902,0.8408699
-0.03024772,0.5762114,0.8256
-0.03378934,0.580911,0.822325
-0.03224791,0.5878004,0.8142849
-0.02828363,0.5920508,0.8124647
-0.030253,0.5955214,0.8232924
-0.03209149,0.5963817,0.8266445
-0.03399386,0.5961102,0.8352901
-0.03726501,0.5910238,0.8355538
-0.04359476,0.5811671,0.8306194
-0.04780726,0.57674,0.8389331
-0.05275262,0.5735062,0.8417105
-0.05776608,0.5685691,0.8401752
-0.05530323,0.5669587,0.8348716
-0.05342187,0.5702961,0.8273393
-0.05282872,0.5755187,0.8280541
-0.05056071,0.5733497,0.826434
-0.05117328,0.5707641,0.8277515
-0.05250812,0.5759895,0.8371738
-0.05371633,0.5773593,0.8437092
-0.05631136,0.5749074,0.8424799
-0.05691844,0.5720933,0.8344857
-0.05817428,0.566962,0.8311725
-0.06210925,0.5674878,0.830649
-0.05909231,0.5700384,0.8315187
-0.05467528,0.5690827,0.8398987
-0.05780087,0.5705018,0.8430425
-0.0583586,0.5741742,0.8388795
-0.05771422,0.5783845,0.8272324
-0.05946549,0.5788792,0.8154712
-0.05968733,0.5768201,0.8236178
-0.06160261,0.579032,0.8333141
-0.06188808,0.5796432,0.8311089
-0.06113908,0.577341,0.8317228
-0.06381028,0.5758684,0.8338884
-0.0653136,0.5733961,0.8341338
-0.0667154,0.5729977,0.8359315
-0.06664838,0.573188,0.8378223
-0.06412939,0.5713066,0.8409927
-0.06576235,0.5703987,0.8453085
-0.06801926,0.56938,0.8408383
-0.06964816,0.5700227,0.8341252
-0.07168333,0.5725523,0.836005
-0.06882978,0.5723955,0.8343653
-0.06698536,0.5721442,0.8315903
-0.06872758,0.573329,0.8350178
-0.06889754,0.5737594,0.836588
-0.06976389,0.5735642,0.8379164
-0.07061043,0.5725659,0.8388287
-0.07074879,0.5714211,0.8397811
-0.07116266,0.5695651,0.8416528
-0.07023074,0.5672817,0.8336509
-0.06941297,0.5679079,0.82597
-0.06947856,0.5697218,0.8318731
-0.07146176,0.5704997,0.8379237
-0.07467268,0.5720056,0.8403445
-0.07693524,0.5728634,0.8428305
-0.07852303,0.5728717,0.8407591
-0.076914,0.5737115,0.8364199
-0.07562729,0.5729519,0.8330137
-0.0778496,0.5715894,0.8323508
-0.07816881,0.5723216,0.8342818
-0.07847858,0.5724454,0.8345724
-0.07947589,0.5719603,0.836254
-0.07778858,0.5723635,0.8389153
-0.07568483,0.5722251,0.8388308
-0.0744156,0.5721309,0.8423119
-0.07527106,0.5723284,0.845895
-0.07738131,0.5716188,0.842457
-0.07885422,0.5695544,0.8403035
-0.07978184,0.5672704,0.84102
-0.07877413,0.5676822,0.8390844
-0.07823751,0.5687262,0.8373284
-0.07879086,0.5679029,0.8376569
-0.07955257,0.5693569,0.8384268
-0.08190923,0.5729476,0.8385619
-0.0821565,0.5750931,0.8363955
-0.08017732,0.5755131,0.8336515
-0.08026355,0.5739709,0.8350143
-0.08183452,0.5711582,0.8381531
-0.0822726,0.5677995,0.8391814
-0.08136084,0.5672015,0.8390787
-0.08059807,0.5698193,0.8376792
-0.08046595,0.5694182,0.8371373
-0.0822893,0.5681614,0.8377823
-0.08366741,0.5682463,0.8378528
-0.08283669,0.5679596,0.8402376
-0.08359961,0.5697849,0.8418542
-0.08352271,0.5696631,0.8382264
-0.08301875,0.5673536,0.8344288
-0.08470565,0.5678646,0.8353072
-0.08513439,0.5683928,0.8372226
-0.08650735,0.5679537,0.8372657
-0.08727601,0.5679529,0.8388009
-0.08298018,0.5685291,0.841965
-0.07906138,0.5698494,0.845356
-0.08006939,0.5712392,0.8450184
-0.08199278,0.5714096,0.8396741
-0.08198246,0.5711901,0.8363362
-0.08450501,0.5726938,0.8339001
-0.08628409,0.5720022,0.8336783
-0.08554495,0.5689193,0.8352127
-0.08828937,0.5677014,0.8324509
-0.08811362,0.5679931,0.8339391
-0.08550422,0.5702436,0.8360704
-0.08347562,0.5714357,0.8337382
-0.07722794,0.5715014,0.8350925
-0.07688211,0.575019,0.8352599
-0.08186514,0.5773018,0.8359905
-0.08162579,0.5742825,0.8382828
-0.07923701,0.5700818,0.835484
-0.07599753,0.5682146,0.8348152
-0.07698419,0.5682606,0.8393066
-0.08447756,0.5717482,0.8424945
-0.08904583,0.5759572,0.8383815
-0.08717133,0.5737457,0.8322161
-0.08338124,0.5700633,0.8315834
-0.08288128,0.5688638,0.8306012
-0.08195316,0.56815,0.8312848
-0.07963069,0.5678301,0.8341266
-0.07938843,0.5650226,0.8348532
-0.07665352,0.5632574,0.8396372
-0.0753758,0.5648166,0.8424127
-0.07565136,0.5662278,0.8415099
-0.07351732,0.5688116,0.8450601
-0.07276096,0.5743424,0.8476118
-0.06549615,0.5812931,0.8484711
-0.05582944,0.5851586,0.8413962
-0.05478451,0.5890056,0.8268751
-0.0565023,0.5950587,0.8228231
-0.05898773,0.5933918,0.8179026
-0.06016976,0.5828225,0.8122314
-0.06025848,0.5737981,0.8235007
-0.06023827,0.571248,0.8387446
-0.05861472,0.5659067,0.8594438
-0.05735631,0.5565513,0.8785625
-0.04829072,0.552761,0.8725011
-0.0383362,0.5432829,0.8604405
-0.04278028,0.534114,0.8530444
-0.05209025,0.5478769,0.8450497
-0.05917349,0.5657403,0.8413157
-0.06015665,0.5732324,0.8357151
-0.04974794,0.5788158,0.838486
-0.03878149,0.5861479,0.8559064
-0.03632667,0.6059128,0.8762349
-0.03460669,0.617825,0.8875605
-0.02168465,0.594109,0.872113
-0.01204651,0.5671087,0.8596825
-0.03485104,0.5639793,0.8771839
-0.06529906,0.5635161,0.8833747
-0.07175248,0.546959,0.8691559
-0.08467161,0.518053,0.8652359
-0.09706208,0.5018901,0.8817647
-0.08456334,0.5116583,0.8959249
-0.07661539,0.5112134,0.8771521
-0.06861141,0.4808861,0.8617437
-0.07082033,0.4609761,0.8820182
-0.08966587,0.4734978,0.8907889
-0.07384858,0.4832566,0.8676382
-0.05892188,0.4645715,0.8481059
-0.07061577,0.4541285,0.8552787
-0.08275673,0.4746013,0.8832705
-0.1031384,0.4833277,0.9033415
-0.07843279,0.4555064,0.890426
-0.02005325,0.4041519,0.8731485
-0.00675334,0.3714404,0.8865094
-0.02667702,0.3910378,0.9065698
-0.0565878,0.4068166,0.9304142
-0.06459003,0.3856261,0.9494336
-0.04939656,0.3709972,0.9162885
-0.05250241,0.3595733,0.8832606
-0.07647402,0.3562411,0.8940537
-0.1111423,0.3961042,0.8925372
-0.1103391,0.4354793,0.87419
-0.06849623,0.4343964,0.8571772
-0.04604852,0.4356716,0.8506447
-0.0565731,0.4852771,0.8670933
-0.08715472,0.5627064,0.8788837
-0.09968674,0.5907999,0.8743042
-0.06808609,0.5623321,0.854961
-0.01952375,0.544082,0.8254578
0.007457704,0.5436601,0.8135274
0.004921347,0.5563405,0.8188218
0.01300771,0.5889775,0.8401426
0.01951466,0.6016108,0.8874935
0.004271121,0.5885471,0.931376
-0.01023675,0.5648539,0.9429643
-0.06021388,0.5311894,0.9204626
-0.1304008,0.5364348,0.8778633
-0.1337768,0.5605897,0.8457496
-0.06390952,0.5570942,0.8234991
0.01254066,0.5732948,0.8055455
0.02958242,0.5901314,0.821327
-0.02071511,0.5918464,0.8683527
-0.08577648,0.6044026,0.9171704
-0.1181692,0.5918564,0.9334249
-0.1140494,0.577608,0.9092614
-0.07368683,0.5524838,0.8828716
-0.02589922,0.4926093,0.8515987
-0.03195746,0.4745891,0.8387284
-0.07290386,0.4652966,0.880753
-0.1108581,0.4273279,0.9166756
-0.139252,0.4318733,0.9281945
-0.1454559,0.4455838,0.930874
-0.1615169,0.4274439,0.9312466
-0.1748574,0.4308639,0.9522339
-0.1511305,0.43831,0.9422301
-0.1469849,0.4221551,0.913872
-0.1688422,0.4227669,0.9172948
-0.1845041,0.4262597,0.9165423
-0.1922697,0.4254843,0.9190419
-0.1600085,0.4327389,0.9089755
-0.121115,0.4162407,0.8895641
-0.1249184,0.3896924,0.9099131
-0.1310515,0.3737748,0.9199884
-0.1224578,0.3740771,0.911254
-0.1086325,0.3814496,0.914281
-0.08934158,0.3653711,0.9101247
-0.07419436,0.3528746,0.8954739
-0.06543835,0.3509154,0.8785968
-0.06600478,0.3463582,0.8849082
-0.07050564,0.3419402,0.9059075
-0.07371695,0.3305326,0.9225237
-0.09335225,0.3528959,0.9366387
-0.1166642,0.3960975,0.9189334
-0.1051247,0.4079975,0.8955852
-0.08731113,0.41654,0.9002047
-0.089603,0.4425083,0.8996139
-0.07684302,0.4693344,0.8925892
-0.05923781,0.4729261,0.8913041
-0.05787438,0.4674209,0.898681
-0.07517175,0.4813639,0.91404
-0.1127437,0.4891461,0.9147124
-0.1279014,0.4913685,0.9103525
-0.1222723,0.498158,0.9146567
-0.1221497,0.4975612,0.9100813
-0.114888,0.5009534,0.8937779
-0.1154056,0.4981836,0.8779433
-0.1187254,0.4810016,0.8812745
-0.1128756,0.4606052,0.8927946
-0.1145353,0.4466301,0.8937223
-0.1158031,0.4437314,0.912071
-0.1146064,0.4290818,0.9319033
-0.1062465,0.4181024,0.9157389
-0.08813163,0.429435,0.8999293
-0.08570148,0.4316148,0.905001
-0.09605097,0.4314948,0.9092262
-0.1013133,0.4305902,0.9132354
-0.1007075,0.4194525,0.9190646
-0.1013627,0.4193155,0.9170953
-0.1071159,0.4136705,0.9142077
-0.109235,0.4036827,0.9139506
-0.108361,0.4117731,0.9065381
-0.1082733,0.4191087,0.9022817
-0.1083723,0.4276077,0.9045022
-0.1106242,0.4430697,0.9064085
-0.1109846,0.4530401,0.9126133
-0.1089166,0.4605027,0.9131705
-0.1042325,0.4686417,0.9098775
-0.09833136,0.4736783,0.9084672
-0.09660323,0.4640469,0.9030006
-0.09768726,0.4505209,0.9075249
-0.09880161,0.4505508,0.9144536
-0.09506696,0.4487532,0.909305
-0.09123761,0.447897,0.9073302
-0.09380284,0.4516523,0.9055338
-0.09631467,0.4463891,0.9019466
-0.1022887,0.4407352,0.9081269
-0.1120756,0.4365839,0.911924
-0.1160046,0.4331936,0.9089034
-0.1149104,0.4329332,0.907445
-0.1122905,0.429022,0.902417
-0.1118736,0.4248119,0.8989802
-0.1188766,0.4174568,0.9003148
-0.1296723,0.4111403,0.9011838
-0.1330725,0.4137499,0.9078845
-0.1309117,0.4132664,0.9115426
-0.1314294,0.4144634,0.9102101
-0.1304748,0.4203158,0.9139231
-0.1291816,0.4199678,0.9125794
-0.1263363,0.419863,0.9118149
-0.1163381,0.4214386,0.9155389
-0.1112144,0.4219894,0.9149379
-0.1142714,0.427532,0.9141362
-0.1148403,0.4355453,0.9073494
-0.1151969,0.4388282,0.9000076
-0.1209759,0.4418571,0.901066
-0.1251751,0.4535572,0.9002269
-0.1199034,0.4677596,0.8990563
-0.1097696,0.4784613,0.8983343
-0.09673866,0.4889577,0.8920877
-0.08407294,0.4951609,0.887702
-0.0841605,0.4932175,0.8938837
-0.09063057,0.489237,0.9020323
-0.09797305,0.4882011,0.9058413
-0.1125468,0.4815175,0.9115543
-0.1173326,0.4676395,0.908067
-0.114381,0.4502846,0.8983535
-0.1271702,0.4229808,0.9022452
-0.1387474,0.4026411,0.9035188
-0.136775,0.3941881,0.8977856
-0.1277458,0.3827908,0.9028205
-0.1137306,0.3845119,0.9126595
-0.1144936,0.3942707,0.9214453
-0.1209878,0.40055,0.9252695
-0.116374,0.4138408,0.9268394
-0.1180837,0.4249881,0.9284726
-0.1190792,0.433891,0.9148949
-0.1156035,0.4383322,0.8990343
-0.1173364,0.4339945,0.8946347
-0.1151964,0.4329412,0.8946786
-0.1134869,0.4304468,0.9001106
-0.1121424,0.4329411,0.9023687
-0.1079994,0.443966,0.9039457
-0.1082681,0.4512701,0.9041975
-0.1075848,0.4600377,0.8997196
-0.104686,0.4631886,0.90684
-0.1027215,0.4580369,0.9127043
-0.1066977,0.4538656,0.9113519
-0.1178119,0.4470514,0.9132366
-0.1242886,0.4407214,0.9106307
-0.1254388,0.4323093,0.9072077
-0.1226271,0.4213252,0.9020327
-0.1197615,0.419239,0.8987037
-0.1248438,0.4213383,0.9056715
-0.1278001,0.4210007,0.9119786
-0.1251765,0.4213477,0.9160781
-0.1240815,0.4245685,0.9200882
-0.1236818,0.4288918,0.9196132
-0.1237337,0.4301243,0.9102455
-0.125195,0.4312808,0.8999517
-0.1266312,0.4355523,0.9030234
-0.1261918,0.4385473,0.9066242
-0.1259598,0.4383052,0.9052934
-0.1249935,0.4385798,0.9105791
-0.1225947,0.4410126,0.9141729
-0.123837,0.4408354,0.911173
-0.1250048,0.4388231,0.9062636
-0.1245282,0.4373911,0.9006527
-0.1245706,0.431844,0.9011957
-0.1235875,0.4286075,0.9059908
-0.1265012,0.4307879,0.905463
-0.1314169,0.4279119,0.9048455
-0.1341743,0.4240941,0.9073557
-0.1387422,0.4254453,0.9069466
-0.1435367,0.4279552,0.9066826
-0.1449949,0.4304111,0.9082559
-0.1425677,0.4321045,0.9110355
-0.1397247,0.4336281,0.9154066
-0.1403164,0.4328694,0.9129354
-0.1416501,0.4273846,0.9041501
-0.1426144,0.4234729,0.8979859
-0.1438611,0.4246548,0.897282
-0.1453247,0.4267424,0.9016693
-0.1488572,0.4290938,0.9057899
-0.1503646,0.4325289,0.9090913
-0.1453311,0.4301337,0.9111902
-0.1412405,0.4246419,0.9139094
-0.1430241,0.4263616,0.9205894
-0.1440507,0.4273538,0.9129129
-0.143709,0.425886,0.8985192
-0.1481506,0.4296323,0.9027215
-0.1564382,0.4314243,0.9068799
-0.1624991,0.4303894,0.9027694
-0.1609894,0.4294674,0.9013107
-0.1561919,0.4250629,0.8999319
-0.1563954,0.4208347,0.9024072
-0.1553855,0.4214097,0.9045848
-0.1511629,0.4234263,0.8996813
-0.1516178,0.4218584,0.8968114
-0.1542216,0.4218221,0.9040911
-0.1555435,0.4244226,0.912053
-0.1525227,0.4253457,0.9094158
-0.1479987,0.4290858,0.9064458
-0.1500911,0.4310812,0.9061129
-0.150936,0.4294837,0.904075
-0.149592,0.4284014,0.9049513
-0.1531218,0.4253054,0.9025074
-0.1550655,0.4259482,0.8999294
-0.1539392,0.4272592,0.9033381
-0.1530408,0.4246726,0.9044578
-0.1532863,0.4251641,0.906894
-0.156408,0.4260213,0.9105909
-0.1586816,0.4264025,0.9088386
-0.1541501,0.4275429,0.9050472
-0.1454948,0.4314319,0.9019342
-0.1423705,0.4430954,0.9039188
-0.1431238,0.4507444,0.9070705
-0.1415656,0.4465508,0.9040693
-0.1422071,0.4415585,0.9024703
-0.14474,0.4380965,0.9047628
-0.1448548,0.4301906,0.9104362
-0.1452657,0.419673,0.917893
-0.1471112,0.4089275,0.9158216
-0.147633,0.4003147,0.9095506
-0.147191,0.396325,0.9070256
-0.1481145,0.3935212,0.9039584
-0.1489848,0.3962224,0.9101512
-0.148609,0.4060186,0.921173
-0.1472275,0.4150743,0.9180154
-0.1418964,0.4259627,0.9076358
-0.1343336,0.4369479,0.9003133
-0.1314639,0.4454706,0.8998328
-0.1269879,0.4574982,0.8989128
-0.1143219,0.4649589,0.8892021
-0.1078183,0.4611784,0.8898343
-0.1094502,0.4600385,0.8956367
-0.1101555,0.4641146,0.8941554
-0.1162355,0.4605409,0.9000819
-0.1194633,0.4567385,0.9004378
-0.1126768,0.4543953,0.8971231
-0.1092777,0.4445525,0.9069491
-0.1092957,0.4385638,0.9119308
-0.1086741,0.4327009,0.9107528
-0.1108257,0.4255355,0.9077816
-0.1170485,0.4286401,0.900862
-0.1214991,0.4303625,0.8993225
-0.1183137,0.4310965,0.9010001
-0.1171096,0.4342651,0.9038666
-0.1197422,0.4333721,0.904945
-0.1185775,0.4376502,0.9035017
-0.1144379,0.4467703,0.904631
-0.1084828,0.452151,0.9039827
-0.1065157,0.4512307,0.9033018
-0.1070871,0.4499833,0.9010219
-0.1026168,0.4542676,0.8971675
-0.09858736,0.4529934,0.899852
-0.0966483,0.4494437,0.9027422
-0.09493759,0.4507578,0.9028674
-0.0970262,0.4490087,0.9026269
-0.1016057,0.4481815,0.900905
-0.1053209,0.4473688,0.9003128
-0.1050551,0.4460863,0.9007388
-0.1035043,0.4481222,0.9008656
-0.1075786,0.4459967,0.9003742
-0.1118052,0.4443819,0.8999558
-0.1134465,0.4430309,0.9001014
-0.1173165,0.4387754,0.9008181
-0.1188971,0.4410158,0.9018747
-0.1170057,0.4428627,0.902028
-0.1134906,0.4417007,0.9047677
-0.1100936,0.4453547,0.9079481
-0.1125225,0.448478,0.9053739
-0.1153153,0.4474619,0.9028814
-0.1136073,0.4464906,0.9043922
-0.1134237,0.4479663,0.9040979
-0.1144223,0.4491754,0.9002482
-0.1138612,0.4498789,0.8965262
-0.1146311,0.4496012,0.8967634
-0.1158672,0.4468379,0.9009438
-0.1161987,0.4460337,0.9021521
-0.1204932,0.4432605,0.9029777
-0.1258377,0.4379104,0.9079205
-0.1258509,0.4371561,0.9028504
-0.1257738,0.4354327,0.8930053
-0.127231,0.4334004,0.8955732
-0.1263142,0.4355304,0.9027121
-0.1269027,0.4358172,0.9098097
-0.1286458,0.4357853,0.911947
-0.1275036,0.437089,0.9081811
-0.1275497,0.4375157,0.9109061
-0.1278636,0.4399124,0.9113247
-0.1254237,0.4421483,0.9050289
-0.1237382,0.4428728,0.9007824
-0.1231882,0.4429167,0.8985181
-0.1245807,0.4410568,0.9004095
-0.1287153,0.4428426,0.9006458
-0.1333126,0.4468249,0.8987957
-0.135033,0.4468854,0.9000452
-0.1342755,0.444369,0.8990508
-0.1363772,0.4387548,0.8998101
-0.135778,0.4348857,0.9014744
-0.1311427,0.434728,0.9017946
-0.1299206,0.4340222,0.9053452
-0.1278861,0.434252,0.90469
-0.126956,0.4331205,0.9024803
-0.1287237,0.433099,0.9023357
-0.1286414,0.4359231,0.89987
-0.1311872,0.4359853,0.9038289
-0.1336455,0.4354218,0.9090916
-0.1350947,0.4351498,0.9049653
-0.1389698,0.43786,0.9026263
-0.1398281,0.4420675,0.9048944
-0.1398747,0.4405907,0.9042557
-0.1413551,0.4410773,0.9028343
-0.141722,0.4436526,0.9000804
-0.1427149,0.4419856,0.896261
-0.140123,0.44149,0.8992672
-0.1356397,0.4402114,0.9036372
-0.1373738,0.4363193,0.9019027
-0.1378529,0.4345187,0.9024788
-0.1330184,0.4335983,0.9048853
-0.1314726,0.4353034,0.905333
-0.1336187,0.4390252,0.9088526
-0.135545,0.4376885,0.9087905
-0.1349824,0.4364703,0.9033193
-0.1343277,0.4383864,0.902986
-0.1372339,0.4375921,0.9044534
-0.1390879,0.438965,0.9038376
-0.1398665,0.4412362,0.9075882
-0.140247,0.4390856,0.9119488
-0.1373122,0.4384181,0.9106558
-0.1360677,0.4390956,0.9093572
-0.1394801,0.4386791,0.9095859
-0.1429748,0.4380212,0.9079324
-0.1404354,0.4371436,0.9054939
-0.1352823,0.4374971,0.9046497
-0.1343514,0.4376539,0.907979
-0.1344303,0.4370043,0.9087014
-0.1343892,0.4357872,0.9038563
-0.1322999,0.4341513,0.9010492
-0.1297186,0.4352259,0.8976325
-0.1337472,0.4392522,0.8957999
-0.1378258,0.4438279,0.8992161
-0.1360178,0.4456384,0.9009432
-0.1285028,0.4439454,0.9017916
-0.1215756,0.4428165,0.9033564
-0.1277847,0.441512,0.9051574
-0.1365842,0.4393588,0.9087873
-0.1353059,0.440204,0.908788
-0.1356088,0.4412219,0.9018566
-0.1392078,0.4411789,0.8995485
-0.1395029,0.4416365,0.9076385
-0.1420687,0.4383257,0.9131201
-0.1444338,0.4359874,0.9098882
-0.1414282,0.4380354,0.9063829
-0.137502,0.4367567,0.908142
-0.1335953,0.4352714,0.906127
-0.1336275,0.4367153,0.8993511
-0.1361873,0.4369616,0.8996052
-0.1341359,0.4377912,0.9004503
-0.1335786,0.4387083,0.9000324
-0.1320647,0.4387889,0.9032444
-0.1285499,0.4391831,0.9048729
-0.1352603,0.4387167,0.9064534
-0.1418844,0.4388232,0.9070556
-0.1386854,0.4391104,0.9069953
-0.1385038,0.4397344,0.9077313
-0.1433674,0.4443634,0.9090847
-0.1453756,0.4483499,0.9118922
-0.1435873,0.444703,0.9082471
-0.1396376,0.4393472,0.9034312
-0.1366564,0.4393922,0.9039898
-0.1388244,0.4382763,0.9028886
-0.1417129,0.4349345,0.9007999
-0.1400576,0.4370549,0.899351
-0.1393378,0.4394386,0.8998363
-0.1391688,0.4382586,0.9011171
-0.1368003,0.4372282,0.902167
-0.1382731,0.435784,0.90464
-0.1411601,0.4369789,0.9019445
-0.1418952,0.4401831,0.8987715
-0.1436036,0.440568,0.9029945
-0.1435955,0.4402588,0.9055293
-0.1433002,0.4402374,0.9035062
-0.1451314,0.4398615,0.9025846
-0.1436444,0.4386372,0.9037184
-0.1394967,0.4364634,0.9054972
-0.1365836,0.4358975,0.9063034
-0.137127,0.4362687,0.9067596
-0.1402611,0.4366011,0.9074413
-0.1405252,0.4365145,0.9068056
-0.1397047,0.4359026,0.9066444
-0.1389686,0.4380147,0.9070246
-0.1375312,0.4396094,0.9049059
-0.1398285,0.4377092,0.903557
-0.1432441,0.4378402,0.9042533
-0.1457315,0.4411854,0.9033454
-0.1452906,0.4441564,0.8997066
-0.1370992,0.4433366,0.89489
-0.1308092,0.440689,0.8931503
-0.1334841,0.439238,0.8944952
-0.1383273,0.4366969,0.8975487
-0.1430979,0.4368617,0.8998447
-0.1472841,0.438567,0.8985203
-0.1456828,0.4366881,0.8996224
-0.1432406,0.436723,0.9005754
-0.1477843,0.4372765,0.8983113
-0.1497621,0.4373876,0.8988623
-0.146635,0.4400042,0.8981327
-0.1454083,0.4404734,0.8969095
-0.1438193,0.4402898,0.897507
-0.1442332,0.4404106,0.8983014
-0.1447264,0.4406449,0.902571
-0.1418802,0.4442228,0.9061452
-0.140703,0.4467475,0.9073166
-0.1410905,0.4447277,0.9055137
-0.1439225,0.4381699,0.9034325
-0.1461847,0.4329494,0.9082374
-0.1447355,0.436054,0.9111023
-0.1442911,0.4393969,0.9095148
-0.1445096,0.4380304,0.9084301
-0.1454083,0.4385413,0.9051119
-0.1460625,0.4397411,0.903566
-0.1444084,0.4383779,0.9071027
-0.1424423,0.4389439,0.9087205
-0.1410045,0.4399723,0.9053171
-0.1416212,0.4381989,0.9049569
-0.1419032,0.4373278,0.9044943
-0.1403841,0.4372025,0.9003483
-0.1403517,0.4376215,0.8988058
-0.1411213,0.4377835,0.8945127
-0.1419624,0.437009,0.8933542
-0.142048,0.4384041,0.8980188
-0.142358,0.4401434,0.8987613
-0.1446524,0.4420144,0.9007621
-0.1457066,0.4411884,0.8998752
-0.1451156,0.4372046,0.8962391
-0.1424932,0.4373219,0.8960485
-0.139489,0.4384286,0.8950034
-0.1426034,0.4407525,0.8963301
-0.1465486,0.4432934,0.8971778
-0.146141,0.4369121,0.900356
-0.148028,0.4306918,0.906694
-0.1496258,0.4333208,0.9041288
-0.1463763,0.4355407,0.9012507
-0.1432592,0.4341341,0.9000539
-0.1410007,0.4352798,0.8961385
-0.1412775,0.4378936,0.8995162
-0.1444344,0.4390875,0.9033446
-0.144615,0.4395689,0.9009065
-0.1427148,0.4379753,0.899985
-0.1366728,0.4370052,0.8976095
-0.1301867,0.4363687,0.8941502
-0.1366199,0.4362671,0.900989
-0.1441205,0.439458,0.9087448
-0.1420828,0.4391656,0.9037761
-0.1450239,0.4382384,0.900532
-0.1496043,0.4395842,0.9032963
-0.146584,0.4384206,0.8992408
-0.1468571,0.4386247,0.8964767
-0.1502839,0.4373666,0.9029039
-0.1507193,0.4352796,0.9072901
-0.1514164,0.4372435,0.9035829
-0.1484714,0.4372084,0.8997272
-0.1440123,0.4338344,0.9019038
-0.1442218,0.4314948,0.9046776
-0.1446997,0.4352763,0.9051715
-0.1451847,0.4404522,0.9058375
-0.1456273,0.438968,0.9044649
-0.1458666,0.4376285,0.9000608
-0.1482446,0.4368442,0.8963059
-0.1502447,0.4343636,0.8990935
-0.1517474,0.4378875,0.9035608
-0.1522627,0.4422376,0.9010763
-0.1526123,0.4399972,0.9002713
-0.1543395,0.4385302,0.901624
-0.1519059,0.439044,0.8991071
-0.148442,0.4365746,0.9003765
-0.1497457,0.4346258,0.9033941
-0.1487154,0.4349455,0.903743
-0.1449424,0.4364157,0.9021749
-0.1446999,0.4380975,0.899125
-0.1450044,0.4366666,0.9023619
-0.145764,0.4353845,0.9061121
-0.1481117,0.4360517,0.9035494
-0.1473912,0.4343727,0.9039991
-0.1466041,0.4326155,0.9056992
-0.1482475,0.4337995,0.9053397
-0.1497727,0.4367188,0.9053165
-0.1516773,0.4397273,0.9023729
-0.1498561,0.4401891,0.89852
-0.1454219,0.438417,0.8972655
-0.1460018,0.4384809,0.8987233
-0.1489003,0.4396676,0.9026002
-0.1500025,0.4394929,0.9052419
-0.1478042,0.4400656,0.9044445
-0.1445301,0.4384349,0.9034667
-0.1466362,0.4337047,0.903624
-0.1485736,0.4325738,0.8998739
-0.1477622,0.433537,0.896295
-0.1509294,0.4337628,0.9015523
-0.1532663,0.4350966,0.9060876
-0.151722,0.4365496,0.9022392
-0.1484286,0.4364712,0.9006322
-0.1445802,0.4356281,0.9055382
-0.1463433,0.4364304,0.9082999
-0.1497276,0.4372486,0.9060858
-0.14921,0.4375428,0.9022473
-0.1502777,0.4386351,0.8970573
-0.1512409,0.43799,0.8944387
-0.150339,0.4370904,0.8982528
-0.1508457,0.4366234,0.9046662
-0.1503697,0.4361239,0.9101263
-0.1487379,0.4381422,0.9103433
-0.1468839,0.4403786,0.9047971
-0.1441204,0.4406828,0.9013005
-0.1426582,0.4400694,0.9010737
-0.1441509,0.4401569,0.9016424
-0.1478659,0.4405718,0.902995
-0.1494526,0.4396695,0.9017918
-0.1485874,0.4380285,0.8993379
-0.1494183,0.4343949,0.8997386
-0.1499961,0.4322482,0.9013789
-0.1482988,0.4345468,0.9016417
-0.1468526,0.4352911,0.9011576
-0.1495282,0.4351377,0.902241
-0.1547003,0.4383241,0.9049703
-0.1560771,0.4405489,0.906988
-0.1531159,0.4361908,0.9024228
-0.1482933,0.4311276,0.894034
-0.146219,0.4330685,0.8934794
-0.1483169,0.4332663,0.8976211
-0.1491654,0.42889,0.902924
-0.1486366,0.4287686,0.9095843
-0.1493707,0.4300782,0.909523
-0.1500622,0.4319026,0.9078174
-0.1483179,0.4363358,0.9068459
-0.1465127,0.4379554,0.9006116
-0.1483511,0.4380201,0.8999811
-0.1504949,0.4384409,0.9027856
-0.1518204,0.4372459,0.8999098
-0.1530101,0.4364617,0.902174
-0.1511382,0.4343091,0.9032783
-0.1490617,0.4307075,0.8982332
-0.150024,0.4314205,0.9003657
-0.150435,0.4329714,0.9012552
-0.1494453,0.431389,0.9007108
-0.1491923,0.431626,0.9062224
-0.1486855,0.4315971,0.9060233
-0.149139,0.4297523,0.9044792
-0.1506696,0.4306792,0.9044948
-0.1499655,0.4312436,0.901125
-0.1496507,0.4320716,0.9006886
-0.1509211,0.4354542,0.9009863
-0.1524704,0.4368933,0.9026764
-0.1542599,0.4376352,0.9041525
-0.1501851,0.4379259,0.9016549
-0.1422255,0.4370465,0.9029426
-0.1403325,0.43766,0.9034114
-0.1427522,0.4372817,0.9015408
-0.1461901,0.4354423,0.9003673
-0.1516157,0.4344042,0.8930598
-0.1543469,0.4349548,0.8891173
-0.1526838,0.4377685,0.8966857
-0.1530846,0.4394506,0.9029042
-0.1545548,0.4381071,0.9008802
-0.1509822,0.4369069,0.899651
-0.1470084,0.4371404,0.9023682
-0.1466747,0.4360581,0.9015009
-0.1460754,0.4338746,0.9003373
-0.1439037,0.4349186,0.9006713
-0.1422726,0.4371059,0.9000014
-0.1430407,0.4377483,0.9045552
-0.1440471,0.4387281,0.9080437
-0.1453081,0.4389309,0.9057739
-0.1480132,0.4388901,0.9066578
-0.1466014,0.4390209,0.9097079
-0.1437677,0.4381201,0.9098136
-0.1446303,0.4363968,0.9058469
-0.1445382,0.4340559,0.9025513
-0.1441781,0.4351492,0.9032393
-0.1445643,0.4370647,0.9020847
-0.1433518,0.4348099,0.900563
-0.14282,0.434565,0.9022049
-0.1428764,0.4369042,0.9042153
-0.1421955,0.4378348,0.9061065
-0.1409136,0.4377796,0.9051604
-0.1387584,0.4378336,0.9000796
-0.1369929,0.4411784,0.895698
-0.1370569,0.4432823,0.8954987
-0.138012,0.4376058,0.8989474
-0.1374287,0.431623,0.9010145
-0.1371655,0.4327604,0.9003919
-0.1379339,0.4346967,0.9018574
-0.1372519,0.4339337,0.9029403
-0.1378088,0.4366321,0.9006491
-0.1395604,0.4389584,0.9001944
-0.1404912,0.4379521,0.9018884
-0.1407201,0.4400299,0.9034947
-0.1398217,0.44085,0.9039007
-0.1403456,0.4388503,0.8978255
-0.1407693,0.438822,0.8920365
-0.1409002,0.4388121,0.895725
-0.1433347,0.4387709,0.899005
-0.144448,0.4373565,0.8983217
-0.1454986,0.4334609,0.8990849
-0.1471347,0.4311375,0.8994247
-0.1456486,0.4324865,0.8997456
-0.1416971,0.4343384,0.8986072
-0.1372493,0.4334569,0.8981892
-0.1370194,0.4346993,0.9070394
-0.1403302,0.4369098,0.9160007
-0.1425709,0.4341327,0.91287
-0.1450971,0.4333057,0.907866
-0.1478396,0.4380501,0.9068425
-0.1508643,0.4414068,0.9034488
-0.1524529,0.4385376,0.9048464
-0.1507668,0.4339492,0.9091783
-0.1503013,0.4336687,0.9062319
-0.1496603,0.4333995,0.9063091
-0.1468155,0.4324855,0.9086622
-0.1459123,0.4320735,0.9086457
-0.1481789,0.4308314,0.912302
-0.1504636,0.4357739,0.9113269
-0.1467837,0.4421753,0.9080718
-0.1423686,0.4402596,0.9084042
-0.1448931,0.43714,0.9060289
-0.1464773,0.4356123,0.9051453
-0.1471997,0.4330508,0.9056937
-0.1506005,0.4334567,0.9051927
-0.1504993,0.4366512,0.904795
-0.1507123,0.4391604,0.9025313
-0.1538572,0.4406945,0.9016029
-0.1546516,0.4420244,0.9013686
-0.1539488,0.442868,0.9016026
-0.1529447,0.4393122,0.905002
-0.1514999,0.4331116,0.9082876
-0.1496701,0.4327651,0.9079806
-0.1468023,0.4357563,0.9037592
-0.1442522,0.4364666,0.9033263
-0.1438889,0.4364406,0.9071295
-0.1452124,0.436723,0.9058265
-0.146415,0.4378577,0.9005793
-0.1483646,0.4374191,0.8959216
-0.1492526,0.4346801,0.8984136
-0.1470545,0.4318345,0.9050215
-0.1460115,0.429851,0.9045306
-0.1458364,0.4323974,0.9041911
-0.1455086,0.4358535,0.9043792
-0.1460103,0.4363699,0.8997301
-0.1451534,0.437746,0.8981145
-0.1454818,0.4368609,0.89731
-0.1461526,0.4341263,0.8980326
-0.1440441,0.4339971,0.9055466
-0.1438615,0.4344268,0.9095409
-0.1445107,0.4372296,0.9029998
-0.1416031,0.4420965,0.8962503
-0.1401375,0.443218,0.8993803
-0.1447324,0.4394163,0.9043367
-0.1472557,0.4350854,0.9057804
-0.1384754,0.434882,0.9065193
-0.1305165,0.4334273,0.9049591
-0.1373941,0.4289421,0.9072295
-0.1437301,0.4304545,0.9119558
-0.1393326,0.4341071,0.9119506
-0.1393186,0.4356909,0.9104428
-0.1417157,0.4386464,0.9086101
-0.1393713,0.4378578,0.9066263
-0.1408811,0.4366476,0.9032026
-0.1435073,0.4392067,0.9029698
-0.1445305,0.4389677,0.9058888
-0.1433371,0.437931,0.9031225
-0.1338418,0.4356832,0.902906
-0.1262692,0.4318742,0.9036673
-0.1285089,0.4338355,0.9014561
-0.1307259,0.4382913,0.9043731
-0.1285628,0.4420317,0.9063296
-0.1284304,0.4440826,0.908176
-0.1289113,0.4404363,0.9070778
-0.1254263,0.4365329,0.9008284
-0.1260844,0.4362886,0.9000819
-0.1289334,0.4388668,0.8968941
-0.1277092,0.4432733,0.8949601
-0.1285349,0.4434702,0.8977764
-0.1296131,0.4406273,0.8958196
-0.1287684,0.4399786,0.9014759
-0.1268065,0.4397826,0.9068244
-0.123061,0.4384983,0.9003073
-0.1214174,0.4362699,0.8994846
-0.1226488,0.43611,0.9042383
-0.1253668,0.4376278,0.9064446
-0.1271446,0.4363518,0.9071203
-0.1274393,0.4357892,0.9100055
-0.1281963,0.4369435,0.9159998
-0.129947,0.4383203,0.9143599
-0.1329616,0.4407519,0.9091858
-0.1339699,0.4403747,0.9058928
-0.1331649,0.4398415,0.8981767
-0.1328886,0.4402754,0.8971674
-0.1316014,0.4372308,0.9026047
-0.1300845,0.4353436,0.9039198
-0.1310992,0.4360336,0.9052812
-0.135518,0.4363518,0.9008259
-0.1386998,0.4361384,0.8955017
-0.1378063,0.4358365,0.9031125
-0.1365117,0.4363927,0.909742
-0.1358978,0.4363855,0.9063258
-0.1351854,0.4377341,0.9025905
-0.1378362,0.4395643,0.9023955
-0.1434291,0.4377423,0.9031939
-0.1449555,0.4362327,0.9032549
-0.1451437,0.4367115,0.9029776
-0.1451673,0.4368541,0.9031634
-0.1417454,0.4358948,0.9068815
-0.1429367,0.4345911,0.91278
-0.1450869,0.4339387,0.912675
-0.1436717,0.4329028,0.9033196
-0.145336,0.4337345,0.8935612
-0.1466118,0.4359113,0.8961632
-0.1492173,0.4354361,0.9018135
-0.1523347,0.4333272,0.9017413
-0.1511336,0.4318444,0.9065354
-0.1523114,0.4319552,0.906487
-0.1530013,0.4319745,0.9014294
-0.1500854,0.4321417,0.9057062
-0.1470006,0.4336172,0.9065023
-0.1448549,0.433646,0.9065295
-0.1473643,0.4330765,0.9113026
-0.1501821,0.4333444,0.9111077
-0.1490272,0.4334336,0.9124127
-0.1468565,0.4332951,0.9101855
-0.1468992,0.4332513,0.9049178
-0.1506739,0.4336543,0.9068608
-0.1519935,0.434483,0.9064606
-0.1502404,0.4371281,0.9035915
-0.150346,0.4400593,0.9021558
-0.1524635,0.4401242,0.9008905
-0.1552819,0.4371014,0.9012186
-0.1540664,0.4323941,0.9005785
-0.1515233,0.4311001,0.9002923
-0.1515329,0.4333993,0.902485
-0.150981,0.4347899,0.9039526
-0.1515607,0.4359413,0.8982724
-0.1516238,0.4380218,0.8923381
-0.1509189,0.441348,0.8981037
-0.1519856,0.4430536,0.9033561
-0.1521188,0.4379944,0.9013483
-0.1529223,0.4322053,0.9034206
-0.1531995,0.4335429,0.9094102
-0.1522348,0.4344504,0.9128778
-0.1534492,0.4322124,0.911798
-0.1549386,0.4336355,0.9067185
-0.1576294,0.4338315,0.9010958
-0.1590632,0.4325259,0.8975748
-0.1561017,0.4342927,0.8978624
-0.1548775,0.4349891,0.9005554
-0.1555312,0.4359907,0.9001426
-0.1547544,0.4348804,0.8987016
-0.1538429,0.4310184,0.8970854
-0.1534572,0.4318742,0.8929922
-0.1518108,0.4325974,0.8942733
-0.1490128,0.4323161,0.8975268
-0.1496057,0.4341527,0.8980438
-0.1501403,0.4341977,0.9039165
-0.1458825,0.4347076,0.9088316
-0.1438915,0.4349675,0.9072525
-0.1470678,0.4330607,0.9070025
-0.1498201,0.4314439,0.9116619
-0.1487971,0.4299755,0.9149422
-0.1485121,0.4312459,0.9100899
-0.1529589,0.4358833,0.905247
-0.1559394,0.4402972,0.9054854
-0.1551278,0.440865,0.9055072
-0.1542371,0.4366045,0.9046781
-0.153783,0.4337072,0.9015294
-0.1521422,0.4348365,0.8985547
-0.1484858,0.4367153,0.8996983
-0.1465537,0.4375196,0.8993009
-0.1470058,0.4371943,0.897976
-0.1474454,0.4375359,0.9013865
-0.1472039,0.4362202,0.9033177
-0.1452369,0.4325714,0.903954
-0.1422468,0.4305115,0.9083151
-0.1396725,0.4303885,0.9084353
-0.1424002,0.4326002,0.9090746
-0.146236,0.4340776,0.9127294
-0.1431331,0.432563,0.9035925
-0.1426729,0.430806,0.8928684
-0.1465188,0.4293205,0.8962403
-0.147294,0.4306024,0.8995847
-0.1457963,0.4322892,0.9002668
-0.1434483,0.4313857,0.9090044
-0.1442857,0.4312649,0.9175686
-0.14468,0.4312907,0.9157203
-0.1403481,0.4345677,0.9080678
-0.1356208,0.439251,0.9015794
-0.1308055,0.4368508,0.9011964
-0.1300508,0.4347203,0.901286
-0.1347447,0.4379008,0.8959179
-0.1398657,0.4417242,0.8949246
-0.1425108,0.4464916,0.8968052
-0.1378654,0.447215,0.8981185
-0.1315779,0.444123,0.9075993
-0.1301062,0.4438489,0.9146105
-0.1297791,0.440416,0.9077361
-0.1325798,0.4369538,0.9013743
-0.1359035,0.4389094,0.9071482
-0.1358759,0.4342064,0.9117891
-0.136371,0.4241556,0.9065086
-0.1353934,0.4185105,0.8989992
-0.1353991,0.4157353,0.8923261
-0.1395511,0.4148794,0.9000702
-0.1400107,0.4191277,0.9143405
-0.1348441,0.4262209,0.9088135
-0.1301392,0.4247976,0.9078435
-0.1313026,0.4237587,0.9186733
-0.1321593,0.4348826,0.916738
-0.1248235,0.4402131,0.9121045
-0.1207053,0.4380229,0.904404
-0.1249598,0.4389729,0.8916385
-0.1261914,0.4408198,0.8895371
-0.1184214,0.44429,0.8910683
-0.1105934,0.4436022,0.8913969
-0.1142863,0.4375014,0.8990716
-0.1193388,0.4352376,0.9090383
-0.1185282,0.4357053,0.9097925
-0.1175183,0.4318801,0.9049961
-0.1142167,0.4265881,0.9043091
-0.1134035,0.4249827,0.905531
-0.1113718,0.4248536,0.9099843
-0.1032717,0.4273786,0.9139173
-0.1004583,0.4283465,0.9005206
-0.09121006,0.4307052,0.8790979
-0.0664734,0.445014,0.8743974
-0.05334887,0.4594835,0.8894231
-0.07363581,0.4696515,0.9219217
-0.1029828,0.4767451,0.953611
-0.1125081,0.4770139,0.9516307
-0.1258523,0.4792924,0.943067
-0.1252626,0.4779124,0.9422265
-0.07366205,0.453466,0.8857707
-0.02912837,0.4068563,0.8178121
-0.02611918,0.3823989,0.8341643
-0.04848799,0.413885,0.8843399
-0.07345605,0.4687695,0.9308669
-0.0731406,0.5162642,0.9841554
-0.08445398,0.5356539,0.9872766
-0.1231166,0.5123099,0.9333941
-0.1660594,0.4932987,0.8607368
-0.2004995,0.4970721,0.8063742
-0.2048309,0.4927439,0.8227186
-0.1956557,0.4872328,0.8421899
-0.1666037,0.4697187,0.8163976
-0.1483976,0.4462087,0.8281198
-0.2236526,0.4695876,0.8514593
-0.2929781,0.5268915,0.8466339
-0.2325893,0.5828508,0.8247592
-0.1608792,0.6155399,0.778647
-0.1666202,0.6175775,0.7852516
-0.1307349,0.6239299,0.8144597
-0.07524056,0.6152314,0.8140981
-0.09937404,0.5781012,0.8483209
-0.1012444,0.5616325,0.8527399
-0.05616674,0.559676,0.8317341
-0.005923482,0.5560222,0.8429785
0.03997257,0.5404039,0.8264164
0.0009949524,0.5011084,0.8298294
-0.02909022,0.5102331,0.8649382
0.0553122,0.6178391,0.8726869
0.1027395,0.7041751,0.8681851
0.03834966,0.6241266,0.8600952
-0.007270445,0.5247051,0.8833663
0.04626639,0.5738668,0.9053262
0.107066,0.5737539,0.8731517
0.1017401,0.4783832,0.8543393
0.05903579,0.4330683,0.8640068
0.024639,0.4036181,0.8662886
0.08494089,0.4411644,0.8668445
0.1607778,0.4961358,0.872658
0.1152516,0.4742468,0.8702141
0.09124924,0.4986376,0.8564376
0.1228234,0.5116378,0.854644
0.09981784,0.4873675,0.8507137
0.08983731,0.5067354,0.8461634
0.09152532,0.5055726,0.853556
0.07988322,0.5089486,0.8490524
0.08670483,0.5101889,0.8519297
0.05804807,0.490913,0.8620563
0.0294167,0.5047884,0.8621437
0.04668745,0.5109874,0.8653448
0.04983991,0.5184806,0.86658
0.03254454,0.5317635,0.8716114
0.01535543,0.5279282,0.8683375
0.0048694,0.5413974,0.8498841
0.002305166,0.5530351,0.8382108
-0.008484734,0.5610249,0.8293232
-0.03015823,0.572355,0.830132
-0.04828185,0.5670337,0.8314688
-0.05711207,0.5700006,0.8245512
-0.0708924,0.5800056,0.8294661
-0.08032509,0.5705508,0.8316564
-0.08521728,0.5354093,0.8363127
-0.107539,0.4989804,0.8526218
-0.1280615,0.5107501,0.8549764
-0.1405758,0.531858,0.8534725
-0.1450402,0.5193376,0.8635939
-0.1356674,0.5400965,0.878025
-0.1340456,0.5728708,0.8870036
-0.1299672,0.5556788,0.8877176
-0.1210315,0.5322465,0.8923467
-0.1175052,0.5038521,0.8963244
-0.1062205,0.4842954,0.8926824
-0.09878087,0.5143518,0.8841189
-0.1009595,0.5388481,0.8633971
-0.1160462,0.5440877,0.8472431
-0.1336702,0.550952,0.8534293
-0.1272536,0.5291815,0.8578466
-0.1314236,0.4952745,0.8541103
-0.1637347,0.4901927,0.865603
-0.1813936,0.4985103,0.8775584
-0.1603358,0.49323,0.8721394
-0.1321457,0.4912322,0.8724413
-0.1434724,0.5038368,0.8825284
-0.1749022,0.512068,0.8948116
-0.1979089,0.5155915,0.9083456
-0.1983952,0.5306648,0.8968407
-0.1657598,0.5581568,0.8591911
-0.1418683,0.5698959,0.8361951
-0.1336679,0.5589744,0.8499293
-0.1290622,0.545299,0.8826695
-0.1428562,0.5107484,0.908546
-0.1506793,0.4425262,0.9194259
-0.1497262,0.3679969,0.899139
-0.1625171,0.3211145,0.865081
-0.1880477,0.303202,0.8629837
-0.2068386,0.2897053,0.8719035
-0.2129063,0.3002646,0.8835891
-0.2152828,0.3325506,0.9016227
-0.1553422,0.365383,0.8823006
-0.06981602,0.434153,0.8622564
-0.09252732,0.4968108,0.8851648
-0.1518915,0.4994669,0.9030346
-0.168222,0.4680959,0.901613
-0.1820806,0.412757,0.8967682
-0.15282,0.4043541,0.8786783
-0.1103971,0.4571644,0.8541838
-0.1207657,0.4896831,0.8546598
-0.1379345,0.5215479,0.8846558
-0.1494207,0.5446206,0.9032427
-0.1312072,0.5438869,0.883831
-0.08985026,0.550999,0.8593254
-0.09253374,0.5511732,0.8630079
-0.09931545,0.5663608,0.8696032
-0.09891167,0.5779005,0.8662653
-0.1148142,0.5669129,0.8649965
-0.1188609,0.56803,0.8493785
-0.1314736,0.5605638,0.8351221
-0.1442678,0.5600972,0.8464519
-0.1317145,0.5659875,0.8558288
-0.1125795,0.5537583,0.8525071
-0.0988131,0.5444848,0.8536335
-0.1016818,0.5336642,0.8578895
-0.1049055,0.5425209,0.8574849
-0.09512734,0.5627244,0.8583678
-0.09085662,0.5597262,0.8582151
-0.09180257,0.5583055,0.8500026
-0.09364386,0.5483879,0.8400773
-0.1037863,0.527111,0.8340201
-0.1200249,0.5251309,0.8425675
-0.1317692,0.5310874,0.8575188
-0.1355769,0.5300633,0.8600657
-0.1301604,0.5229993,0.8603584
-0.1196433,0.5153963,0.8611716
-0.1157082,0.5145219,0.8610397
-0.1106404,0.5208164,0.8624044
-0.1009704,0.5295371,0.8638395
-0.1022049,0.5337747,0.8683273
-0.1016562,0.531905,0.8653692
-0.08523087,0.5270063,0.8562483
-0.07719784,0.5217501,0.8524356
-0.08703834,0.5161461,0.8577493
-0.09580581,0.5142977,0.8708847
-0.09697288,0.5134869,0.8735558
-0.09766522,0.5069703,0.8713224
-0.1013773,0.5071993,0.8739834
-0.1032142,0.5111672,0.8701142
-0.1012059,0.508781,0.8703652
-0.100767,0.5101097,0.8760585
-0.1079023,0.5113012,0.8775414
-0.1164605,0.5115823,0.878539
-0.1135487,0.5143829,0.8756765
-0.108937,0.5120702,0.8676492
-0.1087827,0.5085527,0.857319
-0.1039141,0.5061359,0.8541345
-0.1034586,0.5063721,0.8601621
-0.106941,0.5092007,0.8614052
-0.1037846,0.5090209,0.8627097
-0.1035657,0.511211,0.8666121
-0.1079647,0.5137437,0.8662749
-0.1087931,0.5133276,0.8666969
-0.1086763,0.5127145,0.8638358
-0.11044,0.5106788,0.8600845
-0.1135032,0.5134911,0.861973
-0.1157411,0.5164768,0.8637075
-0.115049,0.5108686,0.8660056
-0.1142365,0.503721,0.8673084
-0.1138718,0.499663,0.8713883
-0.1131743,0.5007312,0.8785556
-0.1120911,0.5017835,0.8728691
-0.108702,0.4996113,0.8635751
-0.1086201,0.5036303,0.8624716
-0.1160109,0.5092263,0.8609193
-0.1243699,0.5113367,0.8622669
-0.126923,0.5148773,0.8657405
-0.124319,0.5147486,0.8658747
-0.1248502,0.51271,0.8694257
-0.1276797,0.5144063,0.8702014
-0.1259254,0.5148457,0.8586987
-0.1191381,0.5168584,0.8497711
-0.1118129,0.5210452,0.8575221
-0.1171526,0.5197078,0.8699877
-0.1284698,0.5184325,0.8752429
-0.1275401,0.5196738,0.8776505
-0.1227959,0.5162501,0.8728093
-0.1205431,0.5123567,0.8634884
-0.1223585,0.5120997,0.8635829
-0.1276972,0.5125724,0.8617628
-0.1272016,0.5119828,0.8589521
-0.1312881,0.5085529,0.8647944
-0.1387711,0.5051671,0.8651588
-0.1368649,0.5058878,0.867339
-0.1346273,0.5077374,0.8732335
-0.1325687,0.5073616,0.867954
-0.1306567,0.5082178,0.8603628
-0.1308238,0.5108926,0.856899
-0.1273917,0.5109021,0.8636336
-0.1246573,0.5116398,0.8726543
-0.1221269,0.5134474,0.8632081
-0.1210443,0.5121869,0.8558912
-0.1223609,0.5122597,0.8638969
-0.1200889,0.5129583,0.8691527
-0.1207154,0.5121205,0.8714223
-0.1229038,0.5126543,0.8711425
-0.1235058,0.5125704,0.8659408
-0.1260468,0.5122972,0.8637991
-0.1254134,0.5130752,0.8647453
-0.1261106,0.5141429,0.8663812
-0.1277782,0.5154979,0.8670566
-0.1204565,0.5134157,0.8642373
-0.1112762,0.509632,0.8624429
-0.1096296,0.5096407,0.8645085
-0.1126794,0.5117241,0.8730798
-0.1134825,0.513031,0.8820431
-0.11368,0.5126774,0.8760982
-0.1161201,0.5119131,0.8671716
-0.1156999,0.5118352,0.8685807
-0.1156918,0.5110745,0.8672144
-0.1181582,0.512202,0.8635848
-0.117042,0.5158898,0.8646377
-0.1141777,0.5173833,0.8666514
-0.112325,0.5165172,0.8706543
-0.1100008,0.5155064,0.8720598
-0.1048136,0.5151007,0.8690319
-0.09935109,0.5153063,0.866432
-0.1007387,0.5150918,0.8613868
-0.1028838,0.5144098,0.8584881
-0.1008864,0.5134302,0.8594569
-0.1030355,0.5128449,0.8603233
-0.1061641,0.5125229,0.8644974
-0.1086428,0.5125575,0.8651272
-0.1182357,0.5141442,0.863794
-0.1261151,0.5142455,0.8681103
-0.1264952,0.5128483,0.868373
-0.1277956,0.5137709,0.8656898
-0.1282382,0.5143053,0.8653318
-0.125362,0.5124672,0.8656782
-0.1241295,0.5114358,0.867284
-0.1233911,0.5119315,0.8655854
-0.1214805,0.5131467,0.8635758
-0.1211053,0.5156319,0.8641461
-0.1208223,0.5179835,0.8639435
-0.1197475,0.5175348,0.8658288
-0.1202787,0.5144997,0.8673124
-0.121406,0.5111904,0.8667642
-0.1228989,0.5085177,0.8678358
-0.125316,0.5070265,0.8697382
-0.1272215,0.5081098,0.8689271
0.04193626,0.6097724,0.7368005
0.05110018,0.6456164,0.7296799
0.05820464,0.6465925,0.7175826
0.06554912,0.6520372,0.6975472
0.06698596,0.6563516,0.714542
0.05510967,0.6621215,0.7416582
0.06061091,0.6746385,0.74355
0.0603847,0.6671259,0.7450544
0.07017305,0.6675174,0.74162
0.09984296,0.6815117,0.7212938
0.1246861,0.7098361,0.6885573
0.1521608,0.7637673,0.6561306
0.17023,0.7886435,0.6283233
0.1779107,0.8098028,0.5998372
0.1601823,0.857422,0.5936408
0.1330691,0.8634708,0.583357
0.1402959,0.8584758,0.5449448
0.1290448,0.8741955,0.5236959
0.1086107,0.8730621,0.5091462
0.142156,0.8776676,0.4921984
0.1733677,0.8897098,0.4862122
0.1678688,0.9079624,0.4606888
0.1838205,0.9653661,0.4046187
0.2406354,1.025698,0.3705006
0.293724,1.034184,0.4532961
0.2791664,0.9941861,0.5596344
0.15609,0.8995311,0.5470785
0.03231809,0.7752194,0.5537468
0.05610918,0.7570066,0.5839886
0.1234347,0.8107598,0.5307515
0.1155917,0.7840793,0.5224839
0.1173659,0.7820363,0.5507692
0.1315936,0.8319847,0.576822
0.1282531,0.8405213,0.6655188
0.1375331,0.8606074,0.697891
0.1294193,0.8365134,0.6677341
0.1266491,0.7609875,0.677314
0.1287311,0.6947949,0.6847523
0.09888595,0.6156035,0.6852103
0.07627411,0.6057738,0.6968208
0.04948183,0.6287416,0.7120878
0.03206646,0.6306846,0.7271596
0.04194457,0.6754973,0.7331568
0.05301869,0.7081137,0.7283931
0.09422347,0.7247884,0.7064221
0.1303931,0.7420292,0.6872234
0.1373927,0.7438446,0.6686381
0.1429599,0.7502091,0.6586892
0.1380481,0.7421511,0.6659419
0.1372326,0.7450222,0.6484136
0.1318058,0.7571318,0.6441169
0.1228151,0.7636232,0.6562973
0.1262415,0.7827391,0.6417068
0.1311056,0.7857867,0.6397969
0.1409464,0.785858,0.6365006
0.1373059,0.7854767,0.6269336
0.1287695,0.7772499,0.6345876
0.1305373,0.7781663,0.6347517
0.1213874,0.7650254,0.6469666
0.1155792,0.7519651,0.6635868
0.1162222,0.7532055,0.6587461
0.1086018,0.754872,0.6629781
0.1000362,0.7570419,0.6760274
0.1013266,0.7559093,0.6735887
0.1084756,0.7578374,0.6601917
0.1064978,0.7560694,0.6547262
0.1064576,0.7540229,0.6565464
0.1097459,0.757253,0.6582524
0.108943,0.7547093,0.6599211
0.1138947,0.7576311,0.6570588
0.1151382,0.759533,0.6538399
0.1163182,0.7576591,0.6527622
0.1205702,0.7613451,0.6550105
0.1183375,0.7628249,0.6565046
0.1190508,0.7639457,0.6564011
0.1145787,0.7590074,0.6605877
0.1051378,0.7517957,0.6584584
0.1034307,0.7511083,0.6603236
0.1034902,0.7489237,0.6663295
0.1052873,0.7494395,0.6633879
0.1065325,0.7528539,0.6654594
0.1093554,0.7531282,0.6647056
0.1131645,0.749754,0.6639678
0.1091096,0.7473184,0.6681162
0.1044645,0.7491169,0.663259
0.1007438,0.7488283,0.6641623
0.101572,0.7493947,0.6653425
0.1062923,0.7513672,0.6617909
0.1016661,0.7506751,0.6656773
0.09911396,0.7509882,0.6655108
0.1025938,0.7523969,0.666302
0.1046865,0.7546832,0.668221
0.1090891,0.7565457,0.6651569
0.1087459,0.7589104,0.6669497
0.1081458,0.7605116,0.6652323
0.1126566,0.7570996,0.6623852
0.1110787,0.7544633,0.6646841
0.108296,0.7538617,0.6638611
0.1085753,0.7537287,0.6651734
0.1073592,0.7539545,0.6685593
0.1058607,0.7530446,0.6692593
0.1034999,0.75436,0.666342
0.1038494,0.7547341,0.6620509
0.1061851,0.7536711,0.6640249
0.1034726,0.7554182,0.665946
0.1003211,0.7542595,0.6657066
0.1012599,0.7473331,0.6683172
0.1028204,0.7410867,0.6683659
0.102758,0.743931,0.6674831
0.1013499,0.749426,0.6674786
0.09947404,0.7480048,0.6660387
0.0979195,0.7502893,0.6656931
0.09886378,0.7549919,0.6653045
0.1009024,0.7536752,0.6650989
0.1022141,0.7533782,0.666476
0.1056614,0.7527393,0.6668732
0.1095722,0.7519667,0.6664573
0.1095204,0.7526645,0.6657706
0.1033919,0.7508407,0.6649606
0.09580657,0.7521297,0.6654217
0.0949929,0.7536904,0.6661552
0.09815322,0.7525841,0.6657515
0.09874114,0.7550909,0.6642424
0.09585709,0.7576153,0.6642287
0.09350847,0.7569125,0.6685146
0.09532538,0.7539868,0.6723665
0.09732474,0.7520046,0.6703997
0.09911731,0.751442,0.667088
0.1027093,0.7497191,0.6682759
0.1038537,0.7523786,0.6715847
0.1037252,0.7555886,0.6714821
0.1044288,0.7529715,0.6687482
0.1022396,0.7520589,0.66748
0.1004623,0.7531977,0.66687
0.1013672,0.7525327,0.6680382
0.0996757,0.7517832,0.6714737
0.09694005,0.75104,0.6706774
0.09417393,0.7503556,0.666939
0.09071824,0.7506231,0.6637103
0.09207985,0.753761,0.6611559
0.09573868,0.7582266,0.6630272
0.09711669,0.757871,0.6651223
0.09942002,0.7560784,0.6659182
0.1011338,0.7587647,0.6679769
0.1012633,0.7589372,0.6679649
0.1025829,0.754256,0.6687508
0.1020972,0.7491342,0.6686349
0.1008118,0.7443802,0.6677043
0.1016254,0.746836,0.6722612
0.1017262,0.7518329,0.6735587
0.1030605,0.7491389,0.6671702
0.1045601,0.7476841,0.6614843
0.1023598,0.7480078,0.6613406
0.101501,0.7483219,0.6625649
0.1063205,0.7527273,0.6618054
0.1127968,0.7517415,0.6641812
0.1118143,0.7486427,0.663144
0.101866,0.7517984,0.6619055
0.09162567,0.7578248,0.6761016
0.08941963,0.7657283,0.6871145
0.09291202,0.765544,0.6786742
0.09191607,0.7550246,0.670769
0.0917074,0.7469061,0.674646
0.09797608,0.7447992,0.6744727
0.1007289,0.7467883,0.6678866
0.09771509,0.7502469,0.6687208
0.09490102,0.7578405,0.6716859
0.09927865,0.7668336,0.674106
0.1095267,0.7645811,0.6738223
0.120024,0.7541588,0.6656173
0.128303,0.7416327,0.6635648
0.122145,0.73222,0.6682335
0.1055257,0.732965,0.6735038
0.09429393,0.7313073,0.6789691
0.09159526,0.7253359,0.6843812
0.0969281,0.7263771,0.6910666
0.09689792,0.7284785,0.6896096
0.09498165,0.7315112,0.6887521
0.1027115,0.7370245,0.6882884
0.1053968,0.7399098,0.6763439
0.1037538,0.7460655,0.6692888
0.1022291,0.753822,0.6670088
0.09920859,0.7567375,0.6668049
0.0994505,0.7602577,0.6675081
0.0993588,0.7628424,0.6601991
0.1046592,0.762726,0.6559981
0.1105923,0.7661513,0.6489853
0.1059449,0.7664505,0.6422611
0.1014379,0.7636111,0.6519415
0.1013115,0.7661492,0.6582092
0.1032464,0.7668083,0.6513926
0.1048868,0.770499,0.6458606
0.1050213,0.7767539,0.6477212
0.1084535,0.7688918,0.6513189
0.1125125,0.7616509,0.6549636
0.1116064,0.7651439,0.6588794
0.1083052,0.7652917,0.6572401
0.1064087,0.7627258,0.659429
0.1026257,0.758801,0.6666254
0.09934003,0.7506948,0.667371
0.09776138,0.7459155,0.6672841
0.09399813,0.7467719,0.6700894
0.094327,0.7473365,0.6723849
0.09586301,0.7505479,0.668317
0.09808487,0.7548197,0.6617762
0.1031524,0.7536637,0.6637702
0.09981908,0.7547734,0.6640846
0.09838272,0.7579752,0.6584134
0.1076025,0.7584927,0.6560396
0.113103,0.7602698,0.6564964
0.1099881,0.7602883,0.6575967
0.1062649,0.7603019,0.6563135
0.1087956,0.7636004,0.6537945
0.1083597,0.7643251,0.652595
0.1025595,0.7627683,0.6520577
0.1008775,0.7622065,0.6533903
0.1007898,0.7624499,0.653175
0.1018529,0.7618102,0.6546908
0.1016918,0.7575426,0.6603745
0.1003568,0.7527461,0.6625384
0.1009588,0.7536067,0.6642996
0.09726227,0.7569699,0.6690826
0.09449427,0.7566422,0.6727012
0.09511276,0.7563992,0.6710588
0.09704407,0.7573251,0.6646743
0.1027098,0.754845,0.6624664
0.1039182,0.7537507,0.6632168
0.1030568,0.7566092,0.6586143
0.1047098,0.7592386,0.6527324
0.1037902,0.7604479,0.6532746
0.1017053,0.7601146,0.6572934
0.0982735,0.7620917,0.6624719
0.09629519,0.7645947,0.6705036
0.0986557,0.7612502,0.6695508
0.1009675,0.7583222,0.6634411
0.1015984,0.7596848,0.6661052
0.1005357,0.7593363,0.6659629
0.09954302,0.7576164,0.6658664
0.1000038,0.7583013,0.6690419
0.09984641,0.7593059,0.6630222
0.0980743,0.7606052,0.6592756
0.09665054,0.7634579,0.6615053
0.09803928,0.7620694,0.6603892
0.1019665,0.7571207,0.6566278
0.1053753,0.7544125,0.6534596
0.1046804,0.753223,0.658335
0.1032243,0.752893,0.6637002
0.1046129,0.7525109,0.6617304
0.1043618,0.7523367,0.6619672
0.1036529,0.7514039,0.662799
0.1046064,0.7492123,0.6594332
0.1040237,0.7508266,0.6584322
0.1032977,0.7528068,0.6637644
0.1003656,0.7535714,0.6675684
0.09456095,0.7568241,0.6616573
0.09332575,0.7583435,0.6558997
0.09500839,0.7608841,0.6603259
0.09483998,0.7649456,0.6643011
0.09649569,0.7638679,0.6635421
0.1008273,0.7618548,0.6658373
0.1034648,0.7595283,0.6658154
0.1035726,0.7545312,0.663317
0.1035312,0.7531343,0.6642883
0.1036281,0.7546159,0.6637516
0.1040924,0.7542132,0.6634658
0.1045654,0.7544927,0.6634956
0.1035699,0.7570055,0.6617367
0.1023045,0.7585641,0.6626492
0.1011137,0.7557747,0.6627655
0.1009148,0.7518729,0.6622786
0.1019143,0.7524617,0.6637273
0.1008942,0.7534298,0.6620281
0.0993437,0.7530434,0.6541653
0.09848069,0.7576791,0.6453595
0.09808607,0.765879,0.6473404
0.09909554,0.7692061,0.6542872
0.09928106,0.7637277,0.6558504
0.1025416,0.758631,0.6580819
0.1093081,0.7613828,0.6582155
0.1105651,0.7619547,0.6573878
0.1066669,0.7587867,0.6597176
0.1017357,0.7581259,0.6595602
0.09884194,0.7564827,0.6641098
0.100753,0.7565795,0.6683527
0.1019706,0.7588497,0.6624827
0.09931346,0.758989,0.6590391
0.0985105,0.760091,0.6588404
0.1023789,0.7596542,0.6573858
0.1056303,0.7573441,0.6580915
0.1055808,0.7567002,0.6595665
0.1069436,0.7555117,0.6625274
0.1095478,0.7546273,0.6678575
0.1091523,0.7539323,0.66958
0.1084234,0.7540303,0.6652247
0.1082002,0.7555787,0.6640193
0.1052149,0.7556735,0.6647755
0.1033782,0.7567122,0.6618667
0.1040456,0.758213,0.6598814
0.103401,0.7584138,0.655992
0.1026873,0.7589241,0.6555071
0.1036342,0.7600016,0.6588296
0.1056,0.7624776,0.6563926
0.1060938,0.7620684,0.658378
0.1061102,0.7591455,0.6611957
0.1074309,0.7585678,0.657918
0.1069905,0.7571242,0.6586098
