accx,accy,accz
0.07001325,0.6558813,0.7746897
0.08368799,0.6551307,0.7695953
0.09106509,0.6549654,0.7754359
0.08254737,0.6556014,0.7760378
0.07935098,0.652624,0.7732121
0.08150955,0.6517863,0.7736079
0.08459017,0.6518029,0.7661112
0.08940296,0.6521547,0.7619233
0.09257267,0.6555738,0.762634
0.09824704,0.6555417,0.763101
0.1036427,0.6583599,0.7647882
0.1034273,0.660967,0.7628854
0.1016509,0.6600335,0.761188
0.1010503,0.6617265,0.7600066
0.09800087,0.6575068,0.7625972
0.09236015,0.6551678,0.7683916
0.08571294,0.6582731,0.7667762
0.0758109,0.6559198,0.7661636
0.07162247,0.6539006,0.7698022
0.07794999,0.6512403,0.7720649
0.08639761,0.6482592,0.7737861
0.09364243,0.6480975,0.7711627
0.09633584,0.6464783,0.7669634
0.09625079,0.6475847,0.764725
0.09928259,0.650085,0.7637085
0.1019334,0.652577,0.7625706
0.1003216,0.6556086,0.7585273
0.09808351,0.6543831,0.7594407
0.09636886,0.6558211,0.7645058
0.09244665,0.6609251,0.763727
0.09051648,0.6617304,0.7621963
0.09066246,0.6610057,0.761944
0.08833605,0.6609801,0.7606418
0.08710889,0.6611484,0.759804
0.08960371,0.6612506,0.7599186
0.0931811,0.6603619,0.7617876
0.09480898,0.658043,0.7601964
0.0967678,0.6534446,0.757746
0.1006457,0.6513297,0.7587938
0.1019983,0.6523738,0.7585513
0.1003409,0.6512829,0.7609902
0.09848193,0.6507266,0.7636934
0.09841836,0.6509792,0.7622815
0.09883447,0.649548,0.7623247
0.09770285,0.6499568,0.7629887
0.09497976,0.6513433,0.7642738
0.09088676,0.6513597,0.7658267
0.08996358,0.6504535,0.7650432
0.0910858,0.6470632,0.7632544
0.09194111,0.6466622,0.76233
0.09823053,0.6527418,0.764253
0.1030181,0.6542305,0.7660485
0.0970375,0.652433,0.7653293
0.08867088,0.6568131,0.7649194
0.08495916,0.6581821,0.7654724
0.08277788,0.6556783,0.765374
0.0800529,0.6563887,0.7650223
0.07758871,0.6544789,0.7656688
0.07607836,0.6536456,0.766132
0.07555564,0.6566602,0.7667978
0.07566383,0.6571584,0.7670076
0.08041392,0.6571313,0.7667873
0.09000603,0.6568007,0.7695394
0.09334474,0.6567823,0.7717436
0.08859975,0.6564526,0.7717767
0.08605117,0.6520774,0.7749592
0.08812511,0.648648,0.7782088
0.0903445,0.6483073,0.7725492
0.09291107,0.647292,0.7638629
0.09570825,0.6455561,0.7644545
0.09452552,0.6480499,0.7670041
0.09363379,0.6517763,0.7675516
0.09519268,0.6496873,0.772394
0.09328707,0.6495238,0.7740822
0.08975213,0.6517575,0.7717623
0.0864384,0.6507253,0.7689609
0.08490622,0.6498461,0.7606641
0.08353665,0.6484386,0.7544821
0.07888569,0.6498919,0.7585546
0.08042423,0.652407,0.7653408
0.08503103,0.6492756,0.7679936
0.08523223,0.6475146,0.7690352
0.08727831,0.6480427,0.771376
0.08780965,0.6471728,0.7729785
0.08772412,0.6480929,0.771455
0.08838719,0.6499907,0.7672345
0.08642308,0.6503388,0.7642501
0.08805299,0.6496296,0.7651774
0.08887918,0.6491003,0.7677332
0.08715287,0.6486423,0.767771
0.0844662,0.6492481,0.764295
0.07854965,0.6520109,0.7629183
0.08068683,0.6571281,0.7699131
0.08873543,0.6615642,0.7801209
0.1039074,0.6551352,0.7799905
0.12235,0.6459941,0.7721912
0.1056544,0.6495881,0.7666376
0.0769525,0.6506975,0.7619111
0.07976589,0.6465602,0.761348
0.07601917,0.6509215,0.7617359
0.06220856,0.6501921,0.7592214
0.06956316,0.6425034,0.7632123
0.07507962,0.6391476,0.766747
0.07574337,0.6369504,0.7631824
0.07997487,0.6391566,0.7629522
0.07601528,0.6435226,0.7698174
0.07512237,0.6461755,0.776144
0.07706654,0.6496873,0.7737585
0.07961867,0.6500443,0.7695032
0.09258201,0.646795,0.7677712
0.1007367,0.6332115,0.7639511
0.1013776,0.6195971,0.7656704
0.1074478,0.634575,0.7720269
0.1087746,0.660835,0.7782494
0.09046029,0.667105,0.7939567
0.07059213,0.6582779,0.8036231
0.07925077,0.6490157,0.7769065
0.08515641,0.645039,0.7467428
0.05621976,0.6408544,0.7625463
0.03734322,0.6332881,0.7780728
0.04586532,0.6308973,0.7632616
0.04784995,0.6404735,0.769046
0.04240345,0.6539697,0.7825186
0.04577706,0.6564551,0.7883719
0.05586716,0.6557266,0.805177
0.06633595,0.6597485,0.800257
0.07804896,0.6547801,0.7824721
0.08567339,0.6475268,0.7730622
0.08512556,0.6470704,0.7650877
0.08264733,0.6464581,0.7702879
0.08115893,0.6476883,0.7685364
0.0834738,0.6464772,0.7636174
0.08597432,0.6445377,0.7683244
0.08672664,0.6458322,0.766103
0.08758495,0.6442995,0.7742121
0.0842182,0.6470762,0.783806
0.07966522,0.6510452,0.7826459
0.07155774,0.6498329,0.7847017
0.06281924,0.6496177,0.7793787
0.06001331,0.6480269,0.7701711
0.05632364,0.6447108,0.765815
0.05767698,0.639736,0.7651791
0.06317622,0.634159,0.7670055
0.06698454,0.6341681,0.7701657
0.07510572,0.6380453,0.7774965
0.08187471,0.6425577,0.7775318
0.08465202,0.6464864,0.7738512
0.08479995,0.6495678,0.7756876
0.08347334,0.6533072,0.7744101
0.08372927,0.6565935,0.7728209
0.08113327,0.6566497,0.7703794
0.07938112,0.6542311,0.7653633
0.07683408,0.6517826,0.7631833
0.07048978,0.6503657,0.7634386
0.07146269,0.6504464,0.7664038
0.07270374,0.650466,0.7701241
0.06932476,0.6510752,0.7759962
0.07015853,0.6493667,0.7847631
0.07003382,0.6459021,0.7893479
0.07044516,0.649125,0.7839858
0.07416574,0.6510059,0.774279
0.07576562,0.6471268,0.7751523
0.07827203,0.6448767,0.7768398
0.07933721,0.6427297,0.7718553
0.07880784,0.6418828,0.7738596
0.080803,0.6417226,0.7724744
0.07946247,0.6419839,0.7688457
0.07998068,0.6460195,0.7706167
0.08493837,0.6498946,0.7633687
0.08389183,0.6509022,0.7594663
0.07972581,0.6498209,0.7712837
0.07515867,0.6505816,0.7821231
0.07284831,0.6517187,0.7775405
0.07454438,0.6481829,0.7668645
0.07155339,0.6454044,0.7638324
0.0715217,0.6455731,0.7608867
0.07556555,0.6463562,0.7611385
0.07452708,0.6477565,0.7626819
0.0767322,0.6486828,0.7593632
0.08274155,0.6478023,0.7629503
0.08935175,0.6447243,0.7632485
0.09058713,0.6441751,0.7611491
0.08422972,0.6465804,0.7640617
0.08343563,0.6476178,0.7628749
0.08071911,0.6471324,0.7667355
0.07466892,0.6446893,0.7715554
0.07639884,0.6422028,0.7722762
0.0768795,0.6418812,0.7727637
0.07579711,0.64521,0.7680785
0.07575575,0.649731,0.7657695
0.07452864,0.6487785,0.7655113
0.07525714,0.6469631,0.7673392
0.07632236,0.6474911,0.7711314
0.07836421,0.6469564,0.7680894
0.07990723,0.6473018,0.7671122
0.07904972,0.647183,0.7685644
0.07936493,0.6460749,0.7695077
0.08105757,0.6459696,0.7734621
0.0821698,0.6466845,0.7724216
0.08027628,0.6485734,0.7685266
0.07860256,0.6490072,0.7659039
0.08101076,0.6483225,0.7653991
0.08266449,0.6487328,0.7703648
0.08026492,0.6487897,0.7720147
0.07597436,0.6492574,0.7721669
0.07236613,0.6492956,0.776952
0.07136742,0.64693,0.7710746
0.07258242,0.6441874,0.7611261
0.0729784,0.6429673,0.7654949
0.07444566,0.6430822,0.7682545
0.07754951,0.6432583,0.7668112
0.07664933,0.6436606,0.7723239
0.07628333,0.6443105,0.7734692
0.08057633,0.6446144,0.7712912
0.0829013,0.6463797,0.7725163
0.08159491,0.6479013,0.7721518
0.07844278,0.6473067,0.7711256
0.07530589,0.6479429,0.7708627
0.07456442,0.649063,0.7716009
0.0759248,0.6486167,0.7724964
0.07682656,0.6479052,0.7706302
0.07530111,0.6460289,0.7667731
0.07454862,0.6440119,0.7642324
0.07521863,0.645822,0.7655916
0.07494024,0.6484517,0.7685887
0.07535554,0.6471429,0.7700918
0.07681766,0.6466053,0.7705763
0.07808056,0.6478683,0.7707946
0.07719237,0.6465839,0.770973
0.07577989,0.6456595,0.7710071
0.07744689,0.6460595,0.7717762
0.07833283,0.6475304,0.7735245
0.07749794,0.6498534,0.7741295
0.07710817,0.6499328,0.7743306
0.0742638,0.6501545,0.7747603
0.0714128,0.6501456,0.7724649
0.07399634,0.6495675,0.769941
0.07812631,0.6502622,0.7715446
0.07779345,0.6485646,0.773131
0.07561291,0.6464008,0.7719289
0.0752414,0.6455596,0.7719795
0.07753838,0.6454247,0.7724577
0.08125834,0.6463917,0.7712251
0.08055343,0.6459411,0.7714861
0.07691114,0.6474476,0.7725585
0.07515954,0.6492317,0.7722954
0.07436938,0.6466055,0.7724523
0.07559064,0.6452831,0.7740161
0.07706987,0.6469307,0.7765192
0.07745052,0.6486464,0.7796144
0.07661163,0.6483313,0.7826952
0.07375665,0.6457025,0.7808206
0.07390095,0.6437842,0.7734819
0.07436955,0.6440513,0.7694149
0.07398823,0.6452196,0.7701214
0.07755767,0.6453258,0.7704771
0.0787034,0.6470705,0.7686545
0.07817041,0.649703,0.7685166
0.07934564,0.6491719,0.7706272
0.07737054,0.6485302,0.7691166
0.07545558,0.6482585,0.7690145
0.07549707,0.647704,0.7718544
0.07499301,0.6472349,0.773068
0.07495404,0.6467528,0.7760406
0.07615762,0.6476352,0.7743097
0.0776829,0.6475394,0.7675185
0.07759725,0.6483319,0.766465
0.07600139,0.649395,0.7749976
0.0747616,0.647261,0.7850357
0.0768881,0.6476225,0.7765979
0.08066142,0.6485708,0.7651034
0.08025116,0.6472271,0.7705215
0.07676357,0.647191,0.7706941
0.07397984,0.6463846,0.7690892
0.07487352,0.6463323,0.7752016
0.07769951,0.6478757,0.7744805
0.07748747,0.6483114,0.7700109
0.07604959,0.6495922,0.7651428
0.07492425,0.6501662,0.763737
0.0766145,0.6480562,0.7666417
0.08085636,0.6465753,0.764824
0.08096072,0.6471578,0.7655949
0.08017,0.6475656,0.7698386
0.08085338,0.6469985,0.7720687
0.08033648,0.6472024,0.773309
0.08084221,0.6474038,0.7715432
0.08148407,0.6470267,0.7720636
0.08169708,0.6473225,0.7729542
0.08030906,0.6465343,0.7723223
0.07732852,0.6435347,0.7771343
0.07730353,0.6414233,0.7805703
0.07709439,0.6447205,0.7785771
0.07479697,0.648986,0.7752626
0.07381144,0.6463963,0.7733415
0.07364163,0.6442975,0.7741171
0.07532425,0.645614,0.7722284
0.07988044,0.6431943,0.7676704
0.08279079,0.6426024,0.7648858
0.07942479,0.6454993,0.7647768
0.07515999,0.6461013,0.7657646
0.07631406,0.6461706,0.7653269
0.07701304,0.6465514,0.7659965
0.07563399,0.6474259,0.767042
0.07555785,0.647787,0.7656635
0.07375912,0.6474273,0.7648742
0.07204441,0.647889,0.7667497
0.07234527,0.6453685,0.7725601
0.07205843,0.643611,0.7777504
0.07299013,0.6466819,0.773666
0.07608727,0.6477341,0.7687019
0.07954838,0.646003,0.7738034
0.07952908,0.644556,0.7766808
0.07567005,0.6441272,0.7720257
0.07452308,0.644443,0.7707493
0.07614952,0.644407,0.7707439
0.07742457,0.6472031,0.7696122
0.07735693,0.6513409,0.7695839
0.07547158,0.6506525,0.7694183
0.07468405,0.6489287,0.7714597
0.07436738,0.6500797,0.7732341
0.07467495,0.6479921,0.7738608
0.07642701,0.6431796,0.7757037
0.07853804,0.641435,0.776079
0.08329139,0.6405164,0.77685
0.08442827,0.6402065,0.7797232
0.08026519,0.6423965,0.7829382
0.07900014,0.6471575,0.7833591
0.07750011,0.6518611,0.7770922
0.07621134,0.6500527,0.7676825
0.07709244,0.647317,0.7633033
0.07450302,0.6493224,0.767143
0.07186688,0.6502531,0.7707223
0.06993801,0.6501616,0.7697139
0.06540543,0.6501394,0.7727967
0.06439209,0.6515421,0.7764617
0.06848157,0.6564811,0.7738449
0.07245256,0.6590463,0.7718493
0.07528833,0.6554177,0.7721569
0.07575695,0.6496081,0.7711242
0.07503703,0.6473276,0.7698146
0.07904167,0.6476456,0.7696511
0.08398936,0.6485813,0.7693904
0.08467042,0.6505374,0.7677207
0.08473616,0.6484431,0.7682231
0.0844278,0.6453779,0.7723877
0.08231807,0.6449818,0.7756155
0.07862758,0.6422524,0.7763575
0.07576102,0.6414373,0.7763043
0.07593447,0.6427138,0.7762691
0.07487556,0.6428653,0.7755789
0.07286116,0.644738,0.7745701
0.07330497,0.6431943,0.7749953
0.07312968,0.6407776,0.7752319
0.07171678,0.6448448,0.7747689
0.07241827,0.6479751,0.7751125
0.0746067,0.6472206,0.7750194
0.07632796,0.6470828,0.7748965
0.07777795,0.647268,0.7747661
0.07794966,0.6472636,0.7729451
0.0776151,0.6475352,0.7708145
0.07811214,0.6489967,0.7707291
0.07855953,0.6500797,0.7728688
0.07945266,0.6474474,0.7745828
0.0790152,0.6453688,0.7746667
0.07700568,0.6501827,0.7731481
0.076104,0.6576023,0.7700954
0.07649001,0.6584117,0.7699943
0.07899097,0.6509041,0.7717941
0.08257178,0.640668,0.771097
0.08500419,0.6327165,0.7733028
0.08396107,0.6260879,0.7782121
0.07672715,0.6212716,0.7812206
0.06699533,0.6230432,0.7850975
0.06297751,0.6289453,0.785918
0.066718,0.6374968,0.7827286
0.070297,0.6509865,0.7794728
0.07445016,0.6641091,0.7714815
0.08187922,0.6711236,0.7665906
0.08164838,0.6712685,0.7696378
0.08128118,0.6704515,0.7664796
0.08776517,0.6692947,0.7619365
0.08841717,0.6599102,0.767211
0.08987052,0.6491156,0.7769526
0.09060039,0.645273,0.7828445
0.08052408,0.6374596,0.7743677
0.0746414,0.6225886,0.7630383
0.07606385,0.6217828,0.768526
0.0770643,0.6321073,0.7734143
0.07747028,0.634191,0.7706521
0.07703499,0.6422284,0.7732553
0.07628228,0.6552531,0.7722603
0.0724305,0.6659203,0.7701424
0.07179602,0.6764895,0.7718984
0.0778087,0.6688314,0.7699654
0.08395455,0.661532,0.770234
0.08903872,0.6621489,0.7679143
0.08813739,0.6518168,0.7638963
0.08713652,0.6436832,0.769608
0.09002063,0.6293641,0.7745995
0.08773766,0.6190367,0.7760393
0.0854992,0.624545,0.7785888
0.08184977,0.6227378,0.7796854
0.07551626,0.6276716,0.7790297
0.07716671,0.6366969,0.7766664
0.0792648,0.6435044,0.7752876
0.07708853,0.6563388,0.7745951
0.07859301,0.6551687,0.7740033
0.08022791,0.6537538,0.7710334
0.07941049,0.6594041,0.766528
0.07993065,0.6559831,0.7695456
0.0793,0.6542182,0.7723758
0.07920261,0.6526905,0.7692446
0.0834744,0.6500461,0.7689963
0.08659979,0.6517836,0.7700007
0.08651834,0.650239,0.7698159
0.08583312,0.6438175,0.7695099
0.0857835,0.6385115,0.7685561
0.08453068,0.6405091,0.769971
0.07807313,0.6445198,0.7736502
0.07110514,0.6436536,0.7757352
0.06971629,0.6437154,0.7753137
0.07210087,0.6426099,0.7745454
0.07330894,0.6387286,0.7750742
0.07347583,0.6401249,0.7752668
0.0756647,0.6416371,0.7746809
0.0761512,0.6411458,0.7751328
0.07795855,0.6439633,0.7743988
0.08307877,0.6434748,0.7711675
0.08274579,0.6422997,0.7686008
0.08165387,0.6450305,0.7689039
0.08367639,0.6464646,0.7702193
0.08315746,0.648543,0.7693923
0.08286336,0.6496753,0.7701439
0.08157938,0.6501581,0.7724302
0.07744489,0.653961,0.771091
0.07562057,0.6546541,0.769624
0.07563207,0.651917,0.7701409
0.07637614,0.6509086,0.7737141
0.07693344,0.6507466,0.777973
0.0759435,0.6486623,0.7750152
0.07642845,0.644279,0.7701475
0.07704936,0.6424245,0.7686239
0.077772,0.6421667,0.7673032
0.08052053,0.639398,0.7665646
0.08166968,0.6383867,0.7670939
0.08212784,0.6405218,0.770733
0.08188378,0.6436498,0.7749149
0.07913081,0.6470733,0.7733333
0.07625759,0.6475397,0.7686116
0.07399699,0.6451514,0.7669945
0.07478636,0.6443566,0.7683529
0.07616725,0.6470941,0.7683375
0.07612128,0.6497377,0.7681827
0.07848557,0.6487157,0.7709753
0.07829247,0.6472722,0.7730408
0.07667841,0.6454983,0.7722011
0.07733829,0.6419141,0.7712623
0.07530731,0.6425525,0.7732307
0.07571808,0.6449252,0.7777784
0.07992489,0.6432145,0.7793227
0.08085029,0.6427311,0.7737341
0.07887871,0.6433491,0.7676353
0.07688305,0.6425868,0.7689687
0.07768531,0.6423821,0.771003
0.07892724,0.641699,0.7704278
0.07990626,0.6432045,0.7733691
0.0829493,0.6458177,0.7757558
0.08226221,0.6464425,0.7772738
0.08006881,0.6492358,0.7798624
0.08038662,0.65075,0.7785828
0.07772607,0.6476517,0.7769643
0.07557725,0.6454102,0.7755045
0.07733731,0.6448059,0.7744877
0.07831702,0.64444,0.7782825
0.07756728,0.6452443,0.7800602
0.07661688,0.6462548,0.7787779
0.07670012,0.6458864,0.7779058
0.07805923,0.6457464,0.7756332
0.07955617,0.6469351,0.7741604
0.07863007,0.6474541,0.7718597
0.07688209,0.6472314,0.7656591
0.07854044,0.6471595,0.760902
0.08077242,0.6470377,0.7651366
0.08209226,0.6464007,0.7722745
0.08173837,0.6453084,0.7745498
0.07973181,0.6448547,0.7789994
0.0815144,0.6444221,0.7802163
0.08227472,0.6441557,0.7757193
0.07866782,0.6446853,0.7790254
0.07769757,0.6446016,0.780279
0.08024762,0.6453582,0.7731292
0.08310642,0.6472017,0.7711095
0.08172806,0.6472959,0.7729668
0.07829723,0.646233,0.7749742
0.07769144,0.6457267,0.7758515
0.07733959,0.6469914,0.7693585
0.07800049,0.6495157,0.763513
0.07877498,0.6497871,0.7692274
0.08077133,0.6464255,0.7751817
0.08509518,0.643518,0.7714699
0.08504965,0.6459043,0.7692126
0.08660076,0.6486603,0.7702495
0.09032523,0.6470634,0.7686337
0.08694371,0.6476443,0.7704847
0.08480655,0.6495392,0.7744612
0.08670001,0.648316,0.7769264
0.08524748,0.6484233,0.7775377
0.08102299,0.6491495,0.7752201
0.07624004,0.6492087,0.7765628
0.07522454,0.6503998,0.7771706
0.0771864,0.650144,0.7752856
0.07618492,0.6494784,0.7769775
0.07503228,0.6488266,0.7753961
0.07523387,0.6455916,0.7742241
0.07482167,0.6436165,0.7760272
0.07602947,0.6453599,0.7763273
0.07701621,0.6465211,0.778515
0.07740145,0.6454537,0.7777331
0.07992582,0.6447454,0.7748863
0.08156507,0.644824,0.7733024
0.08245534,0.6459471,0.7711827
0.08440518,0.6479682,0.7727184
0.08388615,0.6474733,0.7744891
0.07960707,0.6464159,0.7740505
0.075041,0.6467636,0.7711383
0.07258528,0.6457027,0.7661964
0.07204622,0.64671,0.7675633
0.07404219,0.6498396,0.7699771
0.07602009,0.6501304,0.7697594
0.07579214,0.6484038,0.7738718
0.07656628,0.6446924,0.7768139
0.0780126,0.6423325,0.7784553
0.07952271,0.6456981,0.7802721
0.081282,0.6485885,0.7761754
0.08049917,0.6468079,0.7722283
0.07917991,0.6448287,0.7694673
0.07925031,0.6444109,0.7670255
0.07919073,0.6441467,0.7716781
0.07972345,0.6445864,0.7765796
0.07918489,0.6446172,0.7783333
0.07714395,0.6441147,0.7793166
0.07783203,0.6446901,0.77807
0.08009861,0.6447817,0.7791922
0.08063458,0.6460383,0.7789486
0.0792987,0.6480493,0.7740244
0.07584338,0.6472128,0.7713435
0.07316884,0.6461624,0.7726582
0.07394013,0.6437694,0.7748149
0.07651221,0.6395696,0.773866
0.07854107,0.6400812,0.7719883
0.0778636,0.6437636,0.7708479
0.07614418,0.6450002,0.7704424
0.07570119,0.6441625,0.7741739
0.07576977,0.6424595,0.7752353
0.07754735,0.6416685,0.7710332
0.07942627,0.6442831,0.7688616
0.07872691,0.6469191,0.7715963
0.0773904,0.6457966,0.7780872
0.07596268,0.6443395,0.7797491
0.07578533,0.6445496,0.7751034
0.07646163,0.6443782,0.7711968
0.07623041,0.6443528,0.7693653
0.07807073,0.6446393,0.7683251
0.07859203,0.6441082,0.7679558
0.07670268,0.6432166,0.772666
0.07722808,0.6411115,0.776812
0.07655621,0.6398045,0.7757155
0.07660991,0.6425587,0.7762379
0.07858655,0.6456585,0.7732986
0.07649283,0.6462802,0.7704264
0.07486685,0.6457988,0.7729975
0.07551016,0.6457935,0.771343
0.07666078,0.6469287,0.7698186
0.07982221,0.6476243,0.7706586
0.08139874,0.6481265,0.7689515
0.08183522,0.6488329,0.7669015
0.08117237,0.6486919,0.76473
0.07820944,0.6483144,0.7669237
0.07814076,0.6477392,0.7717214
0.08017774,0.6468281,0.7724065
0.08192598,0.6461632,0.7725054
0.08378611,0.6454178,0.7721879
0.08210072,0.6438879,0.7718301
0.07754851,0.6431391,0.7723918
0.07594119,0.6455882,0.7701348
0.07899456,0.6479504,0.7691734
0.08128645,0.6456623,0.7713933
0.07794039,0.64319,0.7725645
0.07488605,0.6446722,0.7712665
0.07713521,0.6452736,0.7677191
0.07980571,0.6456436,0.7649449
0.08183532,0.6477319,0.7645181
0.08388331,0.6456856,0.7696873
0.08407835,0.6433842,0.7757728
0.08454672,0.645655,0.7712387
0.08335433,0.646745,0.7677668
0.08118997,0.647149,0.7744458
0.08382917,0.6482952,0.7786019
0.08575425,0.6472358,0.7767607
0.0842131,0.6468174,0.7731877
0.0838981,0.648539,0.7706824
0.08414314,0.6487083,0.7673896
0.08478794,0.6471714,0.763094
0.08469157,0.6452754,0.7683997
0.08263745,0.6437484,0.7755618
0.08093925,0.6449395,0.7714921
0.07916054,0.6475398,0.7687224
0.07721168,0.6490566,0.7685707
0.07789551,0.6487056,0.7648739
0.08134337,0.6463026,0.7647168
0.08441532,0.6453784,0.7633332
0.08533976,0.6459444,0.761931
0.08467562,0.6456203,0.7681647
0.08438764,0.6450262,0.7726376
0.08468019,0.6440851,0.7726808
0.08287075,0.6446913,0.7721242
0.08157531,0.647094,0.7718474
0.08379535,0.649984,0.7730613
0.08529486,0.651642,0.7737743
0.08388645,0.6489791,0.775053
0.08267278,0.6457334,0.7738231
0.08275443,0.6443138,0.7704725
0.08002908,0.64564,0.7706895
0.07632642,0.6521538,0.7693969
0.07810052,0.6555398,0.7685674
0.08129993,0.6519194,0.7706665
0.0819925,0.6483726,0.7709072
0.08144314,0.6472559,0.7728972
0.08012389,0.646513,0.7747214
0.08129711,0.6435224,0.7746741
0.08275337,0.6409886,0.7758157
0.08160526,0.6433138,0.7741829
0.08184931,0.646322,0.7689008
0.08188858,0.6453834,0.761975
0.07986534,0.6445341,0.7612844
0.07913676,0.6463631,0.7690719
0.0807422,0.6461209,0.7723775
0.08278554,0.6456275,0.7726537
0.0821157,0.6480322,0.7744984
0.08149203,0.6490514,0.7744472
0.08333304,0.648673,0.7738787
0.08332967,0.6482838,0.7710148
0.08176736,0.6475028,0.770211
0.07915796,0.6462672,0.7718873
0.07719713,0.6454045,0.771626
0.08048251,0.6469272,0.7734182
0.08309063,0.6473198,0.7734932
0.08091142,0.6452007,0.7739875
0.0794753,0.6441595,0.7764847
0.07904923,0.6451043,0.7746515
0.07755596,0.6465065,0.7722031
0.07816595,0.6459705,0.7712856
0.08023054,0.6463416,0.7747
0.07977747,0.6482922,0.7772551
0.07949701,0.6485188,0.7749118
0.07935369,0.6485222,0.7742601
0.07765262,0.6472139,0.7702502
0.07780181,0.6467164,0.7687161
0.07785711,0.6497153,0.770697
0.0775133,0.6501059,0.7688845
0.07812471,0.647648,0.7724921
0.07753252,0.6450274,0.7748608
0.07780068,0.6437107,0.7721389
0.07797028,0.6456525,0.7694209
0.07819362,0.6463223,0.7663305
0.0816117,0.6455198,0.7725209
0.0841272,0.6465074,0.7790513
0.08263793,0.6484776,0.7743549
0.08012154,0.6502533,0.7709449
0.08019535,0.6477219,0.7726462
0.07991139,0.6440995,0.7726742
0.07740615,0.6452153,0.7725525
0.07653747,0.6455655,0.7746689
0.07503203,0.644811,0.7754443
0.07248512,0.646514,0.7764355
0.07107794,0.647501,0.7760861
0.07046025,0.6473829,0.7702761
0.07286135,0.6469521,0.7671867
0.07709293,0.6461795,0.7704013
0.07977049,0.6459945,0.773541
0.07660031,0.6464608,0.771361
0.07039047,0.647486,0.7687448
0.070412,0.6461754,0.7706986
0.07245497,0.6432867,0.7708391
0.07355299,0.6429548,0.7724646
0.07688674,0.643874,0.7767673
0.0786116,0.6450037,0.7769728
0.07861705,0.6457012,0.7776561
0.07844402,0.6465536,0.7771515
0.07833299,0.6484793,0.7710722
0.07868332,0.6497429,0.7664007
0.07831085,0.6517216,0.7690735
0.07850692,0.651276,0.7747478
0.07839176,0.6484048,0.7764457
0.07740242,0.6485105,0.7766276
0.07716347,0.6471407,0.7759721
0.07758799,0.6461241,0.7739872
0.07823867,0.6470808,0.7746877
0.07762001,0.6445067,0.7746474
0.07718115,0.6443157,0.7711129
0.07639848,0.6450179,0.7695404
0.07486974,0.6421859,0.7723809
0.07840291,0.6434415,0.7729929
0.08225208,0.6473238,0.7713299
0.08084509,0.6490504,0.772736
0.08166696,0.648243,0.7722778
0.08442877,0.6459191,0.7715347
0.08326178,0.6458707,0.7723426
0.08179921,0.6462141,0.771685
0.08199261,0.6473008,0.7732756
0.08086477,0.6503198,0.7719075
0.07987132,0.6517633,0.7673777
0.07892494,0.6533541,0.7657
0.07732916,0.6532439,0.7656403
0.07867906,0.6518996,0.7692699
0.0813021,0.6523018,0.7713631
0.08331753,0.6474073,0.770371
0.08549441,0.6425225,0.7710725
0.08504696,0.6453091,0.7694087
0.08337786,0.6469134,0.7672349
0.08148509,0.6452466,0.7669273
0.07815606,0.6447094,0.7691088
0.07842957,0.6445733,0.7731223
0.08010746,0.6450358,0.7721829
0.07775485,0.6490017,0.7690592
0.07725476,0.6529548,0.765838
0.07868487,0.6512415,0.7630956
0.07936029,0.6486065,0.7673874
0.08229449,0.647691,0.7713653
0.0834626,0.6467257,0.7686285
0.08281553,0.6472523,0.7654325
0.08286426,0.6474963,0.7615093
0.08144417,0.6471218,0.7588114
0.08176993,0.6482217,0.7633245
0.08242783,0.6489582,0.7672061
0.0817045,0.648561,0.7649418
0.08283018,0.6485304,0.764312
0.08278651,0.6488593,0.7638318
0.08156781,0.6493064,0.7598293
0.08131508,0.6491918,0.760153
0.07943417,0.6475615,0.7664561
0.07692743,0.6464577,0.7712766
0.07736257,0.6465255,0.77007
0.07851316,0.6457091,0.7681289
0.0779694,0.6454763,0.7704434
0.08063014,0.6463783,0.7715261
0.0850147,0.6466228,0.7719835
0.08499684,0.6473392,0.7731214
0.08303265,0.6472318,0.7717542
0.08023223,0.6450305,0.7728947
0.07736946,0.6440473,0.773759
0.07743212,0.6447263,0.7722382
0.07863105,0.6460065,0.7740116
0.08040477,0.6463837,0.7734894
0.08245582,0.6455377,0.7702987
0.08079849,0.6465863,0.7690797
0.07604541,0.6470854,0.7702184
0.07403591,0.6458301,0.7762341
0.07521031,0.6459671,0.7800852
0.07634972,0.6459415,0.7751079
0.0781499,0.6465568,0.7699028
0.08163594,0.6478064,0.7722159
0.08411214,0.6470836,0.7739924
0.08164798,0.6470582,0.7705955
0.07832803,0.6474792,0.7716069
0.07918991,0.6470178,0.7745276
0.07948364,0.6471325,0.7735689
0.07880811,0.6463551,0.7724942
0.07922421,0.6456378,0.7718679
0.07803185,0.6467415,0.7723516
0.07653391,0.6472524,0.7723278
0.07597659,0.6454778,0.7719514
0.07563599,0.6436712,0.7725425
0.07563055,0.6447427,0.7716259
0.07568467,0.6466631,0.770857
0.07632197,0.6477763,0.7706357
0.07811616,0.6493071,0.7714004
0.08013399,0.6499047,0.7714726
0.08058584,0.6480685,0.7699102
0.08200054,0.6447122,0.7715641
0.08445504,0.6436114,0.7729409
0.08256685,0.6455933,0.7734756
0.07915595,0.6480324,0.7742485
0.07787795,0.6504788,0.7711679
0.07969489,0.6487483,0.7673526
0.08353739,0.644766,0.7635792
0.08217183,0.6452622,0.7638778
0.08078545,0.6437084,0.768644
0.08296956,0.6402448,0.7682601
0.08106719,0.6420618,0.7694054
0.07893349,0.6444081,0.7775404
0.07762681,0.6462403,0.783625
0.07702348,0.6483597,0.7806211
0.07959307,0.6478227,0.7747322
0.07902865,0.6472208,0.7767496
0.07756156,0.6457221,0.7747139
0.07609085,0.6433735,0.7687617
0.07294552,0.645014,0.7725686
0.0739337,0.6476938,0.7738872
0.07623951,0.6490322,0.7720398
0.07939705,0.6495353,0.7700796
0.08284134,0.646904,0.7651217
0.08154117,0.6442242,0.7689985
0.07987842,0.6442508,0.7726853
0.07894696,0.6454512,0.7682014
0.07887881,0.6463263,0.7673194
0.08079763,0.6453004,0.7688912
0.08148079,0.6439361,0.7707743
0.08183437,0.6429431,0.772777
0.0798584,0.6434793,0.77144
0.07551091,0.6452881,0.769189
0.07445824,0.6443363,0.769202
0.07611333,0.6438581,0.7688785
0.07780637,0.6440691,0.7647474
0.07802595,0.6428056,0.7611884
0.07757193,0.6447849,0.7620881
0.07790362,0.6465869,0.7633194
0.07773208,0.6447789,0.7625563
0.07792252,0.6439476,0.7655711
0.07876742,0.6449035,0.7751409
0.07931884,0.6463958,0.7836346
0.07972805,0.6475874,0.7840814
0.08070611,0.6474852,0.7768797
0.0820285,0.6467187,0.7685084
0.07959784,0.6467358,0.7631821
0.07633498,0.6477356,0.7643954
0.07818947,0.6496679,0.7726928
0.08021587,0.6504945,0.7750273
0.08067379,0.6474789,0.7723591
0.08205874,0.6446658,0.7739776
0.08301398,0.6443817,0.7727196
0.08451517,0.6450988,0.7704768
0.0850468,0.6466415,0.7712226
0.0833254,0.6474229,0.771486
0.08224568,0.6506734,0.7726222
0.0816707,0.6540773,0.7725825
0.08221063,0.6509383,0.7726747
0.08401943,0.6487299,0.7733624
0.0853739,0.6509749,0.7691086
0.08680386,0.6534009,0.766088
0.08789955,0.6573242,0.7717919
0.08898404,0.659133,0.7768037
0.09186132,0.6551822,0.7715633
0.09773669,0.6518299,0.7680505
0.102809,0.6518488,0.7758321
0.1001798,0.6511871,0.7814797
0.08906561,0.6494823,0.7786444
0.06966381,0.6453721,0.7737752
0.05453052,0.6365335,0.7679235
0.05872373,0.6279281,0.7630064
0.06324751,0.6265069,0.7652073
0.05939024,0.6366613,0.7738238
0.06277013,0.6531485,0.7784161
0.06171702,0.6647767,0.7768449
0.05451696,0.668638,0.7774118
0.05670419,0.6620112,0.779702
0.06292366,0.6526446,0.7772733
0.07460442,0.6549469,0.7719833
0.08567167,0.6559532,0.7698257
0.08484458,0.6510152,0.7681201
0.0859872,0.6487487,0.7637182
0.08757921,0.6365839,0.760051
0.08063791,0.6277002,0.760137
0.07488874,0.6370794,0.7631641
0.07430981,0.6415487,0.7655459
0.07029063,0.6400079,0.7708357
0.05895739,0.6420614,0.7775248
0.0551226,0.641454,0.7798357
0.05824641,0.6390958,0.7816575
0.05482484,0.6389521,0.7808148
0.05411081,0.6438878,0.7811202
0.05398683,0.6501603,0.782521
0.04886579,0.656542,0.7751975
0.05218865,0.6643043,0.7690094
0.06431632,0.6638017,0.7659376
0.07408879,0.6590355,0.7638231
0.07032271,0.6577638,0.768136
0.05814667,0.6539754,0.7724232
0.05249129,0.6528926,0.7765665
0.04807926,0.656371,0.7788687
0.04528283,0.6558472,0.7778559
0.04515898,0.6568945,0.7775161
0.03964533,0.6595697,0.7739272
0.038238,0.6574325,0.7745798
0.04114888,0.6554435,0.7792983
0.04182977,0.6537682,0.7787623
0.04376202,0.6516633,0.7786189
0.04967014,0.6454088,0.7776286
0.06371743,0.6335783,0.7759453
0.07248061,0.6328994,0.7734229
0.07227573,0.6399521,0.768643
0.07450374,0.6407633,0.7781894
0.06771198,0.6420046,0.7962021
0.05535325,0.6381711,0.7980743
0.04544282,0.620195,0.7807639
0.03262584,0.604062,0.7640625
0.03282286,0.6095288,0.7701814
0.03965924,0.6275185,0.7788923
0.03213822,0.6384307,0.7744476
0.03207926,0.6447973,0.7769015
0.04813269,0.6462074,0.7791479
0.06119226,0.6500934,0.7824861
0.06603503,0.6629039,0.7916484
0.06188582,0.663795,0.7831626
0.06305091,0.6664095,0.7737954
0.07000076,0.6777808,0.7742131
0.06672705,0.679951,0.761471
0.06430398,0.6839026,0.7513577
0.05838375,0.6747227,0.7571789
0.04688738,0.6522646,0.7645147
0.04298507,0.6339902,0.7730563
0.04011499,0.6083887,0.7846979
0.04169298,0.5941219,0.7948087
0.04231655,0.5889458,0.8030413
0.03519783,0.5832772,0.8045664
0.02604698,0.5908014,0.8013774
0.01560149,0.5930545,0.8001308
0.02096522,0.6026612,0.7916099
0.036219,0.6287679,0.7849524
0.04851515,0.6510721,0.7847346
0.06475958,0.6785433,0.7716675
0.06910126,0.6977979,0.7612266
0.06454761,0.7027289,0.7576462
0.06300627,0.7061566,0.7482707
0.05538834,0.700249,0.7489425
0.04922436,0.6912833,0.7548226
0.04718404,0.6753381,0.7586668
0.04629218,0.6532302,0.7651669
0.04823274,0.6438203,0.7664562
0.0478741,0.6383,0.7694303
0.04856704,0.6338884,0.7780959
0.04929478,0.6354984,0.7827
0.04788795,0.6350349,0.7848152
0.0486099,0.6341119,0.7858618
0.04691314,0.634292,0.7868874
0.04491281,0.6309139,0.7935393
0.04604415,0.6251157,0.7971805
0.04560846,0.6211218,0.7904671
0.04390394,0.6198225,0.783886
0.04256041,0.624407,0.7820077
0.04319784,0.6331952,0.7808159
0.04652566,0.638614,0.7783294
0.05307936,0.648546,0.7743683
0.06125043,0.6606069,0.7709622
0.06199749,0.6623381,0.7706238
0.05650744,0.6657551,0.770919
0.05474081,0.670822,0.7662157
0.05664554,0.6680258,0.7611227
0.05843501,0.6658629,0.7596706
0.05857908,0.66345,0.7599781
0.05772712,0.6616817,0.7637092
0.05633834,0.6605488,0.76736
0.05303138,0.6525257,0.7706122
0.05030771,0.6490069,0.7741547
0.04772712,0.6501166,0.7734974
0.0438133,0.6507102,0.7733929
0.0439039,0.6559093,0.7768701
0.04721589,0.6522203,0.7782733
0.05132582,0.6407773,0.7758963
0.05735043,0.6308103,0.7750876
0.06021474,0.6176419,0.7795088
0.06013218,0.6109011,0.7835958
0.05763279,0.6120436,0.7822885
0.04948996,0.6145976,0.7808736
0.04772834,0.6223919,0.7815369
0.05668805,0.6365672,0.7766761
0.0637475,0.6514904,0.7708491
0.06543862,0.6604965,0.7700287
0.06414029,0.6711577,0.7647268
0.06412982,0.6814467,0.7583286
0.06405687,0.6837319,0.7593979
0.06030008,0.6888976,0.7604894
0.05961885,0.6914582,0.7590248
0.06190088,0.6843717,0.7587235
0.06434373,0.674592,0.7575984
0.06499643,0.6644803,0.7572989
0.06310612,0.6589417,0.7598187
0.06576826,0.653887,0.7605536
0.06726069,0.6457121,0.7612789
0.06554761,0.6378735,0.7661008
0.06557112,0.6270537,0.7752501
0.06046685,0.6205545,0.7871324
0.05605359,0.6229173,0.7899057
0.05649541,0.6235755,0.7830497
0.05386248,0.6245685,0.7814016
0.05250795,0.6295016,0.7824726
0.05471444,0.6343703,0.7807286
0.0548074,0.6435483,0.7782957
0.0544209,0.6544787,0.7730214
0.05608937,0.6600241,0.7696514
0.05746386,0.6611474,0.7689188
0.06296447,0.6607613,0.7652742
0.07114768,0.6623105,0.763301
0.06984726,0.6593537,0.7656365
0.06738711,0.6529698,0.7711911
0.06999682,0.6540074,0.7744012
0.06761035,0.6557317,0.7682885
0.06712745,0.655113,0.7628323
0.06932842,0.6550629,0.766319
0.06710037,0.6536035,0.7717595
0.06698282,0.6542778,0.7744332
0.06572268,0.6550966,0.7744396
0.06237276,0.6536533,0.7745282
0.06257604,0.6516573,0.7788392
0.06263187,0.647341,0.7817642
0.06430482,0.6421937,0.7768176
0.0663159,0.6403016,0.7714541
0.06590252,0.6422463,0.7703107
0.06690895,0.6430635,0.7718247
0.06687162,0.6427577,0.7748985
0.06617255,0.644325,0.7754837
0.06583048,0.6438341,0.7757742
0.06417387,0.6433094,0.7767907
0.06478382,0.6443892,0.776271
0.06782826,0.6449065,0.775343
0.07017559,0.6481139,0.7710237
0.06936212,0.6505851,0.7663806
0.06632685,0.6498705,0.7682367
0.06519612,0.6501412,0.7727198
0.06557049,0.6509763,0.7740538
0.06607082,0.6517684,0.7724716
0.06709556,0.6524329,0.7699924
0.06760137,0.6528187,0.7687117
0.06730395,0.6526492,0.7709024
0.06769075,0.6504459,0.7758959
0.06955678,0.6474971,0.7800159
0.07258718,0.6455233,0.776458
0.07427413,0.6447119,0.7696762
0.07254893,0.6443678,0.7696985
0.07069935,0.6442612,0.7665126
0.07090046,0.6446283,0.7638433
0.07177423,0.6444182,0.7770182
0.07233416,0.6443226,0.7860886
0.0712248,0.6446131,0.7748308
0.06965193,0.6445096,0.7643674
0.07060892,0.6451693,0.7687126
0.07425142,0.6452921,0.7696819
0.07774171,0.6441632,0.7630276
0.07836245,0.645114,0.763924
0.07663131,0.6495464,0.76595
0.07251602,0.6544453,0.7709809
0.06555676,0.6551642,0.7793623
0.06048106,0.6529425,0.7738507
0.05913122,0.6514995,0.7678698
0.05822443,0.6495831,0.7682504
0.06016391,0.6496142,0.7641718
0.06422083,0.652781,0.7649628
0.06551017,0.6543455,0.7695798
0.06712383,0.6560754,0.7713896
0.06881063,0.6570609,0.7729888
0.06849399,0.652787,0.7732003
0.07053345,0.6483641,0.7761289
0.07304247,0.6482506,0.7802974
0.07123464,0.6509733,0.7754826
0.06812913,0.6527933,0.7676752
0.06773509,0.6519539,0.7646065
0.06871948,0.6511564,0.7624803
0.07066242,0.6511935,0.7661123
0.07313402,0.6517787,0.7718688
0.07229448,0.6523062,0.768482
0.0706862,0.6528118,0.7668765
0.07098547,0.6529884,0.770938
0.07086499,0.6513416,0.7707682
0.07171715,0.6502839,0.7688955
0.07265914,0.6498613,0.7674837
0.07212137,0.6497354,0.7667211
0.07215153,0.6503931,0.767036
0.07230913,0.6499482,0.7674934
0.07217654,0.6508471,0.77299
0.07223444,0.6517416,0.7784306
0.07168386,0.6502879,0.7757895
0.06955004,0.6497404,0.7732394
0.06722646,0.6503033,0.7734172
0.06773944,0.6519218,0.7701815
0.06868823,0.6531306,0.7677376
0.06772781,0.65196,0.7682506
0.06813399,0.6505433,0.7663362
0.06963704,0.6499116,0.7660385
0.07120187,0.6505216,0.768681
0.0729869,0.6532712,0.7688078
0.07232069,0.6549869,0.7696085
0.07170067,0.6516327,0.7702724
0.07142134,0.6476178,0.7705655
0.0644032,0.6468803,0.7724849
0.0532931,0.6490846,0.7683103
0.04909983,0.658287,0.7621569
0.05655738,0.6662657,0.7622649
0.07185781,0.6600127,0.7645251
0.1133971,0.8037856,0.6289314
0.122134,0.8289571,0.6211218
0.1263596,0.8441659,0.6251393
0.1293856,0.8387102,0.6289731
0.1411471,0.8224943,0.6352062
0.1361729,0.8053187,0.6365667
0.1356451,0.7920213,0.6283096
0.1325294,0.7972581,0.6184167
0.1189963,0.7984739,0.6156928
0.1177083,0.7844131,0.6177262
0.1188492,0.7740999,0.6225408
0.1366626,0.7638765,0.6400931
0.1595382,0.7608569,0.6695333
0.146142,0.7516021,0.6879839
0.1125293,0.7227721,0.6896734
0.08908646,0.7058644,0.6891229
0.09677471,0.7071371,0.6815108
0.1311792,0.7262811,0.6640308
0.1651757,0.7475035,0.6469515
0.1931428,0.7324275,0.6409903
0.2067291,0.7143292,0.6474775
0.2002909,0.7224693,0.6528607
0.1857238,0.7245769,0.669608
0.1598767,0.7283808,0.686507
0.1284199,0.7401933,0.6679971
0.1064793,0.7342511,0.6549
0.09455036,0.7322065,0.671608
0.1001259,0.7436588,0.6794552
0.1172912,0.7471508,0.6757354
0.1358417,0.7507153,0.6739706
0.1561883,0.748844,0.667844
0.1613325,0.7431429,0.6577488
0.1522983,0.7498848,0.6583212
0.1415235,0.7527085,0.6650418
0.1324404,0.7530075,0.66466
0.1365172,0.7591292,0.6663366
0.1455322,0.759715,0.6676751
0.1543094,0.7554295,0.6651374
0.1664047,0.7482754,0.6642356
0.166988,0.7469483,0.6582198
0.161655,0.7560978,0.6500692
0.1594187,0.7621522,0.6443607
0.1525909,0.7604136,0.6453466
0.1492092,0.7575957,0.6549293
0.1507119,0.7577414,0.6584536
0.1500415,0.7549305,0.6582824
0.153407,0.7520855,0.6605911
0.1598568,0.7518858,0.6595877
0.1654178,0.7445859,0.6597047
0.1699999,0.7393781,0.6619559
0.1695739,0.740285,0.6657686
0.1669717,0.7402013,0.6678433
0.1654916,0.7416819,0.6630709
0.1636623,0.741589,0.6620072
0.1598237,0.7416669,0.6636714
0.1536058,0.7419978,0.6601066
0.1527088,0.7416077,0.6599914
0.1554716,0.7449097,0.6606203
0.1538172,0.7469382,0.6577055
0.1547852,0.7486643,0.6620136
0.1602531,0.7504985,0.6683411
0.1636022,0.7489948,0.6688473
0.1630957,0.7471678,0.6683564
0.1605807,0.7458074,0.6646143
0.161069,0.745891,0.6625526
0.1615872,0.745587,0.6665823
0.160649,0.7446234,0.6672979
0.162635,0.7436354,0.6646556
0.1639759,0.7435257,0.6588364
0.1653616,0.7498192,0.6523104
0.1661948,0.7562684,0.6571797
0.1648062,0.7574364,0.6645085
0.166895,0.7579036,0.6624423
0.1673806,0.7570809,0.6614714
0.1648821,0.7541161,0.6623524
0.1644503,0.7509322,0.6594466
0.1607088,0.7470873,0.6585817
0.1558826,0.7445259,0.6575654
0.1570809,0.7480724,0.657497
0.1612859,0.7509069,0.6640283
0.1633316,0.7493865,0.6658273
0.1625058,0.7497871,0.6622794
0.1611941,0.7473967,0.6633696
0.1609645,0.7447646,0.6639499
0.1610037,0.7469771,0.6643271
0.1601716,0.7476626,0.6670296
0.1594691,0.7473643,0.665701
0.1598268,0.7479434,0.66281
0.1607395,0.7489563,0.6593491
0.1613781,0.748339,0.6546213
0.1618305,0.7454129,0.6563585
0.1645857,0.7431286,0.6608749
0.1678269,0.7395725,0.6614751
0.1674302,0.7365551,0.6612413
0.1694052,0.7377206,0.660719
0.1795089,0.7420276,0.6594996
0.1873402,0.7468271,0.6560989
0.1821532,0.7507871,0.6523369
0.1665436,0.7527828,0.6526815
0.1487085,0.7468859,0.6530178
0.1420967,0.7420107,0.6526372
0.1470572,0.7525722,0.6543125
0.1457964,0.7655224,0.6568105
0.138988,0.7681048,0.6616383
0.1337048,0.7690793,0.6661252
0.1293817,0.7692917,0.6659394
0.1344686,0.7640564,0.664657
0.1399243,0.7612089,0.6649454
0.134009,0.7583257,0.6636835
0.1302432,0.7496534,0.6594623
0.1297493,0.7450469,0.6542601
0.1274029,0.745196,0.6491171
0.1316708,0.7440976,0.649889
0.142243,0.7408737,0.6580359
0.1504048,0.7359788,0.6642902
0.1513607,0.7314869,0.6694235
0.1486347,0.7272287,0.6738807
0.1470822,0.7266227,0.6723693
0.1444575,0.732487,0.669615
0.1424961,0.7438098,0.666293
0.1436226,0.7551154,0.6616592
0.1439081,0.7595493,0.6616026
0.1443928,0.7630533,0.6624061
0.145012,0.7660966,0.656894
0.1439163,0.7650574,0.6520986
0.1445751,0.76402,0.6550563
0.1445446,0.7591346,0.6594842
0.1418349,0.7534728,0.6609323
0.1363834,0.75519,0.6571371
0.1284987,0.7577208,0.6510773
0.1287426,0.7558981,0.6523948
0.1365831,0.7530024,0.65531
0.1433185,0.7497427,0.6562439
0.1498785,0.74794,0.662172
0.1541886,0.7509829,0.6646396
0.1593899,0.7574747,0.6581534
0.1687423,0.7647193,0.6535231
0.1720078,0.7628801,0.655332
0.1697303,0.7523844,0.6568394
0.1724091,0.7485165,0.6557551
0.1754047,0.7479893,0.6571016
0.1738922,0.7488578,0.6573302
0.1749404,0.7524123,0.6543027
0.1753063,0.7524907,0.6545495
0.1709537,0.7538311,0.6568254
0.1676747,0.7546316,0.6588336
0.1662668,0.7560722,0.6579522
0.1691341,0.7573302,0.6545704
0.1724874,0.7514088,0.654795
0.1702522,0.7469489,0.6542196
0.1684581,0.7405401,0.6538337
0.1644125,0.735285,0.6572619
0.158946,0.7375634,0.6601129
0.1608226,0.7330551,0.6640294
0.1623284,0.7293373,0.6654906
0.1601016,0.7350411,0.6635618
0.1602663,0.7419085,0.6622976
0.1602761,0.7469521,0.6604135
0.1608752,0.7496348,0.6618824
0.1642234,0.7525098,0.6627354
0.1664547,0.7550499,0.6576587
0.1692677,0.7574643,0.6520348
0.1706223,0.756655,0.6482535
0.1676171,0.751859,0.6481953
0.1683015,0.7509261,0.6490721
0.1713249,0.7497606,0.6484714
0.1724319,0.7487206,0.6501794
0.1715015,0.748331,0.6533374
0.1644126,0.7447545,0.6567269
0.1589665,0.7474589,0.658164
0.160796,0.7517208,0.6582439
0.1620611,0.75219,0.6602944
0.1607712,0.7548786,0.6598051
0.1607358,0.7534199,0.6572543
0.1617007,0.7492596,0.6567834
0.1608059,0.7472696,0.6567546
0.1613066,0.7449319,0.657624
0.1633839,0.7453665,0.6597141
0.163922,0.7456821,0.6616827
0.1643789,0.7436584,0.6616597
0.1635381,0.7442088,0.6614742
0.164112,0.7440486,0.667055
0.1663699,0.7426699,0.6731665
0.167537,0.7451038,0.6723563
0.1686838,0.7479393,0.6671165
0.1669046,0.7491323,0.6584184
0.1660398,0.7504479,0.6522562
0.1672023,0.7498406,0.6588099
0.1659685,0.7476765,0.6687971
0.1646376,0.7459694,0.6675046
0.1616658,0.7453827,0.6601156
0.1604364,0.7470666,0.6552697
0.1634244,0.7513238,0.6558432
0.1645693,0.7553996,0.6585973
0.164631,0.7537075,0.6565417
0.1644612,0.7489226,0.6575028
0.1637633,0.7471899,0.6616555
0.1641059,0.7457358,0.6607749
0.1657208,0.7468315,0.6613479
0.1689487,0.7492704,0.6609545
0.17474,0.743924,0.6586788
0.1784294,0.7397784,0.6590945
0.1661242,0.743279,0.660287
0.1505934,0.7468368,0.6630563
0.155767,0.7522888,0.6594516
0.1589599,0.7576006,0.654519
0.1508323,0.755547,0.6576152
0.153923,0.751733,0.6583154
0.1527154,0.752154,0.6613541
0.140626,0.754946,0.6690364
0.1386402,0.7625764,0.6690448
0.1481348,0.7697733,0.6633561
0.1693519,0.7590228,0.6555441
0.187439,0.737189,0.6481441
0.1862171,0.7254186,0.6508957
0.1814477,0.7284146,0.6566559
0.1740447,0.7458762,0.6501898
0.1576785,0.76343,0.6458694
0.1480901,0.7607519,0.6524827
0.1477817,0.7487418,0.6607329
0.1426853,0.7439559,0.6731219
0.141065,0.7420184,0.6754987
0.1502111,0.7429884,0.6682187
0.1519388,0.7460457,0.6714817
0.1515163,0.7454723,0.672087
0.1579344,0.7459226,0.6714148
0.1630629,0.7452156,0.6772753
0.166712,0.7434351,0.67462
0.1607477,0.7447377,0.6652063
0.1557558,0.7425082,0.6542213
0.1614168,0.7417174,0.6515752
0.16092,0.7466548,0.659041
0.1571936,0.7507143,0.6589063
0.1556355,0.750966,0.6575347
0.1591798,0.74894,0.659153
0.1655739,0.7502839,0.6583891
0.1641645,0.7505218,0.6622078
0.1656419,0.7493031,0.6642174
0.1676431,0.7517823,0.6593933
0.162102,0.7521425,0.6558415
0.1606357,0.7516426,0.6590763
0.1638393,0.7496127,0.6632777
0.1658137,0.746384,0.6606058
0.1628919,0.7472633,0.660346
0.1590481,0.74643,0.6622372
0.1596571,0.7457933,0.6594258
0.1585118,0.7487943,0.6568325
0.158497,0.7506855,0.6522447
0.1620728,0.7498697,0.6494736
0.1630324,0.7466642,0.6522633
0.1640415,0.7452657,0.6565062
0.1641484,0.745962,0.6615374
0.1614257,0.7471692,0.6603376
0.1608281,0.7494399,0.6551145
0.1610968,0.7503565,0.6521551
0.1610916,0.7502033,0.6536029
0.1612984,0.7497307,0.6621308
0.1608597,0.7499838,0.6652921
0.1614378,0.750303,0.6613484
0.1622256,0.749624,0.6586159
0.1632861,0.7498662,0.6566431
0.1634457,0.7477142,0.6579061
0.1610564,0.7437438,0.6577282
0.16066,0.7423544,0.656396
0.1618178,0.7432514,0.6572558
0.1627465,0.7453469,0.6566738
0.1648076,0.7460855,0.6576861
0.1659343,0.7457629,0.6596166
0.1665539,0.744009,0.6607831
0.1662572,0.7395123,0.6573998
0.1642567,0.7363279,0.6517466
0.1633988,0.7371553,0.6554342
0.1624318,0.7393069,0.6626883
0.16098,0.7397221,0.670195
0.1583938,0.7437902,0.6759968
0.1532485,0.7518023,0.6724852
0.1546009,0.7554358,0.6668478
0.1641478,0.7567973,0.6557735
0.1711978,0.7577789,0.639964
0.1717774,0.7591222,0.6339282
0.1671938,0.7643041,0.6304627
0.1645413,0.7691164,0.6302234
0.1669274,0.7722696,0.6366178
0.1712663,0.7756488,0.6330221
0.1767656,0.7771042,0.6257525
0.1747531,0.7751362,0.6234739
0.1696485,0.7696475,0.6247001
0.171332,0.7633972,0.6400246
0.1708878,0.7602719,0.6554053
0.1697391,0.7573878,0.6561248
0.1689164,0.7513162,0.655199
0.1650793,0.7463058,0.6579943
0.1654561,0.7424595,0.6626621
0.1649717,0.7399424,0.6667369
0.1627227,0.7408076,0.6693632
0.164346,0.7396432,0.6690735
0.164771,0.7379871,0.6642442
0.1670255,0.7367868,0.6606719
0.1705718,0.7358521,0.6584004
0.1678907,0.7411358,0.6528423
0.165278,0.7446616,0.6447378
0.167,0.7441088,0.6450862
0.1670843,0.7504455,0.6493104
0.1661127,0.7619324,0.6441374
0.1664194,0.7684097,0.6447007
0.1640506,0.770253,0.6461299
0.1613988,0.7760357,0.6409521
0.1623009,0.7761503,0.6456272
0.1620662,0.7686861,0.6479277
0.1605106,0.7659346,0.6457625
0.1610404,0.7585048,0.6480888
0.1618204,0.7534459,0.6475351
0.162644,0.7573712,0.6474857
0.1653361,0.754839,0.6475109
0.1694568,0.7546041,0.6496116
0.1753226,0.7547807,0.6533145
0.179412,0.7485819,0.6527194
0.1784305,0.7472367,0.6544792
0.1777993,0.7453726,0.6546611
0.1736128,0.7451398,0.6524138
0.1625969,0.7483556,0.6530482
0.157685,0.7495023,0.652911
0.1588505,0.7561313,0.6545837
0.1605603,0.7597389,0.6568439
0.1654673,0.754368,0.6581256
0.1686565,0.7512947,0.6598799
0.1704206,0.7530021,0.6572384
0.1747587,0.7550837,0.6529279
0.1762254,0.7531677,0.6516496
0.1740581,0.7495262,0.6497089
0.172999,0.7470251,0.6474976
0.1724103,0.7476406,0.649452
0.1724844,0.7505903,0.6514923
0.1731059,0.7499669,0.6495991
0.1675209,0.7504699,0.6501003
0.1613128,0.7543544,0.6572325
0.1637556,0.7581518,0.661253
0.1651181,0.7605216,0.656146
0.1611933,0.7593089,0.6566355
0.1551013,0.7585633,0.663177
0.1476596,0.7548673,0.664057
0.1486232,0.7501986,0.6632948
0.1543191,0.7565368,0.6568644
0.1560163,0.762541,0.6489145
0.1613708,0.7585874,0.6508284
0.165854,0.7533039,0.6564848
0.170431,0.7478635,0.6617127
0.180338,0.743595,0.6604568
0.1782478,0.7449916,0.657969
0.1749627,0.7454887,0.660975
0.1799973,0.7441465,0.659507
0.1735619,0.7471876,0.6584082
0.1644102,0.74894,0.6570403
0.1562539,0.7497848,0.6523632
0.1502296,0.7519278,0.6540295
0.1549946,0.7528034,0.6553104
0.1530526,0.7586412,0.6542547
0.1509472,0.7637576,0.6552147
0.1548623,0.7650213,0.6511656
0.1537188,0.764848,0.645843
0.1600764,0.756616,0.6471053
0.1668854,0.7507505,0.6502743
0.1651765,0.7504339,0.6518409
0.1655186,0.7488733,0.6534512
0.167012,0.7484497,0.6526364
0.168709,0.7445966,0.6503624
0.1683091,0.7425786,0.650476
0.1675596,0.7447401,0.6527378
0.1695372,0.7452422,0.6569219
0.1682171,0.7473762,0.6580078
0.1632028,0.7475001,0.6570265
0.1572028,0.7468196,0.6616406
0.1551433,0.7483768,0.6654861
0.155023,0.750427,0.6639918
0.1536878,0.7554727,0.662342
0.1564224,0.7604232,0.6597397
0.1570862,0.7644279,0.6546935
0.15888,0.7624763,0.6501121
0.1657966,0.7553177,0.6456163
0.1651586,0.7565697,0.6431952
0.1667478,0.7576155,0.6497295
0.1756167,0.7529232,0.6582739
0.1775194,0.7514853,0.6605744
0.1759143,0.7492724,0.6593542
0.1746165,0.7461129,0.6551192
0.173144,0.7443621,0.6520721
0.1722093,0.7461942,0.6513897
0.1695912,0.7505933,0.6536661
0.1686447,0.7486823,0.6564202
0.1661156,0.7484289,0.6527459
0.1592981,0.7514862,0.6536059
0.1557266,0.7499648,0.6554276
0.1574619,0.7528043,0.6534906
0.1609306,0.7573968,0.6590443
0.1629474,0.7571838,0.6600652
0.1658594,0.7567413,0.6583387
0.1681638,0.7558718,0.6591109
0.1665047,0.7556045,0.6534534
0.1692631,0.7563872,0.649712
0.1733266,0.7572014,0.6452363
0.1720548,0.7566981,0.6424994
0.1720842,0.7538061,0.6468849
0.1722347,0.7524076,0.6495738
0.1711289,0.7533983,0.6554607
0.1702353,0.7547784,0.6585579
0.1676773,0.7543104,0.657195
0.16528,0.7535963,0.6599526
0.1645815,0.7544892,0.6588335
0.1656374,0.752778,0.6565835
0.1651248,0.750662,0.6541121
0.1629776,0.7506672,0.6522776
0.1625907,0.7512697,0.6557858
0.163371,0.7516348,0.6537978
0.1663841,0.7492125,0.6522132
0.16854,0.7483153,0.6537764
0.1686064,0.7506501,0.6505933
0.1688832,0.7520213,0.6505936
0.166829,0.7525743,0.6501057
0.1660415,0.75259,0.6484158
0.1679996,0.7530345,0.6469207
0.1709642,0.7528184,0.640594
0.1746026,0.7524322,0.6432843
0.1715715,0.7535506,0.6545514
0.164649,0.7543269,0.6598953
0.1629475,0.7556919,0.6585378
0.1638833,0.753914,0.6574628
0.1641916,0.7491295,0.6625632
0.1636289,0.7470374,0.6638549
0.1624449,0.7452242,0.6607207
0.1607088,0.7455443,0.6604315
0.1596417,0.7478733,0.6575504
0.1634128,0.7487978,0.6575551
0.1675895,0.7506493,0.6593643
0.1661993,0.7501666,0.655779
0.1649657,0.7483816,0.6522775
0.1653937,0.7493929,0.6489616
0.1634588,0.7510993,0.6499828
0.1623059,0.7535388,0.6558409
0.1628794,0.7533846,0.6567124
0.1620875,0.7518133,0.6528044
0.1614865,0.7532999,0.6483431
0.161547,0.7528963,0.6502949
0.1624675,0.751722,0.6577089
0.1647484,0.7502902,0.6628755
0.1644968,0.7453494,0.6669673
0.1651176,0.7431456,0.6658357
0.1690454,0.7432037,0.6637502
0.170185,0.7425926,0.6664342
0.1708206,0.7430533,0.6650637
0.1720004,0.7410679,0.664332
0.1729223,0.7384051,0.6645724
0.1759873,0.7380279,0.6614073
0.1755625,0.7385433,0.661359
0.1737755,0.741081,0.6611855
0.1744097,0.7435246,0.6622094
0.1711809,0.7442994,0.6638171
0.1672456,0.746347,0.6610982
0.1635672,0.7507056,0.6608504
0.1567042,0.7541031,0.6598197
0.1539738,0.7527761,0.659494
0.1558841,0.7501243,0.6652708
0.156115,0.7504551,0.6664091
0.1560774,0.753485,0.660566
0.1576344,0.7594226,0.6547681
0.1593794,0.762811,0.6556394
0.1618017,0.7599123,0.6571646
0.1657805,0.7579131,0.6524198
0.1712176,0.7558682,0.653765
0.1767833,0.7509325,0.6551838
0.176932,0.7502632,0.6487695
0.1776206,0.7511327,0.6428644
0.1868909,0.7513868,0.6347445
0.1887584,0.7566463,0.6330184
0.1788705,0.7601794,0.6408274
0.168441,0.7591206,0.6512032
0.1595724,0.7578831,0.6643362
0.1601974,0.7544963,0.6647978
0.1648174,0.7512536,0.6607717
0.1644872,0.7447497,0.6658267
0.16725,0.7348475,0.6620698
0.170622,0.7355614,0.6580074
0.1745474,0.7381448,0.6587507
0.1783587,0.7330108,0.6537072
0.1760826,0.7346567,0.6561116
0.1765454,0.7389978,0.6588878
0.1776248,0.7391583,0.6554039
0.1722495,0.7434583,0.6575255
0.1647101,0.7482904,0.6572608
0.1572951,0.7529893,0.6564775
0.1549648,0.7572316,0.6595974
0.1553098,0.7545179,0.6595342
0.1561916,0.7522023,0.6582477
0.1630406,0.7530387,0.6534797
0.1687474,0.7523116,0.6503308
0.1738149,0.750651,0.655377
0.1817283,0.7476928,0.6593543
0.1823332,0.7458896,0.6586972
0.1812857,0.744793,0.6571246
0.1833265,0.7423842,0.6559421
0.1804725,0.7425236,0.6541189
0.1752416,0.7439385,0.6560017
0.1704588,0.7442437,0.6602496
0.169743,0.7471465,0.6581612
0.1718935,0.7505071,0.6568981
0.1704058,0.7521735,0.6566828
0.1706235,0.7584482,0.6527644
0.1712123,0.7636485,0.6538582
0.1693756,0.7604614,0.6551767
0.1700388,0.7580152,0.6533557
0.1719981,0.7569572,0.6544262
0.1744064,0.7535393,0.6540153
0.1741689,0.7509102,0.6516252
0.1726481,0.7470151,0.6493949
0.1745441,0.7457526,0.6477049
0.175976,0.7486148,0.6485884
0.1791452,0.7479484,0.6480894
0.1817813,0.7483843,0.6472029
0.1777851,0.7505124,0.6509479
0.1741777,0.7494857,0.6540875
0.1728246,0.7502421,0.6532671
0.1714871,0.7500695,0.6539231
0.1706649,0.7483343,0.6564711
0.1696169,0.7480429,0.6555066
0.1703805,0.7468939,0.6535341
0.1714902,0.7491968,0.6554353
0.1725061,0.7521147,0.6575324
0.1742634,0.7523248,0.6578518
0.1735289,0.7540613,0.6592526
0.1723489,0.7544569,0.6618559
0.1725902,0.753852,0.6618185
0.1738041,0.7533542,0.6601318
0.1758958,0.7522014,0.6600716
0.1759101,0.7519388,0.6543057
0.1752373,0.7506679,0.6476403
0.1750219,0.7485118,0.6527955
0.1733933,0.7466804,0.6578684
0.171674,0.7467305,0.6549759
0.170714,0.7478844,0.6533709
0.1724878,0.7471369,0.6542803
0.1754137,0.7479247,0.6542032
0.1743045,0.7492891,0.6530827
0.1725775,0.7481961,0.6525404
0.1724043,0.7469213,0.6527602
0.1721317,0.743576,0.6530372
0.1738134,0.7404682,0.6536624
0.1743433,0.7424397,0.6549029
0.1729297,0.7443995,0.6575787
0.173767,0.745703,0.661935
0.1739083,0.752445,0.6655043
0.1726417,0.7577212,0.6651022
0.1712204,0.7534549,0.6622898
0.1685976,0.7492379,0.6595802
0.1698318,0.750202,0.6562548
0.1747957,0.7500239,0.6528653
0.1772448,0.7501355,0.6505664
0.1768635,0.7520983,0.6490733
0.1757699,0.7530785,0.6485001
0.1760863,0.7523517,0.6523169
0.1748868,0.7483543,0.6598728
0.1714307,0.7434584,0.6643095
0.1711313,0.7420805,0.6646062
0.1713382,0.7437714,0.6630871
0.1721214,0.7461377,0.6619167
0.1742641,0.7477809,0.6604014
0.171853,0.7485722,0.6568375
0.1697511,0.7480954,0.6552019
0.1711281,0.7468921,0.6562267
0.1713713,0.7454913,0.6584184
0.1723821,0.745457,0.6589535
0.1742505,0.7472003,0.6574723
0.1738693,0.7465907,0.6578124
0.1731095,0.74659,0.6571005
0.1738557,0.7495296,0.6582005
0.1737292,0.7505105,0.6610161
0.1729372,0.7500746,0.6588923
0.1721108,0.7497332,0.6565224
0.1701832,0.7495348,0.6545291
0.1705203,0.7475339,0.6542517
0.171472,0.7448472,0.6574311
0.170403,0.7466691,0.6568552
0.1708808,0.7480765,0.6547258
0.1710706,0.7468409,0.6548711
0.1705128,0.7471897,0.65822
0.171066,0.747399,0.6629285
0.1707667,0.7469166,0.6615231
0.1707493,0.7463525,0.6589574
0.1711738,0.7455995,0.6575218
0.1717493,0.745512,0.6527232
0.1734774,0.7453195,0.6533123
0.1739883,0.7451905,0.6567277
0.173622,0.7467884,0.6549211
0.1748511,0.7483238,0.6553049
0.177121,0.7481711,0.6552995
0.1776826,0.7477065,0.6534746
0.1736682,0.7455954,0.6567019
0.1681614,0.7449577,0.6594561
0.1672203,0.7476829,0.6600075
0.1694186,0.7473432,0.6592997
0.1698268,0.7469573,0.655973
0.1695766,0.7486667,0.6548643
0.1712761,0.7484792,0.6549197
0.1728134,0.7486315,0.6522231
0.1718361,0.7477298,0.6484236
0.1695325,0.7468409,0.6488855
0.1692032,0.7484143,0.6547986
0.1711444,0.7486091,0.6620552
0.171452,0.747785,0.6669959
0.170469,0.7467039,0.6654363
0.1717647,0.7459449,0.6638386
0.1728326,0.7451154,0.6646934
0.1723068,0.7437174,0.6624172
0.1739701,0.7446225,0.6637311
0.1753889,0.7447269,0.6650191
0.1728509,0.744357,0.6631881
0.1696173,0.7465784,0.6661003
0.1690399,0.7478218,0.6667223
0.1705487,0.7484154,0.6623752
0.1712143,0.7495798,0.6583912
0.1709086,0.7499974,0.6566979
0.1716764,0.7481683,0.6563733
0.1723684,0.7454116,0.6538804
0.1714349,0.7456222,0.6560398
0.1703263,0.746665,0.6598276
0.1713741,0.7482991,0.6552835
0.1737907,0.7509326,0.6526584
0.1753647,0.750288,0.6547176
0.1741877,0.748989,0.6542706
0.1709809,0.7485944,0.6539106
0.1705159,0.7467078,0.6537771
0.1719999,0.7465644,0.6514762
0.172368,0.7470028,0.6500314
0.1722168,0.745433,0.6546976
0.1711138,0.7468234,0.6616479
0.1705923,0.7498854,0.6624493
0.1709017,0.7501945,0.6621052
0.1709585,0.7495645,0.6646634
0.1719998,0.7472304,0.6642718
0.1733048,0.7449069,0.6628266
0.1739942,0.7457672,0.6619824
0.1732486,0.746222,0.6579103
0.1715663,0.7456079,0.6566806
0.1705697,0.7458115,0.6627293
0.1708376,0.7461419,0.666621
0.1729906,0.746643,0.6628255
0.1739455,0.7474682,0.6593184
0.1726503,0.7479695,0.6613499
0.1719023,0.7495882,0.6618848
0.1720859,0.7523502,0.6590031
0.1725125,0.7517967,0.6552349
0.1720848,0.7503643,0.6496664
0.1722904,0.7508395,0.6499513
0.1733806,0.7484973,0.6524594
0.1736291,0.7464158,0.6503492
0.1740122,0.7479774,0.6575994
0.1741792,0.7505663,0.6658944
0.1742938,0.7522537,0.6605149
0.1737043,0.7499953,0.6577596
0.1730262,0.7473998,0.6605446
0.174061,0.7474078,0.6587149
0.1735925,0.7479257,0.6557566
0.1734503,0.750217,0.6519759
0.1749462,0.7513712,0.6459819
0.1751482,0.7510044,0.6451013
0.1760492,0.7505511,0.6515036
0.1766317,0.7474727,0.6589347
0.1763127,0.7456599,0.6638203
0.176476,0.7458352,0.6632491
0.1762503,0.7460292,0.6608955
0.1757883,0.7478529,0.6606582
0.1728104,0.7490171,0.6564909
0.170159,0.7484314,0.6550415
0.1732717,0.7471266,0.6586392
0.17595,0.7475866,0.6562742
0.1723049,0.7490692,0.6550476
0.169622,0.7471371,0.659036
0.1729467,0.7466572,0.6630922
0.1741128,0.7497412,0.6661915
0.1705095,0.7504594,0.6641457
0.1694728,0.7494774,0.6622334
0.1737799,0.7482462,0.6612541
0.1782306,0.7466543,0.6584206
0.1763251,0.7470262,0.6587075
0.1730604,0.7472993,0.6566002
0.1723322,0.7451717,0.6569246
0.1704927,0.7438883,0.6611076
0.1704433,0.7444172,0.6592387
0.16985,0.7444751,0.6608835
0.168476,0.7434627,0.6635469
0.1714481,0.7432416,0.6621062
0.1729776,0.745766,0.662823
0.1735714,0.7481652,0.6617998
0.1744059,0.7477774,0.6610211
0.1728353,0.7484428,0.6596198
0.1738355,0.7508528,0.6573614
0.1738,0.7503095,0.6570775
0.172057,0.7492668,0.6572437
0.1725279,0.7497744,0.6629055
0.1716932,0.7462408,0.6660984
0.1713981,0.7421129,0.6607582
0.1708532,0.7429613,0.6566129
0.1704196,0.7449364,0.6577826
0.1723568,0.7473939,0.6590209
0.1723981,0.7507102,0.6535791
0.1730636,0.7521399,0.6500093
0.1741078,0.7519513,0.6523415
0.1730071,0.7514136,0.6555494
0.1719374,0.7509206,0.6584014
0.1702538,0.750421,0.655673
0.1705635,0.7489945,0.6549751
0.1717563,0.7476261,0.6582651
0.1731045,0.7475974,0.6584527
0.1787214,0.7475971,0.6598179
0.1813843,0.7475766,0.6608223
0.1759715,0.7456972,0.6621722
0.1716117,0.7427752,0.6630601
0.1735725,0.7432829,0.6604626
0.1746214,0.7434503,0.6580981
0.1724365,0.7440038,0.653387
0.1719669,0.7454348,0.6492634
0.1707004,0.7431754,0.6492776
0.1700358,0.7440728,0.6513609
0.171657,0.7461316,0.6546978
0.1718035,0.7472794,0.6602741
0.1767857,0.7550351,0.6695091
0.1825103,0.7583423,0.6684326
0.1777652,0.7508485,0.6615617
0.1725254,0.7428275,0.665017
0.173775,0.7400104,0.6628203
0.1753979,0.7436846,0.6552746
0.1776105,0.7511995,0.6522472
0.1791777,0.758382,0.64969
0.1739723,0.7604448,0.64815
0.1684949,0.7582608,0.6417292
0.1707251,0.7524842,0.6434871
0.1719983,0.7413814,0.6529502
0.1699362,0.7363116,0.6553322
0.1709876,0.731396,0.669449
0.1712368,0.722061,0.6786607
0.1706512,0.7274937,0.6710094
0.1729582,0.7321522,0.672853
0.173781,0.733482,0.6691572
0.171635,0.7507704,0.6571334
0.1692773,0.7604751,0.6533195
0.169304,0.763703,0.6500744
0.1716752,0.772473,0.6461523
0.1728176,0.7726058,0.6430904
0.1731681,0.7709282,0.6440833
0.1737588,0.7647866,0.646745
0.173673,0.7520386,0.6487615
0.1726971,0.7454079,0.6561548
0.1687165,0.7427516,0.661141
0.1632398,0.742401,0.6647827
0.1606638,0.7424243,0.666471
0.1595101,0.7440481,0.6601546
0.1586897,0.7478796,0.6603267
0.1633733,0.7524939,0.662682
0.1704644,0.7586724,0.6607641
0.1743189,0.7536583,0.6633748
0.1804805,0.7442062,0.6625858
0.1829902,0.7439526,0.6607004
0.1781144,0.7428049,0.6617812
0.1763253,0.7433375,0.6604405
0.1714436,0.7483997,0.6610088
0.1669899,0.7505878,0.6587014
0.1730841,0.7493914,0.6525461
0.1768181,0.7458003,0.6495244
0.176806,0.7456077,0.6505014
0.1726245,0.7487171,0.6569862
0.1622111,0.7514212,0.6618872
0.1613865,0.7538224,0.6615921
0.1665534,0.7518621,0.6613841
0.1679098,0.7505899,0.6612745
0.1686724,0.7532841,0.6600824
0.1675189,0.754655,0.6558041
0.1670527,0.7553429,0.6494639
0.1677204,0.7517557,0.6476057
0.1717879,0.7456147,0.6537145
0.1817482,0.7452118,0.6612554
0.1847446,0.7475015,0.6634684
0.1763739,0.7492991,0.6619583
0.1646769,0.7504935,0.6600559
0.1588377,0.7513315,0.6602094
0.1646103,0.7570711,0.6563663
0.1708964,0.7671014,0.6497782
0.1713174,0.7694537,0.6503344
0.1737637,0.7611811,0.6508351
0.1736864,0.7542722,0.6510878
0.1674519,0.7507209,0.655985
0.1614065,0.7445179,0.6594352
0.1540982,0.7370195,0.6621676
0.1513065,0.7310237,0.6618866
0.1532751,0.7297291,0.6609644
0.148373,0.733764,0.6644702
0.144472,0.7396853,0.6655096
0.1383531,0.7444066,0.6694516
0.126651,0.7460249,0.6757942
0.1291572,0.7489187,0.6713378
0.1378232,0.7554484,0.6639954
0.1442406,0.7594841,0.6615298
0.1520435,0.7604383,0.6603424
0.1509408,0.7613664,0.6612422
0.1527238,0.7603556,0.6611532
0.16411,0.7552303,0.6577643
0.1710998,0.7460778,0.6526802
0.173499,0.7394945,0.6487493
0.1717892,0.7403004,0.6521885
0.1690966,0.7423448,0.6563123
0.1688415,0.7462261,0.6523847
0.1665051,0.7537623,0.647252
0.1637538,0.7547937,0.6442081
0.1628515,0.7529043,0.6468257
0.1624947,0.7567733,0.6538801
0.1600421,0.7572472,0.6534902
0.156254,0.7556328,0.654111
0.1526906,0.7567412,0.6602423
0.1494056,0.7532173,0.6616437
0.1496676,0.7516157,0.6624702
0.148027,0.7536426,0.6617091
0.1463562,0.7520117,0.6574214
0.1528296,0.7510019,0.6539915
0.160141,0.7495522,0.6538559
0.16746,0.7477615,0.6605877
0.1729763,0.7454021,0.66367
0.1730135,0.7403347,0.6589579
0.1744375,0.7404031,0.6545647
0.1763655,0.7422856,0.6520478
0.1808961,0.7430636,0.6530301
0.1855244,0.7465737,0.6529168
0.1830252,0.7473039,0.6524903
0.1825894,0.7482847,0.6542717
0.1841493,0.7525171,0.653962
0.1820255,0.7556226,0.6542552
0.1788661,0.7589201,0.6532652
0.1752466,0.7599678,0.6514478
0.1749025,0.7565767,0.6496284
0.1741742,0.7526239,0.6458865
0.1699216,0.7507344,0.6472228
0.1709157,0.7485463,0.6499535
0.1714386,0.7410168,0.6518324
0.1659747,0.7330846,0.6602046
0.1652318,0.7319769,0.668765
0.1690245,0.7330201,0.6699524
0.1717913,0.7318234,0.6699047
0.1719343,0.7315979,0.6721134
0.1714552,0.7333171,0.6711381
0.1746691,0.7335283,0.6726543
0.1738503,0.7331578,0.6757416
0.1692691,0.735304,0.6683653
0.1650631,0.7421069,0.6626512
0.1587219,0.7507168,0.665015
0.160329,0.753205,0.6624044
0.1631633,0.7594475,0.6548338
0.1606555,0.7748314,0.6497149
0.1673097,0.7812197,0.6496152
0.1746311,0.7795148,0.6501989
0.1749111,0.77559,0.649886
0.1751709,0.7648565,0.6510751
0.1742683,0.7554141,0.6551286
0.1724392,0.7488182,0.6629245
0.1702505,0.7449595,0.6658199
0.1717012,0.7459325,0.6631678
0.176126,0.7442824,0.6631272
0.1765558,0.7440169,0.6616734
0.1755922,0.7467004,0.659169
0.1751758,0.746481,0.6620851
0.1773894,0.7485193,0.6645724
0.1802085,0.7527832,0.6593238
0.1772698,0.752941,0.6553749
0.1752827,0.748208,0.6603684
0.1767495,0.7427822,0.6655315
0.1765209,0.7383221,0.6666228
0.1761744,0.7319306,0.6670333
0.1761184,0.7272955,0.6677014
0.1739341,0.7287034,0.6691457
0.1694087,0.7310719,0.6690134
0.1669639,0.7328557,0.6648501
0.1691589,0.7394559,0.6610065
0.1716799,0.7443425,0.6619675
0.1736686,0.7425404,0.6625586
0.1764584,0.7430409,0.6602907
0.1755075,0.7438646,0.6612649
0.1696202,0.7454398,0.6635773
0.1639292,0.7551366,0.6636957
0.1613684,0.7672949,0.6621132
0.16406,0.773821,0.6545319
0.1698834,0.7702862,0.6439697
0.1734593,0.7672128,0.6392234
0.1753801,0.7701323,0.6399862
0.1778222,0.7658498,0.6408716
0.1807686,0.7613608,0.641386
0.1781762,0.7600722,0.6478723
0.1729849,0.7501243,0.6565924
0.1777458,0.7420965,0.6568768
0.1815764,0.7440161,0.6542116
0.1787223,0.7450532,0.6550888
0.1798362,0.743431,0.6557382
0.1782617,0.7448355,0.658041
0.1744031,0.7447601,0.662024
0.1737187,0.7424705,0.6618336
0.1731755,0.74238,0.6632036
0.1756255,0.7394303,0.6712628
0.1767147,0.7342617,0.6780278
0.1756537,0.7280463,0.6787493
0.1769886,0.7230783,0.6757326
0.1766646,0.7254026,0.675114
0.1777978,0.7257948,0.6757263
0.1791704,0.7260113,0.6722561
0.1736423,0.7333179,0.6711099
0.1688634,0.7395468,0.6705324
0.1709344,0.7455363,0.6677445
0.1736491,0.7556789,0.6674503
0.1735727,0.7662636,0.6623914
0.1736615,0.7675145,0.6552512
0.1736005,0.7634022,0.6509347
0.1725739,0.7667593,0.6448245
0.1730951,0.7665862,0.6456609
0.1748279,0.7596349,0.6507189
0.1790725,0.7537476,0.6495013
0.1835852,0.7470849,0.6499508
0.1822206,0.7443443,0.6540469
0.1794944,0.7425342,0.6577844
0.178121,0.7381036,0.6622229
0.1756105,0.7354531,0.6644685
0.1758197,0.7337661,0.664536
0.1769134,0.7335709,0.664337
0.1738363,0.7343926,0.6619206
0.1710679,0.7377273,0.6602028
0.1709724,0.7402456,0.6613155
0.1726991,0.7388944,0.6613504
0.1763209,0.742041,0.6608133
0.1770375,0.7470477,0.6612627
0.1752477,0.7494193,0.6618366
0.172998,0.7515905,0.6642315
0.1697024,0.7522651,0.6660633
0.170893,0.748938,0.663376
0.1744633,0.7438002,0.6606801
0.1754239,0.7453996,0.6596545
0.1762105,0.7473436,0.6578454
0.176396,0.7446401,0.6603284
0.1764102,0.7466587,0.6652021
0.1765182,0.7489988,0.6645774
0.1761564,0.75002,0.6599272
0.1762158,0.7508,0.6552742
0.1745747,0.7482168,0.6555832
0.1732928,0.748506,0.6554953
0.1753877,0.7490174,0.6492754
0.1771787,0.7475117,0.6507297
0.1764653,0.7464171,0.660586
0.17594,0.7434213,0.66757
0.1765204,0.7439909,0.6681124
0.175336,0.7452601,0.6629808
0.1735755,0.7428257,0.6614263
0.1735275,0.742946,0.6605931
0.1737246,0.743594,0.658287
0.1752985,0.7445891,0.6609681
0.178875,0.7466547,0.6615211
0.1810749,0.7458459,0.6616165
0.1779151,0.7460051,0.6588413
0.1729381,0.7488189,0.6484623
0.1731995,0.7507073,0.6456744
0.1754189,0.7502853,0.6498073
0.1794634,0.7494559,0.6525659
0.184878,0.7502544,0.6538206
0.1812617,0.750488,0.6544358
0.175822,0.7514578,0.6580699
0.1768743,0.752898,0.6590125
0.1721515,0.7491349,0.6569336
0.1658504,0.744734,0.6564901
0.1706794,0.7455327,0.6550131
0.175711,0.7464524,0.6541878
0.1751358,0.7454992,0.6556694
0.1774408,0.7457838,0.6577717
0.1788788,0.7459103,0.656865
0.1770486,0.7448809,0.6543882
0.1774947,0.744795,0.6542168
0.1763712,0.7442873,0.6543709
0.1741487,0.7426637,0.6573127
0.1759937,0.7426811,0.661218
0.1770396,0.7434645,0.6614922
0.1766379,0.7429777,0.6619882
0.1790574,0.7428543,0.6653608
0.181122,0.7434875,0.6690169
0.1788427,0.7441849,0.6660143
0.1755422,0.7464415,0.6601404
0.1753394,0.7484097,0.6561583
0.1749716,0.7488357,0.6487189
0.17399,0.7503188,0.6499613
0.1753196,0.7504958,0.6630961
0.1760553,0.7488888,0.6691213
0.1761802,0.7475432,0.6659575
0.1781423,0.7446287,0.6593159
0.1799483,0.7425147,0.6549775
0.1793391,0.7417409,0.6570091
0.1785743,0.7411177,0.6595396
0.1795785,0.7437035,0.6598641
0.1791838,0.7472847,0.6566529
0.1786373,0.7501122,0.65591
0.1785227,0.7510323,0.6610192
0.176342,0.7488289,0.6618495
0.1756593,0.7482581,0.6614362
0.17492,0.7470738,0.6622637
0.1728626,0.7452023,0.6605531
0.1738643,0.7453799,0.660688
0.1754303,0.7429361,0.6594766
0.1748881,0.7428106,0.6565582
0.1733162,0.7459343,0.6566909
0.1734254,0.7476089,0.6571454
0.1759357,0.7497599,0.6569452
0.1768237,0.7492757,0.6568445
0.17634,0.7484147,0.6573613
0.1758074,0.7473954,0.6582433
0.1740295,0.7446814,0.6567405
0.1732933,0.7468821,0.6515247
0.1753249,0.747773,0.6479068
0.1767248,0.7447513,0.6502113
0.1760242,0.7443821,0.6526172
0.1768199,0.7456658,0.6551371
0.1784811,0.7490095,0.6597805
0.178903,0.7506211,0.6615661
0.1777154,0.7480168,0.6610898
0.1747206,0.7465225,0.6581397
0.1751587,0.7473082,0.6562923
0.176351,0.7485363,0.6601935
0.1734358,0.7482734,0.6629225
0.1732897,0.7468435,0.662455
0.174971,0.7454012,0.6605106
0.1749971,0.745565,0.6589993
0.1752215,0.7471778,0.6599174
0.1751407,0.7463307,0.6599659
0.1768266,0.745471,0.6606748
0.1782946,0.7456218,0.6624033
0.1768559,0.7439254,0.6627337
0.1762686,0.7430027,0.6625553
0.1781771,0.7445577,0.6620951
0.1796082,0.7463743,0.6610708
0.1773925,0.744243,0.6570848
0.1752506,0.7417839,0.6534745
0.1754786,0.7438,0.654809
0.1739338,0.745461,0.6562543
0.1722273,0.7473376,0.6553142
0.1730516,0.7479616,0.6543676
0.1742947,0.7443827,0.6550507
0.1754588,0.7426996,0.65849
0.1764121,0.7422358,0.663399
0.1745406,0.7436688,0.6659056
0.1712471,0.7482026,0.6667228
0.1719905,0.7481622,0.6673636
0.1746771,0.7483711,0.6645193
0.1746877,0.752812,0.6588951
0.1747424,0.7525582,0.653556
0.1749017,0.7503874,0.6540649
0.1721188,0.7506624,0.6585346
0.1704397,0.7498673,0.6584172
0.1736354,0.7497345,0.6602009
0.1771163,0.7502901,0.6622389
0.1765586,0.7498688,0.6597801
0.1749473,0.7496239,0.6588469
0.1750069,0.7482952,0.6561381
0.1749608,0.7460745,0.6567385
0.1749416,0.7443498,0.6609104
0.1753398,0.7428465,0.6611686
0.1757281,0.7433994,0.6625526
0.1767306,0.7454483,0.6623655
0.1763781,0.7455571,0.6609692
0.175138,0.7464416,0.6596141
0.1749881,0.7476075,0.6572509
0.1746617,0.7435279,0.6595737
0.1741951,0.7383856,0.660368
0.1734257,0.7367861,0.6591706
0.1733031,0.7390521,0.6599214
0.1740071,0.7443138,0.6586151
0.1736087,0.7472435,0.6582863
0.1747662,0.7478492,0.6597696
0.1773174,0.7486696,0.6626497
0.1779954,0.7485353,0.6649809
0.1770248,0.7467644,0.663036
0.1758249,0.745057,0.6598151
0.176033,0.7460771,0.6562993
0.1753073,0.747056,0.6543321
0.1741319,0.7471181,0.6546955
0.1751043,0.7473915,0.6555738
0.1737558,0.7460596,0.6576372
0.1729253,0.7455793,0.6578788
0.1761658,0.7457522,0.6588659
0.1768957,0.7446807,0.6620483
0.1761073,0.743405,0.659301
0.1763848,0.7425506,0.6550211
0.1751836,0.7433839,0.6553457
0.1738904,0.7441171,0.6550867
0.1734705,0.7446047,0.6551972
0.1746255,0.7456845,0.6559794
0.1764551,0.7457992,0.6547267
0.1764997,0.745996,0.6552136
0.1763798,0.7463409,0.656265
0.1763846,0.7485202,0.654489
0.1763215,0.7517902,0.652917
0.1765196,0.7509018,0.6550022
0.1759064,0.7483454,0.6610163
0.1746561,0.7456497,0.6632142
0.173108,0.7419308,0.6598012
0.1732832,0.7424581,0.660199
0.1750501,0.7450654,0.6584679
0.1777817,0.7444596,0.652663
0.1816766,0.7451092,0.6549826
0.1801269,0.746565,0.6577469
0.1754076,0.7455332,0.6563762
0.1746301,0.7457647,0.6573268
0.1732774,0.7461011,0.6564958
0.1731647,0.7455294,0.6551331
0.1757265,0.7460514,0.6548945
0.1765761,0.745765,0.6559428
0.1783421,0.7457523,0.6598976
0.1782678,0.7456538,0.6617502
0.1767304,0.7438528,0.6614124
0.1774814,0.742647,0.6607986
0.1764104,0.7428037,0.6600693
0.1778726,0.7437681,0.6571272
0.1811686,0.7447606,0.6520041
0.1792723,0.7466979,0.6523229
0.1769017,0.7490556,0.6542709
0.1756257,0.749632,0.6553245
0.1747332,0.7475226,0.6583304
0.1755092,0.7430166,0.6563815
0.1772795,0.7427416,0.6539222
0.1785374,0.7449465,0.6556127
0.1765751,0.7435612,0.6574586
0.1759199,0.7455135,0.6599686
0.1778184,0.7487633,0.659314
0.1779584,0.7485024,0.658587
0.1787732,0.7487027,0.6609307
0.1787287,0.7476072,0.6599762
0.1755041,0.74659,0.6583116
0.1726129,0.7465812,0.656341
0.1730397,0.7454384,0.6522296
0.1750946,0.7457708,0.652048
0.1762373,0.7460728,0.655051
0.1804417,0.7456251,0.6569679
0.1835239,0.7459413,0.6583066
0.1810867,0.7458114,0.6563126
0.1801616,0.745807,0.652525
0.1791903,0.7457,0.6541183
0.1770249,0.7448918,0.6551523
0.175783,0.7440375,0.6539145
0.17411,0.7434095,0.6581529
0.1736495,0.7430109,0.6610044
0.17306,0.7430232,0.6590713
0.1726135,0.744634,0.6551682
0.1714425,0.7474407,0.6467692
0.1704039,0.7493599,0.6420734
0.1742097,0.7489005,0.6505273
0.1767848,0.748012,0.6587451
0.1765066,0.7489145,0.6511721
0.1762689,0.7487439,0.6464745
0.1751822,0.7482307,0.6571676
0.1752449,0.7480734,0.6625508
0.1756565,0.7439995,0.6602627
0.1765322,0.7405648,0.6607509
0.1758583,0.743519,0.6615917
0.1739219,0.7475643,0.6605754
0.1746264,0.7474401,0.6580518
0.1742,0.7459194,0.6572076
0.1738859,0.7458079,0.6601345
0.174051,0.7456792,0.6639361
0.172931,0.7459128,0.6630669
0.173953,0.7459569,0.660636
0.1737632,0.7461096,0.6607049
0.1731539,0.7487489,0.657528
0.1744322,0.7501989,0.65749
0.1756815,0.7473641,0.6609105
0.1795887,0.7437153,0.6603372
0.181818,0.7439301,0.6632538
0.1799879,0.7454049,0.6637838
0.1789314,0.7448837,0.6568645
0.1765255,0.7460717,0.6526113
0.1738984,0.746141,0.6533822
0.175079,0.7442715,0.6557892
0.1764839,0.7447665,0.6564518
0.1758928,0.7452123,0.6613226
0.1747162,0.7460275,0.6660001
0.1731334,0.7458719,0.6605223
0.173542,0.7436696,0.6582228
0.1760208,0.7437382,0.6606416
0.1766534,0.7446991,0.6599112
0.1764365,0.7455786,0.6581597
0.1763869,0.7460524,0.6535634
0.1762107,0.7455189,0.6521183
0.1769902,0.7450814,0.6568622
0.17804,0.7445933,0.6594086
0.1796506,0.747201,0.6575468
0.1788878,0.7506624,0.6552858
0.1749159,0.7502767,0.6544329
0.1730806,0.748747,0.6541107
0.1741355,0.7456545,0.6576607
0.1757511,0.7419537,0.6612839
0.1752786,0.7432869,0.6599999
0.1750863,0.7461613,0.6589024
0.1760084,0.7458893,0.6567246
0.1728401,0.7472277,0.6575984
0.1720305,0.7480521,0.6615403
0.1772499,0.745405,0.6571199
0.1800848,0.7459521,0.6510405
0.1777802,0.7470927,0.6477728
0.1749873,0.7469487,0.6478896
0.1765252,0.747641,0.6545336
0.1771339,0.7459035,0.6583736
0.1758819,0.7455347,0.6599103
0.1789866,0.7457912,0.6579702
0.1815874,0.7436991,0.6532612
0.1822435,0.7431745,0.6568289
0.1822801,0.7444835,0.6598989
0.1813697,0.7467107,0.6609787
0.1821247,0.7461154,0.6610888
0.1810938,0.7453529,0.6532696
0.1799259,0.7483192,0.6507295
0.180894,0.7487673,0.6548316
0.180447,0.7471352,0.6552591
0.1801701,0.7443538,0.6541036
0.1788844,0.7427611,0.654272
0.1774218,0.7477363,0.6557892
0.1795246,0.7513263,0.6569658
0.1812106,0.7481894,0.6586359
0.1795363,0.7449745,0.6583895
0.1771945,0.7457839,0.6579798
0.175932,0.7466915,0.6598323
0.1747489,0.7470878,0.6585236
0.1760506,0.7494299,0.6580315
0.1799339,0.748543,0.6576245
0.1811595,0.7458999,0.6562161
0.1805896,0.7449956,0.6574358
0.1803724,0.7444735,0.6567209
0.1801803,0.7481602,0.6570535
0.1789917,0.7514413,0.6585314
0.1769874,0.749912,0.6599094
0.1776619,0.7495449,0.6622089
0.1781158,0.750315,0.6603422
0.1764483,0.7494672,0.6580732
0.1762715,0.7469685,0.6568384
0.1769136,0.7442585,0.657262
0.1790612,0.7445727,0.660345
0.1809394,0.7484013,0.6599625
0.1778645,0.7508002,0.6602498
0.1741744,0.7483148,0.6613032
0.1748618,0.7461386,0.6579922
0.1764701,0.7471606,0.6551936
0.1763319,0.7467622,0.6551123
0.1769961,0.745154,0.6566283
0.1791309,0.7459984,0.6586232
0.1809987,0.747127,0.6600978
0.180017,0.7465689,0.6604843
0.1770929,0.7448033,0.6594363
0.1767617,0.7423131,0.6571209
0.1765082,0.7434772,0.6559588
0.1758453,0.7458129,0.6607005
0.1768908,0.7448836,0.6643465
0.1762375,0.7458608,0.6634727
0.1761678,0.746671,0.6637382
0.1768033,0.7460364,0.659905
0.1760121,0.7479844,0.6560076
0.1758522,0.7483444,0.657695
0.1728785,0.7483,0.6605151
0.1698655,0.7492097,0.6623231
0.1728278,0.7482171,0.6556522
0.1765715,0.7486045,0.6497025
0.1768007,0.7485631,0.6584362
0.1761007,0.7464409,0.6655376
0.1764754,0.7455472,0.6597133
0.1764462,0.7461075,0.6553298
0.1760766,0.7487927,0.6565566
0.1751084,0.7508351,0.6530024
0.1719398,0.7500421,0.6515
0.170296,0.7497035,0.6539282
0.1729146,0.7501272,0.6537888
0.1763596,0.7500819,0.662856
0.1769153,0.7493279,0.6703226
0.1760971,0.747189,0.6629524
0.1764453,0.7442037,0.6605862
0.1771586,0.7431616,0.6638592
0.179873,0.742414,0.6631458
0.1820554,0.7391425,0.6638953
0.1769353,0.7387687,0.6643553
0.171192,0.7400425,0.6634558
0.1737241,0.7402871,0.6631474
0.177142,0.7443468,0.6595301
0.1773387,0.7470237,0.6553708
0.1785937,0.7483289,0.6565699
0.1782171,0.7529677,0.6574137
0.1793975,0.7535985,0.6533188
0.1809962,0.7517588,0.6500917
0.1736071,0.7512705,0.6505033
0.1684583,0.7498102,0.6549403
0.1711341,0.7514474,0.6614792
0.171716,0.7531734,0.6629575
0.172634,0.7487379,0.6611302
0.1758945,0.7439189,0.6608843
0.1773397,0.7438813,0.660146
0.1759537,0.7449304,0.6596459
0.1751105,0.7443255,0.6606152
0.1753161,0.7434082,0.6607071
0.1743157,0.7401899,0.657677
0.174169,0.7361756,0.6547173
0.1728087,0.7389474,0.6588476
0.17209,0.7456387,0.6655503
0.1733889,0.7483418,0.6659507
0.1710128,0.7471823,0.6629376
0.1713017,0.7448333,0.661515
0.1776551,0.7440281,0.6611839
0.1813577,0.7452979,0.6606308
0.1757397,0.7479665,0.6608094
0.1655579,0.7504122,0.6634441
0.1638676,0.7465177,0.6696414
0.167677,0.7406285,0.6731206
0.1705474,0.7421542,0.6643602
0.1747728,0.7467821,0.6537631
0.1770558,0.7497375,0.6524128
0.1787685,0.7501471,0.6509698
0.1797786,0.7493287,0.6500706
0.1766778,0.7502783,0.6556232
0.1743253,0.7488773,0.6607029
0.1713739,0.7463747,0.6631142
0.1654255,0.7476863,0.6630124
0.163317,0.7498023,0.6598718
0.1682954,0.7503154,0.6579666
0.1732787,0.7471332,0.6538588
0.1726619,0.7418495,0.6478202
0.172711,0.7399631,0.6493643
0.1729699,0.7433703,0.6515465
0.1705189,0.747404,0.6488489
0.1751127,0.7441858,0.6491176
0.1809409,0.7412831,0.6491261
0.178011,0.7450246,0.6488844
0.1755794,0.7484545,0.651947
0.1746798,0.7524656,0.6529237
0.1719778,0.7526717,0.6544013
0.1720084,0.7489917,0.6565887
0.1736207,0.7485539,0.6558745
0.1746863,0.7451383,0.6579501
0.1753116,0.7444105,0.6603846
0.174817,0.7479407,0.6569393
0.1739612,0.7464441,0.6532834
0.1738065,0.7473905,0.6539453
0.1752869,0.7486536,0.6545161
0.1770668,0.7493054,0.6529253
0.1765869,0.7531194,0.6530636
0.1758897,0.7497193,0.6559226
0.04179343,0.8249409,0.6259081
-0.009662721,0.8126031,0.6596944
0.01660285,0.8001571,0.6208268
0.06088301,0.782889,0.583227
0.04710034,0.7878158,0.6048116
0.05821543,0.8021406,0.6168197
0.07663843,0.8037839,0.6055839
0.06485484,0.8166526,0.599235
0.09139855,0.8313579,0.5813144
0.10035,0.8275913,0.5808792
0.09916752,0.8207666,0.5980267
0.1376656,0.8174002,0.5922903
0.1287169,0.8158386,0.5991695
0.1213072,0.8083062,0.6051341
0.1489474,0.7901305,0.6005864
0.1425834,0.7808877,0.6171331
0.144511,0.7839579,0.6071146
0.1506944,0.7828589,0.5802081
0.144381,0.7800879,0.5679087
0.1177958,0.7928001,0.5648379
-0.01095026,0.832523,0.5759546
-0.1373447,0.8738734,0.5749596
-0.06393358,0.8677319,0.5994302
0.06920861,0.8477518,0.6372549
0.06576311,0.8556231,0.6152862
0.06620338,0.8338043,0.5928403
0.1029697,0.8075158,0.5840347
0.08621904,0.816214,0.5641144
0.08839875,0.7988202,0.584576
0.06729161,0.7875949,0.6183292
0.0357796,0.7997097,0.621487
0.0531049,0.7942494,0.623323
0.04846605,0.7945197,0.6298773
0.06821782,0.7867741,0.6269019
0.09736961,0.7703022,0.6230465
0.1018741,0.7685093,0.6205876
0.1152584,0.7731508,0.6111592
0.1004201,0.784336,0.6020923
0.09526928,0.7909185,0.6021059
0.09283171,0.8031736,0.5991234
0.07449891,0.8205217,0.5903055
0.07368137,0.8244313,0.5968738
0.05863479,0.8258,0.610768
0.04665761,0.8228299,0.614616
0.04407492,0.8211582,0.6183295
0.04574554,0.8218291,0.6161337
0.05734969,0.8141864,0.6094909
0.0582836,0.8057856,0.6083737
0.0640254,0.8022497,0.6054217
0.06156192,0.808373,0.6009124
0.06227213,0.8119087,0.5924547
0.0803051,0.8085137,0.5891224
0.08484143,0.809717,0.5924482
0.08776269,0.8080467,0.5876864
0.08560367,0.8058871,0.5891878
0.08399907,0.8062783,0.5949148
0.08632769,0.8052425,0.5981663
0.0784977,0.8056076,0.6040454
0.08252804,0.805509,0.599163
0.08176925,0.8050879,0.5965961
0.0737465,0.8028891,0.6014528
0.07319032,0.8012978,0.6031527
0.06762967,0.8059952,0.6096489
0.0696121,0.8109307,0.609715
0.07067769,0.8103855,0.6065617
0.0688941,0.8083307,0.6104484
0.07348741,0.8083985,0.6090849
0.07176437,0.8066732,0.605737
0.07229824,0.8058728,0.6023683
0.07388238,0.8070978,0.5969891
0.07390178,0.8048064,0.5935043
0.07640819,0.8059267,0.5924944
0.07543867,0.8101845,0.5948375
0.07751255,0.8126597,0.5954941
0.07866755,0.8153414,0.5989938
0.07717553,0.8152237,0.6071332
0.0794997,0.8150827,0.6076615
0.08106834,0.8145469,0.6043983
0.08178743,0.8119867,0.6028588
0.07792398,0.8115131,0.601709
0.07091107,0.8097417,0.6005385
0.06894686,0.8081267,0.597991
0.0690259,0.8075965,0.6003115
0.06785235,0.806287,0.6046451
0.06622357,0.8069887,0.6042852
0.06742382,0.8061956,0.604079
0.07020146,0.8049631,0.6042332
0.07120718,0.8064842,0.6047641
0.07268499,0.8089463,0.6080782
0.07276816,0.8112644,0.611562
0.07269149,0.8095622,0.6109935
0.0756717,0.8069419,0.6059345
0.07807371,0.8069235,0.6029206
0.07944166,0.806152,0.6041866
0.07879544,0.8070695,0.6059462
0.07683335,0.8090519,0.6074329
0.07792148,0.8084069,0.6087589
0.07785841,0.8080148,0.6086877
0.07543484,0.8085295,0.6078347
0.07461104,0.8083257,0.6084963
0.07352971,0.8082458,0.6078582
0.07172912,0.808409,0.604337
0.07028968,0.8086766,0.6016646
0.07051254,0.8100819,0.600482
0.07144891,0.8115283,0.6002908
0.07047163,0.8104059,0.6005808
0.07164782,0.8091997,0.6016239
0.07568676,0.8109313,0.6019017
0.07834965,0.8123466,0.6007264
0.07678854,0.8114978,0.6016841
0.07341313,0.8100101,0.6016
0.07597463,0.809079,0.600859
0.08039469,0.8085785,0.6019209
0.08190956,0.8062805,0.6007538
0.08087667,0.8037596,0.5995363
0.07572546,0.8040337,0.5989328
0.07380369,0.8045626,0.6006575
0.07131297,0.8050774,0.604514
0.06578322,0.8068029,0.6036752
0.06803003,0.807311,0.6036196
0.0695687,0.8068088,0.6047184
0.06873128,0.8070763,0.6018021
0.07261677,0.8079214,0.6008712
0.07468445,0.80893,0.6011807
0.07631187,0.8102001,0.5995621
0.07567757,0.8114996,0.5981719
0.07201302,0.8112148,0.5982448
0.07367324,0.8098396,0.5993043
0.07447085,0.8095745,0.5993217
0.07288434,0.8095735,0.6000576
0.07493025,0.8088063,0.5998003
0.0753989,0.8081164,0.5958791
0.07465497,0.8081728,0.5935684
0.07490449,0.8085497,0.5945409
0.07287587,0.8084554,0.5963278
0.07098579,0.8089337,0.5962883
0.07188656,0.8094561,0.5957349
0.07546861,0.8085855,0.59916
0.07840266,0.8080738,0.603099
0.07804351,0.8076316,0.6047006
0.07844463,0.8070891,0.6044417
0.07959603,0.8072514,0.6026963
0.0786638,0.8064676,0.6024874
0.07631428,0.8059854,0.6015041
0.07390367,0.8060028,0.5982303
0.07294394,0.8068523,0.5973826
0.0727366,0.8087222,0.6016599
0.07443534,0.80587,0.6069047
0.07717467,0.8027832,0.6063363
0.0749692,0.8057182,0.6055159
0.07162477,0.8080459,0.6094949
0.07129598,0.8084687,0.6122975
0.06942482,0.8082635,0.6135219
0.07151149,0.8060339,0.6101098
0.08006694,0.8042404,0.6036635
0.08317268,0.8043203,0.6051053
0.07923874,0.8069437,0.6068681
0.07639165,0.8093382,0.6043524
0.0776883,0.8080361,0.604417
0.07865628,0.8060773,0.6020855
0.07704643,0.8053331,0.6016902
0.07718122,0.8053225,0.6080599
0.07446447,0.8058,0.609602
0.06977259,0.8051762,0.6066906
0.07168622,0.8036101,0.6068169
0.07399809,0.8033099,0.6080888
0.07354778,0.8072983,0.6085305
0.07349702,0.8132497,0.6083908
0.07262515,0.8129614,0.6083927
0.07202482,0.808784,0.6092662
0.07263293,0.8077352,0.6086175
0.07577156,0.8073362,0.6026062
0.08078245,0.806795,0.597332
0.08355285,0.8071506,0.6041272
0.08374304,0.8077361,0.6146981
0.0838902,0.8085835,0.6146591
0.08190516,0.8074603,0.6111306
0.07758613,0.8064017,0.6110249
0.0775482,0.807306,0.610133
0.07499545,0.8080497,0.6077598
0.06734283,0.8094193,0.6045548
0.06969404,0.8099814,0.6047689
0.07652977,0.8086874,0.6078601
0.07822068,0.8079998,0.6102814
0.07791782,0.8083163,0.6151345
0.07294388,0.808157,0.6143686
0.06831026,0.8064114,0.6102294
0.06851094,0.8048366,0.6132271
0.07252291,0.8045483,0.6115924
0.0793239,0.8043589,0.6067739
0.08123461,0.8048384,0.6062047
0.08169525,0.8059361,0.6036314
0.08295764,0.8057444,0.6004074
0.08149385,0.80554,0.5966073
0.08384038,0.8075545,0.5984606
0.08540619,0.8091104,0.6041158
0.08155077,0.8092122,0.6006774
0.07704747,0.8094629,0.5997688
0.07347323,0.8079439,0.6024756
0.07475569,0.8051697,0.6000618
0.07583246,0.8041937,0.6005548
0.07331526,0.803913,0.6001901
0.07370948,0.8022188,0.5963651
0.07504739,0.801756,0.5955896
0.07715769,0.8063189,0.5995477
0.08065604,0.8126032,0.6041058
0.08165293,0.8137587,0.6028152
0.08124637,0.811546,0.602153
0.07997315,0.8115903,0.6022084
0.07809278,0.8111383,0.5960592
0.07551087,0.8094256,0.5918462
0.07224687,0.8091989,0.5950958
0.07198748,0.8091589,0.5992106
0.0740616,0.8115707,0.5973431
0.07681081,0.8136907,0.596929
0.07775853,0.811509,0.6001329
0.07436315,0.809659,0.5987013
0.07356578,0.8079281,0.6015195
0.07474067,0.8078127,0.6080582
0.07343505,0.8100574,0.6086077
0.07673406,0.8091338,0.6065403
0.07964088,0.8067318,0.6036881
0.07702665,0.8041545,0.6045069
0.0785029,0.8033942,0.6083809
0.08055299,0.8058132,0.6100829
0.08012636,0.8057084,0.60953
0.08195037,0.8050845,0.6072721
0.081382,0.8050232,0.6078218
0.08010813,0.8034039,0.6063929
0.07917288,0.8034861,0.6024786
0.07543029,0.8035028,0.6043513
0.07420001,0.8034562,0.6048189
0.07391821,0.8048476,0.603423
0.07377193,0.805772,0.6044342
0.07605832,0.8070668,0.6031866
0.07573017,0.8078748,0.6018122
0.07519553,0.808512,0.6004153
0.07545986,0.8086837,0.5986811
0.07434137,0.8080183,0.6003253
0.07528849,0.8096646,0.6026379
0.07521904,0.810989,0.6044729
0.0750263,0.8111392,0.608196
0.07815556,0.8106843,0.6108385
0.07976979,0.807195,0.6096437
0.0792144,0.8039013,0.6077543
0.0775946,0.8016668,0.6057316
0.07568546,0.7994581,0.6032358
0.07470023,0.7999918,0.60421
0.07495799,0.8035337,0.6066833
0.07728222,0.8068185,0.607047
0.07818823,0.8072145,0.6074746
0.07753166,0.8058473,0.6086637
0.07622959,0.8042028,0.609925
0.07236301,0.8038685,0.6093089
0.07001211,0.8043996,0.6074655
0.07144222,0.8043798,0.6082442
0.07309546,0.8060085,0.6082578
0.07214108,0.8077114,0.6073649
0.07169829,0.8079211,0.6076243
0.0728368,0.8080049,0.6037514
0.07262663,0.8067122,0.6000969
0.07568412,0.8049496,0.6016455
0.07927233,0.8052483,0.6066628
0.07739355,0.8061012,0.6134317
0.0754509,0.8056668,0.6123166
0.07465817,0.8071728,0.6086986
0.0738507,0.8092745,0.6114684
0.07361188,0.8081958,0.6095149
0.07341513,0.8080423,0.6066574
0.07375351,0.808668,0.6053755
0.07361528,0.8079518,0.6009798
0.07350534,0.8074987,0.6042013
0.07391092,0.8070617,0.60772
0.07442777,0.8085537,0.6103338
0.0749322,0.8103719,0.6183916
0.07334754,0.8085208,0.6109724
0.07142597,0.805682,0.6004188
0.07214595,0.8044879,0.6069736
0.07266262,0.8047597,0.6085461
0.07190149,0.8058605,0.605637
0.07260666,0.8058283,0.6086671
0.07419874,0.8051736,0.6081158
0.07530825,0.8057156,0.606647
0.07535919,0.8051349,0.6067982
0.07458251,0.8020836,0.605952
0.07509263,0.7981164,0.6028912
0.07523406,0.796535,0.598764
0.07447291,0.8006671,0.6029613
0.07417024,0.805374,0.6100441
0.07188377,0.8060885,0.6112196
0.06828352,0.8052246,0.6128363
0.06401186,0.8034914,0.6154323
0.06206012,0.8023782,0.6174702
0.06799376,0.8024946,0.6180929
0.07312504,0.8020369,0.6169575
0.07080979,0.8013325,0.6152007
0.06986169,0.8021761,0.6094371
0.07174621,0.8044838,0.6065143
0.07165592,0.8056814,0.609278
0.07209511,0.8073384,0.6095243
0.07279855,0.8086612,0.6113178
0.0715974,0.8055404,0.6169135
0.07135703,0.8030432,0.6217709
0.07088553,0.8041868,0.6220813
0.07047702,0.804602,0.6145782
0.07222283,0.8038814,0.6086213
0.07236163,0.8041203,0.6110431
0.07191214,0.8044138,0.6128542
0.07153649,0.8039383,0.6102783
0.07012702,0.8042314,0.609144
0.07037657,0.8044596,0.609907
0.0711438,0.8048504,0.6095235
0.07240829,0.806017,0.6088169
0.07267117,0.8054021,0.6073944
0.07069615,0.8044063,0.6052597
0.07074287,0.8043152,0.6056132
0.07098413,0.8048317,0.6087718
0.07060189,0.8055019,0.6090591
0.07161742,0.80295,0.6045843
0.07335504,0.8004128,0.6033628
0.07599803,0.8022478,0.6051868
0.07635557,0.803937,0.6063619
0.07529574,0.8042844,0.6086116
0.07412073,0.805391,0.6079106
0.0703492,0.8034046,0.607626
0.07013356,0.7999488,0.6091583
0.07289164,0.8012813,0.6069068
0.0729252,0.8031295,0.6061912
0.0733293,0.8051331,0.606304
0.0712919,0.8102578,0.6068188
0.0680452,0.8109188,0.6108464
0.06970995,0.8099767,0.6117529
0.07107847,0.8111468,0.614817
0.07127998,0.8073107,0.6217378
0.07176123,0.8028291,0.6176711
0.06962201,0.8000782,0.6068769
0.06877084,0.7995204,0.6037575
0.06986365,0.805447,0.6096804
0.06974698,0.8083595,0.6164762
0.07106604,0.8064807,0.6127838
0.07296982,0.8059682,0.6083086
0.07231537,0.8050527,0.6123608
0.07181297,0.8047317,0.6105119
0.07285866,0.8040191,0.6081495
0.07399414,0.8036312,0.6111527
0.07538128,0.8037741,0.6100751
0.07522569,0.8021674,0.6106801
0.07340737,0.802544,0.6091762
0.07263781,0.8022889,0.6046177
0.07201919,0.8010545,0.6048023
0.07197856,0.8033191,0.6033135
0.07260731,0.8050513,0.6042255
0.07199724,0.8050688,0.6088905
0.07218044,0.8055402,0.6099377
0.07245716,0.8056443,0.6088968
0.07194949,0.8043608,0.6062488
0.07257362,0.8028738,0.6060528
0.07274727,0.802647,0.6064828
0.07232579,0.8030479,0.6024973
0.07237283,0.8046896,0.6028186
0.07356771,0.806099,0.6089974
0.0744246,0.8056306,0.6123603
0.07305334,0.8053307,0.6105831
0.07351719,0.8056261,0.6096661
0.07397794,0.8052956,0.6153524
0.07196433,0.8036372,0.6199656
0.07133768,0.8022785,0.6171793
0.07055421,0.8024577,0.6151474
0.07039303,0.8021594,0.6152538
0.07045624,0.8010391,0.6123993
0.06876023,0.8013273,0.6103466
0.06980364,0.8030352,0.6095124
0.07180594,0.8046415,0.606716
0.07321339,0.8061119,0.6068695
0.07366781,0.8058353,0.6104301
0.06931374,0.8049728,0.6130587
0.06505328,0.8059287,0.6157149
0.06505132,0.8055762,0.6168877
0.0672998,0.8052422,0.61499
0.0688095,0.8054029,0.6136805
0.06791794,0.8026211,0.6163253
0.06802437,0.8007857,0.6185953
0.06937999,0.8021161,0.6131854
0.07063286,0.8034302,0.6072448
0.07251108,0.8027957,0.6083262
0.07437965,0.8023355,0.611344
0.07639043,0.8032078,0.6150219
0.07668788,0.8024562,0.6159544
0.07462904,0.8022469,0.6069757
0.07210897,0.8041408,0.598071
0.0700243,0.805945,0.6024264
0.07055983,0.8062418,0.6070599
0.07146822,0.8048766,0.6032451
0.06991648,0.8056228,0.6054459
0.06811242,0.8063971,0.6088297
0.06633719,0.806706,0.6061799
0.0672651,0.8091042,0.6078416
0.0709117,0.8072953,0.6084306
0.07121185,0.803957,0.6038452
0.07143031,0.8032854,0.6001891
0.07554374,0.8022195,0.599115
0.07893936,0.8027012,0.6014488
0.07841049,0.8021718,0.6018467
0.07625605,0.8006983,0.6010673
0.07542668,0.8016004,0.6041011
0.07322758,0.8014899,0.6099976
0.07253609,0.8013696,0.6156157
0.07497545,0.8028084,0.6120724
0.07410384,0.804736,0.6070375
0.07480317,0.8062461,0.6101734
0.07582528,0.8055687,0.6084612
0.07294595,0.8053841,0.6043384
0.07284579,0.8067461,0.6062471
0.07193336,0.8071311,0.6074754
0.07146754,0.8069625,0.6083559
0.07440303,0.806885,0.6073081
0.07466729,0.8067606,0.6026004
0.07481202,0.806117,0.6013801
0.0762785,0.8052129,0.6029828
0.07682123,0.805476,0.6039289
0.07424092,0.8061459,0.605543
0.0715554,0.806827,0.6071357
0.0726017,0.8071033,0.6068278
0.07168139,0.8053176,0.608592
0.07028713,0.8042739,0.6141997
0.0700813,0.8035707,0.6155419
0.07257776,0.8004418,0.6125401
0.07872146,0.8007044,0.6103862
0.07809867,0.8034121,0.6104245
0.07485196,0.8052189,0.6112177
0.07425634,0.8086972,0.6062713
0.07282434,0.8049915,0.6021757
0.07370773,0.7983447,0.6036286
0.07296235,0.8022598,0.6031246
0.07144982,0.8049943,0.6045835
0.0725827,0.8031596,0.6081723
0.07217734,0.8032863,0.6089303
0.0721141,0.8020239,0.6078929
0.07220146,0.8029137,0.6062085
0.07117191,0.8037175,0.6061204
0.07068996,0.8037091,0.6087379
0.07028808,0.806351,0.612496
0.06927515,0.8039001,0.6111298
0.06833945,0.8015994,0.6073269
0.07218505,0.8042719,0.6077281
0.07698971,0.8044216,0.6074926
0.07479891,0.8040532,0.6084594
0.0721517,0.8042032,0.6122999
0.07248048,0.8042549,0.6145523
0.07187818,0.8050549,0.6132971
0.07226411,0.8047437,0.6092826
0.07269188,0.8041197,0.6085391
0.07290131,0.8040375,0.6084768
0.07484379,0.8056022,0.6078936
0.07485603,0.8077375,0.6100768
0.07444728,0.8086637,0.610566
0.07521738,0.8082858,0.610973
0.07343217,0.805934,0.609195
0.07284067,0.8042636,0.6044264
0.07429383,0.8037111,0.6036639
0.07383179,0.8031937,0.6051943
0.07509364,0.8028403,0.6096977
0.07663259,0.8023662,0.6138487
0.07260478,0.8028842,0.6103089
0.06842148,0.8019545,0.6047463
0.06932508,0.8014828,0.6036076
0.07126383,0.8052499,0.6066793
0.07261085,0.8080103,0.610373
0.07418999,0.8070755,0.611728
0.0738613,0.8053974,0.610086
0.07327072,0.8055117,0.607185
0.07480412,0.8061068,0.6038925
0.07533151,0.8066719,0.6007461
0.07481878,0.8075428,0.6052309
0.07509158,0.8058659,0.6137212
0.07477553,0.8055272,0.6140745
0.07409979,0.8063267,0.6090536
0.07305171,0.8051665,0.6056944
0.07124687,0.8075031,0.607369
0.06882105,0.8089314,0.6091908
0.06837915,0.8057771,0.6050988
0.07446183,0.803102,0.60356
0.07972805,0.8012049,0.6072427
0.07589574,0.8015535,0.6086371
0.07147709,0.8037776,0.6058815
0.07238818,0.8062761,0.6040278
0.07355638,0.8076865,0.6103591
0.07426714,0.8057867,0.6162719
0.07473056,0.8050212,0.612084
0.07318453,0.8058727,0.6088485
0.07325983,0.8054495,0.6091525
0.07437841,0.8055524,0.6065422
0.07411792,0.8056025,0.6072902
0.07530438,0.8053107,0.611433
0.07535051,0.8047388,0.6114026
0.07409948,0.8038206,0.6104066
0.07357241,0.8046464,0.6096684
0.07163274,0.8066847,0.607524
0.07180648,0.8072338,0.6082034
0.07292881,0.8051707,0.6088781
0.07178546,0.8038717,0.6078564
0.07223187,0.8049259,0.6087124
0.07250571,0.8059569,0.6092896
0.07187674,0.8081815,0.6094289
0.07244805,0.8092235,0.6082697
0.07254232,0.8076949,0.6063914
0.07389062,0.808411,0.6086705
0.07608487,0.80851,0.6105904
0.0766689,0.8067756,0.6086227
0.0770794,0.8059471,0.6077712
0.07638757,0.8040268,0.6085513
0.07478049,0.8029312,0.6080569
0.0739468,0.8033346,0.6063715
0.07244305,0.8053209,0.6047725
0.07155296,0.8091567,0.6035415
0.07160608,0.8095362,0.604009
0.07071854,0.8084386,0.6101324
0.07237039,0.8081973,0.618482
0.07735667,0.8052936,0.6170965
0.07985798,0.8006865,0.6114645
0.07610895,0.7975487,0.6140149
0.06982645,0.799962,0.6156068
0.06856639,0.8030478,0.6148058
0.07094224,0.8007196,0.6163998
0.07236719,0.7998522,0.6117881
0.07445051,0.7996037,0.608822
0.07641939,0.7980325,0.6115833
0.07689737,0.8009891,0.6089492
0.07717407,0.8040543,0.6067987
0.07790036,0.8043954,0.6056795
0.07776079,0.8043758,0.6036215
0.07564022,0.803814,0.6089112
0.07453621,0.8043381,0.6130638
0.07498014,0.804455,0.6117224
0.07421537,0.8047682,0.6154482
0.07056859,0.8061255,0.6216073
0.06690174,0.805502,0.6211535
0.06978296,0.8053217,0.6157237
0.07403809,0.805828,0.6117645
0.0728242,0.8053778,0.6102661
0.07173314,0.8054323,0.6109889
0.07233897,0.8047003,0.6123217
0.07224337,0.8039878,0.6126947
0.07257822,0.8050425,0.6131466
0.07432981,0.8059698,0.6091847
0.07735883,0.80577,0.6070168
0.07855461,0.8062028,0.6134077
0.07751702,0.8074069,0.6168659
0.07745637,0.8063187,0.6167904
0.07695012,0.8026837,0.6151929
0.0750735,0.7987809,0.6071836
0.07462965,0.7989858,0.6004401
0.07500358,0.8062892,0.6017009
0.07411667,0.8120679,0.6050572
0.07325117,0.8106108,0.6049077
0.07411247,0.811173,0.6069697
0.07647604,0.8146663,0.6091009
0.07776017,0.8108225,0.6073888
0.07452135,0.8059854,0.6085346
0.07112725,0.8087502,0.6045282
0.07486983,0.8088007,0.6004445
0.07909996,0.8055216,0.6033593
0.0776288,0.8055999,0.5987965
0.07734654,0.8053307,0.5974958
0.07829881,0.8055842,0.6018844
0.07798477,0.8058463,0.600933
0.08051403,0.8051105,0.6017497
0.08291562,0.8059022,0.6007477
0.08167243,0.8056495,0.6010027
0.07955374,0.8064432,0.6040883
0.0779456,0.8084436,0.6024085
0.07702851,0.8083959,0.6033346
0.07588449,0.8084042,0.6059717
0.07302486,0.8078911,0.6054898
0.06936035,0.8065162,0.6024488
0.0673237,0.805172,0.6019695
0.06737662,0.8047713,0.6077281
0.06674762,0.8043459,0.6092081
0.06553484,0.8028791,0.6077739
0.06925168,0.8068632,0.607564
0.07435471,0.8117162,0.6053941
0.07238761,0.8087939,0.6054815
0.07152959,0.8071034,0.6054524
0.07592888,0.8090395,0.6044728
0.07692067,0.8083189,0.604226
0.07617127,0.8079734,0.6040588
0.07495762,0.8074536,0.6063823
0.07184572,0.8019107,0.6074014
0.07022687,0.7970056,0.6059945
0.07067334,0.7998274,0.602333
0.07224514,0.8032152,0.5975552
0.07201042,0.801863,0.5993054
0.07022029,0.8053553,0.6061922
0.06954986,0.8115046,0.6125459
0.07075505,0.8100202,0.6134785
0.07309891,0.8081758,0.6080184
0.07146441,0.8078266,0.6029753
0.06978022,0.8044975,0.6003182
0.07182073,0.8052102,0.6008793
0.07269852,0.807459,0.6023853
0.074789,0.8065751,0.6008562
0.07605925,0.8072649,0.6012193
0.07542112,0.8076489,0.6028691
0.07755483,0.8064674,0.6052811
0.07745145,0.8049052,0.6096007
0.07568076,0.8023122,0.6071991
0.07646821,0.80102,0.6043181
0.07641408,0.8011078,0.6098261
0.07495456,0.8015969,0.6125748
0.0728195,0.8017271,0.6114871
0.07071331,0.8022697,0.614457
0.07050062,0.8054763,0.6179587
0.07194886,0.8076248,0.6160426
0.07529335,0.8070335,0.610328
0.07901614,0.8061497,0.6072184
0.07809293,0.8065649,0.6082284
0.07488074,0.8078934,0.6105978
0.07530645,0.8071464,0.6107169
0.076857,0.8065274,0.6091716
0.0778886,0.8057435,0.6099341
0.07728852,0.8045897,0.6109829
0.07453815,0.806263,0.6120475
0.07484232,0.8059487,0.6129049
0.07541305,0.806712,0.6110015
0.07470996,0.8096467,0.6086517
0.07623621,0.8075247,0.605899
0.07674234,0.8052591,0.6039078
0.07723316,0.8042826,0.6041504
0.07797686,0.8051791,0.6050389
0.07641547,0.8083275,0.6086768
0.07436272,0.8070459,0.6119405
0.07310699,0.8074828,0.6088955
0.07449419,0.8108219,0.6057342
0.07566794,0.8099028,0.6097101
0.07470985,0.8095754,0.6122813
0.07498799,0.8119572,0.6078733
0.07548621,0.8143065,0.6058236
0.07665951,0.8151609,0.6063049
0.07840889,0.8124803,0.6026593
0.07794335,0.8073871,0.5990334
0.0766724,0.8018664,0.6020905
0.07440198,0.7953087,0.6061791
0.07120458,0.791182,0.6038765
0.07265736,0.7964867,0.6032951
0.07947572,0.8056276,0.6045023
0.08621554,0.8098524,0.5971622
0.08728062,0.8092786,0.5831716
0.07757771,0.8075592,0.5777935
0.06826584,0.8112872,0.6035129
0.0739388,0.8139369,0.6316299
0.0840592,0.8102526,0.6148719
0.08861959,0.8088019,0.5958746
0.08661843,0.8093797,0.6061517
0.07951437,0.8141564,0.6133718
0.0779786,0.8211517,0.6217795
0.07816332,0.822212,0.6236443
0.07505091,0.8167749,0.6081524
0.07334894,0.797609,0.6006226
0.06962604,0.7751932,0.5891638
0.06904007,0.7732771,0.581483
0.06800776,0.7885216,0.5983546
0.06159417,0.8037473,0.6123085
0.06558553,0.813162,0.6160567
0.07553107,0.8223891,0.6119819
0.08533132,0.8256183,0.6060328
0.09436987,0.8182057,0.6058288
0.08973125,0.8119094,0.5998084
0.08349051,0.8062421,0.5980533
0.08121968,0.8000336,0.5977248
0.07531725,0.7990694,0.5940557
0.0774721,0.7990924,0.5980549
0.07956479,0.8006048,0.5991862
0.07612244,0.8060382,0.6080723
0.07842667,0.8102125,0.623616
0.07816904,0.8144574,0.6204041
0.07646981,0.8216043,0.6109324
0.07655625,0.8232401,0.607228
0.07164731,0.8147658,0.6080075
0.06872021,0.8025624,0.6104584
0.06843967,0.7933858,0.6040478
0.07003507,0.7926863,0.5988227
0.07436425,0.7951518,0.6032261
0.07508551,0.7968512,0.6090462
0.07723645,0.80589,0.616833
0.08012114,0.8124615,0.620008
0.08203297,0.8116968,0.6132997
0.08968914,0.815245,0.6067799
0.0924745,0.8123606,0.6018274
0.08702021,0.8040628,0.6003924
0.08019886,0.803273,0.6048885
0.07079099,0.7997052,0.6064769
0.06981983,0.7982977,0.6052827
0.07507679,0.8045915,0.6055192
0.07323342,0.8073236,0.6055756
0.0746797,0.8104603,0.6054416
0.07707656,0.811313,0.6038809
0.07522377,0.8088506,0.6003082
0.07881362,0.812158,0.598054
0.07876848,0.8113204,0.6011039
0.07712227,0.8079629,0.6053314
0.08064634,0.808987,0.6042825
0.0787435,0.8081817,0.6028222
0.07690465,0.8111217,0.6011745
0.07488548,0.8138911,0.5972559
0.07080317,0.811036,0.5982939
0.07570425,0.8075994,0.6007839
0.08165583,0.8015825,0.6004576
0.0822919,0.799515,0.6018008
0.0811234,0.8005827,0.602603
0.07868696,0.797858,0.6052482
0.07799907,0.7978077,0.6096044
0.07681472,0.7975605,0.606108
0.07540995,0.7950417,0.6022576
0.07492377,0.797054,0.6059574
0.0728603,0.8009964,0.6078131
0.07272684,0.8031349,0.6067592
0.0755737,0.8054869,0.6076414
0.08135067,0.8086623,0.6110003
0.08650508,0.8112698,0.6158308
0.08250155,0.8138475,0.6148565
0.0774821,0.8175742,0.608563
0.07771014,0.817763,0.6050727
0.07486191,0.8093154,0.6032632
0.07606953,0.8016462,0.6033299
0.08343057,0.8024288,0.6057305
0.08355784,0.8019338,0.6066421
0.07999375,0.7987143,0.6085858
0.07780158,0.799859,0.6094107
0.07685393,0.8008056,0.60746
0.07852708,0.7991888,0.6092745
0.07748894,0.7990197,0.6109177
0.07589278,0.7974458,0.6126745
0.0741084,0.7945664,0.6157927
0.07095371,0.7948579,0.610717
0.0735199,0.796999,0.6086705
0.07675608,0.7998124,0.6140319
0.07823507,0.8016554,0.6141616
0.08210121,0.8047077,0.6153917
0.08625476,0.8097196,0.6111903
0.09109917,0.8078114,0.6008204
0.09077716,0.8027985,0.6043533
0.08446103,0.8009395,0.6077084
0.07931261,0.8006712,0.6058609
0.07438015,0.8029587,0.6148495
0.07311475,0.8024954,0.6194133
0.07437644,0.8022926,0.6148965
0.07320043,0.8060055,0.6129135
0.07458487,0.8080743,0.6101783
0.07530384,0.8124571,0.6085577
0.07275051,0.8161491,0.6078055
0.07244251,0.8166437,0.6033008
0.07466381,0.8180489,0.600226
0.07801485,0.8132569,0.6014496
0.07960858,0.8052663,0.6037996
0.08291072,0.8008709,0.6032527
0.0912933,0.7978071,0.5978745
0.09501085,0.7997298,0.5946672
0.08709905,0.8028247,0.6049012
0.07278261,0.7991624,0.6185817
0.06772132,0.7937093,0.6164871
0.07282299,0.7915976,0.6109395
0.07223334,0.7958482,0.610695
0.06791319,0.8042253,0.606002
0.06596317,0.8065716,0.6084614
0.06629891,0.8064732,0.6147832
0.0689316,0.8078134,0.6109011
0.07098408,0.8053875,0.6102867
0.07506991,0.8053235,0.6120777
0.07800917,0.8072501,0.6094715
0.07746905,0.807316,0.6070144
0.0787361,0.8071342,0.6033684
0.08031067,0.8011908,0.6059788
0.08250862,0.7964463,0.6106515
0.08275095,0.7988023,0.6077453
0.08052105,0.799434,0.608058
0.08030502,0.7992188,0.6114047
0.07705527,0.8017036,0.6128339
0.07462564,0.8048775,0.6140523
0.07438069,0.8069719,0.6103553
0.06722082,0.8061562,0.6089894
0.06129919,0.8005362,0.6200844
0.06221857,0.7956103,0.6301597
0.06329296,0.7995194,0.6254912
0.06418386,0.8039893,0.6204789
0.06582239,0.8028917,0.6241938
0.06678689,0.8023464,0.6203844
0.06751342,0.8005594,0.6139635
0.06996328,0.797552,0.6164593
0.07259615,0.7947257,0.6144104
0.07399061,0.7899883,0.6094372
0.07131937,0.7904084,0.613592
0.0572593,0.7916835,0.6274499
0.0400034,0.7872168,0.643705
0.03659757,0.7894676,0.6463536
0.04127716,0.7960041,0.6364632
0.03905973,0.8020949,0.620723
0.04525538,0.8080871,0.6021645
0.08058724,0.8024518,0.6018232
0.1132363,0.7970662,0.6089941
0.1055771,0.7995347,0.6015906
0.1007817,0.7976191,0.6014688
0.1435295,0.7958428,0.5993339
0.1706995,0.7943354,0.5862979
0.1376027,0.7943203,0.5920876
0.1068617,0.7972905,0.5970957
0.1091519,0.7952255,0.5959348
0.106864,0.7942986,0.6077309
0.09029946,0.7939272,0.6169133
0.08225095,0.7903693,0.6316639
0.07886807,0.7882284,0.6409818
0.07493337,0.7851251,0.6284902
0.08054105,0.7853777,0.6243255
0.07907927,0.7876971,0.6277076
0.07355065,0.7873365,0.6285972
0.07368531,0.7908393,0.6341301
0.06932755,0.7945205,0.639432
0.06677799,0.798065,0.6370791
0.05578347,0.8055159,0.6148582
0.04722959,0.8073373,0.5868061
0.0581353,0.8011276,0.5940757
0.06334202,0.7948113,0.6272993
0.06569805,0.7947716,0.6339938
0.07377923,0.7972791,0.6200645
0.0797819,0.7961945,0.6216122
0.08072242,0.7970231,0.6245319
0.07663099,0.7971678,0.621883
0.0775611,0.7951984,0.6210084
0.07646597,0.7988344,0.6164451
0.07250266,0.8008207,0.6176872
0.07372343,0.7977281,0.6202287
0.07077578,0.7958743,0.6170807
0.06568676,0.7964739,0.615664
0.06288983,0.7989444,0.6129972
0.0650206,0.799804,0.6141663
0.071506,0.7997871,0.619529
0.07374431,0.7994512,0.6208173
0.07418901,0.7979711,0.6185004
0.073267,0.798849,0.6134054
0.07205176,0.7999758,0.6129359
0.07183106,0.8008136,0.6149964
0.06952462,0.8020032,0.613035
0.06959173,0.8012202,0.6130828
0.06978016,0.8012177,0.6134934
0.07041698,0.801664,0.6162937
0.0718937,0.8008253,0.6220346
0.06908276,0.7996768,0.6219786
0.06949213,0.7979266,0.6218381
0.0722091,0.7972287,0.6238544
0.0740465,0.7967478,0.6257439
0.07714156,0.7960816,0.6285482
0.07616064,0.7977045,0.6244733
0.07425103,0.7985868,0.6194186
0.07080293,0.7979267,0.6201308
0.06607899,0.7970404,0.6172349
0.06854802,0.7942916,0.6146126
0.07186714,0.7937273,0.616024
0.07311625,0.7956608,0.6169752
0.07430956,0.7970243,0.6199029
0.07217721,0.8003757,0.621558
0.0708389,0.8018334,0.6208585
0.07128402,0.8007934,0.6217673
0.07233111,0.8010843,0.6214828
0.07546512,0.7976508,0.617795
0.07915593,0.7934928,0.61249
0.08175213,0.7947237,0.6111893
0.07605856,0.797555,0.6120076
0.06521983,0.8001562,0.6116775
0.06453887,0.8034967,0.615903
0.06728385,0.8071463,0.6199759
0.0653163,0.8071222,0.6230535
0.06708547,0.8043929,0.6273348
0.07150951,0.8034065,0.6225015
0.07419013,0.7955422,0.6177826
0.07121152,0.7849009,0.6251603
0.06463297,0.788801,0.6285964
0.06477475,0.7960148,0.6181561
0.06767816,0.7955382,0.6084683
0.07437046,0.7964769,0.6110818
0.08588005,0.7970336,0.616305
0.08581825,0.7979986,0.616288
0.07813374,0.801624,0.6141594
0.07550776,0.8019381,0.6106283
0.07577213,0.8043641,0.6105942
0.07702744,0.8084871,0.6139105
0.07645802,0.808656,0.6139722
0.07508368,0.8075233,0.6131958
0.07376307,0.8035702,0.610118
0.07095837,0.8001609,0.6054395
0.07279513,0.8010421,0.6074679
0.07607798,0.8013025,0.6132512
0.07433945,0.7973554,0.6172264
0.07191745,0.7925478,0.6186152
0.07161563,0.7927581,0.6174424
0.07459273,0.794363,0.6146939
0.07592778,0.794519,0.6129337
0.07463016,0.7948284,0.6150554
0.07769141,0.7952218,0.616179
0.08104103,0.797704,0.6158042
0.08258797,0.8003271,0.6180575
0.08258515,0.8018859,0.6184856
0.08193278,0.8018852,0.6177367
0.08421621,0.8006875,0.6182153
0.08237279,0.8024171,0.616205
0.07689734,0.8053198,0.6091396
0.07236767,0.808473,0.6014629
0.07090474,0.8089363,0.6030305
0.07509992,0.8045309,0.6068819
0.07439366,0.8026095,0.606077
0.06805142,0.802685,0.610594
0.06433712,0.8025905,0.613128
0.06698242,0.802997,0.6096342
0.07550283,0.8015593,0.6114263
0.07776054,0.8011689,0.6117251
0.07570877,0.8007974,0.6101469
0.07606435,0.7976548,0.6118814
0.07586941,0.7949611,0.6108332
0.07670062,0.7954037,0.6117784
0.0746736,0.797065,0.6152138
0.07288653,0.7952419,0.6152881
0.0733642,0.7953479,0.6151084
0.07063858,0.7995016,0.6181389
0.07137077,0.7998983,0.6213712
0.07324264,0.7996862,0.618942
0.07269077,0.8008416,0.6185544
0.07383671,0.8014704,0.62045
0.07284766,0.8037156,0.6170749
0.07091637,0.8047652,0.6178308
0.06881216,0.804394,0.6198689
0.0659963,0.8033982,0.6187318
0.0683159,0.8014782,0.6190919
0.0729531,0.8025791,0.6175288
0.0744173,0.8029362,0.6181693
0.07496241,0.7986029,0.6204705
0.07454782,0.7961449,0.6207837
0.07324246,0.7964735,0.6210132
0.0753817,0.7940298,0.6189818
0.07634495,0.7913077,0.6203463
0.07072996,0.7955684,0.6269249
0.06625969,0.8005116,0.630388
0.06768429,0.7959209,0.6261525
0.0699945,0.7932607,0.6190471
0.07325376,0.8008249,0.6164611
0.08234784,0.8083326,0.6125134
0.0874863,0.811254,0.6041267
0.08171723,0.8089877,0.5967476
0.07828195,0.8035496,0.5951438
0.07497187,0.7975569,0.6039622
0.06090524,0.7901061,0.6185578
0.04246965,0.7874464,0.6384303
0.03495327,0.7886353,0.6535215
0.04990753,0.7863976,0.6422541
0.06770879,0.7838191,0.6291733
0.07122238,0.7839432,0.636711
0.07514254,0.7836732,0.6356933
0.07438554,0.7820161,0.6253318
0.06616152,0.7867695,0.6221447
0.0655372,0.7960965,0.6175666
0.06245906,0.7995429,0.6186613
0.05942517,0.8027936,0.6198318
0.06761381,0.8090051,0.608497
0.0725346,0.8136891,0.6024685
0.07496,0.8164477,0.6041268
0.07987446,0.8158342,0.6073921
0.08182724,0.8163897,0.6094578
0.08264236,0.8186725,0.6066233
0.07952968,0.8152203,0.6071469
0.07405389,0.8069471,0.6086418
0.06862824,0.7992134,0.6117874
0.06600076,0.7958441,0.6161184
0.06925487,0.796481,0.6152039
0.06819511,0.7954853,0.6166926
0.0670548,0.7923439,0.6165247
0.06918139,0.7904066,0.615203
0.06575912,0.7896855,0.621239
0.06006214,0.7904382,0.6262263
0.05447371,0.790797,0.6249493
0.05924629,0.7910257,0.6203217
0.07170186,0.794572,0.6168428
0.07459747,0.7978131,0.6133196
0.07661592,0.7994747,0.6099302
0.07690327,0.8011655,0.6125315
0.07303841,0.803052,0.6169926
0.07569925,0.8045519,0.6179893
0.07534252,0.8003611,0.6134481
0.07301123,0.795957,0.6068546
0.0743241,0.7972831,0.6049317
0.0725072,0.7994989,0.6048878
0.07100916,0.8067923,0.6070941
0.06905029,0.8140095,0.6112906
0.0682857,0.8055959,0.6146321
0.06777311,0.7958278,0.6308603
0.05741361,0.8038633,0.651865
0.0506643,0.8127173,0.6426872
0.05950287,0.8092198,0.6183873
0.06943586,0.7955311,0.6094231
0.06912906,0.7715677,0.60766
0.06547125,0.7633027,0.6127599
0.0625034,0.7757966,0.6173803
0.05829282,0.7843006,0.6154112
0.06786936,0.797347,0.6189878
0.08785532,0.8070236,0.6184649
0.09482066,0.8043297,0.6189439
0.09292522,0.8101356,0.6239133
0.08390968,0.8126964,0.619887
0.06624328,0.8100455,0.6136598
0.05634042,0.8102246,0.6010785
0.05616704,0.8011027,0.5924502
0.0572297,0.7974182,0.5971355
0.05945633,0.8008634,0.5975069
0.06915611,0.8022312,0.605307
0.08316844,0.8092175,0.622357
0.0847232,0.8104479,0.6276326
0.08017287,0.8112784,0.620204
0.08506809,0.8213842,0.6140952
0.08787831,0.8226604,0.6173113
0.0842621,0.8128637,0.6173875
0.08179742,0.8007097,0.6154857
0.07686846,0.7937192,0.6176078
0.07190492,0.7904698,0.6164691
0.06970746,0.7831194,0.6173822
0.07151897,0.7844247,0.6188419
0.07718041,0.7917353,0.6184834
0.07456603,0.7924271,0.6227189
0.07144205,0.7982798,0.6263357
0.07497391,0.8025709,0.6247345
0.07240792,0.7990282,0.6205529
0.07125738,0.8013364,0.6186642
0.07338504,0.7983462,0.618331
0.07260124,0.7903714,0.6133423
0.07504103,0.7920129,0.6051068
0.0751854,0.7947766,0.6019172
0.07265673,0.8011854,0.6059127
0.07210671,0.8118088,0.6091629
0.07192364,0.8158451,0.6115902
0.07378364,0.8157149,0.6133671
0.07468287,0.8134665,0.6114993
0.07505477,0.8118296,0.6122608
0.07541357,0.8097049,0.6104226
0.07446747,0.8038463,0.6061165
0.07530566,0.7984664,0.6068946
0.0750516,0.7971604,0.6044933
0.07467355,0.8005177,0.6037074
0.07612136,0.8007322,0.6088383
0.07845154,0.7995498,0.6122375
0.08262711,0.8007465,0.6165385
0.08241257,0.7977992,0.6211641
0.07900225,0.7977915,0.6235482
0.07819024,0.7988649,0.6226057
0.07738953,0.7960783,0.6171291
0.07733692,0.7975734,0.6126088
0.07620403,0.7991057,0.6146998
0.07317522,0.8009439,0.6183566
0.07311885,0.8041736,0.6143832
0.07292352,0.8026914,0.6114126
0.07083191,0.8022058,0.6135329
0.07086558,0.803507,0.6129003
0.07276889,0.8036167,0.6144868
0.07435808,0.8052756,0.6168114
0.07464818,0.8059379,0.6189947
0.07488541,0.8044096,0.6214647
0.07534264,0.8036605,0.615015
0.07463507,0.8033501,0.6094542
0.07420491,0.8025622,0.6120054
0.07428717,0.8024325,0.6132903
0.07423648,0.8026458,0.6121852
0.07498544,0.8031682,0.6110842
0.07670632,0.8035351,0.6103105
0.07855024,0.8010364,0.6092609
0.0778081,0.7991753,0.6097662
0.0762302,0.7997556,0.6109328
0.07625006,0.7981922,0.6101967
0.07443905,0.7980811,0.6106427
0.07296438,0.7996347,0.6113807
0.07426175,0.7989663,0.6124359
0.07635171,0.8000768,0.614658
0.07822138,0.7996648,0.6151046
0.07628742,0.7975567,0.612893
0.07381596,0.799005,0.6100586
0.0751889,0.7986113,0.6117812
0.07503755,0.7972665,0.6134971
0.07278347,0.7979318,0.6107792
0.07203971,0.7998794,0.609966
0.07296718,0.8042474,0.6097033
0.07412157,0.8050724,0.6086639
0.07383894,0.8031218,0.6065763
0.07399446,0.8026148,0.6040683
0.07429668,0.800752,0.6099897
0.07160294,0.8000694,0.6168316
0.04144644,0.9395943,0.4286008
0.06041992,0.900027,0.3421726
0.02377174,0.9350288,0.4164004
-0.01136529,0.9674807,0.526382
0.01946004,0.9722322,0.4938309
0.04293238,0.9872357,0.4724292
0.03118603,0.9969317,0.4971841
0.03835946,0.9917664,0.4349483
0.05175641,0.98133,0.3972539
0.04983709,0.9702146,0.4183666
0.04853281,0.9493543,0.4525891
0.04212559,0.9236473,0.507833
0.03438422,0.9187707,0.5104208
0.04188842,0.9031528,0.5129122
0.06104613,0.8401104,0.5633655
0.07769443,0.7983925,0.5924925
0.07069093,0.8126167,0.5976596
0.05427666,0.8047718,0.6088898
0.05406809,0.7807235,0.6268192
0.05082433,0.7879789,0.6127817
0.04432339,0.7826133,0.6044169
0.04694786,0.7672713,0.6236495
0.0459944,0.762627,0.622245
0.04508912,0.7440284,0.6369829
0.04656075,0.7365843,0.6512794
0.04501678,0.7365274,0.6463854
0.0424262,0.7263263,0.653797
0.03151038,0.7330523,0.652185
0.01438434,0.7383445,0.6553619
0.004398379,0.7469399,0.6537789
0.003987922,0.7711706,0.6405929
0.003888923,0.7800654,0.6380379
0.001075249,0.7873567,0.6255906
0.005372323,0.7898852,0.619217
0.01057014,0.7820739,0.6230959
0.007245963,0.7876164,0.6249234
0.006468258,0.7857741,0.6300563
0.01267417,0.7763177,0.6202668
0.0206949,0.7724892,0.6101133
0.02587092,0.7672841,0.6161371
0.02311259,0.7683599,0.6263623
0.01772355,0.768543,0.6357855
0.01657367,0.7679323,0.635342
0.01888378,0.7711331,0.6270303
0.02477107,0.7708781,0.6231144
0.0255577,0.7798636,0.6257988
0.01251064,0.8006598,0.6292686
0.002875676,0.8281438,0.6264239
0.01557503,0.859237,0.6054614
0.0363491,0.8832966,0.5721287
0.04262971,0.9061405,0.5566661
0.04137508,0.9244796,0.5498907
0.04206208,0.9262722,0.5357673
0.03984671,0.9159998,0.5344352
0.03834127,0.8964451,0.5334692
0.03746011,0.8751214,0.5255795
0.03871202,0.8585068,0.5335093
0.04550192,0.8418772,0.5434819
0.04808012,0.8326727,0.5494034
0.04535952,0.8377252,0.5584342
0.04125973,0.8398758,0.5623865
0.03901072,0.8353379,0.5709155
0.03902669,0.8380424,0.5833638
0.03728989,0.8384666,0.592902
0.03764701,0.8339795,0.5960579
0.03670758,0.8270852,0.5935681
0.03201497,0.8092614,0.6045827
0.02664713,0.7994178,0.6115895
0.02094985,0.7994414,0.6113557
0.01759029,0.7935219,0.6224946
0.01294834,0.7924607,0.622432
0.01173343,0.7935023,0.6218254
0.01368388,0.7955355,0.6266677
0.01077243,0.8016786,0.6222224
0.01236556,0.7960487,0.6276299
0.01623672,0.7884707,0.6321728
0.01749405,0.7896153,0.6275609
0.01806354,0.7845769,0.6245487
0.01478053,0.7790138,0.6208775
0.01469689,0.7806888,0.6258486
0.01527777,0.7793411,0.6301191
0.01452975,0.7780702,0.6264401
0.01946459,0.7807536,0.6259771
0.02214423,0.7845336,0.6248235
0.02018634,0.7961342,0.6237198
0.01761857,0.8086396,0.6220767
0.01474798,0.8096917,0.6180096
0.01311074,0.810541,0.6183037
0.0121023,0.8165659,0.6168966
0.01243382,0.8177805,0.6121722
0.01236062,0.8158835,0.6136087
0.01054253,0.8158013,0.616049
0.00927014,0.8152382,0.6143353
0.009102367,0.8156605,0.613631
0.008377963,0.8191554,0.6133846
0.006375378,0.8211357,0.6170537
0.007673743,0.8172006,0.6222863
0.01041357,0.8115907,0.6157844
0.01048305,0.8110769,0.6093041
0.01135025,0.8120097,0.6136614
0.01138951,0.8094212,0.6160793
0.01065884,0.8059663,0.6166174
0.0124986,0.8017376,0.6185489
0.01640992,0.79814,0.6188748
0.02039594,0.7987818,0.6208188
0.01764184,0.800051,0.6225461
0.01301252,0.7991354,0.6229109
0.01530304,0.7986104,0.6239654
0.01439511,0.7981168,0.6227419
0.01083822,0.7976058,0.6215787
0.01290334,0.8024535,0.6225126
0.01296793,0.80781,0.6229338
0.01143747,0.8054464,0.6256624
0.01122031,0.8035998,0.6290277
0.009025017,0.8047443,0.6284348
0.009537124,0.8038406,0.6288041
0.01132817,0.804293,0.6307861
0.0112524,0.805179,0.6273207
0.01308632,0.8051519,0.6231005
0.01426716,0.8068596,0.6247498
0.01282336,0.808837,0.6240516
0.01118593,0.8084854,0.6206843
0.01128744,0.8060115,0.6214388
0.01400408,0.804524,0.6214947
0.01661145,0.803201,0.6219064
0.01817191,0.8014466,0.6243021
0.01942939,0.8031022,0.6219795
0.01727496,0.8060081,0.6195974
0.01120429,0.8091022,0.6217207
0.008128021,0.8114387,0.6237708
0.0103128,0.8056721,0.6252401
0.01198742,0.7981988,0.6245019
0.0122149,0.7986295,0.6217847
0.01057175,0.7992943,0.6220369
0.006152318,0.7980803,0.622244
0.004743425,0.7999658,0.6204401
0.007287413,0.8013338,0.6208781
0.01004507,0.801739,0.6229207
0.01182149,0.8034147,0.6244735
0.01131509,0.8037565,0.6251442
0.01080304,0.8008689,0.6251655
0.01227139,0.7972412,0.6249576
0.01283337,0.7981541,0.6248271
0.0125447,0.7997264,0.6252223
0.01340593,0.7978904,0.6247369
0.01382851,0.7993046,0.6234566
0.01217781,0.8027304,0.6207214
0.01039542,0.8042553,0.6172169
0.01095786,0.8032055,0.6168817
0.01160259,0.8001731,0.6170471
0.01042125,0.8025432,0.6174868
0.009327183,0.8058293,0.620427
0.008025186,0.8052052,0.6214351
0.007832945,0.8054849,0.6212159
0.008749043,0.80274,0.6234306
0.007227523,0.8004177,0.6258835
0.00645836,0.8027315,0.6266061
0.00761019,0.8040473,0.630893
0.008944677,0.8033785,0.6384374
0.01207683,0.7987322,0.6357098
0.01333267,0.7942288,0.6253605
0.01198039,0.7967049,0.6224661
0.01137216,0.8002787,0.6263346
0.009582256,0.8001777,0.6301391
0.006548138,0.7997714,0.6295957
0.004860549,0.8004173,0.6280533
0.005367021,0.8005564,0.6289568
0.006549357,0.7998625,0.6265193
0.007994909,0.7955562,0.6227832
0.0104618,0.791288,0.6203031
0.009759404,0.7942921,0.6202334
0.006188439,0.797428,0.6250395
0.005312054,0.7970879,0.6277399
0.006670152,0.7976439,0.6297354
0.008778148,0.7980158,0.6317117
0.008725913,0.7985811,0.6299285
0.006107924,0.7980676,0.6305981
0.006994391,0.796712,0.630026
0.009751646,0.7981891,0.6243101
0.01160684,0.7991894,0.6164673
0.01333407,0.798726,0.6117222
0.01212735,0.8010903,0.6168457
0.01024292,0.8056259,0.6200599
0.009653306,0.8079642,0.6174619
0.009295261,0.8057637,0.6203561
0.009708605,0.8032117,0.6245036
0.007963899,0.8040359,0.6255954
0.006079673,0.8037276,0.625326
0.007451733,0.7992628,0.6254262
0.008946699,0.7945918,0.6266277
0.009849249,0.7937412,0.6246987
0.009170369,0.7947605,0.6228138
0.007798776,0.794441,0.6246716
0.009479407,0.793976,0.6241165
0.01174267,0.7927777,0.6176718
0.01381699,0.7920954,0.6121513
0.01510131,0.7988391,0.6188885
0.01016314,0.8118561,0.6356703
0.005387757,0.816909,0.645573
0.01027195,0.8062489,0.6417447
0.01396524,0.7971433,0.6361831
0.006670619,0.802268,0.631433
-0.003901346,0.8068434,0.6144519
-0.01663492,0.8053257,0.6050442
-0.0274086,0.802066,0.6262586
-0.02221889,0.7937465,0.644053
-0.008965711,0.7878063,0.6364142
0.01594532,0.7862965,0.6206677
0.06071978,0.7868758,0.6036627
0.07713737,0.7984683,0.596911
0.06112207,0.8137512,0.604797
0.06029971,0.8203163,0.6096764
0.05340393,0.8136024,0.6125542
0.04199853,0.7995925,0.6206352
0.04584781,0.7940196,0.6254569
0.03051635,0.7914538,0.6262331
0.01481273,0.7944539,0.6272838
0.0144553,0.8052578,0.6289562
0.007137219,0.8056756,0.6299503
0.007263973,0.8050872,0.6273405
0.01572309,0.8061939,0.6229352
0.02524566,0.8020612,0.6182083
0.02496106,0.8003763,0.6201325
0.01789925,0.7976208,0.6293646
0.02456685,0.7994154,0.6309936
0.02323202,0.8033938,0.6260603
0.02349914,0.8021699,0.6174837
0.03916273,0.8033793,0.6057505
0.04324718,0.8038873,0.5995765
0.04094386,0.809295,0.5984888
0.03479454,0.8187741,0.6003532
0.02898445,0.8188011,0.6014505
0.02792664,0.8156121,0.6068403
0.02426042,0.8147092,0.6157696
0.02757609,0.8138912,0.611974
0.02885055,0.8084628,0.6056602
0.03242243,0.8012277,0.6054476
0.0422361,0.8017845,0.6077543
0.03987184,0.8024651,0.6170082
0.03640507,0.7993184,0.6245928
0.03335308,0.7972517,0.6249577
0.02918041,0.7932111,0.6240228
0.02842199,0.7908384,0.6242447
0.02354388,0.7899645,0.6219149
0.02409555,0.7859564,0.6192957
0.02656048,0.7873651,0.6212167
0.02399963,0.7907745,0.6192068
0.02515206,0.7913753,0.617149
0.02540229,0.8002851,0.6204555
0.02447693,0.8097017,0.6212231
0.02588082,0.8094748,0.6209794
0.02884595,0.8074798,0.6202521
0.03613176,0.808153,0.6177238
0.04110437,0.8090672,0.6112951
0.03800612,0.8077792,0.60411
0.03645441,0.8079493,0.6058961
0.04007733,0.8070962,0.6082439
0.04089086,0.8055396,0.6063881
0.03922364,0.812099,0.6070727
0.03649663,0.817533,0.6080971
0.0314181,0.8154757,0.609662
0.02865867,0.8141213,0.6147436
0.02662548,0.8144623,0.6192599
0.02437966,0.8116465,0.6158312
0.02755098,0.8065506,0.61021
0.02997137,0.8030298,0.6134137
0.02501008,0.7973252,0.6187304
0.0202157,0.7931756,0.6202329
0.02148315,0.7947808,0.6203567
0.02694383,0.7955131,0.6187237
0.03248235,0.7954316,0.6178015
0.03303946,0.7929848,0.6179468
0.03068684,0.7887404,0.6189352
0.02974837,0.7892008,0.6227656
0.02638321,0.7939606,0.625364
0.02341498,0.7998207,0.622073
0.02576695,0.8030482,0.6172737
0.02723836,0.8046871,0.6183297
0.02729419,0.8060649,0.6182384
0.026655,0.8069485,0.6123247
0.02413125,0.8091263,0.6106215
0.02568374,0.8085015,0.6127535
0.02747385,0.8066335,0.6145821
0.02561771,0.8076121,0.614783
0.02552542,0.8085411,0.6146659
0.02503453,0.8101542,0.6178435
0.0241538,0.8101106,0.6171615
0.02369594,0.8076799,0.6164682
0.02237369,0.8066814,0.6197093
0.02636244,0.8050296,0.6198385
0.0317608,0.8050862,0.6227973
0.03190582,0.8060017,0.6252199
0.03317116,0.803069,0.6236928
0.03423689,0.8006395,0.625401
0.03168637,0.7977054,0.6262645
0.03145549,0.794024,0.6276382
0.03170191,0.792905,0.6274581
0.03058296,0.7905142,0.6203715
0.030699,0.7909075,0.6178398
0.0269215,0.7992396,0.6174717
0.02161383,0.8074157,0.6117401
0.01974166,0.8093877,0.6121941
0.01664335,0.8120088,0.6134611
0.01553027,0.8172552,0.6070403
0.0178774,0.815514,0.6044553
0.01888157,0.8109908,0.6044773
0.02277681,0.8086196,0.6064018
0.02839195,0.8035264,0.6115845
0.03122498,0.8025916,0.6123134
0.03461881,0.8021979,0.6143532
0.03649137,0.7983839,0.6158348
0.03604847,0.8024635,0.6142826
0.0370087,0.8062419,0.616421
0.03667577,0.8059114,0.6169521
0.03436607,0.8078963,0.6175484
0.03098221,0.8068635,0.6163708
0.0261579,0.8074545,0.6129048
0.02328924,0.8092947,0.6184956
0.02212918,0.8078145,0.6228825
0.01985473,0.8084442,0.6195117
0.01953628,0.8084875,0.6186812
0.02247856,0.8082244,0.6198036
0.02372837,0.8095374,0.6192107
0.02636071,0.8093945,0.6177205
0.03375801,0.8074453,0.618079
0.03859864,0.8022891,0.6198391
0.04147267,0.7982558,0.6193065
0.04166516,0.7982917,0.6163981
0.03575299,0.7999815,0.6137242
0.03250017,0.8049898,0.6116752
0.03177571,0.8102469,0.6095164
0.03125621,0.8100374,0.6135069
0.03273643,0.8086253,0.624532
0.03165476,0.8101934,0.629039
0.03127621,0.8090757,0.6208538
0.03079335,0.8072676,0.6131951
0.02804178,0.8094905,0.614954
0.02956728,0.8109751,0.610491
0.03149267,0.8129228,0.6001588
0.03101074,0.8133801,0.6053175
0.02804284,0.8117744,0.6165883
0.02315549,0.814783,0.6232362
0.02506373,0.8151667,0.6271523
0.02938797,0.8091072,0.6207341
0.03081655,0.8006214,0.6168662
0.03204561,0.7934963,0.6201901
0.02755009,0.7918849,0.618291
0.02271281,0.7893039,0.6192539
0.02449772,0.7883332,0.6215431
0.0254854,0.7916527,0.6237626
0.02752523,0.7901823,0.6290809
0.03233268,0.7897398,0.6239743
0.03226562,0.7929044,0.6179694
0.02901639,0.7958997,0.6223703
0.02582712,0.8004814,0.6222624
0.02188406,0.8019161,0.6152431
0.01978817,0.8054043,0.6089477
0.01982673,0.8123987,0.6071786
0.02202124,0.8108473,0.6105657
0.02616433,0.8082702,0.6117739
0.02857361,0.8110083,0.6088523
0.03106159,0.8123622,0.6075665
0.03283407,0.8141683,0.6080431
0.02941926,0.8128684,0.6094821
0.02680188,0.8059255,0.6117806
0.02788517,0.7998593,0.6119032
0.02855479,0.7960475,0.6137248
0.02678284,0.796107,0.6217999
0.02056827,0.7971583,0.6275642
0.01457696,0.7958598,0.6251399
0.01339372,0.7958001,0.6240863
0.01151778,0.7950365,0.6282372
0.007253579,0.7951931,0.6309396
0.008839312,0.7982313,0.6324389
0.01562859,0.8001487,0.6321333
0.01855784,0.8040031,0.6283021
0.02068344,0.8075096,0.6221979
0.0254454,0.8018734,0.612038
0.03397065,0.7913538,0.606965
0.04231714,0.7886922,0.6125563
0.03746311,0.7936803,0.6183751
0.03319781,0.7957096,0.6219107
0.03791707,0.796038,0.621154
0.0359261,0.8003066,0.615917
0.03486001,0.8044224,0.6144841
0.03531911,0.802501,0.6144235
0.03105154,0.7979898,0.6135831
0.03046604,0.7976225,0.6140454
0.02519726,0.8016822,0.6142936
0.01441148,0.8102945,0.6177048
0.01114474,0.815184,0.624841
0.01099176,0.8114473,0.6308208
0.008267645,0.8101144,0.630393
0.009836793,0.8100376,0.6235008
0.01523511,0.8089492,0.6185391
0.01631577,0.8102918,0.6177233
0.01966762,0.8078572,0.6168413
0.02622339,0.7995855,0.6161575
0.02845439,0.7887266,0.6190264
0.03108007,0.7843247,0.6249852
0.0299307,0.7872431,0.6297184
0.02422091,0.7861657,0.6324235
0.02027339,0.7877275,0.6368681
0.0148854,0.7960595,0.6418322
0.01253645,0.8011264,0.6372379
0.02178269,0.7996032,0.6257617
0.04896642,0.7917759,0.6090379
0.07196878,0.7855211,0.5894137
0.06379968,0.7825914,0.6006007
0.05725331,0.7781144,0.6228466
0.063613,0.7817034,0.6151571
0.04925573,0.798886,0.6156495
0.03073507,0.8223066,0.6221632
0.03036966,0.8349067,0.6119348
0.03189946,0.8292044,0.613757
0.02711054,0.8272672,0.6166838
0.01670055,0.8305442,0.6190115
0.006253376,0.818344,0.6293826
0.00261904,0.8009562,0.6267156
-0.001454205,0.7912373,0.6272917
-0.004871351,0.7882973,0.6344478
0.006653899,0.7931981,0.6341782
0.02752167,0.7960668,0.6329761
0.03770283,0.7954081,0.6249781
0.04518706,0.7954435,0.6158913
0.05829958,0.7894982,0.6126007
0.05649674,0.7825753,0.613373
0.04717862,0.7796922,0.61909
0.0422133,0.7788287,0.6227994
0.03044509,0.7805545,0.6276041
0.02464109,0.7829363,0.630457
0.0268138,0.787058,0.6305061
0.02448516,0.7931244,0.6362986
0.02101407,0.7985505,0.637864
0.01641206,0.7992343,0.6343764
0.01640175,0.7976247,0.6309019
0.02207324,0.800204,0.6289424
