accx,accy,accz
0.002045441,0.8362437,0.5841604
0.002947598,0.8382501,0.5841982
0.003000057,0.8411186,0.5804649
0.001608038,0.8414331,0.5759166
0.002159049,0.8414837,0.577655
0.004036756,0.8362744,0.5790648
0.007180248,0.8292262,0.5799194
0.01092741,0.8288426,0.5866362
0.009118462,0.8308144,0.5914806
0.006181292,0.8331705,0.5906131
0.007112568,0.8328458,0.5879922
0.006935793,0.8334003,0.5830957
0.005757501,0.8369842,0.5795109
0.005509421,0.8377564,0.5806273
0.00503046,0.8386728,0.578469
0.003886878,0.8380601,0.5760977
0.002998552,0.8369728,0.579419
0.006150754,0.8378927,0.5804107
0.01088391,0.8371869,0.5814836
0.009639684,0.8373045,0.5805473
0.006156674,0.8352598,0.5761981
0.005315377,0.8311826,0.5805841
0.005345059,0.8301208,0.5836788
0.006599534,0.8311977,0.5797676
0.006054884,0.832775,0.5786006
0.003198456,0.8321246,0.5773894
0.002338641,0.833704,0.5774427
0.002680192,0.8379908,0.578185
0.003032416,0.8396017,0.5764503
0.00271521,0.8400491,0.5767886
0.002584755,0.8368612,0.5790731
0.003259204,0.8329991,0.5808171
0.003448812,0.8332548,0.5783179
0.004468144,0.831055,0.5754765
0.004432767,0.8283037,0.5804598
0.002993505,0.8328242,0.5855163
0.0007383437,0.8403024,0.58498
-0.003431853,0.8417498,0.5844188
-0.003106434,0.8355199,0.5848198
0.00088623,0.82945,0.5847705
0.001781027,0.8316201,0.5846494
0.001016583,0.8343566,0.5843889
-0.001471612,0.8313748,0.5829706
-0.003515315,0.8307177,0.5820508
-0.001367637,0.8299023,0.585353
0.001906943,0.828992,0.5888162
0.003485966,0.8342863,0.586805
0.00289331,0.8368747,0.5849674
0.001819461,0.8335711,0.5880318
0.0003759318,0.833881,0.5925603
-0.002211675,0.8477204,0.5944339
-0.002063268,0.8596982,0.5891303
-0.001457969,0.8419892,0.5825591
-0.002759905,0.8233598,0.5824114
0.000566292,0.8324235,0.5831702
0.004504607,0.835657,0.5851226
0.002696866,0.8287595,0.5855037
0.002076592,0.8337907,0.5818521
0.003398172,0.8346236,0.5838423
0.002584199,0.8302014,0.5854741
0.002612599,0.8311535,0.582826
0.003070233,0.8282915,0.5780611
0.002559302,0.8284761,0.573294
0.002300226,0.830934,0.584546
0.0001788723,0.8297585,0.5971235
-0.0012769,0.8329444,0.5913015
0.004124299,0.8328386,0.5874868
0.01094561,0.8325186,0.5901859
0.01021769,0.836317,0.588252
0.005599571,0.8369708,0.5875038
0.0006172997,0.846672,0.5881204
-0.004705538,0.8558521,0.5867531
-0.003631442,0.8405034,0.5879332
-0.001416502,0.8230772,0.5887671
-0.005551478,0.8282184,0.587563
-0.006272582,0.8317893,0.5851352
-0.004865121,0.8248513,0.5805273
-0.005018975,0.8286167,0.5835809
9.340675e-05,0.8324046,0.5895675
0.004432988,0.8325125,0.5885631
0.003129968,0.8369136,0.5872326
0.001768159,0.8337996,0.5828863
0.002136792,0.8320129,0.5790039
0.00153215,0.8332989,0.5825674
0.0008312909,0.8322354,0.584239
0.00285605,0.835838,0.58183
0.003047029,0.8332529,0.579597
0.002385091,0.8298929,0.5788141
0.002692094,0.8323646,0.5796696
-0.0002562697,0.8312085,0.582108
-0.002102019,0.8336705,0.5851042
-0.001523052,0.8360787,0.5848012
-0.001147963,0.8337319,0.5825342
-0.0007577676,0.8329939,0.5815214
0.0009123026,0.8315654,0.5817982
0.003963619,0.8313783,0.5824429
0.002990814,0.8317682,0.5815935
0.001943028,0.83088,0.5781989
0.003490092,0.8326478,0.5736524
0.002508539,0.8350958,0.5748513
0.002636497,0.8359239,0.5812873
0.0031303,0.8333563,0.5845124
0.002424003,0.8279865,0.585725
0.002105366,0.8275702,0.5865828
-0.001734009,0.8332088,0.5872305
-0.005624966,0.8378332,0.5867317
-0.004540194,0.8379635,0.5818262
-0.003279007,0.8351901,0.5801773
-0.004585282,0.8342531,0.5826179
-0.004391051,0.8360392,0.5820602
-0.003630436,0.8372729,0.5820618
-0.004421311,0.8374531,0.5838297
-0.003177625,0.8348112,0.5852545
-0.001202638,0.829495,0.5855263
0.002304435,0.8269943,0.5868447
0.007309966,0.830535,0.5895486
0.00510448,0.8357496,0.5865062
-0.001114793,0.8365459,0.5830233
-0.002948166,0.835692,0.5850618
0.0002261059,0.8344648,0.5851952
0.004036971,0.8321073,0.5838111
0.0004509034,0.8318099,0.5831926
-0.003525199,0.8310876,0.5819941
-0.0003496753,0.8312029,0.5841993
0.001056238,0.8334434,0.5869937
0.002314062,0.8336495,0.5834897
0.005714947,0.8340381,0.5803509
0.005581946,0.8339249,0.5824708
0.005568514,0.831616,0.5832723
0.005905124,0.8289109,0.5832349
0.006079631,0.8281794,0.5848094
0.007064071,0.834148,0.5856844
0.004177137,0.8407261,0.5858779
0.001676006,0.8390507,0.5835711
0.003198118,0.8349486,0.5807874
0.004892853,0.8344856,0.5818772
0.005560738,0.8352158,0.58253
0.003904285,0.8373293,0.5813142
0.00200721,0.8396184,0.5811386
0.002653257,0.8371547,0.5804704
0.003228015,0.835005,0.5803678
0.002518825,0.8362171,0.5818253
0.002696429,0.8350679,0.5822755
0.003064339,0.8324047,0.5824467
0.002509278,0.8313989,0.5820448
0.002871851,0.8321458,0.5809083
0.002885741,0.8330912,0.5818972
0.002548118,0.8331912,0.582716
0.002826798,0.8326375,0.582585
0.001760742,0.8315089,0.5845215
0.00127521,0.8320071,0.5853618
0.002310254,0.8331967,0.5846832
0.003078352,0.8333192,0.5865541
0.002752467,0.8335193,0.5882253
0.001570251,0.8330493,0.5858772
0.001303949,0.8323636,0.5791973
0.001321801,0.8322209,0.5727258
0.000857605,0.8338,0.574569
-0.001159478,0.837339,0.5794589
-0.003784029,0.8378476,0.5800347
-0.002261377,0.8353422,0.5835772
0.001787233,0.8342181,0.5878335
0.005215695,0.8346089,0.5855845
0.006051875,0.8348521,0.5833004
0.002458975,0.8338695,0.5850187
0.0003118193,0.8338423,0.590063
0.001055264,0.8354847,0.5930515
-0.00141406,0.8368018,0.5873791
-0.00525198,0.838507,0.5797164
-0.004571941,0.838636,0.5771244
-0.001769716,0.8361882,0.5809603
-0.002520055,0.8335819,0.5862179
-0.003509493,0.8304097,0.5842488
-0.002087259,0.8331056,0.5830552
-0.0019343,0.8491926,0.5867277
-0.001414514,0.8608868,0.5863554
-0.001068643,0.8449972,0.5861901
-0.002757318,0.8242002,0.5892066
-0.002187708,0.8270103,0.5906445
0.0008746503,0.8280474,0.5889097
0.003728147,0.8216525,0.5835908
0.002697136,0.8303752,0.5806091
-0.00180546,0.8348954,0.5822986
-0.002865381,0.8346064,0.5841682
-0.0002749744,0.8405674,0.5850779
0.002395081,0.8364542,0.586034
0.001894377,0.8353344,0.5908183
0.000704114,0.8380086,0.595186
0.003807333,0.8337087,0.5880328
0.004639733,0.8338962,0.5769014
0.002856267,0.8296157,0.5772357
0.00280553,0.8261253,0.5838619
0.001732744,0.8292973,0.5873606
-0.000513369,0.8269086,0.5884624
-0.003836825,0.8277509,0.5878297
-0.003549711,0.8292331,0.5901564
-0.001484494,0.8305158,0.5921936
-0.003530912,0.8361444,0.5872155
-0.002862809,0.8348934,0.5837543
-0.002125138,0.8329334,0.580726
-0.003529473,0.8337915,0.5765344
-0.002301507,0.8330493,0.5788005
-0.00283174,0.8343019,0.5807855
-0.003073971,0.833764,0.5813538
-0.002686779,0.8311672,0.5828794
-0.004951693,0.8299708,0.5798023
-0.005736099,0.8302499,0.5788432
-0.004116754,0.8295943,0.5819189
0.0002380045,0.8258561,0.5842459
0.004437903,0.8244792,0.5873507
0.004636245,0.8268921,0.5850827
0.003970774,0.8294214,0.5809442
0.004044563,0.8327133,0.5836217
0.004349042,0.8377189,0.5860562
0.004125517,0.8407454,0.5866643
0.003139504,0.839975,0.5852819
-8.11952e-05,0.8396067,0.580965
-0.004136967,0.8368722,0.5789178
-0.002376583,0.8320249,0.5802575
2.26491e-05,0.8323158,0.5841849
-0.001619094,0.8330587,0.5837667
0.0003397283,0.832121,0.581238
0.003409487,0.831628,0.5830245
0.002612208,0.8288887,0.5838316
0.001368382,0.827811,0.5877778
-0.0005238084,0.8313972,0.5904356
-0.002145929,0.8355838,0.5861673
-0.001510873,0.8354273,0.5834581
-0.003770888,0.8337466,0.5820616
-0.01225486,0.8348378,0.5847316
-0.01941008,0.8331039,0.5864617
-0.01568409,0.8308555,0.5833686
-0.00514982,0.8329905,0.5859874
0.002529341,0.8356512,0.5870458
0.004636743,0.8376175,0.5851684
0.002851484,0.8340368,0.5874276
0.005616705,0.827204,0.5895321
0.01005467,0.8270101,0.5925245
0.005376008,0.8287972,0.5925331
0.002421143,0.8292824,0.5904014
0.004772373,0.8314607,0.5918058
0.003233429,0.8326758,0.5889433
0.002267901,0.8333318,0.5851542
0.002915247,0.833662,0.5869051
0.00226857,0.8320727,0.5898218
-0.000225605,0.8316348,0.5921085
-0.004139312,0.8321569,0.5889619
-0.004500286,0.8318152,0.5830723
-0.001706907,0.8319988,0.5825462
0.001183087,0.8319749,0.5822656
0.002881592,0.8318408,0.5788923
0.00290244,0.8320768,0.5773984
0.002049885,0.8318412,0.5808659
-0.0008718991,0.831977,0.5859874
-0.003087842,0.831812,0.5867188
0.0005512248,0.8309533,0.5848766
0.00533738,0.8300312,0.5847907
0.00367513,0.8285912,0.5865072
0.0008095851,0.8274544,0.5881983
-0.0005588945,0.8285714,0.5874305
-0.005555107,0.8334434,0.5865198
-0.006819658,0.8375481,0.5876009
-0.003553539,0.8352785,0.5873027
-0.004175636,0.832037,0.5849433
-0.004052043,0.8335623,0.5841083
-0.002020013,0.8358065,0.585939
-0.001542881,0.8361764,0.5862625
-0.002757266,0.8358148,0.5837993
-0.005140861,0.8334874,0.582006
-0.003433458,0.8313429,0.5815361
0.001023463,0.8312382,0.5829606
0.002970087,0.8304816,0.5866141
0.000855179,0.8311328,0.5893958
-0.00306644,0.8326942,0.5864316
-0.001761921,0.8317668,0.580164
-0.001088626,0.8317158,0.5803023
-0.004126644,0.8329974,0.5839855
-0.002524163,0.8354559,0.5850763
-0.002211095,0.8395494,0.5852035
-0.003601244,0.8396725,0.5840247
-0.002160918,0.8378323,0.5843866
-0.002972617,0.8381598,0.5856681
-0.002979278,0.8365265,0.5854542
-0.002357441,0.8353033,0.5866673
-0.003199683,0.8365686,0.5899228
-0.002519693,0.8360955,0.5928519
-0.002093181,0.8351434,0.5890724
0.0006305395,0.8323089,0.585405
0.004127743,0.8262251,0.5877509
0.002967533,0.823396,0.5840423
0.002077395,0.8245669,0.580154
0.002478065,0.8279175,0.5823153
-0.0007452389,0.8327197,0.5822101
-0.004168432,0.8347298,0.5813661
-0.002945765,0.8360007,0.5805205
-0.001999901,0.8372001,0.580121
-0.003512189,0.835423,0.5805164
-0.003606017,0.836082,0.5790756
-0.004152887,0.8375981,0.5785785
-0.004460457,0.836143,0.5798745
-0.002831738,0.83605,0.5814521
-0.002635544,0.8349626,0.5838952
-0.002131209,0.8331422,0.5861022
0.0008948781,0.832003,0.5863469
0.003182083,0.8286496,0.5875353
0.0006594053,0.8271245,0.588726
-0.002368762,0.8280542,0.5881261
0.002205677,0.8302933,0.5885015
0.005829032,0.8338706,0.5840267
0.001539621,0.8354197,0.579713
-0.001414292,0.8345954,0.5837622
-0.001516181,0.8322404,0.5852059
-0.001556931,0.8307128,0.5852458
-0.001128205,0.8304939,0.5878798
-0.0009967307,0.8312676,0.587167
0.001257224,0.8322848,0.5856153
0.003748266,0.8299427,0.5839763
0.00274855,0.8291378,0.5816232
0.001372347,0.8329156,0.5775493
0.00140226,0.8367477,0.5736261
0.001349877,0.8396329,0.5774925
0.001341659,0.8420953,0.5811434
0.001149013,0.8421593,0.5785431
-0.0004928182,0.8379639,0.5787737
-0.001929733,0.8356816,0.5798465
-0.0009817138,0.8361615,0.5786991
0.001585758,0.8346761,0.5792679
0.003480572,0.8338662,0.5793435
0.002823045,0.8329391,0.5797844
0.001430897,0.8329304,0.5842052
0.001858134,0.8330476,0.5888264
0.004058143,0.8310985,0.5875942
0.006356109,0.8320793,0.5814719
0.005585883,0.8326679,0.5773055
0.003077742,0.8331995,0.5758852
0.002560746,0.8357028,0.5756924
0.002720209,0.8350889,0.5761688
0.002786495,0.8360505,0.5745334
0.002926852,0.8384687,0.5749077
0.002579899,0.8369794,0.5780991
0.002875061,0.8336939,0.5811788
0.002844537,0.8292325,0.5866083
0.002592613,0.8267184,0.5888385
0.002975343,0.8297579,0.5868358
0.002666127,0.8330617,0.5863752
0.002760186,0.833979,0.5851119
0.002902581,0.8372009,0.5842341
0.002611796,0.8403701,0.5848872
0.003267537,0.8401648,0.5847526
0.004514507,0.8395163,0.584146
0.006058541,0.8388886,0.5818416
0.005876172,0.8404535,0.5790797
0.004125758,0.8426823,0.579258
0.001381747,0.841524,0.5809518
-0.002694949,0.8413239,0.5811415
-0.002196018,0.8411611,0.5813519
-6.188117e-05,0.8360954,0.582585
-0.002058936,0.8276659,0.5861511
-0.002141712,0.8189994,0.5934744
-0.003354511,0.8127925,0.5995978
-0.006695554,0.8103701,0.6037123
-0.003259818,0.8114774,0.6010847
0.001220168,0.8138092,0.5903725
0.001688865,0.8167154,0.5867947
0.001619637,0.8199884,0.5874628
0.0005118919,0.8223245,0.5851953
-0.001198258,0.8286751,0.5836934
-0.002321712,0.8367114,0.5788169
0.001923017,0.8389849,0.5750615
0.007910201,0.8402701,0.5763801
0.004911902,0.8419909,0.5783734
0.002233512,0.8410505,0.5789011
0.004707536,0.8394159,0.5799301
0.003867126,0.8382693,0.585166
0.003812294,0.8374557,0.5866993
0.004234328,0.8366409,0.5851446
0.003280742,0.8353053,0.5859072
0.004542329,0.830792,0.5841639
0.002412146,0.8278934,0.5849766
0.000177533,0.8322951,0.5880817
0.002856554,0.834627,0.5890862
0.005817458,0.8329587,0.5893431
0.009435754,0.8342624,0.5874012
0.009236356,0.8388542,0.5863812
0.006064826,0.8427708,0.583382
0.004586625,0.8393516,0.5796806
0.0001985103,0.8342384,0.5853429
0.0001443138,0.8338752,0.5924766
0.002808863,0.8301751,0.5923721
-0.001491595,0.8244768,0.5919275
-0.002885983,0.8231323,0.5962908
-0.001622739,0.8236462,0.5998201
-0.00265128,0.8254546,0.5968745
-0.002436546,0.8267899,0.5926672
-0.003207351,0.8275268,0.589984
-0.002756738,0.8321034,0.5865148
-0.002335998,0.8355655,0.5869446
-0.002682319,0.8347542,0.5904889
0.001241602,0.834565,0.5896804
0.004150687,0.8347523,0.5864861
0.004712827,0.8344036,0.5841984
0.005725287,0.8329513,0.5847702
0.004698928,0.831284,0.5872588
-3.553441e-05,0.8315401,0.5850073
-0.005326602,0.8304459,0.5849805
-0.004134946,0.8286174,0.5918493
-0.002656774,0.830034,0.5950161
-0.006726695,0.8322097,0.590693
-0.007642864,0.8315368,0.5857832
-0.005585751,0.8290588,0.5907281
-0.00496478,0.8269776,0.5959159
-0.003803109,0.8264381,0.5912466
-0.002318403,0.8267522,0.5890731
-0.002486191,0.8260741,0.5874537
-0.003386628,0.8261346,0.5871769
-0.003504801,0.8258896,0.5942151
-0.00430095,0.8250184,0.5968569
-0.004727704,0.8288431,0.5949053
-0.004629503,0.8328538,0.5929672
-0.005817272,0.83169,0.5917581
-0.004007899,0.8288474,0.5901898
0.001066058,0.8270581,0.5859662
0.003709099,0.8276345,0.5867053
0.002283262,0.8281844,0.5869558
-0.0005452985,0.8280749,0.583187
-0.002894584,0.8306338,0.5846418
-0.006405424,0.8337758,0.5843457
-0.006758658,0.8341837,0.5814115
-0.003770893,0.8349789,0.5818092
-0.00424103,0.8385863,0.5807584
-0.002796405,0.8398217,0.5783938
-0.001541019,0.8382183,0.5772511
-0.004013432,0.8380041,0.5776492
-0.002335801,0.8365647,0.5781802
-0.002348525,0.8325047,0.5774966
-0.004027636,0.8286496,0.5783282
-0.003736304,0.8276959,0.5809992
-0.006495327,0.8269681,0.5844938
-0.005900539,0.8222895,0.5871731
-0.004635785,0.821231,0.5880937
-0.006360938,0.8255673,0.5881484
-0.004843945,0.8285084,0.5849781
-0.003487292,0.8335928,0.5825083
-0.001719772,0.8400044,0.581431
-0.0004700383,0.8427255,0.574351
-0.00254165,0.8417269,0.5704764
-0.003968788,0.8380469,0.573529
-0.006099189,0.8362707,0.573868
-0.005382638,0.8340563,0.5745938
-0.0001492833,0.8310621,0.5731534
0.00177834,0.8339383,0.569445
-0.001820588,0.8372904,0.5739756
-0.008596888,0.8357212,0.581205
-0.01137774,0.8322679,0.5846186
-0.009019672,0.8312338,0.5840967
-0.008249111,0.8334299,0.5821011
-0.006666393,0.8343871,0.5840217
-0.004098156,0.83411,0.5846204
-0.002972781,0.8339389,0.5841583
-0.0008884425,0.8339171,0.5855364
-0.0007739611,0.8344431,0.5842767
-0.002105526,0.8345528,0.5845757
-0.001152233,0.834644,0.5856391
-0.00115181,0.8329312,0.5858916
-0.001975519,0.831113,0.5877023
-0.001998459,0.8319119,0.5841408
-0.003078972,0.8309009,0.5804893
-0.003068334,0.8282562,0.5839346
-0.002313901,0.827984,0.5858326
-0.003066758,0.8314722,0.5844394
-0.002779012,0.8356312,0.5835348
-0.002560901,0.8353762,0.580617
-0.003232547,0.8350704,0.576831
-0.003475278,0.8376502,0.5797678
-0.004485589,0.8368624,0.5839087
-0.004366908,0.8317581,0.5806275
-0.002899057,0.8273406,0.5795184
3.742169e-05,0.8274702,0.5816251
0.004011944,0.830553,0.5815942
0.002539006,0.8323251,0.5848258
-0.0009989411,0.8321157,0.5873659
-0.002524866,0.8298191,0.5858567
-0.006920634,0.8298125,0.5881552
-0.009483985,0.8366372,0.5981893
-0.01174835,0.8408724,0.6083345
-0.01520094,0.831293,0.6034149
-0.004207046,0.8158741,0.5870785
0.00795071,0.8124516,0.5785905
0.001476229,0.8178979,0.5806514
-0.003039486,0.8215594,0.5816643
-6.59932e-05,0.8262966,0.5762873
-0.001366767,0.8299193,0.5747482
0.0009416733,0.8412362,0.5780791
0.00436888,0.8599306,0.5767344
0.002791064,0.8562565,0.5772397
0.004182203,0.8451647,0.5758501
0.006599844,0.8485116,0.5670371
0.00457795,0.8441238,0.5653386
0.0007222551,0.8377453,0.5731628
-0.002433405,0.8366729,0.5807773
-0.002004954,0.8338176,0.5787708
0.0004405405,0.839168,0.5757985
0.002712883,0.844667,0.5821354
0.006629273,0.8495036,0.5824077
0.006659551,0.8533813,0.5790479
0.004079637,0.8468753,0.5788319
0.006158346,0.8393734,0.5780025
0.006522799,0.8219648,0.5826931
0.007291713,0.8111155,0.5838212
0.008853045,0.8220844,0.5790272
-0.002747545,0.822625,0.57799
-0.01301111,0.8264074,0.5815621
-0.003174285,0.8387002,0.5873619
0.006028834,0.8395312,0.5867775
0.000242964,0.8424946,0.5864813
-0.003197891,0.8435943,0.5891404
-0.0008405441,0.8433581,0.5849115
-0.000327691,0.8440101,0.5793629
0.003935267,0.8369438,0.5734063
0.004697556,0.8306031,0.5730166
0.003345864,0.825745,0.5773718
0.009026632,0.828685,0.5730651
0.006664187,0.8377773,0.5726049
0.001624513,0.8407836,0.5762087
0.001975338,0.8399155,0.5779103
0.0001487828,0.8356689,0.585131
0.001691776,0.8371098,0.5852925
1.244944e-05,0.8384114,0.5826566
-0.003066855,0.8310647,0.5864412
-0.0004440675,0.8290954,0.5843769
-0.001592932,0.8287555,0.58163
-0.001881379,0.8294677,0.5824499
-0.001701523,0.8328117,0.5813661
-0.003658468,0.8333916,0.5782714
-0.001911669,0.8360781,0.5759656
-4.190621e-05,0.8361605,0.5807739
0.001963583,0.8353437,0.5853787
0.002011158,0.8341065,0.5848767
0.0006630684,0.8302426,0.5905981
0.002790732,0.8322498,0.5968594
0.003091515,0.8325228,0.5866523
0.002490497,0.831284,0.5733277
0.002844729,0.8335402,0.5766195
0.001157012,0.8333959,0.5793841
-0.001464208,0.8343804,0.5759575
-0.002615517,0.8350155,0.578724
0.002354513,0.8350855,0.5780471
0.00680154,0.8379842,0.57654
-3.991036e-06,0.8412012,0.5780224
-0.007391685,0.841701,0.5758129
-0.005329411,0.835302,0.5784143
-0.001049697,0.828575,0.5825967
0.003236991,0.8276173,0.5838472
0.006464322,0.8287534,0.5872003
0.001287847,0.8297878,0.5898589
-0.003894857,0.8300815,0.5915874
-0.0009988863,0.8320193,0.5879056
-0.0005492338,0.8342904,0.5819219
-0.002499833,0.8347639,0.5829876
-0.001841372,0.8337796,0.5832549
-0.002962358,0.8308887,0.5842629
-0.003254256,0.8307394,0.588299
-0.001666154,0.8343098,0.5820794
-0.0002140934,0.8369936,0.5734302
0.00304147,0.8357033,0.575126
0.003646111,0.8331615,0.5787928
0.00196691,0.8336603,0.5826805
0.003044954,0.8332337,0.5901497
0.001937853,0.8329281,0.594689
-0.003024678,0.8343524,0.5909772
-0.006822184,0.8342756,0.5812817
-0.006339175,0.8352742,0.5759223
-0.004219412,0.83498,0.5804001
-0.005050309,0.8349367,0.5857185
-0.004376526,0.8369906,0.5851013
-0.003218479,0.8349086,0.5834275
-0.005000616,0.8342884,0.5825817
-0.003063274,0.8363292,0.5798514
0.000711157,0.8368914,0.5807782
0.003616588,0.8368435,0.5828172
0.004806842,0.8307778,0.5779578
0.003157332,0.8237957,0.5731573
0.004447277,0.8250395,0.5723486
0.003695848,0.8303372,0.5762525
0.00155869,0.8331795,0.5814042
0.003537368,0.8320358,0.5791729
0.002635535,0.8314232,0.5783948
0.002420634,0.8322417,0.5819971
0.003382197,0.8319705,0.582437
0.001670047,0.8319654,0.5850063
0.0004269637,0.8329306,0.5915762
-0.002387616,0.8336452,0.5954453
-0.002876781,0.8327881,0.5904306
-0.001308136,0.8305412,0.5837839
1.642103e-05,0.8284464,0.5861264
0.003970744,0.828972,0.5870708
0.002577699,0.8308895,0.5840769
-0.0002590731,0.8313942,0.584982
0.002362636,0.8325694,0.5847541
0.002424133,0.8345215,0.5840351
0.002416137,0.8375013,0.5830562
0.003517994,0.8402226,0.5786809
0.001703593,0.838595,0.5758763
0.0001695163,0.8373703,0.5750466
-0.0009987818,0.83772,0.5776204
0.002306703,0.8360022,0.5826173
0.007524427,0.8350709,0.5833312
0.003187783,0.8345596,0.5831322
-0.002644943,0.8340862,0.5836793
-0.002954785,0.8333588,0.5828893
-0.002968333,0.8311423,0.5825133
-0.001589866,0.8317006,0.5821231
-0.001162302,0.8327886,0.5838133
-0.002630202,0.8330379,0.5874085
-0.002793166,0.837313,0.5880871
-0.003002144,0.8393817,0.5867091
-0.002626622,0.833789,0.5847895
-0.002144514,0.8274373,0.5826255
-0.0003907631,0.8269395,0.5829489
0.002695807,0.8297535,0.5837746
0.002438723,0.8311182,0.5823496
0.002380088,0.8321166,0.5827662
0.003403003,0.831454,0.5856388
0.00243085,0.8302375,0.5866859
0.002728687,0.8334287,0.5860887
0.003065011,0.8349471,0.5844593
0.002655963,0.8301385,0.5790977
0.003833129,0.8269936,0.5732407
0.00373646,0.8328255,0.5761023
0.0003939369,0.8416065,0.5822987
-0.003426131,0.8416587,0.5825865
-0.003305136,0.8348169,0.5850554
-0.0005556836,0.8300924,0.5875634
0.001291544,0.8314683,0.5829134
0.003454386,0.8340647,0.5771107
0.003358683,0.8323583,0.5710058
0.002239207,0.8332536,0.5705867
0.005023923,0.8358391,0.5747339
0.006076271,0.8344298,0.5740839
0.00434972,0.8347455,0.576535
0.004010447,0.8360795,0.5769852
0.003279279,0.8371767,0.5733901
0.000820164,0.8390002,0.5774664
-0.002688461,0.8383788,0.5802749
-0.00291534,0.8362487,0.5840603
-0.001726121,0.8339172,0.5909034
-0.002650437,0.8342633,0.5855721
-0.001003254,0.835568,0.5787426
-0.0007979246,0.8342131,0.5806863
-0.001927319,0.8348685,0.5800348
0.0009934804,0.8367271,0.5746327
0.00151918,0.8394956,0.5710152
-0.0005608859,0.8429764,0.572738
-0.001813705,0.840605,0.5766522
-0.001465144,0.8360621,0.5794804
0.001586881,0.8313068,0.5828588
0.004299368,0.82623,0.5824629
0.005522585,0.8297533,0.5779377
0.001295212,0.8343898,0.578661
-0.004731409,0.8319872,0.5842364
-0.004184564,0.8348176,0.5887137
-0.005355659,0.8396608,0.5869187
-0.008325189,0.8372303,0.5823962
-0.005595806,0.8363881,0.585212
-0.001178893,0.8359855,0.5861364
0.002516916,0.8311098,0.5849846
0.002313765,0.8292934,0.588377
0.0003074663,0.8298647,0.5839887
0.002749646,0.8281265,0.5798162
0.003461373,0.8271722,0.5830359
0.002635847,0.8283374,0.5841891
0.005853006,0.8297143,0.5867682
0.007550938,0.8313846,0.5889967
0.006115881,0.833785,0.5898493
0.005391192,0.8358419,0.5916963
0.007230296,0.835896,0.5885315
0.009338114,0.833808,0.5845817
0.006750882,0.8325931,0.5867833
0.000808153,0.8318781,0.588097
-0.003945411,0.8300578,0.5832973
-0.001092927,0.8285384,0.580832
0.004847649,0.8254836,0.5830561
0.002660056,0.8242911,0.5829259
0.001725273,0.8279407,0.5788522
0.004190182,0.8312915,0.5749397
0.002945493,0.8344724,0.5774697
0.004442596,0.8355852,0.5825567
0.004812216,0.833995,0.5858239
0.003246762,0.8339668,0.5897131
0.004807215,0.8328372,0.5892838
0.004033768,0.8311913,0.5870777
0.003862624,0.8306443,0.5874665
0.004672296,0.8309577,0.5855231
0.003535239,0.832839,0.5837345
0.003504311,0.8328933,0.5837442
0.002539523,0.8330998,0.5839707
0.00261635,0.8343085,0.5833785
0.004183614,0.8346657,0.5795481
0.003196792,0.835628,0.5787156
-0.0001246401,0.8312603,0.5814788
-0.00418857,0.8253258,0.5816702
-0.003290536,0.8281603,0.5823356
-3.941378e-05,0.8320847,0.5816349
0.0009958214,0.8335602,0.5785371
0.004660871,0.8359646,0.5776411
0.006095772,0.8356155,0.5770758
0.004727429,0.8362334,0.5780579
0.005096693,0.8396083,0.5814519
0.0001512861,0.8389705,0.5865642
-0.004864376,0.8323321,0.5887742
-0.002804989,0.8242703,0.5820442
-0.001971469,0.8256278,0.5796149
-0.003298105,0.8332634,0.5857097
-0.002795535,0.8373183,0.5886034
-0.002295585,0.8419168,0.5860458
-0.00213625,0.8402869,0.5794686
-0.001094883,0.8323256,0.5774907
-0.001096519,0.8286132,0.5833631
-0.001488543,0.8245345,0.5892114
0.001018003,0.8254236,0.5903393
0.004835566,0.8328886,0.5885735
0.01002213,0.8410754,0.5856374
0.01317361,0.8462037,0.573835
0.00665406,0.8357961,0.5667296
-0.001979936,0.8257905,0.5788052
-0.003592756,0.8286999,0.5893086
-0.005920028,0.8283142,0.5919605
-0.01150969,0.8279518,0.5949793
-0.009052429,0.8302995,0.5937777
-3.222884e-05,0.8308641,0.5883626
0.00363435,0.8330257,0.5849964
-3.16167e-05,0.8358304,0.5810267
-0.004908225,0.8382373,0.572317
-0.003116848,0.8374758,0.5706749
-0.00116841,0.8337585,0.5762588
-0.003047806,0.8310016,0.5768072
0.00287357,0.8302128,0.5753783
0.007872599,0.8324325,0.5760764
0.005114244,0.8340182,0.5821829
0.005172749,0.8323254,0.5896013
0.00553143,0.8317275,0.5879068
0.00369541,0.833929,0.5833944
0.002569415,0.8348343,0.5795411
0.004275366,0.8320638,0.571918
0.005834541,0.8303503,0.5696049
0.0008543489,0.834872,0.5772189
-0.003113115,0.8395231,0.5847944
-0.001081587,0.8372212,0.587557
0.001280385,0.8336066,0.5870202
0.002434804,0.8296524,0.5887269
0.003105709,0.8247187,0.5934479
0.003275246,0.8277724,0.5920855
0.004194626,0.8321724,0.5903128
0.006344727,0.8289061,0.5914802
0.005826452,0.8249421,0.5851512
0.004479281,0.8225109,0.5796154
0.004335493,0.8280692,0.5813516
0.002084131,0.8399104,0.5801588
0.00233467,0.8402581,0.5764585
0.00359948,0.8361378,0.5778376
0.001673294,0.8362247,0.5819101
1.896544e-05,0.8343157,0.583532
-0.00283513,0.8361896,0.5840436
-0.00376567,0.8386549,0.583777
-0.001948163,0.8359725,0.5860265
-0.00299906,0.8348055,0.5893918
-0.002535376,0.8344769,0.58689
0.0005671121,0.8335068,0.5874061
0.002717258,0.8318583,0.5907837
0.003858435,0.8283517,0.5888828
0.003803858,0.8253436,0.5866037
0.004167022,0.8260522,0.5832777
0.002916426,0.8341139,0.5806053
0.001877175,0.8410062,0.5793024
0.004486757,0.8345672,0.5780029
0.004243474,0.8260506,0.5830824
0.001876672,0.8283476,0.5875479
-0.001414846,0.8332024,0.583798
-0.006004654,0.8336479,0.5818415
-0.004443836,0.8275702,0.5910273
-0.00297497,0.8208417,0.599202
-0.004238697,0.8314934,0.5917284
0.0005832774,0.8448624,0.5792535
0.004432765,0.8396585,0.5732923
0.003146637,0.8346015,0.5774284
0.003959665,0.8317557,0.5848222
0.006251163,0.8244966,0.5827238
0.004834861,0.8248639,0.5828943
0.002222072,0.8244693,0.5885839
0.003054712,0.8212829,0.5891387
0.004017383,0.8220655,0.5898134
0.00498814,0.819233,0.5885612
0.006300822,0.8214343,0.5855909
0.005230763,0.8303667,0.586771
0.00437791,0.8360571,0.5886442
0.000537726,0.8422746,0.5904437
-0.004060347,0.8415949,0.5870191
0.0003800241,0.8369901,0.5803026
0.005081524,0.8398959,0.5762161
0.002643719,0.838547,0.5708079
0.002795875,0.8342605,0.5732993
0.004462667,0.82993,0.5844318
-0.0005292244,0.8217848,0.5906415
-0.004613211,0.8214123,0.5923538
-0.002666733,0.8245287,0.5909795
-0.001440515,0.8259664,0.5881746
0.0003230342,0.8296041,0.5859477
0.003211975,0.8304424,0.584809
-0.0001645614,0.8321132,0.5863285
-0.003838471,0.832949,0.5831009
0.002800034,0.8310916,0.5802562
0.00918165,0.8344833,0.5855331
0.006822785,0.8401174,0.5889416
0.005981698,0.8428863,0.5907778
0.006779681,0.835909,0.5920767
0.0049823,0.8255941,0.5935613
0.005192291,0.8284632,0.5973638
0.005115279,0.830466,0.5890793
0.003569019,0.8257769,0.578813
0.003412681,0.8286285,0.5833642
0.0009237211,0.8315082,0.5848447
-0.002752729,0.832312,0.5825237
-0.001751448,0.8338138,0.5864175
-0.0004427731,0.8310151,0.5854651
-0.001619925,0.8310138,0.583073
0.0003634318,0.8308419,0.5863101
0.002372072,0.828717,0.5874388
0.001660417,0.8328131,0.5889157
0.003906347,0.8332823,0.5890481
0.006621244,0.8316997,0.58167
0.005352744,0.8361664,0.5763249
0.002672582,0.8366932,0.5777915
-0.0001367923,0.8346062,0.5836608
-0.002327498,0.8338923,0.5870623
-0.0007157262,0.8300321,0.585149
0.003951113,0.8278363,0.5863759
0.007344762,0.8335215,0.5856226
0.007197697,0.8402468,0.583477
0.003706863,0.8376365,0.5857533
0.00200023,0.8338676,0.5855343
0.003921055,0.8355152,0.5875327
0.004181894,0.8331333,0.5911677
0.002337618,0.8280762,0.5917295
0.0007556691,0.8241214,0.5917962
0.001164683,0.8247121,0.5878627
0.00160626,0.8307695,0.5843683
-0.0008105468,0.8321818,0.5839787
-0.001356766,0.8350694,0.5823117
0.001341428,0.8409125,0.5759305
0.003637306,0.8405767,0.5704457
0.003186801,0.8371832,0.5801265
0.001967525,0.8312933,0.5908378
0.003226869,0.8319208,0.5890992
0.002908973,0.8348771,0.5887494
0.002270071,0.8300167,0.5909874
0.003311902,0.8315844,0.592034
0.001952872,0.8314929,0.5920429
5.420058e-05,0.8269962,0.5910754
-0.001911609,0.8305742,0.5907601
-0.001550261,0.83224,0.585104
0.002202561,0.8342745,0.5779267
0.00318918,0.8361679,0.5784334
0.002880761,0.8335817,0.5810414
0.002540654,0.8352552,0.5805864
0.001649807,0.8361248,0.5804681
0.001149475,0.8366197,0.5817577
-0.0007862937,0.8385005,0.5818645
-0.001360916,0.8366877,0.5809365
0.0003317468,0.8356353,0.5793991
0.001946974,0.8345449,0.5786237
0.001809736,0.833388,0.5802036
0.0001445581,0.8314886,0.5828873
-0.0009193843,0.8259912,0.586532
-0.003441708,0.8259743,0.5868877
-0.003601456,0.8315159,0.5840929
-0.001087743,0.8353376,0.5838711
-0.0005228822,0.8371833,0.5835952
0.002940564,0.8354765,0.5846775
0.004197462,0.8323185,0.5870397
0.002453553,0.8290809,0.5851107
0.004240924,0.8267026,0.5839994
2.519099e-05,0.8299308,0.585111
-0.007777374,0.8326724,0.5850146
-0.008141049,0.8312696,0.5864224
-0.001571657,0.8301048,0.5874363
0.006505827,0.8277801,0.5833584
0.006807751,0.8270876,0.5774313
0.004274085,0.8283559,0.577742
0.006273531,0.8277361,0.5825813
0.006604227,0.8285814,0.5848171
0.006730061,0.8302184,0.5869125
0.006980063,0.832064,0.5873323
0.003281261,0.8357058,0.5825101
-0.0009889554,0.8361542,0.5806017
-0.004269152,0.834014,0.581638
-0.005643529,0.8345048,0.5801952
-0.005102241,0.8348953,0.5811884
-0.003800087,0.8325991,0.5854509
-0.001198769,0.8313844,0.5885584
-0.0008589798,0.8323427,0.5881339
-0.002073248,0.8338583,0.5870566
-0.002052814,0.8350442,0.5905555
-0.003015739,0.833985,0.5926497
-0.003066649,0.8350312,0.5900654
-0.002365539,0.8450484,0.5881336
-0.002485928,0.8531768,0.5870081
-9.458779e-05,0.8425598,0.587377
0.002364022,0.8295853,0.587906
0.001697769,0.8346659,0.5862641
0.00214104,0.8371572,0.5831605
0.005119236,0.8314649,0.5796275
0.005917472,0.8338391,0.5817947
0.003519467,0.8341298,0.5861898
0.002143383,0.8330312,0.5854591
0.002211228,0.8360928,0.5850089
0.0002003878,0.834489,0.5823822
-0.00325227,0.8350502,0.5773483
-0.002732091,0.835902,0.5802437
0.001508789,0.8320322,0.585154
0.003605882,0.8315148,0.5868332
0.002302672,0.8320103,0.5901179
-0.001229831,0.8314676,0.5909446
-0.003801656,0.8293519,0.5896403
-0.003086521,0.8279343,0.5896022
-0.003210668,0.8340349,0.5876815
-0.004491743,0.8394732,0.5842308
-0.003443876,0.836143,0.5809553
-0.002125453,0.8324455,0.5814759
-0.002869072,0.8334919,0.5848753
-0.003069822,0.8320551,0.5844602
-0.002429219,0.8306917,0.5827949
-0.002245536,0.8330632,0.5817161
0.0007516748,0.8318497,0.5818597
0.004067494,0.8324729,0.5853241
0.002798283,0.8352174,0.5868865
0.001201724,0.8334755,0.5870042
0.001506997,0.8325058,0.5882699
0.001705715,0.8297851,0.5895611
0.003076055,0.8264996,0.5895446
0.004158977,0.8284457,0.5851371
0.0007079803,0.8324941,0.5833735
-0.003098462,0.837806,0.586694
-0.002384321,0.8397728,0.587966
-0.002272954,0.835612,0.590988
-0.002737103,0.831671,0.5943683
0.001062477,0.8314901,0.5913213
0.004063235,0.8321307,0.5862345
0.002810114,0.830905,0.5834096
0.001715317,0.8307992,0.5825456
8.631002e-05,0.8332441,0.5815477
-0.003984465,0.8352358,0.5788022
-0.005248367,0.8333012,0.5771277
-0.003549721,0.8306375,0.5785783
-0.004127874,0.8321722,0.583028
-0.004567989,0.8324433,0.5890525
-0.003759819,0.8311341,0.591934
-0.004359329,0.831432,0.5910661
-0.004227592,0.8298957,0.5890737
-0.003943606,0.8280839,0.5866944
-0.00369933,0.8259539,0.587045
-0.0004373502,0.8242644,0.588117
0.002462403,0.827569,0.5861886
0.001715644,0.8313864,0.5857195
0.0007120682,0.8324463,0.5850088
0.00130414,0.832185,0.5787496
-0.0001634443,0.8314872,0.5741604
-0.002563092,0.8319722,0.5813229
-0.002167316,0.8311984,0.5919176
-0.002845049,0.8299442,0.5895546
-0.004218216,0.831642,0.5836332
-0.003970777,0.8351171,0.5863389
-0.004236627,0.8384866,0.5862633
-0.003223273,0.8369679,0.5816791
-0.002315448,0.8327175,0.5803917
-0.002968209,0.8323364,0.5828502
-0.002749198,0.8319034,0.5857674
-0.002748869,0.8314961,0.5830925
-0.0022949,0.8325036,0.5804709
-2.392338e-05,0.8314547,0.5825269
0.002119136,0.8309915,0.5823004
0.001789246,0.8307908,0.5827153
0.0001854705,0.8309511,0.5865224
-0.0009915616,0.8334013,0.5912181
-0.003416602,0.8354811,0.5980904
-0.003527763,0.8381824,0.6001292
-0.002129517,0.8382283,0.5907602
-0.005017189,0.8354736,0.5819222
-0.006336664,0.8361166,0.5855982
-0.004264478,0.8350724,0.5918487
-0.001068115,0.8321679,0.5917268
0.003697215,0.8314509,0.5910612
0.00361877,0.8293285,0.5882561
0.001715736,0.8262168,0.5845348
0.002386519,0.8250858,0.5860159
-0.001574682,0.8302903,0.5858254
-0.005953419,0.8366977,0.583873
-0.004126157,0.8340975,0.5848848
-0.002413412,0.8292123,0.5845767
-0.00306983,0.8272046,0.5826971
-0.00286724,0.8270239,0.5815085
-0.003495753,0.8296797,0.5819164
-0.004732312,0.8329753,0.5832106
-0.00335029,0.8372749,0.5827013
-0.0003993989,0.8376063,0.5798162
0.002214056,0.8352982,0.5771942
0.00200946,0.8379049,0.5803192
0.0006679427,0.8354659,0.5858578
0.002645676,0.8313608,0.5868716
0.002615389,0.8349641,0.5874903
-0.001278489,0.8349727,0.5877649
-0.00357726,0.8322932,0.5847739
-0.003274243,0.8318699,0.5821866
-0.002074234,0.8316349,0.5796654
-0.002941592,0.8335151,0.5792716
-0.003195985,0.834207,0.5841635
-0.001259261,0.8340873,0.5883846
0.001260718,0.8338143,0.5877639
0.004665552,0.8314986,0.5841018
0.0005617176,0.8293026,0.579848
-0.005654607,0.8273939,0.5764186
-0.002418376,0.8286751,0.5760426
-0.001489778,0.8329465,0.5763903
-0.002749661,0.8373321,0.5754821
0.001275596,0.8383153,0.5821356
0.001589287,0.8329663,0.5898953
-0.001760086,0.8307316,0.5865015
-0.00322796,0.8323591,0.582878
-0.002249549,0.8320303,0.5834971
-0.0001551553,0.8327671,0.5829999
0.0002552986,0.832066,0.5824909
0.001161566,0.8290751,0.5820933
0.0003571291,0.8272219,0.5835161
-0.002861881,0.8295688,0.5859134
-0.002815609,0.8337597,0.5865916
-0.004994566,0.8327781,0.5879373
-0.007912766,0.8295634,0.5901926
-0.003119529,0.8273062,0.5918169
0.001022658,0.829693,0.5916641
0.001901935,0.8367052,0.5875485
0.004815347,0.8381648,0.5832888
0.00500074,0.835595,0.5823008
0.002902807,0.8340531,0.5816646
0.002613531,0.8343878,0.5827839
0.001757473,0.8354902,0.5833632
0.003300193,0.8341982,0.5793483
0.006056665,0.8336342,0.5770945
0.0003416584,0.8298214,0.5793369
-0.005428687,0.8241613,0.5816231
-0.001971542,0.8272353,0.580826
0.0008306603,0.8329153,0.5810551
0.001324918,0.8349742,0.5846839
0.002384914,0.8326595,0.5851777
0.002720556,0.8277356,0.5844318
0.004671918,0.8278911,0.58495
0.004764465,0.8284921,0.5844869
0.003337726,0.8270739,0.5850811
0.004580917,0.8290918,0.5857632
0.003586417,0.8298011,0.5869507
0.0001382711,0.8299826,0.5870727
-0.002027206,0.8332968,0.5831525
-0.002218058,0.8356147,0.5772436
-0.001511739,0.8364444,0.5722201
-0.00320293,0.8349629,0.5762027
-0.003348496,0.8322257,0.5849738
-0.001902409,0.8316812,0.5862424
-0.002791716,0.8318045,0.5852975
-0.0001138787,0.832132,0.5851002
0.002661135,0.8319663,0.5831654
0.001127218,0.8317158,0.5814082
0.001359053,0.8320458,0.579483
0.002494262,0.8310596,0.5790767
0.002965495,0.8313408,0.5798725
0.002374709,0.8331714,0.5819813
-0.0001644856,0.833695,0.5835263
-0.002178294,0.8331313,0.5798737
-0.002673048,0.8322261,0.5801057
-0.00230928,0.8311635,0.5854724
-0.002159055,0.8282222,0.5866227
-0.0006498168,0.8253766,0.5861181
0.001757675,0.8255321,0.5841438
0.002995438,0.8243274,0.5797943
0.003395337,0.8215278,0.5774641
0.002276919,0.8243745,0.5806323
0.002687077,0.8311753,0.5853022
0.003327677,0.8338834,0.5824999
0.002177248,0.83232,0.5809245
0.003260236,0.826928,0.5864643
0.003778521,0.8227619,0.5902201
0.004033472,0.8296397,0.5909011
0.00474693,0.8375505,0.5832108
0.002387785,0.8358691,0.5753712
-0.001928179,0.8350223,0.5846587
-0.007051203,0.8372006,0.5930438
-0.005856586,0.8352773,0.5877159
-0.002018498,0.8329715,0.584805
-0.004995185,0.8322181,0.5853684
-0.003808449,0.8328912,0.5847694
0.001448506,0.8359555,0.5894084
0.003164371,0.8349691,0.5933446
0.003684239,0.833139,0.5905498
0.001987293,0.8326501,0.589481
0.002683983,0.8272255,0.5901264
0.003777759,0.8248513,0.5874263
0.002728679,0.8258656,0.5842852
0.004069681,0.8265694,0.5841591
-9.409166e-05,0.8314622,0.5854924
-0.005100426,0.8330436,0.5854211
-0.003218982,0.8313825,0.5860049
-0.003148079,0.8320925,0.5848172
-0.00436993,0.8319394,0.5794383
-0.005762927,0.8315699,0.5770901
-0.007289749,0.8302008,0.5805976
-0.004118942,0.8283469,0.5853394
-0.0006239079,0.8282017,0.5866274
-0.001130333,0.8277783,0.5874642
-0.0013352,0.8280886,0.5899247
0.001748013,0.8305855,0.5883566
0.00450902,0.832449,0.5852676
0.004364387,0.8301874,0.5830884
0.002296707,0.8271637,0.5821775
-0.001132511,0.8276414,0.5844176
-0.00372947,0.828632,0.5857132
-0.003201584,0.8302256,0.5910205
-0.002018567,0.8328336,0.5971724
-0.00308545,0.8323191,0.5923822
-0.003047387,0.8312185,0.5891796
-0.002234305,0.8321553,0.5902703
-0.003035624,0.831682,0.5858738
-0.001778676,0.8325915,0.5842556
-0.000891663,0.8357877,0.5846838
-0.002210057,0.8347491,0.5840277
-0.003923276,0.8319361,0.5864354
-0.006435501,0.8310114,0.5863043
-0.005010284,0.8300639,0.585621
-0.0003436079,0.8307317,0.5866957
0.00225974,0.8318017,0.5856937
0.001983948,0.8318371,0.5861896
0.000583212,0.8322336,0.5865423
0.001063998,0.8321555,0.5869356
-0.0008829353,0.8336171,0.5899476
-0.00422163,0.8357191,0.5902038
-0.002667643,0.835577,0.5873694
-0.00237495,0.8357124,0.5839719
-0.004269352,0.8347124,0.5817481
-0.003784305,0.8322951,0.5799762
-0.002474436,0.8319373,0.5791067
-0.0002888464,0.8307845,0.5827294
0.001618931,0.8299139,0.5832486
0.002990324,0.8325254,0.5814245
0.003647543,0.8323261,0.584437
0.003059334,0.8292309,0.5849455
0.004296243,0.8284838,0.5863567
0.003643482,0.8264878,0.5916594
0.0008580387,0.824428,0.5914664
0.001433854,0.8269091,0.5871795
0.00173407,0.8299308,0.5815585
0.001980484,0.8317723,0.5786498
0.002487879,0.8350265,0.5803288
-0.001810968,0.8381268,0.5791483
-0.005512861,0.837642,0.5795292
-0.003574908,0.8356972,0.5852418
-0.001653647,0.8344187,0.5888068
-0.003076418,0.8326351,0.587347
-0.0032189,0.833117,0.5829895
-0.002130137,0.8337778,0.5813202
-0.003171736,0.8319426,0.5828548
-0.002275425,0.8318047,0.5824686
0.000442125,0.8318539,0.5772788
0.002646859,0.8309166,0.5716452
0.003868511,0.8299462,0.5762792
0.00273263,0.8275847,0.5856983
0.002218309,0.8269289,0.5887767
-0.0003029426,0.8315626,0.5878715
-0.003491818,0.8382087,0.58523
-0.003409422,0.8397019,0.5832675
-0.005756909,0.8387008,0.5816426
-0.004790447,0.8369588,0.5810194
-0.0009501253,0.831489,0.5829407
-0.003204374,0.8325298,0.5818485
-0.003359972,0.8362029,0.5830444
-0.001923225,0.8334989,0.5884006
-0.003376492,0.8340047,0.5911663
-0.002800284,0.8337304,0.5917715
-0.003463544,0.8321885,0.586953
-0.004806707,0.8343782,0.5853247
-0.003947443,0.8329493,0.5975219
-0.004121861,0.8328138,0.6073313
-0.004290916,0.8332034,0.5997699
-0.003343307,0.8309097,0.5897627
-0.0006665738,0.8322708,0.590547
0.002522728,0.8318108,0.5850521
0.001975724,0.8296795,0.5778235
0.001446874,0.8294598,0.5826018
0.002771251,0.830415,0.5811466
-0.0005633859,0.8331861,0.5803565
-0.003963114,0.8331299,0.5875592
-4.829023e-05,0.833765,0.5878196
0.002600645,0.8358042,0.5875674
-0.000741267,0.834299,0.587605
-0.002348032,0.8341759,0.5867767
-0.0007566455,0.8334044,0.5871966
0.0006048365,0.830968,0.5841771
0.001287497,0.8310569,0.5835801
-0.000226839,0.8279109,0.5835087
-0.003190529,0.8236153,0.5832475
-0.002679512,0.8263829,0.5866764
0.0004395488,0.8296165,0.5879523
0.001915133,0.8285815,0.5875983
0.001695419,0.8307127,0.586342
0.0009820793,0.8333588,0.5856743
0.001432008,0.831477,0.5859723
0.001695389,0.8319957,0.5834863
0.0009986991,0.8343166,0.5830403
0.001608006,0.8347962,0.5854006
0.0009059689,0.835117,0.5874232
-0.001551004,0.833512,0.5896298
-0.003282608,0.8302032,0.5917492
-0.002601916,0.8276612,0.5911836
0.00146079,0.8312987,0.5854119
0.003686467,0.8373697,0.580065
0.002332794,0.8347614,0.5805074
-0.0001842753,0.8319997,0.5855971
-0.002214491,0.8298641,0.5890863
-0.001094408,0.8225531,0.5873873
0.00095485,0.8242765,0.5866293
0.002550231,0.8290242,0.5861431
0.003348377,0.8268672,0.5840282
0.002498266,0.8286114,0.5846601
0.002726358,0.8309217,0.5860821
0.0029881,0.8318755,0.5861744
0.002576098,0.8332322,0.5862907
0.002172671,0.8322469,0.5870282
-0.0008052946,0.8354951,0.5880837
-0.003920176,0.8361798,0.589047
-0.003138457,0.8289373,0.5892426
-0.00181799,0.8259035,0.5886001
-0.002270672,0.8311104,0.5885334
-0.0009255123,0.8372437,0.5869412
0.001137661,0.8340541,0.5832125
0.002936256,0.8304189,0.5817794
0.007070988,0.8338907,0.5843525
0.009304171,0.8324016,0.5867883
0.007808648,0.8311917,0.5837025
0.005386396,0.8330166,0.5802553
0.003397353,0.8331311,0.5822123
0.003306579,0.8352567,0.5825814
0.001032804,0.8331702,0.5801193
-0.002765415,0.83062,0.5780511
-0.001954516,0.8328293,0.5775678
-0.001349635,0.8332135,0.5840205
-0.003572939,0.8325697,0.5887569
-0.002279517,0.831032,0.5871882
0.001468881,0.8313343,0.5895129
0.003334022,0.8330077,0.588488
0.003316659,0.8312174,0.5851076
0.002214789,0.8301661,0.5879508
0.002764597,0.8272857,0.5884552
0.003277793,0.8243214,0.5879624
0.002030127,0.8307489,0.5851185
0.002159481,0.8375759,0.5797021
0.001252008,0.8365484,0.5828513
0.0008595213,0.83481,0.5878224
0.002062642,0.8338028,0.5910362
0.0009978186,0.8312137,0.5923283
0.001891154,0.8311402,0.5864015
0.004422095,0.8319349,0.5831647
0.005564377,0.8306147,0.5849177
0.004431668,0.8337918,0.5839805
0.001494226,0.8379504,0.5792046
0.001862685,0.835967,0.574605
-0.0008890635,0.8352233,0.5759992
-0.005648721,0.8357276,0.5789392
-0.0005375562,0.8332704,0.5828283
0.004677967,0.8328654,0.5891459
0.003453291,0.8335148,0.5861146
0.003970253,0.832311,0.5803793
0.003856429,0.8316385,0.5829963
-0.0006885,0.8319292,0.5789829
-0.004137299,0.8322558,0.572248
-0.003058994,0.8327639,0.5772666
-0.002014959,0.8335775,0.5802225
-0.003159908,0.8335254,0.5780642
-0.002924459,0.8328711,0.5804652
-0.001666771,0.8329251,0.5829042
0.000481407,0.8331704,0.5836546
0.003925348,0.8332007,0.5860051
0.003563079,0.831622,0.5893952
0.002566076,0.8293595,0.5894147
0.00488031,0.8291641,0.586256
0.003491813,0.8299383,0.5831637
0.001728663,0.8335292,0.579583
0.003193384,0.837622,0.5815412
0.00181516,0.8350803,0.5854977
0.0004913386,0.8317196,0.5835918
-0.0001299663,0.8319715,0.5852026
-0.002028737,0.8320016,0.589503
-0.001568245,0.8328733,0.5911474
-0.000620897,0.8335471,0.5918328
0.0001542643,0.8321717,0.588972
0.001940076,0.8305502,0.5871523
0.0017204,0.8293347,0.5868291
0.00086739,0.8293367,0.587658
0.001796031,0.8311272,0.5917779
0.002414831,0.8332645,0.5891838
0.002744981,0.8327432,0.5845847
0.003133548,0.8298755,0.5853655
0.002509075,0.8280992,0.5864706
0.002754423,0.8286831,0.5909423
0.00303639,0.8321914,0.5921822
0.002471366,0.8349618,0.585668
0.002960053,0.8342976,0.5794793
0.002792087,0.8337939,0.5755213
0.002424832,0.8325476,0.5775392
0.002116653,0.832017,0.5821058
0.0009353061,0.8341002,0.5825341
0.001343423,0.8334226,0.5825202
0.001840372,0.8328004,0.5852299
0.00203336,0.8338671,0.5887244
0.003167356,0.8330499,0.5869921
0.002893799,0.8333196,0.5843881
0.002490885,0.8333772,0.5850275
0.0029709,0.8321512,0.5828411
0.003109823,0.8319003,0.5828226
0.004477621,0.8317411,0.585165
0.005848567,0.8321099,0.5844607
0.003927231,0.8319796,0.584813
0.001806489,0.831739,0.5848866
0.002998364,0.8321877,0.5847458
0.004472492,0.8319692,0.5873651
0.005816199,0.8328441,0.5905638
0.007192036,0.8337261,0.5921236
0.00439852,0.8330879,0.5890754
0.001410489,0.8325573,0.5856853
0.002892037,0.8326025,0.5859384
0.002595353,0.8335116,0.5844762
-0.001301616,0.8339851,0.5830883
-0.003685985,0.8347962,0.5837282
-0.002558472,0.8364145,0.5832369
0.0005024354,0.8342709,0.5841669
0.001984229,0.8304141,0.5853076
0.002375668,0.830134,0.5844914
0.005817096,0.8309808,0.5845109
0.0106043,0.8313811,0.5839757
0.009975501,0.8322177,0.5834388
-0.019628,0.7013173,0.7346188
-0.01886778,0.7045092,0.7369207
-0.01942199,0.7054634,0.7391508
-0.01958875,0.707171,0.7403065
-0.01975262,0.7072463,0.7402352
-0.01994605,0.7034867,0.7377561
-0.02150788,0.7020975,0.7389928
-0.02076987,0.7028834,0.7391814
-0.01976927,0.7028032,0.7362942
-0.01772516,0.702518,0.7360674
-0.01490209,0.7008201,0.7364062
-0.02052609,0.6999032,0.7395692
-0.02705308,0.7016469,0.7449563
-0.02474777,0.7035317,0.7446302
-0.02073353,0.7030183,0.7352954
-0.01801362,0.7021362,0.725814
-0.01572284,0.7030332,0.7314163
-0.01739293,0.7020753,0.7395366
-0.01915526,0.7021869,0.7356273
-0.01837547,0.7060691,0.7307756
-0.02244498,0.7070672,0.7258383
-0.02647692,0.7034183,0.7256789
-0.02162088,0.6999289,0.7345686
-0.0129151,0.7013008,0.737477
-0.008437713,0.7032914,0.7360588
-0.01415741,0.7022918,0.7358315
-0.02213257,0.7029989,0.7345076
-0.02122261,0.7027981,0.7330971
-0.01904922,0.7014099,0.7301783
-0.01975757,0.7014045,0.7314266
-0.01956041,0.6999778,0.7349306
-0.02123198,0.6991504,0.7357272
-0.02264516,0.6994896,0.7375189
-0.02033675,0.7012371,0.7368544
-0.01905343,0.7038478,0.7363404
-0.02120095,0.7034029,0.7371557
-0.02240065,0.702081,0.7357055
-0.01847519,0.6997997,0.7369115
-0.01419778,0.6968826,0.7420314
-0.01555459,0.6970481,0.7505173
-0.01854749,0.6983366,0.7544474
-0.01989754,0.6989332,0.747538
-0.01980202,0.6985786,0.7413331
-0.01897629,0.6984443,0.7401289
-0.01993416,0.6986491,0.7391444
-0.02179948,0.6975596,0.7411222
-0.02421985,0.6975348,0.7453612
-0.02599384,0.700388,0.7440803
-0.02476547,0.7055023,0.7379972
-0.02393471,0.7094165,0.7310239
-0.0219213,0.7100872,0.7251365
-0.01804122,0.7091691,0.7267897
-0.01886189,0.7057076,0.7325848
-0.01958046,0.7020383,0.7380132
-0.01728108,0.7010419,0.7434626
-0.01888266,0.6997599,0.7433009
-0.02032297,0.6979505,0.7416844
-0.01897071,0.6969066,0.742753
-0.01948273,0.6920413,0.7456388
-0.01858542,0.6866124,0.7478701
-0.01381872,0.6945688,0.7366229
-0.009487439,0.7050373,0.7241386
-0.009508672,0.7024449,0.7299268
-0.01154708,0.7040195,0.7358837
-0.01428637,0.7117973,0.7347688
-0.02145094,0.7122531,0.7382376
-0.02380776,0.7101284,0.7377412
-0.01735793,0.7059721,0.7345414
-0.01537305,0.7026963,0.7388884
-0.01578056,0.7016142,0.7407139
-0.01315741,0.6989467,0.7397477
-0.01216339,0.7028584,0.7407594
-0.01334244,0.7054243,0.7389111
-0.01532802,0.7005227,0.7379521
-0.01352455,0.6995911,0.7353989
-0.007911311,0.7011338,0.7309801
-0.004716826,0.7036522,0.7320067
-0.007524967,0.7046342,0.7341823
-0.01177094,0.701859,0.7345456
-0.009876635,0.7016311,0.7317002
-0.01136177,0.7038131,0.7272091
-0.01908032,0.7066354,0.7283852
-0.02214469,0.705626,0.7328495
-0.0226422,0.702694,0.7345622
-0.02074742,0.7030646,0.7344712
-0.01682009,0.7027281,0.735108
-0.01374162,0.7047818,0.7346837
-0.01113965,0.7074216,0.7341895
-0.01287973,0.7067966,0.7343057
-0.01402932,0.7065934,0.7327638
-0.01316522,0.7037705,0.7333775
-0.01363415,0.7001241,0.7352692
-0.01193309,0.6993862,0.737178
-0.01293482,0.7000634,0.7397154
-0.01693136,0.7007505,0.7372431
-0.01944181,0.7015296,0.7348119
-0.02040154,0.7042064,0.7365434
-0.01828554,0.7037483,0.7348738
-0.01664502,0.7003949,0.7286074
-0.01597401,0.6986979,0.7244874
-0.01875903,0.6973781,0.7315874
-0.02420673,0.7012561,0.7416855
-0.01930313,0.7063102,0.7395576
-0.01021103,0.7040419,0.7366962
-0.008153263,0.7022448,0.7384406
-0.01299416,0.7026033,0.7353135
-0.02308036,0.6989476,0.734576
-0.02510336,0.6966967,0.7336713
-0.01886825,0.7007449,0.726633
-0.01446033,0.7043692,0.7231957
-0.01187337,0.7030812,0.7234734
-0.01671252,0.7028063,0.7344538
-0.0219126,0.7045176,0.7498971
-0.01814124,0.7015906,0.7423276
-0.01426041,0.6985371,0.7335166
-0.01173012,0.7004626,0.7411768
-0.01073147,0.7020029,0.7386771
-0.01252602,0.7047506,0.7352162
-0.0142976,0.7084209,0.7402659
-0.0174004,0.7074798,0.7385501
-0.01671762,0.7077192,0.7381296
-0.01494536,0.7099666,0.7376123
-0.02201832,0.7075017,0.7326763
-0.02724095,0.7035676,0.7315659
-0.02379207,0.7006872,0.7276856
-0.0213028,0.6995163,0.7223343
-0.02042379,0.7045996,0.7225897
-0.01810371,0.7110987,0.7275718
-0.016664,0.7136509,0.7325148
-0.01489846,0.7143337,0.7298566
-0.01146833,0.7120811,0.7277076
-0.01171125,0.7077048,0.7300019
-0.01406416,0.7025933,0.72912
-0.01370108,0.699908,0.7289605
-0.0148615,0.702715,0.7304773
-0.01264614,0.7035344,0.7304241
-0.007867553,0.7021748,0.7297747
-0.01322171,0.7037533,0.7295239
-0.02212792,0.7063623,0.7325976
-0.02587228,0.7085541,0.736136
-0.02233819,0.7053806,0.7345849
-0.01566359,0.701231,0.7313845
-0.01705941,0.7055296,0.7283906
-0.01897549,0.7087459,0.7259618
-0.02145391,0.7068795,0.7304811
-0.02881342,0.709322,0.7355659
-0.02469435,0.7119487,0.7315346
-0.01623216,0.7083785,0.7270979
-0.01247047,0.7055689,0.726895
-0.005071767,0.7074441,0.7295216
-0.004915921,0.7092561,0.7344745
-0.01221611,0.7088812,0.7340493
-0.01690262,0.705608,0.731775
-0.02052518,0.7008263,0.7326657
-0.01960144,0.6999984,0.7319266
-0.01864772,0.6990201,0.7340881
-0.02079599,0.6965565,0.7362375
-0.02186671,0.7024933,0.7339552
-0.02545389,0.7101935,0.7358081
-0.02688272,0.7112036,0.7378943
-0.02386253,0.7113191,0.7365998
-0.01749677,0.7108205,0.7346637
-0.006994679,0.7100788,0.7296647
-0.006103393,0.7094205,0.7278939
-0.01150798,0.7074843,0.7298174
-0.01197881,0.7068057,0.7291103
-0.01607409,0.7062915,0.728966
-0.01661935,0.7047924,0.7290225
-0.01148355,0.7011351,0.7272465
-0.0137067,0.6992594,0.7276856
-0.01723068,0.7040416,0.7352718
-0.02003116,0.707124,0.744131
-0.02088628,0.7064989,0.7417523
-0.01817145,0.7077255,0.7370187
-0.02213317,0.7089305,0.7396072
-0.02522249,0.7081728,0.7388962
-0.02414289,0.7070576,0.7361876
-0.02391237,0.7068256,0.736038
-0.01962845,0.7058988,0.7337711
-0.01762772,0.704723,0.7333564
-0.01679162,0.7028321,0.7354125
-0.01531687,0.6997588,0.7375138
-0.0168659,0.7005577,0.7401145
-0.01504978,0.7030663,0.7430449
-0.01664767,0.7033111,0.7464326
-0.02093841,0.7044213,0.7421305
-0.02083546,0.7061169,0.7361763
-0.02277446,0.7060078,0.7402386
-0.02267969,0.7061523,0.7412101
-0.02142115,0.7083231,0.7374006
-0.02282315,0.7088471,0.7368716
-0.0220238,0.7077367,0.734335
-0.02190017,0.7076159,0.7306252
-0.02163863,0.7067102,0.7289344
-0.02008007,0.7066725,0.7304418
-0.02001841,0.7068129,0.737842
-0.01934223,0.7040124,0.7484578
-0.01933316,0.7003752,0.7519916
-0.02064188,0.6945591,0.7446728
-0.02098798,0.6891521,0.7405125
-0.02177134,0.6939668,0.7416442
-0.02522598,0.7022598,0.738191
-0.02895995,0.7015341,0.7362649
-0.02695624,0.7016718,0.7381976
-0.02231307,0.7070016,0.7383242
-0.02220897,0.7073094,0.7374253
-0.0241143,0.7067445,0.73485
-0.02472467,0.7063581,0.7318434
-0.02185445,0.7020087,0.7317714
-0.01844081,0.6995967,0.7324835
-0.02303551,0.7023541,0.7338703
-0.02802974,0.7076066,0.7379373
-0.02584154,0.7077446,0.7411047
-0.02415032,0.7053245,0.740749
-0.02355361,0.7050213,0.7391911
-0.02259613,0.7017771,0.739882
-0.02138446,0.7021119,0.7412523
-0.019047,0.7040312,0.7392227
-0.02160658,0.7018636,0.7373514
-0.02572132,0.7029985,0.7358308
-0.02517869,0.7031384,0.7340327
-0.02624722,0.7021635,0.7344713
-0.02735361,0.7038561,0.7331907
-0.02562217,0.705183,0.7345943
-0.02614045,0.7077312,0.7369407
-0.02503147,0.7071605,0.7319595
-0.02248323,0.7038483,0.7299681
-0.023965,0.7022314,0.7351713
-0.02487564,0.6997363,0.7419072
-0.02482079,0.6995465,0.7448346
-0.02539065,0.7007366,0.7424713
-0.024724,0.7003474,0.7427608
-0.02537293,0.7012109,0.7434308
-0.02697794,0.7017682,0.7417256
-0.02806763,0.7027503,0.7416037
-0.02800264,0.7035398,0.7415417
-0.02498282,0.7018166,0.7417782
-0.01910808,0.701385,0.7415299
-0.01427814,0.7013021,0.7405873
-0.0203329,0.700795,0.7404144
-0.03067634,0.7004202,0.740897
-0.03013141,0.6995008,0.7416543
-0.02890363,0.7024464,0.7385373
-0.03184903,0.7051962,0.7341336
-0.03121213,0.7037431,0.7354286
-0.03101131,0.7021,0.7395305
-0.02807022,0.699548,0.7406315
-0.02302404,0.6981561,0.7397936
-0.02477541,0.6985021,0.7405051
-0.02608111,0.698628,0.7408242
-0.02422148,0.6988909,0.7416348
-0.02403921,0.6986047,0.7430857
-0.01999348,0.7007337,0.7386799
-0.01584495,0.7029982,0.7341756
-0.02251423,0.7033938,0.735918
-0.02940554,0.7055748,0.7353249
-0.02487612,0.7075151,0.7302874
-0.02058258,0.7074201,0.7280016
-0.0217245,0.7058576,0.7303465
-0.02395002,0.7042972,0.7349095
-0.03033698,0.7024218,0.7388173
-0.0336823,0.7018643,0.7382136
-0.0293231,0.7034035,0.7368872
-0.02736803,0.7007231,0.7406644
-0.02791835,0.699319,0.7435137
-0.02782212,0.702406,0.7448747
-0.02881535,0.7030611,0.7477122
-0.02880611,0.7030086,0.7442292
-0.02660032,0.7025352,0.7368252
-0.02388228,0.7028545,0.7347417
-0.02374591,0.7040958,0.7352129
-0.02396563,0.7041251,0.7339002
-0.02210093,0.7056401,0.7326828
-0.02214268,0.7065434,0.7344947
-0.02274897,0.7069414,0.739536
-0.02426418,0.7062311,0.7456277
-0.02851722,0.7038259,0.7462141
-0.03003427,0.7041706,0.7387123
-0.02850207,0.7042502,0.7341716
-0.02626522,0.7037907,0.7370163
-0.02485273,0.7032089,0.7385453
-0.02744388,0.7004334,0.7369596
-0.02987019,0.6998655,0.7359621
-0.02630128,0.7019815,0.7345072
-0.02163574,0.7043489,0.7326296
-0.02223593,0.7046599,0.7344708
-0.02443464,0.7033162,0.7374141
-0.02542423,0.7024334,0.7375902
-0.02589727,0.700177,0.7382205
-0.02480928,0.7003596,0.7400712
-0.02470336,0.7031299,0.7416166
-0.0249712,0.7029668,0.73875
-0.02305158,0.7025568,0.7339063
-0.02133011,0.7034582,0.7352174
-0.02081476,0.7053769,0.7353416
-0.02175358,0.7074463,0.7326925
-0.02369958,0.7052892,0.734413
-0.02489256,0.7022669,0.7368763
-0.02527974,0.7035274,0.7389301
-0.02591953,0.7048279,0.7358983
-0.02665209,0.703968,0.7292031
-0.02643038,0.703521,0.7304987
-0.02609263,0.7022138,0.7336236
-0.02556049,0.7015463,0.7354237
-0.02489555,0.7038136,0.7399183
-0.02578695,0.7034833,0.7395092
-0.02667184,0.7018474,0.7329329
-0.02553285,0.7041327,0.7270285
-0.02445648,0.7047643,0.7281767
-0.02510095,0.7035893,0.7310448
-0.02519227,0.704679,0.729085
-0.02493245,0.7050351,0.7332913
-0.02586429,0.7052456,0.7384041
-0.02593254,0.7042093,0.7346839
-0.02582114,0.7017439,0.7338893
-0.02753754,0.7027825,0.7357039
-0.02926494,0.703308,0.7362496
-0.02896291,0.7024304,0.7380981
-0.0265239,0.7039257,0.7384296
-0.02237199,0.7042911,0.7410089
-0.01948315,0.7024714,0.7461647
-0.0216872,0.6989432,0.7468141
-0.02601666,0.6963365,0.7440324
-0.0283574,0.6988716,0.7405412
-0.02757445,0.7012067,0.7362561
-0.02566544,0.7004865,0.7363847
-0.02927233,0.7031635,0.7379461
-0.03578311,0.7071215,0.7315579
-0.03785573,0.7057801,0.7279161
-0.03345721,0.7039025,0.7340124
-0.02458998,0.7026626,0.7378773
-0.02176873,0.6988267,0.7361193
-0.02433363,0.6992091,0.7340785
-0.02364351,0.7013065,0.7341115
-0.02356205,0.6989234,0.7335329
-0.02522231,0.6980847,0.7352231
-0.02781949,0.6973294,0.7406654
-0.03022468,0.697037,0.7411155
-0.02914368,0.7019326,0.740008
-0.02909445,0.7055056,0.7419134
-0.03183681,0.7060924,0.7412694
-0.03507401,0.7054218,0.7369242
-0.03706674,0.7041459,0.7331718
-0.03611897,0.7042317,0.7347376
-0.03529679,0.7029966,0.7362812
-0.03450076,0.7024792,0.734839
-0.03095742,0.7030319,0.7347382
-0.02680772,0.7021503,0.7347534
-0.02470494,0.7012201,0.7356431
-0.02703054,0.6990236,0.7367251
-0.03080802,0.6982231,0.7368535
-0.02930232,0.6988096,0.7377782
-0.02756073,0.6980275,0.7376306
-0.02743263,0.6974308,0.7367327
-0.02497792,0.6965936,0.7349612
-0.03002038,0.698124,0.7328497
-0.03805463,0.7012173,0.7347588
-0.03552546,0.7031871,0.7364306
-0.03070889,0.7042374,0.7315371
-0.02851089,0.7045595,0.7285013
-0.0287306,0.7074803,0.7354539
-0.03245369,0.7052704,0.7416133
-0.03486244,0.6976237,0.738624
-0.03586403,0.6965473,0.7357753
-0.03186627,0.6968386,0.7361977
-0.02507475,0.6954684,0.7340281
-0.02583899,0.6942653,0.7326234
-0.02732834,0.6941497,0.7332599
-0.0261054,0.6990937,0.731308
-0.02836166,0.7046904,0.7290887
-0.03075405,0.709357,0.7298469
-0.03391659,0.7087235,0.7352104
-0.0391033,0.703018,0.742001
-0.03914463,0.7016447,0.7422765
-0.0335019,0.7003188,0.7382711
-0.02964527,0.6985833,0.7372154
-0.02987744,0.6973526,0.7407477
-0.02924427,0.6974349,0.7454926
-0.02618643,0.702697,0.7451071
-0.02296204,0.7033071,0.7375328
-0.02151561,0.7013062,0.7313941
-0.02714448,0.7016661,0.7362138
-0.03503164,0.7011349,0.7413857
-0.03265882,0.703665,0.7365316
-0.02974053,0.7050448,0.7345304
-0.03328382,0.7057182,0.7373849
-0.03081395,0.7072062,0.7367211
-0.02837143,0.7037679,0.7374592
-0.03093287,0.7000595,0.7381538
-0.03295101,0.699271,0.7366462
-0.03689812,0.6999117,0.7369228
-0.03315386,0.6985056,0.7357648
-0.02589686,0.6963126,0.7347432
-0.02798325,0.6988784,0.7359514
-0.02846985,0.7018466,0.7387242
-0.0279741,0.7033082,0.7437665
-0.02948334,0.7028342,0.7445167
-0.02627396,0.7003115,0.742894
-0.02490504,0.7001975,0.7438511
-0.02995855,0.7016267,0.7440547
-0.03637625,0.7033947,0.743721
-0.0367706,0.70318,0.7383123
-0.03234159,0.702024,0.7321137
-0.0302955,0.7032611,0.7347206
-0.02931771,0.7020713,0.7367448
-0.02898738,0.6988308,0.738244
-0.02931071,0.6973134,0.7433323
-0.02899055,0.7000445,0.7415081
-0.02933553,0.7047676,0.7357934
-0.02891616,0.7029603,0.7353958
-0.02731009,0.701856,0.7416256
-0.02322074,0.7057003,0.7521186
-0.01969146,0.7048252,0.7536664
-0.02421707,0.7009625,0.7434543
-0.03120563,0.6975204,0.7377232
-0.03226386,0.6981946,0.7390309
-0.02835096,0.7032429,0.7360057
-0.02524977,0.7056145,0.7308597
-0.0285279,0.7077416,0.7365105
-0.0332965,0.7073767,0.7447623
-0.03352866,0.7041469,0.7414678
-0.03222005,0.7021924,0.739203
-0.03057858,0.6969444,0.7378479
-0.02935484,0.6960566,0.7308574
-0.03025965,0.6994491,0.7326482
-0.03157875,0.6983944,0.7352365
-0.03238495,0.6995616,0.7320742
-0.03177981,0.7005772,0.7345865
-0.03054169,0.6995744,0.7354957
-0.02973458,0.7003124,0.7329451
-0.02863944,0.6998054,0.7297969
-0.02917386,0.7009192,0.7255093
-0.03058903,0.7046227,0.7301067
-0.03412582,0.7080264,0.7363674
-0.03864871,0.707776,0.7337098
-0.03440775,0.7051694,0.7331672
-0.0283324,0.7048129,0.7350465
-0.02983537,0.7015765,0.7336638
-0.03038356,0.6980819,0.735031
-0.03180194,0.6974911,0.7368673
-0.03571538,0.6972374,0.7354137
-0.03154731,0.7031375,0.733393
-0.02684564,0.7074086,0.7315135
-0.02982161,0.7036215,0.73338
-0.03074348,0.6999588,0.7365177
-0.03015399,0.6982225,0.7373319
-0.03183741,0.7010323,0.7403976
-0.03131283,0.7041261,0.7422346
-0.03179176,0.7016712,0.7404509
-0.03586245,0.7006452,0.737949
-0.037791,0.7017362,0.7330343
-0.03331326,0.7014501,0.7305697
-0.02857299,0.7010054,0.7325582
-0.03137037,0.7006159,0.7326539
-0.03320948,0.6997722,0.7318416
-0.03015101,0.6997336,0.7319894
-0.0305376,0.7005517,0.7331415
-0.03215988,0.700891,0.7356468
-0.03381365,0.7024711,0.736522
-0.03654752,0.7030515,0.7359832
-0.03538422,0.7006281,0.7350852
-0.03083461,0.7002125,0.7351126
-0.02535569,0.7035104,0.738408
-0.02420313,0.7064976,0.7413537
-0.03008321,0.7034483,0.7406807
-0.03533491,0.6976561,0.739514
-0.03704667,0.6969185,0.7402163
-0.03627009,0.6991978,0.7384299
-0.03542147,0.701403,0.7346079
-0.03662174,0.7010527,0.7345672
-0.03554761,0.6991482,0.7361053
-0.03307014,0.7001533,0.7381115
-0.0315975,0.7003126,0.7395032
-0.0313001,0.6997445,0.737609
-0.03262281,0.7010323,0.7361963
-0.03164491,0.7003034,0.7361206
-0.03062719,0.6979668,0.7369441
-0.03089841,0.6970841,0.7379773
-0.03072473,0.6998014,0.7374077
-0.03440826,0.7026963,0.7373893
-0.03736238,0.7013108,0.7378082
-0.03607974,0.7008458,0.7383162
-0.03575761,0.701901,0.7391943
-0.03625563,0.7013705,0.738978
-0.03606304,0.7021925,0.738878
-0.03502399,0.7032626,0.7398694
-0.03432474,0.7023484,0.7400559
-0.03332886,0.7006748,0.7376126
-0.03033682,0.6986991,0.7351444
-0.02835779,0.6980761,0.7359037
-0.02893633,0.6994243,0.737245
-0.02971266,0.7013554,0.7384472
-0.02892114,0.70283,0.7408457
-0.02950779,0.7006199,0.7400194
-0.03227505,0.6971021,0.738407
-0.03324834,0.6987072,0.7427769
-0.0310889,0.7002137,0.7459612
-0.02824148,0.6987721,0.7442075
-0.03061857,0.6999413,0.7439059
-0.03408896,0.7020075,0.7438691
-0.03347255,0.7032486,0.7421738
-0.03435156,0.702787,0.7405453
-0.03350936,0.7001692,0.7401448
-0.03159519,0.6987513,0.7423296
-0.03106738,0.6975032,0.7450653
-0.02798638,0.6979126,0.7450603
-0.02977381,0.7001402,0.7405609
-0.03154393,0.7001217,0.7344146
-0.02679826,0.7003431,0.7333068
-0.0265515,0.7017863,0.7352604
-0.03005451,0.7028641,0.7378925
-0.03346622,0.70123,0.7429875
-0.0354054,0.6979349,0.7411686
-0.03474384,0.6989754,0.7368142
-0.03267041,0.7017233,0.7424529
-0.02738306,0.7026649,0.7444189
-0.02902032,0.7006511,0.7407345
-0.03568007,0.6971222,0.7404889
-0.03555826,0.6993899,0.7395551
-0.0338809,0.7040019,0.7395059
-0.03027923,0.7059076,0.7357056
-0.03050784,0.7053215,0.731608
-0.03561494,0.7021693,0.7376856
-0.03427911,0.7017379,0.741382
-0.03356338,0.6999325,0.7392691
-0.03269716,0.6954538,0.7394485
-0.03075132,0.6971116,0.7404875
-0.03278477,0.698891,0.7402863
-0.03134852,0.6999578,0.7381114
-0.02985316,0.7036587,0.7370161
-0.02977297,0.7004823,0.7384309
-0.03117213,0.6958933,0.7416565
-0.03588227,0.6988006,0.7440895
-0.03502614,0.7024225,0.7404442
-0.03407229,0.7049326,0.7351362
-0.0361772,0.7063285,0.7326799
-0.03527955,0.7043759,0.7330529
-0.03529894,0.7039639,0.7369852
-0.03538942,0.7063092,0.7393754
-0.03456637,0.707381,0.7397709
-0.03424861,0.7063901,0.7412518
-0.03294324,0.7030854,0.743014
-0.03121585,0.7005422,0.746032
-0.0291976,0.7020382,0.7457811
-0.02697814,0.7034339,0.7402426
-0.02690004,0.7015809,0.7359994
-0.03155502,0.6998519,0.7352303
-0.03370217,0.7000301,0.7368882
-0.03044307,0.6999506,0.7381631
-0.03003717,0.699958,0.7386731
-0.02841502,0.7001594,0.7386696
-0.0264396,0.6998067,0.7358202
-0.02882592,0.7001171,0.7328833
-0.02840918,0.7000192,0.7302535
-0.02769055,0.7000396,0.7311098
-0.02650919,0.7012571,0.7352445
-0.02361986,0.7024088,0.7335121
-0.02545135,0.7032068,0.7340825
-0.02605159,0.7027333,0.7388015
-0.02486673,0.7025447,0.7395191
-0.02725923,0.7030612,0.7413151
-0.02986116,0.7026061,0.7392003
-0.03103179,0.7027869,0.7357902
-0.03102903,0.7028942,0.7374507
-0.03259908,0.7022578,0.7342128
-0.03430508,0.7011248,0.7337151
-0.03372081,0.6993962,0.7382862
-0.03167056,0.6999407,0.7386891
-0.02667978,0.7015688,0.7415082
-0.02603963,0.7022532,0.742187
-0.02862782,0.7031491,0.7371025
-0.02833476,0.7028804,0.7356895
-0.03118323,0.702449,0.737709
-0.03058714,0.7030415,0.7403392
-0.02520966,0.7023605,0.7417731
-0.02457121,0.7008704,0.7425648
-0.02674123,0.6996486,0.7413445
-0.0317824,0.7007005,0.7365644
-0.03651772,0.7058314,0.735016
-0.03616858,0.7096339,0.7327729
-0.03298742,0.7078925,0.7282458
-0.02999919,0.7057628,0.7278912
-0.03053583,0.7061158,0.7288714
-0.03176252,0.7021083,0.736166
-0.03199306,0.6963012,0.745199
-0.031831,0.6984915,0.7431474
-0.02986361,0.7008747,0.7392467
-0.02876647,0.6992272,0.7386567
-0.02901026,0.7006788,0.7378516
-0.0297403,0.7020118,0.734824
-0.03098135,0.7027883,0.7276114
-0.0322378,0.703497,0.7250411
-0.03244532,0.7021205,0.7295848
-0.03138314,0.7029098,0.7325096
-0.03208715,0.7031444,0.7338952
-0.0324226,0.7022189,0.7368092
-0.03235114,0.7032045,0.7368006
-0.03380769,0.7026606,0.7340267
-0.03244357,0.7027723,0.734047
-0.03128971,0.7040162,0.7335375
-0.03226619,0.7039327,0.7315471
-0.03188109,0.7033801,0.7318482
-0.03207575,0.7014204,0.7327654
-0.03327051,0.7011195,0.733431
-0.03531014,0.7026557,0.7335584
-0.03631484,0.7028478,0.7337003
-0.0333562,0.7031081,0.7334392
-0.03086797,0.7035373,0.7339221
-0.0320353,0.7042195,0.7363517
-0.03357367,0.7035791,0.7354707
-0.03412768,0.7020618,0.7353671
-0.03453881,0.7029217,0.7387467
-0.03223923,0.70249,0.7401469
-0.02930918,0.6995747,0.7410866
-0.03053926,0.6973213,0.7418752
-0.03098066,0.6978045,0.7414429
-0.02913655,0.7011215,0.7338815
-0.02907132,0.7018996,0.7244539
-0.02971763,0.7001414,0.7299094
-0.03181123,0.6999824,0.7360663
-0.03389388,0.7008263,0.7330069
-0.03174619,0.7019765,0.7365108
-0.02964304,0.7025461,0.7400849
-0.03154072,0.7036102,0.7340227
-0.03322681,0.7046598,0.7300252
-0.03480636,0.7030704,0.7329568
-0.03954791,0.7023124,0.7371227
-0.04114587,0.7026451,0.7400655
-0.03579001,0.7009429,0.74088
-0.02884786,0.6997957,0.7397151
-0.02497288,0.7016013,0.7385324
-0.02823381,0.7029895,0.7373671
-0.03365265,0.6992623,0.735584
-0.03361503,0.6968252,0.7342022
-0.0329417,0.7035319,0.7346575
-0.03286104,0.7097229,0.7357056
-0.03298607,0.7081785,0.7344057
-0.03729673,0.708192,0.7327425
-0.04025509,0.7099509,0.7332344
-0.03795546,0.704243,0.7337676
-0.03391724,0.69904,0.7346601
-0.03072949,0.7017558,0.7379749
-0.03039458,0.7029247,0.7416895
-0.0287282,0.7012515,0.7423056
-0.02136247,0.7005595,0.7396885
-0.01626621,0.699929,0.7332982
-0.02129744,0.7017153,0.7254354
-0.02894703,0.7034738,0.7264878
-0.03096796,0.7018141,0.7316726
-0.03049206,0.7006127,0.7297242
-0.0296095,0.7006799,0.7299904
-0.02856952,0.7002132,0.7327878
-0.02891181,0.7020116,0.7313317
-0.0297479,0.7061515,0.732086
-0.02964082,0.7075212,0.7323497
-0.02654645,0.7072047,0.7319715
-0.02428389,0.70737,0.736101
-0.0258769,0.7044261,0.7378418
-0.02476735,0.7020532,0.7350529
-0.02473318,0.7039463,0.7319539
-0.02983552,0.7038544,0.7313476
-0.03044165,0.702982,0.7291745
-0.02864483,0.7046561,0.7244019
-0.02954495,0.7041687,0.7273057
-0.02851377,0.7028709,0.7330231
-0.02855225,0.7033575,0.7349735
-0.0297431,0.7053983,0.7349883
-0.02697797,0.7088346,0.7318391
-0.02557032,0.7087649,0.7323279
-0.02713733,0.7058506,0.7333125
-0.02737607,0.7025299,0.7333169
-0.0260743,0.6994911,0.7368691
-0.02287753,0.7038634,0.7320062
-0.02258393,0.7089862,0.7260953
-0.02464337,0.7040999,0.7280786
-0.02228436,0.7008192,0.7263487
-0.02244463,0.7035626,0.7268906
-0.02735244,0.7033504,0.7343835
-0.03010226,0.7039814,0.7393644
-0.02981557,0.7065704,0.7382199
-0.02775709,0.7057814,0.7356037
-0.02667261,0.7059322,0.7354072
-0.0243639,0.7072928,0.7320232
-0.02210058,0.7049565,0.7276736
-0.02391156,0.7020417,0.7270845
-0.02702171,0.7008179,0.7294369
-0.03190383,0.7000039,0.7363499
-0.03103342,0.7015011,0.7377342
-0.02677705,0.7037177,0.7349452
-0.03090695,0.702838,0.738255
-0.03324598,0.7024207,0.7368943
-0.0337801,0.7041173,0.7304486
-0.03194519,0.7041512,0.72709
-0.02215015,0.7031986,0.7273709
-0.02159178,0.7022304,0.731429
-0.02783228,0.700764,0.7353656
-0.02951478,0.6997687,0.7396244
-0.02825116,0.6996529,0.7396787
-0.0250906,0.7003132,0.735658
-0.02827984,0.7003879,0.7371934
-0.03073312,0.7023756,0.7405507
-0.02848913,0.7081221,0.7435187
-0.03132115,0.7102499,0.7415742
-0.03262765,0.7052965,0.7356827
-0.03172893,0.7013534,0.7361635
-0.03204133,0.7052537,0.7350017
-0.0317293,0.7087654,0.7348689
-0.032416,0.7049365,0.7384606
-0.03263794,0.702086,0.7363074
-0.03358415,0.7011238,0.7369501
-0.03332756,0.6999659,0.7378326
-0.03080799,0.7012912,0.7368234
-0.02952296,0.7021401,0.7386967
-0.02894265,0.7048878,0.734841
-0.03107801,0.7081302,0.733695
-0.03281625,0.7061016,0.7366007
-0.03166951,0.704898,0.7377069
-0.03207028,0.7067341,0.7435871
-0.03295093,0.7061158,0.7442255
-0.03352293,0.7005703,0.7401539
-0.03333139,0.6958974,0.7358319
-0.03214737,0.7002466,0.7278609
-0.0318693,0.7051972,0.7299205
-0.03216267,0.7026684,0.7355602
-0.03384004,0.7028313,0.7341274
-0.03496021,0.7062327,0.7348615
-0.03279824,0.7044344,0.7340944
-0.03027414,0.7024452,0.7336327
-0.03053061,0.7020369,0.7410313
-0.03342826,0.7009608,0.7493351
-0.03733445,0.7026296,0.7504551
-0.03917971,0.7039527,0.7419389
-0.0341289,0.7033081,0.7342785
-0.02707449,0.7027261,0.736559
-0.02788991,0.70238,0.7414594
-0.03312684,0.7029623,0.7430774
-0.03669194,0.7013052,0.7387262
-0.03707653,0.6981757,0.7321658
-0.03603337,0.6973869,0.7322289
-0.03704964,0.7003961,0.7334795
-0.03633293,0.7044707,0.734098
-0.03487348,0.7029839,0.7395035
-0.03484518,0.7013346,0.7410402
-0.03142494,0.7018932,0.7400073
-0.0287405,0.6995575,0.7443263
-0.02682618,0.7012552,0.7432287
-0.02443264,0.7042942,0.7386185
-0.02949074,0.7028615,0.7402988
-0.03375094,0.7051417,0.739372
-0.02986574,0.7079465,0.73343
-0.02887659,0.7050828,0.7304063
-0.03400876,0.7031236,0.7337762
-0.03772468,0.7039962,0.7360915
-0.03627845,0.7027296,0.7320014
-0.03468757,0.7002855,0.7316731
-0.03388297,0.7000559,0.7362192
-0.0301823,0.6984866,0.7446334
-0.02942307,0.6966498,0.7527104
-0.03062041,0.700023,0.7460989
-0.02852736,0.7026825,0.7395119
-0.02884284,0.7011849,0.7433734
-0.03004541,0.7010254,0.740281
-0.02952217,0.7017421,0.7351981
-0.03096951,0.701462,0.7381305
-0.03069218,0.7021821,0.7401327
-0.02909184,0.7032069,0.7399538
-0.02930798,0.7027941,0.7406514
-0.0295003,0.7021979,0.7389955
-0.03205926,0.7011818,0.7367444
-0.03522962,0.6999329,0.7340481
-0.03467327,0.7024043,0.7300141
-0.03264283,0.7053348,0.7295802
-0.03161483,0.7032948,0.7307151
-0.0327453,0.7020151,0.7326242
-0.03355729,0.7043022,0.7347503
-0.03144509,0.7054055,0.7327286
-0.03000564,0.705434,0.7329276
-0.03143125,0.7048598,0.7342213
-0.03238219,0.7036602,0.7329454
-0.0309065,0.7041508,0.7359007
-0.03008369,0.7044575,0.7395973
-0.03089862,0.7037081,0.7393501
-0.03149624,0.7033953,0.7335411
-0.0317592,0.7030838,0.7263043
-0.02997753,0.7052143,0.7291872
-0.02660224,0.7075771,0.7342217
-0.02608659,0.7036853,0.7358623
-0.02914009,0.6977261,0.7409717
-0.03337834,0.6966472,0.7425988
-0.03512639,0.699681,0.7399588
-0.03127527,0.7035061,0.7360626
-0.02780367,0.7044381,0.7312371
-0.03094485,0.7013901,0.7331496
-0.03298451,0.698919,0.7346847
-0.02946977,0.6995489,0.7321235
-0.02748872,0.6987954,0.7337531
-0.0279655,0.6969873,0.7335023
-0.02896388,0.7009363,0.7317174
-0.03133399,0.7065343,0.7325088
-0.03253411,0.7068971,0.7324159
-0.03156489,0.7061478,0.7337306
-0.02994474,0.7046392,0.7340518
-0.02910792,0.70173,0.7344452
-0.0309605,0.7024615,0.7371838
-0.0336609,0.7030184,0.7359934
-0.03355334,0.6996038,0.7346008
-0.0320254,0.6983299,0.735039
-0.03182868,0.7012919,0.7343318
-0.03193563,0.7040371,0.7350796
-0.03193148,0.7037025,0.7355448
-0.03168309,0.7030014,0.7353879
-0.0298544,0.7038041,0.7357319
-0.02779847,0.7032605,0.7360899
-0.02749701,0.7025376,0.7374177
-0.02922898,0.7024794,0.7374501
-0.03136025,0.7009037,0.7364922
-0.03232016,0.6995758,0.7360218
-0.03197924,0.7000908,0.7354439
-0.03070664,0.7021201,0.7350013
-0.030576,0.7033069,0.7341605
-0.03186719,0.7028887,0.734437
-0.03391408,0.7035984,0.7333974
-0.03550609,0.7039293,0.7304481
-0.03427548,0.7016052,0.7306236
-0.03243338,0.6993574,0.7311056
-0.030872,0.701827,0.7329029
-0.02986378,0.7060883,0.7362446
-0.03105387,0.7066833,0.7355264
-0.03139368,0.7066499,0.7358302
-0.03079984,0.7054502,0.7366268
-0.0298165,0.7032177,0.7346733
-0.0284302,0.7042189,0.7344345
-0.03004073,0.7043814,0.7340617
-0.03305407,0.7028878,0.733679
-0.03482673,0.7026862,0.7341673
-0.0327796,0.702683,0.7331878
-0.02884968,0.7028789,0.733034
-0.03066324,0.7033185,0.7330664
-0.0330262,0.7053563,0.7306038
-0.03390865,0.7078872,0.7294917
-0.03723951,0.7070077,0.7352166
-0.03433113,0.7054322,0.7413893
-0.02708794,0.7058238,0.739449
-0.02496582,0.7063875,0.7383
-0.02989199,0.7057136,0.7415449
-0.03781986,0.7000803,0.7394829
-0.0369236,0.6948943,0.7349467
-0.03350177,0.7031622,0.7328136
-0.03614414,0.7129326,0.7324446
-0.03747602,0.7091102,0.7341852
-0.04110223,0.705389,0.7335001
-0.04242248,0.7055101,0.7333413
-0.03604637,0.7032706,0.7349521
-0.03344802,0.703769,0.7326933
-0.03371181,0.7031424,0.7343477
-0.03322383,0.7035254,0.7415023
-0.03207377,0.707274,0.7468079
-0.02958342,0.7054081,0.7458362
-0.02894942,0.7055514,0.737067
-0.02943627,0.7075602,0.7317031
-0.03242975,0.70547,0.7321722
-0.03607551,0.7071825,0.7318579
-0.03671523,0.7074276,0.7313065
-0.0372413,0.7046889,0.731063
-0.03831968,0.7029593,0.7335896
-0.03878885,0.699619,0.7357779
-0.03494293,0.6997986,0.7351853
-0.02999905,0.7004154,0.7320201
-0.03031479,0.7000153,0.7264038
-0.03173262,0.7051919,0.7270497
-0.03149903,0.7070629,0.7297782
-0.02840201,0.7026603,0.7304999
-0.02506815,0.7021499,0.7345695
-0.02764246,0.7033244,0.734483
-0.03421311,0.7019103,0.7337601
-0.03928101,0.7002005,0.7374728
-0.03812971,0.6980798,0.7363356
-0.03522291,0.699827,0.7351486
-0.03642573,0.7056378,0.7369384
-0.03636458,0.7072096,0.7356539
-0.03554707,0.7036023,0.7346262
-0.03660004,0.6998308,0.7331365
-0.0355983,0.7013578,0.7308766
-0.03394923,0.7044038,0.7321154
-0.03192128,0.7036342,0.732523
-0.02878838,0.7035759,0.7330511
-0.02640199,0.7026575,0.7374915
-0.02423261,0.7022802,0.7398569
-0.02591531,0.7048734,0.7377187
-0.02933655,0.7057671,0.7347428
-0.02915177,0.7071281,0.7334514
-0.02946258,0.7056893,0.7342584
-0.03028556,0.7025097,0.7387304
-0.03142684,0.7037255,0.7444487
-0.03325407,0.7024571,0.7429424
-0.03335098,0.7003042,0.7373749
-0.03239119,0.7012304,0.7351986
-0.0282938,0.7047858,0.7344349
-0.02671252,0.7092855,0.7331891
-0.02967008,0.7036864,0.731464
-0.02988204,0.6972359,0.7323844
-0.03212735,0.7031265,0.7344364
-0.03237932,0.7063701,0.7329399
-0.02930599,0.7042588,0.7330493
-0.03377111,0.7066735,0.7344596
-0.03578458,0.7076474,0.735672
-0.03217778,0.7049483,0.7392588
-0.03167379,0.7027036,0.7385111
-0.03168753,0.70066,0.735503
-0.03226169,0.7010081,0.735828
-0.0316071,0.7020952,0.7347645
-0.02976951,0.7011723,0.7344323
-0.02914635,0.7022072,0.7367808
-0.02892981,0.703415,0.7376761
-0.0314366,0.7021516,0.7381256
-0.03234628,0.7009737,0.7392014
-0.03077795,0.7004942,0.7379839
-0.03101317,0.7040865,0.7358693
-0.0329257,0.7086714,0.735181
-0.03569463,0.706321,0.7317224
-0.03410182,0.7039742,0.7276633
-0.03162184,0.7053578,0.7297106
-0.03129092,0.7033114,0.7348742
-0.02831729,0.6999414,0.7387996
-0.02834397,0.6984117,0.7398407
-0.02929905,0.698765,0.7384779
-0.02707987,0.7011354,0.7386499
-0.02873889,0.700994,0.7390047
-0.0309295,0.701075,0.7367947
-0.03021117,0.7029733,0.7355546
-0.02978272,0.70163,0.7370383
-0.02889069,0.7011279,0.7405188
-0.0289329,0.7018036,0.743497
-0.0295581,0.702313,0.741862
-0.02892166,0.7053498,0.7402225
-0.02916614,0.7069305,0.7402671
-0.02934526,0.7069545,0.7365553
-0.02894505,0.7057943,0.7348558
-0.02949371,0.7029822,0.7372197
-0.03003608,0.7013955,0.7378253
-0.03074312,0.7000601,0.7390858
-0.03097711,0.6998456,0.7395438
-0.0311198,0.7002996,0.7381727
-0.03237912,0.7007248,0.7391635
-0.03228596,0.7025785,0.7383857
-0.03244289,0.7049237,0.7343251
-0.03390006,0.7072991,0.7297936
-0.03337646,0.704935,0.7264918
-0.03300054,0.7009456,0.7265041
-0.03291769,0.7031347,0.7276716
-0.02928872,0.7044579,0.7329244
-0.02484186,0.7034261,0.738446
-0.02523739,0.7034062,0.73421
-0.03156494,0.70062,0.7318602
-0.0386082,0.6990728,0.7361637
-0.03902016,0.7012993,0.7356647
-0.03212962,0.7044771,0.7314202
-0.02729793,0.7077703,0.7291682
-0.03252524,0.7058813,0.7347376
-0.04258127,0.702451,0.7420138
-0.0463875,0.7045232,0.7390056
-0.03720887,0.7040803,0.7370453
-0.02324215,0.6997573,0.7394164
-0.0223742,0.6980211,0.7368255
-0.03055182,0.6983501,0.7367285
-0.03286613,0.700357,0.7378214
-0.03037294,0.7020774,0.7354461
-0.02803345,0.7029657,0.7356807
-0.02994289,0.7033177,0.7353196
-0.03468827,0.7025503,0.7344498
-0.03754451,0.7050633,0.7334551
-0.03822404,0.7082253,0.7293591
-0.03509776,0.7085417,0.7288442
-0.03366791,0.708393,0.7297898
-0.03451351,0.7070985,0.7301221
-0.03265347,0.7064107,0.7316216
-0.03314258,0.7052788,0.7308259
-0.0328656,0.7032501,0.7344444
-0.03113609,0.7036617,0.7382284
-0.03226456,0.7039996,0.7363785
-0.03213126,0.7032845,0.7411641
-0.03304175,0.7019893,0.7460956
-0.03559259,0.7021621,0.7403639
-0.03691584,0.703719,0.7341434
-0.03808079,0.70259,0.7341345
-0.03847173,0.7033399,0.7347274
-0.03651186,0.7054518,0.7318023
-0.03281425,0.7055261,0.7300672
-0.03374284,0.7072643,0.7329258
-0.03681788,0.7062204,0.737835
-0.03521978,0.70254,0.74008
-0.03227977,0.7018731,0.7383377
-0.02882731,0.7021797,0.7367788
-0.02813568,0.7038408,0.7355344
-0.03034851,0.704531,0.7339748
-0.02990795,0.7019523,0.7333695
-0.0319419,0.7012412,0.7340416
-0.03614011,0.7033445,0.7361931
-0.03899821,0.7057543,0.7361565
-0.04044562,0.7056781,0.7334122
-0.03487296,0.7033054,0.7303146
-0.02925219,0.7027735,0.7284641
-0.03025709,0.704444,0.730946
-0.02951219,0.705739,0.7339599
-0.02860106,0.7031279,0.7360936
-0.03185317,0.7006458,0.7393057
-0.03435712,0.705081,0.7358507
-0.03469056,0.7086448,0.7295455
-0.03313601,0.7062157,0.7329914
-0.03176376,0.7040672,0.7401503
-0.03545027,0.7038748,0.7426434
-0.03913852,0.7038947,0.7412255
-0.03673552,0.7028724,0.739858
-0.03305985,0.70174,0.7440615
-0.03054369,0.7013593,0.7471425
-0.02916444,0.6996306,0.7437026
-0.02841539,0.6996885,0.7408974
-0.02583553,0.7027471,0.7370185
-0.02703237,0.7037616,0.7316087
-0.03181104,0.7038277,0.7329583
-0.03200979,0.7043605,0.7374316
-0.02986421,0.704992,0.737602
-0.02783739,0.7064367,0.7364709
-0.02758107,0.7068514,0.7360669
-0.03264267,0.707076,0.734459
-0.04068499,0.7061185,0.7296982
-0.04568081,0.7048119,0.721789
-0.03899258,0.7054406,0.7211955
-0.03050555,0.7026681,0.7283034
-0.03338223,0.6994021,0.7301043
-0.03281166,0.6998232,0.7291391
-0.02838354,0.7010336,0.7292422
-0.02796346,0.7045621,0.7303564
-0.02342492,0.7081199,0.7334542
-0.02248932,0.7075605,0.7327639
-0.02524974,0.7060169,0.7307788
-0.02561804,0.7068458,0.7324089
-0.03282577,0.7054488,0.7361061
-0.03807064,0.7020011,0.7379645
-0.0336175,0.7027715,0.7342801
-0.02854011,0.7030943,0.7295364
-0.02778094,0.7025355,0.7290977
-0.03375975,0.7042395,0.7339002
-0.03979334,0.7049067,0.7383531
-0.03931222,0.7049033,0.7380878
-0.03605562,0.7030597,0.736659
-0.03306319,0.7025458,0.7335322
-0.02949107,0.7063473,0.7321563
-0.02638268,0.709392,0.7350417
-0.0279134,0.7090364,0.7358213
-0.02944608,0.7024202,0.737772
-0.02870994,0.6960678,0.7417454
-0.0295873,0.6989634,0.73971
-0.02906395,0.7037161,0.7348321
-0.02892797,0.7053441,0.7326484
-0.02957408,0.7061504,0.7327263
-0.02880644,0.7050922,0.7347225
-0.02933556,0.7034013,0.7368636
-0.02921902,0.7026798,0.7391092
-0.02949394,0.702012,0.7381538
-0.03227732,0.7012667,0.7345759
-0.03467363,0.6997707,0.7371085
-0.03431825,0.7006245,0.7384023
-0.03134119,0.7042464,0.7346771
-0.03010436,0.7039537,0.7346078
-0.03142063,0.7012372,0.7352005
-0.03499765,0.6998069,0.7374813
-0.03943602,0.7011688,0.7407983
-0.03816694,0.7041595,0.7391335
-0.03303029,0.7024908,0.736297
-0.02987661,0.7011482,0.7340948
-0.03234563,0.7019848,0.734708
-0.036467,0.7009453,0.737759
-0.03279415,0.7021529,0.7379731
-0.03080773,0.7016931,0.7377361
-0.03566006,0.6999303,0.7401362
-0.0361794,0.7022753,0.7425038
-0.03286982,0.704439,0.7407937
-0.02838526,0.7057697,0.7386083
-0.02662704,0.7048139,0.7400854
-0.02936619,0.7015015,0.7419871
-0.02940878,0.7006089,0.7446061
-0.02858363,0.699929,0.7462016
-0.02759005,0.6989616,0.7424797
-0.0259742,0.7004127,0.7368936
-0.0288773,0.7022737,0.7349324
-0.03359815,0.7029559,0.7365158
-0.03542559,0.7028143,0.7373624
-0.03267325,0.7017225,0.7366613
-0.02881841,0.7022928,0.7340254
-0.02798869,0.7077473,0.7292766
-0.0281589,0.7116279,0.7276447
-0.03033847,0.7046344,0.728279
-0.03246603,0.696799,0.7261944
-0.02940198,0.7015793,0.7230184
-0.02638638,0.7060378,0.7233027
-0.02889704,0.7050973,0.7292697
-0.03377653,0.7102576,0.7366166
-0.03611345,0.7104864,0.7404707
-0.03117815,0.7025747,0.7391931
-0.02333801,0.6977735,0.7357904
-0.0245914,0.6948999,0.7359822
-0.02977989,0.6990419,0.7354254
-0.03169381,0.7039113,0.7339022
-0.03433172,0.7003992,0.7352457
-0.03276895,0.7000437,0.7345758
-0.03054611,0.7005987,0.734513
-0.03283007,0.6995376,0.7355254
-0.0314542,0.7026807,0.7361984
-0.02972857,0.705037,0.7392731
-0.02926782,0.7058477,0.7389579
-0.02858646,0.7047052,0.7365831
-0.03090644,0.7017269,0.735933
-0.03212584,0.6992696,0.7348202
-0.03461759,0.6966621,0.7320983
-0.03707806,0.6993732,0.728559
-0.03404375,0.7034241,0.7328783
-0.03284917,0.7019632,0.7389131
-0.03528227,0.7024146,0.7361393
-0.03629906,0.7036377,0.7368071
-0.03353184,0.7021791,0.7398806
-0.03097369,0.7028398,0.7348302
-0.03383018,0.7034707,0.7307745
-0.0354419,0.7041309,0.731961
-0.03263579,0.7063822,0.7324415
-0.03119541,0.7053836,0.7321014
-0.03271235,0.7031757,0.73146
-0.03583391,0.70305,0.7308827
-0.03813252,0.7042287,0.7321057
-0.03691463,0.7060028,0.7332125
-0.03353739,0.7038655,0.7347938
-0.03096778,0.700623,0.7381746
-0.02850481,0.7008912,0.7378075
-0.02957693,0.6989404,0.7357328
-0.0364614,0.697193,0.7363016
-0.04008308,0.7028394,0.7337512
-0.03744096,0.7096704,0.728033
-0.03487103,0.7101033,0.7247118
-0.03635029,0.708566,0.7307256
-0.03879294,0.7082907,0.7413175
-0.03795311,0.7051937,0.7411808
-0.03566577,0.7028142,0.7384193
-0.0321183,0.7030732,0.7376628
-0.03149472,0.7024489,0.7327186
-0.03315604,0.7042151,0.733258
-0.03120505,0.7065139,0.7358738
-0.03283655,0.7065153,0.7355192
-0.03475121,0.7047411,0.7351016
-0.03438664,0.7014801,0.7321928
-0.03803926,0.7028857,0.7338188
-0.03816686,0.7060743,0.7375251
-0.03768529,0.7079492,0.7376008
-0.0397411,0.7110364,0.7378905
-0.03866144,0.7098648,0.7363341
-0.03768957,0.7084497,0.73436
-0.0335836,0.7086128,0.7335562
-0.0278082,0.7047941,0.7374432
-0.02824443,0.7031175,0.7435945
-0.02947429,0.7029954,0.7415684
-0.02805291,0.7021066,0.739826
-0.02987823,0.7032777,0.7404151
-0.03471665,0.7031062,0.736949
-0.03766912,0.704389,0.7355882
-0.03746718,0.7074555,0.7357463
-0.03259267,0.7071145,0.734177
-0.02901886,0.706514,0.7283537
-0.03167067,0.7060393,0.7243244
-0.03266174,0.704123,0.7343603
-0.03252797,0.7031194,0.7454779
-0.03638951,0.7032975,0.744033
-0.03995608,0.7037201,0.7411322
-0.03680706,0.7034263,0.7402077
-0.02989798,0.7033207,0.7310812
-0.0287751,0.7040355,0.7235623
-0.03192198,0.7049533,0.7308718
-0.03462807,0.7060746,0.7363646
-0.03557703,0.7056283,0.7319565
-0.03550234,0.7049614,0.7299562
-0.03603641,0.7050381,0.7293319
-0.03305507,0.703957,0.7301205
-0.02885509,0.7048031,0.7386384
-0.02575218,0.7063166,0.7458896
-0.02620764,0.7044223,0.7428934
-0.03409345,0.7009412,0.737902
-0.03741186,0.6989553,0.7361788
-0.03399727,0.7049931,0.7319465
-0.03172965,0.7126919,0.7272315
-0.03197873,0.7082961,0.7275114
-0.03625555,0.7040778,0.7298062
-0.03726866,0.7064572,0.7324858
-0.03221679,0.7037719,0.7344735
-0.02705566,0.7028459,0.7331391
-0.02663417,0.7044448,0.732626
-0.0283273,0.7007616,0.7332552
-0.02578231,0.699945,0.7329675
-0.02527634,0.7006927,0.7369652
-0.02444923,0.7003414,0.7399464
-0.02260424,0.7030398,0.7350551
-0.02670383,0.7031356,0.7322097
-0.02907563,0.7023138,0.7361837
-0.03244528,0.7031752,0.7374659
-0.03661077,0.7028854,0.7301911
-0.03541804,0.7044485,0.7245319
-0.03374024,0.7053188,0.7309337
-0.03092976,0.7038888,0.7379445
-0.03128773,0.7038766,0.7361932
-0.03216399,0.7042403,0.7353145
-0.02885001,0.7032948,0.736288
-0.02753122,0.702663,0.7335102
-0.02336049,0.7046317,0.732767
-0.02042592,0.7068269,0.7362012
-0.02356719,0.7082049,0.7398661
-0.02500453,0.7094008,0.7431806
-0.02671633,0.7057344,0.7429289
-0.02698462,0.7008128,0.7389028
-0.02464266,0.7026145,0.7345395
-0.02504318,0.7050968,0.7280598
-0.02548853,0.7044846,0.7243088
-0.02651234,0.7059397,0.7280047
-0.02861388,0.7058708,0.7311146
-0.02800345,0.7038623,0.7347822
-0.02823588,0.7044319,0.7391974
-0.02998768,0.7038504,0.7359658
-0.02986254,0.7029139,0.7360243
-0.02946488,0.7022267,0.74068
-0.02838225,0.701449,0.7404704
-0.02690366,0.7033931,0.7435754
-0.02739609,0.7028764,0.7421263
-0.02799133,0.701226,0.734987
-0.0285246,0.7018578,0.7363264
-0.02939944,0.7019376,0.737208
-0.03095366,0.7031687,0.7398771
-0.03477791,0.7034262,0.7441479
-0.03646178,0.7043515,0.7365253
-0.03523472,0.7083318,0.7310257
-0.03250292,0.7089611,0.7352033
-0.02477172,0.7074408,0.7368899
-0.02159751,0.705739,0.7322133
-0.03137773,0.7033585,0.7303896
-0.03912558,0.7038455,0.7390693
-0.03364048,0.7047704,0.7455069
-0.0282653,0.7040469,0.7413097
-0.03199451,0.7051426,0.7365182
-0.03488848,0.7070071,0.7372478
-0.03698427,0.7069126,0.7372316
-0.03891702,0.7056448,0.7354448
-0.03542124,0.7035097,0.7382531
-0.03446385,0.702078,0.7400413
-0.03347835,0.7028483,0.7403064
-0.0304486,0.7030344,0.741512
-0.03246513,0.7025299,0.7372288
-0.03222315,0.7028745,0.7330818
-0.03165372,0.7033499,0.7345859
-0.03455155,0.7053678,0.7374204
-0.03575449,0.7078352,0.7404409
-0.03633228,0.7067058,0.7436685
-0.03419617,0.7036222,0.7410316
-0.03298633,0.7023025,0.7347961
-0.03632695,0.702552,0.736265
-0.0383105,0.703063,0.738734
-0.03705408,0.7027855,0.7385026
-0.03334908,0.7018196,0.7392154
-0.03109167,0.6994577,0.7356213
-0.03175749,0.6969384,0.7347175
-0.03388903,0.7020363,0.7398557
-0.04000107,0.7110601,0.7446537
-0.04658418,0.7125663,0.745591
-0.04429186,0.7119611,0.7412411
-0.03231921,0.7154435,0.7345298
-0.01668101,0.7164973,0.7197991
-0.009771033,0.7104661,0.704813
-0.03233706,0.7044679,0.7098198
-0.05798177,0.7066056,0.734851
-0.04498508,0.7066264,0.7568997
-0.03253861,0.6969681,0.7437502
-0.03953488,0.6913186,0.7229593
-0.03647193,0.697034,0.732183
-0.03893396,0.7034365,0.7343585
-0.04336217,0.7040597,0.7293736
-0.04131604,0.707857,0.7378377
-0.2581912,0.7317373,0.6755207
-0.2594912,0.7274586,0.6745275
-0.2600354,0.7257311,0.6784402
-0.2606946,0.7258105,0.6794937
-0.2613502,0.724322,0.6772535
-0.2607293,0.720552,0.6768248
-0.2593403,0.7179344,0.680873
-0.2579014,0.7198023,0.6879995
-0.2590629,0.718836,0.6875482
-0.2604461,0.717174,0.6843845
-0.2593196,0.7186604,0.6831182
-0.2586978,0.7188949,0.6776052
-0.2586381,0.7197654,0.6753522
-0.2598659,0.7206297,0.679392
-0.2619029,0.7210789,0.6818032
-0.2614323,0.7229668,0.6808027
-0.2615008,0.723909,0.6817822
-0.2632982,0.7243604,0.6837358
-0.2634818,0.7260683,0.6797469
-0.2637402,0.728556,0.6761316
-0.2639945,0.7283534,0.6771784
-0.2616149,0.7266988,0.6747896
-0.2596403,0.7273256,0.6706716
-0.259515,0.7264781,0.6721938
-0.2595365,0.7266313,0.6756289
-0.2590116,0.728785,0.6775305
-0.2578958,0.727357,0.679266
-0.2582435,0.7265432,0.6749728
-0.2593895,0.7268336,0.6689279
-0.2616053,0.7269295,0.6707636
-0.2650941,0.7291354,0.6716972
-0.2651038,0.7288226,0.6700534
-0.2664515,0.7276541,0.6708245
-0.270235,0.7278198,0.6691005
-0.2647469,0.7254895,0.6683159
-0.2562766,0.7231827,0.6736633
-0.256921,0.7223458,0.6795074
-0.2617649,0.7240149,0.6803277
-0.266969,0.7288801,0.6790331
-0.269079,0.7312383,0.6768443
-0.2649653,0.7313115,0.6722535
-0.2628184,0.7315596,0.6740556
-0.2650764,0.7275782,0.6796714
-0.2654425,0.7205639,0.6791027
-0.2631437,0.7187585,0.6780619
-0.2609357,0.724495,0.6747126
-0.2611618,0.7301147,0.6712482
-0.2633159,0.7298638,0.6762717
-0.265259,0.7293813,0.679048
-0.2657271,0.7311595,0.678517
-0.2648505,0.7306997,0.67952
-0.2641641,0.729586,0.6757998
-0.2630984,0.7282043,0.6720578
-0.2630015,0.7254957,0.6737727
-0.2657797,0.7255832,0.6812481
-0.2684708,0.7254238,0.689794
-0.2699168,0.7224331,0.6862252
-0.269669,0.7224188,0.675718
-0.2676529,0.7231313,0.672474
-0.26582,0.7232829,0.6759865
-0.2630558,0.7258707,0.683059
-0.2619228,0.7254089,0.6860248
-0.2646777,0.7239184,0.6810751
-0.2661074,0.7247676,0.6765631
-0.2660658,0.723218,0.6745797
-0.2668178,0.7231758,0.6738915
-0.2664716,0.7243167,0.6736596
-0.2647457,0.7234717,0.6734078
-0.2633307,0.725496,0.6750363
-0.2643031,0.727168,0.6778664
-0.2669239,0.726231,0.6855004
-0.2686396,0.7262871,0.6921791
-0.2678616,0.7264543,0.6848617
-0.2646906,0.7264197,0.6751125
-0.2623451,0.7263367,0.6765642
-0.2624704,0.7263819,0.6794187
-0.264983,0.7268315,0.6790421
-0.2686661,0.728052,0.6801063
-0.2702039,0.7294524,0.6766978
-0.2686166,0.7273919,0.6724939
-0.2640646,0.7234065,0.6788932
-0.2586557,0.7194645,0.6846658
-0.2583378,0.716565,0.6816993
-0.2655656,0.7224684,0.6803911
-0.2729897,0.731353,0.6801709
-0.2725058,0.729201,0.6769329
-0.2673053,0.7229486,0.6793921
-0.2630534,0.7182071,0.6877719
-0.2616911,0.7139896,0.6904662
-0.2635937,0.7193704,0.6836686
-0.2652335,0.7258901,0.6760461
-0.2671488,0.7250309,0.6786657
-0.2694432,0.7281437,0.6823338
-0.2646937,0.7291028,0.6777724
-0.2586459,0.7249771,0.6736248
-0.2623873,0.7249105,0.6683104
-0.2672485,0.7235386,0.6683637
-0.2682112,0.7236409,0.6750082
-0.2698206,0.7261519,0.6734937
-0.2669622,0.7236636,0.6771413
-0.2638116,0.7230049,0.6866058
-0.266612,0.7241693,0.6877535
-0.2672786,0.7232404,0.6815613
-0.2665985,0.7237696,0.6709142
-0.2686302,0.7231161,0.6738587
-0.2701234,0.7207444,0.6795386
-0.2710875,0.7194081,0.6738691
-0.27339,0.7215923,0.6761665
-0.2760807,0.7251591,0.6730695
-0.2749209,0.724005,0.6662484
-0.2714694,0.7255936,0.671904
-0.2678426,0.7331195,0.6731893
-0.2636079,0.7358896,0.6733723
-0.2648102,0.7329858,0.6745317
-0.2666123,0.7307883,0.672618
-0.2639521,0.7313021,0.6742145
-0.2636247,0.7286584,0.6735444
-0.2633704,0.72284,0.6737813
-0.2660265,0.7229029,0.6770349
-0.2719239,0.7240714,0.6791434
-0.2710795,0.7213717,0.6813231
-0.2724251,0.7203603,0.6817029
-0.2761943,0.7204208,0.6821021
-0.2697321,0.718878,0.680563
-0.2631729,0.7157075,0.6794055
-0.2643924,0.714869,0.6816124
-0.2694511,0.719476,0.6802721
-0.2767477,0.725682,0.6800943
-0.2791748,0.729433,0.6809808
-0.2755163,0.7279222,0.6779463
-0.2738574,0.7257631,0.676579
-0.2740814,0.7268839,0.6757258
-0.2717312,0.7262648,0.6748356
-0.2696871,0.7258949,0.6749516
-0.2701268,0.725667,0.6748191
-0.2678828,0.720729,0.675358
-0.2609111,0.7118722,0.6747521
-0.255082,0.7013166,0.6754755
-0.2594605,0.7006946,0.6776683
-0.2744113,0.7133979,0.6781137
-0.2862853,0.72501,0.6779111
-0.2866482,0.72847,0.6773847
-0.2832101,0.7239916,0.6778371
-0.2860776,0.7200526,0.6770133
-0.2931147,0.7213483,0.675341
-0.2984215,0.7196768,0.6747792
-0.3029496,0.7161671,0.6721144
-0.3114565,0.7147058,0.6717698
-0.3280609,0.7207612,0.6736855
-0.3321647,0.7281216,0.6735989
-0.3057658,0.7154246,0.6728666
-0.2823298,0.7009778,0.6677844
-0.2887726,0.706463,0.6590056
-0.3111874,0.7144318,0.6559341
-0.34465,0.7264835,0.6639742
-0.373866,0.7437867,0.6732641
-0.3556076,0.7391427,0.6723737
-0.3163642,0.7194784,0.6678405
-0.3132258,0.7115195,0.6659118
-0.3213455,0.7117239,0.6658812
-0.3280723,0.715559,0.6652389
-0.3342432,0.7175021,0.6612491
-0.3231151,0.7090639,0.6601341
-0.3187842,0.7010988,0.6625115
-0.316859,0.6961405,0.6642974
-0.3159789,0.6934772,0.6672639
-0.3263029,0.6959482,0.6678621
-0.3332106,0.7057967,0.6656565
-0.355695,0.7269057,0.661992
-0.3708146,0.7330878,0.6586088
-0.3592657,0.7184813,0.6641075
-0.3524388,0.7103488,0.6696967
-0.3431027,0.7084318,0.6670217
-0.3396543,0.7100197,0.6665438
-0.343654,0.7124847,0.6683796
-0.3373106,0.7114854,0.6735314
-0.3357623,0.7103816,0.6790538
-0.3372685,0.7062858,0.673762
-0.3389903,0.705707,0.6699585
-0.3434291,0.705824,0.671524
-0.3394138,0.6985517,0.6690523
-0.3291799,0.6910741,0.6684252
-0.3238407,0.6879884,0.6681209
-0.3378718,0.7001612,0.6681404
-0.3579788,0.718973,0.672356
-0.3544865,0.718494,0.674308
-0.3474626,0.7111959,0.6735946
-0.3505684,0.7107355,0.6709014
-0.3443824,0.7082261,0.6667657
-0.3422632,0.7078053,0.6626094
-0.346815,0.709999,0.6595562
-0.3441985,0.709526,0.6615062
-0.3461909,0.7097126,0.663721
-0.3474175,0.7087006,0.6684157
-0.3446789,0.7070576,0.677711
-0.3469497,0.7080091,0.6775884
-0.3479941,0.709514,0.6717795
-0.3481334,0.7111454,0.6729526
-0.34353,0.7107721,0.6752304
-0.3384316,0.707693,0.6748094
-0.3443271,0.703653,0.6761151
-0.3487956,0.7020005,0.6746287
-0.3481898,0.7058345,0.6711257
-0.3494469,0.7081421,0.6758126
-0.3498222,0.7063069,0.6786301
-0.3464955,0.7047809,0.6708991
-0.3429162,0.7029313,0.6660169
-0.3444056,0.7027848,0.6687056
-0.3451987,0.705706,0.6699542
-0.3428926,0.7078114,0.6644716
-0.3398714,0.7071163,0.6619071
-0.333558,0.7064061,0.6701628
-0.3289226,0.7072768,0.6798826
-0.3285431,0.7069775,0.6816483
-0.3323802,0.7066768,0.6754489
-0.3383949,0.7072325,0.6716921
-0.336611,0.7067892,0.674164
-0.3332344,0.7069257,0.6749349
-0.3347794,0.7065513,0.6743002
-0.3329107,0.7040903,0.6725767
-0.3327913,0.7020848,0.6702233
-0.3353412,0.702956,0.672317
-0.3336864,0.7063917,0.6739273
-0.3318929,0.7095139,0.6690237
-0.3280434,0.7112648,0.6651192
-0.3252248,0.7112004,0.6686557
-0.3262623,0.7099041,0.6720764
-0.3242073,0.7096357,0.672413
-0.3236378,0.7099767,0.6740217
-0.3232041,0.7115541,0.6740582
-0.3211221,0.7129895,0.6730188
-0.3230493,0.711601,0.6738773
-0.3241628,0.7113116,0.6740849
-0.3250561,0.7147503,0.6750917
-0.3253724,0.7170367,0.6771975
-0.321929,0.7124948,0.6770529
-0.3192777,0.7075041,0.6776644
-0.3172486,0.709734,0.6773014
-0.3181964,0.710965,0.6724815
-0.3219711,0.709694,0.6722897
-0.324204,0.7119976,0.6750324
-0.3250456,0.7133201,0.6721339
-0.3203171,0.7135247,0.6714608
-0.3151698,0.7137052,0.6728819
-0.3169327,0.7117496,0.6707974
-0.3190093,0.7123203,0.6708248
-0.3197853,0.7128223,0.6722677
-0.3201058,0.7099125,0.6740266
-0.3180797,0.7083469,0.6763101
-0.3155542,0.7071194,0.6765685
-0.3135395,0.7067601,0.6780482
-0.3125892,0.708133,0.6782222
-0.3138496,0.7084056,0.6761523
-0.3161435,0.7086953,0.6766415
-0.3152604,0.7090871,0.6772772
-0.3124922,0.7099109,0.6777239
-0.3116217,0.7100983,0.6772548
-0.3106188,0.7095781,0.6756565
-0.311172,0.7123087,0.6765107
-0.3129063,0.7158015,0.6763187
-0.3143658,0.7170315,0.6742247
-0.317959,0.7151374,0.6733207
-0.3183907,0.7126939,0.6733337
-0.3154193,0.7140977,0.6748285
-0.3128435,0.7141607,0.6785686
-0.3096812,0.7120598,0.6843693
-0.3084586,0.7108067,0.685855
-0.3081887,0.7093678,0.6811132
-0.3083364,0.711331,0.6791051
-0.310114,0.713619,0.67822
-0.3127428,0.7124283,0.6755208
-0.316679,0.7129352,0.6759175
-0.3163956,0.7136241,0.6762465
-0.3107331,0.7117865,0.6751417
-0.306889,0.7100417,0.6758046
-0.30811,0.707805,0.6764784
-0.3117425,0.7061936,0.6778873
-0.3144175,0.708114,0.6795699
-0.3188065,0.7099407,0.6764533
-0.3218146,0.7096278,0.6726097
-0.3198553,0.7098204,0.6733929
-0.3178405,0.7100868,0.6731255
-0.3141517,0.7113656,0.6712034
-0.3116987,0.7127121,0.6705476
-0.3142881,0.7097047,0.6696059
-0.3190741,0.7062356,0.6720714
-0.3268388,0.7070033,0.676743
-0.3292441,0.7091763,0.6766645
-0.3264851,0.7100789,0.6735653
-0.3282569,0.7098412,0.6694506
-0.3283017,0.7095273,0.6631718
-0.3282739,0.7097516,0.6597358
-0.332619,0.7098425,0.6628049
-0.335867,0.7088716,0.6656316
-0.3384792,0.7061939,0.6658458
-0.3376446,0.7031457,0.6694799
-0.3330918,0.7027136,0.6724452
-0.326795,0.7006502,0.6716629
-0.3216807,0.6970105,0.6762732
-0.3326562,0.7059448,0.6816971
-0.3479685,0.7209341,0.6790019
-0.3443659,0.7209828,0.6769528
-0.335866,0.7099884,0.6752647
-0.3305648,0.7023626,0.6702463
-0.325758,0.7038039,0.6710507
-0.3305069,0.7060171,0.6702405
-0.3341995,0.7035891,0.6651965
-0.3304676,0.7076378,0.6709799
-0.3301363,0.7119092,0.6764137
-0.3297685,0.7085833,0.6727865
-0.3309537,0.7075558,0.6722537
-0.3350035,0.7060724,0.6698981
-0.333348,0.7045188,0.6648115
-0.3329924,0.705879,0.668046
-0.3368535,0.7036201,0.6767414
-0.3379514,0.7027138,0.682427
-0.3377133,0.7065185,0.6795812
-0.3372325,0.7094991,0.6719725
-0.3372737,0.7087542,0.6696208
-0.3369265,0.7072075,0.6709841
-0.3356672,0.7079842,0.6710027
-0.3370667,0.7067978,0.6704611
-0.3377005,0.7062765,0.6689227
-0.3347576,0.7077472,0.6679376
-0.3304494,0.7065182,0.6702565
-0.3270139,0.7070387,0.6742615
-0.3274463,0.7080916,0.6762082
-0.3283431,0.7073899,0.6756421
-0.3267263,0.7081847,0.6763812
-0.324229,0.7091231,0.6765341
-0.3216595,0.7102322,0.6741319
-0.3233738,0.7098607,0.6735913
-0.3265111,0.7090015,0.6753101
-0.3246011,0.709166,0.677079
-0.3236441,0.7069638,0.6766527
-0.3249938,0.706946,0.6755746
-0.3247639,0.7102767,0.6757519
-0.3241833,0.7125437,0.6738172
-0.3195117,0.7128227,0.6729257
-0.3136142,0.7099067,0.6744645
-0.3136976,0.707325,0.6752282
-0.3136334,0.7066056,0.6773815
-0.3116704,0.7066808,0.6789658
-0.3123322,0.7076009,0.6776921
-0.3120435,0.707568,0.6744668
-0.3097215,0.7086954,0.6721528
-0.3075486,0.7096781,0.6742266
-0.3048292,0.7097593,0.6750508
-0.304756,0.711955,0.6751187
-0.3060193,0.7128701,0.6796262
-0.3025332,0.7128726,0.6831646
-0.3005532,0.7144603,0.6827853
-0.3035403,0.7165414,0.6770359
-0.3039056,0.7174089,0.6715247
-0.2988536,0.716201,0.6756078
-0.2911022,0.7157279,0.6799178
-0.2902672,0.712601,0.6793784
-0.299906,0.7086093,0.6809365
-0.3070873,0.713046,0.681888
-0.3042471,0.7172205,0.6784378
-0.2997229,0.713726,0.6760647
-0.3002984,0.7111009,0.6814854
-0.3009215,0.7111909,0.6861823
-0.3012223,0.7103382,0.6790503
-0.3016142,0.7085027,0.671722
-0.2980398,0.7063047,0.6737965
-0.2965116,0.7063435,0.6771124
-0.2975451,0.7077549,0.680763
-0.2980205,0.7075391,0.684915
-0.2991573,0.7114646,0.6825647
-0.2987634,0.717625,0.6794382
-0.3004816,0.7169122,0.6797851
-0.3029426,0.7140115,0.6770845
-0.3025364,0.7127597,0.6750411
-0.3041584,0.7121986,0.6748774
-0.3084323,0.7135875,0.6719733
-0.3122227,0.7142421,0.6706748
-0.312653,0.7141635,0.6712432
-0.3112201,0.715628,0.6720056
-0.3091522,0.7172394,0.6754663
-0.3073937,0.7169208,0.6782698
-0.308636,0.71564,0.6785403
-0.3085306,0.7131776,0.67948
-0.3081063,0.706223,0.6790736
-0.3099701,0.7012114,0.6748302
-0.3115424,0.7043752,0.6742423
-0.3132013,0.708713,0.6796926
-0.3126236,0.7105218,0.6813993
-0.3125053,0.7110018,0.6785021
-0.3156541,0.7108119,0.6744208
-0.3172888,0.711406,0.6707029
-0.3174449,0.7107833,0.6719932
-0.3189508,0.7090235,0.6729673
-0.3215415,0.7086566,0.6708175
-0.3205394,0.7106381,0.6714218
-0.3186955,0.7131281,0.6717563
-0.3225733,0.7101647,0.670492
-0.3238734,0.7076288,0.670694
-0.3186198,0.7140644,0.6726259
-0.3143438,0.7179534,0.6788458
-0.3145621,0.7121293,0.6844362
-0.3158445,0.7075442,0.6781562
-0.3126421,0.7072506,0.6697966
-0.3089172,0.6982928,0.6737176
-0.3102779,0.688932,0.6755635
-0.3195137,0.7059337,0.6717342
-0.3328215,0.7252268,0.6755387
-0.3392428,0.7162232,0.6804016
-0.3427951,0.7099442,0.6832132
-0.3368545,0.7123635,0.680105
-0.320963,0.7046252,0.6704301
-0.3249819,0.7064358,0.6728237
-0.3317434,0.7113291,0.6810002
-0.3246494,0.705425,0.6835704
-0.3283838,0.7068491,0.6811274
-0.3281296,0.7080137,0.6714247
-0.3230036,0.7055646,0.6690441
-0.3273236,0.7080093,0.6719672
-0.3251337,0.7065728,0.6696753
-0.3243448,0.7065972,0.6690059
-0.3259489,0.7077413,0.6692401
-0.3240924,0.7062752,0.674559
-0.3265844,0.7083912,0.6788383
-0.3258093,0.7085145,0.674381
-0.3268186,0.7077542,0.6748217
-0.3314905,0.7065375,0.6775387
-0.331139,0.7024333,0.6777246
-0.3261652,0.7005918,0.6783335
-0.3199428,0.7004135,0.6774428
-0.3256825,0.7050409,0.6787878
-0.3380965,0.712344,0.6793622
-0.3423984,0.7124428,0.6770278
-0.3367665,0.7058507,0.6762059
-0.3276133,0.7011079,0.6769983
-0.329023,0.7051367,0.6784399
-0.3299418,0.7090475,0.6776127
-0.3278524,0.7060345,0.6766108
-0.3342387,0.704582,0.6771447
-0.3322156,0.7053254,0.6766075
-0.3274971,0.7079611,0.6779543
-0.3275379,0.7126826,0.679573
-0.3213468,0.710889,0.6765998
-0.3213978,0.7079465,0.6706349
-0.323706,0.7102168,0.6676897
-0.3219745,0.7081655,0.6730847
-0.3237988,0.7050559,0.6797944
-0.3197688,0.7048351,0.678229
-0.3145052,0.7019977,0.6745369
-0.3154441,0.7028595,0.6723525
-0.3171216,0.7073249,0.667185
-0.3189848,0.7088488,0.6666964
-0.3189333,0.7084217,0.6695335
-0.3193311,0.7060511,0.6663831
-0.3197996,0.7055567,0.6677026
-0.3180608,0.7084412,0.6755365
-0.3179848,0.710446,0.6808685
-0.3180373,0.7101326,0.6805583
-0.3176558,0.7092297,0.6765822
-0.3164318,0.7108677,0.6761474
-0.3132659,0.7116632,0.673787
-0.3089752,0.7092536,0.6739834
-0.3040234,0.7041965,0.6816052
-0.3048673,0.6986879,0.680565
-0.3090643,0.7034494,0.6778951
-0.3089391,0.7114897,0.6790399
-0.3085697,0.7126516,0.6801743
-0.3059462,0.7168213,0.6847888
-0.2997169,0.715829,0.6803078
-0.29817,0.70768,0.6732117
-0.3015232,0.7094812,0.6742072
-0.3057342,0.7113929,0.6757914
-0.3064476,0.710128,0.678974
-0.3047539,0.7138312,0.6780668
-0.3058725,0.7127273,0.675649
-0.3057221,0.7114666,0.677156
-0.3045703,0.7135223,0.6764421
-0.3033525,0.7119584,0.6784751
-0.3009849,0.7124727,0.6797344
-0.3046731,0.713282,0.6779299
-0.3086847,0.7133801,0.6816085
-0.3058513,0.7144671,0.6852571
-0.3046205,0.7116376,0.6849438
-0.3060472,0.7096333,0.6805013
-0.3056101,0.7082828,0.6745884
-0.3052438,0.7057472,0.678192
-0.305818,0.7074246,0.6832851
-0.305498,0.7096503,0.6797622
-0.3055976,0.7119605,0.6799242
-0.3066681,0.7162558,0.6832949
-0.3072197,0.7168047,0.6839856
-0.3079992,0.7138138,0.686295
-0.3084719,0.7114679,0.6822435
-0.3083911,0.7112726,0.6761817
-0.3084995,0.7115526,0.6777998
-0.3098319,0.7109774,0.6766608
-0.3137182,0.712968,0.675424
-0.3160389,0.7142527,0.6781917
-0.3136674,0.7105767,0.6778198
-0.3108305,0.7070221,0.6773942
-0.3098932,0.706276,0.6768102
-0.308626,0.7073534,0.6740711
-0.3106449,0.7080816,0.6729239
-0.3168385,0.7087248,0.6728921
-0.3176811,0.7114201,0.6730469
-0.3158454,0.7130631,0.6736746
-0.3170636,0.7127426,0.6738518
-0.3167997,0.7122019,0.6734656
-0.3173743,0.7124436,0.6746087
-0.318624,0.71284,0.67916
-0.3173376,0.7112683,0.6834321
-0.3141087,0.7072528,0.6817143
-0.306878,0.6998909,0.6763283
-0.3020576,0.6969163,0.674284
-0.3053593,0.7040779,0.677143
-0.3086782,0.7137922,0.6841286
-0.308056,0.7204254,0.6898243
-0.3072652,0.7177736,0.6858878
-0.3059791,0.7115259,0.6763577
-0.3048628,0.7123487,0.6715203
-0.3057044,0.7109783,0.6781499
-0.3047624,0.709361,0.6864254
-0.3035446,0.7147911,0.6791425
-0.3047852,0.7179371,0.673326
-0.3061236,0.7169859,0.6814965
-0.3082796,0.7159978,0.6844157
-0.3087806,0.7167873,0.6855007
-0.3060985,0.7171604,0.6905998
-0.3021398,0.7159871,0.6882395
-0.2972199,0.7167166,0.6823213
-0.2947813,0.7149531,0.6786382
-0.2931838,0.7128812,0.6782367
-0.2927015,0.714434,0.6803725
-0.2978883,0.7147815,0.6808076
-0.3000552,0.715437,0.6819022
-0.2968779,0.7148184,0.6818002
-0.2969475,0.7111369,0.6795449
-0.2968372,0.7082216,0.6804757
-0.2933813,0.7083931,0.6801836
-0.2907627,0.7106878,0.6780942
-0.2906162,0.7094151,0.678519
-0.2897963,0.7072722,0.6777348
-0.2863869,0.7078053,0.6772781
-0.2870337,0.7099536,0.67777
-0.2896233,0.7139392,0.6748579
-0.2883731,0.7130711,0.6735996
-0.2893515,0.7118883,0.6780319
-0.2910494,0.7170039,0.6822562
-0.2919471,0.7190297,0.6809557
-0.2945528,0.7177925,0.6793744
-0.2958067,0.7170343,0.6813092
-0.2958693,0.7161168,0.6806165
-0.2924019,0.7154267,0.6797586
-0.2900304,0.7122823,0.6803542
-0.292813,0.7101043,0.6790419
-0.2928803,0.7113588,0.6816972
-0.2945377,0.7123047,0.6843679
-0.2972184,0.7134926,0.6813045
-0.2953101,0.7170039,0.6793261
-0.2956807,0.7200613,0.6792383
-0.296083,0.7162269,0.6793179
-0.2945301,0.7108525,0.6806443
-0.2944268,0.7129051,0.681166
-0.2944372,0.7160221,0.6801628
-0.2954878,0.7167764,0.6804146
-0.296494,0.7165019,0.6810141
-0.297715,0.7126625,0.6801558
-0.2998977,0.7099605,0.6806504
-0.2998899,0.7111055,0.6806032
-0.2998897,0.7118515,0.6789179
-0.302508,0.7126989,0.6778018
-0.3055249,0.7143656,0.6773865
-0.3076053,0.7140903,0.6796068
-0.3082292,0.7123138,0.6794223
-0.3070021,0.7113078,0.6755269
-0.3058524,0.7098844,0.6749852
-0.3054246,0.7082907,0.6769857
-0.305108,0.7084915,0.6802277
-0.3049867,0.70917,0.6815133
-0.3038147,0.7099789,0.6799576
-0.3038446,0.709622,0.6804927
-0.304553,0.7075154,0.6804118
-0.302704,0.7066566,0.6806962
-0.3016503,0.7071102,0.682203
-0.3014479,0.7085556,0.6808604
-0.3025394,0.7091029,0.6804159
-0.3061449,0.7090066,0.6793453
-0.3076046,0.7115736,0.6761658
-0.3074068,0.7121378,0.6763795
-0.3084405,0.7109557,0.6765846
-0.3106605,0.711951,0.6761313
-0.3121558,0.710357,0.6777409
-0.3131839,0.7086529,0.6776578
-0.3149589,0.7107823,0.6768592
-0.3145954,0.7125215,0.6761055
-0.3150792,0.7137088,0.6757997
-0.3162506,0.7119799,0.6780757
-0.3156614,0.7077116,0.6784732
-0.3180079,0.7080286,0.6779576
-0.3184094,0.7083002,0.6806697
-0.3155978,0.7079776,0.6816221
-0.3151209,0.7119139,0.678547
-0.3155298,0.7129392,0.6761123
-0.318194,0.7112397,0.6730062
-0.3189365,0.7102895,0.6690581
-0.3122366,0.7097665,0.6713443
-0.30702,0.7099718,0.6745727
-0.3129059,0.7051314,0.6747384
-0.3223747,0.7012889,0.6758316
-0.3280139,0.7056746,0.6743472
-0.3339749,0.7087636,0.6734846
-0.3244293,0.7084924,0.6723238
-0.3086254,0.711739,0.6688583
-0.3251329,0.7202481,0.6690861
-0.3409441,0.726766,0.6689546
-0.3294032,0.7216627,0.6705869
-0.323764,0.7117005,0.6720651
-0.3199129,0.7093764,0.6677922
-0.3165854,0.7090877,0.6683776
-0.3227207,0.7060671,0.6725269
-0.3207495,0.7052819,0.675874
-0.3192967,0.7039701,0.6778843
-0.3206213,0.7043909,0.6760682
-0.3161811,0.7068023,0.6791195
-0.3170735,0.7052375,0.6830279
-0.316585,0.7062194,0.6806227
-0.3152205,0.7076538,0.6765762
-0.3206622,0.7055257,0.6720541
-0.3236092,0.7061822,0.6729998
-0.3275708,0.7090648,0.6761577
-0.3312836,0.7118691,0.6765437
-0.3254908,0.709905,0.6829729
-0.3200527,0.7068386,0.6873019
-0.3237894,0.7097206,0.6798014
-0.3248555,0.7070265,0.6753519
-0.3134169,0.6921447,0.685217
-0.3047073,0.6793712,0.69391
-0.3117263,0.6878244,0.6859773
-0.3301897,0.707496,0.6757762
-0.3494801,0.7151949,0.6747153
-0.3498916,0.7161086,0.6751066
-0.3316597,0.7088104,0.6740605
-0.3229355,0.6983988,0.6731743
-0.331764,0.7047698,0.6764241
-0.3384336,0.7076237,0.6793712
-0.3355095,0.6999108,0.6774654
-0.3338511,0.6997833,0.6794585
-0.3332022,0.7010089,0.6812579
-0.3310365,0.7023741,0.6783787
-0.3348475,0.7024805,0.6769249
-0.3376227,0.6994629,0.6766776
-0.3343937,0.7002718,0.6778994
-0.3344957,0.7012742,0.6754576
-0.3353704,0.703633,0.6675639
-0.3361683,0.7069356,0.6665811
-0.3368156,0.7071066,0.673115
-0.3293694,0.7067871,0.6752338
-0.323131,0.7043554,0.6746576
-0.329198,0.7009869,0.6777192
-0.3370946,0.6991969,0.6788448
-0.3367916,0.7004403,0.6773999
-0.3367928,0.7044883,0.6738726
-0.338144,0.7070196,0.6703245
-0.3330542,0.7076681,0.6736735
-0.3307699,0.7060624,0.6746289
-0.3326881,0.7036047,0.672903
-0.3326857,0.7006308,0.6760489
-0.3319275,0.6978977,0.6768109
-0.3317575,0.7006649,0.6752367
-0.3405113,0.7057234,0.6721765
-0.3495543,0.7113889,0.6720598
-0.347325,0.7123817,0.6804085
-0.3421851,0.7009341,0.6833799
-0.3363346,0.69242,0.6808059
-0.3361291,0.6968169,0.6838438
-0.3403066,0.701914,0.6835761
-0.3381484,0.7014454,0.6775513
-0.3376804,0.7010759,0.6757503
-0.3381067,0.7019106,0.6770886
-0.3357713,0.7009338,0.6782868
-0.3346308,0.7016741,0.6780962
-0.33082,0.7025892,0.677075
-0.3309779,0.7030389,0.6782568
-0.3328091,0.7064235,0.6785356
-0.3273898,0.7091167,0.6808678
-0.3247739,0.7100277,0.6839665
-0.3239683,0.7068843,0.6778007
-0.321372,0.7031593,0.6716962
-0.3220912,0.7041607,0.6733897
-0.3225459,0.7033975,0.6742837
-0.3221013,0.7026451,0.6720831
-0.3223538,0.7048956,0.6709009
-0.3233278,0.7071116,0.670929
-0.3248653,0.70844,0.6714292
-0.3246596,0.7077983,0.6758428
-0.3218588,0.7063602,0.682095
-0.3169877,0.7032745,0.6866767
-0.3143363,0.7017326,0.6895132
-0.3136393,0.7033447,0.6856801
-0.3124747,0.7027339,0.6776675
-0.3149507,0.7037749,0.6747824
-0.3179332,0.7093565,0.6767676
-0.3163695,0.7137934,0.6785185
-0.3135372,0.7115953,0.6815078
-0.309516,0.7077139,0.6864405
-0.3034324,0.7101372,0.6868588
-0.3015579,0.7096709,0.6844533
-0.3043992,0.7041039,0.6846619
-0.30566,0.7037423,0.6846444
-0.3064464,0.7107831,0.682983
-0.3068863,0.7204229,0.6794509
-0.3039601,0.7181673,0.6752324
-0.3009792,0.7093352,0.6741227
-0.3009225,0.7101186,0.6741132
-0.3016447,0.7104621,0.6748351
-0.2998944,0.7105829,0.6772888
-0.2968118,0.7136129,0.6773977
-0.2952218,0.7104262,0.6798923
-0.2955224,0.7087086,0.6871869
-0.2951113,0.7100025,0.68768
-0.2893831,0.7087215,0.6805319
-0.2854123,0.708632,0.6762497
-0.2930985,0.7108482,0.6806614
-0.3014246,0.7126699,0.6903953
-0.2983963,0.7083048,0.6929395
-0.2933441,0.7033735,0.6826099
-0.2936457,0.705999,0.6722252
-0.2963544,0.7086029,0.676118
-0.3034571,0.7100711,0.6826882
-0.3080247,0.7129665,0.6802852
-0.3052242,0.7128229,0.6805667
-0.3068332,0.7116581,0.6802355
-0.3096862,0.7110326,0.6750232
-0.3083211,0.7093064,0.6737712
-0.3101007,0.7102365,0.6760972
-0.3128275,0.712043,0.6828166
-0.3119532,0.7097572,0.6838816
-0.3077418,0.705511,0.675744
-0.3041989,0.702097,0.6730225
-0.3063056,0.7046679,0.6770122
-0.3122294,0.7101972,0.6842373
-0.31892,0.709288,0.6860333
-0.3246841,0.7093972,0.6830239
-0.3273399,0.7129617,0.682036
-0.3256588,0.7141184,0.6775307
-0.3229515,0.7160569,0.6752738
-0.3228192,0.7155934,0.673917
-0.3233006,0.7143901,0.6739772
-0.3251152,0.7160486,0.6794469
-0.3294687,0.7139442,0.6770042
-0.332372,0.7084095,0.6732609
-0.3314675,0.699601,0.6736362
-0.3271566,0.6939635,0.677067
-0.3239442,0.6967609,0.685066
-0.3272309,0.6946422,0.6821673
-0.3330684,0.6911657,0.6780697
-0.3355908,0.6938233,0.6808882
-0.3346453,0.6941641,0.6769366
-0.3318403,0.6968966,0.673793
-0.331191,0.702986,0.673384
-0.3337752,0.7056436,0.67416
-0.3381132,0.7088795,0.6798235
-0.3432842,0.7097116,0.6824702
-0.342804,0.7068659,0.6788325
-0.3387075,0.7067421,0.6704932
-0.3361544,0.7029289,0.664922
-0.3306703,0.6988384,0.6633023
-0.3324577,0.7077234,0.6607753
-0.3431267,0.7188858,0.6659524
-0.3446219,0.719069,0.6742974
-0.3382459,0.7094466,0.6759036
-0.3299211,0.7006661,0.6746456
-0.3273722,0.7044666,0.6721827
-0.3344419,0.7080802,0.6719751
-0.3365985,0.7035696,0.6744352
-0.3359623,0.7025958,0.6745614
-0.3366988,0.7006884,0.6706485
-0.3365175,0.6983541,0.667816
-0.339067,0.7015816,0.6750118
-0.3385566,0.7026905,0.6831583
-0.3382464,0.704232,0.6802671
-0.3392708,0.7053905,0.678395
-0.3359856,0.7027939,0.682701
-0.3357743,0.7036262,0.6819154
-0.338531,0.703193,0.6775364
-0.3402651,0.7026567,0.6725834
-0.3403125,0.7054133,0.6666259
-0.3382021,0.7038806,0.6675349
-0.3370752,0.704052,0.670798
-0.337281,0.7067121,0.66944
-0.3374976,0.7068577,0.6699719
-0.3354341,0.7072613,0.6714702
-0.3330734,0.7055483,0.6713137
-0.3332023,0.7037179,0.6733065
-0.3333537,0.7019526,0.6757891
-0.3334253,0.7005315,0.6744501
-0.3334495,0.7034242,0.6725773
-0.3350601,0.7034896,0.6742992
-0.3399847,0.7014827,0.6764076
-0.3447338,0.7014807,0.6799808
-0.3449042,0.6996769,0.6834763
-0.3403213,0.7003411,0.680944
-0.3359192,0.7020697,0.6798634
-0.3341231,0.6993179,0.6830136
-0.3361619,0.697948,0.6828581
-0.3387145,0.7006448,0.6776145
-0.3362928,0.705023,0.6683068
-0.335345,0.7091484,0.662417
-0.3367155,0.7090167,0.6637947
-0.3358277,0.708206,0.6655056
-0.3357607,0.7122355,0.6693713
-0.3341382,0.7142894,0.6761274
-0.3307608,0.7088828,0.6750781
-0.3300132,0.7024193,0.6694261
-0.3299152,0.7022612,0.6707027
-0.3272094,0.7062192,0.6736623
-0.3237041,0.7072924,0.6741558
-0.3249414,0.7051547,0.6776855
-0.3277855,0.703421,0.681083
-0.3271509,0.7038047,0.6809718
-0.3253094,0.7038531,0.6809802
-0.3228116,0.7021063,0.6840104
-0.3228111,0.7030146,0.6869829
-0.3237271,0.7056388,0.6829327
-0.3214017,0.7082727,0.6766774
-0.3219788,0.7106173,0.6756429
-0.3228241,0.7079392,0.677333
-0.3204442,0.7056849,0.6811175
-0.3197771,0.7077948,0.6840256
-0.3181508,0.7084806,0.680537
-0.3163919,0.7085146,0.6743476
-0.3154006,0.7086806,0.671476
-0.3118403,0.7094919,0.6707696
-0.3094919,0.7107594,0.6715933
-0.3093909,0.7101238,0.6747993
-0.3100492,0.7110257,0.6755774
-0.3108002,0.7109073,0.6737521
-0.3106897,0.7086915,0.6707278
-0.3095028,0.7099404,0.6669494
-0.3066596,0.7101231,0.6694784
-0.3060186,0.7091266,0.6734425
-0.3057907,0.710166,0.6726949
-0.3032684,0.7099453,0.6762096
-0.3039693,0.7113553,0.6828909
-0.3048023,0.7133528,0.6847
-0.3038394,0.7118784,0.6848214
-0.3052224,0.7095778,0.6891228
-0.30595,0.7078943,0.6922921
-0.3047113,0.7088535,0.6855943
-0.3017978,0.710584,0.6791459
-0.2971366,0.709552,0.6834299
-0.2927479,0.7092329,0.6876308
-0.2872513,0.709398,0.686573
-0.2833928,0.7094599,0.6835968
-0.2855382,0.7145024,0.6770279
-0.289954,0.7222201,0.6736474
-0.2964285,0.7251756,0.6757922
-0.3027919,0.7235847,0.6758825
-0.3018274,0.7232988,0.6757735
-0.3000545,0.7262205,0.6742706
-0.3003553,0.7287588,0.670851
-0.2965701,0.729555,0.6714141
-0.2919386,0.7268514,0.6694122
-0.2878314,0.7162784,0.664917
-0.2875125,0.7069917,0.6670053
-0.2901491,0.712796,0.670682
-0.2851826,0.7192285,0.6730756
-0.2777439,0.708897,0.6763685
-0.2741083,0.7021686,0.6772241
-0.2761857,0.7098056,0.6778418
-0.2835709,0.7133301,0.6795263
-0.2839657,0.7136483,0.6759428
-0.2816413,0.7150046,0.6673241
-0.2827634,0.7144277,0.661746
-0.2834266,0.7172473,0.6643323
-0.2874413,0.7185674,0.6688918
-0.2886063,0.717831,0.6706828
-0.287562,0.7210244,0.6749549
-0.2896986,0.7223764,0.6760135
-0.2889528,0.7212126,0.6716253
-0.2900313,0.7212675,0.6707282
-0.2936461,0.7209926,0.6707702
-0.2951651,0.7203064,0.672575
-0.2960727,0.7195276,0.6755579
-0.2972622,0.7166461,0.6761878
-0.2999186,0.7140965,0.6788761
-0.3011211,0.7149749,0.6780738
-0.304,0.7140223,0.6766594
-0.3082103,0.7114538,0.6790405
-0.3070031,0.7124724,0.6778206
-0.3073653,0.7130278,0.6778069
-0.3092128,0.7120463,0.677684
-0.3079942,0.7126384,0.6753309
-0.3084693,0.7129897,0.6753643
-0.3099562,0.7142302,0.6752799
-0.3128312,0.7168969,0.6769604
-0.3165688,0.7165682,0.6762867
-0.3163515,0.7136071,0.672048
-0.3147174,0.7118064,0.6686465
-0.3151297,0.7124288,0.6658563
-0.3152855,0.7138796,0.6714129
-0.3132913,0.7134251,0.6793257
-0.311895,0.7111571,0.6834559
-0.3139262,0.7095535,0.6890588
-0.3198587,0.7122881,0.6868066
-0.3256714,0.7172154,0.6823291
-0.3233751,0.716706,0.684082
-0.3166627,0.7133337,0.6781344
-0.3144245,0.7122567,0.6699084
-0.3152852,0.7131557,0.6712896
-0.3174695,0.7155469,0.6744721
-0.3187226,0.7155934,0.6809869
-0.3177766,0.7144583,0.6891266
-0.31772,0.7138809,0.6833386
-0.3160287,0.711237,0.6751086
-0.3127521,0.7093641,0.676657
-0.3119536,0.7072853,0.6755765
-0.3123624,0.706198,0.675172
-0.3120477,0.7093978,0.67882
-0.3120539,0.7110366,0.6830612
-0.3153316,0.7144222,0.6877645
-0.3172978,0.7236652,0.6780725
-0.3110556,0.7267394,0.663557
-0.3006935,0.7154108,0.6656591
-0.2943517,0.703427,0.6687364
-0.2958485,0.7063306,0.6678296
-0.2965254,0.7112462,0.6755938
-0.290901,0.7098352,0.6816247
-0.2880745,0.7130859,0.6774039
-0.2869395,0.7160678,0.6755205
-0.2844716,0.7157669,0.6815306
-0.2847855,0.7140704,0.6850417
-0.2861898,0.7101626,0.6829955
-0.2890447,0.7151225,0.6818811
-0.2916737,0.7211124,0.682126
-0.2914309,0.7182192,0.6817708
-0.2909676,0.7187159,0.6817665
-0.2903183,0.7186936,0.6808399
-0.2919579,0.7156697,0.6783327
-0.2953344,0.7188487,0.6772005
-0.2960493,0.7223879,0.6778122
-0.2955037,0.7224086,0.6779792
-0.2928966,0.7218861,0.677645
-0.2895576,0.7201456,0.6775745
-0.2882377,0.7180577,0.6766432
-0.2844523,0.7183217,0.674586
-0.2803483,0.7222151,0.6747662
-0.2816108,0.7265511,0.6769875
-0.2822071,0.7268119,0.6770012
-0.2776272,0.723962,0.6768727
-0.2739422,0.7215905,0.6791615
-0.2730067,0.7191825,0.6799025
-0.2719358,0.7156668,0.6796251
-0.2726911,0.7125882,0.6809637
-0.2764581,0.7125936,0.6804202
-0.2805324,0.721842,0.6774395
-0.2813022,0.7344113,0.6730768
-0.27915,0.7327782,0.6691959
-0.2788156,0.7241081,0.6721757
-0.2794398,0.7230581,0.6799356
-0.2793792,0.724154,0.6846457
-0.2809949,0.7273776,0.682265
-0.2816316,0.7314485,0.676574
-0.2763622,0.7293421,0.6759702
-0.2663473,0.7258858,0.6743761
-0.2593906,0.7213945,0.6705819
-0.2590389,0.7167648,0.6737907
-0.2600204,0.7168603,0.6765207
-0.2599645,0.7178462,0.6768464
-0.2604894,0.7207773,0.6778052
-0.2614005,0.7251063,0.675719
-0.2618458,0.724577,0.6759388
-0.263468,0.7242384,0.676184
-0.2662534,0.7274818,0.6741214
-0.2660319,0.726881,0.6751699
-0.2662241,0.7249178,0.6754481
-0.2691197,0.7253953,0.6755199
-0.2691839,0.7235246,0.676936
-0.2717212,0.7255625,0.6763812
-0.2770069,0.7295487,0.6761636
-0.2753621,0.7261143,0.6760453
-0.2737202,0.7237567,0.6736452
-0.275744,0.7237484,0.6727986
-0.2741532,0.7230636,0.6791046
-0.2739592,0.7237357,0.6852204
-0.2770108,0.7215224,0.6790439
-0.2780226,0.7191723,0.6714855
-0.2781167,0.7191595,0.6736699
-0.2779363,0.7185302,0.6748241
-0.2791791,0.7184743,0.6744958
-0.2815221,0.720665,0.6772345
-0.2830734,0.7245145,0.6753875
-0.2864501,0.7256541,0.6721434
-0.2870657,0.7243974,0.6718818
-0.2850918,0.7236629,0.6707238
-0.2867345,0.7230299,0.6717381
-0.2882721,0.7239243,0.6744992
-0.292927,0.7238305,0.6749405
-0.2999284,0.7230819,0.6742199
-0.298214,0.723187,0.6724869
-0.2915711,0.7180956,0.670128
-0.2855982,0.709939,0.6702478
-0.2840203,0.704629,0.6728922
-0.2912194,0.7057114,0.6768064
-0.2987166,0.7173291,0.682125
-0.3023709,0.7289977,0.681749
-0.305306,0.7256988,0.6778875
-0.3055151,0.7165994,0.6809879
-0.3047065,0.7153689,0.6834011
-0.304027,0.7133864,0.6847209
-0.3013153,0.7118416,0.6869749
-0.3005986,0.7168713,0.6806995
-0.3022257,0.7155044,0.6728463
-0.3022962,0.7120806,0.6705952
-0.3038624,0.7136203,0.6765179
-0.3060408,0.7145567,0.6848778
-0.3064688,0.7171287,0.6811867
-0.308211,0.7144958,0.6757541
-0.3089562,0.7095027,0.6741923
-0.3088978,0.711424,0.6721501
-0.3103426,0.7118261,0.6743993
-0.3112153,0.7120001,0.6744332
-0.314159,0.7125512,0.6753485
-0.3182104,0.7078733,0.6795389
-0.3186136,0.7058734,0.6770868
-0.3177489,0.7091493,0.674366
-0.3180332,0.7107761,0.6736154
-0.3183956,0.7105402,0.6729798
-0.3191807,0.7119007,0.6750351
-0.3215176,0.7122889,0.6739086
-0.3229553,0.7100131,0.6712419
-0.3221157,0.7082385,0.6703927
-0.32199,0.7065795,0.6697763
-0.3224512,0.7063052,0.6701746
-0.3232138,0.7076253,0.6686831
-0.3275317,0.7067731,0.6658338
-0.3312139,0.7069871,0.6646177
-0.3257778,0.7092125,0.6662412
-0.3198718,0.7095749,0.6711673
-0.3250975,0.7081961,0.6748264
-0.3295471,0.7056508,0.6742903
-0.3265497,0.7032375,0.6723145
-0.3249525,0.6991311,0.6720041
-0.3235309,0.696888,0.6712186
-0.3248614,0.7060411,0.6716267
-0.332479,0.7157241,0.674668
-0.3360581,0.7139553,0.6719245
-0.3324195,0.7092856,0.6703484
-0.3271243,0.7076188,0.6770372
-0.3263609,0.7079376,0.6812079
-0.3321162,0.7078899,0.6821892
-0.3364342,0.7055845,0.6821121
-0.3346403,0.7019089,0.6775917
-0.3309679,0.6972804,0.6715997
-0.3302039,0.6967741,0.672394
-0.3307825,0.7032062,0.6757032
-0.331305,0.7092126,0.6725561
-0.3325134,0.7105421,0.6731626
-0.3312799,0.7070328,0.6744279
-0.3281457,0.698571,0.6690666
-0.3228847,0.6934858,0.6665813
-0.3202082,0.701424,0.6643729
-0.3295235,0.713664,0.6652755
-0.3411278,0.7159971,0.6712113
-0.3435926,0.7154133,0.6789854
-0.339936,0.7147536,0.6873428
-0.3347871,0.7072549,0.6801327
-0.3311772,0.7052406,0.6710401
-0.332634,0.70785,0.6761732
-0.3352967,0.7043958,0.6768268
-0.3282639,0.7027624,0.6789938
-0.3210258,0.7026322,0.6860214
-0.3242039,0.7029132,0.6825163
-0.3261646,0.7052688,0.6765366
-0.3258181,0.7064666,0.6751656
-0.3241353,0.7076896,0.6777162
-0.3168686,0.7067447,0.6824654
-0.3121086,0.7069061,0.6813123
-0.3137206,0.7093944,0.6809006
-0.3163218,0.7097151,0.6849898
-0.3154906,0.7101434,0.6833657
-0.3145068,0.7094734,0.6819606
-0.3158762,0.709698,0.682081
-0.3151665,0.7111415,0.6767833
-0.3146172,0.7106729,0.6752633
-0.3137715,0.7102389,0.6775423
-0.310703,0.7075378,0.6783376
-0.3111001,0.7062228,0.6794399
-0.3133264,0.7084807,0.6787672
-0.3134679,0.7091992,0.6791634
-0.3104252,0.7093417,0.6805494
-0.3057883,0.7093344,0.6822915
-0.3054801,0.7113968,0.6849882
-0.3056335,0.7136929,0.682556
-0.3022714,0.7121716,0.6806953
-0.3007572,0.7122069,0.682158
-0.3013014,0.7129584,0.6843554
-0.3012473,0.7127115,0.6910704
-0.2989033,0.7156366,0.6914417
-0.2940962,0.7189882,0.6863712
-0.2910797,0.7178436,0.6852274
-0.2918492,0.7131607,0.6790169
-0.2947534,0.7112895,0.6732018
-0.2958675,0.7134648,0.6733746
-0.2923524,0.715728,0.6728585
-0.2890428,0.7189032,0.6713796
-0.2908784,0.7203848,0.6696387
-0.2925046,0.7180857,0.6752024
-0.2885287,0.7175867,0.6821833
-0.2835753,0.7169829,0.6790811
-0.2815294,0.7107501,0.6782626
-0.2841768,0.7060186,0.6820239
-0.2888094,0.7140286,0.6811179
-0.2873429,0.7281705,0.6761403
-0.2848333,0.730753,0.6702431
-0.2850211,0.7231103,0.6702659
-0.2840991,0.7167016,0.6755361
-0.2850465,0.7136927,0.6772436
-0.2851212,0.7137264,0.6763305
-0.2850319,0.7147253,0.6762427
-0.286614,0.7173124,0.6763599
-0.2839524,0.7207382,0.6762121
-0.281607,0.7196962,0.6744617
-0.28317,0.718485,0.6730365
-0.2881082,0.7188904,0.6735849
-0.2937851,0.716838,0.6732601
-0.2918839,0.7164035,0.6708745
-0.2880839,0.7190051,0.6687277
-0.2874287,0.7208509,0.6701034
-0.2857503,0.7211528,0.6713794
-0.2885809,0.7207156,0.6687368
-0.2957897,0.7205502,0.6673276
-0.2994009,0.7199297,0.6689004
-0.299153,0.7180076,0.6717903
-0.2987498,0.7167547,0.6740347
-0.3022009,0.7166043,0.6713513
-0.3049791,0.7160143,0.6680709
-0.3001736,0.7141114,0.6703332
-0.2951242,0.7116723,0.6719203
-0.2957598,0.7124298,0.6709328
-0.2983953,0.715058,0.6743919
-0.3008659,0.7154107,0.677875
-0.3025064,0.7157432,0.6763707
-0.3042663,0.7170604,0.675821
-0.3069505,0.7183945,0.6767916
-0.3079467,0.7181957,0.6756485
-0.3073384,0.7156779,0.6726148
-0.3084957,0.7149108,0.6699404
-0.309268,0.7153407,0.6703488
-0.309465,0.7146793,0.67229
-0.3119262,0.7127751,0.6743282
-0.3116975,0.7101031,0.6780894
-0.3118421,0.7113853,0.6787905
-0.3169955,0.7147178,0.6758188
-0.3182221,0.7162571,0.6763373
-0.3129801,0.716488,0.6764488
-0.3068096,0.7136355,0.6740317
-0.3058239,0.7090363,0.6733436
-0.309136,0.7033323,0.6723582
-0.3116386,0.7025817,0.6727069
-0.318541,0.7136363,0.6749951
-0.3247787,0.7241187,0.67692
-0.3214494,0.7236716,0.6770861
-0.3194696,0.7158085,0.6755165
-0.32252,0.7095622,0.6768522
-0.3231705,0.7102401,0.6775054
-0.3244285,0.708636,0.6764195
-0.327483,0.7055912,0.6766703
-0.3268753,0.7091195,0.6749559
-0.3264715,0.7108455,0.6750029
-0.3284324,0.7089735,0.6762098
-0.3267503,0.7086976,0.676207
-0.3247091,0.7073671,0.6765701
-0.3254859,0.7065208,0.6738294
-0.3266455,0.7080731,0.6712756
-0.3283769,0.7085068,0.6708259
-0.3280783,0.7073539,0.6722775
-0.3277158,0.7069723,0.6747879
-0.3312004,0.7086773,0.6735898
