accx,accy,accz
-0.1318443,-0.3737667,-0.9477808
-0.1310987,-0.3682618,-0.9412645
-0.1352929,-0.3689416,-0.9373672
-0.141111,-0.3685527,-0.93434
-0.1372207,-0.3664521,-0.9300812
-0.1341835,-0.3697648,-0.9292363
-0.1372848,-0.3726081,-0.9236893
-0.1373515,-0.375491,-0.9268463
-0.1390807,-0.3810689,-0.9430799
-0.1414303,-0.3824799,-0.9527147
-0.1396459,-0.3813168,-0.9523526
-0.1382114,-0.3812286,-0.943114
-0.1373217,-0.3812607,-0.9318913
-0.1376286,-0.3856224,-0.9193554
-0.1409371,-0.3943774,-0.9040629
-0.1441965,-0.4007017,-0.9007536
-0.1451012,-0.4058184,-0.9047074
-0.1443178,-0.412887,-0.9109514
-0.1432744,-0.4155264,-0.920023
-0.1402894,-0.4134269,-0.92499
-0.1360299,-0.4135654,-0.9308199
-0.1368411,-0.4139722,-0.9289879
-0.1398481,-0.4117152,-0.9163865
-0.1432175,-0.4096308,-0.9049009
-0.1526901,-0.4095664,-0.8959773
-0.1560354,-0.410803,-0.8979713
-0.1471636,-0.411412,-0.9079714
-0.1421185,-0.4114489,-0.9147786
-0.1429934,-0.4127934,-0.9167007
-0.1441575,-0.4150434,-0.9138287
-0.1445153,-0.4167889,-0.914454
-0.1422419,-0.4178636,-0.9151857
-0.1404462,-0.4159626,-0.9151283
-0.140618,-0.4125013,-0.9190247
-0.1415085,-0.4129151,-0.913648
-0.142121,-0.4113097,-0.9071075
-0.1432998,-0.4068294,-0.9085269
-0.1456037,-0.4100063,-0.9066077
-0.1458857,-0.4143143,-0.9068774
-0.1459102,-0.4146762,-0.9107325
-0.1456343,-0.4174391,-0.9132478
-0.1436519,-0.4168096,-0.913995
-0.1428932,-0.4134729,-0.9087339
-0.1432406,-0.4149751,-0.9035342
-0.1459766,-0.4171865,-0.903557
-0.1482108,-0.4171752,-0.9046203
-0.146903,-0.4162368,-0.9042191
-0.1459709,-0.416544,-0.9038082
-0.1444397,-0.4171618,-0.9048626
-0.1426042,-0.4162092,-0.9058426
-0.1430381,-0.4164423,-0.9073466
-0.1451394,-0.4151065,-0.9074455
-0.146871,-0.4129253,-0.9062525
-0.1470885,-0.4140525,-0.9081861
-0.1476116,-0.4144954,-0.9115212
-0.1471335,-0.4153823,-0.9146798
-0.1467182,-0.4173974,-0.9139464
-0.1468236,-0.4168045,-0.9109455
-0.1453891,-0.4162636,-0.9127275
-0.1466519,-0.4168874,-0.911674
-0.1479635,-0.4165371,-0.9072153
-0.1468365,-0.4157706,-0.9074138
-0.1469431,-0.4160389,-0.9102598
-0.1455209,-0.4168249,-0.9137835
-0.1437528,-0.4168693,-0.9129468
-0.1449185,-0.4165097,-0.9102888
-0.1475914,-0.4171547,-0.9117164
-0.1501972,-0.4195185,-0.9107945
-0.1503158,-0.4215096,-0.9098155
-0.1485985,-0.421168,-0.9101332
-0.1474272,-0.4203223,-0.9090252
-0.1470407,-0.4209741,-0.9101641
-0.1471631,-0.4216222,-0.9096113
-0.1476959,-0.4225961,-0.9085333
-0.1484501,-0.4235531,-0.9093613
-0.1481375,-0.4210815,-0.9082278
-0.146957,-0.4205877,-0.9059605
-0.1474544,-0.4231617,-0.9012383
-0.1479775,-0.4235618,-0.8987622
-0.146561,-0.4255329,-0.9012986
-0.14717,-0.4257306,-0.9028956
-0.1481899,-0.4237145,-0.9062551
-0.1483451,-0.4249592,-0.909505
-0.1508475,-0.4240973,-0.90708
-0.1500321,-0.4236941,-0.9054006
-0.1473061,-0.4240119,-0.9058208
-0.147403,-0.4209143,-0.9001359
-0.1469636,-0.4202969,-0.8957155
-0.148464,-0.4189726,-0.9032615
-0.1498781,-0.4163291,-0.9098998
-0.1489441,-0.4168164,-0.9085185
-0.148367,-0.4176471,-0.9078125
-0.1462349,-0.4195328,-0.9090816
-0.1446076,-0.4207278,-0.9111423
-0.1443213,-0.4207908,-0.9120143
-0.145195,-0.4208057,-0.9075704
-0.1465556,-0.4187,-0.9020038
-0.1455372,-0.4174687,-0.9035902
-0.1455561,-0.4170738,-0.9057891
-0.1456143,-0.4163382,-0.903961
-0.1456042,-0.4157685,-0.9086572
-0.1479147,-0.4149409,-0.9132421
-0.1475607,-0.415137,-0.9108778
-0.1464392,-0.414485,-0.9115728
-0.1465108,-0.4133079,-0.9134057
-0.1446462,-0.413726,-0.9136612
-0.1438917,-0.4155476,-0.9161094
-0.144729,-0.4173945,-0.9192215
-0.1441074,-0.4160362,-0.9197242
-0.1424918,-0.4147744,-0.9161094
-0.1412745,-0.4150094,-0.9098556
-0.1421096,-0.412761,-0.9053406
-0.1457909,-0.4108799,-0.908739
-0.1490992,-0.4096338,-0.9143636
-0.1486021,-0.4090377,-0.9140214
-0.1454807,-0.4111405,-0.9135782
-0.1436426,-0.4106801,-0.9132423
-0.144218,-0.4100421,-0.9123982
-0.1439013,-0.4126566,-0.9159344
-0.1425606,-0.4115498,-0.919708
-0.1429482,-0.4060186,-0.9187208
-0.143563,-0.4028044,-0.9138154
-0.1439135,-0.4108117,-0.9116294
-0.1457818,-0.4210037,-0.9131591
-0.1472601,-0.4169238,-0.912468
-0.1472284,-0.4142763,-0.9131357
-0.1473005,-0.4186444,-0.9134132
-0.1471946,-0.4161631,-0.9065785
-0.1471386,-0.4159246,-0.8986774
-0.1477242,-0.4187485,-0.896961
-0.148893,-0.4202344,-0.9001144
-0.1505693,-0.4243333,-0.9025033
-0.1499304,-0.4200276,-0.9044378
-0.1473136,-0.4136181,-0.9059781
-0.1452124,-0.4172319,-0.906902
-0.1437091,-0.4172687,-0.9118302
-0.1442186,-0.413714,-0.912497
-0.144043,-0.4148716,-0.9098063
-0.1430424,-0.4183218,-0.9137342
-0.1466772,-0.4229409,-0.9146334
-0.1498775,-0.4221981,-0.9128937
-0.1477486,-0.4183745,-0.9122656
-0.1463407,-0.4194617,-0.9080502
-0.147521,-0.4189,-0.9059164
-0.1474483,-0.4161386,-0.9053714
-0.1470234,-0.4128983,-0.9046419
-0.1483405,-0.4073742,-0.9034348
-0.1489119,-0.408814,-0.900918
-0.1486878,-0.4155175,-0.9046702
-0.1495382,-0.4185205,-0.9089068
-0.1477315,-0.4202552,-0.9079555
-0.1372792,-0.4198702,-0.912544
-0.1247597,-0.4195672,-0.9191908
-0.1259302,-0.4217175,-0.9172413
-0.1318936,-0.4208154,-0.9155415
-0.1301618,-0.4201399,-0.920383
-0.1333863,-0.4194502,-0.921739
-0.1378432,-0.4134736,-0.9181927
-0.1367758,-0.4095577,-0.910015
-0.1379718,-0.4117996,-0.8989642
-0.1350484,-0.4141461,-0.9008122
-0.1307961,-0.4148711,-0.910277
-0.131123,-0.4170532,-0.9126194
-0.1325109,-0.4172702,-0.9099185
-0.1356265,-0.4133369,-0.8989975
-0.1316817,-0.4105707,-0.8923082
-0.1239921,-0.4070371,-0.9098015
-0.1202969,-0.4031966,-0.9284849
-0.1167468,-0.400329,-0.926249
-0.1196007,-0.393968,-0.9265375
-0.1225636,-0.3905366,-0.9371513
-0.1192696,-0.3907225,-0.9378432
-0.1172783,-0.3913719,-0.9323335
-0.1149305,-0.3936776,-0.9232764
-0.1165623,-0.3901434,-0.9130806
-0.1215135,-0.3854524,-0.9167814
-0.1210632,-0.3864261,-0.9182125
-0.1197391,-0.3889709,-0.9147125
-0.117597,-0.3948354,-0.922751
-0.1145001,-0.3991176,-0.9259262
-0.1176039,-0.396384,-0.9223966
-0.1211568,-0.3919443,-0.923686
-0.1192153,-0.3896031,-0.9240091
-0.1187973,-0.3912497,-0.9232841
-0.1201333,-0.395243,-0.923672
-0.1196961,-0.3962641,-0.9237423
-0.1219799,-0.3931439,-0.9222131
-0.1247874,-0.3887989,-0.9173921
-0.1236085,-0.3876228,-0.9120904
-0.1233012,-0.39363,-0.913124
-0.1248838,-0.3998043,-0.916418
-0.1255527,-0.3974751,-0.914931
-0.1267587,-0.3958058,-0.9159417
-0.1277537,-0.3982532,-0.9185822
-0.1249661,-0.3963896,-0.9206319
-0.1206124,-0.3931103,-0.9260735
-0.1201417,-0.3916058,-0.9258304
-0.1213414,-0.3926231,-0.9222017
-0.1208936,-0.3958205,-0.9214229
-0.1215848,-0.3949073,-0.9187012
-0.1227079,-0.3952635,-0.9197452
-0.1221772,-0.3987098,-0.9225477
-0.1224131,-0.3968739,-0.9220116
-0.1241623,-0.3954983,-0.9240155
-0.1258488,-0.3954666,-0.9239784
-0.1269721,-0.393552,-0.9209138
-0.1277829,-0.3949979,-0.9207496
-0.12709,-0.3965709,-0.9203633
-0.124533,-0.3972464,-0.9190286
-0.1228292,-0.3983838,-0.9175793
-0.1225737,-0.3993199,-0.9167951
-0.1245058,-0.4023368,-0.9177413
-0.1274372,-0.4020155,-0.9176628
-0.1257504,-0.400638,-0.9187541
-0.1241953,-0.403333,-0.9203032
-0.1273618,-0.4020245,-0.9191221
-0.128577,-0.3989232,-0.9175095
-0.1282822,-0.3998392,-0.9112051
-0.1285712,-0.4008107,-0.9039744
-0.1275669,-0.4016153,-0.9072137
-0.1271948,-0.4031801,-0.9127034
-0.1262417,-0.403576,-0.9142751
-0.1243638,-0.404227,-0.9184545
-0.1251023,-0.4071066,-0.9233894
-0.1272732,-0.4077259,-0.926534
-0.1280907,-0.4065581,-0.9226774
-0.1278831,-0.4086621,-0.9128225
-0.1276411,-0.4086561,-0.911797
-0.1279289,-0.4061872,-0.9118023
-0.1286321,-0.4072677,-0.9091705
-0.1282545,-0.4101969,-0.9159954
-0.126717,-0.4132137,-0.9173783
-0.1260898,-0.4156731,-0.9129945
-0.1273393,-0.4164043,-0.9150425
-0.1282978,-0.4134739,-0.9130926
-0.1279744,-0.408983,-0.9112069
-0.1294521,-0.408176,-0.9134067
-0.1313077,-0.4071401,-0.9120735
-0.1305976,-0.4060613,-0.9113544
-0.1300399,-0.4085591,-0.9116427
-0.1298838,-0.4083266,-0.9124148
-0.128895,-0.4060279,-0.9146285
-0.1291086,-0.4054698,-0.9131607
-0.1305661,-0.4051155,-0.911939
-0.1314131,-0.4064383,-0.9147083
-0.1311461,-0.4081411,-0.9156979
-0.1295087,-0.4093936,-0.9143221
-0.1286781,-0.4095784,-0.9134721
-0.1303554,-0.4084637,-0.9141954
-0.1309441,-0.4102336,-0.9159738
-0.1303457,-0.4107751,-0.9174994
-0.1302822,-0.4088492,-0.9196081
-0.1287392,-0.4080476,-0.9210154
-0.1272256,-0.4063809,-0.9188261
-0.1276137,-0.4070746,-0.9140988
-0.1273938,-0.4094334,-0.9110907
-0.1240944,-0.4107288,-0.9109278
-0.1216958,-0.4112575,-0.9110291
-0.1256126,-0.408146,-0.9115942
-0.129541,-0.405964,-0.9134656
-0.1277859,-0.4070123,-0.9172744
-0.1271103,-0.4072008,-0.9211075
-0.1295262,-0.4070097,-0.9207957
-0.1302342,-0.4077268,-0.9182712
-0.1305743,-0.4086136,-0.9142608
-0.1307542,-0.4074559,-0.9089863
-0.1290799,-0.4069253,-0.9065438
-0.1281431,-0.4098135,-0.9068003
-0.1277434,-0.4112587,-0.9081288
-0.1284347,-0.4077589,-0.9086306
-0.129678,-0.4039154,-0.9088879
-0.1280952,-0.4053886,-0.9119948
-0.1274837,-0.4065512,-0.9151077
-0.1288946,-0.4047553,-0.9155617
-0.1293722,-0.4057312,-0.9162238
-0.1294815,-0.4060853,-0.9175617
-0.1296499,-0.4059079,-0.9171743
-0.1302099,-0.4076297,-0.919318
-0.1299942,-0.4069283,-0.9226622
-0.1302938,-0.4065844,-0.9197937
-0.1310073,-0.4073448,-0.9171134
-0.129107,-0.4067002,-0.9151566
-0.1279165,-0.4069862,-0.9122221
-0.1277902,-0.4070543,-0.914477
-0.1274605,-0.4069507,-0.9154532
-0.1281116,-0.4079905,-0.917912
-0.1276639,-0.4085227,-0.9229167
-0.1272755,-0.408443,-0.918301
-0.1262809,-0.4081841,-0.9131469
-0.1241844,-0.4081723,-0.911805
-0.1250944,-0.4073787,-0.9097629
-0.1263537,-0.40562,-0.9116571
-0.1262862,-0.4059921,-0.9126373
-0.126797,-0.4092294,-0.9155554
-0.1271547,-0.4116858,-0.9216412
-0.1278178,-0.40848,-0.91898
-0.1271597,-0.4034831,-0.9162374
-0.1257407,-0.4037629,-0.9192906
-0.1266472,-0.4047031,-0.9189139
-0.1275493,-0.4039863,-0.9191406
-0.127745,-0.4051836,-0.9202122
-0.1276904,-0.4058943,-0.9190198
-0.1257947,-0.4054937,-0.9204721
-0.1244354,-0.4058838,-0.920313
-0.1249673,-0.4073246,-0.9151386
-0.1252112,-0.4085922,-0.9113677
-0.125087,-0.4066986,-0.9136179
-0.1258282,-0.4047735,-0.9168357
-0.1269571,-0.4065065,-0.914101
-0.127328,-0.4072598,-0.9128117
-0.1285212,-0.4049099,-0.9156926
-0.131662,-0.4035052,-0.9183384
-0.134152,-0.4041872,-0.9238288
-0.133803,-0.4058472,-0.9248055
-0.1326592,-0.4111319,-0.9204834
-0.1333442,-0.4167493,-0.9209012
-0.1325803,-0.4126721,-0.9218613
-0.1302871,-0.4068485,-0.9216927
-0.1303199,-0.4099854,-0.9195023
-0.129406,-0.41038,-0.9139968
-0.1269472,-0.4078947,-0.9146144
-0.1263048,-0.4095934,-0.9223682
-0.1285167,-0.4067093,-0.9275187
-0.132788,-0.4053797,-0.9207318
-0.1341769,-0.4085294,-0.9110616
-0.1327507,-0.4059986,-0.9139358
-0.1312716,-0.4047149,-0.9174529
-0.1291985,-0.4045713,-0.916688
-0.1285336,-0.4030983,-0.9191022
-0.1285056,-0.4049674,-0.9180286
-0.1269981,-0.4041057,-0.9171439
-0.124872,-0.4035957,-0.9180664
-0.1230658,-0.4049508,-0.9158074
-0.1232184,-0.4039438,-0.9168089
-0.1241097,-0.406107,-0.9181287
-0.1234903,-0.4077444,-0.9176822
-0.123375,-0.4066832,-0.9184044
-0.1248311,-0.4069859,-0.9168628
-0.1278986,-0.4068905,-0.9163141
-0.1320431,-0.4066647,-0.9172744
-0.1322049,-0.4051452,-0.9182445
-0.1305725,-0.4035138,-0.9198111
-0.1303889,-0.4041529,-0.9172433
-0.1259487,-0.4043774,-0.9129876
-0.1235271,-0.4040815,-0.9116509
-0.1272685,-0.4042754,-0.9119328
-0.1293169,-0.4053402,-0.912987
-0.1312472,-0.4068817,-0.9140642
-0.1318818,-0.4083017,-0.9146693
-0.1298982,-0.4095522,-0.9153528
-0.1282104,-0.4096893,-0.9169571
-0.1254959,-0.408732,-0.9159858
-0.1268353,-0.4070514,-0.9124467
-0.1287605,-0.4065616,-0.9123771
-0.1253059,-0.4071781,-0.9135796
-0.1243945,-0.4072322,-0.9143291
-0.1250991,-0.4087035,-0.9160199
-0.1239739,-0.4103395,-0.9168068
-0.1241966,-0.4094934,-0.9170345
-0.1269329,-0.4072418,-0.9160593
-0.1305255,-0.4047625,-0.914731
-0.1293894,-0.4035076,-0.9143018
-0.1272143,-0.40398,-0.9159506
-0.1282423,-0.4036378,-0.9194479
-0.1275887,-0.4027443,-0.918314
-0.127937,-0.4053792,-0.9166541
-0.1299998,-0.40817,-0.9171626
-0.1308653,-0.4068974,-0.9144389
-0.1318607,-0.4064542,-0.9149641
-0.1318684,-0.4071789,-0.9171477
-0.1321839,-0.4057614,-0.916751
-0.1330027,-0.4042698,-0.9196367
-0.1332754,-0.4043241,-0.9220693
-0.133375,-0.4059442,-0.9227635
-0.1312515,-0.4075958,-0.9250367
-0.1299649,-0.4070905,-0.9263938
-0.1304921,-0.4065143,-0.9258126
-0.1296828,-0.4079267,-0.9220247
-0.1287624,-0.4105423,-0.9161804
-0.128075,-0.413374,-0.9132765
-0.128635,-0.4129846,-0.9127188
-0.1321263,-0.4106499,-0.909944
-0.1357129,-0.4112243,-0.9084652
-0.133493,-0.4109431,-0.9110905
-0.1292178,-0.4089104,-0.9124232
-0.1307097,-0.408026,-0.9140942
-0.131137,-0.4073775,-0.9150992
-0.1297596,-0.4084355,-0.9137375
-0.1307795,-0.4084619,-0.9160274
-0.1289704,-0.4062211,-0.9167471
-0.1284191,-0.4057782,-0.9159196
-0.1299108,-0.4054474,-0.9175442
-0.1292172,-0.4042919,-0.9164448
-0.1308595,-0.4031063,-0.9173248
-0.1331132,-0.402748,-0.9184284
-0.1329946,-0.4050096,-0.9148285
-0.1317494,-0.4079709,-0.9141251
-0.1299268,-0.4090006,-0.9185152
-0.1298766,-0.4076334,-0.9243189
-0.129356,-0.4054406,-0.9243589
-0.1269354,-0.4036425,-0.9206099
-0.1274458,-0.40402,-0.9208543
-0.1287215,-0.4065994,-0.9202304
-0.1279719,-0.4072778,-0.9180076
-0.1285719,-0.4068987,-0.915
-0.1279663,-0.4069878,-0.9096301
-0.127004,-0.4067915,-0.9071976
-0.1282247,-0.4071204,-0.9121482
-0.1265919,-0.4068731,-0.9182166
-0.124883,-0.4068594,-0.9102756
-0.1258477,-0.4067827,-0.9017204
-0.1282735,-0.4049544,-0.9102203
-0.1318807,-0.403739,-0.914519
-0.1306279,-0.403963,-0.9113593
-0.127707,-0.4048214,-0.9128893
-0.1279655,-0.4059127,-0.9125669
-0.1272935,-0.4072685,-0.912044
-0.1265677,-0.407454,-0.9119377
-0.1246238,-0.4061714,-0.9110824
-0.1227115,-0.4062328,-0.9142371
-0.1253395,-0.4057318,-0.9183735
-0.1283956,-0.4060458,-0.9205609
-0.1305521,-0.4087032,-0.9203465
-0.1312704,-0.4084921,-0.9167774
-0.129838,-0.4074998,-0.911465
-0.1295664,-0.4059756,-0.9104684
-0.1282691,-0.4032634,-0.9155698
-0.1270234,-0.4055829,-0.9192614
-0.1281504,-0.4093477,-0.9209561
-0.1279892,-0.4082583,-0.9224462
-0.1282416,-0.4047861,-0.919802
-0.1288193,-0.4045557,-0.9140688
-0.12744,-0.4066235,-0.9113608
-0.1274961,-0.4055053,-0.9145043
-0.1281657,-0.4059096,-0.9177281
-0.1274107,-0.4079864,-0.918565
-0.126665,-0.4065532,-0.92072
-0.1253765,-0.4065763,-0.9215
-0.1246633,-0.4067022,-0.9204176
-0.1263975,-0.4055371,-0.9210327
-0.1285963,-0.4062981,-0.9219374
-0.12959,-0.4047018,-0.9222685
-0.1291434,-0.4032788,-0.9213668
-0.1279446,-0.404965,-0.9159739
-0.1274842,-0.406158,-0.90902
-0.126867,-0.40849,-0.9085505
-0.1262794,-0.4104947,-0.9130108
-0.1272708,-0.4092569,-0.9152062
-0.1281473,-0.4071059,-0.9168943
-0.127472,-0.4062967,-0.9186079
-0.1257904,-0.4071896,-0.9173841
-0.1245591,-0.4068074,-0.9171613
-0.1243079,-0.4045901,-0.9169179
-0.1225888,-0.402993,-0.915531
-0.1204735,-0.4020986,-0.915492
-0.1232521,-0.4020027,-0.9132965
-0.1275049,-0.4013773,-0.9133831
-0.1267688,-0.4007309,-0.9162172
-0.1265962,-0.4009379,-0.9168138
-0.1286299,-0.3999892,-0.9196427
-0.1273134,-0.4014355,-0.9202037
-0.1254675,-0.4039155,-0.9182196
-0.1241677,-0.4025875,-0.9183864
-0.1239148,-0.4031223,-0.9167276
-0.1265432,-0.4068013,-0.9169686
-0.1272297,-0.4087943,-0.9173447
-0.1273548,-0.4068492,-0.9162782
-0.1281757,-0.4030215,-0.9198118
-0.1258411,-0.4016253,-0.9216259
-0.124763,-0.3987569,-0.919736
-0.125862,-0.3956656,-0.9181939
-0.1264179,-0.3977254,-0.9132764
-0.128295,-0.3986216,-0.9034107
-0.1283199,-0.3983889,-0.8989459
-0.1268174,-0.4005665,-0.9121748
-0.127279,-0.4026872,-0.9286996
-0.1262495,-0.4053456,-0.9283927
-0.1256536,-0.4064015,-0.9188466
-0.1263332,-0.4066186,-0.9119047
-0.1252941,-0.407705,-0.9114167
-0.1266273,-0.4065435,-0.9145686
-0.1279816,-0.4065598,-0.915097
-0.127322,-0.4068029,-0.9160794
-0.1282003,-0.4054538,-0.9177856
-0.1277146,-0.406807,-0.9168566
-0.1274743,-0.4071636,-0.9138476
-0.127694,-0.4068345,-0.9092094
-0.1247491,-0.4085784,-0.9099109
-0.1230728,-0.4097094,-0.9130736
-0.1243278,-0.4098966,-0.9102347
-0.126151,-0.4067202,-0.9111274
-0.1277551,-0.4045405,-0.9150149
-0.1291365,-0.4068531,-0.9146867
-0.128154,-0.4067411,-0.9141672
-0.125795,-0.4041655,-0.9120596
-0.1298584,-0.4017997,-0.9136067
-0.1337705,-0.4016281,-0.9176389
-0.1298712,-0.402855,-0.916878
-0.1262579,-0.4025972,-0.9182069
-0.1244071,-0.4039532,-0.9172027
-0.1245838,-0.40492,-0.9155877
-0.1268998,-0.4055963,-0.9205584
-0.127175,-0.4077913,-0.9205836
-0.1279872,-0.4066245,-0.9160171
-0.1279627,-0.404903,-0.9130328
-0.1265199,-0.4049251,-0.9140176
-0.1270046,-0.4053942,-0.9178279
-0.126314,-0.4061163,-0.9162559
-0.1254269,-0.405215,-0.9150902
-0.1264555,-0.4056411,-0.9146231
-0.1267366,-0.407188,-0.9109531
-0.1263816,-0.4086015,-0.9110079
-0.1275302,-0.410235,-0.9122353
-0.1300699,-0.4079713,-0.9162368
-0.130708,-0.405696,-0.9215292
-0.1285525,-0.4063459,-0.9189057
-0.1262138,-0.4052943,-0.9148737
-0.125934,-0.4042772,-0.9131321
-0.1267913,-0.4042643,-0.9115767
-0.1262752,-0.4039318,-0.9111415
-0.1265976,-0.4046441,-0.911648
-0.1284422,-0.4060166,-0.9161013
-0.1293003,-0.4075056,-0.9213632
-0.1285916,-0.4080158,-0.9221317
-0.1271324,-0.4077811,-0.9229405
-0.127729,-0.4090857,-0.925312
-0.127886,-0.4089281,-0.9229432
-0.1255257,-0.4055526,-0.9178345
-0.1246624,-0.4046897,-0.9146781
-0.1248763,-0.4072499,-0.9100578
-0.1254978,-0.4082223,-0.909658
-0.1268775,-0.4080328,-0.9143905
-0.1280551,-0.4074176,-0.9148814
-0.1282462,-0.4048447,-0.9172046
-0.1272743,-0.4043484,-0.9196682
-0.127869,-0.4060916,-0.9175933
-0.1273855,-0.40586,-0.9182296
-0.1237322,-0.4061518,-0.9162145
-0.1221848,-0.4075731,-0.9140931
-0.1253104,-0.4079234,-0.9155017
-0.1291382,-0.4081691,-0.912262
-0.1263435,-0.4073315,-0.9106124
-0.1231587,-0.4047213,-0.9136365
-0.1258042,-0.4043642,-0.9181139
-0.125219,-0.4087913,-0.9211147
-0.1244583,-0.4126477,-0.9195807
-0.1271346,-0.4114269,-0.9186736
-0.1289542,-0.4103697,-0.9162929
-0.1314812,-0.4125093,-0.9142932
-0.1309511,-0.41292,-0.9175926
-0.1296483,-0.4120994,-0.9187645
-0.1312217,-0.4129256,-0.9176683
-0.1304175,-0.4133501,-0.9163893
-0.1304437,-0.4138403,-0.9128579
-0.1318992,-0.413347,-0.909999
-0.132034,-0.4123243,-0.9102021
-0.1330871,-0.4154738,-0.9092797
-0.1331183,-0.419012,-0.9065539
-0.1315477,-0.4197149,-0.9109451
-0.1300672,-0.4187897,-0.9163948
-0.1301795,-0.4150729,-0.9136006
-0.1311485,-0.4125888,-0.9129696
-0.1302686,-0.4140328,-0.9148409
-0.1305937,-0.4140772,-0.9134698
-0.1318426,-0.4115697,-0.9137734
-0.1316535,-0.4108948,-0.9142667
-0.1313457,-0.4120116,-0.9135357
-0.1301343,-0.4128166,-0.9144108
-0.1303172,-0.4126885,-0.915716
-0.1310806,-0.4119619,-0.9170471
-0.1303202,-0.4123326,-0.9170604
-0.131559,-0.4134335,-0.9164961
-0.1323898,-0.4148096,-0.9186699
-0.1317414,-0.4144443,-0.9190722
-0.1320176,-0.4128934,-0.9139609
-0.1317278,-0.4143309,-0.909353
-0.1310645,-0.4142118,-0.9105621
-0.1303184,-0.413159,-0.912716
-0.1303579,-0.4145305,-0.9126062
-0.130882,-0.4136554,-0.9159739
-0.1303539,-0.4142101,-0.9181753
-0.1305548,-0.4170503,-0.9155975
-0.1305244,-0.4190994,-0.9158226
-0.1292967,-0.4218788,-0.9151546
-0.1281362,-0.4222892,-0.9127307
-0.1277139,-0.4204344,-0.9126396
-0.1297972,-0.4179213,-0.9120366
-0.1321956,-0.415022,-0.9119961
-0.1321907,-0.4134388,-0.9091824
-0.1317709,-0.4144433,-0.9060285
-0.1317671,-0.4172252,-0.91094
-0.1311346,-0.4169337,-0.9160057
-0.1303974,-0.4169243,-0.9155247
-0.1313375,-0.4182077,-0.9137873
-0.1323085,-0.4169311,-0.9126045
-0.1309798,-0.4183301,-0.9110934
-0.130081,-0.419583,-0.9088665
-0.1303114,-0.4190059,-0.9083072
-0.1288729,-0.4201323,-0.9100011
-0.1271096,-0.4195697,-0.9113257
-0.1276091,-0.418295,-0.9086463
-0.1284028,-0.4163161,-0.9062143
-0.1282299,-0.4157562,-0.9106558
-0.1283239,-0.417633,-0.9139854
-0.1267738,-0.4165442,-0.9114423
-0.124313,-0.4173612,-0.9106377
-0.1232564,-0.4198914,-0.913251
-0.1226518,-0.4187471,-0.9145866
-0.1262779,-0.4168426,-0.9137603
-0.1313589,-0.4145376,-0.9137116
-0.13023,-0.4147165,-0.9144405
-0.1297206,-0.4160246,-0.9159365
-0.1315288,-0.4138522,-0.9190057
-0.1301621,-0.4131949,-0.9188094
-0.1303094,-0.4128108,-0.9115248
-0.1311065,-0.4120445,-0.9032865
-0.130084,-0.4146081,-0.9027589
-0.1303706,-0.415358,-0.9055619
-0.1289053,-0.4148215,-0.9042792
-0.1269257,-0.4155414,-0.9035498
-0.1276832,-0.414626,-0.9059931
-0.127321,-0.4146774,-0.9096442
-0.1271396,-0.4148965,-0.9109162
-0.129805,-0.4127952,-0.9070219
-0.1314463,-0.4133497,-0.9060869
-0.130412,-0.415078,-0.9075827
-0.1302109,-0.4142996,-0.9055213
-0.1309455,-0.4153178,-0.9061242
-0.1300278,-0.416161,-0.9092854
-0.1286846,-0.4154506,-0.9113745
-0.1278196,-0.4172023,-0.9092592
-0.129121,-0.417016,-0.9049563
-0.1316399,-0.4159517,-0.9078547
-0.1305815,-0.4172306,-0.91148
-0.1299339,-0.4165034,-0.9120965
-0.1307951,-0.416988,-0.9118149
-0.1288788,-0.4197514,-0.9083044
-0.1289046,-0.4203824,-0.9096702
-0.1311958,-0.4168851,-0.9117838
-0.1310606,-0.4121052,-0.9106009
-0.1309919,-0.4143585,-0.9135289
-0.131993,-0.4166179,-0.9140493
-0.1299072,-0.412524,-0.9114394
-0.1249396,-0.411762,-0.9090895
-0.1215244,-0.4120122,-0.9081099
-0.1209232,-0.4105418,-0.9132629
-0.1242012,-0.4112425,-0.9168297
-0.1280138,-0.411362,-0.915649
-0.1261222,-0.4118804,-0.9167278
-0.1237251,-0.4129027,-0.9195105
-0.1243301,-0.4124792,-0.9187499
-0.1258759,-0.4125795,-0.9143992
-0.1285911,-0.4136117,-0.9135306
-0.1274076,-0.4150908,-0.915854
-0.1250915,-0.4156128,-0.9163052
-0.1269268,-0.4151691,-0.9125382
-0.1266116,-0.4154214,-0.907913
-0.1259863,-0.4162159,-0.9104142
-0.1281665,-0.4165837,-0.9127513
-0.1295989,-0.4149562,-0.911656
-0.1311282,-0.4131553,-0.9155492
-0.1301297,-0.4137937,-0.9179826
-0.1261735,-0.4139411,-0.9148597
-0.1234748,-0.4118372,-0.909332
-0.1230094,-0.4109061,-0.9038113
-0.1249954,-0.4128815,-0.9067415
-0.1254244,-0.4144666,-0.9150875
-0.1245567,-0.4130954,-0.9174161
-0.1256785,-0.4119572,-0.9141597
-0.1266718,-0.4135842,-0.9112157
-0.128214,-0.4142156,-0.9120328
-0.1282565,-0.4127529,-0.9125948
-0.1268878,-0.4126055,-0.9113955
-0.1272915,-0.4142601,-0.9172421
-0.1261602,-0.4159283,-0.9220863
-0.1257515,-0.4154792,-0.9129359
-0.1259395,-0.4147581,-0.9028885
-0.1236341,-0.4154476,-0.9039529
-0.1241356,-0.4140186,-0.9102339
-0.1259885,-0.4115895,-0.9148795
-0.1266624,-0.4107577,-0.9164304
-0.1282202,-0.4109071,-0.9165756
-0.1280912,-0.4114552,-0.9196334
-0.1273326,-0.4109775,-0.924471
-0.1279747,-0.4109683,-0.9225181
-0.1276771,-0.4113955,-0.9158288
-0.1265113,-0.4112239,-0.9101825
-0.1248362,-0.4129844,-0.9059968
-0.1217358,-0.4148753,-0.9062276
-0.1193222,-0.4157036,-0.9073306
-0.1205,-0.4173404,-0.9078126
-0.1240792,-0.4185855,-0.9115918
-0.1259104,-0.4187595,-0.9139542
-0.1249563,-0.417887,-0.9139866
-0.1246314,-0.4164326,-0.9159734
-0.1253044,-0.4148366,-0.9172301
-0.1249379,-0.413291,-0.9165642
-0.1248753,-0.4133176,-0.9166093
-0.1248168,-0.4125935,-0.9167086
-0.1231005,-0.4102772,-0.9166423
-0.1220468,-0.4110224,-0.9161856
-0.1238584,-0.4126914,-0.9138933
-0.1258733,-0.4124679,-0.9115977
-0.1247185,-0.4135501,-0.9108855
-0.1226934,-0.4142385,-0.9096413
-0.1222709,-0.4137175,-0.9080085
-0.1228249,-0.4139864,-0.9116547
-0.1240925,-0.4138257,-0.9185385
-0.1238156,-0.4138904,-0.9205501
-0.123458,-0.4136144,-0.9190916
-0.1257816,-0.4119592,-0.9161838
-0.1270571,-0.41071,-0.9109058
-0.1269091,-0.410813,-0.9083305
-0.1263645,-0.4115197,-0.9157507
-0.1250416,-0.4109954,-0.9242384
-0.1247913,-0.411079,-0.9189758
-0.1244614,-0.4123499,-0.9133864
-0.124673,-0.4123337,-0.9154016
-0.125756,-0.4115897,-0.9133735
-0.125829,-0.4093458,-0.9143703
-0.1273773,-0.4065207,-0.9202915
-0.1283468,-0.4059931,-0.9228501
-0.126315,-0.4095823,-0.9211767
-0.1250112,-0.4144155,-0.9140318
-0.1238213,-0.4129045,-0.909576
-0.1222532,-0.4109613,-0.9093965
-0.1215808,-0.4126134,-0.9094368
-0.1194983,-0.4112182,-0.9170335
-0.1174736,-0.4131679,-0.9267212
-0.1188404,-0.4168495,-0.9264518
-0.1216514,-0.4137278,-0.9201991
-0.1246064,-0.4116412,-0.9152668
-0.1301724,-0.413976,-0.9094681
-0.1352742,-0.4197584,-0.9063194
-0.137737,-0.4265849,-0.9072432
-0.1465349,-0.42747,-0.8990511
-0.1578508,-0.4274872,-0.8868813
-0.1586073,-0.4294636,-0.879466
-0.1563125,-0.4288249,-0.8756801
-0.1565977,-0.4282626,-0.8810857
-0.1509022,-0.4274,-0.8919927
-0.1397582,-0.4255225,-0.9058852
-0.1298611,-0.4242189,-0.9153642
-0.1270598,-0.4208791,-0.9158779
-0.1321318,-0.4171433,-0.9144211
-0.1376697,-0.4148442,-0.9072001
-0.14091,-0.4133876,-0.9067128
-0.1396993,-0.4124804,-0.911119
-0.1352166,-0.4073417,-0.9085155
-0.1352634,-0.3995333,-0.915312
-0.132682,-0.3979796,-0.9256007
-0.1281914,-0.3983567,-0.9331912
-0.132755,-0.3903654,-0.9353854
-0.1383064,-0.381849,-0.9301692
-0.1417961,-0.3817129,-0.9349034
-0.1390417,-0.3847125,-0.9357469
-0.131267,-0.3871527,-0.9338437
-0.1352002,-0.3862195,-0.9383238
-0.1384244,-0.3843159,-0.9311221
-0.1357998,-0.3864089,-0.9259329
-0.1378782,-0.3907222,-0.9178327
-0.135592,-0.3962022,-0.9027399
-0.1341708,-0.3953109,-0.9084288
-0.1321604,-0.3906726,-0.9169623
-0.1255941,-0.3925184,-0.9171291
-0.1303079,-0.3938855,-0.9230056
-0.1353258,-0.3961041,-0.9259193
-0.1328589,-0.398705,-0.9225176
-0.1349517,-0.3954724,-0.9172913
-0.1363071,-0.3954733,-0.9163904
-0.1353341,-0.3962202,-0.9205384
-0.1371979,-0.3938222,-0.9198048
-0.139087,-0.3919386,-0.9166295
-0.1379502,-0.3891659,-0.9162242
-0.1333283,-0.3909471,-0.9148448
-0.1296377,-0.3959554,-0.9141864
-0.1328563,-0.3997989,-0.9184897
-0.1385415,-0.4022802,-0.9233318
-0.137895,-0.4004267,-0.9230662
-0.1359447,-0.3985472,-0.9221779
-0.1342993,-0.3969887,-0.9242579
-0.1282067,-0.3966161,-0.9239765
-0.1253864,-0.4003671,-0.9237531
-0.1243408,-0.4034668,-0.9321794
-0.1197199,-0.410233,-0.9497249
-0.1183634,-0.4155859,-0.9557867
-0.1230544,-0.408522,-0.9188027
-0.1309102,-0.4038402,-0.8795107
-0.1362901,-0.4118734,-0.8998986
-0.1416255,-0.4207066,-0.9186926
-0.1468212,-0.4238264,-0.8974686
-0.1450713,-0.4282096,-0.898712
-0.1448287,-0.4325367,-0.9058373
-0.1461518,-0.4304475,-0.8946541
-0.1485132,-0.4298729,-0.8936214
-0.1545132,-0.4320958,-0.8861828
-0.1474118,-0.4309899,-0.8800225
-0.1351776,-0.4302604,-0.8867598
-0.1320914,-0.4312983,-0.8933525
-0.1286834,-0.434127,-0.9091059
-0.1255678,-0.4365751,-0.9082207
-0.1244685,-0.4310508,-0.890015
-0.1266631,-0.4185363,-0.8897408
-0.1292267,-0.407678,-0.9078138
-0.1261603,-0.404868,-0.9378409
-0.1229423,-0.4075293,-0.9443284
-0.117802,-0.407522,-0.9253322
-0.1149139,-0.4063494,-0.9246735
-0.1187683,-0.4081973,-0.9336011
-0.1237377,-0.4080398,-0.939196
-0.1327988,-0.4044447,-0.9365176
-0.1373205,-0.4015167,-0.9291649
-0.1328249,-0.4004958,-0.9301782
-0.1279603,-0.4009528,-0.9149563
-0.1199609,-0.4030873,-0.8937224
-0.116323,-0.4067263,-0.8953835
-0.1232151,-0.4056674,-0.9041841
-0.1270345,-0.3986427,-0.9091456
-0.1244606,-0.3898184,-0.9116404
-0.1231438,-0.3818743,-0.9330943
-0.1187991,-0.3883622,-0.9792913
-0.1029886,-0.4079494,-0.9988968
-0.09460118,-0.4240206,-0.9692135
-0.1213106,-0.4269888,-0.9170166
-0.1520542,-0.4057444,-0.8655346
-0.1418489,-0.3837312,-0.8499507
-0.122629,-0.3861431,-0.8776247
-0.1181132,-0.3899119,-0.8962352
-0.110818,-0.391191,-0.9024194
-0.123261,-0.402791,-0.9187885
-0.1436655,-0.4115333,-0.9357076
-0.139601,-0.4065693,-0.9696175
-0.134224,-0.3973716,-0.9880662
-0.1257492,-0.3934049,-0.9591145
-0.1163284,-0.3877578,-0.9337146
-0.1249116,-0.3803421,-0.9122646
-0.1369615,-0.3723496,-0.8942695
-0.1435113,-0.3717016,-0.913727
-0.1257051,-0.404615,-0.9391172
-0.1002625,-0.4370567,-0.9357968
-0.1080743,-0.4211087,-0.9128859
-0.109242,-0.4066902,-0.8920032
-0.0905169,-0.424579,-0.8902812
-0.09563096,-0.4274232,-0.8923486
-0.1214528,-0.421475,-0.866642
-0.1484147,-0.4309258,-0.8455925
-0.1540357,-0.4311609,-0.8787674
-0.1445468,-0.426666,-0.9198767
-0.1539647,-0.429276,-0.925815
-0.1505027,-0.4377069,-0.92378
-0.1224058,-0.4520705,-0.9198733
-0.1093238,-0.4502992,-0.9062634
-0.1149747,-0.4437535,-0.8914811
-0.137563,-0.4429503,-0.8658951
-0.1538444,-0.4330096,-0.8420147
-0.1521687,-0.4348856,-0.8562286
-0.1529916,-0.4422885,-0.8814045
-0.1453228,-0.4401169,-0.8989902
-0.1372251,-0.4440052,-0.9181665
-0.1398642,-0.4441232,-0.9147412
-0.1388203,-0.4413873,-0.9134238
-0.1269986,-0.4434964,-0.9152048
-0.1111908,-0.4385118,-0.8866418
-0.1114941,-0.4313125,-0.8713643
-0.1166649,-0.4257944,-0.8817897
-0.1218996,-0.4217762,-0.8927663
-0.1377605,-0.4240074,-0.9015895
-0.1436577,-0.4267053,-0.9093741
-0.1387602,-0.4291549,-0.9211426
-0.1384904,-0.4326515,-0.9227277
-0.1441064,-0.4323008,-0.9224302
-0.1455355,-0.43297,-0.9251935
-0.1354163,-0.4403302,-0.9171664
-0.1252852,-0.445996,-0.9097351
-0.1199872,-0.4391317,-0.8806247
-0.111617,-0.4264555,-0.8291738
-0.1040218,-0.4228068,-0.815708
-0.1139244,-0.4261419,-0.857653
-0.1307481,-0.4284822,-0.9122773
-0.1388321,-0.4285982,-0.9447334
-0.147378,-0.4260108,-0.9565263
-0.1470001,-0.4227409,-0.9477669
-0.1369203,-0.4135337,-0.9335365
-0.1288865,-0.3995054,-0.9301893
-0.1253498,-0.3994778,-0.9261812
-0.1341539,-0.4025347,-0.922205
-0.1450376,-0.393734,-0.9132941
-0.1515602,-0.3957542,-0.9130721
-0.1492559,-0.4067048,-0.9280712
-0.1387276,-0.4126253,-0.9281397
-0.1394671,-0.41808,-0.9296202
-0.1338928,-0.4191463,-0.9398358
-0.1155502,-0.433051,-0.9424685
-0.1117631,-0.4528551,-0.924839
-0.1334801,-0.4417542,-0.8708509
-0.1557813,-0.4322651,-0.8291717
-0.127576,-0.4488767,-0.8280686
-0.09728859,-0.4615246,-0.8369473
-0.125976,-0.466964,-0.8446749
-0.1490174,-0.4650849,-0.8569376
-0.1497892,-0.4583071,-0.8878568
-0.1531203,-0.460281,-0.9149532
-0.1481762,-0.4578328,-0.9195095
-0.1535698,-0.4529656,-0.918419
-0.1568054,-0.4581027,-0.9178231
-0.1431624,-0.4629509,-0.9215676
-0.135102,-0.4660999,-0.9039774
-0.1294459,-0.4583728,-0.8643433
-0.1251655,-0.4412859,-0.843826
-0.1238346,-0.4399623,-0.8479084
-0.1233945,-0.4423099,-0.8718716
-0.1261765,-0.4379383,-0.9005871
-0.1297411,-0.4400262,-0.9163315
-0.138649,-0.4452259,-0.9195768
-0.139732,-0.4520272,-0.923618
-0.1248716,-0.4544089,-0.9323613
-0.1103695,-0.4485682,-0.9197142
-0.1079763,-0.4436517,-0.8983051
-0.1175891,-0.4318886,-0.8745668
-0.1253335,-0.4132102,-0.8470446
-0.1335897,-0.4069578,-0.8670301
-0.1380317,-0.413071,-0.9019974
-0.1333393,-0.4167811,-0.906057
-0.1375725,-0.4189465,-0.9186756
-0.1351636,-0.4266084,-0.9353521
-0.1240708,-0.4371317,-0.9420873
-0.1167629,-0.4433448,-0.928759
-0.1051889,-0.4335089,-0.8812736
-0.1039601,-0.4169452,-0.8544784
-0.1096667,-0.4110218,-0.8638661
-0.1181324,-0.4062651,-0.8716497
-0.1354395,-0.4087021,-0.8836687
-0.1484428,-0.4204686,-0.9079665
-0.1499285,-0.427159,-0.9522069
-0.1279197,-0.4382951,-0.9939669
-0.1057929,-0.4414043,-0.9780006
-0.1036694,-0.4315272,-0.9355557
-0.09751491,-0.4245211,-0.9080689
-0.1042248,-0.4028393,-0.8705928
-0.1276965,-0.3836152,-0.8515533
-0.1340309,-0.38681,-0.873547
-0.1247852,-0.3905633,-0.9010399
-0.1183096,-0.4033474,-0.9364636
-0.1193242,-0.4164249,-0.9553858
-0.1200343,-0.4087557,-0.9505161
-0.1199352,-0.4014664,-0.9654167
-0.1226538,-0.3965305,-0.9561451
-0.1270264,-0.3853976,-0.9197337
-0.1319378,-0.3823549,-0.9088301
-0.1296891,-0.3887082,-0.9069114
-0.1256778,-0.3944606,-0.9119831
-0.1286841,-0.4031371,-0.9128211
-0.1311242,-0.4113603,-0.9059455
-0.1345977,-0.4084273,-0.9138646
-0.1364509,-0.4094839,-0.9243623
-0.1215501,-0.4231384,-0.9377798
-0.1070351,-0.4314154,-0.9271947
-0.1152642,-0.4243274,-0.887594
-0.1216525,-0.415372,-0.8690574
-0.1117991,-0.4214042,-0.8683912
-0.1088708,-0.4252219,-0.8767851
-0.1163974,-0.4193702,-0.8810574
-0.1303969,-0.4200178,-0.8767629
-0.1454537,-0.4171293,-0.895631
-0.1345299,-0.4146304,-0.9283525
-0.1173965,-0.4181146,-0.9542552
-0.1261532,-0.4145205,-0.9580774
-0.1271143,-0.414565,-0.9630417
-0.115818,-0.4171199,-0.9805045
-0.1133429,-0.4145838,-0.948465
-0.1076994,-0.4141278,-0.8969758
-0.108525,-0.4099896,-0.8706044
-0.1128862,-0.4042337,-0.8533074
-0.111044,-0.4047784,-0.8657367
-0.1190008,-0.4070635,-0.8907404
-0.1226272,-0.4080355,-0.9272632
-0.1193585,-0.4098347,-0.962899
-0.1217951,-0.4098711,-0.9474217
-0.1201511,-0.4055986,-0.9423215
-0.1187664,-0.4012833,-0.9593755
-0.1181926,-0.3948053,-0.9449617
-0.1175985,-0.3895887,-0.9297448
-0.1217332,-0.3878206,-0.9185193
-0.1224499,-0.3842158,-0.9155016
-0.1213855,-0.3881367,-0.9279783
-0.120611,-0.393667,-0.9263389
-0.1203279,-0.3940474,-0.9312971
-0.1226755,-0.3959385,-0.9346098
-0.1256882,-0.3935151,-0.9211086
-0.1284756,-0.3942102,-0.9232806
-0.1184599,-0.3967359,-0.9150621
-0.1046394,-0.3935446,-0.8994527
-0.1082552,-0.3913914,-0.9069698
-0.1107451,-0.3865268,-0.9110011
-0.1062376,-0.3912279,-0.9188686
-0.1099589,-0.4046344,-0.931262
-0.114457,-0.406111,-0.9262275
-0.1167367,-0.401901,-0.9213101
-0.1163838,-0.3966444,-0.9218609
-0.1119324,-0.3959745,-0.9203965
-0.1138502,-0.3987975,-0.9211178
-0.1164881,-0.3962146,-0.9243524
-0.1193965,-0.3978766,-0.9227586
-0.1296449,-0.4005233,-0.9153684
-0.1303179,-0.4021517,-0.9123033
-0.1240345,-0.407537,-0.9157772
-0.1190381,-0.4113522,-0.9174995
-0.1047178,-0.4129901,-0.9117274
-0.09320489,-0.4061225,-0.9061
-0.08969056,-0.397006,-0.9054433
-0.08667924,-0.3974066,-0.9094112
-0.09337451,-0.4018198,-0.9212017
-0.1055402,-0.4067986,-0.9334712
-0.1132255,-0.4062804,-0.938608
-0.121442,-0.4026277,-0.9322085
-0.1316056,-0.3980971,-0.9193622
-0.1352305,-0.3886058,-0.9135867
-0.1277792,-0.3883762,-0.9171681
-0.1210624,-0.393126,-0.924362
-0.1209496,-0.3918762,-0.923072
-0.1167404,-0.3953314,-0.9217659
-0.106519,-0.3979133,-0.9315387
-0.09785971,-0.3979645,-0.9329967
-0.097042,-0.4015327,-0.9214893
-0.09712072,-0.4009199,-0.911378
-0.09233108,-0.4036147,-0.9124036
-0.09575167,-0.4106795,-0.9106999
-0.104827,-0.4099811,-0.8969587
-0.1152844,-0.4086619,-0.8990735
-0.1284687,-0.4070897,-0.9077105
-0.1283815,-0.4017425,-0.9069904
-0.1219549,-0.4017571,-0.9163063
-0.1213337,-0.4053614,-0.9232158
-0.1241708,-0.4083851,-0.9230933
-0.1299698,-0.413062,-0.92884
-0.1233128,-0.4182858,-0.9413725
-0.1057413,-0.4228815,-0.9544433
-0.0889077,-0.4260807,-0.9306484
-0.07705866,-0.4217656,-0.8815841
-0.08249635,-0.4121475,-0.8668859
-0.1034958,-0.4106219,-0.8751156
-0.1279045,-0.4087885,-0.8783507
-0.1274127,-0.4019986,-0.8897659
-0.1105266,-0.4006014,-0.918597
-0.1183248,-0.3968229,-0.9483387
-0.118771,-0.399918,-0.9545633
-0.1067264,-0.408262,-0.9494868
-0.1134885,-0.4017498,-0.9448977
-0.1141508,-0.3967939,-0.9321534
-0.1124869,-0.395929,-0.9275636
-0.1078366,-0.3991954,-0.9260611
-0.09098821,-0.4099407,-0.9108932
-0.09034918,-0.4058877,-0.9039038
-0.09068727,-0.4027828,-0.9078198
-0.08338629,-0.4081805,-0.9057384
-0.08939774,-0.404408,-0.9065447
-0.1052833,-0.4062434,-0.919396
-0.1259991,-0.4121578,-0.9333314
-0.1331748,-0.4151233,-0.9358826
-0.1254317,-0.4197825,-0.9309889
-0.1270215,-0.4190677,-0.9283164
-0.1309227,-0.4115325,-0.9204662
-0.133013,-0.3985616,-0.9042209
-0.1414197,-0.3944171,-0.89446
-0.1410075,-0.4011119,-0.8928977
-0.1311084,-0.4028984,-0.9016996
-0.1254994,-0.4111519,-0.9189188
-0.1208799,-0.4220838,-0.9209446
-0.1206235,-0.4231132,-0.9205078
-0.1256611,-0.4240018,-0.9343768
-0.1286321,-0.4217587,-0.9372888
-0.129658,-0.4161434,-0.9241679
-0.1251854,-0.4097033,-0.9056459
-0.1221584,-0.4043643,-0.8938151
-0.1254182,-0.4059558,-0.8998198
-0.1270703,-0.4039661,-0.9048409
-0.127946,-0.3994713,-0.9065786
-0.1261282,-0.3992151,-0.9227326
-0.1234202,-0.3962396,-0.9437747
-0.122617,-0.392535,-0.9534817
-0.1204745,-0.3926983,-0.9490331
-0.1221475,-0.395461,-0.9409247
-0.1246862,-0.3963761,-0.9380277
-0.1225705,-0.3952091,-0.9349636
-0.122387,-0.3945582,-0.9243209
-0.1271855,-0.3943554,-0.9095976
-0.1317142,-0.3976286,-0.9090782
-0.1319593,-0.4009109,-0.9158021
-0.1306305,-0.4027123,-0.9140333
-0.1272992,-0.40814,-0.921356
-0.1209315,-0.4128057,-0.9260648
-0.1192587,-0.4127038,-0.9176398
-0.1217947,-0.4115299,-0.9156891
-0.1212077,-0.4119854,-0.9080436
-0.1216675,-0.4111752,-0.9037558
-0.1231815,-0.4106679,-0.909179
-0.1209019,-0.4141708,-0.9045029
-0.1210634,-0.4176594,-0.9084906
-0.1232531,-0.4222482,-0.9142376
-0.1252223,-0.4252812,-0.9094444
-0.1292401,-0.4234249,-0.9114868
-0.1279777,-0.4247825,-0.911497
-0.1246612,-0.4256584,-0.9103799
-0.1253946,-0.4226732,-0.9119026
-0.1246669,-0.4217848,-0.9086857
-0.1250778,-0.4196647,-0.9025227
-0.1263954,-0.4158545,-0.8945043
-0.1251854,-0.4152228,-0.8967291
-0.1223744,-0.4167627,-0.9047878
-0.1179047,-0.4206094,-0.9086783
-0.119032,-0.4270511,-0.9194016
-0.1231116,-0.4279088,-0.9261069
-0.1235888,-0.4245645,-0.9175879
-0.1259388,-0.4245374,-0.9070296
-0.1269061,-0.4204971,-0.903744
-0.1283034,-0.4157494,-0.9067053
-0.1319506,-0.4174872,-0.9082412
-0.1286564,-0.419271,-0.9087315
-0.1254774,-0.4214826,-0.912973
-0.1237043,-0.4211847,-0.9144247
-0.1175548,-0.4176172,-0.9100174
-0.1167871,-0.4163499,-0.9079705
-0.1189699,-0.4143911,-0.9138644
-0.1168412,-0.4140672,-0.9198561
-0.1161278,-0.4144457,-0.9173819
-0.117529,-0.4130813,-0.9116358
-0.1194506,-0.4145039,-0.9089212
-0.1224667,-0.4147411,-0.9110605
-0.1232973,-0.4143079,-0.9175538
-0.1237514,-0.415196,-0.9206858
-0.1274654,-0.4150621,-0.9176158
-0.1295062,-0.4166028,-0.9155948
-0.1311312,-0.4163976,-0.9171304
-0.1362593,-0.4136616,-0.9189058
-0.1367941,-0.4120504,-0.9183414
-0.1321611,-0.4124205,-0.9134494
-0.1288172,-0.4158927,-0.9073056
-0.1246838,-0.4173311,-0.9070408
-0.120704,-0.4160148,-0.9081585
-0.1202579,-0.4140356,-0.9059682
-0.1210794,-0.4116636,-0.9083241
-0.1209592,-0.4133039,-0.912989
-0.1206021,-0.4143575,-0.9196179
-0.121486,-0.4117321,-0.9260989
-0.1241053,-0.4107466,-0.9141457
-0.1283335,-0.4119086,-0.9034858
-0.1304675,-0.4129239,-0.9198359
-0.129502,-0.4110038,-0.9324119
-0.1323874,-0.4078528,-0.9241494
-0.1340394,-0.4062156,-0.9190236
-0.1231801,-0.404814,-0.9210821
-0.1128735,-0.4010061,-0.9183927
0.1666818,0.5710286,0.8304945
0.1742528,0.5779735,0.8195288
0.1768254,0.586685,0.8147305
0.1852201,0.5790066,0.8092712
0.1834263,0.5701053,0.807363
0.1783182,0.5714645,0.8092787
0.1749582,0.5754648,0.8111017
0.1689753,0.5826379,0.8156436
0.1707295,0.5876316,0.8180095
0.1717818,0.5854494,0.8177857
0.1697398,0.5845794,0.8187334
0.1700734,0.5789119,0.8178635
0.1671529,0.5677289,0.8199068
0.1643758,0.5641101,0.8217959
0.1622399,0.5618108,0.8202232
0.1581444,0.5583846,0.8200822
0.1555603,0.5596336,0.819128
0.1546412,0.5604799,0.8196596
0.1548891,0.5606195,0.821769
0.1567193,0.5633161,0.8236552
0.157189,0.5656677,0.8261338
0.1548513,0.5644764,0.8261729
0.1532099,0.5606141,0.8240494
0.1527715,0.5580532,0.8194155
0.15244,0.562125,0.8162101
0.1529908,0.5677397,0.8164248
0.153202,0.5664068,0.8141664
0.1539768,0.56928,0.8133664
0.1545225,0.5764791,0.8165365
0.1520184,0.5734833,0.8186372
0.1518938,0.5702051,0.8179892
0.1582642,0.571458,0.8149042
0.1648371,0.5693319,0.8127087
0.1650632,0.5691678,0.8124901
0.1613368,0.5696887,0.8127974
0.1569489,0.5680939,0.8160026
0.1511555,0.56811,0.821196
0.1509839,0.5675185,0.8233794
0.1538391,0.5655811,0.8222102
0.1494187,0.5613806,0.8216852
0.1492494,0.5580702,0.8226139
0.1535138,0.5594524,0.8229515
0.1531272,0.5575976,0.8254886
0.1548792,0.5544564,0.8288506
0.1547652,0.5578942,0.8251839
0.1550243,0.562183,0.8181915
0.158505,0.5633846,0.8156382
0.1563868,0.5642956,0.8172391
0.1554273,0.5659572,0.819073
0.1551293,0.5672287,0.8191083
0.1531375,0.5673242,0.8238276
0.1546338,0.5667036,0.8303202
0.1535146,0.5673768,0.8281618
0.149882,0.5725627,0.8264581
0.1454369,0.5790797,0.8297252
0.1409621,0.581381,0.8270035
0.1460283,0.5785396,0.8171175
0.170248,0.565459,0.8099952
0.1922677,0.5516874,0.8213809
0.167202,0.5614323,0.8428726
0.13805,0.5748386,0.8375968
0.1713011,0.563005,0.7962105
0.2111534,0.5467122,0.7557857
0.2204075,0.540394,0.7601177
0.2199027,0.5553216,0.7876169
0.1919302,0.5843225,0.8036445
0.1602737,0.580367,0.834954
0.1571198,0.5713125,0.8511615
0.1630212,0.5824085,0.8283933
0.1679019,0.5735983,0.8211532
0.1730077,0.5659914,0.8098741
0.1844513,0.5667495,0.7923408
0.1916397,0.5634156,0.7971557
0.1903948,0.5751719,0.7950264
0.196836,0.5803332,0.803302
0.1987817,0.5780115,0.821895
0.1966389,0.5775758,0.8219548
0.200646,0.5713106,0.8041524
0.2065378,0.5723218,0.7790917
0.2103651,0.5712033,0.7881058
0.1994617,0.5715382,0.8067229
0.1846783,0.5779388,0.8097495
0.1847718,0.5767633,0.8225077
0.1966816,0.5778081,0.8073008
0.2081149,0.5761039,0.7844663
0.207641,0.571676,0.7905842
0.205344,0.5746324,0.7874876
0.2069237,0.5833633,0.7914804
0.2052734,0.5969765,0.803999
0.204963,0.597835,0.797934
0.2044532,0.5892727,0.7977217
0.1963551,0.5873748,0.804926
0.1887458,0.5853062,0.8060883
0.1908248,0.5847826,0.805953
0.1921777,0.5817471,0.805073
0.1872533,0.5725546,0.8056067
0.1860969,0.5700027,0.8062444
0.185654,0.5701562,0.8072879
0.1829792,0.5647691,0.8114349
0.1874617,0.5577258,0.8151059
0.1915166,0.5531606,0.8192713
0.1847412,0.5566435,0.8250624
0.1792514,0.5627382,0.8270683
0.1812075,0.5624801,0.8235964
0.181283,0.5671554,0.8198023
0.1796181,0.5753647,0.8190923
0.1808871,0.5739555,0.8158883
0.18089,0.5742124,0.8076689
0.1795879,0.5765995,0.8039239
0.1792233,0.5747608,0.8080993
0.1773389,0.5799633,0.8135571
0.1781764,0.5857499,0.8161537
0.180291,0.5838135,0.8144489
0.1783518,0.5786864,0.808515
0.1770445,0.571433,0.8033109
0.1752235,0.5684088,0.8045934
0.1731761,0.5690782,0.8101878
0.1739065,0.569887,0.8165308
0.1743682,0.5735283,0.8196803
0.1779585,0.5755228,0.8150239
0.1815112,0.5734391,0.8094863
0.1764801,0.5716157,0.807704
0.169485,0.5738453,0.8071723
0.1693331,0.5766238,0.8062532
0.1745431,0.5760683,0.8024615
0.1785255,0.5765685,0.8027927
0.1774513,0.5769988,0.8076187
0.175026,0.5772742,0.8112319
0.1743562,0.5780539,0.8183118
0.1717851,0.5737534,0.8219909
0.1696733,0.5709772,0.8208127
0.1738113,0.5736195,0.8217947
0.1824625,0.5749501,0.8138422
0.1948553,0.5741361,0.7973002
0.2018592,0.5695935,0.7864762
0.1957376,0.5659752,0.7891768
0.1869438,0.5719576,0.8058802
0.1801672,0.5794677,0.8183203
0.1807191,0.5786396,0.8125599
0.1851491,0.5772263,0.8062138
0.1772643,0.5794956,0.8125433
0.1724248,0.5783437,0.8136284
0.1781043,0.5773081,0.8060971
0.1780365,0.5768184,0.807014
0.1763113,0.5738182,0.8151956
0.174488,0.5758734,0.8214467
0.1744105,0.5771768,0.810906
0.1839094,0.573762,0.7951056
0.1945943,0.5733764,0.8014652
0.1967736,0.573173,0.8045097
0.1927691,0.5718649,0.8004409
0.1923403,0.5704945,0.8135272
0.191815,0.5702436,0.8213219
0.1876019,0.5719404,0.8161913
0.1875937,0.5724717,0.8136849
0.1876136,0.5748369,0.8148625
0.1892333,0.576016,0.812927
0.1924691,0.5743493,0.8043509
0.1905933,0.5763389,0.7982862
0.1862902,0.5786824,0.7963859
0.1753105,0.5821456,0.804981
0.1682446,0.5858977,0.8214612
0.179617,0.5795569,0.8205903
0.1960259,0.5654211,0.8061024
0.2046607,0.5563185,0.7944844
0.2043986,0.5607909,0.7944968
0.2014692,0.5675513,0.8048423
0.1984328,0.5657731,0.8087039
0.1927652,0.5680874,0.8094615
0.1899106,0.5756936,0.8131629
0.1890008,0.5833255,0.8155897
0.1874086,0.5899793,0.8156944
0.1867978,0.5831208,0.811659
0.185707,0.5724134,0.8102848
0.1917597,0.5717093,0.8084509
0.2002182,0.5716282,0.8064809
0.1940886,0.5716808,0.8100042
0.1897597,0.5708845,0.8070827
0.2010511,0.5700674,0.8018762
0.2098558,0.5727507,0.7961291
0.2090241,0.5720451,0.7913065
0.199719,0.5731137,0.8019023
0.1880385,0.5781374,0.8068324
0.1874951,0.5820213,0.7931856
0.1919458,0.5851222,0.7844164
0.1909418,0.5877309,0.7939557
0.1855604,0.591846,0.8100071
0.1790689,0.5871116,0.8111772
0.1796866,0.5725639,0.8008324
0.1898902,0.5647448,0.793548
0.1948017,0.5701033,0.7985792
0.181657,0.578001,0.8112948
0.1697556,0.5688349,0.8185388
0.1827254,0.5603762,0.8275382
0.1953304,0.5663197,0.8277328
0.1872445,0.5624408,0.8192974
0.1846033,0.5580043,0.8203645
0.1850433,0.5607978,0.8104608
0.173964,0.5656115,0.8021172
0.1701181,0.5767996,0.8092875
0.1727243,0.5782866,0.8082676
0.171566,0.5799494,0.8130376
0.1688182,0.5907306,0.8210262
0.1651668,0.589392,0.8151623
0.1661769,0.5864108,0.8112704
0.1658016,0.5865318,0.8107588
0.1630046,0.5767198,0.8078403
0.1675049,0.5688115,0.8081332
0.172884,0.5671848,0.8130435
0.1741502,0.5647776,0.8138267
0.1719426,0.5668593,0.8118759
0.1702056,0.57131,0.8158955
0.1737975,0.5709003,0.8161783
0.175942,0.5691413,0.8122671
0.1740082,0.5672282,0.8123325
0.172796,0.5672351,0.8122277
0.1725123,0.5720327,0.8106659
0.1704102,0.5734165,0.8094034
0.1684547,0.5703261,0.8105398
0.16963,0.5696651,0.8130764
0.1696085,0.5705958,0.8144374
0.1674031,0.5744409,0.8163902
0.1642916,0.5795431,0.8191413
0.1603824,0.5769411,0.8209595
0.1606597,0.5719985,0.8187603
0.1628159,0.5716545,0.815135
0.1623833,0.5694709,0.8165015
0.1626925,0.5667524,0.817654
0.1635337,0.5663163,0.815858
0.1639275,0.5654956,0.8161208
0.1638404,0.5678092,0.8136674
0.161821,0.5715422,0.8103105
0.1605983,0.5710898,0.8127967
0.1618077,0.5691964,0.8133308
0.1657209,0.5681368,0.8111262
0.172208,0.5660409,0.8101485
0.1752938,0.5645295,0.8076595
0.1718211,0.5662883,0.8076726
0.1649193,0.5699866,0.8092369
0.1604979,0.5731259,0.8079263
0.1662791,0.5720262,0.8081458
0.1725501,0.5696727,0.8106031
0.1619496,0.572069,0.8168452
0.1512343,0.5730044,0.8250914
0.1574092,0.5715605,0.8232646
0.1642576,0.5721803,0.8189358
0.1672347,0.5704649,0.8218806
0.1682814,0.5686418,0.8209932
0.1651287,0.5691999,0.8189447
0.1668772,0.5678208,0.8174661
0.1676369,0.5660148,0.8119198
0.1651767,0.5664327,0.8138008
0.1661017,0.5671469,0.8182132
0.1622539,0.566627,0.8176172
0.1595933,0.5681214,0.8185211
0.1607798,0.5727865,0.8169924
0.1555887,0.5766504,0.815755
0.1521183,0.5751644,0.8164318
0.1576889,0.5671473,0.8145906
0.1628596,0.5646763,0.8174051
0.156934,0.5764084,0.8265935
0.1514411,0.5904953,0.8356146
0.1607677,0.5935732,0.8345413
0.1778593,0.584846,0.8272196
0.1927107,0.5732485,0.8276527
0.1933449,0.5624817,0.8183351
0.1991294,0.5520529,0.7778664
0.2307495,0.5496497,0.7396375
0.2412488,0.5595445,0.7581011
0.2164986,0.573791,0.7967922
0.1959356,0.5780671,0.8042498
0.1812003,0.5737898,0.8279348
0.1678364,0.5746157,0.8451937
0.1654076,0.5755604,0.8243801
0.171253,0.5725065,0.8266743
0.172271,0.5719228,0.8179676
0.1691631,0.5724987,0.7982379
0.1724887,0.5735834,0.8132209
0.1756097,0.5727732,0.8124094
0.1832865,0.568193,0.8101453
0.1959024,0.5642232,0.8144162
0.2006447,0.5620967,0.8000992
0.2039926,0.5642077,0.7959055
0.2062601,0.5698126,0.7926648
0.2122523,0.5729365,0.7907095
0.2171609,0.5738399,0.7951027
0.2011761,0.5725637,0.8016838
0.1881281,0.5683786,0.8137501
0.1979845,0.5655306,0.8050354
0.2069514,0.5669862,0.7942183
0.2056475,0.5758942,0.7919523
0.207433,0.5863172,0.7821297
0.1986598,0.5884869,0.792712
0.173986,0.5958986,0.8087409
0.1710822,0.6068126,0.8028589
0.1863847,0.5986389,0.801595
0.1920189,0.5890922,0.8069706
0.1882232,0.5888152,0.8021918
0.1726275,0.579714,0.8013208
0.1612195,0.5747951,0.8039165
0.1683321,0.5749658,0.8020598
0.1786829,0.567869,0.8114894
0.1808856,0.5670803,0.8224424
0.1813716,0.5662998,0.8231575
0.1934092,0.559861,0.8197534
0.2087819,0.5575205,0.8079399
0.2083293,0.5587961,0.8018343
0.1851781,0.5727067,0.8195808
0.159842,0.5904079,0.8390318
0.1611534,0.5911691,0.826411
0.1701414,0.5835232,0.8081727
0.1667249,0.576384,0.811174
0.1626308,0.5687468,0.8052829
0.1576562,0.5636224,0.7982972
0.1540785,0.5559312,0.795115
0.1542344,0.54166,0.7864279
0.1459452,0.5385439,0.8041244
0.1383645,0.5450628,0.8274767
0.1506601,0.5417142,0.8298192
0.1701684,0.5379804,0.8290599
0.1795163,0.5359109,0.82969
0.1827549,0.5351186,0.8345305
0.1825952,0.5418118,0.8308546
0.1792908,0.5441322,0.8242304
0.1733317,0.5470283,0.8290013
0.1663315,0.5540207,0.8244111
0.1700061,0.5577806,0.8143899
0.1764964,0.5576752,0.8090908
0.1684597,0.5547687,0.8080965
0.1610208,0.5639601,0.8118356
0.1612724,0.5794699,0.8104707
0.1605871,0.5878469,0.8116123
0.1642472,0.5909075,0.8150839
0.1687359,0.5840998,0.8165558
0.1725558,0.5778834,0.8186596
0.1741939,0.5753822,0.8111964
0.1660895,0.5716221,0.8085876
0.1600371,0.5685217,0.8231942
0.1622107,0.5595202,0.8343117
0.1698619,0.553968,0.8274411
0.1783275,0.5525845,0.8179296
0.1794054,0.5502623,0.8229903
0.1831033,0.5556288,0.8214327
0.1900378,0.5602917,0.8099832
0.1861992,0.562756,0.8093391
0.1743787,0.5646478,0.8165464
0.1612461,0.5653384,0.8275444
0.1518387,0.5733569,0.8271977
0.1520268,0.5768647,0.8208161
0.1565016,0.5661037,0.8232469
0.1641704,0.5517079,0.8158069
0.1786508,0.5476177,0.809846
0.1852725,0.554093,0.809113
0.18118,0.5612174,0.8053863
0.1769685,0.5716563,0.8203296
0.1696447,0.577331,0.8328128
0.1659473,0.5746558,0.8232894
0.1658833,0.573755,0.8145578
0.1626938,0.5666359,0.810982
0.1656819,0.560849,0.8082359
0.1669811,0.5634394,0.8116072
0.1594878,0.5630927,0.8182305
0.1563236,0.5640451,0.8171239
0.1619746,0.5642836,0.8200114
0.1693747,0.5621659,0.8329575
0.1695874,0.5621439,0.8376555
0.1685385,0.5584376,0.8358533
0.1712575,0.555139,0.8258039
0.1722419,0.5562692,0.8098128
0.175379,0.558692,0.806053
0.1754071,0.5614255,0.8065186
0.1695909,0.5648796,0.808512
0.1637627,0.5690604,0.8234816
0.1590564,0.5681461,0.8373193
0.1687546,0.565361,0.8266915
0.1802363,0.5654281,0.8104989
0.1726931,0.5648373,0.8154657
0.1641233,0.565503,0.8174699
0.1603063,0.5651216,0.8127519
0.1605049,0.5619379,0.8157276
0.169172,0.5570692,0.8098229
0.1731609,0.5524377,0.8043108
0.1746638,0.5558316,0.8069738
0.180085,0.5597293,0.8035289
0.181649,0.5577577,0.8000888
0.1794609,0.5602372,0.8063646
0.175706,0.568575,0.8289827
0.172582,0.5745322,0.8472611
0.1752527,0.5670658,0.8270208
0.1853858,0.5573556,0.8032383
0.1952147,0.5665172,0.8168215
0.1926983,0.5736266,0.8245602
0.1821496,0.5676788,0.8136737
0.1759801,0.5690618,0.8216703
0.1760526,0.5712644,0.8251427
0.1763199,0.5714941,0.8182683
0.1701414,0.5776725,0.8224548
0.1595512,0.5775531,0.8180575
0.1508535,0.569872,0.8084408
0.1493742,0.5648929,0.8015398
0.1583972,0.5674469,0.8054248
0.1702011,0.5734897,0.823927
0.1739311,0.5736849,0.8272387
0.1686231,0.5702461,0.8220376
0.1681615,0.5633969,0.8148932
0.1858923,0.5567075,0.8050794
0.200563,0.5586069,0.8135217
0.1881365,0.5585198,0.8204849
0.1752291,0.5555998,0.8170577
0.1821769,0.5584705,0.8204368
0.1817174,0.5598998,0.823835
0.171251,0.5601432,0.8222432
0.1677177,0.56368,0.8212896
0.1636664,0.5663156,0.8224944
0.1641683,0.5671109,0.8194277
0.1665474,0.5698855,0.8172128
0.1615497,0.5763937,0.8212613
0.1623616,0.5792142,0.8229862
0.161677,0.5751699,0.8217424
0.1607297,0.5719267,0.8181727
0.1700985,0.5693118,0.8142227
0.1746543,0.5639741,0.8095215
0.1739151,0.5593827,0.8057058
0.1713903,0.5597825,0.815485
0.1701005,0.5648141,0.8265591
0.1735419,0.567619,0.8210507
0.1732684,0.5650725,0.8161823
0.1718734,0.5627187,0.8210485
0.1691009,0.563761,0.8190452
0.1666177,0.5636189,0.8133945
0.1659834,0.5618076,0.8131147
0.1583213,0.5639981,0.8144508
0.1482822,0.5673049,0.8195266
0.1404344,0.5673515,0.8190195
0.1395023,0.563151,0.8144877
0.1450999,0.5577207,0.8176787
0.1473536,0.5604464,0.8178316
0.1479037,0.5649391,0.8174961
0.1468554,0.564117,0.8185359
0.1468869,0.5649873,0.8150462
0.1480173,0.5652698,0.8157445
0.1478821,0.5664459,0.8173193
0.1547209,0.5693772,0.8178118
0.1596238,0.5668594,0.8228885
0.1529115,0.5663505,0.8285288
0.1455627,0.5700566,0.8283133
0.1462148,0.5709315,0.8229941
0.1479903,0.5686917,0.81882
0.1459016,0.5634966,0.8151437
0.1491167,0.5619362,0.8150419
0.1516356,0.5669798,0.8165483
0.1487673,0.5719497,0.8141065
0.149584,0.5727675,0.8162637
0.1491266,0.5687329,0.8205626
0.1474992,0.565231,0.8262312
0.145751,0.5649217,0.8315716
0.1431632,0.5650727,0.8256106
0.1459225,0.5639549,0.8204014
0.1480059,0.55981,0.8183049
0.1498628,0.5573192,0.8132499
0.1544976,0.5593938,0.8141104
0.1547065,0.5615082,0.8158029
0.1534056,0.562865,0.8182805
0.1525301,0.5673861,0.8239468
0.1513508,0.5756605,0.8206733
0.153873,0.5798754,0.8141961
0.1565733,0.5769834,0.8122047
0.1544558,0.5733743,0.8053483
0.1514017,0.5722684,0.7981667
0.1512285,0.5744801,0.8014408
0.1513807,0.5770988,0.809611
0.1511688,0.5738585,0.816419
0.1506714,0.5695627,0.821392
0.1500473,0.5703305,0.8232503
0.1526898,0.5676381,0.8225891
0.1552423,0.5598708,0.8234564
0.1529552,0.5579967,0.8263447
0.1474606,0.5645349,0.8269622
0.1428168,0.5706749,0.8276052
0.1437322,0.568051,0.8275311
0.1456929,0.5646167,0.8218035
0.1439012,0.5659866,0.8178256
0.1441328,0.5654108,0.8185445
0.1458495,0.5680671,0.8165473
0.1474826,0.5727691,0.8125572
0.1511959,0.5734197,0.8131722
0.1507153,0.5775486,0.8151799
0.148717,0.5814786,0.8134014
0.1507691,0.5773123,0.8143452
0.1498738,0.5720501,0.8152943
0.1484979,0.5725,0.8120302
0.1492206,0.5699536,0.8122822
0.1489632,0.5598243,0.8135798
0.1494387,0.5563228,0.8165864
0.144765,0.5605233,0.8239465
0.1384599,0.563862,0.8262168
0.1406459,0.5649389,0.8229604
0.1449668,0.559048,0.8213571
0.147247,0.5523862,0.8233295
0.1463408,0.5558083,0.823595
0.1387315,0.5644601,0.8195806
0.1330996,0.569762,0.8176296
0.1405314,0.5713735,0.8204159
0.1547755,0.5719647,0.8236477
0.1614448,0.570791,0.8218353
0.1585369,0.5698222,0.8185789
0.150954,0.5744183,0.8180795
0.1449472,0.579361,0.8171307
0.1465791,0.5736813,0.8165673
0.1486854,0.5648074,0.8157335
0.1461141,0.562301,0.8181702
0.1452096,0.5593865,0.824526
0.1451497,0.5573478,0.8264428
0.146301,0.5591251,0.8296256
0.1502002,0.5610713,0.8317344
0.1502241,0.5636249,0.8257558
0.1509081,0.5642447,0.8224076
0.1536341,0.5637477,0.8209702
0.1480964,0.5643746,0.818536
0.140953,0.5651327,0.8194116
0.1402835,0.5661201,0.8197576
0.1444634,0.5658513,0.8192641
0.1489393,0.5672194,0.8192739
0.1456088,0.5701916,0.8180529
0.1426415,0.5720433,0.8156632
0.1446035,0.5737764,0.8162571
0.1409369,0.5723532,0.8226281
0.1374512,0.5689848,0.8262033
0.1400686,0.564617,0.8236163
0.1419721,0.559825,0.8221375
0.1416696,0.5604084,0.8226299
0.1415525,0.5598219,0.8238615
0.1421699,0.5555381,0.8254674
0.1433603,0.5558953,0.8243484
0.144617,0.5582734,0.8228004
0.1428106,0.5607262,0.8236568
0.1396547,0.5642521,0.8229524
0.1401157,0.564874,0.8215793
0.1409958,0.5641418,0.8218396
0.1417714,0.5653991,0.8202293
0.1432067,0.5641778,0.8202374
0.1398749,0.5593964,0.8255427
0.1339952,0.5577883,0.828111
0.132596,0.5602353,0.8257474
0.1353065,0.5626773,0.8260054
0.1368185,0.5622373,0.8271192
0.1351022,0.5609895,0.8251722
0.1341125,0.5617107,0.8246517
0.1356693,0.5592605,0.8286314
0.1383878,0.5561463,0.834797
0.1411623,0.5572925,0.8336341
0.1408626,0.5582997,0.8286021
0.139401,0.5601757,0.8305913
0.1402793,0.5619941,0.8286099
0.1387497,0.5609406,0.8257685
0.1367656,0.5608821,0.8271143
0.1395169,0.5613689,0.8222865
0.1402246,0.5609944,0.8254448
0.135625,0.5616289,0.8304396
0.1318274,0.5638615,0.824375
0.1329123,0.5660459,0.8245737
0.1344065,0.5657784,0.8247273
0.1327084,0.5655814,0.8197965
0.1340957,0.5663159,0.8174566
0.1384073,0.5624472,0.8169421
0.141013,0.5585308,0.8192881
0.1411303,0.5631309,0.8177909
0.1393189,0.5673904,0.8172895
0.1402504,0.5649397,0.8192652
0.1400161,0.5647445,0.817093
0.137741,0.5669423,0.8183551
0.1388213,0.5666225,0.8184408
0.1362174,0.5666212,0.8181594
0.1324577,0.5668323,0.8233188
0.1345802,0.5664457,0.8251665
0.1404326,0.5662917,0.8214611
0.1485105,0.5639631,0.8149827
0.1491853,0.5615743,0.8152562
0.1407384,0.5628823,0.8227419
0.1343491,0.5656641,0.8262675
0.1336379,0.5668726,0.825424
0.1357347,0.5649459,0.822161
0.1366239,0.5622398,0.8216328
0.1376936,0.5633873,0.82245
0.1389212,0.5664039,0.8225755
0.1380145,0.5670959,0.8261929
0.1395608,0.5662629,0.8249337
0.1428532,0.5647793,0.8208479
0.1448511,0.563729,0.8191343
0.1466025,0.5657164,0.8164819
0.1470942,0.5689559,0.8172362
0.1455535,0.5710582,0.8188487
0.1429184,0.5721608,0.8209157
0.1433935,0.569988,0.8224475
0.1453628,0.5663392,0.8199663
0.1441974,0.5662613,0.8199601
0.1440367,0.5665161,0.8181239
0.1437642,0.566024,0.8164732
0.1415613,0.567497,0.8195012
0.1419841,0.567145,0.817682
0.1446371,0.56586,0.8173924
0.1475186,0.5646075,0.8191607
0.1478505,0.5627766,0.8171591
0.1462675,0.5642938,0.8188993
0.1456347,0.5641145,0.8213896
0.144057,0.5623849,0.8241752
0.1433899,0.5636128,0.8261716
0.1419003,0.5629171,0.8224055
0.1364726,0.5623286,0.8219456
0.1360867,0.5625736,0.8247774
0.1430409,0.5622613,0.8270396
0.1469948,0.5623313,0.8287992
0.1427377,0.5595366,0.827391
0.1383711,0.5575445,0.8252709
0.1421955,0.5591456,0.8166108
0.1445641,0.5630404,0.8077145
0.1412208,0.5663206,0.8187592
0.140541,0.5637431,0.8324673
0.1372395,0.5611912,0.8280248
0.1311652,0.5627372,0.8241329
0.1311837,0.5627486,0.8235493
0.1329781,0.5608032,0.8155963
0.1335851,0.5589933,0.8172514
0.1350622,0.5571647,0.8236788
0.1351709,0.5574254,0.8198981
0.1342415,0.5600952,0.82013
0.134806,0.5609567,0.8229563
0.1350051,0.5608501,0.8239102
0.1341621,0.5603887,0.8303979
0.1335182,0.558056,0.836308
0.1304193,0.5571563,0.8343767
0.1276393,0.5569174,0.8294809
0.1277483,0.5566704,0.8312986
0.1270491,0.5572645,0.8289917
0.127522,0.556605,0.8219429
0.1289616,0.5560034,0.8266073
0.1300691,0.5551134,0.8287419
0.1327192,0.5538048,0.8262147
0.132387,0.5547308,0.8259562
0.1303064,0.5575343,0.8185967
0.1319735,0.5594056,0.8159488
0.1340754,0.5581585,0.8232494
0.1341802,0.5583563,0.8286434
0.130624,0.5616425,0.827182
0.1273054,0.5624506,0.825552
0.1346187,0.5597113,0.8288269
0.1430078,0.5547372,0.8261668
0.1423924,0.5510285,0.8232992
0.1422562,0.5504103,0.8269082
0.1371872,0.5528766,0.8292091
0.1267086,0.5578265,0.8330436
0.1297678,0.5586733,0.831746
0.1352996,0.5585935,0.8234033
0.1319161,0.558481,0.8176336
0.1337705,0.554213,0.815428
0.135128,0.5568261,0.8196954
0.1336204,0.5609793,0.8225402
0.136758,0.5593645,0.8205082
0.1387471,0.5611958,0.8235977
0.1429451,0.5606136,0.826148
0.1449699,0.5580112,0.8248749
0.1420887,0.5548885,0.8247539
0.1412173,0.5497438,0.8247331
0.1360246,0.5567258,0.823192
0.1365501,0.5642859,0.8205556
0.1425547,0.5611381,0.8206242
0.1406266,0.5630656,0.822144
0.1400595,0.5670017,0.8220657
0.137883,0.5684212,0.8211582
0.13684,0.5698546,0.8186081
0.1433942,0.5688638,0.8175734
0.1457229,0.5693338,0.8198314
0.1473832,0.5679702,0.823549
0.1490593,0.5652983,0.8277325
0.1476093,0.5661414,0.8304434
0.1471618,0.5648295,0.831567
0.1467134,0.563013,0.8265326
0.1472012,0.562503,0.8148592
0.1444921,0.5617874,0.8096996
0.1426558,0.5608121,0.8130841
0.1482788,0.5545347,0.8144416
0.1531854,0.5501416,0.8146052
0.1530325,0.5573351,0.8181719
0.1481386,0.5667052,0.8214885
0.1442652,0.5700703,0.8225285
0.1441329,0.5719619,0.8214707
0.1444832,0.5731797,0.8191773
0.1459648,0.5718682,0.8203001
0.1466672,0.5729511,0.8251303
0.147378,0.5742865,0.8278743
0.1466266,0.5722591,0.82215
0.1454612,0.5719906,0.8138351
0.1489483,0.5718148,0.815212
0.1508485,0.569053,0.8168224
0.1500018,0.5654689,0.8125292
0.1497887,0.5633157,0.809533
0.1499602,0.5643132,0.8070107
0.1503051,0.5648277,0.8181044
0.1500219,0.5652546,0.8344626
0.1524567,0.5666653,0.8271766
0.1561467,0.5692441,0.8176809
0.1555005,0.5737653,0.8191844
0.1464827,0.5727634,0.8168046
0.136374,0.5698984,0.8191884
0.139733,0.5714489,0.8208337
0.1451909,0.5703772,0.8175809
0.1446135,0.5686441,0.8185737
0.1484317,0.5681221,0.8168061
0.148935,0.5668278,0.8193177
0.1463493,0.5659369,0.8245547
0.1481055,0.563053,0.8207381
0.1468867,0.562937,0.8206679
0.1467842,0.5642099,0.8251855
0.1473982,0.5615189,0.8270405
0.1426645,0.5626788,0.8269911
0.1400124,0.5652794,0.8249979
0.1408749,0.565908,0.8240553
0.1457745,0.567384,0.8216961
0.1504972,0.5655301,0.8212651
0.1464513,0.5646147,0.823613
0.139896,0.5661778,0.8225321
0.1361036,0.566748,0.823312
0.1371472,0.5683268,0.8226225
0.1408894,0.5662454,0.8197292
0.1419857,0.5626377,0.8237905
0.1436123,0.5636507,0.8291091
0.1431469,0.5648322,0.8307578
0.1404431,0.5656123,0.8275625
0.1413716,0.5676062,0.8229302
0.145544,0.5670107,0.8243363
0.1512078,0.5635914,0.8224778
0.1504801,0.5617475,0.8178611
0.1443046,0.5608931,0.822301
0.1414207,0.5611077,0.8263458
0.1393135,0.5644323,0.8246726
0.139933,0.5655327,0.8249855
0.1416816,0.5634937,0.8262087
0.1413648,0.5615622,0.826085
0.145079,0.5602987,0.8247745
0.1471264,0.5591908,0.8234436
0.1462081,0.5555556,0.826085
0.1452021,0.5543807,0.8291306
0.140837,0.559452,0.8273923
0.1414909,0.5637665,0.8253662
0.145625,0.5604271,0.8250075
0.147126,0.5550544,0.8244433
0.1498148,0.5571544,0.8243449
0.1497484,0.558182,0.8232653
0.1466241,0.5579218,0.8217507
0.1425863,0.562863,0.819784
0.1405353,0.5623841,0.8188711
0.1445732,0.5583048,0.8279887
0.1479287,0.5563499,0.8389837
0.1484842,0.5561534,0.8360889
0.1444392,0.558863,0.8288182
0.1330942,0.5610169,0.8271634
0.1271046,0.5643389,0.8265976
0.1335644,0.5625373,0.8246398
0.1407974,0.5582051,0.8212754
0.1393741,0.5656098,0.82143
0.1385661,0.570473,0.824978
0.1418042,0.5657549,0.8258397
0.140887,0.5622972,0.8275719
0.1414115,0.5592692,0.8285693
0.1425926,0.5583682,0.8293046
0.1411549,0.5593418,0.8330034
0.1441757,0.5588098,0.8284762
0.146966,0.5582839,0.8229951
0.1472758,0.5589665,0.825644
0.1465114,0.5629807,0.8251411
0.1435606,0.566691,0.8240031
0.1417289,0.5656041,0.8228273
0.1396184,0.5646322,0.8197879
0.1398715,0.5665721,0.8216347
0.1424657,0.5674787,0.8230905
0.1431648,0.5691682,0.8222342
0.1450716,0.5755112,0.8239241
0.1448828,0.5789451,0.8257392
0.1439656,0.5742611,0.8238841
0.1470079,0.5695916,0.8182556
0.1485543,0.5683894,0.8142585
0.1495125,0.5647011,0.8175349
0.1516167,0.5620675,0.8232823
0.1513121,0.5651052,0.8223164
0.1482809,0.5660245,0.8195153
0.1472392,0.5658923,0.8198432
0.1498995,0.5659579,0.8198277
0.1500698,0.5627701,0.8206115
0.1520512,0.5648898,0.8176609
0.1552261,0.5684202,0.8133711
0.1490972,0.5682062,0.815507
0.1441164,0.571574,0.8171767
0.1451203,0.5746706,0.8208337
0.1447274,0.5751973,0.8260309
0.1464222,0.573394,0.8191006
0.1501916,0.5710192,0.8099807
0.1534237,0.5722395,0.8128133
0.1548166,0.5701514,0.81766
0.1541549,0.5657261,0.8189791
0.1547258,0.564696,0.8203604
0.1577428,0.5645742,0.8190155
0.1609526,0.5630625,0.8180325
0.1593182,0.5605689,0.8184183
0.1547508,0.5637105,0.8159435
0.1509905,0.5688805,0.8139866
0.1486755,0.5680404,0.8120501
0.1498681,0.5668519,0.8126379
0.1488054,0.5668321,0.8153008
0.1459447,0.5672619,0.8126331
0.1470569,0.5688378,0.8107052
0.145709,0.569441,0.8121116
0.1424683,0.5721192,0.8165024
0.1443045,0.5746631,0.8201731
0.1504886,0.5719479,0.8151877
0.1558295,0.568575,0.8133054
0.1530871,0.569311,0.8169322
0.1483185,0.5720815,0.8209918
0.1506557,0.5706752,0.8257801
0.1524356,0.56503,0.8176881
0.1520512,0.562049,0.8084689
0.1514649,0.5621257,0.8154519
0.1471718,0.5621258,0.8215373
0.1462978,0.5600696,0.8232633
0.1476974,0.5576787,0.8254994
0.1446197,0.5614009,0.8205672
0.142006,0.5669388,0.8158675
0.1402371,0.5680489,0.8182899
0.1403702,0.567528,0.8181211
0.1437809,0.5644552,0.8137258
0.1463891,0.561436,0.8118614
0.1461979,0.5633675,0.8142065
0.1427318,0.5657075,0.8199977
0.1421953,0.5653157,0.8238498
0.1439723,0.5647051,0.8227416
0.1422474,0.5633651,0.8232496
0.1411987,0.5598702,0.8259696
0.1401259,0.5580254,0.8249557
0.1394317,0.5584322,0.8224399
0.1393989,0.5582394,0.8223462
0.1347546,0.558384,0.823298
0.1324664,0.5587283,0.8258563
0.1362587,0.5600042,0.8281892
0.1386126,0.5617964,0.8271859
0.1366921,0.5605087,0.8247225
0.1324068,0.5571493,0.8211089
0.1298143,0.5552538,0.8213756
0.1309347,0.5577936,0.8295132
0.1328885,0.561242,0.8357321
0.1317955,0.5588783,0.8332851
0.1303778,0.5544085,0.8282582
0.1311325,0.5525119,0.8269929
0.1314592,0.5538229,0.8260165
0.1346738,0.5563269,0.8235995
0.1393719,0.5530523,0.821566
0.1404804,0.5492164,0.819527
0.1384255,0.5501803,0.8241974
0.1327777,0.5501918,0.8306419
0.1279245,0.5566781,0.8284993
0.1261158,0.5656415,0.8273029
0.1291855,0.5602715,0.828643
0.1369575,0.5544022,0.8266696
0.138006,0.5580236,0.825054
0.133459,0.5584609,0.8234394
0.1313166,0.5586992,0.823683
0.1331706,0.5617747,0.8257819
0.1361141,0.5610566,0.8230988
0.1335324,0.5604675,0.8215846
0.1329071,0.5599664,0.825452
0.1374053,0.5580737,0.8268281
0.1407128,0.5591005,0.8245039
0.143564,0.5586539,0.8213181
0.1425813,0.5575276,0.8191081
0.142196,0.5592686,0.8181737
0.1465109,0.5600323,0.8193346
0.1476498,0.5620815,0.8229269
0.1454605,0.5654818,0.8222894
0.1435862,0.5679346,0.8196411
0.1445082,0.5690571,0.8199081
0.1459818,0.5675011,0.8207588
0.1453419,0.5676621,0.8228586
0.1452545,0.5678142,0.8217368
0.1441463,0.5656174,0.8201603
0.1442235,0.5660719,0.8241382
0.1459719,0.5661125,0.8251266
0.1456726,0.5654109,0.8213333
0.1463512,0.5657035,0.8187669
0.1480305,0.5649195,0.821637
0.1508365,0.5664957,0.8253388
0.1539372,0.5686807,0.8220153
0.155636,0.5705933,0.8187366
0.1596567,0.5733583,0.8161418
0.1615521,0.5726674,0.8136422
0.1590491,0.5737119,0.8209976
0.1561303,0.5779081,0.8271737
0.1529876,0.5779543,0.8204042
0.1551392,0.5755186,0.8139099
0.1625294,0.5732373,0.8137906
0.1676643,0.5717474,0.8107994
0.1665856,0.5725453,0.808657
0.1592785,0.5747957,0.8140679
0.1551225,0.5748947,0.817059
0.1569643,0.5701624,0.8160939
0.1574771,0.5663405,0.8163912
0.156542,0.5672332,0.8160648
0.1557113,0.5681563,0.8186517
0.1546332,0.5686974,0.8219078
0.1540868,0.5697984,0.8211934
0.1558694,0.5686591,0.8182098
0.1580733,0.5677191,0.8137885
0.157857,0.5704205,0.8142317
0.1593728,0.5733301,0.8152263
0.1617352,0.5735317,0.8098837
0.1628115,0.5709679,0.8107181
0.1636331,0.5690491,0.8164773
0.1596124,0.5729102,0.8158492
0.1543682,0.5760122,0.8143641
0.1537291,0.5713576,0.8148162
0.1537734,0.5676289,0.815729
0.1543924,0.569449,0.8205748
0.1550486,0.5690717,0.8252809
0.1534622,0.5664088,0.8220942
0.1542183,0.5666554,0.8180026
0.1557758,0.5654534,0.8197035
0.1552978,0.5630067,0.818878
0.1569948,0.5655207,0.8170984
0.158169,0.5675098,0.8185715
0.1582441,0.5669083,0.817972
0.158283,0.568547,0.8178579
0.1549896,0.568273,0.8183752
0.1526047,0.5664428,0.8188183
0.1524363,0.5668825,0.823617
0.1515614,0.5665279,0.8270821
0.1468842,0.5660085,0.8224753
0.1406914,0.5643248,0.8173637
0.1439687,0.5616878,0.8211234
0.1517759,0.5641394,0.8247265
0.1552445,0.5666984,0.8236842
0.1541146,0.566002,0.8266095
0.1476437,0.5675882,0.8271741
0.1447168,0.5684312,0.8244893
0.1477355,0.5657994,0.8226388
0.149231,0.5635496,0.8175438
0.147922,0.5629354,0.8171582
0.1459608,0.5636188,0.8197148
0.1457021,0.5658528,0.8199559
0.1442565,0.5672767,0.8232633
0.1439659,0.5653688,0.823
0.1473328,0.5626857,0.8228309
0.1482841,0.561285,0.8292063
0.1484789,0.5607266,0.83093
0.1471394,0.5608601,0.8253746
0.1446763,0.5594709,0.8179226
0.1461233,0.5575735,0.8145566
0.1462888,0.5586085,0.8147559
0.1462802,0.5607162,0.8134734
0.147866,0.5629567,0.8150798
0.1473055,0.5671422,0.8183564
0.1479396,0.5711237,0.8208451
0.1496157,0.5705997,0.8233798
0.1512791,0.5663145,0.8221994
0.1534371,0.5637439,0.8216286
0.153182,0.5625266,0.8228158
0.1520305,0.5613703,0.8214048
0.1517091,0.5622005,0.8194967
0.1495489,0.5610771,0.8174706
0.1470717,0.5600663,0.8174782
0.1461427,0.5609538,0.8193826
0.1441476,0.5582012,0.8211006
0.1445479,0.55765,0.8267844
0.1466798,0.5592921,0.8314369
0.1437952,0.5586825,0.8299576
0.1422041,0.5601711,0.8275501
0.1453155,0.5596457,0.8249001
0.1491301,0.5573366,0.82345
0.1523843,0.5569261,0.8221372
0.1495447,0.5571909,0.818708
0.1441315,0.5608941,0.8214215
0.1433634,0.5638015,0.8257129
0.1436084,0.5634416,0.8231637
0.1433242,0.5636195,0.8238359
0.1414296,0.5623102,0.8278933
0.1391388,0.5575748,0.8260254
0.1404612,0.553035,0.8206295
0.1407424,0.5538776,0.8181522
0.140238,0.5562749,0.8187979
0.1432899,0.5574426,0.8191984
0.1461538,0.5608144,0.8231984
0.1490024,0.561941,0.8277048
0.1513469,0.5613739,0.8252732
0.1463101,0.5647569,0.8242973
0.1387679,0.5676832,0.8251634
0.1404097,0.566075,0.8223465
0.147031,0.5642564,0.8191913
0.1491529,0.5655427,0.8180441
0.1469777,0.5656623,0.8233976
0.1430938,0.564531,0.8285133
0.1431017,0.5645699,0.8254552
0.1459061,0.562888,0.8236348
0.1460813,0.5625724,0.8246807
0.1484034,0.5637224,0.8234704
0.1496174,0.5618208,0.8220135
0.1479755,0.5603271,0.818757
0.1498105,0.5596759,0.8144323
0.1504147,0.5595984,0.8188192
0.149904,0.5620972,0.8252537
0.1510899,0.5638914,0.8218509
0.151309,0.5643047,0.821316
0.1505512,0.5655096,0.8257938
0.1485979,0.568916,0.8265987
0.1498473,0.5718726,0.8284384
0.1569736,0.5690353,0.8269438
0.1624664,0.5659621,0.8202587
0.1569917,0.5682389,0.8150963
0.1473586,0.5712134,0.8141139
0.1488899,0.5728466,0.8185823
0.1550981,0.5723924,0.8209525
0.1568155,0.5707084,0.8196046
0.1535239,0.5706967,0.8179465
0.1476467,0.5697765,0.8159642
0.1512601,0.5682915,0.817214
0.1574228,0.568468,0.816594
0.1584699,0.5678286,0.8148382
0.1626659,0.5662018,0.8148646
0.1649348,0.5655031,0.8116822
0.1663215,0.5664657,0.8105058
0.1647265,0.5679418,0.8102686
0.1565965,0.5691808,0.8120307
0.1560415,0.5698865,0.8183737
0.1575532,0.5692512,0.8180415
0.1554263,0.5693724,0.8139318
0.1556011,0.5696695,0.8121371
0.1541012,0.5692006,0.8142662
0.1531659,0.5696017,0.8204676
0.1528169,0.5687103,0.8209227
0.153236,0.5657659,0.8170007
0.1551027,0.5635068,0.8142939
0.1538065,0.5659739,0.8151426
0.1540085,0.5698054,0.8191175
0.1546026,0.568142,0.8196407
0.1544086,0.5684337,0.8190243
0.1580733,0.5724031,0.8168826
0.1607006,0.5715797,0.8139836
0.1588016,0.5670825,0.8167659
0.1528717,0.5613739,0.8218512
0.1482366,0.5597203,0.8264922
0.149969,0.5629512,0.8248179
0.1527088,0.5627588,0.8170984
0.1525975,0.5620577,0.8143497
0.1503907,0.563454,0.8171436
0.1468561,0.5649053,0.8246459
0.1448991,0.5673766,0.8296681
0.1471689,0.566215,0.8250607
0.1498334,0.564326,0.8220873
0.1500685,0.5666093,0.824806
0.1502643,0.5671211,0.8258249
0.1498054,0.5659856,0.8243902
0.1498973,0.5652112,0.8239794
0.1506925,0.5641965,0.8237751
0.1516085,0.5653127,0.8232719
0.1544038,0.5656821,0.824695
0.1543506,0.5638978,0.8242309
0.1516516,0.5637022,0.8221908
0.1498884,0.5640151,0.8220875
0.1476877,0.5636046,0.8219392
0.1468657,0.5627315,0.8215184
0.147186,0.5603963,0.8206806
0.1471223,0.5590414,0.8216513
0.1464065,0.5594463,0.8238718
0.1451899,0.558149,0.8248776
0.1449972,0.5563977,0.8298459
0.1443509,0.5576508,0.8342359
0.1441172,0.5591039,0.8273282
0.1448065,0.5584993,0.8163738
0.1442838,0.5598649,0.8159776
0.1447368,0.5620253,0.8221683
0.1464201,0.5610916,0.8252223
0.1472209,0.560709,0.8283913
0.145223,0.5612927,0.8294147
0.1407971,0.5597329,0.8282694
0.1406275,0.5574115,0.8312356
0.1468112,0.5550176,0.8300958
0.1518311,0.5524696,0.8258305
0.1484653,0.5508279,0.8267058
0.1406687,0.5510516,0.8272851
0.1378073,0.5524214,0.8277823
0.1394874,0.5542633,0.8271011
0.1410903,0.5581319,0.820885
0.139674,0.5602653,0.8169734
0.1360205,0.5584395,0.8203216
0.1349439,0.5580921,0.8253041
0.1377544,0.558507,0.8257415
0.1418291,0.5577832,0.8258509
0.1408811,0.5567488,0.8284081
0.1388086,0.5548904,0.8301803
0.141301,0.5553113,0.8343295
0.140232,0.5563181,0.8337841
0.1395418,0.5560214,0.8297396
0.1412502,0.5573093,0.8326838
0.1395862,0.557941,0.831158
0.1404255,0.5600336,0.8273135
0.1406384,0.5632041,0.8278993
0.1396525,0.5584113,0.825408
0.1408647,0.5503968,0.8246754
0.1396009,0.5499141,0.8254665
0.137394,0.5561882,0.8265271
0.1318988,0.5628716,0.8293205
0.127967,0.5637409,0.8302312
0.1355513,0.5612287,0.8328754
0.1444742,0.5604795,0.834442
0.1457065,0.5576332,0.8339293
0.1439264,0.5545771,0.8337054
0.1437042,0.5549239,0.8309958
0.14185,0.5536238,0.8315575
0.1373553,0.5523224,0.8323586
0.1367023,0.5532008,0.8285184
0.1398255,0.5543139,0.826812
0.146332,0.5557198,0.8262885
0.1537859,0.5556142,0.8260442
0.1501466,0.5576069,0.8260549
0.1395046,0.5640098,0.8230031
0.1370324,0.5698556,0.8211204
0.1425788,0.5726988,0.8212143
0.1480156,0.5727858,0.8163506
0.1463819,0.5701866,0.8121059
0.1431042,0.5635697,0.8222737
0.1458632,0.5588855,0.834901
0.1471694,0.5575428,0.8320092
0.1487366,0.5542996,0.8282857
0.1511162,0.5562156,0.8313388
0.1501639,0.5584194,0.8288961
0.1539052,0.5563982,0.8264524
0.1544153,0.5608676,0.8276162
0.1486189,0.5670401,0.8242554
0.1465966,0.5708922,0.8204811
0.1464226,0.571766,0.820293
0.148043,0.5689934,0.8195627
0.1472768,0.5694812,0.8195742
0.1467065,0.5694377,0.823323
0.150095,0.5680018,0.8264295
0.150396,0.5668146,0.825397
0.1528869,0.5632374,0.8234454
0.1546347,0.561564,0.8215373
0.1511679,0.5609786,0.8198518
0.1493336,0.5607849,0.8191186
0.1492949,0.5615063,0.8171697
0.1498788,0.5608917,0.815325
0.1482909,0.5605841,0.8153702
0.1489301,0.5589164,0.8179166
0.150409,0.5579202,0.8236645
0.1448419,0.5613417,0.8283524
0.1420444,0.5635686,0.8295116
0.1449636,0.5624031,0.8298871
0.1476716,0.5619446,0.8310595
0.1473706,0.5615835,0.8309778
0.1446657,0.5589683,0.8282157
0.1444188,0.5575544,0.8254787
0.144197,0.5587045,0.8245529
0.1441039,0.5595705,0.823609
0.1430437,0.5612188,0.8215054
0.1405403,0.564261,0.8217487
0.1418952,0.5660183,0.8234616
0.1420015,0.5650693,0.8234739
0.1411716,0.5626985,0.8251035
0.1420781,0.560404,0.8239643
0.1417928,0.5590325,0.821708
0.1434944,0.5595113,0.8279597
0.1451,0.5597858,0.8323248
0.1442823,0.5602029,0.8286642
0.1431689,0.5623937,0.8263686
0.1417542,0.5610132,0.8265452
0.1407239,0.5573184,0.8239811
0.1406207,0.5568138,0.8217642
0.1406049,0.5574162,0.8276823
0.1375671,0.5605587,0.8325991
0.1352922,0.5635546,0.8285754
0.1389673,0.5606875,0.8264176
0.1419294,0.5580922,0.8275213
0.1418966,0.5572767,0.8244869
0.1431742,0.5550138,0.8206864
0.1438368,0.5549523,0.8219963
0.1436341,0.5571202,0.8235389
0.1456302,0.5598686,0.8232876
0.1463747,0.563364,0.8256616
0.1435543,0.5620548,0.8255785
0.1397965,0.5568591,0.8240655
0.1362468,0.5564812,0.8257642
0.1382632,0.5573189,0.8260495
0.1458664,0.5565555,0.8271731
0.1499388,0.5574939,0.8279295
0.1484308,0.5576506,0.8237654
0.1455777,0.5588561,0.8211051
0.1445802,0.5609384,0.8220861
0.1403271,0.5628049,0.8229002
0.1354842,0.5641685,0.8229282
0.1408373,0.5591943,0.8238396
0.1453845,0.5550745,0.8253507
0.1440056,0.5571226,0.8271317
0.1447818,0.5569456,0.8306665
0.1443182,0.5536997,0.8308999
0.1439183,0.551065,0.8290446
0.143405,0.5513632,0.8314929
0.1421199,0.5535336,0.8310689
0.1431026,0.5549383,0.8271978
0.1406256,0.5563151,0.8257819
0.138105,0.5578621,0.8229199
0.1388114,0.558083,0.8193211
0.136126,0.5564632,0.8188361
0.1343849,0.556768,0.8236641
0.1383174,0.5584623,0.8296353
0.1413878,0.5582018,0.824908
0.1384917,0.5580964,0.8193511
0.13521,0.5564433,0.8243851
0.1360322,0.5538516,0.8278668
0.135882,0.5541618,0.8328974
0.1354738,0.5555458,0.8402646
0.1367928,0.5572454,0.8356596
0.1363198,0.5575486,0.8306199
0.1371827,0.5558658,0.8325884
0.1385201,0.5545136,0.8316204
0.1368722,0.5534912,0.8307713
0.1370327,0.5552171,0.8307591
0.1362922,0.5569544,0.8298663
0.1335888,0.5548009,0.8300356
0.1358515,0.5550492,0.827987
0.14079,0.5553881,0.824313
0.1450177,0.5522369,0.8216107
0.1456693,0.5525963,0.8224042
0.1424022,0.5536024,0.825821
0.1400138,0.5545692,0.8247683
0.1358444,0.5591809,0.8225742
0.1344518,0.5604416,0.8229244
0.1376241,0.5585817,0.824441
0.1355545,0.5579827,0.8285067
0.1345495,0.5582467,0.8290664
0.1362418,0.5586803,0.8291836
0.1377071,0.5580424,0.8325898
0.1441447,0.5583802,0.8299586
0.1469413,0.5585327,0.8265867
0.1467299,0.558015,0.8259495
0.1481015,0.5586101,0.8250109
0.1456257,0.5582121,0.8279043
0.1454974,0.5582709,0.8285563
0.1462016,0.5588844,0.8264267
0.144355,0.5598899,0.8255655
0.1445972,0.5620071,0.8232841
0.1442156,0.5621612,0.8257055
0.1444593,0.5624728,0.8292422
0.1447312,0.5638458,0.8253369
0.1440005,0.5638803,0.8220552
0.1448164,0.563265,0.8225289
0.1443106,0.560316,0.8238493
0.1450223,0.5574776,0.8260777
0.148331,0.5598503,0.8269764
0.1507527,0.5623916,0.8272418
0.1506536,0.5614447,0.8255235
0.1493027,0.5632967,0.8214323
0.151176,0.5664765,0.8216281
0.1518717,0.5644591,0.8234539
0.1499164,0.563056,0.8231354
0.1495302,0.5652955,0.8234071
0.1471602,0.5655824,0.820449
0.1464556,0.56472,0.8181994
0.1528886,0.5632379,0.8219262
0.1590278,0.5601066,0.8222944
0.1553059,0.5589969,0.8172999
0.1476063,0.5602836,0.8112943
0.1456841,0.5620355,0.8084083
0.1439038,0.5651455,0.8128646
0.143634,0.5688042,0.8166689
0.1456985,0.569589,0.8179145
0.1436668,0.5663847,0.8238528
0.1447438,0.562264,0.8282223
0.1469351,0.5608714,0.8256065
0.1468802,0.5616487,0.8235677
0.1480662,0.5627794,0.8248411
0.1470196,0.5643931,0.8243007
0.1488965,0.5639248,0.8236613
0.150838,0.5614816,0.8237996
0.1472926,0.5612452,0.8207278
0.1449906,0.5627848,0.8176693
0.1438234,0.5644893,0.8160745
0.1442142,0.5639122,0.816153
0.1440625,0.5615847,0.817505
0.1420405,0.5618652,0.8162313
0.1422056,0.5629925,0.8166622
0.1403496,0.5643996,0.818147
0.1381115,0.5658691,0.8189626
0.1393375,0.5652389,0.8247565
0.142667,0.5649521,0.8289839
0.1487305,0.5644978,0.8256126
0.1518471,0.5628421,0.8227072
0.1465833,0.5600892,0.8280167
0.1409844,0.5562979,0.8325243
0.1453764,0.5553257,0.8273597
0.149755,0.5559373,0.8248272
0.1462179,0.5560327,0.8270505
0.1466124,0.5592517,0.8274528
0.1473825,0.5633252,0.8315828
0.1448135,0.5629987,0.8357406
0.1479139,0.5623567,0.8317727
0.1523209,0.5654896,0.826852
0.15504,0.5675789,0.8274812
0.1553596,0.5661629,0.8203826
0.154758,0.5636234,0.8059552
0.157495,0.5617021,0.8063408
0.1538826,0.5610017,0.8172765
0.1463182,0.5594707,0.8243884
0.1454259,0.5573541,0.8267281
0.1479928,0.5565801,0.8249998
0.1522232,0.5536472,0.8248665
0.153791,0.5498028,0.8252782
0.1519279,0.5511794,0.8245554
0.1507366,0.5523951,0.8257773
0.1471978,0.5511347,0.8273214
0.1436511,0.5544041,0.8317569
0.143502,0.557992,0.8339326
0.1472302,0.5587759,0.8266934
0.1518476,0.5598018,0.8181676
0.150315,0.557784,0.8149119
0.1489969,0.5542495,0.8160872
0.1517516,0.5541571,0.8173557
0.1518956,0.5570253,0.8179381
0.1528613,0.5591079,0.8213676
0.1550587,0.5573742,0.8249484
0.1543042,0.5552679,0.8252833
0.1547214,0.554974,0.8229606
0.1561344,0.5520867,0.8220415
0.1555412,0.5460015,0.8250211
0.1551362,0.5444336,0.8271944
0.1548589,0.5525647,0.8256652
0.1538555,0.5600857,0.8241476
0.1536206,0.5571662,0.8250398
0.1525181,0.5542569,0.8244288
0.1492542,0.5565047,0.8233925
0.1458839,0.5557917,0.8281086
0.1399718,0.5567316,0.8373529
0.1314905,0.5593563,0.8471979
0.1280103,0.5562073,0.8548072
0.1315332,0.5548109,0.8568201
0.1434033,0.5570171,0.8417889
0.1622066,0.5580414,0.8113295
0.1682082,0.5587247,0.8017427
0.1542731,0.5578439,0.8188584
0.1458956,0.5555543,0.8267819
0.1524532,0.5507626,0.8215903
0.1545766,0.5468052,0.8190633
0.1504745,0.5488289,0.8182713
0.1503119,0.5502937,0.8177568
0.1501911,0.5501486,0.8212016
0.1496521,0.5536643,0.8245907
0.1520329,0.5583951,0.8254075
0.1551407,0.5600158,0.8307617
0.1577597,0.5581101,0.8361613
0.1562362,0.5577583,0.834759
0.1525131,0.5599302,0.8309921
0.1530129,0.5598491,0.8251748
0.1548791,0.5589474,0.8196527
0.1567563,0.5573325,0.8211052
0.1575649,0.5545098,0.8259346
0.1551414,0.5552965,0.8270134
0.1539022,0.5566595,0.8278074
0.1544304,0.5568017,0.8285914
0.1565237,0.5589798,0.8267465
0.1580917,0.5589578,0.8271718
0.1562872,0.5584742,0.8264886
0.1568376,0.560449,0.8255461
0.1575342,0.5598349,0.827278
0.1559508,0.5597383,0.8259684
0.1555194,0.5628671,0.8256824
0.1538172,0.564349,0.823744
0.1545393,0.5632144,0.8180806
0.1568285,0.5613153,0.8182404
0.1560339,0.5597844,0.822743
0.1561523,0.557969,0.826265
0.1530096,0.5575777,0.8246197
0.1487552,0.5592867,0.8223037
0.1540535,0.5590751,0.8251915
0.1613069,0.559552,0.8238604
0.16186,0.5606521,0.8160657
0.1598922,0.5601396,0.8086765
0.156624,0.5627892,0.8083469
0.1528977,0.5650045,0.8142562
0.1535915,0.5651572,0.8182241
0.1548414,0.5662203,0.8227734
0.1518788,0.5671395,0.8238974
0.1510079,0.5712785,0.8185106
0.1540447,0.5731288,0.8129977
0.1573268,0.5685513,0.8054477
0.1593286,0.5652371,0.8092106
0.1584913,0.5638278,0.8196665
0.1587069,0.5633561,0.8155981
0.1604949,0.5623132,0.8161828
0.1589204,0.5605294,0.821795
0.1558265,0.5621366,0.8217348
0.1534535,0.5640232,0.8282524
0.1531582,0.5639902,0.8280812
0.1530602,0.5640551,0.8247512
0.1496516,0.5650708,0.8293596
0.1491923,0.567417,0.8258967
0.1505414,0.5684861,0.8235338
0.1477542,0.5669813,0.8270155
0.1469699,0.5648808,0.8261927
0.149728,0.5632872,0.8264807
0.153541,0.5620865,0.8261223
0.1572583,0.5616882,0.8239431
0.1581559,0.5602642,0.8215096
0.1579313,0.5573108,0.8188339
0.1556207,0.5578952,0.8198831
0.1518124,0.5596105,0.8217704
0.1504578,0.5595382,0.8242293
0.1484607,0.5609371,0.8269918
0.1452639,0.5581645,0.8293877
0.1438902,0.5539169,0.8347612
0.1449568,0.5574203,0.835313
0.1489285,0.5595996,0.8311526
0.1536295,0.5568008,0.8297628
0.153675,0.5569453,0.8264106
0.1458559,0.5589922,0.8247831
0.139537,0.5596289,0.8266267
0.1447747,0.5572742,0.8245348
0.1497715,0.554505,0.8245179
0.1457408,0.5563276,0.8268703
0.1448198,0.5579306,0.8255024
0.1477952,0.5563196,0.8233152
0.146731,0.5559438,0.8189342
0.1453234,0.5558224,0.8168149
0.1445815,0.5560181,0.8214924
0.1456148,0.5573815,0.8264675
0.1484777,0.5561173,0.831532
0.1468111,0.5548594,0.8328708
0.1447683,0.555846,0.8284265
0.1446338,0.5557773,0.8268178
0.1438259,0.5564447,0.82698
0.1448508,0.5582875,0.8262584
0.144536,0.5586081,0.8262845
0.1443402,0.5582572,0.8262232
0.1467492,0.557904,0.8258066
0.1474599,0.5566298,0.8252899
0.1470736,0.5551748,0.8258798
0.1456321,0.5561772,0.8253336
0.1455426,0.557006,0.8230012
0.1479131,0.5532078,0.8229928
0.1473367,0.5500233,0.8258542
0.1458329,0.5513285,0.8295384
0.1454572,0.5521784,0.8301447
0.1437804,0.5513457,0.8262786
0.141339,0.5508831,0.822336
0.1393776,0.5510412,0.8240775
0.1391562,0.5536781,0.8297043
0.141581,0.5555983,0.8340172
0.144962,0.5531105,0.8381477
0.1445143,0.5520438,0.8344378
0.1403438,0.5522439,0.8260126
0.1361996,0.5531148,0.8262432
0.1332544,0.5570162,0.8241952
0.1334897,0.5559763,0.8225917
0.1330414,0.5542617,0.8289151
0.1308509,0.5562826,0.8362613
0.1329143,0.5537814,0.8445387
0.1359593,0.5532995,0.8342527
0.1379219,0.555173,0.8183849
0.1389503,0.5539873,0.8279277
0.1395842,0.5556005,0.8345227
0.1446494,0.5560131,0.8330869
0.1467413,0.5531114,0.8349934
0.1447116,0.5530754,0.829168
0.1446303,0.5563797,0.8297797
0.1397145,0.5595419,0.8319517
0.1355415,0.5586962,0.8271481
0.1372838,0.5574729,0.8278625
0.1352768,0.5588181,0.8268127
0.1322784,0.5580748,0.8257279
0.1341915,0.5561138,0.8277772
0.1364245,0.5554198,0.8293549
0.1357371,0.5551847,0.8328734
0.1368797,0.555848,0.8296893
0.140679,0.5556331,0.8257719
0.1428771,0.5555584,0.8282356
0.1457808,0.5577083,0.8271707
0.1473143,0.5587167,0.8247187
0.1468334,0.5584451,0.8221424
0.1488483,0.5583752,0.8183851
0.1469451,0.5594876,0.8196445
0.1420388,0.5620481,0.8221731
0.1429086,0.5629161,0.8208873
0.1458989,0.5625578,0.822067
0.1487357,0.5623411,0.8247398
0.1534245,0.5626556,0.8219556
0.1546047,0.563606,0.8193262
0.1493555,0.5639153,0.8204497
0.1463232,0.5642951,0.823021
0.1517122,0.5646423,0.8256889
0.1563153,0.565442,0.825845
0.1540641,0.5662043,0.8264938
0.1532569,0.5674693,0.8260982
0.1549446,0.5708479,0.8224247
0.1536393,0.5716696,0.8199369
0.1520519,0.5718048,0.8166731
0.1518515,0.5729219,0.8125868
0.1553289,0.5701122,0.8122792
0.1657469,0.5668435,0.8164463
0.1708902,0.5649993,0.8208912
0.161479,0.5664399,0.8250465
0.1545909,0.5705305,0.8291316
0.1652635,0.5681093,0.8214985
0.1784028,0.5616213,0.8107062
0.17759,0.5577911,0.8168151
0.1699321,0.5614757,0.8270372
0.164689,0.5683671,0.8316776
0.1657219,0.5640223,0.8316759
0.1691544,0.5572215,0.8168165
0.1698927,0.5563626,0.7971881
0.1764801,0.5591856,0.7930471
0.1832482,0.5685503,0.806404
0.1818504,0.5699778,0.8197077
0.1778746,0.5652167,0.8162191
0.1717411,0.5646842,0.8147982
0.174096,0.5594755,0.8223515
0.1792718,0.5590243,0.8200728
0.1737123,0.5619969,0.8170115
0.1725602,0.5609416,0.8141657
0.1729404,0.5651215,0.8079047
0.1709899,0.5647836,0.8147532
0.1742317,0.5622345,0.8277668
0.1743343,0.5649226,0.8325292
0.1767454,0.5626991,0.8278821
0.1808036,0.5619355,0.8180717
0.1779758,0.5646139,0.8123772
0.1771085,0.5667291,0.8118688
0.1782551,0.5709741,0.8145756
0.1783173,0.5713609,0.8157894
0.1779838,0.568862,0.8120995
0.1785224,0.5660195,0.8106304
0.1839682,0.5607296,0.8130574
0.1873048,0.5591981,0.8159437
0.1821881,0.5634561,0.8175205
-0.138333,-0.1219054,-1.007386
-0.1511197,-0.1256517,-0.9934784
-0.1654011,-0.1286161,-0.9812784
-0.1695262,-0.1338659,-0.9751551
-0.1659649,-0.1442285,-0.9787432
-0.1646466,-0.1490836,-0.9871417
-0.1681504,-0.1538651,-0.9953314
-0.1746966,-0.1667529,-1.003277
-0.182263,-0.1822123,-1.002039
-0.177263,-0.1944063,-0.9947043
-0.1643237,-0.1977853,-0.9714964
-0.1640587,-0.1959686,-0.9466719
-0.1628081,-0.1974855,-0.9433498
-0.1591015,-0.1989674,-0.9406853
-0.1642134,-0.1989444,-0.9484259
-0.1671941,-0.1989864,-0.9690465
-0.1711989,-0.1947043,-0.9849925
-0.1724268,-0.1904551,-1.001818
-0.1685429,-0.1918173,-1.002555
-0.1686712,-0.1930193,-0.9929441
-0.1637054,-0.1913261,-0.992347
-0.1594891,-0.1836903,-0.9876689
-0.1617214,-0.1687982,-0.9767187
-0.1659871,-0.159272,-0.9622471
-0.1734784,-0.1589783,-0.9543027
-0.1719318,-0.1589374,-0.9647579
-0.1684416,-0.1585121,-0.983579
-0.1724249,-0.1607515,-1.007094
-0.1707104,-0.1656158,-1.02447
-0.1699017,-0.1698498,-1.021419
-0.1720155,-0.1691726,-1.015967
-0.1689823,-0.1644211,-1.005179
-0.1650584,-0.1575892,-0.9769297
-0.1586097,-0.1536721,-0.9653388
-0.1565772,-0.157113,-0.9742591
-0.1624873,-0.1608057,-0.9751158
-0.1660773,-0.1617307,-0.9772563
-0.1698591,-0.1643473,-0.9895802
-0.1696845,-0.1665471,-1.000123
-0.1626931,-0.1660713,-1.002914
-0.160049,-0.1632566,-0.9994246
-0.1614954,-0.1594937,-0.9920464
-0.1653263,-0.1562909,-0.9819314
-0.1687883,-0.1531091,-0.9746712
-0.1679484,-0.1499708,-0.9762573
-0.1670648,-0.1456986,-0.9820574
-0.1660147,-0.1433944,-0.9862933
-0.1647703,-0.1455509,-0.9908872
-0.1637012,-0.1453253,-0.9931981
-0.1632989,-0.1397368,-0.9935079
-0.1639963,-0.1324247,-0.9947186
-0.1609943,-0.1283504,-0.9906492
-0.1588219,-0.1267798,-0.9876453
-0.1607981,-0.1224066,-0.9910594
-0.1615542,-0.118063,-0.9923902
-0.1605843,-0.1173159,-0.9918743
-0.1581765,-0.1194176,-0.9925604
-0.1563018,-0.1210428,-0.9958178
-0.1566833,-0.1205734,-0.9993689
-0.1574972,-0.121089,-1.000387
-0.1578166,-0.1202992,-1.000591
-0.158309,-0.1178511,-1.000352
-0.1594922,-0.116462,-1.001798
-0.1622751,-0.1174377,-1.00255
-0.1685216,-0.1217178,-1.004191
-0.1711361,-0.1246228,-1.008241
-0.1675379,-0.1302782,-1.003341
-0.1667384,-0.1391122,-0.9917593
-0.1668627,-0.1390483,-0.9851039
-0.1669446,-0.1377211,-0.9872449
-0.1706271,-0.1441774,-0.991211
-0.1729787,-0.1476765,-0.9881383
-0.1716692,-0.1454853,-0.9873196
-0.1697815,-0.1458689,-0.9867795
-0.1701745,-0.1490649,-0.9811725
-0.1707806,-0.1509414,-0.9831005
-0.1714629,-0.1520244,-0.9847521
-0.1740024,-0.1525757,-0.9827118
-0.1734294,-0.1509391,-0.9875158
-0.1708725,-0.1471262,-0.9888851
-0.1680777,-0.1440086,-0.9822771
-0.1658309,-0.1417222,-0.9762043
-0.1697067,-0.14012,-0.9792138
-0.1733133,-0.1445673,-0.9922709
-0.1729963,-0.1489853,-1.002029
-0.1737964,-0.14534,-1.000841
-0.1728806,-0.1432187,-0.9936079
-0.1689252,-0.1458634,-0.9908796
-0.1654372,-0.1463182,-0.9919268
-0.1660827,-0.1455115,-0.9893967
-0.1679007,-0.1464264,-0.9858919
-0.1670323,-0.1486227,-0.9819154
-0.1679595,-0.1506688,-0.983046
-0.1678517,-0.1504201,-0.9881914
-0.1661782,-0.1493615,-0.9900526
-0.1695734,-0.1498918,-0.9939686
-0.1720183,-0.1482511,-0.994477
-0.1706073,-0.1453533,-0.991698
-0.1704329,-0.145692,-0.9890798
-0.1701283,-0.1462305,-0.9822536
-0.1682688,-0.1465683,-0.9830207
-0.1647856,-0.1477783,-0.9883355
-0.1622917,-0.148329,-0.9890028
-0.1667226,-0.1497846,-0.9908611
-0.1734873,-0.1513853,-0.9945616
-0.1730175,-0.1515437,-1.000052
-0.1704978,-0.1517186,-0.9982583
-0.1700469,-0.1531279,-0.9921373
-0.1660193,-0.1547569,-0.9920071
-0.1637694,-0.1547269,-0.9864403
-0.1644794,-0.1560529,-0.9823604
-0.1635279,-0.1605853,-0.9817018
-0.1659196,-0.1634466,-0.9724889
-0.1675636,-0.1644286,-0.9706077
-0.1662189,-0.1666018,-0.9740066
-0.1668275,-0.167798,-0.9763059
-0.1671784,-0.1689691,-0.9856776
-0.1692677,-0.171858,-0.9851344
-0.1718282,-0.1724083,-0.9799124
-0.1705644,-0.1725533,-0.9824185
-0.1684537,-0.1740638,-0.978143
-0.1668162,-0.1714854,-0.976947
-0.1662736,-0.1683253,-0.9810176
-0.166418,-0.1692791,-0.9807329
-0.1648126,-0.169361,-0.9848659
-0.1623315,-0.1665879,-0.9863574
-0.1621916,-0.1638242,-0.9867412
-0.1638146,-0.1624284,-0.9913037
-0.1640283,-0.1605308,-0.9899592
-0.1638818,-0.1591165,-0.9907531
-0.1639063,-0.1607817,-0.9921626
-0.1641417,-0.1616018,-0.9889945
-0.1658256,-0.1610875,-0.988231
-0.1671023,-0.1623858,-0.9855403
-0.1668909,-0.1645602,-0.9870194
-0.1663403,-0.1659521,-0.9904242
-0.16673,-0.1658039,-0.9842887
-0.1670552,-0.1676118,-0.9782779
-0.1676216,-0.1705945,-0.9761347
-0.1703004,-0.1696249,-0.9800248
-0.170964,-0.1687693,-0.9861269
-0.167802,-0.1700829,-0.9832353
-0.1648772,-0.1703058,-0.9837437
-0.1649303,-0.1708527,-0.9898806
-0.1667079,-0.171408,-0.9902617
-0.1667853,-0.1713717,-0.9877674
-0.1665628,-0.1725579,-0.9850562
-0.1668203,-0.172532,-0.9856775
-0.1664787,-0.1717221,-0.9871524
-0.1668028,-0.1725281,-0.9853637
-0.1668321,-0.1724154,-0.9856656
-0.167445,-0.1728671,-0.9838727
-0.1685117,-0.1740104,-0.9808671
-0.1678184,-0.1726188,-0.9838653
-0.1668556,-0.171776,-0.9861254
-0.1656319,-0.1723357,-0.9862263
-0.1646488,-0.1724578,-0.9878593
-0.1650445,-0.1732498,-0.9875739
-0.1662166,-0.1749254,-0.9852586
-0.1677348,-0.176342,-0.9842647
-0.1669975,-0.1765153,-0.9847365
-0.1660118,-0.1769097,-0.9843092
-0.1683539,-0.1790759,-0.9825179
-0.1699276,-0.1813104,-0.9820506
-0.1695582,-0.1818632,-0.9834434
-0.1692073,-0.1843329,-0.9823789
-0.1682026,-0.1891645,-0.9807287
-0.1672808,-0.1880573,-0.9827842
-0.166779,-0.1843943,-0.9830938
-0.1668247,-0.1831746,-0.9828189
-0.1666618,-0.1794268,-0.9841711
-0.1663707,-0.1796127,-0.9826623
-0.1670355,-0.1819221,-0.9823238
-0.1668673,-0.1789157,-0.9829459
-0.1682886,-0.179546,-0.9847713
-0.1701924,-0.1807558,-0.9888376
-0.1683835,-0.1788633,-0.9856711
-0.1675591,-0.1790057,-0.9812023
-0.1682233,-0.176662,-0.9825188
-0.1678937,-0.1755587,-0.9836193
-0.1671656,-0.1779815,-0.9850331
-0.1663024,-0.1771718,-0.9839248
-0.1666852,-0.1741153,-0.9805403
-0.1668064,-0.1714044,-0.9810767
-0.1665224,-0.1725574,-0.984108
-0.1667644,-0.1748575,-0.9866774
-0.1666104,-0.1732053,-0.9836405
-0.1668731,-0.1732676,-0.9782722
-0.1675579,-0.1742235,-0.9789068
-0.168301,-0.1731523,-0.9796855
-0.1682173,-0.1740863,-0.9781802
-0.1679569,-0.1755801,-0.9767489
-0.1692911,-0.1767952,-0.9743126
-0.170619,-0.1779497,-0.9766952
-0.1710907,-0.1782277,-0.9828632
-0.1708749,-0.178629,-0.9835002
-0.1704567,-0.1767588,-0.9801365
-0.1693877,-0.175481,-0.9811075
-0.1655663,-0.1766147,-0.984471
-0.1624302,-0.1745298,-0.9830765
-0.1629018,-0.172774,-0.9827181
-0.1632165,-0.1739834,-0.9844955
-0.1648285,-0.1746072,-0.9836911
-0.17138,-0.1751799,-0.9859705
-0.1751118,-0.1749331,-0.9875291
-0.1701019,-0.1737448,-0.9879366
-0.1642545,-0.1725659,-0.9908867
-0.1635053,-0.1719813,-0.9867813
-0.1657224,-0.1732085,-0.9812787
-0.167659,-0.1740128,-0.9807454
-0.1674254,-0.173193,-0.9787401
-0.1671488,-0.1717166,-0.9785587
-0.1675964,-0.1703764,-0.9798295
-0.1672209,-0.1706208,-0.9789563
-0.1673496,-0.1715414,-0.9789722
-0.167496,-0.1723047,-0.9796524
-0.1668309,-0.1731547,-0.9798908
-0.1656977,-0.1723698,-0.9807783
-0.164193,-0.1715529,-0.9815721
-0.1651899,-0.1728245,-0.9833621
-0.1673198,-0.1730227,-0.9866803
-0.1682622,-0.1725701,-0.9886751
-0.1698298,-0.1723076,-0.9919712
-0.1684364,-0.1708163,-0.9921841
-0.1643853,-0.1707773,-0.9839518
-0.1633846,-0.1709524,-0.9800977
-0.1638288,-0.1705709,-0.9829468
-0.1640394,-0.1711435,-0.9853736
-0.1643117,-0.1708229,-0.9867899
-0.165606,-0.1715152,-0.9842342
-0.1683408,-0.1718309,-0.9829041
-0.1684765,-0.1701854,-0.9840209
-0.1674359,-0.1696821,-0.9831911
-0.1674018,-0.1685155,-0.9851613
-0.1663563,-0.1675147,-0.9869847
-0.1668265,-0.1676753,-0.9858875
-0.1688004,-0.1654749,-0.9860104
-0.1690451,-0.1636533,-0.9862274
-0.1661271,-0.1671862,-0.9860806
-0.1624729,-0.171199,-0.9860931
-0.163892,-0.1695045,-0.9861118
-0.1668682,-0.1690446,-0.9863368
-0.1674245,-0.1729218,-0.9869256
-0.168923,-0.1738538,-0.9876644
-0.1699723,-0.1716802,-0.9863313
-0.1706711,-0.169074,-0.9838131
-0.170655,-0.1679916,-0.9828547
-0.1685627,-0.1683419,-0.9832888
-0.1692113,-0.1684363,-0.9839444
-0.1691953,-0.1717071,-0.9854968
-0.1669206,-0.1749305,-0.9893077
-0.1675832,-0.1736669,-0.9914583
-0.1673937,-0.1730768,-0.9898523
-0.1668538,-0.1742919,-0.9883239
-0.1671071,-0.1754279,-0.9851018
-0.1660593,-0.1756611,-0.9799714
-0.1667276,-0.1713941,-0.9790306
-0.1660096,-0.1663684,-0.9806573
-0.164871,-0.1692644,-0.9814082
-0.1673985,-0.1728808,-0.9823621
-0.1689774,-0.170101,-0.9820404
-0.1698555,-0.1703531,-0.9819266
-0.1712043,-0.1717872,-0.9835247
-0.1710585,-0.1700748,-0.9828413
-0.1706004,-0.1710754,-0.9816167
-0.170806,-0.1710814,-0.9833733
-0.1703274,-0.1703305,-0.9841713
-0.1670756,-0.1714911,-0.982425
-0.1640307,-0.171467,-0.9821514
-0.1642808,-0.1722971,-0.9835545
-0.1651233,-0.1716699,-0.9840226
-0.1657397,-0.1700379,-0.9830039
-0.1680639,-0.1705521,-0.9824517
-0.170504,-0.1682882,-0.9845487
-0.1699499,-0.1655841,-0.986407
-0.1679212,-0.1672789,-0.9910604
-0.164694,-0.1727163,-1.00366
-0.157156,-0.1832006,-1.010372
-0.1478305,-0.1929947,-0.99571
-0.1453415,-0.1932385,-0.9716931
-0.1512478,-0.1922168,-0.9629892
-0.1545824,-0.1965438,-0.9604419
-0.1538485,-0.1961467,-0.9523185
-0.1549637,-0.1928881,-0.9575722
-0.1557307,-0.1908834,-0.9681304
-0.1573101,-0.1840085,-0.9778639
-0.1576323,-0.178999,-0.9979105
-0.156029,-0.1803721,-1.010821
-0.1570728,-0.181213,-1.011859
-0.1551021,-0.1802573,-1.005837
-0.1520173,-0.1796409,-0.9969465
-0.1519969,-0.1772252,-0.9886291
-0.1510439,-0.1727179,-0.9705693
-0.151328,-0.1727236,-0.9643034
-0.1534422,-0.1730139,-0.9738879
-0.1600325,-0.1677878,-0.973784
-0.1683876,-0.1653146,-0.9811139
-0.1666254,-0.1657238,-1.000506
-0.1619622,-0.1644011,-1.009343
-0.1618616,-0.1633757,-1.005015
-0.1593218,-0.1629457,-0.9966729
-0.1572495,-0.1598006,-0.9885975
-0.1571844,-0.155617,-0.9761799
-0.1562504,-0.1582411,-0.9726329
-0.1573641,-0.1617089,-0.9806189
-0.1571308,-0.16034,-0.9838381
-0.1566817,-0.1628122,-0.995947
-0.1595538,-0.1650673,-1.007297
-0.1615508,-0.1622849,-1.001058
-0.1650572,-0.1611859,-1.000074
-0.1677071,-0.1609551,-0.9983173
-0.1656799,-0.1599845,-0.9877951
-0.1647204,-0.1596919,-0.9829051
-0.1651338,-0.159336,-0.9821431
-0.1646473,-0.1589772,-0.9818436
-0.1630806,-0.1589989,-0.9780696
-0.1613683,-0.1625079,-0.9781224
-0.1583996,-0.1670395,-0.9835012
-0.1554789,-0.1656219,-0.9866665
-0.1578875,-0.1641526,-0.9934202
-0.1612906,-0.1658609,-0.9899659
-0.1637432,-0.1645207,-0.9801641
-0.1646904,-0.1638775,-0.9824178
-0.161314,-0.1652663,-0.9820696
-0.1605385,-0.1646925,-0.9813825
-0.1615012,-0.1660114,-0.9844719
-0.1613584,-0.167391,-0.9856662
-0.164013,-0.165408,-0.9903095
-0.1640374,-0.1648656,-0.9877309
-0.1556925,-0.1658715,-0.9779508
-0.1469596,-0.1666325,-0.9753677
-0.1508184,-0.1671698,-0.9860568
-0.1577349,-0.1664039,-1.000073
-0.1575747,-0.1663238,-0.9975624
-0.1619298,-0.166328,-0.994933
-0.1628336,-0.1650701,-0.9990566
-0.1579165,-0.1645576,-0.988529
-0.1607006,-0.1637832,-0.980301
-0.1609586,-0.1643841,-0.980692
-0.1607829,-0.1663388,-0.9747036
-0.1653257,-0.1661124,-0.9741545
-0.1658436,-0.167887,-0.9778873
-0.1666616,-0.1707326,-0.9803365
-0.1660268,-0.1708607,-0.9875606
-0.1659592,-0.171101,-0.9869566
-0.1676628,-0.1708477,-0.9792653
-0.1637488,-0.1715811,-0.977921
-0.1625062,-0.172506,-0.9773689
-0.1629013,-0.1701768,-0.9782663
-0.1630663,-0.1690447,-0.9821418
-0.1669052,-0.171014,-0.9841545
-0.1679426,-0.1748822,-0.9867813
-0.1695104,-0.1775638,-0.9872057
-0.1714434,-0.1764181,-0.9836572
-0.1702884,-0.175728,-0.9759416
-0.1686008,-0.1756338,-0.9686854
-0.1664375,-0.1738307,-0.9727654
-0.1658247,-0.1732458,-0.9804967
-0.1636127,-0.1749206,-0.9835119
-0.1638437,-0.1767981,-0.9834142
-0.1677959,-0.1792028,-0.9842463
-0.1664151,-0.1814766,-0.9903301
-0.1661143,-0.1807125,-0.9919113
-0.1664855,-0.1796281,-0.9848166
-0.1641288,-0.1791719,-0.9753651
-0.1648573,-0.1770026,-0.9709504
-0.1645426,-0.1768292,-0.9740306
-0.1646497,-0.178217,-0.9724806
-0.1668639,-0.1774485,-0.9701263
-0.1672757,-0.1758521,-0.9760199
-0.1670749,-0.1745389,-0.9811113
-0.1660774,-0.1751122,-0.9840399
-0.1667244,-0.1768707,-0.9868565
-0.1675205,-0.1768267,-0.9862639
-0.1677939,-0.1771292,-0.982373
-0.1698691,-0.1790329,-0.9793344
-0.1669927,-0.1794752,-0.9795825
-0.1638525,-0.177862,-0.9830665
-0.1672631,-0.1767212,-0.9888578
-0.1713776,-0.1774727,-0.989663
-0.1756765,-0.1797519,-0.9863449
-0.1773014,-0.1817319,-0.984905
-0.1736246,-0.1815625,-0.9822304
-0.1697999,-0.1797391,-0.9815887
-0.1668514,-0.1764158,-0.9852835
-0.1649016,-0.1759779,-0.9850489
-0.1643197,-0.1817243,-0.9792463
-0.1636823,-0.1847838,-0.9760273
-0.1640921,-0.1831522,-0.9765855
-0.1659172,-0.1828703,-0.9770131
-0.1670953,-0.1824055,-0.9809426
-0.1668285,-0.1805027,-0.9852656
-0.1669314,-0.1782648,-0.9847212
-0.1704879,-0.1776896,-0.9836585
-0.1771466,-0.1796116,-0.9836624
-0.1805758,-0.1811543,-0.9858803
-0.1766114,-0.1804399,-0.9885698
-0.1701093,-0.1782693,-0.9871097
-0.1663336,-0.1774747,-0.9842347
-0.1646152,-0.1777151,-0.9828858
-0.165099,-0.1778092,-0.9830369
-0.1664258,-0.1781136,-0.9828015
-0.1652278,-0.1784352,-0.9788185
-0.1647307,-0.1797499,-0.9758794
-0.1659125,-0.1807698,-0.982179
-0.1662463,-0.1830694,-0.9908707
-0.1674887,-0.185842,-0.9914097
-0.1683104,-0.1832687,-0.9894481
-0.1691816,-0.1797566,-0.9897449
-0.1732409,-0.1788338,-0.9863922
-0.1745528,-0.1784485,-0.9806464
-0.1711319,-0.1778224,-0.9803861
-0.1701928,-0.1757336,-0.9855236
-0.1711228,-0.1759396,-0.9889641
-0.1702363,-0.1771717,-0.9871758
-0.1681508,-0.1759128,-0.9845477
-0.1655101,-0.1769018,-0.9858568
-0.1648672,-0.1794352,-0.9889704
-0.1656639,-0.1809435,-0.9893375
-0.1658715,-0.1811458,-0.9857844
-0.1666622,-0.1793741,-0.9805568
-0.1674333,-0.1780036,-0.9760907
-0.1682349,-0.1759545,-0.9744828
-0.1674668,-0.1755044,-0.9764506
-0.1660037,-0.1774104,-0.9803226
-0.1681797,-0.1763809,-0.9846508
-0.1703541,-0.1778027,-0.9838904
-0.169606,-0.1806254,-0.9790923
-0.1640868,-0.1796397,-0.9782762
-0.1575831,-0.1804751,-0.9757556
-0.162086,-0.1796269,-0.9724539
-0.1683565,-0.1761704,-0.9759214
-0.1663068,-0.1772787,-0.979292
-0.1663006,-0.1807147,-0.980447
-0.1673144,-0.1809806,-0.9808313
-0.1661099,-0.1768823,-0.9807016
-0.1670923,-0.1736782,-0.9828629
-0.1681824,-0.1733264,-0.9855488
-0.170711,-0.1737878,-0.9868977
-0.1732958,-0.1759534,-0.9861804
-0.1706988,-0.1776271,-0.9866014
-0.167383,-0.1781427,-0.9882791
-0.1665803,-0.1776388,-0.9867632
-0.1683207,-0.176514,-0.9848
-0.1713406,-0.1766836,-0.9833807
-0.170975,-0.1773726,-0.9827887
-0.1691041,-0.1802689,-0.9822824
-0.1677005,-0.1832162,-0.979278
-0.1663025,-0.1826127,-0.9790366
-0.1685068,-0.1790837,-0.9797779
-0.1713888,-0.1747573,-0.9760967
-0.1709147,-0.1757022,-0.9748469
-0.170625,-0.1767835,-0.9774705
-0.171168,-0.1738517,-0.9765519
-0.1716521,-0.1751442,-0.9759978
-0.1717958,-0.1773251,-0.9799202
-0.1687733,-0.1794802,-0.9811342
-0.1658735,-0.1833584,-0.9804716
-0.1690506,-0.1811339,-0.9811855
-0.1725027,-0.1783301,-0.9832881
-0.1706415,-0.1796292,-0.9876719
-0.1701415,-0.179049,-0.988234
-0.171568,-0.178972,-0.9869009
-0.1705216,-0.1791599,-0.9867391
-0.1703278,-0.1770682,-0.9820315
-0.1694406,-0.1759869,-0.9778758
-0.1671347,-0.176402,-0.9818355
-0.1682018,-0.1775223,-0.9916164
-0.1694162,-0.1787598,-0.9994919
-0.1682313,-0.18124,-1.000502
-0.1638198,-0.1844754,-0.9941394
-0.1566477,-0.1840893,-0.9841738
-0.1554227,-0.1844497,-0.9789146
-0.1582449,-0.1882158,-0.9784967
-0.15783,-0.1889288,-0.9791873
-0.1592235,-0.1886705,-0.9786378
-0.1617656,-0.1902486,-0.9776838
-0.1618108,-0.1903586,-0.9819226
-0.1626168,-0.1898842,-0.9864715
-0.1618872,-0.188602,-0.9859163
-0.1605172,-0.1867765,-0.9819659
-0.1624409,-0.187075,-0.9763922
-0.1638015,-0.1859232,-0.9717952
-0.163983,-0.1829783,-0.9682399
-0.1638628,-0.1829322,-0.9692492
-0.1625758,-0.1833694,-0.9749141
-0.1614868,-0.1812309,-0.9820719
-0.1607376,-0.1788617,-0.9897512
-0.161258,-0.1774025,-0.9894497
-0.1622852,-0.1750273,-0.9864084
-0.1626722,-0.1727037,-0.9887848
-0.1632671,-0.1730176,-0.9863966
-0.1625769,-0.172451,-0.9831248
-0.1624005,-0.1704487,-0.9835598
-0.1642254,-0.1732465,-0.9795418
-0.1643992,-0.1765529,-0.9771122
-0.1634215,-0.1746134,-0.9813295
-0.1641083,-0.1735472,-0.9860105
-0.1650578,-0.1734121,-0.9888856
-0.1652471,-0.1708919,-0.9911911
-0.1649686,-0.1705655,-0.9877644
-0.1624953,-0.1725872,-0.9803348
-0.1608759,-0.172772,-0.9826397
-0.1646215,-0.1715718,-0.984638
-0.1681723,-0.1711319,-0.9791194
-0.1668325,-0.1700343,-0.9787697
-0.1654788,-0.1686887,-0.9774823
-0.1654234,-0.1698623,-0.9808348
-0.1633978,-0.170944,-0.9899009
-0.1628637,-0.1724434,-0.9861155
-0.1631791,-0.174271,-0.984139
-0.1610248,-0.171707,-0.9876705
-0.1629108,-0.1698512,-0.9838242
-0.1662623,-0.1711322,-0.9843479
-0.1663254,-0.1709454,-0.9872587
-0.1664155,-0.170661,-0.9859044
-0.1645278,-0.1709111,-0.9859754
-0.1639477,-0.1708392,-0.9858425
-0.1645194,-0.1713491,-0.9841604
-0.1630645,-0.173497,-0.9818791
-0.1642793,-0.1753375,-0.9826375
-0.1641195,-0.1725798,-0.9886611
-0.1632586,-0.1694217,-0.9928741
-0.1645373,-0.1710154,-0.9896537
-0.1635291,-0.1724182,-0.9854245
-0.1638502,-0.1720868,-0.9875194
-0.1642395,-0.1733522,-0.9876472
-0.1634266,-0.1739375,-0.9846835
-0.164256,-0.1734276,-0.9867287
-0.1637464,-0.1731878,-0.9874096
-0.1639675,-0.1708695,-0.9864784
-0.1654022,-0.1684333,-0.9852244
-0.1670377,-0.1688639,-0.9800508
-0.1687471,-0.1709422,-0.9789734
-0.1670997,-0.1729311,-0.98096
-0.1656419,-0.1734681,-0.9822561
-0.1650176,-0.1734648,-0.9851652
-0.1622547,-0.1745021,-0.985572
-0.1610209,-0.177191,-0.9869315
-0.1612392,-0.1801121,-0.9895371
-0.1611393,-0.1795492,-0.986176
-0.1620428,-0.1774222,-0.9823835
-0.1630304,-0.177642,-0.9831683
-0.1633881,-0.1770767,-0.9839897
-0.1640149,-0.1757704,-0.9837405
-0.1644749,-0.1765851,-0.9841045
-0.1654331,-0.1765047,-0.9828415
-0.1672783,-0.1761344,-0.9800895
-0.1669845,-0.1768222,-0.9797004
-0.1653691,-0.1771171,-0.9832555
-0.163423,-0.1779071,-0.9876356
-0.1602531,-0.177078,-0.9858378
-0.1614611,-0.1759263,-0.9831867
-0.1653427,-0.1774442,-0.9864226
-0.1663767,-0.1781882,-0.9853946
-0.1680427,-0.1778682,-0.9791333
-0.1662208,-0.178585,-0.9754346
-0.1621624,-0.1796891,-0.9776678
-0.1651467,-0.1801877,-0.9843323
-0.1672961,-0.1801756,-0.9866403
-0.1657287,-0.1790672,-0.9864583
-0.1652974,-0.1772077,-0.9828227
-0.163265,-0.1784115,-0.9750208
-0.1634318,-0.1802563,-0.9771666
-0.1646992,-0.1797258,-0.9813909
-0.1633415,-0.180836,-0.9810857
-0.1637842,-0.1821052,-0.9831206
-0.1632846,-0.1825917,-0.979113
-0.1619975,-0.1835849,-0.9771575
-0.1639532,-0.181542,-0.9834301
-0.1665877,-0.179451,-0.9852321
-0.1698039,-0.179861,-0.987926
-0.1712837,-0.1790968,-0.9906568
-0.1680712,-0.1793533,-0.9866229
-0.1654947,-0.1821762,-0.9826176
-0.1666381,-0.1836865,-0.9777818
-0.1676014,-0.1814267,-0.9773865
-0.1676561,-0.1777497,-0.9832862
-0.1682388,-0.1772176,-0.9843872
-0.1666124,-0.1781262,-0.9850379
-0.165686,-0.1776877,-0.9852111
-0.1673283,-0.1771902,-0.9838886
-0.165468,-0.1751957,-0.986834
-0.1638053,-0.1727022,-0.9879398
-0.1652517,-0.1731721,-0.9890898
-0.1660877,-0.1733202,-0.9893679
-0.1673913,-0.1718068,-0.9856542
-0.1675985,-0.1729226,-0.9842385
-0.1676877,-0.1743951,-0.9813944
-0.1674334,-0.1733466,-0.979473
-0.1641028,-0.1736251,-0.979687
-0.1633143,-0.1748291,-0.9795359
-0.1643743,-0.1750081,-0.9834442
-0.1646254,-0.1752081,-0.9846991
-0.165324,-0.1748511,-0.9835412
-0.163499,-0.1744154,-0.9836183
-0.1617551,-0.1725208,-0.9834013
-0.1624968,-0.1699757,-0.9873544
-0.1627698,-0.1718802,-0.989309
-0.1623667,-0.1751102,-0.985284
-0.1622304,-0.1759244,-0.982181
-0.1614431,-0.1759968,-0.9841304
-0.1592746,-0.1749254,-0.9878962
-0.1596337,-0.1736385,-0.9869377
-0.1632212,-0.1742198,-0.9846932
-0.1657944,-0.1756269,-0.9829068
-0.1665294,-0.1739958,-0.9826476
-0.1643103,-0.1712258,-0.9854613
-0.161293,-0.1725892,-0.9854689
-0.1624446,-0.1728459,-0.9861276
-0.1641992,-0.1722323,-0.9859195
-0.1636143,-0.1745998,-0.9807826
-0.1639941,-0.1735651,-0.9784903
-0.1640754,-0.1729848,-0.9801012
-0.1635317,-0.1742331,-0.9846117
-0.1641892,-0.1721584,-0.9891451
-0.1638075,-0.171359,-0.9920012
-0.1637336,-0.1688208,-0.9916084
-0.1641759,-0.1656494,-0.9831377
-0.1634426,-0.1685699,-0.9794397
-0.1629484,-0.1712314,-0.9832857
-0.1610213,-0.1701251,-0.9827374
-0.1587668,-0.168828,-0.982325
-0.1588237,-0.1700342,-0.9831662
-0.1621633,-0.1724432,-0.9830695
-0.1679929,-0.17404,-0.9833912
-0.1690502,-0.1741804,-0.9811938
-0.1664457,-0.1727779,-0.9789806
-0.1664976,-0.1726928,-0.9793251
-0.1660752,-0.1708882,-0.9813762
-0.1630235,-0.1670209,-0.9845454
-0.16027,-0.1656695,-0.9871493
-0.1614937,-0.1655785,-0.9908715
-0.1634952,-0.1672763,-0.995076
-0.161101,-0.1680257,-0.9938087
-0.1595428,-0.1675489,-0.9892043
-0.1599763,-0.1686964,-0.9882496
-0.1600964,-0.1677931,-0.9887224
-0.1634742,-0.1679904,-0.987104
-0.1664593,-0.1696689,-0.9852356
-0.1656027,-0.1700922,-0.984219
-0.165641,-0.1703985,-0.9841332
-0.1671735,-0.1654458,-0.984805
-0.166929,-0.1608025,-0.9859363
-0.1661537,-0.1641662,-0.9863291
-0.1669599,-0.1667203,-0.9856101
-0.1667466,-0.164946,-0.9844371
-0.1659765,-0.164968,-0.9827385
-0.1650579,-0.1671349,-0.9828813
-0.1622598,-0.1688272,-0.9833721
-0.1621481,-0.1717046,-0.9819969
-0.1639259,-0.1731956,-0.9810893
-0.1637082,-0.1717294,-0.9813038
-0.1627676,-0.172043,-0.9851038
-0.1603623,-0.1716016,-0.9873502
-0.1598889,-0.1700487,-0.9862533
-0.1647282,-0.1700887,-0.9899668
-0.1699319,-0.1692663,-0.9887907
-0.1696813,-0.1692032,-0.9845823
-0.1650808,-0.1695692,-0.9878695
-0.1627463,-0.1683885,-0.9860679
-0.1629482,-0.1677906,-0.9815947
-0.1625513,-0.1683759,-0.98121
-0.1623099,-0.1699793,-0.9839431
-0.1623393,-0.1705976,-0.9899877
-0.1617502,-0.1674308,-0.9885004
-0.1614127,-0.1644125,-0.9896875
-0.1645845,-0.1676342,-0.9975864
-0.1681008,-0.171047,-0.9946451
-0.1668003,-0.1682459,-0.9876356
-0.1659319,-0.1671362,-0.9819553
-0.1671747,-0.1687253,-0.978965
-0.1666274,-0.1678524,-0.9804979
-0.166402,-0.1679087,-0.9805917
-0.1669599,-0.1683453,-0.9851497
-0.1665307,-0.1677969,-0.9880084
-0.166611,-0.1685456,-0.9851089
-0.1668349,-0.1694921,-0.9874528
-0.1668578,-0.1696651,-0.9890349
-0.168175,-0.168757,-0.9886263
-0.1685915,-0.1695069,-0.9877828
-0.1676578,-0.1729085,-0.9803865
-0.16805,-0.1742866,-0.9746582
-0.168489,-0.1745561,-0.9786019
-0.1683469,-0.1750212,-0.9850345
-0.1680088,-0.1740718,-0.9859892
-0.1657866,-0.1733798,-0.9882921
-0.1637499,-0.1734543,-0.9908752
-0.1637694,-0.1736275,-0.9825829
-0.1640463,-0.1727237,-0.9763645
-0.1650374,-0.1722807,-0.9802364
-0.1664551,-0.1750485,-0.9844713
-0.1669156,-0.1770901,-0.9862623
-0.167097,-0.1756834,-0.9829258
-0.1682339,-0.1742373,-0.9788617
-0.169768,-0.1752714,-0.9810775
-0.1679195,-0.1761129,-0.9850705
-0.1655186,-0.1751246,-0.9866026
-0.1668661,-0.1741671,-0.9867996
-0.166865,-0.173114,-0.9877909
-0.1653232,-0.1740485,-0.9900112
-0.1654311,-0.1767688,-0.9900758
-0.1664129,-0.1781303,-0.987135
-0.1689764,-0.1779322,-0.9870831
-0.1710479,-0.1754982,-0.9879236
-0.1704326,-0.1744302,-0.9857618
-0.1680834,-0.1752563,-0.9842683
-0.1658266,-0.1746809,-0.9827705
-0.1667396,-0.1738578,-0.9831907
-0.1687241,-0.1715295,-0.9849288
-0.1678483,-0.1704199,-0.9844468
-0.1659171,-0.1732032,-0.9855091
-0.1645544,-0.1760083,-0.9874221
-0.1638439,-0.1770574,-0.987436
-0.1645768,-0.1756861,-0.9798046
-0.165538,-0.1734804,-0.9709159
-0.164539,-0.1719233,-0.9790815
-0.1634215,-0.1725462,-0.9878071
-0.1648971,-0.1742304,-0.9817831
-0.1654567,-0.1716955,-0.9793311
-0.1632531,-0.1699796,-0.9802559
-0.1623173,-0.1724824,-0.979866
-0.1643416,-0.1743224,-0.9869172
-0.1670283,-0.1754671,-0.9919252
-0.1670358,-0.1749967,-0.9898976
-0.1662136,-0.1736811,-0.9878995
-0.1669255,-0.1736482,-0.9825103
-0.1666534,-0.1734416,-0.9778484
-0.1665061,-0.1736873,-0.9823989
-0.1668855,-0.1738877,-0.9879461
-0.1663142,-0.1743044,-0.987128
-0.165666,-0.1750946,-0.9895239
-0.1637924,-0.1732491,-0.9944816
-0.1612554,-0.1715961,-0.9875623
-0.1588299,-0.1731317,-0.9767539
-0.1566906,-0.1742069,-0.9733493
-0.1576559,-0.1733023,-0.9733023
-0.161621,-0.1723421,-0.9772592
-0.1651135,-0.171301,-0.9842004
-0.1648446,-0.1703406,-0.9894095
-0.1646289,-0.1708837,-0.98774
-0.1673346,-0.1710858,-0.9821801
-0.1653537,-0.1701868,-0.9819121
-0.1622916,-0.1691954,-0.9827653
-0.1642505,-0.1677221,-0.983375
-0.1631318,-0.1685793,-0.9844017
-0.1603425,-0.1699555,-0.984294
-0.1596505,-0.1667281,-0.9866578
-0.1585608,-0.162276,-0.984811
-0.1598049,-0.1602107,-0.9820489
-0.1605444,-0.1608227,-0.9859869
-0.1599836,-0.1617975,-0.9876591
-0.1623335,-0.1612693,-0.9880395
-0.1649436,-0.1636732,-0.9896742
-0.1670386,-0.1665114,-0.9885417
-0.1665977,-0.1651929,-0.9856819
-0.163904,-0.1650141,-0.9849043
-0.1645288,-0.1663866,-0.9875292
-0.164241,-0.1660871,-0.986972
-0.1630153,-0.1659413,-0.98504
-0.1638218,-0.1667506,-0.9862707
-0.1602457,-0.1669998,-0.9886954
-0.1573636,-0.1662306,-0.9901031
-0.1615172,-0.1657547,-0.9852746
-0.1653404,-0.165045,-0.9834503
-0.1649384,-0.1640395,-0.9868226
-0.1632453,-0.1635859,-0.9856797
-0.1635979,-0.1619322,-0.9863133
-0.1632843,-0.1609417,-0.986732
-0.1609219,-0.1628641,-0.9871969
-0.1608883,-0.164243,-0.9902584
-0.1613116,-0.1619177,-0.9888948
-0.1609731,-0.1586412,-0.9903313
-0.1613967,-0.1594705,-0.9913988
-0.1621007,-0.1610478,-0.9841454
-0.1644175,-0.1595533,-0.9790716
-0.167865,-0.159237,-0.9833314
-0.1696426,-0.1604897,-0.9888526
-0.1661186,-0.1614482,-0.9864722
-0.1611255,-0.1628579,-0.9876736
-0.1623577,-0.1625704,-0.991101
-0.1642834,-0.1602127,-0.9860037
-0.1633236,-0.1596689,-0.9863228
-0.1632518,-0.1615289,-0.9877529
-0.1622768,-0.1630968,-0.9843284
-0.162093,-0.1625796,-0.9867568
-0.1634159,-0.1610931,-0.9864983
-0.1639703,-0.161088,-0.984098
-0.1656007,-0.1611482,-0.9853867
-0.1648943,-0.161305,-0.9844552
-0.1628534,-0.1631378,-0.9860905
-0.1643906,-0.1642581,-0.9897436
-0.1655796,-0.1641115,-0.9914638
-0.167754,-0.163811,-0.992492
-0.1702171,-0.1649245,-0.9906397
-0.166731,-0.1665529,-0.9886898
-0.1640352,-0.1660166,-0.9852556
-0.166764,-0.1661181,-0.9802755
-0.1691426,-0.1677145,-0.9805903
-0.1693208,-0.1683492,-0.9836782
-0.1677902,-0.1671669,-0.9848576
-0.1659431,-0.165699,-0.9840225
-0.1661197,-0.1654652,-0.9848655
-0.1654109,-0.1652342,-0.9858012
-0.1628245,-0.1669141,-0.9851526
-0.1629341,-0.1684563,-0.9873428
-0.1638178,-0.1673574,-0.9871162
-0.1635324,-0.1674294,-0.9877284
-0.1646564,-0.1665831,-0.9905249
-0.1657979,-0.1660728,-0.9881374
-0.1677876,-0.1675265,-0.9897031
-0.1689904,-0.16688,-0.991374
-0.1669016,-0.1664072,-0.9888004
-0.1654055,-0.1652635,-0.988173
-0.1631143,-0.1644048,-0.9851557
-0.1616212,-0.1667783,-0.9855232
-0.1633409,-0.1686825,-0.9881557
-0.1638276,-0.170624,-0.9896966
-0.1638699,-0.1674263,-0.9947044
-0.1621289,-0.161205,-0.9929311
-0.1602777,-0.1639062,-0.9868802
-0.162544,-0.1656489,-0.9846696
-0.1639407,-0.1643151,-0.9829269
-0.1648666,-0.167784,-0.98348
-0.1659549,-0.1669406,-0.9837365
-0.1659108,-0.1645088,-0.9842648
-0.1675489,-0.1649756,-0.9881525
-0.1693094,-0.1635926,-0.9896057
-0.1704445,-0.1655242,-0.98852
-0.1693923,-0.1678141,-0.9869227
-0.1668015,-0.1662903,-0.9859085
-0.1662934,-0.1665423,-0.9879071
-0.1645601,-0.1669299,-0.9890708
-0.1625786,-0.1671728,-0.9859503
-0.1633796,-0.1703476,-0.981736
-0.1651908,-0.1729232,-0.9812664
-0.1665748,-0.1706789,-0.9831938
-0.1656242,-0.1671978,-0.9844423
-0.1640727,-0.1682994,-0.9851062
-0.1638198,-0.1703616,-0.984129
-0.1646758,-0.1701575,-0.9835661
-0.1658359,-0.1677318,-0.9810004
-0.1650063,-0.1638122,-0.9773567
-0.1638024,-0.1644488,-0.9800556
-0.1621345,-0.1647093,-0.9797831
-0.1602394,-0.1612722,-0.9776545
-0.1609963,-0.1636353,-0.9810421
-0.1605974,-0.1668541,-0.9817729
-0.1590608,-0.1660939,-0.9850164
-0.1601551,-0.1650957,-0.9857776
-0.1617462,-0.1620822,-0.9786392
-0.1628,-0.1609438,-0.9801528
-0.1626425,-0.1615619,-0.9877943
-0.1608631,-0.1606026,-0.9932428
-0.1595215,-0.1622261,-0.9908221
-0.1596291,-0.1657296,-0.9833701
-0.1613918,-0.168323,-0.9853249
-0.1618187,-0.1652247,-0.9880101
-0.160428,-0.1592614,-0.9886833
-0.1614136,-0.1612612,-0.9902229
-0.1622045,-0.1649208,-0.9882196
-0.1615273,-0.1671415,-0.9907637
-0.1623661,-0.1692878,-0.9891932
-0.1633314,-0.163945,-0.9823003
-0.1643225,-0.1607952,-0.9847355
-0.163731,-0.1622893,-0.9878925
-0.1610199,-0.1600052,-0.9880001
-0.1583434,-0.1612299,-0.9880139
-0.155803,-0.1619313,-0.9841703
-0.1573323,-0.1599981,-0.9803734
-0.1609992,-0.1618596,-0.9804506
-0.163844,-0.1610367,-0.9826383
-0.1661626,-0.1609608,-0.9838269
-0.1623319,-0.1636438,-0.9834558
-0.1585975,-0.1638246,-0.9830583
-0.1602112,-0.1645169,-0.9834049
-0.1606476,-0.164537,-0.9831522
-0.1612286,-0.164783,-0.9812802
-0.1614196,-0.1632701,-0.9801855
-0.1610489,-0.1598785,-0.9805295
-0.1631782,-0.1631369,-0.9822279
-0.1643753,-0.166093,-0.9851071
-0.163984,-0.1649586,-0.9881947
-0.1640271,-0.1652293,-0.9917547
-0.1656998,-0.1643571,-0.9964014
-0.1673983,-0.163558,-0.998208
-0.1662817,-0.1637313,-0.9877976
-0.1637112,-0.163042,-0.9756817
-0.1589339,-0.1622722,-0.9788279
-0.1545694,-0.1622618,-0.9843069
-0.1565643,-0.1628351,-0.9848159
-0.1606848,-0.1625359,-0.9889746
-0.1612562,-0.1643515,-0.9934703
-0.1593647,-0.1697831,-0.9953978
-0.1576127,-0.1729994,-0.9904083
-0.1586728,-0.1688532,-0.9810816
-0.1617486,-0.1626739,-0.9823654
-0.1638481,-0.1634235,-0.9859735
-0.1644553,-0.1648239,-0.9855587
-0.1633218,-0.1633363,-0.9905774
-0.1618494,-0.1646846,-0.9919239
-0.1609949,-0.1639468,-0.9913058
-0.1606085,-0.161636,-0.9947163
-0.1618823,-0.1628632,-0.9921048
-0.1629411,-0.1645522,-0.9893225
-0.1640178,-0.1649585,-0.9874058
-0.1644065,-0.1619042,-0.9845403
-0.1621313,-0.1586349,-0.9878899
-0.1614876,-0.1612846,-0.989054
-0.1609373,-0.1638746,-0.9881585
-0.1597081,-0.1621956,-0.988765
-0.1600382,-0.1620339,-0.9870439
-0.159504,-0.1631058,-0.989781
-0.1606998,-0.1621827,-0.9940716
-0.1616931,-0.1626053,-0.9942893
-0.1607141,-0.1637205,-0.9920975
-0.1613213,-0.1634458,-0.9891236
-0.161071,-0.1622433,-0.9910538
-0.1609924,-0.1591109,-0.9926045
-0.1608095,-0.1573716,-0.9897569
-0.1581673,-0.1570001,-0.9883132
-0.1563237,-0.15641,-0.9878136
-0.1565591,-0.1571885,-0.990725
-0.1574898,-0.1558691,-0.9947185
-0.1568145,-0.1538645,-0.9931315
-0.1566213,-0.153334,-0.9922239
-0.1574386,-0.1526694,-0.9928176
-0.1565924,-0.1545998,-0.9884553
-0.1569905,-0.1561735,-0.984483
-0.1573578,-0.154563,-0.9863002
-0.1576527,-0.1540527,-0.9896008
-0.1598113,-0.1559881,-0.9933944
-0.1599655,-0.1577073,-0.997369
-0.1597323,-0.1566151,-0.9957853
-0.1607211,-0.1547513,-0.9912402
-0.1612783,-0.1539769,-0.9880178
-0.1613286,-0.1538317,-0.9847697
-0.1604705,-0.1548505,-0.9856959
-0.158894,-0.1564661,-0.9876624
-0.1552258,-0.1599253,-0.9870055
-0.1534291,-0.1624545,-0.9900871
-0.157165,-0.1608229,-0.9923161
-0.1594655,-0.1603334,-0.992698
-0.1585839,-0.1598726,-0.9937924
-0.1597424,-0.1569321,-0.9900393
-0.1619436,-0.1558124,-0.986343
-0.1613339,-0.1553841,-0.9831954
-0.1613729,-0.1549342,-0.9812434
-0.1660095,-0.1543751,-0.9871779
-0.1688699,-0.152511,-0.9912557
-0.1654332,-0.1527468,-0.9896981
-0.1613316,-0.1530764,-0.9892067
-0.1612822,-0.1526828,-0.9903937
-0.1619455,-0.1545653,-0.9916411
-0.1622677,-0.1547732,-0.9923347
-0.1648682,-0.1549086,-0.9922173
-0.1646967,-0.1576809,-0.9865649
-0.1619461,-0.1584529,-0.9842924
-0.1610657,-0.1579986,-0.9914171
-0.1604753,-0.1588747,-0.9924907
-0.1614776,-0.1602299,-0.9901252
-0.1613855,-0.1614143,-0.9903167
-0.1607932,-0.1609395,-0.9890241
-0.1635127,-0.1580627,-0.9894335
-0.1642114,-0.1561343,-0.987722
-0.1638753,-0.157454,-0.9852079
-0.1637978,-0.1600896,-0.9864452
-0.1626904,-0.1626681,-0.9880745
-0.1626042,-0.1630729,-0.9894784
-0.1621721,-0.1618757,-0.9898141
-0.1628258,-0.1616936,-0.9930251
-0.1635954,-0.1609981,-0.9966468
-0.163728,-0.1607902,-0.9914958
-0.1644133,-0.1616359,-0.9856796
-0.1633068,-0.1618739,-0.9867026
-0.1630046,-0.1621469,-0.9858399
-0.162576,-0.1601148,-0.982329
-0.1620901,-0.157867,-0.9859135
-0.1639704,-0.161738,-0.9903124
-0.1643044,-0.1653393,-0.9878559
-0.1655902,-0.1620068,-0.9850637
-0.1670721,-0.1603338,-0.983205
-0.1647771,-0.1642663,-0.9853899
-0.1632036,-0.1659548,-0.9902662
-0.1637731,-0.1632016,-0.9886604
-0.1641093,-0.1603809,-0.9863412
-0.1626238,-0.1594468,-0.9866411
-0.161007,-0.1598767,-0.9873358
-0.1601854,-0.1612861,-0.9898052
-0.1592369,-0.1615484,-0.9888257
-0.1600139,-0.1597157,-0.9862776
-0.1607967,-0.1594366,-0.9862213
-0.1607355,-0.1601936,-0.9853684
-0.159501,-0.1603786,-0.9844836
-0.1567447,-0.1614987,-0.9830247
-0.1576092,-0.1612652,-0.9826642
-0.1599782,-0.1607229,-0.9841361
-0.1601773,-0.1614378,-0.983005
-0.1616455,-0.1611644,-0.9832679
-0.1639184,-0.1619312,-0.9847864
-0.1642049,-0.1629598,-0.9846482
-0.1627291,-0.162053,-0.9859693
-0.1621436,-0.1606336,-0.9862656
-0.1624795,-0.1585397,-0.9859976
-0.1615798,-0.1559106,-0.9866775
-0.1608173,-0.1534921,-0.9876194
-0.1608653,-0.1538757,-0.9901784
-0.1601922,-0.1574596,-0.9917585
-0.1585185,-0.160832,-0.9932851
-0.1582123,-0.1632934,-0.9929718
-0.1605442,-0.1619753,-0.9867145
-0.1625645,-0.1589416,-0.9795974
-0.1628321,-0.1602413,-0.9770371
-0.1625405,-0.1617741,-0.9831329
-0.1632787,-0.1623705,-0.9898261
-0.1643727,-0.1622869,-0.9874633
-0.1634943,-0.1601952,-0.9866937
-0.161897,-0.1616663,-0.9895017
-0.160787,-0.1643835,-0.9894695
-0.1604178,-0.1654002,-0.9896652
-0.1597513,-0.1658428,-0.9885194
-0.1578236,-0.1639178,-0.9861672
-0.159023,-0.164521,-0.9846985
-0.1616084,-0.1659841,-0.9841654
-0.1606868,-0.1647254,-0.9866807
-0.1592116,-0.1645227,-0.9860027
-0.1580127,-0.163469,-0.9806229
-0.1578716,-0.1627156,-0.978834
-0.1589201,-0.1627,-0.9814783
-0.1584512,-0.1618451,-0.9846427
-0.1599421,-0.1619467,-0.9836913
-0.1620528,-0.1608319,-0.9822196
-0.1613245,-0.1609106,-0.98417
-0.162632,-0.1625786,-0.9844844
-0.1647233,-0.1623923,-0.9890608
-0.1634173,-0.1624778,-0.9957024
-0.1608107,-0.1614318,-0.9932636
-0.159155,-0.1597394,-0.991725
-0.1594319,-0.1596333,-0.9935072
-0.160326,-0.1588899,-0.9901863
-0.1604958,-0.1563083,-0.9877074
-0.1606663,-0.1530443,-0.9885034
-0.1588023,-0.1539657,-0.9865684
-0.1557738,-0.1569985,-0.9841136
-0.1566806,-0.1565418,-0.9871572
-0.1579664,-0.1552755,-0.9906406
-0.1570428,-0.1533726,-0.9896024
-0.1581534,-0.1521738,-0.9899339
-0.1590808,-0.1536058,-0.9906656
-0.1603779,-0.1549897,-0.988024
-0.1613548,-0.1563058,-0.9869272
-0.1561898,-0.1551862,-0.9880029
-0.1528501,-0.1531621,-0.9891243
-0.1560892,-0.1531146,-0.9904775
-0.157954,-0.1534513,-0.9914618
-0.1568649,-0.1563449,-0.9933658
-0.1564788,-0.156961,-0.993315
-0.157888,-0.1544963,-0.989613
-0.1595843,-0.154288,-0.9882213
-0.1616355,-0.1514196,-0.9894892
-0.1618342,-0.1489554,-0.9916495
-0.1598526,-0.1510496,-0.993745
-0.1594845,-0.1516275,-0.9919755
-0.1572143,-0.1494703,-0.9894451
-0.1558052,-0.1483769,-0.9900092
-0.1578265,-0.1513376,-0.9907379
-0.1567208,-0.1537576,-0.9901519
-0.1566009,-0.1518571,-0.9900751
-0.1575375,-0.1508468,-0.9909138
-0.1567842,-0.1524868,-0.9915748
-0.1589717,-0.15327,-0.9915545
-0.159983,-0.1525731,-0.9889169
-0.1578606,-0.1529024,-0.98651
-0.1563308,-0.1542011,-0.9885196
-0.1566735,-0.1556941,-0.989569
-0.1575373,-0.1559188,-0.9885611
-0.1567624,-0.1536086,-0.9876721
-0.1577715,-0.1535783,-0.982701
-0.1595145,-0.1551132,-0.9781029
-0.1606928,-0.1547141,-0.9837904
-0.1628396,-0.1556866,-0.9933845
-0.1600546,-0.1564059,-0.9942782
-0.1558354,-0.1569656,-0.9914805
-0.1573704,-0.1600145,-0.9896522
-0.1601216,-0.1606876,-0.9851369
-0.1615551,-0.1608766,-0.9834632
-0.1615245,-0.1629945,-0.9850179
-0.1606046,-0.1604299,-0.9890792
-0.1608852,-0.1563754,-0.9962076
-0.1595608,-0.1571451,-0.9952596
-0.1576159,-0.1580366,-0.990853
-0.1592337,-0.1561802,-0.9920854
-0.1604198,-0.1565183,-0.9910718
-0.1594357,-0.1596771,-0.988416
-0.1596698,-0.1600722,-0.986233
-0.1602513,-0.1594072,-0.9834085
-0.1610127,-0.16004,-0.9815399
-0.1613149,-0.1594845,-0.9791627
-0.1590446,-0.1597569,-0.9838333
-0.1572662,-0.1602745,-0.9914685
-0.1579486,-0.1611823,-0.9889592
-0.1610556,-0.1626287,-0.9883602
-0.1653562,-0.1590061,-0.9936232
-0.1646625,-0.1553656,-0.9941213
-0.1630185,-0.1574813,-0.989585
-0.1674948,-0.1604526,-0.98218
-0.1699898,-0.162373,-0.980252
-0.1681645,-0.16308,-0.9828423
-0.1643598,-0.1626458,-0.9808488
-0.1592075,-0.1639049,-0.980299
-0.1603609,-0.1654333,-0.982909
-0.1616657,-0.1643715,-0.9845931
-0.1582823,-0.1637057,-0.9854549
-0.1588377,-0.162588,-0.9856592
-0.1591342,-0.159981,-0.9877592
-0.1592462,-0.1610623,-0.9880393
-0.1622742,-0.1623643,-0.9852591
-0.1617795,-0.162906,-0.9855955
-0.1632093,-0.1655104,-0.9858656
-0.1674934,-0.1640672,-0.9840839
-0.1659249,-0.1624157,-0.9847669
-0.1632719,-0.1630162,-0.986067
-0.1628866,-0.1603534,-0.9860476
-0.1609752,-0.1605149,-0.9862673
-0.1587294,-0.1621214,-0.9860825
-0.1572501,-0.1601013,-0.985968
