accx,accy,accz
-0.06335838,1.001975,0.2293306
-0.06388105,1.009935,0.2305528
-0.06697451,0.9840517,0.227607
-0.05889648,0.9754897,0.2178699
-0.04754804,0.983486,0.2143745
-0.04042722,0.9880246,0.2089452
-0.0485577,0.9833268,0.1989036
-0.06152993,0.975551,0.2020786
-0.05048127,0.9772268,0.2044433
-0.02945544,0.9713994,0.1976238
-0.01684603,0.9743881,0.2005912
-0.02235049,0.9905464,0.2050497
-0.03687737,0.9928579,0.1995717
-0.02575445,0.9941377,0.1919159
-0.01793547,0.997642,0.1853921
-0.02785787,1.006254,0.1783078
-0.02334644,1.010868,0.1736219
-0.02776925,0.9923422,0.182015
-0.03607678,0.9784386,0.1928254
-0.03070105,0.9805539,0.1850518
-0.0347457,0.9833131,0.1809871
-0.03720076,0.9790978,0.2005923
-0.03377133,0.9787247,0.2116474
-0.03501482,0.9953305,0.1951686
-0.04429211,1.00307,0.1825041
-0.06171129,0.9806687,0.1957868
-0.0666988,0.9503163,0.2089131
-0.06762906,0.948548,0.2077519
-0.08879582,0.9645937,0.2119249
-0.1135292,0.9814685,0.2088765
-0.1102594,1.007426,0.1971223
-0.09135265,0.9992146,0.2030086
-0.09018518,0.9735541,0.2078903
-0.0975945,0.9804157,0.2054764
-0.1013256,0.973309,0.2084338
-0.09101137,0.9624851,0.2070534
-0.06101808,0.9711869,0.2109231
-0.03958297,0.976087,0.2213396
-0.0291518,0.9909446,0.2308186
-0.02355848,0.9919251,0.2391833
-0.02211339,0.9860387,0.2337657
-0.01821236,0.9950801,0.2269611
-0.02191075,0.9761529,0.2300216
-0.02082472,0.9557129,0.229293
-0.01785966,0.9618328,0.2285083
-0.02862402,0.971188,0.2298726
-0.04139473,0.9826798,0.2283902
-0.05691165,0.9821548,0.2268819
-0.0601748,0.977049,0.2234071
-0.05460698,0.979502,0.2215707
-0.06030025,0.9774245,0.2261407
-0.05912255,0.9801239,0.2292103
-0.059439,0.9863644,0.227195
-0.06454666,0.9883351,0.2245467
-0.05826769,0.9878744,0.2231812
-0.05322807,0.984063,0.2234864
-0.05019298,0.9782633,0.2253848
-0.04766523,0.9712589,0.2282834
-0.04733853,0.9722417,0.231649
-0.04308968,0.9765378,0.2324963
-0.03683023,0.9749882,0.229758
-0.02980128,0.9779599,0.2286314
-0.03118585,0.9773698,0.2313357
-0.03882067,0.9716738,0.2364339
-0.03917105,0.9747842,0.2414306
-0.03924805,0.9777641,0.2410311
-0.04133494,0.9795835,0.2386768
-0.04333179,0.9823028,0.2377324
-0.04585085,0.9812023,0.2336777
-0.04506644,0.9808727,0.2321446
-0.04933477,0.9741328,0.2350869
-0.05438897,0.9679179,0.2336745
-0.04768537,0.9787165,0.228143
-0.04082951,0.9891903,0.2244844
-0.04200742,0.9856518,0.2293751
-0.04661561,0.979072,0.2366918
-0.0490225,0.9770831,0.2347593
-0.04425334,0.9773716,0.2359548
-0.03868246,0.977556,0.2400196
-0.03979668,0.9753867,0.2312468
-0.04157863,0.9725351,0.2264315
-0.04047098,0.9755037,0.2371501
-0.0417122,0.977442,0.2451969
-0.04091654,0.9749051,0.2417258
-0.03645744,0.9748238,0.237857
-0.03603571,0.9753569,0.2395047
-0.03784278,0.9771926,0.2380796
-0.03967527,0.9801851,0.2370509
-0.04039128,0.9809036,0.238486
-0.04115227,0.9793977,0.2360315
-0.04528057,0.9766787,0.2373339
-0.04654381,0.9760687,0.2391508
-0.04489997,0.9763708,0.2391089
-0.04235685,0.9767815,0.2417313
-0.03899184,0.9783184,0.2358557
-0.04114787,0.979978,0.2294497
-0.04637579,0.9822887,0.234745
-0.04899776,0.9835037,0.238118
-0.04581243,0.982465,0.2358437
-0.04120878,0.9796043,0.2374151
-0.04483281,0.9778022,0.2398303
-0.04580035,0.976946,0.2367172
-0.035978,0.9755256,0.2341782
-0.02922115,0.9816635,0.2355661
-0.03261404,0.9879519,0.2384087
-0.03974063,0.9797583,0.2422999
-0.04286669,0.9711064,0.2418657
-0.04197656,0.9737864,0.2381407
-0.04118638,0.9769304,0.2370529
-0.04215612,0.9779598,0.2371171
-0.04442077,0.9810456,0.2359911
-0.04449285,0.9804709,0.2322697
-0.04267109,0.9764481,0.2322615
-0.04165255,0.972549,0.2392307
-0.04130597,0.970128,0.2407606
-0.04001472,0.9753194,0.2374479
-0.03808098,0.9795221,0.2396322
-0.03887582,0.974341,0.2422385
-0.0393319,0.9702155,0.2430326
-0.03877801,0.96955,0.2436839
-0.04095338,0.96841,0.2404975
-0.0421715,0.9679041,0.2359406
-0.0422709,0.9694385,0.2322053
-0.04416695,0.9733576,0.2334646
-0.04591183,0.9784327,0.2411021
-0.04281527,0.9831013,0.244387
-0.038293,0.9838112,0.2423698
-0.04028931,0.9810135,0.2382243
-0.03934661,0.9792632,0.2345396
-0.02945946,0.9807822,0.2361796
-0.02455323,0.9864093,0.2373874
-0.03542929,0.9881585,0.2404207
-0.0503242,0.9757413,0.2492762
-0.04608641,0.9602183,0.2515042
-0.03013845,0.9617727,0.2386201
-0.02767457,0.9730673,0.220616
-0.05005266,0.9765392,0.2181031
-0.07689421,0.9755139,0.231439
-0.06783185,0.976548,0.2379201
-0.05268541,0.982795,0.2266557
-0.06253514,0.9881247,0.2168965
-0.06075182,0.9811374,0.226312
-0.05910386,0.9715153,0.2332366
-0.05949622,0.9664252,0.2275948
-0.04587526,0.9625451,0.2291417
-0.05183776,0.9612575,0.2353253
-0.05746249,0.9599499,0.2438049
-0.05226237,0.9608247,0.2525408
-0.05615602,0.9665696,0.2437522
-0.05014198,0.976591,0.2348727
-0.04808619,0.9837516,0.2443568
-0.05045715,0.9732311,0.2487455
-0.04548388,0.9603132,0.2453306
-0.0455085,0.9658458,0.2506294
-0.03997418,0.9776077,0.2565659
-0.0382021,0.9858836,0.2535319
-0.04057725,0.9868818,0.2418038
-0.03245939,0.9817587,0.2279403
-0.02126967,0.9837745,0.2231798
-0.003597611,0.9875873,0.2217841
0.001380986,0.9886982,0.2186778
-0.01053918,0.9924736,0.2260461
-0.01009671,0.9930234,0.2384636
-0.006189877,0.9961248,0.2431196
-0.005162984,0.9958604,0.2415883
-0.002698691,0.9779621,0.2311667
-0.0001885349,0.9676789,0.2193972
0.01396855,0.9859837,0.2163008
0.02551895,1.005718,0.2122361
0.01380246,0.9978363,0.2106072
-0.004278132,0.9888528,0.217786
-0.009319041,0.990032,0.2256756
-0.01140503,0.9730109,0.2356971
-0.01702562,0.9674604,0.2412279
-0.01617994,0.984083,0.2362637
-0.01875163,0.9871575,0.2326011
-0.02479563,0.9810125,0.2303514
-0.02189551,0.9706157,0.2368445
-0.02053085,0.9661128,0.2485415
-0.01862094,0.9686295,0.2386279
-0.01341808,0.9636437,0.2300576
-0.01488377,0.9637115,0.2395971
-0.01600916,0.9602581,0.2395664
-0.01287705,0.9548567,0.2331004
-0.01203058,0.9712375,0.2248077
-0.01561336,0.9951084,0.2212461
-0.0240191,0.9992517,0.2467719
-0.03104278,0.9744745,0.2699043
-0.0230106,0.9560082,0.2492125
-0.007006078,0.9754386,0.2279705
-0.003723041,0.9957211,0.2400283
-0.008647311,0.991363,0.2359588
-0.01039615,0.989026,0.2131086
-0.007246934,0.9913255,0.2121729
-0.002881804,0.9850276,0.2196482
-0.0006240082,0.9835577,0.2277439
0.006813975,0.9796902,0.2353383
0.01237175,0.9655403,0.2376851
0.01096331,0.9632822,0.2376521
0.01481445,0.9771155,0.2286789
0.01762892,0.9913847,0.2320416
0.01176449,0.9845071,0.2403184
-0.004476938,0.9678578,0.235914
-0.02353917,0.9633301,0.2401212
-0.02092557,0.959213,0.2374583
-0.01233218,0.9693743,0.2314655
-0.01549817,0.9865461,0.2351099
-0.007451744,0.9834611,0.2314315
-0.002557268,0.9830192,0.2293478
-0.01258686,0.9869923,0.2211936
-0.01203145,0.9855134,0.213905
-0.005835412,0.979797,0.2259196
-0.001805892,0.9697074,0.2305202
-0.003761943,0.9723313,0.2201068
-0.01333053,0.9736344,0.2128952
-0.01469051,0.9677088,0.221862
-0.01538116,0.976927,0.2308601
-0.01560433,0.9876629,0.2232966
-0.00944542,0.9912679,0.2233362
-0.006203473,0.9918168,0.2323354
-0.002793906,0.9806904,0.2344502
-0.005656628,0.9703908,0.2248825
-0.009087781,0.9795033,0.2039883
-0.006393013,0.9917257,0.1978485
-0.01292509,0.9856659,0.2170643
-0.02115761,0.9705282,0.2404529
-0.02536511,0.9607476,0.246009
-0.02954102,0.9694301,0.231886
-0.03423258,0.983709,0.2241246
-0.0367883,0.9722399,0.2309209
-0.02491469,0.9656764,0.2332654
-0.01052893,0.9821181,0.2259293
-0.007668283,0.9876847,0.2184793
-0.01151647,0.9881098,0.2136051
-0.02268669,0.9879955,0.2103403
-0.03969109,0.9789655,0.2129907
-0.0507467,0.9694809,0.216421
-0.04142429,0.966266,0.2158872
-0.02679891,0.9769461,0.2145836
-0.02560151,0.9853967,0.2125327
-0.03086341,0.9844241,0.217185
-0.03921735,0.9846907,0.2223117
-0.03742893,0.9798887,0.2134915
-0.03184088,0.9778484,0.2063278
-0.03686599,0.9803977,0.2105853
-0.03365215,0.9815522,0.2135817
-0.02981149,0.9843668,0.2138766
-0.03014313,0.9834577,0.2143903
-0.0270569,0.9827732,0.2118148
-0.0300636,0.9838114,0.2114314
-0.02662917,0.9828948,0.2175954
-0.02185815,0.9825474,0.2204955
-0.02200938,0.9825246,0.2203082
-0.01606097,0.9863048,0.2232793
-0.01924097,0.9901554,0.2219313
-0.02860724,0.9863481,0.2175787
-0.03331124,0.9792857,0.2164
-0.03273757,0.9753273,0.2185642
-0.02545063,0.9723947,0.2296149
-0.02566196,0.9699093,0.2379848
-0.03253393,0.9767774,0.2262539
-0.03634049,0.9880327,0.2138625
-0.0305478,0.9922322,0.2193702
-0.02056697,0.9961526,0.2223024
-0.02650226,0.995276,0.2170718
-0.03474403,0.9791946,0.2182916
-0.03670366,0.9665059,0.2125774
-0.03998346,0.9696155,0.2044007
-0.03713167,0.9771025,0.2152012
-0.03804884,0.9811928,0.2235974
-0.03805032,0.9815979,0.2178811
-0.03215956,0.9843751,0.213831
-0.03622297,0.9856099,0.2127162
-0.03733776,0.9751124,0.2150149
-0.03491269,0.9661754,0.220697
-0.03817608,0.9721531,0.2218862
-0.03824606,0.9802124,0.2191802
-0.03914114,0.9791405,0.2192165
-0.03929137,0.9777558,0.2192332
-0.03868387,0.9780491,0.2171325
-0.04241798,0.9763057,0.2174271
-0.04425499,0.9774966,0.2168339
-0.04354359,0.9780458,0.2122386
-0.03994439,0.9780322,0.2088475
-0.03760295,0.9812405,0.2093657
-0.03937554,0.9841009,0.2095461
-0.03893641,0.9856499,0.2114713
-0.03866886,0.9829885,0.2180315
-0.03910639,0.9798702,0.223363
-0.03871031,0.979434,0.2270525
-0.03921024,0.9801865,0.2231135
-0.03968411,0.982671,0.2157305
-0.04004653,0.979397,0.2182497
-0.03775328,0.9767164,0.2173893
-0.03514852,0.9820161,0.2151535
-0.03710485,0.9841798,0.2199436
-0.03921646,0.9812402,0.2192249
-0.03943084,0.9777405,0.2173185
-0.04147221,0.9775509,0.2170385
-0.04381769,0.9802386,0.2175961
-0.04239376,0.9820504,0.2208819
-0.04113704,0.9843187,0.2193279
-0.04372451,0.9848699,0.2174614
-0.04467561,0.9832702,0.2140781
-0.04108588,0.9804368,0.2074208
-0.03659459,0.9780231,0.2110415
-0.03515306,0.9793206,0.2188265
-0.03601441,0.9795519,0.221825
-0.03457386,0.9789122,0.2232975
-0.0328064,0.980672,0.2218998
-0.03507972,0.9825522,0.221915
-0.03710412,0.9830379,0.2238663
-0.03632813,0.9789717,0.2233899
-0.03790678,0.9746152,0.2237403
-0.04176032,0.9761742,0.2237578
-0.04425254,0.9784201,0.2232394
-0.0484013,0.9811253,0.2239953
-0.05185611,0.9865054,0.223416
-0.04534636,0.9865315,0.2228282
-0.03672662,0.9837667,0.2195928
-0.03862833,0.9846752,0.2132486
-0.04208466,0.9811838,0.2121016
-0.04055392,0.9777399,0.2155852
-0.03842111,0.9813994,0.2205518
-0.0358047,0.9820602,0.2270439
-0.03881462,0.9781602,0.2277876
-0.043223,0.9755616,0.2220347
-0.03690391,0.9786463,0.2223573
-0.03269128,0.9852025,0.2255012
-0.03732976,0.9861216,0.2226639
-0.03934103,0.9817536,0.2227521
-0.03883323,0.9774886,0.222
-0.03937521,0.9789324,0.2173918
-0.04158479,0.9824163,0.2189188
-0.04340138,0.9818656,0.220003
-0.04057835,0.9839523,0.2213487
-0.03720324,0.9850412,0.2253533
-0.0370352,0.9811985,0.2234697
-0.03628415,0.9780441,0.222843
-0.03533774,0.9760776,0.2244488
-0.03623308,0.9775299,0.2231567
-0.03445899,0.9792049,0.2234485
-0.03225472,0.979063,0.2238638
-0.03418294,0.9795509,0.2257512
-0.03673929,0.9782576,0.2288464
-0.04064759,0.9765808,0.2265293
-0.04310919,0.9742438,0.2249633
-0.04136511,0.9733509,0.2274018
-0.04210648,0.9743744,0.2263938
-0.0425759,0.9731626,0.2256801
-0.0391797,0.9752524,0.2271727
-0.03688207,0.9798848,0.2247513
-0.03562465,0.9837519,0.2200052
-0.03426668,0.9860722,0.2155932
-0.03412682,0.9833131,0.2175306
-0.03332897,0.9826351,0.2235629
-0.03123633,0.9840196,0.2227819
-0.03160581,0.9828967,0.2241618
-0.03226698,0.9832942,0.2281766
-0.02973556,0.9825551,0.2263243
-0.02860146,0.9814013,0.2277868
-0.03159739,0.9810704,0.2303032
-0.04081873,0.9758525,0.228556
-0.04882728,0.968384,0.2272136
-0.03834608,0.9674125,0.2263536
-0.02450507,0.9750858,0.2279538
-0.03006388,0.9827924,0.2286402
-0.03791653,0.9845741,0.221861
-0.03870561,0.982887,0.2145754
-0.04022862,0.9807552,0.2159881
-0.03817109,0.9798262,0.2198669
-0.03832608,0.9796986,0.2217686
-0.04020846,0.9816591,0.2280025
-0.03772907,0.9821214,0.2303928
-0.03836947,0.9777322,0.2264015
-0.03491171,0.9754341,0.2274925
-0.02924471,0.9764205,0.2278555
-0.0305589,0.9776508,0.2271404
-0.02918317,0.9775123,0.2327968
-0.02903643,0.9748449,0.2355188
-0.03370333,0.973888,0.2300453
-0.0363533,0.9776865,0.2248567
-0.03678882,0.9822496,0.2260163
-0.03593348,0.9801531,0.2270475
-0.03790812,0.9777911,0.2240706
-0.03982608,0.9819045,0.2240426
-0.03843761,0.9822217,0.2256305
-0.03772607,0.9796386,0.2258841
-0.03648056,0.9792102,0.2268038
-0.0356456,0.9795351,0.2269673
-0.03625259,0.9815652,0.22633
-0.03617547,0.9816093,0.2255447
-0.03602884,0.9825508,0.2261681
-0.0357641,0.9843913,0.2274442
-0.03437566,0.9819012,0.2280924
-0.03291128,0.9788207,0.2314391
-0.03420152,0.9754297,0.2336326
-0.03635074,0.9760854,0.2339968
-0.03656307,0.9813536,0.2357002
-0.03814445,0.9806164,0.2304956
-0.04131298,0.9731376,0.2229542
-0.04163694,0.9667324,0.2235024
-0.03793822,0.9750285,0.2225805
-0.03480214,0.9902048,0.2189458
-0.03629564,0.9888549,0.2193541
-0.03899082,0.9803891,0.2176926
-0.04073181,0.9766533,0.2158512
-0.04242459,0.9773645,0.2179568
-0.04178953,0.9817118,0.2185128
-0.0407401,0.9815684,0.2190365
-0.04035072,0.9840392,0.2206692
-0.03806057,0.9854183,0.2210609
-0.03755355,0.9759377,0.2216599
-0.03800539,0.9724838,0.2244981
-0.03690199,0.9771283,0.2294214
-0.03771581,0.9806427,0.2302131
-0.03773832,0.9794863,0.2275847
-0.03703224,0.9757796,0.2258693
-0.03808446,0.9764022,0.2227157
-0.03823624,0.9735359,0.2227988
-0.03922333,0.9704979,0.2251348
-0.04035396,0.9711495,0.2248245
-0.04093453,0.9701721,0.2265748
-0.04233628,0.9773688,0.2261294
-0.04123273,0.9856876,0.2228432
-0.03952753,0.985861,0.2237023
-0.03914832,0.9862894,0.2237089
-0.04016845,0.9839669,0.2219137
-0.04267617,0.9778458,0.2205735
-0.0416502,0.9775501,0.2191145
-0.04003471,0.9790983,0.2220801
-0.04065191,0.9750795,0.2249725
-0.03994545,0.9757122,0.2233941
-0.04012534,0.9779688,0.2234217
-0.03966679,0.9750812,0.2248676
-0.03786204,0.9773344,0.2253259
-0.03728849,0.9795571,0.2268261
-0.03606344,0.9789696,0.2310343
-0.03743167,0.9746742,0.234852
-0.03953678,0.9677208,0.2317101
-0.03608993,0.9777941,0.2225234
-0.03360923,0.991135,0.2154788
-0.03614289,0.9876009,0.2160397
-0.03857737,0.9791495,0.2182274
-0.0391687,0.9725462,0.2166089
-0.03897813,0.9727259,0.2206814
-0.03872998,0.9745348,0.2288541
-0.03927344,0.9722266,0.2290132
-0.04059701,0.9791164,0.2237045
-0.04119544,0.9861833,0.2192121
-0.04009583,0.9798334,0.2209879
-0.03889982,0.9744595,0.2243165
-0.03893158,0.9751531,0.2221883
-0.03850221,0.9758103,0.2239506
-0.03698858,0.9767486,0.2266667
-0.03612295,0.9765204,0.2266237
-0.03771658,0.9769481,0.2285471
-0.04074114,0.9811052,0.2254217
-0.04088117,0.9841048,0.2220539
-0.0405809,0.9807369,0.2229225
-0.0419625,0.9756647,0.224385
-0.03993089,0.9759303,0.2272962
-0.03793195,0.9773909,0.224884
-0.03926691,0.9777412,0.2225968
-0.03997597,0.9798262,0.2269541
-0.03981215,0.9795335,0.2286639
-0.03777098,0.9781111,0.2277282
-0.0351203,0.9774913,0.2280494
-0.03584648,0.9740006,0.2307235
-0.03695251,0.9733147,0.233854
-0.03663506,0.9779087,0.2321766
-0.03768148,0.9809313,0.2259006
-0.03778469,0.9801512,0.2215512
-0.03606492,0.9784052,0.2285522
-0.03642038,0.9791163,0.2376881
-0.03794658,0.9793211,0.2354686
-0.039274,0.9760023,0.2337351
-0.03917072,0.9715583,0.2336206
-0.03737375,0.9705055,0.2274379
-0.0374865,0.9815186,0.2253775
-0.03777283,0.9931267,0.2279083
-0.03796673,0.9853583,0.2324493
-0.03876706,0.9757384,0.238014
-0.03817643,0.9780723,0.2345942
-0.03994275,0.9772091,0.230077
-0.04186357,0.9758497,0.2303843
-0.04059726,0.9798026,0.2269109
-0.04010598,0.9805678,0.2254237
-0.03966594,0.9773376,0.2287696
-0.03765375,0.9717804,0.2324897
-0.03538626,0.9701614,0.2352482
-0.03541863,0.9764765,0.2316958
-0.03601512,0.9819218,0.2272269
-0.03408009,0.9830869,0.2301516
-0.03460293,0.9826762,0.2313039
-0.0363209,0.9841366,0.2266667
-0.03582075,0.9857206,0.2238995
-0.03637517,0.9834701,0.2231465
-0.03612179,0.9810955,0.2238349
-0.03599569,0.9785104,0.2271379
-0.03757621,0.9784004,0.2327706
-0.03838579,0.9812548,0.2379685
-0.0391393,0.9803207,0.2345331
-0.03788508,0.9805273,0.2297181
-0.03594949,0.981816,0.2323622
-0.03577135,0.9805456,0.2325641
-0.03457997,0.9798655,0.2315353
-0.03463792,0.9789297,0.233835
-0.03651278,0.9808564,0.2328527
-0.03655812,0.982708,0.2284319
-0.03569145,0.9797563,0.225119
-0.03575295,0.9794239,0.2268946
-0.03463855,0.9836856,0.2317466
-0.03353139,0.986914,0.2341835
-0.03859365,0.9827067,0.233276
-0.04350415,0.9764408,0.2300003
-0.03878117,0.9786501,0.2282926
-0.03102357,0.9838076,0.2283449
-0.02830998,0.986241,0.2275982
-0.03220316,0.9822756,0.2275016
-0.03872715,0.9747141,0.2270037
-0.04120451,0.9754084,0.2258798
-0.04153623,0.9762825,0.2254171
-0.04188409,0.9738332,0.2248947
-0.03975105,0.9775835,0.2253808
-0.03869311,0.9799867,0.2278065
-0.03936734,0.9798056,0.2299942
-0.03834033,0.9797662,0.2294004
-0.03797144,0.9768084,0.2280708
-0.03757436,0.9783011,0.2268091
-0.03680298,0.9805175,0.2249381
-0.03705897,0.9792689,0.2283538
-0.03574991,0.9837035,0.2343131
-0.03574531,0.9877043,0.2329882
-0.03672075,0.98521,0.2280834
-0.03640339,0.9825656,0.2255072
-0.03992539,0.9787337,0.2263038
-0.04388354,0.9733958,0.229921
-0.04287431,0.974534,0.2295357
-0.03921693,0.9805946,0.2224073
-0.03458885,0.9828271,0.2156487
-0.03265603,0.9837038,0.2174648
-0.03739483,0.9822413,0.2245691
-0.04608356,0.9744077,0.2310194
-0.0497868,0.9693035,0.2380883
-0.04434806,0.9722662,0.2352041
-0.03930167,0.978115,0.2281774
-0.04150435,0.9784512,0.2335486
-0.04128104,0.9759049,0.2348264
-0.03536146,0.9773591,0.2330344
-0.03466822,0.9787591,0.2355442
-0.03946151,0.9803534,0.231153
-0.04262674,0.9769906,0.2309216
-0.04055501,0.9719485,0.2307452
-0.03727869,0.9792823,0.223784
-0.04035087,0.9844722,0.2241231
-0.04218922,0.9792319,0.228917
-0.04096601,0.9734797,0.233306
-0.0423139,0.9709453,0.2309466
-0.04142686,0.9782771,0.225815
-0.04176912,0.9868694,0.2285504
-0.04401789,0.9838089,0.228223
-0.04441418,0.9812469,0.2283308
-0.04463996,0.9835037,0.2330766
-0.04170659,0.9771068,0.2330936
-0.03818495,0.9719086,0.2308955
-0.03552927,0.9802989,0.2283126
-0.0326669,0.9857089,0.2297352
-0.03235404,0.9814402,0.2332169
-0.03444816,0.9791422,0.2332596
-0.03942688,0.9819295,0.2353331
-0.04175453,0.9820723,0.2350747
-0.04119176,0.9772291,0.2318212
-0.04237164,0.9738694,0.2283829
-0.0413157,0.9740134,0.2229174
-0.04144341,0.9800241,0.2235687
-0.04245506,0.9861439,0.2260343
-0.04174916,0.9847621,0.2258745
-0.042787,0.9838827,0.2315192
-0.04154169,0.9830314,0.2351234
-0.04064391,0.9789786,0.2324037
-0.04065334,0.9770897,0.2298351
-0.03791453,0.977472,0.226487
-0.03848107,0.9785802,0.2261093
-0.0380188,0.9802032,0.2284563
-0.03304493,0.984394,0.2265058
-0.0315013,0.9867187,0.2253548
-0.03452761,0.9805357,0.2281232
-0.03702307,0.9756853,0.2279196
-0.03444976,0.9787057,0.2263474
-0.03269685,0.9803889,0.227298
-0.03735781,0.9785609,0.2296593
-0.04024066,0.9790132,0.2331143
-0.03917714,0.9796792,0.2326194
-0.04057886,0.978733,0.2308694
-0.04428282,0.9792917,0.2335989
-0.04545377,0.9793419,0.2336636
-0.04487014,0.979027,0.2329912
-0.04611356,0.9803367,0.2345767
-0.04566146,0.9807139,0.2339141
-0.04193087,0.9798805,0.2346854
-0.03722,0.9769625,0.2375468
-0.03290998,0.9743392,0.2390591
-0.03277821,0.9776097,0.2357219
-0.03426237,0.9819276,0.2311666
-0.03517117,0.9825476,0.2322386
-0.03847727,0.9832973,0.2307515
-0.03996987,0.9832331,0.2276018
-0.03972945,0.9787748,0.2305057
-0.04230375,0.973972,0.2348892
-0.04408051,0.9734699,0.2408146
-0.04380202,0.9772652,0.2426949
-0.04445044,0.9806865,0.2363728
-0.04411481,0.978847,0.2323865
-0.04039916,0.9765972,0.229582
-0.03672901,0.9772389,0.2272063
-0.03611947,0.9797077,0.2294885
-0.03631912,0.9841524,0.2286914
-0.03592986,0.9833077,0.2291336
-0.03608789,0.9775582,0.2349958
-0.03627953,0.9747145,0.2365513
-0.0363109,0.9755401,0.2353603
-0.03811213,0.9816816,0.2333811
-0.04077714,0.9849039,0.2314519
-0.04240034,0.9750264,0.22865
-0.04269754,0.9669536,0.2220262
-0.03966248,0.9765054,0.2232804
-0.03629354,0.9877586,0.2289004
-0.03809485,0.9836608,0.2291432
-0.04005446,0.9769584,0.230297
-0.03844516,0.9752538,0.2315368
-0.03862245,0.9771357,0.2338097
-0.03943576,0.982589,0.2344146
-0.03864801,0.9791783,0.2316389
-0.0400583,0.9754874,0.2321673
-0.04146096,0.9802245,0.2308409
-0.04029001,0.9781196,0.2321731
-0.03750352,0.9732108,0.2366426
-0.0349652,0.9707668,0.2334676
-0.03589421,0.973149,0.2323137
-0.03621448,0.9800832,0.2340227
-0.03565686,0.9776785,0.2318188
-0.03903871,0.9755272,0.2306664
-0.04253365,0.9768742,0.2294487
-0.04408257,0.9718466,0.2292728
-0.04096576,0.9703673,0.2320883
-0.03604084,0.9729862,0.2340518
-0.04158995,0.9759748,0.2336869
-0.04724945,0.9774778,0.2327172
-0.04279475,0.9756421,0.2335901
-0.04148531,0.9765811,0.2335465
-0.04136942,0.9773697,0.2323452
-0.03740125,0.9794535,0.2310434
-0.03767867,0.983188,0.2282119
-0.03813025,0.9788388,0.2296006
-0.03674415,0.9706843,0.2345576
-0.0374793,0.9677035,0.2366856
-0.03586091,0.974588,0.2358076
-0.03432078,0.982315,0.2342889
-0.03753775,0.9766529,0.2373599
-0.03944826,0.9694873,0.2382915
-0.03606528,0.9699531,0.2277321
-0.03215208,0.9737935,0.2195569
-0.03129006,0.9853446,0.2265934
-0.03144811,0.9928137,0.2360645
-0.03462082,0.9827778,0.2345593
-0.04057728,0.9735079,0.2330353
-0.04146993,0.9762638,0.2367489
-0.04039364,0.9776615,0.2362285
-0.03993464,0.9755813,0.2350681
-0.03649364,0.9774491,0.2327751
-0.03772601,0.9783525,0.2281459
-0.04049054,0.976331,0.2284276
-0.03772862,0.9763378,0.2288935
-0.03698398,0.9768964,0.2299687
-0.03586233,0.9790032,0.2348852
-0.0333999,0.9807064,0.2361449
-0.0341722,0.976122,0.2351882
-0.03573013,0.9720007,0.2351217
-0.0392765,0.9742643,0.2313101
-0.03973071,0.9762687,0.2291564
-0.03684841,0.9745066,0.2328798
-0.03832779,0.9746577,0.2326679
-0.04021011,0.9760525,0.2304697
-0.04211123,0.9762434,0.2308391
-0.04217721,0.9784498,0.2294619
-0.03879664,0.9780862,0.2332229
-0.03883015,0.9759989,0.2392696
-0.03858116,0.9767405,0.2381075
-0.03681777,0.9761686,0.239456
-0.03605494,0.9762923,0.2468175
-0.03544836,0.9764012,0.2487487
-0.03688324,0.9741672,0.2396489
-0.03696179,0.9740693,0.2284742
-0.03800782,0.9769318,0.2273499
-0.04184315,0.9804863,0.2305053
-0.04220629,0.9802235,0.228237
-0.03743511,0.9813737,0.2250619
-0.03143198,0.9885103,0.2232054
-0.03563451,0.988854,0.2227623
-0.04315625,0.9804662,0.2241111
-0.04135072,0.9730722,0.221691
-0.04196036,0.9723711,0.2206381
-0.04501193,0.9766359,0.2258392
-0.04529651,0.9771859,0.2297664
-0.04409824,0.9774809,0.2311892
-0.04003335,0.9793108,0.2318654
-0.04139198,0.9768315,0.2334768
-0.04259596,0.9746677,0.2367353
-0.03867058,0.9737524,0.2363053
-0.03815783,0.9752212,0.2318041
-0.03513268,0.9803457,0.229384
-0.03111287,0.9813681,0.230169
-0.03209664,0.9799957,0.2276871
-0.03446257,0.9797419,0.2225246
-0.03840678,0.9785227,0.2225414
-0.04148382,0.9771297,0.2287231
-0.04184938,0.9751298,0.2332331
-0.03982789,0.9743867,0.2278995
-0.03835153,0.9762457,0.2220929
-0.04087844,0.9794733,0.2249967
-0.04240366,0.9827534,0.2270541
-0.04144467,0.9807124,0.2274
-0.04035674,0.9760595,0.2287488
-0.03922765,0.9751009,0.2272754
-0.03827018,0.9733972,0.228572
-0.0369645,0.9726211,0.2338516
-0.03674894,0.9746106,0.2371167
-0.04019854,0.9733275,0.2369645
-0.04333911,0.9737069,0.2338524
-0.03647931,0.9772168,0.229984
-0.02873022,0.9796091,0.2259046
-0.03413436,0.9835115,0.2284621
-0.03891262,0.9848218,0.2357578
-0.03766393,0.9804938,0.2317868
-0.03942808,0.9743469,0.2265091
-0.03992753,0.97195,0.2281782
-0.04104659,0.9748801,0.2314579
-0.0423541,0.9770244,0.2385025
-0.03714793,0.9806385,0.2363449
-0.03560658,0.9837059,0.2320571
-0.03757143,0.980223,0.2377513
-0.03278758,0.976278,0.2380259
-0.03134017,0.973367,0.2381669
-0.03717372,0.9759621,0.2384643
-0.04015826,0.981599,0.2342464
-0.03918785,0.9781224,0.2355773
-0.03815739,0.9761995,0.2323417
-0.0389749,0.9790488,0.2271486
-0.03815971,0.9766211,0.2311952
-0.03573253,0.9739265,0.2332235
-0.03652627,0.9717524,0.2311555
-0.03812996,0.9712131,0.2299291
-0.04012129,0.9733587,0.2289699
-0.04090894,0.9725517,0.2300845
-0.03858926,0.9753689,0.236029
-0.03787457,0.979669,0.2426743
-0.03736342,0.9777177,0.2422913
-0.03735843,0.9780706,0.2385572
-0.03905566,0.9795343,0.2367996
-0.03953911,0.976278,0.2353096
-0.03945637,0.9759512,0.2335633
-0.03693259,0.9847418,0.2305342
-0.03574769,0.9918374,0.2295279
-0.04010226,0.9812925,0.2372029
-0.04196776,0.9700143,0.2432054
-0.03733515,0.977229,0.2339624
-0.03296275,0.9818076,0.2255517
-0.03570647,0.9783077,0.2320622
-0.03940846,0.9807008,0.2363079
-0.03859919,0.9786801,0.2338389
-0.03903359,0.9742567,0.2364504
-0.03943959,0.9770183,0.2368922
-0.04021467,0.9768104,0.2325187
-0.04268014,0.9758103,0.2306691
-0.04164402,0.9778957,0.228927
-0.0411711,0.9775894,0.2312278
-0.04165066,0.9769608,0.2349119
-0.0381589,0.9764918,0.2311252
-0.03403552,0.977886,0.2294159
-0.03233466,0.9800154,0.2318921
-0.03379212,0.9781519,0.2327183
-0.0356099,0.9771401,0.2309046
-0.03612871,0.9780621,0.2250031
-0.03691828,0.9768936,0.2255928
-0.03811269,0.9732128,0.2328448
-0.04203123,0.97042,0.2338351
-0.04482211,0.9747735,0.2323307
-0.0443458,0.9810348,0.2319789
-0.04616284,0.982293,0.2327242
-0.04596567,0.9843128,0.2356353
-0.04183777,0.9834537,0.2345494
-0.03817175,0.9775456,0.2316696
-0.03468788,0.9777537,0.233091
-0.03393561,0.9761196,0.2391522
-0.03410872,0.9701919,0.2450763
-0.03197351,0.9762053,0.2410304
-0.03155588,0.9857762,0.2336049
-0.03217176,0.9881483,0.2327952
-0.03188394,0.9856168,0.2330471
-0.03194365,0.9813332,0.2325967
-0.03247642,0.9832053,0.2318271
-0.03463851,0.9829228,0.2314549
-0.03692525,0.9768075,0.2324941
-0.03658832,0.9758369,0.2317388
-0.03696025,0.9763143,0.2319226
-0.04071107,0.9764613,0.2332574
-0.04256903,0.9770383,0.2332214
-0.0401796,0.978355,0.2330782
-0.03797333,0.9837294,0.2305224
-0.03713986,0.9848518,0.2285608
-0.03734725,0.9791097,0.230954
-0.03764029,0.9745975,0.2320942
-0.03641992,0.9761501,0.2284176
-0.03581478,0.9797697,0.2257189
-0.03598456,0.9801313,0.2307644
-0.03525099,0.9826555,0.2351994
-0.0344512,0.9847617,0.2310112
-0.03456755,0.9844382,0.2273695
-0.03551345,0.9851269,0.2288651
-0.03729389,0.9774759,0.2331107
-0.03944242,0.9689433,0.2377231
-0.03850565,0.9731929,0.2368553
-0.03643556,0.9783785,0.2347407
-0.03758543,0.9777984,0.2360803
-0.03699173,0.9791534,0.2328012
-0.03526206,0.9824732,0.228691
-0.03604222,0.9829127,0.2306465
-0.03428869,0.9785184,0.2302425
-0.03158357,0.9710299,0.2282526
-0.03173608,0.9702498,0.229936
-0.03299752,0.9772491,0.233455
-0.03642175,0.9802482,0.2410459
-0.04015872,0.9776721,0.2458422
-0.03948666,0.975479,0.2382246
-0.03733499,0.9786695,0.2305218
-0.0360947,0.9832841,0.233288
-0.03153724,0.9829331,0.2346719
-0.02948065,0.9809073,0.2319855
-0.03512338,0.9780362,0.2327968
-0.03847678,0.9776809,0.2318754
-0.03839288,0.9786826,0.2302463
-0.03893348,0.9768512,0.2310732
-0.03795824,0.9778879,0.2301235
-0.03724501,0.9765946,0.2305708
-0.03720534,0.9717557,0.2309452
-0.03675718,0.9712277,0.2307315
-0.03534788,0.9749503,0.234884
-0.03309192,0.98062,0.2388921
-0.03160196,0.9797986,0.2393095
-0.0313755,0.97659,0.2368364
-0.03248086,0.9776499,0.2352243
-0.03195614,0.977091,0.2364512
-0.03146422,0.9822198,0.2361601
-0.03323246,0.9876549,0.2357289
-0.03519221,0.9798416,0.2350855
-0.03871087,0.9736941,0.2324763
-0.03953676,0.9786645,0.2314116
-0.03966518,0.9827901,0.2319036
-0.04288208,0.9811276,0.2320295
-0.04049765,0.9784534,0.2309188
-0.03710887,0.973632,0.2307152
-0.03690552,0.9695781,0.2333711
-0.03535932,0.9725163,0.2355266
-0.03623103,0.9756027,0.2352054
-0.0365199,0.977033,0.2350232
-0.03517167,0.9795208,0.2366299
-0.03475911,0.9825264,0.2364308
-0.03319386,0.9857824,0.2354649
-0.0356407,0.9823252,0.2349689
-0.03904934,0.9785325,0.2280112
-0.03766378,0.9812653,0.221232
-0.03893909,0.9788937,0.2248445
-0.0422483,0.9700758,0.2281316
-0.04158345,0.9663867,0.223998
-0.03948571,0.9817198,0.2227482
-0.03979648,0.9995283,0.2270833
-0.04495062,0.9874611,0.231234
-0.04935839,0.9739039,0.2346207
-0.04216482,0.9811047,0.2341075
-0.03637396,0.9790308,0.232975
-0.05097769,0.9726462,0.2357872
-0.06140714,0.9724316,0.2332594
-0.0439732,0.9689723,0.2247719
-0.02915865,0.969706,0.2152712
-0.03806013,0.9686538,0.2152908
-0.04714391,0.9631307,0.2374136
-0.04846006,0.960644,0.2561427
-0.04928778,0.9597063,0.2498194
-0.04336752,0.9620086,0.243305
-0.03957462,0.9593889,0.2445941
-0.04265569,0.9570969,0.2375853
-0.03988051,0.9655214,0.2349509
-0.0333583,0.9788771,0.2368279
-0.02687433,0.9924983,0.2285812
-0.02527298,0.9890268,0.2334333
-0.02088534,0.9921599,0.195584
-0.01892751,0.9867744,0.1936439
-0.01667624,0.9878007,0.1993408
-0.01985843,0.9811412,0.204873
-0.0193493,0.9746929,0.2062278
-0.01699996,0.9803241,0.2107281
-0.01592934,0.9827251,0.2139748
-0.01526892,0.9865868,0.2105091
-0.01743493,0.9878813,0.2089049
-0.01685636,0.9824529,0.2130554
-0.0165286,0.9793817,0.2145657
-0.01980944,0.9793329,0.2129425
-0.02043659,0.9783833,0.2119975
-0.0182062,0.9714021,0.2120999
-0.01255627,0.9694353,0.2111003
-0.007099252,0.9753558,0.208458
-0.008653166,0.9826669,0.2081866
-0.01456545,0.9932239,0.2093018
-0.01814649,0.99469,0.2122192
-0.01670042,0.9881574,0.2153614
-0.01503783,0.98431,0.21279
-0.01541437,0.9795939,0.2114764
-0.01487169,0.9785835,0.2132631
-0.01342243,0.9825474,0.2122501
-0.0115358,0.9852397,0.2118018
-0.009528754,0.9860045,0.2101732
-0.008470521,0.9860128,0.2070031
-0.01053306,0.9861233,0.2074819
-0.01309988,0.9844528,0.2090788
-0.009183911,0.9807467,0.2130596
-0.005643913,0.9783541,0.2196986
-0.01076521,0.9796846,0.220681
-0.01399867,0.9815927,0.218907
-0.01032491,0.9797567,0.222294
-0.008710889,0.9774817,0.2275529
-0.009677868,0.9768719,0.2286995
-0.007961632,0.9797855,0.2206448
-0.005209968,0.9863803,0.2088632
-0.005551285,0.9872957,0.2078369
-0.007731672,0.9836966,0.2125196
-0.008699532,0.9793735,0.2155209
-0.008516693,0.9741423,0.2206333
-0.008596836,0.9800619,0.2185164
-0.01177628,0.9877871,0.211476
-0.01707316,0.9788369,0.213087
-0.01814528,0.9693655,0.2165683
-0.01247747,0.9697083,0.2181233
-0.006857144,0.9744891,0.2171189
-0.008517683,0.9854298,0.2127064
-0.01025761,0.9917182,0.2137211
-0.007452766,0.9863563,0.2145727
-0.008194135,0.9815684,0.2118827
-0.01001318,0.9809124,0.2118996
-0.008847895,0.9806204,0.2119452
-0.007319478,0.9825933,0.2170696
-0.004384104,0.9859594,0.2232434
-0.003353152,0.9857787,0.2200644
-0.004112573,0.9812438,0.2178209
-0.003840078,0.9768875,0.2192726
-0.005506983,0.978109,0.218614
-0.005908263,0.9840458,0.221047
-0.005138721,0.9870804,0.2252661
-0.005936166,0.9846545,0.2233729
-0.005345263,0.9815765,0.2198178
-0.005869215,0.9806082,0.2194629
-0.008139457,0.9791263,0.2189931
-0.01121141,0.9781491,0.2196278
-0.01380645,0.9803117,0.2197663
-0.0121328,0.9810053,0.2183218
-0.01072574,0.981779,0.2174131
-0.009320796,0.9829819,0.2152468
-0.005529288,0.9810694,0.2167074
-0.004855538,0.9820651,0.2196512
-0.004784484,0.9823506,0.2190459
-0.002899483,0.9805511,0.2191354
-0.002794694,0.9827272,0.2169744
-0.005516845,0.9835865,0.2176774
-0.0107055,0.982575,0.2240471
-0.01358247,0.978906,0.2229305
-0.009962555,0.975174,0.2186292
-0.00396824,0.9797668,0.2187576
-0.002724311,0.9856532,0.2178359
-0.008281369,0.9862673,0.2176329
-0.01406866,0.9823143,0.2188284
-0.01285546,0.9775997,0.2186203
-0.009445903,0.9767417,0.2187484
-0.009836357,0.9779663,0.2152571
-0.01005988,0.9827442,0.2098337
-0.01123241,0.9886592,0.2111486
-0.01351749,0.9879284,0.2125368
-0.01178911,0.9807037,0.2116715
-0.009138612,0.9751398,0.2161475
-0.006344585,0.9816536,0.2183539
-0.005073632,0.9887512,0.2153538
-0.007062409,0.9795985,0.2148196
-0.00676824,0.973712,0.2139646
-0.008936406,0.9830406,0.211628
-0.01471256,0.9879573,0.2074352
-0.01624507,0.9858795,0.200686
-0.01613466,0.9853724,0.202378
-0.01672964,0.9836642,0.2065291
-0.01680187,0.9784339,0.2021434
-0.01648283,0.9748882,0.2020256
-0.01543574,0.9791415,0.2036079
-0.01429346,0.9850498,0.2000171
-0.01362204,0.9868561,0.1998602
-0.01479339,0.9853121,0.2006988
-0.0156641,0.9791773,0.2041144
-0.01416768,0.9746808,0.2106703
-0.01410684,0.975986,0.211571
-0.01661074,0.9769188,0.2083476
-0.01750489,0.9743139,0.2057353
-0.01123196,0.9737543,0.2075688
-0.004228312,0.9793474,0.2113173
-0.008110903,0.9833026,0.2128347
-0.01445392,0.9805008,0.2116308
-0.01655681,0.9784156,0.2037919
-0.01882222,0.9829046,0.1987679
-0.01656421,0.9867372,0.2062644
-0.01371231,0.9852175,0.2145487
-0.01626888,0.9858948,0.2133143
-0.01744424,0.9861586,0.2105578
-0.01890975,0.9819024,0.2116532
-0.01995522,0.9800434,0.2100051
-0.01579578,0.9820619,0.2122423
-0.01266687,0.9842093,0.217026
-0.01168802,0.9823747,0.2111813
-0.01062505,0.979838,0.2068056
-0.01016254,0.9801565,0.2085879
-0.01177623,0.9796554,0.2079911
-0.01578018,0.9807647,0.208758
-0.01651675,0.9819283,0.2091444
-0.01602424,0.9806356,0.2066471
-0.01592608,0.9806919,0.2059833
-0.01418883,0.980379,0.2076641
-0.01622158,0.9804707,0.2072505
-0.01844793,0.9809013,0.2074833
-0.01897484,0.980338,0.2112816
-0.01821064,0.9818554,0.2123832
-0.01258335,0.9831452,0.2125235
-0.01181416,0.9834669,0.2130522
-0.01512912,0.98355,0.2128488
-0.01529719,0.9836987,0.2145498
-0.01572601,0.9871298,0.2139527
-0.0152689,0.9876766,0.2146428
-0.01697649,0.9774898,0.2206959
-0.01749798,0.9674515,0.2251563
-0.009610114,0.9744549,0.224268
-0.003638264,0.9868631,0.2214116
-0.00742853,0.9876096,0.2216764
-0.01256213,0.9868643,0.2191089
-0.01113555,0.9852536,0.2147881
-0.01183408,0.980698,0.2163577
-0.01457514,0.9818787,0.2146239
-0.01303742,0.9814555,0.212218
-0.01518739,0.9796972,0.2188595
-0.01281625,0.9808307,0.2233966
-0.007002771,0.9794875,0.2163143
-0.01037632,0.9789049,0.2091891
-0.01025804,0.9791782,0.2126377
-0.00721177,0.9791462,0.2140796
-0.006553492,0.979348,0.2120577
-0.004512806,0.9788763,0.2187778
-0.006580818,0.9797683,0.2246334
-0.007413048,0.9808847,0.2232572
-0.007038069,0.9823513,0.2195691
-0.01066653,0.9826122,0.215931
-0.01193866,0.9821347,0.2163055
-0.01356261,0.9838149,0.2171837
-0.01579092,0.9826118,0.2158494
-0.01459965,0.9812759,0.2140294
-0.01358843,0.9832526,0.2117473
-0.01215087,0.9832251,0.211934
-0.01191125,0.9813039,0.2122636
-0.01290383,0.979115,0.2106958
-0.01035728,0.9786274,0.2123293
-0.009189549,0.979595,0.215972
-0.01087583,0.9790455,0.2181186
-0.01132808,0.9790446,0.2212802
-0.01089989,0.9797412,0.2250302
-0.009083042,0.9807693,0.2259957
-0.008395283,0.9815036,0.2260838
-0.01096046,0.9762829,0.2268623
-0.01326854,0.9687929,0.2259532
-0.01090301,0.9695368,0.2237492
-0.004674854,0.9777105,0.2207859
-0.001491712,0.9864097,0.2182192
-0.002465673,0.990454,0.2197928
-0.003603253,0.9884434,0.2219496
-0.003717327,0.9858557,0.2210006
-0.004924587,0.9836018,0.2171638
-0.006473236,0.9806336,0.2111361
-0.005716675,0.9818466,0.2118807
-0.007996135,0.9828092,0.2170156
-0.01110604,0.9811361,0.2175077
-0.008973237,0.982252,0.21794
-0.00649608,0.9821567,0.215492
-0.004238403,0.9814525,0.2115915
-0.00336158,0.9824207,0.2144062
-0.004740072,0.9816909,0.2197502
-0.004073259,0.9826294,0.2259238
-0.004288253,0.9857588,0.2270897
-0.006445223,0.9877415,0.2212527
-0.0083473,0.984963,0.2183002
-0.0097718,0.9789001,0.2156306
-0.009747718,0.9783809,0.2143012
-0.009359806,0.9803365,0.2188663
-0.007826081,0.9815054,0.2200465
-0.005375408,0.984272,0.217218
-0.005189355,0.9836934,0.2164163
-0.005998112,0.9825558,0.2180572
-0.006584776,0.983672,0.2222648
-0.008027784,0.9825489,0.2238223
-0.008979517,0.9821515,0.2189554
-0.009095183,0.9827309,0.2140441
-0.009861321,0.9808957,0.2151913
-0.01002514,0.9800783,0.2189766
-0.01011305,0.9817021,0.2197751
-0.01339171,0.9812758,0.2191939
-0.01614306,0.9762537,0.2167457
-0.0136963,0.971052,0.2113973
-0.01129141,0.9724614,0.2085057
-0.01265618,0.9790175,0.2102907
-0.01282083,0.9835975,0.2149441
-0.01125653,0.9841732,0.2172101
-0.01193176,0.9831166,0.214003
-0.01299718,0.9841268,0.2103676
-0.01338058,0.9864291,0.2100307
-0.01431689,0.9861409,0.2092169
-0.01483989,0.9852583,0.206302
-0.01470122,0.9825979,0.2090897
-0.0119012,0.9784747,0.2125768
-0.007852148,0.9802683,0.2078994
-0.006730218,0.985101,0.20635
-0.006136078,0.986602,0.2109638
-0.007392847,0.9839892,0.2131192
-0.01111467,0.9795665,0.2097842
-0.01013211,0.9789565,0.2048683
-0.008574787,0.982046,0.206094
-0.01144233,0.9842473,0.210548
-0.01428119,0.9830345,0.2134325
-0.01841911,0.9798236,0.2127577
-0.01972125,0.977851,0.2087101
-0.01754307,0.9774235,0.207755
-0.02010253,0.9791862,0.2075211
-0.02013133,0.9815089,0.2061441
-0.01825867,0.9816357,0.2048747
-0.02032827,0.9795361,0.2008
-0.0183407,0.9772041,0.1993365
-0.01440377,0.9801302,0.2025656
-0.009856763,0.9829611,0.206154
-0.004328618,0.978026,0.2078673
-0.004342064,0.9747669,0.2067834
-0.01172479,0.9764586,0.2063134
-0.02165601,0.9759305,0.2054707
-0.01744886,0.9748914,0.2030903
-0.004055146,0.9776053,0.2022
-0.001234221,0.9803996,0.2013007
-0.006479344,0.9789869,0.2014462
-0.01669549,0.9776791,0.2053458
-0.01932713,0.9791035,0.2108273
-0.01431618,0.9830314,0.2128617
-0.01765945,0.988713,0.2073232
-0.016712,0.9884061,0.2020396
-0.01396039,0.9850076,0.206581
-0.01620141,0.9852206,0.2132573
-0.01389035,0.982474,0.2163021
-0.01220368,0.9789797,0.2165969
-0.009000816,0.9800657,0.211507
-0.007428481,0.9834253,0.2107031
-0.009501582,0.9870646,0.2145216
-0.008996521,0.9841076,0.2123237
-0.01071238,0.9799204,0.2130838
-0.01002477,0.9833756,0.2121602
-0.01184173,0.9839103,0.2049651
-0.01682612,0.9806954,0.2079649
-0.01520238,0.9809717,0.210871
-0.01690685,0.9830072,0.2079442
-0.01889681,0.985361,0.2110947
-0.01640767,0.98265,0.2118434
-0.01458582,0.9768707,0.2120239
-0.0119996,0.9766302,0.2144456
-0.01130049,0.9809659,0.2113985
-0.01014511,0.9858198,0.2106636
-0.00909957,0.9853875,0.2116674
-0.01029084,0.9820526,0.2115086
-0.01044639,0.9810345,0.2131168
-0.01104889,0.9789156,0.2114171
-0.009515285,0.9811065,0.2105395
-0.007594414,0.9839139,0.2126058
-0.009319099,0.9757812,0.2161705
-0.01008835,0.9702826,0.2194969
-0.008546445,0.9767044,0.2110908
-0.007154096,0.9828794,0.2020068
-0.007483474,0.9852504,0.2080275
-0.008303077,0.9892895,0.2129351
-0.009620128,0.9877007,0.210866
-0.01256247,0.9775305,0.2152236
-0.01331858,0.9745469,0.2181654
-0.01109306,0.9772965,0.212077
-0.007976393,0.9772634,0.2101788
-0.004210131,0.9788972,0.213277
-0.002894392,0.9783985,0.2139211
-0.003370591,0.9763838,0.211107
-0.002378852,0.9762703,0.2068895
-0.003615462,0.9766974,0.2082053
-0.004860192,0.9794624,0.2108052
-0.002710458,0.9809458,0.2099322
-0.00350882,0.9799186,0.211464
-0.007404612,0.978612,0.2140961
-0.01083535,0.9787466,0.2143766
-0.01005032,0.9787648,0.2131688
-0.005726132,0.9760594,0.2119084
-0.005516755,0.9764805,0.2099711
-0.006474562,0.978603,0.2090593
-0.006783681,0.9796279,0.2111387
-0.006145386,0.9815105,0.2113973
-0.001890703,0.9822792,0.2115483
-0.0007573888,0.9842544,0.2149423
-0.0015321,0.9860782,0.2168312
-0.001305482,0.9862538,0.2134473
-0.002191032,0.9859901,0.2085159
-0.003716432,0.9839074,0.2115817
-0.006227819,0.9830494,0.2196458
-0.004162227,0.9835447,0.2231214
-0.00199459,0.9851907,0.220414
-0.006865142,0.9859879,0.2149302
-0.009285842,0.9814715,0.2126639
-0.005981892,0.9776815,0.2094274
-0.001864664,0.9788065,0.207706
-0.0007774581,0.9805884,0.2122821
-0.002544145,0.9814721,0.2144153
-0.003088108,0.9838241,0.222414
-0.002984017,0.9848487,0.2291517
-0.003508337,0.9848756,0.218142
-0.004497391,0.9885375,0.2116814
-0.004573451,0.9870186,0.214087
-0.004627875,0.9829114,0.2115528
-0.005767744,0.9850015,0.2101915
-0.003852381,0.9834389,0.2118861
-0.002001656,0.9792997,0.2141456
-0.00384311,0.9784932,0.2158494
-0.004494708,0.979659,0.2169455
-0.003141078,0.9824387,0.2184013
-0.002381559,0.9835907,0.2204419
-0.002991384,0.9836034,0.2221324
-0.004031534,0.9821634,0.2214918
-0.005137556,0.9815673,0.2214574
-0.006565619,0.9833726,0.2206991
-0.008154403,0.9827123,0.2174495
-0.01052041,0.9806492,0.2152804
-0.0113665,0.9776659,0.2147909
-0.01149995,0.9779229,0.2139686
-0.01302165,0.9820439,0.2119217
-0.0113617,0.9840308,0.2116271
-0.008474795,0.9869727,0.2103627
-0.008226676,0.9869483,0.2101104
-0.00829017,0.9844796,0.2148841
-0.009218386,0.9850607,0.2155775
-0.009380792,0.9824843,0.213308
-0.008396506,0.9805766,0.2122564
-0.008917945,0.9802058,0.2128496
-0.01024898,0.9780402,0.2150191
-0.01373772,0.978751,0.2134943
-0.017105,0.9760571,0.2139251
-0.01649075,0.9717731,0.2163615
-0.01069777,0.9748235,0.2163673
-0.003098933,0.9796422,0.2156565
-0.00625424,0.9829474,0.2110041
-0.01301911,0.9828431,0.2084394
-0.01232209,0.9809424,0.2103679
-0.01616527,0.9830776,0.2116259
-0.01847483,0.9827641,0.2126467
-0.0147484,0.9792384,0.210466
-0.01590885,0.9788872,0.2070744
-0.01504706,0.9784082,0.2064336
-0.01450647,0.9756811,0.2070247
-0.01532471,0.9729725,0.2071938
-0.01118985,0.9747081,0.207905
-0.00945729,0.9780355,0.2133277
-0.006008634,0.9757139,0.2181134
-0.003073665,0.9739422,0.2145301
-0.005741098,0.9746736,0.2104479
-0.007286844,0.9767487,0.2123955
-0.01126383,0.9825336,0.2114701
-0.01334643,0.9828626,0.2072503
-0.01319899,0.9798674,0.2081125
-0.01498465,0.9809042,0.208534
-0.0123128,0.98045,0.208707
-0.01194294,0.980368,0.2122719
-0.01347332,0.9816604,0.2116894
-0.01232523,0.9837257,0.2111076
-0.01293627,0.9874427,0.2130256
-0.01142702,0.9858237,0.210707
-0.01036712,0.981506,0.2096375
-0.008398215,0.9810528,0.2147369
-0.003927934,0.9845151,0.220431
-0.007912908,0.9882755,0.2216776
-0.01365514,0.9827103,0.2198859
-0.01410193,0.9765731,0.2169829
-0.01378511,0.9825781,0.2128741
-0.01080854,0.9871409,0.210828
-0.008851471,0.984801,0.2112359
-0.009840548,0.9818188,0.2119706
-0.01054955,0.9783962,0.2128881
-0.01346193,0.9810691,0.2128947
-0.01716745,0.9854945,0.2140287
-0.01672229,0.9827374,0.2160694
-0.01170483,0.9816794,0.2141306
-0.006488679,0.9826452,0.208574
-0.005023415,0.9809191,0.2045131
-0.00810445,0.9803667,0.2084943
-0.01124486,0.9788993,0.2172304
-0.009017725,0.9784431,0.2192853
-0.00600946,0.9796608,0.2167898
-0.003724237,0.9770069,0.2162671
-0.001491433,0.97582,0.2161182
-0.003339816,0.9777744,0.2142501
-0.004467777,0.9786689,0.2114974
-0.005842961,0.9785281,0.2119408
-0.009952061,0.9764868,0.2124873
-0.01009961,0.9758508,0.2104218
-0.00978331,0.9771328,0.2121137
-0.01208558,0.978201,0.2147901
-0.01480548,0.9805947,0.2163509
-0.01709711,0.981137,0.2192551
-0.01577949,0.9803014,0.2186713
-0.01131494,0.9815622,0.2162842
-0.00503544,0.9823179,0.2151255
-0.002293338,0.9817188,0.2148025
-0.004584081,0.980945,0.2170459
-0.002674703,0.9805426,0.2185973
-0.001014718,0.9813493,0.218908
-0.006413409,0.9816423,0.2195599
-0.0107884,0.9784502,0.2208157
-0.009657474,0.9759042,0.2216499
-0.005981122,0.9813459,0.2143618
-0.003540699,0.9890924,0.2074984
-0.004508449,0.9885384,0.2148805
-0.008895773,0.9811398,0.2205867
-0.01210089,0.9756285,0.2139516
-0.01090985,0.9773143,0.2108479
-0.0108477,0.9806781,0.2162747
-0.01137422,0.9813688,0.2196865
-0.009476312,0.9832519,0.2195612
-0.007668896,0.9807238,0.2195381
-0.005089424,0.9754116,0.2190866
-0.003096116,0.9781299,0.2186174
-0.001815025,0.9797901,0.2178931
-0.0006545194,0.9778571,0.2184448
-0.001709463,0.9781292,0.2220397
-0.002609228,0.9765888,0.2234376
-0.006359766,0.9802238,0.2180545
-0.01190253,0.9852399,0.2103943
-0.01090045,0.980435,0.2097834
-0.0092011,0.9774411,0.2123675
-0.01036226,0.979909,0.2108321
-0.009247581,0.9803223,0.2117285
-0.008609288,0.9804047,0.213749
-0.00838047,0.9813924,0.2138284
-0.006732674,0.983111,0.2155296
-0.006110245,0.9856065,0.2138734
-0.005255032,0.9861497,0.2112834
-0.005100082,0.984721,0.2132642
-0.005184045,0.9820522,0.2155233
-0.004054512,0.9776812,0.2170918
-0.006776761,0.9767696,0.2171688
-0.009263095,0.9763513,0.2157223
-0.006386454,0.9721025,0.2154081
-0.004467686,0.9751678,0.2153677
-0.004767383,0.9826071,0.2169759
-0.004228295,0.9865053,0.2193435
-0.004488092,0.9893597,0.2193425
-0.007960171,0.9879553,0.2196132
-0.01092665,0.9878455,0.2186869
-0.0098398,0.9875234,0.2145695
-0.009165163,0.9830036,0.211539
-0.009871852,0.9855668,0.2114599
-0.008861841,0.9875142,0.2114076
-0.00856318,0.9844971,0.2077801
-0.01196674,0.9838735,0.2054888
-0.01446019,0.9814038,0.2075235
-0.009812517,0.9828271,0.2120205
-0.00294214,0.9882724,0.2190226
-0.001699665,0.9890644,0.2176363
-0.003584645,0.9871797,0.2122453
-0.004659428,0.9843319,0.2139238
-0.006195549,0.9838426,0.2121344
-0.008634659,0.9836283,0.2116062
-0.01288291,0.9809552,0.213886
-0.01682741,0.981793,0.2120006
-0.01467495,0.9824236,0.215422
-0.01247328,0.9804834,0.2179876
-0.01408432,0.9813942,0.2155782
-0.01131995,0.9850185,0.213445
-0.008329668,0.9882728,0.207837
-0.009981734,0.9847947,0.2048568
-0.01005117,0.9775371,0.2070064
-0.009363559,0.9761099,0.2102312
-0.01041881,0.976687,0.2138413
-0.01241439,0.9770254,0.2162545
-0.0135621,0.9783773,0.215617
-0.008900253,0.9778495,0.2090505
-0.00365062,0.9784537,0.2064622
-0.007157551,0.9797498,0.2123077
-0.01134842,0.9788514,0.2122602
-0.01031779,0.9781724,0.2056093
-0.0119975,0.9781717,0.2013186
-0.01386897,0.9802722,0.2032172
-0.01361653,0.9828247,0.2072652
-0.01596358,0.9812523,0.2054104
-0.01628931,0.9796372,0.204063
-0.01711417,0.9797834,0.2064304
-0.02065961,0.9754286,0.2064453
-0.01859856,0.9703694,0.2069758
-0.01509823,0.9741574,0.2096193
-0.01253144,0.9822727,0.2181497
-0.008266957,0.9860304,0.2270144
-0.009062767,0.9844743,0.2172331
-0.01100283,0.9820203,0.2046677
-0.009344592,0.9835133,0.2099069
-0.01176929,0.9831625,0.2120471
-0.01543578,0.9779925,0.2076906
-0.01541447,0.9761864,0.2114011
-0.01520067,0.9799235,0.2120034
-0.01408747,0.985153,0.2092268
-0.01265542,0.9848728,0.2084356
-0.01254486,0.9815297,0.2043131
-0.01321615,0.9818342,0.2066566
-0.01353318,0.979656,0.213146
-0.009416311,0.979562,0.2142681
-0.006867238,0.9853712,0.2144998
-0.01480685,0.9862605,0.2133399
-0.02058769,0.9825305,0.2137656
-0.009188873,0.980675,0.2138591
0.001903376,0.9872163,0.2095416
-0.005480108,0.9939702,0.2082166
-0.01065223,0.9852743,0.211001
-0.006854509,0.9747044,0.2154906
-0.01060042,0.9751876,0.2163068
-0.01282764,0.9805514,0.2140894
-0.01107034,0.9851961,0.2134552
-0.01162964,0.9838181,0.2065467
-0.007951062,0.9819966,0.2012673
-0.007338564,0.983656,0.209501
-0.009192852,0.980677,0.2182135
-0.005787492,0.9777379,0.2175228
-0.005104885,0.98006,0.2156365
-0.005766392,0.9821092,0.2183315
-0.005343066,0.9832442,0.2193955
-0.006228938,0.9812146,0.2191926
-0.007212696,0.977644,0.2191075
-0.01008435,0.9791318,0.2145123
-0.01139535,0.979086,0.211772
-0.01184167,0.973974,0.2156374
-0.01393993,0.9712823,0.2209114
-0.01311101,0.9729545,0.2199752
-0.01172788,0.9759693,0.21497
-0.01077107,0.9785807,0.2160438
-0.009018743,0.9836661,0.2169075
-0.008320084,0.9892085,0.2138837
-0.006565453,0.9886239,0.2135078
-0.004433134,0.9844797,0.2129961
-0.003691423,0.9797505,0.2144797
-0.002664766,0.9779183,0.218102
-0.002985925,0.9807277,0.2161456
-0.006741127,0.9808106,0.212717
-0.009111403,0.9784937,0.2134157
-0.006085757,0.9756509,0.2155268
-0.001862837,0.9725973,0.2164551
-0.0006177719,0.9767956,0.2159845
-0.001529209,0.9863635,0.2157114
-0.00163275,0.9935851,0.2139462
-0.001469615,0.9936809,0.2132878
-0.00330951,0.9874705,0.218437
-0.004732302,0.9847835,0.2206168
-0.004450245,0.9862678,0.219341
-0.00476628,0.9863748,0.2214132
-0.005946999,0.9860049,0.2226183
-0.005776773,0.9858075,0.2216034
-0.004596977,0.9853874,0.2174847
-0.003134474,0.9844127,0.2137751
-0.0005999986,0.9844795,0.2152273
-0.0008307817,0.9849762,0.2158106
-0.001757907,0.9831853,0.2146416
0.00177825,0.9812856,0.2134332
0.002811205,0.9804694,0.2124637
-0.001840373,0.9820512,0.214051
-0.005661697,0.9844116,0.2160795
-0.00483876,0.9826942,0.2158831
-0.00392524,0.9800136,0.2165755
-0.006445111,0.9779622,0.2199304
-0.0056908,0.9769152,0.2198032
-0.003392032,0.9784675,0.2171061
-0.00290082,0.9792845,0.2141758
-0.0008213798,0.9813242,0.2081285
-0.002905663,0.9829259,0.2053331
-0.005403997,0.9797131,0.2068295
-0.002705204,0.9788775,0.2108932
-0.002408001,0.9799004,0.2182973
-0.00304338,0.978936,0.2216073
-0.002614166,0.9810262,0.2229376
-0.003990767,0.9828503,0.2248223
-0.008002118,0.9809631,0.2225672
-0.0119423,0.9782723,0.2193468
-0.00640042,0.9758286,0.2130971
0.003017292,0.9788721,0.2067231
0.0038988,0.9868657,0.2090543
0.0005739458,0.9893167,0.2105203
-0.005184873,0.9828223,0.2096754
-0.01206711,0.9770052,0.2130495
-0.01113699,0.9821782,0.211648
-0.009597722,0.9894257,0.205517
-0.01308478,0.9887035,0.2031341
-0.008610081,0.9870101,0.2097272
-0.003635722,0.9849139,0.2195046
-0.01060146,0.9809842,0.2176367
-0.01324625,0.9786693,0.2153009
-0.004832254,0.9783921,0.2167657
0.001185997,0.9808984,0.2105239
-0.001477225,0.9809159,0.211019
-0.00566914,0.9800091,0.2123338
-0.005364334,0.9821744,0.2038527
-0.005745189,0.9818396,0.203259
-0.00636023,0.9819313,0.2056421
-0.007936626,0.9820702,0.2071008
-0.01295633,0.9796317,0.2104912
-0.01348517,0.9763164,0.2053083
-0.01362775,0.9724445,0.2002598
-0.01627641,0.9760131,0.2015395
-0.01453158,0.9808328,0.2022839
-0.01099457,0.9787244,0.2054842
-0.007506195,0.9789115,0.2120185
-0.007619683,0.9794694,0.2158896
-0.01109861,0.9780396,0.2156503
-0.01081872,0.9786243,0.2160227
-0.01045403,0.9792888,0.2147087
-0.01087771,0.9799405,0.2115015
-0.009145956,0.9816613,0.2142131
-0.009475321,0.9833808,0.2174281
-0.009580298,0.9803193,0.2154386
-0.005734315,0.9765235,0.2129994
-0.003311948,0.9818956,0.2093537
-0.004865846,0.988098,0.205824
-0.006866321,0.9880074,0.2085231
-0.00817107,0.987854,0.2123406
-0.01029345,0.9873894,0.2118878
-0.0112038,0.985483,0.2131183
-0.009886478,0.9848762,0.2166486
-0.01040936,0.984852,0.2175579
-0.01082164,0.9848912,0.2132836
-0.009744718,0.9865142,0.2074434
-0.009655968,0.9874922,0.2087813
-0.008031249,0.9839679,0.2098314
-0.007725497,0.9812076,0.2060879
-0.008329669,0.9853808,0.2088376
-0.004424046,0.9888066,0.2114007
-0.001602855,0.9847518,0.2102689
-0.003556101,0.9816642,0.2121709
-0.007756172,0.9837699,0.2117764
-0.0110396,0.9828719,0.2127979
-0.0109697,0.9782453,0.2161432
-0.01034287,0.9754087,0.2165698
-0.009688653,0.9763503,0.2171575
-0.007975941,0.9800868,0.2156118
-0.008739493,0.9820238,0.2150183
-0.01031822,0.9817777,0.2145696
-0.007771553,0.9802836,0.209497
-0.005782959,0.978094,0.2091873
-0.006416539,0.9783278,0.2125612
-0.005342361,0.9781061,0.2145423
-0.005065265,0.9780927,0.216084
-0.005069334,0.9802857,0.2143907
-0.003467568,0.9809195,0.211811
-0.003210052,0.9826323,0.2107629
-0.002805776,0.9852787,0.212371
-0.002786761,0.9862503,0.2141831
-0.005206567,0.9857824,0.213651
-0.007832657,0.9810468,0.2145939
-0.008966564,0.976271,0.2138395
-0.008124599,0.9747649,0.2122253
-0.006764044,0.9746673,0.2111069
-0.005178793,0.9803556,0.2088275
-0.003611523,0.9871492,0.2144519
-0.004937963,0.984593,0.2192132
-0.006335307,0.9812253,0.2149248
-0.004912333,0.9842548,0.2120968
-0.003630394,0.9837891,0.2061602
-0.002713221,0.9822299,0.2036445
-0.003206654,0.9837238,0.2148454
-0.004954391,0.9803686,0.2227749
-0.003939548,0.9779873,0.2187062
-0.002848638,0.9800801,0.211215
-0.002981445,0.9818254,0.2078517
-0.002417056,0.9841563,0.2091822
-0.002420438,0.9836295,0.2156394
-0.0002166067,0.9826577,0.2221559
0.002510493,0.9838229,0.2188779
0.0008812308,0.9826583,0.2145232
-0.001778653,0.9805352,0.2139028
-0.0032306,0.9785633,0.2134504
-0.003167819,0.978835,0.2162971
-0.002102598,0.9807956,0.2170497
-0.002036833,0.9804876,0.215465
-0.001490707,0.9805188,0.2152269
-0.001854531,0.9810986,0.2153157
-0.003483444,0.9820877,0.2174147
-0.002751545,0.9840673,0.218325
-0.002574168,0.9831535,0.217175
-0.004082965,0.9813782,0.2163381
-0.004051727,0.9821823,0.2171529
-0.003342848,0.9835889,0.22086
-0.002494918,0.983268,0.2239296
-0.002724148,0.9802653,0.22409
-0.004071281,0.9783029,0.2221061
-0.004371471,0.9792036,0.2207244
-0.005147338,0.9794225,0.2198909
-0.00583577,0.9790116,0.2177393
-0.005146264,0.9793343,0.2168531
-0.003777549,0.9806668,0.2149535
-0.002904383,0.9834827,0.2109189
-0.006177398,0.9841701,0.2079187
-0.009677822,0.9777751,0.2066545
-0.006865489,0.9719157,0.2072905
-0.002298028,0.9786395,0.2071982
-0.001101002,0.9862155,0.2086292
-0.003474064,0.982548,0.2116489
-0.007778383,0.979532,0.2111959
-0.009474136,0.9800559,0.2109147
-0.008898058,0.9809892,0.2111275
-0.009688645,0.9839108,0.2100252
-0.009190492,0.9803055,0.2096252
-0.007483382,0.9755809,0.2095007
-0.007511064,0.9791855,0.2099431
-0.00693898,0.9801204,0.2100706
-0.006371514,0.97836,0.2121968
-0.006045205,0.9800669,0.2169045
-0.003406945,0.9818505,0.2161627
-0.001985218,0.9839543,0.2104184
-0.002456514,0.9842483,0.2095675
-0.000251523,0.9843124,0.2129865
0.002059858,0.987056,0.2127571
-0.0007162992,0.9860898,0.2108263
-0.005788166,0.9831409,0.2082878
-0.009243992,0.9816032,0.2067854
-0.01217507,0.979512,0.2106728
-0.01326915,0.9799338,0.2110631
-0.01197984,0.9818433,0.2102462
-0.01135044,0.9844706,0.2125546
-0.0103839,0.9872227,0.2108352
-0.009819364,0.98375,0.2107448
-0.01141885,0.9790985,0.2086503
-0.01289935,0.9781061,0.2039184
-0.01401431,0.9773805,0.204533
-0.01290054,0.9788445,0.2038618
-0.01041328,0.979365,0.2050231
-0.008673528,0.9769994,0.2066838
-0.005179901,0.9767501,0.2061509
-0.008338161,0.9797112,0.2105697
-0.01663754,0.9830012,0.212877
-0.01575562,0.980565,0.2121782
-0.01431424,0.9776753,0.2106968
-0.01581753,0.9806486,0.208043
-0.01276293,0.9807919,0.2090051
-0.01115745,0.9782175,0.2088377
-0.01092144,0.9789875,0.206268
-0.01091758,0.9846025,0.2047079
-0.01141479,0.99054,0.2041408
-0.009758213,0.9852218,0.2027094
-0.009995285,0.9788373,0.200955
-0.01154817,0.983496,0.2057691
-0.01252222,0.984527,0.2122049
-0.01123629,0.9811589,0.2133113
-0.008267706,0.9824018,0.2121734
-0.008980859,0.9828897,0.2102402
-0.008625597,0.9829207,0.2098643
-0.007181632,0.9820951,0.2113567
-0.007723482,0.979812,0.2130963
-0.007513437,0.9823458,0.2129332
-0.0104408,0.9844652,0.2129866
-0.01267743,0.9820584,0.2191984
-0.01147949,0.9787505,0.2233263
-0.01133448,0.9752613,0.2180409
-0.008977586,0.976412,0.212987
-0.008075968,0.9810528,0.2153066
-0.009345959,0.9825258,0.2175244
-0.008476118,0.9823415,0.2156722
-0.00941645,0.9825707,0.2156798
-0.006729367,0.9838846,0.2134763
-0.002329409,0.985558,0.2092541
-0.005639483,0.9856088,0.2075937
-0.008345381,0.9836487,0.2050944
-0.008203413,0.9802004,0.2067019
-0.008748113,0.9803012,0.207601
-0.008180359,0.981379,0.204641
-0.009269596,0.9782686,0.2071086
-0.009310754,0.978604,0.2073939
-0.005064222,0.9807312,0.2065192
-0.001796187,0.9811383,0.2100974
-0.004044135,0.9842729,0.2118788
-0.008020419,0.9841678,0.2119174
-0.009747176,0.9831046,0.207443
-0.01319112,0.985697,0.2050262
-0.01300165,0.9851577,0.2082914
-0.00631377,0.9853272,0.20545
-0.003616933,0.9863657,0.200107
-0.003058628,0.9838462,0.1961867
-0.002373642,0.9840706,0.1961343
-0.003217932,0.9841277,0.2018143
-0.002423611,0.9821452,0.2053316
-0.002874106,0.9838142,0.2100228
-0.003001799,0.9830144,0.2125077
-0.002339229,0.9789522,0.2110583
-0.003578145,0.9780568,0.212609
-0.004312272,0.9807396,0.2089909
-0.00589241,0.9849743,0.2074416
-0.005147406,0.9835129,0.2103382
-0.003102388,0.9799019,0.2065384
-0.004582316,0.9802107,0.206502
-0.004314326,0.9788747,0.2091944
-0.003589714,0.9811755,0.210759
-0.003654057,0.986258,0.2153099
-0.001748929,0.9869782,0.217163
0.000329635,0.9871872,0.2200963
0.0036863,0.9857044,0.2218428
0.004224166,0.9856131,0.2177859
-0.001890096,0.9869617,0.2146766
-0.006827166,0.98511,0.2123013
-0.004994158,0.9844904,0.2119471
0.0006145518,0.9868155,0.2130527
5.371048e-06,1.001371,0.2125997
-0.01737305,1.0127,0.2142534
-0.03479545,0.9817605,0.2158325
-0.02117893,0.9464323,0.2119033
0.00441699,0.960782,0.2008105
0.007098194,0.9825613,0.1935622
-0.001514413,0.9853578,0.2074755
-0.01158657,0.990969,0.2224404
-0.02009005,0.9821272,0.210792
-0.01598353,0.9720933,0.2020834
-0.002728858,0.9795669,0.2137792
0.0114235,0.9761517,0.2160815
0.007122472,0.9744624,0.2111906
-0.003108804,0.9778049,0.2093219
0.005035478,0.9725933,0.2037329
0.003186171,0.9738059,0.2050577
-0.002001808,0.972281,0.2102919
0.004078075,0.9709603,0.2139917
0.001464123,0.9756896,0.2203573
0.00609832,0.9776332,0.2190686
0.01242932,0.9845267,0.2170057
0.006001545,0.9874406,0.2210157
0.004201884,0.9856235,0.2194552
0.003896554,0.9834369,0.2184826
0.002485368,0.9768849,0.2192312
0.001860692,0.9795601,0.2126491
-0.0008450684,0.9836547,0.2075615
-0.003381479,0.9808534,0.2085605
-0.003117553,0.9813128,0.2087831
0.001988668,0.9779008,0.2071538
0.003574777,0.9731167,0.207793
0.001625749,0.9759264,0.2107779
-0.001394121,0.9774871,0.211022
-0.004424162,0.9758462,0.2083904
0.003788577,0.9777366,0.2064293
0.01030816,0.9838847,0.2092109
0.001282768,0.9881517,0.2155799
-0.005870746,0.9821659,0.2168503
0.0001162347,0.9745069,0.2122261
0.004954997,0.9794399,0.2078516
0.001742908,0.985841,0.2083153
0.002461881,0.9855389,0.2094265
0.002041397,0.9851125,0.2071472
-0.003464972,0.9826884,0.2079687
-0.005053186,0.9834454,0.2090831
-0.006113174,0.9862227,0.2096004
-0.006234003,0.9829554,0.2126069
-0.004980241,0.9829328,0.2123775
-0.003863118,0.9831212,0.2119921
-0.002146467,0.9781466,0.2096722
-0.00379745,0.9752051,0.2041496
-0.004509161,0.9742372,0.2050599
-0.002492942,0.9757015,0.21141
6.031385e-05,0.9773722,0.2169771
0.002443967,0.9800617,0.213233
0.00135494,0.9842431,0.2064785
0.001124162,0.9826642,0.2090423
0.002689903,0.9784544,0.2113625
0.001974638,0.9756664,0.2136149
-0.001759706,0.9774549,0.213958
-0.006559017,0.9809226,0.2033676
-0.006863145,0.9790675,0.1987205
-0.007399692,0.9804136,0.2048671
-0.0117002,0.9826131,0.209471
-0.01063427,0.9779729,0.213848
-0.0066748,0.975965,0.2167496
0.03727468,0.9576792,0.3030774
0.02981677,0.9595299,0.3005825
0.02497414,0.9563864,0.2996531
0.02611945,0.9513178,0.2972161
0.02958819,0.958942,0.3031098
0.02745451,0.9636903,0.3062014
0.02741039,0.9500932,0.3068273
0.03216377,0.9418734,0.3061015
0.03514225,0.9535332,0.3023291
0.03892784,0.9659223,0.304908
0.03978629,0.9627027,0.3055562
0.03748527,0.9584875,0.3054035
0.03671217,0.9597801,0.3090529
0.03313654,0.9560838,0.3089386
0.03050723,0.9546423,0.3085145
0.02885332,0.9547516,0.3076237
0.02616862,0.954099,0.3064417
0.02681711,0.9576766,0.3055945
0.02666623,0.9564062,0.3046502
0.02876032,0.9527346,0.3058415
0.03209748,0.9517892,0.3027291
0.02999982,0.9539153,0.3009407
0.02934404,0.9591238,0.3063419
0.0295656,0.9571115,0.3096707
0.02973445,0.9558674,0.3089623
0.03215499,0.9601196,0.3082887
0.03215466,0.9596399,0.3107104
0.03157041,0.9584918,0.3122206
0.03119271,0.9537361,0.3129155
0.03016125,0.94756,0.3147911
0.03037817,0.9490852,0.3116452
0.02979905,0.9475782,0.3101315
0.02862317,0.9434792,0.311961
0.02746649,0.9487074,0.3121555
0.0241576,0.9548546,0.3156103
0.02145918,0.9528066,0.3173007
0.02567217,0.9525006,0.3147268
0.03347267,0.9572806,0.3131967
0.03447526,0.9581577,0.3159955
0.02668986,0.9541021,0.3261226
0.02069241,0.9504088,0.3327318
0.02862999,0.9546908,0.3213598
0.03724021,0.9613152,0.3065832
0.03037502,0.9588254,0.3117972
0.02466367,0.9544347,0.3180107
0.02558024,0.9510982,0.3124676
0.0243192,0.9487732,0.3155528
0.02623642,0.949095,0.3165404
0.02689644,0.9478007,0.3114633
0.02476678,0.9537333,0.3139639
0.02561896,0.9617396,0.3158874
0.02648744,0.9580967,0.3200376
0.02835982,0.9559709,0.3228786
0.02848411,0.9579299,0.3204557
0.02775287,0.9560957,0.3206251
0.03007517,0.9548675,0.3166898
0.02918976,0.9531764,0.3152183
0.02858544,0.9523933,0.3165029
0.02982131,0.9559647,0.3138055
0.02875628,0.9574748,0.3157557
0.02941403,0.954896,0.3148014
0.02972715,0.9526951,0.3125468
0.02782508,0.9532885,0.3150336
0.02579241,0.9548171,0.3144048
0.02480244,0.9543354,0.3161016
0.02581758,0.9547128,0.3194689
0.02653151,0.9561881,0.3207541
0.02811673,0.9558414,0.3200445
0.02849869,0.9571001,0.3163523
0.02706694,0.9582612,0.3171319
0.02906391,0.9539205,0.3172182
0.02967119,0.9498132,0.3149394
0.02814367,0.9520133,0.3175829
0.02685883,0.952839,0.3184445
0.02488464,0.9459537,0.3170512
0.02911381,0.9425097,0.3137929
0.03415294,0.9516754,0.3102631
0.03168791,0.9625175,0.3159411
0.02943466,0.9624504,0.3230041
0.02744965,0.9570404,0.3228987
0.02436751,0.9519628,0.3205961
0.02805178,0.945069,0.3169383
0.03224256,0.9472422,0.31268
0.02745084,0.9577384,0.3140177
0.02375226,0.960587,0.317849
0.02540914,0.9579186,0.3164798
0.02540557,0.9530742,0.317012
0.02672899,0.9504091,0.3219598
0.02930055,0.9522249,0.3243412
0.02873497,0.950885,0.3239579
0.02819638,0.9513139,0.3207178
0.02932197,0.9521816,0.3184751
0.02959537,0.9523375,0.3180115
0.02877773,0.9581789,0.3174077
0.02920369,0.9595519,0.3180223
0.0292556,0.9526272,0.313593
0.02792506,0.9460827,0.3067146
0.02772461,0.9476784,0.3025598
0.02767161,0.9513196,0.3000867
0.02797985,0.9511669,0.3009173
0.02882276,0.9597453,0.2982536
0.02901799,0.9655286,0.2954101
0.02856948,0.9591266,0.3029663
0.02708146,0.957086,0.3126002
0.02693723,0.9573302,0.3123712
0.0272889,0.958274,0.3026512
0.02681425,0.9603033,0.2975985
0.02802381,0.9568561,0.3077643
0.03041325,0.9539021,0.3206586
0.03163618,0.9528953,0.3209239
0.02612095,0.9510005,0.3163002
0.01990714,0.9513552,0.3123995
0.02512554,0.9554582,0.3035922
0.03046798,0.9608867,0.2984923
0.02882451,0.9624893,0.2964491
0.02871445,0.9564364,0.2963593
0.02768523,0.9490733,0.3034882
0.02479798,0.9515298,0.3026221
0.02282154,0.9565771,0.3019756
0.02010818,0.9568473,0.3083238
0.02046403,0.9568911,0.3050176
0.02353021,0.9521778,0.3054358
0.02383566,0.9454387,0.3115158
0.02352671,0.943443,0.3126863
0.02499044,0.9453072,0.3138864
0.02966286,0.951561,0.3134256
0.03522055,0.9556609,0.3150119
0.03282599,0.9549751,0.3126624
0.02827622,0.9561137,0.306198
0.02927844,0.9619893,0.3085617
0.02801689,0.9655199,0.3090944
0.02527768,0.9605058,0.3073622
0.0241806,0.9563283,0.3087033
0.02086839,0.953282,0.3060512
0.01800282,0.9491257,0.3036978
0.0184217,0.9542908,0.3025564
0.02099703,0.9612869,0.3027339
0.02145888,0.9597644,0.3066042
0.02033722,0.9568833,0.3105776
0.0224355,0.9558529,0.3131709
0.02434644,0.9542032,0.3106884
0.02528452,0.9539896,0.3054519
0.02545831,0.955393,0.3040444
0.02435873,0.9557977,0.3051998
0.02515268,0.9560521,0.3103304
0.02422815,0.9539392,0.3187527
0.02308989,0.9492369,0.3199367
0.02540214,0.9480862,0.311556
0.02786964,0.9525142,0.3061876
0.03000896,0.9593977,0.3104518
0.02820162,0.9622818,0.3155625
0.02218826,0.958707,0.3151867
0.01824462,0.9531813,0.3132952
0.01966163,0.9500289,0.3121575
0.02322714,0.950526,0.3120727
0.0222311,0.954435,0.3130383
0.02191603,0.9585629,0.3123414
0.02464382,0.9567919,0.3122237
0.02449417,0.9531257,0.3129719
0.02553456,0.9527539,0.3115933
0.02788106,0.9527291,0.3099124
0.0291921,0.9547526,0.3084193
0.03026669,0.9565424,0.3112418
0.02943076,0.9559715,0.3161052
0.0279012,0.9565134,0.3150934
0.02530452,0.9563666,0.317235
0.02349121,0.9567847,0.3241312
0.02361688,0.9567937,0.3243669
0.02303656,0.9529476,0.3166675
0.02208665,0.9508978,0.3077215
0.02020436,0.9538588,0.3072045
0.02044797,0.9569024,0.3092979
0.02176586,0.9556883,0.3070921
0.02118828,0.9547001,0.3110404
0.02259059,0.9558987,0.3154333
0.02295753,0.9536259,0.3159889
0.02320189,0.9522437,0.3202453
0.02510829,0.9548783,0.3178481
0.02343469,0.9555781,0.3129659
0.02291777,0.9524656,0.316986
0.02450354,0.9475551,0.3185069
0.02421278,0.9476317,0.3174411
0.02460673,0.9548582,0.3180704
0.02275449,0.9587098,0.3151506
0.02041162,0.9500978,0.3115182
0.02537665,0.9414554,0.3067385
0.0305813,0.9510606,0.3019841
0.02850062,0.9621236,0.308381
0.02652515,0.9584943,0.320567
0.02731516,0.9537578,0.3224048
0.02592253,0.9505359,0.3180922
0.02410835,0.9499071,0.3177507
0.02339166,0.9521109,0.3190275
0.02214902,0.9494492,0.3192949
0.02131368,0.9511739,0.3165082
0.0207387,0.9546143,0.3126464
0.0216628,0.9519316,0.3137675
0.02381762,0.9530656,0.3162965
0.02372793,0.9551257,0.3163588
0.02364571,0.955451,0.3159372
0.02520659,0.9560625,0.3142923
0.02777451,0.9546022,0.3119908
0.03022262,0.9565027,0.3137464
0.02871825,0.9585074,0.3167285
0.02587425,0.9554055,0.3150456
0.02469505,0.9502959,0.3146586
0.02416434,0.9459885,0.3162444
0.02333434,0.9486163,0.3160491
0.01985258,0.9536151,0.3187482
0.0188705,0.9534762,0.3204204
0.02294998,0.9550157,0.3197224
0.02526164,0.958176,0.3230497
0.02494256,0.956693,0.3262071
0.02307304,0.9545064,0.323699
0.02150499,0.9541271,0.3162235
0.0225015,0.9536611,0.3103788
0.02330146,0.9534945,0.3117639
0.02369895,0.9525955,0.3138724
0.02434572,0.9523694,0.3123397
0.02623474,0.9520333,0.314178
0.02960006,0.9462931,0.3184396
0.02925673,0.9415649,0.318268
0.02478604,0.9453105,0.3183666
0.01904024,0.9491744,0.3210046
0.01646513,0.9471733,0.3209354
0.02440077,0.9474097,0.3138705
0.03277915,0.9516143,0.3054441
0.02845127,0.9544778,0.3116991
0.0228235,0.957928,0.3238811
0.02234182,0.9576424,0.3244618
0.02140937,0.9536811,0.3174016
0.02258487,0.9543217,0.3093502
0.02266628,0.9542617,0.3103849
0.02136499,0.9540486,0.3135772
0.02325822,0.9566209,0.3092386
0.02404531,0.9564389,0.3112637
0.02622902,0.9540647,0.3129118
0.02841417,0.9491518,0.3124716
0.02700247,0.9476936,0.3190267
0.02722528,0.9521709,0.3187523
0.02623208,0.9534152,0.3162425
0.02561629,0.9528335,0.3154496
0.02628781,0.9531244,0.3111665
0.02404336,0.9553606,0.3140113
0.02421084,0.9576071,0.3169016
0.02461251,0.9541723,0.315305
0.02366871,0.951535,0.3187981
0.02384711,0.9530498,0.3218589
0.02223782,0.9546182,0.3192694
0.02203816,0.9568536,0.3167214
0.02281657,0.9588133,0.3182928
0.02369281,0.9567821,0.3186138
0.02584657,0.9533311,0.3176958
0.02470627,0.9540859,0.3202689
0.0227318,0.9544726,0.3210175
0.02229812,0.9527429,0.3189533
0.02287093,0.95285,0.3174986
0.02517846,0.9526058,0.317382
0.02567104,0.9528045,0.3168756
0.02644178,0.9531628,0.3147422
0.02856665,0.9531573,0.3176522
0.02716969,0.9534752,0.3238763
0.02376883,0.9507209,0.3239772
0.02233748,0.9492142,0.3149308
0.0262016,0.9526573,0.3034439
0.03106988,0.9589066,0.3048027
0.02819079,0.9633442,0.3132339
0.02442529,0.9568281,0.3144621
0.02496806,0.9484014,0.3138176
0.0228858,0.9513766,0.3115954
0.02076372,0.9540399,0.307997
0.02222438,0.9524493,0.3068744
0.0250515,0.954,0.3066386
0.02786381,0.9525463,0.3098104
0.02786308,0.949952,0.3102352
0.02744763,0.9504506,0.3060386
0.02756828,0.9494166,0.3052014
0.02734526,0.9504688,0.3051514
0.02928236,0.9526081,0.304674
0.02907206,0.9549246,0.3033716
0.0267701,0.9595526,0.3038812
0.02523707,0.9601999,0.3103668
0.02331198,0.9584773,0.3141498
0.02384716,0.9545387,0.3126512
0.02465271,0.949605,0.3112639
0.02455318,0.9519901,0.3091904
0.02374646,0.9541307,0.3033803
0.0211862,0.9521549,0.2996754
0.02194553,0.9526626,0.3055985
0.02220456,0.9531779,0.3130377
0.0207709,0.9521316,0.31751
0.02272396,0.9510217,0.318814
0.02258914,0.9499725,0.3132398
0.02178878,0.9513778,0.3081635
0.02389209,0.9538365,0.3059817
0.02556701,0.9537245,0.3062873
0.02637769,0.9565981,0.3130485
0.02392365,0.9606168,0.3188208
0.02145717,0.9546758,0.3170129
0.02490095,0.9497926,0.3132591
0.0272785,0.9578864,0.3130549
0.02352638,0.9637628,0.3116044
0.02018261,0.9590636,0.3073554
0.0188325,0.9557246,0.3049695
0.01638981,0.9547172,0.3046759
0.01756362,0.9501679,0.306354
0.02098592,0.9502279,0.3056702
0.01936927,0.9533687,0.3050544
0.01862303,0.9524124,0.3086491
0.02030791,0.9544,0.3101934
0.0197709,0.9552785,0.3118494
0.02285689,0.9523713,0.312488
0.02657188,0.9520654,0.3117737
0.02529666,0.9494336,0.3137771
0.02621911,0.9494654,0.3138528
0.02894138,0.9547844,0.315556
0.02879902,0.957826,0.3162299
0.02781087,0.9600845,0.3140748
0.02427805,0.9547225,0.3156013
0.0190232,0.9447149,0.3135619
0.01999015,0.9443805,0.3113424
0.02244812,0.9503353,0.3130435
0.01994806,0.9564405,0.3123671
0.02025934,0.9565476,0.3126348
0.01993704,0.9531068,0.3138766
0.01714323,0.9533109,0.3157584
0.02114181,0.9507704,0.3179033
0.02448797,0.9490819,0.3182519
0.02364133,0.9522026,0.3190827
0.0243445,0.9550757,0.3161596
0.02464981,0.9575214,0.3113305
0.02569081,0.9546859,0.3122394
0.02839776,0.9511666,0.3147312
0.0285009,0.9540216,0.3164036
0.02108472,0.9537205,0.3189177
0.01434308,0.9473812,0.3185175
0.01989614,0.9447973,0.3171907
0.02510806,0.9547205,0.3189058
0.02226418,0.9663809,0.3199382
0.02204921,0.9620146,0.3208992
0.0219944,0.9547561,0.3208476
0.01902642,0.9540513,0.3165632
0.01995579,0.9492372,0.3145307
0.02093187,0.9486731,0.3166398
0.01980781,0.9520948,0.3198697
0.02198011,0.9507758,0.3218111
0.02295705,0.9525646,0.3208147
0.02210651,0.9502229,0.3214903
0.02414205,0.9450701,0.3226228
0.02561132,0.9498422,0.3208601
0.0250868,0.953095,0.3186786
0.02469965,0.9525429,0.3176532
0.02511995,0.9532291,0.3191324
0.02478239,0.9525603,0.320886
0.02294954,0.9538003,0.3207834
0.02206363,0.9535221,0.3199457
0.02303536,0.9485998,0.3194406
0.02507303,0.9446613,0.3211946
0.02502513,0.9468822,0.3229729
0.02283872,0.9506608,0.3220957
0.0222569,0.949091,0.3209578
0.02375776,0.9495333,0.320808
0.02583996,0.9513279,0.3203854
0.02521733,0.9500073,0.3183528
0.0242973,0.9521911,0.3140312
0.02556032,0.9537369,0.3110674
0.02451553,0.9536198,0.3134439
0.02295201,0.9539797,0.3176364
0.02263995,0.9510308,0.3205519
0.02432951,0.9511071,0.3226789
0.02741345,0.9529652,0.3254814
0.02462276,0.951224,0.3287169
0.02123239,0.9469185,0.3254246
0.0227141,0.9422347,0.3198644
0.02316514,0.9488994,0.318992
0.0234725,0.9592541,0.316027
0.02274634,0.9570077,0.3155124
0.01973521,0.9532504,0.3182829
0.0191755,0.9508152,0.3177673
0.02039346,0.9460444,0.322373
0.02119712,0.9468133,0.3263592
0.02075334,0.9481089,0.322877
0.01962044,0.946755,0.3228083
0.01977667,0.9481075,0.3237068
0.02108418,0.9485524,0.3222633
0.02301118,0.9484949,0.3230304
0.02379811,0.9508688,0.3235635
0.02522137,0.952205,0.3241678
0.02813657,0.9524207,0.3253448
0.02719846,0.9514211,0.3232335
0.0254089,0.9493441,0.3206739
0.02543992,0.9506204,0.3201418
0.02299221,0.9521763,0.3192819
0.0213859,0.950135,0.32104
0.02221751,0.9495308,0.3237213
0.02134324,0.9512106,0.3222783
0.0196539,0.9543228,0.3184827
0.02017179,0.9577951,0.3146895
0.022546,0.9546815,0.3193333
0.024388,0.9495568,0.3285489
0.02534016,0.9496454,0.3267688
0.02523109,0.9488743,0.323476
0.02464096,0.9486417,0.3255249
0.02515836,0.9510092,0.3250199
0.02545116,0.9499544,0.3244834
0.02656236,0.9506777,0.3235508
0.02745261,0.9568993,0.3224089
0.02148134,0.9587796,0.3245583
0.01198125,0.9479322,0.3275509
0.010771,0.9369108,0.3293925
0.0197113,0.9480579,0.3262489
0.02654084,0.9631677,0.3199179
0.02338387,0.959373,0.3181268
0.01937093,0.9557253,0.3185648
0.01965537,0.9534219,0.3161774
0.01915858,0.9474031,0.3143332
0.01934447,0.9501763,0.3154302
0.01990852,0.9511897,0.3156045
0.01895352,0.9485174,0.3170583
0.01965468,0.9496615,0.3266941
0.01960154,0.9473933,0.3379449
0.01940677,0.9464388,0.3368161
0.02163504,0.9478627,0.327633
0.02272473,0.9481551,0.3243218
0.02365071,0.9535142,0.3254629
0.02549453,0.9589804,0.3255666
0.026754,0.9575083,0.3233442
0.02583178,0.9551181,0.3219654
0.02373239,0.9548767,0.3279246
0.02347874,0.9522831,0.3321566
0.02197639,0.9516674,0.3271902
0.02148221,0.9540575,0.3218806
0.02307732,0.9524765,0.3193938
0.02201529,0.9534133,0.3174117
0.02258365,0.9564152,0.315643
0.02241903,0.95585,0.3153418
0.01899602,0.9563664,0.3174062
0.01992206,0.9546076,0.322664
0.02433804,0.9529836,0.3272786
0.02702254,0.9540037,0.3239491
0.02426084,0.9515412,0.3192139
0.02040146,0.9489491,0.3168295
0.02239642,0.9472378,0.3144045
0.02268366,0.9489815,0.3157604
0.01956152,0.9527419,0.3154841
0.0201884,0.9486366,0.3145229
0.0238316,0.9472201,0.3161091
0.02791556,0.9568344,0.3149904
0.02768765,0.9634566,0.3160962
0.02490985,0.9580111,0.3167238
0.02492589,0.949006,0.3122118
0.02300009,0.9488118,0.3081403
0.02142425,0.9552211,0.3058917
0.02261871,0.9601173,0.3077992
0.02206105,0.9592874,0.3116297
0.0220569,0.9566602,0.3132712
0.02146478,0.9576656,0.3128112
0.02083266,0.9516813,0.3117437
0.02406517,0.9438669,0.3131497
0.02759201,0.9481247,0.3134949
0.02877263,0.952257,0.3141653
0.02834715,0.9535852,0.3172921
0.02902441,0.9551625,0.3180989
0.02797019,0.9521265,0.3174262
0.02225228,0.9495044,0.315217
0.01870958,0.9469927,0.314648
0.01901803,0.9445008,0.3156294
0.01986963,0.9451336,0.313034
0.01949851,0.9469694,0.3114863
0.01903175,0.951302,0.3107801
0.02040293,0.9553224,0.3122963
0.02142579,0.9568342,0.3183236
0.02158959,0.9552221,0.319279
0.01931101,0.9503575,0.3162221
0.0188413,0.9489195,0.3164054
0.02416331,0.9481579,0.3174213
0.02502824,0.9492147,0.3189137
0.02028698,0.9543555,0.3235678
0.01768751,0.9496297,0.3257883
0.02174994,0.9459476,0.3211787
0.02695913,0.9569591,0.318081
0.02135952,0.9651153,0.320568
0.01656788,0.962675,0.3226232
0.01851523,0.9522508,0.3200087
0.01538368,0.9428881,0.3113795
0.01417461,0.9459237,0.3034209
0.01651406,0.951979,0.3092169
0.01692095,0.9538859,0.3200352
0.01939114,0.9560688,0.3185287
0.02055761,0.9592263,0.3162075
0.02068413,0.9602502,0.316141
0.02288597,0.9575391,0.3096381
0.02260894,0.9552275,0.3089445
0.02156766,0.9554107,0.3129486
0.02274935,0.9558985,0.3153791
0.02301815,0.9563815,0.3192041
0.02265923,0.9571952,0.3199728
0.02238099,0.9565873,0.3210988
0.02176369,0.9532638,0.3231345
0.02245997,0.948543,0.3252899
0.02237292,0.9458402,0.3290112
0.0218372,0.9479832,0.3262886
0.02293629,0.9514867,0.32299
0.02351087,0.9532292,0.3238834
0.02364586,0.9532281,0.3209532
0.02180989,0.9512658,0.3170536
0.01951361,0.9511328,0.314735
0.01952271,0.9517742,0.3143789
0.01820192,0.9508315,0.3161784
0.01775034,0.9507122,0.315156
0.01838437,0.9504748,0.3150788
0.0171893,0.9546448,0.3177823
0.01559649,0.9643322,0.31818
0.01306432,0.9667755,0.3189371
0.01460531,0.95601,0.3221462
0.02109266,0.9456961,0.3270971
0.02492112,0.9497254,0.3290855
0.02437536,0.9549682,0.3251899
0.02255401,0.9541192,0.324244
0.02329086,0.9574068,0.3246299
0.02156781,0.9542359,0.3202287
0.01773132,0.9477397,0.3173941
0.01968433,0.9516542,0.3201686
0.02009944,0.9531209,0.3239641
0.0186263,0.9527241,0.3222656
0.01998734,0.956194,0.321123
0.01930163,0.9563302,0.3234891
0.01962238,0.9529339,0.3232048
0.02156775,0.9482688,0.3268302
0.02297123,0.9492988,0.3320664
0.02533091,0.9514511,0.3314719
0.02637971,0.9479667,0.3285606
0.02486251,0.9491718,0.3239669
0.02144265,0.9531133,0.3205792
0.02002398,0.956323,0.3177726
0.02037887,0.9577843,0.3177872
0.0195394,0.9525196,0.3229338
0.01970645,0.9503185,0.3226476
0.01889636,0.9526355,0.320488
0.01779856,0.9530386,0.3186184
0.0184231,0.9529723,0.3133661
0.01947121,0.9523915,0.315691
0.02132732,0.9529781,0.3222398
0.02174125,0.9529243,0.3278395
0.02319874,0.9525542,0.3321509
0.02435163,0.9541043,0.3253105
0.02202744,0.9538272,0.3173415
0.02215283,0.9519347,0.3177555
0.02272999,0.948204,0.3181088
0.0236975,0.9468368,0.318129
0.0248946,0.95212,0.3179377
0.01949835,0.9556999,0.3170981
0.01581532,0.9547158,0.3172292
0.02173235,0.9555369,0.3165944
0.0276319,0.9596589,0.3168454
0.02516863,0.960001,0.3184096
0.02309014,0.9545001,0.3194121
0.02398184,0.9488604,0.3194467
0.01851843,0.9466722,0.3191933
0.01535219,0.9533816,0.3187526
0.01655301,0.9626887,0.317582
0.0145573,0.9625043,0.3178176
0.01613347,0.9558331,0.3169855
0.02057692,0.947245,0.3133443
0.02481263,0.9417816,0.3130253
0.02648779,0.9420729,0.3186541
0.02401556,0.9457174,0.3244768
0.02537471,0.9527211,0.3223263
0.0274288,0.9569811,0.3178752
0.02755213,0.957407,0.3177657
0.02830657,0.9586666,0.3150927
0.02622421,0.9576407,0.31273
0.02478927,0.9539535,0.3132649
0.0233419,0.951592,0.3116735
0.02118432,0.9537884,0.3095548
0.02212704,0.9588979,0.3066502
0.02069242,0.9617165,0.3052499
0.01849004,0.9599613,0.306159
0.01973827,0.9559548,0.3061055
0.02059132,0.9561944,0.3072643
0.02108179,0.9559687,0.3071073
0.02203663,0.9515186,0.3054941
0.02325956,0.950618,0.3060233
0.02403082,0.9491733,0.3077047
0.0238863,0.9474843,0.3119342
0.02527158,0.9499008,0.3155037
0.02617803,0.9511437,0.3154512
0.02208909,0.9530989,0.3152882
0.01834368,0.9527159,0.315191
0.0227464,0.9511121,0.3152773
0.02736258,0.9571866,0.3154009
0.02538167,0.9604528,0.3151031
0.02497943,0.9534611,0.315407
0.02464246,0.9473815,0.3152531
0.01892179,0.9496403,0.3143079
0.01521903,0.9528701,0.3109424
0.01618816,0.9551031,0.3072063
0.01647449,0.9616662,0.3098237
0.01479775,0.9607389,0.3136069
0.01536901,0.9540612,0.3122213
0.01901506,0.9533949,0.3111847
0.02221258,0.9506902,0.3116997
0.02563527,0.9518486,0.3126725
0.02708446,0.9574083,0.3160708
0.02521911,0.9566768,0.3185621
0.02397814,0.9575832,0.3205193
0.02141676,0.9589212,0.3247289
0.01846367,0.9595479,0.3280532
0.0190342,0.9586758,0.3268582
0.02009133,0.9479978,0.3183293
0.01927794,0.9400331,0.3109154
0.01912259,0.9431977,0.313838
0.01936113,0.9498182,0.3173875
0.01652555,0.9545045,0.3171928
0.01435858,0.9563429,0.3184523
0.01530188,0.9558018,0.3185578
0.01552241,0.9527593,0.3187316
0.0159072,0.9528255,0.3222135
0.01874662,0.9539179,0.3247017
0.02204763,0.9533446,0.324518
0.02144477,0.9522831,0.3215077
0.0212722,0.9488854,0.3170938
0.02580782,0.9515176,0.3183758
0.02588592,0.9545086,0.3234266
0.01891555,0.9507709,0.3252839
0.01381773,0.9475771,0.3216396
0.01853422,0.944707,0.3130279
0.02633201,0.9513828,0.3100764
0.02536429,0.9610896,0.3168237
0.0241402,0.9569755,0.3210407
0.025472,0.9544275,0.3162644
0.02235345,0.9552128,0.3097057
0.01995329,0.947964,0.3094366
0.01899428,0.9459288,0.3123484
0.01969595,0.9526205,0.3157254
0.02277174,0.9573439,0.3193426
0.02392037,0.9595714,0.3207262
0.02421662,0.9593851,0.3220407
0.02415546,0.9591848,0.3191541
0.02512294,0.9605185,0.3137413
0.02545674,0.9589819,0.3154313
0.02335886,0.9577258,0.3182478
0.02368563,0.957688,0.3197066
0.0224388,0.9597297,0.3220302
0.01703699,0.9618062,0.3218015
0.01261912,0.9497454,0.3229187
0.01418691,0.9353118,0.3236236
0.01981556,0.9383353,0.3178806
0.01981397,0.944719,0.3099857
0.01891666,0.9444143,0.3046083
0.02010774,0.9465528,0.3032725
0.01866273,0.9544101,0.3043897
0.0188262,0.962118,0.3048804
0.01795748,0.960419,0.3066422
0.01760754,0.9559953,0.3097615
0.01976323,0.960938,0.3113678
0.01954649,0.9623539,0.3126319
0.02138527,0.9578006,0.3124478
0.02291688,0.9586027,0.3084333
0.02111469,0.957454,0.3054293
0.01783807,0.9544708,0.3051775
0.01467791,0.953675,0.3052572
0.01933106,0.9577718,0.3101441
0.02462926,0.9645009,0.3169169
0.0224304,0.9566201,0.3142579
0.02303763,0.9492669,0.3067354
0.02638172,0.9575056,0.3057893
0.02468243,0.9629653,0.3116477
0.0224305,0.9633602,0.317544
0.02203707,0.9586293,0.316072
0.01999116,0.9503371,0.3137958
0.01906215,0.9503965,0.3181474
0.01879725,0.952411,0.3197011
0.01577903,0.9483064,0.3216882
0.01300411,0.9378566,0.3270487
0.01256144,0.9312694,0.3223283
0.0108073,0.9515513,0.3095844
0.005233259,0.9779568,0.299375
0.004652504,0.9702859,0.3006724
0.009940863,0.9558587,0.3060203
0.01181373,0.9536458,0.3014491
0.01305483,0.9437554,0.3018039
0.01247987,0.9462757,0.3009177
0.009873945,0.9557588,0.281409
0.0100858,0.9535313,0.2681929
0.01015707,0.9615587,0.2780079
0.01152645,0.9691106,0.290622
0.01247666,0.9700666,0.2864388
0.0147215,0.9736032,0.2831489
0.01971982,0.9715994,0.2896649
0.01665123,0.969291,0.288635
0.01353995,0.9637237,0.2927194
0.01739993,0.9624243,0.2986068
0.01918061,0.9638381,0.2964574
0.02136499,0.9552573,0.2969896
0.02253902,0.9586492,0.291682
0.01831608,0.9623914,0.2934666
0.01593369,0.9557145,0.3010866
0.01922666,0.9555536,0.2999132
0.02086301,0.9518214,0.3063523
0.01361768,0.9516908,0.308351
0.00737931,0.95563,0.3051044
0.0123845,0.953071,0.3034665
0.01704551,0.955294,0.2938468
0.01502395,0.958094,0.2953095
0.01571887,0.9599816,0.2966843
0.01763685,0.9606575,0.2884069
0.0164845,0.956564,0.2931349
0.01741352,0.9568811,0.2976319
0.01815844,0.9582848,0.2991559
0.01514591,0.9617557,0.3039025
0.0130355,0.9675684,0.2967051
0.013149,0.9624283,0.2904711
0.01172924,0.9489035,0.2971096
0.009204108,0.9404685,0.3001689
0.01190887,0.9520773,0.2953819
0.01571042,0.968069,0.2930919
0.01376655,0.9603486,0.2950048
0.01465209,0.9568071,0.2956437
0.01904228,0.9693658,0.295654
0.019905,0.968862,0.2958543
0.01957195,0.9599972,0.2938185
0.01796234,0.9506672,0.2930021
0.01245884,0.9476175,0.295748
0.004514141,0.9568259,0.298924
0.003064104,0.9604787,0.3012309
0.01075045,0.9649616,0.3044157
0.01427875,0.9710056,0.3070821
0.01277364,0.9622139,0.3043336
0.01484043,0.9549283,0.2944584
0.01712134,0.9574177,0.2855638
0.01444309,0.9575138,0.2937739
0.01083661,0.9533112,0.307134
0.01255446,0.9527699,0.3038362
0.01287242,0.9578191,0.3041158
0.008870513,0.9605552,0.3100627
0.008315721,0.9594931,0.3039145
0.009946375,0.9577254,0.2988881
0.01087373,0.9609704,0.2934214
0.006935165,0.9630416,0.2866658
0.001012156,0.9554531,0.2867314
0.00257124,0.9508389,0.29159
0.002637366,0.9519615,0.3043102
-0.00336578,0.950948,0.3025696
-0.005082534,0.9495772,0.290648
0.002807938,0.9585647,0.2956745
0.01204203,0.9737465,0.2991944
0.009422294,0.9718962,0.303201
0.007608134,0.9587054,0.3103321
0.01468925,0.9506153,0.3059319
0.01741546,0.9482522,0.3052522
0.02127913,0.9493023,0.3075455
0.02330709,0.9511083,0.3099332
0.01948012,0.9573918,0.3161122
0.02218357,0.957918,0.3130107
0.0188994,0.9553642,0.3047018
0.01184897,0.9621957,0.2989193
0.01470477,0.9599521,0.2968401
0.01149913,0.9557064,0.2996447
0.006167683,0.960154,0.3002232
0.006206533,0.963743,0.3011499
0.003344959,0.9720411,0.303434
0.003648212,0.9709814,0.2990512
0.005031033,0.9638471,0.295829
0.003804954,0.9642715,0.2993773
0.005320557,0.9547818,0.3009126
0.006916779,0.9478052,0.3008692
0.006909932,0.9517642,0.3053123
0.004918116,0.9680614,0.2768124
0.003061754,0.9668624,0.2757525
0.002718955,0.968758,0.2713506
0.007768833,0.9711784,0.2690206
0.01125414,0.973583,0.2703024
0.01036906,0.9659921,0.2726733
0.01287717,0.9572994,0.2658243
0.01547253,0.962908,0.2605329
0.0105141,0.9706177,0.26808
0.004034583,0.9739437,0.2744317
0.005563281,0.9704113,0.2718276
0.005056254,0.963822,0.2652532
0.0007430475,0.9668622,0.2642197
0.003219207,0.9699867,0.2683635
0.003345683,0.9677796,0.2703925
0.0008000183,0.9691248,0.2721955
0.002065496,0.9687101,0.2728607
0.002153359,0.9658772,0.2725636
0.004219078,0.9641653,0.2735178
0.006751797,0.9620953,0.2740177
0.006868855,0.9662533,0.2760346
0.007424363,0.971929,0.2767681
0.006941168,0.9719364,0.2730585
0.008678585,0.9722337,0.2700568
0.01066492,0.9720444,0.2688359
0.008920428,0.9698857,0.2676849
0.006938368,0.9672529,0.2683994
0.004915798,0.9656323,0.2710294
0.005629245,0.9660457,0.2723872
0.008963513,0.9651772,0.269436
0.009610627,0.9648744,0.2647892
0.007307568,0.9657009,0.2637266
0.004433395,0.9647407,0.2639825
0.005206573,0.9634262,0.2630648
0.005954669,0.9621353,0.2637645
0.002220946,0.961767,0.263862
0.002047794,0.9612014,0.2612574
0.008629406,0.9597057,0.2606613
0.0147651,0.9629288,0.2640073
0.01341901,0.9672651,0.2674383
0.01064306,0.9661567,0.2671528
0.01258031,0.9660815,0.2648832
0.008197098,0.967531,0.266296
0.002191971,0.9660452,0.2694595
0.004239516,0.9656482,0.2703648
0.003749366,0.9659946,0.2727427
0.001237282,0.9674025,0.2730842
-0.0005108976,0.970687,0.2698743
-0.00279849,0.9693708,0.2693
0.002117113,0.96674,0.2649994
0.008026118,0.9668315,0.2608597
0.00578024,0.9664628,0.2659526
0.004386028,0.9676952,0.2697989
0.007219344,0.969286,0.2696762
0.006314371,0.9712998,0.2694208
0.004723593,0.9743132,0.2692018
0.006013899,0.9706488,0.2699458
0.005085997,0.9640973,0.2701276
0.003625959,0.9634357,0.2709274
0.002532063,0.966206,0.2702407
0.002225594,0.9691751,0.2686755
0.004162855,0.9700701,0.2698761
0.006237644,0.9691974,0.2704559
0.0101366,0.969389,0.2708584
0.01017155,0.9692348,0.2722284
0.004955941,0.9675502,0.2760365
0.003542453,0.9661559,0.2818369
0.004014171,0.966469,0.2815369
0.003105616,0.9659815,0.2799502
-0.001901463,0.9611226,0.2847102
-0.006488839,0.9566116,0.2869182
0.001417219,0.9605876,0.2832094
0.009985459,0.9727988,0.2808495
0.007134073,0.9826898,0.2818471
0.005316501,0.9793666,0.2825471
0.006933181,0.9703237,0.2815542
0.004104183,0.9680768,0.2815178
0.002307619,0.9656966,0.2796469
0.003325297,0.9590109,0.2737566
0.002369489,0.9575835,0.2733285
0.002786862,0.9675107,0.2847009
0.003147208,0.9797502,0.2947902
0.003336777,0.9767374,0.2862746
0.00852015,0.9680659,0.2751531
0.01247631,0.9674548,0.2793555
0.01030779,0.9664317,0.2792547
0.006589924,0.9674129,0.275721
0.005672808,0.967171,0.2806764
0.005715654,0.9632647,0.2796998
0.00489844,0.9648222,0.2778189
0.005057427,0.9654264,0.2804784
0.003871421,0.9665668,0.2795883
0.003887414,0.9669875,0.2804933
0.005776017,0.9637717,0.2797413
0.00532713,0.9667714,0.2751042
0.005380753,0.9674014,0.2729303
0.004216945,0.9657535,0.2722266
0.003653409,0.967637,0.2732236
0.006335667,0.9670892,0.2740926
0.005877991,0.968558,0.2766358
0.004974599,0.9693829,0.2806124
0.005890328,0.9689709,0.2773612
0.00606319,0.9701804,0.2740236
0.008471557,0.9682393,0.2763611
0.01207473,0.9658903,0.2766666
0.01156271,0.9637058,0.2769239
0.006933994,0.9656203,0.2799392
0.0005155237,0.9690588,0.2819681
-0.004721044,0.9624285,0.2801441
0.001378729,0.9581038,0.275987
0.01075531,0.9652935,0.2746472
0.004352744,0.9722661,0.2756673
-0.0004786977,0.9723538,0.2768355
0.004699723,0.9672669,0.2767115
0.002642722,0.9643609,0.2755821
0.001781332,0.9677546,0.2758867
0.004201852,0.9710048,0.2753396
0.002823801,0.9693954,0.2771343
0.004454132,0.9686289,0.2805324
0.003749813,0.969863,0.2774494
0.002546778,0.9674105,0.2736336
0.007834063,0.9658352,0.2735036
0.01065621,0.968062,0.2749527
0.008233995,0.9719783,0.2765048
0.006058012,0.9760801,0.2769992
0.008722949,0.97265,0.2798999
0.01108192,0.9667065,0.2795855
0.008564052,0.9670604,0.2742727
0.006802101,0.9667126,0.2704015
0.004260098,0.9651855,0.2665564
0.002922833,0.965667,0.2674121
0.003951923,0.9659288,0.2695667
0.001382867,0.9669647,0.2669776
0.0008906361,0.9675237,0.2681761
0.003427577,0.9688391,0.2683515
0.00540866,0.9723155,0.2653608
0.00791279,0.9724307,0.265406
0.007196201,0.9705843,0.2648769
0.006569979,0.9691159,0.2654169
0.009267831,0.966827,0.2659585
0.01016429,0.9666358,0.2664688
0.009173243,0.9668414,0.2691272
0.007131129,0.9674885,0.2671753
0.005604623,0.9696453,0.2629964
0.008279507,0.9694984,0.2605568
0.01380006,0.9690174,0.2616274
0.01809097,0.9678182,0.2665623
0.01658573,0.9658607,0.2672364
0.01098608,0.9670707,0.2666751
0.008787062,0.9687326,0.2687504
0.009620293,0.9688432,0.2689667
0.009997281,0.9653148,0.2661201
0.009041228,0.9612256,0.2616663
0.00569971,0.9652073,0.2626763
0.002593005,0.9703941,0.2654854
0.003141867,0.969562,0.2650484
0.005844671,0.9690566,0.2698835
0.005848634,0.9697963,0.2740324
0.004084081,0.9681867,0.2696967
0.004597119,0.9640806,0.2627949
0.006023728,0.9597984,0.2582992
0.008492819,0.961704,0.2607825
0.009992511,0.9668519,0.2643923
0.009342525,0.9665705,0.2620915
0.01004661,0.9646881,0.2617915
0.009705813,0.9636439,0.2637814
0.008528579,0.9631,0.2637902
0.00568864,0.9637129,0.2653722
0.0008989961,0.9619816,0.2641844
0.001447136,0.9624337,0.2610139
0.002307933,0.9651055,0.2627896
0.0004699815,0.9657141,0.2639165
0.001693274,0.9683541,0.2666077
0.001683028,0.9701059,0.2727229
0.001028406,0.9694825,0.2714022
0.003063395,0.9693612,0.267884
0.00435214,0.9698096,0.2696503
0.004272078,0.9724275,0.2703359
0.0025224,0.9735322,0.2706856
0.002172431,0.9699214,0.2724302
0.004988725,0.9648599,0.2695412
0.006920117,0.9651345,0.2647492
0.008539437,0.9707419,0.2659101
0.007237075,0.9716017,0.2710797
0.004054103,0.9644765,0.2739394
0.005792915,0.9580482,0.2689619
0.006012148,0.9654957,0.2624205
0.00366452,0.9764309,0.2664239
0.003701419,0.9726143,0.2731231
0.003399909,0.9669811,0.2755038
0.005149549,0.9651695,0.2761826
0.006463411,0.9650535,0.2740051
0.004780784,0.9704858,0.2750477
0.004787008,0.9712939,0.2768907
0.004109932,0.9695778,0.2750422
0.003891613,0.9673887,0.273633
0.005567375,0.9631467,0.2685486
0.005750939,0.9664632,0.2683829
0.006505916,0.969696,0.2754343
0.007072293,0.9703006,0.2756346
0.005989797,0.9704267,0.276835
0.005292314,0.9669104,0.2806409
0.005043733,0.9706277,0.2776703
0.004035315,0.973902,0.2739734
0.002120945,0.9689117,0.2723639
0.002457331,0.9663132,0.2717001
0.003423982,0.9646004,0.2724338
0.002362621,0.9650792,0.2723631
0.00296137,0.9670011,0.2721436
0.004139464,0.9662827,0.273087
0.004973823,0.9669781,0.2732068
0.006174496,0.9668445,0.2726028
0.005058129,0.9672491,0.2728548
0.003530997,0.9685867,0.2722793
0.002587041,0.9669246,0.2714483
0.002302065,0.9663052,0.2709044
0.003094598,0.9671329,0.2696103
0.001765653,0.9684464,0.2699939
0.001039493,0.9698627,0.2713208
0.003824394,0.9686502,0.2731708
0.009210455,0.9678368,0.276126
0.01252465,0.9698996,0.275919
0.003315541,0.9701854,0.2766956
-0.005663128,0.963691,0.2806705
0.00497332,0.9585797,0.2790917
0.01455902,0.966352,0.2771843
0.008855151,0.9740447,0.2805049
0.008129467,0.9671858,0.2806243
0.01066571,0.9595836,0.2773548
0.004408018,0.9596257,0.2762911
0.00114902,0.9597451,0.2771296
0.003109421,0.9630504,0.276493
0.002977447,0.9705726,0.2772234
0.002851785,0.9750136,0.2793743
0.003751765,0.9722161,0.2773088
0.005458935,0.9655322,0.2770023
0.00594991,0.9635344,0.2778399
0.005448004,0.9629307,0.2776522
0.006778257,0.9640993,0.2799999
0.008064581,0.9686631,0.278964
0.008133294,0.9665504,0.2806431
0.005671765,0.9657702,0.2835834
0.003084439,0.969,0.2802272
0.003954174,0.9684413,0.2786263
0.003567616,0.969562,0.2749491
0.001276102,0.967465,0.2723635
0.001045706,0.9632035,0.2751237
0.001815849,0.964871,0.276972
0.002237076,0.9672127,0.2793004
0.003129052,0.96771,0.2775441
0.003921821,0.9677942,0.2777763
0.004841248,0.9699534,0.2796221
0.008149939,0.9702864,0.271945
0.01159528,0.9682878,0.2675575
0.01063084,0.9693536,0.2697304
0.005259194,0.9654923,0.2717531
0.001145643,0.9594297,0.2728151
0.002637014,0.9613914,0.2718171
0.004594823,0.970826,0.2715786
0.003931321,0.9816985,0.2677296
0.004166807,0.9792653,0.2650873
0.004560874,0.9686615,0.2723534
0.004796426,0.966674,0.2791262
0.005971523,0.9722622,0.2770339
0.005878761,0.9785208,0.2741587
0.006075623,0.9733547,0.2751895
0.007501978,0.9628245,0.2706313
0.006989851,0.9627761,0.2672605
0.006247706,0.9669436,0.2707544
0.005293624,0.9715655,0.2692389
0.002594239,0.9715039,0.2683521
0.002421528,0.9680591,0.2676178
0.004663627,0.9710527,0.2642447
0.006969585,0.9688723,0.2687504
0.009166148,0.9634666,0.2744784
0.008625758,0.9631517,0.2757578
0.007670201,0.9639529,0.2751705
0.008730347,0.9683081,0.2743874
0.008376512,0.9672805,0.2751084
0.007832612,0.9652779,0.2731436
0.007780572,0.9699695,0.2714145
0.006500145,0.969093,0.2723955
0.006613635,0.9674133,0.2714345
0.006452743,0.9667167,0.267677
0.004602542,0.9656589,0.2638962
0.003763682,0.9679132,0.2651454
0.002540559,0.9671252,0.2681133
0.002619711,0.9685269,0.2680023
0.005124678,0.9716527,0.2678339
0.006269384,0.9716469,0.2663275
0.00736756,0.9713432,0.2646411
0.008453532,0.9677805,0.2664364
0.006688892,0.9663446,0.2679189
0.005116711,0.9656696,0.2674556
0.007203339,0.9633448,0.267847
0.009028203,0.9636464,0.2709747
0.006435455,0.9602511,0.2741536
0.004552736,0.9599945,0.2731681
0.006195047,0.9633178,0.2723319
0.007526432,0.9627465,0.2741166
0.008600759,0.9661216,0.2733303
0.008362965,0.966336,0.2702989
0.006092086,0.9638679,0.268004
0.005173966,0.967364,0.2674581
0.004590033,0.9677507,0.2680556
0.001233342,0.9679948,0.266347
-0.002381058,0.9696895,0.2644117
-0.0002913581,0.9687965,0.2651802
0.003137194,0.9681243,0.2646952
0.001385766,0.9632266,0.2636712
0.003201418,0.9603704,0.2656925
0.009213967,0.9666962,0.2674586
0.01045959,0.9715499,0.2677384
0.009389307,0.9697207,0.2720246
0.007354122,0.968766,0.2786979
0.004577555,0.972888,0.2782276
0.003725161,0.9740308,0.2730023
0.00400251,0.9696233,0.2715391
0.004378035,0.964309,0.2721205
0.003084042,0.9614546,0.272081
0.002175801,0.9661539,0.2705084
0.002144782,0.9693134,0.2685959
0.00114718,0.9640066,0.2698656
0.002235783,0.9618957,0.2715866
0.003301194,0.9670448,0.2720269
0.002637228,0.9713973,0.2708673
0.003085178,0.9695591,0.2689916
0.004606188,0.968341,0.2721899
0.00612463,0.970365,0.2763307
0.005545796,0.9688558,0.2768093
0.004249931,0.9665784,0.2774681
0.004340592,0.9631452,0.2753876
0.004927968,0.9604004,0.2715658
0.005905393,0.9668079,0.2728884
0.00571576,0.9727345,0.2761433
0.00521324,0.9707731,0.2785864
0.005783726,0.9691725,0.280812
0.005541157,0.9689426,0.2775607
0.005058493,0.9657871,0.2725839
0.003944094,0.9626888,0.2732711
0.002120451,0.9636601,0.2726838
0.002573887,0.9645868,0.2710512
0.003266482,0.9632865,0.2726374
0.002469461,0.9629721,0.271001
0.003133213,0.9637613,0.2713352
0.004769453,0.9683608,0.2766978
0.006224973,0.9732153,0.2770851
0.007688715,0.9666715,0.2748652
0.00846784,0.9598255,0.2754106
0.008647308,0.9672073,0.2776912
0.008131863,0.9723765,0.2793417
0.007498145,0.9682807,0.2758521
0.005069576,0.9675278,0.2720794
0.001430074,0.9660108,0.2744356
0.002399173,0.9623372,0.2761499
0.003772035,0.9642718,0.274599
0.002105308,0.966422,0.276499
0.002299882,0.9665158,0.2807003
0.0004773829,0.9671425,0.2826977
-0.001793939,0.9663998,0.2823616
0.003246941,0.9663569,0.2809408
0.008392675,0.9661482,0.2798155
0.007273223,0.9644761,0.2760909
0.006499019,0.9644173,0.2725366
0.009175699,0.96464,0.2747168
0.01035511,0.9670045,0.2785145
0.009545879,0.969527,0.282373
0.009678574,0.9625976,0.281909
0.00977954,0.9557,0.2743411
0.009161646,0.9617414,0.2699267
0.007069348,0.9693755,0.2715241
0.004681664,0.9699411,0.2748516
0.005307261,0.9694881,0.2757611
0.006126559,0.9693538,0.2745934
0.004894934,0.9698153,0.2759608
0.003517421,0.9724507,0.2760338
0.001604857,0.9740064,0.2759376
0.0008528277,0.9726872,0.2794313
0.002830837,0.9695814,0.2814758
0.004405806,0.9677176,0.2807194
0.005973128,0.9670653,0.2798088
0.00772207,0.9652993,0.2799653
0.007278136,0.9650433,0.2790617
0.008899192,0.9659715,0.2782415
0.01330856,0.9678174,0.2780314
0.0140405,0.9704197,0.2755507
0.009476647,0.9692816,0.27601
0.003388679,0.9670624,0.2770818
0.001498053,0.9668802,0.2742776
0.003173147,0.9685388,0.2722476
0.003029099,0.9722126,0.2701396
0.002406849,0.9738558,0.2695703
0.002964682,0.9729692,0.2681833
0.002990341,0.9710449,0.2643398
0.003524694,0.9685758,0.2684009
0.004749064,0.9681839,0.2731855
0.005658227,0.9657103,0.2701596
0.008254726,0.9612638,0.2676727
0.01066169,0.9645627,0.2619531
0.008903551,0.9689025,0.254136
0.007631648,0.9660977,0.2579306
0.009595326,0.9660105,0.2660494
0.009937552,0.9676278,0.2702794
0.008436006,0.9658684,0.2756181
0.007223939,0.9658509,0.2748591
0.007469097,0.9658717,0.2674311
0.01148143,0.9673836,0.2640926
0.01521417,0.970828,0.2645815
0.01299583,0.9695434,0.2657842
0.00914569,0.9686657,0.263503
0.007439296,0.9706505,0.2611561
0.004740723,0.9718942,0.26357
0.00358777,0.9733786,0.2649567
0.00635426,0.969791,0.268981
0.007582063,0.9643998,0.2725654
0.006664151,0.9665569,0.2683441
0.005940701,0.9675233,0.2634653
0.005141169,0.9633369,0.2604387
0.004641351,0.9609176,0.2631602
0.004167147,0.9590745,0.2681211
0.004886884,0.9590268,0.2655035
0.005713685,0.9597072,0.2634354
0.003743565,0.9580857,0.2642515
0.002019744,0.9613574,0.2635739
0.002751221,0.9666977,0.2640135
0.00313875,0.967151,0.2639872
0.002521304,0.9666526,0.2640178
0.002776034,0.9664648,0.2653621
0.003676713,0.9672672,0.264772
0.006140139,0.9697003,0.2633124
0.009714382,0.9722424,0.2632254
0.01003952,0.9727075,0.2619777
0.0108183,0.9698476,0.2600711
0.01282708,0.96852,0.2626764
0.008094416,0.967549,0.2688555
0.003437716,0.9642105,0.273682
0.006266058,0.9637832,0.272727
0.009007189,0.9670505,0.2671148
0.00895261,0.9708373,0.2666501
0.005785938,0.9713926,0.2706388
0.001341474,0.969459,0.2722132
0.004009402,0.969632,0.2694667
0.007674086,0.9712483,0.265104
0.005762092,0.9726069,0.2694949
0.00678367,0.9716007,0.2751017
0.007730546,0.9700092,0.2739495
0.004279876,0.9710743,0.2740266
0.0009424655,0.9706912,0.2681705
-0.003479068,0.9686875,0.2609682
-0.003229328,0.9684925,0.2641213
0.002146273,0.9713279,0.2672718
0.003273721,0.9736218,0.2681998
0.002942986,0.9666532,0.27018
0.002853619,0.9583739,0.269718
0.003372528,0.9624815,0.269002
0.005142816,0.9715702,0.2706784
0.004947292,0.9757617,0.2717754
0.006554337,0.9717382,0.2731875
0.00755921,0.9660335,0.2762067
0.00551582,0.9723371,0.2752594
0.005462545,0.977521,0.2711068
0.005533886,0.9697322,0.2669491
0.005181959,0.9651596,0.2661164
0.003920545,0.9657046,0.272094
0.002524629,0.9675101,0.276071
0.005461079,0.9709008,0.2750639
0.007909486,0.9694006,0.2744161
0.005744878,0.9683703,0.2724916
0.002966867,0.9685863,0.2684586
0.002460861,0.9666054,0.2661216
0.002839032,0.9681402,0.2689884
0.00277002,0.9689798,0.2727455
0.002846365,0.9682393,0.2746435
0.002867473,0.9696182,0.2756843
0.004407396,0.9679224,0.2727721
0.008094034,0.9663,0.2714736
0.009877412,0.9703894,0.2738626
0.005619431,0.9722627,0.2743697
0.0007937973,0.9650978,0.274828
0.003552693,0.959346,0.275394
0.005646474,0.9660878,0.2773234
0.003075061,0.9727228,0.2785497
0.003343304,0.9682704,0.2749597
0.002800616,0.9646053,0.2726352
0.001191879,0.9641959,0.2719617
0.001173314,0.9631846,0.2718398
-0.001572224,0.9666397,0.2731692
-0.002540972,0.9700029,0.2747308
0.002565598,0.9729189,0.2808509
0.007421469,0.9759992,0.2850015
0.006161981,0.9712921,0.2799197
0.004142146,0.9675926,0.2749131
0.006707481,0.9696793,0.2745047
0.007729524,0.9689032,0.2751604
0.008941962,0.9674192,0.2750901
0.0103307,0.9678563,0.2750417
0.005441846,0.9674829,0.2763337
0.002923083,0.9658195,0.2782487
0.004444703,0.9650771,0.2790872
0.0040422,0.9659529,0.2784379
0.003336842,0.9683959,0.2789787
0.002317333,0.9705573,0.2788777
0.002609282,0.9681197,0.2743182
0.00183163,0.9662986,0.2708145
-0.0007077308,0.9676253,0.2723654
4.963889e-05,0.9692961,0.2747121
0.001989404,0.9735723,0.2748427
0.003087509,0.97433,0.2732695
0.004390683,0.9708197,0.2718289
0.006190972,0.9693305,0.272809
0.005795611,0.9672888,0.2745998
0.003685766,0.9663037,0.2743679
0.003508943,0.9676553,0.2749034
0.002435826,0.9683608,0.2755886
0.003313886,0.968208,0.2744994
0.007917915,0.9677344,0.2752795
0.01055009,0.9682345,0.2759854
0.01040641,0.9670618,0.2737424
0.008912794,0.9624371,0.2671257
0.009800047,0.9592598,0.2601614
0.01052126,0.9642715,0.2645775
0.009807269,0.9737418,0.2704568
0.01187718,0.9734374,0.2676559
0.01072282,0.9644284,0.2693347
0.00774782,0.9581127,0.2723786
0.006852617,0.959221,0.2702307
0.005478396,0.9654043,0.2710705
0.004021972,0.9685898,0.2725006
0.0002887484,0.9699691,0.2710728
0.0005764316,0.9701169,0.2690867
0.003849498,0.968004,0.2689995
0.002312988,0.9673898,0.2719858
0.004760274,0.961825,0.2725102
0.01036897,0.9588138,0.2705014
0.01343632,0.9676233,0.2686561
0.01338436,0.9731176,0.2682182
0.01008404,0.9702368,0.2716167
0.01018011,0.9683052,0.2716045
0.008368835,0.9716997,0.2681793
0.003485453,0.97305,0.266716
0.002571681,0.9696018,0.2625736
0.002505783,0.969391,0.2601658
0.005003846,0.9702707,0.260841
0.006379879,0.9708905,0.259117
0.004960642,0.9703915,0.259554
0.005954091,0.9684482,0.2604608
0.005380964,0.96913,0.260092
0.005444909,0.9660384,0.2612721
0.005568331,0.9626717,0.2591368
0.003284839,0.9657751,0.2555367
0.002811245,0.9671418,0.256616
0.003829586,0.9639012,0.2627516
0.00866528,0.961771,0.2693409
0.01563442,0.96524,0.2692214
0.01960656,0.9680991,0.268982
0.01774135,0.9658228,0.2742109
0.01127441,0.9636619,0.2742385
0.008787308,0.9634786,0.2667414
0.009070099,0.9691694,0.2610355
0.008048962,0.9758498,0.2659721
0.005627217,0.9715687,0.2736085
0.003332212,0.9676874,0.2690788
0.003646841,0.9747262,0.26409
0.001480407,0.9774038,0.2638455
0.000579563,0.9703714,0.2607904
0.00188428,0.9668982,0.2643514
-0.0009556209,0.9714036,0.2726661
-0.001281963,0.9751488,0.2769191
0.001548524,0.9704808,0.2746024
0.004911474,0.9657507,0.2673835
0.007765091,0.9674358,0.2634406
0.008222441,0.9693184,0.2621071
0.009018819,0.9714744,0.2673221
0.007607952,0.9715134,0.2747775
0.006240151,0.969982,0.2736233
0.005755981,0.9723164,0.273294
0.004627691,0.9718535,0.2728071
0.005932062,0.9682308,0.2705594
0.003740353,0.9661596,0.2712538
0.001810874,0.9670086,0.2713273
0.004271628,0.9699881,0.2725862
0.004258379,0.9684423,0.2715228
0.004211788,0.9663722,0.2699209
0.004171978,0.9671119,0.2714001
0.004144483,0.9671884,0.2700948
0.005412815,0.9683791,0.2688035
0.005308523,0.9669889,0.2696568
0.004761075,0.9637034,0.2726764
0.002859662,0.9623272,0.2737562
0.002599855,0.9624456,0.2717698
0.005031389,0.9668051,0.274225
0.00494308,0.9705427,0.2748649
0.001356624,0.9695221,0.2751107
-0.002156583,0.9640942,0.2788986
0.002524409,0.9571744,0.2752659
0.008459086,0.959745,0.2717396
0.006068638,0.966377,0.2739086
0.006225565,0.9680335,0.272021
0.007968211,0.9705942,0.2698549
0.005315387,0.9711766,0.2712859
0.005291415,0.969448,0.2732873
0.005923061,0.9696198,0.27571
0.004673225,0.9690645,0.2765956
0.003107221,0.9694468,0.2733398
0.0005156162,0.9685846,0.2692108
0.0013115,0.9664042,0.2689405
0.004007571,0.9676599,0.2697797
0.004203999,0.9709998,0.2693565
0.004368874,0.974448,0.2695995
0.004284986,0.9713137,0.2707243
0.005032702,0.9647414,0.2732404
0.007051367,0.9630589,0.2760578
0.006546117,0.9612011,0.2763775
0.00419509,0.9637113,0.2736579
0.002021915,0.9690154,0.2722517
0.002340901,0.9664832,0.2774659
0.00354789,0.9656352,0.2825916
0.002364561,0.967743,0.2798996
0.003021837,0.9665216,0.2782055
0.005001318,0.9683358,0.2825919
0.005472461,0.9700931,0.2837951
0.005114101,0.9674034,0.2801473
0.003872251,0.9659603,0.2774233
0.005814329,0.9666708,0.2772601
0.007894805,0.96714,0.2779071
0.005537595,0.9673814,0.2759187
0.004198759,0.9680802,0.2746962
0.005194904,0.9674926,0.277875
0.009364207,0.9670467,0.2795864
0.01311929,0.9720996,0.2766335
0.00673478,0.9760707,0.2734878
0.00070526,0.9707856,0.2736769
0.008104858,0.9662103,0.2723472
0.01412392,0.9709802,0.2694807
0.009575356,0.975432,0.2713894
0.008455459,0.9749843,0.2730208
0.01029898,0.9755899,0.272714
0.006622962,0.9716072,0.2735084
0.003475084,0.9644586,0.2734873
0.0003505512,0.965279,0.2747748
-0.00440977,0.9668333,0.2750467
-0.004576747,0.9669531,0.2717881
-0.00435722,0.9688443,0.2664145
-0.00729473,0.961097,0.2608358
-0.00724583,0.9521959,0.2606866
-0.005434545,0.9579239,0.2602214
-0.006014712,0.9631235,0.256896
-0.007228388,0.961931,0.2580832
-0.008806592,0.9678329,0.2572363
-0.008818148,0.972135,0.2554925
-0.007603176,0.9694466,0.2620111
-0.008360397,0.9727917,0.2676137
-0.006314126,0.9788168,0.2650002
-0.002766685,0.979367,0.2612225
-0.002508258,0.9716046,0.2592274
-2.248966e-05,0.962873,0.2547969
0.01060731,0.9728603,0.2521814
0.02306822,0.986011,0.2579372
0.02027829,0.9833087,0.2652419
0.009315792,0.9857751,0.2664995
0.005840236,0.9900133,0.2640025
-0.0007382107,0.9792978,0.2615292
-0.007896968,0.9686414,0.2591113
-0.007420681,0.9669656,0.2596177
-0.002836153,0.9676365,0.2642438
0.003378899,0.9660039,0.2657479
-0.001806062,0.9632053,0.2632959
-0.009287632,0.9614552,0.2611337
-0.004889764,0.9613217,0.2617388
-0.0005212876,0.9680262,0.2651528
0.003071935,0.97772,0.265397
-6.964039e-05,0.9785256,0.2632354
-0.006061854,0.9667021,0.2624862
0.004349689,0.9549354,0.2638761
0.009202064,0.9589047,0.2664075
-0.007622442,0.9627293,0.2652484
-0.02078489,0.9583356,0.2646446
-0.0162261,0.9639968,0.2652577
-0.01195972,0.9702702,0.2611394
-0.01712787,0.9691785,0.2572018
-0.0140022,0.9693351,0.2552271
-0.007850282,0.9661385,0.2537141
-0.007240466,0.9625132,0.254282
-0.001389585,0.9623396,0.2563743
0.006777491,0.9648001,0.2584432
0.01549165,0.972706,0.2599979
0.01160022,0.9769848,0.2653639
0.0002282009,0.9688965,0.2711023
0.008916701,0.9591446,0.267598
0.01397723,0.962088,0.2628746
0.009724992,0.9668618,0.2654965
0.01115834,0.9653104,0.2652191
0.003215453,0.9693558,0.261512
0.0007571072,0.9715738,0.2628866
0.005527028,0.9697329,0.2647747
0.003353476,0.9708461,0.2694563
0.004605375,0.9687186,0.2772395
0.00424692,0.9696773,0.2765957
0.003578578,0.9730268,0.2717735
0.003946616,0.9734979,0.2688651
-0.001954603,0.9727023,0.2665793
-0.003452581,0.9640173,0.2649642
0.005104673,0.956916,0.2630033
0.0141832,0.9616689,0.263969
0.008712759,0.9725646,0.2665128
0.001411802,0.9797906,0.2702812
0.007195641,0.9731567,0.2749013
0.006308405,0.9649867,0.2706075
0.003749038,0.968044,0.2659911
0.006791163,0.9695586,0.271332
0.003064112,0.9667555,0.2737919
0.001465915,0.9690633,0.2711859
0.0005133958,0.9722396,0.2703801
-0.003583264,0.9732301,0.2699249
-0.002437157,0.972034,0.272554
0.0003767379,0.9676862,0.2765956
0.002957337,0.969114,0.2752586
0.003971678,0.9705464,0.2741818
0.004835251,0.9663032,0.2764231
0.007855504,0.9666627,0.2753481
0.006423919,0.9671489,0.2726397
0.004081775,0.968012,0.2722275
0.004207805,0.9699552,0.2737949
0.002397784,0.9654717,0.2759033
0.00217866,0.9628246,0.2749105
0.003479328,0.9647368,0.2735087
0.001978946,0.9657891,0.2738793
-0.0001112058,0.9644225,0.2727722
-0.0012504,0.9635746,0.2709922
0.0006306394,0.9674216,0.2684942
0.00466919,0.9706242,0.2669806
0.004731901,0.9713918,0.2670335
0.005071281,0.9708775,0.2664085
0.007039926,0.9706787,0.2686354
0.006620595,0.9731598,0.2703649
0.008438122,0.9730271,0.2681442
0.007425457,0.968675,0.2646786
0.003830141,0.9626142,0.2594576
0.005827361,0.9616183,0.2589909
0.00516247,0.967882,0.2636261
0.002907332,0.9725563,0.2669104
0.003795345,0.9742791,0.2739798
0.00247335,0.9713994,0.2816341
0.002443016,0.9657662,0.2792855
0.003279213,0.9649132,0.2721774
0.002432843,0.966354,0.2704936
0.002876492,0.96897,0.2716498
0.002863904,0.9689741,0.2699213
0.003151699,0.9627455,0.2664788
0.006316834,0.9592227,0.2646193
0.01125291,0.965251,0.269524
0.01357087,0.972654,0.278539
0.01036976,0.9691824,0.2812982
0.007707029,0.9644064,0.2768566
0.008250209,0.9643882,0.2723688
0.007000038,0.9620487,0.2714071
0.003844848,0.9667136,0.270328
0.001981995,0.971896,0.2704467
0.00258967,0.9676102,0.2713951
0.003311135,0.9664929,0.2683164
0.002646674,0.9676874,0.2679532
0.003600749,0.9698123,0.2703521
0.004742851,0.9736936,0.2718657
0.004150094,0.972072,0.2731695
0.004988308,0.9696342,0.2716098
0.005994852,0.9696161,0.2721871
0.005331915,0.9700687,0.2727757
0.004546186,0.9705743,0.2714972
