accx,accy,accz
-0.07428186,0.5901563,0.8207004
-0.06337238,0.5887236,0.8187834
-0.05458837,0.5875662,0.8141852
-0.0585768,0.5817413,0.8190308
-0.06174478,0.57538,0.8254002
-0.06080528,0.5765631,0.8228005
-0.06355453,0.5753921,0.8293636
-0.06506802,0.5695013,0.8403601
-0.0643051,0.569969,0.8409898
-0.06161491,0.5707378,0.8391572
-0.05866837,0.5629944,0.8387748
-0.0561104,0.5584261,0.8371562
-0.05275509,0.5649378,0.8367205
-0.05464484,0.5706425,0.8356814
-0.06505354,0.5698225,0.8292029
-0.079061,0.5748302,0.8289558
-0.09112395,0.5848043,0.8392382
-0.09564979,0.5813611,0.8395568
-0.07428137,0.5732605,0.8321866
-0.03810887,0.5749039,0.8321229
-0.03380625,0.5786964,0.8293977
-0.0396466,0.5843898,0.8260329
-0.02970882,0.5835983,0.8325466
-0.04027109,0.5734904,0.8365973
-0.05067938,0.5680984,0.8369896
-0.0466381,0.5648996,0.8379799
-0.05381224,0.5650633,0.8322875
-0.05324035,0.5693691,0.8288399
-0.05541582,0.577562,0.8310309
-0.0653577,0.5889971,0.8306433
-0.05949266,0.5862951,0.8291999
-0.05546557,0.5832758,0.8243232
-0.05407958,0.5897729,0.8192395
-0.05175997,0.5847209,0.8221953
-0.05415103,0.5815119,0.8264621
-0.05298523,0.5874108,0.8258618
-0.05468749,0.5876145,0.8261646
-0.05673518,0.5853832,0.8281193
-0.05647761,0.582288,0.8275105
-0.05783192,0.5801292,0.8287027
-0.05567572,0.5777299,0.833119
-0.05382459,0.5712893,0.8382189
-0.0529906,0.5692682,0.8397993
-0.05262416,0.5706815,0.8332205
-0.05214467,0.5724294,0.8284494
-0.05014193,0.5763161,0.82887
-0.05318107,0.575975,0.8282008
-0.05547479,0.5755661,0.8281767
-0.05501443,0.5792389,0.8292016
-0.05632918,0.5791105,0.8312744
-0.05411669,0.5793578,0.8306439
-0.05384695,0.5819354,0.8282084
-0.05574383,0.5810935,0.8289893
-0.05481182,0.5809434,0.8271808
-0.05410368,0.5782504,0.824184
-0.05112247,0.5737895,0.8247006
-0.05135614,0.5793942,0.8263557
-0.0558629,0.5854458,0.8266139
-0.057427,0.5826229,0.8250788
-0.05700402,0.5797892,0.8247872
-0.05365053,0.5781018,0.8242287
-0.05193726,0.5769495,0.8255538
-0.0532441,0.5785191,0.8326334
-0.05371526,0.5797418,0.8376938
-0.0555011,0.5808415,0.8342047
-0.05474562,0.5820187,0.8290257
-0.05003096,0.5817088,0.8287522
-0.0457496,0.5820977,0.8236064
-0.04867432,0.5820928,0.8196999
-0.06031533,0.5810479,0.8315696
-0.06665228,0.579597,0.8391815
-0.0592318,0.5772039,0.8320275
-0.05017423,0.5790978,0.8260497
-0.05358487,0.5816716,0.8257859
-0.05590939,0.5783768,0.825828
-0.05029003,0.5766741,0.826746
-0.05388178,0.5776096,0.8300542
-0.05763474,0.5780952,0.8266113
-0.05724994,0.5812896,0.8213886
-0.05829797,0.5859412,0.8242764
-0.05385091,0.589355,0.8256069
-0.05514918,0.5891063,0.8249122
-0.05722318,0.5855475,0.825947
-0.05385973,0.5834484,0.8291865
-0.05644302,0.5820754,0.8337139
-0.0556917,0.5795847,0.8320147
-0.05450503,0.577994,0.8298282
-0.05557123,0.575481,0.8301935
-0.05218163,0.5713508,0.8287408
-0.05303552,0.570232,0.8301311
-0.05492831,0.5720996,0.8321722
-0.05560267,0.5740446,0.8328163
-0.05628155,0.5767193,0.835937
-0.05511577,0.5797769,0.8375269
-0.05768483,0.5814753,0.8335289
-0.05908836,0.5820818,0.828424
-0.05799941,0.5823602,0.8253402
-0.05902271,0.5826662,0.8248692
-0.06087157,0.5835339,0.8286183
-0.0628945,0.5831246,0.8295753
-0.06014309,0.5802608,0.8290472
-0.05674073,0.5784843,0.8343311
-0.05820949,0.5784701,0.8340084
-0.0565218,0.5768088,0.8299866
-0.05180526,0.5741275,0.831072
-0.05109356,0.5744717,0.8303282
-0.05426322,0.5756976,0.8313393
-0.05657981,0.5736963,0.8324829
-0.05563996,0.5731145,0.8294785
-0.05555708,0.5747927,0.8293171
-0.05859338,0.5768672,0.8312933
-0.06019951,0.5803614,0.8352758
-0.05799557,0.5797128,0.8368595
-0.05640509,0.5784176,0.8326541
-0.05870424,0.5818474,0.8295679
-0.06073873,0.5835138,0.826587
-0.05939258,0.5842946,0.8241644
-0.05719248,0.5848564,0.8257918
-0.05224992,0.5817925,0.8307693
-0.04691371,0.5766254,0.8348021
-0.05105333,0.5717091,0.8323632
-0.05713603,0.571956,0.8286478
-0.05667272,0.5756769,0.8274225
-0.05856919,0.5769045,0.8267543
-0.06114144,0.5767706,0.828927
-0.06017426,0.576965,0.8336638
-0.06122445,0.5786109,0.8362462
-0.06088218,0.5808306,0.8314254
-0.05700164,0.5818604,0.8251605
-0.05473307,0.5807766,0.8277985
-0.05516518,0.5780703,0.831207
-0.05581366,0.5787564,0.829506
-0.05341897,0.5791757,0.8291287
-0.05102525,0.5767312,0.8277153
-0.05192487,0.5780783,0.82806
-0.05404777,0.5793595,0.8323598
-0.05639335,0.5796703,0.8320976
-0.05647941,0.5810367,0.8312878
-0.05744769,0.5785556,0.830281
-0.06139243,0.5769378,0.8261056
-0.0618342,0.5780468,0.8253062
-0.06206848,0.5777984,0.825943
-0.06219872,0.577563,0.8275541
-0.05567406,0.5768648,0.8292699
-0.05112919,0.5761393,0.8283965
-0.05435109,0.5764965,0.8300628
-0.05681274,0.5777413,0.8336209
-0.05445437,0.5798678,0.8354135
-0.05324666,0.5808898,0.832724
-0.05495141,0.5798044,0.8288224
-0.05588885,0.5785412,0.8290921
-0.0599554,0.5790473,0.830074
-0.06390119,0.5786009,0.8328354
-0.0592692,0.5771241,0.834137
-0.05398495,0.5778767,0.8296924
-0.05373912,0.5780163,0.8293158
-0.05390996,0.5774776,0.8313217
-0.05250368,0.5779774,0.8275242
-0.05143662,0.5778998,0.8257948
-0.0549423,0.5789731,0.8303699
-0.05941913,0.5813334,0.8332189
-0.05872731,0.5819564,0.8320275
-0.05759961,0.5793389,0.8313773
-0.05874395,0.5766257,0.8322391
-0.05801918,0.5780377,0.8315588
-0.05623526,0.5802032,0.829788
-0.05533233,0.5802533,0.8309972
-0.05518353,0.5790689,0.832695
-0.0562819,0.5766862,0.8317129
-0.05785674,0.5756689,0.8326688
-0.06126714,0.57552,0.8334054
-0.06390112,0.5761055,0.8266504
-0.06218208,0.5787426,0.8212606
-0.06117038,0.5781274,0.8254456
-0.05810048,0.5770365,0.8295279
-0.05112655,0.5793823,0.8300472
-0.05009822,0.5787545,0.8294561
-0.05228788,0.5762491,0.8282086
-0.05123325,0.5743435,0.8290613
-0.05109475,0.5734395,0.8291002
-0.05228268,0.5739962,0.8293815
-0.05441504,0.5723103,0.8315958
-0.05920793,0.5721858,0.8325123
-0.0617315,0.5746226,0.8324537
-0.06019845,0.5762233,0.8303928
-0.06004483,0.5780017,0.8294152
-0.06062032,0.5781138,0.8276726
-0.05937438,0.5796005,0.8232895
-0.05762812,0.5823278,0.8248226
-0.05387146,0.5820342,0.8260466
-0.05006067,0.5813688,0.8245893
-0.05216968,0.579243,0.8282734
-0.0559381,0.5767443,0.8316923
-0.05558764,0.5767145,0.8336226
-0.05541838,0.5758111,0.8337095
-0.05584161,0.5729359,0.8306038
-0.05574873,0.5715587,0.8312638
-0.05845792,0.5738837,0.8332571
-0.06037092,0.5746805,0.8322111
-0.0589304,0.5735111,0.8325517
-0.0582765,0.5745674,0.8333163
-0.06097241,0.5737771,0.8328519
-0.06301543,0.5728166,0.8330421
-0.05853696,0.5740581,0.8284138
-0.05349639,0.5726221,0.8190302
-0.05355982,0.5725009,0.8158752
-0.05365724,0.577231,0.8236787
-0.05244495,0.5813115,0.8347983
-0.05323658,0.5814835,0.8365342
-0.05689343,0.5806657,0.8330295
-0.06017734,0.5823479,0.8323505
-0.05975379,0.5821406,0.8302781
-0.05658774,0.5788149,0.8318381
-0.05470887,0.5760528,0.8355805
-0.05486433,0.5722476,0.8337335
-0.05227531,0.5720333,0.8327696
-0.0501275,0.5767166,0.8333976
-0.05675516,0.5792559,0.8320411
-0.06399871,0.5789237,0.8298946
-0.06044615,0.5770679,0.8282931
-0.05653361,0.5775102,0.8281466
-0.0582123,0.5787256,0.8267197
-0.05523519,0.5780095,0.8250192
-0.05179427,0.5798263,0.8258328
-0.05172913,0.5802454,0.8281239
-0.05202611,0.5790392,0.8336112
-0.05627084,0.57834,0.8380953
-0.05819647,0.5750051,0.8312621
-0.0572736,0.573618,0.8224297
-0.05883894,0.5738094,0.8258856
-0.0583558,0.5743549,0.8298364
-0.0584437,0.5765908,0.8299036
-0.06040331,0.5766935,0.8338174
-0.06087421,0.5771437,0.8334052
-0.0588242,0.5783965,0.8316291
-0.05562546,0.578571,0.8330823
-0.05680172,0.5794215,0.8325115
-0.05777874,0.5791009,0.8343107
-0.05622143,0.578249,0.8340448
-0.05719837,0.5779976,0.832158
-0.05711995,0.5766026,0.8316422
-0.05621307,0.5745058,0.8254919
-0.05549668,0.5747206,0.8234202
-0.05398963,0.5776583,0.8293007
-0.05660868,0.579069,0.8356294
-0.0593609,0.5792863,0.8372268
-0.05648286,0.579389,0.8346783
-0.05461047,0.5788069,0.8362791
-0.05673505,0.5792029,0.8329569
-0.05751061,0.5783294,0.8254863
-0.05665498,0.5772385,0.8261425
-0.0567649,0.5779861,0.8326353
-0.0561897,0.5777786,0.8414775
-0.05514212,0.5776965,0.8396741
-0.05570209,0.5778833,0.8332826
-0.0566559,0.577666,0.8338585
-0.05688895,0.5784145,0.8297861
-0.0561777,0.5796779,0.827124
-0.05550089,0.5797334,0.8287701
-0.05725497,0.5778174,0.8315898
-0.05881379,0.577543,0.8344668
-0.05637485,0.5767835,0.8302781
-0.05335851,0.5736464,0.8315659
-0.05205042,0.5747638,0.833392
-0.05035612,0.5757257,0.8280694
-0.05081513,0.5763456,0.8288835
-0.05502432,0.5820037,0.8279169
-0.05849285,0.5818579,0.8262681
-0.05964681,0.5782706,0.827444
-0.05990995,0.5786776,0.8266644
-0.05949173,0.5762052,0.8292897
-0.05878415,0.5770477,0.8276832
-0.05812806,0.5808775,0.8256339
-0.05728672,0.5778923,0.8276933
-0.05409159,0.5768062,0.8291449
-0.04993136,0.5782715,0.8344638
-0.05078891,0.57558,0.8349348
-0.0525748,0.5746104,0.8326668
-0.05146255,0.5761567,0.8303903
-0.05498365,0.5775964,0.8260253
-0.05954457,0.578415,0.8309245
-0.05843935,0.5782048,0.8326984
-0.05786473,0.5791304,0.8263544
-0.0588478,0.5806047,0.8231778
-0.05929718,0.5831178,0.8231218
-0.06067866,0.5844516,0.8272902
-0.06012496,0.5824474,0.8280768
-0.05645121,0.5822127,0.8254625
-0.05328684,0.580964,0.8239595
-0.05195265,0.5777903,0.822431
-0.05048818,0.5767781,0.8239685
-0.05004111,0.5732228,0.8245753
-0.05124441,0.5701749,0.827283
-0.05103135,0.574099,0.8314523
-0.05227874,0.5781887,0.8323644
-0.05552699,0.5763712,0.8338685
-0.05619406,0.5744192,0.8315135
-0.057045,0.5760864,0.8304701
-0.0582716,0.577499,0.8333383
-0.05743689,0.5796564,0.8325789
-0.05662646,0.5804511,0.8301587
-0.05357343,0.5794561,0.8277733
-0.05040873,0.5811772,0.8286122
-0.05385253,0.578645,0.8263808
-0.0572948,0.5750522,0.8231493
-0.05522843,0.5755658,0.8286832
-0.05514307,0.5745476,0.8311175
-0.0571653,0.5769749,0.8329047
-0.05667425,0.5785612,0.8343398
-0.05590933,0.5750779,0.8292344
-0.05469579,0.5738865,0.8293145
-0.05442039,0.5729573,0.8309472
-0.0565387,0.57293,0.8320066
-0.05708293,0.5738071,0.8312964
-0.05703092,0.5758517,0.8254335
-0.05720715,0.5793678,0.8248998
-0.05736255,0.5776713,0.8270415
-0.05819496,0.5769877,0.8296997
-0.05684967,0.5786689,0.8305983
-0.05493237,0.5769037,0.8292848
-0.0536561,0.5760314,0.8347082
-0.05313871,0.5747532,0.8358549
-0.05494242,0.5741935,0.831737
-0.05573982,0.5748601,0.8318873
-0.05607807,0.5727995,0.8321334
-0.05736303,0.5724927,0.8338686
-0.05765885,0.5734479,0.834465
-0.05448746,0.5760705,0.8301727
-0.0502943,0.5807487,0.8261736
-0.05558829,0.5781131,0.8263006
-0.06207544,0.5725672,0.827308
-0.05937341,0.5728191,0.8258258
-0.0588731,0.5764233,0.8272729
-0.05962828,0.5807084,0.828682
-0.05757748,0.5797409,0.8271135
-0.05797132,0.5764159,0.8282183
-0.05672452,0.5766137,0.8291432
-0.05378706,0.5744653,0.8305073
-0.05346571,0.5741954,0.8308796
-0.05271525,0.5763776,0.8263432
-0.05092706,0.5747857,0.8245301
-0.05214196,0.5750491,0.8265353
-0.055065,0.5744728,0.831072
-0.05690396,0.5733739,0.8363403
-0.05898065,0.5757719,0.8331757
-0.05921654,0.576785,0.8268333
-0.05931717,0.580269,0.825752
-0.06187851,0.5827317,0.8253176
-0.06057356,0.5807315,0.8271049
-0.05857752,0.5797246,0.8308899
-0.06026651,0.5770965,0.8298675
-0.05926358,0.5781578,0.8293004
-0.0564603,0.5815326,0.8308885
-0.0542665,0.5799438,0.8310256
-0.05367998,0.5794928,0.8325391
-0.05685317,0.5778009,0.8321642
-0.05932239,0.574224,0.8312602
-0.05950734,0.5729691,0.8324031
-0.05697082,0.571039,0.8307848
-0.05246314,0.569294,0.8304889
-0.05289344,0.5697985,0.833001
-0.05685355,0.5747465,0.8354394
-0.059014,0.577889,0.835613
-0.05755448,0.5729184,0.8281538
-0.05409719,0.5700493,0.8198693
-0.05527426,0.5719102,0.8201508
-0.06156067,0.5752452,0.8244988
-0.06704346,0.5792261,0.8257581
-0.06458147,0.5780507,0.8247596
-0.05662647,0.5756711,0.8253386
-0.05270362,0.5758384,0.8271992
-0.05065063,0.5748299,0.8300533
-0.05179955,0.5755851,0.8310501
-0.05577734,0.5771807,0.8284347
-0.05636831,0.5759915,0.8273258
-0.05812191,0.5749249,0.8286849
-0.05482829,0.5731098,0.829666
-0.04895541,0.5704237,0.828987
-0.05406368,0.5707978,0.8284959
-0.05914144,0.5732823,0.8296121
-0.06176117,0.5788899,0.8276972
-0.06554909,0.5858369,0.8223018
-0.06383087,0.5858219,0.8206194
-0.0624209,0.5822568,0.823638
-0.06102705,0.578907,0.8251749
-0.05695501,0.5733906,0.8263344
-0.0578041,0.5740159,0.8279964
-0.05943492,0.5790582,0.8284117
-0.05769697,0.5792745,0.8320591
-0.05807016,0.5804766,0.8323816
-0.05796181,0.5797142,0.8286927
-0.05614348,0.5753073,0.8300215
-0.05743237,0.5746341,0.8284554
-0.05905411,0.571729,0.8265026
-0.05982414,0.5711923,0.8286854
-0.06008051,0.5757879,0.8274815
-0.05831091,0.5757269,0.8275692
-0.05816477,0.5765421,0.8284294
-0.0585238,0.5768273,0.828536
-0.05808689,0.5747507,0.8312025
-0.0580457,0.5763014,0.8307134
-0.0549762,0.5767653,0.8279724
-0.05063976,0.578492,0.8262065
-0.04975237,0.581794,0.8245815
-0.05399615,0.5822131,0.8242673
-0.05894148,0.5821811,0.8239256
-0.05844621,0.5808537,0.8238485
-0.05609182,0.5783113,0.8277189
-0.05502088,0.5746529,0.833865
-0.05372866,0.5734821,0.8365259
-0.0506916,0.5743582,0.8364392
-0.04723359,0.5716487,0.8350957
-0.04955571,0.5737762,0.8308274
-0.0558331,0.5788451,0.8253607
-0.05919836,0.5794611,0.8227115
-0.05737145,0.5809342,0.825727
-0.05375125,0.5800096,0.8301146
-0.05449976,0.5783542,0.8326957
-0.05402484,0.5805214,0.832881
-0.05169548,0.5810275,0.8306269
-0.05511129,0.5805815,0.8311799
-0.0561172,0.5787241,0.8299961
-0.05315497,0.5749542,0.8277887
-0.05257143,0.5740779,0.8298658
-0.0524217,0.5737408,0.8281818
-0.05315039,0.5721437,0.8269802
-0.0533226,0.5728673,0.8284388
-0.0550616,0.5759371,0.8273463
-0.05829022,0.5786588,0.8283111
-0.05689585,0.5782,0.8296467
-0.05637011,0.5761978,0.8308118
-0.05768254,0.5778324,0.8315083
-0.05755733,0.5809909,0.8315927
-0.05844489,0.5819054,0.8340766
-0.05749033,0.5797438,0.8327709
-0.05542386,0.5763275,0.8301069
-0.05538844,0.5772641,0.8284134
-0.05545905,0.5769866,0.8226018
-0.05467378,0.573903,0.8214008
-0.05385354,0.5769077,0.8273597
-0.05408481,0.5789906,0.8324231
-0.05473456,0.5777554,0.8344599
-0.05618289,0.5805098,0.8329587
-0.05926884,0.5827197,0.8309528
-0.06056798,0.5808768,0.8305336
-0.05943569,0.5781471,0.8300322
-0.05918576,0.5778953,0.8298597
-0.05789219,0.5781967,0.8285013
-0.05405012,0.5780006,0.8251457
-0.05164068,0.5811636,0.8211094
-0.05134313,0.5826388,0.8206543
-0.05229651,0.5788534,0.8262655
-0.05419106,0.5766919,0.8266542
-0.0544579,0.577896,0.8235061
-0.05414264,0.5781567,0.8295602
-0.05496396,0.5768963,0.8359064
-0.05492701,0.5751879,0.8382273
-0.05397153,0.5736378,0.8369798
-0.05443199,0.5766538,0.8277546
-0.05711102,0.5808618,0.8212001
-0.05912508,0.5783494,0.8225737
-0.05830442,0.5764875,0.8290207
-0.05684595,0.5785443,0.8339196
-0.05579827,0.5777374,0.8298383
-0.05437098,0.5771926,0.826179
-0.05396265,0.5768306,0.8244783
-0.05520887,0.5731384,0.8218144
-0.05588794,0.5716854,0.82592
-0.0551631,0.5742485,0.832666
-0.05368191,0.5768894,0.8346445
-0.05228685,0.5776212,0.8342334
-0.05329002,0.578188,0.8332845
-0.05708524,0.5807632,0.830892
-0.06102236,0.582237,0.8302724
-0.06202697,0.5803887,0.8316005
-0.06067305,0.5777244,0.8305082
-0.06094802,0.5766718,0.8278719
-0.06135528,0.5762848,0.8249656
-0.05917305,0.5760591,0.8248285
-0.05594956,0.5771377,0.826354
-0.05312681,0.5777115,0.8261655
-0.05369186,0.5780366,0.8269989
-0.05474855,0.5779142,0.8270963
-0.0523873,0.5776492,0.8277882
-0.0534122,0.5800142,0.8279176
-0.05702607,0.5806457,0.8243314
-0.05755366,0.578682,0.8235269
-0.05831517,0.5769707,0.8252266
-0.05919647,0.5758904,0.8270411
-0.05976014,0.5772787,0.8268876
-0.06148179,0.5795948,0.8254464
-0.06029212,0.5811388,0.8270221
-0.05685392,0.5789271,0.8267432
-0.05478581,0.576383,0.8280171
-0.05096504,0.5783635,0.8321891
-0.04690586,0.5779233,0.8320054
-0.04745568,0.5772565,0.8310036
-0.04836871,0.5783449,0.8302823
-0.04940973,0.5775623,0.8308438
-0.05402048,0.5784405,0.833733
-0.05719487,0.5777789,0.8356648
-0.05831091,0.5753088,0.8378604
-0.05808919,0.5741392,0.837799
-0.05511829,0.5719222,0.8320619
-0.05529943,0.5719581,0.8264843
-0.05803733,0.5751238,0.8320368
-0.06113481,0.5762158,0.8404132
-0.06446959,0.5761509,0.837743
-0.0590517,0.5783491,0.8368307
-0.05203209,0.5784157,0.8371273
-0.0531957,0.5768485,0.8323555
-0.05186452,0.5782856,0.8329417
-0.05119507,0.5784176,0.8294411
-0.05592148,0.5799456,0.8221018
-0.05608027,0.5833343,0.8223474
-0.05532512,0.5817375,0.8257273
-0.05778404,0.5804429,0.8329271
-0.05865963,0.5804925,0.8362176
-0.05852851,0.5771636,0.8313202
-0.05811544,0.5711531,0.8286303
-0.05863086,0.5667085,0.8284546
-0.06041264,0.5716304,0.8276659
-0.06098909,0.5788401,0.8244838
-0.05967826,0.5784606,0.8224144
-0.05710426,0.579007,0.8232252
-0.05628982,0.5808512,0.8263839
-0.05577952,0.5769275,0.8355218
-0.05455636,0.5735415,0.8392667
-0.05520895,0.5750884,0.8332947
-0.05380801,0.576763,0.8307781
-0.05296013,0.5771207,0.8338061
-0.05549071,0.578085,0.8352264
-0.05748989,0.5777028,0.8306613
-0.06048131,0.5756941,0.8269298
-0.06193302,0.5756294,0.8291558
-0.06217125,0.5765011,0.8323894
-0.06204245,0.5766156,0.8336159
-0.05875553,0.5764952,0.8307161
-0.05953328,0.577093,0.827887
-0.06212258,0.5783245,0.8292306
-0.06079203,0.577741,0.8296637
-0.06005788,0.577668,0.8282379
-0.05919767,0.5790224,0.8265357
-0.05763367,0.5790253,0.8243798
-0.0557435,0.5784333,0.8244492
-0.05503223,0.5775824,0.8259038
-0.05724807,0.5784743,0.8263662
-0.05914727,0.5793444,0.8299408
-0.06103571,0.575897,0.8333033
-0.06115376,0.5722684,0.8299884
-0.05782533,0.5721449,0.8279616
-0.05535338,0.5750961,0.829634
-0.05489562,0.5772491,0.8292621
-0.05497448,0.5754797,0.8292726
-0.05415468,0.5743081,0.8311122
-0.05498625,0.5753921,0.8324686
-0.05813577,0.5760468,0.8326445
-0.05875263,0.5766141,0.8342468
-0.05821549,0.5776711,0.8369674
-0.05835102,0.5786111,0.83557
-0.05825208,0.5786177,0.8336467
-0.0581131,0.5775671,0.8342133
-0.05644714,0.5775871,0.8304944
-0.055002,0.5790749,0.8259491
-0.05492234,0.5793315,0.8275896
-0.05312783,0.5789008,0.8283839
-0.05049973,0.5778451,0.8253217
-0.05147107,0.5746915,0.8255741
-0.05577227,0.5727758,0.8305171
-0.06043924,0.5736908,0.8337054
-0.06400561,0.5749102,0.8277503
-0.06292073,0.5754407,0.8216525
-0.06110685,0.5774722,0.8297483
-0.06244923,0.5819764,0.8369926
-0.06081497,0.5838099,0.8323991
-0.059864,0.5798344,0.8296081
-0.05940346,0.5761051,0.8240247
-0.05551695,0.5777041,0.8154459
-0.05593126,0.5787037,0.8216024
-0.05443418,0.5770025,0.8288184
-0.0497513,0.5779554,0.8244945
-0.05326135,0.5781248,0.8273439
-0.05680898,0.5768751,0.8351304
-0.05624689,0.5764143,0.8347943
-0.05843355,0.574326,0.8322638
-0.06071541,0.5749824,0.8284475
-0.06134031,0.577524,0.8245213
-0.06133343,0.5779809,0.8240276
-0.06084024,0.5788077,0.8238005
-0.06081098,0.5785366,0.8266008
-0.05947603,0.5781848,0.8308911
-0.05757706,0.5785897,0.8324613
-0.05824548,0.5775827,0.8342167
-0.0584099,0.5775459,0.8341897
-0.05585738,0.5780216,0.831437
-0.05329632,0.5776907,0.8310684
-0.05303851,0.5782818,0.8327636
-0.05761251,0.5805088,0.8318851
-0.06322294,0.5822177,0.8312013
-0.0625418,0.5795533,0.8315529
-0.05819715,0.5765521,0.8283179
-0.05607363,0.5786478,0.8251001
-0.05652692,0.5801576,0.823433
-0.05657258,0.5784955,0.8250856
-0.05507826,0.5783703,0.8306476
-0.05562225,0.5785984,0.83157
-0.05824631,0.578249,0.8320378
-0.06032294,0.5787102,0.8351233
-0.06149212,0.5781783,0.8349228
-0.05869336,0.5776854,0.834401
-0.0536655,0.5777396,0.83314
-0.05232747,0.5776817,0.8301649
-0.05439566,0.5779954,0.8304628
-0.05653936,0.5774246,0.8348968
-0.05564064,0.5767084,0.8352621
-0.05523394,0.5753997,0.8281139
-0.05813984,0.5741845,0.8248375
-0.05992728,0.5744147,0.8263714
-0.0617718,0.5735577,0.8255708
-0.06281943,0.5741616,0.8240051
-0.06052178,0.5761053,0.8242334
-0.05895902,0.5766038,0.827378
-0.0586882,0.5784905,0.8285703
-0.05894495,0.5800562,0.8277031
-0.06078869,0.5801352,0.8297147
-0.06297025,0.5788941,0.8310815
-0.06021004,0.5751448,0.8303545
-0.05287841,0.5743198,0.8290216
-0.05001964,0.5771611,0.8297483
-0.05188093,0.580109,0.8321081
-0.05470155,0.5826348,0.8317369
-0.05716438,0.5806222,0.8323844
-0.05739878,0.5776858,0.8341866
-0.05773756,0.5793249,0.8325233
-0.0586899,0.5783968,0.8300939
-0.05941662,0.5750549,0.8306542
-0.0598552,0.5747616,0.8338582
-0.05972741,0.5753105,0.8346438
-0.05977626,0.5768689,0.8332305
-0.05959613,0.5783913,0.8350471
-0.05927744,0.5777925,0.8342517
-0.05672176,0.5775633,0.8273169
-0.05278652,0.5780718,0.8228428
-0.0528367,0.5786959,0.8236918
-0.0566072,0.5791878,0.8263507
-0.05956007,0.5780533,0.8275601
-0.05835994,0.5755525,0.8300689
-0.05686593,0.5743669,0.8337756
-0.05772947,0.5752835,0.8322128
-0.05666426,0.5760753,0.8339262
-0.05504422,0.5764721,0.8394986
-0.05573384,0.5763987,0.8400347
-0.05760593,0.575658,0.8415207
-0.05938469,0.5765665,0.8391427
-0.06105524,0.5782968,0.8320315
-0.0627375,0.5780712,0.8307595
-0.06099272,0.5775331,0.8303925
-0.05747598,0.5788098,0.8281822
-0.05702626,0.5796006,0.8262372
-0.05625229,0.5790055,0.8248044
-0.05501299,0.5791382,0.8270397
-0.05663682,0.5790872,0.8313619
-0.05744271,0.5781723,0.8329282
-0.05670537,0.5775799,0.8307583
-0.05715417,0.5776325,0.8270868
-0.05807324,0.5779857,0.8232721
-0.05942488,0.5775304,0.8234394
-0.06052483,0.5767898,0.8262983
-0.06135782,0.5764653,0.8252091
-0.06296785,0.577036,0.8261411
-0.06285666,0.5786585,0.8296431
-0.06198328,0.5796263,0.8296779
-0.06237713,0.5807362,0.8298407
-0.06064008,0.5809248,0.8285434
-0.0576547,0.5789391,0.8270613
-0.05665048,0.5781251,0.8277469
-0.05649354,0.5774957,0.82572
-0.05644019,0.5763849,0.8264677
-0.05664248,0.5756382,0.8300443
-0.05824119,0.5744106,0.8297104
-0.05939441,0.5753738,0.8265969
-0.05769988,0.5771741,0.8232354
-0.05827632,0.5778731,0.8291951
-0.06032918,0.5784304,0.837659
-0.06110989,0.578265,0.8332254
-0.06336968,0.5790728,0.8290069
-0.06188769,0.5778518,0.829769
-0.05717779,0.5753636,0.8293088
-0.05494326,0.5774518,0.831081
-0.05474331,0.5788642,0.8299223
-0.05602765,0.5791177,0.8281297
-0.05374501,0.5812345,0.8301159
-0.05189117,0.5800996,0.8310357
-0.05557664,0.5762822,0.8333348
-0.0583199,0.5731509,0.8350569
-0.06152028,0.5720085,0.8343872
-0.06300026,0.5725097,0.8344539
-0.05915175,0.5719024,0.8312972
-0.05568008,0.5712022,0.8266783
-0.05494582,0.5717324,0.827455
-0.05718263,0.5754912,0.8316099
-0.05952175,0.5820973,0.8312354
-0.06170626,0.5833022,0.8274699
-0.06349956,0.5809868,0.8276693
-0.06180622,0.5819452,0.8280503
-0.06050912,0.580675,0.8282132
-0.05958965,0.5762428,0.8327106
-0.05896479,0.5741245,0.8349552
-0.0594412,0.5747002,0.8306907
-0.05784138,0.5756098,0.8257374
-0.05802657,0.5747591,0.8274998
-0.05894855,0.574762,0.8307573
-0.05786458,0.575639,0.8309666
-0.05846209,0.5755292,0.8343832
-0.05867939,0.5769253,0.8334563
-0.05892667,0.5775779,0.8282371
-0.06043665,0.577695,0.8277651
-0.0611334,0.5793506,0.8277173
-0.06382522,0.5800304,0.8306963
-0.06626166,0.5805127,0.8323557
-0.06420044,0.5786417,0.8269033
-0.06202136,0.5753205,0.823768
-0.06057313,0.5769407,0.8248952
-0.05550907,0.5811157,0.8276163
-0.051482,0.582471,0.8281333
-0.05531147,0.5790154,0.827606
-0.05973047,0.5755182,0.8291101
-0.05826976,0.5761687,0.8294012
-0.05774993,0.5758077,0.8311925
-0.05929488,0.5744625,0.8323289
-0.06001525,0.5746705,0.8305288
-0.06264495,0.5739256,0.8286318
-0.06418214,0.5742332,0.8261868
-0.06353477,0.5771674,0.8243836
-0.06328193,0.5780981,0.8227099
-0.05887056,0.5771534,0.8279035
-0.05265971,0.5784705,0.8368929
-0.05193624,0.5797727,0.8353969
-0.05450455,0.5805641,0.8332896
-0.056392,0.5810744,0.83587
-0.05738681,0.5790827,0.8350635
-0.05843966,0.578727,0.8338981
-0.06011937,0.5786486,0.8315949
-0.0614128,0.5767382,0.8292535
-0.0595665,0.5765419,0.8309341
-0.05718954,0.576386,0.8305877
-0.05833752,0.5781693,0.8281479
-0.05787655,0.5801486,0.8276575
-0.05612917,0.5788185,0.8274976
-0.05734514,0.5794543,0.8276119
-0.05801138,0.5808293,0.8257646
-0.05885674,0.580624,0.8223196
-0.06133883,0.5795914,0.821789
-0.06283413,0.5786223,0.822304
-0.06167001,0.5797958,0.8226673
-0.05852635,0.5806088,0.8239967
-0.05780129,0.5804886,0.825593
-0.058612,0.5789586,0.8262985
-0.05822854,0.5773764,0.8261162
-0.05801185,0.5782634,0.8266955
-0.05655879,0.5775775,0.8263951
-0.05529881,0.5773273,0.8260711
-0.05724073,0.5774415,0.8271473
-0.0597133,0.5756122,0.8281072
-0.06109734,0.5766618,0.8307655
-0.06263537,0.5776427,0.8325326
-0.06177001,0.5773885,0.8337299
-0.05750669,0.5773568,0.8374086
-0.05625359,0.5764813,0.837796
-0.05817449,0.5798821,0.8344379
-0.05856563,0.5834951,0.8298321
-0.05805919,0.5819157,0.8261873
-0.05637733,0.5809905,0.8276478
-0.05502881,0.580587,0.8286384
-0.05569858,0.5782427,0.8271314
-0.05660058,0.57693,0.8275247
-0.0572088,0.5764999,0.8262855
-0.05693821,0.5758911,0.8244272
-0.05683168,0.5766213,0.8268066
-0.05707007,0.5766101,0.8287359
-0.05702255,0.5764686,0.8281551
-0.05843819,0.5794327,0.8301718
-0.06126311,0.5813021,0.8330534
-0.06304384,0.5803006,0.8321711
-0.0607144,0.5785042,0.8303448
-0.05713794,0.5772299,0.8277509
-0.05559472,0.5783494,0.8227698
-0.05380202,0.5809692,0.8224591
-0.05448631,0.5840597,0.8261707
-0.0567716,0.5840594,0.8293645
-0.05622525,0.5816411,0.8334586
-0.05700662,0.582276,0.8276952
-0.05812672,0.5812264,0.8179316
-0.05662646,0.5777085,0.8228604
-0.05703537,0.5773121,0.8272298
-0.05870591,0.5768658,0.826193
-0.05848876,0.5751056,0.8302866
-0.05717039,0.5747439,0.8307711
-0.05712093,0.5750139,0.8321087
-0.06016944,0.575106,0.8345365
-0.06369143,0.5754785,0.8305698
-0.0644817,0.5779869,0.8285753
-0.06256985,0.5818831,0.8247894
-0.0608806,0.5820044,0.8226531
-0.05991502,0.5774445,0.8271877
-0.05749236,0.5725684,0.8256062
-0.05656008,0.5720961,0.8255144
-0.05793154,0.5772045,0.8282157
-0.0585034,0.5816689,0.8260639
-0.05754191,0.5806172,0.8287837
-0.05655249,0.5780596,0.8312633
-0.05881372,0.5775543,0.8307821
-0.06332405,0.5776984,0.8296444
-0.0660641,0.5778492,0.8249476
-0.06368469,0.5780327,0.828563
-0.05899627,0.5783369,0.8330521
-0.05853362,0.5788305,0.8296113
-0.05851728,0.5783433,0.831698
-0.05779745,0.5781089,0.8343405
-0.05883088,0.5780759,0.8326759
-0.05779817,0.5772971,0.8309916
-0.05619104,0.5775858,0.8296025
-0.0546767,0.5762234,0.8308209
-0.05491324,0.5740423,0.8298868
-0.06009357,0.5751076,0.8283037
-0.06304733,0.5756977,0.8296229
-0.0615403,0.5764168,0.828741
-0.05959485,0.5785259,0.827212
-0.05839365,0.5779689,0.8269959
-0.05854672,0.5772762,0.8303976
-0.05923612,0.5784532,0.8347367
-0.06131295,0.5797363,0.8309396
-0.06341118,0.581985,0.8271631
-0.06407312,0.5835254,0.828827
-0.0636981,0.583026,0.825187
-0.05995055,0.5823264,0.8201409
-0.05448852,0.5806954,0.8224661
-0.05171515,0.5790741,0.8248719
-0.05462981,0.5797205,0.82386
-0.05889913,0.5817801,0.8236745
-0.05875641,0.5834206,0.8231119
-0.05990592,0.580225,0.8217351
-0.06126884,0.5758656,0.8214757
-0.05739034,0.5777967,0.8251534
-0.05430586,0.5787221,0.8316243
-0.05546099,0.5772645,0.8324515
-0.05738194,0.5798779,0.8303294
-0.05792673,0.5813111,0.8288845
-0.0593759,0.580322,0.8242752
-0.060441,0.5803514,0.8237535
-0.05907485,0.5797006,0.8253941
-0.05872724,0.579263,0.8230496
-0.05740621,0.5808277,0.8251729
-0.05600436,0.5826728,0.827713
-0.05595887,0.5821325,0.825889
-0.05253591,0.5813927,0.8255779
-0.05046159,0.5821528,0.8231194
-0.05262175,0.5803119,0.8201911
-0.05439827,0.5764579,0.8241226
-0.0552371,0.5743079,0.8277422
-0.05569504,0.5756265,0.8236967
-0.05626028,0.578863,0.8211748
-0.05803533,0.580506,0.8268293
-0.06038982,0.5822359,0.8314407
-0.05930948,0.5814527,0.8302
-0.0573797,0.5775477,0.8279691
-0.05978003,0.5776975,0.8269012
-0.06100916,0.578942,0.8250399
-0.05950315,0.5789374,0.8250358
-0.05693814,0.5787212,0.8319995
-0.05347347,0.5774263,0.8365598
-0.05380337,0.5795705,0.8327707
-0.05478139,0.5811969,0.8307793
-0.0533806,0.5784514,0.8321655
-0.05285605,0.5769771,0.832495
-0.05311221,0.5766455,0.8325008
-0.05605282,0.5751793,0.8335878
-0.05833134,0.5726895,0.8335828
-0.0566009,0.5723489,0.8318567
-0.05754556,0.5761715,0.8319694
-0.05920795,0.5801213,0.8319582
-0.05797272,0.5816191,0.8312102
-0.05826087,0.5817997,0.829253
-0.05859853,0.5822967,0.8246782
-0.05753867,0.5818989,0.823364
-0.05580252,0.5816118,0.8236916
-0.05386481,0.5823957,0.8224258
-0.05644842,0.5814954,0.8221527
-0.05989301,0.579931,0.8222406
-0.05824386,0.575234,0.8232444
-0.05710405,0.5708014,0.823932
-0.05613409,0.5756425,0.8244138
-0.05222691,0.5799551,0.8289872
-0.05235725,0.577393,0.8363464
-0.05562509,0.5769129,0.8387346
-0.05712598,0.5777987,0.8328758
-0.05999337,0.5767539,0.8281236
-0.06183998,0.5777192,0.8300373
-0.05996423,0.5785166,0.8327904
-0.05796111,0.5774991,0.8324741
-0.05613803,0.5796933,0.8311884
-0.05423393,0.5814356,0.8321756
-0.05352901,0.5802583,0.8319362
-0.05311043,0.5805291,0.8294006
-0.05085441,0.5804781,0.8281502
-0.04960535,0.5795689,0.8281179
-0.05288542,0.5791683,0.8322921
-0.05561934,0.5798419,0.8363183
-0.05607776,0.580608,0.8329443
-0.05817496,0.5778171,0.8278805
-0.06015601,0.5758459,0.8252607
-0.06042629,0.5790498,0.8252672
-0.06039568,0.5819935,0.8263702
-0.05953498,0.5814941,0.8267322
-0.0583844,0.5815437,0.8292416
-0.05786098,0.5825941,0.8316284
-0.05521772,0.5816513,0.8311429
-0.05146455,0.58157,0.8302547
-0.05147686,0.5816923,0.8294564
-0.05515373,0.5805828,0.8290274
-0.05802422,0.5806624,0.8294876
-0.05627928,0.5771526,0.8308013
-0.05465635,0.5735441,0.8318169
-0.05743717,0.5769418,0.8307918
-0.06006145,0.579025,0.8290368
-0.06160427,0.5773243,0.8275183
-0.06159833,0.5775999,0.8275093
-0.05989798,0.5781303,0.8297318
-0.05871812,0.5773846,0.8296943
-0.0563184,0.5765232,0.8279125
-0.05618401,0.5744762,0.8268224
-0.05724727,0.5727965,0.8243067
-0.05290442,0.5736882,0.824309
-0.05061211,0.5748413,0.8259739
-0.05424317,0.5777317,0.8250659
-0.05734869,0.5822459,0.8275031
-0.05966075,0.5818625,0.8298111
-0.06329771,0.5801176,0.8253949
-0.065118,0.5808871,0.8226733
-0.06247254,0.5794642,0.8262571
-0.06086627,0.5782656,0.8292502
-0.05861311,0.5774313,0.828035
-0.05286819,0.5738492,0.8288595
-0.05389345,0.5733861,0.8310923
-0.05901787,0.5766662,0.8265752
-0.06282948,0.5785513,0.8215061
-0.06669594,0.5780383,0.8218934
-0.06324325,0.5773717,0.8242998
-0.0580419,0.5789696,0.831126
-0.05865738,0.5799359,0.8387256
-0.05995107,0.5806633,0.8374476
-0.06117631,0.5823038,0.834406
-0.05886195,0.5799499,0.8360082
-0.05533717,0.5763736,0.8329895
-0.05713848,0.5759724,0.8306617
-0.05719968,0.5763167,0.8334243
-0.0541265,0.5756242,0.8312986
-0.05217968,0.5747568,0.8314376
-0.05190226,0.5760096,0.833141
-0.05778262,0.5778321,0.8308075
-0.06457156,0.5779301,0.8319284
-0.06413918,0.5777459,0.8295064
-0.06387813,0.5777383,0.8256573
-0.06628324,0.5783347,0.8254691
-0.06530119,0.5806649,0.8221142
-0.0639376,0.583417,0.822323
-0.06125055,0.58309,0.8251505
-0.05303236,0.5807727,0.8262468
-0.0491512,0.5799582,0.8293052
-0.0519755,0.5782031,0.8301271
-0.05239261,0.5768341,0.8300459
-0.05363868,0.5782698,0.8335302
-0.05755296,0.5778866,0.8350478
-0.05759277,0.5769752,0.8300903
-0.05604367,0.5766118,0.8263117
-0.05667256,0.5751319,0.8295394
-0.05725885,0.5771027,0.8315338
-0.05838959,0.5807303,0.8282472
-0.05905903,0.5819814,0.8259412
-0.05773457,0.5808007,0.8266116
-0.05835958,0.5780193,0.8275172
-0.05788781,0.5787663,0.828658
-0.05312852,0.5792002,0.8284375
-0.04965678,0.5770606,0.8254872
-0.0504453,0.5796978,0.8264464
-0.05427302,0.5814366,0.8358909
-0.05579917,0.5790282,0.8441714
-0.05504087,0.578042,0.838371
-0.05492241,0.5775015,0.8308411
-0.05274979,0.5777582,0.835526
-0.05229729,0.5774651,0.8352726
-0.05326508,0.5748364,0.8283544
-0.05278173,0.5733304,0.8271634
-0.05562338,0.5753831,0.8254922
-0.06059983,0.5792772,0.8250148
-0.06388222,0.5797569,0.8270881
-0.06289344,0.5786935,0.8280123
-0.06087935,0.5797641,0.83011
-0.06055303,0.5809037,0.8323692
-0.0575005,0.5816896,0.8350269
-0.05713925,0.5787517,0.8310946
-0.05745736,0.5748774,0.8248536
-0.05248827,0.5771957,0.8284612
-0.05178309,0.5789177,0.8298475
-0.05267663,0.5770175,0.8294305
-0.05082081,0.5770048,0.8331615
-0.05356892,0.5775608,0.8316432
-0.05961657,0.5786674,0.8287625
-0.06399123,0.5809676,0.8281515
-0.06237551,0.5815916,0.8282589
-0.05939887,0.5823446,0.8287284
-0.06173998,0.5842506,0.8272744
-0.06157421,0.58561,0.8266637
-0.05984123,0.5858445,0.8266334
-0.05986996,0.5839178,0.8269592
-0.05596834,0.5825388,0.829034
-0.05261151,0.5815263,0.8313846
-0.05165783,0.5786275,0.8334084
-0.05317278,0.5779145,0.8300942
-0.05725259,0.5802487,0.8236168
-0.05660755,0.5820029,0.8225973
-0.0588781,0.578017,0.8229284
-0.06475167,0.572969,0.8232485
-0.06171973,0.5771962,0.8260259
-0.05955233,0.5812932,0.8254625
-0.06212423,0.5792706,0.8260871
-0.06093002,0.5763783,0.8327393
-0.06039459,0.5723981,0.8355469
-0.05945865,0.5738886,0.8311373
-0.055665,0.5774301,0.8266977
-0.05488029,0.5751945,0.8283831
-0.05605306,0.5754672,0.8313784
-0.05646181,0.5770963,0.8302122
-0.05709637,0.5759418,0.830692
-0.05712964,0.5755349,0.8318157
-0.05691471,0.5749523,0.8318937
-0.05789557,0.5758719,0.8338806
-0.05833251,0.5778938,0.836297
-0.05652638,0.5779125,0.8401664
-0.05488312,0.5777449,0.8407742
-0.05562332,0.5773944,0.8368186
-0.05684211,0.5759865,0.8355611
-0.05715602,0.5754123,0.8345026
-0.05790902,0.5793336,0.8290675
-0.058603,0.5846969,0.8219749
-0.05833895,0.5835559,0.8230045
-0.05825214,0.5797774,0.8302463
-0.05766076,0.5770529,0.8323188
-0.05476179,0.5737182,0.8340472
-0.05257361,0.5749246,0.8348014
-0.05679994,0.5780573,0.8304254
-0.06195221,0.5784644,0.8275149
-0.0592847,0.579527,0.8269955
-0.0558352,0.5780807,0.8282976
-0.05574865,0.5751092,0.8279984
-0.05533729,0.5751125,0.8270461
-0.05846198,0.5761786,0.8288705
-0.06367354,0.5795008,0.8292294
-0.06535595,0.5816361,0.8305597
-0.06141447,0.5802844,0.8295328
-0.05601822,0.5804099,0.8261953
-0.05813893,0.5809138,0.8287198
-0.0596144,0.5813575,0.8312465
-0.05614895,0.5819025,0.8334964
-0.05673855,0.5802102,0.8338232
-0.05545804,0.5784942,0.8276988
-0.05338282,0.5789803,0.8248147
-0.05671237,0.5796491,0.8249169
-0.05931939,0.5788918,0.8241332
-0.06046316,0.5792619,0.8261584
-0.06116926,0.5803752,0.8306492
-0.06364502,0.5805034,0.8347689
-0.06630638,0.5802918,0.833625
-0.06281343,0.5775367,0.8301936
-0.0587332,0.5745777,0.8293489
-0.05787507,0.5748684,0.8274339
-0.05813981,0.5762994,0.8266401
-0.05874498,0.577603,0.8269889
-0.05775556,0.5779768,0.8249164
-0.05664857,0.5777939,0.8250808
-0.05616297,0.5777134,0.8248649
-0.05762983,0.5777526,0.8227918
-0.06207965,0.5778968,0.8256116
-0.06484814,0.5776464,0.8273086
-0.06378919,0.5776584,0.8249493
-0.06023654,0.5769318,0.8248128
-0.05666161,0.5759895,0.8259324
-0.05363365,0.576246,0.8298068
-0.007120817,0.6166866,0.7944036
-0.007247514,0.6135619,0.7984386
-0.008474142,0.6190422,0.8062615
-0.009862279,0.624888,0.8114912
-0.007450684,0.6216954,0.8087585
-0.00445326,0.6203522,0.804861
-0.00920316,0.6204349,0.7967098
-0.01466785,0.6187941,0.7964819
-0.01533133,0.6192221,0.7998655
-0.01168399,0.618939,0.7917205
-0.007195456,0.6169101,0.7908845
-0.007801063,0.6150119,0.7958216
-0.00803035,0.6116065,0.7982897
-0.00508648,0.6104791,0.8038335
-0.004360969,0.6148465,0.8053306
-0.004221053,0.6189659,0.8046892
-0.004575136,0.6202571,0.8020843
-0.008367073,0.6204606,0.7991185
-0.01253158,0.6206422,0.8011011
-0.01263833,0.6212429,0.8023959
-0.008148237,0.6203186,0.8036213
-0.003907275,0.6188428,0.798711
-0.003964533,0.617896,0.7918194
-0.006252327,0.6178833,0.7971898
-0.007373776,0.6203438,0.8008173
-0.006075081,0.6213268,0.7977054
-0.005330134,0.6206814,0.7984085
-0.007839935,0.6209158,0.7993486
-0.01081897,0.6198061,0.7991358
-0.01166732,0.6164858,0.8004678
-0.01102049,0.6125289,0.8021101
-0.01107792,0.6137327,0.805679
-0.01205113,0.6180316,0.8092994
-0.01161681,0.6192166,0.8051989
-0.009634623,0.6208189,0.8004438
-0.00711955,0.6212298,0.8032043
-0.005060224,0.6203541,0.8030184
-0.005210244,0.6210527,0.799157
-0.006738123,0.6195851,0.798301
-0.006538641,0.6183613,0.7983097
-0.005735042,0.6186891,0.79925
-0.006704414,0.6187512,0.8013722
-0.00723543,0.619143,0.8060356
-0.007944671,0.6191915,0.8099329
-0.009681771,0.6198169,0.8064933
-0.00952271,0.6190651,0.8040804
-0.00776407,0.6172962,0.806386
-0.005307546,0.6167835,0.8069049
-0.003906109,0.6170318,0.8087766
-0.003493319,0.6187444,0.8116235
-0.002230657,0.6182315,0.8092737
-0.003109904,0.6175586,0.8010416
-0.005835745,0.6197736,0.7933632
-0.01069178,0.6208652,0.7963727
-0.01698895,0.6232159,0.8014425
-0.0170723,0.6234478,0.7977356
-0.01329424,0.6196069,0.7978769
-0.01188935,0.6194225,0.8010179
-0.01227096,0.6196363,0.7990421
-0.01259555,0.6168138,0.7993551
-0.01053241,0.6144279,0.7999991
-0.008646056,0.6133438,0.8041311
-0.0080657,0.613826,0.8120946
-0.006533988,0.6147568,0.8097608
-0.006963738,0.6165244,0.8049546
-0.009542078,0.6197464,0.8030269
-0.01149765,0.6202227,0.7988613
-0.01175431,0.6182007,0.7986461
-0.01095659,0.6169427,0.798013
-0.01281869,0.6147479,0.7952951
-0.01525112,0.6150328,0.7968555
-0.01492692,0.6189283,0.800711
-0.01441989,0.6195105,0.8055462
-0.01283126,0.617698,0.8060155
-0.01172586,0.6161281,0.8015922
-0.0126452,0.6158344,0.7979952
-0.01048004,0.6156604,0.793391
-0.007817321,0.6134565,0.7938295
-0.007542815,0.6162091,0.7979763
-0.007728963,0.6196431,0.7970351
-0.009508978,0.6167043,0.8039421
-0.01005349,0.6160176,0.8135835
-0.007857218,0.6164094,0.8089549
-0.004514671,0.6129131,0.8061584
-0.003060721,0.6109448,0.8093915
-0.009666903,0.615154,0.8049473
-0.01680631,0.6202475,0.7972691
-0.01411598,0.6181984,0.7927492
-0.01058628,0.6171542,0.794511
-0.009793687,0.6209054,0.8003568
-0.005577459,0.6201925,0.8017614
-0.00503585,0.6162,0.799736
-0.006909819,0.6131137,0.7988162
-0.005410386,0.6150048,0.8026388
-0.01044382,0.6197677,0.8072074
-0.0162352,0.6199131,0.8029547
-0.01498896,0.6216234,0.7995419
-0.0161624,0.6235555,0.8030615
-0.01876309,0.6209611,0.8027294
-0.01767506,0.6205671,0.7996395
-0.01267791,0.61901,0.7980542
-0.007922173,0.6169387,0.7988916
-0.007613594,0.6177957,0.8030228
-0.007668598,0.6162745,0.8056694
-0.006846246,0.6140148,0.8052019
-0.00696279,0.6119287,0.8035856
-0.008945402,0.6132424,0.8042234
-0.01113542,0.6179725,0.8066181
-0.01310648,0.6183184,0.8063039
-0.01632695,0.6178819,0.8036191
-0.01578535,0.6174744,0.8007491
-0.0143507,0.6181232,0.8037444
-0.01582688,0.6249708,0.8094195
-0.01508901,0.6282781,0.8075699
-0.01353857,0.6210152,0.8026314
-0.01127933,0.6136235,0.7977421
-0.008602424,0.6171099,0.7971648
-0.009620571,0.6204329,0.8027435
-0.01035157,0.6160028,0.8019854
-0.009242575,0.6154186,0.8000644
-0.0101543,0.6149526,0.8035363
-0.01174515,0.6168088,0.806024
-0.0127285,0.6236345,0.8087258
-0.01291663,0.6205762,0.8046706
-0.01207303,0.6177776,0.7984274
-0.01256014,0.6208897,0.8021176
-0.01278358,0.6204175,0.8036259
-0.01229012,0.6209502,0.8037436
-0.01364831,0.6189349,0.8077198
-0.01415044,0.6156281,0.8063752
-0.01290711,0.6151942,0.8050824
-0.009313667,0.6131203,0.8053516
-0.004568772,0.6142582,0.8036977
-0.004866489,0.617364,0.8055754
-0.006985135,0.6190006,0.8065618
-0.008214721,0.6191043,0.8047691
-0.01217166,0.6154645,0.8056452
-0.01410204,0.6148854,0.8050787
-0.01411511,0.6180952,0.7997034
-0.01846457,0.6210495,0.7930327
-0.02057856,0.6226154,0.791802
-0.01673104,0.6182231,0.8022541
-0.01414866,0.6132635,0.8134511
-0.01322386,0.6136415,0.8107993
-0.011583,0.6151321,0.8023353
-0.00913684,0.6155222,0.7985795
-0.007333311,0.6152264,0.7998663
-0.008715261,0.6153946,0.8037246
-0.01033733,0.6162518,0.8046894
-0.0130401,0.6168773,0.8041725
-0.01679885,0.617349,0.805188
-0.01548174,0.6191176,0.80565
-0.01433427,0.6215763,0.8050715
-0.01601561,0.6201459,0.8021709
-0.01546581,0.6174965,0.8002436
-0.01677574,0.6184904,0.8012226
-0.01868507,0.6199948,0.7993163
-0.01615858,0.6211136,0.7974208
-0.01440125,0.6212983,0.7986992
-0.01468358,0.6202834,0.7971301
-0.01179585,0.6211977,0.7950836
-0.007326987,0.6217654,0.798486
-0.006761589,0.6211983,0.8031476
-0.007715906,0.6201088,0.8049865
-0.007540434,0.6159404,0.8044407
-0.01023628,0.6127179,0.8030197
-0.01421087,0.6140749,0.8017771
-0.0170653,0.617568,0.7988286
-0.01933228,0.6204981,0.7965567
-0.01922535,0.6213698,0.7962157
-0.01795422,0.6206962,0.7961257
-0.0143536,0.6197815,0.7987625
-0.01091296,0.6206377,0.7993289
-0.01266228,0.6228676,0.7979515
-0.01273216,0.6236404,0.8011041
-0.00956255,0.6207848,0.8055776
-0.006630586,0.6163393,0.8088374
-0.003804535,0.6157304,0.8044709
-0.004715435,0.615392,0.7966367
-0.006337619,0.6136181,0.7980386
-0.006587668,0.6164189,0.7978663
-0.01238243,0.6200567,0.795192
-0.02096958,0.6216303,0.8006128
-0.0225531,0.6239531,0.8043599
-0.01963369,0.623563,0.8017136
-0.01916423,0.6211143,0.7993515
-0.01553238,0.6215175,0.7991298
-0.008305128,0.6193539,0.8000186
-0.006402352,0.6146655,0.8052933
-0.007280405,0.6156462,0.8121912
-0.007749112,0.615868,0.8091992
-0.007835603,0.613714,0.8041878
-0.003855615,0.6161303,0.8049025
-0.0002200286,0.6180949,0.8020577
-0.003690267,0.6182481,0.8002721
-0.01084479,0.6183723,0.8022353
-0.01577677,0.6185716,0.8024377
-0.01767505,0.6200449,0.804732
-0.01664396,0.6205425,0.8057524
-0.01504808,0.6244115,0.801702
-0.01553421,0.6294838,0.799349
-0.01481429,0.6258459,0.8024046
-0.01273992,0.6203681,0.8053879
-0.009702538,0.6196783,0.8022964
-0.00656074,0.6192891,0.7995195
-0.006420555,0.6188966,0.7992978
-0.003801242,0.6178119,0.7970152
-0.001816943,0.6150159,0.7992141
-0.007017683,0.6147683,0.8031901
-0.01237382,0.6157911,0.8011971
-0.01575749,0.6157509,0.8015649
-0.01824606,0.6191737,0.8066022
-0.02130072,0.6239046,0.8077691
-0.02385631,0.6243642,0.8007081
-0.02073046,0.6231433,0.7921469
-0.01688856,0.6239201,0.7923817
-0.01309932,0.625712,0.7930776
-0.01065429,0.6264838,0.7904219
-0.0122947,0.6257728,0.794942
-0.006456322,0.6244519,0.7974048
-0.0002457671,0.6243306,0.7964142
-0.004833967,0.6224457,0.8048337
-0.007025025,0.61747,0.8135192
-0.004954482,0.6149604,0.813001
-0.005755529,0.6126664,0.8070247
-0.007872898,0.6107397,0.8039996
-0.01122287,0.6159909,0.8047151
-0.01813228,0.6217738,0.7994561
-0.02461238,0.6213748,0.7935172
-0.02264405,0.6202166,0.7943782
-0.01839274,0.6210269,0.7961492
-0.01747913,0.6210115,0.7974137
-0.01272669,0.620535,0.8008198
-0.007319866,0.6208541,0.8012121
-0.005235853,0.6197521,0.7985037
-0.002952399,0.6181325,0.8005371
-0.001689348,0.617519,0.8011308
-0.001974805,0.6162186,0.801512
-0.006024546,0.6152393,0.8052797
-0.01230541,0.6167697,0.8005471
-0.01379182,0.6187875,0.7965503
-0.01489998,0.6173141,0.7999937
-0.01809193,0.6162816,0.80232
-0.01919817,0.6197588,0.8046454
-0.01975025,0.6217518,0.8025623
-0.01895599,0.6207988,0.7982037
-0.01612097,0.6202042,0.7983254
-0.01260903,0.6191601,0.7988136
-0.008990383,0.6176349,0.7994672
-0.005976889,0.6169198,0.8030321
-0.003125147,0.6150133,0.8069614
-0.003827594,0.611972,0.8052067
-0.006075547,0.6153804,0.7999827
-0.006121715,0.6198813,0.7987502
-0.01004761,0.6150642,0.8026577
-0.01418472,0.6121367,0.8070718
-0.01255957,0.6155262,0.8041329
-0.01182194,0.6185993,0.7998565
-0.01275081,0.6227342,0.8019038
-0.01161819,0.6226213,0.8016863
-0.0104202,0.6175686,0.8006762
-0.01030646,0.6160785,0.8027872
-0.01000077,0.617477,0.8031871
-0.01115557,0.6182244,0.8011714
-0.01304099,0.6158506,0.7962477
-0.01047306,0.6115923,0.7969963
-0.006812657,0.6111607,0.8012533
-0.006844937,0.6147289,0.7974269
-0.008428625,0.6181202,0.7968195
-0.01188374,0.6182961,0.794955
-0.01680635,0.6193124,0.7878683
-0.02108636,0.6228204,0.7937404
-0.02324133,0.621659,0.7986606
-0.02227852,0.6198379,0.7945783
-0.02029364,0.6202798,0.797227
-0.01471049,0.6154092,0.8036993
-0.005344782,0.6106572,0.8095026
-0.003576355,0.6123386,0.8097689
-0.007916845,0.6143743,0.8066557
-0.007120554,0.6137029,0.8089592
-0.00644689,0.6139069,0.808442
-0.009066232,0.6155326,0.8054218
-0.01089625,0.6169852,0.8048975
-0.01340718,0.6187991,0.8039461
-0.01276507,0.6180888,0.8069222
-0.01082595,0.6162996,0.8089403
-0.01277385,0.6160834,0.8042431
-0.01434786,0.6148947,0.8000716
-0.01612798,0.6169474,0.7982643
-0.01750659,0.6219395,0.7975122
-0.01782115,0.6241737,0.7994452
-0.01807437,0.622269,0.8025232
-0.01404494,0.6183097,0.8018704
-0.01088334,0.6181675,0.7999566
-0.01069107,0.6172825,0.8002915
-0.008510499,0.6137501,0.797761
-0.007749226,0.6143786,0.79601
-0.008735507,0.6170457,0.7964221
-0.01057614,0.6214466,0.7946005
-0.01610029,0.6235348,0.7960154
-0.02146602,0.6200561,0.8003804
-0.02013504,0.6178517,0.8050423
-0.01789176,0.6163425,0.8055444
-0.02032363,0.6182207,0.8015451
-0.01892886,0.6254339,0.8008013
-0.01446995,0.6287893,0.7969116
-0.01100301,0.6252113,0.793214
-0.008037212,0.6200709,0.7953103
-0.01099851,0.6200773,0.8010707
-0.01492417,0.6206396,0.8149568
-0.01623701,0.6174602,0.8166363
-0.01438653,0.6167833,0.8025105
-0.008831063,0.6158518,0.7951403
-0.01080919,0.61488,0.795425
-0.01296366,0.6174849,0.8031734
-0.01133983,0.6187033,0.8073595
-0.01822119,0.6193722,0.8021882
-0.0232346,0.6215113,0.7998335
-0.02290486,0.6237302,0.7982599
-0.02264045,0.6237859,0.7992798
-0.01863666,0.6213229,0.8036976
-0.01507679,0.6203063,0.8050924
-0.01276313,0.6191341,0.8018591
-0.01109179,0.6157057,0.7978171
-0.01121916,0.6129879,0.7971104
-0.01181246,0.614278,0.7952233
-0.01306296,0.6165361,0.7965236
-0.01245846,0.6148619,0.7996168
-0.01219135,0.6154133,0.7988794
-0.01343003,0.618873,0.8001154
-0.01489,0.620559,0.7974862
-0.01740806,0.6216286,0.7943253
-0.01617316,0.6205112,0.7962936
-0.01418793,0.6205121,0.7962774
-0.01569524,0.621482,0.7974543
-0.01544798,0.6199185,0.7990787
-0.01524424,0.6188915,0.7978428
-0.01737282,0.6157318,0.7970388
-0.01814251,0.6132017,0.799971
-0.01640561,0.6142553,0.806389
-0.01411373,0.6140836,0.8081505
-0.01335067,0.6161488,0.8006284
-0.01250651,0.6201358,0.7925618
-0.01205458,0.6213765,0.7951599
-0.01385712,0.6200937,0.7984601
-0.01437416,0.6186494,0.7960081
-0.0146652,0.6196702,0.7992856
-0.0165057,0.6197131,0.7998229
-0.01620067,0.6189982,0.7967261
-0.01541819,0.6199701,0.798966
-0.01509847,0.620222,0.7977959
-0.01358593,0.6208219,0.7987571
-0.01399988,0.6202762,0.8038398
-0.01696946,0.61891,0.8059934
-0.0184728,0.6204768,0.8080367
-0.01529919,0.6213368,0.8054909
-0.008985806,0.6200996,0.8030828
-0.005502473,0.6177872,0.8046225
-0.008160513,0.6144753,0.8032166
-0.01236887,0.6151408,0.8009121
-0.01374632,0.6199366,0.7981098
-0.01493167,0.6231831,0.7977518
-0.01750519,0.6247985,0.7977264
-0.01965966,0.6247283,0.7952442
-0.01754028,0.6202646,0.799464
-0.01349028,0.6165175,0.8031594
-0.01524856,0.6187874,0.8001223
-0.01634038,0.6232666,0.7966291
-0.01423293,0.6259188,0.7933418
-0.0155316,0.6253024,0.7935353
-0.0146172,0.6230323,0.7935944
-0.01318746,0.6214228,0.792252
-0.01581529,0.6184955,0.799401
-0.0181073,0.616163,0.8070409
-0.02024091,0.616961,0.8028375
-0.01981486,0.617626,0.7991447
-0.01864303,0.6181353,0.8033414
-0.02000726,0.6183985,0.8029123
-0.01935914,0.6176737,0.7991488
-0.01915794,0.6185558,0.7981343
-0.01967798,0.6199786,0.7962746
-0.01752014,0.6210892,0.7955283
-0.01432223,0.6209611,0.7948642
-0.01120875,0.6188577,0.7943736
-0.01100919,0.6191024,0.7972489
-0.01088345,0.6196254,0.8011437
-0.009112557,0.6177124,0.8041231
-0.01176714,0.6172084,0.8027645
-0.01447472,0.6166999,0.8009581
-0.01391896,0.6147088,0.8024632
-0.01501342,0.6151702,0.8036904
-0.01645859,0.6177238,0.8063319
-0.01640573,0.6185217,0.8061077
-0.01405688,0.6189339,0.8035152
-0.01176433,0.6197645,0.8042176
-0.01438368,0.6193768,0.8021348
-0.01745523,0.6194209,0.7996204
-0.01762374,0.6198551,0.8004077
-0.01810232,0.6209607,0.8016345
-0.01814176,0.622003,0.8029759
-0.01656625,0.6206483,0.7998975
-0.01447177,0.6203791,0.7954505
-0.01246698,0.6212692,0.7972259
-0.01205509,0.6198152,0.8049952
-0.01280436,0.6162365,0.8124648
-0.01247621,0.6127249,0.8096333
-0.01340095,0.6139475,0.8021203
-0.01807321,0.6190337,0.7997933
-0.02197316,0.6233256,0.7986416
-0.01935114,0.6272352,0.7991507
-0.01437814,0.6290668,0.7993136
-0.01411275,0.6288289,0.7946916
-0.01417812,0.6289035,0.7909296
-0.01341905,0.6255348,0.790615
-0.01530253,0.6217934,0.7958296
-0.01545563,0.621547,0.8026795
-0.01471317,0.6186521,0.8020382
-0.0137799,0.6156256,0.8006553
-0.01164629,0.6173836,0.8027563
-0.01247816,0.618545,0.8021509
-0.01293361,0.6161093,0.7982015
-0.01208122,0.6143832,0.7951818
-0.01307853,0.6167219,0.7997795
-0.01426141,0.6217866,0.8080047
-0.01644172,0.6265617,0.8092067
-0.0192014,0.6258015,0.8048501
-0.02138393,0.6225879,0.7986664
-0.02137319,0.6239864,0.7938905
-0.01861603,0.6241035,0.7945371
-0.01630746,0.6237684,0.7925954
-0.01279577,0.6259713,0.7889021
-0.0103569,0.6246215,0.7990219
-0.01171864,0.6235494,0.8104345
-0.01229142,0.6223224,0.8060894
-0.01428378,0.6174217,0.8049248
-0.01637284,0.6141095,0.8107845
-0.01473097,0.6132724,0.808549
-0.01403517,0.6153409,0.8088505
-0.01308494,0.618105,0.8119762
-0.01251739,0.6198855,0.8052666
-0.01634771,0.6221535,0.8005777
-0.01904762,0.6221255,0.8021332
-0.01718953,0.6222716,0.7983511
-0.01486942,0.6232379,0.7914056
-0.0157335,0.6249125,0.7913092
-0.01824267,0.6276797,0.7980543
-0.01958559,0.6251667,0.801707
-0.01764912,0.6230072,0.8009868
-0.01280602,0.6240582,0.8011198
-0.01161068,0.6215223,0.8018246
-0.0129634,0.6184554,0.8023782
-0.01236399,0.6163368,0.8031039
-0.01321578,0.6185943,0.8047026
-0.01666828,0.6233756,0.8050595
-0.02170789,0.6235452,0.8028469
-0.02327726,0.6268218,0.7986739
-0.01922279,0.6296332,0.7949906
-0.01610844,0.6262186,0.7988326
-0.01471755,0.6247129,0.8036424
-0.01457581,0.6216486,0.8015293
-0.01412531,0.6192474,0.802262
-0.0115865,0.6213279,0.8047085
-0.01222803,0.6190985,0.7996195
-0.01325673,0.6174794,0.7941054
-0.01209675,0.6213166,0.7932681
-0.01406824,0.6238066,0.7946242
-0.01707204,0.6229582,0.8009818
-0.01932071,0.6206762,0.805213
-0.02204224,0.6204756,0.8050715
-0.02353251,0.6215633,0.8102075
-0.02163214,0.6225617,0.8060695
-0.01727307,0.624941,0.7925071
-0.01516327,0.6244899,0.791837
-0.01219555,0.6217953,0.794268
-0.009384309,0.6209432,0.7942092
-0.01280323,0.6192954,0.7967969
-0.01308115,0.6163325,0.794725
-0.01060548,0.6145601,0.7938077
-0.01177105,0.6154167,0.7954488
-0.01163779,0.6177487,0.7967907
-0.01274323,0.6192247,0.7996868
-0.01358247,0.6205623,0.7987831
-0.01471484,0.622988,0.7976075
-0.01985682,0.6258263,0.7973371
-0.02020153,0.6257211,0.795094
-0.01817961,0.6233252,0.7959351
-0.01717941,0.6217607,0.798162
-0.01431776,0.6187198,0.7988429
-0.01421529,0.6187036,0.7989838
-0.01244712,0.6225855,0.799287
-0.008523742,0.62241,0.800302
-0.01146943,0.6229089,0.8007613
-0.01589474,0.6238414,0.8023402
-0.01537706,0.6204386,0.8049555
-0.01449296,0.6186426,0.8035083
-0.01288782,0.6181398,0.8007738
-0.01058526,0.6172066,0.8013163
-0.01375123,0.616378,0.8008527
-0.01786574,0.616489,0.8004664
-0.01853566,0.6181616,0.8027707
-0.02238257,0.6179545,0.8031936
-0.02658739,0.6184512,0.8018291
-0.02401807,0.6200611,0.7988903
-0.02033288,0.6209494,0.794541
-0.01908127,0.6214661,0.7943726
-0.01472174,0.6204009,0.7966834
-0.01119991,0.6218216,0.7959842
-0.01426707,0.6229179,0.7950787
-0.01632908,0.6211607,0.7955528
-0.01410479,0.6196476,0.7960791
-0.01361808,0.6161274,0.8011057
-0.01634021,0.6150031,0.8062894
-0.01924086,0.6158331,0.8031833
-0.02067221,0.6151036,0.8004599
-0.01970196,0.6172681,0.8019336
-0.01629856,0.6187558,0.8009232
-0.01436757,0.6182756,0.7993557
-0.015276,0.620302,0.7984412
-0.0156479,0.6240738,0.798472
-0.01504743,0.6259378,0.8005349
-0.01469227,0.6239185,0.7991601
-0.01280652,0.6225746,0.793532
-0.01118319,0.6221972,0.7900807
-0.01618681,0.6198848,0.7923609
-0.02252755,0.6187138,0.797449
-0.02317813,0.6175354,0.8019992
-0.02414442,0.6146773,0.8069025
-0.02277755,0.6125568,0.8093953
-0.01739719,0.6119284,0.8080109
-0.01842558,0.6143198,0.806246
-0.01835616,0.6207685,0.80508
-0.01322917,0.6270665,0.8054817
-0.01519001,0.6262206,0.8058482
-0.01615844,0.6231226,0.8053034
-0.01226499,0.6257227,0.8056793
-0.01252487,0.6256339,0.8055498
-0.01244511,0.6237678,0.8049487
-0.01267024,0.6257773,0.8024499
-0.01509819,0.623901,0.7977771
-0.01728511,0.6226541,0.7967068
-0.02000512,0.6232703,0.8006991
-0.01954833,0.6196543,0.8051915
-0.01884928,0.6161788,0.8063216
-0.01851637,0.6127737,0.8052171
-0.01453842,0.6130606,0.8044634
-0.01239186,0.6152638,0.803364
-0.01312626,0.6130829,0.8004756
-0.01446006,0.6143629,0.7983225
-0.01508025,0.6181022,0.8019621
-0.01553012,0.6225948,0.806717
-0.01861976,0.6269866,0.8050127
-0.02111053,0.6234076,0.8030184
-0.0221415,0.6194852,0.8046491
-0.02151398,0.6188502,0.8043251
-0.01754438,0.6182405,0.8039016
-0.01467439,0.6209296,0.8054511
-0.01728044,0.6207974,0.8056687
-0.02074127,0.6164029,0.8055799
-0.01676778,0.6138521,0.8055731
-0.01335601,0.6140416,0.8054219
-0.01642748,0.6164302,0.8059193
-0.01775458,0.6172647,0.8063218
-0.02071466,0.6182319,0.8065049
-0.02363834,0.6208827,0.8032386
-0.02088384,0.6216274,0.7981321
-0.02041011,0.6223498,0.7977053
-0.02212712,0.6206534,0.798498
-0.02183003,0.6182361,0.7975149
-0.01946385,0.6198454,0.7980791
-0.01615988,0.6196336,0.7992781
-0.01635701,0.6188468,0.8007142
-0.01810229,0.6189485,0.8044009
-0.01811166,0.6175323,0.8081742
-0.01771718,0.6180189,0.8089629
-0.01609198,0.6185266,0.806679
-0.01378141,0.6186675,0.8036681
-0.01401176,0.6198748,0.8021041
-0.01683957,0.6191593,0.801582
-0.01885912,0.6174098,0.801507
-0.01878323,0.6166487,0.8008965
-0.0202436,0.6189267,0.7991418
-0.0232886,0.6239177,0.796558
-0.0221127,0.626165,0.7948361
-0.01827243,0.6249127,0.7957134
-0.01600743,0.624569,0.7944408
-0.01445838,0.6249897,0.7926468
-0.01541688,0.6226372,0.7980568
-0.01678097,0.6184558,0.8068487
-0.01632782,0.6154617,0.8129169
-0.01701591,0.615238,0.8122588
-0.01610384,0.6183253,0.8054427
-0.01366322,0.6212973,0.8005378
-0.01250033,0.6210172,0.7986948
-0.01398109,0.6195713,0.7943996
-0.01848245,0.6197923,0.7899217
-0.01959714,0.6223372,0.793314
-0.0192323,0.625338,0.7977363
-0.02107366,0.6250625,0.7969019
-0.02160963,0.621783,0.7990719
-0.02191423,0.6192291,0.7998193
-0.01867285,0.6162919,0.7991998
-0.01395498,0.613877,0.8026898
-0.01401465,0.6186258,0.8020967
-0.01305055,0.6245907,0.8031423
-0.01073267,0.6214641,0.8067418
-0.01011001,0.6175925,0.8023812
-0.009682514,0.617339,0.7982977
-0.01070732,0.6135631,0.7993108
-0.01297526,0.6127188,0.8008948
-0.0154849,0.6156679,0.8030593
-0.01735164,0.6159985,0.8055218
-0.01731074,0.6193894,0.8063401
-0.01793299,0.6226086,0.8036675
-0.02019915,0.6230233,0.7982921
-0.01983824,0.6229761,0.7929022
-0.01813737,0.6195625,0.7945635
-0.01706484,0.620372,0.8019087
-0.01360001,0.6212756,0.8064444
-0.01289625,0.615211,0.8105987
-0.01434255,0.6129234,0.8085109
-0.0108123,0.6139038,0.8022507
-0.009055038,0.6150376,0.8035892
-0.01206276,0.6159705,0.7988468
-0.01513809,0.6156681,0.7933191
-0.01759471,0.6172684,0.8004908
-0.0202194,0.6169294,0.8026509
-0.02331544,0.6170577,0.7989404
-0.02273026,0.619262,0.7986828
-0.02085177,0.6197277,0.8010442
-0.02105725,0.6223511,0.8043459
-0.01838786,0.6236926,0.8036163
-0.01609125,0.6222122,0.803579
-0.01558807,0.6210376,0.803568
-0.01531425,0.6181478,0.7992158
-0.01751057,0.615587,0.7981783
-0.01690881,0.6135751,0.8010706
-0.01582742,0.6116641,0.804735
-0.01743529,0.6112567,0.8065743
-0.01637024,0.6125698,0.8054774
-0.01680906,0.6151421,0.8057065
-0.0189621,0.6163755,0.8055233
-0.0194813,0.6192324,0.8056686
-0.01994388,0.6224112,0.8098096
-0.01904303,0.6202278,0.8101198
-0.01939752,0.6184257,0.8033295
-0.01933563,0.6182567,0.8000876
-0.01624839,0.6168949,0.8034321
-0.01478788,0.6157736,0.8060891
-0.01494279,0.613167,0.8048826
-0.0156474,0.6133025,0.800703
-0.01587401,0.6160623,0.7985142
-0.01752501,0.6156999,0.8042419
-0.02092273,0.6158069,0.8129165
-0.02059856,0.614627,0.8136452
-0.02108963,0.6136583,0.8083018
-0.02237491,0.6189447,0.8032237
-0.01999307,0.6217354,0.7980588
-0.01965385,0.6182021,0.7981599
-0.01961147,0.6157204,0.8001053
-0.01798527,0.618815,0.7974828
-0.01811899,0.6235701,0.7986679
-0.01797888,0.6235843,0.7999591
-0.01799315,0.6218024,0.8002485
-0.01789571,0.6201597,0.8044635
-0.01605557,0.6187484,0.804272
-0.01502517,0.6162053,0.805155
-0.01616125,0.6113406,0.8085743
-0.01812057,0.6119149,0.8063322
-0.01856149,0.6134381,0.8052742
-0.01883947,0.6113202,0.8041673
-0.0207558,0.6144612,0.8016216
-0.02121287,0.6198338,0.8033156
-0.02044734,0.6215953,0.8044272
-0.01962893,0.619206,0.8029526
-0.01739808,0.6170554,0.8010457
-0.01600189,0.6204487,0.800278
-0.01702327,0.6224212,0.7999458
-0.01875255,0.6212178,0.7962061
-0.01977657,0.6207358,0.7946243
-0.01964781,0.6201675,0.7973139
-0.01866107,0.6191841,0.8003612
-0.01678492,0.6165647,0.8078728
-0.01463345,0.6159578,0.8140313
-0.01475821,0.6173153,0.8110784
-0.01598558,0.6163991,0.8048491
-0.01503847,0.6163914,0.8005658
-0.01588262,0.6160671,0.8047516
-0.02025631,0.6152344,0.8101568
-0.0231946,0.6180424,0.8018725
-0.02283938,0.6206152,0.7953933
-0.02157191,0.6204612,0.8002976
-0.02327458,0.6205961,0.8010621
-0.02368695,0.6212204,0.7996316
-0.01906808,0.6201936,0.8030051
-0.0154165,0.6179369,0.8050949
-0.01479898,0.6161757,0.8044087
-0.01729744,0.6159573,0.8051652
-0.01904457,0.616385,0.8087572
-0.01759478,0.6148951,0.8101902
-0.01862423,0.6146104,0.8068855
-0.02093016,0.6151304,0.8044682
-0.0227531,0.6133409,0.8054848
-0.02265399,0.6148171,0.805221
-0.02048781,0.6170586,0.8010686
-0.02113479,0.6164393,0.7986483
-0.02180148,0.6168743,0.8002752
-0.02200299,0.6167869,0.8013146
-0.02167953,0.617945,0.8036285
-0.01895361,0.621296,0.8068904
-0.01800977,0.6223255,0.8048083
-0.01629126,0.6198191,0.8030676
-0.01431679,0.6167247,0.805801
-0.01570647,0.6179293,0.8058487
-0.01688326,0.6187271,0.8049687
-0.01935728,0.6164191,0.8050574
-0.02193764,0.6166355,0.8036222
-0.02069337,0.6167906,0.803766
-0.01942706,0.616423,0.8027402
-0.01918019,0.6169664,0.8008133
-0.01753505,0.6166166,0.803385
-0.01646784,0.6179787,0.805967
-0.01837361,0.6204073,0.805736
-0.019729,0.6221604,0.804455
-0.01646477,0.6227189,0.8007758
-0.01224248,0.621708,0.7955687
-0.01193584,0.6210126,0.7945914
-0.01326924,0.6189482,0.7976685
-0.01382461,0.6169804,0.8001873
-0.01412265,0.6171691,0.8043618
-0.01303676,0.615741,0.8071641
-0.01269018,0.614606,0.8061878
-0.01426952,0.6158903,0.8049253
-0.01568736,0.6177013,0.7996038
-0.01834468,0.6212411,0.7954694
-0.02037695,0.624121,0.7968087
-0.0225973,0.6232286,0.7949562
-0.02577121,0.6228169,0.7927203
-0.02179525,0.6226789,0.7962891
-0.01668757,0.618586,0.8012682
-0.01648216,0.6165643,0.8027508
-0.01153763,0.6188028,0.8034175
-0.007524532,0.6182221,0.8038816
-0.01015386,0.6174455,0.8034632
-0.009368355,0.6185981,0.8068584
-0.007627056,0.6174992,0.8070074
-0.01100756,0.6161191,0.8024542
-0.01508461,0.6154241,0.8010784
-0.01894074,0.6167113,0.8006106
-0.02226079,0.6202485,0.8025413
-0.02258224,0.6204776,0.8043125
-0.02209544,0.6198205,0.8052583
-0.02184369,0.6211566,0.8054621
-0.02044565,0.623288,0.8000598
-0.01895275,0.6258086,0.7992139
-0.01879476,0.6229526,0.800894
-0.01793923,0.6180672,0.8003869
-0.01504623,0.6177669,0.8031366
-0.01480804,0.6181471,0.8028821
-0.01680701,0.6190568,0.802696
-0.01738629,0.6198423,0.8040917
-0.02042081,0.6187014,0.8035665
-0.02448178,0.6168637,0.8029286
-0.0250004,0.6144334,0.8006177
-0.02476172,0.614899,0.8020514
-0.02483756,0.6162188,0.8035207
-0.02288193,0.6158683,0.8003205
-0.01936482,0.6178498,0.7996271
-0.01704068,0.6189098,0.8001233
-0.01649461,0.6186687,0.8010079
-0.01743358,0.6205558,0.80176
-0.01827138,0.6202504,0.8011935
-0.01619987,0.6179829,0.8015125
-0.01430467,0.6179139,0.8021983
-0.01428252,0.6191138,0.8058601
-0.01297516,0.6188483,0.8097974
-0.01209674,0.6149905,0.8079771
-0.01423129,0.6109934,0.8037241
-0.01847332,0.6129584,0.8011924
-0.02343113,0.6181822,0.8008973
-0.02654433,0.621304,0.8016337
-0.02658683,0.6222222,0.8020779
-0.0260944,0.6212089,0.8034176
-0.02522666,0.6204579,0.8049225
-0.0223068,0.6208546,0.8033524
-0.01878285,0.6198535,0.8026368
-0.01616475,0.6189779,0.8044832
-0.01522672,0.6185652,0.8039212
-0.01433494,0.6178032,0.8046296
-0.01243991,0.6180216,0.8069535
-0.01298714,0.6179583,0.806773
-0.01678596,0.6166026,0.8057135
-0.02170734,0.6137091,0.8041883
-0.02372903,0.6122651,0.8032523
-0.02256431,0.6162096,0.8015084
-0.0236528,0.6204729,0.8029293
-0.02408138,0.6200337,0.8076764
-0.02207381,0.6196088,0.8053926
-0.02219429,0.6214865,0.8044565
-0.02175043,0.62086,0.8061368
-0.01937022,0.6193545,0.8003122
-0.01748408,0.6196493,0.7944958
-0.0175285,0.6192011,0.7928302
-0.01892674,0.6191135,0.7990863
-0.01873016,0.6178894,0.8095862
-0.01922672,0.6154248,0.8107172
-0.01920015,0.6147438,0.8074889
-0.01715198,0.6128093,0.8062732
-0.018335,0.6122024,0.8066429
-0.01940467,0.6158332,0.8066396
-0.01913036,0.6183804,0.8047602
-0.02048584,0.6183851,0.805422
-0.02182985,0.6183487,0.8043867
-0.02381409,0.6206935,0.799788
-0.02160627,0.6227192,0.7977728
-0.01795168,0.6196616,0.7983003
-0.02148059,0.6163287,0.799205
-0.02330746,0.6161451,0.7987677
-0.02017966,0.6144425,0.8001042
-0.01773321,0.6128829,0.8024489
-0.01506468,0.6143123,0.8012035
-0.01485356,0.6142995,0.8019551
-0.01688552,0.6142591,0.806274
-0.01819726,0.6159739,0.8083402
-0.02116528,0.6159808,0.8036117
-0.02460106,0.6184653,0.7978965
-0.02606998,0.6223494,0.8024366
-0.02522987,0.620659,0.8063935
-0.02141916,0.6182251,0.80229
-0.01943958,0.6184387,0.8018473
-0.02122898,0.6195702,0.8018882
-0.0202555,0.6206203,0.7994914
-0.01850426,0.6167027,0.8000284
-0.01965755,0.6115051,0.7990214
-0.01866673,0.611959,0.7972747
-0.01724062,0.6116647,0.7992057
-0.01777261,0.6100295,0.8037478
-0.01854314,0.6120601,0.8080688
-0.02192611,0.6134288,0.8091228
-0.02526456,0.6155849,0.8104297
-0.0260391,0.6180519,0.8089757
-0.02634144,0.6163552,0.802937
-0.02411329,0.6175848,0.8032221
-0.02014146,0.6209684,0.8030238
-0.01863346,0.6218044,0.799779
-0.01928091,0.6225624,0.8039811
-0.01855641,0.6212309,0.8046519
-0.01572931,0.6202743,0.8005579
-0.01515976,0.6209743,0.8009064
-0.01850048,0.6198178,0.8047311
-0.02214681,0.6191786,0.8105278
-0.02259861,0.6194061,0.8086849
-0.02008546,0.6198869,0.8043023
-0.01879661,0.6212742,0.8046365
-0.0195323,0.6226011,0.8022728
-0.02014273,0.6231528,0.8053621
-0.02200202,0.6243977,0.8107669
-0.02425074,0.6266515,0.8091428
-0.02257017,0.6233694,0.8072594
-0.01859418,0.6187087,0.8029526
-0.01743082,0.6210417,0.7994131
-0.01830015,0.6216951,0.8003578
-0.01905878,0.6195737,0.800134
-0.01970756,0.6191076,0.8020899
-0.0194547,0.6156408,0.8064611
-0.01914347,0.6130736,0.8109877
-0.01831199,0.6133023,0.8141111
-0.0159208,0.6123035,0.8118536
-0.01519384,0.6140941,0.8085
-0.01831076,0.619038,0.8056072
-0.02250982,0.6219903,0.8025781
-0.02396724,0.6217837,0.803345
-0.02434012,0.6226802,0.8031056
-0.02509308,0.6261829,0.8006013
-0.02325027,0.6255758,0.7998976
-0.02121937,0.6238201,0.7982059
-0.02083492,0.6252281,0.7991526
-0.01801518,0.6223202,0.802086
-0.01442011,0.618567,0.8011514
-0.01421406,0.6165478,0.8013283
-0.0148651,0.6118188,0.8031321
-0.0142632,0.6114244,0.8081024
-0.01389699,0.6137839,0.8150414
-0.01387709,0.6133583,0.8121434
-0.01534312,0.6158767,0.8046529
-0.01842021,0.6186992,0.8000584
-0.02012136,0.6179715,0.7976046
-0.02004751,0.6184688,0.8022999
-0.02076134,0.6214576,0.8062332
-0.02292515,0.6255529,0.8033803
-0.0223066,0.6276196,0.8018097
-0.01927431,0.6259118,0.7978006
-0.01742087,0.6242053,0.7936642
-0.01506516,0.6208023,0.8012994
-0.01477442,0.6162729,0.8089954
-0.01588859,0.6177155,0.8055312
-0.01487919,0.6188751,0.8039665
-0.01534724,0.6154245,0.8068543
-0.01602792,0.6150196,0.8060313
-0.01831744,0.6167502,0.808512
-0.0241602,0.6183922,0.8116324
-0.02606272,0.6193719,0.8038307
-0.0229951,0.6173043,0.7972067
-0.01852087,0.6158586,0.8008315
-0.01531887,0.6158425,0.8025948
-0.01545557,0.6179506,0.798844
-0.01569865,0.6233593,0.7977986
-0.01488645,0.6240402,0.7987815
-0.015273,0.6194036,0.7966499
-0.0155796,0.6170444,0.7951967
-0.01497069,0.6178182,0.7960483
-0.01572979,0.6186651,0.7968506
-0.01721468,0.6177892,0.7975106
-0.01832128,0.6169508,0.7973527
-0.01851432,0.6140336,0.7982287
-0.01754764,0.6099255,0.7998767
-0.01870837,0.6133396,0.8006221
-0.02138142,0.617503,0.801803
-0.02437211,0.6158362,0.8029471
-0.02585819,0.6172848,0.802275
-0.02253727,0.6192006,0.8006682
-0.01978995,0.617504,0.8013671
-0.01741207,0.617967,0.8018755
-0.0139377,0.6181083,0.8014158
-0.01508216,0.6158747,0.8043109
-0.01658436,0.6149187,0.8059215
-0.01739745,0.6152884,0.8029011
-0.02055578,0.6165763,0.7995636
-0.02103068,0.6178358,0.7975829
-0.02146986,0.6184017,0.7957106
-0.02485739,0.6185579,0.796294
-0.02537513,0.6168105,0.800993
-0.02378131,0.6146549,0.8026927
-0.02347604,0.6152091,0.8031353
-0.02347113,0.6181157,0.8076653
-0.02359429,0.6212037,0.8092898
-0.02201521,0.6224056,0.8076013
-0.01765618,0.6198358,0.8047739
-0.01302188,0.616272,0.8005577
-0.01167392,0.6162403,0.80093
-0.01468504,0.6155415,0.8052002
-0.01649858,0.6144763,0.8056356
-0.01672389,0.6174171,0.8039158
-0.01858066,0.6196047,0.8044668
-0.01875226,0.6203353,0.8018376
-0.0194962,0.6171465,0.800502
-0.02255175,0.6119223,0.8038748
-0.02308858,0.6160726,0.8022916
-0.02351934,0.6212273,0.8023569
-0.0249995,0.6206739,0.8036961
-0.02139869,0.6208155,0.8007548
-0.01592732,0.6189021,0.8022309
-0.01606734,0.6172901,0.8045016
-0.01751068,0.6184664,0.8072561
-0.01724727,0.6189528,0.8080425
-0.0186599,0.6193391,0.8030136
-0.02032364,0.6174151,0.8033119
-0.02185891,0.6140848,0.8023454
-0.02239755,0.6133353,0.7994206
-0.01889952,0.6139944,0.8055692
-0.01527459,0.6140981,0.8100806
-0.01478253,0.6141993,0.8058319
-0.01628454,0.6168126,0.7995101
-0.01993925,0.6198725,0.7976261
-0.02318908,0.6200299,0.7990682
-0.02192559,0.6199795,0.8005272
-0.0196269,0.6211435,0.8020023
-0.02052179,0.6209427,0.8013782
-0.0187128,0.6191829,0.8012989
-0.01512458,0.6175514,0.8025721
-0.01674681,0.6163185,0.8031953
-0.01790034,0.6179878,0.805324
-0.01862847,0.6224642,0.8085475
-0.02147049,0.6239332,0.8107972
-0.01815917,0.6198567,0.8083681
-0.01315772,0.6119595,0.8018813
-0.01400751,0.6086507,0.7970631
-0.01688261,0.6154075,0.7975316
-0.02150169,0.6213661,0.8004497
-0.02523877,0.61972,0.7999684
-0.02374897,0.6184298,0.8012358
-0.02255633,0.619911,0.8027273
-0.02334632,0.6186014,0.8001729
-0.0215529,0.6172755,0.8018747
-0.019945,0.6188484,0.8030624
-0.01867684,0.619786,0.8029295
-0.01439286,0.6211754,0.8053924
-0.01185227,0.6206458,0.8042881
-0.01442641,0.6163819,0.8068337
-0.01907116,0.6138356,0.8113502
-0.02043686,0.6143446,0.8082062
-0.01910371,0.6169787,0.8015299
-0.02021606,0.6183224,0.7967526
-0.02059478,0.6187775,0.8000461
-0.01969766,0.621066,0.8034045
-0.02052346,0.6210099,0.8004629
-0.0212149,0.620382,0.8017536
-0.02240626,0.6200709,0.8047539
-0.02217357,0.6180047,0.8057232
-0.01908553,0.617824,0.8069199
-0.01734517,0.6181839,0.8085216
-0.01719429,0.6174479,0.8117405
-0.01486638,0.6154754,0.8085501
-0.01159941,0.6134749,0.8011724
-0.01391742,0.6163549,0.8009351
-0.01779958,0.6194719,0.8036684
-0.01654492,0.6174642,0.8082409
-0.01606317,0.6147602,0.8123578
-0.01668303,0.6137682,0.8077377
-0.01605585,0.6147215,0.8034387
-0.01714362,0.6180668,0.8058552
-0.01712157,0.6205367,0.8057558
-0.01792364,0.6212156,0.8021411
-0.02090368,0.6221572,0.8007952
-0.0206495,0.6230896,0.8016797
-0.01937029,0.623667,0.8039018
-0.01660594,0.6216129,0.8073966
-0.01300476,0.6180522,0.8088413
-0.01403363,0.6178521,0.8064251
-0.01531845,0.6190622,0.8038669
-0.01588138,0.6195499,0.8051811
-0.01608015,0.6187135,0.808013
-0.01297809,0.6172433,0.8079873
-0.01226978,0.6169639,0.8044816
-0.01561889,0.614786,0.7997044
-0.01879306,0.6133098,0.799056
-0.02034796,0.6158976,0.8007921
-0.02138877,0.6175976,0.7997615
-0.02390465,0.6178738,0.7992552
-0.02556181,0.6198206,0.797707
-0.0245015,0.6217055,0.7946884
-0.02061643,0.6208525,0.796012
-0.01563779,0.6203338,0.7982928
-0.01483872,0.6209338,0.7990369
-0.01821299,0.61872,0.801216
-0.02035508,0.6164622,0.8047663
-0.01856487,0.6164786,0.8083163
-0.01722159,0.6163558,0.8086583
-0.01879175,0.6149991,0.8061193
-0.02009412,0.6132082,0.8047119
-0.02234447,0.6140629,0.8037212
-0.02476958,0.6163653,0.8017173
-0.0245531,0.6179169,0.7987581
-0.02218041,0.6196737,0.7949983
-0.01790851,0.6204753,0.7924189
-0.01600957,0.6209643,0.7922919
-0.01618192,0.6214539,0.7965172
-0.014758,0.6222708,0.8038367
-0.01514211,0.6239694,0.8054694
-0.01555924,0.622117,0.8011584
-0.01396969,0.6196356,0.7989749
-0.01485814,0.6207123,0.7998255
-0.01922459,0.6190527,0.8054358
-0.02383608,0.6152723,0.8123531
-0.02264696,0.6147696,0.8101917
-0.01863718,0.6154741,0.8063241
-0.01786445,0.615345,0.8056379
-0.01614241,0.6151586,0.8022955
-0.01606341,0.6151438,0.8053692
-0.01765793,0.6144283,0.8103
-0.01673899,0.6135339,0.8042634
-0.02059569,0.6142022,0.8011123
-0.02560502,0.6162272,0.8062207
-0.02460444,0.6188617,0.810686
-0.02127572,0.6202207,0.8124714
-0.01824188,0.6191286,0.8066158
-0.01861555,0.6182609,0.7997662
-0.01763183,0.6181152,0.8017324
-0.01382965,0.617801,0.8025556
-0.01507712,0.6180229,0.8001967
-0.01616747,0.6172352,0.8013791
-0.01511841,0.6165428,0.8000616
-0.01812552,0.6185405,0.7982075
-0.02050994,0.6199449,0.8037505
-0.01956801,0.6185999,0.8086958
-0.02015251,0.6174712,0.8065579
-0.02243977,0.6183009,0.8019059
-0.02366522,0.6193991,0.8004819
-0.02452648,0.6203162,0.8028859
-0.0254257,0.6209773,0.8039028
-0.02445187,0.6190249,0.8025891
-0.02191059,0.6172116,0.7991414
-0.01935649,0.6181724,0.7957552
-0.01874998,0.6177683,0.7976904
-0.01991459,0.6151305,0.8006594
-0.01947716,0.6131697,0.8012331
-0.0190845,0.6139458,0.8000853
-0.01982624,0.6158846,0.7979972
-0.01925908,0.6155094,0.8007136
-0.01973615,0.6152255,0.8053763
-0.02128624,0.6174379,0.805985
-0.02161275,0.6198997,0.805413
-0.02094317,0.6210349,0.8043394
-0.02028952,0.6202411,0.8031422
-0.02113669,0.6190498,0.804224
-0.02098669,0.6202203,0.8078749
-0.02022378,0.6213623,0.8100621
-0.02034312,0.6195543,0.8037995
-0.0190127,0.6180738,0.7953244
-0.01921158,0.6180226,0.795136
-0.02031384,0.6180726,0.7991875
-0.02081286,0.6191279,0.8030104
-0.02291366,0.6191426,0.8047786
-0.02237419,0.6165697,0.8039226
-0.02083047,0.6135625,0.8069501
-0.02138709,0.613045,0.8103491
-0.01909289,0.6136215,0.8076986
-0.01466262,0.612602,0.807296
-0.01380786,0.615525,0.8076646
-0.01939471,0.6216916,0.8038983
-0.02475527,0.6228438,0.8037916
-0.02371701,0.6202964,0.8040549
-0.02272747,0.618441,0.8034878
-0.02268873,0.6185143,0.8063919
-0.0214459,0.6182991,0.8072869
-0.0225072,0.6174778,0.8080307
-0.02254941,0.6184122,0.80592
-0.0216299,0.6181253,0.7996594
-0.02231256,0.617507,0.7997475
-0.02034964,0.6170384,0.8022337
-0.01865344,0.6134745,0.8030366
-0.01962004,0.6120985,0.8032454
-0.01971817,0.6154549,0.8021416
-0.0204292,0.6189775,0.8030874
-0.02201804,0.6203075,0.8029292
-0.02259516,0.6204137,0.8023252
-0.02234932,0.6195445,0.8030817
-0.02309419,0.6172059,0.8015939
-0.02501578,0.6177022,0.8016621
-0.02526029,0.6189058,0.8045402
-0.0241406,0.6172463,0.8080469
-0.02148014,0.6178007,0.8093751
-0.01831601,0.6194193,0.8066766
-0.01906161,0.6210267,0.8029452
-0.01971087,0.6215962,0.7987549
-0.01634393,0.6190652,0.7999841
-0.01435172,0.6191356,0.8068967
-0.01551673,0.6189741,0.8089388
-0.0168198,0.6172338,0.806811
-0.01851771,0.6183851,0.8037868
-0.02046447,0.6179449,0.8008492
-0.02151771,0.6168749,0.7991333
-0.02325107,0.6169193,0.7990408
-0.02437014,0.6171705,0.8015105
-0.02312928,0.6190329,0.8012762
-0.02198692,0.6198724,0.8008661
-0.01930841,0.6209721,0.8017144
-0.01504846,0.6214817,0.8006542
-0.01467209,0.6201657,0.8038861
-0.01574805,0.6210584,0.8050305
-0.01509578,0.6207084,0.8034676
-0.01526407,0.6186012,0.8059779
-0.01537641,0.617895,0.8063248
-0.0151645,0.6176811,0.8065196
-0.01537112,0.6183914,0.8037967
-0.01521952,0.6180804,0.7994731
-0.01529571,0.6182589,0.8006351
-0.0165456,0.6211312,0.7965365
-0.02148692,0.6228057,0.7908335
-0.0278523,0.6228827,0.7927757
-0.03071172,0.6236031,0.7966538
-0.03454449,0.6255655,0.8049872
-0.03712642,0.6255586,0.8157099
-0.02725369,0.6223789,0.8116411
-0.008816055,0.6156035,0.7985617
0.006159408,0.6040771,0.7949476
0.007659903,0.6011969,0.7930032
-0.003864721,0.6080579,0.7955063
-0.01576657,0.6137007,0.8036435
-0.0273673,0.6242805,0.7995181
-0.03124194,0.6287047,0.792465
-0.01952941,0.6229629,0.7890539
-0.01529693,0.6269202,0.7932848
-0.02523507,0.6293189,0.805403
-0.03087026,0.6235081,0.8044839
-0.02362174,0.6193324,0.8041158
-0.01576739,0.6127872,0.8081315
-0.02197991,0.6111384,0.8037179
-0.02536396,0.6138538,0.8058322
-0.02204358,0.6134125,0.8065839
-0.0244838,0.6145235,0.8040269
-0.02324024,0.6137764,0.8058941
-0.02119138,0.6148016,0.80061
-0.0222307,0.62307,0.7976626
-0.02526368,0.6328271,0.8024327
-0.03100269,0.6364035,0.8050876
-0.02561296,0.6269373,0.8026956
-0.01528131,0.6174677,0.7959198
-0.01274761,0.6190948,0.7859389
-0.01472604,0.6266388,0.7744184
-0.02264628,0.6367054,0.7791924
-0.03057831,0.6399781,0.7936235
-0.03083999,0.639172,0.7947239
-0.02355824,0.6383061,0.7967729
-0.01339324,0.6292003,0.7978635
-0.008942955,0.6247214,0.7928143
-0.0112856,0.6322089,0.7959924
-0.01994423,0.6339327,0.7994807
-0.02804464,0.6196631,0.8032997
-0.02454726,0.6067167,0.8036906
-0.01632528,0.6185043,0.794496
-0.01164527,0.6342834,0.7923772
-0.009684885,0.6324048,0.7933778
-0.01077412,0.6320457,0.7913379
-0.01279189,0.6353895,0.7887003
-0.01736908,0.6371299,0.7862313
-0.02561959,0.6395501,0.7901111
-0.02906075,0.6293208,0.7881142
-0.02897038,0.6172819,0.7850218
-0.03021943,0.6214163,0.7923753
-0.03043072,0.6228314,0.7929947
-0.03208445,0.6164042,0.7934544
-0.03091256,0.6187053,0.800364
-0.0269926,0.6220117,0.8024922
-0.02657441,0.6199928,0.8057745
-0.02284715,0.6211562,0.8067185
-0.02041798,0.6207568,0.8039719
-0.03144722,0.5442661,0.8549605
-0.03261812,0.5439612,0.8531812
-0.03034482,0.5466751,0.8517488
-0.02932639,0.5465199,0.8496732
-0.030352,0.5452426,0.8474988
-0.03404055,0.5503833,0.8493999
-0.03856348,0.5519193,0.8528591
-0.03220813,0.5495397,0.85447
-0.02436803,0.5483913,0.855384
-0.02598272,0.5499043,0.8551815
-0.0269486,0.5521078,0.8571239
-0.02673654,0.5471322,0.8556966
-0.03001525,0.5424357,0.8500453
-0.03013575,0.5430643,0.8479503
-0.02913503,0.5439314,0.8431403
-0.03224236,0.5447966,0.8408428
-0.03253143,0.5434201,0.8477591
-0.03123812,0.5429399,0.851581
-0.03240906,0.5452639,0.849337
-0.03183578,0.547681,0.8478088
-0.03175322,0.5499579,0.8510467
-0.03157019,0.5489649,0.8542708
-0.02751757,0.5456445,0.8528595
-0.02279358,0.5441935,0.8482506
-0.02223192,0.5455204,0.8428399
-0.02883607,0.5462901,0.8465989
-0.03427814,0.5458556,0.8531152
-0.03150802,0.5478148,0.8513934
-0.02822978,0.5489599,0.8527832
-0.02782631,0.5477621,0.855604
-0.02871449,0.5468251,0.854428
-0.03142662,0.5470306,0.8548922
-0.03234518,0.5475008,0.8534868
-0.02954682,0.5460116,0.8488349
-0.02670852,0.5455443,0.8417313
-0.02534253,0.5460279,0.8379792
-0.02371612,0.5451097,0.84729
-0.02204544,0.5433419,0.8568699
-0.02397636,0.5412726,0.8542655
-0.02978357,0.5441698,0.8500827
-0.03450631,0.5483451,0.8473012
-0.03703343,0.5465541,0.8433395
-0.03656844,0.5432078,0.8466712
-0.03421122,0.541479,0.8523021
-0.03292155,0.5441342,0.8523298
-0.02510189,0.549231,0.8544709
-0.01665878,0.5488185,0.8545468
-0.02236185,0.5461656,0.84938
-0.02846665,0.5456649,0.8499954
-0.02599949,0.5455701,0.8582922
-0.02739704,0.5457186,0.8666517
-0.02906823,0.5440896,0.8619471
-0.02617433,0.542234,0.8497243
-0.0281305,0.5429659,0.8474723
-0.03140742,0.5424296,0.8491749
-0.0314233,0.5411253,0.8522846
-0.03341616,0.5420479,0.8567241
-0.03476886,0.5436533,0.8585105
-0.0354314,0.5446587,0.8640256
-0.03546946,0.5437804,0.8647541
-0.03217835,0.5422633,0.8582463
-0.03042402,0.5423615,0.854381
-0.03042715,0.5427758,0.8523086
-0.03053265,0.5438247,0.8545395
-0.03056956,0.5451191,0.8560833
-0.02942581,0.5439939,0.8543595
-0.02904634,0.5423171,0.8542174
-0.02958994,0.5415355,0.8512853
-0.03228274,0.5417664,0.8509941
-0.03603056,0.5448957,0.8557048
-0.03675947,0.54757,0.85878
-0.03555457,0.5474683,0.8581824
-0.03412397,0.5471075,0.8510625
-0.03341239,0.545674,0.8473479
-0.03480966,0.5402513,0.8503426
-0.03606274,0.5340579,0.8492108
-0.0318862,0.5370919,0.8512297
-0.02709841,0.5450285,0.8562871
-0.02914719,0.5460144,0.8540915
-0.03015757,0.5433397,0.8532226
-0.02885415,0.5407011,0.8552386
-0.03245983,0.541009,0.8547022
-0.03653602,0.5428961,0.8551445
-0.03834008,0.5409191,0.8533664
-0.03899534,0.5411935,0.8500177
-0.03656765,0.5406262,0.85168
-0.03269988,0.5378325,0.8538933
-0.03104687,0.5410048,0.8541139
-0.03166197,0.5427819,0.8536537
-0.03053124,0.5421556,0.8494823
-0.02827753,0.543428,0.8459126
-0.02851565,0.5425621,0.848268
-0.0270238,0.540264,0.8514138
-0.02377402,0.5381162,0.8512745
-0.02582033,0.5390841,0.8495134
-0.03189101,0.5422617,0.8488129
-0.03796578,0.5436073,0.852645
-0.04032641,0.5443049,0.8589131
-0.03659794,0.5443352,0.8592754
-0.03529924,0.5441977,0.8554849
-0.03860044,0.5427809,0.8548286
-0.03894068,0.5408206,0.8541943
-0.03673108,0.5415521,0.8527777
-0.03354554,0.541095,0.853464
-0.03157019,0.53968,0.853143
-0.03194574,0.5405163,0.8532938
-0.03110643,0.5415437,0.85568
-0.03116208,0.5426614,0.8559615
-0.03228511,0.5433007,0.8548412
-0.03200123,0.5421128,0.8542812
-0.03203275,0.5415772,0.8538685
-0.03280934,0.5435152,0.8552202
-0.03369859,0.5451535,0.8560991
-0.03410967,0.5448378,0.8559487
-0.03663595,0.5458939,0.8591918
-0.04022664,0.5480012,0.861438
-0.03903071,0.5468958,0.8568524
-0.03694611,0.5438032,0.8528914
-0.03598184,0.5417043,0.8576787
-0.03128026,0.5409072,0.862725
-0.02755059,0.5412022,0.860053
-0.02910182,0.5412798,0.8580545
-0.03026023,0.5426876,0.8568231
-0.03150653,0.5453608,0.8528318
-0.03859164,0.5441796,0.8534801
-0.04599686,0.5411297,0.8543522
-0.0461062,0.5397009,0.8518215
-0.04145116,0.5391749,0.8534224
-0.03659809,0.5396133,0.8569408
-0.03319761,0.5389238,0.8583407
-0.03134003,0.5386027,0.8562994
-0.03148554,0.5403369,0.8531637
-0.03217987,0.5415376,0.8566562
-0.02965746,0.5431535,0.8593082
-0.02652931,0.5452254,0.8532954
-0.02696851,0.546227,0.8503571
-0.03077219,0.5460297,0.8550936
-0.03508016,0.5451284,0.8587606
-0.0347182,0.5433089,0.8573806
-0.03413834,0.5381452,0.8555377
-0.03739508,0.5350137,0.8568778
-0.03695505,0.5399476,0.8585167
-0.03279597,0.5445916,0.8589483
-0.02946603,0.5439902,0.858049
-0.02953642,0.5441592,0.8579706
-0.03090426,0.5451706,0.8586324
-0.02839402,0.5453868,0.8553823
-0.02845561,0.5478256,0.8514144
-0.02937602,0.5495573,0.8491334
-0.02698834,0.5474353,0.8490477
-0.02968976,0.5439565,0.8492722
-0.03186742,0.5406197,0.8462627
-0.03052052,0.5409032,0.8477356
-0.03076901,0.5431398,0.8503428
-0.029467,0.5429884,0.8500788
-0.02922677,0.5446766,0.8547766
-0.02879648,0.5458816,0.8567436
-0.02699325,0.5464849,0.8540329
-0.02887694,0.5516125,0.853771
-0.02943864,0.551475,0.8527608
-0.0268168,0.5449598,0.8502887
-0.02488191,0.5424578,0.8494152
-0.02331608,0.5451387,0.8517397
-0.02175306,0.548204,0.8532091
-0.02099275,0.5437994,0.8536358
-0.02434086,0.539912,0.8537636
-0.02906649,0.5450423,0.8475755
-0.02941462,0.5470781,0.8461902
-0.03046811,0.545394,0.8518207
-0.03306546,0.5456214,0.8516583
-0.03192055,0.544995,0.8551298
-0.03048371,0.5440746,0.8570406
-0.02802928,0.5433051,0.8491164
-0.02341748,0.5430495,0.8477241
-0.02434422,0.5429376,0.8489607
-0.02562221,0.5428366,0.8481976
-0.0206373,0.5423988,0.8492856
-0.01899473,0.5411151,0.8479763
-0.0233836,0.5413481,0.8495413
-0.02715829,0.5401551,0.8525199
-0.02702562,0.5383634,0.8541891
-0.02627108,0.5414128,0.8533681
-0.03046667,0.5468358,0.8486769
-0.03419143,0.5518328,0.8499112
-0.03293957,0.5532325,0.8519518
-0.02988072,0.5487147,0.8552009
-0.0256877,0.5439255,0.8651758
-0.02450902,0.5434744,0.8663709
-0.0279224,0.5432284,0.8594364
-0.02986088,0.5412894,0.8525392
-0.02728444,0.5431081,0.8481925
-0.02435753,0.5453115,0.8519227
-0.02548783,0.5424419,0.8552487
-0.02850076,0.5408994,0.853843
-0.03236478,0.5429957,0.854551
-0.03467727,0.5443988,0.8571623
-0.03295967,0.5445894,0.8589192
-0.03296329,0.5444429,0.8576247
-0.03389519,0.5447386,0.8517561
-0.03296116,0.5462722,0.8449218
-0.03322271,0.5477705,0.8443845
-0.03242279,0.5472324,0.8520552
-0.0305369,0.5455751,0.8581634
-0.03018917,0.5439799,0.8557988
-0.02968725,0.5424683,0.8540046
-0.0284272,0.5428375,0.8550845
-0.02633938,0.5430286,0.8511565
-0.02435493,0.5400542,0.8486933
-0.02501762,0.5387633,0.8514369
-0.02729114,0.5429355,0.8521712
-0.02905468,0.5485441,0.8530839
-0.03226035,0.5495432,0.8560552
-0.03580671,0.5469125,0.8578035
-0.03419477,0.5462203,0.8585922
-0.03083042,0.546174,0.8578088
-0.03024788,0.544349,0.8545253
-0.02872457,0.5417778,0.8519212
-0.0278422,0.5412497,0.8533437
-0.02909994,0.5448911,0.8553209
-0.02906409,0.5462784,0.8548134
-0.02926222,0.5428968,0.8554944
-0.02931647,0.5407771,0.8552451
-0.0288296,0.5414194,0.8505959
-0.02947176,0.5422767,0.8478804
-0.02942818,0.5413826,0.8518994
-0.03080598,0.541812,0.8587324
-0.03277977,0.5439396,0.8600911
-0.03223765,0.54456,0.8540127
-0.03345553,0.5448079,0.8498162
-0.03551207,0.5441926,0.8528915
-0.0341278,0.5439379,0.855789
-0.03072182,0.5430983,0.8537634
-0.02831548,0.5406822,0.8535742
-0.02952274,0.5414699,0.8542975
-0.03350873,0.5413094,0.849904
-0.03650783,0.53946,0.846605
-0.03605953,0.5404676,0.8469433
-0.03305347,0.5406463,0.8481294
-0.03148088,0.5409008,0.8515036
-0.03363352,0.5423061,0.8563784
-0.03551563,0.5429483,0.8598485
-0.03377248,0.5449054,0.8608236
-0.03263256,0.5466202,0.8622063
-0.03397413,0.5458469,0.8598786
-0.03521455,0.5452515,0.8547307
-0.03641985,0.5447309,0.8566137
-0.03633073,0.5414451,0.8563327
-0.03439419,0.539166,0.8524312
-0.03262381,0.5406004,0.8541645
-0.03041766,0.5415184,0.8529115
-0.02905566,0.5416111,0.8501138
-0.0293412,0.5418815,0.8516725
-0.0295143,0.5418857,0.8516616
-0.03256164,0.5434351,0.8510549
-0.03792996,0.5452813,0.8519081
-0.0400216,0.5454425,0.8533642
-0.03852995,0.5457332,0.8555237
-0.03637642,0.5459946,0.8561003
-0.03506911,0.5445717,0.8559642
-0.03408571,0.5430276,0.8590743
-0.03379507,0.5418273,0.862444
-0.03345278,0.5405779,0.861323
-0.03300781,0.5406108,0.8601666
-0.03386915,0.5407175,0.8610734
-0.03200112,0.5413386,0.8608758
-0.03032302,0.5447139,0.8606602
-0.03322689,0.5472833,0.8590475
-0.03391909,0.546968,0.8569763
-0.03428229,0.5464297,0.85823
-0.03723207,0.5460183,0.8591953
-0.03674113,0.54725,0.8612307
-0.03700956,0.548705,0.8640166
-0.03921298,0.5440265,0.8615372
-0.03436539,0.5389853,0.8592921
-0.02888715,0.5405694,0.8580239
-0.0301263,0.5408648,0.8550379
-0.0292443,0.5380169,0.8533123
-0.02584648,0.5388346,0.8512032
-0.026213,0.5414184,0.8528919
-0.02841535,0.5418298,0.8562563
-0.03146447,0.5417576,0.856376
-0.0342595,0.5418346,0.8568885
-0.03285397,0.5423881,0.8517593
-0.03079804,0.5442675,0.8477698
-0.03230561,0.546626,0.8519231
-0.03230111,0.5497717,0.8514811
-0.03132965,0.5511463,0.8489968
-0.03222018,0.5503713,0.8492809
-0.03059471,0.5489995,0.851638
-0.02827615,0.5444803,0.8558217
-0.02749369,0.542784,0.8544206
-0.0267351,0.5437216,0.8536127
-0.02466729,0.5407688,0.8577363
-0.02147435,0.541181,0.8585227
-0.02430908,0.5423008,0.8550108
-0.0284101,0.5391318,0.8468057
-0.02630593,0.5394453,0.8420996
-0.02808821,0.5437494,0.852966
-0.03322448,0.5489422,0.8673188
-0.03386004,0.5495397,0.8667861
-0.03257513,0.5455283,0.8552849
-0.02924576,0.5448785,0.8471502
-0.02494465,0.5454246,0.8463709
-0.02416415,0.5468158,0.8465897
-0.02540599,0.5488633,0.8456707
-0.02515533,0.5473259,0.8498001
-0.02461873,0.5461034,0.8555197
-0.02526882,0.5454699,0.8569846
-0.02499044,0.5446759,0.8589216
-0.02497533,0.5449929,0.8583422
-0.02687418,0.5457907,0.8547577
-0.03040612,0.5480075,0.8539466
-0.03495791,0.5475753,0.8535892
-0.0356039,0.5465831,0.8535663
-0.03401714,0.5487377,0.852685
-0.03439303,0.5487401,0.8523213
-0.03185353,0.5480893,0.8544101
-0.0274715,0.5470664,0.8546235
-0.0262614,0.5450067,0.8567928
-0.02606937,0.5452955,0.8583704
-0.02474679,0.5438741,0.8526788
-0.02395164,0.5419563,0.8468663
-0.02563442,0.5430185,0.8464289
-0.02852875,0.5419754,0.8489246
-0.031349,0.540651,0.8520775
-0.03287994,0.5427693,0.8554944
-0.03174594,0.544716,0.8547633
-0.03209129,0.5469304,0.8526238
-0.03512464,0.5481809,0.8541966
-0.03612695,0.5456479,0.851975
-0.03316348,0.5450678,0.8492546
-0.02790738,0.5440727,0.8489416
-0.02576014,0.5393345,0.8475371
-0.02671894,0.5381159,0.8493105
-0.02624832,0.5390378,0.8493282
-0.02633321,0.539891,0.8508035
-0.02660151,0.5435515,0.8559763
-0.0261229,0.5476936,0.8544248
-0.02659027,0.5474058,0.8532365
-0.02632837,0.5439547,0.8548378
-0.02754999,0.5438045,0.8541292
-0.03318075,0.544302,0.854825
-0.03961491,0.5453843,0.8554013
-0.04048911,0.5473471,0.8553713
-0.03851442,0.5449019,0.8557637
-0.03953118,0.5450387,0.8555458
-0.03475241,0.5440443,0.8552622
-0.0275808,0.5388346,0.8549129
-0.03046899,0.540439,0.8546649
-0.0320121,0.5420173,0.8543236
-0.02915922,0.5418788,0.8525584
-0.0300187,0.5427667,0.8507474
-0.02924525,0.5392432,0.8531409
-0.02881449,0.5384338,0.8553543
-0.03179657,0.5410939,0.8537462
-0.03385821,0.5420816,0.854014
-0.03720481,0.5419402,0.8545218
-0.04006319,0.5411788,0.8540339
-0.03879155,0.5426369,0.8548757
-0.03730982,0.545348,0.8540062
-0.03663378,0.5468915,0.8519236
-0.03523354,0.5426673,0.8506723
-0.03314829,0.5365507,0.8498674
-0.03050336,0.5404489,0.8500585
-0.03051205,0.5438035,0.8523232
-0.03461525,0.5405458,0.8552341
-0.03726004,0.5416279,0.8554976
-0.03615357,0.5423305,0.8528819
-0.03600943,0.5406013,0.8508922
-0.03816694,0.5402824,0.8542051
-0.03947593,0.5383266,0.8588937
-0.03891285,0.538954,0.8581343
-0.03861554,0.5423266,0.8553003
-0.0390899,0.5434067,0.8535522
-0.03886236,0.5433905,0.8537514
-0.03843404,0.5423739,0.8537581
-0.0372291,0.5412054,0.8484974
-0.03548192,0.5402835,0.8458254
-0.03644751,0.5405595,0.854535
-0.03924759,0.5425418,0.8633167
-0.03993601,0.5409493,0.8603474
-0.03610318,0.5375165,0.858176
-0.03155228,0.5362051,0.864797
-0.03307377,0.5381804,0.865876
-0.03584618,0.5427896,0.8610219
-0.03649217,0.5423497,0.8562556
-0.04152399,0.5418271,0.8527294
-0.04667329,0.545983,0.8580749
-0.04744283,0.5462079,0.8654636
-0.0467769,0.5450234,0.866839
-0.04503596,0.5434107,0.8633596
-0.0455916,0.5405491,0.8569187
-0.04470014,0.54143,0.8559132
-0.03828827,0.5412897,0.8555293
-0.03245945,0.5395993,0.8514878
-0.02865384,0.540124,0.8495327
-0.02782599,0.5398247,0.8482004
-0.0285931,0.5394904,0.8515726
-0.03099582,0.5413449,0.8561821
-0.03905506,0.5420196,0.8555574
-0.04524327,0.5395498,0.8552362
-0.04693034,0.5382348,0.8537581
-0.04885665,0.5391816,0.8527931
-0.05062542,0.5398928,0.8564442
-0.05232694,0.5419101,0.8593327
-0.05288048,0.5475047,0.8578656
-0.05060587,0.5526977,0.8559376
-0.04154882,0.5486019,0.8581863
-0.03251788,0.5421448,0.859585
-0.03642446,0.5438488,0.8602012
-0.0395237,0.5410504,0.8627757
-0.03334493,0.5321798,0.8611249
-0.03275491,0.5309054,0.8601595
-0.03638737,0.5339664,0.8614398
-0.0388774,0.537259,0.8577677
-0.04170105,0.5407303,0.8544958
-0.04146984,0.5429272,0.8549732
-0.04305755,0.5467855,0.8548547
-0.04583417,0.5481814,0.852447
-0.04333313,0.544803,0.8515732
-0.04035937,0.5437315,0.8531764
-0.03746763,0.5447423,0.8527802
-0.03653888,0.5442769,0.854389
-0.03929841,0.543084,0.8571341
-0.03865782,0.5410886,0.8545292
-0.03621874,0.5397609,0.8475022
-0.03331091,0.5411668,0.8388276
-0.03110556,0.5422756,0.8409133
-0.03521326,0.5411394,0.8500413
-0.03922741,0.5397337,0.8501054
-0.03912094,0.5392726,0.850463
-0.03939144,0.5426576,0.8522783
-0.04142509,0.5486325,0.8522364
-0.04399781,0.5490188,0.8540444
-0.04356758,0.5439931,0.8524838
-0.04318292,0.5402524,0.8552584
-0.04431817,0.539571,0.8582571
-0.03989479,0.5407627,0.853364
-0.03436086,0.541364,0.8521249
-0.033817,0.5411901,0.8530678
-0.03264109,0.5402739,0.8548912
-0.03069168,0.5380956,0.8572396
-0.03041477,0.5389573,0.8561139
-0.02999013,0.5413976,0.853679
-0.03403653,0.5416782,0.8500052
-0.04072656,0.5419759,0.8513302
-0.03996497,0.5415178,0.8543441
-0.03922468,0.5420053,0.8539453
-0.04295334,0.5447454,0.8554152
-0.04076944,0.5463074,0.8545783
-0.03723677,0.5455524,0.8522658
-0.03422773,0.5417787,0.8495525
-0.02674702,0.5399153,0.8453229
-0.02557837,0.5438354,0.8472761
-0.03180062,0.546891,0.8540193
-0.03462135,0.5443566,0.8572426
-0.03370501,0.5415638,0.854496
-0.03354103,0.5437523,0.8531804
-0.03532564,0.5452399,0.8558742
-0.03521777,0.5448365,0.8554911
-0.03527477,0.5456509,0.8540747
-0.03868474,0.5446218,0.8524179
-0.03946467,0.5443594,0.8507735
-0.03752505,0.5438924,0.8533878
-0.03330049,0.5404929,0.8546309
-0.02703367,0.5382365,0.8522073
-0.02773654,0.5383933,0.8507034
-0.0341738,0.5405324,0.850917
-0.03744453,0.5404984,0.850071
-0.03629629,0.5395939,0.8482654
-0.03334196,0.5399715,0.851618
-0.02942045,0.5382252,0.8569484
-0.02615864,0.5387948,0.8575501
-0.03168927,0.539446,0.8564279
-0.03937724,0.5382627,0.8546754
-0.03506769,0.5400145,0.8515794
-0.03191744,0.5423795,0.848359
-0.03604393,0.5449694,0.8454291
-0.03774369,0.5434522,0.845382
-0.04212104,0.5404623,0.8522344
-0.04462612,0.54477,0.8595537
-0.04084022,0.546842,0.8558927
-0.03916546,0.5430241,0.8515785
-0.03561972,0.5397634,0.855252
-0.03155462,0.5382104,0.8551677
-0.03236367,0.5397937,0.856053
-0.03459018,0.5409679,0.8619094
-0.03649555,0.5405406,0.8610983
-0.0337585,0.5430697,0.8575641
-0.03176389,0.5463277,0.8559123
-0.03950537,0.5459536,0.8554199
-0.04666686,0.543547,0.8567074
-0.04500208,0.5426561,0.8545092
-0.04277334,0.5430136,0.8527961
-0.04335142,0.5430093,0.8534584
-0.04096961,0.5421631,0.8524344
-0.03896656,0.5412717,0.8542918
-0.0394046,0.5422191,0.8551694
-0.03822526,0.5445254,0.853749
-0.03866882,0.5461104,0.857143
-0.03758338,0.5444666,0.8592923
-0.03482916,0.5418799,0.8568362
-0.03644312,0.5434502,0.8547095
-0.03731848,0.5456385,0.85386
-0.04040383,0.5466504,0.8550228
-0.04665942,0.5474376,0.8559219
-0.04649203,0.5443547,0.8541863
-0.04377291,0.5419007,0.8521526
-0.04263593,0.5432479,0.8516042
-0.04118997,0.5436723,0.8517334
-0.0413861,0.5446016,0.8497254
-0.04176006,0.5464501,0.848271
-0.03951526,0.5457283,0.853177
-0.03730771,0.5435893,0.860199
-0.03730864,0.5425252,0.8624081
-0.03704458,0.5417288,0.8608384
-0.03486101,0.5397374,0.8596958
-0.03354864,0.5382487,0.8596793
-0.03850686,0.5387706,0.8587117
-0.04528866,0.5394688,0.8572727
-0.04551812,0.53973,0.8543381
-0.04586993,0.5413677,0.8495445
-0.04726389,0.5426681,0.8501847
-0.04321481,0.5430993,0.8552384
-0.0410795,0.5449808,0.855792
-0.04102755,0.5443569,0.8549129
-0.03600007,0.541244,0.8557012
-0.0315893,0.5404007,0.8537225
-0.03250345,0.5398567,0.8519124
-0.0351282,0.538412,0.8529644
-0.03575321,0.5367252,0.852961
-0.03622242,0.5357397,0.8529039
-0.03994284,0.5361077,0.8550595
-0.04379463,0.536332,0.858205
-0.04422671,0.5373991,0.8610404
-0.04515769,0.5395124,0.8623848
-0.04915139,0.5416079,0.8625579
-0.04865,0.5445251,0.8614425
-0.04307108,0.5491245,0.8597613
-0.04045324,0.5508901,0.8591639
-0.03897307,0.5457019,0.8569043
-0.03613728,0.5416522,0.8514352
-0.03377789,0.5413712,0.8481855
-0.03443473,0.5398701,0.8498615
-0.03662482,0.5396319,0.8494147
-0.03646728,0.5389171,0.847216
-0.03968703,0.5368947,0.8492258
-0.0432019,0.5381995,0.8490328
-0.04143596,0.5400242,0.8483833
-0.04170647,0.5406663,0.8529771
-0.04337932,0.5428548,0.8550142
-0.04272909,0.5437017,0.8542742
-0.03960339,0.5416756,0.8544894
-0.03743767,0.5413431,0.8572153
-0.03819231,0.5419411,0.8622803
-0.03561038,0.541648,0.8621853
-0.03410777,0.5426697,0.856893
-0.03785699,0.5433284,0.8534021
-0.0390707,0.5430556,0.8579464
-0.03520633,0.542481,0.8635561
-0.0309223,0.539961,0.8586747
-0.03147094,0.5364143,0.8551507
-0.03421847,0.5362086,0.8579099
-0.03856938,0.5420694,0.8584114
-0.04525725,0.5471782,0.8581338
-0.04459105,0.5459142,0.855319
-0.04277727,0.5432982,0.8520216
-0.04693038,0.5427921,0.8519658
-0.04240041,0.5430515,0.852989
-0.03311185,0.5432765,0.8576371
-0.0311349,0.5441474,0.8620536
-0.03232763,0.545572,0.860493
-0.03361104,0.5458462,0.8578456
-0.02985014,0.5436613,0.8583915
-0.02580252,0.540524,0.8595593
-0.02936317,0.5404323,0.8591473
-0.03388968,0.5439946,0.8572913
-0.03890768,0.5470385,0.8546017
-0.0403889,0.5459738,0.8549328
-0.03670627,0.54374,0.8555859
-0.0374702,0.542894,0.8532981
-0.03848344,0.5416173,0.85406
-0.03959001,0.5439019,0.8548087
-0.04296444,0.5474325,0.8535259
-0.04106596,0.5456635,0.8539525
-0.03649074,0.5450158,0.851539
-0.03114396,0.545277,0.8494188
-0.02717208,0.5420332,0.8528902
-0.02934982,0.5409843,0.8562538
-0.03003449,0.5419163,0.8555558
-0.02829598,0.5416938,0.853042
-0.03003374,0.5412468,0.8516032
-0.03259111,0.5398779,0.8502947
-0.03654728,0.538749,0.8485149
-0.03993336,0.5404242,0.848821
-0.03870297,0.542617,0.8525933
-0.03857352,0.542269,0.8544672
-0.03883552,0.5441304,0.8517372
-0.0358227,0.5487511,0.8527322
-0.03405651,0.5484524,0.8545048
-0.03448815,0.5463413,0.8527205
-0.03421969,0.5471644,0.853943
-0.03020342,0.5460557,0.8543686
-0.02594294,0.5426107,0.8539048
-0.02672964,0.5405012,0.8544397
-0.02765851,0.5401478,0.8527842
-0.03035388,0.5407516,0.8527746
-0.03866459,0.5426011,0.8529436
-0.04250107,0.5437654,0.8534754
-0.03975436,0.5418613,0.8550266
-0.03986739,0.5414352,0.8547377
-0.04190048,0.5438811,0.8558514
-0.04160405,0.544651,0.8558363
-0.04130572,0.5429832,0.8550657
-0.03948203,0.5389961,0.8564917
-0.03543859,0.5371716,0.8582317
-0.03441791,0.5421673,0.8613996
-0.03743329,0.5471574,0.8618828
-0.03933167,0.545787,0.8603659
-0.03541716,0.5422391,0.8610481
-0.03226747,0.5413039,0.8589081
-0.03792291,0.5415171,0.8544479
-0.04517022,0.5421316,0.8512615
-0.04694955,0.5436222,0.8493836
-0.04576776,0.5445026,0.8509264
-0.04501084,0.5439687,0.8566797
-0.04440221,0.5424069,0.8618995
-0.04197146,0.542723,0.8604558
-0.03901622,0.5420566,0.8541374
-0.0343124,0.5372641,0.8498278
-0.03007316,0.5354657,0.8510515
-0.0328197,0.5384105,0.855606
-0.03473089,0.5424225,0.8605348
-0.03329924,0.5440503,0.8643128
-0.0379366,0.5425063,0.8587809
-0.04206328,0.5420807,0.8505897
-0.04112075,0.5414571,0.855547
-0.04412841,0.5404274,0.8595152
-0.04826376,0.5403929,0.8572561
-0.04387873,0.5403196,0.8597015
-0.03746427,0.5422568,0.8580526
-0.03865305,0.5438456,0.8543388
-0.04059696,0.5439081,0.8534973
-0.04259572,0.5440496,0.8520831
-0.04722673,0.5418998,0.8545901
-0.04409159,0.5393474,0.8550474
-0.03825933,0.5401279,0.8531325
-0.03774394,0.5418595,0.8543364
-0.03629342,0.5412474,0.852431
-0.03569251,0.5398141,0.8506427
-0.03679333,0.5385848,0.8526579
-0.03804667,0.5387339,0.8541064
-0.04202833,0.5412735,0.8549238
-0.04619701,0.5420369,0.8571252
-0.04889423,0.5415861,0.8609015
-0.04836017,0.5419376,0.8615206
-0.04357196,0.5427096,0.8579451
-0.04042646,0.5453231,0.8553597
-0.04137812,0.5464263,0.8529905
-0.04199374,0.5456981,0.8492335
-0.03961101,0.5454347,0.8493844
-0.03809942,0.5438464,0.8533917
-0.03912175,0.5406572,0.853658
-0.03935467,0.5357186,0.8528028
-0.0406555,0.5327186,0.8548796
-0.04380428,0.5369243,0.8543575
-0.04612586,0.5435409,0.8535544
-0.04740651,0.5440339,0.8547061
-0.04541814,0.5421471,0.8539532
-0.04196769,0.5434518,0.8540485
-0.04271445,0.5436947,0.8550068
-0.04443297,0.5453309,0.8565358
-0.04258557,0.5479638,0.859157
-0.04064786,0.5445511,0.8577514
-0.04027516,0.5416801,0.8559154
-0.03977333,0.5430254,0.8568027
-0.03955689,0.5422646,0.8542506
-0.03893669,0.5395924,0.8506983
-0.04007453,0.5396764,0.8516109
-0.04459249,0.5406777,0.8545105
-0.04632819,0.5385839,0.8556428
-0.04319895,0.5384946,0.8531345
-0.04028881,0.5414219,0.8506577
-0.04041635,0.5419837,0.853909
-0.03973429,0.5416458,0.8575234
-0.03702345,0.5420008,0.8574171
-0.03754536,0.5433791,0.8601218
-0.03915465,0.5449454,0.8616241
-0.04048352,0.5434904,0.8557485
-0.04264772,0.5412951,0.8507717
-0.0410659,0.540684,0.8508538
-0.03777662,0.5398957,0.8521355
-0.03367995,0.5395903,0.8532285
-0.03072135,0.5408333,0.8542358
-0.03504321,0.5430332,0.8537434
-0.0385325,0.5446243,0.8520374
-0.03728341,0.544429,0.852191
-0.03794004,0.5438387,0.850627
-0.04031613,0.5417517,0.8486901
-0.04239427,0.538385,0.856024
-0.04043442,0.5387458,0.8640765
-0.0329594,0.5412344,0.861119
-0.02760078,0.541076,0.8556256
-0.03096597,0.5373547,0.8540528
-0.03516308,0.5338542,0.8525739
-0.03036671,0.5377845,0.8545811
-0.02721064,0.5425763,0.863285
-0.03050023,0.5405117,0.8678947
-0.03096091,0.5420488,0.8613722
-0.0328448,0.5462656,0.8539202
-0.03725296,0.544298,0.8552029
-0.03939846,0.5436809,0.8559716
-0.0397676,0.5452336,0.8511318
-0.03806199,0.5435466,0.8533442
-0.03852365,0.5416747,0.8595299
-0.03728502,0.5401535,0.8612681
-0.03202329,0.5417567,0.8603183
-0.03123066,0.546204,0.8559934
-0.03121135,0.546286,0.8535842
-0.0303805,0.5448312,0.851324
-0.0321184,0.5434761,0.8496137
-0.03493082,0.540688,0.8529394
-0.03827304,0.5413487,0.8513674
-0.03888929,0.5424157,0.8518024
-0.03952731,0.5411698,0.857149
-0.04106394,0.5422532,0.8561477
-0.04016359,0.5449558,0.8536712
-0.04106315,0.5481234,0.8510547
-0.04185877,0.5491414,0.8539541
-0.03972213,0.5451388,0.8597064
-0.03812398,0.541623,0.8559541
-0.0378288,0.5409259,0.8539627
-0.03729676,0.5399057,0.8530672
-0.03554321,0.5391022,0.8509759
-0.03502758,0.5411624,0.8581627
-0.03562651,0.5439417,0.8634148
-0.03589748,0.5415437,0.8605903
-0.0388077,0.538991,0.8565175
-0.04434251,0.5416446,0.8512001
-0.04831821,0.5422561,0.8469034
-0.04848463,0.5411892,0.8487284
-0.04790195,0.5420903,0.8539212
-0.04707973,0.5426824,0.8562671
-0.04423101,0.5439764,0.857506
-0.04274644,0.5437054,0.8557766
-0.03949618,0.5405716,0.8513423
-0.03299569,0.5387416,0.8494891
-0.03191323,0.5388764,0.8493246
-0.03280986,0.5399031,0.8574604
-0.03160961,0.5407407,0.8679366
-0.03605976,0.5410109,0.8650293
-0.04366096,0.5409334,0.8585409
-0.04735883,0.5396228,0.8578496
-0.04644235,0.5373271,0.8547512
-0.04462869,0.5362405,0.850338
-0.04582441,0.5393461,0.8571739
-0.04355672,0.5434203,0.8637332
-0.03961378,0.5428349,0.8550542
-0.04029932,0.5423066,0.8496456
-0.03856764,0.5433423,0.8523088
-0.03697363,0.5401328,0.8525356
-0.03724838,0.5377108,0.8542716
-0.03635564,0.539171,0.8555654
-0.04148864,0.5394188,0.8561916
-0.04622798,0.5404589,0.8582851
-0.04271617,0.5423342,0.854563
-0.04041248,0.5418263,0.8486813
-0.04326611,0.54147,0.8499979
-0.04559523,0.5428988,0.8521089
-0.04514443,0.544154,0.8523781
-0.04256371,0.543891,0.8547516
-0.03901203,0.5433599,0.8544018
-0.04004504,0.5427384,0.8555059
-0.04310017,0.5414278,0.8581225
-0.04230387,0.5407184,0.8550091
-0.04317863,0.539328,0.8524478
-0.04435273,0.537422,0.8505932
-0.04341394,0.5408366,0.8492991
-0.04319313,0.5468153,0.8511516
-0.04031372,0.5455425,0.8529698
-0.03810788,0.5404788,0.8549149
-0.04120075,0.538116,0.8524733
-0.04554386,0.5391004,0.8499464
-0.04764908,0.5441909,0.8521181
-0.04820642,0.5468703,0.8513428
-0.04833813,0.544399,0.8510415
-0.04596007,0.5408559,0.8518573
-0.04328496,0.5375761,0.8508121
-0.0430398,0.5372444,0.8507178
-0.04132948,0.538874,0.8502443
-0.03847067,0.5409678,0.8529593
-0.03832308,0.5423785,0.8581089
-0.03866723,0.5411404,0.8591407
-0.03804296,0.5397505,0.8581354
-0.03989439,0.538522,0.8584604
-0.04183916,0.5388976,0.8600143
-0.04370936,0.5411856,0.8598195
-0.04874778,0.5419342,0.8578531
-0.04983764,0.5411349,0.8575696
-0.04766868,0.5378992,0.8564685
-0.04848467,0.5353354,0.8522408
-0.04711099,0.5377083,0.8501335
-0.04484897,0.5398274,0.851408
-0.04521929,0.5379334,0.8498934
-0.0424162,0.5368666,0.8479512
-0.03797766,0.5387863,0.8513971
-0.03829722,0.5392446,0.8571081
-0.0398641,0.5386585,0.8613568
-0.03962196,0.5393785,0.8619114
-0.04127656,0.5405969,0.8603537
-0.04245047,0.5418747,0.8602861
-0.04122423,0.5401493,0.859712
-0.04185005,0.5378092,0.8593011
-0.04282678,0.5397294,0.8601096
-0.04300626,0.5428634,0.8598001
-0.04373679,0.544941,0.8604485
-0.04440801,0.5436241,0.861297
-0.04548689,0.5391456,0.8592267
-0.04460357,0.5373175,0.8576321
-0.04363715,0.537958,0.8583128
-0.04469963,0.5400765,0.8586296
-0.04188747,0.5427157,0.8581568
-0.03716131,0.541824,0.8577497
-0.03531471,0.5410227,0.8554707
-0.03575571,0.542155,0.8514109
-0.03750481,0.5419173,0.8505575
-0.03992567,0.5432636,0.852597
-0.04537379,0.5452743,0.85493
-0.04832191,0.5444485,0.8578251
-0.04509292,0.5439109,0.8572401
-0.04276079,0.543827,0.8542058
-0.04027276,0.542909,0.8540327
-0.03894034,0.5437338,0.8541872
-0.03919042,0.5450645,0.8542155
-0.03576194,0.5436612,0.855315
-0.03536375,0.540604,0.8557767
-0.03660654,0.5389875,0.8562636
-0.03381863,0.5427814,0.8548156
-0.03322356,0.5479953,0.850912
-0.03531063,0.546105,0.85027
-0.03780204,0.5441079,0.8564128
-0.03968282,0.5454838,0.8628592
-0.04219227,0.5440832,0.860146
-0.04568342,0.5456545,0.8537945
-0.04370134,0.5472243,0.8502316
-0.04068471,0.5446464,0.8473063
-0.04061944,0.5461036,0.8481865
-0.03728215,0.5458568,0.8487248
-0.03459763,0.5422721,0.8466588
-0.03437864,0.5415366,0.8503558
-0.03213534,0.5411306,0.8545551
-0.03157404,0.5420405,0.8543497
-0.0342832,0.5418677,0.8541846
-0.03622972,0.5414003,0.8536501
-0.03650973,0.5442668,0.852465
-0.03672813,0.5455783,0.8514698
-0.03665933,0.546188,0.8536344
-0.03512492,0.5454341,0.8568388
-0.0341084,0.5426352,0.8546553
-0.03525108,0.5413887,0.8524469
-0.03671132,0.5416155,0.8508152
-0.03792519,0.5448676,0.8456744
-0.03878442,0.5467164,0.8446231
-0.03786795,0.5450566,0.8474521
-0.03458086,0.5430094,0.8495854
-0.03046206,0.539525,0.8539375
-0.03061962,0.538326,0.8559455
-0.03337449,0.5400233,0.8559426
-0.03386133,0.5438713,0.861975
-0.03828233,0.5476222,0.8660095
-0.04651724,0.5457079,0.8633899
-0.05001303,0.545365,0.8635789
-0.04706726,0.5484628,0.8654015
-0.04320423,0.5478902,0.8655863
-0.0445766,0.544244,0.8671662
-0.04418473,0.5402585,0.8683859
-0.03910111,0.5409716,0.8673086
-0.03694908,0.5428051,0.865386
-0.03772493,0.5398615,0.8630867
-0.03950318,0.5389578,0.8587507
-0.03728566,0.5392096,0.8523224
-0.03496244,0.53845,0.8478192
-0.03900743,0.5404264,0.8509056
-0.04122115,0.5413939,0.8565874
-0.04285185,0.5417148,0.8528922
-0.04655169,0.5420511,0.8481235
-0.04906273,0.5411758,0.8496144
-0.0482726,0.5419388,0.850134
-0.04293078,0.5420897,0.8542026
-0.04109789,0.5433112,0.8583659
-0.04020837,0.5462697,0.8574257
-0.03770468,0.5458696,0.8564271
-0.03930008,0.5443353,0.8529663
-0.03904625,0.542165,0.8529528
-0.03863995,0.5391601,0.8529739
-0.04043396,0.5389299,0.8490802
-0.04107315,0.5416077,0.855358
-0.04276298,0.5435515,0.8610699
-0.04427677,0.5405282,0.8578018
-0.0461642,0.5374369,0.8573974
-0.0456905,0.5390302,0.8571026
-0.04321049,0.54034,0.8550698
-0.04478236,0.542821,0.8560489
-0.04466274,0.5468361,0.857113
-0.04290206,0.5438445,0.8532677
-0.0425675,0.5393451,0.8498162
-0.03902869,0.5410009,0.8513801
-0.03559001,0.539718,0.8509836
-0.03559832,0.5366193,0.8494576
-0.03758249,0.5382487,0.8513106
-0.0420852,0.5394921,0.8542307
-0.04837918,0.5413487,0.8573091
-0.05006604,0.5430047,0.8586174
-0.04561702,0.5427648,0.8550869
-0.04421292,0.5451025,0.8492559
-0.04483038,0.5439266,0.8482265
-0.04353632,0.5381637,0.8529932
-0.04305295,0.5350855,0.8581284
-0.04074423,0.5359256,0.8593919
-0.03933124,0.5397173,0.8573
-0.03925033,0.5405776,0.8555349
-0.03806542,0.5375052,0.854281
-0.03937717,0.5335728,0.8561628
-0.03904114,0.5309693,0.8597667
-0.03882452,0.5347192,0.8571353
-0.04257546,0.5378365,0.8539648
-0.04546507,0.5370791,0.8540164
-0.04775014,0.5405943,0.8520427
-0.04830959,0.5447129,0.8511433
-0.04843849,0.5449148,0.8522779
-0.0490131,0.5436368,0.8530745
-0.04667362,0.5417157,0.8530204
-0.04421507,0.5395005,0.8525372
-0.04151068,0.5388514,0.8544331
-0.04080775,0.5393364,0.857211
-0.04250404,0.5385182,0.8589464
-0.04133062,0.5391891,0.8586049
-0.04219451,0.5410875,0.8574358
-0.04571589,0.5410288,0.8598688
-0.04747525,0.5385656,0.8602757
-0.04614595,0.5350147,0.8568945
-0.04305117,0.5379171,0.8578855
-0.04426297,0.5433921,0.8603246
-0.0440675,0.5426466,0.8595629
-0.04007108,0.5403879,0.8595011
-0.0404378,0.5381713,0.8601228
-0.04217366,0.5384183,0.8590725
-0.0432511,0.5408251,0.8579487
-0.04232119,0.5399537,0.856642
-0.03868622,0.5402858,0.8567508
-0.03774121,0.5406439,0.8593917
-0.03733186,0.5397275,0.8589514
-0.03761004,0.5414389,0.8543329
-0.04064496,0.5437052,0.8498376
-0.04508585,0.5462088,0.8506757
-0.04980592,0.5439611,0.8538145
-0.04899076,0.5401621,0.8523003
-0.04666363,0.5446724,0.8527185
-0.04729869,0.5474283,0.8549712
-0.0445087,0.5452016,0.8562955
-0.03983792,0.5457648,0.85918
-0.03599815,0.5457523,0.8556656
-0.03354001,0.5436661,0.8514372
-0.0315318,0.5416895,0.8535188
-0.02842729,0.541181,0.8546191
-0.03165054,0.5417892,0.8550033
-0.03747573,0.5407629,0.8515428
-0.03833939,0.5398471,0.8482057
-0.041396,0.5405238,0.8565119
-0.04547672,0.54235,0.8645743
-0.0456337,0.5472042,0.861344
-0.04340544,0.5517555,0.8593155
-0.04015753,0.5503045,0.8613353
-0.0396019,0.5477241,0.8555097
-0.0392286,0.5481277,0.8494168
-0.03764945,0.5464553,0.8514677
-0.03710464,0.5434678,0.85107
-0.03300628,0.5402889,0.8464574
-0.03017294,0.5385831,0.8432608
-0.03173663,0.5453771,0.8455038
-0.03039817,0.5503616,0.853515
-0.03016269,0.5439729,0.8588589
-0.03264409,0.5395663,0.8570292
-0.0348902,0.5427514,0.8520729
-0.03900206,0.5442421,0.8511871
-0.04156738,0.5423752,0.8546496
-0.04441868,0.5429542,0.8580168
-0.04811999,0.5432679,0.8585104
-0.04358622,0.5406874,0.8533366
-0.03655416,0.5403659,0.8507005
-0.03554919,0.5419575,0.8559719
-0.03315716,0.5432906,0.8599121
-0.02769846,0.5413422,0.8574322
-0.02512724,0.537164,0.8540819
-0.02614893,0.5382974,0.8558233
-0.03244125,0.5431093,0.8567698
-0.04065894,0.547231,0.8550402
-0.04191885,0.5467412,0.8554148
-0.04076525,0.5438164,0.8547021
-0.04239921,0.5438724,0.8538732
-0.0416392,0.5408124,0.8541399
-0.04076821,0.5386452,0.854178
-0.04034848,0.5407363,0.8548669
-0.03709556,0.5424259,0.8565833
-0.03694089,0.5471583,0.8593377
-0.03783404,0.5461478,0.8581342
-0.03526833,0.5421411,0.8535626
-0.03446323,0.5455913,0.8477166
-0.03627394,0.5445067,0.8426077
-0.0404435,0.5423133,0.8472947
-0.04472112,0.5430215,0.8540026
-0.04460531,0.5407938,0.854541
-0.04239261,0.5430527,0.8556451
-0.0415924,0.5456865,0.8540307
-0.04428813,0.5451438,0.8507709
-0.04612744,0.5437859,0.85248
-0.04137821,0.5403026,0.8543743
-0.03699981,0.5414297,0.8556821
-0.0389253,0.5426631,0.858455
-0.04095803,0.5407864,0.8595342
-0.04073373,0.5418393,0.8579591
-0.04206568,0.5409352,0.8559298
-0.04151082,0.5397498,0.8547164
-0.03831235,0.5414995,0.8518482
-0.03768688,0.5418897,0.8489116
-0.0398157,0.5422346,0.8490711
-0.04279229,0.5444251,0.8469983
-0.04266687,0.5477186,0.844844
-0.0443159,0.5488435,0.853777
-0.05278512,0.5472912,0.8665748
-0.0546408,0.544481,0.8659066
-0.04633707,0.5403037,0.8567633
-0.03831851,0.5404788,0.8515478
-0.03343321,0.5409431,0.8501933
-0.02907665,0.5357916,0.8521327
-0.02814845,0.5364209,0.8547769
-0.03609969,0.543319,0.859227
-0.04445196,0.5466505,0.8649131
-0.04869919,0.5434705,0.8605673
-0.05017124,0.5367681,0.8501185
-0.04755173,0.5357972,0.8429711
-0.05030065,0.5367882,0.8433239
-0.05475177,0.5356645,0.8509668
-0.05517287,0.5389242,0.8529754
-0.05396992,0.5423361,0.8537171
-0.04632974,0.5444928,0.8587892
-0.04117737,0.5445523,0.8586627
-0.03982888,0.5398893,0.8584822
-0.03807506,0.5372376,0.8599278
-0.04127733,0.5369924,0.859029
-0.04223033,0.5373524,0.8553939
-0.04160528,0.536062,0.8507391
-0.04313396,0.5335598,0.8521644
-0.04493616,0.535155,0.8535196
-0.04794787,0.5363199,0.8524538
-0.04817822,0.5376424,0.8538358
-0.04823544,0.5401525,0.853341
-0.04732134,0.53939,0.8522721
-0.04469135,0.539343,0.8506893
-0.04617691,0.5391324,0.8485364
-0.04763726,0.5386586,0.8491252
-0.0497282,0.5410808,0.8521095
-0.05242446,0.542177,0.8555074
-0.04943579,0.5416488,0.8544349
-0.04382234,0.5408297,0.85343
-0.04035004,0.5381048,0.8562964
-0.04115234,0.5358536,0.8583293
-0.04282435,0.5394664,0.8596979
-0.0422901,0.5450931,0.8566496
-0.04434989,0.5432572,0.8520615
-0.04715576,0.5400455,0.8535038
-0.04687236,0.540965,0.8541063
-0.04564781,0.5394124,0.8524549
-0.04347926,0.5380618,0.8521957
-0.04222578,0.5392915,0.8518067
-0.04117985,0.5389044,0.8556054
-0.03740711,0.5379704,0.8593969
-0.03539111,0.5355114,0.8539381
-0.03875068,0.5342867,0.8494356
-0.05066221,0.5436252,0.8533972
-0.06158018,0.5536201,0.8552153
-0.05340681,0.5477877,0.8518153
-0.04367046,0.5404065,0.8518678
-0.04950827,0.5430023,0.8579403
-0.04864847,0.5424022,0.8625245
-0.03750463,0.543109,0.8590446
-0.03286299,0.5477231,0.8547743
-0.03290354,0.5438068,0.8574666
-0.03313175,0.5388247,0.8578803
-0.03183735,0.5372824,0.8539019
-0.03214277,0.5377348,0.8546546
-0.03651531,0.5422012,0.8569276
-0.03940313,0.5429541,0.8569454
-0.04455052,0.5422262,0.8570767
-0.04722733,0.5410807,0.8572284
-0.04448117,0.5382909,0.8559225
-0.04647,0.5433092,0.8548426
-0.04559027,0.5482028,0.8558591
-0.04205829,0.5464448,0.8542655
-0.04078344,0.5468676,0.8520933
-0.03726028,0.547147,0.8527312
-0.03473405,0.5433615,0.8524426
-0.0308047,0.5404445,0.8511941
-0.03072164,0.541532,0.8488949
-0.03379808,0.5421373,0.8484872
-0.03123227,0.5403214,0.849936
-0.03361018,0.5411228,0.8509594
-0.03656394,0.5457568,0.8532432
-0.03562336,0.5501792,0.8534865
-0.03852581,0.5493216,0.8523002
-0.03870189,0.5472979,0.8476426
-0.03841881,0.5492595,0.8420083
-0.03926082,0.5481586,0.8448334
-0.03571007,0.5442876,0.8473423
-0.03119442,0.5430014,0.8467628
-0.02763204,0.5441537,0.8488983
-0.02798919,0.5468369,0.8523076
-0.02952696,0.544848,0.8563184
-0.02912429,0.5413449,0.8528442
-0.03289537,0.5419363,0.8463923
-0.03826069,0.5415389,0.849065
-0.04173598,0.5430714,0.8514076
-0.04379254,0.5462568,0.8505015
-0.0445555,0.5468377,0.850362
-0.04507525,0.5468332,0.8477347
-0.03887188,0.5456982,0.8481157
-0.03070469,0.5450771,0.8496614
-0.03186836,0.544387,0.848537
-0.03313188,0.5448291,0.8523476
-0.03093685,0.5463378,0.8545698
-0.0321612,0.542783,0.8486218
-0.03237159,0.5405841,0.8445891
-0.03205627,0.5419387,0.8493232
-0.03589743,0.5415269,0.8552058
-0.03893578,0.5406297,0.8526032
-0.03944739,0.5389738,0.8500163
-0.04051262,0.5398487,0.8519847
-0.04156195,0.5453225,0.8520653
-0.04172086,0.5500233,0.8544075
-0.04130376,0.5475533,0.856501
-0.0399321,0.5426155,0.8538139
-0.03720803,0.5436594,0.8529474
-0.03331801,0.5425623,0.8531024
-0.03031118,0.5408288,0.8511643
-0.03404738,0.5451936,0.8525051
-0.03995119,0.546368,0.854905
-0.03674294,0.5444634,0.8497032
-0.03426952,0.5424012,0.8432614
-0.03794804,0.5413309,0.844338
-0.03854459,0.5448734,0.8527893
-0.04052914,0.5479545,0.8612243
-0.04145014,0.5493594,0.8559147
-0.03899034,0.5492473,0.8478143
-0.04028074,0.5443472,0.8512875
-0.03791661,0.5382071,0.8531027
-0.03610713,0.5382824,0.8531872
-0.04459433,0.5436843,0.8601739
-0.05094144,0.5436593,0.8647438
-0.04509443,0.5362617,0.8552174
-0.03206787,0.530417,0.8372933
-0.026593,0.5352195,0.8323846
-0.03615773,0.5431496,0.8434775
-0.045125,0.5417501,0.8564075
-0.03865115,0.54326,0.8629242
-0.03361599,0.5472901,0.8631052
-0.0461901,0.5489014,0.8692237
-0.06010076,0.5548259,0.876205
-0.06392546,0.5454285,0.8619284
-0.05284806,0.5311567,0.8368114
-0.03802631,0.5364722,0.8294396
-0.04508909,0.5384144,0.8414494
-0.05252327,0.5369572,0.8546138
-0.0487658,0.542062,0.8591988
-0.04702919,0.5400092,0.8564883
-0.0320207,0.5364936,0.8522082
-0.02158454,0.5370794,0.8511421
-0.03362188,0.5403248,0.8523722
-0.04669315,0.5466266,0.855053
-0.05435467,0.5464541,0.8549325
-0.05295953,0.541911,0.8480462
-0.05018947,0.5413743,0.8422434
-0.05341864,0.5417321,0.8439699
-0.04940048,0.5426102,0.8481993
-0.04708847,0.5440863,0.8526024
-0.04921542,0.5454843,0.8593655
-0.04499254,0.5479011,0.8611815
-0.0434024,0.5460491,0.8587419
-0.04062004,0.5409807,0.8565691
-0.0342269,0.5383559,0.8456257
-0.03605854,0.5365791,0.8402465
-0.03822309,0.5360562,0.850062
-0.03792806,0.5371158,0.8534671
-0.04093857,0.5390223,0.8523751
-0.04264561,0.5417686,0.855558
-0.0452444,0.5445611,0.8578181
-0.04779506,0.5468739,0.8573024
-0.04758482,0.5452442,0.8548669
-0.04992952,0.5413674,0.8547474
-0.05121677,0.5389159,0.8529682
-0.0456542,0.5379896,0.8505578
-0.03758488,0.5395878,0.8501823
-0.03401989,0.5405146,0.8484247
-0.03371173,0.5427805,0.8530012
-0.03473722,0.5468614,0.8575075
-0.03893737,0.5456117,0.8543479
-0.03981697,0.5429383,0.8533885
-0.0384189,0.5403877,0.854655
-0.04126972,0.538596,0.8557459
-0.04382504,0.5444097,0.8577276
-0.0468152,0.5494169,0.857663
-0.04908778,0.5472375,0.853263
-0.04494561,0.5459524,0.8512419
-0.04021998,0.5455176,0.8548747
-0.03909827,0.5410788,0.8557328
-0.03732708,0.5379024,0.8570045
-0.03479584,0.5391578,0.8592359
-0.03525219,0.5393957,0.8561584
-0.03567695,0.5403301,0.8547755
-0.03690831,0.542566,0.8563301
-0.04204627,0.5412989,0.8577212
-0.04311436,0.5398538,0.8573396
-0.04342989,0.5401175,0.8520816
-0.04555618,0.540419,0.8486878
-0.03803008,0.5412864,0.8494031
-0.03271938,0.544128,0.8501859
-0.04641574,0.5471645,0.8561578
-0.05797784,0.5439139,0.86294
-0.04451044,0.5378623,0.8553777
-0.03087526,0.5365238,0.8427737
-0.03962707,0.5417796,0.8440983
-0.05225106,0.5495082,0.8553013
-0.0584426,0.5479963,0.8644674
-0.05045631,0.5443028,0.862285
-0.0356578,0.5469265,0.8564426
-0.04477388,0.5447269,0.8586871
-0.05525122,0.5407268,0.8560497
-0.04982339,0.5385459,0.8520159
-0.04896884,0.538053,0.8556152
-0.04220084,0.5429071,0.8558414
-0.03862222,0.5436363,0.8567976
-0.04415776,0.5416546,0.8561541
-0.03966052,0.5391912,0.8496679
-0.04061027,0.534861,0.8493967
-0.04872569,0.5400111,0.8563579
-0.05785203,0.5465997,0.8639632
-0.06606703,0.5460581,0.8622312
-0.05761297,0.5464764,0.8564417
-0.0495091,0.5492782,0.8520257
-0.05011619,0.5518802,0.8415463
-0.04826841,0.5475751,0.8442773
-0.0489867,0.5388806,0.8544096
-0.04870143,0.533187,0.8507743
-0.04892512,0.5291814,0.8536008
-0.04972545,0.5309084,0.8573874
-0.04601666,0.5344836,0.8514885
-0.04527017,0.5331483,0.8517094
-0.04694399,0.5343123,0.8550815
-0.05095028,0.5379041,0.8588938
-0.05784396,0.5404879,0.8593156
-0.05920415,0.54395,0.8556232
-0.05488447,0.5452616,0.8557078
-0.05117577,0.5455791,0.8535879
-0.05067514,0.5455767,0.8534379
-0.04982402,0.5441854,0.8552108
-0.04779918,0.5470689,0.8527105
-0.04774548,0.5482116,0.8545388
-0.0489024,0.5392269,0.8567201
-0.05236545,0.530966,0.8574405
-0.05676777,0.5334097,0.8607886
-0.05786495,0.5377088,0.8614982
-0.05796471,0.5356619,0.8596757
-0.05779472,0.5355583,0.8566889
-0.0555253,0.5378096,0.8554669
-0.05480496,0.5390816,0.8561991
-0.05482668,0.5438585,0.854667
-0.05187686,0.5439441,0.8540909
-0.05065733,0.5404116,0.8569118
-0.05148255,0.5404254,0.8597904
-0.05049496,0.5382017,0.8605471
-0.04808629,0.5383697,0.8628217
-0.0418482,0.5398778,0.8651853
-0.03562045,0.53831,0.8624384
-0.03932576,0.5407141,0.8579888
-0.04810747,0.5443879,0.8532627
-0.05100914,0.5458219,0.8513864
-0.05173983,0.5429375,0.8539021
-0.05382753,0.5382126,0.8542198
-0.05445192,0.5402874,0.8541987
-0.05485974,0.5415442,0.8549644
-0.05048601,0.5401209,0.8563516
-0.04401926,0.542376,0.8595674
-0.04515403,0.5417835,0.8585653
-0.0456995,0.5400496,0.856908
-0.04171882,0.5406083,0.8564145
-0.0406633,0.5394129,0.8534239
-0.04024277,0.5376653,0.8559974
-0.0384686,0.5355214,0.860663
-0.03964137,0.535782,0.8585785
-0.0421752,0.5393559,0.8552489
-0.04317433,0.5417035,0.8548665
-0.04585094,0.5438611,0.8556596
-0.04831307,0.5435356,0.8538766
-0.04719616,0.541562,0.8512465
-0.04659835,0.5410101,0.8503061
-0.04614666,0.5380639,0.8484151
-0.0428154,0.5380918,0.8502564
-0.04024307,0.5401237,0.8549439
-0.0399451,0.5388689,0.8538764
-0.03895504,0.542426,0.8513859
-0.03954408,0.5457481,0.8515544
-0.04285464,0.5420472,0.851208
-0.04345952,0.5389505,0.8513025
-0.04186979,0.538468,0.8529174
-0.04236228,0.5390068,0.8570476
-0.0460312,0.5393879,0.8619833
-0.04925756,0.5404465,0.8601338
-0.04463559,0.542398,0.8530541
-0.03931836,0.541799,0.8489201
-0.04309117,0.5412222,0.8507106
-0.04585555,0.5419783,0.854667
-0.04345595,0.5417922,0.8531401
-0.04201783,0.5424419,0.8534347
-0.04076489,0.5438306,0.8583868
-0.03988234,0.5448728,0.8557464
-0.03914759,0.5465147,0.8509235
-0.04102593,0.5480025,0.8488263
-0.04841749,0.5481802,0.851794
-0.05263208,0.5457269,0.8592739
-0.05076487,0.5407332,0.8561812
-0.04747003,0.5390278,0.8523546
-0.0439165,0.541061,0.8536298
-0.04112953,0.5412336,0.8499632
-0.03815796,0.5415627,0.8502548
-0.03778349,0.5421488,0.8505633
-0.03887976,0.5408946,0.8478109
-0.03600827,0.5399925,0.8482157
-0.03533229,0.5385156,0.8467099
-0.03741539,0.5387324,0.8476473
-0.03912268,0.5415276,0.8525717
-0.04498075,0.5427875,0.8585802
-0.04934949,0.5432361,0.8634814
-0.04858799,0.5418776,0.8604647
-0.04819371,0.5392291,0.8570796
-0.04689074,0.5393252,0.8562269
-0.04518496,0.5423038,0.853034
-0.0457541,0.5455603,0.852065
-0.0455939,0.544005,0.8527643
-0.04300594,0.5415257,0.8569424
-0.04079075,0.5427579,0.8616735
-0.04148849,0.541602,0.8600672
-0.04219909,0.540956,0.8609164
-0.0418745,0.5424386,0.861618
-0.04468732,0.5414748,0.8573954
-0.04866189,0.5424518,0.8573052
-0.04888956,0.5437297,0.860397
-0.04652296,0.543266,0.863421
-0.04539206,0.5457904,0.8618547
-0.04672031,0.5481209,0.8566091
-0.04759339,0.5459859,0.8559291
-0.04605552,0.5395847,0.855299
-0.04447195,0.5344863,0.8551923
-0.04446313,0.5372243,0.8563057
-0.0453458,0.5411092,0.8548897
-0.0454512,0.5403216,0.8552634
-0.04234158,0.5414441,0.8538273
-0.03965977,0.5428285,0.8539623
-0.04394101,0.5411441,0.8600579
-0.04954406,0.5434862,0.8609835
-0.04905818,0.5452826,0.8586306
-0.04832156,0.5420547,0.8587841
-0.05077444,0.5417536,0.8569594
-0.05118164,0.5443324,0.853543
-0.04731512,0.5467322,0.8523407
-0.0418803,0.5461197,0.8539576
-0.04081685,0.5439726,0.856997
-0.04409222,0.5441003,0.8596871
-0.04396532,0.5407561,0.8591279
-0.03890919,0.5375231,0.8562792
-0.03480436,0.5389853,0.8562156
-0.03850772,0.5395863,0.8580908
-0.04718562,0.5404959,0.8578786
-0.05111105,0.5421469,0.8555387
-0.05126687,0.5418287,0.8502991
-0.05146081,0.5403475,0.8465288
-0.05207277,0.5402382,0.8505711
-0.05242043,0.541552,0.8538367
-0.05075337,0.5426332,0.8533036
-0.04920004,0.5441048,0.8523941
-0.04485926,0.5456457,0.8488005
-0.04005032,0.5466947,0.8505413
-0.04443635,0.5424036,0.8539524
-0.04983624,0.5349008,0.8520117
-0.04967177,0.5341153,0.85356
-0.05087527,0.5332013,0.8561179
-0.05171415,0.5314057,0.8585489
-0.04789193,0.5361282,0.8585658
-0.04083806,0.5398604,0.8511276
-0.03552157,0.5419318,0.8485107
-0.03934591,0.5419569,0.8531837
-0.04875503,0.5387751,0.8607284
-0.05361739,0.5402965,0.8663661
-0.05461362,0.5400271,0.8569675
-0.05544957,0.5366548,0.8431401
-0.05441293,0.5377987,0.8437307
-0.04731879,0.5370226,0.8503447
-0.03927344,0.5339229,0.8509919
-0.04089023,0.5303469,0.8454345
-0.0450996,0.52919,0.8408766
-0.04959498,0.5382481,0.849511
-0.05777372,0.5480977,0.861369
-0.05399511,0.55135,0.8597835
-0.04478224,0.5519247,0.8566027
-0.04411481,0.5469525,0.8521602
-0.03547361,0.539777,0.8415577
-0.02283717,0.5410789,0.8412193
-0.02411408,0.547394,0.8466678
-0.03429191,0.5523868,0.8523266
-0.04557943,0.5592013,0.8606846
-0.04733758,0.5583014,0.8576029
-0.03897983,0.5467186,0.8501994
-0.03640823,0.5384902,0.8498729
-0.0410461,0.5344259,0.8560687
-0.04646267,0.5344452,0.8718937
-0.04794585,0.5362364,0.875587
-0.04409496,0.5383561,0.8617961
-0.0428195,0.5435014,0.8555203
-0.04661437,0.5401235,0.857816
-0.05006571,0.5331272,0.8601623
-0.04888997,0.5324213,0.8596482
-0.04758487,0.5357805,0.8602753
-0.0490164,0.543519,0.8600413
-0.04637555,0.5454024,0.8547113
-0.04251674,0.5441144,0.8549489
-0.0402373,0.5428507,0.8485884
-0.03835716,0.5365902,0.838955
-0.04246308,0.5382536,0.8518706
-0.04941649,0.5406237,0.864834
-0.05401728,0.5364382,0.8602424
-0.05586267,0.5373544,0.8541215
-0.05418674,0.5369759,0.8512001
-0.05205259,0.536869,0.8514033
-0.05088998,0.5378004,0.8563194
-0.05119829,0.5304502,0.859111
-0.05185223,0.5288418,0.8537461
-0.05178629,0.5360981,0.8503203
-0.0572951,0.5378738,0.8567801
-0.06986677,0.5373489,0.8649333
-0.07619387,0.5367267,0.8666825
-0.06146599,0.5317912,0.8644912
-0.04045966,0.5277119,0.864304
-0.03760378,0.5305714,0.8623454
-0.03748511,0.5399669,0.8554267
-0.03121737,0.5481963,0.8493471
-0.04068475,0.5505712,0.8502293
-0.0558285,0.5520712,0.8532262
-0.05862022,0.5503801,0.8506486
-0.06319785,0.5443993,0.8507971
-0.06971072,0.5446984,0.8540356
-0.06724151,0.5461757,0.8577131
-0.06501791,0.5409103,0.86587
-0.06208942,0.53806,0.8650774
-0.05393139,0.5365891,0.8597488
-0.05344738,0.5338442,0.8621002
-0.05560758,0.531557,0.8618446
-0.05268251,0.5262891,0.8613276
-0.05317919,0.5279809,0.8587046
-0.05403083,0.5341526,0.8514029
-0.05550857,0.5327012,0.8530151
-0.05786932,0.5315788,0.8583187
-0.0561237,0.5311455,0.8601471
-0.05799238,0.5335218,0.8591147
-0.06218562,0.5401098,0.854414
-0.03333586,0.6261424,0.7966694
-0.02852728,0.6223173,0.7961682
-0.02502242,0.6188662,0.7995428
-0.02805473,0.6189361,0.8050949
-0.03068405,0.6220609,0.8056745
-0.02806163,0.6251792,0.802394
-0.02624312,0.629144,0.8041045
