accx,accy,accz
-0.3061294,0.4212943,0.7951628
-0.3068351,0.4122584,0.8075554
-0.3145757,0.4065839,0.8227302
-0.335453,0.4017748,0.8668908
-0.3692824,0.3896281,0.8993922
-0.3868658,0.3810076,0.8952279
-0.3756925,0.3821247,0.8784062
-0.3652781,0.3823428,0.8729755
-0.3597162,0.3852838,0.8775101
-0.3510629,0.3856461,0.8802573
-0.3592741,0.3733641,0.8834684
-0.3728256,0.3499816,0.8800484
-0.3720578,0.3224199,0.8771675
-0.3716807,0.3048477,0.8810493
-0.368787,0.301673,0.8791714
-0.3634358,0.3042426,0.8823727
-0.3619735,0.3033044,0.8895445
-0.3603869,0.2984855,0.8942662
-0.3650093,0.2917801,0.8961055
-0.3668926,0.2749727,0.8923097
-0.3684823,0.2546043,0.8952643
-0.3791636,0.2382677,0.8957128
-0.3895634,0.2160693,0.8952546
-0.3997407,0.1995504,0.9042913
-0.3970171,0.1920913,0.9067854
-0.3844546,0.1767649,0.9072335
-0.3833531,0.1603432,0.9092349
-0.3950433,0.1389509,0.9147859
-0.4162269,0.108679,0.9228251
-0.421376,0.08727318,0.9124817
-0.411344,0.0707358,0.9019066
-0.4092408,0.05342015,0.9076477
-0.3975265,0.03521762,0.9085616
-0.3817139,0.01823409,0.9055668
-0.3773811,0.007382343,0.9082695
-0.3801675,-0.00630576,0.9089738
-0.3926588,-0.0137238,0.9063479
-0.399705,-0.01746047,0.9041319
-0.3942064,-0.02512508,0.8982953
-0.3876213,-0.02031948,0.8960693
-0.3882818,-0.01779211,0.9079665
-0.4008785,-0.01941056,0.9216898
-0.4151071,-0.02196577,0.9269901
-0.4186759,-0.034095,0.9292889
-0.4080184,-0.03168203,0.9243211
-0.3983248,-0.03125513,0.9122927
-0.400038,-0.04619754,0.9132129
-0.3994037,-0.05094025,0.9137575
-0.3962549,-0.051372,0.8918701
-0.3949965,-0.04934482,0.8772394
-0.4043044,-0.05057858,0.8827236
-0.4307335,-0.05910818,0.8858688
-0.4454105,-0.07334,0.8816516
-0.4313647,-0.1043022,0.8837262
-0.4155134,-0.1193237,0.9021685
-0.4151937,-0.1083745,0.9166182
-0.4100798,-0.1075474,0.907682
-0.406213,-0.1114725,0.8967518
-0.4182984,-0.1082418,0.9022521
-0.420371,-0.106142,0.9057083
-0.4197795,-0.104853,0.9054329
-0.422794,-0.09989763,0.9099594
-0.4151477,-0.09774163,0.9047797
-0.411995,-0.1027287,0.902956
-0.4052803,-0.1060957,0.9025629
-0.3998913,-0.1080283,0.8941654
-0.4073093,-0.1136663,0.8967378
-0.407379,-0.1269902,0.8942735
-0.4067347,-0.1498914,0.8923787
-0.4078349,-0.1733452,0.8983552
-0.4092228,-0.1881557,0.8978881
-0.4146896,-0.1919353,0.9058358
-0.4118526,-0.1949827,0.9032285
-0.4006435,-0.204276,0.8852563
-0.3815796,-0.2115819,0.8718036
-0.3679368,-0.224834,0.8646763
-0.3682344,-0.2538858,0.8721478
-0.3663626,-0.2788816,0.8726367
-0.368094,-0.291816,0.8665674
-0.3756447,-0.3006259,0.8655364
-0.3790441,-0.2997072,0.8549972
-0.378539,-0.302496,0.8547107
-0.3762628,-0.3206866,0.8591409
-0.3761969,-0.340485,0.8540995
-0.3724711,-0.3602976,0.8550065
-0.363462,-0.3849365,0.846142
-0.3561086,-0.4082359,0.8277754
-0.3540189,-0.4168305,0.8189377
-0.3608,-0.4255581,0.8126338
-0.3669743,-0.4405102,0.8069114
-0.3694748,-0.4366461,0.8087279
-0.3714676,-0.441425,0.8131931
-0.3652575,-0.4556379,0.8100854
-0.3584014,-0.4509291,0.8066289
-0.3576146,-0.4523493,0.8024319
-0.3576658,-0.4512497,0.7878357
-0.355034,-0.4503259,0.7829441
-0.3450205,-0.4681238,0.7904347
-0.334144,-0.4841708,0.7903032
-0.3310826,-0.5062965,0.7854282
-0.338486,-0.5257631,0.7826314
-0.3486269,-0.5197535,0.7867927
-0.3473831,-0.5056994,0.7933079
-0.3425189,-0.5036362,0.7936069
-0.3400768,-0.5072605,0.7942786
-0.3336216,-0.5038195,0.7935097
-0.3254546,-0.5031703,0.7878281
-0.3212452,-0.5015699,0.7824636
-0.3248435,-0.5005326,0.7780858
-0.3252858,-0.5083544,0.7769362
-0.3173866,-0.514031,0.7784881
-0.3138864,-0.5235337,0.7799561
-0.31485,-0.5220565,0.7830917
-0.315954,-0.510686,0.7863493
-0.3153395,-0.5074397,0.7885584
-0.3161488,-0.4930879,0.7917516
-0.3241328,-0.4877277,0.795353
-0.329154,-0.4985766,0.7982795
-0.324382,-0.5023636,0.7993228
-0.3165322,-0.5096024,0.7967868
-0.3125528,-0.5132992,0.7887694
-0.3082551,-0.5143667,0.7759217
-0.3038278,-0.5207171,0.7701813
-0.3107475,-0.5194033,0.7757802
-0.3170334,-0.5178847,0.7783147
-0.3157156,-0.5190888,0.7776863
-0.3169213,-0.5202034,0.7789879
-0.3151257,-0.5258552,0.7752524
-0.3101929,-0.5334363,0.771045
-0.3045047,-0.5471423,0.7680075
-0.3011363,-0.5578757,0.7631332
-0.3050408,-0.5536368,0.7628291
-0.3057152,-0.5498688,0.7604726
-0.3006204,-0.5511436,0.7535437
-0.2956501,-0.5529496,0.7525939
-0.2901344,-0.5609612,0.7563359
-0.2846961,-0.5666549,0.7596484
-0.2845315,-0.565124,0.758828
-0.2891409,-0.5635066,0.7567972
-0.291995,-0.5574185,0.7573153
-0.2967693,-0.5492687,0.7553968
-0.2979734,-0.5475076,0.7570499
-0.2941764,-0.546563,0.7621759
-0.3003441,-0.5464115,0.7598243
-0.3045248,-0.5514578,0.7555845
-0.302609,-0.5544835,0.7562534
-0.3048046,-0.5562514,0.7628305
-0.3018589,-0.5612142,0.7687674
-0.298579,-0.5621965,0.7642852
-0.2986467,-0.5583141,0.7602754
-0.2971517,-0.554129,0.7624422
-0.2948299,-0.5552392,0.758913
-0.2899639,-0.5610333,0.7523953
-0.2911293,-0.5627529,0.7519535
-0.2948833,-0.5656597,0.7537127
-0.2957292,-0.569214,0.7544207
-0.3000634,-0.5695997,0.7563462
-0.2993103,-0.5726371,0.7579146
-0.2969462,-0.5730985,0.7592109
-0.2986098,-0.574348,0.7604913
-0.2958401,-0.5774289,0.7580552
-0.2951749,-0.5744438,0.7515915
-0.2975186,-0.5735922,0.7431299
-0.2970693,-0.578205,0.7400627
-0.2971867,-0.5814462,0.7444912
-0.2963479,-0.5770487,0.747852
-0.2953472,-0.5705344,0.7506856
-0.2960233,-0.5703425,0.7513867
-0.2959911,-0.5694165,0.7492839
-0.29651,-0.5685489,0.7514474
-0.2968423,-0.5693009,0.7512762
-0.2962999,-0.5672567,0.7510068
-0.296378,-0.5667823,0.756272
-0.2959042,-0.5660518,0.7569122
-0.2949513,-0.5646188,0.7543427
-0.2933321,-0.5664407,0.7520465
-0.2911155,-0.5666046,0.7512291
-0.2922054,-0.5635511,0.7504916
-0.2953562,-0.5608582,0.7457851
-0.2963008,-0.5608907,0.7492547
-0.2972376,-0.563374,0.7579545
-0.296952,-0.5643797,0.7634053
-0.2948696,-0.563478,0.7691201
-0.2959682,-0.5616687,0.7668459
-0.2964852,-0.5591355,0.7640398
-0.2961023,-0.5597955,0.7656171
-0.2977342,-0.5635805,0.7601824
-0.296367,-0.5644881,0.7573139
-0.2958391,-0.5615268,0.7617512
-0.3006539,-0.5593147,0.7674779
-0.3072367,-0.5578462,0.774582
-0.3118478,-0.5536124,0.7804224
-0.3114547,-0.5489001,0.7809941
-0.3091741,-0.5451384,0.7739182
-0.3030603,-0.5389204,0.7673694
-0.2914439,-0.533396,0.7666193
-0.2874619,-0.5338831,0.7663469
-0.292047,-0.5382533,0.7659447
-0.2946956,-0.5432618,0.7649494
-0.2986599,-0.5433576,0.7657441
-0.3046556,-0.5364562,0.7695342
-0.3062702,-0.5322939,0.7727518
-0.3057117,-0.5328881,0.7761153
-0.3056992,-0.5323837,0.7811953
-0.3075434,-0.5287764,0.7867494
-0.3110626,-0.5199087,0.7861841
-0.3124518,-0.5076096,0.7847851
-0.3153854,-0.4990215,0.7876442
-0.3207364,-0.5006835,0.7844735
-0.3247394,-0.5041275,0.7849647
-0.3280759,-0.5018792,0.7905618
-0.325374,-0.501819,0.790195
-0.3202025,-0.4966137,0.7968984
-0.3242343,-0.4842005,0.8038656
-0.3292867,-0.4785592,0.8014841
-0.3312389,-0.4783326,0.8045977
-0.3398387,-0.4785415,0.8107077
-0.3477861,-0.4742573,0.8112439
-0.3467968,-0.4626081,0.8076233
-0.3416499,-0.4520027,0.8070716
-0.3358148,-0.4510387,0.8105021
-0.3321692,-0.4521948,0.8113582
-0.3285872,-0.4438275,0.8161263
-0.3291005,-0.4376215,0.8235033
-0.3387637,-0.4332206,0.828032
-0.3451515,-0.4257629,0.829457
-0.3491931,-0.4251242,0.8240123
-0.3589302,-0.4157554,0.8215033
-0.3638926,-0.4072837,0.8227035
-0.3609835,-0.4133447,0.826523
-0.3608101,-0.405586,0.8358364
-0.3633519,-0.3922268,0.8344853
-0.3584689,-0.3856029,0.830253
-0.3504202,-0.3793066,0.8320219
-0.3474105,-0.3776841,0.830666
-0.3478762,-0.3734725,0.8341147
-0.3497286,-0.3744065,0.8389972
-0.3490211,-0.378914,0.8440625
-0.3518909,-0.375513,0.8487023
-0.359523,-0.3720816,0.8467791
-0.3644557,-0.3614573,0.8509566
-0.3711904,-0.3502382,0.8517988
-0.3733714,-0.3437127,0.8491699
-0.3706586,-0.3314316,0.8577741
-0.3715544,-0.3274629,0.8624133
-0.3713272,-0.3290639,0.8632081
-0.3763446,-0.3221246,0.8589403
-0.3834421,-0.3067626,0.849366
-0.3807681,-0.2927635,0.8485852
-0.3733856,-0.296203,0.8431099
-0.3644733,-0.2973017,0.8409578
-0.3626448,-0.2865871,0.8573326
-0.3720505,-0.2821531,0.8712706
-0.3832516,-0.2651182,0.8753585
-0.3933651,-0.241247,0.8777876
-0.3940407,-0.2391948,0.8831789
-0.3802551,-0.22847,0.8835572
-0.3696891,-0.2049072,0.8778034
-0.3765863,-0.202868,0.8807304
-0.3875836,-0.1898686,0.8863909
-0.3882027,-0.1598434,0.8920651
-0.3872251,-0.1558419,0.8977445
-0.388386,-0.1419091,0.8975295
-0.3896178,-0.1070272,0.9041882
-0.3929612,-0.09015497,0.9142575
-0.3919111,-0.06742032,0.9214982
-0.3910195,-0.04075611,0.928034
-0.3943857,-0.02317735,0.9249506
-0.3920678,0.004161297,0.9180716
-0.3798862,0.02124484,0.9117523
-0.3605183,0.02866762,0.9137151
-0.3553618,0.04039486,0.9304239
-0.3711625,0.05283405,0.9413369
-0.3780798,0.07946789,0.9411987
-0.3700869,0.1031381,0.9378896
-0.3655422,0.1073886,0.9363865
-0.3685114,0.1154035,0.937988
-0.3701134,0.1281979,0.9348522
-0.3685202,0.1378005,0.9313149
-0.3685295,0.1638825,0.9300532
-0.3611042,0.1880632,0.9296656
-0.3482453,0.1784389,0.9291315
-0.3467669,0.1765773,0.9239945
-0.3568974,0.1893777,0.9225225
-0.3663736,0.1893553,0.9233514
-0.364135,0.1992826,0.9188833
-0.3582514,0.204666,0.9154132
-0.357534,0.2047513,0.9168091
-0.3576032,0.219913,0.9205101
-0.364124,0.2211219,0.9192153
-0.3696506,0.2242686,0.913776
-0.3610974,0.2449456,0.9100793
-0.3503005,0.2572763,0.9081885
-0.3445849,0.2613676,0.9114856
-0.3404446,0.2651416,0.9154367
-0.3393102,0.2814482,0.9119192
-0.3367442,0.2963204,0.9050312
-0.3301197,0.2902796,0.9003138
-0.3322299,0.2871307,0.8942615
-0.3377768,0.2899967,0.8802484
-0.3335752,0.2917977,0.8706141
-0.3314554,0.3074759,0.8830398
-0.3238603,0.3360913,0.896738
-0.3096804,0.3506627,0.8900793
-0.312556,0.3461954,0.8832658
-0.3152304,0.3534904,0.8823139
-0.3108125,0.3723484,0.8793658
-0.3177936,0.4022224,0.8769253
-0.3191069,0.4535214,0.8609905
-0.3042553,0.4898447,0.8420658
-0.2871428,0.5056945,0.8368594
-0.280997,0.5321584,0.8253438
-0.2850399,0.5650106,0.8088826
-0.2821414,0.5953837,0.7980535
-0.2746752,0.6235915,0.7871056
-0.2668071,0.6462073,0.7756558
-0.2542482,0.6575726,0.7634369
-0.2503419,0.6637042,0.7510883
-0.2474987,0.6723193,0.7351156
-0.2371596,0.674485,0.7167467
-0.2368825,0.67735,0.7059909
-0.240118,0.6861153,0.7051086
-0.240955,0.6962789,0.7086508
-0.2484029,0.717072,0.7087611
-0.2533103,0.7360121,0.708417
-0.2513462,0.7411822,0.7061706
-0.2484298,0.738615,0.6983035
-0.2463052,0.7326219,0.6959639
-0.2448039,0.7320537,0.6912214
-0.2439527,0.7348907,0.6788026
-0.242045,0.7443238,0.6699016
-0.234186,0.76129,0.6594664
-0.2269921,0.77231,0.6549352
-0.2241684,0.7756205,0.6599106
-0.2149382,0.7688417,0.657327
-0.2013026,0.7584813,0.6531109
-0.1909884,0.751327,0.6520001
-0.1842541,0.7481521,0.6465246
-0.1805601,0.759328,0.6374793
-0.1810731,0.7793623,0.6224534
-0.1883673,0.7997567,0.6133531
-0.1949102,0.8081301,0.6168483
-0.1924172,0.8033886,0.6155058
-0.1850033,0.8063627,0.6128332
-0.1773843,0.8065018,0.6097118
-0.1717752,0.8039577,0.5965915
-0.1706426,0.8096659,0.5899032
-0.1745356,0.8131055,0.5858517
-0.1790983,0.8256124,0.5662427
-0.1804187,0.8411174,0.5510722
-0.1821236,0.8459994,0.5542488
-0.1842584,0.8529182,0.5520042
-0.1822256,0.8612441,0.5350302
-0.1789003,0.8744314,0.5195891
-0.1736706,0.8916699,0.510339
-0.1630621,0.8980741,0.5104588
-0.1554354,0.8969585,0.5127751
-0.1549016,0.8953447,0.5087606
-0.1612588,0.8942952,0.5168999
-0.1724407,0.8959676,0.5228905
-0.1753499,0.8980476,0.5072625
-0.1736065,0.8954674,0.4907239
-0.1731007,0.8890615,0.483716
-0.1635829,0.8803263,0.4892279
-0.150996,0.8723429,0.4949709
-0.1408413,0.8725672,0.4940732
-0.1349082,0.8738615,0.4994269
-0.1404783,0.8712923,0.5016652
-0.1453237,0.8734361,0.5011036
-0.145042,0.8791663,0.5006245
-0.1476162,0.8842359,0.4960397
-0.1454376,0.8842685,0.4956797
-0.1378989,0.8801857,0.4950631
-0.1298649,0.8817975,0.4908094
-0.1203466,0.8887805,0.4780063
-0.1174833,0.8979986,0.4599734
-0.1221839,0.9049769,0.4568966
-0.1232737,0.9057513,0.4614153
-0.1225361,0.9058913,0.4633742
-0.1237197,0.9041421,0.467756
-0.1219684,0.9015668,0.47043
-0.1213786,0.9037341,0.4644111
-0.1280129,0.9125787,0.4500681
-0.1328551,0.9289674,0.4369489
-0.1225587,0.9413883,0.4310284
-0.1029912,0.9519174,0.4295593
-0.08779563,0.9618269,0.4265314
-0.07658294,0.9569397,0.4179257
-0.07058262,0.9564602,0.4033438
-0.0664791,0.9639676,0.3884687
-0.05796676,0.9617762,0.3806424
-0.05378502,0.9647987,0.379701
-0.04805374,0.9690672,0.3929595
-0.03740303,0.9664732,0.4096002
-0.03077767,0.9670156,0.4102043
-0.01582514,0.960154,0.411945
-0.0008891566,0.9461711,0.4147509
-0.0009102985,0.9350121,0.4112724
0.0001694189,0.9227536,0.4159083
0.001425878,0.9143103,0.420365
-0.003410418,0.9164847,0.4210044
-0.008914014,0.9216289,0.4229907
-0.01751584,0.9252212,0.4199289
-0.02699274,0.9326382,0.4139876
-0.0282754,0.9396204,0.4095029
-0.02106042,0.9454943,0.4106446
-0.01960502,0.9518226,0.4152521
-0.02364391,0.9463189,0.4181677
-0.02600993,0.9426806,0.4201864
-0.03278039,0.9591085,0.4105051
-0.03354851,0.9712883,0.3938243
-0.02337209,0.9581529,0.3946633
-0.01027922,0.9306989,0.409442
0.00158679,0.9096723,0.4188633
0.002456376,0.9111163,0.4153008
-0.001175748,0.9342942,0.4076922
-0.0005913464,0.9534617,0.4046193
0.004643863,0.9496936,0.398473
0.01635266,0.9340118,0.3974052
0.02615754,0.9182738,0.4011191
0.03094021,0.9128865,0.3953802
0.02889208,0.9258205,0.3962783
0.02388567,0.9415969,0.3995124
0.02586578,0.945509,0.3945178
0.02972619,0.9433316,0.3931552
0.03910862,0.9456315,0.3843328
0.05152367,0.9525741,0.3738374
0.05257829,0.9560067,0.3685528
0.05222695,0.9554805,0.3564491
0.05529781,0.9570707,0.3530334
0.05529218,0.9627087,0.3553343
0.05899583,0.9674328,0.3506486
0.06418529,0.9606268,0.3532205
0.06020647,0.9487123,0.3647629
0.05223265,0.9490952,0.3739638
0.04946111,0.9538903,0.3702684
0.05089585,0.9560615,0.3569673
0.05645925,0.9595035,0.3428491
0.06151807,0.9567942,0.3346002
0.05431401,0.9544472,0.357553
0.03557299,0.9600658,0.3911772
0.02202591,0.96593,0.3865866
0.0308157,0.968018,0.3726341
0.04572055,0.9597249,0.3707678
0.04251285,0.9483277,0.3610915
0.03710885,0.9496638,0.3594419
0.0373105,0.9558518,0.3636931
0.03891342,0.9573657,0.360559
0.04548241,0.9535733,0.3575859
0.04229864,0.9412642,0.3517147
0.0355102,0.925965,0.3522613
0.03414602,0.9201856,0.3564366
0.02905143,0.927094,0.3535793
0.0342468,0.940149,0.3570983
0.04277848,0.9505392,0.3617493
0.04012709,0.9444165,0.359273
0.03469993,0.9177582,0.3520327
0.02458857,0.8944479,0.3424243
0.02081618,0.8937202,0.3418802
0.02624908,0.90885,0.3394897
0.02877062,0.9355776,0.3254885
0.03395774,0.9669098,0.3170537
0.03769723,0.9805251,0.3077606
0.03853606,0.9876465,0.2897506
0.04186058,0.9974013,0.278923
0.04612459,0.9766492,0.2494819
0.05354676,0.9563513,0.1959238
0.0527974,0.9616109,0.1928824
0.04428383,0.9477952,0.2304093
0.03898279,0.9381744,0.249036
0.02682484,0.9549495,0.274825
0.01481996,0.9824514,0.2888809
0.009253141,1.025163,0.2727634
0.006925425,1.061812,0.260873
0.01779902,1.069938,0.2347503
0.02369681,1.029617,0.2254668
0.01689761,0.9789995,0.2475673
0.01842796,0.980483,0.2458689
0.0290748,0.9883024,0.2421809
0.0388237,0.9820974,0.2334882
0.03042031,1.001771,0.2054102
0.01830675,1.027716,0.1992588
0.02499461,1.029194,0.2076642
0.02800153,1.016577,0.2120385
0.0328721,1.005499,0.2079959
0.04457069,0.9922273,0.2075047
0.03905171,0.9794576,0.2253262
0.03497923,0.9699877,0.2369712
0.04292301,0.964639,0.2294412
0.04428201,0.9769121,0.2017724
0.04322912,0.9997202,0.1739273
0.04223401,1.023256,0.1754659
0.03385934,1.041098,0.1890387
0.0265392,1.037388,0.1903071
0.03021107,1.024471,0.1778542
0.03262215,1.013677,0.1687481
0.02111865,1.001154,0.1740542
0.009240523,0.9977223,0.1810563
0.01006132,0.9990941,0.1802184
0.02029286,0.994773,0.1749689
0.0336204,0.9946859,0.1711724
0.04222103,1.007042,0.1717481
0.04450763,1.020049,0.1844283
0.03957604,1.012236,0.2009602
0.0301399,0.9941278,0.2058541
0.02902859,0.9857886,0.2062315
0.02754432,0.982129,0.2085567
0.01452319,0.9839114,0.2160187
0.004846342,0.9860703,0.2199603
0.008580078,0.9853382,0.207989
0.02014743,0.9885087,0.1949656
0.02969971,0.9886358,0.1954328
0.03295328,0.9913729,0.199747
0.026204,0.9950701,0.1980256
0.01474308,0.9920085,0.1991702
0.01471707,0.9931924,0.2008109
0.01880619,0.9935122,0.1987422
0.0199679,0.992317,0.2018703
0.02302508,0.9943313,0.2010669
0.02676419,0.9962929,0.1963625
0.03408127,1.004086,0.1925923
0.03678719,1.010409,0.1855416
0.03601312,1.009916,0.1802348
0.03889167,1.008369,0.1725452
0.03722003,1.006006,0.1650951
0.037947,1.005241,0.1605791
0.04008077,1.005949,0.1588114
0.0377441,1.0084,0.1650823
0.03741276,1.010103,0.1636258
0.03618169,1.005785,0.1568502
0.03894908,0.9982149,0.1523881
0.04553616,0.9953343,0.1439945
0.04663404,1.003803,0.1436683
0.04454803,1.011855,0.143906
0.03908228,1.008258,0.1426278
0.03347393,1.00576,0.1480745
0.03349949,1.006858,0.1474019
0.03393257,1.000637,0.1476941
0.03121857,0.9929207,0.1496958
0.03119669,0.9920479,0.1477457
0.03269408,0.9937484,0.1470212
0.02958936,0.9950789,0.1377382
0.02841286,0.9964496,0.1275181
0.03090565,0.9987501,0.1258617
0.03510519,1.003437,0.1210344
0.04240971,1.007043,0.1130765
0.04695826,1.005925,0.1061216
0.05141502,1.005422,0.09677171
0.0544726,1.010609,0.0918278
0.05602027,1.014388,0.08961076
0.06864209,1.014363,0.07193727
0.07609614,1.01666,0.05645921
0.06824817,1.01918,0.05593805
0.06729522,1.018832,0.04856842
0.07441333,1.014521,0.042576
0.0807847,1.008252,0.04173623
0.08477981,1.008014,0.03779547
0.0846866,1.013848,0.03845039
0.0871893,1.018484,0.03870585
0.09032797,1.017824,0.03169435
0.08960988,1.012411,0.01399536
0.09321648,1.006182,-0.0009967537
0.09982602,1.004346,0.005200716
0.1009504,1.007385,0.01611809
0.09938471,1.010266,0.01719713
0.09931269,1.010985,0.0156659
0.09899776,1.008453,0.01291347
0.09841819,1.00298,0.006840334
0.09764512,0.9989445,0.002775246
0.09738161,0.9977622,0.002421346
0.1003761,1.003404,-0.001900787
0.1040464,1.014978,-0.01708306
0.1043601,1.022132,-0.03782984
0.1008851,1.025241,-0.05172101
0.09714391,1.021406,-0.05410319
0.0976495,1.008435,-0.04901788
0.1018546,1.002805,-0.04919844
0.1050737,1.002528,-0.05257281
0.1019369,1.000135,-0.0484303
0.09810252,1.00749,-0.04193582
0.1014022,1.020407,-0.03574784
0.1067627,1.023539,-0.04527228
0.1127074,1.014514,-0.06304025
0.1160731,1.006939,-0.05858562
0.1130982,1.00974,-0.05394462
0.1136939,1.009612,-0.0595
0.1168949,1.001979,-0.06493272
0.1173315,0.9951686,-0.0758087
0.1188996,0.9918117,-0.07415169
0.1191577,0.990707,-0.06862729
0.1207569,0.9870495,-0.07585002
0.1254495,0.9847709,-0.07957429
0.1271641,0.9933779,-0.08615322
0.1275916,1.009628,-0.0947353
0.1278719,1.022801,-0.09982459
0.1286709,1.02564,-0.1121946
0.1297255,1.015096,-0.1169302
0.1286809,0.9977822,-0.1146345
0.1283305,0.9902453,-0.1184711
0.127832,0.992517,-0.1184475
0.1284611,0.9924994,-0.1173077
0.1308473,0.9938889,-0.1166036
0.131151,0.9979435,-0.1154252
0.133502,0.9979394,-0.1208246
0.1383476,0.9974624,-0.1257336
0.1428276,0.9980579,-0.1258728
0.1464857,0.9935225,-0.1258435
0.1458649,0.9884656,-0.1268506
0.1423876,0.9921137,-0.1255502
0.1400908,0.9966617,-0.1247504
0.1397234,0.9946187,-0.1299659
0.1398046,0.9903666,-0.1355881
0.1400603,0.9863134,-0.1405282
0.1429884,0.9881448,-0.144681
0.1458574,0.9942155,-0.1483188
0.1453441,0.9949661,-0.1531423
0.1454749,0.9943152,-0.1541556
0.1464808,0.9945983,-0.1558878
0.1460357,0.9942871,-0.1587312
0.148374,0.9956846,-0.1623681
0.1526621,0.995084,-0.1680747
0.1572513,0.9913044,-0.1610304
0.1637258,0.9876877,-0.1493297
0.1638672,0.9880783,-0.1500216
0.1597082,0.990183,-0.1564863
0.1605118,0.9882892,-0.1662735
0.1593608,0.9880203,-0.172522
0.155624,0.9870647,-0.1691677
0.1528991,0.9832824,-0.1666859
0.1504772,0.9856451,-0.1624445
0.1540996,0.9871878,-0.1547401
0.1574546,0.9853823,-0.1583135
0.1557922,0.9870752,-0.1657782
0.1567193,0.9904686,-0.1672851
0.1557059,0.9961241,-0.1723765
0.1533541,0.9984248,-0.1693044
0.156101,0.9936109,-0.159108
0.1575029,0.9895922,-0.1621287
0.1532203,0.9869216,-0.1603975
0.1442391,0.9835854,-0.1524522
0.1366943,0.9829477,-0.1543262
0.1386472,0.985386,-0.1511478
0.1440718,0.9871801,-0.1469958
0.1443081,0.9883534,-0.1498257
0.1417847,0.9936683,-0.1526453
0.1416702,1.003224,-0.1557236
0.1503811,1.008099,-0.153997
0.1615054,1.000206,-0.1532994
0.1589191,0.9909738,-0.1552887
0.1538497,0.9932961,-0.1530437
0.1538353,0.9944187,-0.1512922
0.1460112,0.9907398,-0.1440661
0.1421922,0.9946505,-0.1331976
0.151178,1.003011,-0.1273631
0.1602612,1.01076,-0.122763
0.161618,1.011541,-0.1207371
0.1569984,1.00562,-0.1155916
0.1514804,1.006024,-0.1002032
0.1380865,1.006064,-0.08411042
0.1268618,1.004307,-0.07960082
0.1303549,1.006718,-0.07764968
0.1269429,1.005997,-0.05655233
0.1182317,1.010711,-0.03542842
0.1145204,1.020125,-0.0375954
0.1074306,1.021719,-0.03438175
0.1055156,1.018839,-0.01654559
0.1023514,1.014987,-0.006295332
0.08808271,1.01488,0.0001800647
0.08043278,1.016877,0.006462817
0.07893158,1.020272,0.009137305
0.07098561,1.026565,0.01720864
0.0617627,1.025759,0.03182248
0.0530079,1.023512,0.05584683
0.0422188,1.024566,0.08431099
0.03755578,1.01965,0.09727273
0.03887271,1.010927,0.1075992
0.03705949,1.006227,0.1195295
0.03660785,1.014136,0.1186915
0.03609044,1.024699,0.1308189
0.02640792,1.020439,0.1534969
0.01742157,1.014372,0.1665978
0.01718442,1.011707,0.1795747
0.02042581,1.003258,0.1782364
0.02032516,0.9983321,0.1745391
0.0110383,0.9982376,0.191413
-0.003520352,1.002307,0.2146679
-0.01271592,1.008633,0.2387694
-0.01105403,0.9997191,0.2429111
-0.007569154,0.9877737,0.234549
-0.005523609,0.9860846,0.2414817
-0.0003442757,0.9804945,0.2448713
-0.007977998,0.9777286,0.260235
-0.02753698,0.9803693,0.2975836
-0.04202379,0.9758498,0.3170927
-0.05024039,0.9631877,0.3140738
-0.04870136,0.9460363,0.3079748
-0.05005817,0.9424728,0.3126726
-0.06046629,0.9539078,0.3252639
-0.06741896,0.9592913,0.3404621
-0.08218517,0.9704034,0.3643556
-0.09873772,0.9880667,0.3833079
-0.09669854,0.9799768,0.3811905
-0.09159321,0.9489932,0.368429
-0.09617743,0.922187,0.3698654
-0.09962277,0.916261,0.3769747
-0.1088754,0.9197532,0.386179
-0.1333134,0.9081023,0.4138012
-0.1464614,0.9037073,0.4242761
-0.1485307,0.9124953,0.4298135
-0.1623484,0.9070753,0.4548528
-0.1646276,0.905945,0.4503479
-0.1546411,0.9060555,0.4409982
-0.1563421,0.8950543,0.4515202
-0.1571092,0.8969091,0.4486265
-0.1561919,0.9000345,0.4488442
-0.1599996,0.9000805,0.4535187
-0.1598747,0.9041439,0.4513747
-0.1608533,0.8987403,0.4568054
-0.1636267,0.8955395,0.4630002
-0.1635412,0.8980892,0.4677933
-0.1620602,0.8990185,0.4749525
-0.1571346,0.9013502,0.4752077
-0.15136,0.9045505,0.473832
-0.1397633,0.9118976,0.4766946
-0.1234694,0.9148471,0.4792998
-0.1228821,0.90655,0.4858666
-0.1311531,0.8977336,0.4993044
-0.1319479,0.8953164,0.5099056
-0.1338769,0.8950525,0.5073737
-0.1420966,0.8919478,0.503418
-0.1496048,0.8910766,0.5071334
-0.1477875,0.8905836,0.5072579
-0.1443412,0.8816217,0.5136719
-0.1519928,0.8651606,0.5279522
-0.1571023,0.8546661,0.5362908
-0.1569922,0.8597442,0.5504223
-0.1678766,0.8609721,0.5649737
-0.1811028,0.845078,0.5724223
-0.1872185,0.8173753,0.5881677
-0.1913892,0.7919208,0.6086193
-0.1896638,0.7972341,0.6207288
-0.1801319,0.8057647,0.6164802
-0.1760983,0.7873975,0.6132694
-0.1912561,0.7775229,0.6299192
-0.2183399,0.7635556,0.644386
-0.2351617,0.7427369,0.650599
-0.235871,0.7474896,0.655164
-0.2337118,0.7475878,0.660211
-0.2270089,0.758211,0.6699604
-0.2077646,0.78942,0.6674917
-0.1917779,0.7820524,0.6697223
-0.1900339,0.7487687,0.6896237
-0.1995571,0.7178027,0.6997262
-0.2127806,0.6972811,0.7058964
-0.2167975,0.6946298,0.7118385
-0.2185611,0.6887865,0.7175083
-0.2211161,0.6876845,0.7279484
-0.2165184,0.6804529,0.7294766
-0.2174323,0.6506041,0.7396966
-0.2269263,0.625385,0.7613819
-0.2381549,0.6032665,0.7639903
-0.2478775,0.5896028,0.7605769
-0.2506631,0.5899555,0.7665945
-0.2566367,0.5876678,0.7668569
-0.2679328,0.5876544,0.7702194
-0.2805998,0.5822689,0.7911629
-0.2993664,0.5683793,0.8206501
-0.3056157,0.5504524,0.8394728
-0.2869282,0.5259925,0.8298993
-0.270945,0.509779,0.8214209
-0.2793828,0.5010406,0.8294617
-0.2929381,0.490972,0.8249316
-0.3024862,0.4802535,0.8314497
-0.3189939,0.4717377,0.8507065
-0.321286,0.4674942,0.8528573
-0.3124834,0.4639014,0.8544737
-0.3139789,0.4677323,0.8593228
-0.3083296,0.470872,0.8644666
-0.3008658,0.46381,0.8599775
-0.3019071,0.4562042,0.8512963
-0.3098028,0.4362499,0.870349
-0.3267846,0.4100573,0.8918206
-0.3293846,0.4061895,0.8946848
-0.3216433,0.4038086,0.8880244
-0.3185137,0.384705,0.8762746
-0.3104744,0.3839041,0.8754507
-0.3060347,0.3891395,0.8795164
-0.3026956,0.3659084,0.8892638
-0.2994306,0.3540897,0.9025432
-0.3062828,0.3581752,0.9013017
-0.3084988,0.349129,0.905948
-0.3050819,0.3461588,0.9169053
-0.3016737,0.3462283,0.9134325
-0.292268,0.3407147,0.9127295
-0.2891397,0.3356667,0.9196436
-0.3008595,0.3202123,0.9186372
-0.3198871,0.2868095,0.9182584
-0.3353325,0.2500182,0.9193546
-0.3326739,0.2380142,0.9085616
-0.3109476,0.2419603,0.9033953
-0.2935358,0.2485264,0.9191808
-0.3019507,0.2650847,0.9414476
-0.3189868,0.2696835,0.9526618
-0.3223279,0.2434354,0.9560245
-0.3231922,0.1931242,0.9590507
-0.3244455,0.1417335,0.935221
-0.3268603,0.1133557,0.9030033
-0.3398798,0.1106968,0.9107283
-0.3475478,0.1179114,0.9163029
-0.3353593,0.1174068,0.9060595
-0.3112,0.1232622,0.9228732
-0.2991672,0.13835,0.9322524
-0.3039005,0.1521075,0.9190568
-0.2966839,0.1826242,0.9191296
-0.2886869,0.1988102,0.9249857
-0.3078899,0.1606402,0.9413962
-0.3330846,0.1144549,0.9627845
-0.3362517,0.1045744,0.9522811
-0.3250719,0.1104496,0.9401406
-0.3216347,0.1137897,0.9502584
-0.3256336,0.1228469,0.9545029
-0.3292744,0.1269851,0.9682549
-0.3282939,0.1247942,0.9876078
-0.3144604,0.1163867,0.9659826
-0.3025246,0.07680185,0.932738
-0.3152003,0.04468585,0.9304102
-0.3328078,0.05992636,0.9347725
-0.3279803,0.0809335,0.9361007
-0.3196465,0.09895947,0.937487
-0.3101841,0.1273301,0.9317007
-0.2933661,0.1341566,0.9296312
-0.3026519,0.1284301,0.9412769
-0.3139674,0.1486951,0.9635686
-0.2973865,0.1620314,0.9765612
-0.2957118,0.1335398,0.9736262
-0.3150883,0.09288325,0.9697627
-0.3296242,0.07168495,0.9579588
-0.3293045,0.07643796,0.9435103
-0.3191554,0.0977891,0.9459376
-0.309447,0.1183511,0.9462678
-0.2926904,0.1174751,0.9315178
-0.2919018,0.105816,0.9273411
-0.3084371,0.105752,0.9352741
-0.3073154,0.09730824,0.9369902
-0.3101675,0.08710788,0.9428726
-0.317226,0.08236085,0.9572283
-0.315636,0.06543387,0.9696617
-0.3245832,0.05490674,0.9695195
-0.3310207,0.03228489,0.9600711
-0.3352132,0.0008464453,0.9614289
-0.3347507,0.004180794,0.9575071
-0.3261859,-0.0007830905,0.9468608
-0.3309554,-0.02575719,0.9512943
-0.3296989,-0.03284741,0.9495597
-0.3222672,-0.0342385,0.9387673
-0.3185626,-0.02452095,0.933006
-0.3083924,-0.004474492,0.9352546
-0.3109683,0.0003636443,0.9460299
-0.3136893,-0.003356848,0.9549898
-0.3093154,-0.004830452,0.9652758
-0.3168976,-0.005564667,0.9638567
-0.3193111,-0.01193293,0.9547955
-0.3155983,-0.02352902,0.9626768
-0.3177097,-0.03090724,0.9611796
-0.3281024,-0.03773867,0.9512143
-0.3410066,-0.0458711,0.9502141
-0.3371475,-0.04747889,0.9471681
-0.331138,-0.04935908,0.9468226
-0.3330955,-0.0643321,0.942222
-0.3283903,-0.0754917,0.9411604
-0.3303291,-0.07220642,0.9488164
-0.3364002,-0.07909653,0.9464026
-0.3317994,-0.08744243,0.9471529
-0.3299424,-0.08132076,0.9467739
-0.3300616,-0.08069829,0.9374474
-0.3295324,-0.08323778,0.933553
-0.3329903,-0.08129033,0.931776
-0.3285404,-0.08234695,0.9317709
-0.3197058,-0.08398585,0.9295614
-0.3119626,-0.08482199,0.9331227
-0.3035602,-0.08417975,0.9433418
-0.3055758,-0.08353161,0.9400447
-0.3128808,-0.08784308,0.940295
-0.3197595,-0.0916143,0.9481659
-0.3284455,-0.08834859,0.9498605
-0.3289855,-0.08405231,0.9476678
-0.3266615,-0.08351805,0.9410596
-0.3283247,-0.08236551,0.9421067
-0.3277301,-0.08136299,0.9431318
-0.3275414,-0.08204614,0.9379622
-0.328094,-0.08105187,0.9405713
-0.3271659,-0.07995839,0.9390989
-0.3261168,-0.07919036,0.9358403
-0.3248194,-0.07594437,0.93865
-0.3264708,-0.07133837,0.9394953
-0.3286974,-0.06672245,0.9421013
-0.3267789,-0.06248875,0.9426397
-0.3263871,-0.06252417,0.940323
-0.3304816,-0.06863989,0.9398687
-0.3339551,-0.07454967,0.93712
-0.3336686,-0.0779935,0.9364012
-0.3318831,-0.08151004,0.9405973
-0.3321619,-0.08090929,0.9481203
-0.3338633,-0.07663751,0.9547493
-0.3337035,-0.07461582,0.9453679
-0.3279025,-0.07286673,0.9321493
-0.3220475,-0.07030226,0.9408609
-0.3289718,-0.0688592,0.9475851
-0.3392095,-0.06689907,0.9404055
-0.3389422,-0.06352957,0.9430064
-0.3381086,-0.05828983,0.943446
-0.3384029,-0.05407272,0.9383446
-0.3345592,-0.05162809,0.9393268
-0.3323892,-0.04581773,0.9373224
-0.3321803,-0.04381551,0.9405964
-0.3350274,-0.04841335,0.9490606
-0.3410281,-0.05137154,0.9509497
-0.3425654,-0.05873966,0.9504348
-0.340213,-0.06901286,0.9490549
-0.3376047,-0.07350224,0.9491313
-0.3352514,-0.07278347,0.9470529
-0.3342351,-0.06597835,0.9415557
-0.334776,-0.0613182,0.9396684
-0.3359856,-0.05899412,0.9396601
-0.3361639,-0.05395983,0.9423132
-0.3366846,-0.05367366,0.9475488
-0.3390294,-0.05359995,0.952111
-0.3418063,-0.05573923,0.9495075
-0.3424558,-0.06187456,0.943169
-0.3410629,-0.06031301,0.9491332
-0.3415182,-0.05992438,0.9539748
-0.3411822,-0.06488418,0.9494784
-0.3394965,-0.06658083,0.9475046
-0.3404891,-0.06749074,0.9417809
-0.3404765,-0.06784613,0.9376083
-0.3401085,-0.06455629,0.940284
-0.3414742,-0.06102616,0.9441048
-0.3417767,-0.06253111,0.9490536
-0.3410683,-0.0640847,0.9468572
-0.3376356,-0.06272414,0.9413767
-0.3331774,-0.06327319,0.9404481
-0.3330818,-0.06316093,0.9423657
-0.3364302,-0.06225043,0.9468696
-0.3384349,-0.06247172,0.9464226
-0.3372957,-0.06248035,0.9447165
-0.3360565,-0.06228339,0.9466715
-0.335243,-0.06056284,0.9455992
-0.3342705,-0.05921311,0.9458979
-0.3350927,-0.06015794,0.9486885
-0.3367368,-0.06261239,0.9513616
-0.3378289,-0.06416084,0.9524352
-0.3386858,-0.06135252,0.9436197
-0.341601,-0.05847622,0.9318037
-0.3459059,-0.05946276,0.9300271
-0.3431895,-0.05947696,0.9328521
-0.3333096,-0.05760789,0.9321972
-0.3266868,-0.05785512,0.9319791
-0.3272781,-0.05709922,0.9363416
-0.329816,-0.05398959,0.9403611
-0.3316815,-0.05316742,0.9418134
-0.3383463,-0.05242867,0.9445458
-0.3427464,-0.05096394,0.9486565
-0.3374513,-0.04937799,0.948879
-0.3363654,-0.04700821,0.9446527
-0.3385416,-0.04716957,0.9429873
-0.3368531,-0.04500039,0.9418597
-0.3373679,-0.03931735,0.9380121
-0.3354995,-0.03306295,0.9379562
-0.3319956,-0.02386582,0.9407436
-0.3321987,-0.01893777,0.9446227
-0.3347968,-0.01758732,0.9542286
-0.3399889,-0.01525932,0.9602164
-0.3434816,-0.01423776,0.9511092
-0.3439817,-0.007251682,0.9421511
-0.3403996,0.002327397,0.9440617
-0.3332462,0.00796136,0.9428851
-0.3276078,0.01267526,0.9400222
-0.3255594,0.01495229,0.9423659
-0.3321645,0.0189067,0.9426625
-0.3390627,0.0239373,0.9445263
-0.3392935,0.02774197,0.9481885
-0.3417414,0.0364082,0.9438929
-0.3396755,0.04176077,0.9393647
-0.332905,0.04189687,0.9406004
-0.330914,0.05027611,0.9379949
-0.3286073,0.05881831,0.9360449
-0.3283042,0.05799282,0.9447307
-0.3302324,0.05748396,0.9534708
-0.3290598,0.05626853,0.9522396
-0.330908,0.05300853,0.9498247
-0.3339496,0.05585235,0.9509521
-0.3333187,0.06099833,0.9490847
-0.3330415,0.06357765,0.948093
-0.3325637,0.06389658,0.9519642
-0.3315477,0.06371107,0.9519161
-0.3317728,0.06628478,0.944702
-0.3308277,0.06886514,0.9380453
-0.328404,0.07259301,0.9415775
-0.3280315,0.07985221,0.9483949
-0.3322603,0.08478944,0.9471082
-0.3363902,0.0862522,0.9462621
-0.3349919,0.08896532,0.9453351
-0.3341043,0.09303298,0.9414324
-0.3371317,0.09338425,0.9431769
-0.3370042,0.09352861,0.9437679
-0.3319111,0.1013687,0.9422347
-0.3275804,0.1103966,0.9428733
-0.3286879,0.1166891,0.9393353
-0.3320226,0.1257244,0.9375029
-0.3338291,0.1354319,0.9436339
-0.3353667,0.1433803,0.9496465
-0.3283764,0.1486447,0.9472509
-0.3161744,0.1485287,0.9428329
-0.3166574,0.1501551,0.9439092
-0.3201957,0.1607021,0.9454326
-0.3188362,0.1712754,0.9449673
-0.3221972,0.1777986,0.9339393
-0.3249028,0.1844481,0.919997
-0.3255594,0.1879283,0.9275237
-0.325643,0.1967404,0.9352679
-0.3227094,0.2130769,0.9286278
-0.3215051,0.2217422,0.9308829
-0.3185346,0.2352881,0.9339737
-0.31417,0.2588802,0.9314201
-0.3118977,0.2680233,0.9367835
-0.3091441,0.2665222,0.9399875
-0.3128116,0.2661051,0.9350637
-0.3175702,0.2665141,0.9318747
-0.3133793,0.2830444,0.9300871
-0.3074832,0.3195658,0.9190762
-0.3017377,0.3472207,0.9044731
-0.2969336,0.3450344,0.9069188
-0.2932444,0.3424574,0.9090452
-0.2908333,0.3516066,0.8972001
-0.2987982,0.3465932,0.8991402
-0.3072706,0.3548939,0.9060724
-0.3065925,0.374227,0.9054323
-0.3061706,0.3685829,0.9108726
-0.3019025,0.3708465,0.9110891
-0.2907988,0.3752159,0.907685
-0.2837885,0.3648635,0.9064165
-0.2853921,0.3679529,0.9006413
-0.2873622,0.3757619,0.8983456
-0.2820303,0.385255,0.8972924
-0.2750138,0.3913195,0.8969899
-0.2689935,0.3871063,0.8960511
-0.2676936,0.3959367,0.8922399
-0.2720312,0.4091982,0.8926832
-0.2709648,0.4135847,0.8866866
-0.270946,0.417387,0.8806713
-0.2737746,0.4236688,0.8814027
-0.2723615,0.4282596,0.8771748
-0.2734086,0.4275787,0.8767625
-0.2709534,0.4317146,0.8763101
-0.2647084,0.4368119,0.8702246
-0.262702,0.4412911,0.865748
-0.2601848,0.4537386,0.8624159
-0.2580731,0.4595871,0.8621837
-0.2545368,0.4618673,0.8566616
-0.2490155,0.4709256,0.8471617
-0.2472635,0.4785088,0.8451724
-0.2458244,0.4859212,0.8424598
-0.246709,0.4875631,0.8390899
-0.2555291,0.488235,0.8392315
-0.2634784,0.509444,0.8327496
-0.2619156,0.5390108,0.8248308
-0.2576235,0.5564259,0.8237278
-0.2507773,0.5768432,0.8183913
-0.2368151,0.6106587,0.8096013
-0.232321,0.624444,0.8055474
-0.2373585,0.6184677,0.8001428
-0.2305368,0.636425,0.7852073
-0.2201696,0.6506698,0.7675289
-0.2180285,0.6462878,0.7620362
-0.2169424,0.6642072,0.7561276
-0.213653,0.6812398,0.7417175
-0.2054296,0.6934903,0.7322747
-0.1969089,0.711413,0.7259544
-0.1915539,0.7054929,0.7273327
-0.1856423,0.7033312,0.73063
-0.1861723,0.7130762,0.7266786
-0.1874841,0.7174846,0.7241721
-0.1805395,0.7270408,0.7138187
-0.1774139,0.7237677,0.705562
-0.18108,0.7189511,0.7073476
-0.186561,0.72543,0.7022281
-0.1921306,0.7260697,0.7001719
-0.1898404,0.7291599,0.6980178
-0.1811515,0.7265552,0.6906551
-0.1759211,0.7169379,0.6942496
-0.1753745,0.7169892,0.6970317
-0.1781698,0.7158313,0.6895729
-0.1838948,0.7116835,0.6872815
-0.191728,0.712789,0.6966016
-0.1957022,0.7176573,0.7048134
-0.1915982,0.7298884,0.6979453
-0.188525,0.7457838,0.6797812
-0.1841178,0.7498105,0.6657289
-0.1816607,0.7416246,0.6664236
-0.2018381,0.7384659,0.66919
-0.2229133,0.7444139,0.6592979
-0.2162169,0.7546126,0.6469463
-0.2021261,0.7737434,0.6353948
-0.1965843,0.7953232,0.6286133
-0.19156,0.8052824,0.6296498
-0.1855366,0.8094468,0.6197135
-0.1812591,0.8183479,0.6110687
-0.1758152,0.8273869,0.6078357
-0.1672478,0.8341638,0.5864817
-0.1600917,0.8405867,0.5724712
-0.1574858,0.8392412,0.5815962
-0.1537722,0.8365652,0.5886822
-0.1502068,0.8423231,0.583284
-0.1518324,0.8444535,0.577085
-0.1527668,0.8451439,0.5772126
-0.1572891,0.851684,0.5744918
-0.164584,0.8541043,0.5748688
-0.162288,0.8474739,0.5745166
-0.1570338,0.8353588,0.5704746
-0.1528223,0.8325456,0.5717395
-0.1483671,0.8390171,0.5645387
-0.1461171,0.8394111,0.5622085
-0.1402206,0.8387197,0.56719
-0.1351143,0.8391912,0.5663948
-0.1375753,0.84086,0.5721968
-0.1380677,0.8485639,0.5675154
-0.1327876,0.8566531,0.5552738
-0.1257759,0.8635096,0.5469922
-0.1148876,0.8680125,0.5296994
-0.1066973,0.8661885,0.5210654
-0.1110021,0.8540692,0.5279718
-0.1254874,0.8300453,0.5503667
-0.1423779,0.809625,0.5786879
-0.1389429,0.8139737,0.5761408
-0.1029794,0.836084,0.5615315
-0.06613714,0.8506559,0.5599208
-0.06117689,0.8574177,0.5517249
-0.07466205,0.8617471,0.5555467
-0.08301889,0.86284,0.5753959
-0.1013784,0.8625476,0.5734132
-0.1196312,0.8510007,0.556422
-0.1111798,0.8401473,0.5381817
-0.1089088,0.8466396,0.5289521
-0.1178293,0.8680962,0.5322134
-0.1255733,0.9105412,0.5194366
-0.1433127,0.9444272,0.5056181
-0.1356693,0.9302857,0.4981649
-0.1047354,0.9033288,0.4867124
-0.08209081,0.8942189,0.5101749
-0.06007049,0.8830864,0.5521039
-0.04830956,0.8855271,0.5596293
-0.03577196,0.8958354,0.5438801
0.1300741,0.9209701,0.3845085
0.1326068,0.9192607,0.3845312
0.1266269,0.9141067,0.3862567
0.1288105,0.9045984,0.3855957
0.1332927,0.9023008,0.3856995
0.1377912,0.9108266,0.3850915
0.141256,0.922696,0.3889073
0.1380916,0.9379824,0.3935796
0.1416323,0.9427865,0.3905909
0.1458109,0.938441,0.3893677
0.1434699,0.9397312,0.3894365
0.1425771,0.9351579,0.3841154
0.1392953,0.927473,0.3784289
0.1379322,0.9290026,0.3798568
0.1396558,0.9316915,0.3814812
0.1404403,0.9352111,0.3759703
0.1450725,0.942084,0.3731348
0.148541,0.948398,0.3715935
0.1465646,0.9555456,0.3674192
0.1449549,0.9590481,0.3671025
0.1469839,0.953849,0.3668229
0.1468938,0.9452306,0.3642603
0.1411137,0.935301,0.363464
0.1365752,0.9299051,0.364686
0.1368801,0.9330116,0.3686088
0.1411726,0.9309274,0.3765074
0.1489516,0.9269229,0.3833245
0.1566541,0.9291188,0.3854175
0.1546293,0.9229764,0.3916494
0.1449697,0.9118526,0.399606
0.1416291,0.9058071,0.3947598
0.1401273,0.9032955,0.3889412
0.1385985,0.9077705,0.3960712
0.1396925,0.9113869,0.3995005
0.1381912,0.9085588,0.3959711
0.1405878,0.9094832,0.3975891
0.1437623,0.9194268,0.3985351
0.1436435,0.9321029,0.3977404
0.1408627,0.9374063,0.395665
0.1314678,0.9382318,0.3886673
0.1298938,0.9389062,0.3870011
0.137683,0.9342353,0.3931986
0.1414303,0.9290275,0.3974111
0.1384436,0.9265168,0.3942795
0.1342597,0.9217587,0.3901098
0.1397366,0.920906,0.3911645
0.144886,0.9251358,0.3907102
0.1440785,0.9272108,0.3912668
0.1451544,0.9288625,0.3953277
0.1434189,0.9255804,0.3973337
0.1413038,0.9188755,0.4008234
0.1379429,0.9210472,0.4008493
0.1335186,0.9224145,0.3963759
0.1324847,0.9198014,0.3946219
0.1294887,0.9236825,0.3895666
0.1303953,0.9252282,0.3860394
0.1337349,0.9244849,0.391136
0.1341388,0.9282273,0.3956116
0.1373243,0.9284548,0.3964421
0.1380314,0.9270256,0.3956249
0.1370945,0.9281641,0.3945985
0.1378615,0.9272497,0.3943385
0.1375365,0.9248669,0.3932997
0.1394637,0.9232289,0.3929176
0.1408705,0.9243862,0.3930448
0.1402406,0.9278769,0.3930161
0.1391319,0.9291049,0.3931975
0.1348374,0.929198,0.3932503
0.1305145,0.9292252,0.3949204
0.1314912,0.9277944,0.3948247
0.1349838,0.9267538,0.387856
0.1348238,0.9259186,0.38242
0.1344319,0.9253555,0.3913912
0.1355771,0.9254424,0.401568
0.1360174,0.926393,0.3954262
0.1380836,0.9282348,0.3925884
0.1369904,0.9262596,0.4022602
0.1349686,0.9237373,0.40685
0.1367121,0.9247986,0.4053633
0.1353666,0.9226161,0.3959445
0.1322227,0.9199232,0.3835112
0.1298832,0.9231405,0.3849058
0.1294244,0.9273766,0.3897017
0.1297845,0.9284218,0.3905589
0.1275321,0.9273473,0.3953471
0.1315503,0.9257929,0.3975904
0.1390816,0.9244281,0.3974298
0.1394239,0.9242378,0.3990224
0.1377664,0.9254724,0.3959345
0.1371612,0.926682,0.3931429
0.1373984,0.9265474,0.3957466
0.1382323,0.9251627,0.3963666
0.1389425,0.9247436,0.3944485
0.1405875,0.9253101,0.390575
0.1388275,0.9256476,0.3867255
0.1362756,0.9258014,0.3918916
0.1377505,0.924848,0.3997137
0.1378532,0.9246181,0.3979019
0.1370547,0.9254079,0.3905729
0.1379302,0.9248535,0.3870434
0.1383781,0.9245223,0.3928965
0.1392117,0.9234563,0.4001439
0.1402193,0.9220052,0.3957218
0.1409633,0.9247687,0.3913388
0.141447,0.9273179,0.393237
0.1403502,0.92459,0.3894857
0.1392197,0.9223121,0.3889876
0.1387263,0.9229644,0.392213
0.1386302,0.9224706,0.3906813
0.1392255,0.9227548,0.3945824
0.1386018,0.925025,0.39754
0.138175,0.9244324,0.3949829
0.1389799,0.922988,0.395981
0.1391938,0.9237327,0.3962023
0.1397871,0.9237411,0.3964316
0.1404348,0.9234572,0.3977886
0.1406218,0.9237006,0.3970875
0.1410589,0.9235813,0.396275
0.1418302,0.923614,0.3928191
0.1423772,0.9236137,0.3885244
0.1432221,0.9227153,0.3879933
0.1460111,0.9191544,0.3879235
0.1465232,0.9158188,0.3868728
0.1444368,0.9199068,0.3906515
0.1425824,0.9280326,0.4031082
0.1392466,0.9281215,0.4126762
0.1400878,0.9164764,0.399684
0.1482401,0.9064214,0.3763481
0.1651548,0.912935,0.3681515
0.1794987,0.9210073,0.3666731
0.1594923,0.9168051,0.385562
0.1279423,0.9235841,0.4262643
0.1275842,0.9419011,0.4297158
0.12935,0.9492626,0.4108718
0.1192417,0.9476562,0.407033
0.1208074,0.9344215,0.3977554
0.124972,0.9101241,0.4020294
0.1280592,0.8968035,0.4112832
0.132316,0.9049499,0.397697
0.1298894,0.920387,0.3910362
0.1276776,0.9307068,0.3916994
0.1278733,0.9400409,0.3896961
0.1294727,0.9404996,0.3904293
0.13155,0.9354332,0.3897579
0.1302705,0.9376861,0.395994
0.1312881,0.9343817,0.3984142
0.1353244,0.9316541,0.3846344
0.1380423,0.9330034,0.3742108
0.135569,0.9301254,0.381019
0.1318849,0.9310505,0.389118
0.1369452,0.9280672,0.3838287
0.1429696,0.9236378,0.384857
0.1443323,0.9204983,0.3936121
0.1450712,0.9137371,0.3943822
0.1444256,0.9134412,0.3950656
0.1461311,0.9109746,0.3927854
0.1471164,0.9105177,0.3938768
0.1416248,0.9193512,0.4065065
0.1363827,0.9239697,0.4132835
0.1347068,0.9319584,0.4082353
0.1324697,0.9404109,0.3944768
0.1306772,0.9369245,0.3868089
0.1324067,0.9288331,0.3915923
0.1328101,0.9245736,0.3927227
0.132839,0.9262841,0.3918139
0.1355373,0.9269106,0.3943107
0.1331063,0.9252486,0.3977471
0.1310527,0.925681,0.3990841
0.1354517,0.9266135,0.4015185
0.137814,0.9265433,0.4064295
0.137807,0.923827,0.3986681
0.1369635,0.9179175,0.3889
0.1355406,0.9091557,0.3925066
0.1351046,0.9041304,0.3960051
0.1375398,0.9051006,0.4011101
0.1438418,0.9075297,0.4117272
0.1452328,0.9128246,0.4144131
0.1410129,0.9140093,0.4099859
0.1384182,0.9129815,0.4064488
0.1375153,0.9202873,0.3997511
0.137492,0.928889,0.3986203
0.1364387,0.9362589,0.4078131
0.1350468,0.9412658,0.4095849
0.1327398,0.9385779,0.407631
0.1293231,0.9310825,0.4008935
0.1302206,0.923672,0.3863974
0.131391,0.9244736,0.3896308
0.1302024,0.9283628,0.3941265
0.1318407,0.9286209,0.3864735
0.1342739,0.9340395,0.3943446
0.1359663,0.9367104,0.400915
0.1397073,0.9324827,0.3955177
0.1452351,0.9296857,0.3973232
0.1492234,0.9213221,0.3989164
0.1498202,0.9128145,0.4018354
0.1462273,0.9127506,0.4068873
0.1375934,0.9167001,0.3987223
0.1321045,0.9258713,0.3826696
0.1357403,0.9342649,0.3737352
0.1404281,0.940155,0.3769979
0.1430232,0.9453561,0.3820993
0.1440884,0.9419045,0.3826157
0.1422537,0.9352111,0.3858976
0.1414643,0.929638,0.3896915
0.1393382,0.9235336,0.3918629
0.1359873,0.9215853,0.391086
0.1379733,0.9214197,0.3874301
0.1401569,0.9204131,0.3912608
0.1416804,0.9174062,0.3962226
0.1461157,0.915239,0.396453
0.14768,0.9179422,0.3981055
0.1455606,0.9196538,0.3968384
0.1436039,0.9220648,0.3951106
0.1442079,0.9244395,0.3928122
0.1451766,0.9230888,0.3883948
0.1440805,0.9254696,0.3899549
0.14538,0.929166,0.3894371
0.1466641,0.9309097,0.3859882
0.1463143,0.9305216,0.3879679
0.1476646,0.9280177,0.3888112
0.1473454,0.9303242,0.3884637
0.1465066,0.9314673,0.3884101
0.1454049,0.9297228,0.3866021
0.1419342,0.931753,0.386161
0.1407544,0.9340528,0.387036
0.1408773,0.9367662,0.3884939
0.139196,0.9351851,0.3894674
0.1385238,0.9287314,0.3915353
0.1399467,0.926975,0.3973022
0.1407183,0.927764,0.4002945
0.1401233,0.9289752,0.3992051
0.1405885,0.9292116,0.3976836
0.1421742,0.9269963,0.3952323
0.1431474,0.9266617,0.3970849
0.1415444,0.9287677,0.3996735
0.1392882,0.9303969,0.3949138
0.1399121,0.924726,0.3905619
0.138656,0.9171738,0.39035
0.134335,0.9172607,0.3932652
0.1323407,0.9160871,0.3984629
0.131731,0.9170747,0.3985282
0.1316793,0.9257377,0.3936151
0.1321212,0.9298935,0.3894251
0.1309024,0.9303724,0.3895036
0.1298249,0.9295527,0.3914319
0.1288901,0.9264112,0.3913158
0.1272403,0.9268895,0.3945364
0.1277155,0.9239586,0.3982328
0.1292834,0.9176989,0.397096
0.1301056,0.9196107,0.3975492
0.1308905,0.9231561,0.4001678
0.1306411,0.9240324,0.4027026
0.1308145,0.9255663,0.4054257
0.133444,0.9247234,0.4069905
0.1355102,0.9228973,0.4057052
0.1349283,0.9215723,0.4019084
0.1333653,0.9206498,0.4013598
0.1304516,0.9216424,0.4014602
0.1265585,0.9226148,0.3979695
0.1278449,0.9212693,0.3971008
0.1334991,0.9165775,0.3992515
0.1355467,0.913096,0.4024071
0.1349117,0.9176451,0.4039634
0.1344645,0.9252901,0.4028704
0.1340355,0.9275468,0.4032742
0.1322824,0.928622,0.3998772
0.12852,0.9316572,0.3922532
0.1285689,0.929939,0.3877905
0.1300018,0.925272,0.387126
0.1288096,0.9219859,0.3896126
0.1303354,0.9184383,0.394556
0.1323177,0.9173838,0.4016674
0.1337312,0.9229504,0.4036298
0.1353239,0.9323947,0.4011743
0.1337599,0.933285,0.4039484
0.1327787,0.9259402,0.4037893
0.1335085,0.9218626,0.4016205
0.1333989,0.9180735,0.4001452
0.1336064,0.9169302,0.3930064
0.1351152,0.9203514,0.3890152
0.1372696,0.9241542,0.3856594
0.1389261,0.9313942,0.3844072
0.1401636,0.9319846,0.3906939
0.1374669,0.926726,0.3931302
0.130895,0.9267689,0.3992964
0.1278919,0.924243,0.4071468
0.1261484,0.9216219,0.4064605
0.1214923,0.9229208,0.4056284
0.1205567,0.9244164,0.4020831
0.1256472,0.9292792,0.3991126
0.129395,0.9308709,0.3963132
0.1279563,0.9249217,0.3912455
0.1265429,0.9203104,0.3972759
0.126036,0.9219859,0.4040126
0.1217988,0.9243821,0.4044194
0.1200905,0.9240003,0.4049545
0.1249633,0.9284174,0.398346
0.1267738,0.9342139,0.3922348
0.1218967,0.933755,0.3958446
0.1199396,0.9313378,0.3987306
0.1307806,0.9253621,0.39499
0.1418446,0.9186374,0.3931526
0.1362894,0.9211022,0.3950821
0.13185,0.9271115,0.3930281
0.1381977,0.9302727,0.3906845
0.1391912,0.933574,0.3906849
0.1409012,0.9302541,0.3924668
0.1459047,0.9232221,0.3958477
0.1408962,0.9261967,0.3945255
0.135717,0.9259117,0.3939733
0.1377619,0.9189348,0.3966577
0.1379321,0.9184861,0.3958021
0.1370486,0.9171261,0.3949326
0.1376847,0.9174973,0.3957915
0.1379185,0.9209654,0.3962195
0.1391309,0.9224034,0.3957266
0.1409325,0.9300484,0.3962756
0.1399544,0.9325153,0.3998094
0.1370965,0.9222406,0.4018738
0.1356065,0.915675,0.3999935
0.1358029,0.9201921,0.3973254
0.1363252,0.9258449,0.398284
0.1351756,0.9232024,0.4009974
0.1341686,0.9224849,0.4014217
0.1354997,0.9238964,0.4010086
0.1377814,0.9201096,0.3992283
0.1415097,0.9207958,0.3964704
0.1439802,0.9223553,0.3936183
0.1447253,0.9219374,0.3938176
0.147345,0.9247014,0.3981014
0.1478488,0.9289536,0.39991
0.1459438,0.9373769,0.4010465
0.143882,0.9409226,0.3975127
0.1395736,0.9358579,0.390283
0.1353004,0.9323102,0.3931596
0.1309686,0.9268436,0.3968528
0.1288216,0.9215403,0.3982007
0.131447,0.9233706,0.4027336
0.1308898,0.9256991,0.401067
0.1304787,0.9244792,0.3991384
0.1358721,0.92325,0.4032149
0.1382193,0.919898,0.405559
0.1355951,0.9140533,0.4058298
0.1317798,0.9120126,0.407126
0.1302332,0.9110051,0.4075115
0.131865,0.9105015,0.4065892
0.1348027,0.9140545,0.4079359
0.1400233,0.9189489,0.4081877
0.1410653,0.9248139,0.4040818
0.1399961,0.9251993,0.4000013
0.1426344,0.9229086,0.3987053
0.1407813,0.9269515,0.3983626
0.1388803,0.9273184,0.3946859
0.1389189,0.9267278,0.3913896
0.134466,0.9326252,0.3909068
0.1321329,0.9379401,0.3869977
0.1318919,0.9418064,0.3833762
0.131569,0.9409117,0.3844355
0.133097,0.937954,0.385566
0.1356632,0.9349835,0.3870031
0.1404816,0.9222791,0.394854
0.1427542,0.9109086,0.4057136
0.143011,0.9076726,0.4095304
0.1461606,0.9018406,0.4130696
0.1464501,0.8998042,0.4185558
0.1433714,0.9048598,0.4134131
0.1372581,0.912556,0.4051654
0.1295804,0.9246263,0.4022028
0.1324229,0.930719,0.3989675
0.1376401,0.9269485,0.3962601
0.1333523,0.9272367,0.3920544
0.1317994,0.9294584,0.3901638
0.1310669,0.926898,0.3995798
0.1274896,0.9260413,0.4075536
0.131236,0.9269245,0.4043992
0.1351024,0.9289936,0.4013183
0.1367303,0.9311238,0.3989317
0.1400488,0.9273263,0.3926342
0.1408049,0.9220747,0.3931014
0.1415331,0.9193515,0.3984384
0.1397757,0.9172287,0.3997552
0.1366349,0.9165872,0.4045994
0.1336493,0.9182962,0.406308
0.1283738,0.920527,0.4029958
0.1302557,0.9207232,0.4055891
0.1317683,0.9227328,0.4006699
0.1273293,0.9265394,0.393179
0.127819,0.9265579,0.3968129
0.1285663,0.9253097,0.3990619
0.1309885,0.9246233,0.4001506
0.1350164,0.923565,0.4016764
0.133379,0.9218621,0.4035871
0.1336705,0.9199969,0.4085608
0.1351496,0.9209786,0.4056056
0.1328184,0.9227552,0.3982999
0.1320935,0.9247171,0.3955489
0.1363512,0.9273094,0.3957386
0.1399744,0.9255385,0.3999617
0.1351591,0.9225256,0.4026263
0.1294425,0.9211357,0.4012296
0.1301476,0.9186175,0.4011148
0.1301693,0.9187821,0.4017623
0.1292686,0.919423,0.4020997
0.1328876,0.9179788,0.402079
0.1368437,0.921841,0.4012598
0.135655,0.9270987,0.4012993
0.1336142,0.9268104,0.4026773
0.1342032,0.9252738,0.4039577
0.1340843,0.9229343,0.4047352
0.1335999,0.9196239,0.4052997
0.1335855,0.919433,0.4037657
0.1329477,0.9200182,0.4005752
0.1335976,0.9191551,0.4013241
0.1344808,0.920673,0.4058704
0.1346229,0.9232883,0.4078086
0.1354303,0.923832,0.4069604
0.1363015,0.9238135,0.4067084
0.1377615,0.9234075,0.4066365
0.1369655,0.9235484,0.405286
0.1341989,0.9237222,0.4038531
0.1347096,0.9224054,0.4057324
0.1349684,0.9220988,0.4073314
0.1343689,0.9221941,0.4030241
0.1346925,0.922008,0.3990157
0.1327542,0.9215032,0.3997503
0.1313829,0.9203367,0.4008392
0.1322662,0.9206869,0.4015857
0.1339014,0.9201717,0.4028452
0.1352683,0.9189004,0.4014555
0.1345844,0.9195228,0.3988631
0.1336033,0.9204804,0.3998148
0.1331999,0.9237711,0.3997524
0.1332094,0.92763,0.3978807
0.133335,0.9260357,0.4005569
0.1323398,0.9236723,0.4050799
0.1316691,0.9252185,0.4075956
0.1326171,0.9245526,0.4056311
0.1356464,0.9226224,0.4016943
0.1383694,0.9239834,0.4027459
0.1367882,0.923786,0.4026606
0.1342251,0.9231768,0.3985349
0.1346737,0.92403,0.3977908
0.1353492,0.9233781,0.4031884
0.1362143,0.9236113,0.4101421
0.1378588,0.9237913,0.4087856
0.1359436,0.9237138,0.4062729
0.1335957,0.9256166,0.4087699
0.1343901,0.9264685,0.4032939
0.1323874,0.9247957,0.3987307
0.1293342,0.9224126,0.4021626
0.1307957,0.9220123,0.3998195
0.1331614,0.922711,0.3972825
0.134329,0.9236121,0.3991168
0.135224,0.9252487,0.3997314
0.1350459,0.9248854,0.4044819
0.1361945,0.9248543,0.4122968
0.1373172,0.9254123,0.4125765
0.1322108,0.9243727,0.4032912
0.1271937,0.9243377,0.3955242
0.1298636,0.9230748,0.3964097
0.1321049,0.9213773,0.3988444
0.1318922,0.9210751,0.4000945
0.1373654,0.9213137,0.4045347
0.1420653,0.9241679,0.4072483
0.1368564,0.9258572,0.4051096
0.1306772,0.9263624,0.4064241
0.1300238,0.9265029,0.4103109
0.1308779,0.9229331,0.4119109
0.132744,0.9206326,0.4113214
0.1347179,0.9205881,0.4039575
0.1352209,0.9208023,0.396703
0.1353735,0.9215334,0.3986941
0.1349667,0.9222413,0.4069466
0.1329599,0.9243131,0.4174019
0.1313795,0.92397,0.4168422
0.1337353,0.9228476,0.4040007
0.1354404,0.9241804,0.3972008
0.1324534,0.9234775,0.399766
0.1302884,0.9233733,0.4032211
0.1304145,0.9236533,0.4037482
0.1306239,0.9212981,0.4067885
0.1309927,0.9195629,0.4117276
0.132381,0.9189914,0.4098034
0.1348651,0.919757,0.4092186
0.1346804,0.9205598,0.4131699
0.1316379,0.9214621,0.4134015
0.1298644,0.9247787,0.4113876
0.1303148,0.9263225,0.4065876
0.1312072,0.9223164,0.4012334
0.1316177,0.9176996,0.3994622
0.1336546,0.920242,0.3982855
0.1348135,0.924311,0.3973437
0.1326299,0.9232668,0.397527
0.1320744,0.9229577,0.4000826
0.1322647,0.9203892,0.4058753
0.1309364,0.9163642,0.4101962
0.129499,0.9181515,0.4088029
0.1274165,0.9181601,0.4075098
0.1289468,0.9147744,0.408866
0.1314807,0.9137004,0.4071245
0.1276389,0.9166091,0.4052214
0.1258854,0.9243228,0.4031266
0.131427,0.9301093,0.4023926
0.1358046,0.9294982,0.4060813
0.1352215,0.9263576,0.4042746
0.1339483,0.9237676,0.4046394
0.1351999,0.9214444,0.4088769
0.1358659,0.9200544,0.4034001
0.1355288,0.9210294,0.3986925
0.1348289,0.9210741,0.3980485
0.1326568,0.9206447,0.4027298
0.1339246,0.9221768,0.4130589
0.135792,0.9238343,0.4111485
0.1340216,0.9265951,0.4050408
0.1334301,0.9275926,0.4041914
0.1312682,0.9224566,0.4041974
0.127722,0.9174477,0.4076654
0.1274918,0.9190002,0.4072525
0.128159,0.9204033,0.4071868
0.1296476,0.9168513,0.4131873
0.131638,0.9160125,0.4151017
0.1333226,0.9175112,0.4092086
0.1353,0.9181293,0.4000624
0.1347679,0.9205128,0.3997103
0.1324064,0.9216499,0.4025554
0.1317444,0.9230347,0.3999242
0.132809,0.9244317,0.4033263
0.133375,0.9218597,0.4057716
0.1316194,0.9200591,0.4033114
0.1299278,0.9192327,0.4053834
0.1313956,0.9189834,0.4059906
0.1324899,0.9203761,0.4050979
0.130791,0.9209727,0.4048629
0.1297977,0.9231637,0.4049408
0.1289288,0.9254875,0.4104954
0.1279424,0.9260653,0.4153787
0.1311115,0.9253257,0.4118121
0.1346661,0.9221895,0.4077461
0.1321364,0.9218565,0.4109159
0.1280799,0.9230584,0.4113042
0.1274683,0.9231333,0.4036177
0.1278461,0.9244636,0.3972374
0.1289386,0.9233178,0.3979651
0.1304794,0.9229726,0.4053036
0.1304767,0.9231832,0.406684
0.1295875,0.9195044,0.4035907
0.1280734,0.9191436,0.4083572
0.1284217,0.9210085,0.40769
0.1306263,0.9226237,0.4036358
0.1313565,0.9245597,0.4040811
0.1331148,0.9226633,0.4003931
0.1346459,0.9197868,0.4030471
0.13058,0.9180826,0.4089478
0.1256683,0.9208563,0.4075322
0.1265578,0.9255524,0.4060311
0.127544,0.922699,0.4039749
0.1266484,0.9208606,0.4070369
0.1300929,0.9231553,0.4122818
0.1318635,0.921654,0.4099526
0.1306887,0.9201379,0.4087375
0.1324802,0.9193589,0.4050859
0.1318099,0.9190573,0.3988785
0.1296227,0.9210583,0.4017173
0.1292768,0.9218748,0.4056067
0.1296004,0.9223303,0.406581
0.1312455,0.9221843,0.4095166
0.1302683,0.9198382,0.410203
0.1282469,0.918403,0.409422
0.128126,0.9196045,0.409913
0.129074,0.9251174,0.4092589
0.1314776,0.9296417,0.407566
0.1308187,0.9264202,0.4051067
0.1299274,0.922302,0.4046344
0.1321099,0.921121,0.406613
0.1318466,0.9198015,0.4061288
0.130919,0.918254,0.406018
0.130513,0.9160995,0.4067521
0.1299863,0.9165531,0.4061363
0.1299115,0.9201549,0.4087514
0.1280168,0.9213685,0.4118888
0.1281368,0.9208654,0.411693
0.1298756,0.920743,0.4106516
0.12888,0.9200138,0.4109067
0.1280843,0.9174792,0.411673
0.12772,0.9147595,0.410712
0.1273618,0.918733,0.4110635
0.1271405,0.9243932,0.411544
0.1261882,0.9219643,0.4100363
0.1273016,0.9187669,0.4082507
0.1294628,0.919416,0.4030733
0.1303898,0.9197547,0.3995597
0.131468,0.9206559,0.4007287
0.1310846,0.922856,0.4024078
0.128213,0.9241209,0.4054937
0.1261438,0.9223828,0.406911
0.1267676,0.9197803,0.4092399
0.129212,0.9191253,0.4128018
0.13097,0.9196986,0.4109011
0.1290721,0.921428,0.410743
0.126643,0.9227281,0.4137331
0.1283823,0.9224767,0.4123808
0.1310051,0.9228972,0.4060336
0.1316778,0.9232452,0.399921
0.1298019,0.9202285,0.4056048
0.1264692,0.9166331,0.4135656
0.1278056,0.9184957,0.4086317
0.1306073,0.9225568,0.4054925
0.1303045,0.9240555,0.4065427
0.1309095,0.9244479,0.4044814
0.1305522,0.9249439,0.4074616
0.1305053,0.926513,0.4098786
0.1328913,0.9251051,0.4090265
0.1335086,0.9210843,0.4094844
0.1326778,0.9212638,0.4070188
0.1287383,0.9210912,0.4064876
0.1249882,0.9201274,0.4098373
0.1271766,0.9214483,0.4112663
0.1287238,0.920628,0.4098735
0.1274754,0.9206196,0.409774
0.1279106,0.921273,0.4104018
0.1298851,0.9204114,0.4063612
0.1311625,0.9212404,0.4038358
0.1315272,0.9221031,0.4025999
0.132058,0.9240708,0.4012826
0.1315183,0.9254001,0.4023142
0.1291756,0.9220933,0.3996231
0.1269651,0.9198048,0.4028892
0.1274743,0.9204427,0.4083472
0.1284265,0.9194938,0.4055546
0.1275745,0.9176044,0.4069192
0.1288074,0.9195364,0.4077715
0.1306448,0.9220959,0.4060614
0.130594,0.9205678,0.4069678
0.1308292,0.9202462,0.4040882
0.1311653,0.9206714,0.4020341
0.1314986,0.9195318,0.4044887
0.1312263,0.9203443,0.4092556
0.1310186,0.9201861,0.4114317
0.1317227,0.9190109,0.4058146
0.131804,0.9198815,0.3995195
0.132148,0.9209122,0.3977882
0.1321825,0.9209327,0.3977156
0.1330706,0.9188158,0.4001229
0.1366108,0.917118,0.4058667
0.1375656,0.9177385,0.4123282
0.1335881,0.9195182,0.4178917
0.1288024,0.9259695,0.4138349
0.1282663,0.9309321,0.4056343
0.129781,0.9253588,0.4092888
0.1280329,0.9193254,0.4090835
0.1272644,0.9200479,0.4050072
0.1284755,0.9209574,0.4092514
0.1293863,0.9222934,0.4067612
0.1311667,0.9245165,0.4055642
0.1304426,0.9226854,0.4086491
0.128239,0.921354,0.4054688
0.1275998,0.9227403,0.4053681
0.1274912,0.9219557,0.4041599
0.128055,0.9211373,0.4032499
0.1279529,0.9208488,0.4064553
0.1284392,0.9208386,0.4059015
0.1295453,0.9227761,0.4065181
0.1282077,0.9231655,0.4068421
0.1272939,0.9218416,0.4080816
0.1277362,0.9210641,0.4140429
0.1271247,0.9207474,0.4156654
0.1269337,0.9206294,0.4122713
0.1279572,0.9199136,0.4072534
0.128126,0.9194348,0.4057024
0.1276129,0.9203513,0.4077559
0.1287315,0.9221747,0.4067334
0.1296335,0.9226168,0.4067279
0.1297177,0.9219399,0.4084293
0.1323504,0.9223232,0.4120719
0.1341218,0.9224429,0.4180741
0.131023,0.9229896,0.4175225
0.1272108,0.9240327,0.4150356
0.1251953,0.9236001,0.4146395
0.1242657,0.9230978,0.4089753
0.1251995,0.9219506,0.4050571
0.1255759,0.9198924,0.4081773
0.1260452,0.9186379,0.4092541
0.1305434,0.9170546,0.4075685
0.1328823,0.9159754,0.4075095
0.1296343,0.9168739,0.4069142
0.1265345,0.9169222,0.4074368
0.1260049,0.9162747,0.4117957
0.1275173,0.9170851,0.4149544
0.1279621,0.9175801,0.4132139
0.1265683,0.9181108,0.4107197
0.1252598,0.9195,0.4114008
0.1245729,0.9230297,0.4106465
0.1255181,0.9276124,0.4081064
0.126873,0.9238024,0.4096906
0.1281198,0.9162709,0.4111352
0.1278372,0.9161471,0.4116784
0.1256247,0.9169889,0.4148751
0.1254034,0.9167931,0.4143113
0.1256958,0.9187127,0.4119512
0.1249081,0.9197596,0.4128331
0.1247993,0.9197449,0.4124492
0.125078,0.9193104,0.4118756
0.125124,0.9203049,0.4111257
0.1246391,0.9214428,0.4085013
0.1241867,0.9205499,0.4077987
0.1232416,0.9208358,0.4075134
0.1222418,0.9209954,0.4090974
0.121456,0.9204304,0.4134158
0.1209661,0.920145,0.4129995
0.124436,0.9190472,0.4116487
0.1276552,0.919352,0.4125356
0.1253344,0.919383,0.4097105
0.1232355,0.9174085,0.407279
0.123831,0.9165844,0.4087241
0.1245786,0.9184378,0.4104684
0.1248048,0.9212148,0.4103781
0.1233961,0.9212069,0.4059118
0.1218286,0.9203759,0.4030473
0.123823,0.9210923,0.4129273
0.1259229,0.9211718,0.4227953
0.123933,0.9224783,0.4137534
0.1229428,0.9241653,0.4051062
0.1239685,0.9226132,0.4111258
0.1237478,0.9208672,0.4118702
0.1243929,0.9217683,0.4102535
0.1254026,0.923484,0.4159451
0.1250215,0.9230647,0.4169097
0.124647,0.9190418,0.4135112
0.1242102,0.9152192,0.4099676
0.1233639,0.9162419,0.4085267
0.1235841,0.917846,0.4109277
0.1247994,0.9173667,0.4113607
0.1251483,0.9199781,0.4126302
0.125019,0.9220166,0.4133573
0.12499,0.9203335,0.4113649
0.1251059,0.920906,0.4118672
0.1260009,0.9221041,0.4101348
0.1265993,0.9219482,0.4087679
0.1262925,0.9216464,0.4104295
0.1253838,0.9203302,0.4112451
0.1247154,0.92071,0.4185395
0.1250108,0.9210836,0.4255919
0.1250843,0.9197388,0.4184325
0.1245859,0.9200375,0.409129
0.1232273,0.9203628,0.4105923
0.1218533,0.9196403,0.4123809
0.1232729,0.9185715,0.4101249
0.1260605,0.9175348,0.4121048
0.1266787,0.9173775,0.4150526
0.1254201,0.9151016,0.4161821
0.1246184,0.9136462,0.4128879
0.1251565,0.9194237,0.4054498
0.1262756,0.9244717,0.4067061
0.1275929,0.9218221,0.4110031
0.128859,0.9192993,0.4109014
0.1287445,0.9187946,0.4117777
0.1286265,0.9173841,0.4105554
0.131472,0.9180757,0.4097955
0.1346515,0.9186651,0.4092295
0.1345673,0.9184712,0.4078028
0.1319567,0.9197813,0.4120084
0.1296512,0.9187148,0.4161843
0.1301295,0.9175007,0.415471
0.1302967,0.9192265,0.4080056
0.1279836,0.9197901,0.4002706
0.1263231,0.9191706,0.4070044
0.1252481,0.9185209,0.4149513
0.1269273,0.917793,0.4121662
0.1309011,0.9179997,0.4117776
0.1302497,0.9185458,0.4133766
0.1301338,0.9196052,0.4119943
0.1333602,0.9204595,0.4123345
0.133031,0.9194374,0.4119291
0.1315514,0.9188982,0.4107976
0.1302224,0.9198358,0.4134064
0.129917,0.9194728,0.4160433
0.1312015,0.9191279,0.4148362
0.1292897,0.9201346,0.4106677
0.1286679,0.9210831,0.4085658
0.1296495,0.9219696,0.4111615
0.1286074,0.9190958,0.4124534
0.1284804,0.9149167,0.4118149
0.127523,0.9165809,0.4125067
0.1278059,0.9175967,0.4127387
0.1300982,0.9160643,0.4124086
0.1308824,0.9179628,0.4124137
0.1319533,0.9198251,0.4126118
0.1326619,0.9211891,0.4124912
0.132922,0.9224583,0.4127451
0.1324659,0.9193693,0.4140896
0.1315602,0.916145,0.4135675
0.1323095,0.9176614,0.410032
0.1324101,0.9208661,0.4079244
0.1319425,0.9231035,0.4116676
0.130847,0.9235541,0.4155065
0.1302697,0.9210062,0.4115551
0.1319908,0.9179667,0.404228
0.1329219,0.9171716,0.3998285
0.133854,0.9153491,0.4019774
0.1343714,0.9146026,0.4098424
0.1345421,0.918378,0.4142206
0.1350922,0.9191863,0.4130432
0.1327055,0.9185439,0.4125963
0.1294926,0.922776,0.414356
0.1269292,0.9243564,0.4140521
0.127084,0.9213037,0.4113564
0.128866,0.9193001,0.4109067
0.1272226,0.9190979,0.4112947
0.1275769,0.9197147,0.411692
0.1280876,0.9194207,0.4121961
0.125307,0.9192707,0.4106363
0.1250025,0.918968,0.4116054
0.1259037,0.9156962,0.4151763
0.1276164,0.9128447,0.4166234
0.1284041,0.9140733,0.4131842
0.1274281,0.9176125,0.4065347
0.1287394,0.9203939,0.4059312
0.1284168,0.9218062,0.408029
0.1264584,0.922679,0.4073929
0.126492,0.9228116,0.4086454
0.128109,0.9197272,0.4086474
0.1297964,0.9150355,0.4076507
0.1282851,0.9171299,0.4078056
0.1270824,0.9207319,0.4063796
0.1280778,0.9189772,0.4060289
0.1281475,0.9199312,0.4065755
0.1292663,0.9202481,0.4082506
0.1303051,0.9186849,0.4144792
0.1290639,0.9216387,0.4200154
0.1284785,0.9223571,0.4175824
0.1286738,0.9214679,0.4103984
0.1275088,0.9215432,0.4073542
0.1273702,0.9185592,0.4098019
0.1283201,0.9172594,0.4120718
0.1275152,0.9187121,0.4103648
0.1276632,0.9198945,0.4091712
0.128661,0.9212415,0.4129304
0.1301021,0.9204102,0.4141583
0.1325955,0.916848,0.4100679
0.1303341,0.9147062,0.4075553
0.1267215,0.9167522,0.4096926
0.126963,0.9195582,0.4130916
0.1268883,0.9201777,0.4133999
0.1286826,0.922554,0.4148627
0.131236,0.9249404,0.4164372
0.1280286,0.9227024,0.4150368
0.1252298,0.9203209,0.4157584
0.1283563,0.9184159,0.4148102
0.1297484,0.9173417,0.4129698
0.1261211,0.9204446,0.4127952
0.1239804,0.921527,0.4116316
0.1252098,0.9198985,0.4141254
0.1262881,0.9183689,0.4180414
0.1263874,0.9162631,0.4204737
0.1264773,0.9190369,0.4148164
0.1263861,0.9223997,0.4011901
0.1262865,0.9206212,0.4000469
0.1259722,0.9203233,0.4076182
0.1236627,0.9213366,0.4137017
0.1213524,0.9204839,0.4189493
0.1223694,0.9198171,0.4152587
0.124885,0.9190364,0.4110292
0.127071,0.9170492,0.411413
0.1284415,0.9145409,0.4108226
0.1276643,0.9134993,0.4136321
0.1266379,0.9160497,0.4163678
0.1271589,0.9197746,0.4162034
0.1271991,0.9216008,0.4134335
0.1271112,0.9226692,0.4091391
0.1279109,0.9222272,0.4095346
0.1281546,0.9207138,0.4099758
0.128701,0.9201548,0.4086947
0.1303173,0.9201034,0.4105765
0.130674,0.922091,0.4128557
0.1286097,0.9238638,0.4131106
0.1272739,0.9234385,0.4110953
0.1288732,0.9235748,0.4105696
0.1305831,0.9220207,0.4113652
0.1312836,0.9181917,0.4080433
0.133519,0.9162516,0.403339
0.1372895,0.9191221,0.400129
0.1382642,0.9233193,0.4008024
0.1359561,0.922457,0.4027936
0.1350377,0.9216664,0.4020701
0.1355822,0.9237397,0.4058142
0.1361735,0.9234664,0.4092701
0.136273,0.9226879,0.4073944
0.1349236,0.9222626,0.4085297
0.1348242,0.9227657,0.410456
0.1366183,0.9243355,0.4107915
0.1376203,0.9229554,0.4115274
0.1360009,0.9202805,0.4128986
0.133712,0.9172364,0.4145721
0.1346966,0.9155193,0.4126392
0.1351279,0.9171607,0.4066259
0.1332752,0.9168634,0.39897
0.1343456,0.9161604,0.3976693
0.1387209,0.9171099,0.4052499
0.1431909,0.9164813,0.4095841
0.1423383,0.9169433,0.4079747
0.1384233,0.9186895,0.4052318
0.1362569,0.919739,0.4034145
0.1321574,0.9199957,0.4041169
0.1325018,0.9198963,0.4042905
0.1368696,0.9206885,0.403274
0.1359284,0.918484,0.403224
0.1371285,0.9156355,0.4034987
0.1392443,0.9185094,0.4028007
0.1386218,0.920591,0.4032043
0.1403173,0.9189205,0.407591
0.1402906,0.918349,0.4110913
0.1401879,0.9186239,0.4099855
0.1406096,0.920473,0.4086461
0.1397839,0.9230435,0.4082573
0.1401603,0.9211312,0.4065997
0.1374608,0.9171097,0.4054168
0.1352777,0.9160178,0.4028357
0.1370959,0.9157268,0.3966373
0.1376065,0.9154888,0.3963517
0.1352522,0.9173769,0.401289
0.1311388,0.9203859,0.4016695
0.1304882,0.921494,0.4019498
0.1344562,0.9196713,0.4048668
0.1382016,0.9187571,0.4088778
0.1383736,0.918849,0.4090458
0.1373375,0.918052,0.4021982
0.1386442,0.919701,0.4017789
0.1371963,0.92168,0.4069269
0.1348482,0.9202951,0.4071609
0.1350202,0.917802,0.4076045
0.1343538,0.9160994,0.4102897
0.1354624,0.9163418,0.4147265
0.1349037,0.9171339,0.4158122
0.1323113,0.9165208,0.411142
0.1334177,0.9168423,0.411576
0.1336641,0.9187373,0.412926
0.1330034,0.9198171,0.4095012
0.1340552,0.9199945,0.4081637
0.1359478,0.9209799,0.4057535
0.1370759,0.9224214,0.4035708
0.1315824,0.9208518,0.405789
0.1253934,0.9180741,0.4066088
0.1284556,0.91864,0.4069824
0.1318521,0.9190759,0.4077413
0.1299298,0.9208888,0.4083794
0.1304308,0.9252295,0.4114226
0.1311672,0.9236404,0.4115343
0.1295477,0.9197525,0.4095388
0.1291047,0.9163418,0.4096699
0.1273232,0.9103533,0.4086634
0.1275225,0.9100633,0.4082602
0.1304495,0.9135454,0.4103719
0.1305772,0.9167718,0.4152742
0.1305643,0.9228528,0.4194068
0.1294885,0.9231126,0.4156743
0.1273276,0.9214213,0.4116047
0.1260612,0.9250265,0.4128845
0.124231,0.9228671,0.4127572
0.1249348,0.9180391,0.4125954
0.1258579,0.9164442,0.4132173
0.1518965,0.8245093,0.5613361
0.1468297,0.8384314,0.5583813
0.1534027,0.845184,0.5564039
0.1629605,0.8398697,0.5616588
0.1659656,0.8355877,0.5584058
0.1659023,0.8331113,0.5588694
0.1645591,0.8278028,0.5590418
0.1652584,0.8299536,0.5576756
0.1647654,0.8314255,0.5642124
0.1630503,0.8313498,0.5658751
0.1645387,0.8330209,0.5643792
0.1651016,0.8283112,0.5626595
0.1631342,0.8232414,0.5619223
0.1596516,0.81307,0.5654778
0.1589568,0.8032608,0.5661136
0.1640755,0.8088643,0.5669445
0.1686115,0.8186375,0.5655092
0.1725249,0.8295599,0.5614999
0.176025,0.8349048,0.561246
0.1748404,0.8267258,0.5613926
0.1684041,0.8209957,0.5634116
0.1594326,0.8184405,0.5636704
0.1593347,0.8134684,0.5632488
0.1633389,0.8147473,0.5649155
0.1611717,0.8233108,0.5642794
0.1660645,0.8321631,0.5692459
0.1727892,0.8342667,0.5731806
0.1716406,0.8325233,0.5658372
0.1737229,0.8329999,0.5604785
0.1743448,0.825101,0.5648359
0.1708207,0.8135112,0.5684626
0.1713402,0.8176712,0.562623
0.1746033,0.8228454,0.5573274
0.1781743,0.8205841,0.5569551
0.1777082,0.8247801,0.5578548
0.175215,0.8262553,0.5628965
0.1766155,0.8238634,0.5644439
0.1768339,0.8256539,0.5603624
0.1745513,0.8257876,0.5562904
0.1704913,0.8291345,0.5542469
0.1647493,0.833136,0.5564439
0.1665626,0.8282299,0.5582832
0.1729116,0.8234534,0.5620368
0.1740259,0.8239426,0.566851
0.1739158,0.8233034,0.5662872
0.1734871,0.8194915,0.5673486
0.1732193,0.8171294,0.5675108
0.1742404,0.819332,0.5604991
0.1731835,0.8255735,0.5552976
0.1732363,0.8310967,0.5589388
0.1722362,0.8287472,0.5646838
0.1697339,0.8246324,0.566949
0.1710349,0.824115,0.5710507
0.1714995,0.8216563,0.568894
0.1722087,0.8217081,0.5598801
0.173571,0.8250966,0.5607633
0.1692043,0.8245429,0.5617421
0.1654478,0.8222677,0.5577376
0.1701484,0.8207786,0.5573202
0.1780254,0.8231801,0.557
0.1794328,0.8287115,0.5631231
0.1735346,0.8291639,0.5703738
0.1679424,0.8281764,0.5689215
0.1686722,0.8271677,0.5659092
0.1709463,0.8236953,0.562068
0.169834,0.8251087,0.5607537
0.1717711,0.828067,0.5592423
0.1726649,0.8293373,0.5539157
0.167769,0.8315894,0.5531037
0.1665694,0.8303469,0.5561499
0.1702484,0.8285325,0.5611459
0.174318,0.8266814,0.5604042
0.1733689,0.8228388,0.5544822
0.1698421,0.8231979,0.556069
0.171325,0.8248319,0.5602301
0.1719114,0.8258286,0.568001
0.1717917,0.8287057,0.574726
0.1715105,0.8278958,0.5676284
0.167237,0.8251144,0.5625062
0.1659544,0.824614,0.5659664
0.166804,0.8221402,0.5659369
0.1666777,0.8172483,0.5644733
0.1664599,0.8151544,0.5643226
0.164592,0.8211098,0.5592694
0.1642932,0.8279476,0.5533575
0.1681111,0.8258688,0.5560445
0.175755,0.8269626,0.5579224
0.1809785,0.8329865,0.5525149
0.1806994,0.8311803,0.551418
0.1800856,0.8318841,0.5578293
0.1777748,0.8366083,0.5620395
0.1751336,0.8336724,0.5554253
0.1745531,0.8321628,0.5483271
0.1731923,0.8334653,0.5533182
0.1723981,0.8291379,0.5568609
0.1720662,0.8247381,0.5555349
0.1708235,0.824179,0.5592667
0.168861,0.8244351,0.559291
0.1674065,0.82349,0.5578106
0.1678412,0.8231409,0.5643405
0.1674783,0.8235606,0.5702424
0.1663566,0.8207853,0.5716817
0.1674545,0.8187748,0.5700344
0.168667,0.8212802,0.56822
0.1682901,0.8230854,0.5691207
0.1696285,0.8222355,0.5671256
0.1714815,0.821786,0.5639151
0.1699847,0.8225467,0.5616238
0.1689394,0.8225892,0.5589213
0.1707305,0.8240956,0.5583884
0.1721336,0.8289011,0.5575374
0.1723886,0.8346063,0.5560578
0.1724168,0.8388233,0.553356
0.1730252,0.8364464,0.5523666
0.1737559,0.8323982,0.5568865
0.1724863,0.8322327,0.5565214
0.1699006,0.8257622,0.5551759
0.1687594,0.8191396,0.560166
0.1689371,0.8225407,0.5639184
0.1693825,0.8231967,0.5675482
0.1695589,0.8201848,0.5669973
0.1687981,0.8208323,0.5635426
0.1690779,0.8198662,0.566984
0.1700626,0.8179799,0.5691131
0.1692271,0.8185436,0.5709592
0.1690165,0.8209835,0.5741903
0.1688019,0.8245929,0.5672261
0.1665921,0.8244363,0.5595967
0.1664848,0.8229213,0.5596823
0.1682329,0.8254021,0.5583175
0.1706385,0.8254762,0.5566638
0.1751333,0.8223419,0.5581725
0.1775086,0.822139,0.5594878
0.1758727,0.8233583,0.5625989
0.1732504,0.8245219,0.5668069
0.1713106,0.8248263,0.5653752
0.170208,0.8236153,0.5627496
0.1692405,0.8236783,0.5635394
0.1693326,0.8240162,0.5611389
0.1700583,0.8247653,0.5571588
0.1684151,0.8249577,0.5582134
0.1658071,0.8200521,0.5618901
0.1664536,0.8173871,0.56258
0.1695109,0.8229517,0.5597128
0.1742328,0.8287956,0.5574717
0.1780659,0.8294727,0.5589027
0.170476,0.8273177,0.5630875
0.1602275,0.8225798,0.5658377
0.1635553,0.8140744,0.567608
0.1659143,0.8126462,0.5688961
0.1622377,0.822033,0.5637845
0.1643277,0.8306825,0.5562055
0.1644804,0.8372825,0.5533274
0.1625487,0.8396175,0.5544985
0.1626945,0.8391099,0.5605052
0.1594248,0.8427325,0.5661287
0.1589772,0.8394742,0.5645047
0.1610973,0.8254537,0.5582216
0.1618927,0.8123449,0.5519753
0.163199,0.8114423,0.5527829
0.1561994,0.8191499,0.5616802
0.1463652,0.8185686,0.571188
0.1458023,0.8165403,0.5766788
0.1454352,0.816447,0.5781659
0.1447397,0.8083846,0.5862184
0.1482037,0.8042733,0.5968879
0.14596,0.8051171,0.592762
0.1425632,0.8029083,0.5870445
0.1463187,0.8026407,0.5874
0.1505804,0.8122224,0.5843014
0.1570423,0.832664,0.5816122
0.162739,0.8428614,0.5721707
0.1620612,0.83624,0.5621736
0.1620187,0.8266607,0.5665486
0.1608948,0.817095,0.566764
0.1602039,0.8159751,0.5628406
0.1598077,0.8217359,0.5705773
0.1516629,0.8252977,0.5768124
0.1468405,0.8354159,0.5748344
0.1517268,0.8481973,0.5712466
0.1571107,0.852964,0.5662969
0.1565265,0.8513053,0.5645996
0.1492856,0.8354041,0.5666669
0.1415066,0.815541,0.5671804
0.137236,0.8219855,0.5753599
0.1373411,0.8428377,0.5913825
0.1393672,0.8492359,0.5968445
0.1456319,0.8353052,0.5891786
0.1563219,0.8131543,0.5746631
0.1592811,0.8106148,0.5635828
0.1584063,0.8173576,0.5658912
0.1567934,0.8123354,0.5705664
0.1497005,0.8144623,0.5769868
0.1486231,0.8148684,0.5972313
0.1504626,0.7995975,0.6170937
0.1448649,0.7828572,0.6185919
0.1364848,0.7727763,0.6129227
0.1254772,0.7754095,0.6091764
0.1133464,0.7760196,0.6002054
0.1068052,0.7771163,0.5957765
0.1088132,0.7962179,0.5997812
0.1157524,0.8118051,0.5989004
0.1189311,0.8160157,0.597605
0.1154789,0.8072428,0.5980371
0.1101407,0.7908837,0.5952549
0.1086022,0.7890895,0.5960239
0.1093967,0.7873341,0.6019456
0.1117203,0.788732,0.6087487
0.1189369,0.7983189,0.6124462
0.1248863,0.7894016,0.6096901
0.1303998,0.7729216,0.6051625
0.1381902,0.7610567,0.5995474
0.1418252,0.7590447,0.5886201
0.1495463,0.7760436,0.5860887
0.1594526,0.7942771,0.6018272
0.1592729,0.8144686,0.6204802
0.159814,0.83219,0.625574
0.163399,0.8310189,0.6062066
0.1592257,0.8295044,0.5792444
0.1547793,0.8314606,0.572984
0.1572716,0.8310447,0.5719916
0.1577537,0.8362102,0.5707476
0.1560098,0.8402806,0.5769704
0.1574152,0.8361965,0.5708254
0.1570364,0.8246268,0.5648938
0.1564996,0.8166183,0.5720183
0.1590473,0.8234367,0.5742447
0.1646677,0.8360085,0.5761
0.1714068,0.8412494,0.5775284
0.1675611,0.8361335,0.5769726
0.1601405,0.8238553,0.5849231
0.1610443,0.8072554,0.5913997
0.1607037,0.7964123,0.5896122
0.1630255,0.7948867,0.588434
0.1682817,0.7889749,0.5910564
0.1619421,0.7865367,0.5930839
0.1552044,0.7950477,0.5998018
0.1576402,0.7982121,0.6102917
0.159983,0.8021674,0.6030776
0.1613871,0.8125568,0.588886
0.1605734,0.8164589,0.5854656
0.1578525,0.8175498,0.5780025
0.1577334,0.8185176,0.5711776
0.1558963,0.8183089,0.5744693
0.1534369,0.8183979,0.5790111
0.1561831,0.8154377,0.5838587
0.1600129,0.8149098,0.5918328
0.1611908,0.815637,0.5970637
0.162432,0.8147821,0.5930732
0.1648567,0.8145526,0.5888163
0.1666709,0.808724,0.5837932
0.1669978,0.8035626,0.5740745
0.165458,0.8055893,0.575582
0.1610377,0.8082396,0.5805162
0.155981,0.8086044,0.578754
0.1559035,0.8081034,0.5799038
0.1586358,0.8089243,0.578992
0.1596565,0.8101677,0.5788392
0.1632459,0.8131656,0.5820335
0.1655071,0.8168833,0.5816752
0.1627702,0.8180756,0.5817837
0.1629578,0.8169874,0.5793134
0.1625297,0.8140342,0.5778274
0.159844,0.815435,0.5857084
0.1607544,0.8180918,0.5929571
0.1638248,0.8172534,0.5928243
0.167565,0.8158421,0.5888574
0.16471,0.8091611,0.5837942
0.1591718,0.8052365,0.577818
0.1614807,0.810837,0.5793521
0.1619031,0.8171561,0.5867664
0.1610844,0.8238939,0.5836978
0.1634899,0.8271936,0.5791182
0.1621531,0.8205665,0.5780027
0.1612456,0.8118886,0.5769214
0.1618832,0.811064,0.5836355
0.1632867,0.8128678,0.5860928
0.1664815,0.8115028,0.5840354
0.1653515,0.8133908,0.5850822
0.1635486,0.8149412,0.5834383
0.1642513,0.8132011,0.5844944
0.1632758,0.8133412,0.5858847
0.1620792,0.8105117,0.5859434
0.1606406,0.8069092,0.5858112
0.1596998,0.8087366,0.5834647
0.1600563,0.8116783,0.5842331
0.1593997,0.8129323,0.5833167
0.1595357,0.8127405,0.582582
0.159144,0.8122044,0.5842448
0.1583852,0.8125304,0.5825607
0.1622115,0.8126755,0.5821801
0.1661008,0.8123218,0.5802092
0.165476,0.8127162,0.5779866
0.1635468,0.8135077,0.5803664
0.1619364,0.813804,0.5833044
0.1606811,0.8132371,0.5884414
0.1608124,0.8119978,0.5912689
0.1617466,0.8124027,0.5891404
0.1616556,0.8129032,0.5867194
0.160797,0.8117843,0.5834746
0.1568462,0.8110206,0.5824542
0.1527202,0.8099985,0.5830968
0.1570647,0.8098616,0.5822277
0.1624185,0.8093134,0.5834184
0.1624643,0.807406,0.5862975
0.1625097,0.808991,0.5874819
0.1609787,0.8116776,0.5841831
0.1597354,0.8135945,0.5792404
0.1592249,0.8145051,0.5801609
0.1564474,0.8104994,0.5818882
0.158984,0.8050391,0.5814179
0.1630712,0.8027629,0.5833678
0.1602041,0.8085789,0.5832229
0.1577734,0.817166,0.5834987
0.1574957,0.8141781,0.5859392
0.1588186,0.8103482,0.5845749
0.1620361,0.8134832,0.5851881
0.1587452,0.8125923,0.5876097
0.1553528,0.8118979,0.5883739
0.1595155,0.813118,0.589977
0.1615306,0.81213,0.5855164
0.1609382,0.8125703,0.5800932
0.1612934,0.8130069,0.5853934
0.1609373,0.8140445,0.58989
0.1612013,0.8151504,0.5872747
0.1611411,0.8108988,0.5891634
0.1608056,0.8067475,0.594381
0.1602016,0.8093236,0.5950112
0.1584262,0.8127967,0.5937464
0.1585421,0.8125067,0.5913812
0.1611463,0.8128018,0.5867499
0.1635103,0.8144934,0.5821128
0.1636801,0.8155194,0.5778733
0.1629917,0.8164391,0.5749187
0.1607802,0.8185776,0.5758967
0.154305,0.8228529,0.5863829
0.1508598,0.8211416,0.5987718
0.1539589,0.8094042,0.593344
0.1568091,0.7983369,0.5830971
0.159189,0.7962115,0.585198
0.1608567,0.8002649,0.5856591
0.1608384,0.8008557,0.5873259
0.1615477,0.8020195,0.5929629
0.1610512,0.8100639,0.5916561
0.1607542,0.8148443,0.5928166
0.1610567,0.8141809,0.5936334
0.1581356,0.8106484,0.5882576
0.1557462,0.8084685,0.5871225
0.1551135,0.8102238,0.5883417
0.1538941,0.8086645,0.5900788
0.1538941,0.8080178,0.589858
0.1547652,0.8097819,0.5870056
0.1563163,0.8108804,0.5875849
0.1591252,0.814164,0.5882466
0.1605935,0.8168019,0.5908853
0.1595478,0.8169758,0.5939513
0.1593657,0.8085773,0.5904244
0.1598192,0.7986721,0.5873246
0.1568035,0.8007534,0.588035
0.1518737,0.7996096,0.58785
0.1486874,0.7935743,0.5856672
0.1511809,0.7987466,0.581443
0.1594368,0.8074344,0.5765207
0.1657545,0.812203,0.5782978
0.1647291,0.8157784,0.5838461
0.1599748,0.8150599,0.5844495
0.1606831,0.8124799,0.5879038
0.1632406,0.809709,0.5894723
0.1616668,0.8059584,0.5854523
0.1618929,0.806832,0.5881966
0.1611291,0.8077636,0.5882364
0.1603084,0.8069448,0.5869635
0.1618529,0.8081915,0.5932095
0.1593755,0.8066733,0.5953008
0.1575407,0.806392,0.5943205
0.1568551,0.808041,0.5922518
0.1562649,0.8082439,0.589862
0.1577353,0.8103732,0.5891402
0.1565804,0.8101276,0.5827682
0.1569293,0.8095212,0.5764512
0.158393,0.8129002,0.5749299
0.1585453,0.8146184,0.5756416
0.1614921,0.8141814,0.5841944
0.1628956,0.8148077,0.5991553
0.1617791,0.8174319,0.6039166
0.1606412,0.818362,0.5962676
0.1608475,0.8147366,0.5911619
0.1611958,0.8109794,0.5839646
0.1579614,0.8081748,0.5807814
0.1561792,0.8025159,0.5907863
0.1565971,0.7965198,0.5935738
0.1552907,0.7974591,0.5912739
0.1537141,0.7987805,0.5889139
0.153502,0.7925054,0.5855052
0.1537349,0.7904574,0.5910465
0.1512253,0.7953413,0.5938172
0.1498042,0.8006751,0.5936346
0.151468,0.8079279,0.5922303
0.154879,0.8117971,0.5836497
0.1600178,0.8129246,0.5821529
0.1582406,0.8154368,0.5833584
0.1549938,0.8177907,0.5794444
0.1579154,0.8235492,0.5725154
0.1567594,0.8294884,0.5611386
0.1543672,0.8363364,0.5565011
0.1535286,0.8453776,0.5618413
0.149058,0.84457,0.5700525
0.1462524,0.8403679,0.5747933
0.1462788,0.8395208,0.5762627
0.1450868,0.828683,0.5787924
0.1420807,0.8139426,0.5787261
0.1406219,0.8045739,0.5825428
0.1389952,0.7960054,0.5911805
0.1343795,0.7985886,0.5926194
0.1355725,0.8095014,0.5886147
0.1376536,0.8139422,0.5862536
0.135775,0.8199235,0.5871158
0.14089,0.8227021,0.5848286
0.1443966,0.8173954,0.5795651
0.1389633,0.8171472,0.5801649
0.1317064,0.8179363,0.5833248
0.1252145,0.8204169,0.5858128
0.1237722,0.8273302,0.5908567
0.1246758,0.8311736,0.5938545
0.1243139,0.8331683,0.5878417
0.1255866,0.8317735,0.5819444
0.1275837,0.8315627,0.5862598
0.1280581,0.8347137,0.5920559
0.1253796,0.8328316,0.595242
0.1205127,0.8232282,0.5969325
0.1123772,0.8038061,0.5993809
0.105091,0.7907946,0.6077574
0.1070698,0.7897769,0.612806
0.1072561,0.7821568,0.6176154
0.09799524,0.7802169,0.6309752
0.08904622,0.7863949,0.6383812
0.08371297,0.7816653,0.6354822
0.08406631,0.7754518,0.6319141
0.0868387,0.7657014,0.6359845
0.08266173,0.7512187,0.6443971
0.07092702,0.7510457,0.6524735
0.05885046,0.7508857,0.6653598
0.06287046,0.7448846,0.6684615
0.07299333,0.7467129,0.6713266
0.06977427,0.748278,0.6877082
0.073369,0.7566937,0.6838292
0.07825562,0.7696073,0.6711289
0.07150583,0.7711383,0.6713488
0.07255883,0.7770969,0.6679655
0.07119092,0.7875363,0.6643833
0.06595912,0.7861753,0.6556828
0.06351085,0.7820461,0.6517682
0.05173809,0.7813453,0.6653301
0.04677083,0.7723065,0.6727456
0.0494011,0.7595223,0.6793146
0.04605001,0.7565762,0.6936655
0.04311272,0.7535768,0.7075154
0.03413091,0.7441255,0.7190525
0.01360984,0.7265098,0.7226854
-0.01158782,0.7019523,0.7263529
-0.02845071,0.6874044,0.7304396
-0.03045098,0.6801412,0.7358353
-0.02829907,0.6762357,0.7472047
-0.02624031,0.6789858,0.7491875
-0.02493346,0.681255,0.7493172
-0.0278061,0.6869675,0.7545211
-0.03242352,0.6910351,0.7594665
-0.03516936,0.6886483,0.7701796
-0.0372491,0.6903405,0.7741965
-0.03972138,0.691785,0.7745038
-0.03729505,0.6871827,0.7781116
-0.03467234,0.6827782,0.770767
-0.0370476,0.6835415,0.7664261
-0.03820846,0.6842057,0.7703393
-0.04007501,0.6814882,0.7710893
-0.04260762,0.6774061,0.7755701
-0.04406065,0.6664457,0.7825256
-0.04681765,0.657498,0.7899152
-0.04620979,0.6535752,0.7929166
-0.0463965,0.6315523,0.7901029
-0.05553668,0.6026706,0.7929842
-0.07030498,0.5895734,0.7947984
-0.08452652,0.5681375,0.7982539
-0.09453848,0.533911,0.8120644
-0.1027638,0.5148195,0.8256059
-0.1066069,0.5010481,0.8400444
-0.1043065,0.482965,0.8606404
-0.1101045,0.472153,0.876795
-0.1242781,0.4640054,0.8758126
-0.1308547,0.4609857,0.8753761
-0.1272407,0.4619577,0.8861125
-0.1211643,0.465537,0.892075
-0.1169648,0.4778335,0.9034898
-0.1120847,0.4787113,0.9050134
-0.1086314,0.4721999,0.8909417
-0.1058277,0.4692727,0.8924794
-0.0984789,0.4548779,0.8884267
-0.09682131,0.4485801,0.8842008
-0.09960926,0.4567218,0.8908584
-0.09645136,0.4626034,0.8855717
-0.09496745,0.4706287,0.8874624
-0.09651925,0.4717436,0.889488
-0.09760867,0.4687137,0.8870032
-0.09984717,0.4722597,0.8948735
-0.1027082,0.4716287,0.9003709
-0.1068861,0.4739915,0.9088818
-0.1096933,0.4822895,0.906664
-0.113735,0.4817579,0.8965812
-0.1272935,0.4737083,0.9038148
-0.1427045,0.4588348,0.9075577
-0.1467788,0.4411785,0.9083053
-0.1446112,0.4336035,0.9109351
-0.1445293,0.4358583,0.9055569
-0.1393882,0.4493634,0.9036168
-0.1291732,0.4647441,0.9044478
-0.1273339,0.4567181,0.9108911
-0.1321394,0.4276435,0.9266526
-0.1352553,0.3928919,0.9370221
-0.1394688,0.3674049,0.9332706
-0.1445028,0.3679487,0.9252075
-0.1497978,0.3791816,0.923285
-0.1531027,0.3879255,0.9144371
-0.1478778,0.3969275,0.9067954
-0.1418399,0.3907207,0.9115276
-0.135618,0.3753604,0.914471
-0.1256756,0.3652497,0.9287974
-0.1278101,0.3614859,0.9413308
-0.1398255,0.3662551,0.9352668
-0.1519082,0.3603049,0.9391806
-0.1648934,0.3451861,0.9478206
-0.1655578,0.3307093,0.9526809
-0.1542222,0.311709,0.9545535
-0.1477935,0.3083138,0.9504311
-0.1523933,0.3114383,0.9525541
-0.1605765,0.3027839,0.9472941
-0.160078,0.2938447,0.9414733
-0.1577916,0.28971,0.9547612
-0.15736,0.2992081,0.9623534
-0.151618,0.3111076,0.9536209
-0.1466335,0.311808,0.9455874
-0.1422837,0.3027251,0.9496915
-0.1385126,0.2825293,0.9551261
-0.1398674,0.2683267,0.9572237
-0.1508342,0.2564468,0.9654755
-0.1705236,0.2393221,0.9661795
-0.1745414,0.2309754,0.9633186
-0.1646381,0.2276979,0.9659287
-0.1615562,0.2284553,0.9630072
-0.1580768,0.2316401,0.9639506
-0.1580733,0.2327952,0.9675364
-0.1650623,0.2301772,0.9668979
-0.1666152,0.2234669,0.9672927
-0.1615914,0.2238745,0.9661308
-0.1553476,0.2188717,0.9694132
-0.1585164,0.206741,0.9771695
-0.1689338,0.2062806,0.9812094
-0.1749453,0.1973045,0.9805788
-0.1764326,0.1681197,0.9785469
-0.1734183,0.1419564,0.9786307
-0.1737817,0.1357633,0.9758725
-0.1800877,0.1329777,0.9755142
-0.1821298,0.117872,0.9756892
-0.1785653,0.1163929,0.9671625
-0.1718566,0.120116,0.9642469
-0.1717316,0.1076933,0.9688875
-0.1793463,0.09985701,0.975581
-0.1860118,0.08570723,0.9820973
-0.1906238,0.06523714,0.982294
-0.1839946,0.05812011,0.9824214
-0.1724492,0.04851148,0.9788139
-0.169913,0.04296064,0.9710145
-0.1731339,0.04315393,0.9703436
-0.1827042,0.03601521,0.9805237
-0.1915946,0.03353757,0.9923041
-0.1919362,0.0363303,0.9869749
-0.1808656,0.0490842,0.9779882
-0.1665726,0.06505645,0.9766724
-0.1711956,0.06114583,0.9712143
-0.1824215,0.05331007,0.970183
-0.1867297,0.04307793,0.9720542
-0.1914333,0.01186271,0.973364
-0.1899907,-0.01297975,0.976453
-0.1886276,-0.01402918,0.9724886
-0.1897978,-0.01230512,0.9698185
-0.1877996,-0.0113419,0.9700048
-0.1876598,-0.00861929,0.9701165
-0.1801969,-0.002875701,0.9795943
-0.1714703,0.007022291,0.9888507
-0.1749966,0.005473795,0.9889053
-0.1774236,0.001798987,0.9873775
-0.1756647,0.006757108,0.9891056
-0.1765008,0.008612729,0.9897512
-0.1776204,0.02004869,0.9886549
-0.1804676,0.03453425,0.9928086
-0.1837609,0.0293575,0.9953564
-0.1772525,0.02411557,0.9910983
-0.1648493,0.02755425,0.9860898
-0.1618468,0.02020168,0.9794151
-0.1640661,0.009341779,0.973389
-0.1609896,0.008994243,0.9721809
-0.1531409,0.009357091,0.9745797
-0.1496752,0.006995435,0.9818913
-0.1605528,0.005965553,0.9942304
-0.1687003,0.009144627,0.9996459
-0.1532628,0.01225883,0.9955883
-0.1347953,-0.001274065,0.9958475
-0.1369865,-0.01840229,0.9937486
-0.1460703,-0.02241972,0.9870493
-0.1496681,-0.0269324,0.9835158
-0.1524303,-0.028436,0.9763592
-0.1508582,-0.02413664,0.9761014
-0.1467772,-0.02759538,0.9819523
-0.1465761,-0.03169096,0.9835519
-0.1478654,-0.03216362,0.9918685
-0.1493075,-0.03660042,0.9954339
-0.1502669,-0.0375121,0.9897193
-0.1512804,-0.03588568,0.9881656
-0.1493553,-0.04157185,0.9816463
-0.1372596,-0.05426686,0.9743023
-0.1157158,-0.07640219,0.9807753
-0.1051657,-0.09145016,0.9927543
-0.1218214,-0.08519602,1.003073
-0.1391285,-0.08040867,1.011153
-0.1401532,-0.08144814,1.00258
-0.1398622,-0.07937041,0.9843002
-0.1355518,-0.08100031,0.9842333
-0.1266978,-0.07998376,0.9873864
-0.122398,-0.07423241,0.9801222
-0.1226101,-0.07263519,0.9777255
-0.1219948,-0.08060704,0.9752746
-0.1153419,-0.09999538,0.9727487
-0.113795,-0.1119886,0.9736727
-0.1234417,-0.1104721,0.9739923
-0.1306464,-0.1136772,0.9767545
-0.1285724,-0.1172774,0.9781567
-0.1249572,-0.1218582,0.9779602
-0.1242824,-0.1421277,0.9767133
-0.1215411,-0.1579261,0.976228
-0.1270777,-0.152164,0.9797374
-0.1370728,-0.1460144,0.9786346
-0.1278355,-0.1478616,0.9687444
-0.1171911,-0.1557719,0.9560407
-0.1202199,-0.1765535,0.9581229
-0.1294184,-0.1917087,0.9730577
-0.1473958,-0.1894408,0.9785382
-0.1544181,-0.1878937,0.9772101
-0.1458558,-0.1906652,0.9753176
-0.1434642,-0.1950508,0.9745299
-0.1434332,-0.2002733,0.9689767
-0.1438969,-0.1983241,0.9559589
-0.1503507,-0.194279,0.9541178
-0.1581834,-0.1943295,0.9556923
-0.1631015,-0.1941559,0.9546949
-0.1607094,-0.1993461,0.9608622
-0.1609966,-0.2107369,0.9634304
-0.1757526,-0.2151532,0.9656164
-0.1882252,-0.2161266,0.9666743
-0.1827426,-0.2219594,0.9577218
-0.1724694,-0.2273422,0.9517961
-0.1698619,-0.233848,0.9523791
-0.1707122,-0.2515031,0.9490409
-0.1729964,-0.2747677,0.9411722
-0.1762914,-0.2761685,0.9410828
-0.1829355,-0.2661957,0.9436598
-0.1947433,-0.2741267,0.9384668
-0.1964725,-0.2751516,0.9394006
-0.1881247,-0.272062,0.9398526
-0.1846502,-0.2815869,0.9335707
-0.1825271,-0.2791228,0.9346716
-0.1826968,-0.2851338,0.9344884
-0.185051,-0.3080883,0.9301085
-0.1857392,-0.320866,0.9262727
-0.1908934,-0.3286956,0.9211667
-0.1924265,-0.3278321,0.9192605
-0.1886328,-0.3219613,0.9171716
-0.1877156,-0.3208361,0.9135405
-0.1824188,-0.3224205,0.9045964
-0.1757858,-0.3356476,0.8934157
-0.1777193,-0.3522848,0.8980862
-0.1875502,-0.3639013,0.9049061
-0.1990858,-0.3715395,0.8996815
-0.2004635,-0.37951,0.8964254
-0.1943152,-0.3907953,0.8930132
-0.1935125,-0.3911408,0.8881816
-0.1935754,-0.3900435,0.8901587
-0.1897828,-0.396224,0.8894687
-0.1888135,-0.4002137,0.8826815
-0.1934552,-0.4072584,0.876927
-0.2012375,-0.4099532,0.8705402
-0.2027783,-0.4092383,0.8675753
-0.1925422,-0.4141924,0.8740538
-0.1839976,-0.4152608,0.8792726
-0.1859951,-0.4177607,0.871896
-0.1847276,-0.4266216,0.8639246
-0.1762123,-0.434764,0.8654604
-0.1764239,-0.4417427,0.8618296
-0.17993,-0.4476505,0.854206
-0.1774738,-0.452254,0.8539594
-0.180534,-0.4529279,0.8555304
-0.1861791,-0.4529839,0.8621993
-0.1914268,-0.4582894,0.8665968
-0.1935222,-0.4671685,0.8515422
-0.1813583,-0.4842635,0.8350858
-0.1729744,-0.4999124,0.8350998
-0.1795373,-0.4959499,0.8352916
-0.1844774,-0.4880554,0.8322879
-0.1834332,-0.4856364,0.8399961
-0.1835951,-0.4800979,0.8457073
-0.1883712,-0.4796837,0.8452072
-0.1906087,-0.4809423,0.8477937
-0.1851186,-0.48387,0.8406346
-0.1770508,-0.4979608,0.8308373
-0.1744809,-0.5061514,0.8293914
-0.1769584,-0.5050484,0.8282553
-0.1745307,-0.5058532,0.8280323
-0.1708255,-0.5069287,0.8255331
-0.1684904,-0.5107039,0.822499
-0.1636491,-0.517546,0.82117
-0.1642797,-0.5286199,0.8230975
-0.1711171,-0.541053,0.8284179
-0.1771494,-0.5458376,0.8222063
-0.1772404,-0.5490781,0.8126031
-0.1734472,-0.5542917,0.8093928
-0.1730228,-0.5535156,0.8073229
-0.1725558,-0.5493336,0.8065901
-0.1734366,-0.5476104,0.8016509
-0.1794639,-0.5417478,0.8034135
-0.1816334,-0.5351665,0.8102651
-0.1775207,-0.5375814,0.8076141
-0.1758056,-0.5385197,0.8086754
-0.1801809,-0.5357396,0.812763
-0.1825946,-0.5337494,0.8174247
-0.1773928,-0.5273076,0.8255202
-0.1712608,-0.5248502,0.8242984
-0.1660059,-0.5290309,0.8172692
-0.1593565,-0.5298155,0.8121325
-0.1598338,-0.5281953,0.8129983
-0.166663,-0.5246733,0.8176682
-0.1690773,-0.518122,0.8162454
-0.1707464,-0.5143501,0.8176941
-0.1694579,-0.5131353,0.8257104
-0.1643029,-0.5070357,0.8371255
-0.1678444,-0.5014979,0.8444706
-0.1726632,-0.5043771,0.8332965
-0.1754407,-0.5051773,0.824642
-0.1797001,-0.5013676,0.8303636
-0.1788647,-0.4992226,0.8302292
-0.1809331,-0.4952247,0.829378
-0.1827226,-0.4930913,0.834163
-0.1808331,-0.4918113,0.837409
-0.1843724,-0.4864631,0.8434813
-0.1861595,-0.4848501,0.8494736
-0.1871919,-0.4836305,0.8419136
-0.1856247,-0.4818122,0.833452
-0.1793488,-0.4844526,0.8459012
-0.1807207,-0.4829756,0.8561462
-0.1835426,-0.4803282,0.8467433
-0.1858058,-0.4781984,0.843001
-0.1882545,-0.4710126,0.8458281
-0.1826094,-0.4682057,0.8414054
-0.1787659,-0.4703952,0.8388295
-0.1814044,-0.4713965,0.8419139
-0.1851871,-0.470823,0.8463149
-0.1903101,-0.469325,0.8488096
-0.1950994,-0.4696709,0.8457649
-0.1977062,-0.4691177,0.8432571
-0.1974185,-0.4683546,0.8463532
-0.1964269,-0.4682738,0.8498824
-0.1941474,-0.4676129,0.8528948
-0.1895008,-0.4694244,0.8507457
-0.1877889,-0.4697073,0.8437253
-0.1891528,-0.4691325,0.8443617
-0.1892219,-0.4698204,0.8467504
-0.1886711,-0.4690938,0.8514375
-0.1899189,-0.4696266,0.8612488
-0.1907048,-0.4695129,0.8577186
-0.1906258,-0.4691615,0.8522855
-0.1931748,-0.4698115,0.8548827
-0.1963564,-0.469149,0.8506001
-0.1979761,-0.4693811,0.8469752
-0.2006424,-0.4684615,0.8486423
-0.2036089,-0.4663001,0.8488233
-0.2008175,-0.4647695,0.8465947
-0.1947994,-0.4632446,0.8449466
-0.194294,-0.4638473,0.8474773
-0.1979525,-0.4642333,0.8522427
-0.203022,-0.463595,0.8579788
-0.2057324,-0.4640031,0.8568694
-0.2027983,-0.4639209,0.8508803
-0.1991985,-0.463799,0.8514524
-0.1955196,-0.4634318,0.8524321
-0.1946044,-0.4606349,0.8525376
-0.1974717,-0.4558729,0.8524968
-0.1982563,-0.4524591,0.850261
-0.2003401,-0.4516372,0.8508906
-0.2008781,-0.451039,0.8511486
-0.1979342,-0.4501996,0.8534961
-0.200041,-0.4487051,0.8618701
-0.205283,-0.445937,0.8673134
-0.2105878,-0.4428925,0.8658695
-0.2109679,-0.4385794,0.8633475
-0.2062427,-0.4340099,0.8655234
-0.2072491,-0.4301971,0.8662742
-0.2092214,-0.4232808,0.8647047
-0.2091279,-0.4159581,0.8682796
-0.2088854,-0.415536,0.8703039
-0.2067011,-0.4172776,0.8710294
-0.2123168,-0.4135838,0.8749902
-0.2188426,-0.4076417,0.8756133
-0.2149086,-0.4042079,0.8753841
-0.2080442,-0.4041011,0.8791678
-0.202552,-0.4007495,0.8843442
-0.2048127,-0.3895992,0.8859914
-0.2093672,-0.3844796,0.8841383
-0.2065898,-0.3878738,0.8849349
-0.2080142,-0.3853458,0.8869653
-0.2114173,-0.3816957,0.8876499
-0.2093325,-0.3833239,0.8876984
-0.2106769,-0.382817,0.8862519
-0.2143094,-0.3795823,0.8862189
-0.2167305,-0.376332,0.8891274
-0.2174697,-0.3719139,0.8935934
-0.210106,-0.3683846,0.8941763
-0.2026632,-0.3673281,0.889228
-0.2065415,-0.3648328,0.8908201
-0.2116162,-0.3609988,0.8973595
-0.2107676,-0.3581476,0.9018618
-0.210081,-0.3548035,0.9091717
-0.2088315,-0.3509798,0.9088157
-0.2069472,-0.3470626,0.9029927
-0.2055896,-0.3456705,0.90306
-0.2003582,-0.3492695,0.8967493
-0.1966757,-0.3526856,0.8929022
-0.1985279,-0.3501021,0.8957892
-0.2037917,-0.3447723,0.8935421
-0.214375,-0.341592,0.8988492
-0.2197037,-0.3379267,0.904994
-0.2153811,-0.3342952,0.9072915
-0.2125429,-0.3318002,0.9131051
-0.2088553,-0.3295191,0.9082233
-0.2041996,-0.3305803,0.9028477
-0.2055656,-0.3307225,0.9055082
-0.2075717,-0.3273285,0.9073184
-0.209265,-0.322357,0.9110107
-0.2150251,-0.3140528,0.9100674
-0.2152196,-0.3053227,0.9076385
-0.1995308,-0.2982953,0.9096685
-0.179009,-0.2973861,0.9118885
-0.1767699,-0.3025883,0.917461
-0.1926888,-0.3027741,0.9226061
-0.2066528,-0.2982667,0.9276446
-0.2125127,-0.2935252,0.9320271
-0.2079634,-0.2890984,0.9261582
-0.1946912,-0.2839876,0.9214906
-0.1860594,-0.2765068,0.927419
-0.1872273,-0.2746971,0.9321678
-0.1982335,-0.2716234,0.9336086
-0.2092765,-0.2607964,0.9368096
-0.2119031,-0.2590887,0.9401222
-0.2111907,-0.2593883,0.9417337
-0.2070281,-0.2549918,0.9408831
-0.2036287,-0.2546542,0.9397973
-0.2028387,-0.2454134,0.9409049
-0.2055875,-0.2320668,0.9434103
-0.2133959,-0.2256735,0.9472924
-0.2143854,-0.2196205,0.9495938
-0.208755,-0.2188858,0.947591
-0.1983353,-0.2184413,0.9432368
-0.1894257,-0.2152417,0.9404368
-0.1954348,-0.2169843,0.9433755
-0.2019667,-0.2165019,0.9491432
-0.2021673,-0.2130975,0.9534779
-0.2033884,-0.2099326,0.9552783
-0.2010864,-0.2049278,0.9529635
-0.1944383,-0.196456,0.9519673
-0.1887104,-0.1845411,0.9534156
-0.1925243,-0.177967,0.9534348
-0.2006967,-0.1742149,0.9580082
-0.2011378,-0.1691286,0.9662392
-0.202729,-0.1683149,0.970364
-0.21034,-0.1647333,0.9716667
-0.2179645,-0.1593955,0.9731375
-0.2256496,-0.1552356,0.9730192
-0.2280371,-0.1452329,0.9690049
-0.2242029,-0.1377649,0.9634203
-0.221502,-0.1327716,0.957963
-0.2180992,-0.1266787,0.9556461
-0.2143204,-0.126871,0.9593934
-0.2142315,-0.1240746,0.9630632
-0.2174491,-0.1134469,0.9679975
-0.2220559,-0.1041283,0.974246
-0.2233009,-0.1015729,0.9708404
-0.2224908,-0.1017319,0.9648541
-0.2207442,-0.09751467,0.9642303
-0.216817,-0.09608924,0.9619927
-0.2182929,-0.09306206,0.9616263
-0.222153,-0.08442374,0.963602
-0.2242063,-0.08656086,0.9620018
-0.2301084,-0.08916062,0.9624288
-0.2311613,-0.080166,0.9647728
-0.2290933,-0.06993794,0.9676419
-0.2338032,-0.05996078,0.9736032
-0.2352447,-0.05591613,0.9747812
-0.2356781,-0.05255154,0.9735098
-0.2391792,-0.03876001,0.9779959
-0.2412703,-0.03007512,0.9830024
-0.2486392,-0.02785491,0.9843795
-0.2522675,-0.02305014,0.9821426
-0.2468247,-0.01555405,0.977946
-0.2419485,-0.001517665,0.9729262
-0.2337114,0.007831756,0.9703114
-0.2297816,0.009699015,0.9724363
-0.2357655,0.007410061,0.9739575
-0.2392815,-0.0004719488,0.9794352
-0.2426801,0.00187902,0.9864055
-0.246768,0.009129683,0.9815093
-0.2419877,0.01346349,0.9707536
-0.2335401,0.01864538,0.9573985
-0.2327898,0.01435419,0.9482611
-0.2374976,0.009677227,0.9563153
-0.2399282,0.008344357,0.9645126
-0.2386478,0.007257793,0.965672
-0.2355195,0.01252075,0.9692501
-0.2343698,0.01425007,0.9690964
-0.235571,0.01819987,0.9675981
-0.2357404,0.02489667,0.9675662
-0.2324275,0.02286141,0.9700753
-0.2265282,0.02486304,0.9761958
-0.2234365,0.03014015,0.9749586
-0.22245,0.03064574,0.9745311
-0.224253,0.03366793,0.9770426
-0.228965,0.04202286,0.9693808
-0.2279697,0.05029359,0.9654683
-0.2255885,0.05174841,0.9732733
-0.2251156,0.05065195,0.9825485
-0.2226455,0.05180063,0.9841588
-0.2234616,0.05316306,0.9761591
-0.2255717,0.05933785,0.9718928
-0.2292059,0.06951142,0.9761819
-0.2351732,0.0737457,0.9822301
-0.231323,0.07645317,0.9843925
-0.2223375,0.0844228,0.9811175
-0.2180361,0.09340029,0.9761402
-0.2128008,0.1045116,0.9727324
-0.2077782,0.1144387,0.976687
-0.2081427,0.1226799,0.9818385
-0.2164348,0.1284123,0.9802134
-0.2257357,0.1210659,0.9797526
-0.2191528,0.1135523,0.9786383
-0.2015913,0.1081893,0.9746683
-0.1879233,0.1012242,0.9720951
-0.1839113,0.1116967,0.9683798
-0.1891202,0.1274379,0.9685735
-0.1877383,0.1367555,0.9718072
-0.1814925,0.1418374,0.9708004
-0.1806743,0.1384809,0.9723787
-0.1780409,0.1380166,0.9748348
-0.1807253,0.1334282,0.9722338
-0.1875576,0.1281896,0.9690851
-0.1937089,0.1376106,0.9661547
-0.2058988,0.1462898,0.9684377
-0.2093691,0.153784,0.9730012
-0.1999999,0.1599584,0.9710071
-0.1901981,0.1595905,0.9726847
-0.1883449,0.1612389,0.9772069
-0.1939318,0.1637351,0.9764997
-0.1945385,0.1676916,0.9777345
-0.1966467,0.1662944,0.978303
-0.2024292,0.1586526,0.9752301
-0.2037756,0.1551526,0.9746515
-0.2038242,0.1514806,0.9750696
-0.2002093,0.1529296,0.9749719
-0.1990758,0.1561351,0.9749338
-0.201001,0.1538691,0.9739613
-0.2001327,0.1594302,0.9732379
-0.200879,0.1667413,0.9730065
-0.1989827,0.1673671,0.9732821
-0.1980442,0.1678235,0.9720836
-0.2010963,0.1718172,0.965847
-0.2014387,0.1788472,0.9589889
-0.2007176,0.1790021,0.9574921
-0.1996706,0.1766628,0.9602245
-0.2007289,0.1803229,0.964768
-0.2007836,0.1811573,0.9670389
-0.193823,0.1796981,0.9624937
-0.1884937,0.1780621,0.9579401
-0.1922754,0.1759257,0.9613918
-0.1996675,0.1797961,0.9642017
-0.2018672,0.1867656,0.9617986
-0.2013128,0.1905821,0.9622395
-0.2010958,0.190795,0.9631611
-0.1979674,0.1902579,0.9599874
-0.1948683,0.19212,0.9528639
-0.1934723,0.1944514,0.9443808
-0.1935948,0.197216,0.9467716
-0.1933568,0.2020568,0.9552067
-0.1928185,0.2060064,0.9567698
-0.1973478,0.2130226,0.9603827
-0.2034273,0.2279294,0.9649413
-0.2070118,0.2366087,0.9639779
-0.2046137,0.2380656,0.9623268
-0.1961111,0.2489201,0.9566752
-0.1925132,0.2544311,0.9497718
-0.1984852,0.2493039,0.9475849
-0.2094376,0.253693,0.9459872
-0.2148057,0.2568267,0.9471563
-0.213395,0.2579066,0.9551555
-0.2060814,0.2694423,0.9595502
-0.1874105,0.2795662,0.9509165
-0.1772561,0.2920468,0.9430723
-0.1812867,0.3079367,0.9454612
-0.1808579,0.3143543,0.9456482
-0.1795801,0.3156703,0.9406885
-0.1778376,0.3158532,0.9393038
-0.1735437,0.3190104,0.9407316
-0.1731552,0.324717,0.9402522
-0.1747018,0.3274635,0.9401047
-0.1753263,0.3334665,0.9403306
-0.1730231,0.3435153,0.9391717
-0.1685649,0.3517178,0.9380432
-0.1640721,0.3542318,0.9346425
-0.1611429,0.3577733,0.9289728
-0.1586566,0.3703112,0.9244091
-0.1552379,0.3793353,0.9228104
-0.156043,0.3822864,0.9236427
-0.157148,0.3875281,0.9238354
-0.1590747,0.3914015,0.9227977
-0.1654512,0.3951239,0.9199798
-0.1647436,0.3968042,0.9170457
-0.1614693,0.3998117,0.9172806
-0.1604512,0.4183324,0.9169883
-0.1532618,0.4330846,0.9142917
-0.1448724,0.428496,0.9115927
-0.1369356,0.4315355,0.9028701
-0.1351655,0.4428829,0.8902569
-0.1424567,0.4448767,0.8873913
-0.1418379,0.451272,0.8860297
-0.137075,0.4589466,0.8836988
-0.1339374,0.458663,0.8905127
-0.1278543,0.4728913,0.8928051
-0.1279216,0.4918802,0.8934412
-0.1284383,0.4917293,0.8963174
-0.1263147,0.4892904,0.889155
-0.1268989,0.490114,0.8866839
-0.1241532,0.4873537,0.8844348
-0.1248057,0.4859798,0.8726554
-0.1279216,0.4886949,0.8678904
-0.1256004,0.4972983,0.8691475
-0.1194238,0.5030121,0.8770926
-0.111303,0.5036372,0.8844364
-0.1153466,0.5067057,0.8770364
-0.1260286,0.5072403,0.8696227
-0.1293046,0.5063778,0.8703229
-0.1344549,0.5112218,0.8715659
-0.1345641,0.5179014,0.8692766
-0.1252895,0.5177971,0.8636336
-0.1194907,0.5113108,0.856189
-0.1185101,0.5081512,0.8529856
-0.1168262,0.5163248,0.855604
-0.1112755,0.5288366,0.8523369
-0.1153329,0.5315607,0.8494446
-0.1289365,0.5348187,0.8516495
-0.1313331,0.5419824,0.8494011
-0.1255058,0.5387826,0.8488946
-0.1174362,0.5373702,0.8472119
-0.111554,0.5416788,0.8415981
-0.111691,0.5444114,0.8390062
-0.1118493,0.5528782,0.8358452
-0.1146583,0.5641131,0.8376733
-0.1124458,0.579191,0.8434066
-0.1062445,0.5938769,0.8409314
-0.1045256,0.5974716,0.8354694
-0.1002708,0.6006706,0.8303576
-0.1032484,0.5997433,0.8245095
-0.1080281,0.5957007,0.8217555
-0.1028157,0.6050243,0.8174779
-0.09980737,0.6126013,0.8117738
-0.09636316,0.6129244,0.8082303
-0.09502494,0.6139863,0.8051471
-0.1011365,0.6092522,0.803934
-0.1058309,0.6032861,0.8021602
-0.1086826,0.5997863,0.8070079
-0.1097064,0.6006124,0.8165371
-0.1123635,0.6080489,0.8125769
-0.1184487,0.6170095,0.8097296
-0.1209285,0.6232936,0.8118101
-0.1165365,0.6215203,0.805123
-0.1080348,0.6156779,0.8024766
-0.1056088,0.6063021,0.7990356
-0.1040331,0.5945651,0.7931429
-0.09564334,0.5936922,0.7976202
-0.09405289,0.6000242,0.8005805
-0.09628193,0.6092505,0.8012434
-0.09691359,0.6207875,0.8022701
-0.1007967,0.6295747,0.7932821
-0.09717512,0.6378257,0.7835385
-0.09217476,0.6406416,0.7833028
-0.09686316,0.6412022,0.783769
-0.09791575,0.646877,0.7796817
-0.09327092,0.6488725,0.7770844
-0.08883086,0.6504857,0.7749612
-0.08341455,0.6618059,0.7687274
-0.08070034,0.6743517,0.7636252
-0.08202271,0.6789061,0.7620281
-0.08341219,0.6823257,0.7610568
-0.08258964,0.6854186,0.7604467
-0.07848111,0.6825101,0.7589982
-0.07005213,0.682848,0.7523967
-0.06195316,0.6867704,0.7447888
-0.05879037,0.6913303,0.7453301
-0.05742982,0.7023812,0.7445997
-0.06169491,0.7081513,0.7376257
-0.06980716,0.7090175,0.7356312
-0.06853217,0.7148228,0.7349842
-0.06337049,0.7167091,0.7289606
-0.05855727,0.7204482,0.7211912
-0.05161427,0.7256691,0.7175024
-0.05328264,0.7188141,0.7156793
-0.05626668,0.7113619,0.709444
-0.05313452,0.7105742,0.7113762
-0.05708718,0.7136467,0.7234753
-0.0637253,0.7259308,0.7291594
-0.06534342,0.7375312,0.7286056
-0.06224663,0.7335299,0.7224516
-0.05574656,0.7241952,0.707902
-0.05640596,0.7230115,0.6942058
-0.05909929,0.7232264,0.695456
-0.05743851,0.721967,0.7013571
-0.05791072,0.7230474,0.6912819
-0.0570625,0.7276382,0.6861036
-0.05813127,0.740918,0.6902858
-0.06114209,0.7539378,0.6894292
-0.06038955,0.7565639,0.6968164
-0.06478741,0.7561319,0.698445
-0.06932217,0.7547215,0.6903134
-0.06307562,0.752112,0.6780657
-0.05391514,0.7539132,0.6562656
-0.04771876,0.7621345,0.655684
-0.04057491,0.7755309,0.6595038
-0.03274223,0.7920347,0.6444652
-0.03059044,0.802681,0.643738
-0.03618617,0.8042703,0.6454536
-0.04294333,0.8058022,0.6399518
-0.04002067,0.8053134,0.6402611
-0.03147678,0.8013949,0.6342607
-0.02553684,0.7939658,0.6299482
-0.01968473,0.7844106,0.6298017
-0.02246955,0.7881011,0.6243192
-0.0305474,0.798136,0.6228115
-0.03758342,0.8059004,0.623953
-0.04996783,0.8165299,0.624595
-0.05358961,0.8254755,0.6262875
-0.055016,0.8378294,0.6237068
-0.06220869,0.84416,0.615547
-0.05559536,0.8396155,0.6059519
-0.04786644,0.840718,0.6040285
-0.04596271,0.8334371,0.6056503
-0.04130752,0.8189877,0.604842
-0.0431277,0.8151876,0.6114349
-0.04592016,0.8100563,0.6164165
-0.04555031,0.8046632,0.6140558
-0.04628854,0.8053188,0.6182242
-0.04453475,0.8053865,0.6235885
-0.04036999,0.8037208,0.6226995
-0.03614849,0.8012488,0.6214442
-0.03713103,0.8031927,0.6199529
-0.0411909,0.8097159,0.6098979
-0.04047139,0.8151003,0.5975066
-0.04062532,0.8176871,0.5992551
-0.04486145,0.819392,0.6006705
-0.04710358,0.8206937,0.5934954
-0.04727427,0.819062,0.5969911
-0.04978214,0.8208594,0.6003394
-0.05362393,0.823995,0.592707
-0.05338209,0.823084,0.5902963
-0.05286853,0.8284503,0.5909326
-0.05519688,0.8362896,0.5863449
-0.05504457,0.8383107,0.5819829
-0.05552549,0.8359738,0.5833136
-0.05746555,0.8315631,0.5860948
-0.05844491,0.8298142,0.5815713
-0.05857901,0.8279468,0.5756606
-0.04921672,0.8316135,0.5724541
-0.03627578,0.8442268,0.5726141
-0.03662705,0.8532215,0.5809553
-0.04530121,0.8584495,0.5832506
-0.0529312,0.858265,0.5763231
-0.06042446,0.8505427,0.5741971
-0.06443221,0.8444246,0.5764848
-0.06228387,0.8433757,0.5781416
-0.05864386,0.8478129,0.5711734
-0.04952443,0.853167,0.5571663
-0.03361649,0.8599832,0.5468582
-0.02610438,0.8738224,0.5410503
-0.02766322,0.8870804,0.5365854
-0.03015991,0.8900354,0.534782
-0.03487664,0.8835519,0.5412374
-0.03403487,0.8818263,0.5421678
-0.0296928,0.8859704,0.5316483
-0.03109665,0.8861673,0.5257506
-0.03049634,0.8874703,0.5176409
-0.02961764,0.8853065,0.5126696
-0.02967952,0.8804972,0.5172671
-0.02685537,0.8823954,0.515786
-0.02955531,0.8831045,0.5174341
-0.03151895,0.8828103,0.5209018
-0.02809481,0.8817332,0.5201755
-0.02739444,0.8776694,0.5235114
-0.02692828,0.8771433,0.5223196
-0.02445121,0.8767435,0.5218321
-0.0211393,0.874292,0.5259519
-0.02094542,0.8730093,0.525788
-0.01974255,0.8734665,0.5233309
-0.0111392,0.8741049,0.519365
-0.007671227,0.8735933,0.519867
-0.01160711,0.8777607,0.517299
-0.01617402,0.8887916,0.5003198
-0.02107433,0.898027,0.4881871
-0.01954604,0.8976688,0.4930879
-0.01449304,0.8988536,0.5011939
-0.01328317,0.907252,0.5010151
-0.01207471,0.9042077,0.4975065
-0.008307905,0.8966678,0.4943658
-0.00319261,0.895614,0.4929526
-0.001425759,0.8902414,0.4949955
-0.003433667,0.8893106,0.4916448
-0.002923868,0.8917534,0.492227
-0.002601563,0.8910529,0.5027076
-0.005055584,0.8935001,0.5054738
-0.004464305,0.8893343,0.5006557
0.003080274,0.8836438,0.4887753
0.01608788,0.8856915,0.4750739
0.02235756,0.8902118,0.4775932
0.01838712,0.8994128,0.4840769
0.01678132,0.9069599,0.480852
0.01620126,0.9095051,0.4779306
0.01544896,0.9100916,0.470626
0.02244485,0.9075146,0.4567105
0.02987205,0.9073245,0.4555787
0.03035746,0.9128268,0.4629605
0.02937745,0.922542,0.4638027
0.03182596,0.927568,0.4592183
0.03650681,0.9228056,0.4512416
0.03935287,0.917808,0.4515113
0.03635113,0.9148258,0.4613531
0.02932802,0.9115232,0.4698525
0.02879317,0.9064972,0.474274
0.0351919,0.8987863,0.4712587
0.04072795,0.8975504,0.4634244
0.04270769,0.9032615,0.4541496
0.03757921,0.9060915,0.4530898
0.03009396,0.9088792,0.4603339
0.02548361,0.9136872,0.4620265
0.02373509,0.912882,0.4679405
0.02744278,0.9075823,0.4716744
0.031793,0.9038918,0.4661095
0.03650031,0.8990292,0.4669212
0.04130897,0.8926898,0.4624462
0.04114027,0.8944032,0.4553127
0.03873421,0.9061958,0.4527937
0.03299212,0.9182518,0.4442861
0.03004621,0.9208841,0.4430562
0.03327081,0.9174297,0.4448995
0.03385268,0.9171848,0.44234
0.035723,0.915393,0.4460869
0.03787636,0.9146086,0.4456808
0.03945001,0.9174106,0.4408501
0.0467477,0.9109564,0.4368612
0.05262029,0.9065112,0.4293702
0.05420157,0.9135029,0.4278121
0.05138812,0.9198511,0.4278337
0.04740241,0.9235539,0.4205938
0.0529844,0.924331,0.4178013
0.05867893,0.9268709,0.4199506
0.05766858,0.9332494,0.4204766
0.05986425,0.9374163,0.4237121
0.06071345,0.9380739,0.427621
0.05686711,0.9328917,0.4255431
0.05387391,0.9283841,0.4215185
0.05051801,0.927304,0.4219725
0.05271359,0.9252661,0.4217331
0.06198181,0.9249332,0.4207374
0.0674794,0.9240248,0.426441
0.06825564,0.9239599,0.428577
0.06676753,0.9261822,0.4211202
0.06525011,0.929875,0.4113628
0.06581448,0.9353824,0.4010512
0.06759155,0.933483,0.4028273
0.0732515,0.9285955,0.4140288
0.07623003,0.9277369,0.4143934
0.0716225,0.9252232,0.4134719
0.06786296,0.9250679,0.4140731
0.06771911,0.9249832,0.4091231
0.07050414,0.9230358,0.4080656
0.07674787,0.9250261,0.4073912
0.08445346,0.925033,0.4056604
0.08669252,0.9269103,0.4035706
0.08304861,0.9338722,0.4000681
0.08162306,0.9355309,0.4005773
0.07870065,0.9338141,0.398807
0.07628664,0.9333746,0.3971372
0.0797111,0.9358218,0.3953616
0.0804443,0.9389139,0.3906377
0.0813448,0.9373199,0.3881389
0.08687656,0.9373358,0.3766963
0.0917884,0.9398925,0.3651788
0.09178587,0.9409887,0.3670224
0.0840195,0.943253,0.3693987
0.07717959,0.9449662,0.3679653
0.07792089,0.9454829,0.3672077
0.08505883,0.9483763,0.3658328
0.09887491,0.9546197,0.3527774
0.1080874,0.9574409,0.3391347
0.1047984,0.9540504,0.3471923
0.1019595,0.9517184,0.3650896
0.1053932,0.9483716,0.3743084
0.1049083,0.9425118,0.3648374
0.1076983,0.9387726,0.350269
0.1245484,0.9396671,0.3529096
0.1386048,0.9477034,0.3567976
0.1358197,0.9519426,0.359409
0.1225087,0.9468309,0.3744748
0.1148357,0.9409433,0.3784652
0.120256,0.9342643,0.3600624
0.1281336,0.9302645,0.3410706
0.1312448,0.9330259,0.3383561
0.1262778,0.940475,0.3470012
0.1192999,0.9519223,0.3476762
0.1209546,0.9593985,0.3440778
0.1243868,0.9573065,0.338807
0.1243683,0.9536175,0.3283833
0.1209355,0.9536225,0.3327549
0.1162781,0.9509545,0.3395917
0.1179439,0.9478818,0.3371869
0.1212883,0.9504258,0.3453451
0.1214732,0.9502958,0.3517367
0.1233708,0.9458392,0.3483399
0.126098,0.937981,0.3432646
0.1285613,0.9261223,0.3356513
0.1305086,0.9213518,0.3363505
0.1301799,0.9233587,0.3462539
0.1308662,0.9266296,0.3517287
0.1313279,0.9354285,0.3462614
0.1325764,0.9452324,0.3356709
0.1934095,0.8778663,0.480932
0.1978202,0.8871823,0.4917949
0.1967968,0.8991135,0.4728293
0.2006628,0.909999,0.4517629
0.2018282,0.9097999,0.4569042
0.1996705,0.9006313,0.457478
0.2071784,0.8917786,0.4513815
0.2139057,0.872843,0.4517786
0.213143,0.8621805,0.4636476
0.2005984,0.8671584,0.4824403
0.180152,0.8529874,0.4906868
0.1793389,0.8397594,0.4969072
0.1897213,0.8448755,0.5007474
0.1970047,0.8512341,0.4873634
0.2151716,0.8657136,0.4683198
0.2236381,0.8690023,0.4584312
0.1981083,0.8613716,0.4685376
0.1692447,0.8640978,0.4841813
0.1714266,0.8616473,0.4793284
0.1853955,0.8660863,0.4770819
0.1879541,0.8805274,0.4856041
0.189752,0.8860609,0.4847725
0.1903581,0.8910155,0.4865799
0.1940262,0.8946623,0.4903194
0.2097401,0.9005723,0.494646
0.2185937,0.9056606,0.5041985
0.2169868,0.8898447,0.5006062
0.2125197,0.8756107,0.4899636
0.1997908,0.8888669,0.4801878
0.1825849,0.897373,0.4670324
0.1749613,0.8701727,0.4501534
0.1771976,0.8304339,0.4276569
0.1707635,0.8094516,0.4282378
0.1583618,0.8170855,0.4563505
0.147431,0.8456422,0.4840774
0.1425012,0.8793049,0.5006108
0.163319,0.90867,0.4813998
0.1890004,0.9170615,0.4568008
0.1941987,0.9126869,0.4721636
0.1845799,0.9111502,0.4801558
0.1632646,0.8946873,0.4751988
0.1438336,0.8768908,0.4788879
0.1327968,0.8718946,0.4681851
0.1353322,0.8694902,0.4629025
0.1400372,0.8759817,0.4612374
0.1313797,0.8854052,0.4489235
0.1353922,0.8972813,0.4463005
0.1434206,0.9115704,0.4419091
0.1446607,0.9219506,0.4396645
0.1536597,0.9282206,0.4412559
0.158953,0.9133031,0.4378225
0.1727799,0.8883057,0.4520545
0.1837938,0.8707333,0.4787712
0.1746074,0.8544647,0.5002938
0.176091,0.8463733,0.5019507
0.1816817,0.8410704,0.4954707
0.1791412,0.8418656,0.5037436
0.1704617,0.8539622,0.4909285
0.1565706,0.8555896,0.4700033
0.1581274,0.8521838,0.476826
0.1594507,0.8555712,0.483148
0.1488734,0.867153,0.485302
0.1489479,0.8920911,0.4759242
0.151644,0.9062718,0.4503169
0.1512108,0.9022923,0.4381736
0.1556986,0.9051008,0.4336512
0.158537,0.9099207,0.4276057
0.163763,0.9107061,0.4270009
0.1751947,0.922454,0.4246857
0.1847611,0.9369949,0.4147445
0.1916573,0.9371683,0.4110602
0.1944275,0.9304466,0.4246168
0.193917,0.924196,0.4316421
0.1948383,0.9163153,0.4203616
0.1915937,0.9104464,0.4067117
0.1822384,0.904787,0.3999955
0.1744207,0.8973654,0.4016102
0.1760449,0.8926815,0.4115487
0.1846458,0.8905439,0.432078
0.1872656,0.8941575,0.4430091
0.1845446,0.9022423,0.4337475
0.1801286,0.9018715,0.4315149
0.171311,0.8947466,0.4394556
0.1666006,0.8896308,0.4461598
0.1710411,0.884803,0.4531594
0.1781013,0.8841459,0.4544148
0.1843771,0.8879725,0.4466438
0.1920536,0.8919258,0.4403273
0.1931934,0.8981778,0.4425075
0.1883411,0.9020837,0.4422979
0.1935456,0.9069878,0.4358691
0.1923327,0.9171814,0.430253
0.1771408,0.919053,0.4198316
0.1704724,0.909955,0.4057847
0.1740558,0.9006468,0.4000573
0.1806899,0.8984519,0.4025042
0.1774163,0.9014279,0.4040799
0.1749108,0.9043164,0.4006943
0.1877464,0.9126406,0.3951172
0.1940947,0.9229808,0.3894066
0.1955002,0.9201354,0.3894024
0.1950001,0.9105041,0.3973017
0.1926051,0.9044505,0.4028285
0.1969812,0.8976581,0.4050396
0.1976235,0.8985823,0.4050179
0.2022755,0.9037054,0.4027966
0.2065125,0.8997005,0.4057501
0.2067814,0.8993714,0.4089909
0.2149044,0.900569,0.410183
0.2092365,0.9027817,0.4057511
0.196887,0.9136301,0.3942968
0.195664,0.9132861,0.3942051
0.1990459,0.9071735,0.3968311
0.210001,0.9074386,0.3928782
0.2148424,0.9095361,0.3937089
0.2088555,0.9205221,0.3883116
0.2026274,0.9292868,0.3774555
0.1980435,0.9275439,0.3750517
0.1998345,0.9226367,0.3791716
0.2004896,0.9182928,0.3822917
0.1965178,0.9198394,0.3795579
0.1952594,0.9235018,0.3766253
0.1956697,0.928499,0.3723
0.1967194,0.9319601,0.365411
0.1992917,0.9274347,0.362663
0.2050998,0.9238803,0.3598734
0.2089511,0.923764,0.3573582
0.2065927,0.9216609,0.3554245
0.2062984,0.9192848,0.3526901
0.208386,0.9194679,0.3541419
0.2101821,0.9190322,0.3530139
0.2133308,0.9165807,0.3493938
0.2123275,0.9178383,0.3487572
0.2104434,0.9193968,0.3440495
0.2152916,0.9194815,0.337848
0.2190645,0.9232553,0.3325193
0.2176927,0.926516,0.3254086
0.2135597,0.9334937,0.3215682
0.201606,0.9492209,0.317254
0.1882501,0.9582744,0.3073416
0.1898601,0.9568478,0.2996614
0.2030644,0.9580929,0.2984761
0.2159435,0.9641795,0.2901579
0.2273871,0.9722875,0.2735543
0.2314362,0.9770987,0.2707674
0.2259298,0.9744213,0.2700782
0.2215987,0.9679144,0.2593202
0.2190221,0.9591117,0.2585329
0.2168818,0.9576446,0.2510072
0.2176913,0.9636397,0.2307782
0.2207054,0.9625393,0.2267312
0.2242944,0.9618113,0.2337044
0.2193406,0.963502,0.2419511
0.2111254,0.9609135,0.2478349
0.212456,0.9589523,0.2494036
0.2160741,0.9540986,0.2498881
0.2218822,0.9513134,0.2330628
0.233247,0.9520598,0.2106797
0.2425612,0.9500994,0.2084626
0.2490342,0.9559904,0.2042585
0.2509899,0.9636595,0.1923886
0.2462494,0.9649356,0.1949962
0.2410252,0.9686678,0.1916713
0.2393657,0.9694815,0.1723422
0.2420458,0.9668924,0.1646357
0.2496448,0.9692009,0.1674777
0.2555181,0.9691059,0.1698102
0.2496955,0.9612214,0.1701972
0.2414293,0.9517967,0.171766
0.2443322,0.9491631,0.1731292
0.2468184,0.9602587,0.1576965
0.2472025,0.9771957,0.1392814
0.2552019,0.9869581,0.1277792
0.2569936,0.9900604,0.1156931
0.2502772,0.9889195,0.1192155
0.2445654,0.9882255,0.1286957
0.238745,0.9879516,0.1277712
0.2395868,0.9805304,0.1265662
0.2428713,0.9734904,0.1249107
0.2427583,0.9734553,0.1177673
0.249234,0.9714983,0.1107622
0.2580515,0.9658065,0.1119518
0.2613637,0.9643404,0.1172905
0.2586401,0.9634609,0.1222414
0.25124,0.9596987,0.1320837
0.2457385,0.962405,0.1421663
0.2435131,0.9665244,0.1414839
0.2434749,0.9665228,0.1303615
0.2450136,0.96606,0.1150966
0.2479409,0.9599876,0.1059539
0.2482987,0.9557658,0.1096131
0.2399387,0.9612788,0.1116243
0.2332918,0.96727,0.1066937
0.2342143,0.9710879,0.1013946
0.2320375,0.9777675,0.08897354
0.2274609,0.9819831,0.07916277
0.2289395,0.9786547,0.07309001
0.2323796,0.9809831,0.05664597
0.2323238,0.986153,0.04880811
0.2355807,0.9841773,0.04351544
0.2397643,0.9863231,0.02145193
0.2410943,0.9872578,0.009906292
0.2462521,0.9847505,0.003674751
0.2502965,0.9865605,-0.008351321
0.252662,0.9842699,-0.005807571
0.2556864,0.9810458,-0.008483021
0.2554403,0.9770145,-0.01814133
0.2579897,0.9688831,-0.02056551
0.2611969,0.9681001,-0.02560825
0.2595698,0.9716441,-0.02834354
0.259538,0.9718443,-0.040155
0.2620113,0.9721597,-0.04961888
0.2638055,0.9729558,-0.05145421
0.2669877,0.9737315,-0.07270741
0.2706879,0.9749863,-0.08254442
0.2682102,0.9727943,-0.08180299
0.2590081,0.9693016,-0.09141421
0.250605,0.9714073,-0.09788738
0.2505676,0.9742781,-0.111548
0.2571468,0.9748797,-0.1163198
0.2596789,0.9747706,-0.1168212
0.258406,0.9719185,-0.1315452
0.2601304,0.969,-0.1409546
0.2626696,0.9663568,-0.1485265
0.2630053,0.9672401,-0.1509186
0.2626844,0.9704421,-0.1575852
0.2651372,0.9648052,-0.173109
0.2683305,0.9597642,-0.1711525
0.2693381,0.9613861,-0.1728598
0.2711828,0.9595296,-0.1838488
0.2713588,0.9589572,-0.1879642
0.2692014,0.9604966,-0.197933
0.2693992,0.9572492,-0.2048567
0.2695908,0.9489162,-0.2070465
0.2694021,0.9404145,-0.2159016
0.2707287,0.9438434,-0.2210651
0.2718878,0.9516797,-0.2290252
0.2729333,0.9485564,-0.2453492
0.2745703,0.9418341,-0.2469308
0.278323,0.9331705,-0.2414023
0.2827714,0.9270162,-0.2472786
0.2849779,0.9322854,-0.252074
0.2861165,0.9357244,-0.2620738
0.2830017,0.9385357,-0.2772489
0.2752527,0.9445283,-0.2817213
0.2698986,0.9422731,-0.2865405
0.2676893,0.9377107,-0.2945445
0.2678581,0.9275825,-0.2994
0.269966,0.9141311,-0.2980772
0.2721538,0.9154425,-0.2950106
0.2746556,0.9202388,-0.3023221
0.2762938,0.9251385,-0.3188871
0.2816242,0.9360626,-0.347872
0.2873112,0.9352076,-0.3633932
0.2781786,0.9227098,-0.3458838
0.2665506,0.9139177,-0.331743
0.2689681,0.9101946,-0.3242098
0.2709268,0.910075,-0.3257176
0.2683479,0.9100341,-0.3431291
0.2700845,0.9086672,-0.3497064
0.2715776,0.9078604,-0.3587461
0.2718414,0.903981,-0.3648519
0.2707339,0.9019472,-0.3597894
0.2660169,0.9033502,-0.3757852
0.2636518,0.8982024,-0.3922186
0.2640403,0.8937405,-0.3991933
0.2652028,0.8960663,-0.402473
0.2652971,0.8963053,-0.3944671
0.2601708,0.89441,-0.3981274
0.2572359,0.8931531,-0.3997858
0.2602071,0.8892546,-0.4014913
0.2620128,0.884392,-0.4199255
0.2611789,0.8845582,-0.4220645
0.2598513,0.8830096,-0.4147441
0.2579214,0.8770217,-0.4112716
0.2545259,0.8785245,-0.4113698
0.2547183,0.8797864,-0.4205215
0.2568625,0.8726154,-0.429252
0.2550453,0.8695249,-0.4423933
0.256254,0.8726088,-0.443767
0.2577881,0.8770159,-0.4391664
0.2553706,0.8787949,-0.4479851
0.2555118,0.8758428,-0.4483085
0.2559464,0.8754332,-0.4533087
0.2571926,0.8759846,-0.458474
0.2588219,0.8726285,-0.4542723
0.2560631,0.8712122,-0.4653978
0.2530338,0.8716812,-0.4691897
0.2520282,0.8702565,-0.4649454
0.2518071,0.8687476,-0.4662858
0.2506686,0.8680415,-0.4577441
0.2506995,0.8687773,-0.4529395
0.2546665,0.8709301,-0.4580528
0.2565601,0.8708554,-0.4630214
0.2555679,0.8678008,-0.4593767
0.2562079,0.8632245,-0.4519358
0.257397,0.8598951,-0.4529398
0.2574457,0.8631758,-0.4506409
0.2583534,0.8681392,-0.4490191
0.260516,0.8683367,-0.4509863
0.2601353,0.8684096,-0.4503006
0.2599735,0.8698351,-0.4568977
0.261862,0.8712187,-0.4612105
0.2605885,0.8707789,-0.4575954
0.2580046,0.8675248,-0.4524712
0.2565616,0.8662742,-0.4467502
0.2564022,0.8676345,-0.4407667
0.2573708,0.8692081,-0.4360582
0.2559136,0.869211,-0.4440113
0.2549605,0.8684637,-0.4529129
0.2559325,0.870637,-0.4514485
0.2554228,0.8715446,-0.4528688
0.2555038,0.8699939,-0.4532679
0.2557203,0.8695477,-0.4506774
0.2549987,0.8688426,-0.4487857
0.2539301,0.8684936,-0.4469451
0.2526964,0.8675386,-0.4506263
0.2552119,0.8672668,-0.4544508
0.2582878,0.8689686,-0.4528232
0.2569263,0.8680308,-0.4519715
0.2566991,0.8688059,-0.4542602
0.2592313,0.8722344,-0.4563488
0.2599783,0.8722071,-0.4561821
0.2586642,0.8713705,-0.4521141
0.2568594,0.8705904,-0.4491094
0.2556934,0.8703114,-0.4509824
0.2551156,0.870487,-0.4495906
0.2536683,0.8690013,-0.4485334
0.2523246,0.870214,-0.4504127
0.2527717,0.8716257,-0.4493002
0.25414,0.8704316,-0.4504339
0.2552566,0.870528,-0.4511679
0.2554437,0.8695388,-0.4536176
0.2534966,0.8687478,-0.4590576
0.2502481,0.8693734,-0.4553428
0.2502275,0.8671298,-0.4502348
0.2547375,0.8657831,-0.448103
0.2583561,0.8683711,-0.4459046
0.2571608,0.870539,-0.4477576
0.2549287,0.8718508,-0.4474775
0.2548744,0.872347,-0.4466041
0.2539827,0.8691208,-0.4477887
0.2537,0.866124,-0.4467528
0.2547823,0.8663238,-0.4463196
0.2540213,0.8659379,-0.4457691
0.2551342,0.8646597,-0.4468861
0.25712,0.8632974,-0.453757
0.2568826,0.8621881,-0.4603556
0.2565777,0.8626271,-0.4599922
0.2541525,0.8652208,-0.4592658
0.2518886,0.8694425,-0.4662416
0.253047,0.8715527,-0.4675685
0.2549152,0.8692605,-0.4563365
0.2559756,0.8666745,-0.4455437
0.2556273,0.8672876,-0.4408498
0.2553535,0.8669828,-0.4447205
0.255489,0.8660741,-0.4490261
0.2546515,0.8680919,-0.4462942
0.2540554,0.8686856,-0.4471588
0.2551227,0.8695297,-0.4481701
0.256965,0.8713466,-0.4478717
0.2566577,0.8689999,-0.4534874
0.253756,0.8677288,-0.4571778
0.250237,0.8708257,-0.4582702
0.2498116,0.8725806,-0.4570732
0.2540109,0.8686319,-0.4498743
0.2567486,0.8639844,-0.4437424
0.2559844,0.865449,-0.4452313
0.2568325,0.868457,-0.4506619
0.259149,0.8716458,-0.4519754
0.2581264,0.874551,-0.4532577
0.2547554,0.8703433,-0.4554955
0.2528971,0.8641992,-0.4549617
0.2522359,0.8633392,-0.4563145
0.2527235,0.8648259,-0.4554398
0.2522277,0.8657975,-0.4548863
0.2513483,0.8652659,-0.4567546
0.255144,0.865496,-0.4556579
0.2581078,0.8684531,-0.4570533
0.2558943,0.8710402,-0.4551516
0.253893,0.8707891,-0.4499641
0.2540484,0.8678522,-0.4498104
0.2543826,0.8662864,-0.4502619
0.2538153,0.8693387,-0.4533038
0.2533119,0.8716547,-0.4568848
0.2522623,0.8691199,-0.457329
0.2510349,0.8672636,-0.4571176
0.2516456,0.8700424,-0.4566218
0.2532654,0.8718194,-0.4582097
0.2551188,0.8703377,-0.4582643
0.2552015,0.8697941,-0.4557474
0.2527525,0.8694409,-0.452808
0.2499309,0.8693192,-0.4509591
0.2502284,0.8706234,-0.4534871
0.2534889,0.8710145,-0.4542467
0.2539053,0.8708474,-0.4535976
0.254284,0.8707993,-0.4546358
0.2565751,0.8709648,-0.4535103
0.2569557,0.8716564,-0.4550522
0.2567718,0.8709698,-0.4580425
0.2542746,0.8680165,-0.4561878
0.2524243,0.8659382,-0.4519748
0.2537276,0.8683496,-0.4489005
0.2526165,0.8708231,-0.4495396
0.2514137,0.8700363,-0.4508165
0.2514819,0.8707781,-0.4496438
0.2518974,0.87141,-0.4505204
0.2554595,0.8705065,-0.4540028
0.2598018,0.8718709,-0.4563216
0.2601015,0.8726782,-0.4560395
0.2565013,0.8720135,-0.4543667
0.2546703,0.8722676,-0.4530192
0.2551067,0.8722372,-0.4507581
0.2530973,0.8721873,-0.4496598
0.2504496,0.8722727,-0.450663
0.2510083,0.8719814,-0.4496234
0.2528525,0.8713881,-0.4499513
0.2547741,0.870347,-0.4515262
0.2587454,0.8694743,-0.4508689
0.2595238,0.8672735,-0.4501519
0.2569817,0.8644256,-0.4461188
0.2578141,0.8653142,-0.4434202
0.2570807,0.8682916,-0.4474472
0.2560789,0.8686094,-0.4495517
0.2576117,0.8679927,-0.4477097
0.2553523,0.8698846,-0.4464786
0.2532737,0.8712303,-0.447924
0.2526773,0.8690213,-0.4504382
0.2522145,0.8672132,-0.4525827
0.2535883,0.8673684,-0.4537183
0.2537878,0.8648457,-0.4516982
0.2559958,0.8614758,-0.4499444
0.2579155,0.8649615,-0.4483942
0.2555811,0.8721842,-0.4478415
0.2552126,0.8748385,-0.4504625
0.2555672,0.8736194,-0.4494902
0.2545676,0.8719692,-0.4469486
0.2538211,0.8710549,-0.4456006
0.2530333,0.8698557,-0.4449722
0.2528216,0.8686453,-0.4463587
0.2525424,0.8691737,-0.4443826
0.2530489,0.870225,-0.4453983
0.2540056,0.8736193,-0.4522053
0.2552183,0.8765764,-0.453967
0.2570765,0.8746137,-0.4522154
0.2565026,0.8745262,-0.4502832
0.2541578,0.8755034,-0.4464912
0.2521152,0.8732984,-0.4394391
0.2522632,0.8716421,-0.4355289
0.2535601,0.8703666,-0.4447793
0.2525984,0.8705357,-0.4530606
0.2536488,0.8713928,-0.4454419
0.2558443,0.8708279,-0.4382046
0.2556342,0.8726321,-0.442455
0.256385,0.8744003,-0.4443861
0.256313,0.8728039,-0.4421911
0.2550554,0.8698304,-0.4433682
0.254428,0.8669517,-0.4431451
0.2530758,0.8667094,-0.4427285
0.2524431,0.8673487,-0.4439975
0.2529552,0.8672683,-0.4453953
0.2538219,0.8692744,-0.4483857
0.2543633,0.8706642,-0.4483026
0.2543756,0.8718173,-0.4471507
0.2553782,0.8754368,-0.4476525
0.2573889,0.874877,-0.446783
