accx,accy,accz
0.1811413,0.7878133,0.581194
0.1803886,0.78823,0.5840168
0.1845716,0.7888803,0.5806201
0.1871044,0.7884942,0.5742789
0.1864613,0.7865438,0.5701844
0.186145,0.7878105,0.570179
0.1899235,0.7879078,0.5720006
0.1930647,0.7879235,0.5769331
0.1901308,0.7896034,0.5754691
0.1840766,0.7883853,0.5736857
0.1787438,0.7869169,0.5782781
0.1804751,0.7865416,0.5768502
0.1866441,0.7899806,0.5729889
0.1881043,0.7968576,0.5690532
0.1875201,0.7985047,0.5686374
0.1864577,0.7965345,0.5745978
0.185567,0.7961915,0.575487
0.1859632,0.7949749,0.5749763
0.1832877,0.7909108,0.5751798
0.1815546,0.7868142,0.573915
0.1845881,0.7869043,0.5729752
0.1872259,0.7895137,0.5696355
0.1861786,0.7908085,0.5705974
0.184416,0.7919494,0.5726649
0.1856936,0.7914407,0.5703077
0.1882394,0.7873332,0.5692349
0.1909168,0.784322,0.5675774
0.1900958,0.7842649,0.5685369
0.1861476,0.7862471,0.5704174
0.1862147,0.7911444,0.5679628
0.1860613,0.7954339,0.5684897
0.1856696,0.7927887,0.5718814
0.1872312,0.7878314,0.573933
0.1874654,0.789523,0.5715887
0.1909742,0.7898757,0.5679724
0.1934969,0.7875851,0.5715632
0.192846,0.7904579,0.5745219
0.1931137,0.7899848,0.573154
0.1904921,0.7884006,0.5730692
0.1878819,0.7894387,0.5701012
0.185964,0.7865715,0.5670995
0.1845911,0.7861633,0.5698601
0.1854505,0.7866547,0.5729005
0.1863978,0.785388,0.5736249
0.190015,0.7865583,0.5780548
0.1909218,0.7866116,0.5823931
0.1872313,0.7887051,0.5736915
0.1842326,0.7925297,0.5637072
0.180511,0.7926859,0.5683254
0.1802723,0.792049,0.5721741
0.1828297,0.7916275,0.5705076
0.1839791,0.7914465,0.5729121
0.1859775,0.7918321,0.5715874
0.1889061,0.7913084,0.5685703
0.1914498,0.7897842,0.5700025
0.190219,0.7884267,0.5690626
0.1885659,0.7886658,0.5688503
0.18936,0.7890693,0.5708247
0.1883425,0.787866,0.5714765
0.187979,0.7871017,0.5714196
0.1875998,0.7877908,0.5705506
0.1869051,0.7886359,0.5736831
0.18752,0.7899458,0.5754878
0.1846476,0.7911016,0.5700089
0.1822847,0.7919169,0.5664985
0.1838059,0.793324,0.5671994
0.1855268,0.7920095,0.5691339
0.1874289,0.7881771,0.5710671
0.1879252,0.7869959,0.5737714
0.1873017,0.7883892,0.5761257
0.1874743,0.7893995,0.5747635
0.1875796,0.788719,0.5750721
0.1874844,0.7878636,0.5772027
0.1874397,0.788402,0.5779735
0.1875798,0.7898731,0.5778524
0.1869295,0.7935433,0.5758588
0.1847823,0.7963858,0.5760281
0.1833223,0.7925071,0.5765682
0.1864823,0.786928,0.574466
0.1901352,0.7858691,0.5733031
0.1863268,0.7848397,0.5719192
0.1828897,0.7842837,0.5711033
0.1852495,0.7880893,0.5757409
0.185302,0.7899656,0.5825271
0.1851678,0.7894709,0.5809749
0.1876786,0.7904351,0.5748146
0.1878182,0.7890977,0.5747115
0.1877572,0.7866263,0.5746399
0.1903184,0.7860143,0.5718291
0.192275,0.7877314,0.5714586
0.1910688,0.7896831,0.5704087
0.1894267,0.7879147,0.5700488
0.1900764,0.7868124,0.5745609
0.1886776,0.7881917,0.5762215
0.1855944,0.7894416,0.5723477
0.1858872,0.7916165,0.5719201
0.1869846,0.7922465,0.5747942
0.1885609,0.7909542,0.5767655
0.1910099,0.7898918,0.5766496
0.1897136,0.7881611,0.5732056
0.1881076,0.7867169,0.5719042
0.1900625,0.7862243,0.5730728
0.190812,0.7869899,0.5735939
0.1894438,0.7897924,0.5756323
0.1878185,0.7910426,0.5752675
0.1862884,0.7897928,0.5733235
0.1873128,0.7884423,0.5740189
0.1885165,0.7843387,0.574373
0.1880124,0.781358,0.5751595
0.1898361,0.7870995,0.5752362
0.1900367,0.7931665,0.5735745
0.1871269,0.7919484,0.5734398
0.1874528,0.7914384,0.5726826
0.1886946,0.7922617,0.5723863
0.1889127,0.7890187,0.5752131
0.188989,0.7871617,0.5791237
0.1877064,0.7868138,0.5837655
0.1873145,0.785404,0.5861577
0.1873515,0.7867251,0.5807176
0.1863846,0.7880699,0.5716622
0.1850684,0.7890216,0.5699569
0.1845542,0.7895343,0.5694539
0.186687,0.7881981,0.5624127
0.1881883,0.7891301,0.5627721
0.1881533,0.7891508,0.5725807
0.1908898,0.7883622,0.5787106
0.1938947,0.7893741,0.5773368
0.1917398,0.7882993,0.5753571
0.1887961,0.7870317,0.5806614
0.1896385,0.7865656,0.5827673
0.1864303,0.7891247,0.5766651
0.1813707,0.7932535,0.5736188
0.1844867,0.7907321,0.5737276
0.1878606,0.7879289,0.5740702
0.187444,0.7884586,0.5735471
0.188827,0.7868944,0.5743327
0.1900066,0.7863586,0.5770452
0.1899281,0.786346,0.5774456
0.1877894,0.7854429,0.5798479
0.1849681,0.7853461,0.5813002
0.1859868,0.7835966,0.5791767
0.1867625,0.7832055,0.5789007
0.1854357,0.7864312,0.5781308
0.1853154,0.7882425,0.5772778
0.1846585,0.7878436,0.5757983
0.184675,0.7881805,0.5736317
0.1870991,0.7899951,0.574121
0.1887997,0.7899708,0.5745601
0.1892318,0.7881938,0.574494
0.189033,0.7888815,0.5748589
0.1895467,0.7892587,0.574975
0.1908211,0.7883311,0.5730105
0.189907,0.7883785,0.57063
0.1882077,0.7879398,0.5718501
0.1872581,0.7880265,0.5734508
0.1869404,0.7875435,0.5733911
0.1872036,0.7860428,0.5709664
0.186639,0.7865345,0.5692065
0.1874339,0.7880364,0.5739325
0.1881675,0.7902052,0.5780243
0.1872878,0.7908295,0.5756637
0.1894016,0.7888547,0.5734397
0.191117,0.7886935,0.5736838
0.189689,0.7894068,0.5714614
0.1884131,0.7905093,0.5683232
0.1874236,0.7920248,0.5667232
0.1890117,0.7890915,0.5655302
0.1912761,0.7834578,0.568482
0.1902358,0.7810431,0.5737729
0.1898477,0.7837031,0.578674
0.1899433,0.7869141,0.5798826
0.18642,0.7866727,0.5749536
0.1826142,0.7884094,0.5734201
0.1837206,0.7913227,0.5716161
0.1887543,0.7892928,0.5722729
0.1932297,0.7869303,0.5804601
0.1939644,0.7866909,0.5777135
0.1925255,0.7862067,0.5740555
0.192949,0.787715,0.576518
0.193131,0.7899209,0.5737839
0.1905383,0.789643,0.576127
0.1876957,0.7893922,0.5761146
0.1849301,0.7899771,0.5715501
0.1833874,0.7901533,0.5716981
0.1843661,0.79037,0.570041
0.1858179,0.7893385,0.571643
0.1867552,0.7883988,0.5749781
0.1870933,0.7889008,0.57678
0.1882572,0.7878471,0.5784749
0.188689,0.7863822,0.5768564
0.1869263,0.7865961,0.577465
0.1872954,0.7870379,0.5746317
0.1880017,0.7870091,0.5703589
0.186755,0.7873153,0.5736048
0.1860066,0.7881131,0.5740911
0.1851879,0.78787,0.5722629
0.1859495,0.7871662,0.5721616
0.1868309,0.7860579,0.5723391
0.1855988,0.7853895,0.5743612
0.1864778,0.7866908,0.5753124
0.1886141,0.7855855,0.5757516
0.1907918,0.782943,0.5774678
0.1925035,0.7826088,0.5782852
0.1905747,0.785736,0.5717934
0.1895908,0.7906784,0.5639359
0.1900116,0.7885454,0.5697609
0.1865631,0.7856331,0.5753973
0.1835608,0.7887657,0.5716331
0.1844653,0.7883904,0.5743303
0.1853733,0.78846,0.5783337
0.1853355,0.7898432,0.5758955
0.1889726,0.7881132,0.5759538
0.1934659,0.7887527,0.5771856
0.1918795,0.7874099,0.5769121
0.190479,0.7846432,0.5779081
0.1911628,0.7849802,0.5769945
0.1880834,0.7842031,0.574785
0.1865362,0.7840358,0.574876
0.187919,0.7846345,0.5749337
0.1869982,0.7864046,0.5740257
0.1846181,0.7895709,0.5728755
0.1826889,0.7890093,0.5713001
0.1829369,0.7889969,0.5710069
0.1846615,0.7916531,0.5711605
0.1866504,0.7918045,0.568593
0.1899817,0.7897581,0.5666982
0.190591,0.7883138,0.5689741
0.189404,0.7899607,0.5702602
0.190531,0.7920374,0.5705496
0.1882188,0.7925206,0.5716587
0.184564,0.7932501,0.5703352
0.1848119,0.7922086,0.5711848
0.1854591,0.7911259,0.5743497
0.1861581,0.7918261,0.5760271
0.1845466,0.7919078,0.5766149
0.1824246,0.7922866,0.5724087
0.1853706,0.7917677,0.5699322
0.1897178,0.7879218,0.5741969
0.1925916,0.7852433,0.5777594
0.1910119,0.7886498,0.5779715
0.187156,0.791375,0.5747152
0.1875914,0.7873108,0.5726545
0.1885324,0.7847369,0.5737446
0.1889116,0.7864455,0.5737621
0.1893159,0.7864038,0.5733927
0.1884286,0.7859333,0.5726153
0.1892415,0.7875085,0.5720428
0.1899462,0.789263,0.5721597
0.1900181,0.7891802,0.5722391
0.1898275,0.7879568,0.5720074
0.1884193,0.7886219,0.5702199
0.1897342,0.7895955,0.5697519
0.1909962,0.7885286,0.5728335
0.1895701,0.7888971,0.5761424
0.1885201,0.7902336,0.5745796
0.1870854,0.7899863,0.5722243
0.1872973,0.7892448,0.5740361
0.1889485,0.7871509,0.5727872
0.1888711,0.7870312,0.569844
0.1889412,0.7897525,0.5684102
0.1889354,0.7888214,0.5656421
0.1889091,0.7864733,0.5663757
0.1899619,0.7861493,0.5674831
0.1904469,0.7869156,0.5660355
0.1903714,0.7889162,0.5668444
0.1899964,0.7892638,0.567575
0.1891749,0.7885895,0.5698977
0.1878627,0.7886663,0.5735985
0.1869762,0.7871023,0.5725276
0.1876612,0.7858469,0.572061
0.1876541,0.7881362,0.5763472
0.1872359,0.7912062,0.5790564
0.1877015,0.7906453,0.5787391
0.1870824,0.7887838,0.5788094
0.1856432,0.7896033,0.5784341
0.1846728,0.7899868,0.5766764
0.1861594,0.7891947,0.576588
0.1885406,0.7897296,0.5772918
0.187506,0.7895034,0.5753169
0.1864065,0.7882935,0.5745902
0.1858797,0.7868675,0.5772071
0.1855329,0.784732,0.5783319
0.1905509,0.784796,0.5772106
0.1935387,0.788019,0.5740567
0.1897201,0.791138,0.5683755
0.1887956,0.7908111,0.5661464
0.1891466,0.7887383,0.5728698
0.1874226,0.7887823,0.582267
0.1875594,0.7867527,0.5851367
0.1874468,0.7836946,0.5833282
0.1873739,0.7873696,0.5786645
0.1877903,0.7909396,0.572948
0.1872035,0.7901892,0.574241
0.1880026,0.7915091,0.57661
0.1893508,0.7904624,0.5738984
0.1906017,0.7866741,0.5737959
0.1907529,0.787293,0.5730339
0.1896776,0.7880219,0.5701693
0.1903454,0.7870723,0.5719253
0.189565,0.7876757,0.5754233
0.1880276,0.7877376,0.5782253
0.1880904,0.7882064,0.5760936
0.1861885,0.7893557,0.5716007
0.1848472,0.7888791,0.5747654
0.1858123,0.7886923,0.5762908
0.1871258,0.7890637,0.5746033
0.1880281,0.7888231,0.5790647
0.1871804,0.7888641,0.5810405
0.1864251,0.788948,0.5769449
0.1868301,0.7888424,0.5737875
0.1893808,0.7889042,0.5754996
0.193013,0.7888997,0.5775969
0.1915359,0.7883337,0.5748542
0.1879762,0.7862226,0.574493
0.1871531,0.7842604,0.5754285
0.1857488,0.7863555,0.5732526
0.1831696,0.7895783,0.5718182
0.1803184,0.7890574,0.5709065
0.1806515,0.7884569,0.5741568
0.1861293,0.7890645,0.5776112
0.1904376,0.7878611,0.573399
0.1910547,0.7871513,0.5698721
0.1899787,0.7875848,0.5711676
0.1897616,0.7875152,0.5731301
0.1899475,0.7873302,0.574832
0.1882626,0.7865649,0.5754642
0.1885583,0.7858674,0.5748772
0.1878553,0.7860246,0.5747953
0.1830951,0.7864296,0.5747486
0.1819148,0.7873415,0.5719931
0.1864314,0.7894612,0.5690635
0.1915793,0.7910527,0.5697681
0.1911739,0.7900473,0.5733106
0.1899167,0.7890325,0.5750567
0.1928804,0.7884337,0.5698441
0.1926868,0.7859525,0.5667027
0.1925523,0.784231,0.5780332
0.1939557,0.7857183,0.5893528
0.191714,0.7885878,0.5829323
0.1890132,0.7894401,0.5731926
0.1841234,0.7886715,0.5715276
0.1820642,0.7888887,0.5690997
0.1869585,0.7889571,0.566626
0.1883825,0.7888111,0.5648088
0.1875716,0.7893252,0.5648321
0.1893052,0.7906008,0.569209
0.1907563,0.7922635,0.5697491
0.1904709,0.7906249,0.5691328
0.188834,0.7849527,0.5689457
0.1897158,0.7810343,0.5671251
0.1934773,0.7851225,0.5692342
0.1960576,0.7916617,0.5716858
0.1918401,0.7905469,0.5740698
0.1843273,0.7883719,0.5737691
0.1846396,0.7897743,0.5705786
0.1853272,0.7903047,0.573498
0.1818633,0.7921827,0.5762565
0.1826605,0.7919165,0.577939
0.185966,0.7889535,0.579042
0.1912945,0.7889094,0.5758215
0.1942465,0.7886919,0.5745407
0.1923155,0.7893953,0.5717069
0.1934231,0.7919226,0.5704611
0.1942505,0.7928625,0.5722527
0.1939824,0.7910223,0.5690839
0.1936473,0.7874254,0.5710287
0.1888985,0.7886141,0.5750566
0.1844664,0.7900284,0.5744158
0.1824373,0.7880764,0.5765579
0.1829534,0.7897542,0.5783225
0.1842144,0.789262,0.5811023
0.1834624,0.7873072,0.5812166
0.1870794,0.7895197,0.5753562
0.1911454,0.7901038,0.5745941
0.1895222,0.7901226,0.5750216
0.1880945,0.7902495,0.5743903
0.1880209,0.7879023,0.5738431
0.1873188,0.7852251,0.5713546
0.1863106,0.7841989,0.5741246
0.1859937,0.7857334,0.575794
0.1863163,0.7866547,0.5719267
0.1869139,0.7859035,0.5689879
0.1879213,0.7864202,0.5689205
0.1875066,0.7883752,0.5737829
0.1872612,0.7911417,0.5762694
0.1877602,0.7922607,0.5765574
0.1873353,0.790597,0.5791025
0.1875385,0.7897667,0.5774836
0.1877437,0.7904637,0.5764343
0.1882717,0.7901762,0.5751269
0.1892882,0.7894028,0.5704916
0.1885493,0.7898052,0.5719031
0.1865677,0.7913057,0.5735743
0.1839103,0.7922157,0.5721805
0.1829028,0.7909966,0.5741498
0.1854651,0.7887784,0.5740138
0.1879783,0.786796,0.5728849
0.1887644,0.7861088,0.573781
0.18987,0.78646,0.5713438
0.1907178,0.7861891,0.5686478
0.1902065,0.7878102,0.5696075
0.1897581,0.7896235,0.5725423
0.1881425,0.7876561,0.5751859
0.1841842,0.7860771,0.576967
0.1822805,0.7860504,0.579413
0.1835125,0.7858249,0.5801689
0.1838455,0.7853954,0.5812911
0.1842397,0.7846898,0.5830634
0.187072,0.7865773,0.576474
0.1893303,0.789252,0.5695645
0.1898714,0.7882358,0.5739446
0.1904844,0.7841904,0.5779743
0.1902162,0.7804667,0.5759922
0.1889939,0.7805696,0.5770043
0.1878534,0.7823222,0.5787078
0.187117,0.7853208,0.5768023
0.1875204,0.7905597,0.5748759
0.1877021,0.7897703,0.572221
0.1872948,0.7860659,0.5712544
0.1877623,0.787225,0.5735347
0.18844,0.786033,0.5747357
0.1890449,0.7852238,0.5768666
0.1891079,0.7871704,0.577237
0.1886238,0.786253,0.5757066
0.188981,0.7895626,0.5773809
0.1889884,0.7933739,0.5742357
0.1890579,0.7906581,0.5698107
0.190831,0.7877411,0.5738464
0.1916252,0.7851822,0.5762145
0.1887888,0.7848329,0.5756556
0.184594,0.7865527,0.5768557
0.1839477,0.787617,0.5726044
0.1859923,0.7896828,0.5704199
0.1881763,0.7887849,0.5742542
0.1911841,0.7867515,0.5720133
0.1909868,0.7875461,0.5733064
0.1895825,0.7869425,0.5786951
0.1925595,0.7841929,0.5756673
0.1934552,0.7826582,0.5748121
0.1908929,0.7857067,0.5739799
0.1898617,0.790133,0.5690265
0.1900359,0.7915622,0.5681524
0.1906579,0.79209,0.5677729
0.1898197,0.7912013,0.5685374
0.1873646,0.7896096,0.5701942
0.1828684,0.7887642,0.571835
0.1795794,0.7880106,0.5734102
0.1849651,0.7866779,0.572421
0.1898647,0.7810848,0.5739714
0.1873354,0.7771979,0.574307
0.1878141,0.7804447,0.5736756
0.1908195,0.7841411,0.575734
0.1903837,0.7868935,0.5739925
0.1896451,0.7869316,0.5740247
0.188727,0.78525,0.579371
0.1868514,0.7872107,0.5826897
0.1872478,0.7873775,0.5790847
0.1882214,0.7860382,0.5745627
0.1880524,0.7870578,0.5808334
0.1891577,0.7861151,0.590582
0.1892354,0.7855425,0.593163
0.1885763,0.7866173,0.5868329
0.1900609,0.7859551,0.5781818
0.1905773,0.7859581,0.5799199
0.1901537,0.7863846,0.5781526
0.1903369,0.7858945,0.5673874
0.1900321,0.7863619,0.567162
0.1894458,0.7870688,0.5708084
0.1893168,0.7872812,0.5734763
0.1923022,0.7859481,0.5785268
0.1956624,0.7840797,0.5773933
0.1930678,0.7854964,0.5770004
0.1883855,0.7869053,0.5788249
0.1868422,0.7858145,0.5771652
0.1872773,0.786343,0.5778012
0.1878857,0.7881757,0.5776017
0.1874233,0.7892148,0.5746561
0.1872679,0.7891783,0.5730999
0.1885175,0.7879896,0.5735527
0.1909149,0.7863006,0.5759405
0.1940868,0.7840927,0.5767927
0.1936942,0.7842906,0.5763206
0.1916366,0.786621,0.5760579
0.1918116,0.7869444,0.5744869
0.1899102,0.7874466,0.5732058
0.18911,0.7870502,0.5729877
0.1894931,0.7852663,0.5721589
0.186471,0.7866677,0.5702578
0.187108,0.7881907,0.5705376
0.188853,0.788793,0.5724734
0.1888392,0.7885798,0.5715681
0.1928602,0.7866627,0.5695222
0.1938951,0.7873443,0.5674861
0.1912776,0.7869353,0.5671807
0.1907504,0.7841881,0.5679113
0.1899531,0.783786,0.565289
0.1900133,0.783869,0.5662236
0.1896921,0.7866679,0.5717979
0.1883181,0.7900053,0.5757836
0.1891167,0.7872554,0.5782666
0.1899969,0.7855121,0.5765894
0.1901515,0.789994,0.5738907
0.1896029,0.7931441,0.5731198
0.1882246,0.7912442,0.5714546
0.1879426,0.789278,0.5706945
0.1875281,0.7888478,0.5700027
0.1873239,0.788562,0.5693619
0.1892022,0.7887517,0.5714473
0.1918291,0.7871822,0.5758663
0.193079,0.7852924,0.5771673
0.1896435,0.7865131,0.5755045
0.1846849,0.7882152,0.577939
0.184317,0.789145,0.57673
0.1826253,0.7897477,0.5738712
0.1799213,0.7911956,0.5769896
0.1850212,0.7934405,0.5752854
0.1896468,0.7908644,0.5746087
0.1873024,0.7871798,0.5773509
0.1876306,0.7878192,0.5751298
0.1926411,0.783348,0.5721389
0.1954603,0.7777475,0.5680138
0.1934919,0.7850155,0.5684918
0.1903023,0.7923666,0.5701455
0.1901043,0.7882012,0.5669645
0.1913628,0.785715,0.570721
0.1916666,0.7869117,0.5756556
0.1907536,0.7856207,0.5765755
0.1889042,0.7870276,0.5762156
0.1885468,0.7884975,0.5747143
0.1891377,0.7878115,0.5797264
0.1889585,0.7893759,0.583819
0.1897845,0.7887586,0.5816963
0.191332,0.7860293,0.5815144
0.1940336,0.7833609,0.581703
0.1977101,0.7806903,0.5793101
0.1974262,0.782526,0.5760449
0.1935084,0.7854517,0.5739952
0.1902266,0.7871527,0.5722029
0.1879154,0.7878842,0.5735659
0.1869861,0.7843568,0.5788337
0.1879562,0.782513,0.5789262
0.1894221,0.7844426,0.5786351
0.1910207,0.785111,0.5822551
0.1923674,0.7854671,0.5809911
0.1928145,0.7882302,0.5792124
0.1914768,0.7924188,0.5803514
0.1885537,0.7920729,0.5787802
0.1885079,0.7885688,0.5776768
0.1904108,0.7864743,0.5787113
0.1902368,0.7827979,0.5800828
0.1903286,0.7808828,0.5822458
0.190181,0.7829947,0.5793719
0.1891584,0.785619,0.5732389
0.1886925,0.7884073,0.573929
0.1877387,0.7880442,0.5785231
0.1874158,0.7866157,0.5812846
0.1881656,0.7877653,0.5795042
0.1910264,0.7867323,0.576067
0.1939706,0.7848748,0.5780795
0.1914964,0.7833647,0.578177
0.1889892,0.7793827,0.5749836
0.1909029,0.7788237,0.5754577
0.1924572,0.7836997,0.5766833
0.1931371,0.7875901,0.5792411
0.1931097,0.788171,0.5796581
0.1909518,0.7864805,0.5763493
0.1896943,0.7837633,0.5753674
0.190353,0.7812052,0.5742403
0.190399,0.7812587,0.5729275
0.1901895,0.7833496,0.5712823
0.1902948,0.7843672,0.5705183
0.1897456,0.7860027,0.5757279
0.1876183,0.7843956,0.5811023
0.1854273,0.7803904,0.5820763
0.1867211,0.7837923,0.5776594
0.1887526,0.7863005,0.5728238
0.1890442,0.7840147,0.5740401
0.1905582,0.7857538,0.5705904
0.1908823,0.7863294,0.5653633
0.1892674,0.7839959,0.5728401
0.1886979,0.7833013,0.5805649
0.1872014,0.7848108,0.5778164
0.1872089,0.7871324,0.5777719
0.1900379,0.7861231,0.585069
0.1905352,0.7849928,0.5882764
0.190252,0.7840136,0.5833522
0.1900125,0.7813877,0.5783967
0.1880677,0.7847753,0.5798959
0.186326,0.7904985,0.5805671
0.1858659,0.7897486,0.5782815
0.1886402,0.7846773,0.5827815
0.1923767,0.7803047,0.5848566
0.1936209,0.7816925,0.579477
0.1933265,0.785012,0.5767982
0.1925433,0.7847552,0.5737586
0.1929088,0.7859983,0.5724465
0.191487,0.7884474,0.5733394
0.1889231,0.7885494,0.5731266
0.1886773,0.7865748,0.5768984
0.1875778,0.7836999,0.5770575
0.1887319,0.7853118,0.5741755
0.1914746,0.7873538,0.5746172
0.1901848,0.7859834,0.574114
0.1897831,0.7887702,0.5787539
0.190767,0.7909917,0.5840681
0.1899,0.7872335,0.5801425
0.1891259,0.7841206,0.5749156
0.1879275,0.7847013,0.5733283
0.1869485,0.7871995,0.575895
0.1876575,0.7887359,0.5787077
0.1878401,0.789213,0.5748045
0.1881389,0.7891139,0.5702077
0.1893333,0.7896322,0.5711477
0.1891509,0.7917716,0.5739905
0.189477,0.7912154,0.576672
0.1911528,0.7878576,0.5779995
0.1920985,0.7853807,0.5769699
0.1929614,0.7864337,0.5752423
0.1917222,0.7883337,0.5731122
0.1887053,0.7854116,0.5738454
0.1875237,0.7837126,0.5771112
0.1859125,0.7854001,0.578243
0.1854336,0.7857006,0.5784027
0.1877857,0.7873568,0.5741773
0.1876536,0.7889388,0.5692938
0.1867928,0.788883,0.5704402
0.186126,0.7890459,0.5706857
0.1856616,0.7887229,0.5724244
0.1935023,0.7887619,0.5742148
0.2015769,0.7880787,0.5743071
0.1968478,0.7867115,0.5791794
0.1905431,0.785759,0.5768215
0.1899763,0.7844792,0.5725479
0.1857897,0.7858287,0.5768311
0.1813777,0.7896945,0.577476
0.1834792,0.7919008,0.578347
0.1842427,0.7917807,0.5785852
0.1842415,0.7902224,0.5752633
0.1888646,0.7880053,0.5760298
0.191188,0.7861074,0.5747616
0.188471,0.7857052,0.5746806
0.1869924,0.786345,0.5779519
0.1902835,0.7861382,0.5785117
0.192797,0.7854064,0.5796264
0.1905737,0.7835957,0.5775901
0.189241,0.7815914,0.5737144
0.188816,0.7842663,0.5731526
0.1873274,0.7876562,0.5727296
0.1889324,0.7865538,0.5708832
0.1911602,0.7881035,0.5682896
0.1893871,0.7915766,0.5706083
0.1880626,0.7894699,0.5739347
0.1894542,0.7876398,0.5735422
0.1902101,0.7883754,0.5758809
0.1920376,0.7863626,0.5768744
0.1940045,0.785394,0.5763108
0.1923697,0.7867384,0.5774127
0.1895135,0.7869281,0.576954
0.1857707,0.7874346,0.5773819
0.1833779,0.7869363,0.5777546
0.1853853,0.7852883,0.5780615
0.1873018,0.7852689,0.5792159
0.1892603,0.7852754,0.5807784
0.1913551,0.7869834,0.5828448
0.1900948,0.7900701,0.58091
0.1898307,0.7887751,0.5790499
0.1911919,0.7863038,0.5775596
0.1917496,0.7861359,0.5734543
0.1932266,0.7858278,0.5737115
0.1913732,0.7862249,0.5739539
0.1872291,0.7861226,0.5710676
0.1867933,0.7850565,0.5705914
0.1859569,0.7857825,0.5709574
0.1842303,0.7873019,0.5717826
0.1856715,0.7888213,0.5725835
0.1876143,0.7892143,0.5723293
0.1877144,0.7886311,0.5732332
0.1876975,0.7886717,0.5748402
0.1896883,0.7870878,0.5764236
0.1926539,0.7854678,0.5802628
0.193548,0.7862411,0.5837902
0.19187,0.7876127,0.5787715
0.1898794,0.7894544,0.5727359
0.1882215,0.7908457,0.5787226
0.1860589,0.7902511,0.5841064
0.1856306,0.7888198,0.5810678
0.1866568,0.7879166,0.5803918
0.1869038,0.7872266,0.5793579
0.1883881,0.7873262,0.5770652
0.1913524,0.787851,0.5777518
0.1934359,0.7870964,0.5754169
0.1918694,0.7865796,0.573443
0.1893052,0.7860638,0.5739703
0.192086,0.7857275,0.5716225
0.1943584,0.7859713,0.5719713
0.1919714,0.783302,0.5761429
0.1902737,0.7809645,0.5813104
0.1884559,0.7822903,0.5860698
0.1880161,0.7840779,0.5817096
0.1888335,0.7852625,0.5747766
0.1872487,0.7857611,0.5745489
0.1889471,0.7863159,0.5722913
0.1919036,0.7872177,0.5725517
0.1917198,0.7876011,0.5775669
0.1933301,0.7874523,0.5773937
0.1936986,0.7864783,0.578879
0.1919747,0.7862022,0.5797753
0.1912235,0.7882419,0.5761382
0.1880806,0.7911344,0.5785895
0.1867383,0.7915022,0.5812312
0.1898188,0.7894013,0.5820373
0.190529,0.7877037,0.5848234
0.1883667,0.7847376,0.5844551
0.1868619,0.7823848,0.583666
0.1873307,0.7853827,0.5783995
0.1879823,0.788159,0.5706295
0.1873677,0.7868533,0.5728402
0.1885444,0.7847327,0.5794242
0.1906784,0.7826691,0.5828318
0.1921397,0.7828586,0.5800409
0.1929642,0.7844231,0.5756526
0.1895992,0.7845968,0.5780745
0.185982,0.7856056,0.5783193
0.1877625,0.7847364,0.574586
0.190033,0.7820149,0.573217
0.1902972,0.7819816,0.5726006
0.1901623,0.7823344,0.5773351
0.1883835,0.7848746,0.5825437
0.186815,0.789096,0.5788264
0.1875327,0.7893402,0.5766806
0.1882865,0.7881471,0.5812742
0.1899641,0.7861994,0.5838981
0.1927373,0.7835564,0.5835694
0.1929165,0.7827103,0.5837246
0.1922731,0.781863,0.5832572
0.1915653,0.7819024,0.581185
0.1883696,0.7840163,0.5789685
0.1863707,0.7852961,0.5755914
0.1865911,0.7849071,0.5721548
0.1874543,0.7853709,0.5744385
0.1898455,0.786574,0.5799646
0.1901681,0.7863522,0.5819423
0.1897178,0.7867338,0.5782159
0.1909667,0.787971,0.5729902
0.1896599,0.7877519,0.5753955
0.188221,0.7882812,0.5783499
0.1875077,0.7902618,0.5753965
0.1875048,0.7904635,0.577254
0.1922298,0.7891582,0.5788893
0.1967492,0.7886641,0.576881
0.1967934,0.7886582,0.5780414
0.1908842,0.7881193,0.5767261
0.1836817,0.7871963,0.5748645
0.1838752,0.7873108,0.5751192
0.1845632,0.7878329,0.5746671
0.1849448,0.7871351,0.5763981
0.1888902,0.7865656,0.5802541
0.1884728,0.7862074,0.5840871
0.1890376,0.786691,0.5807463
0.1933127,0.7873857,0.5759777
0.1916726,0.783937,0.5826459
0.1897498,0.7808584,0.5862649
0.1908707,0.7836582,0.5791569
0.1895498,0.7857549,0.5742897
0.1884226,0.7835895,0.5744589
0.1870036,0.7833629,0.5760669
0.1850324,0.7876416,0.5775989
0.1852308,0.7914087,0.5798658
0.1860956,0.7909952,0.5807877
0.1881419,0.7895781,0.5797519
0.1880636,0.7909464,0.5793957
0.1867212,0.7906684,0.5754125
0.1891697,0.7871103,0.5715432
0.1900876,0.7853632,0.5721785
0.1905073,0.7834654,0.570701
0.1925936,0.7826891,0.5699329
0.1928824,0.7854724,0.5713626
0.192069,0.7874289,0.5728358
0.1884574,0.7895864,0.5776211
0.1863691,0.7891411,0.5789307
0.1880838,0.7860871,0.5749911
0.1885924,0.7858376,0.5748784
0.190107,0.7841308,0.577105
0.191494,0.7828854,0.5783017
0.1899267,0.7844292,0.5795564
0.1856855,0.7847149,0.5816518
0.1830851,0.7840653,0.5833343
0.1902654,0.7831255,0.5779583
0.1972449,0.7850544,0.5706559
0.19263,0.7871216,0.5720555
0.1882996,0.7858262,0.5749734
0.1891661,0.786151,0.5749394
0.1866301,0.7872304,0.5749645
0.1839313,0.7877846,0.573004
0.1841045,0.7884211,0.5716037
0.1859259,0.7879954,0.5728132
0.1922879,0.787127,0.5748608
0.1948035,0.7850619,0.5762532
0.1920943,0.7825637,0.5748182
0.1932104,0.7818258,0.572918
0.1931741,0.784545,0.5711531
0.1917177,0.7874058,0.5700873
0.1912608,0.7860368,0.5770859
0.1886228,0.785557,0.5852511
0.1869625,0.7871825,0.5815001
0.1871736,0.7885673,0.5751883
0.1878756,0.7908422,0.5732141
0.1878999,0.7899262,0.5713868
0.1888809,0.7872473,0.5740525
0.1912788,0.7865175,0.5764091
0.1904456,0.7844208,0.5742285
0.19083,0.7847618,0.575256
0.1933785,0.7873734,0.5762648
0.1925935,0.785852,0.5761319
0.1903005,0.7859452,0.5771207
0.1881327,0.7886338,0.5768575
0.1884743,0.7889442,0.5781061
0.1901768,0.7889903,0.5781709
0.1911379,0.7876834,0.5771351
0.1934641,0.7861193,0.5784232
0.1919457,0.7861558,0.5785594
0.188903,0.7858456,0.5794186
0.1916569,0.7863334,0.5805136
0.1937406,0.7859518,0.5795895
0.1944957,0.7849623,0.5773611
0.1965402,0.7849703,0.5735746
0.1950209,0.7852552,0.5735162
0.193628,0.78665,0.5750535
0.1939342,0.7862546,0.5754504
0.1899916,0.7854315,0.578789
0.1859462,0.7856831,0.5783426
0.1871535,0.7844233,0.5756054
0.3094608,0.7912324,0.5213875
0.321645,0.7956504,0.5277951
0.3219052,0.7935892,0.5239432
0.3080994,0.7901415,0.5187384
0.296697,0.7874747,0.5151675
0.3003257,0.7850973,0.5082819
0.3035334,0.7839731,0.5170623
0.2994011,0.7783865,0.5292871
0.3091744,0.7703496,0.5319967
0.3189508,0.7689867,0.5274105
0.3135331,0.7707758,0.5215854
0.3071348,0.7733712,0.5390677
0.3036575,0.7721585,0.5543377
0.308171,0.7692575,0.5381216
0.3167561,0.7700369,0.5266478
0.316937,0.7687502,0.5328005
0.3158848,0.7690301,0.5338153
0.3173826,0.7673562,0.5310847
0.3164232,0.7647619,0.5339505
0.3164257,0.7720028,0.5332462
0.3166007,0.7768894,0.5293717
0.3132371,0.7732013,0.5283907
0.3100229,0.7698397,0.523685
0.3090084,0.7709087,0.5242834
0.3099975,0.7726465,0.5296386
0.3110313,0.7726026,0.5287728
0.3119573,0.7741884,0.529527
0.3168247,0.7724365,0.5304131
0.3209686,0.7694833,0.5338064
0.319325,0.7699502,0.5398221
0.3159206,0.7707068,0.5359723
0.3147304,0.7731398,0.5303393
0.3160356,0.7725341,0.5268263
0.3189144,0.7716588,0.5236605
0.3212204,0.7751877,0.5269338
0.3174859,0.7769881,0.5290703
0.3123997,0.7778431,0.5261606
0.3135785,0.7751797,0.5223198
0.3137073,0.7711853,0.5195701
0.3123731,0.7722526,0.5260448
0.3165011,0.7726889,0.5358433
0.32127,0.7728371,0.532961
0.321114,0.7740684,0.5252269
0.3183793,0.7736104,0.5231057
0.3165074,0.7734617,0.5236367
0.3154887,0.7733382,0.5265816
0.315071,0.772376,0.5279652
0.3149527,0.7729187,0.5288722
0.3133426,0.7757916,0.5305244
0.3108696,0.7766876,0.5281804
0.3099014,0.7757349,0.5289067
0.3108339,0.7766292,0.528857
0.3134403,0.7754323,0.5242267
0.319122,0.7731709,0.5234514
0.3243279,0.7730156,0.5225506
0.323621,0.7728833,0.5237626
0.3222766,0.7746829,0.5277437
0.3224411,0.7754048,0.5321329
0.3184494,0.7727306,0.5383026
0.3134383,0.7717705,0.5343997
0.3093798,0.7725329,0.5276206
0.3070112,0.7747025,0.526627
0.310761,0.7782377,0.5220969
0.3135613,0.7800057,0.5215699
0.3141266,0.7794789,0.525326
0.3181545,0.7795208,0.5267796
0.3196385,0.7801014,0.5281267
0.3187258,0.7753663,0.5250801
0.3167431,0.7703874,0.5227869
0.3121624,0.7747365,0.5265786
0.3105446,0.7811058,0.5290449
0.3095316,0.7823835,0.5287021
0.3080815,0.7803644,0.5292738
0.3113299,0.7774522,0.5312328
0.3158199,0.7755273,0.531445
0.3176857,0.7733213,0.5293681
0.3180216,0.7735425,0.5259683
0.3174004,0.7762375,0.5225441
0.3161798,0.7747506,0.5239851
0.3167036,0.7731818,0.5262473
0.3180038,0.7734767,0.5245981
0.3168973,0.7724722,0.5252146
0.3128859,0.7747707,0.5282215
0.3082334,0.7757908,0.5292668
0.3103137,0.7727741,0.5264943
0.3156132,0.7709825,0.5191625
0.3153557,0.7693542,0.5149456
0.3146614,0.7730561,0.5187772
0.3129007,0.7799002,0.5233718
0.310338,0.7806568,0.5255949
0.3138974,0.7802182,0.5268822
0.3165805,0.7799158,0.5250411
0.3150956,0.7781166,0.5238641
0.3154676,0.7765273,0.5263613
0.3182127,0.7748946,0.527897
0.3203042,0.7771948,0.5302199
0.3193658,0.7806756,0.5316981
0.3174015,0.7786554,0.5287797
0.3144984,0.7757059,0.5290496
0.3112714,0.7746746,0.5306385
0.312519,0.7736145,0.5296765
0.3151398,0.7738729,0.5283982
0.3151433,0.7745204,0.5252962
0.314528,0.775035,0.5258996
0.3137895,0.7759647,0.5275094
0.3144772,0.7772783,0.5255371
0.3160049,0.7793254,0.5262416
0.3153408,0.7756702,0.5249476
0.3160285,0.7687908,0.5224782
0.3182558,0.769714,0.5237298
0.3178029,0.7748379,0.5225356
0.3162021,0.7794018,0.5193633
0.3151486,0.7812881,0.5168306
0.3167443,0.780658,0.5172218
0.3191563,0.7843207,0.5211889
0.3179521,0.7869483,0.5216058
0.3177672,0.7833349,0.518798
0.3201613,0.7807513,0.5178652
0.3230457,0.781491,0.5181615
0.3261632,0.7808302,0.5195379
0.3245236,0.7778016,0.5202047
0.3195906,0.7769379,0.5190239
0.3172749,0.7754381,0.5212066
0.3168351,0.7720334,0.5266081
0.3147388,0.7721804,0.531537
0.3095824,0.7722814,0.5342819
0.3084624,0.7716091,0.535213
0.3132116,0.7708535,0.5448
0.3191571,0.7687064,0.5592429
0.3286655,0.7702572,0.5610784
0.3326648,0.7716769,0.5584687
0.3265237,0.772352,0.5625173
0.3193584,0.7832307,0.5664986
0.3076548,0.8044025,0.5716223
0.2962472,0.8248748,0.5785483
0.2901271,0.8364169,0.5782479
0.2861948,0.843596,0.573032
0.2897685,0.8529578,0.5652659
0.2903689,0.8662087,0.5579764
0.2887831,0.8896525,0.5681434
0.2898473,0.9126508,0.5874409
0.2678827,0.91188,0.5999867
0.227884,0.9054628,0.6080922
0.2017673,0.9150006,0.5966276
0.2003535,0.9223137,0.5866082
0.2113012,0.9459734,0.620905
0.2117498,0.986462,0.6446764
0.1989983,0.9836074,0.5952802
0.18454,0.9491085,0.5322292
0.1773146,0.8711349,0.5094384
0.1620033,0.6868647,0.4675987
0.1218768,0.4824765,0.390423
0.08364683,0.356182,0.3761371
0.04138201,0.2995589,0.4520547
-0.03002027,0.3168436,0.521479
-0.07904779,0.3846927,0.5326796
-0.05956092,0.4745968,0.5637851
-0.008661247,0.5670441,0.6480988
0.03305133,0.6055136,0.6937587
0.07957591,0.65391,0.7341125
0.1248492,0.7581887,0.824918
0.1250669,0.7958155,0.8454625
0.1078831,0.7798892,0.8370483
0.1126516,0.7534507,0.9144847
0.08024781,0.6540158,0.9512482
0.03016693,0.5922874,0.8910957
0.04698814,0.6152731,0.8273535
0.05723021,0.583614,0.806481
0.02065352,0.5053425,0.8362459
-0.02339734,0.4557777,0.8563304
-0.08615691,0.4747901,0.8425546
-0.08318963,0.5149358,0.8397604
-0.003881118,0.4823557,0.8262097
0.03107184,0.4695975,0.8067351
0.0193094,0.4852543,0.8338996
0.00398224,0.4635145,0.8789605
0.007915585,0.5019656,0.8892029
0.01546733,0.5434568,0.8792083
0.01669439,0.5230909,0.8651418
0.03803122,0.5264473,0.8400014
0.03498823,0.5314927,0.8235611
0.02850468,0.5268565,0.8126991
0.0547325,0.5424717,0.7938408
0.05953711,0.5588459,0.7832219
0.04757639,0.5634844,0.7850862
0.02492404,0.5715198,0.7975907
0.009880367,0.5915691,0.8032676
0.02449302,0.59568,0.7974045
0.03543507,0.5951024,0.7961825
0.04746154,0.6018431,0.7917276
0.04553359,0.6152165,0.7918695
0.0343559,0.6532721,0.7925307
0.04679729,0.67228,0.7759982
0.05422056,0.6650674,0.7588863
0.05915401,0.6686406,0.7528293
0.06286731,0.6779624,0.7570691
0.05988109,0.6958972,0.7542176
0.0725324,0.7088451,0.7413407
0.07595841,0.7069784,0.7371094
0.05973512,0.7037946,0.7344522
0.04579864,0.6973633,0.7389955
0.04422265,0.6907578,0.7462516
0.05722799,0.6893399,0.7390703
0.06442989,0.6937481,0.7348883
0.06247141,0.6976292,0.733877
0.06117302,0.6950222,0.7314644
0.05585825,0.6849801,0.7365988
0.05158695,0.6668469,0.7398825
0.05574981,0.6560376,0.7355305
0.07075425,0.6540987,0.7315071
0.08071651,0.6486096,0.7360798
0.06946677,0.6450917,0.7464281
0.05908559,0.6446415,0.7574939
0.06648646,0.641642,0.7621862
0.0776307,0.6390715,0.7530696
0.08741307,0.6469195,0.7471347
0.09913275,0.66461,0.7505939
0.100652,0.6785033,0.7493552
0.09650342,0.687308,0.7438946
0.09839284,0.688886,0.7374439
0.09513773,0.6816428,0.7330772
0.09304259,0.6793333,0.7299077
0.09552772,0.6828899,0.7229021
0.09380812,0.6886876,0.7122599
0.09430119,0.6990431,0.698903
0.0928339,0.7087063,0.6877063
0.09064217,0.7140933,0.6718371
0.09206468,0.7132121,0.657092
0.09137372,0.7117422,0.6619787
0.09030543,0.7171372,0.6567306
0.0869438,0.7300918,0.6332137
0.08329835,0.7612597,0.6259598
0.08346426,0.795099,0.6221983
0.08598626,0.7932482,0.6151783
0.08742336,0.7729773,0.6218925
0.08123134,0.7666562,0.6311769
0.07746654,0.7577806,0.6389409
0.0882618,0.7366676,0.6461829
0.09857537,0.7137936,0.6561005
0.09322168,0.6970121,0.6747656
0.08791905,0.6958538,0.6827772
0.09068741,0.6968389,0.6876605
0.08696876,0.6912473,0.7150068
0.08719657,0.6943369,0.7341996
0.09669858,0.7041149,0.7243308
0.09976124,0.7133064,0.7202878
0.09706394,0.7127306,0.7273051
0.08605117,0.692067,0.7263936
0.07207447,0.6684709,0.7278029
0.07094937,0.6606875,0.7231193
0.07783623,0.6635547,0.7046058
0.082853,0.671306,0.6994039
0.08243616,0.6837002,0.7044198
0.08240312,0.6866416,0.7062917
0.08629569,0.6811301,0.710497
0.09190662,0.6883902,0.7088948
0.1009785,0.7030956,0.69876
0.1044553,0.7156257,0.6883138
0.1008694,0.7175625,0.6811061
0.09749427,0.7044004,0.6769356
0.09240548,0.70198,0.6804532
0.08987277,0.7132695,0.6898099
0.08944731,0.7243705,0.6908556
0.09063891,0.7293342,0.6893003
0.1009266,0.7208994,0.6876086
0.1088299,0.7162128,0.6814728
0.1048197,0.7172539,0.6771075
0.1029113,0.7162644,0.6689459
0.1077401,0.7213876,0.6672313
0.1090153,0.7250199,0.6733494
0.1061481,0.7291383,0.6720516
0.105847,0.7333103,0.6724368
0.1103604,0.7291501,0.6684925
0.1159021,0.727047,0.662169
0.1162389,0.7323305,0.6628697
0.1143535,0.7436042,0.654036
0.1155721,0.7521708,0.6456081
0.1142989,0.7516978,0.6465607
0.1085243,0.7498761,0.6473169
0.1049465,0.7472105,0.6501379
0.1107333,0.7401075,0.6519332
0.1246705,0.7338514,0.653234
0.1346875,0.7346513,0.6533478
0.1374728,0.736854,0.6523219
0.1348025,0.7395279,0.6561594
0.1276451,0.7455289,0.6567991
0.1216861,0.7495542,0.6523164
0.1198458,0.7532269,0.6474763
0.1295971,0.7506248,0.6429279
0.1408002,0.7449997,0.6397795
0.1348006,0.7531491,0.6391579
0.1293729,0.767067,0.6426972
0.1328933,0.7807534,0.6409493
0.1364703,0.7887881,0.6352685
0.1438931,0.7811029,0.6326163
0.1446702,0.7721436,0.625726
0.1392345,0.7657261,0.62306
0.1410562,0.7589053,0.6264344
0.1432123,0.7600051,0.626597
0.1446108,0.7590807,0.6280956
0.1446145,0.75602,0.6304222
0.1388741,0.7571904,0.6380412
0.1364775,0.7514077,0.6489651
0.1376249,0.7464668,0.6473622
0.1385599,0.7438799,0.6438212
0.1393917,0.7328559,0.6497158
0.1374414,0.7296658,0.6513026
0.1333154,0.7381801,0.6488234
0.1272701,0.7476712,0.6496018
0.1276551,0.7539725,0.6468931
0.1365699,0.7443184,0.6406487
0.1414474,0.7302115,0.634272
0.1397856,0.7352877,0.6343405
0.1332486,0.750331,0.6444217
0.128555,0.7620784,0.6489113
0.1318239,0.7626235,0.6440274
0.1374549,0.7491111,0.6370066
0.1418134,0.7380578,0.6279639
0.140993,0.7348032,0.6230351
0.1386313,0.7416968,0.6322079
0.1368527,0.7654654,0.6523425
0.1254688,0.7815622,0.6646533
0.1181546,0.7685322,0.6632687
0.1341962,0.7457215,0.6448938
0.1442406,0.7509062,0.6215483
0.1147928,0.7961172,0.628365
0.09076388,0.8331761,0.6401651
0.120302,0.7993753,0.6479381
0.136424,0.7243523,0.696013
0.07570027,0.6868082,0.746277
0.008027276,0.6759703,0.7538084
0.01054462,0.6575304,0.7320795
0.05876024,0.6207201,0.7076441
0.09646882,0.5841235,0.7082079
0.1081582,0.6136083,0.6893551
0.1179685,0.6641071,0.6325061
0.1344375,0.6988786,0.6061549
0.1362597,0.7581618,0.6148029
0.137685,0.7745599,0.6194628
0.1494744,0.7594148,0.6116257
0.1572197,0.7806636,0.602473
0.2074758,0.8032232,0.5794541
0.2801273,0.8135239,0.5455273
0.2607875,0.7970335,0.5667579
0.1775185,0.7889968,0.5943661
0.1427527,0.8522181,0.5550623
0.1908139,0.908737,0.5098877
0.2492012,0.8825379,0.4821509
0.2186435,0.8286596,0.4913141
0.1652654,0.7964636,0.5282001
0.1399719,0.7778287,0.5256204
0.09765674,0.7955011,0.5333913
0.08530254,0.83722,0.5723062
0.05920876,0.8667806,0.5912675
0.02430819,0.8878576,0.5788577
0.08894083,0.8629513,0.548835
0.1217309,0.8112814,0.5586218
0.05533898,0.7725618,0.5802489
-0.01152933,0.7544179,0.583117
-0.03216642,0.7812582,0.6030168
0.02790765,0.7850099,0.6003661
0.06951409,0.7748471,0.6086266
0.02703071,0.7759443,0.6363061
0.007940357,0.7494926,0.6154526
0.05320565,0.7921801,0.6031318
0.08319033,0.8509698,0.6116946
0.04344765,0.8387661,0.6222485
0.007816263,0.849987,0.6461147
0.01550836,0.8598343,0.637207
0.0305825,0.8462395,0.6059883
0.04732267,0.844875,0.5842769
0.03937235,0.8459162,0.5801796
0.01143049,0.8618231,0.591744
-0.01655913,0.8860704,0.5970056
-0.03468006,0.9189206,0.6151638
-0.02374089,0.9514804,0.6443491
-0.02443751,0.9616599,0.6688043
-0.04739965,0.9643333,0.6945094
-0.05615842,0.9662242,0.7063942
-0.05211501,0.9585068,0.7279899
-0.03699789,0.9485862,0.7667675
-0.01371398,0.9717498,0.7816329
0.01126094,1.012555,0.7634456
0.02149396,1.017936,0.7115973
-0.01032836,0.9783739,0.653897
-0.06072327,0.8569187,0.6146682
-0.08163323,0.6256631,0.5570043
-0.05912387,0.38362,0.4721184
-0.03712004,0.2440506,0.4143254
-0.0509535,0.09066795,0.3838265
-0.05392627,-0.14823,0.3253131
-0.0787336,-0.1795554,0.3261548
-0.237133,-0.05782408,0.4473223
-0.4333811,-0.1067842,0.5943447
-0.4419689,-0.05443909,0.7547131
-0.3049483,0.2228613,0.9303523
-0.2266779,0.4261911,1.116864
-0.1789096,0.4868648,1.197616
-0.08391556,0.5074479,1.168137
-0.01984911,0.6760654,1.281363
-0.09988142,0.7406137,1.236711
-0.2664731,0.5340848,0.9565491
-0.2658183,0.4193655,0.864108
-0.1730369,0.2801435,0.7498462
-0.1376927,0.2129334,0.7033251
-0.05779907,0.3124891,0.8159163
-0.0778313,0.2422307,0.7795352
-0.1718424,0.2679976,0.883748
-0.1942844,0.3260932,1.021552
-0.2227639,0.301086,0.9969644
-0.1575478,0.4165216,1.021132
-0.1326777,0.363787,0.9786616
-0.313075,0.1809174,0.9579129
-0.4665558,0.1039833,0.9555241
-0.4396302,0.2808428,0.920314
-0.2756868,0.5864345,0.9447328
-0.1653329,0.5141099,0.8909562
-0.1539449,0.485814,0.8912289
-0.1550028,0.6699154,0.9204823
-0.1398579,0.6210633,0.8701882
-0.08652034,0.6191943,0.8774309
-0.1130094,0.6206592,0.8356504
-0.1616028,0.5211451,0.8008938
-0.1663703,0.5126645,0.8104284
-0.2163197,0.4443826,0.7926209
-0.2404403,0.4221018,0.8335285
-0.2640627,0.445194,0.8469457
-0.2517607,0.4079409,0.8602603
-0.2044059,0.4282207,0.9104725
-0.2375461,0.4162574,0.9218194
-0.2186151,0.4132773,0.938729
-0.1762874,0.4244836,0.9229455
-0.1738002,0.3915398,0.9033332
-0.155685,0.4101794,0.9047717
-0.183897,0.4095473,0.8899608
-0.1967179,0.411796,0.911854
-0.1842624,0.4277632,0.9301259
-0.1856343,0.4145846,0.9327888
-0.1664864,0.4398477,0.921091
-0.1693495,0.4430776,0.8938279
-0.1836157,0.4305559,0.9285993
-0.1985015,0.4107022,0.953709
-0.20454,0.3718454,0.9256476
-0.1772649,0.3876113,0.9202606
-0.1581916,0.3941828,0.9336089
-0.1455612,0.3802102,0.941918
-0.1407935,0.3833594,0.93732
-0.1479638,0.3616998,0.9371508
-0.1514271,0.3093866,0.9447317
-0.1563307,0.2306831,0.945003
-0.1497389,0.1759024,0.9554152
-0.1476069,0.1494597,0.9696103
-0.1554856,0.09801584,0.975162
-0.1547812,0.07272242,0.9495356
-0.1414644,0.09325497,0.896663
-0.1112649,0.09625797,0.888465
-0.09537732,0.09056138,0.9199232
-0.1071773,0.09166164,0.9455131
-0.1406417,0.06433433,0.9912649
-0.1770675,0.03447204,1.033581
-0.1654582,0.0283704,0.9893977
-0.1336088,0.01093471,0.9266236
-0.1141468,-0.01257426,0.9582778
-0.09668806,-0.02367979,0.9773721
-0.1431883,-0.04424971,0.9427411
-0.2441375,-0.07301872,0.9566519
-0.288964,-0.07880726,0.9651096
-0.2695584,-0.05728878,0.9730523
-0.2416778,-0.02473648,1.018548
-0.227691,0.001218833,1.018975
-0.223522,0.0106959,1.011061
-0.2207899,0.02495563,1.014427
-0.2152117,0.04175422,0.9868441
-0.1863166,0.03510628,0.9571679
-0.1467475,0.02215247,0.9352913
-0.132207,0.01118224,0.9324791
-0.1466122,0.0004106683,0.9360841
-0.1782674,0.002306755,0.9466311
-0.2105727,-0.001524932,0.9736019
-0.2285839,-0.008134189,0.9757298
-0.2225226,-0.01101414,0.9798847
-0.227219,-0.0287993,0.995673
-0.2510448,-0.03470918,0.9912785
-0.2482144,-0.03072453,0.985946
-0.2343943,-0.04015305,0.9801217
-0.2164549,-0.04445581,0.9714896
-0.1988692,-0.04951703,0.9663619
-0.1984563,-0.05358745,0.9636193
-0.1882492,-0.05217395,0.9633318
-0.1868714,-0.05540837,0.961565
-0.1957682,-0.05111768,0.9623243
-0.1962531,-0.04935256,0.9600923
-0.197195,-0.05698568,0.9573833
-0.1889746,-0.0621104,0.9614295
-0.1921616,-0.06342889,0.9651967
-0.1998025,-0.05808754,0.9716194
-0.2001751,-0.05535432,0.9790876
-0.2117738,-0.05661992,0.9803767
-0.2149606,-0.05511258,0.9795791
-0.2137939,-0.05522207,0.9811273
-0.2111408,-0.05386739,0.9792845
-0.2047031,-0.05280956,0.9736989
-0.2023866,-0.05669047,0.9692993
-0.1877037,-0.06137363,0.9608063
-0.1798578,-0.06176698,0.955136
-0.1880663,-0.05848034,0.9582111
-0.1959653,-0.05799572,0.963869
-0.200484,-0.05845658,0.9703899
-0.1944871,-0.05818471,0.9710189
-0.1920573,-0.0586075,0.9717094
-0.1971266,-0.0592912,0.9785361
-0.1995156,-0.06490906,0.980394
-0.1976572,-0.07165517,0.9773206
-0.1920112,-0.07484394,0.9738045
-0.1913851,-0.08041813,0.9693338
-0.1914953,-0.08549972,0.9649554
-0.1913576,-0.08269777,0.961627
-0.1911156,-0.08106719,0.9583884
-0.1872778,-0.08746507,0.9586217
-0.1885818,-0.08890109,0.9647539
-0.1935124,-0.08127123,0.967882
-0.2008146,-0.07460923,0.9691079
-0.2028342,-0.07538102,0.971383
-0.1953628,-0.07905301,0.9679951
-0.1937423,-0.07694995,0.9644841
-0.1962765,-0.07447896,0.9656373
-0.1977297,-0.06993532,0.9688034
-0.1967962,-0.06204302,0.9725291
-0.194725,-0.06077273,0.9727686
-0.1973892,-0.05812737,0.9697076
-0.1981228,-0.05660064,0.9667716
-0.1994178,-0.06007304,0.9630627
-0.2027159,-0.05753161,0.9605527
-0.2007505,-0.05656297,0.966827
-0.1977624,-0.05595805,0.9748945
-0.1940927,-0.05326698,0.9731997
-0.1917492,-0.05835559,0.9681144
-0.1941126,-0.0621547,0.964302
-0.1969242,-0.06123244,0.9644004
-0.198605,-0.06189981,0.9684557
-0.1956395,-0.06269575,0.968408
-0.190647,-0.06281464,0.9690865
-0.1907496,-0.06142715,0.9734705
-0.1918502,-0.05792748,0.9763885
-0.1932148,-0.05074205,0.9767639
-0.1968374,-0.04633302,0.972066
-0.1971874,-0.05018791,0.9686799
-0.1953189,-0.05191055,0.9706547
-0.1948909,-0.05067131,0.9721914
-0.1973937,-0.05071162,0.9734997
-0.2017784,-0.04855797,0.9738296
-0.2002877,-0.04699753,0.9729143
-0.1996001,-0.04553625,0.9716454
-0.2055957,-0.03997287,0.9711179
-0.207915,-0.03311617,0.9747561
-0.207153,-0.03025766,0.9772717
-0.2066022,-0.03274395,0.9774849
-0.2067891,-0.03528598,0.9794192
-0.2075138,-0.0362077,0.9818898
-0.205492,-0.03619206,0.9847474
-0.2026743,-0.03297206,0.9804965
-0.1988904,-0.03103482,0.9731991
-0.1989265,-0.03264554,0.9757141
-0.2015836,-0.03599124,0.9744614
-0.1991804,-0.04310818,0.9681626
-0.1997645,-0.04805583,0.9708488
-0.2008895,-0.04524576,0.9711221
-0.1990644,-0.0411769,0.9679159
-0.2007086,-0.04008667,0.9701452
-0.2009138,-0.04132734,0.9715127
-0.2010422,-0.04526645,0.9749748
-0.2011906,-0.04904369,0.9790465
-0.1992317,-0.05048873,0.9742977
-0.2010715,-0.05103016,0.9705038
-0.2018495,-0.04862046,0.9743499
-0.1984648,-0.042279,0.9755104
-0.1918921,-0.03451057,0.9709192
-0.1864785,-0.03187446,0.9683797
-0.1951166,-0.03926839,0.9703113
-0.2061071,-0.04592425,0.9714444
-0.2031841,-0.04664313,0.968837
-0.1993981,-0.04780941,0.9644369
-0.1960875,-0.04872784,0.9619381
-0.1887974,-0.04862805,0.9650134
-0.1953435,-0.04666073,0.9708666
-0.2082099,-0.0446503,0.9735544
-0.2114732,-0.0436323,0.9753485
-0.2170045,-0.03859732,0.9754014
-0.2124454,-0.03426631,0.9713513
-0.192812,-0.03489242,0.9705943
-0.1894931,-0.03760599,0.9728199
-0.2033389,-0.03874494,0.9737965
-0.212378,-0.03360712,0.9730448
-0.2012048,-0.03024497,0.969675
-0.1814632,-0.03934959,0.967114
-0.1814377,-0.04925835,0.9663916
-0.1914969,-0.04645502,0.9732697
-0.2011248,-0.04372368,0.983134
-0.2080314,-0.04642243,0.97879
-0.2040912,-0.04015671,0.9721179
-0.2025545,-0.03131354,0.9718211
-0.201674,-0.02930088,0.9699828
-0.1996035,-0.02916421,0.9728068
-0.2016922,-0.02847168,0.9749604
-0.1973637,-0.02521929,0.9728979
-0.1973078,-0.02442369,0.9751776
-0.2046086,-0.02740059,0.977381
-0.2082093,-0.03073368,0.9789079
-0.2088184,-0.03441218,0.9795672
-0.206283,-0.03074734,0.976637
-0.2060382,-0.02564577,0.9752943
-0.2021291,-0.02880535,0.9752301
-0.196295,-0.032755,0.9748251
-0.2012577,-0.03553337,0.9724628
-0.2054545,-0.03784565,0.9674198
-0.2055028,-0.03988852,0.9645679
-0.205096,-0.0439878,0.9654014
-0.2036688,-0.04934847,0.9682815
-0.2061929,-0.05331323,0.9694866
-0.2075302,-0.05039352,0.9703565
-0.2058799,-0.04430498,0.9699322
-0.2052072,-0.03982795,0.9647501
-0.2054512,-0.03707666,0.9650478
-0.2050102,-0.03979897,0.970414
-0.2008091,-0.04140641,0.9765812
-0.1972928,-0.03995148,0.983443
-0.1978996,-0.03719086,0.9800096
-0.1975799,-0.03025296,0.9742432
-0.1955583,-0.03073873,0.9738082
-0.1994058,-0.03393813,0.9722126
-0.208922,-0.03065895,0.9720762
-0.212515,-0.0317087,0.9691938
-0.207853,-0.03054404,0.9684865
-0.2017528,-0.02582445,0.9746573
-0.2001106,-0.02656201,0.9759353
-0.2005194,-0.02724489,0.9757254
-0.1969508,-0.02819026,0.9744621
-0.1949494,-0.02919433,0.9706301
-0.1973893,-0.02974244,0.9728001
-0.2006053,-0.03086173,0.9765446
-0.2030888,-0.02763529,0.9809278
-0.2024987,-0.02564702,0.9850248
-0.1999039,-0.02834674,0.9807691
-0.1978201,-0.02991625,0.9754628
-0.1988485,-0.02926762,0.9745969
-0.201953,-0.02885194,0.9746764
-0.2031742,-0.03058367,0.9753951
-0.2031044,-0.03228548,0.975325
-0.2024354,-0.03468201,0.9764801
-0.202206,-0.03686137,0.9776365
-0.200452,-0.03428949,0.9724134
-0.1975738,-0.03214407,0.9675339
-0.1995643,-0.03300324,0.9703045
-0.2018625,-0.03388643,0.9730627
-0.201548,-0.03580306,0.9715744
-0.2027282,-0.03685353,0.9702702
-0.2017063,-0.03546526,0.9698389
-0.1974857,-0.03412295,0.9715533
-0.196088,-0.03316381,0.9749624
-0.1977292,-0.03215902,0.9738736
-0.1976288,-0.03016784,0.9727886
-0.1975835,-0.02722768,0.9754987
-0.199288,-0.03021609,0.9759551
-0.1986441,-0.03668834,0.9755439
-0.1983616,-0.03572254,0.9720311
-0.200126,-0.03111865,0.9657118
-0.2011102,-0.02857994,0.9662798
-0.2030003,-0.03011241,0.9698533
-0.2049284,-0.03349593,0.9722519
-0.2055043,-0.03063066,0.9748157
-0.2035653,-0.02853964,0.9751449
-0.1985626,-0.02987219,0.9773423
-0.1952593,-0.02859209,0.9798565
-0.1947726,-0.02931707,0.9747156
-0.1964011,-0.02947157,0.9673316
-0.1993406,-0.02879225,0.9655085
-0.20117,-0.0307525,0.9676762
-0.2018623,-0.03146067,0.9717157
-0.2003272,-0.03226694,0.9755769
-0.1997175,-0.03142708,0.9759449
-0.2022196,-0.02770829,0.9752158
-0.2031845,-0.02502611,0.9767182
-0.2028823,-0.02535506,0.9768904
-0.2022607,-0.02908565,0.9757401
-0.2009165,-0.02989204,0.9766825
-0.1995539,-0.02877087,0.9769083
-0.1986095,-0.03038966,0.9777513
-0.1988679,-0.02965204,0.9801161
-0.198408,-0.02521105,0.9791995
-0.1984781,-0.02061272,0.9779462
-0.1991924,-0.02175281,0.9757171
-0.199094,-0.02553281,0.9705078
-0.2004576,-0.02435562,0.9696527
-0.2002226,-0.0232286,0.9712677
-0.199999,-0.02191526,0.9714837
-0.2031489,-0.02046076,0.9733723
-0.2042502,-0.02168686,0.9735323
-0.2015444,-0.0212617,0.9721237
-0.1977489,-0.02236906,0.9736151
-0.1971348,-0.02294386,0.9747316
-0.1990501,-0.02094167,0.9748515
-0.2028569,-0.02098004,0.9741558
-0.2079937,-0.01894193,0.9714641
-0.2025991,-0.01909353,0.9721067
-0.1951786,-0.02228121,0.9743808
-0.2000451,-0.02208951,0.9738883
-0.2012518,-0.02249861,0.974223
-0.1967869,-0.02239854,0.9753572
-0.1976028,-0.02273897,0.9750286
-0.1990055,-0.0233568,0.9734331
-0.2003719,-0.01794399,0.9716392
-0.2005728,-0.01389009,0.9709045
-0.1992062,-0.01674073,0.9733782
-0.2005949,-0.01950218,0.977611
-0.2010112,-0.01755316,0.9781358
-0.2011967,-0.01550019,0.9772756
-0.2014633,-0.01558817,0.976197
-0.1982048,-0.01522175,0.973789
-0.1965064,-0.01815925,0.9736005
-0.1966432,-0.02010134,0.9729677
-0.1947248,-0.0164095,0.9713272
-0.1922968,-0.01439885,0.9720594
-0.1924665,-0.01509161,0.975485
-0.1939329,-0.01577615,0.9780643
-0.1926917,-0.01512114,0.9761487
-0.1931169,-0.01496488,0.9776076
-0.1956663,-0.01562829,0.9809368
-0.1970543,-0.01398099,0.9794676
-0.1997192,-0.01350715,0.9806064
-0.2004088,-0.01315293,0.9796498
-0.1997886,-0.01217713,0.9717131
-0.200214,-0.01411382,0.9664402
-0.1997371,-0.01681783,0.9690038
-0.1998365,-0.0191083,0.9742377
-0.1982124,-0.01917761,0.9743182
-0.1971814,-0.01919789,0.9764954
-0.2009044,-0.02116614,0.9806475
-0.2036392,-0.02165301,0.9783341
-0.2008148,-0.02249954,0.9781398
-0.1959163,-0.02286741,0.9778504
-0.1952386,-0.02348744,0.974836
-0.1961449,-0.0257553,0.9738736
-0.1958342,-0.02423896,0.9701608
-0.1974307,-0.02219436,0.9691556
-0.2000545,-0.02134446,0.9724653
-0.202121,-0.01864479,0.9745721
-0.2007807,-0.01837645,0.9759815
-0.1989432,-0.01759665,0.9760939
-0.2004774,-0.01457506,0.976923
-0.2002851,-0.01752526,0.9772267
-0.2004906,-0.02128375,0.9803212
-0.2013587,-0.01855563,0.9849173
-0.1976765,-0.01615989,0.9799531
-0.1947502,-0.01521613,0.9737703
-0.1972366,-0.01453474,0.9731244
-0.2017528,-0.01642691,0.973933
-0.2032622,-0.01776593,0.976047
-0.2008751,-0.01906966,0.9747704
-0.1980876,-0.019586,0.9713481
-0.1969463,-0.01898154,0.9720418
-0.1956371,-0.02185128,0.9756858
-0.1935953,-0.02287481,0.9771333
-0.1946689,-0.02139596,0.9758294
-0.1968589,-0.02043095,0.974596
-0.197212,-0.01689614,0.9730835
-0.1976291,-0.01590558,0.9733567
-0.1966185,-0.0174607,0.9739694
-0.1952805,-0.01829434,0.9723204
-0.1946833,-0.01968845,0.9716976
-0.1957767,-0.01766997,0.9702907
-0.199267,-0.01460846,0.9677823
-0.1988141,-0.01402351,0.9668087
-0.1966692,-0.01295439,0.9670606
-0.1960856,-0.01205827,0.969731
-0.195514,-0.01286772,0.974154
-0.1985687,-0.01488157,0.9780476
-0.1998887,-0.01739322,0.9798724
-0.1986025,-0.01886047,0.9779963
-0.2005544,-0.01762191,0.9715993
-0.2003426,-0.01567661,0.9666649
-0.1989859,-0.01429438,0.9713848
-0.1985224,-0.01301388,0.9778347
-0.1956513,-0.01321747,0.976686
-0.1953619,-0.01250278,0.9755443
-0.1973224,-0.01263045,0.9770468
-0.1972542,-0.01682975,0.9747862
-0.1972523,-0.01965685,0.96899
-0.1975971,-0.01905366,0.9647819
-0.1988984,-0.01710968,0.9710264
-0.1998023,-0.01598412,0.9822782
-0.1956423,-0.01539364,0.9816942
-0.1912884,-0.0145859,0.9782094
-0.1935108,-0.01573035,0.9782596
-0.1981793,-0.01541464,0.9743342
-0.202083,-0.01436063,0.9751495
-0.2057745,-0.01390771,0.9765322
-0.2053613,-0.01075366,0.9724298
-0.201464,-0.01071455,0.9730419
-0.1992163,-0.0132306,0.9733087
-0.1991678,-0.01499706,0.9712822
-0.1988755,-0.01791158,0.9734441
-0.1965467,-0.01760751,0.9747704
-0.1964072,-0.0166609,0.9723606
-0.1971643,-0.01712069,0.9698341
-0.1939054,-0.01634048,0.9686053
-0.193067,-0.01769932,0.9688189
-0.1934719,-0.01858509,0.9711843
-0.1929145,-0.01791499,0.9738229
-0.1969363,-0.0192554,0.9763555
-0.2015612,-0.02061003,0.9742369
-0.2034933,-0.02041626,0.9680152
-0.2013023,-0.01728641,0.9699056
-0.1985049,-0.01413221,0.971717
-0.2004976,-0.01597184,0.9720614
-0.200153,-0.01732314,0.9779391
-0.1980981,-0.01451435,0.9725528
-0.1971071,-0.01312493,0.9660875
-0.1958154,-0.01408348,0.9711323
-0.2002455,-0.01385461,0.9727225
-0.2043447,-0.01280695,0.9746058
-0.2006254,-0.01232362,0.9771784
-0.1967085,-0.01292874,0.9758496
-0.1962999,-0.01551861,0.9764075
-0.1971836,-0.01832418,0.9756562
-0.1999371,-0.01822503,0.974554
-0.2018734,-0.01551381,0.9761151
-0.1974873,-0.01277423,0.9767029
-0.1922946,-0.01109657,0.9754844
-0.1926831,-0.01077723,0.9718081
-0.1938246,-0.0118626,0.9686775
-0.1952103,-0.01378284,0.9723451
-0.1997575,-0.01560458,0.9782314
-0.2046672,-0.01398244,0.976041
-0.2061708,-0.01085534,0.9694135
-0.2037503,-0.01118664,0.9682155
-0.2018348,-0.01210451,0.970409
-0.2028413,-0.01484451,0.9713677
-0.2031987,-0.01826869,0.9723496
-0.201681,-0.01500599,0.9723651
-0.1992947,-0.01114864,0.9700183
-0.1959532,-0.009373483,0.9688948
-0.1945506,-0.007676673,0.96974
-0.1940449,-0.01127279,0.9710928
-0.1930063,-0.01382914,0.9746595
-0.1982712,-0.01207929,0.9777586
-0.2055908,-0.01239644,0.9773006
-0.2057069,-0.01269835,0.9766824
-0.2017779,-0.01273225,0.9774663
-0.1990316,-0.01488582,0.9778564
-0.201535,-0.01790864,0.9769388
-0.2039052,-0.01787177,0.9733433
-0.2004846,-0.01411894,0.96989
-0.1995317,-0.01312885,0.9730602
-0.2021246,-0.01199729,0.9767139
-0.2033003,-0.008282167,0.9737794
-0.2022479,-0.009451228,0.9724858
-0.1987671,-0.01075406,0.9734096
-0.1963834,-0.009261933,0.9715729
-0.1975785,-0.01133588,0.9714123
-0.2013425,-0.01072129,0.9730349
-0.2021591,-0.004372791,0.9749493
-0.194827,-0.001558632,0.9771884
-0.1886926,-0.004892768,0.9768118
-0.1960813,-0.008811764,0.9770853
-0.2058475,-0.009479884,0.979993
-0.2040616,-0.009722184,0.9804913
-0.2039428,-0.0100831,0.977994
-0.2082813,-0.009311824,0.9729282
-0.2056208,-0.009905188,0.9674936
-0.2018371,-0.01109067,0.9687939
-0.1975789,-0.0156589,0.9724909
-0.1953532,-0.02150609,0.9731303
-0.1985561,-0.01857454,0.9765232
-0.1974188,-0.01345275,0.9777043
-0.1979128,-0.01297144,0.97511
-0.1995985,-0.01215172,0.976869
-0.1952483,-0.01141879,0.9758611
-0.1955001,-0.008514443,0.9711056
-0.1986033,-0.004336062,0.9693916
-0.1995729,-0.007964192,0.97138
-0.2009763,-0.01267911,0.9766264
-0.2015496,-0.01086459,0.9773138
-0.2028221,-0.01064788,0.9759781
-0.2015226,-0.01100014,0.9737277
-0.1987492,-0.007142438,0.9669699
-0.2001418,-0.00454962,0.9687233
-0.2003218,-0.005283003,0.9709477
-0.1985646,-0.006136744,0.9651765
-0.1993106,-0.005358748,0.9652352
-0.20231,-0.005291731,0.96732
-0.2061321,-0.005995779,0.9682388
-0.2060266,-0.005076111,0.9689696
-0.2028813,-0.004670997,0.9680534
-0.202536,-0.004136745,0.9701293
-0.2026592,-0.003546349,0.9706737
-0.2017803,-0.003736959,0.9730663
0.2865578,0.8145145,0.4818583
0.2912394,0.8127137,0.4859693
0.2928041,0.8132195,0.4855651
0.2921413,0.8152201,0.4851406
0.2922846,0.8156985,0.4858171
0.2933788,0.8146885,0.4865996
0.2956187,0.8133213,0.4889337
0.2991381,0.811164,0.4911692
0.2984636,0.8105124,0.4889013
0.2973282,0.8120277,0.4827635
0.3011386,0.8137691,0.4774104
0.301807,0.8159026,0.4791537
0.2990262,0.8158151,0.4828102
0.2970896,0.814179,0.4811178
0.2956542,0.8132566,0.4806833
0.2951787,0.8094868,0.4795579
0.2945779,0.8068492,0.4780139
0.2945753,0.8089784,0.4825292
0.2951382,0.8091817,0.4852489
0.2982813,0.8076625,0.486241
0.3045126,0.8069064,0.4861592
0.3060792,0.8065781,0.4806281
0.3019123,0.8087821,0.4785031
0.2959,0.8113418,0.4808503
0.2930995,0.813197,0.4823356
0.2965595,0.8137824,0.480611
0.2982743,0.8124956,0.4780303
0.2964687,0.8126437,0.4813515
0.2953583,0.8128058,0.4829909
0.2949699,0.814033,0.4813141
0.2991517,0.8157285,0.4818731
0.3058226,0.8124536,0.4797082
0.306578,0.8096002,0.4771415
0.3036745,0.8094232,0.4781376
0.3028846,0.8081209,0.4826669
0.3015502,0.8089919,0.4866585
0.2989665,0.8142054,0.4857152
0.2984974,0.819744,0.4843068
0.2993837,0.8208862,0.4825635
0.3000736,0.8194151,0.481056
0.2983723,0.8177771,0.48022
0.2962321,0.816394,0.4782852
0.2978981,0.8167319,0.4806115
0.3002467,0.8158068,0.4835083
0.3018084,0.8143025,0.4832885
0.301942,0.8138062,0.486024
0.300727,0.8115689,0.4866303
0.3010733,0.8098049,0.4796404
0.2989597,0.8071524,0.4749187
0.2964857,0.804992,0.4768293
0.2999438,0.8105145,0.4785088
0.3021854,0.8163056,0.4792568
0.298587,0.8156551,0.47865
0.2959201,0.8149632,0.4760797
0.2971301,0.816526,0.4729729
0.2969019,0.8179264,0.4670338
0.2950248,0.8179113,0.4652859
0.295889,0.8162552,0.4694844
0.2962314,0.8146634,0.4699537
0.296104,0.8147341,0.469668
0.2998242,0.8132378,0.4722844
0.3035662,0.8081033,0.4746699
0.3041883,0.8061376,0.4756312
0.3037574,0.8098574,0.4759164
0.3032489,0.8122918,0.4791383
0.3017118,0.8116196,0.4859361
0.3003937,0.813431,0.4908931
0.2997413,0.8172402,0.4879528
0.2972409,0.8161473,0.4826383
0.2966219,0.8133266,0.4816433
0.2989153,0.8139515,0.4797788
0.2999517,0.8140035,0.4784287
0.3021657,0.8136865,0.4763382
0.304625,0.8139308,0.4723665
0.3051515,0.8124768,0.4770852
0.3058016,0.8104932,0.4814492
0.3054329,0.8091302,0.4787875
0.3035938,0.8104757,0.4806625
0.2995764,0.8146463,0.4821416
0.2965724,0.817685,0.477315
0.3013671,0.8170824,0.473358
0.3061426,0.814907,0.4746753
0.3023202,0.8152627,0.476619
0.2993918,0.8159272,0.4771358
0.30071,0.8166318,0.4808665
0.2996603,0.8187624,0.4818629
0.2997017,0.8169449,0.4802963
0.3010228,0.8139864,0.4827092
0.3010365,0.8137971,0.4822569
0.3033124,0.8134628,0.4811513
0.3044489,0.8128735,0.4826286
0.3038051,0.810816,0.4813109
0.3028456,0.8106018,0.4794895
0.3008861,0.8135415,0.4763077
0.3015494,0.8137025,0.4735868
0.3004385,0.8135256,0.4763994
0.2980543,0.8145598,0.4807537
0.2978943,0.8145582,0.4842547
0.295698,0.8154534,0.482703
0.2962465,0.8152796,0.4767899
0.2998124,0.8130701,0.4755006
0.3020442,0.812127,0.4758841
0.3021816,0.8123956,0.4758728
0.3005604,0.8124887,0.478732
0.3026158,0.8116173,0.4810479
0.3035007,0.8106799,0.4825963
0.3020521,0.8113421,0.4837712
0.3029223,0.8123452,0.4827025
0.3010077,0.8136552,0.4795916
0.3001682,0.8152782,0.4766931
0.3022102,0.8150703,0.4776552
0.3032525,0.8134438,0.4793895
0.3040748,0.8116149,0.4795583
0.301644,0.8104481,0.4819212
0.2988865,0.8096725,0.4842249
0.2998544,0.8094177,0.4834856
0.3005789,0.8113185,0.4828602
0.2996943,0.8132431,0.4835845
0.3002138,0.8139974,0.4835912
0.3023511,0.8130219,0.4839754
0.3040688,0.8097748,0.4843209
0.3057994,0.808338,0.4802966
0.3066012,0.8086343,0.4759397
0.3059257,0.8102748,0.4766163
0.3016012,0.8137471,0.4770533
0.2947638,0.8146434,0.4757145
0.2951638,0.8143619,0.4768836
0.2991854,0.8148433,0.4788793
0.3003686,0.8153472,0.4813755
0.3020639,0.818851,0.4847812
0.3016077,0.8215586,0.4845546
0.3009362,0.8170929,0.4817786
0.3027941,0.8110209,0.480296
0.3029019,0.8094115,0.4818511
0.3025303,0.8081647,0.4838784
0.3019929,0.807574,0.47971
0.3009508,0.8096177,0.4761593
0.3010769,0.8111852,0.4790116
0.2997494,0.8147398,0.4802371
0.2979092,0.8165493,0.4805747
0.2984879,0.8135247,0.4817894
0.2990029,0.8141653,0.478346
0.2987474,0.8169864,0.4730349
0.3003465,0.817381,0.4736859
0.3021336,0.8133316,0.4788846
0.3014279,0.8076949,0.4812571
0.3010191,0.8110881,0.4791366
0.301323,0.8146545,0.4769434
0.2995338,0.811475,0.479495
0.2988552,0.8123446,0.4813723
0.3030183,0.8135941,0.4773371
0.3072244,0.8135663,0.4757506
0.3055599,0.8158357,0.4783554
0.3025012,0.8137354,0.4798514
0.3020228,0.8108912,0.479352
0.3020265,0.8106969,0.4796699
0.3065243,0.8076436,0.4849128
0.3110436,0.8063502,0.4875625
0.3052412,0.8100426,0.4797389
0.2993889,0.812124,0.4717454
0.3014345,0.8112221,0.4748831
0.3021633,0.8116428,0.4802056
0.3010949,0.8130505,0.4803371
0.3033346,0.8127644,0.4831054
0.3044209,0.8130295,0.4849755
0.3013332,0.8144393,0.4865498
0.2993665,0.8139544,0.4906372
0.3020109,0.8135308,0.4866179
0.3056464,0.8143777,0.4836538
0.306012,0.8146808,0.4857776
0.3052538,0.8145633,0.4849795
0.3056745,0.8111054,0.4865996
0.3046529,0.8067746,0.4862842
0.3010327,0.8092234,0.4844542
0.297528,0.8130751,0.4844483
0.2988492,0.8133146,0.4806607
0.3017697,0.8141783,0.4782707
0.3013387,0.8139723,0.4789437
0.3034139,0.8126817,0.4793571
0.3064442,0.813477,0.4785193
0.3065881,0.8140058,0.477946
0.3063656,0.8138104,0.4798108
0.3032017,0.8129996,0.4792906
0.3019469,0.8118672,0.4783139
0.3043768,0.8117303,0.4778746
0.3041548,0.8109266,0.4755512
0.3034919,0.8111971,0.4765761
0.3006861,0.8132651,0.4787418
0.2975942,0.8138616,0.4794405
0.3003318,0.8123226,0.4804292
0.3030365,0.8108225,0.4797768
0.3042793,0.8136037,0.477126
0.3077508,0.8163739,0.4742816
0.3090368,0.8133211,0.4761637
0.3050247,0.8114252,0.4792202
0.3019121,0.8130118,0.476539
0.3021373,0.8137489,0.4755282
0.3022271,0.814604,0.4770851
0.3037972,0.8150754,0.4764516
0.3048368,0.8147993,0.4781121
0.3027399,0.8170097,0.4799791
0.2988427,0.8184424,0.4790786
0.2959278,0.8137533,0.4782475
0.3030783,0.8083092,0.4760929
0.3116195,0.8077801,0.4741365
0.305219,0.8098185,0.4757109
0.2973223,0.8119632,0.4768952
0.297397,0.8129156,0.4771856
0.2973573,0.8125746,0.4809979
0.3004565,0.8123029,0.4824843
0.3031249,0.8125517,0.4778599
0.3009773,0.8129705,0.4756088
0.304007,0.8137711,0.4780317
0.3070549,0.8139398,0.4795119
0.305095,0.8113182,0.4756491
0.3054302,0.8104308,0.4718044
0.3057926,0.8135606,0.4742096
0.3050341,0.8133601,0.4767368
0.3038721,0.8083207,0.4798165
0.3021369,0.8048767,0.4836187
0.3024866,0.8094845,0.4817567
0.3022255,0.8159088,0.4805954
0.3009196,0.8131651,0.4827933
0.3012725,0.8109744,0.4835305
0.3022337,0.8137137,0.483219
0.304079,0.8131554,0.4813675
0.3072014,0.8134483,0.4804492
0.3075658,0.8124385,0.4832899
0.3053404,0.8080753,0.4850086
0.3054525,0.8079039,0.4809737
0.3061069,0.8086389,0.4756918
0.3070765,0.80835,0.4766497
0.3087793,0.8093496,0.4815684
0.3060854,0.8105918,0.4834577
0.3017004,0.8127671,0.4791888
0.2998502,0.8129437,0.4733429
0.3002039,0.8108667,0.4742448
0.3029469,0.8126674,0.4754291
0.3047607,0.8172963,0.4727742
0.3032919,0.8181134,0.4761168
0.3011653,0.8151782,0.4808781
0.3018937,0.8118351,0.4806402
0.305239,0.8099224,0.478763
0.3067509,0.8100825,0.4763349
0.3020981,0.8104646,0.4746437
0.2958415,0.8126008,0.4702215
0.2964352,0.8151089,0.4671917
0.2970632,0.8151779,0.4728867
0.2954796,0.8153324,0.4781332
0.2993554,0.8133105,0.4786866
0.3017338,0.811678,0.4796879
0.3035445,0.81285,0.4797412
0.3073513,0.8124024,0.474738
0.30472,0.8124962,0.4692017
0.3021469,0.8125943,0.4697174
0.3015427,0.8123013,0.4735212
0.3004008,0.8127633,0.4778735
0.3020031,0.8122646,0.4788586
0.3004385,0.8126135,0.4770915
0.2991518,0.8125524,0.4789192
0.3008453,0.8124876,0.47952
0.3010864,0.8136402,0.4773667
0.3043568,0.8139571,0.4750465
0.3067181,0.8137298,0.472744
0.3053084,0.8115809,0.4749519
0.305368,0.8087361,0.4785505
0.3057117,0.8079749,0.478874
0.3050319,0.8091659,0.4758798
0.3027848,0.8103734,0.472103
0.3006098,0.8098921,0.4733143
0.3011402,0.8113168,0.474993
0.3018619,0.8133729,0.4743024
0.3014081,0.8126288,0.4755925
0.3020889,0.8130821,0.4761801
0.30336,0.814419,0.479533
0.3027032,0.8135733,0.4849265
0.3026995,0.8114695,0.4822085
0.3039989,0.8089694,0.4786578
0.3038608,0.8084742,0.478295
0.3025371,0.8128545,0.4752266
0.3007343,0.8170156,0.4750637
0.3011005,0.8147336,0.4779495
0.3020202,0.810596,0.4797526
0.301316,0.8080449,0.4799242
0.3032117,0.8057778,0.4792424
0.3046184,0.8057456,0.4811544
0.3020652,0.8078825,0.480965
0.2999637,0.8111094,0.4800604
0.3003679,0.8124859,0.4830292
0.3014128,0.8112252,0.4836707
0.3015837,0.812493,0.4827545
0.3030216,0.8127289,0.4805616
0.3044244,0.811391,0.4773598
0.3037963,0.8133009,0.4789551
0.3045379,0.8126049,0.4826041
0.3050564,0.8117251,0.4851947
0.3038085,0.8133505,0.4860315
0.3008104,0.812235,0.4859317
0.2970536,0.8134589,0.4864441
0.2983729,0.8155643,0.4855578
0.299676,0.8150615,0.4844494
0.2979165,0.8153989,0.4833815
0.2999177,0.8140339,0.4807595
0.3014942,0.8126288,0.4750802
0.3015627,0.8120819,0.4698208
0.3035426,0.8102565,0.4721239
0.304062,0.8086557,0.473784
0.3026328,0.8078271,0.4718973
0.300637,0.8094588,0.4754951
0.301236,0.8102813,0.4805806
0.3028746,0.8093126,0.4849762
0.3016064,0.8102909,0.4839934
0.3012803,0.8114777,0.4734608
0.3014222,0.8129255,0.4695735
0.3017466,0.8129303,0.4763428
0.304377,0.8118518,0.4813358
0.3061046,0.8125139,0.4796767
0.3050625,0.8103922,0.4781001
0.3006104,0.807082,0.4828763
0.2972715,0.8072583,0.4837696
0.2988357,0.8104837,0.4792558
0.3009372,0.8138458,0.4752814
0.3022403,0.8127608,0.4718615
0.3041407,0.8116194,0.4742155
0.3062021,0.8127623,0.4765702
0.3054516,0.8110018,0.4776613
0.3022055,0.8106369,0.4806465
0.3009021,0.8132448,0.478621
0.3011713,0.8128718,0.4777501
0.3016685,0.8113624,0.4790582
0.3015986,0.8101081,0.4805645
0.3023412,0.8076043,0.4843866
0.3048068,0.8079227,0.4810805
0.3046269,0.810076,0.476769
0.3041189,0.80998,0.477633
0.306889,0.811581,0.4744442
0.3085445,0.8142391,0.4729394
0.3071484,0.814038,0.4784948
0.3051284,0.8135938,0.4839863
0.302746,0.8126736,0.4850761
0.3008211,0.810402,0.4810987
0.3029927,0.8095164,0.4772064
0.3055241,0.8117442,0.4780991
0.3047996,0.8152274,0.4798311
0.3055016,0.8156113,0.4803725
0.3064412,0.813777,0.4796431
0.306894,0.8118755,0.4786886
0.3086411,0.8106397,0.4822001
0.3067409,0.8120113,0.4846415
0.3034462,0.8128966,0.4828178
0.3042496,0.8110876,0.4836615
0.3054065,0.8089432,0.4853738
0.3051658,0.8081849,0.4854611
0.303666,0.8100539,0.4821272
0.3002541,0.8119385,0.477208
0.299222,0.8107897,0.4787084
0.3011029,0.8088966,0.4793036
0.3035652,0.808119,0.4756838
0.3066663,0.8080777,0.4762155
0.3070386,0.8091001,0.4768457
0.3062875,0.8110506,0.4759643
0.307491,0.8130818,0.4766249
0.3072729,0.8130599,0.4769058
0.3083345,0.8117851,0.4789326
0.3102191,0.8128966,0.4817391
0.3066153,0.813715,0.4816262
0.3021526,0.8134406,0.4816422
0.3004095,0.8131523,0.4816897
0.298911,0.8101544,0.4781872
0.2992975,0.8087624,0.4751548
0.3013047,0.8097779,0.4762439
0.3022048,0.8102533,0.4766542
0.3031294,0.8115999,0.4735105
0.3055435,0.8104978,0.4694531
0.3062438,0.8095895,0.4682772
0.3050635,0.8111306,0.4742125
0.3054468,0.8105814,0.481303
0.3048954,0.8117526,0.4797812
0.3032236,0.813301,0.4777022
0.30249,0.811565,0.480104
0.3006483,0.81212,0.4789659
0.2991841,0.8136294,0.4774963
0.2991478,0.8138911,0.4773195
0.3008326,0.8155311,0.4755844
0.3040865,0.8149632,0.4766753
0.3040657,0.8128948,0.4777036
0.3034825,0.8133533,0.4776599
0.3050942,0.8107393,0.4797152
0.305005,0.8066835,0.4818152
0.3063983,0.8084246,0.4834697
0.3073579,0.8100569,0.4795165
0.3037098,0.8095069,0.4721777
0.3018066,0.811074,0.4716766
0.3018976,0.8124612,0.474927
0.3013047,0.8135398,0.4782242
0.3012984,0.8141641,0.4801679
0.3013681,0.812822,0.4789913
0.3018845,0.8121725,0.4788872
0.3030618,0.81254,0.480182
0.3046862,0.812573,0.4826016
0.3043721,0.8128282,0.4858036
0.3029888,0.8142391,0.4845048
0.3046624,0.8151844,0.4802622
0.3060453,0.8118762,0.4785006
0.3056382,0.8081977,0.4789155
0.3054278,0.809384,0.4791658
0.3047559,0.8096726,0.4773723
0.3022106,0.8083538,0.4761002
0.2983751,0.8129119,0.4796786
0.2977806,0.8180982,0.4843821
0.2984081,0.8167711,0.4849765
0.2999109,0.8144981,0.4819209
0.3046811,0.8127774,0.4796035
0.3053715,0.809813,0.4814353
0.3055729,0.8089727,0.4824175
0.3082295,0.8089203,0.478186
0.3056455,0.8099716,0.4705056
0.3038207,0.8147117,0.4651474
0.3019151,0.8164754,0.4705458
0.2969296,0.8147022,0.4785158
0.2990493,0.8152942,0.4794817
0.301576,0.8155148,0.4832124
0.2993454,0.8150107,0.4860937
0.3008702,0.8152903,0.4825776
0.3021375,0.8142996,0.4826002
0.3010024,0.813426,0.4803624
0.3017997,0.8129685,0.4758109
0.3036417,0.8123256,0.4778801
0.306363,0.8123916,0.4774927
0.3077971,0.8129617,0.4754063
0.3067068,0.8143095,0.4772652
0.3056543,0.8157187,0.4794888
0.3019003,0.8155757,0.482995
0.2967976,0.8148636,0.4836072
0.2983112,0.8153967,0.4792817
0.3017855,0.8154788,0.4766349
0.3011625,0.8147786,0.4779627
0.302162,0.8144288,0.4802103
0.305243,0.8127074,0.4807119
0.3075547,0.8119519,0.4807026
0.3070487,0.813201,0.4799544
0.3024428,0.8141981,0.4777213
0.3004978,0.8153893,0.4758317
0.3023881,0.8136724,0.4778418
0.3058916,0.8105001,0.486854
0.3089512,0.8109318,0.4937917
0.304173,0.810927,0.4880435
0.2990706,0.8081818,0.4787777
0.3011721,0.8069224,0.4792149
0.3005122,0.8102397,0.4853166
0.2978418,0.814122,0.4873072
0.3015694,0.8127021,0.4810747
0.306144,0.811148,0.4731394
0.3057735,0.8118229,0.4761573
0.3052958,0.8105002,0.4804587
0.3057528,0.810463,0.4775944
0.305395,0.8094628,0.4779026
0.3051371,0.8072083,0.4772264
0.3028389,0.8106091,0.4795104
0.3006853,0.8121905,0.4856704
0.3021034,0.8100131,0.4804621
0.3033343,0.8096534,0.4770223
0.3018015,0.8083263,0.4799517
0.3007535,0.8105617,0.4775261
0.3018514,0.8140881,0.4770401
0.3025232,0.812282,0.4783885
0.3037003,0.8119914,0.4780001
0.3048057,0.8130328,0.4797708
0.3035437,0.8122574,0.4833766
0.3021243,0.8119346,0.4844957
0.3001853,0.8099662,0.4794786
0.2994612,0.8077524,0.4751555
0.3013408,0.8098309,0.4797676
0.3016377,0.8128565,0.4861616
0.3012524,0.8132819,0.4841156
0.3014711,0.8137976,0.4793226
0.3013072,0.8128505,0.4772871
0.3018164,0.8115583,0.4769966
0.3031501,0.8140512,0.4796076
0.3046763,0.8143572,0.4794028
0.3044617,0.8132666,0.4788483
0.3031261,0.8149336,0.4817472
0.3017507,0.8163539,0.4819594
0.2994347,0.8180365,0.4814834
0.3008346,0.8140928,0.4780205
0.3052379,0.8050152,0.4730718
0.306039,0.8030465,0.4743528
0.3049751,0.8074629,0.4791029
0.3028496,0.8140746,0.483318
0.3004443,0.8173423,0.4802167
0.3016474,0.8105941,0.4745254
0.3036455,0.8041179,0.4751025
0.304385,0.8070987,0.4758937
0.3040805,0.8100847,0.4767336
0.3020723,0.8082534,0.4776872
0.3018142,0.8083287,0.4774683
0.3057831,0.8090904,0.4791503
0.3090034,0.810699,0.4820207
0.3043535,0.814725,0.4848503
0.2986889,0.8140696,0.4797691
0.3008118,0.8119559,0.4706303
0.3021409,0.8111757,0.4713024
0.3023894,0.8096837,0.4726876
0.306347,0.8113895,0.4711873
0.3056493,0.8113526,0.475305
0.302908,0.8086056,0.4775383
0.3029362,0.8081771,0.4749436
0.3024666,0.8081246,0.4736245
0.3039342,0.808507,0.4735033
0.3046402,0.8085878,0.4736215
0.3037638,0.8094945,0.4734628
0.3042796,0.8129554,0.472692
0.302427,0.815203,0.4721486
0.2988705,0.8166492,0.4736938
0.2964284,0.8177992,0.4777031
0.2976028,0.8149589,0.480228
0.3003885,0.8109296,0.4788239
0.3015643,0.812096,0.4757084
0.3068424,0.8134935,0.4736011
0.3104005,0.8108165,0.4731445
0.3075819,0.810837,0.4744824
0.3078529,0.8122999,0.4773958
0.3080943,0.8141919,0.4799391
0.3058047,0.8175502,0.4797689
0.3052405,0.8138334,0.47875
0.3039105,0.8079442,0.4811393
0.3036407,0.8088647,0.482723
0.3040314,0.813287,0.480479
0.3003857,0.8184524,0.4793673
0.2980672,0.8186198,0.4789981
0.3020788,0.8144245,0.4795457
0.3060173,0.8131601,0.4821761
0.3044309,0.812958,0.4838683
0.3013601,0.8123814,0.483935
0.2997118,0.8124346,0.4836978
0.299985,0.8121339,0.4843682
0.3044816,0.8108289,0.4816159
0.3085725,0.809418,0.4773626
0.3079859,0.8116691,0.4791757
0.3045463,0.8153464,0.4800293
0.3005826,0.8153202,0.4781922
0.3004696,0.8133343,0.4785938
0.3004287,0.8119347,0.4778037
0.2981142,0.8123133,0.4782359
0.3014595,0.8124187,0.4799547
0.3060826,0.809179,0.4790128
0.3063861,0.8055311,0.4789114
0.3080136,0.8040201,0.4794971
0.3103888,0.804586,0.479326
0.3086744,0.8071753,0.4809696
0.3047173,0.8099257,0.4825967
0.302991,0.8103644,0.482022
0.3015656,0.8095982,0.481798
0.2992836,0.8115086,0.4830268
0.2998537,0.8135642,0.4836409
0.3019505,0.813223,0.4831053
0.3041252,0.8139454,0.4823706
0.3063691,0.8142544,0.4817356
0.3062549,0.8129945,0.4814594
0.3066721,0.8113512,0.4803599
0.3085043,0.809681,0.4785283
0.305107,0.812818,0.4789088
0.300702,0.8171339,0.4795194
0.3021881,0.814796,0.4777861
0.3022747,0.8116308,0.4767503
0.2998391,0.8111092,0.4773374
0.3002148,0.8105841,0.4787767
0.301431,0.811774,0.4797878
0.3019435,0.8132761,0.4793108
0.3011436,0.8148248,0.4807761
0.3010937,0.8158511,0.4828164
0.3021116,0.8125088,0.4815489
0.302243,0.8090769,0.4798124
0.3048677,0.8082221,0.4787484
0.3063315,0.8096683,0.4784885
0.3042327,0.8119827,0.4800116
0.3035661,0.8092355,0.4804128
0.3024104,0.8071467,0.4801912
0.3005248,0.8092181,0.48285
0.2994412,0.8102829,0.4842949
0.298673,0.8123573,0.480803
0.3001728,0.8132008,0.4787431
0.3021508,0.8116649,0.4794502
0.3012581,0.8108248,0.4789074
0.2990321,0.8093007,0.4792438
0.299102,0.8093231,0.4793432
0.3022542,0.810274,0.478829
0.3061869,0.8092857,0.4785952
0.3062567,0.8087368,0.4745473
0.3034953,0.8083289,0.4715052
0.3035306,0.8083459,0.4756703
0.3029102,0.8105934,0.4805263
0.3001252,0.813051,0.4792002
0.2974164,0.8154755,0.4763898
0.2961202,0.8168952,0.4768952
0.2988611,0.8141395,0.4778987
0.2993171,0.8112491,0.479686
0.2989076,0.8127782,0.4797802
0.3018321,0.8149477,0.4782274
0.3018238,0.8153366,0.4797104
0.3032928,0.8146314,0.4792578
0.3068524,0.8106992,0.4786182
0.3071256,0.8071654,0.4801696
0.3056316,0.8102289,0.4808839
0.3022714,0.8142865,0.4843361
0.3006386,0.8139489,0.4857474
0.3014089,0.8127755,0.4824916
0.3015563,0.8123473,0.4768514
0.3014155,0.8123513,0.4702184
0.3011656,0.8125159,0.4733925
0.301614,0.8117297,0.4802906
0.3015148,0.8114598,0.4789443
0.302121,0.8119196,0.4779025
0.3031586,0.8110557,0.4781016
0.301725,0.8112275,0.4781789
0.301035,0.8141459,0.4839849
0.3014385,0.8155017,0.4891591
0.3014455,0.812386,0.4878986
0.3015862,0.8081155,0.4846993
0.3026945,0.8076291,0.4835761
0.3058792,0.808873,0.4823023
0.3067199,0.8081951,0.4807942
0.3016604,0.8083545,0.4831284
0.296943,0.809488,0.4823014
0.2999392,0.809607,0.4783236
0.3033171,0.8090171,0.4778153
0.3007014,0.8078993,0.4759823
0.3009434,0.808383,0.4778145
0.3028022,0.8103243,0.4817575
0.3032006,0.81326,0.4801067
0.3056941,0.8165549,0.4801626
0.3042658,0.8152699,0.4791425
0.302089,0.8128942,0.477593
0.3034455,0.814031,0.4826917
0.3024682,0.8141381,0.4873047
0.3020365,0.8136246,0.4874194
0.3006273,0.8136813,0.4848552
0.2976297,0.8122307,0.4798804
0.3008702,0.8107467,0.4749388
0.3056677,0.8093579,0.4776311
0.307763,0.8083169,0.4842463
0.3090165,0.811069,0.4828916
0.3078722,0.8156252,0.4800077
0.3062695,0.8159183,0.4772935
0.3053344,0.8146957,0.4725132
0.3051662,0.8151886,0.4731019
0.3056126,0.8135035,0.4757562
0.3036741,0.8117769,0.4783727
0.3018455,0.8125121,0.4799422
0.3019805,0.8127335,0.4797954
0.3013187,0.8123817,0.4811057
0.3012823,0.8122595,0.4803969
0.3025407,0.8117377,0.4803861
0.3026274,0.8113034,0.4804196
0.3010096,0.8136383,0.4772144
0.3000893,0.8160789,0.4752444
0.3037391,0.8135695,0.4756835
0.3088919,0.8113649,0.4800849
0.3086835,0.8127292,0.4831554
0.3055236,0.8128409,0.4815696
0.3029224,0.8122845,0.4799665
0.2994656,0.8139114,0.4785417
0.2984393,0.8160397,0.479543
0.3022971,0.8167501,0.4809198
0.3058677,0.8148878,0.4801241
0.3063512,0.8120782,0.4775508
0.3075783,0.8121899,0.4734888
0.3089648,0.8129171,0.4730708
0.3063066,0.8124151,0.4746396
0.3045693,0.8130932,0.4776104
0.3059811,0.8126516,0.4824899
0.3050309,0.8112241,0.4819427
0.3021341,0.8117816,0.4788589
0.2981339,0.812816,0.4802576
0.2960634,0.8151473,0.4816617
0.2988889,0.8184852,0.4797183
0.3011525,0.8173739,0.4794864
0.302606,0.8136937,0.4804861
0.3043047,0.8126975,0.4828383
0.3043177,0.8123359,0.4863671
0.3054533,0.812141,0.4783405
0.3076634,0.8119584,0.467782
0.3088394,0.8105718,0.4704877
0.3081543,0.8110438,0.4729913
0.3059425,0.8116722,0.4733547
0.3043716,0.81163,0.4777177
0.3037285,0.812962,0.4773271
0.3044019,0.8126286,0.4761599
0.3053374,0.8121294,0.4796424
0.30549,0.812804,0.4793423
0.3058382,0.8123873,0.4766305
0.305581,0.8124449,0.4765505
0.3065133,0.8129913,0.4769356
0.3083974,0.814159,0.4784225
0.3080828,0.8158942,0.4789749
0.3065619,0.8145948,0.4787764
0.3049814,0.8103525,0.4803345
0.3052777,0.807056,0.4815152
0.3057684,0.8069371,0.4839894
0.3034006,0.807507,0.4837961
0.30206,0.8072413,0.4802147
0.3015712,0.8104342,0.4797271
0.2994232,0.8140197,0.4788268
0.2983311,0.8125076,0.4788422
0.3002638,0.8116434,0.4798613
0.3023731,0.8121719,0.4785657
0.301869,0.8108494,0.4791981
0.3035889,0.8117483,0.4784858
0.3068708,0.813238,0.4770434
0.3051129,0.8123102,0.478849
0.3021798,0.8121343,0.4812884
0.3011272,0.8118765,0.4843216
0.3011036,0.8104983,0.4844796
0.3027247,0.8099386,0.4849746
0.3033822,0.8088637,0.4885486
0.3043506,0.8077297,0.4859192
0.3062791,0.8090052,0.4823739
0.3056589,0.8114086,0.4843677
0.3051412,0.8139114,0.4837205
0.3058653,0.8146702,0.4801336
0.3056586,0.8131795,0.4781895
0.3065311,0.8129779,0.4780803
0.3082574,0.8126129,0.4780686
0.3082508,0.8116084,0.4771593
0.3064753,0.8111506,0.4770115
0.3049363,0.8091142,0.4763624
0.3054277,0.8092347,0.4758817
0.3059467,0.8105347,0.47689
0.305135,0.8093984,0.4764211
0.3049983,0.8106106,0.4772312
0.3055101,0.8117521,0.479532
0.3055793,0.8107632,0.4799112
0.3048542,0.8110328,0.4801467
0.3044078,0.8106183,0.4793584
0.3060805,0.8111184,0.4775395
0.3091992,0.8130849,0.4752998
0.3108805,0.8126093,0.4739388
0.3054908,0.8111738,0.4766312
0.2982331,0.8109864,0.4807386
0.3002539,0.8113291,0.4850552
0.3016436,0.8119731,0.4846265
0.2993382,0.8128088,0.4779041
0.3022617,0.8126032,0.4761487
0.3021013,0.8124194,0.4780435
0.3013138,0.8134047,0.4804776
0.3048885,0.8132312,0.4846232
0.3043994,0.8117118,0.4852244
0.3046785,0.8096407,0.4856061
0.306327,0.8077133,0.4838437
0.304685,0.8079999,0.4785253
0.3027378,0.809533,0.4786634
0.2997807,0.8117542,0.4804499
0.2997735,0.8146144,0.4825559
0.3033877,0.813717,0.4868729
0.3045356,0.8112171,0.4867747
0.3034777,0.8127783,0.4853435
0.3021688,0.8128722,0.486403
0.3034305,0.8104723,0.4862666
0.3068156,0.8097287,0.4854377
0.3087978,0.8085526,0.4845411
0.3076889,0.8096274,0.4827791
0.3041706,0.8106398,0.4829628
0.3038164,0.8087077,0.482704
0.3055033,0.8090867,0.4767389
0.3049858,0.8085548,0.4716322
0.3031324,0.8085285,0.4742616
0.3004006,0.8107277,0.4800803
0.3009652,0.8094885,0.48323
0.2443113,0.9307894,-0.2226887
0.2429163,0.9532686,-0.3005589
0.2880084,1.017312,-0.3965037
0.2849522,0.9985931,-0.5646602
0.200281,0.9414569,-0.5447428
0.1987507,0.9713871,-0.4081718
0.2431606,1.03335,-0.3893113
0.139542,0.9649871,-0.3370572
0.04438242,0.9260549,-0.2842903
0.07829202,0.935637,-0.3413566
0.08962527,0.8589536,-0.3402725
0.1103554,0.8900274,-0.3231173
0.1412949,0.9223342,-0.3654021
0.1309629,0.9017436,-0.360056
0.1450633,0.9693862,-0.361993
0.1439283,0.9489718,-0.3740187
0.1512042,0.9397988,-0.3525137
0.171993,0.9654164,-0.3602055
0.162806,0.9189345,-0.3474894
0.1719221,0.9267209,-0.3281547
0.1521257,0.9101943,-0.3385012
0.1211879,0.9023364,-0.33003
0.1242721,0.9241029,-0.3336386
0.127094,0.9023281,-0.3380422
0.1374177,0.9236208,-0.3396788
0.13168,0.9308862,-0.359599
0.1228118,0.9412125,-0.3692455
0.1163098,0.9651022,-0.3713511
0.1008044,0.9432959,-0.3556522
0.1032325,0.9455065,-0.3423969
0.09222225,0.94082,-0.3464178
0.07680665,0.936919,-0.3314552
0.07747846,0.9477114,-0.3200075
0.08469575,0.9280467,-0.344536
0.1044652,0.9230322,-0.3733017
0.1042778,0.9260274,-0.3625494
0.09612023,0.9311124,-0.353294
0.09785563,0.9458386,-0.3675327
0.09006003,0.9499163,-0.3595187
0.09568822,0.9513444,-0.3579106
0.1054493,0.9487966,-0.362827
0.1007599,0.9539849,-0.3493268
0.1035864,0.9546617,-0.3360164
0.1084273,0.9474385,-0.2991116
0.1066997,0.9490672,-0.2729209
0.1108013,0.9339761,-0.2934671
0.1279359,0.9219649,-0.3087924
0.1459393,0.932505,-0.3151135
0.1392532,0.9418267,-0.3198816
0.1168836,0.9483693,-0.3144154
0.1087717,0.9566869,-0.3146595
0.1204056,0.9638348,-0.3006606
0.1460037,0.9600275,-0.2572435
0.1618177,0.9562245,-0.2271229
0.155552,0.9552934,-0.2336638
0.156561,0.9488131,-0.2366635
0.1683519,0.9504078,-0.2169335
0.172008,0.9472939,-0.2082688
0.1672078,0.9447435,-0.2042892
0.1567201,0.9520606,-0.188303
0.1519811,0.9490821,-0.1852373
0.1593074,0.9500625,-0.1922697
0.1734826,0.9538789,-0.2005205
0.1858611,0.9550999,-0.209013
0.1814413,0.9606801,-0.2098507
0.1682621,0.9560904,-0.2261407
0.1634596,0.9538676,-0.2529831
0.163406,0.956969,-0.2565455
0.1609654,0.9552342,-0.2565459
0.1553314,0.9585664,-0.2725546
0.1557597,0.9606461,-0.2765308
0.1609296,0.9596227,-0.2746258
0.1580479,0.9596675,-0.2872627
0.15218,0.9580734,-0.2844888
0.1446797,0.9524917,-0.2778211
0.1407022,0.9424643,-0.28779
0.1499553,0.9383918,-0.2863887
0.1566593,0.9381075,-0.2851023
0.1590718,0.9389585,-0.2890118
0.1611332,0.9463516,-0.288727
0.1550167,0.9506062,-0.2954
0.1445092,0.9529529,-0.2960463
0.1321213,0.9579002,-0.2905224
0.1330394,0.9572927,-0.2873577
0.1455693,0.9532372,-0.2869644
0.1491931,0.9485898,-0.2906352
0.1525433,0.9443189,-0.2886726
0.150017,0.9465317,-0.2890016
0.1390861,0.9505437,-0.2916282
0.1348549,0.9499492,-0.2880881
0.1338061,0.9498359,-0.2867066
0.1394688,0.9500133,-0.2825553
0.1453265,0.9477998,-0.275038
0.1466677,0.9467386,-0.2716525
0.1531033,0.9459811,-0.2761022
0.1546241,0.9448032,-0.2850276
0.1498006,0.9445733,-0.2851269
0.1412063,0.9459891,-0.2845711
0.1350998,0.9476319,-0.2875841
0.142383,0.9445469,-0.2854922
0.1468608,0.9422448,-0.2871716
0.1433517,0.9459598,-0.2929988
0.1411034,0.9483793,-0.2961631
0.1390022,0.9484674,-0.2923982
0.1385358,0.952948,-0.2850536
0.1398822,0.9585156,-0.2870504
0.1397771,0.9536236,-0.2881789
0.1347103,0.9458164,-0.2843652
0.1306698,0.9465465,-0.2866402
0.1345505,0.9451316,-0.2865725
0.1386752,0.9423066,-0.2852378
0.1377124,0.9469691,-0.2870554
0.1365627,0.9512002,-0.2866339
0.1371845,0.9511906,-0.2877089
0.1357778,0.9507476,-0.2881452
0.1357828,0.9499231,-0.2873845
0.1385001,0.947526,-0.2878165
0.140807,0.9457829,-0.2850503
0.1441464,0.9461805,-0.2833404
0.1427171,0.9470559,-0.2850134
0.1405048,0.9479119,-0.2879362
0.1449579,0.9464511,-0.2905146
0.1486115,0.9441196,-0.2892294
0.1500568,0.9431186,-0.2870923
0.1457947,0.9434878,-0.2788917
0.1348275,0.9471566,-0.2650786
0.1240432,0.9484982,-0.263569
0.1098578,0.9492154,-0.2671066
0.1051976,0.9526945,-0.2665163
0.1305304,0.9506086,-0.2767607
0.1551609,0.94619,-0.2900428
0.1419377,0.9441096,-0.288996
0.1276741,0.9453569,-0.2840266
0.138952,0.9486546,-0.28698
0.142184,0.9460123,-0.2916954
0.1421803,0.9438267,-0.2916407
0.1436792,0.9450429,-0.2849173
0.1334975,0.9439915,-0.2779724
0.136221,0.9443617,-0.2886063
0.1371547,0.9438114,-0.3019719
0.1293623,0.9423488,-0.2953335
0.1422715,0.9433301,-0.2935541
0.150636,0.9430883,-0.3003152
0.1448439,0.9427123,-0.2999396
0.1383446,0.9423472,-0.3087835
0.1280254,0.9410656,-0.320037
0.1234756,0.9409348,-0.3172505
0.1179445,0.9412629,-0.3134895
0.1102734,0.9425837,-0.3159234
0.1122064,0.9435044,-0.320583
0.116643,0.9418047,-0.3284457
0.1211892,0.9403234,-0.337029
0.1277617,0.9399837,-0.3365867
0.1295597,0.9391513,-0.3340549
0.1262154,0.9378239,-0.3352678
0.1259951,0.9365538,-0.3293834
0.1254888,0.9348663,-0.327941
0.1246374,0.9327115,-0.3385967
0.1275627,0.9328029,-0.3468103
0.1248218,0.9340415,-0.3472752
0.1212623,0.9330835,-0.3466698
0.1209742,0.9330757,-0.3536062
0.1197494,0.9338073,-0.3554998
0.1199952,0.9326128,-0.3525636
0.1155269,0.9316253,-0.3593222
0.1126377,0.9302017,-0.359123
0.1171953,0.9302001,-0.3554045
0.1189435,0.9323225,-0.358666
0.1176039,0.9327841,-0.356038
0.1154787,0.9337472,-0.3556387
0.1160866,0.9349043,-0.3598982
0.1197245,0.9364303,-0.3600202
0.1201549,0.9394167,-0.3575426
0.1188625,0.938408,-0.3483594
0.1185827,0.9348745,-0.3368008
0.118514,0.9326303,-0.3354267
0.1165327,0.9333979,-0.3390213
0.1136048,0.9379502,-0.3366218
0.1124256,0.941471,-0.3326282
0.1120879,0.9450921,-0.3278655
0.1108598,0.9485027,-0.318291
0.110241,0.947445,-0.309503
0.1158514,0.9465956,-0.3036033
0.1220394,0.9475309,-0.3011216
0.1209985,0.9474845,-0.2996099
0.1225106,0.9478885,-0.3011119
0.1297007,0.9490108,-0.3069049
0.1335961,0.9491317,-0.2977091
0.1354482,0.950194,-0.281265
0.1384356,0.9534502,-0.2730563
0.1376725,0.955218,-0.257903
0.1348394,0.9566662,-0.2416951
0.1337419,0.9589459,-0.2323219
0.1301307,0.9606031,-0.2262951
0.1267947,0.9653755,-0.2275181
0.129747,0.9718243,-0.224106
0.1352627,0.9747429,-0.2137728
0.1395447,0.9727844,-0.2069441
0.1437258,0.96922,-0.1989617
0.1457142,0.9692445,-0.185119
0.1440212,0.9695119,-0.1701977
0.1439386,0.9680602,-0.1597745
0.1441371,0.9671933,-0.1510671
0.1423442,0.9661296,-0.1470119
0.143065,0.9667039,-0.1517292
0.1436156,0.9675513,-0.1534925
0.1438874,0.969084,-0.1539316
0.1472901,0.9730121,-0.1583184
0.1499815,0.9734977,-0.1588931
0.1494133,0.9715727,-0.1609751
0.1465951,0.9688686,-0.1636165
0.1463588,0.965237,-0.1611379
0.1482141,0.9663621,-0.16175
0.1468987,0.9681983,-0.1658245
0.1465053,0.9686281,-0.1737856
0.1455396,0.9721052,-0.1884071
0.1407268,0.9733105,-0.2004296
0.1393704,0.9723293,-0.1955549
0.141663,0.970702,-0.1854841
0.1456738,0.965206,-0.1946391
0.1501939,0.9629472,-0.2029191
0.1492134,0.9629039,-0.2036692
0.1474368,0.9605178,-0.2153306
0.1492083,0.9615543,-0.2214316
0.1487828,0.9622366,-0.2226365
0.1482292,0.962116,-0.2235627
0.1499885,0.963321,-0.2202883
0.150125,0.9618952,-0.2233941
0.1499214,0.9625226,-0.2236395
0.1503148,0.9622861,-0.227415
0.1507002,0.9582308,-0.2363148
0.1514585,0.9563886,-0.2332061
0.1491488,0.9563555,-0.2330025
0.1448816,0.9575557,-0.2381241
0.1428188,0.9569843,-0.2414939
0.1427388,0.9564979,-0.247492
0.1433376,0.9591243,-0.2511333
0.1433682,0.9608486,-0.2503605
0.1448636,0.9633639,-0.2462587
0.1473193,0.9627189,-0.2451139
0.1466467,0.9590577,-0.2463298
0.1451203,0.957301,-0.2453889
0.1443647,0.955279,-0.2458385
0.141749,0.9596931,-0.2439382
0.1397295,0.9649343,-0.2422766
0.142809,0.9621044,-0.2424343
0.1462993,0.9614401,-0.2384871
0.14605,0.9614769,-0.2354073
0.1468363,0.9589964,-0.2381514
0.1462606,0.9603725,-0.2415732
0.143385,0.9619999,-0.2376095
0.1456058,0.9610203,-0.2339743
0.1486612,0.9617688,-0.2362453
0.1485592,0.9626169,-0.2352707
0.1487021,0.9596879,-0.2332277
0.1475771,0.9583747,-0.2269552
0.1480523,0.9636638,-0.2171586
0.1536985,0.9687254,-0.2181788
0.1587548,0.9670589,-0.219628
0.1570061,0.9653555,-0.2125073
0.1519546,0.967509,-0.2074934
0.1512701,0.9667297,-0.2050295
0.153169,0.9659924,-0.2031437
0.154619,0.9674106,-0.2028098
0.1541988,0.9662666,-0.2027735
0.1506936,0.9671306,-0.2047287
0.1495074,0.9697611,-0.2063038
0.1505198,0.9706128,-0.2053761
0.1526354,0.9688305,-0.2047349
0.1552976,0.9651394,-0.2021326
0.1540964,0.9664787,-0.1996861
0.1530157,0.9672003,-0.2041244
0.1510507,0.9630138,-0.2090731
0.1470583,0.9622339,-0.2083583
0.1473935,0.9633043,-0.2123542
0.1478045,0.9642304,-0.2212823
0.1467851,0.9644107,-0.2206316
0.1484753,0.9641486,-0.2176587
0.1499939,0.9661728,-0.2202902
0.1500494,0.9658988,-0.2178514
0.1502679,0.9646011,-0.2128135
0.1510021,0.9635022,-0.208889
0.1526841,0.960445,-0.2069069
0.1543642,0.9592625,-0.2109985
0.1551093,0.958752,-0.2123938
0.1553247,0.9590538,-0.2117261
0.1529949,0.9603681,-0.213499
0.1502518,0.9606159,-0.2120762
0.1509689,0.9623154,-0.2121888
0.1499819,0.9629335,-0.2132101
0.1467496,0.9620694,-0.2118508
0.1475286,0.9617231,-0.2133182
0.1518056,0.9605867,-0.2153161
0.1563356,0.9601605,-0.2170792
0.1577733,0.9600179,-0.2174315
0.1539519,0.9617553,-0.2139717
0.1487562,0.9660316,-0.2098632
0.1474434,0.9670295,-0.2092914
0.1530599,0.963489,-0.2182117
0.159272,0.9596148,-0.2230885
0.1543609,0.9591066,-0.2182739
0.1456034,0.9601081,-0.2223786
0.1437978,0.9605611,-0.225891
0.1457373,0.9638888,-0.2260858
0.1511025,0.9672753,-0.2300793
0.1537017,0.9654651,-0.2255769
0.1488175,0.9639553,-0.2244868
0.1459075,0.9646073,-0.2263094
0.1470724,0.9609986,-0.2221906
0.1478811,0.9581969,-0.2234774
0.1463982,0.9607721,-0.2223103
0.1442481,0.962458,-0.2230598
0.1437206,0.9635076,-0.2266815
0.1470842,0.9636648,-0.2222024
0.1535132,0.9623461,-0.2218886
0.1520575,0.9628393,-0.2238503
0.1480074,0.9623451,-0.2250678
0.150679,0.9622395,-0.2267122
0.1499559,0.9630145,-0.2241774
0.1466332,0.9620541,-0.2250692
0.1428233,0.9624672,-0.2264205
0.1389004,0.9617937,-0.2257514
0.1435934,0.9606344,-0.2251105
0.1498402,0.9624513,-0.2226524
0.1505581,0.9636682,-0.2244138
0.1497144,0.9641427,-0.2286598
0.1479108,0.9639533,-0.2313806
0.1464538,0.9636214,-0.229926
0.1453403,0.9641594,-0.2221874
0.1440741,0.9639278,-0.2167457
0.1442213,0.9647569,-0.2172884
0.1447222,0.9658747,-0.2189266
0.1443925,0.9660937,-0.2185325
0.1450162,0.9663415,-0.2190623
0.1487268,0.9637796,-0.2181857
0.1536953,0.9596967,-0.2113798
0.1550017,0.9596499,-0.2107586
0.151109,0.9639172,-0.2144713
0.1458547,0.9676611,-0.2115063
0.1425087,0.9688591,-0.2111961
0.1428815,0.968834,-0.2118508
0.1464392,0.9661667,-0.2111587
0.1479218,0.9625888,-0.217084
0.1471474,0.9630545,-0.2211344
0.1480302,0.9625981,-0.2200762
0.1516539,0.957313,-0.2215407
0.1556528,0.9561224,-0.2245906
0.1546374,0.9597652,-0.224268
0.1526891,0.9618998,-0.2230621
0.1530871,0.9638376,-0.2269917
0.1517375,0.966113,-0.2297715
0.1560612,0.9679798,-0.2288215
0.1651255,0.9646647,-0.2281312
0.1664674,0.9567692,-0.2251269
0.1625605,0.9554284,-0.2222723
0.1572867,0.9563283,-0.2200747
0.1532634,0.9550753,-0.2186238
0.1580089,0.9576742,-0.2197825
0.1628671,0.9594636,-0.2194726
0.1565356,0.9600089,-0.2192575
0.151711,0.9629359,-0.2200224
0.1567813,0.9644321,-0.2210325
0.161861,0.9633689,-0.2229121
0.1639899,0.9598593,-0.2220141
0.1609418,0.956349,-0.2191018
0.1542719,0.9570142,-0.2147408
0.1551141,0.9604521,-0.2108615
0.157586,0.9636172,-0.2122815
0.1563543,0.9642173,-0.2148893
0.1573379,0.9619151,-0.2189859
0.1575045,0.9600038,-0.225808
0.1586904,0.9597319,-0.2248989
0.1599549,0.9598806,-0.2216299
0.1569532,0.9611649,-0.2257662
0.1582902,0.961824,-0.2263744
0.1622445,0.9604014,-0.2248406
0.1620415,0.9601832,-0.2261323
0.1593939,0.9598889,-0.2230966
0.1538232,0.9593153,-0.2207059
0.1525679,0.961059,-0.2207734
0.1605105,0.9608314,-0.2220381
0.1655919,0.9581938,-0.2257827
0.1606819,0.9567287,-0.2276631
0.1559405,0.958198,-0.2310936
0.1586108,0.9606275,-0.2332728
0.159412,0.9579159,-0.227354
0.1569845,0.9558318,-0.2219448
0.1579382,0.9584188,-0.2273214
0.1572995,0.9586267,-0.2365636
0.157923,0.9579661,-0.235592
0.1611558,0.9575586,-0.2292766
0.1594948,0.957073,-0.225727
0.159176,0.9596699,-0.2288548
0.1604393,0.9614894,-0.2357506
0.1590461,0.9586669,-0.233312
0.1589786,0.9557283,-0.2319423
0.1582022,0.9579619,-0.2349353
0.157936,0.9603046,-0.2318177
0.1591899,0.9593808,-0.2305536
0.1598281,0.9600262,-0.2282726
0.1614837,0.9609354,-0.2271483
0.1604479,0.9619538,-0.2307396
0.1577106,0.9632141,-0.2288164
0.1572744,0.9620263,-0.2295017
0.1558948,0.9614931,-0.2345089
0.1550032,0.9606207,-0.2363983
0.1560066,0.9580082,-0.234655
0.156622,0.9565214,-0.2291326
0.1579852,0.9566771,-0.2288562
0.1588517,0.958314,-0.2325492
0.1579647,0.9585796,-0.2336747
0.1571801,0.9577084,-0.2340928
0.155949,0.9568046,-0.2335827
0.1550494,0.9544859,-0.2349143
0.1556928,0.9535575,-0.2344098
0.1556978,0.9528111,-0.2321558
0.1555247,0.9522894,-0.2338483
0.1571135,0.9544026,-0.2338249
0.1598891,0.9556162,-0.2349785
0.1612449,0.9573892,-0.2389917
0.157572,0.9592351,-0.2392753
0.1531589,0.9581209,-0.2389659
0.1549005,0.9574107,-0.2398956
0.1580249,0.9550536,-0.241622
0.158963,0.9518441,-0.2432656
0.1584887,0.9542069,-0.2438933
0.1528518,0.9569561,-0.2457932
0.1482651,0.9554741,-0.2489067
0.1503801,0.955934,-0.2517557
0.1506719,0.9569462,-0.248676
0.1503422,0.9522848,-0.2431388
0.1532375,0.9490418,-0.2443457
0.1539469,0.9540159,-0.2443661
0.1539311,0.9600614,-0.2417383
0.1536432,0.9601663,-0.240233
0.152308,0.9568168,-0.235914
0.1540816,0.9536799,-0.2358212
0.1565239,0.9510198,-0.2375968
0.157253,0.9509356,-0.2358229
0.1566256,0.9524669,-0.2380654
0.1539136,0.9539621,-0.2387226
0.1521171,0.957238,-0.2390187
0.1530945,0.9579526,-0.2429973
0.1558363,0.9570358,-0.2399904
0.1573262,0.9589076,-0.2376826
0.1552533,0.9584317,-0.2416323
0.1533002,0.9568437,-0.2430287
0.1549867,0.9571239,-0.2432923
0.1591219,0.9567146,-0.2432198
0.161239,0.9569976,-0.2437289
0.1571634,0.9571127,-0.2453788
0.1520426,0.9566748,-0.2462814
0.1534661,0.9573363,-0.2487105
0.1538038,0.9579548,-0.2501727
0.1501417,0.9594074,-0.2489356
0.1536037,0.9602777,-0.2455324
0.1584624,0.9592755,-0.2407479
0.1581107,0.9589901,-0.2407684
0.1578542,0.9589334,-0.2429313
0.1560453,0.9586475,-0.2421337
0.1548705,0.9575915,-0.2419904
0.1541809,0.9565786,-0.2383775
0.1523917,0.9588649,-0.2324109
0.1537293,0.9605913,-0.2344955
0.1553137,0.9595113,-0.2372753
0.1572644,0.9602745,-0.2361914
0.1569826,0.963503,-0.238053
0.1542779,0.9655448,-0.2379165
0.1568877,0.9612555,-0.2370406
0.1577006,0.9533568,-0.2399189
0.1567164,0.952624,-0.2410109
0.1601495,0.9596775,-0.2422034
0.1617285,0.9654702,-0.2445279
0.160075,0.9644678,-0.2427793
0.1545502,0.9615693,-0.2345675
0.1494121,0.9618971,-0.2260033
0.1512299,0.9608487,-0.2284926
0.1532822,0.9595899,-0.2329122
0.152557,0.9598319,-0.2297379
0.1528831,0.9574652,-0.2305949
0.1539234,0.9568215,-0.2338608
0.1542335,0.9588914,-0.2326224
0.1541024,0.9601263,-0.2292993
0.1532509,0.9601577,-0.2244238
0.1525327,0.9591177,-0.2252048
0.1539565,0.9599429,-0.2302175
0.1555976,0.9594609,-0.2292998
0.1566744,0.9563212,-0.2266459
0.1572703,0.9545084,-0.2269252
0.1562919,0.9546234,-0.2297839
0.154437,0.9583535,-0.232877
0.152717,0.9612128,-0.2303797
0.1533486,0.9619292,-0.2266003
0.154202,0.9632497,-0.2269508
0.1537309,0.9620175,-0.226158
0.1545374,0.9615955,-0.2240188
0.1542071,0.9621992,-0.2230332
0.1539671,0.9621916,-0.2205941
0.1558462,0.9630969,-0.2195175
0.157382,0.9619953,-0.2228862
0.1587607,0.9616415,-0.2252418
0.1571608,0.9621956,-0.2201016
0.1532007,0.9621725,-0.2148745
0.1510532,0.963456,-0.2217862
0.1491441,0.96399,-0.229984
0.1485942,0.96492,-0.2291505
0.1505821,0.9624163,-0.2270141
0.1528509,0.9577209,-0.2248302
0.1526495,0.9601054,-0.2234926
0.148744,0.9624932,-0.2242388
0.1462016,0.9619224,-0.2250524
0.1477614,0.9616914,-0.2270848
0.1517963,0.9584036,-0.2267346
0.156416,0.95797,-0.2256613
0.157948,0.9601447,-0.2269071
0.1558867,0.9586737,-0.2270113
0.152084,0.9581482,-0.230072
0.1492002,0.957466,-0.2353655
0.150294,0.9561389,-0.2363068
0.1522842,0.959402,-0.2358624
0.150431,0.9615776,-0.2362931
0.1499744,0.9602402,-0.2360917
0.1550554,0.9587376,-0.2360149
0.1578741,0.9558556,-0.2369297
0.1553776,0.955529,-0.2398263
0.153046,0.9562931,-0.2436071
0.1540855,0.9547768,-0.2449115
0.1554728,0.9558093,-0.2481537
0.1561665,0.9558849,-0.2559271
0.1593013,0.9551165,-0.2560732
0.1584954,0.9569868,-0.2478744
0.154236,0.9569967,-0.2442844
0.1532725,0.9569182,-0.2468058
0.1521245,0.9570975,-0.2522586
0.1529505,0.9562952,-0.2549826
0.1542816,0.9552824,-0.2523065
0.1536782,0.9525632,-0.2521022
0.1551102,0.9522472,-0.2545857
0.1557357,0.953125,-0.2576836
0.1572075,0.9510737,-0.2622335
0.1577425,0.9482915,-0.262909
0.1568586,0.9451593,-0.2632971
0.1619017,0.9431433,-0.2689555
0.1654061,0.9411024,-0.2737722
0.1629609,0.9385735,-0.2786582
0.1590066,0.9399864,-0.2886335
0.15517,0.9426717,-0.2989517
0.1532571,0.9434149,-0.3031267
0.1487504,0.9430356,-0.3036188
0.142558,0.9420267,-0.3069976
0.1385222,0.9429625,-0.3069341
0.1339441,0.9460087,-0.3015178
0.1326206,0.9472227,-0.2992505
0.1343763,0.9429784,-0.2973275
0.1338935,0.9375598,-0.2983404
0.134658,0.9365622,-0.3041984
0.1354776,0.9350991,-0.3128864
0.1331222,0.935187,-0.3257287
0.1299127,0.9385463,-0.3289621
0.1240755,0.9349882,-0.3300688
0.1218449,0.9319119,-0.3394552
0.1258984,0.9367748,-0.3410311
0.1261025,0.9379732,-0.3445136
0.1259013,0.9345708,-0.3489284
0.126067,0.9322412,-0.344449
0.1222644,0.9319533,-0.3501234
0.1190272,0.9313894,-0.3561045
0.1155993,0.9284092,-0.3536056
0.1154087,0.9268172,-0.355872
0.1162681,0.9245019,-0.362826
0.1131367,0.9223768,-0.3766219
0.1161946,0.9241375,-0.3840008
0.1200044,0.9237565,-0.3791921
0.1165286,0.9229617,-0.3783251
0.1132963,0.9231911,-0.3779639
0.1103177,0.9216649,-0.3771024
0.1097828,0.9221594,-0.3781675
0.1105404,0.9225771,-0.376667
0.1073136,0.9213485,-0.3774785
0.1077702,0.9197209,-0.3839609
0.1094809,0.9172244,-0.3915199
0.107517,0.9183574,-0.3916706
0.1086366,0.9227326,-0.3873121
0.1096604,0.9262581,-0.3836772
0.1097251,0.9280096,-0.3763285
0.1120893,0.9268774,-0.3730354
0.1126975,0.9255304,-0.3754363
0.1122785,0.9247993,-0.3747995
0.1105159,0.9228878,-0.3733179
0.1080261,0.9224184,-0.3694072
0.1082274,0.9226572,-0.3668425
0.1082023,0.9230517,-0.3695623
0.1079778,0.9258734,-0.3690555
0.1094108,0.9267904,-0.3661657
0.1116641,0.9243285,-0.361972
0.1118397,0.9235479,-0.3599074
0.1098834,0.9262091,-0.3640619
0.1092529,0.928925,-0.3662048
0.106353,0.9275676,-0.3669847
0.1045138,0.9252779,-0.3661444
0.1080675,0.9251818,-0.3613344
0.1089191,0.9257614,-0.3580101
0.1082477,0.9277043,-0.3577248
0.1091775,0.928691,-0.3610074
0.1093002,0.9291072,-0.36322
0.1101271,0.9312899,-0.3649193
0.1112512,0.9306588,-0.3676283
0.1106876,0.9290203,-0.3640595
0.10635,0.9293558,-0.3592231
0.1022692,0.9291402,-0.3590733
0.1023119,0.9300845,-0.3650734
0.1014734,0.931008,-0.3714832
0.1007772,0.9307565,-0.3654248
0.1018088,0.9323345,-0.3597051
0.1017308,0.9339271,-0.3650413
0.1033057,0.9333224,-0.3657993
0.1067209,0.9322492,-0.3598768
0.107629,0.9327179,-0.3571624
0.1066695,0.9336304,-0.3577234
0.1068652,0.9332098,-0.357185
0.107138,0.9323281,-0.3551311
0.106799,0.9317018,-0.356861
0.1069928,0.9325804,-0.3599356
0.1066149,0.9357093,-0.3589244
0.1050981,0.9379189,-0.3593139
0.1036784,0.9352782,-0.3596413
0.1039154,0.9317336,-0.3563078
0.104598,0.9331617,-0.3535905
0.103964,0.9333024,-0.3515278
0.1042494,0.9306797,-0.3537477
0.105667,0.931234,-0.3557736
0.1073935,0.9307254,-0.3510538
0.1087109,0.9298557,-0.3518078
0.1066187,0.9318764,-0.3576406
0.1045463,0.9339463,-0.3605496
0.106091,0.9366214,-0.3592181
0.107648,0.9346316,-0.3504536
0.1085296,0.9289105,-0.3449598
0.1087171,0.9292445,-0.3479864
0.1077604,0.9327032,-0.3529216
0.107524,0.936575,-0.3580856
0.1061608,0.9387224,-0.3592493
0.10297,0.935746,-0.3562955
0.1007062,0.9337786,-0.3492217
0.1015468,0.9325361,-0.3418394
0.105633,0.9292781,-0.343518
0.1079174,0.92792,-0.3463973
0.1069673,0.9307389,-0.3447338
0.1068345,0.9347099,-0.3465745
0.1079266,0.9319499,-0.347105
0.1081915,0.9290157,-0.3393097
0.1056211,0.9331721,-0.3345718
0.1035048,0.9341023,-0.3394678
0.1060515,0.9329899,-0.3429756
0.1088566,0.9345253,-0.3381373
0.107993,0.9351744,-0.3345907
0.105318,0.9365073,-0.3402027
0.1035425,0.9370045,-0.343299
0.1040407,0.9359756,-0.3394537
0.1055223,0.9355059,-0.3370129
0.1060676,0.934959,-0.3364788
0.1072088,0.9352833,-0.3365142
0.1090173,0.9360497,-0.3332134
0.1084479,0.9350588,-0.3315979
0.1079127,0.933577,-0.3357672
0.1086578,0.934224,-0.3355841
0.107881,0.9340246,-0.3376044
0.106463,0.9352768,-0.343265
0.1053417,0.9398481,-0.341207
0.1061021,0.9384085,-0.3382908
0.1077034,0.9362486,-0.3369857
0.1068406,0.9382485,-0.3353725
0.1066169,0.9373054,-0.3366765
0.1073319,0.9373175,-0.3376294
0.1067352,0.9375058,-0.3381715
0.1071034,0.9356899,-0.3392064
0.1080059,0.9358894,-0.3410361
0.1085904,0.9362791,-0.3440073
0.1094571,0.9363717,-0.3463222
0.1097716,0.9364831,-0.3484481
0.1096794,0.9363769,-0.3482779
0.1087734,0.9360602,-0.3490215
0.1077746,0.9368016,-0.3506917
0.1075172,0.9382491,-0.3467937
0.1067484,0.9366947,-0.343522
0.106561,0.9346395,-0.3392171
0.1063305,0.9329388,-0.3305774
0.1051365,0.9329348,-0.3302142
0.1048967,0.9360136,-0.3388025
0.1031931,0.9363227,-0.345058
0.1003529,0.9360128,-0.3445192
0.1010924,0.9368778,-0.3431807
0.1021261,0.9384098,-0.3428728
0.1009395,0.9414406,-0.3383324
0.1024214,0.940124,-0.3365941
0.1070977,0.9377019,-0.3408189
0.1109864,0.9376162,-0.3425512
0.1107322,0.9370399,-0.3421719
0.1104821,0.9377954,-0.3440403
0.1171538,0.9375918,-0.346806
0.1197101,0.9371309,-0.3460939
0.1091965,0.9379005,-0.3440615
0.1006586,0.9374478,-0.3448559
0.1044222,0.9383844,-0.3453236
