accx,accy,accz
0.01740504,0.2704215,0.9616627
0.02843098,0.245627,0.9601589
0.01773166,0.234768,0.9550564
0.02029414,0.2263839,0.9558113
0.021472,0.2131804,0.9693456
0.01285015,0.2170814,0.9808959
0.02301381,0.2225906,0.9794397
0.023453,0.2186409,0.9721478
0.0318449,0.2279954,0.9755606
0.04095436,0.231791,0.9719777
0.0313561,0.2349584,0.9638901
0.03221026,0.2454923,0.967045
0.02260514,0.2370503,0.9670634
0.01172206,0.2311475,0.9691364
0.01610643,0.2362578,0.9666269
0.01488228,0.2337107,0.9597174
0.01309975,0.2325574,0.9691842
0.008186494,0.2338626,0.9780059
0.002724195,0.2344033,0.9798562
0.00160023,0.2358293,0.9783977
0.004838267,0.2364267,0.9710851
0.01083517,0.2358499,0.9672428
0.006245369,0.233994,0.9610981
0.004304576,0.2328843,0.9576386
0.009848046,0.2316444,0.9662305
0.01180747,0.229222,0.9747214
0.01338828,0.2267733,0.9740505
0.01230779,0.226415,0.9665649
0.01173686,0.2270056,0.9631236
0.01115919,0.2257666,0.9654625
0.007413929,0.2264881,0.9730007
0.006294862,0.2268244,0.9818887
0.005370473,0.225748,0.9798967
0.005102689,0.2268639,0.9771101
0.006087332,0.2262868,0.978093
0.005299002,0.2261318,0.9739361
0.005502097,0.2270104,0.9718808
0.005595373,0.2270514,0.9712652
0.004447007,0.2291554,0.9668021
0.004006277,0.2299419,0.9670958
0.004064312,0.23062,0.9754329
0.004297365,0.2321525,0.980892
0.004866649,0.2281272,0.9747129
0.007644392,0.220319,0.963967
0.01111129,0.2173193,0.9605547
0.01097807,0.2245253,0.9630015
0.01053385,0.232519,0.9638378
0.01206232,0.230919,0.9639724
0.01294454,0.2282942,0.9649441
0.01502043,0.2287441,0.9654554
0.01585644,0.2273624,0.9654083
0.01234689,0.2272755,0.9652488
0.009292682,0.2280209,0.966632
0.007340947,0.2281932,0.9685936
0.006153519,0.2304261,0.9692351
0.006282773,0.2295035,0.9686684
0.007592146,0.2268874,0.9682908
0.01086898,0.2273742,0.9683702
0.01063904,0.2258804,0.9674812
0.01066304,0.2249903,0.9671983
0.01620298,0.2260577,0.9667254
0.01863966,0.2270261,0.9664786
0.0190003,0.2302583,0.968936
0.0175922,0.2297255,0.969898
0.01359419,0.2281797,0.9693711
0.01454367,0.2308864,0.9700081
0.0126484,0.2306987,0.9721558
0.008401275,0.2302339,0.9755153
0.01367429,0.2313296,0.973183
0.01871992,0.2319607,0.962782
0.01642333,0.2340849,0.9562241
0.01404205,0.2335807,0.9680314
0.01344558,0.2326871,0.982592
0.01274705,0.2338453,0.9747736
0.01429227,0.2333441,0.9657709
0.01893613,0.2346326,0.9679501
0.02065273,0.237941,0.965465
0.02008988,0.2388543,0.9667851
0.02214432,0.2355623,0.9692162
0.02367442,0.2318947,0.9684712
0.02345547,0.2340583,0.9719962
0.02279781,0.2356028,0.9674394
0.02149863,0.2322805,0.9610902
0.02018401,0.2313508,0.9613296
0.0184261,0.2321634,0.9621074
0.0181127,0.2322682,0.9679663
0.01951269,0.233765,0.9708762
0.0195834,0.235204,0.9691059
0.01988126,0.2347971,0.9692861
0.01923721,0.232908,0.9690616
0.01483881,0.2303113,0.9718693
0.01101465,0.2273677,0.975483
0.009423495,0.2261861,0.9764714
0.008617421,0.2265693,0.9755658
0.008525716,0.2252335,0.9753592
0.008922385,0.2246608,0.9772752
0.0102099,0.2252326,0.9769414
0.00990569,0.2248221,0.9764249
0.009563724,0.2252948,0.9739189
0.01194859,0.2258878,0.9706766
0.01290476,0.2263618,0.9720019
0.01219354,0.2258038,0.9699623
0.01009147,0.224682,0.966521
0.006383551,0.2268879,0.967717
0.004780704,0.22877,0.9694167
0.005432231,0.2285426,0.9704779
0.006016266,0.2296082,0.970919
0.005319194,0.2312071,0.972325
0.005403844,0.2315744,0.9746697
0.005937862,0.2285928,0.9747073
0.005560916,0.2249977,0.9738987
0.007832241,0.2260577,0.971985
0.01114488,0.2266089,0.968166
0.01337151,0.2222456,0.9687436
0.01435212,0.2198511,0.9707611
0.01245957,0.2223092,0.9690174
0.01031859,0.2255172,0.9711383
0.008557355,0.2271304,0.9723887
0.005977529,0.2266178,0.965578
0.003491703,0.2269063,0.9587339
0.003446875,0.2281582,0.9578712
0.005032272,0.2265689,0.9649419
0.003926479,0.2240269,0.9723728
0.003763831,0.2235589,0.9730872
0.004993609,0.225329,0.9716754
0.004584737,0.2271708,0.9700981
0.005561374,0.2261166,0.9695797
0.004138376,0.2241448,0.971024
0.001599915,0.2234054,0.9728624
0.003745004,0.2233577,0.972473
0.006651095,0.2238408,0.9707233
0.008309576,0.2232877,0.9719162
0.005450739,0.2215959,0.973018
0.0009495772,0.2201634,0.9747213
0.003613648,0.2187422,0.9774671
0.00552555,0.2185592,0.9746299
0.003313304,0.2213931,0.967004
0.004082253,0.2250349,0.9606757
0.003138991,0.2248737,0.9643169
-0.0006832995,0.2232821,0.9711856
-0.001447033,0.2240479,0.9685926
0.001125671,0.2232883,0.9678461
0.003945048,0.2223776,0.9710222
0.003014285,0.2221902,0.9708295
0.002281394,0.2198497,0.9725955
0.005213988,0.2192177,0.972142
0.005639144,0.2188633,0.9678111
0.003637322,0.2166662,0.9662399
0.002850307,0.2156957,0.9680193
0.005077566,0.2190305,0.9738447
0.008361742,0.2244044,0.9793135
0.006984917,0.2222104,0.9807635
0.005790569,0.2189101,0.9793253
0.005732402,0.220002,0.9731357
0.002417496,0.2177705,0.9677591
0.002153141,0.2170542,0.970626
0.003644201,0.2176015,0.975094
0.003474332,0.2167423,0.9735434
0.005720329,0.216994,0.97155
0.007905835,0.2152006,0.9682968
0.008181817,0.2150826,0.9629123
0.006832712,0.21618,0.9703357
0.005204976,0.2174628,0.9801088
0.008119312,0.220697,0.975596
0.01111432,0.2195907,0.9721177
0.008686729,0.2183084,0.9718949
0.004564392,0.2183573,0.9700044
0.001018729,0.2158069,0.9729695
0.000936208,0.2165786,0.976189
0.004890546,0.2187666,0.9813395
0.006301061,0.220697,0.9895572
0.005916956,0.2239808,0.98437
0.008209089,0.2229023,0.9632368
0.01051567,0.2193327,0.9502315
0.009760503,0.2182049,0.9674185
0.007285429,0.2182063,0.9884379
0.006985326,0.2199585,0.9783775
0.008793617,0.2226668,0.9713345
0.01036664,0.2236018,0.9804429
0.01099798,0.225038,0.9741777
0.01135713,0.2281589,0.9720876
0.01428307,0.2293726,0.9758437
0.01720508,0.2266405,0.9691668
0.01777982,0.2232117,0.9694074
0.01825673,0.2222133,0.9679931
0.01783394,0.2205741,0.9667255
0.01694045,0.2192056,0.9709584
0.01560431,0.2209892,0.9683259
0.01474641,0.2220348,0.9694131
0.01607487,0.2235316,0.9688345
0.01795371,0.2264694,0.9669958
0.02012968,0.2283022,0.9700422
0.01993548,0.229413,0.9656518
0.01867174,0.2263747,0.9647901
0.02038271,0.2227019,0.9674112
0.02221867,0.2236095,0.9666359
0.02404645,0.2238556,0.9707201
0.02396236,0.2234071,0.9733008
0.02099784,0.2240897,0.9722929
0.02110538,0.2253188,0.9711544
0.02360379,0.2269982,0.9686819
0.02566841,0.2267385,0.965195
0.02610994,0.2270445,0.9622342
0.02683053,0.2292017,0.9611042
0.03035008,0.2295369,0.9613912
0.02975391,0.2287529,0.9684567
0.02793132,0.2283037,0.9795404
0.03002922,0.2275952,0.9820542
0.02817154,0.22774,0.9716208
0.02419949,0.2289416,0.9606003
0.02156102,0.2295196,0.9647653
0.02151427,0.230071,0.9674156
0.02521301,0.2308073,0.9590742
0.02504589,0.230431,0.9573436
0.02354436,0.2295459,0.956955
0.02318047,0.2285827,0.9572969
0.02255003,0.2271152,0.9643634
0.02604568,0.2251298,0.9678465
0.02672783,0.2244053,0.9675752
0.02278876,0.2251305,0.9667345
0.01935959,0.2241774,0.9680182
0.01578273,0.2228982,0.9682168
0.0148656,0.2232058,0.9651475
0.01483324,0.2240282,0.9673302
0.01356586,0.2261728,0.9684323
0.01216243,0.2268274,0.969099
0.01189841,0.2236297,0.9724317
0.01322855,0.2203182,0.9705342
0.01259981,0.2187521,0.970965
0.01433626,0.2192149,0.9718359
0.01821547,0.2200033,0.9697278
0.01738006,0.2191203,0.9716784
0.0136171,0.2197231,0.9733385
0.008957539,0.2212109,0.9759489
0.006728911,0.2206333,0.9778942
0.004894924,0.2192876,0.9755097
0.002802621,0.218685,0.9759111
0.005965823,0.2187877,0.9754728
0.007283715,0.2171867,0.9727541
0.007776735,0.2165219,0.9731951
0.01206881,0.2183616,0.9728324
0.01260271,0.2178564,0.9716551
0.0107493,0.2175781,0.9693991
0.009154227,0.2171015,0.965444
0.008886074,0.2154256,0.9673337
0.008433915,0.2162072,0.9719991
0.004068028,0.2143003,0.9767756
0.003370449,0.2131602,0.9811786
0.004858721,0.2165004,0.9767869
0.003760209,0.2169491,0.972871
0.004850968,0.2166475,0.9742352
0.007435842,0.2170948,0.9733959
0.01163495,0.218183,0.9755711
0.01318775,0.2199904,0.9772601
0.008204649,0.2176294,0.9756218
0.004429607,0.2157054,0.9747847
0.003489194,0.2170636,0.9731343
0.002981568,0.2177278,0.9743161
0.004279484,0.2172784,0.9761584
0.006283917,0.2136993,0.9764455
0.006059928,0.2098125,0.978499
0.005578748,0.2116744,0.9786473
0.006921655,0.2150887,0.9774893
0.006350273,0.2155322,0.9776504
0.006491998,0.2161563,0.9773559
0.0076483,0.2138455,0.9755106
0.005504171,0.2095444,0.9742508
0.005222497,0.2127746,0.9761871
0.005943276,0.2155691,0.977182
0.00518785,0.2130712,0.9770181
0.005813944,0.2136905,0.9790992
0.00548819,0.213602,0.9790944
0.005420665,0.2126638,0.9759947
0.005819527,0.2143405,0.9728707
0.00528258,0.2139504,0.9703382
0.005727958,0.2126036,0.9708758
0.005538184,0.2126188,0.9780277
0.005432571,0.213297,0.9851377
0.006108328,0.2133553,0.9782118
0.00715859,0.209532,0.9692677
0.008447671,0.2058455,0.9751333
0.005512862,0.2092509,0.9798198
0.001053524,0.2129959,0.9798925
0.0008614517,0.2107767,0.9819569
0.001761731,0.2104227,0.9782502
0.001330408,0.2121196,0.9759827
0.001446605,0.2115756,0.976205
0.00259771,0.2127006,0.9753246
0.003882804,0.2128117,0.9775987
0.004874852,0.2109783,0.9765936
0.005933025,0.211193,0.9783828
0.007301659,0.2110333,0.9823715
0.007170379,0.2106689,0.9790015
0.00556217,0.2097521,0.9784341
0.005432608,0.2084026,0.9788233
0.00565528,0.2101215,0.9770628
0.005413282,0.2113388,0.9774854
0.005894934,0.212226,0.9754339
0.006530552,0.2158083,0.9741732
0.008443998,0.2174781,0.9747494
0.01080864,0.2166255,0.9721281
0.01227877,0.2164158,0.967656
0.01301027,0.2169774,0.9657646
0.01229805,0.216923,0.9667842
0.01236064,0.2145816,0.9667983
0.01279292,0.2116423,0.9666102
0.01260708,0.2122148,0.9666614
0.01438425,0.2151228,0.9666124
0.01606271,0.21559,0.9675429
0.01622925,0.2156457,0.9702092
0.01668705,0.218132,0.9750635
0.01723164,0.2197196,0.9778906
0.01869978,0.2180697,0.9791946
0.02170782,0.215574,0.9766494
0.02312806,0.2169014,0.9642075
0.02174888,0.2192396,0.9568333
0.02091485,0.2194555,0.9691381
0.02007277,0.2213171,0.9812114
0.01877718,0.2236348,0.9722595
0.01960152,0.2252528,0.9654009
0.0196907,0.2238879,0.9741867
0.02032352,0.2205128,0.9735666
0.02632493,0.2217755,0.9649684
0.03278496,0.221743,0.9622681
0.03332345,0.2200769,0.9656489
0.03177426,0.2214335,0.9723584
0.03320062,0.2215605,0.9693317
0.0311747,0.2231432,0.9652479
0.02651059,0.2258172,0.9661606
0.0276986,0.2268463,0.9613731
0.02840489,0.226767,0.9625542
0.02714254,0.2257001,0.966458
0.02815709,0.2265961,0.9667086
0.02860093,0.2256513,0.9704636
0.03207636,0.2241782,0.9709559
0.03654054,0.2255005,0.9695038
0.03589319,0.2244874,0.9639893
0.0351373,0.2229203,0.957146
0.03492897,0.2210715,0.9614431
0.03268885,0.2203575,0.964324
0.03225797,0.223393,0.9618778
0.03147769,0.2250959,0.9641738
0.02758601,0.2263294,0.9691974
0.02652576,0.2276234,0.9729847
0.02502516,0.2274644,0.9723958
0.02132053,0.2258937,0.969814
0.02351216,0.2223758,0.9690928
0.0264092,0.2217342,0.9694007
0.02702869,0.2234692,0.9674704
0.02769987,0.2238056,0.9586258
0.02432179,0.2235235,0.9525425
0.01896862,0.2225243,0.9667212
0.0137873,0.2220438,0.983125
0.01381125,0.2228994,0.9746882
0.01721473,0.2258245,0.9663161
0.01454199,0.2282357,0.9715952
0.01481834,0.2243117,0.9677234
0.01745329,0.2195083,0.9620703
0.01587099,0.220544,0.9605019
0.01712925,0.2214446,0.9623749
0.01683338,0.2194179,0.9717061
0.0158111,0.219194,0.9705494
0.01603561,0.2196676,0.9681087
0.01179731,0.2197889,0.9730885
0.0106039,0.2222613,0.9707691
0.01314445,0.2238584,0.9738763
0.01421583,0.2208129,0.9777968
0.01336275,0.2163773,0.9711337
0.01119586,0.21594,0.9683554
0.01135544,0.217303,0.9713565
0.01092379,0.2166055,0.9753221
0.01064042,0.2174451,0.9754924
0.01103874,0.2186287,0.9743295
0.009403612,0.2176774,0.9756265
0.0100423,0.2169625,0.974605
0.009075612,0.2157623,0.9750355
0.005595201,0.2155323,0.9753149
0.004153891,0.2163993,0.9744862
0.005046535,0.2156829,0.9758494
0.008337664,0.2145753,0.977931
0.007147419,0.2129131,0.9854605
0.006144682,0.2117437,0.9910098
0.009875336,0.2127419,0.986091
0.009754197,0.2125796,0.9795718
0.009530606,0.2110196,0.9718447
0.008755475,0.2103745,0.9637622
0.005716035,0.2106115,0.970559
0.005473649,0.2130528,0.9822706
0.005074211,0.2150884,0.9768567
0.004875254,0.2144778,0.9735661
0.004065548,0.215317,0.9788669
0.003394009,0.2152437,0.975453
0.004007156,0.2120948,0.9761574
0.002819326,0.2104986,0.9786964
0.00615447,0.2103582,0.9743856
0.009546126,0.2087917,0.9745315
0.005436556,0.2064295,0.9766403
0.002683277,0.2081507,0.9796238
0.003377539,0.2110561,0.9822314
0.003019333,0.2085365,0.9834966
0.002263421,0.2074835,0.9834047
0.002973061,0.2093566,0.9767562
0.00337937,0.2098356,0.9737024
0.004823142,0.2121464,0.9753907
0.01003041,0.2142444,0.9768353
0.0121677,0.2148556,0.9785832
0.009299629,0.21317,0.9764184
0.005609488,0.2087599,0.9761054
0.002247775,0.2097026,0.9763027
-0.0004403698,0.2133796,0.974219
-0.003605303,0.2131348,0.9740929
-0.003649025,0.2098809,0.9756525
-0.001724556,0.2052534,0.97917
-0.002239815,0.2067856,0.9779069
0.001342059,0.2111726,0.9757195
0.006139197,0.2110889,0.9771824
0.004797195,0.2123457,0.9758208
0.00588104,0.2128557,0.9764181
0.009898813,0.2118619,0.9768539
0.008153474,0.2120915,0.9739388
0.005608393,0.2105245,0.9679956
0.005754038,0.2109973,0.9600969
0.005177695,0.2110995,0.9655729
0.004411142,0.2082234,0.9788744
-0.0004332383,0.208266,0.9849627
-0.005605,0.2102518,0.9873416
-0.0001434497,0.2121461,0.9836564
0.005559185,0.2126469,0.9779013
0.002747056,0.2123121,0.9767032
0.00390078,0.2117982,0.9749666
0.008961482,0.2101405,0.9738854
0.008854858,0.2094717,0.9745039
0.008766178,0.2080113,0.9770722
0.01035556,0.2077294,0.9780497
0.009095752,0.2089374,0.9747087
0.006317801,0.2073805,0.9769912
0.002291247,0.2082031,0.9792774
0.0002614676,0.2098483,0.9781941
0.0031965,0.2089142,0.9800308
0.006227119,0.2098548,0.9765428
0.008456644,0.2112111,0.9735168
0.01062962,0.212191,0.9740042
0.0136517,0.2137605,0.97236
0.0191509,0.2140317,0.9722054
0.02060543,0.2128891,0.9684095
0.01762607,0.2121439,0.9674373
0.01654701,0.2125394,0.9727243
0.01469276,0.2129604,0.9737885
0.01215444,0.2143779,0.9722924
0.01215996,0.2167422,0.9701479
0.01176868,0.2171619,0.9726532
0.01077306,0.2163534,0.9766726
0.01119571,0.216112,0.9741842
0.01220009,0.2141981,0.9723683
0.01269778,0.211297,0.9735711
0.0137847,0.2113624,0.9810897
0.01867384,0.2115337,0.9893855
0.02432426,0.2110751,0.984577
0.02372804,0.2140291,0.9743892
0.02095471,0.216439,0.9680316
0.02009861,0.2161305,0.9676377
0.01724881,0.2164439,0.9692108
0.01682048,0.2160814,0.9667024
0.01758558,0.2149994,0.9701619
0.01491518,0.2163864,0.9749772
0.01951534,0.2190798,0.9662101
0.0256826,0.2189879,0.9593027
0.02318997,0.2149518,0.9657782
0.02146353,0.2115567,0.9750396
0.01896004,0.2155691,0.9809568
0.01512002,0.2230703,0.9782528
0.01585415,0.2246811,0.9721575
0.01383246,0.2233545,0.9736009
0.01004478,0.2233306,0.9738486
0.01338877,0.2223817,0.9700104
0.01685271,0.2202922,0.9702738
0.01240054,0.2177641,0.9755239
0.007687198,0.2142624,0.9849862
0.006891481,0.2080295,0.9877601
0.008555348,0.2052012,0.9790519
0.01267782,0.2099179,0.9704982
0.01207377,0.2124527,0.9691108
0.006523079,0.2123791,0.9827203
0.003646271,0.2135405,0.9939139
0.007651706,0.2149093,0.9727769
0.01557156,0.2184664,0.9516097
0.01569459,0.2189216,0.9619311
0.01022735,0.2160363,0.9694326
0.006289615,0.2129714,0.9666016
0.003265514,0.2072877,0.9747551
0.004451125,0.2075371,0.9770851
0.005487327,0.2126068,0.9723751
0.005183846,0.212452,0.9712969
0.006205481,0.211438,0.961934
0.004046717,0.2101332,0.9588877
-0.000362233,0.209269,0.9728236
-0.006681404,0.2122286,0.9859881
-0.008951411,0.2138424,0.988227
-0.005601823,0.2141089,0.9810411
-0.006883859,0.2134716,0.9785516
-0.006414003,0.2108309,0.9791906
-0.0018685,0.2094471,0.9757757
0.0008321262,0.2101549,0.9749787
0.00382098,0.2116971,0.9736331
0.002288528,0.2103255,0.9761773
-0.0003068955,0.2086171,0.9807769
0.0001224417,0.2093686,0.9796182
-0.002803172,0.2078199,0.9798086
-0.003694913,0.2070577,0.9741778
-0.001987803,0.2072887,0.9675037
-0.003077642,0.2070918,0.97161
-0.002904142,0.2108698,0.9719535
-0.001742363,0.2136245,0.9709404
0.0004981305,0.2124268,0.9760326
0.004017815,0.2109914,0.9775054
0.002687447,0.2100786,0.9782979
-0.0008620397,0.209574,0.9815094
-0.002177609,0.2094834,0.9827979
-0.004515492,0.2109023,0.9822939
-0.007071301,0.2141265,0.9803553
-0.007401955,0.2178277,0.97772
-0.007121113,0.2173508,0.976047
-0.008550417,0.2139322,0.9764933
-0.01019275,0.2125588,0.9767468
-0.008013341,0.20873,0.9768926
-0.005359904,0.206668,0.978237
-0.00448637,0.207617,0.9768618
-0.002231376,0.2019499,0.9757467
-0.002124131,0.1984951,0.9772677
-0.003578576,0.2021213,0.9789668
-0.002464355,0.2036867,0.981351
-0.002927983,0.2032471,0.9809643
-0.006425316,0.2051951,0.9803362
-0.01290068,0.2090355,0.9836922
-0.01755483,0.2094459,0.9844643
-0.009203387,0.2101789,0.9794041
-3.743732e-06,0.2138448,0.9744474
-0.004320569,0.2127475,0.9762197
-0.006231649,0.2108972,0.9799248
-0.00335163,0.2096239,0.9806385
-0.006356367,0.2052985,0.9824437
-0.006199595,0.2045263,0.9815473
-0.004385637,0.2048054,0.9793162
-0.006418581,0.2030854,0.9811347
-0.005360105,0.2036275,0.9806901
-0.005350279,0.2028258,0.9803694
-0.007080772,0.2020342,0.982927
-0.006327896,0.2033185,0.9835165
-0.005485659,0.201648,0.983946
-0.003531682,0.2011961,0.9849286
-0.003358742,0.2043163,0.9856232
-0.00286024,0.2080225,0.9813583
0.00152479,0.2111194,0.9725268
0.001711771,0.2098134,0.9707113
-0.0009264626,0.2087037,0.9734408
-0.001134779,0.2094031,0.9743708
0.0009868214,0.2068943,0.9752358
0.004183668,0.2063812,0.9762758
0.003856803,0.2074532,0.9796171
0.003619463,0.2066684,0.9800514
0.005298855,0.2073576,0.9750603
0.00573622,0.2091768,0.9720076
0.008437176,0.2119026,0.9665936
0.01014894,0.2132279,0.9626213
0.009245049,0.2113062,0.9754346
0.01005565,0.2110155,0.9887719
0.01027093,0.2131072,0.9814389
0.0122687,0.2147831,0.9705432
0.01599929,0.2160115,0.9690169
0.01613311,0.2179046,0.9686331
0.01748317,0.2198183,0.9696632
0.02052562,0.2203674,0.9689758
0.01955433,0.2208089,0.9658047
0.01802283,0.219879,0.9670553
0.01907088,0.2169979,0.9660474
0.01969274,0.2158394,0.9625267
0.01905288,0.2149687,0.960795
0.01713393,0.2135721,0.9613224
0.01303699,0.2145855,0.9690893
0.009715923,0.2160438,0.976731
0.009302308,0.216884,0.9801616
0.01019026,0.2203879,0.9799782
0.01164532,0.2245608,0.9728408
0.01341598,0.2231908,0.9674956
0.01544971,0.2183477,0.9692131
0.01624581,0.2157764,0.9732501
0.01259294,0.2157749,0.9732151
0.00793465,0.2156066,0.9711393
0.009568483,0.2130301,0.9708523
0.01285147,0.2119708,0.9699258
0.01130214,0.2111236,0.9758149
0.008182579,0.2070543,0.9836008
0.004471017,0.2080616,0.9823319
0.004441235,0.211502,0.9796993
0.006767773,0.2121159,0.9778604
0.003064275,0.214521,0.9756896
0.002175423,0.2144646,0.9750792
0.005391202,0.2130786,0.9725145
0.005538129,0.2143256,0.9681362
0.00582869,0.2139076,0.9694205
0.004360713,0.2134412,0.9727003
0.004417239,0.2130974,0.970073
0.00821935,0.2111826,0.9705679
0.01002347,0.2116264,0.97527
0.008274613,0.2157668,0.9840474
0.003602412,0.2188879,0.9960198
0.002655196,0.2156503,0.9913507
0.003289376,0.2112045,0.9773739
0.00185179,0.2129351,0.9673699
0.002419108,0.2158819,0.9584251
0.001241892,0.2171986,0.9632436
0.00177727,0.2190289,0.9716336
0.004398665,0.2195104,0.9716572
0.005300965,0.2196035,0.9736633
0.009527588,0.2193276,0.9713764
0.01127385,0.2182215,0.9687518
0.01033116,0.2174301,0.9668371
0.01112565,0.214226,0.9603553
0.006514559,0.2120104,0.9634195
-0.0007593718,0.2149864,0.9692785
-0.003881059,0.2179291,0.9765867
-0.002448729,0.2168888,0.9908892
-0.0001626284,0.2158,0.9942499
-0.00179088,0.2178018,0.9863067
-0.00286546,0.2192009,0.9736994
-0.002125713,0.2202392,0.9626755
-0.002043081,0.2201173,0.9616684
0.0008027629,0.2181463,0.9691831
0.002347017,0.219069,0.9787795
0.001425189,0.2181282,0.9740534
0.004155291,0.2172792,0.9658792
0.006154584,0.2199576,0.9675925
0.003866758,0.2192535,0.9657404
0.001831117,0.2186274,0.9657353
0.0027048,0.216308,0.9632831
0.003391292,0.2125584,0.9581484
0.002254216,0.216083,0.9677345
0.002175325,0.219318,0.9784575
-0.000518073,0.2178091,0.9806955
-0.004489283,0.2161788,0.9792744
-0.0044541,0.21608,0.9770088
-0.007303639,0.2161799,0.9747734
-0.0109202,0.2138528,0.9696578
-0.007149095,0.2133596,0.9734906
-0.004189127,0.2141867,0.9804152
-0.0076971,0.2127418,0.977337
-0.008903943,0.2122656,0.978029
-0.005167237,0.2125001,0.9799095
-0.004005202,0.2123612,0.9758328
-0.007876915,0.211661,0.9742608
-0.01224556,0.2108782,0.9761578
-0.01254456,0.2120346,0.9815779
-0.01189735,0.2125668,0.9858399
-0.01256667,0.210671,0.981129
-0.00930676,0.2094032,0.97411
-0.005423065,0.2115615,0.9733388
-0.005193055,0.2143802,0.9746891
-0.005565598,0.2138979,0.976304
-0.005785918,0.2125083,0.9814601
-0.006100077,0.2110109,0.9841903
-0.009078349,0.2079779,0.9856688
-0.01225815,0.2070888,0.9883795
-0.01037238,0.2112757,0.9798458
-0.008784916,0.215473,0.9692541
-0.01020935,0.2121053,0.973365
-0.0108335,0.2048004,0.977062
-0.01085662,0.2024418,0.9748185
-0.01033065,0.2066982,0.9783283
-0.008048708,0.211895,0.9789997
-0.006061418,0.2101394,0.9754693
-0.005895932,0.2077741,0.9775226
-0.008273644,0.2091489,0.9779272
-0.01300633,0.2069479,0.9778513
-0.0151433,0.2095942,0.980567
-0.01477676,0.2151826,0.9797311
-0.01377321,0.2128969,0.9811365
-0.0105757,0.2134009,0.9841987
-0.009479345,0.214475,0.9825157
-0.008515195,0.2096111,0.9778997
-0.003971593,0.2056205,0.9728876
-0.001850036,0.2033362,0.9707467
-0.002829193,0.2056881,0.9696012
-0.004242171,0.2089778,0.9722369
-0.00560729,0.20925,0.9775839
-0.007447516,0.2125971,0.9760837
-0.009688078,0.2136127,0.9738821
-0.0105549,0.2117238,0.9706016
-0.01137149,0.2140427,0.9657549
-0.01079979,0.2162141,0.9697153
-0.01063971,0.2171966,0.9743291
-0.01378875,0.2188397,0.9804794
-0.01406527,0.219546,0.9889466
-0.01181483,0.2189065,0.9830455
-0.008091839,0.2147553,0.9757175
-0.003939476,0.2113526,0.9774428
-0.006287265,0.214115,0.9748563
-0.008060787,0.2161878,0.9745609
-0.005315997,0.2129287,0.9780759
-0.006045516,0.2096972,0.9770055
-0.009356248,0.20875,0.981192
-0.01202733,0.2069002,0.9865438
-0.01202744,0.2066765,0.980772
-0.01215872,0.2104326,0.9750257
-0.01576487,0.2108717,0.9752406
-0.01578201,0.208566,0.974032
-0.01353903,0.2099736,0.9720806
-0.01392461,0.2102511,0.9729818
-0.01287357,0.2089908,0.976799
-0.01212328,0.2105135,0.9804527
-0.01180022,0.21155,0.9795748
-0.00791012,0.2126531,0.9772224
-0.004822311,0.2130087,0.978333
-0.007670022,0.2105257,0.9797428
-0.01151401,0.2092837,0.9804684
-0.01003543,0.2081616,0.9797962
-0.01051098,0.2086572,0.9745206
-0.01404841,0.2107983,0.9687974
-0.01231123,0.2093853,0.966601
-0.01146862,0.2097749,0.9721805
-0.01154488,0.2120842,0.9805368
-0.007935549,0.212542,0.9801904
-0.00601966,0.2131314,0.9793915
-0.003931876,0.21303,0.9786405
-0.00402201,0.2141135,0.9741038
-0.006574089,0.2142114,0.9735258
-0.003520086,0.2126705,0.9713298
-0.001632393,0.2140616,0.9744656
-0.003191651,0.213597,0.982882
-0.001783681,0.2097132,0.9781348
-0.000966373,0.2061935,0.973877
-0.001502487,0.2055078,0.9750036
-0.001403083,0.2093021,0.9747581
-0.001409782,0.2123333,0.9794629
-0.001307622,0.2120864,0.9778636
-0.00147044,0.2139692,0.9733741
-0.001370621,0.2180836,0.9742821
-0.001325512,0.2173318,0.9723757
-0.00150283,0.2151385,0.9720722
-0.001279927,0.2165991,0.9708713
-0.001444781,0.2152634,0.9697847
-0.00140509,0.2155314,0.9730086
-0.0007798903,0.2186818,0.9719629
0.001553072,0.2167626,0.9719767
0.005458462,0.2150116,0.9721802
0.006392256,0.2135079,0.9675042
0.005123286,0.2115575,0.9643362
0.005504463,0.2127907,0.9628167
0.004747999,0.2126168,0.9656044
-2.307179e-05,0.2122546,0.9717825
-0.003283753,0.2127334,0.9775277
0.002021234,0.2123214,0.9799883
0.008304024,0.2129706,0.9769175
0.00569036,0.2144235,0.9742974
0.003133488,0.2166826,0.970885
0.002360304,0.2167161,0.9742994
-0.003033503,0.2135466,0.9829676
-0.00249971,0.2117993,0.9779217
0.0003578897,0.2122922,0.9755862
-0.003812356,0.2129371,0.9797125
-0.004878516,0.2123388,0.9745662
-0.005324671,0.2123157,0.9697919
-0.00661155,0.2128339,0.9665379
-0.004572011,0.2122472,0.9706456
-0.005873099,0.2129043,0.9803692
-0.006125137,0.214432,0.9810743
-0.005685408,0.2155883,0.9877905
-0.008278359,0.2153378,0.9940031
-0.008495546,0.2128078,0.9826657
-0.009784019,0.2110453,0.9758607
-0.009202766,0.209947,0.9805247
-0.005393361,0.2093716,0.9816643
-0.005906829,0.2095773,0.9783971
-0.008286664,0.2075008,0.9758771
-0.009922786,0.2049382,0.973798
-0.00757752,0.2053097,0.9730545
-0.003833706,0.2078901,0.9761227
-0.006107208,0.2093013,0.9779501
-0.008048127,0.2094848,0.9777039
-0.008630096,0.2102798,0.97806
-0.01163358,0.2095059,0.9776436
-0.01293154,0.2088989,0.9796765
-0.0121989,0.2079374,0.9840689
-0.009606422,0.2057356,0.9872363
-0.007385199,0.2065192,0.9848273
-0.00836926,0.2041105,0.9751435
-0.00865026,0.1999994,0.9699791
-0.008271672,0.2019463,0.9779827
-0.00946679,0.2031734,0.9867892
-0.01110278,0.2050573,0.9810212
-0.01270685,0.2084542,0.9748056
-0.01444915,0.206801,0.979424
-0.01568111,0.2063226,0.9788869
-0.01397784,0.2072613,0.9781642
-0.01052782,0.2048062,0.9814258
-0.009443364,0.2034327,0.9823501
-0.01153983,0.2038217,0.9895593
-0.01430727,0.2048033,0.9915637
-0.0144073,0.204942,0.9841971
-0.01486253,0.2023704,0.9815389
-0.01850297,0.2018874,0.9813152
-0.01980997,0.2035888,0.9815252
-0.01672362,0.2032029,0.9776697
-0.01414875,0.2050143,0.9729398
-0.01442967,0.2077717,0.9757484
-0.01239419,0.2041246,0.9783137
-0.008124165,0.2001782,0.9790366
-0.009509054,0.2005417,0.9775946
-0.0119565,0.2000071,0.9730759
-0.01180018,0.1996528,0.9716647
-0.01513562,0.2006627,0.9731326
-0.01794638,0.2016894,0.977946
-0.01793759,0.203247,0.9837374
-0.01733659,0.2031257,0.984871
-0.01513222,0.2022665,0.9846146
-0.01496794,0.2022893,0.9843656
-0.01563014,0.1993244,0.9818947
-0.01499221,0.1958455,0.9797715
-0.01562343,0.1975658,0.9803114
-0.01615103,0.2006712,0.9796305
-0.01682429,0.201689,0.9731943
-0.01714518,0.2017378,0.9680112
-0.01716158,0.2008806,0.9733506
-0.01854698,0.2004676,0.9792037
-0.01819621,0.2003869,0.9770147
-0.01746315,0.2013573,0.9799908
-0.01715021,0.2036742,0.9877177
-0.01430417,0.2029737,0.9851306
-0.01226589,0.2019133,0.9768989
-0.01257666,0.2022633,0.9723392
-0.01396675,0.2000714,0.975458
-0.01689687,0.1995861,0.9848172
-0.01890861,0.2015445,0.9868601
-0.01837398,0.2023439,0.9812186
-0.01845781,0.2031478,0.977787
-0.02000089,0.2028157,0.9785427
-0.01944417,0.2024939,0.980393
-0.0175266,0.2030697,0.9778861
-0.01529498,0.2022684,0.9751817
-0.01182768,0.2009746,0.9736737
-0.01084552,0.2006572,0.973359
-0.01083371,0.204983,0.9773597
-0.009866365,0.2099719,0.9771626
-0.01162384,0.2055141,0.9775886
-0.01233225,0.1992986,0.9794229
-0.01137022,0.2006868,0.9726705
-0.01259129,0.204723,0.968646
-0.01426066,0.2075204,0.9697559
-0.01612286,0.2050423,0.9771118
-0.01682947,0.2020037,0.9961728
-0.01801442,0.2092436,1.012114
-0.02061041,0.2150042,1.01674
-0.01547481,0.208775,1.001605
0.002287091,0.2002338,0.9605937
0.02353659,0.1957355,0.9307014
0.02555135,0.2007106,0.9461755
0.01028985,0.2150555,0.9700114
0.006669436,0.2260004,0.9703736
0.009202863,0.2278779,0.9770126
0.00866114,0.2275489,0.979113
0.01510506,0.2309901,0.9626596
0.02226025,0.2326476,0.9618774
0.02726184,0.2297386,0.9649138
0.02844674,0.2290055,0.9636957
0.02496795,0.2310618,0.964038
0.02255136,0.2335713,0.9584282
0.01787064,0.2333402,0.9697289
0.01375926,0.2291497,0.9796861
0.01261476,0.2242135,0.9717157
0.01699638,0.2216413,0.9713644
0.02557643,0.228795,0.9705601
0.02517225,0.2404667,0.9604059
0.02072983,0.2437238,0.9432628
0.01821891,0.2445627,0.9375814
0.01605174,0.2562229,0.9554376
0.01302922,0.2799624,0.9704361
0.001912349,0.3000659,0.9722789
-0.006861544,0.309584,0.9646311
7.614035e-05,0.3149551,0.9548095
0.01347913,0.3129249,0.9411831
0.0170519,0.3124062,0.9271404
0.006068447,0.3218335,0.9469331
-0.01666962,0.3243696,0.9694456
-0.03330917,0.3110515,0.9457299
-0.008137989,0.3013517,0.9293842
0.03948947,0.3226058,0.9502936
0.05971508,0.3512396,0.956258
0.05870744,0.3478647,0.9414407
0.04899182,0.3402079,0.938832
0.03674285,0.3466689,0.9520985
0.03364278,0.3537342,0.963516
0.03123888,0.3707046,0.9526499
0.03107439,0.37919,0.9425552
0.03307093,0.3619506,0.9569884
0.02987334,0.3412464,0.966845
0.02820192,0.324533,0.9669081
0.02583305,0.3168341,0.9667736
0.005649965,0.2843041,0.9628726
0.00599055,0.2803218,0.9631209
0.00517561,0.2758344,0.9589323
0.005424549,0.2789874,0.9580887
0.00349351,0.2849954,0.9599925
0.001341533,0.2885934,0.9620378
0.0009664577,0.2884803,0.9611149
0.002487807,0.2868362,0.9600883
0.00614462,0.2908215,0.9585249
0.01032437,0.2948877,0.9541694
0.01075452,0.2944048,0.9532081
0.008539474,0.2949859,0.9544311
0.008688113,0.2962797,0.9530172
0.006581078,0.2983596,0.9541698
0.003120473,0.2973067,0.958111
0.003482662,0.2898151,0.9581678
0.002651266,0.2841112,0.9585699
0.001610913,0.281747,0.9625669
-0.0001957771,0.2793938,0.9625714
-0.004259399,0.2786838,0.9615733
-0.00315558,0.281171,0.9633867
-0.0008257301,0.2840282,0.9621039
0.0009369191,0.2868742,0.9608071
0.005654943,0.2918277,0.959578
0.005034086,0.2912857,0.9557188
0.002850977,0.288781,0.9541123
0.005701777,0.2921081,0.9524309
0.004902945,0.2917083,0.9526692
0.002385035,0.2888407,0.9573297
0.002920844,0.2866706,0.9591743
0.002630806,0.2820999,0.9597805
0.002809808,0.2803029,0.9615516
0.002938852,0.2797053,0.9622603
0.002487025,0.2799894,0.9594034
0.003052944,0.2829036,0.9553014
0.00246839,0.2836382,0.9577595
0.00182508,0.282491,0.9596506
0.001498331,0.2814491,0.9571053
0.001929542,0.2820626,0.9567454
0.003262398,0.2836012,0.9559947
0.001834704,0.2849859,0.9584757
0.0009672618,0.2869445,0.9629905
0.002912383,0.2860281,0.9606116
0.00481279,0.2841022,0.9575078
0.005782738,0.282132,0.9569123
0.003846609,0.278687,0.9563928
0.001864803,0.2797566,0.9573343
0.002853032,0.2825968,0.9577477
0.003121986,0.282782,0.9593911
0.001937359,0.2839343,0.961318
0.0001720982,0.2853007,0.9605836
-0.001733528,0.2859767,0.9638665
0.0002619555,0.2844096,0.965255
0.004454094,0.2805331,0.9587264
0.004441528,0.2804513,0.9574675
0.002858573,0.2836554,0.9599045
0.002757643,0.2852331,0.9597047
0.002570168,0.2839306,0.9617528
0.002777358,0.2816441,0.9646835
0.00190921,0.2817718,0.9664805
0.000906268,0.282242,0.9611193
0.001720444,0.2816664,0.9532041
0.003033951,0.2821043,0.9552177
0.00688758,0.2824832,0.9573958
0.01141014,0.2844829,0.9566838
0.01179491,0.2864159,0.9564514
0.01048344,0.2826923,0.9541188
0.01021137,0.2792652,0.9556156
0.009707195,0.2822656,0.9545591
0.009727973,0.2850704,0.9506037
0.01179482,0.2843593,0.9516981
0.01304078,0.2844901,0.9500866
0.01284194,0.2836045,0.9508043
0.01415434,0.2823021,0.9545247
0.015854,0.284895,0.952301
0.01628163,0.2879098,0.9527083
0.01835772,0.290991,0.9554561
0.02212199,0.2909815,0.9564246
0.02144357,0.2860037,0.9578657
0.01963167,0.2850159,0.9575648
0.0217254,0.2858096,0.9576761
0.02180931,0.2867249,0.9553107
0.02188271,0.2886373,0.9509059
0.02318897,0.2876301,0.951743
0.02251324,0.2909253,0.9520381
0.023971,0.2942476,0.9503765
0.02480382,0.290074,0.9508761
0.02642245,0.2880799,0.9505988
0.03080003,0.2906836,0.9530353
0.0289499,0.2927173,0.9567024
0.0253881,0.2914039,0.9526999
0.02520527,0.2901938,0.9476242
0.0253552,0.2910327,0.9476245
0.02700665,0.291947,0.9477207
0.02664007,0.2955489,0.9495942
0.02678031,0.2964832,0.9525582
0.03303064,0.2933623,0.9509915
0.03975902,0.2927486,0.9480574
0.0418014,0.2929118,0.9468724
0.04020925,0.29432,0.9471998
0.04149188,0.2984677,0.9494019
0.04388863,0.3023722,0.9501678
0.03957815,0.3004228,0.9479605
0.03491269,0.2956991,0.9457032
0.03459332,0.2973477,0.9453848
0.03653977,0.2981586,0.9454465
0.03937594,0.2971358,0.9422509
0.03874365,0.2991936,0.9393255
0.03583476,0.296635,0.942253
0.03141658,0.2938256,0.9460702
0.02740633,0.2946411,0.947059
0.02855172,0.2939286,0.9500784
0.02722133,0.2927856,0.9543838
0.02219346,0.2912918,0.9545881
0.02140665,0.2921989,0.9551231
0.02089829,0.2939935,0.9581765
0.01975348,0.2923555,0.9571089
0.02214729,0.2914772,0.9560612
0.02347766,0.2915054,0.9571939
0.02189192,0.2912976,0.9540039
0.02093568,0.2899837,0.9517054
0.02063489,0.2872882,0.9529612
0.0199021,0.2880726,0.9529528
0.01880046,0.2892073,0.9528477
0.01741978,0.2871159,0.9547029
0.01489045,0.2858287,0.9604103
0.01177207,0.2855271,0.9669252
0.009765534,0.2849608,0.9663862
0.01041701,0.2843635,0.9584887
0.01622227,0.2828962,0.9515078
0.02153427,0.2809849,0.9518282
0.0191068,0.2803799,0.9540259
0.014166,0.2806532,0.9533498
0.01078188,0.2810638,0.954104
0.008599437,0.2811585,0.9549811
0.009685829,0.2812195,0.9550555
0.0104258,0.2837504,0.9589629
0.009101394,0.2841714,0.9627283
0.009686036,0.2813768,0.9620198
0.009135876,0.2816492,0.9589145
0.007755644,0.2804409,0.9564609
0.009486827,0.2783117,0.9601113
0.0101155,0.2804823,0.9641956
0.009541424,0.2819128,0.9603464
0.009800682,0.2820461,0.9574484
0.009281275,0.2816957,0.9585084
0.008027203,0.2790427,0.956514
0.006355338,0.2743465,0.9520571
0.007040906,0.2716402,0.9498014
0.009275669,0.2774116,0.9548781
0.009905525,0.2831621,0.9609684
0.00997314,0.2804528,0.9584523
0.009502767,0.2794375,0.95691
0.009489179,0.2815188,0.9605861
0.008918089,0.2801395,0.9634124
0.00706006,0.2792967,0.9672801
0.007421976,0.2792705,0.964856
0.007328731,0.2779656,0.957181
0.004018601,0.2782983,0.9583159
0.002070903,0.2774919,0.9609156
0.005020674,0.2748929,0.9608336
0.009384936,0.274577,0.9622695
0.01030184,0.2751865,0.9622949
0.009656393,0.2756318,0.9640627
0.009604793,0.2771627,0.9628737
0.009370979,0.2785955,0.9592386
0.007539198,0.2780694,0.9601987
0.003557825,0.278855,0.9571578
0.001805872,0.2809779,0.9539087
0.002952593,0.2790422,0.9569486
0.003919253,0.276896,0.9602468
0.007023851,0.2763194,0.9629504
0.01110358,0.2757792,0.960238
0.01038364,0.2770017,0.9546165
0.008548849,0.2762631,0.9555457
0.01027396,0.2761742,0.9579745
0.009107786,0.2780859,0.958419
0.004543132,0.2782607,0.9581686
0.002042037,0.2789924,0.955516
0.002378904,0.2777879,0.9542216
0.005388722,0.2759406,0.9557996
0.006054416,0.2764555,0.9564881
0.005107595,0.276491,0.957896
0.005965636,0.274983,0.9609255
0.005284487,0.271167,0.9620074
0.0055568,0.2704805,0.9615312
0.005839882,0.2721761,0.9594922
0.005115685,0.2717962,0.9556548
0.005949361,0.2718733,0.9572907
0.005374199,0.2704329,0.964178
0.005467249,0.2717514,0.9688247
0.005850037,0.2751284,0.9705859
0.005195513,0.2745006,0.9683628
0.006367334,0.2735769,0.9666159
0.00831711,0.2715316,0.9671603
0.01151565,0.2720771,0.9640663
0.01282638,0.2748317,0.9630025
0.01199724,0.2738759,0.9629859
0.01289568,0.2737588,0.9610977
0.01209982,0.2741246,0.9610626
0.01043843,0.2770095,0.9570548
0.009565232,0.2807861,0.9536274
0.009215571,0.2790244,0.9536808
0.01093847,0.2786348,0.9521531
0.01355855,0.2791358,0.9541689
0.01785442,0.2762498,0.956635
0.01947453,0.2742116,0.9569891
0.01710901,0.2750768,0.9572557
0.0181217,0.277384,0.9555484
0.0185932,0.2783768,0.9554192
0.01756443,0.2794644,0.9555323
0.01938531,0.2801855,0.9544137
0.01965444,0.2789298,0.954545
0.01930499,0.2789094,0.955636
0.01961397,0.2797651,0.9575476
0.01958135,0.2809086,0.9559643
0.02177676,0.2824136,0.9524206
0.02448888,0.2822194,0.9509036
0.02567105,0.2813755,0.9494787
0.02552846,0.2813394,0.9507729
0.02743594,0.2813567,0.9522161
0.03130409,0.2820171,0.9509886
0.03080299,0.2833154,0.9515642
0.02902131,0.2829698,0.9524907
0.02928553,0.281532,0.9528123
0.02935048,0.2805376,0.9530527
0.03101956,0.2822214,0.9525027
0.03240458,0.2864539,0.9528601
0.03108135,0.2875514,0.9528914
0.03003417,0.2871312,0.9522187
0.03093236,0.2868214,0.951162
0.0326078,0.2845988,0.9493862
0.03435025,0.284983,0.9513505
0.03717855,0.2876645,0.9585667
0.03968097,0.2891407,0.9639153
0.03915508,0.287587,0.9589974
0.03739171,0.2855572,0.9497236
0.03736477,0.289782,0.9488937
0.03698359,0.2935672,0.9508033
0.03372336,0.2921064,0.9490564
0.03096978,0.2919737,0.947274
0.03244129,0.2917717,0.9442075
0.0372621,0.290136,0.9435964
0.04093414,0.2893231,0.9454678
0.04024948,0.2886055,0.9456786
0.03660664,0.288756,0.9495692
0.03225765,0.2891743,0.952611
0.0291197,0.2887138,0.9494168
0.02761179,0.2890443,0.9479494
0.02673155,0.2899397,0.9505871
0.02565223,0.2900241,0.952274
0.02356827,0.2877921,0.952315
0.02164456,0.2823066,0.9564272
0.02213805,0.2791517,0.9617367
0.02456825,0.2816733,0.9608768
0.0254234,0.2837501,0.9620317
0.02489939,0.2830486,0.9660669
0.02467789,0.2823887,0.9604103
0.02313241,0.2818167,0.9539072
0.0215677,0.281695,0.9572841
0.02060695,0.2823899,0.958116
0.018158,0.2827803,0.9557228
0.01572427,0.2834554,0.9581876
0.01650553,0.2836642,0.9607112
0.01817044,0.2829713,0.9628422
0.01696659,0.2832696,0.9625869
0.01569008,0.2824171,0.9597211
0.01325749,0.2803165,0.9613786
0.01070507,0.2793423,0.9617421
0.01572749,0.2778394,0.960226
0.02192923,0.2765282,0.9604639
0.0207097,0.2762571,0.9547593
0.01632737,0.276273,0.950226
0.01339646,0.2765837,0.9565008
0.01195699,0.276107,0.9623962
0.009879961,0.2754538,0.9598257
0.007502895,0.2748688,0.9582679
0.008081127,0.2747372,0.9603571
0.009992707,0.2753058,0.9563377
0.01017294,0.2748889,0.9513863
0.01229751,0.2745344,0.9513614
0.0150212,0.2734322,0.9519377
0.01366913,0.2714836,0.9538237
0.01186158,0.2724453,0.9551674
0.009018954,0.2744714,0.9581786
0.005419544,0.2752129,0.9610824
0.006178053,0.2752709,0.9574297
0.007862339,0.2741889,0.956338
0.008269248,0.2723371,0.9595954
0.008914698,0.2705759,0.9618961
0.009223439,0.2720505,0.9620512
0.01071434,0.274921,0.9553098
0.01181931,0.273718,0.9477854
0.01078309,0.2738228,0.9495028
0.01100399,0.275997,0.9562066
0.01109073,0.2745897,0.9586976
0.00900034,0.2736085,0.959395
0.007585443,0.2727543,0.9608985
0.006383949,0.2705815,0.9588654
0.005411454,0.2709667,0.9585273
0.00643386,0.27182,0.9588072
0.00828697,0.2723431,0.9564364
0.008776558,0.2725237,0.957983
0.008025422,0.2714884,0.9612482
0.008917041,0.2706131,0.9659885
0.01117455,0.2691614,0.9663365
0.01306735,0.269877,0.958651
0.01303611,0.271958,0.9588638
0.01160219,0.2718361,0.9629503
0.01115427,0.2736332,0.9620577
0.00753816,0.2741427,0.9617465
0.003829443,0.2701032,0.9600341
0.005777912,0.268691,0.9598233
0.00613695,0.2697938,0.9613655
0.005122839,0.2700242,0.9610706
0.007095096,0.2696838,0.9627661
0.009030007,0.2695093,0.9631557
0.0103725,0.2724315,0.9612809
0.01079951,0.2755942,0.9600619
0.01097553,0.2751841,0.957696
0.01111371,0.2743903,0.9574862
0.008948305,0.2733201,0.9583308
0.006816902,0.2713181,0.9568321
0.0070528,0.2702104,0.9594615
0.009176723,0.2698301,0.9633881
0.01249972,0.2719245,0.9612814
0.0149258,0.2756308,0.9581142
0.01583854,0.2752505,0.9555563
0.01623566,0.2724601,0.954022
0.01651931,0.2729046,0.9562301
0.0160301,0.2766198,0.9584204
0.01482139,0.2801873,0.960967
0.01513482,0.2780896,0.9637558
0.01567402,0.2743703,0.9625386
0.01569533,0.2759511,0.9605555
0.01889811,0.275387,0.9568461
0.02208433,0.273904,0.9510721
0.02085093,0.2758909,0.9535708
0.0192803,0.2747764,0.9579541
0.01971413,0.2749623,0.9547518
0.02049952,0.2774589,0.9554596
0.02205988,0.2779258,0.9597526
0.02384734,0.2787747,0.9614448
0.02474824,0.2771759,0.962889
0.02614219,0.2749034,0.9583298
0.02665716,0.2751511,0.9524393
0.02526583,0.2768606,0.9531321
0.02563865,0.2800736,0.9563331
0.02945776,0.2820909,0.958562
0.03337986,0.283817,0.9533512
0.03267786,0.2839303,0.9487328
0.03221293,0.282697,0.9572964
0.03711254,0.2848057,0.9640236
0.03963797,0.2860256,0.9583235
0.03954714,0.2860321,0.9519433
0.04058568,0.28684,0.950907
0.03896836,0.2878814,0.9507875
0.03663894,0.2913603,0.949105
0.03589648,0.2925618,0.9443208
0.03678236,0.2911664,0.9398902
0.03820723,0.2917504,0.9414853
0.03734685,0.2917895,0.9418529
0.03742911,0.2918636,0.9377951
0.03910736,0.2937513,0.9369578
0.04087222,0.2958172,0.9397289
0.04328739,0.2961666,0.9434186
0.04252032,0.2942756,0.9489458
0.03787039,0.2923619,0.9545808
0.03297197,0.2906971,0.9525707
0.030978,0.2885717,0.9475058
0.03046204,0.2862274,0.949236
0.02762396,0.2849227,0.9510701
0.02700596,0.2847738,0.9531935
0.02799272,0.28366,0.9565456
0.02459635,0.286381,0.954867
0.02177809,0.2915541,0.9536064
0.02164546,0.2891852,0.9525514
0.02038807,0.2846227,0.9518009
0.01813247,0.2815209,0.9557035
0.01769229,0.274421,0.9590402
0.02118376,0.2686521,0.9616497
0.02589689,0.2686035,0.9623743
0.02825648,0.2704759,0.9581233
0.02475147,0.2716361,0.9523336
0.02005005,0.274568,0.9497053
0.02237106,0.2798469,0.9521124
0.0223635,0.2847803,0.9527495
0.0166662,0.2909578,0.952399
0.01443112,0.292303,0.9549602
0.01504797,0.285453,0.9566993
0.01688394,0.2814925,0.9580878
0.01786272,0.2813672,0.9535613
0.01789778,0.2779527,0.9481772
0.01839248,0.2732419,0.9545502
0.0165686,0.2743258,0.9602061
0.01533805,0.2765516,0.9599887
0.01419238,0.2736606,0.9625598
0.01195304,0.2731314,0.9618908
0.01065315,0.2725233,0.958083
0.008135278,0.2713749,0.9591654
0.008374272,0.2750357,0.958027
0.01173199,0.2753221,0.9539536
0.01404031,0.2748401,0.9570241
0.01531348,0.276731,0.9602773
0.0143934,0.277903,0.9584059
0.01416978,0.2793046,0.9567205
0.0138926,0.274318,0.9565141
0.01189316,0.2684404,0.9594852
0.01228574,0.2691135,0.9613312
0.01288371,0.2701357,0.9608959
0.01177427,0.2714149,0.9615208
0.009804448,0.2734778,0.960777
0.007955792,0.274561,0.9607729
0.009763326,0.2750072,0.959638
0.01224029,0.2757783,0.9573177
0.01127134,0.2743386,0.958511
0.01141511,0.2687589,0.9586033
0.0133125,0.265514,0.9579963
0.01210012,0.2665724,0.9585701
0.0102779,0.2692526,0.9583922
0.009670446,0.2709108,0.9592639
0.008874795,0.2709198,0.9600103
0.008338723,0.2720334,0.9597757
0.006417567,0.2722635,0.959596
0.006359094,0.2722519,0.9597309
0.007635644,0.2723858,0.9584187
0.005563094,0.2718622,0.9524112
0.005559927,0.2724008,0.9470675
0.008233789,0.2710044,0.9504435
0.01124025,0.2695252,0.9551573
0.01375943,0.2688815,0.952956
0.01233482,0.2664755,0.9547438
0.01197433,0.2653588,0.9615468
0.01276196,0.2676374,0.9635024
0.01035507,0.2716775,0.9650805
0.008667541,0.2714282,0.9627286
0.007030244,0.269662,0.9577017
0.004883169,0.2706267,0.9618841
0.005416837,0.269049,0.9648088
0.006906998,0.2693472,0.9625279
0.007460696,0.2719856,0.9626843
0.00844538,0.2721978,0.9605127
0.009454769,0.2726092,0.9573317
0.008238767,0.2719931,0.9584106
0.008125185,0.271698,0.9622224
0.01082519,0.2703443,0.965845
0.01239518,0.2657737,0.9669099
0.01298228,0.265003,0.9632889
0.01357744,0.2681245,0.9566186
0.01498002,0.2703965,0.9547646
0.01717899,0.2697176,0.9584358
0.0185048,0.2690369,0.9606617
0.01938833,0.2717545,0.9589699
0.01710005,0.2727575,0.9577005
0.01476752,0.2720555,0.9607044
0.01977202,0.2724657,0.9627715
0.02388522,0.2729941,0.9622797
0.02037055,0.2736656,0.961779
0.01807172,0.2718809,0.960619
0.01988235,0.2701678,0.9611006
0.01977678,0.272345,0.9612438
0.01925893,0.2756059,0.9595076
0.02192203,0.2780087,0.9578945
0.02455919,0.2780106,0.9555231
0.02551023,0.2763693,0.9536267
0.024926,0.2749388,0.9525764
0.02404861,0.2732924,0.9538547
0.02579786,0.2734377,0.955196
0.02858877,0.2756738,0.9525366
0.02973218,0.2764028,0.9517967
0.02791926,0.2762299,0.9507413
0.02523987,0.2777572,0.9468928
0.0251631,0.279329,0.9467429
0.02699577,0.2810377,0.947098
0.03040834,0.2828956,0.9503101
0.03232638,0.2827862,0.956864
0.03261362,0.2836185,0.9562843
0.03658367,0.2855901,0.9550023
0.03969321,0.2862584,0.9566206
0.03658802,0.2860684,0.9541855
0.03312227,0.2840722,0.9523442
0.03449795,0.2827241,0.9514304
0.034776,0.2835971,0.95005
0.03256629,0.2843298,0.9505954
0.03524452,0.2844037,0.9506355
0.03723616,0.2821318,0.9506158
0.03558065,0.2806197,0.9495293
0.03618957,0.2860877,0.94955
0.03623455,0.2928917,0.9510078
0.03646004,0.2925244,0.9492112
0.03898719,0.290201,0.950065
0.04074085,0.2900205,0.9502859
0.03893797,0.2863853,0.9472688
0.03294777,0.2830282,0.9476034
0.02769417,0.2838481,0.9476763
0.02509153,0.2852499,0.9489655
0.02457724,0.2884797,0.9491935
0.02510187,0.2895327,0.9485132
0.02415009,0.286339,0.9538466
0.02460198,0.2844164,0.9567219
0.02723148,0.2826383,0.9559002
0.02934852,0.2814269,0.956086
0.02900608,0.2817956,0.9574336
0.02610137,0.2811478,0.9606637
0.02436177,0.2802864,0.9657413
0.02402005,0.2801743,0.9706095
0.02183917,0.2797697,0.9638547
0.01829613,0.2779211,0.9558549
0.01835459,0.2772324,0.9604613
0.01889246,0.2783342,0.9596335
0.01583632,0.2785596,0.9520507
0.01802226,0.2793474,0.9488831
0.02114712,0.2789317,0.9491977
0.01870605,0.2757227,0.9516069
0.01932159,0.2726334,0.9524203
0.01998153,0.2713574,0.954403
0.01888468,0.2724648,0.9555442
0.01908984,0.2725428,0.9543576
0.01541972,0.2720948,0.9588987
0.01088877,0.2743276,0.9611495
0.01055267,0.275515,0.9587402
0.01273945,0.2748368,0.9588971
0.01490652,0.2741488,0.957239
0.01640559,0.2738624,0.957041
0.01673462,0.2735365,0.9609298
0.01372555,0.2718292,0.9630404
0.01152206,0.271744,0.9612013
0.01255712,0.2731541,0.958368
0.01277749,0.2737803,0.9591131
0.01234673,0.2750559,0.9568733
0.01244631,0.2737181,0.9529611
0.01227075,0.2706654,0.9581187
0.01065894,0.2705044,0.9638359
0.009104905,0.2698299,0.9644597
0.009660338,0.2704295,0.9655142
0.01035445,0.2734407,0.9652576
0.01171525,0.272334,0.9625914
0.01480356,0.2712428,0.9591948
0.01560469,0.2720668,0.9561921
0.01215518,0.2701015,0.9551322
0.009162656,0.2687568,0.956012
0.009324652,0.2653419,0.9580205
0.009109582,0.260518,0.9591058
0.0083244,0.2626977,0.9578948
0.009956302,0.2655576,0.9571465
0.01176912,0.2662004,0.9571525
0.01030623,0.2696899,0.9568843
0.009299921,0.2726721,0.9585707
0.01180243,0.2741586,0.9581128
0.01317789,0.2740475,0.9535455
0.01241452,0.2730975,0.9527584
0.01233489,0.274658,0.958829
0.01242299,0.2740128,0.9658173
0.01093541,0.2694158,0.9665756
0.007155051,0.2642787,0.9650738
0.004965468,0.2612896,0.9657706
0.008033885,0.2642203,0.9624796
0.0111767,0.2666845,0.9586985
0.009527167,0.2654718,0.9599182
0.008079307,0.2688235,0.9611354
0.008738643,0.2732681,0.9619681
0.00767639,0.2727575,0.963012
0.006489654,0.273216,0.9626047
0.005547373,0.2800533,0.9631857
0.00617265,0.2920955,0.9624377
0.01020357,0.3015799,0.9538732
0.01358415,0.3013471,0.9444829
0.01956924,0.2958835,0.9475904
0.02913381,0.2872047,0.9573778
0.03346066,0.2739315,0.9611907
0.02750605,0.2663148,0.9602536
0.01402893,0.258937,0.9598705
0.003576705,0.2406868,0.9654002
-0.004895643,0.2206271,0.9753073
-0.01521573,0.2006747,0.9799497
-0.01296708,0.1920611,0.98051
-0.002489997,0.1963739,0.9832491
-0.002064522,0.1863074,0.9868148
-0.004431065,0.1797858,0.9837211
-0.003591417,0.1976634,0.9760733
-0.003848669,0.2143143,0.9758012
-0.001702721,0.2273671,0.9779083
0.001717852,0.2464262,0.9764913
0.008484749,0.2595825,0.9723814
0.01575726,0.2615214,0.9643621
0.01229071,0.2611896,0.9620506
0.009968505,0.2620112,0.9634455
0.01346439,0.2630757,0.9626164
0.0162565,0.2640818,0.9643217
0.02442861,0.2525189,0.9625742
0.02925721,0.236585,0.9574132
0.0285833,0.2359875,0.9535021
0.03010141,0.2364589,0.9505821
0.0287613,0.2333598,0.9528623
0.02772015,0.2359499,0.9589012
0.02461714,0.2369096,0.9642061
0.01829603,0.235552,0.9654964
0.01958201,0.2371125,0.9698224
0.02187422,0.2407992,0.9807283
0.02447441,0.2441045,0.9796873
0.03172858,0.2423655,0.9730164
0.03110624,0.2345144,0.9702882
0.02870909,0.2283094,0.9567787
0.0308901,0.2275047,0.9518917
0.02253808,0.2246669,0.9647696
0.007248289,0.2146419,0.9760768
-0.0004139559,0.2093954,0.9869921
0.002892776,0.2216445,0.9832792
0.007694686,0.2354294,0.9667362
0.004718699,0.237271,0.9622953
0.00490666,0.239405,0.9626858
0.008242323,0.2453849,0.9625353
0.01179171,0.250012,0.9563885
0.02460752,0.2579886,0.9472303
0.03310435,0.2692557,0.9512559
0.03710264,0.2725384,0.9553137
0.04451868,0.2706864,0.9570593
0.04143521,0.2686088,0.9582537
0.03536852,0.2587072,0.9528904
0.03179944,0.2494288,0.9515685
0.025378,0.2434156,0.9506503
0.02345497,0.23557,0.9550569
0.02020272,0.2343951,0.966801
0.01569158,0.2350295,0.9705337
0.01706568,0.2344574,0.9749794
0.01672714,0.2361024,0.9789874
0.01618146,0.2362112,0.974833
0.01765739,0.237733,0.9677549
0.01818621,0.2406116,0.9596268
0.02148543,0.2435825,0.9598594
0.02428294,0.2456474,0.9637422
0.02488546,0.2454166,0.9625348
0.02373542,0.2452702,0.9650483
0.01737675,0.2427198,0.9679896
0.01356048,0.2402444,0.9673558
0.01532052,0.2386162,0.9713284
0.0150926,0.2366935,0.9779858
0.01145919,0.2395498,0.9779504
0.008636464,0.2410809,0.9716257
0.01050268,0.2389429,0.9678256
0.01188219,0.2386958,0.9692295
0.009796873,0.238995,0.9702468
0.009382441,0.2399404,0.9690378
0.009871149,0.2401613,0.9692679
0.009007209,0.2380899,0.9699002
0.005946312,0.2350344,0.9703355
0.002344306,0.2322374,0.9750448
0.003027571,0.2298186,0.9780704
0.005102295,0.2267459,0.9747388
0.004104789,0.2271904,0.9752891
0.003881446,0.2290081,0.9777411
0.005536442,0.2289569,0.9734019
0.005641892,0.2341926,0.9698379
0.005528608,0.2395137,0.9694631
0.005653672,0.2370687,0.9691252
0.005728078,0.2333677,0.9724711
0.007517459,0.2327202,0.9764289
0.00881391,0.2335835,0.9774184
0.008112076,0.2334703,0.9727574
0.005771085,0.2330456,0.9650055
0.002350078,0.2330255,0.9667958
0.0007300747,0.2311188,0.9725336
0.002144497,0.2304151,0.9739641
0.003576638,0.2313049,0.974446
0.003283199,0.2289692,0.9730322
0.006051078,0.227099,0.9746398
0.009885128,0.2290336,0.9767197
0.00808336,0.2315157,0.9751681
0.006119862,0.2350208,0.9765949
0.007574455,0.2367162,0.9791438
0.00960602,0.2342781,0.9811867
0.01113109,0.2332307,0.9775579
0.009552924,0.2287657,0.9644091
0.004112268,0.2178518,0.9582506
-0.004851867,0.2127162,0.9738896
-0.009407056,0.2205354,0.9913121
0.000430224,0.230719,0.9805419
0.01227441,0.2274357,0.9677843
0.01801123,0.2202576,0.9696791
0.02526223,0.2179345,0.9617107
0.01920034,0.2102837,0.9715216
0.002298799,0.2050719,0.9926014
0.004696111,0.2063861,0.980843
0.01205712,0.2064446,0.9703548
0.007315707,0.204464,0.9712957
-0.001921289,0.2022678,0.96976
-0.0174601,0.2044768,0.9826823
-0.01777856,0.2069826,0.9889912
-0.004448782,0.2118003,0.9843424
-0.002651636,0.2212797,0.9828428
0.003658454,0.2262156,0.9717824
0.01081552,0.2275625,0.963621
0.009324565,0.224932,0.9689815
0.01025315,0.2204313,0.9733652
0.00839606,0.2174581,0.9714516
0.008939228,0.2158635,0.971215
0.01061324,0.2156248,0.9741223
0.008957597,0.208476,0.9741079
0.01032592,0.2033118,0.9801714
0.009422607,0.2034612,0.9873652
0.007989184,0.2019033,0.9858224
0.002198227,0.2072628,0.9859195
-0.005925751,0.2098381,0.9843944
-0.002262005,0.2065342,0.9821715
0.00348416,0.2044352,0.9807759
0.005358296,0.2016345,0.9705335
0.007684781,0.2157176,0.9611479
0.01137925,0.2460622,0.9625355
0.01842291,0.2628772,0.9656252
0.02363105,0.2531418,0.9612265
0.02570511,0.2373189,0.9589609
0.02193861,0.229889,0.9625624
0.01164867,0.2145786,0.9669854
0.01071451,0.2007886,0.9795285
0.01629218,0.2006153,0.9857722
0.01805323,0.2060196,0.9751275
0.02419923,0.2193898,0.9670342
0.02724174,0.2260305,0.9665071
0.02496463,0.2274183,0.9645552
0.02615302,0.2338969,0.9601148
0.02277022,0.2347734,0.9616695
0.02108292,0.2368223,0.9649022
0.02414742,0.2353641,0.962653
0.02333784,0.2299153,0.96153
0.02273206,0.2301439,0.9601656
0.01832098,0.2271871,0.9641573
0.01326006,0.2289727,0.9710422
0.01571152,0.2357873,0.9678602
0.01874789,0.239913,0.9668221
0.02072993,0.2407119,0.9687407
0.02429065,0.2366531,0.9648199
0.02836144,0.2385312,0.9629881
0.02834262,0.2376113,0.9634248
0.02400401,0.2320042,0.9612771
0.01937426,0.2325225,0.9578956
0.01491636,0.2305916,0.9581544
0.01506978,0.2302095,0.9619441
0.01641275,0.228771,0.9642848
0.01418071,0.226755,0.966439
0.01375931,0.2309387,0.9697815
0.009924749,0.2281665,0.9744116
0.002793767,0.2243689,0.9773912
0.002486183,0.2220412,0.9734435
0.006102114,0.2194807,0.9675928
0.009569407,0.2255221,0.962912
0.01044147,0.228536,0.959011
0.008244677,0.2302978,0.9643717
0.007440952,0.2349988,0.9750284
0.004895874,0.233518,0.9779382
0.001538108,0.2326248,0.9786012
0.002361274,0.2333777,0.9806853
0.002542831,0.2313622,0.9757899
0.000785746,0.2289934,0.9689162
0.001703589,0.228512,0.9690789
0.004586696,0.2285636,0.9727534
0.006049541,0.2258533,0.9743877
0.005833406,0.2232876,0.9736315
0.004344114,0.2219067,0.973298
0.001052701,0.2226145,0.9736193
-0.002434741,0.2249586,0.9727451
-0.002244853,0.2251573,0.9721775
-0.0002434973,0.2264097,0.9741747
-0.001923573,0.226056,0.9766498
-0.00279639,0.2228556,0.9766943
-0.002001904,0.222657,0.975416
-0.00210262,0.2226101,0.9727041
0.001883723,0.2237206,0.9689116
0.003989863,0.2269253,0.9695486
0.00204813,0.2266595,0.9746827
0.001657121,0.2259794,0.9773798
-0.0008295971,0.2266733,0.9755476
-0.003020965,0.2262801,0.9732497
-0.002890477,0.2263633,0.9734444
-0.002808361,0.226127,0.9739346
-0.002750042,0.2244954,0.9733499
-0.003900792,0.2231463,0.9742198
-0.004336265,0.2230032,0.9764146
-0.004192716,0.222235,0.9781869
-0.004000259,0.2202976,0.9774171
-0.00312199,0.2215597,0.9748613
-0.002904529,0.224081,0.973502
-0.003405473,0.2235557,0.9704636
-0.00465476,0.2234988,0.9693722
-0.004315647,0.2238288,0.9716099
-0.003516979,0.2233724,0.9683101
-0.00368966,0.2237735,0.9674333
-0.002706408,0.2235833,0.9742304
-0.004341672,0.2233336,0.9787441
-0.006224126,0.2225264,0.9792272
-0.003603018,0.2200096,0.9746387
-0.002121375,0.2188728,0.9714719
-0.003941294,0.2203425,0.978648
-0.005618022,0.2241412,0.9838515
-0.005702603,0.2276164,0.9784603
-0.005458487,0.2268688,0.9740835
-0.00562258,0.224801,0.9767831
-0.006031168,0.2231795,0.977642
-0.008271598,0.2201725,0.9776511
-0.01055131,0.2207847,0.9829045
-0.009270661,0.2237086,0.9832837
-0.005427496,0.2220479,0.9758654
-0.002422416,0.222497,0.9692196
-0.002226271,0.2248113,0.9684452
-0.003179294,0.2228952,0.9731474
-0.002822084,0.2226077,0.974305
-0.002475056,0.2218938,0.9722771
-0.002507865,0.2188943,0.9723471
-4.336232e-05,0.2176424,0.9728503
0.0030727,0.2169884,0.9738071
0.005046492,0.218622,0.9719146
0.007234349,0.221049,0.9696191
0.005854023,0.2248813,0.9704254
0.002988071,0.2303684,0.9705446
0.005086694,0.229935,0.9725672
0.006905767,0.2281468,0.9749971
0.006940441,0.2294293,0.9751934
0.009976788,0.228234,0.976654
0.01142488,0.2264262,0.9760209
0.01068365,0.2273444,0.9708537
0.01146586,0.2290111,0.9660743
0.01087863,0.2296879,0.9677096
0.009798949,0.2299977,0.9754936
0.008737155,0.2310503,0.9801595
0.0067809,0.2325866,0.9780607
0.007747413,0.2332875,0.9732076
0.01170464,0.2314226,0.9664375
0.01651474,0.227972,0.9602224
0.01896792,0.2271997,0.9564945
0.01916377,0.2290639,0.9548418
0.02012651,0.2298095,0.9567891
0.01848677,0.2317285,0.9594523
0.01547837,0.2369941,0.9634732
-0.04461009,0.5302663,0.8565891
-0.059226,0.5340341,0.852266
-0.06204019,0.5312211,0.8484469
-0.06557669,0.5314939,0.8360311
-0.06457303,0.5279415,0.8312232
-0.05981622,0.5260006,0.8339554
-0.05505669,0.5269501,0.8371341
-0.05213978,0.5308038,0.8470808
-0.05636189,0.5335705,0.8577995
-0.05497954,0.5347683,0.8526746
-0.05024152,0.5378939,0.8414261
-0.04910962,0.5374395,0.8412596
-0.05198178,0.5393609,0.8419499
-0.05931484,0.5417561,0.8421184
-0.05869407,0.5402488,0.8441814
-0.05871269,0.5377445,0.8425391
-0.06237952,0.5284142,0.8442026
-0.05598751,0.5236625,0.8460754
-0.05227654,0.5267656,0.8458382
-0.05496995,0.5239621,0.8478219
-0.05633283,0.5212832,0.8472928
-0.05898769,0.5244857,0.8466296
-0.06223642,0.5291625,0.8445762
-0.06419252,0.5314856,0.8386867
-0.06065837,0.5313302,0.8361072
-0.05679065,0.5305445,0.8388074
-0.06023588,0.5299941,0.8427093
-0.06242094,0.5308324,0.8474425
-0.06082974,0.5300264,0.8572339
-0.06176987,0.5299152,0.8615809
-0.06319987,0.5307626,0.8536568
-0.06252998,0.5269048,0.849138
-0.06369665,0.5249704,0.8522306
-0.06715996,0.5261063,0.8558167
-0.06877569,0.5240469,0.8569121
-0.06819587,0.5210275,0.8542114
-0.06764618,0.5189726,0.8499441
-0.06823527,0.5197507,0.8489378
-0.06802897,0.5223569,0.850822
-0.06648977,0.5234309,0.8494887
-0.06486284,0.5252921,0.8477982
-0.06371015,0.5258953,0.8482182
-0.06678548,0.5246588,0.8509413
-0.0717449,0.5278544,0.8559683
-0.07392044,0.5301094,0.8535909
-0.07554127,0.5268232,0.8497232
-0.07502468,0.524804,0.8504186
-0.07260661,0.5247739,0.8478591
-0.07199554,0.5252808,0.8480608
-0.07153825,0.525501,0.8496279
-0.06931998,0.523702,0.8473279
-0.06552346,0.5217537,0.8461212
-0.06419484,0.5216113,0.8444384
-0.06588763,0.5228456,0.8465086
-0.06532087,0.5225371,0.8513522
-0.06450821,0.5235322,0.8506372
-0.06392478,0.5261471,0.8519849
-0.06190188,0.5246796,0.8549279
-0.0631546,0.5236473,0.8505931
-0.06496046,0.5246182,0.8470401
-0.06443278,0.5266974,0.8496351
-0.06490576,0.530576,0.8511176
-0.06298896,0.5296027,0.8504368
-0.05984838,0.5278885,0.8511913
-0.06098878,0.5290325,0.8500916
-0.0618089,0.5270508,0.8475272
-0.06023373,0.5255052,0.8486067
-0.05939778,0.5256934,0.8498999
-0.05805015,0.5273929,0.8510949
-0.05759823,0.5318425,0.8533454
-0.05807061,0.5314603,0.8518551
-0.05628134,0.5293822,0.850154
-0.05516969,0.5317413,0.8468944
-0.05307686,0.5304686,0.8406689
-0.04910413,0.5268114,0.8433667
-0.04951009,0.5266196,0.8496911
-0.04924285,0.528726,0.8521423
-0.04495369,0.5343716,0.8548274
-0.04282592,0.5373494,0.8509218
-0.04293861,0.533133,0.8463681
-0.04465504,0.5306356,0.8491813
-0.04750982,0.5321322,0.8485501
-0.04908448,0.5327231,0.845251
-0.04807331,0.532999,0.8447783
-0.04616266,0.5340584,0.8481077
-0.04577058,0.5339871,0.85432
-0.04203732,0.5333308,0.8536368
-0.03674936,0.5320531,0.8453764
-0.03708098,0.5300133,0.8394153
-0.03799059,0.5309024,0.8408353
-0.03723473,0.5321654,0.8431441
-0.03774915,0.5333191,0.840006
-0.0384152,0.5359484,0.8395817
-0.0394744,0.5345902,0.8410132
-0.04100258,0.534075,0.8387287
-0.04267879,0.5355565,0.8387778
-0.04297199,0.5346902,0.839266
-0.04251448,0.5375159,0.8397975
-0.0458087,0.5391,0.8429229
-0.04774768,0.5340815,0.8443031
-0.04233894,0.529158,0.8444198
-0.03754929,0.5280154,0.8426542
-0.03968109,0.5282874,0.8416992
-0.04494426,0.5271214,0.8463275
-0.04847479,0.5278867,0.8501127
-0.04815881,0.527925,0.8502257
-0.0480628,0.5252567,0.8539291
-0.05088094,0.5249738,0.8606861
-0.05074001,0.5247224,0.8582937
-0.05076146,0.525059,0.8508478
-0.05675585,0.5253473,0.8496592
-0.05985521,0.5244414,0.8494643
-0.05777251,0.5254431,0.8501934
-0.05622435,0.5248958,0.8505828
-0.05519234,0.5252814,0.8490442
-0.05542874,0.5281378,0.8508701
-0.0565123,0.5295455,0.8504874
-0.05915962,0.5288375,0.8489635
-0.06331473,0.5240999,0.847204
-0.06427592,0.5211032,0.8441947
-0.06432437,0.5230364,0.8474565
-0.06550683,0.5242945,0.8516693
-0.06363597,0.5236444,0.854862
-0.06254478,0.5229572,0.8556517
-0.06819372,0.5229394,0.8530407
-0.07354963,0.5208553,0.8573822
-0.07110497,0.5192222,0.8592906
-0.06589301,0.5195682,0.8547419
-0.0636099,0.5183764,0.8537567
-0.063751,0.5195298,0.8537732
-0.06531595,0.523536,0.8546082
-0.06708422,0.5269153,0.8544049
-0.06617512,0.5266366,0.8543254
-0.0621781,0.5224609,0.8556322
-0.06016925,0.5199642,0.8531912
-0.06378953,0.5188398,0.8518988
-0.06927656,0.5192697,0.8506409
-0.07461225,0.5195677,0.8492544
-0.08080961,0.5161659,0.85241
-0.08202583,0.5150124,0.853158
-0.07550135,0.5169822,0.8516783
-0.07033138,0.5185661,0.8538835
-0.07350943,0.5175307,0.8645309
-0.0770207,0.5156071,0.8752828
-0.07397927,0.5169011,0.8655711
-0.07262238,0.5160102,0.8510827
-0.07343788,0.5144395,0.8530642
-0.07480241,0.5166065,0.8548141
-0.07910528,0.5201964,0.8535603
-0.07622359,0.5263169,0.8578257
-0.07113303,0.5290377,0.8585485
-0.07265107,0.5279853,0.8556554
-0.07177554,0.5296243,0.8516545
-0.07016209,0.5291271,0.8484804
-0.06924597,0.5268018,0.852147
-0.06779983,0.5253654,0.8566453
-0.06977136,0.5216117,0.8585444
-0.07398925,0.5183436,0.8565023
-0.07955095,0.517877,0.8527534
-0.07904013,0.5148543,0.8569883
-0.07573868,0.5097937,0.8601206
-0.07884862,0.5129695,0.8566869
-0.07807433,0.5191331,0.853816
-0.07665452,0.5181015,0.8503741
-0.07856647,0.5190101,0.8517812
-0.07539708,0.519883,0.8588701
-0.07434377,0.516585,0.8624381
-0.07557484,0.5192099,0.8613003
-0.07557214,0.5231913,0.8584722
-0.0768037,0.5252167,0.8570686
-0.07538255,0.5248354,0.8541552
-0.07451894,0.5188517,0.8503003
-0.07523316,0.516109,0.8537101
-0.07487788,0.5152394,0.8574178
-0.07476727,0.5159919,0.8551694
-0.07291931,0.521616,0.8548366
-0.07082175,0.5220017,0.8549501
-0.07060732,0.5177152,0.8502055
-0.07221109,0.5150255,0.8426067
-0.07449262,0.5199152,0.8374244
-0.07531816,0.528071,0.8420958
-0.07487574,0.5270051,0.8499371
-0.07235847,0.5278421,0.8490407
-0.06869634,0.5304993,0.8478721
-0.06547474,0.5252879,0.850324
-0.06465216,0.5234276,0.8498548
-0.06699223,0.5244321,0.8500486
-0.06870887,0.5238956,0.8503792
-0.06983579,0.5230066,0.850833
-0.06889175,0.5212717,0.8538822
-0.06227076,0.5235853,0.8527957
-0.05075872,0.5279329,0.8432246
-0.04276608,0.5313799,0.8277022
-0.04958254,0.530489,0.8222222
-0.05840081,0.5256277,0.8361739
-0.05712885,0.5258883,0.8536133
-0.05847499,0.5248128,0.8627884
-0.06173453,0.520349,0.8642369
-0.06371971,0.519804,0.8695906
-0.0661445,0.519846,0.874272
-0.05747266,0.5229244,0.8512031
-0.04644728,0.5270375,0.82625
-0.04720765,0.5290504,0.8307155
-0.04612204,0.5366308,0.8312794
-0.0421762,0.542948,0.8261192
-0.04539163,0.539417,0.8341233
-0.04737977,0.5355076,0.8306615
-0.0513278,0.532984,0.82723
-0.06035132,0.522406,0.8475177
-0.0592938,0.5132099,0.86324
-0.05638317,0.5150566,0.8620825
-0.05853171,0.5160468,0.8575998
-0.05453781,0.5159441,0.8529593
-0.05030503,0.5223327,0.8443689
-0.04844796,0.5304288,0.8372938
-0.0492893,0.5355144,0.8419949
-0.0530206,0.5382006,0.8440573
-0.04991919,0.540149,0.8414294
-0.04669008,0.5396569,0.8430732
-0.04518602,0.5393173,0.8387539
-0.03962049,0.5385599,0.8364006
-0.03886632,0.5346266,0.8387057
-0.04421419,0.5357737,0.841126
-0.05121055,0.5369553,0.8477786
-0.05543935,0.5329179,0.8494825
-0.05702238,0.53122,0.8483737
-0.06217253,0.5289736,0.8477554
-0.06467347,0.5265332,0.8468656
-0.0632821,0.5228467,0.8497487
-0.06234832,0.5179874,0.85152
-0.05768512,0.5226492,0.8535762
-0.05399369,0.5272905,0.8553444
-0.05543869,0.523326,0.8559658
-0.05625284,0.5218261,0.8567194
-0.05518362,0.5235467,0.8534631
-0.05539933,0.5269117,0.854183
-0.05597875,0.5344992,0.8622127
-0.0548617,0.5427295,0.8765995
-0.0534612,0.5520418,0.8955494
-0.0496036,0.5566574,0.8925872
-0.04353023,0.542005,0.8437662
-0.04105361,0.5190449,0.7740267
-0.05023624,0.5098822,0.755506
-0.07967959,0.5141773,0.8080625
-0.1028675,0.5256619,0.8543735
-0.08361139,0.5385397,0.8531011
-0.05918234,0.5434952,0.8358733
-0.06859397,0.5412348,0.8276292
-0.07212282,0.5410584,0.8380434
-0.06372707,0.5425701,0.8481123
-0.0705844,0.5404088,0.84105
-0.07148714,0.5380178,0.8397814
-0.07206272,0.5359303,0.8452339
-0.08254292,0.5367975,0.8492859
-0.08527803,0.5407126,0.8592025
-0.08664326,0.5386502,0.8588443
-0.08070081,0.5370914,0.8460221
-0.07450289,0.5354147,0.8399225
-0.07913755,0.5289179,0.8411851
-0.07685678,0.5304012,0.8444834
-0.07647971,0.5345917,0.8440926
-0.07901212,0.5342217,0.839347
-0.07800625,0.5331635,0.8380785
-0.08029198,0.5292477,0.8439184
-0.08071535,0.5287954,0.8516275
-0.08234204,0.5334442,0.849622
-0.08239202,0.5383049,0.8471058
-0.08025533,0.5414221,0.8503943
-0.0819297,0.5373412,0.8418833
-0.08182118,0.5325258,0.8341516
-0.08210685,0.5334882,0.8400238
-0.08205994,0.5345656,0.8429733
-0.08151354,0.5357187,0.8433103
-0.08248647,0.5368359,0.8456156
-0.08172727,0.5367641,0.845403
-0.08292957,0.5370298,0.8422786
-0.08363969,0.5340042,0.8388673
-0.08162352,0.5294253,0.8370013
-0.07917033,0.5291528,0.8373198
-0.07743019,0.5296413,0.8413025
-0.08237483,0.5288892,0.8450778
-0.09035367,0.5299773,0.8492038
-0.09233124,0.5301713,0.8529479
-0.08703565,0.5286633,0.8503948
-0.08151226,0.5290684,0.8495867
-0.08186775,0.5296547,0.8532201
-0.08077997,0.5298251,0.8541678
-0.07764315,0.5309013,0.8501171
-0.07862493,0.5307128,0.843221
-0.07947775,0.5302503,0.8409336
-0.08157111,0.5305637,0.8419209
-0.08567741,0.5294814,0.8424914
-0.08504987,0.5278884,0.8465175
-0.08382257,0.5276994,0.8517412
-0.08455326,0.5287095,0.8524656
-0.08379301,0.5297106,0.8497151
-0.08471793,0.5300848,0.8469359
-0.08553667,0.5304491,0.8435875
-0.08501813,0.5299253,0.8428009
-0.08604751,0.5288394,0.8431127
-0.08372928,0.5303324,0.8406074
-0.08054715,0.5329754,0.8474777
-0.08169019,0.5333337,0.8568127
-0.08015444,0.5310912,0.8526647
-0.07544935,0.52714,0.8510025
-0.07413986,0.5259333,0.853305
-0.07609122,0.5298322,0.846506
-0.07968199,0.5342836,0.840663
-0.08306811,0.5346983,0.8413813
-0.08130959,0.5297138,0.8437228
-0.07472179,0.5243388,0.8469103
-0.07105716,0.5242644,0.8496812
-0.07373417,0.5262031,0.8505523
-0.07747926,0.5278852,0.8516055
-0.07769051,0.5317122,0.8511144
-0.07806832,0.5342096,0.8415577
-0.07886757,0.5339009,0.8343328
-0.0753016,0.5344364,0.8417243
-0.07181799,0.5319049,0.8468601
-0.06769707,0.526307,0.8455813
-0.06171547,0.5248787,0.8489489
-0.06322857,0.5259443,0.8513249
-0.0656646,0.5265817,0.8512046
-0.06394082,0.5264554,0.8516455
-0.06718967,0.525157,0.8500637
-0.07123132,0.5252428,0.8483918
-0.07215382,0.5269407,0.8469207
-0.07115563,0.5293728,0.845993
-0.06857981,0.53068,0.8475142
-0.07105114,0.5307008,0.847665
-0.07317161,0.5325577,0.8465246
-0.06854241,0.5333315,0.8465508
-0.06533952,0.5306584,0.8456609
-0.06488146,0.5282255,0.8452899
-0.06556174,0.5297272,0.8453797
-0.06747248,0.5343864,0.8439722
-0.06874673,0.5370514,0.8446051
-0.07108412,0.536526,0.8470472
-0.07348956,0.5349994,0.84903
-0.07600469,0.5334693,0.8501228
-0.07827915,0.5315689,0.8491776
-0.07632636,0.5304001,0.85025
-0.07375073,0.5290383,0.8534805
-0.07423305,0.5242661,0.8539093
-0.07517747,0.5232183,0.8517964
-0.07651377,0.5238257,0.8479024
-0.07863345,0.5199864,0.8441301
-0.07803371,0.523877,0.8416225
-0.07735691,0.5292617,0.8435674
-0.08034876,0.5274323,0.8509003
-0.08225311,0.5287392,0.8528661
-0.08385973,0.5269032,0.8522834
-0.0847864,0.5205606,0.8539804
-0.08092829,0.5206236,0.8509421
-0.07834571,0.5239525,0.8514553
-0.08069515,0.5259313,0.8570969
-0.08315335,0.5263063,0.8571199
-0.08190389,0.5269979,0.8520612
-0.08158901,0.5277594,0.848441
-0.08447926,0.5241654,0.850937
-0.0849438,0.5207448,0.8515686
-0.08457771,0.5222074,0.8462575
-0.08372323,0.5228708,0.8434167
-0.08186336,0.5220839,0.8463653
-0.08194708,0.5237292,0.8540778
-0.08181136,0.5239818,0.8589058
-0.08201085,0.5216083,0.8569028
-0.08243659,0.5221102,0.8542497
-0.083435,0.5246431,0.8539423
-0.08592998,0.5245749,0.8552189
-0.08655728,0.5214848,0.8584567
-0.0868748,0.5182726,0.8611684
-0.08402163,0.5191345,0.8540121
-0.07756382,0.521321,0.843867
-0.07761736,0.5207583,0.8458693
-0.08295785,0.5216717,0.8523389
-0.08593257,0.5228548,0.8569753
-0.08490961,0.521881,0.8596357
-0.08283195,0.5222974,0.855756
-0.08273458,0.5225125,0.8510917
-0.08266281,0.5228969,0.8481286
-0.08338251,0.5235871,0.8443285
-0.08486376,0.5208635,0.8444131
-0.08433779,0.5188301,0.8475545
-0.0839402,0.521084,0.8492365
-0.08323363,0.5232766,0.8489562
-0.08267277,0.5220083,0.8484179
-0.08299567,0.520765,0.8505838
-0.08143824,0.5211179,0.8527184
-0.08202174,0.5203399,0.8538446
-0.08435649,0.5199822,0.8562915
-0.08475046,0.5194356,0.8558381
-0.08529366,0.5193049,0.8533912
-0.08535418,0.5217327,0.8516084
-0.08624856,0.5225982,0.849123
-0.086107,0.5222384,0.8510199
-0.08278483,0.5218414,0.8579654
-0.08145132,0.5206357,0.8626148
-0.08173334,0.5209422,0.8598015
-0.08181296,0.5225522,0.8518942
-0.08029175,0.523558,0.848404
-0.07857579,0.5229141,0.8500039
-0.08111586,0.5233466,0.8502812
-0.0827867,0.5243237,0.8484188
-0.08177074,0.5234842,0.8454602
-0.08127379,0.5250396,0.8435933
-0.0789913,0.5262273,0.8433827
-0.07559673,0.5260416,0.8431216
-0.07596971,0.5285014,0.8436055
-0.07969166,0.5282753,0.8467859
-0.08000243,0.5267575,0.8509537
-0.07926049,0.5273892,0.8516146
-0.08091196,0.5259524,0.8520048
-0.07887893,0.5250341,0.8544234
-0.07672666,0.5251581,0.8543679
-0.07786153,0.5234901,0.8528504
-0.07617744,0.5225999,0.8490025
-0.07070257,0.5218666,0.84443
-0.06450584,0.5210488,0.8472017
-0.06283959,0.5215211,0.8518604
-0.06614032,0.5236932,0.8524784
-0.0671484,0.5288355,0.8530865
-0.06444761,0.531368,0.8476111
-0.06229339,0.5303401,0.8384228
-0.06224676,0.5317467,0.8411707
-0.06269202,0.5337396,0.8465244
-0.06247594,0.5363439,0.8445164
-0.06242184,0.5393667,0.8451339
-0.06258642,0.538655,0.8458389
-0.06246206,0.5358951,0.8451519
-0.06194693,0.5336402,0.8466016
-0.05986822,0.5326757,0.8457388
-0.05782705,0.5319495,0.8466017
-0.05981737,0.5314237,0.8488057
-0.06229434,0.5319539,0.8477526
-0.06116232,0.5302068,0.8483143
-0.06149945,0.5282884,0.8514752
-0.0618793,0.5300147,0.8565203
-0.05523377,0.5329906,0.8595331
-0.0492488,0.5351877,0.855589
-0.05270415,0.5334944,0.8494254
-0.05633317,0.5311013,0.8446312
-0.05445881,0.5351161,0.8419913
-0.05487132,0.5395375,0.8404631
-0.05464538,0.5401238,0.8383509
-0.05053161,0.5413639,0.8407465
-0.05100774,0.541686,0.848419
-0.05093991,0.5397458,0.851737
-0.04444817,0.5376326,0.8438494
-0.04007295,0.5351092,0.8356146
-0.04099976,0.5326753,0.8406012
-0.04331403,0.5326829,0.846191
-0.04421733,0.5344288,0.8435766
-0.04731153,0.5348116,0.8436993
-0.05069381,0.5353285,0.8414334
-0.05084291,0.5352511,0.8359592
-0.05449123,0.5343797,0.8386876
-0.05589808,0.5377819,0.8444046
-0.05285369,0.5394892,0.8477858
-0.05256017,0.5354739,0.8447869
-0.05100219,0.5319363,0.8393395
-0.05091797,0.5302585,0.844226
-0.05209589,0.530614,0.8493138
-0.05177866,0.5306825,0.850532
-0.0569095,0.5300725,0.8559738
-0.06463691,0.5300169,0.859841
-0.06870314,0.5291967,0.8607935
-0.06836989,0.5317438,0.8558367
-0.06771718,0.534572,0.8463388
-0.06934203,0.5328768,0.8424037
-0.06903327,0.5309819,0.8412739
-0.06678053,0.528875,0.8470956
-0.06413938,0.5257904,0.8565962
-0.06335078,0.5236546,0.8527522
-0.06461216,0.5240164,0.8477306
-0.06547145,0.5256182,0.8503322
-0.06760775,0.5250817,0.8515102
-0.06880469,0.5246195,0.8550608
-0.06966419,0.5252935,0.8545819
-0.07157978,0.5249412,0.8479039
-0.07081551,0.5248763,0.8467906
-0.07071479,0.5255296,0.8465998
-0.07202632,0.5266774,0.8454428
-0.07229988,0.5276124,0.8444842
-0.07331379,0.5244986,0.8439388
-0.0777134,0.5206106,0.8484366
-0.08684389,0.5220708,0.85266
-0.09146134,0.5234856,0.8596554
-0.08765697,0.5236738,0.866915
-0.08386031,0.5276266,0.8632504
-0.07949919,0.5297597,0.8588281
-0.07593067,0.5287857,0.8573397
-0.07765173,0.528472,0.8560145
-0.07680074,0.5240244,0.8572294
-0.07410879,0.5170644,0.8561759
-0.07819827,0.5156675,0.8545233
-0.08256174,0.5188796,0.8538322
-0.08317155,0.5203455,0.8514129
-0.08448668,0.5191452,0.8507376
-0.08535678,0.5199836,0.8519819
-0.08645121,0.5233391,0.852818
-0.08749842,0.5256715,0.8556558
-0.08463256,0.5244358,0.8590327
-0.08041853,0.5216718,0.8585915
-0.080328,0.5221223,0.8575099
-0.08375958,0.5226199,0.8566791
-0.08583298,0.5217784,0.8526129
-0.08658566,0.5225063,0.8464436
-0.08774018,0.5221968,0.8415126
-0.08833824,0.5214865,0.844214
-0.08993329,0.5198435,0.8525234
-0.09191149,0.5171594,0.8551854
-0.08915972,0.5187387,0.8524712
-0.08374541,0.5202211,0.8504344
-0.08237834,0.5181736,0.8513577
-0.08208801,0.5178365,0.8530624
-0.08128279,0.519676,0.8524826
-0.08248235,0.522567,0.8514506
-0.08224529,0.5251927,0.8459015
-0.08371118,0.5245387,0.8398768
-0.08758367,0.5223798,0.846245
-0.08804652,0.5209424,0.8543643
-0.08828619,0.5189785,0.8539981
-0.08931885,0.5186096,0.8538022
-0.09036863,0.5193011,0.8548603
-0.09319995,0.5175611,0.8540658
-0.09490479,0.5167412,0.8514831
-0.09204588,0.5143217,0.8457083
-0.08603793,0.5094348,0.8438805
-0.08380053,0.5125739,0.8525672
-0.08656892,0.519861,0.8600629
-0.08807379,0.5235786,0.8588488
-0.08574488,0.5254344,0.8562367
-0.08398166,0.5237547,0.8523916
-0.08674812,0.5217866,0.8472762
-0.08841631,0.5200899,0.8492731
-0.0871911,0.5156488,0.8535988
-0.08744181,0.5134486,0.8509574
-0.08762268,0.5128658,0.8520241
-0.08707732,0.5118526,0.8609091
-0.0857388,0.5108392,0.8664535
-0.0850318,0.5099949,0.8652362
-0.08904481,0.5140219,0.8573649
-0.09336468,0.5191791,0.8513957
-0.09205089,0.5211765,0.8533868
-0.0905455,0.5259271,0.8554687
-0.09181635,0.5291761,0.8542848
-0.08872528,0.5235198,0.8513605
-0.08429465,0.5180836,0.8513629
-0.08448842,0.5177257,0.8528311
-0.08481684,0.5166267,0.8533419
-0.08544868,0.518022,0.8551275
-0.08834937,0.5206662,0.8538372
-0.09047898,0.5188526,0.8537968
-0.08699997,0.5176589,0.8543996
-0.08085714,0.5187148,0.8507318
-0.08138873,0.5212837,0.8499563
-0.08233173,0.5234643,0.8518668
-0.07859032,0.5218863,0.8549551
-0.07719349,0.5221699,0.8544451
-0.07795888,0.5246252,0.8494471
-0.07984334,0.5247808,0.848182
-0.08114752,0.5233052,0.8460978
-0.08042009,0.5205827,0.8442654
-0.08035373,0.5204221,0.8467181
-0.07967251,0.5225325,0.8490594
-0.07870953,0.5232602,0.8519293
-0.07787171,0.5248266,0.8546565
-0.0756152,0.5256355,0.8551617
-0.07297281,0.5255706,0.8513631
-0.0703256,0.526988,0.8471603
-0.06806402,0.527381,0.8500799
-0.06777109,0.5277507,0.8530297
-0.07035435,0.5288472,0.8501902
-0.07243993,0.5310364,0.8473611
-0.07227528,0.53451,0.8454543
-0.07192955,0.533527,0.8458531
-0.07032128,0.5303275,0.8511342
-0.06873942,0.5296987,0.8538807
-0.06757318,0.5287751,0.8516617
-0.06351796,0.5289779,0.8499278
-0.05980378,0.5300293,0.8496828
-0.06151905,0.53053,0.8504496
-0.0638807,0.5322428,0.850843
-0.06201067,0.5305719,0.8512987
-0.06226464,0.5280347,0.8498448
-0.06417945,0.5303528,0.8438764
-0.06354275,0.5310251,0.8412205
-0.06416558,0.5292531,0.846712
-0.06376727,0.5290203,0.8520803
-0.06260861,0.5294467,0.8485741
-0.06272356,0.5310851,0.8450576
-0.06150816,0.5315658,0.8482465
-0.06008531,0.5274185,0.8472894
-0.05763529,0.5224836,0.8454143
-0.05813693,0.5230543,0.8471868
-0.06245434,0.5257514,0.8488127
-0.06451121,0.5256661,0.851935
-0.06656607,0.526747,0.8485593
-0.06812394,0.5279362,0.8429745
-0.06951128,0.528476,0.8454512
-0.07084801,0.5306437,0.8477205
-0.06995019,0.5298681,0.850369
-0.07109844,0.5285493,0.8524177
-0.06972802,0.5294246,0.8505204
-0.06795178,0.5291015,0.8532803
-0.070684,0.5291567,0.8573677
-0.06973488,0.5286961,0.8593255
-0.07147277,0.5263624,0.8594801
-0.07542861,0.5243435,0.8538937
-0.07350811,0.5245327,0.8502638
-0.07555561,0.5257004,0.8510225
-0.08020746,0.5252496,0.8512861
-0.08094471,0.5274501,0.8498198
-0.07927021,0.5299418,0.8459971
-0.07575213,0.5263784,0.8448952
-0.07437846,0.5237189,0.8449672
-0.0751077,0.5251164,0.8456079
-0.07610859,0.525443,0.8499508
-0.07686118,0.5244796,0.8539733
-0.07766557,0.5240995,0.8562862
-0.08117194,0.5235946,0.8521427
-0.08462611,0.5232279,0.8479585
-0.08497114,0.5235822,0.8515915
-0.08276468,0.5221611,0.8528738
-0.08115669,0.5221759,0.8556925
-0.08208303,0.5260695,0.8621647
-0.08214997,0.5266206,0.8637604
-0.08171734,0.5224308,0.8630612
-0.08206381,0.5199702,0.8601726
-0.08192048,0.5224608,0.8554298
-0.08282092,0.5246752,0.853014
-0.0867842,0.5208565,0.8491471
-0.09202949,0.5134942,0.842314
-0.09222634,0.5092924,0.8430078
-0.0877735,0.5167183,0.8467545
-0.08503322,0.5264329,0.8432763
-0.08422737,0.5224287,0.8449343
-0.08483389,0.5194968,0.8511248
-0.08600909,0.522454,0.8559136
-0.08587629,0.518367,0.860871
-0.08538433,0.519333,0.85712
-0.08442901,0.5256357,0.8525847
-0.08461347,0.5259842,0.8519828
-0.08608107,0.5239474,0.8516514
-0.08610652,0.5182873,0.8545804
-0.08618199,0.5170106,0.8482452
-0.08598841,0.5220412,0.8417352
-0.085007,0.522267,0.8487757
-0.08451776,0.5215553,0.8518236
-0.08375826,0.5201367,0.8500308
-0.08484578,0.5185371,0.8525755
-0.08853118,0.5185923,0.8559633
-0.09142108,0.5180359,0.854647
-0.09068043,0.5204638,0.8494327
-0.08952883,0.5208054,0.8478595
-0.09152785,0.5212181,0.848879
-0.09099499,0.5242717,0.8506175
-0.08866111,0.5224037,0.8520564
-0.08835096,0.5214907,0.8517156
-0.08610617,0.5204338,0.8540717
-0.08416391,0.5165223,0.8573207
-0.08537109,0.5152453,0.8593448
-0.08677612,0.5140604,0.8591245
-0.0860071,0.5138857,0.8551861
-0.08470135,0.5152196,0.8537816
-0.08527399,0.5173771,0.855551
-0.08628047,0.5196591,0.8553505
-0.08801335,0.5184144,0.8539748
-0.08821157,0.5167938,0.8534713
-0.08756376,0.5164003,0.8518447
-0.08964271,0.5167897,0.8473799
-0.0885321,0.5183833,0.8452316
-0.0855356,0.5207154,0.8503497
-0.08455618,0.5232791,0.8548816
-0.08425462,0.5220503,0.852451
-0.08618483,0.5196997,0.8510433
-0.08620997,0.519314,0.8518984
-0.08482239,0.5181724,0.8510066
-0.08522705,0.5183542,0.8516018
-0.08610203,0.5200593,0.8525325
-0.08831343,0.5221051,0.852901
-0.08762332,0.5226059,0.8539997
-0.08527674,0.519929,0.8529431
-0.08380684,0.5189285,0.8480107
-0.08081568,0.5195534,0.8432562
-0.08179679,0.5194435,0.8472883
-0.08396104,0.5195292,0.8536476
-0.08375175,0.5193019,0.8512474
-0.08531108,0.5197085,0.8507112
-0.08469906,0.5203835,0.85433
-0.08309052,0.5214787,0.8535537
-0.08269927,0.5239967,0.8516447
-0.08131752,0.5261853,0.8496421
-0.0814388,0.5262163,0.851042
-0.07928483,0.5239844,0.853931
-0.07472663,0.5229334,0.8484233
-0.07405066,0.5225447,0.8409946
-0.07395625,0.5223661,0.8392996
-0.07286967,0.5249498,0.8470462
-0.07255966,0.5259248,0.856698
-0.07036531,0.5251902,0.8522902
-0.06810461,0.5232839,0.8486948
-0.06855945,0.5201988,0.8534033
-0.06969063,0.5217595,0.8520307
-0.07121966,0.5229005,0.8516466
-0.07125272,0.5217439,0.8495732
-0.0690211,0.5225228,0.8378713
-0.06782642,0.522975,0.8333548
-0.06405089,0.5262898,0.8420154
-0.05913682,0.5294905,0.8503295
-0.05935084,0.5283992,0.8495963
-0.06074488,0.5296757,0.8488393
-0.06318502,0.5326348,0.852102
-0.06659529,0.5320411,0.8493377
-0.06650958,0.529184,0.8469968
-0.06516267,0.5291271,0.8461804
-0.06137257,0.5310653,0.8409898
-0.05433267,0.5312228,0.842532
-0.05142863,0.5317826,0.8485925
-0.05225023,0.5306442,0.8503362
-0.05308767,0.5283499,0.8491852
-0.05744134,0.531043,0.8479375
-0.05991942,0.5330496,0.8489066
-0.05751531,0.5317099,0.8484847
-0.05834361,0.5327631,0.8474505
-0.05879179,0.5338308,0.8469388
-0.05775628,0.5332547,0.8450278
-0.05877736,0.5330482,0.8442699
-0.05761521,0.5325038,0.844143
-0.0555655,0.5313611,0.8448294
-0.05433793,0.5294145,0.8458524
-0.05708596,0.5262186,0.8474791
-0.06259179,0.5238791,0.8500196
-0.06455808,0.5251417,0.8504142
-0.06879786,0.5265494,0.8523917
-0.07147023,0.5260771,0.8532961
-0.06842856,0.5268431,0.8494021
-0.07025156,0.5273011,0.8478922
-0.07178198,0.5277486,0.8486087
-0.06896812,0.5282698,0.8487954
-0.06835635,0.5269578,0.8488112
-0.06696572,0.5261123,0.849265
-0.06608997,0.5246865,0.8501842
-0.06778029,0.5242082,0.8482029
-0.07060124,0.5245088,0.8465553
-0.07598349,0.5213852,0.8482394
-0.07777157,0.5209049,0.8490906
-0.07639268,0.5229573,0.8487273
-0.07993624,0.5225348,0.849493
-0.08303353,0.5245131,0.8513382
-0.07990397,0.5292917,0.8506867
-0.07596019,0.530897,0.8457895
-0.07518449,0.52612,0.8422157
-0.07497583,0.5217745,0.8461764
-0.07474491,0.5245047,0.852324
-0.0756435,0.5262073,0.8528407
-0.07667508,0.5243394,0.8528625
-0.07821794,0.524964,0.8495563
-0.07893659,0.5252242,0.8405145
-0.08089172,0.5237136,0.8404666
-0.08563169,0.5233296,0.8443486
-0.08571842,0.5230413,0.8438661
-0.08451654,0.523378,0.8475577
-0.08678301,0.5237545,0.8501765
-0.08521836,0.5219563,0.8499722
-0.08271105,0.5215759,0.8528244
-0.0826559,0.5228236,0.8561332
-0.08206682,0.5221039,0.8587285
-0.08450781,0.5219448,0.8564136
-0.08730328,0.5222378,0.8523042
-0.08627394,0.5202168,0.8546334
-0.08616912,0.5188816,0.8564762
-0.08670102,0.5194176,0.854833
-0.08602964,0.5196381,0.8534563
-0.08744953,0.5190238,0.8501709
-0.08825184,0.5179232,0.8476754
-0.08575997,0.5180377,0.8486446
-0.08490347,0.5200765,0.8504034
-0.08524481,0.5218098,0.8528647
-0.08601403,0.5222649,0.8549253
-0.08844554,0.5224459,0.8542887
-0.08767714,0.5218129,0.8525404
-0.08695416,0.5205931,0.8518192
-0.08904178,0.5209516,0.8521216
-0.08872561,0.5227825,0.8555569
-0.08796269,0.5245546,0.8588401
-0.08738318,0.5235489,0.852453
-0.0867639,0.5170569,0.8462255
-0.08619237,0.51043,0.852996
-0.08393106,0.5136556,0.8601789
-0.08460567,0.5205805,0.8599054
-0.08633549,0.5195191,0.8587215
-0.08637192,0.5188095,0.8580495
-0.08903933,0.5203439,0.8581694
-0.09108483,0.5186871,0.8577795
-0.09036723,0.5197194,0.8536531
-0.08979609,0.5195543,0.8503594
-0.08945421,0.517894,0.8528336
-0.0886211,0.5184721,0.8558895
-0.0876501,0.5180641,0.8559595
-0.08754305,0.5207748,0.8577738
-0.08719523,0.5223932,0.858949
-0.08656369,0.5201453,0.8550729
-0.08624571,0.5192465,0.8531678
-0.08663768,0.5166764,0.854451
-0.08775153,0.5147124,0.8534958
-0.08560875,0.5168707,0.849833
-0.08281817,0.5191128,0.8439429
-0.08384588,0.518263,0.8422293
-0.0866367,0.5189873,0.8489191
-0.09093541,0.5239521,0.8588995
-0.09287649,0.5268366,0.8668242
-0.09161656,0.5314471,0.8710326
-0.09325286,0.5428709,0.8739799
-0.09391027,0.5482451,0.8679331
-0.08676573,0.5326667,0.8546017
-0.07664793,0.5091437,0.8501185
-0.07064048,0.503603,0.8377634
-0.06596047,0.5081082,0.8202063
-0.06054636,0.507917,0.8294605
-0.05733984,0.5126977,0.8430713
-0.05564082,0.5271724,0.8485356
-0.05351815,0.5368888,0.8569502
-0.04368127,0.5282434,0.8489396
-0.02890578,0.518857,0.8359287
-0.02737839,0.5247035,0.8301973
-0.03839763,0.532101,0.8289605
-0.05353516,0.5365752,0.8426982
-0.06587144,0.5329464,0.8500022
-0.06223318,0.5219354,0.848088
-0.05467061,0.5242292,0.8497094
-0.05694406,0.662342,0.7500234
-0.0563154,0.6597824,0.7556888
-0.05250501,0.6572682,0.757716
-0.04997123,0.6555412,0.7562644
-0.05129561,0.6574596,0.7540805
-0.04897384,0.6612316,0.7527471
-0.04648622,0.6585475,0.7528968
-0.05078516,0.6556421,0.7558023
-0.05721895,0.6584722,0.7569523
-0.05872459,0.6630493,0.7544729
-0.05345446,0.6668865,0.7553223
-0.04772174,0.665692,0.755542
-0.04792294,0.6640142,0.7529405
-0.04923005,0.6661828,0.7548608
-0.04740131,0.6650254,0.7563795
-0.04660779,0.6638073,0.7561978
-0.04642305,0.6643764,0.7549584
-0.04455411,0.6632598,0.7503541
-0.04442951,0.6638295,0.750883
-0.04639715,0.6622937,0.7527511
-0.04669285,0.66023,0.7525411
-0.04204991,0.662324,0.7559391
-0.03682801,0.6623522,0.7558101
-0.03866356,0.6596965,0.7527074
-0.04109551,0.6580464,0.7508828
-0.03967956,0.6608202,0.749115
-0.04040198,0.664986,0.7501116
-0.04044989,0.6639987,0.7516439
-0.03866951,0.6633477,0.7557863
-0.03775994,0.6641916,0.7597616
-0.03525748,0.6627657,0.7497318
-0.03352687,0.6620406,0.7396021
-0.03228154,0.6607506,0.7505445
-0.02971666,0.6564122,0.762571
-0.03075549,0.6532484,0.7589514
-0.03405294,0.6567891,0.7551735
-0.03607689,0.6619769,0.754137
-0.03668352,0.6613713,0.7523574
-0.03581375,0.6609463,0.7512041
-0.03600426,0.6633455,0.7456182
-0.03641498,0.6640163,0.7442023
-0.03567557,0.6630397,0.7482548
-0.03529942,0.6610824,0.7496664
-0.03453698,0.6605238,0.7542338
-0.03462544,0.6605994,0.7560407
-0.03597169,0.6592317,0.7551667
-0.03621752,0.6596435,0.7580592
-0.03614671,0.6600581,0.7539455
-0.03682269,0.6599463,0.7473635
-0.03958737,0.66256,0.7460386
-0.04253769,0.6647074,0.7496573
-0.04022313,0.6642876,0.7570859
-0.03749393,0.6642889,0.756915
-0.04043614,0.665572,0.756715
-0.0455961,0.664137,0.760815
-0.04958187,0.6603761,0.7546512
-0.0478866,0.6591688,0.7477883
-0.04386486,0.6596034,0.7486211
-0.04679903,0.6599654,0.7516203
-0.05039071,0.6597343,0.7574664
-0.05129677,0.6594604,0.761335
-0.05245123,0.6600221,0.7591326
-0.05102717,0.6594049,0.7543534
-0.05295971,0.6589177,0.7521946
-0.05559959,0.6592041,0.754308
-0.05380749,0.6596152,0.7565122
-0.05599638,0.6598498,0.7554124
-0.05768662,0.6576188,0.7530294
-0.0557286,0.6563229,0.7541651
-0.0555277,0.6578057,0.7597638
-0.05644591,0.6605369,0.7658186
-0.05841667,0.6641435,0.7635177
-0.05859186,0.6655559,0.7560078
-0.05770337,0.6657649,0.7532247
-0.05663015,0.662842,0.7477139
-0.0535356,0.6566713,0.7441088
-0.05201674,0.6566231,0.749765
-0.05207092,0.6580694,0.7527152
-0.05601322,0.6561848,0.7529432
-0.06284695,0.6580223,0.7520416
-0.06362455,0.6590887,0.7507396
-0.06154249,0.6580846,0.7531181
-0.0615384,0.6604245,0.7549106
-0.06023007,0.6613013,0.7576424
-0.05937625,0.6593081,0.7611275
-0.06175702,0.6580555,0.7619497
-0.06321346,0.6598289,0.7578868
-0.06238703,0.6622911,0.7518272
-0.06233876,0.6611071,0.7550297
-0.06263227,0.6615336,0.7592905
-0.06230476,0.6628309,0.7576405
-0.06138366,0.6593728,0.7586854
-0.05997256,0.6561189,0.7590538
-0.05936799,0.6548446,0.7607951
-0.0599389,0.6544406,0.7657224
-0.06149328,0.6566551,0.7654294
-0.06479563,0.6587865,0.7630656
-0.06808395,0.656033,0.7617961
-0.06786363,0.6525201,0.7604196
-0.06745637,0.6544979,0.7591105
-0.06873253,0.6559785,0.7553332
-0.06714055,0.6559157,0.7488216
-0.06417882,0.6579013,0.7447544
-0.06227938,0.6578131,0.7508606
-0.06346287,0.6584878,0.7587921
-0.06675644,0.6609616,0.7586381
-0.06526487,0.6618222,0.7620676
-0.06472616,0.6622284,0.7651412
-0.06821139,0.6600633,0.7564018
-0.06902143,0.6570127,0.7472564
-0.06979765,0.6552085,0.7445589
-0.06894817,0.6546865,0.7478902
-0.06527906,0.6572548,0.7529808
-0.06371972,0.6599758,0.7531655
-0.0651808,0.6625348,0.7530639
-0.06879786,0.6602416,0.7519331
-0.06852957,0.6548658,0.7489375
-0.06714199,0.6596986,0.7503767
-0.06862926,0.6633804,0.7532207
-0.06653406,0.6598865,0.7546297
-0.06420188,0.6612583,0.7547286
-0.06286824,0.6615752,0.7545276
-0.06167736,0.6599464,0.7560476
-0.06250771,0.6589396,0.7550867
-0.05975134,0.6555105,0.7521801
-0.05792607,0.6548371,0.7530313
-0.06203733,0.6549712,0.7570408
-0.06468462,0.6562288,0.7583149
-0.06151266,0.6605894,0.7560478
-0.05799226,0.6608434,0.7562698
-0.05977069,0.6615157,0.7550459
-0.0595812,0.6652357,0.7511941
-0.0568153,0.6638314,0.7527629
-0.05657629,0.6611636,0.7536273
-0.05345383,0.6612536,0.7519311
-0.05136096,0.6607823,0.7531891
-0.05251343,0.6610206,0.7524854
-0.05110568,0.6604734,0.7506346
-0.0509939,0.6592223,0.7507569
-0.0519012,0.660806,0.7539694
-0.0511065,0.6615497,0.7588036
-0.05138584,0.6609186,0.7573793
-0.05155995,0.6606328,0.7549004
-0.05120161,0.658212,0.7543261
-0.05077961,0.6552787,0.7503441
-0.04746,0.6549472,0.751723
-0.04288375,0.6567392,0.755971
-0.04252503,0.6591326,0.7535616
-0.04540707,0.6618571,0.7521562
-0.04620998,0.6617528,0.7529418
-0.04482157,0.6593551,0.7530296
-0.0442624,0.6607037,0.7547677
-0.04530334,0.6616797,0.7559023
-0.04595729,0.6606765,0.7558134
-0.04366343,0.6614077,0.755833
-0.04030592,0.6609922,0.7581585
-0.03851414,0.6604815,0.7608871
-0.03692428,0.6586997,0.759685
-0.03598054,0.6561562,0.7587109
-0.03809641,0.6586577,0.7574756
-0.04118914,0.6606396,0.7534817
-0.04067962,0.6586239,0.7494944
-0.0387549,0.6584653,0.7445375
-0.03908249,0.662286,0.7435517
-0.03748552,0.6658434,0.7491788
-0.03437888,0.6644657,0.7526357
-0.03352244,0.66128,0.7545584
-0.03169427,0.6606538,0.7590418
-0.03121366,0.6612375,0.7599005
-0.03370933,0.6611915,0.7535785
-0.03413481,0.6610045,0.7454319
-0.03692803,0.6611661,0.7463734
-0.04256355,0.6611077,0.7550884
-0.04426312,0.6610885,0.7544792
-0.04535607,0.6606048,0.7473921
-0.04648795,0.6584038,0.7422905
-0.04503261,0.6572203,0.736017
-0.04307907,0.6619659,0.7454941
-0.04158307,0.6673681,0.7617576
-0.04404282,0.6647248,0.7550427
-0.04841297,0.6622229,0.7511532
-0.04841409,0.6645966,0.7582108
-0.04819857,0.6629394,0.7538707
-0.04956007,0.660474,0.7548586
-0.05009563,0.6603422,0.7592733
-0.0516491,0.6583266,0.7589964
-0.05106171,0.6581498,0.7634814
-0.04878522,0.6595439,0.758687
-0.04936803,0.6597708,0.7520608
-0.04904998,0.6597831,0.7549115
-0.0497381,0.6584124,0.7534222
-0.05308455,0.6571967,0.7521345
-0.05407056,0.6567519,0.7518375
-0.05611406,0.6571246,0.7492527
-0.05827875,0.6592341,0.7526518
-0.05813594,0.6609493,0.7555273
-0.05952445,0.6617617,0.752914
-0.05923362,0.6617152,0.7525019
-0.05810976,0.6616192,0.7549122
-0.05756327,0.6604291,0.7564459
-0.05478612,0.6560833,0.7574077
-0.05533342,0.653479,0.7586075
-0.05873961,0.6560832,0.7586893
-0.06145923,0.6607865,0.7579794
-0.06526308,0.6617042,0.7583705
-0.06588979,0.658809,0.7585554
-0.06383505,0.6578811,0.7584252
-0.06394311,0.6584482,0.7600719
-0.06479442,0.6595653,0.7609974
-0.0655492,0.6609461,0.7601995
-0.06545456,0.6612178,0.7583737
-0.06494993,0.6611293,0.7509277
-0.06548244,0.6601561,0.7436532
-0.06528831,0.6607449,0.749728
-0.06511205,0.663257,0.7577749
-0.06547703,0.6644361,0.7544947
-0.06514853,0.6631639,0.7556008
-0.06493623,0.6589734,0.7621447
-0.06357251,0.6549528,0.7592198
-0.06183119,0.652031,0.7548982
-0.06310434,0.6498774,0.7553153
-0.06644433,0.6521723,0.7609442
-0.06891865,0.6565111,0.7726498
-0.06882864,0.6560105,0.7741302
-0.06915816,0.6536389,0.7615246
-0.07164721,0.6544712,0.752615
-0.07090438,0.6545319,0.7546551
-0.06821414,0.6561054,0.7574315
-0.06802701,0.660728,0.7546881
-0.0678692,0.6608235,0.7549109
-0.06770805,0.6564601,0.7557819
-0.06653575,0.6519305,0.7531422
-0.06454688,0.6531521,0.7552111
-0.06636264,0.6574849,0.7564488
-0.06827757,0.656918,0.754812
-0.0683424,0.656837,0.7565085
-0.06997611,0.6572553,0.7581578
-0.07109184,0.6566666,0.7603384
-0.06961887,0.658248,0.760408
-0.06618493,0.6584206,0.7587184
-0.06511081,0.6583416,0.760646
-0.06913737,0.658433,0.7615699
-0.07304267,0.6575381,0.7614965
-0.07257831,0.6559583,0.7579093
-0.0706109,0.6540484,0.7517502
-0.07154466,0.6583022,0.7545081
-0.07453039,0.6632928,0.7592614
-0.07651066,0.6605287,0.7594775
-0.0733464,0.6567837,0.7591381
-0.0678555,0.6533155,0.7559185
-0.06893751,0.6505364,0.7551544
-0.06964879,0.6548453,0.7588832
-0.06684934,0.658985,0.7606428
-0.06882645,0.6564125,0.7614103
-0.07117258,0.6553741,0.7608944
-0.07186989,0.6559026,0.7590212
-0.07034587,0.6541409,0.7575038
-0.0660757,0.6542394,0.7558542
-0.06597519,0.6558816,0.755904
-0.06485378,0.6592113,0.7558609
-0.06245702,0.6625493,0.7528271
-0.06458056,0.6611517,0.7507168
-0.0644354,0.6598768,0.7539806
-0.06500263,0.6590048,0.7571198
-0.06787988,0.6559695,0.7552469
-0.06635733,0.6564503,0.7550697
-0.06530735,0.6578474,0.7561765
-0.06553321,0.6564382,0.7551782
-0.06432561,0.6572228,0.7552561
-0.06285479,0.6591608,0.7535755
-0.06031656,0.6598317,0.750209
-0.0602079,0.6601421,0.7497906
-0.06021727,0.6592029,0.752609
-0.05730216,0.6587753,0.7563888
-0.05838421,0.6584266,0.7558472
-0.0609786,0.6587099,0.751759
-0.06063684,0.6632246,0.7525352
-0.05933776,0.6660623,0.757509
-0.05585771,0.6628285,0.7594375
-0.05438404,0.6596828,0.7599024
-0.05493915,0.6608029,0.7606814
-0.05160911,0.660951,0.7588504
-0.04875779,0.6578226,0.7558205
-0.04838064,0.6578764,0.7539336
-0.04842412,0.6576376,0.7571785
-0.0491181,0.6543438,0.7644367
-0.04950551,0.6538445,0.7648278
-0.05109944,0.6543095,0.7555106
-0.05182274,0.6549613,0.746092
-0.05014077,0.655232,0.7473284
-0.04977635,0.6553085,0.7534068
-0.04985081,0.6595715,0.7550005
-0.04912526,0.6633685,0.7589728
-0.04838922,0.6626715,0.7603973
-0.04713772,0.6610772,0.7572539
-0.04267936,0.6610059,0.7602431
-0.03719162,0.66105,0.7588263
-0.03983568,0.6600511,0.7548146
-0.04372107,0.6597886,0.7582863
-0.0400451,0.6604502,0.7583251
-0.0394118,0.6615025,0.7568311
-0.04050689,0.661136,0.7558187
-0.03614593,0.659755,0.754386
-0.03370011,0.6599784,0.757471
-0.03477104,0.6604485,0.757011
-0.03600993,0.6613887,0.7546586
-0.0365125,0.6614357,0.7519773
-0.03679471,0.6605886,0.7455341
-0.0377765,0.6610924,0.7456651
-0.03663398,0.6593189,0.7511651
-0.03554889,0.6575293,0.7574812
-0.0363237,0.6581094,0.7610665
-0.03521652,0.6565207,0.7549897
-0.03159584,0.6539976,0.7505606
-0.02820376,0.6536896,0.7531381
-0.03125847,0.6548661,0.7537658
-0.03807657,0.6559611,0.7539707
-0.04021263,0.6577709,0.7562196
-0.04084994,0.6601322,0.7547924
-0.04299469,0.661166,0.7485245
-0.04484706,0.660549,0.7446828
-0.04624454,0.6581755,0.7470092
-0.04668209,0.6579958,0.7501437
-0.04554451,0.6599988,0.7487625
-0.04350583,0.660518,0.7487355
-0.04318391,0.6615263,0.7524784
-0.04494857,0.6609026,0.7533869
-0.04744262,0.6586622,0.7557016
-0.04879106,0.6573657,0.7587951
-0.04870574,0.6560549,0.7568482
-0.05130188,0.6562846,0.7544044
-0.05577914,0.6555705,0.7532358
-0.05880288,0.6556412,0.7535482
-0.05846252,0.6597719,0.750073
-0.05491835,0.6619383,0.7437342
-0.05448317,0.661192,0.7438546
-0.05859781,0.6598044,0.7448168
-0.0625572,0.6596166,0.7492303
-0.06163224,0.6609127,0.7569495
-0.05886077,0.6609539,0.7539093
-0.06018878,0.6604334,0.7505778
-0.06037817,0.6595133,0.7544911
-0.06177147,0.6603541,0.7555952
-0.06528855,0.6615777,0.7570995
-0.06265309,0.6588227,0.7589659
-0.06071898,0.6567864,0.7576468
-0.06144366,0.656775,0.7578516
-0.06164836,0.6569236,0.7551505
-0.06581613,0.6577047,0.7509767
-0.06920416,0.6599062,0.7532862
-0.06737156,0.6647301,0.7552429
-0.06470328,0.66595,0.755936
-0.06517544,0.6613736,0.7582829
-0.06608913,0.6566403,0.757944
-0.06656423,0.6549463,0.7577894
-0.06888347,0.6582413,0.7598761
-0.06796182,0.6607571,0.7604082
-0.06553499,0.6574069,0.7575972
-0.06534584,0.6541187,0.7542299
-0.06483711,0.6542471,0.7526239
-0.06591113,0.6559981,0.7539564
-0.06737413,0.6575597,0.757833
-0.06907053,0.6571253,0.7571511
-0.07037643,0.6564897,0.7549494
-0.06835858,0.6572141,0.7550479
-0.0667201,0.6573483,0.7525228
-0.06490187,0.6584822,0.7527943
-0.06515212,0.6599906,0.7550959
-0.06981508,0.65713,0.7555598
-0.07138216,0.654278,0.7558011
-0.07005791,0.6554202,0.7535914
-0.0695224,0.6553673,0.7540567
-0.07185203,0.6545438,0.7565051
-0.07468881,0.6566782,0.7562813
-0.07117095,0.6577386,0.7561719
-0.06680652,0.656302,0.7553849
-0.06542682,0.6558685,0.7553405
-0.06471465,0.6546793,0.7565542
-0.06597613,0.6532794,0.7589334
-0.06727299,0.6535697,0.7621126
-0.06956627,0.6527842,0.7599183
-0.07205998,0.6532777,0.7544727
-0.07168377,0.6545628,0.7507713
-0.06981737,0.6522399,0.7490304
-0.06745854,0.6509468,0.7509354
-0.0693509,0.6532899,0.755154
-0.07235972,0.6549223,0.75873
-0.07042145,0.6542116,0.7592682
-0.07041157,0.6541092,0.7572398
-0.07149674,0.6562673,0.7559929
-0.07035839,0.6574643,0.7528809
-0.07096283,0.6569574,0.7515492
-0.07134904,0.6564304,0.7610411
-0.0726878,0.6551937,0.7705336
-0.07620361,0.6537201,0.7697705
-0.07648003,0.6541887,0.7662351
-0.07349149,0.6564104,0.7593515
-0.07131419,0.657172,0.7496528
-0.07149731,0.6560551,0.7512766
-0.07014084,0.6552155,0.7577327
-0.06684993,0.6548656,0.7558363
-0.06843309,0.6531995,0.7575519
-0.0727201,0.6512958,0.7597825
-0.07478271,0.6554405,0.7545302
-0.07504874,0.6609402,0.7528256
-0.07386428,0.6600893,0.7517643
-0.07490565,0.6606099,0.7548535
-0.07499461,0.6617148,0.7604925
-0.06975834,0.657543,0.7542922
-0.06704689,0.6550031,0.7507084
-0.06897843,0.6546185,0.7555515
-0.07103657,0.653814,0.7626075
-0.07082829,0.6542768,0.7709048
-0.06858959,0.6542006,0.7687128
-0.06779697,0.6540648,0.7626187
-0.0678555,0.6550087,0.7604525
-0.06783657,0.6583331,0.753159
-0.06644823,0.6644643,0.7472683
-0.06434675,0.6667855,0.7485918
-0.06539213,0.6639264,0.7495154
-0.06561982,0.6604821,0.7509583
-0.06450902,0.6572749,0.753806
-0.06359551,0.6564803,0.7530094
-0.06095293,0.6567644,0.752135
-0.06076791,0.6548838,0.7533696
-0.06243648,0.6555964,0.7536404
-0.06262142,0.6581175,0.7540611
-0.06273865,0.6582762,0.7535962
-0.06328861,0.6588355,0.7523748
-0.06348359,0.6591489,0.7536368
-0.06029381,0.6589634,0.7553222
-0.05533639,0.6567557,0.7564692
-0.05285188,0.6533911,0.7583149
-0.05138652,0.6583539,0.7581119
-0.05259637,0.6632589,0.7578772
-0.05631349,0.6589162,0.7600929
-0.0559754,0.6563296,0.7607379
-0.05460589,0.6551574,0.7612879
-0.05522456,0.650884,0.7622896
-0.05395046,0.6503717,0.761917
-0.05468909,0.6528541,0.7629275
-0.05646981,0.6538821,0.7616638
-0.05430176,0.6559415,0.7577573
-0.05027394,0.6563007,0.7577068
-0.04398744,0.6538376,0.759844
-0.04218334,0.6549117,0.7626512
-0.04923316,0.6554422,0.7671224
-0.05328577,0.6543405,0.7693503
-0.0513525,0.656558,0.7678555
-0.0505071,0.6586074,0.7626793
-0.05092689,0.6608471,0.7556679
-0.04983951,0.6613331,0.7552399
-0.04894117,0.6596336,0.7562549
-0.04771191,0.6614291,0.7524917
-0.04375216,0.6615217,0.75439
-0.04272442,0.6591332,0.7564134
-0.04374538,0.65805,0.7551414
-0.04246321,0.6563228,0.7570747
-0.04354189,0.6563024,0.7541548
-0.04516644,0.6557759,0.7520743
-0.04585795,0.6535552,0.753679
-0.04611648,0.6563151,0.7518239
-0.043475,0.6608325,0.7521514
-0.04294256,0.6614378,0.7519599
-0.04501423,0.6599001,0.7533033
-0.04553056,0.6574414,0.7572504
-0.04267496,0.6563568,0.7553741
-0.03930592,0.6570866,0.7549068
-0.04401703,0.6570286,0.7557503
-0.04977807,0.6568525,0.7524422
-0.04938953,0.6569782,0.7508403
-0.0518587,0.657119,0.7524478
-0.0555155,0.6582092,0.7552595
-0.05445052,0.6603558,0.7560722
-0.05322527,0.6618051,0.7551604
-0.05329373,0.6602059,0.7554376
-0.05089371,0.6563114,0.7574305
-0.04889631,0.6534584,0.7610844
-0.0510763,0.6553212,0.762178
-0.05416583,0.6584488,0.7611172
-0.0581562,0.656801,0.7587525
-0.06093655,0.6561931,0.7541223
-0.06099646,0.6577819,0.7555927
-0.0630958,0.6568987,0.7582944
-0.06306619,0.6582457,0.753417
-0.06139972,0.6594721,0.7520061
-0.06220011,0.6589892,0.7555001
-0.0608047,0.6624691,0.7576752
-0.06097405,0.6633695,0.7591607
-0.06361725,0.6598353,0.7583327
-0.06395986,0.6589261,0.7588844
-0.06434371,0.6581265,0.7601477
-0.0646285,0.6565161,0.7576545
-0.06537284,0.6576695,0.756322
-0.0655966,0.6586272,0.7567713
-0.06382069,0.6564493,0.7558894
-0.06438958,0.6545879,0.7538088
-0.066625,0.6547119,0.7539252
-0.06761001,0.6542057,0.7572284
-0.06331311,0.6539677,0.7583083
-0.05774116,0.6556906,0.7599396
-0.06286612,0.657437,0.7637924
-0.06977253,0.6578961,0.7624852
-0.0696392,0.6569,0.7587945
-0.0697484,0.6564059,0.7580716
-0.07077979,0.6573737,0.7583089
-0.07360641,0.6569337,0.7593555
-0.07612135,0.6566266,0.7601527
-0.07334058,0.6573267,0.7586371
-0.07027037,0.6567243,0.7552516
-0.06844709,0.6565622,0.7515384
-0.06638626,0.6551931,0.7531378
-0.06537797,0.6521024,0.7593395
-0.06649125,0.6506977,0.7621443
-0.07015801,0.6507877,0.7620747
-0.07366804,0.6550543,0.7632169
-0.07698636,0.6593047,0.7653513
-0.07665901,0.6534309,0.7616755
-0.07223432,0.6474009,0.7529607
-0.07264506,0.652848,0.7515209
-0.07281277,0.6591134,0.754489
-0.07091748,0.6598768,0.7581052
-0.07217066,0.6591731,0.7637542
-0.07044232,0.6567265,0.7627874
-0.0703668,0.6564197,0.7583136
-0.07274621,0.6576297,0.7563026
-0.07209088,0.6564602,0.7552876
-0.07395731,0.6568704,0.7586355
-0.07387557,0.6563066,0.7624097
-0.07122075,0.6551951,0.7607679
-0.07147855,0.6576478,0.7564665
-0.07165228,0.6586973,0.753289
-0.07270519,0.6575045,0.7541899
-0.07425203,0.6564616,0.7579265
-0.07435957,0.6568386,0.759517
-0.07093683,0.656856,0.7614996
-0.06620044,0.6538563,0.7670867
-0.06825949,0.6520991,0.7659994
-0.07190725,0.6526083,0.7555872
-0.07292791,0.6530847,0.7494139
-0.07639391,0.6529615,0.7536993
-0.07937106,0.653371,0.7606787
-0.07770111,0.6544232,0.7600091
-0.07183957,0.652338,0.7568608
-0.06738916,0.6514102,0.7574719
-0.06845582,0.6560434,0.757453
-0.06869134,0.6594796,0.759827
-0.06728162,0.6569512,0.7625334
-0.06834858,0.6539913,0.7658393
-0.06863334,0.6560614,0.7712253
-0.06993639,0.6568982,0.7664089
-0.07458518,0.6556439,0.7588323
-0.07683089,0.6566429,0.7568938
-0.07535424,0.6559793,0.7546753
-0.07096706,0.6551574,0.7570833
-0.06638572,0.6547851,0.7607769
-0.06749523,0.6536613,0.7589065
-0.06889946,0.6545287,0.753548
-0.06562738,0.6550964,0.7499433
-0.06457161,0.6558409,0.7529006
-0.06566111,0.6571439,0.7571859
-0.06514681,0.6585665,0.7607211
-0.06527385,0.660633,0.7619264
-0.06536477,0.6597368,0.7599098
-0.06513821,0.659375,0.7610747
-0.0650689,0.6611439,0.7587631
-0.0624965,0.6611249,0.7541809
-0.05732879,0.6608254,0.7558639
-0.05332953,0.6593306,0.7554196
-0.05490586,0.6574675,0.7533133
-0.05846533,0.6574334,0.7527384
-0.05852242,0.6574611,0.751978
-0.05862594,0.6593576,0.7523208
-0.06037843,0.6621296,0.7500682
-0.06237775,0.6612416,0.7496418
-0.06300686,0.659307,0.752462
-0.06064599,0.6589713,0.7520363
-0.05795153,0.6580459,0.7485988
-0.05545649,0.6580371,0.7447708
-0.0544342,0.6588294,0.7487582
-0.05423696,0.6578432,0.7569048
-0.05118732,0.6574171,0.7585664
-0.0508028,0.6569525,0.7585647
-0.0533931,0.6566666,0.7581407
-0.05448618,0.6582851,0.7569169
-0.05614566,0.6586422,0.7562583
-0.05532841,0.6595058,0.7548485
-0.05186843,0.6624605,0.7556787
-0.04925326,0.6656173,0.7553786
-0.04712386,0.6673219,0.7521817
-0.04593768,0.6641128,0.7498847
-0.04336046,0.6591179,0.7483976
-0.04257764,0.6566093,0.749962
-0.04506529,0.6568009,0.755481
-0.04457305,0.6592037,0.7626148
-0.04574155,0.6599967,0.7635603
-0.04792248,0.6586277,0.7562838
-0.04655309,0.6570954,0.7528626
-0.04746467,0.6565221,0.753946
-0.04720146,0.6571835,0.7550165
-0.04441475,0.6571136,0.7569268
-0.0430642,0.6576976,0.757305
-0.04316405,0.6584366,0.7552643
-0.04860349,0.656503,0.7506403
-0.05194024,0.6550463,0.7483175
-0.04944682,0.6567202,0.7490517
-0.05070383,0.6595488,0.7501393
-0.05215279,0.661415,0.7542484
-0.05109607,0.6631081,0.7575475
-0.05136925,0.6642833,0.7599073
-0.05147504,0.6619576,0.7577182
-0.05135895,0.6566004,0.7505339
-0.05189933,0.6526193,0.7509089
-0.05409315,0.6544037,0.7528184
-0.05692911,0.6588335,0.7546102
-0.05848845,0.6602207,0.7603915
-0.06053555,0.6601707,0.7595104
-0.062972,0.6603654,0.7542282
-0.06421148,0.6612427,0.7499635
-0.06439696,0.6616122,0.7488163
-0.06468442,0.6605718,0.7506793
-0.06637886,0.6612718,0.7489781
-0.06714169,0.6613723,0.7488402
-0.06526683,0.6592196,0.7536788
-0.06403178,0.6543531,0.7576421
-0.0636399,0.6482219,0.7577636
-0.06278604,0.652032,0.7564387
-0.06248867,0.6587585,0.7589291
-0.062826,0.6566605,0.7606861
-0.06581487,0.6565808,0.7587746
-0.07047578,0.6586533,0.7567079
-0.07259788,0.6576011,0.7530896
-0.07224191,0.6567219,0.7517331
-0.07033897,0.654242,0.7533571
-0.06709676,0.6542861,0.7536467
-0.06417812,0.6565823,0.7573424
-0.06519636,0.6553049,0.7631452
-0.06800479,0.6551038,0.76254
-0.06804636,0.655092,0.7572163
-0.06854135,0.6535573,0.7543627
-0.07010904,0.6545615,0.7553407
-0.07228457,0.6561954,0.7561603
-0.0745306,0.6572444,0.7553021
-0.07323953,0.6569307,0.7553655
-0.07128457,0.6547248,0.7555594
-0.06937862,0.6536069,0.7535324
-0.06733024,0.6533676,0.753107
-0.06846991,0.6539106,0.7574278
-0.07103374,0.6561272,0.7619476
-0.0729243,0.6572967,0.7609953
-0.07249803,0.6552222,0.7578888
-0.0716457,0.65267,0.7576904
-0.07275848,0.6515707,0.7570436
-0.07310495,0.6499599,0.7579829
-0.07348904,0.6510271,0.7612887
-0.07272876,0.6537861,0.76206
-0.06977944,0.6509669,0.7626832
-0.06929725,0.6488752,0.7597398
-0.07132512,0.6518116,0.7576386
-0.07285897,0.6531593,0.7614839
-0.07239119,0.6525174,0.7594763
-0.07174646,0.6502864,0.758829
-0.07324442,0.6490039,0.7619294
-0.07581192,0.6511338,0.7594441
-0.07791101,0.6528969,0.7595597
-0.07473489,0.6554415,0.7587523
-0.06924004,0.6564511,0.7556277
-0.07053757,0.6538709,0.7556809
-0.07311033,0.6536312,0.7555349
-0.07623925,0.6527101,0.7586345
-0.08202707,0.6504698,0.7599573
-0.07797816,0.6512906,0.7558746
-0.07213402,0.650802,0.7538861
-0.07663272,0.6499595,0.7571299
-0.07738998,0.6527288,0.7618356
-0.07414306,0.6551649,0.7600791
-0.0742415,0.6543544,0.7602806
-0.07237319,0.6535395,0.7634243
-0.07163959,0.6545606,0.7576228
-0.07288024,0.6542144,0.7536471
-0.07285688,0.653288,0.7554798
-0.07392947,0.6518601,0.7541885
-0.07383357,0.6493382,0.7519722
-0.07320255,0.6516086,0.7524341
-0.07373627,0.6552285,0.7531545
-0.07244886,0.6549829,0.7505734
-0.07043234,0.6562925,0.7502152
-0.06776651,0.6595349,0.754762
-0.06489683,0.6612514,0.758173
-0.06470119,0.6586789,0.7575886
-0.06475166,0.6535834,0.7558506
-0.06371384,0.6538594,0.7570286
-0.06454505,0.6567257,0.7544959
-0.06574825,0.6570378,0.747422
-0.06430856,0.6570386,0.7457672
-0.06315089,0.6558609,0.75091
-0.06321723,0.6553341,0.757999
-0.06226521,0.656698,0.7584954
-0.06172609,0.6570758,0.7561249
-0.05979019,0.6572785,0.7562945
-0.05555774,0.6576878,0.7556679
-0.05484581,0.6585555,0.7620811
-0.05716766,0.6592082,0.7669052
-0.05808659,0.6605371,0.7594284
-0.05845356,0.6635751,0.7549566
-0.05886101,0.6625335,0.7579098
-0.05988625,0.6594355,0.7612167
-0.06140554,0.6580362,0.7631374
-0.05924502,0.6560888,0.7650441
-0.05488895,0.6568265,0.7619728
-0.05247328,0.6576028,0.7555355
-0.05078794,0.6563301,0.7592573
-0.05101195,0.6571884,0.7643394
-0.05292598,0.6574457,0.7645043
-0.05551381,0.6585516,0.7635865
-0.05924609,0.6615133,0.7570386
-0.05743669,0.6614059,0.7545988
-0.05289854,0.6604315,0.7555086
-0.05245782,0.6594885,0.7563584
-0.04958049,0.6577541,0.7617968
-0.04840287,0.6579211,0.760139
-0.04971401,0.6575227,0.7580902
-0.04335795,0.6546665,0.7611875
-0.04003571,0.6534436,0.758588
-0.04483256,0.6543732,0.7567642
-0.0488465,0.6537706,0.7555056
-0.05301344,0.6514568,0.7544443
-0.05720504,0.6502023,0.7566591
-0.05858712,0.6525675,0.7564421
-0.04986854,0.6583307,0.7613983
-0.03718146,0.6620283,0.7670801
-0.03882438,0.6591155,0.7590862
-0.04101497,0.6563246,0.7468761
-0.0356742,0.6640688,0.7436457
-0.03673217,0.6743247,0.7523222
-0.03572384,0.6755869,0.7600885
-0.03275582,0.6746673,0.7531472
-0.03401032,0.6751863,0.7418606
-0.0320995,0.6737831,0.7324833
-0.03584869,0.6690523,0.7267329
-0.04239087,0.6613927,0.738627
-0.04000024,0.6593416,0.751818
-0.03867143,0.6624225,0.7441031
-0.0392959,0.6625806,0.7360469
-0.03629967,0.662139,0.7366242
-0.02770685,0.6612496,0.7419183
-0.01501791,0.660291,0.7562598
-0.01234257,0.662008,0.7630302
-0.01686661,0.6629876,0.7649414
-0.02026761,0.6648189,0.7678365
-0.02956626,0.66909,0.7514497
-0.03370357,0.6715421,0.737632
-0.02891062,0.6714641,0.7484262
-0.03143191,0.6709202,0.7582572
-0.0317332,0.6743358,0.755803
-0.02274224,0.6795207,0.7481685
-0.01789598,0.6833265,0.7387613
-0.0203327,0.6873125,0.7346561
-0.02256145,0.6788229,0.7367223
-0.01407515,0.6625908,0.7326051
-0.007966065,0.6626912,0.7252722
-0.02378081,0.6706844,0.7278824
-0.04790381,0.6745293,0.7358689
-0.06097438,0.6783748,0.7461902
-0.06110072,0.680751,0.7513045
-0.06625347,0.6852221,0.7488938
-0.07530848,0.6887086,0.7491607
-0.06592547,0.6826983,0.7389063
