accx,accy,accz
0.0351759,0.7733991,0.6429555
0.03543133,0.7723358,0.6446565
0.03606778,0.7770691,0.6451408
0.0341048,0.7828432,0.644687
0.03429913,0.7823732,0.6465651
0.03594248,0.779935,0.646832
0.03584201,0.7739511,0.6509261
0.03855875,0.7683883,0.6555738
0.03981796,0.7749845,0.6506745
0.04004288,0.7843298,0.6417679
0.04171493,0.7807028,0.6400822
0.03959045,0.7768196,0.6475141
0.03835358,0.780396,0.6537183
0.03903617,0.7791982,0.6499916
0.03876182,0.7783914,0.645061
0.0387612,0.7800782,0.6451195
0.03689035,0.7789087,0.6399346
0.03525056,0.7810974,0.6352821
0.03428276,0.7827595,0.6403687
0.03308052,0.7816736,0.6433314
0.03409243,0.7816403,0.6436386
0.03536458,0.7800834,0.6439338
0.03570404,0.7789047,0.6406244
0.03608243,0.7799864,0.6403452
0.03673386,0.7822198,0.6440598
0.0377933,0.7832231,0.6469502
0.03926447,0.7830092,0.6462691
0.03940591,0.7822954,0.6448763
0.03806833,0.7781707,0.6458789
0.03804141,0.7741501,0.6432138
0.03659917,0.7736893,0.6410698
0.03522154,0.7769994,0.6454745
0.03682974,0.7808148,0.6478913
0.03694757,0.7792144,0.6436016
0.03730674,0.7784866,0.6389664
0.03712449,0.7809951,0.6400035
0.03529104,0.781456,0.6411298
0.03643914,0.7817963,0.6397837
0.03730301,0.7804156,0.6413613
0.03753907,0.778384,0.6432427
0.03880044,0.7801263,0.6465343
0.03884499,0.7813886,0.6509019
0.03886334,0.7808362,0.6489172
0.03797405,0.7805391,0.6472368
0.03688111,0.7797919,0.6495295
0.03674942,0.7802914,0.6486125
0.03639517,0.7811961,0.6476577
0.03861993,0.7802381,0.6463942
0.04047619,0.7805692,0.6399825
0.03596737,0.7818656,0.6373224
0.03136421,0.7815069,0.6409691
0.03353094,0.7803657,0.6411512
0.03620414,0.77857,0.6399058
0.03584255,0.7782314,0.6437184
0.03641888,0.7772033,0.6482989
0.03651026,0.7739237,0.6488944
0.03750612,0.7762484,0.6464393
0.03972191,0.7814152,0.6432499
0.03777063,0.7831003,0.6424282
0.03585828,0.782745,0.6438962
0.03624271,0.7795731,0.6460786
0.03592182,0.7782684,0.6493555
0.0358889,0.7796991,0.6488589
0.03433191,0.7799106,0.6443677
0.03264794,0.7835437,0.6434699
0.03313655,0.7871399,0.6440571
0.03269446,0.7837464,0.6432409
0.03153596,0.7806143,0.6454751
0.0319672,0.7840188,0.6480649
0.03352924,0.7869742,0.6455735
0.03556876,0.7854492,0.6435666
0.03848146,0.784269,0.6465207
0.03984486,0.7830802,0.6474168
0.03945593,0.7827494,0.643196
0.03977396,0.783856,0.6393692
0.03685084,0.7821399,0.6387098
0.03232705,0.7816617,0.6383471
0.03285036,0.7831983,0.6369068
0.03407833,0.78318,0.6379283
0.03314883,0.7826805,0.6413794
0.03431569,0.7814649,0.6456229
0.03620143,0.7818087,0.6487772
0.0362165,0.7827596,0.6471821
0.03609812,0.7831308,0.6463854
0.0361061,0.784734,0.6476872
0.03605906,0.7840719,0.645113
0.03621111,0.7829745,0.6445899
0.03602235,0.781888,0.6491757
0.03613598,0.7785981,0.6523547
0.03634106,0.7787594,0.6496326
0.03690523,0.780178,0.6437628
0.03804898,0.7810069,0.6405325
0.03844681,0.7853194,0.6362743
0.03894419,0.786753,0.6337093
0.03916006,0.7830428,0.6387654
0.03863843,0.7809846,0.6417463
0.03858888,0.7818632,0.6410072
0.03721303,0.7824515,0.6443387
0.03540302,0.7816219,0.648835
0.03600786,0.7818843,0.6485863
0.0365117,0.7822584,0.6494456
0.03584403,0.7816175,0.6546182
0.03683208,0.7821033,0.6528723
0.03984893,0.7814684,0.6484652
0.042572,0.7790538,0.6490251
0.04219356,0.7773789,0.647503
0.04067136,0.7781885,0.6459812
0.04108896,0.7802706,0.6440353
0.0402809,0.7799541,0.6423872
0.03927576,0.7803359,0.6440236
0.03804884,0.7812672,0.6428856
0.03139698,0.7798153,0.6445567
0.0270604,0.7795738,0.6470577
0.02995265,0.778328,0.6437221
0.03283608,0.777091,0.6412041
0.03557989,0.7795055,0.6378594
0.03815168,0.7812143,0.6363942
0.03845352,0.7821332,0.6393168
0.03893262,0.7814221,0.6426245
0.0390145,0.7798703,0.6473506
0.03771994,0.7816955,0.6467591
0.03726749,0.782274,0.6442781
0.03720288,0.7807575,0.6465096
0.03587817,0.7803938,0.6450615
0.03510046,0.7807787,0.6438338
0.03614479,0.7821849,0.6468353
0.03715126,0.7820263,0.6467245
0.03844576,0.7799404,0.6420855
0.0404942,0.7790479,0.6352301
0.0382536,0.7784525,0.6330235
0.03434255,0.778235,0.6359244
0.03621625,0.7820792,0.6367793
0.03716251,0.7865033,0.6384042
0.03607973,0.7840868,0.6404262
0.03821577,0.7791886,0.6410016
0.03789849,0.7770123,0.6438454
0.03773202,0.776594,0.6434123
0.03975925,0.7785655,0.6402014
0.03872663,0.7797734,0.6404911
0.03860367,0.7797647,0.6410501
0.0383886,0.7802259,0.6416703
0.03413869,0.7799056,0.6412147
0.03104421,0.781507,0.6403076
0.03323721,0.7827047,0.6449527
0.0363684,0.7815559,0.6476344
0.0354447,0.7819513,0.6410338
0.03566899,0.782125,0.6352771
0.03704312,0.781748,0.6394452
0.03548564,0.7820727,0.6450834
0.03611008,0.7818965,0.6445727
0.03694997,0.7819355,0.6448734
0.03729333,0.781981,0.6452344
0.03966019,0.7819015,0.6449313
0.03797491,0.7819828,0.6489435
0.0356688,0.7817373,0.6501574
0.03596825,0.7807116,0.6505334
0.03416833,0.7784913,0.6548474
0.03300067,0.7771184,0.653998
0.03430124,0.777788,0.6485003
0.03610691,0.7778935,0.6442712
0.03647935,0.7766554,0.641858
0.03581263,0.7761399,0.6397146
0.03624469,0.7767694,0.6368372
0.03577744,0.7778662,0.6385691
0.03401392,0.7782697,0.641955
0.03206809,0.7778185,0.6401253
0.0314897,0.7792818,0.6403362
0.03321782,0.7809091,0.6419255
0.0336291,0.7802421,0.6392145
0.03316486,0.7806072,0.6381945
0.03361231,0.7806563,0.6378214
0.03414371,0.7792529,0.6381486
0.03504759,0.7793533,0.6426581
0.03448077,0.7801162,0.645127
0.03247381,0.781711,0.6462561
0.03054256,0.7828879,0.6478757
0.02911394,0.7835266,0.6466505
0.0291393,0.7862447,0.644345
0.02935743,0.7867407,0.6420386
0.02998132,0.7855547,0.6408856
0.03096829,0.7863411,0.639841
0.03053625,0.7858036,0.6372242
0.03039079,0.7839619,0.6365302
0.03071432,0.7820845,0.6375489
0.03119075,0.7809782,0.6383875
0.03449138,0.7805044,0.6409318
0.03901936,0.7786551,0.6467607
0.0398267,0.7787013,0.65043
0.037939,0.7800226,0.6474406
0.0370814,0.7797164,0.6461689
0.0354091,0.7809112,0.6476257
0.0328283,0.7819048,0.6452295
0.03172339,0.781663,0.6436963
0.03166193,0.7823232,0.6447654
0.03316118,0.7816455,0.6456302
0.03394413,0.7810245,0.647473
0.03386365,0.7813609,0.6502217
0.0353887,0.7809188,0.6516721
0.03569884,0.7806911,0.648703
0.03583619,0.7804373,0.6449738
0.03569526,0.7814757,0.6448846
0.03420576,0.7825088,0.6431151
0.03563208,0.7818396,0.640308
0.03676143,0.783227,0.6412277
0.03580355,0.7855225,0.6398724
0.03614391,0.7865544,0.6364901
0.03619016,0.7861494,0.6378614
0.03637885,0.784403,0.6393847
0.03796512,0.7824102,0.641127
0.03938527,0.7786511,0.6438135
0.03807186,0.7768582,0.6394666
0.03308232,0.7789882,0.6354283
0.02913879,0.7796048,0.6370143
0.03018123,0.7793853,0.6362434
0.03243927,0.7810627,0.6353676
0.03237784,0.7834554,0.6361537
0.03438134,0.7840278,0.6370635
0.0375428,0.7834469,0.639635
0.03678907,0.7833241,0.640472
0.03651781,0.7814614,0.6397618
0.03717434,0.780395,0.6406061
0.03650554,0.7810017,0.6403998
0.0365903,0.7803703,0.6398661
0.03523331,0.7814366,0.6404785
0.03438716,0.7818343,0.6392655
0.03640233,0.7780782,0.6386242
0.03671702,0.7755093,0.6400033
0.0354455,0.777143,0.6406373
0.03503289,0.7797932,0.6422002
0.03388361,0.7805365,0.6453381
0.03264156,0.7824303,0.6465037
0.03351255,0.7852622,0.6452964
0.03360909,0.784425,0.6482278
0.03272625,0.7823449,0.6509397
0.03292415,0.7802358,0.6463998
0.03286948,0.7799631,0.6452702
0.03528674,0.7828319,0.6455952
0.03797264,0.7823552,0.6430621
0.03670855,0.781137,0.6415877
0.03642473,0.7822937,0.6358343
0.03696652,0.7809911,0.6378453
0.03542867,0.7798428,0.6480663
0.03279448,0.7798908,0.6488706
0.02955036,0.7788806,0.6442896
0.02833277,0.7791759,0.6397653
0.02957683,0.7803307,0.6414849
0.03032019,0.7808608,0.6453782
0.03083962,0.7815426,0.6442221
0.0325986,0.7821073,0.645886
0.03359024,0.7820605,0.6437007
0.03252315,0.7818144,0.6396776
0.03239954,0.7819542,0.6402934
0.03667016,0.7822109,0.6429639
0.04235979,0.7827389,0.6497003
0.04219046,0.7834697,0.6472211
0.03900035,0.7825776,0.6404311
0.03867359,0.7813892,0.6407377
0.03865489,0.7820124,0.6392629
0.03804734,0.7823374,0.6402588
0.03733652,0.7826057,0.6391991
0.03735312,0.7831804,0.6360511
0.03879044,0.7807844,0.6401316
0.03846709,0.7782216,0.6408851
0.03618478,0.7802963,0.6397029
0.03398751,0.7834077,0.6397421
0.033874,0.7844499,0.6381938
0.03373008,0.7850233,0.6395181
0.03102111,0.7847763,0.6407227
0.03207518,0.7842766,0.6423227
0.03519811,0.7840664,0.6440122
0.03462785,0.7829951,0.6442324
0.03414156,0.7829403,0.645636
0.03448401,0.7828387,0.6467255
0.03486488,0.7814054,0.6482167
0.03395009,0.7818612,0.6440974
0.03240048,0.7823152,0.6372717
0.0328009,0.7812645,0.6393752
0.03137377,0.7802795,0.6400103
0.02971658,0.7783338,0.6377021
0.02942255,0.7769999,0.6404419
0.02978151,0.7767766,0.6407296
0.03346205,0.7780251,0.6390309
0.03578612,0.7818331,0.6371217
0.03622719,0.7827954,0.6337857
0.03691825,0.7813684,0.6360497
0.0373549,0.7821048,0.6394366
0.03948285,0.7817144,0.6391905
0.03821168,0.7799131,0.6422252
0.03531209,0.7788502,0.6444179
0.03493368,0.7797094,0.6419258
0.0317204,0.7840691,0.6403966
0.03001353,0.7868097,0.6394455
0.03376548,0.7834049,0.6398114
0.03755744,0.7784678,0.6417109
0.03837607,0.7776468,0.64199
0.03778093,0.7790892,0.6425194
0.03810199,0.7817859,0.6412868
0.03633491,0.7860705,0.6409762
0.03325569,0.7845721,0.6455984
0.03248039,0.7816027,0.645355
0.03280834,0.7839416,0.6400312
0.03535184,0.782334,0.6365137
0.03710406,0.7791029,0.6383722
0.03575715,0.7794408,0.6459867
0.03597615,0.7796851,0.6484964
0.03605114,0.7817832,0.6467901
0.0340847,0.7838239,0.6463968
0.03289443,0.7839073,0.645247
0.03312878,0.7813905,0.6459445
0.03367763,0.7769917,0.6448266
0.03321186,0.7769236,0.6423741
0.03300967,0.7799045,0.6405137
0.03288035,0.7838158,0.6377183
0.03271903,0.7849671,0.6383486
0.03533261,0.7837476,0.6367904
0.03689659,0.7869724,0.633325
0.03458726,0.7846679,0.6363297
0.03246482,0.7767801,0.6433267
0.03193928,0.7748151,0.6492625
0.03356116,0.7777048,0.6471649
0.03558514,0.782583,0.6401631
0.03477801,0.7812041,0.6380069
0.03406735,0.780221,0.6391729
0.03403197,0.7864317,0.6426193
0.03209082,0.7860127,0.6475575
0.03174903,0.7829864,0.6490696
0.03408242,0.7816996,0.6457311
0.03502121,0.780955,0.6403758
0.03392729,0.7830902,0.6366134
0.03281692,0.7816722,0.6346734
0.03365063,0.7824286,0.6374286
0.03547069,0.7845176,0.6424478
0.03580406,0.7825533,0.6403714
0.03373963,0.7834121,0.6394976
0.0308395,0.7826248,0.6442019
0.0315893,0.7808586,0.6447783
0.03357689,0.7803936,0.6455331
0.03488517,0.7775384,0.6499052
0.03862511,0.7777021,0.6534828
0.03835004,0.7802906,0.6512405
0.03612326,0.7827235,0.6462297
0.03810275,0.7839646,0.6478003
0.03670813,0.7818432,0.6444658
0.0351661,0.7797293,0.6371737
0.03621157,0.778757,0.6406676
0.0332049,0.7793606,0.6429753
0.03120148,0.7813138,0.64334
0.03316705,0.7820799,0.6454095
0.03568378,0.7812766,0.6361711
0.03634797,0.7800018,0.6266313
0.03411261,0.7804915,0.6301516
0.03293564,0.780771,0.6334937
0.03412581,0.778596,0.6340456
0.03528109,0.7754368,0.6405703
0.03457518,0.7732436,0.6421741
0.03342788,0.7767351,0.6373297
0.03345821,0.7811923,0.6384901
0.03307118,0.7790523,0.6393456
0.03341699,0.7784244,0.6416746
0.03298886,0.780959,0.6467429
0.03031313,0.7802987,0.6448325
0.02953056,0.7793966,0.6471199
0.03321335,0.7784305,0.6511359
0.03816209,0.7777985,0.6443447
0.0373052,0.7792335,0.6391881
0.03509411,0.779456,0.6407983
0.03500855,0.7810466,0.6402641
0.03164011,0.7840622,0.6366351
0.03206735,0.7846864,0.6373415
0.03501696,0.7842413,0.6421366
0.03450223,0.7828263,0.6449854
0.03642869,0.7833629,0.6482331
0.03586432,0.7854528,0.6493832
0.03404786,0.7841866,0.6474167
0.03789269,0.7821693,0.6499221
0.03948345,0.7813667,0.6508748
0.03701078,0.7812734,0.6443641
0.03569408,0.7788233,0.6388695
0.03776439,0.7753012,0.6372985
0.04001005,0.7788937,0.640391
0.03775754,0.782345,0.6445533
0.03407384,0.7800597,0.6394068
0.03105631,0.7802062,0.635203
0.03144971,0.7812404,0.6387175
0.03485221,0.780986,0.639473
0.03485512,0.7811613,0.6402823
0.03473169,0.7796224,0.641147
0.03594096,0.7791695,0.6404734
0.03598724,0.782986,0.6422497
0.03648335,0.7859978,0.6418703
0.03608154,0.7844642,0.641495
0.03686026,0.7821481,0.644425
0.03781022,0.7810787,0.6469657
0.03505945,0.7806156,0.6468941
0.03274621,0.7804882,0.6437147
0.03313715,0.7789809,0.6435276
0.03524267,0.7784626,0.6459145
0.03553943,0.7801635,0.6458063
0.03476889,0.7808593,0.647446
0.03677732,0.7821151,0.6477385
0.03586043,0.7824809,0.6437666
0.03271596,0.7804995,0.6408737
0.03208812,0.7810221,0.6387672
0.03336669,0.7806621,0.6399051
0.03662955,0.7781858,0.6417675
0.03683041,0.778204,0.6412872
0.03638964,0.7778491,0.6473487
0.03939966,0.7770737,0.6520569
0.03985305,0.7764512,0.6474242
0.03931747,0.7750746,0.644328
0.0386765,0.7755086,0.6442582
0.0365504,0.7753453,0.6449573
0.03564346,0.7752914,0.6472968
0.03405917,0.7797423,0.6492343
0.03274296,0.783456,0.6490689
0.03242296,0.7821314,0.6474067
0.03187856,0.7811797,0.6456558
0.03356381,0.7823992,0.6417205
0.03721795,0.7823625,0.64133
0.04004987,0.7835587,0.6459892
0.03917254,0.7868454,0.6443887
0.03769294,0.7882676,0.6402213
0.03714459,0.7890195,0.6385128
0.03284636,0.7889639,0.6364796
0.03055574,0.7857789,0.6375568
0.032316,0.7811992,0.6384666
0.03134291,0.7786977,0.638603
0.03084171,0.7831818,0.6411762
0.03291027,0.7880202,0.641452
0.03483447,0.7833186,0.6439836
0.0367762,0.7798068,0.6491802
0.03746099,0.7818321,0.6475947
0.03723605,0.7804846,0.6459718
0.03773475,0.7797125,0.6472111
0.0379013,0.7797887,0.6422911
0.039033,0.7759352,0.6366835
0.04035856,0.7753958,0.6371603
0.03683633,0.7823313,0.6397675
0.03310424,0.7885367,0.6435454
0.03489315,0.7863971,0.6474858
0.03651613,0.782674,0.6481344
0.03671253,0.7837325,0.6481634
0.03797751,0.7827829,0.6492945
0.03764421,0.7798288,0.648429
0.03689972,0.7775849,0.6480482
0.03692901,0.7768422,0.648299
0.0357854,0.7801616,0.6465733
0.03565022,0.779844,0.6471014
0.03532331,0.7778976,0.6477664
0.03237557,0.780244,0.6463237
0.03182376,0.779914,0.6453541
0.03519184,0.7803488,0.6421615
0.03875892,0.7813876,0.6404513
0.03916071,0.7797564,0.6414962
0.03579349,0.7807147,0.6408539
0.03400864,0.7805588,0.6416303
0.03561671,0.7819678,0.6423968
0.03669614,0.7862333,0.6426174
0.03606451,0.7852094,0.6470382
0.03580697,0.7843602,0.6518752
0.03641393,0.7849963,0.6505615
0.03602331,0.7816036,0.6442812
0.03596959,0.7795417,0.6426119
0.03618565,0.7807544,0.6464452
0.03500109,0.7807712,0.6479968
0.03453185,0.7804883,0.6502672
0.03468359,0.7813972,0.650098
0.03440797,0.7814896,0.642261
0.03301091,0.7808779,0.6377755
0.03124242,0.7805372,0.6390741
0.03204096,0.7805897,0.6418782
0.03322725,0.7815092,0.6441387
0.03348975,0.7819159,0.6429932
0.03440657,0.7801827,0.6436955
0.03505212,0.778443,0.6443993
0.03569561,0.7794465,0.6404415
0.03594707,0.7813515,0.6369414
0.03439918,0.7825605,0.636805
0.03269272,0.7839796,0.6382087
0.03293579,0.7841014,0.6373658
0.03275829,0.7804992,0.6374479
0.03049745,0.7761838,0.6398939
0.03010782,0.7777487,0.6407313
0.03022821,0.7817176,0.6423782
0.02679837,0.782031,0.6434192
0.02444092,0.7821385,0.6430648
0.02737423,0.7819854,0.6429279
0.03065648,0.7815639,0.6419267
0.02956652,0.7824086,0.6416603
0.03045759,0.7816977,0.6421742
0.03521299,0.7814898,0.6447684
0.03616304,0.7803383,0.6463787
0.03587535,0.7774915,0.6444482
0.03653908,0.7788117,0.6437889
0.03574945,0.781512,0.6395898
0.03604673,0.7823989,0.6333639
0.03518625,0.7818983,0.6351195
0.03344038,0.7808263,0.6391836
0.03431265,0.7816564,0.6402695
0.03582739,0.7829661,0.6391799
0.03659089,0.7835544,0.6372225
0.03600665,0.7825117,0.6420706
0.03588342,0.7816592,0.648589
0.03661602,0.7839725,0.645842
0.03678021,0.7842822,0.6385923
0.03727359,0.7793473,0.6332724
0.03487581,0.7752787,0.6363604
0.03121218,0.7795539,0.6430983
0.03163038,0.7854855,0.6421185
0.0325955,0.7841236,0.6415901
0.03260113,0.784125,0.6410779
0.03375949,0.7854186,0.6388354
0.03448202,0.7818618,0.6431244
0.03465839,0.7800444,0.6435265
0.03514613,0.7802655,0.6403026
0.0358567,0.7801361,0.6407388
0.03806894,0.7785931,0.6408587
0.03975337,0.7766353,0.6446349
0.0380143,0.7791715,0.6475049
0.0350293,0.7798785,0.6463755
0.03241954,0.7787576,0.6456694
0.03180491,0.7814705,0.6441192
0.03252139,0.7823509,0.6441949
0.0315386,0.782122,0.6442961
0.03183866,0.7828417,0.6453666
0.03277844,0.7833859,0.6474228
0.0332348,0.783607,0.6472352
0.03550169,0.781976,0.6463664
0.03557709,0.7817915,0.6415924
0.03664991,0.7819248,0.6405146
0.0399259,0.7807978,0.6397358
0.03691621,0.780585,0.6330305
0.03293793,0.7800583,0.6377942
0.03379311,0.7802404,0.6428067
0.03601227,0.7805901,0.6423138
0.03779898,0.7811476,0.6483104
0.03519912,0.7809193,0.6475096
0.03158833,0.7787914,0.6456805
0.03272826,0.7801601,0.6451096
0.03325144,0.7838332,0.6376118
0.03371583,0.7859305,0.6370613
0.03837521,0.7818026,0.6406477
0.04094898,0.7748011,0.6422392
0.03784351,0.7776064,0.6421644
0.03436311,0.7800959,0.6396938
0.03398946,0.7791849,0.6415401
0.0327967,0.7847956,0.6447395
0.03075544,0.7847435,0.6481266
0.0328676,0.7822207,0.6484759
0.03525176,0.7845988,0.6455514
0.03702788,0.7806975,0.6476474
0.03871015,0.778069,0.6456269
0.03682668,0.7806819,0.6421323
0.03730846,0.7791184,0.6448735
0.03842533,0.7787703,0.6462497
0.0376072,0.7812791,0.6478056
0.03869933,0.7808383,0.6474083
0.03458605,0.7802601,0.6451561
0.02976822,0.7814795,0.6446434
0.03116302,0.781404,0.6426812
0.03112903,0.7800202,0.6427413
0.03085188,0.7791222,0.6419856
0.03246489,0.7774137,0.6399971
0.032174,0.77683,0.6398409
0.03149385,0.782596,0.6365916
0.03235289,0.7884796,0.6366504
0.03330261,0.7852302,0.63884
0.03490604,0.7784861,0.6368624
0.03633531,0.775368,0.6385647
0.03506586,0.776378,0.6406385
0.03549214,0.7808081,0.639589
0.03723005,0.783151,0.6381481
0.03524086,0.7826599,0.6331966
0.03196893,0.7834785,0.6314202
0.03101785,0.7831644,0.6369083
0.03337507,0.7811465,0.6414047
0.0341573,0.7792633,0.6413661
0.03351975,0.7793138,0.64153
0.03560493,0.7830884,0.6426281
0.03570559,0.7854572,0.6382197
0.03583778,0.7831364,0.6354451
0.03663356,0.7804842,0.6387349
0.03446179,0.7799857,0.6401921
0.03371042,0.7783612,0.6500957
0.03320672,0.7772264,0.6624496
0.03298053,0.7814919,0.6545695
0.03385319,0.7856792,0.6451325
0.03333526,0.7857316,0.6490996
0.03516044,0.7819217,0.6477433
0.03706582,0.7775893,0.6438603
0.03669312,0.7809034,0.6464078
0.0371139,0.7845719,0.6445134
0.03780559,0.7824957,0.6398446
0.03914907,0.7809711,0.6383981
0.0391854,0.777649,0.6383026
0.03732383,0.7751667,0.6395851
0.03630245,0.7785285,0.6387596
0.03500239,0.7830292,0.6391352
0.03446394,0.7866296,0.6431582
0.03579486,0.7869687,0.6441323
0.03642363,0.7852703,0.6405053
0.03555868,0.7863202,0.6363096
0.03332798,0.785921,0.6404582
0.03118784,0.7827315,0.6450861
0.03200067,0.7804094,0.6387063
0.03429455,0.7790257,0.6360845
0.03518401,0.7791949,0.6401542
0.03570524,0.7796306,0.6415404
0.03627719,0.7810479,0.6407721
0.03616838,0.7843815,0.6379397
0.03605325,0.7844478,0.6372316
0.0360947,0.7827844,0.6400233
0.03615744,0.7836085,0.6429636
0.03609743,0.7853443,0.642831
0.03607096,0.7865831,0.6389068
0.03600256,0.7864155,0.6374784
0.03462598,0.7867092,0.6361972
0.03231593,0.7879409,0.6334177
0.03199305,0.7872537,0.6355567
0.03392725,0.785062,0.6389349
0.03445552,0.7820312,0.6410163
0.03582504,0.7781703,0.6430197
0.03861967,0.7752352,0.6437434
0.03571253,0.7759048,0.6450008
0.03338543,0.7822286,0.6446588
0.03641893,0.7884895,0.6432411
0.03634986,0.7867864,0.6428785
0.03578579,0.7842857,0.6419879
0.03610344,0.7861597,0.6446528
0.03400056,0.784625,0.6459006
0.03299645,0.7837732,0.6428829
0.03309733,0.785767,0.6432152
0.03412135,0.7838845,0.6396124
0.03608005,0.7821922,0.6344357
0.03797105,0.7793476,0.6376387
0.03767526,0.7762738,0.6427444
0.03363133,0.7791319,0.6463264
0.03097273,0.7798848,0.6423564
0.03026458,0.7787308,0.6351162
0.03117626,0.7804012,0.6383625
0.03269832,0.7807255,0.6406429
0.03065994,0.7807796,0.6386073
0.03065248,0.7817534,0.6409324
0.03378391,0.7839187,0.6401049
0.03649646,0.7854016,0.6368497
0.0387064,0.7832639,0.6358922
0.03882822,0.7814305,0.6355709
0.03877434,0.7812557,0.6366065
0.03658248,0.7802926,0.6370042
0.03252569,0.7781727,0.6401511
0.0313933,0.7785404,0.6449409
0.03172161,0.7811974,0.6425649
0.03218781,0.780463,0.63842
0.03094228,0.7803444,0.6375655
0.03034556,0.7820826,0.6386898
0.03271333,0.7817023,0.6413582
0.0337148,0.7821956,0.6401494
0.03353121,0.7816269,0.6376227
0.03325893,0.7797956,0.6373221
0.03436136,0.778565,0.6353023
0.03621471,0.7759341,0.6343041
0.03610658,0.7760724,0.6348029
0.03586888,0.7818541,0.635532
0.03426939,0.7879232,0.640088
0.03266658,0.7845542,0.6464311
0.03284436,0.7789593,0.6488699
0.03080306,0.7828208,0.6467714
0.02828784,0.7825188,0.6461028
0.03004476,0.7785985,0.6453924
0.03610024,0.7797921,0.641903
0.04051578,0.7786308,0.6436013
0.0394007,0.7800231,0.6457726
0.03792147,0.7837305,0.643165
0.03920768,0.7839325,0.6418186
0.03856608,0.7823096,0.6405348
0.03470237,0.7804143,0.6430748
0.03241882,0.7831266,0.6468086
0.03210189,0.7842141,0.6404727
0.0320876,0.7839895,0.6353771
0.03172208,0.7857737,0.640467
0.03081169,0.7820361,0.6435886
0.03116191,0.7812513,0.6420309
0.03348642,0.7826991,0.6429313
0.03830808,0.7811936,0.6434159
0.04045379,0.7826942,0.6407137
0.03905032,0.782657,0.640161
0.0405821,0.7831497,0.6421672
0.0401976,0.7831475,0.6432356
0.03642434,0.7808098,0.6415607
0.03304668,0.782201,0.6390235
0.03068864,0.7810473,0.6394256
0.03211649,0.7790741,0.640074
0.03250568,0.7802158,0.6431909
0.03127923,0.7807218,0.6498354
0.03196053,0.7818105,0.6484631
0.03016054,0.7819472,0.6430678
0.02979406,0.7812775,0.6441804
0.03641507,0.7785037,0.6446291
0.04265041,0.7749867,0.6412756
0.04082055,0.7762826,0.6400834
0.03734729,0.7774199,0.6428152
0.03756351,0.7776918,0.645654
0.03429614,0.7801549,0.6445954
0.03081499,0.78169,0.6440541
0.0310284,0.7838462,0.6471459
0.03070937,0.786661,0.6491351
0.03254595,0.7861303,0.6482932
0.03243501,0.7844211,0.6449317
0.03111028,0.783026,0.6419496
0.03401756,0.7811684,0.6415077
0.03551979,0.7818151,0.6404104
0.03836423,0.7825232,0.6423654
0.04101315,0.7810817,0.6457229
0.03963512,0.7803298,0.6421814
0.03929506,0.7791341,0.6386174
0.03649581,0.7805921,0.6390608
0.03318848,0.7844658,0.6396117
0.03215648,0.7848801,0.6400063
0.03048437,0.7839263,0.6368075
0.0316078,0.7807052,0.6332584
0.03590458,0.7776734,0.6349819
0.04060417,0.7805826,0.6375669
0.04048914,0.7823128,0.6398904
0.03811805,0.7815529,0.6437264
0.0393609,0.7821164,0.6449935
0.03772325,0.7809385,0.6424617
0.03580239,0.7803064,0.6409133
0.03616432,0.7816389,0.6415141
0.0336577,0.7821564,0.6410792
0.03212594,0.7820718,0.6397884
0.03163334,0.7817437,0.6408657
0.03196506,0.7819978,0.6444139
0.03387803,0.7826088,0.6473574
0.03579872,0.7844115,0.6465234
0.03843576,0.7870974,0.642154
0.03689292,0.7862114,0.639807
0.0352653,0.7841487,0.6403339
0.03856749,0.782953,0.6402333
0.03938867,0.7803684,0.6403357
0.03840832,0.7798339,0.640827
0.03712146,0.7803637,0.6428352
0.03544041,0.7793825,0.6449118
0.03593807,0.779764,0.6417509
0.03544934,0.7794284,0.6378177
0.03392828,0.7790603,0.637776
0.03286912,0.7826005,0.6375414
0.03161961,0.7859915,0.6362126
0.03234883,0.7857332,0.6360197
0.03584716,0.7816121,0.6361227
0.0385576,0.7776745,0.6360467
0.03789775,0.7798127,0.6373037
0.03779728,0.7818148,0.6413779
0.03947958,0.7801498,0.6453587
0.03888895,0.7813092,0.6416262
0.03734914,0.7821522,0.6363911
0.03647024,0.77896,0.6399111
0.03483358,0.777443,0.643515
0.0341531,0.7806905,0.6443542
0.03426402,0.7848143,0.6450989
0.03369555,0.7844801,0.641769
0.03412079,0.7819915,0.6399141
0.03421708,0.7807259,0.6398259
0.03372077,0.7786575,0.63901
0.03497001,0.7785181,0.6412224
0.03738067,0.7799614,0.6423058
0.03946769,0.7788593,0.6431676
0.03749848,0.779119,0.6447172
0.03468276,0.7805321,0.6440262
0.03592726,0.7802555,0.6441892
0.03387816,0.7795472,0.6418811
0.03028182,0.7768484,0.64009
0.03172788,0.7746753,0.6458129
0.03348261,0.775023,0.6491451
0.035468,0.7756654,0.641794
0.03831153,0.7786207,0.634737
0.03993248,0.781499,0.6410009
0.0406216,0.7794338,0.6497486
0.03833625,0.7755379,0.6504126
0.03657206,0.7750816,0.6496385
0.03709746,0.7788318,0.6459954
0.0340324,0.7826618,0.6419695
0.03025859,0.7820497,0.641617
0.02993485,0.778512,0.6388279
0.02933953,0.7771923,0.6374574
0.0289234,0.7779308,0.6418659
0.03178247,0.7787904,0.6458403
0.03588616,0.7789728,0.6425586
0.03941694,0.7764007,0.6371342
0.04130591,0.7741041,0.6373675
0.04015007,0.7746503,0.6379308
0.03982295,0.7745697,0.6390615
0.04079112,0.7731569,0.6408886
0.04002134,0.7733266,0.6382705
0.03932973,0.7752041,0.6376536
0.03553125,0.7790265,0.6429382
0.02900115,0.7854691,0.6504383
0.0278247,0.7871477,0.652369
0.02895903,0.7844287,0.6460541
0.02787233,0.7839638,0.6420904
0.02946916,0.7813858,0.6437159
0.0339303,0.7808953,0.6455807
0.03677762,0.7834646,0.6461802
0.03882999,0.7821701,0.6460708
0.03978401,0.7833937,0.641668
0.03928686,0.7840173,0.635322
0.04056853,0.7814383,0.6391482
0.04017603,0.7820484,0.645386
0.03698486,0.7806433,0.644168
0.03565977,0.778213,0.6444763
0.03526268,0.7776286,0.6445915
0.0337776,0.7776522,0.6427991
0.0311687,0.7802946,0.6424231
0.03160638,0.7818213,0.6412202
0.03530717,0.7821567,0.6429029
0.03761399,0.781789,0.6455884
0.04059958,0.7796965,0.6455657
0.04092685,0.7791876,0.6438777
0.03842452,0.7801099,0.6400091
0.03912423,0.7828128,0.6407376
0.03885914,0.7841676,0.6451703
0.03843901,0.7828977,0.6450299
0.03864465,0.7830764,0.6436721
0.03768085,0.781099,0.6440468
0.0392631,0.7771455,0.6444173
0.03893778,0.7764721,0.6445876
0.03647776,0.7807479,0.6442781
0.03618181,0.7847061,0.6437824
0.03684847,0.7807878,0.6450102
0.038948,0.7773157,0.6479229
0.03824375,0.7803833,0.648905
0.03310781,0.7831679,0.6482093
0.02919105,0.7852039,0.6478167
0.02982185,0.7849522,0.6444008
0.03173902,0.7810466,0.6403185
0.03046159,0.7790324,0.6430734
0.03226372,0.7787913,0.6459694
0.0365048,0.7782152,0.6429665
0.03620359,0.7781333,0.6426093
0.03589923,0.7792259,0.6445185
0.03532613,0.7813278,0.6438714
0.0341714,0.7808607,0.6415787
0.03497506,0.7799978,0.6375655
0.03448406,0.7819806,0.636206
0.03359714,0.781972,0.6363334
0.03230574,0.7808412,0.634058
0.03226093,0.7798142,0.6348491
0.03671138,0.7766298,0.6380899
0.04022225,0.7742697,0.6393081
0.03912804,0.7753691,0.6391924
0.03711576,0.7801007,0.6396075
0.03759588,0.7832433,0.6442629
0.03769744,0.7816574,0.6487789
0.03601603,0.7793486,0.6457555
0.03253122,0.777018,0.6428071
0.02755772,0.7761144,0.6442022
0.02926534,0.7785421,0.6407775
0.032433,0.7817529,0.6344541
0.02985305,0.7825665,0.6347583
0.0315716,0.78183,0.6397216
0.03552323,0.782481,0.6429448
0.03817597,0.7815877,0.6424338
0.04157321,0.7778312,0.6425429
0.03939534,0.775497,0.6452671
0.03676711,0.7770044,0.6436109
0.03774651,0.7810723,0.6400203
0.0364495,0.7826518,0.6403324
0.03571865,0.7800468,0.6403506
0.03611578,0.778377,0.6412651
0.03530773,0.7803949,0.6431569
0.035236,0.7820913,0.6428616
0.03497888,0.7818918,0.6423133
0.03296944,0.7822374,0.6412937
0.03105427,0.7827833,0.641292
0.03189055,0.7831735,0.6421265
0.03287138,0.7818229,0.643196
0.03321839,0.7796316,0.6441389
0.03541996,0.7812472,0.6397895
0.03513909,0.78461,0.63832
0.03411317,0.7867679,0.6429638
0.03685711,0.7858116,0.6431357
0.03990428,0.7808934,0.6423447
0.04202151,0.7780209,0.6413127
0.03909028,0.7791453,0.6404925
0.03296211,0.7805605,0.6420668
0.03255938,0.7807008,0.6389212
0.03308279,0.7805781,0.6401469
0.03300967,0.7815896,0.6440658
0.03723469,0.7821612,0.6430474
0.04057196,0.7818002,0.6470861
0.040774,0.7808362,0.6459089
0.04155529,0.7794867,0.6409005
0.04228147,0.7796496,0.6421266
0.04134906,0.7799357,0.6410698
0.04146372,0.7790873,0.6419623
0.04143064,0.77973,0.6419949
0.0375261,0.7838486,0.6408142
0.03420592,0.7868406,0.6422816
0.03460787,0.7828192,0.6390522
0.03685842,0.7786395,0.6375261
0.03816378,0.7805997,0.6381966
0.03785615,0.7814551,0.6411545
0.04044721,0.77979,0.6477291
0.04460916,0.7808883,0.6489483
0.04604988,0.7818143,0.6494381
0.04458044,0.7818676,0.6497409
0.03947933,0.7833027,0.6462202
0.03436315,0.7833622,0.6435033
0.03523206,0.7827661,0.6433062
0.03776397,0.7808403,0.6427379
0.03639871,0.7775143,0.6393959
0.03729709,0.7764108,0.6414217
0.03859292,0.7756446,0.643714
0.03685192,0.7786787,0.6360224
0.03959311,0.7840919,0.6311945
0.04125105,0.7817181,0.6350585
0.03951003,0.7779294,0.6430622
0.03968989,0.7779626,0.6495995
0.03760668,0.7778255,0.6467295
0.03424686,0.7806067,0.6394774
0.03121655,0.7831029,0.6362207
0.03184403,0.7820743,0.6371302
0.03493948,0.7834968,0.6381952
0.03285815,0.7855389,0.6378178
0.03279203,0.7846014,0.6399246
0.03426041,0.7834703,0.6428509
0.03296096,0.7832531,0.6416353
0.03554257,0.7824133,0.6396995
0.03830391,0.7788619,0.6387701
0.04019928,0.7750848,0.6372875
0.04227728,0.7761608,0.6402523
0.03993363,0.7792004,0.6449906
0.0375555,0.7794609,0.6442287
0.03719871,0.7799644,0.6411097
0.03591677,0.7810588,0.637826
0.03561217,0.7805419,0.6370836
0.03653132,0.7810648,0.6406654
0.0357631,0.7805881,0.6421741
0.03399345,0.7785107,0.6398936
0.03332588,0.7793043,0.6382014
0.03403535,0.7813546,0.6400716
0.0369093,0.7823186,0.6425228
0.04013966,0.781726,0.6423579
0.04228242,0.7798918,0.6439506
0.04220902,0.778402,0.6473769
0.03989548,0.7771852,0.6483367
0.04006623,0.7768818,0.6466924
0.03901289,0.7798012,0.6424742
0.03451679,0.7849436,0.6398377
0.03259283,0.7876307,0.6420646
0.03276465,0.7880883,0.6413179
0.03299763,0.7849952,0.6381832
0.03162179,0.7780852,0.6400517
0.03189561,0.7780072,0.6407658
0.03493144,0.7806608,0.6398218
0.03428305,0.7783369,0.6406963
0.03477795,0.7785955,0.6399865
0.04005128,0.7770985,0.6403241
0.04304111,0.7739799,0.6405039
0.03993326,0.7780351,0.6404146
0.03724768,0.7815824,0.6433523
0.03964246,0.7814833,0.6450349
0.03839749,0.7819989,0.6436796
0.03437577,0.7821113,0.6386858
0.03214073,0.7818631,0.6344595
0.03113441,0.7818633,0.6358757
0.03465178,0.7820877,0.6370504
0.03630857,0.7818704,0.6366581
0.03582085,0.7818879,0.6375976
0.03702647,0.7815667,0.6388568
0.03738063,0.7790906,0.6415642
0.03960877,0.7774222,0.6456332
0.03934556,0.7801401,0.644429
0.03796301,0.7860902,0.6413167
0.03961512,0.7885601,0.6429983
0.03830392,0.7855807,0.6399355
0.0372283,0.7837499,0.636875
0.03746378,0.7848187,0.6450485
0.03697653,0.7847754,0.650582
0.03646909,0.7823899,0.6451035
0.03524462,0.7805553,0.6394089
0.03666193,0.7803041,0.6399072
0.03737449,0.7807194,0.6388124
0.03701281,0.7816683,0.6358363
0.03807395,0.7820198,0.6385638
0.03618874,0.7820744,0.6398285
0.03515366,0.7820728,0.6394132
0.03387909,0.7828805,0.6436681
0.03125462,0.7847316,0.6460218
0.03493015,0.7847489,0.6440697
0.03894106,0.7837444,0.6437538
0.03746908,0.7832748,0.6438743
0.03536542,0.7840446,0.636973
0.03580664,0.7847835,0.6311533
0.03674699,0.7817708,0.635176
0.03574074,0.7787953,0.6385569
0.03604312,0.7797536,0.6383104
0.03647342,0.7811575,0.64227
0.03570833,0.7804324,0.6497597
0.03635331,0.7792875,0.6506931
0.03610429,0.7795536,0.6446227
0.03574997,0.7809768,0.6417983
0.03547606,0.7834138,0.642833
0.03459124,0.783801,0.6437114
0.03685432,0.7818888,0.6428262
0.04007851,0.7818425,0.6427083
0.03991067,0.7820054,0.6425882
0.03572536,0.7812949,0.637243
0.03175532,0.7794501,0.6331561
0.03284809,0.7773162,0.6350907
0.03340263,0.7802173,0.6390726
0.03107738,0.7834416,0.6408074
0.03214834,0.7818027,0.6384891
0.03437827,0.7813741,0.6370884
0.03507326,0.7826563,0.6391522
0.03706129,0.7826802,0.6412752
0.0390883,0.7830733,0.6402937
0.04099321,0.7817682,0.6396503
0.04229904,0.7785239,0.6412731
0.04081582,0.7780939,0.6421424
0.03796887,0.7790569,0.6452433
0.03483744,0.7799219,0.6470056
0.03357472,0.781211,0.6446497
0.03265159,0.7804605,0.6430476
0.03009232,0.7807598,0.6402084
0.03061822,0.7838417,0.6393481
0.0322093,0.7861629,0.6410646
0.03424456,0.7861946,0.6405713
0.03927823,0.7830826,0.6427472
0.04112976,0.7806279,0.6456468
0.03931562,0.7802565,0.6444539
0.03816291,0.7792196,0.6439404
0.03779994,0.7807517,0.6439222
0.03672435,0.7838034,0.6399408
0.03536151,0.7836769,0.6363059
0.03648965,0.7832789,0.6389638
0.03730263,0.7852913,0.6417678
0.03710976,0.7863795,0.6401082
0.03708953,0.7843406,0.6406861
0.03622927,0.7823608,0.6418743
0.03953832,0.7823804,0.6374856
0.04347072,0.7819215,0.632984
0.04248638,0.7804653,0.6327637
0.0418311,0.7795901,0.6343689
0.03918146,0.7789131,0.6371764
0.03443886,0.778967,0.640603
0.03550992,0.7795259,0.6411717
0.03722484,0.7791346,0.6395511
0.03449539,0.7803641,0.6403208
0.03447023,0.7828587,0.6407524
0.03619044,0.7833535,0.6398892
0.03627949,0.7811837,0.6418408
0.03854869,0.7775547,0.6437845
0.04166873,0.7783165,0.6440514
0.04487805,0.7825314,0.6412767
0.04650176,0.7826608,0.6382793
0.04326165,0.7812741,0.6441191
0.03962798,0.7820905,0.6494582
0.03778687,0.7820189,0.6449126
0.03698806,0.7805456,0.6411192
0.03556615,0.7795478,0.6412095
0.03277503,0.7792154,0.6390179
0.03219296,0.7808402,0.6377944
0.03481417,0.7824536,0.6436136
0.04001673,0.780124,0.6496368
0.04233215,0.7784159,0.6472984
0.04045874,0.7809278,0.6443306
0.04072324,0.7846586,0.6462406
0.04017425,0.7870633,0.6460347
0.03831662,0.7854989,0.6447024
0.03839215,0.7810015,0.6460109
0.03713808,0.7781403,0.6454339
0.0339652,0.7789056,0.6419937
0.0305046,0.7814968,0.6397905
0.02885879,0.7841632,0.6425662
0.03146308,0.7863081,0.6462538
0.03777475,0.7828722,0.6452105
0.04225661,0.7766363,0.6451987
0.04193772,0.7776159,0.6452602
0.04075633,0.7806558,0.6405981
0.03811079,0.7813168,0.6375558
0.0350238,0.7826606,0.6381202
0.0357705,0.7818026,0.6418232
0.03695914,0.7815621,0.6461493
0.0367403,0.7823334,0.6447559
0.03756606,0.7806277,0.6433745
0.03798264,0.780751,0.6451814
0.03706149,0.7824212,0.6443829
0.0377329,0.7837424,0.6438574
0.03887493,0.7834186,0.6440474
0.03963363,0.780902,0.6421325
0.04058865,0.7803283,0.6413376
0.03836561,0.7813712,0.6410568
0.03663309,0.7850177,0.6413358
0.03775479,0.7885566,0.6425346
0.03720787,0.7846772,0.6422095
0.03561199,0.7797167,0.6427968
0.03422942,0.7793308,0.6418563
0.03464779,0.7792848,0.6390737
0.03645956,0.7792476,0.6403569
0.03786137,0.781107,0.6408478
0.03955607,0.7825569,0.6396516
0.03908477,0.7823131,0.6418699
0.03833456,0.7834999,0.6465322
0.03930531,0.7850579,0.6513196
0.03880486,0.7831443,0.6492594
0.03852615,0.780924,0.6449951
0.03809386,0.7819716,0.64781
0.03612463,0.7826408,0.647981
0.03615226,0.7827044,0.6460649
0.03842706,0.7855574,0.6471156
0.04100725,0.786391,0.6426385
0.04152222,0.7827583,0.6384886
0.03909354,0.7793119,0.6403718
0.03603451,0.7784212,0.6410001
0.03234243,0.7798424,0.6408336
0.03105462,0.7814696,0.6418865
0.03449438,0.7839107,0.6423606
0.03656197,0.785966,0.64328
0.03707416,0.7853039,0.646816
0.03885554,0.7859061,0.6510456
0.03910964,0.785456,0.6527683
0.03879356,0.7821008,0.6490679
0.03929535,0.7818474,0.6401049
0.04095021,0.7838901,0.6350217
0.04410345,0.7847057,0.6352302
0.04424268,0.7821372,0.6391431
0.03958585,0.7783209,0.6491577
0.03512247,0.7788629,0.6533338
0.03546264,0.7797654,0.6474089
0.03700433,0.7787465,0.6413563
0.03608852,0.7796337,0.6386917
0.03769554,0.7810797,0.638952
0.0399168,0.7822713,0.6388389
0.03815012,0.782166,0.6387526
0.03594549,0.780547,0.6395574
0.03476754,0.7806511,0.639997
0.03724095,0.7815069,0.6405887
0.04216303,0.7820934,0.6382639
0.0419182,0.7822276,0.6369458
0.0387323,0.7808851,0.6398757
0.03596825,0.7788542,0.6416639
0.0336761,0.7772238,0.6416793
0.03484348,0.7793604,0.6397565
0.03622564,0.7822535,0.6381407
0.0360322,0.7815536,0.6392039
0.03744982,0.7821401,0.6399199
0.03934654,0.7818907,0.6404206
0.04262914,0.7793501,0.6409711
0.04484315,0.7782841,0.642196
0.03990928,0.7772869,0.6427232
0.03458588,0.7792765,0.6397572
0.03577026,0.7826113,0.6392754
0.1233835,0.8123268,0.5825123
0.1260237,0.8121434,0.5814486
0.1270139,0.8118307,0.5817272
0.1274876,0.8109142,0.5809408
0.1275576,0.8120566,0.5818822
0.1237455,0.8141207,0.584839
0.1212436,0.8150083,0.5837946
0.1189892,0.815418,0.582619
0.1195895,0.8154143,0.5856334
0.1233782,0.8150898,0.5863818
0.12313,0.815344,0.5824802
0.1244037,0.81518,0.5790584
0.1263617,0.8138764,0.5794428
0.1261241,0.8119539,0.5830218
0.1284901,0.8109572,0.5837117
0.1287446,0.8140866,0.5818451
0.1296444,0.8183049,0.5813408
0.1324525,0.818035,0.5787473
0.1273031,0.8150561,0.5801866
0.1204777,0.8132784,0.5847608
0.1191173,0.8147385,0.5828644
0.118078,0.8169896,0.5820171
0.1184875,0.8162067,0.5827453
0.1211697,0.813636,0.5829822
0.1216929,0.8106158,0.5856317
0.1232417,0.8085937,0.5837938
0.128102,0.8087108,0.5814042
0.1322591,0.8105642,0.5826478
0.1357035,0.8153184,0.5834827
0.1358981,0.8183578,0.5853201
0.1343495,0.8170575,0.5850936
0.1353938,0.8172189,0.5843877
0.12846,0.8180603,0.5871542
0.1155191,0.81864,0.5888737
0.1104626,0.8196175,0.5886069
0.1092589,0.8167248,0.5862226
0.1106265,0.8135173,0.5838428
0.1175953,0.8125539,0.585907
0.1237462,0.809787,0.5893968
0.127092,0.8094944,0.5927399
0.1307736,0.8139121,0.5936357
0.1333625,0.8163628,0.5848905
0.1314403,0.8149823,0.5757456
0.1294033,0.8130423,0.5802494
0.128934,0.8129063,0.5850216
0.1257024,0.8159475,0.5820574
0.122637,0.8195002,0.5858276
0.1192312,0.8191776,0.5895417
0.1164382,0.8173504,0.5854143
0.1175773,0.8157343,0.5842972
0.1172727,0.8134188,0.5823358
0.119041,0.8160422,0.5791222
0.1245863,0.8194055,0.5809711
0.1269144,0.8148366,0.5823685
0.1280715,0.8109885,0.5846486
0.1282802,0.8100832,0.5881575
0.1275624,0.8074961,0.588378
0.129756,0.808518,0.5888347
0.130403,0.8120486,0.5871257
0.1256014,0.8150539,0.5782403
0.1202995,0.8175933,0.5724949
0.1195512,0.8166073,0.5755741
0.1198253,0.8146247,0.5761141
0.1173864,0.8150729,0.5765894
0.1174694,0.8156646,0.5834955
0.1198493,0.8151314,0.586221
0.1227394,0.8149725,0.5844306
0.129842,0.8144358,0.5839355
0.1323028,0.8125666,0.5828927
0.1271007,0.8128373,0.5827378
0.124529,0.8162984,0.5827026
0.1233928,0.819086,0.578864
0.1239202,0.8181054,0.5766379
0.1260854,0.8154793,0.5829036
0.1246829,0.814922,0.5865217
0.1237845,0.8143728,0.5816294
0.1210936,0.8135368,0.5785619
0.116243,0.8143612,0.5773969
0.1176896,0.8160187,0.5784808
0.1195569,0.8189656,0.5812751
0.1194268,0.820288,0.5821363
0.1232291,0.8191136,0.5867244
0.1249598,0.8191869,0.5896258
0.1239973,0.8187576,0.5844276
0.1262205,0.817628,0.5800018
0.1270868,0.8180071,0.5824211
0.1264389,0.8179135,0.5867158
0.1292085,0.8161404,0.5877217
0.1305875,0.814709,0.5872446
0.125493,0.8155301,0.5833602
0.1182335,0.8173842,0.5786909
0.1169914,0.8184168,0.5788711
0.1209456,0.8182461,0.5792739
0.122841,0.8177725,0.5790501
0.1227146,0.8179642,0.5782903
0.1231675,0.8171006,0.5772966
0.1251812,0.815315,0.5788829
0.1260263,0.8155559,0.5821927
0.1241551,0.8180545,0.5856898
0.124846,0.8197434,0.5835904
0.1247315,0.8167033,0.5805273
0.1225872,0.8120391,0.5845925
0.1244709,0.8119728,0.5875261
0.1265492,0.8130121,0.5869767
0.1277204,0.8126104,0.5851305
0.1267927,0.8146534,0.5821949
0.1235704,0.8177328,0.5830967
0.1249062,0.8188369,0.5834103
0.1250404,0.8185117,0.5791746
0.1233798,0.8176636,0.5771473
0.1256432,0.8165048,0.5794043
0.1253215,0.8159728,0.581558
0.1239887,0.8165487,0.5802625
0.1235347,0.8164667,0.577425
0.1206157,0.8163352,0.5741976
0.1204148,0.8155649,0.5709791
0.1228078,0.8143411,0.5737228
0.1249595,0.8157819,0.5794078
0.1272466,0.8157209,0.5817314
0.1265122,0.8154481,0.5844456
0.1244505,0.8176072,0.5885713
0.1233609,0.81634,0.5907423
0.1216019,0.8153462,0.5860027
0.122248,0.8156179,0.579916
0.1250322,0.8146912,0.5819842
0.1269002,0.8156707,0.5821197
0.1281782,0.8158238,0.5774471
0.1259323,0.8176135,0.5759935
0.1229534,0.8201837,0.577165
0.1238493,0.8163831,0.580749
0.1248136,0.8119793,0.5829763
0.1257943,0.8113533,0.5830335
0.125723,0.811998,0.5813663
0.1224931,0.8128826,0.5755106
0.1206571,0.8135059,0.5720778
0.1205364,0.814402,0.573026
0.1197909,0.8162985,0.5774668
0.1183686,0.8197897,0.582585
0.118262,0.821175,0.5810371
0.1218152,0.8171882,0.5802652
0.1248006,0.8137592,0.583053
0.1236556,0.8152052,0.5817558
0.122052,0.8160624,0.5793988
0.122293,0.8146758,0.575489
0.1222533,0.8153531,0.57061
0.1224003,0.8156131,0.5746994
0.1242329,0.8148344,0.5832449
0.1254196,0.8155689,0.5859192
0.1246366,0.8152476,0.5834298
0.1220785,0.8150898,0.5760875
0.1200139,0.8155541,0.570179
0.1207298,0.8150504,0.5742317
0.1212165,0.8153701,0.5804308
0.1209797,0.8158679,0.5811939
0.1225912,0.8178051,0.5800094
0.1242858,0.8204348,0.578733
0.1239202,0.8194664,0.5772802
0.1244254,0.8179574,0.5773614
0.1277111,0.8181463,0.5773352
0.1300331,0.8179654,0.5760331
0.1300092,0.8178465,0.5771436
0.1288662,0.817294,0.5784836
0.1272987,0.8159073,0.5775273
0.1250461,0.8148172,0.5780438
0.121742,0.8136077,0.5797686
0.1217588,0.8134617,0.5816492
0.1238785,0.8145414,0.5844189
0.1233308,0.8146551,0.5869623
0.1227402,0.8153322,0.5868899
0.1228146,0.8153767,0.5834858
0.1254055,0.8130268,0.5811154
0.1293465,0.8122863,0.5822201
0.1279792,0.8133584,0.5853851
0.1268384,0.8142364,0.5886775
0.1285064,0.8142674,0.5894893
0.1276083,0.8143693,0.5887578
0.1275071,0.8158112,0.5881711
0.1281907,0.8154232,0.5851275
0.1271194,0.81498,0.5776611
0.1260711,0.8173084,0.5729721
0.124925,0.8205226,0.5775455
0.1265488,0.8240385,0.5835107
0.1303462,0.8225703,0.5865908
0.1320464,0.8165943,0.5894388
0.1326619,0.8147545,0.5877723
0.1286247,0.817755,0.5811983
0.1224247,0.8206063,0.5758135
0.1235518,0.8187323,0.5757427
0.1237846,0.816491,0.5767513
0.1198243,0.8167518,0.5740451
0.1208303,0.8138826,0.5745572
0.1222891,0.8129225,0.5770245
0.1245989,0.8147494,0.579254
0.1296269,0.8135402,0.5871088
0.1283925,0.8139318,0.5892192
0.1273797,0.8155332,0.5839736
0.1303713,0.8169326,0.5827329
0.1289277,0.8189544,0.5815304
0.1273053,0.8182073,0.5810231
0.1263882,0.8184946,0.5799892
0.1232762,0.8201823,0.5771014
0.1213978,0.8187862,0.5812137
0.1191157,0.8165305,0.5852316
0.1198795,0.8147396,0.5830764
0.1252224,0.8147974,0.5820345
0.127924,0.8159196,0.5811878
0.1306794,0.8150382,0.5810393
0.1330157,0.8150709,0.5854279
0.1303866,0.8156786,0.586404
0.127682,0.8149628,0.5825587
0.124679,0.815002,0.581994
0.1215954,0.8136317,0.5791787
0.1217097,0.8120656,0.5776509
0.1207226,0.8144653,0.5837422
0.1189163,0.8168632,0.5851824
0.1205047,0.8163624,0.585512
0.1236981,0.8161875,0.5862834
0.1261844,0.8167725,0.5814949
0.1286242,0.8147161,0.5815242
0.1293496,0.8117107,0.5834597
0.1257635,0.8111632,0.5857384
0.1213187,0.8120151,0.5899185
0.1197884,0.8150559,0.5839751
0.1198763,0.8179908,0.5765841
0.1188306,0.8183257,0.5790567
0.1183633,0.8191673,0.5824701
0.1215529,0.8195479,0.5804868
0.1250334,0.8192612,0.5775619
0.1264273,0.8183261,0.5776411
0.1241675,0.8155634,0.5757123
0.1197333,0.8139523,0.5732798
0.1211674,0.8135661,0.5740196
0.1253042,0.813936,0.5754172
0.1256953,0.8144857,0.5779767
0.1216877,0.815347,0.578297
0.1158006,0.8174293,0.5772265
0.1175644,0.8170505,0.5790017
0.1211332,0.8167881,0.5821674
0.1203814,0.8178999,0.585611
0.1239093,0.816362,0.5833339
0.1246503,0.8165737,0.5779865
0.1223792,0.8190154,0.5772947
0.1243703,0.8193504,0.5767327
0.1237058,0.8176471,0.5789687
0.1238802,0.8152158,0.5844594
0.1248569,0.8154881,0.583706
0.122005,0.8161882,0.5807892
0.1218748,0.8131229,0.5805897
0.122703,0.8115487,0.578907
0.1227519,0.8128377,0.5769326
0.1229451,0.8136949,0.5778506
0.1210473,0.8176139,0.5795589
0.1208606,0.8224483,0.5808398
0.1240655,0.819848,0.5824282
0.1276753,0.8142822,0.581341
0.1285211,0.8132104,0.5797946
0.127042,0.8129748,0.5819866
0.1252481,0.8126187,0.5838197
0.1210851,0.8147275,0.5863347
0.1177832,0.8180618,0.5903848
0.1184318,0.8215589,0.5901345
0.1175399,0.8223354,0.5864099
0.1160892,0.8195042,0.5827369
0.1190298,0.8171003,0.5799123
0.122483,0.8182734,0.57741
0.1242711,0.8214921,0.577649
0.1258325,0.8222544,0.5800673
0.1260676,0.820091,0.5773734
0.127199,0.8160879,0.5750038
0.1277994,0.8142232,0.5772633
0.1237581,0.8168241,0.5777964
0.1197388,0.8179833,0.5803691
0.1184685,0.8180279,0.5833269
0.1170941,0.8179889,0.5817045
0.1162565,0.8159228,0.5815721
0.1179996,0.8149332,0.5823516
0.1206017,0.8154409,0.5808601
0.1220252,0.8178191,0.5769372
0.1226498,0.8213393,0.5710404
0.1226578,0.8227784,0.5694165
0.1248597,0.8212026,0.5720977
0.1284217,0.8181921,0.5741873
0.1276234,0.8177236,0.5779585
0.1240555,0.8181828,0.5805829
0.1201969,0.8181202,0.5778409
0.1174053,0.8194939,0.5770063
0.1183254,0.8213199,0.5784266
0.1203478,0.8229367,0.5783771
0.1223488,0.8221576,0.582385
0.1246164,0.8204299,0.5872197
0.125265,0.818547,0.5866257
0.1251023,0.813649,0.5852219
0.1248801,0.8112741,0.5854353
0.12495,0.8130415,0.5847064
0.1253518,0.814933,0.5835066
0.1257361,0.8174062,0.5817609
0.126523,0.8187722,0.578926
0.1256911,0.8180252,0.5800894
0.1243643,0.8177204,0.5817432
0.1251313,0.8176096,0.5787487
0.1251944,0.8144781,0.5790458
0.1247415,0.8111996,0.5806616
0.1249866,0.8123274,0.5801968
0.1242509,0.8131855,0.5810754
0.1241719,0.8122437,0.580469
0.1254372,0.8135688,0.5818161
0.1261318,0.8153135,0.5853754
0.1263866,0.8154033,0.586521
0.1265626,0.81527,0.5867105
0.1261285,0.81525,0.5864865
0.1254172,0.814903,0.587677
0.1248773,0.8135537,0.5870988
0.1255027,0.8118965,0.5852421
0.1287793,0.8122961,0.5874175
0.1316365,0.8127845,0.5879397
0.1306434,0.8115028,0.5867908
0.1290284,0.812252,0.5857947
0.1290143,0.8155521,0.5829155
0.1279498,0.8175716,0.5820474
0.125056,0.816806,0.5825483
0.1218149,0.816108,0.5843721
0.1199427,0.8172091,0.586981
0.1216632,0.8175944,0.5854429
0.1258176,0.8180211,0.5837905
0.1287241,0.8177873,0.5857398
0.1280382,0.8140915,0.58852
0.1251496,0.8114803,0.5906327
0.1246699,0.8123001,0.5877324
0.1252151,0.8129904,0.5789727
0.1247738,0.8123504,0.5747649
0.1252143,0.8122652,0.5790107
0.1256306,0.8128482,0.5822292
0.128638,0.8128449,0.5811052
0.1328004,0.815109,0.5833724
0.1323675,0.8175673,0.5879363
0.1312051,0.8158045,0.5868804
0.1312657,0.814552,0.5876169
0.1302047,0.8154908,0.5906434
0.1290104,0.815086,0.5830004
0.1270503,0.813269,0.5751127
0.1233672,0.8123888,0.5774024
0.1201974,0.814162,0.5778612
0.1191476,0.8166121,0.5744797
0.1200463,0.8188025,0.5746056
0.1215289,0.8233219,0.5759241
0.120846,0.8264034,0.5762567
0.12036,0.8221437,0.5774429
0.1213295,0.8155059,0.5765808
0.1218561,0.8097433,0.5757061
0.1269832,0.80469,0.5779457
0.1329569,0.8063781,0.5776113
0.1320396,0.8127166,0.5756991
0.1318579,0.8175127,0.5756916
0.1338875,0.8184597,0.5791337
0.1301486,0.8182562,0.584754
0.1248011,0.8227738,0.5832946
0.1229125,0.8235341,0.5785104
0.1198502,0.8201555,0.5782186
0.1172865,0.8199679,0.5808185
0.1209128,0.8152558,0.584671
0.1281789,0.811849,0.5826562
0.1325986,0.8139556,0.5788393
0.1316675,0.8154057,0.5816549
0.1310413,0.8191283,0.5841611
0.1310943,0.8178208,0.5839538
0.1265062,0.8139666,0.57883
0.1234919,0.8159274,0.5732236
0.1252577,0.8152686,0.5792725
0.1252281,0.8151501,0.5838269
0.1236923,0.8179091,0.5768912
0.123484,0.8189662,0.5739552
0.1237727,0.8197759,0.5808759
0.1245408,0.8173063,0.5865456
0.1258259,0.8148773,0.5851289
0.1277297,0.8153535,0.5841363
0.1298244,0.8151423,0.5843748
0.1285153,0.8156037,0.5811401
0.1231837,0.8165003,0.5810961
0.1194478,0.8185862,0.5830858
0.1205468,0.8199864,0.5812362
0.1226112,0.8174274,0.5806591
0.1221643,0.8159315,0.5799978
0.1223731,0.8161923,0.5784051
0.1243593,0.8142178,0.5803941
0.1252663,0.8119021,0.5808896
0.1252673,0.8138898,0.5792678
0.1244054,0.8164674,0.5793109
0.1231262,0.814123,0.5802082
0.1223651,0.8132905,0.5827964
0.1234681,0.8153337,0.5840177
0.1260829,0.8153552,0.5831072
0.1251421,0.8153162,0.5825981
0.1238504,0.8157998,0.5798054
0.1234126,0.8178541,0.5766815
0.1187098,0.8200918,0.5773522
0.1177296,0.817274,0.5785666
0.1236068,0.8128866,0.5779922
0.1290058,0.8125413,0.5801937
0.12986,0.8161566,0.583289
0.1256908,0.8195461,0.5809718
0.1232974,0.8191926,0.5769177
0.1242991,0.8190848,0.5750901
0.1240091,0.8209519,0.5790145
0.1218036,0.8209454,0.5862985
0.1200017,0.8202873,0.5861832
0.1222043,0.8191135,0.583894
0.124769,0.8164151,0.5835953
0.1250683,0.8162353,0.5807473
0.1256997,0.8170899,0.5808024
0.126476,0.8164549,0.5816992
0.1283186,0.8166858,0.5823471
0.127752,0.8167572,0.5855102
0.1241187,0.8165425,0.5817413
0.1223697,0.8167749,0.575037
0.1211363,0.8165992,0.5753566
0.1196609,0.8166866,0.5794362
0.1177873,0.8165103,0.5829697
0.1180926,0.8157237,0.5798227
0.1208762,0.8154201,0.5747456
0.1204785,0.8169092,0.5738521
0.1222834,0.8188341,0.5708068
0.1251079,0.8183485,0.5740219
0.1232152,0.8184649,0.5844959
0.1242923,0.8200763,0.5856202
0.1258314,0.8191407,0.5808441
0.1245745,0.8172706,0.5777443
0.1250965,0.8164656,0.5780459
0.1250672,0.8163321,0.5826604
0.1243385,0.8171687,0.5828162
0.1224596,0.8180833,0.5809022
0.1200636,0.8207547,0.5828385
0.1215042,0.8230977,0.5835842
0.1236084,0.8203766,0.5840146
0.125043,0.8183444,0.5836771
0.1287293,0.819765,0.5827327
0.1298563,0.819288,0.5846915
0.1253604,0.8168234,0.584905
0.1207961,0.8136048,0.5829504
0.1175555,0.8116477,0.5806486
0.1158469,0.8135798,0.5780929
0.1179181,0.8155572,0.5790502
0.1197278,0.8154172,0.5798281
0.1203163,0.8161523,0.5784346
0.1216006,0.8170291,0.5780883
0.1227628,0.81664,0.5758808
0.1247077,0.8165677,0.5740438
0.1238758,0.8165614,0.5748961
0.1184634,0.8157563,0.5734154
0.1150374,0.8149978,0.5719242
0.1160066,0.8151692,0.5753925
0.1176913,0.8158613,0.5806417
0.1192962,0.8169399,0.5832061
0.1222156,0.8182103,0.5832183
0.1245233,0.8166152,0.5816295
0.1253396,0.8145365,0.5794658
0.1252561,0.8173051,0.5795219
0.124413,0.8200073,0.581666
0.1242686,0.818883,0.5829957
0.1236885,0.8166681,0.5814666
0.1240467,0.8149117,0.5801155
0.1256089,0.8170249,0.5817287
0.1236447,0.8210697,0.5802453
0.1211904,0.8207138,0.5766646
0.1208274,0.8178355,0.575183
0.1214034,0.815828,0.5731426
0.1227024,0.8153929,0.5756961
0.1209685,0.8159851,0.5810261
0.1183631,0.8166978,0.581169
0.1185708,0.8184282,0.5805832
0.1220824,0.8175272,0.5818953
0.1285827,0.8146786,0.5826391
0.1295631,0.815336,0.5811037
0.123182,0.8155015,0.5789262
0.1191016,0.8154345,0.5776022
0.121233,0.8183298,0.5769774
0.1254188,0.8200475,0.5784522
0.1269243,0.8197553,0.5774684
0.1259149,0.8193757,0.5753345
0.1224172,0.8212608,0.5752423
0.1186938,0.822589,0.5743162
0.1198327,0.8193057,0.5750204
0.124,0.8170782,0.5734631
0.1285592,0.8179941,0.5725952
0.1300649,0.8184642,0.5807534
0.1267411,0.8177056,0.5863322
0.1247161,0.8171571,0.5809208
0.1249666,0.8179852,0.574903
0.1249869,0.8197657,0.5783778
0.1250819,0.8209831,0.5824454
0.1243861,0.8173794,0.5829164
0.1218066,0.8138844,0.5862257
0.1171992,0.817595,0.5837017
0.1145549,0.8210105,0.5781818
0.1162776,0.8209838,0.5768363
0.1202671,0.8210652,0.578864
0.1247924,0.8213968,0.5857017
0.1251654,0.8215201,0.5836014
0.1243738,0.8197857,0.5778437
0.1287065,0.8189431,0.5794613
0.1285918,0.8211911,0.5772388
0.123469,0.823846,0.5765808
0.1238099,0.8249872,0.5789824
0.1255033,0.821731,0.5801819
0.1267777,0.8165167,0.5824537
0.128025,0.81306,0.5793704
0.1268361,0.808584,0.5763966
0.1251658,0.8075034,0.5779571
0.1183322,0.8118114,0.5775924
0.113271,0.8157668,0.5748784
0.1195597,0.8210536,0.572687
0.1245601,0.8232024,0.5737429
0.1233879,0.8251675,0.5749353
0.121552,0.8328004,0.5742174
0.1208906,0.8276113,0.5716554
0.123445,0.8175125,0.5685282
0.1253024,0.8172217,0.5717314
0.1216838,0.8131838,0.5781575
0.1180179,0.8151979,0.5801882
0.1211861,0.8212187,0.5799673
0.1237399,0.8176531,0.5822881
0.1210275,0.8185566,0.5858401
0.1194145,0.8197153,0.5838669
0.1177086,0.8167693,0.5792524
0.1178266,0.8151851,0.5788649
0.1215968,0.8115291,0.5793776
0.1227169,0.8156497,0.5805085
0.1219343,0.8244764,0.5837653
0.1203332,0.8267478,0.585362
0.1189379,0.8264085,0.584247
0.12042,0.8231328,0.5807357
0.1212875,0.8199732,0.5776162
0.1204059,0.8190316,0.5763541
0.1189347,0.8167429,0.5746044
0.1184645,0.814423,0.5754095
0.1223711,0.8117377,0.5801456
0.1264706,0.8128441,0.5846139
0.1245378,0.8188598,0.5866468
0.1222069,0.8218317,0.5863579
0.124163,0.8203925,0.5817788
0.1235973,0.8179164,0.5754903
0.1210946,0.81589,0.5763983
0.1208794,0.8106703,0.5769688
0.1204438,0.8069972,0.5716651
0.1213744,0.8142689,0.5722821
0.122859,0.8201272,0.5706939
0.1236597,0.8178298,0.5645284
0.1244473,0.8184549,0.5697593
0.1239266,0.8229315,0.5758101
0.1253125,0.8251931,0.5751403
0.1257404,0.820087,0.5770276
0.125066,0.8140742,0.5782456
0.1261331,0.8163789,0.5779664
0.1210986,0.8171201,0.5786412
0.1165499,0.8139251,0.5792761
0.1216188,0.8153858,0.5795443
0.1252134,0.8164972,0.578947
0.1213243,0.8171812,0.5801529
0.117638,0.8210234,0.5808892
0.1180776,0.8216284,0.5791979
0.1184529,0.8212133,0.5781164
0.1196456,0.8196205,0.5775673
0.1222427,0.8121945,0.5788743
0.1234251,0.8094866,0.5809391
0.1260548,0.8130343,0.5827655
0.1283261,0.8146654,0.5857761
0.1282628,0.8158172,0.5852968
0.1246975,0.8163601,0.5787946
0.1164262,0.8160378,0.5723659
0.113168,0.814345,0.5728026
0.1144596,0.8121301,0.5748052
0.1138125,0.8161316,0.5729628
0.1168255,0.8222588,0.5742289
0.1228477,0.8239631,0.5774007
0.1264159,0.8252243,0.5781903
0.1255821,0.8252744,0.5780844
0.1240034,0.8225858,0.5768665
0.1263055,0.8209254,0.5762434
0.1260353,0.8178502,0.5746863
0.1237224,0.813877,0.5740681
0.1236025,0.8148417,0.575045
0.1215186,0.8162147,0.5737818
0.1208663,0.8149589,0.5779506
0.1213073,0.8162456,0.5839869
0.1209387,0.8189574,0.5837931
0.1247095,0.8216489,0.5846687
0.1272345,0.8243551,0.585897
0.1243031,0.8222804,0.5863443
0.1206583,0.8193516,0.5859155
0.1193589,0.8209842,0.5781192
0.1202657,0.8204349,0.5719323
0.1231737,0.8183177,0.5761963
0.1279774,0.8188588,0.580928
0.1284987,0.8183208,0.5834581
0.1249408,0.8193777,0.5867394
0.1238153,0.8215278,0.5843644
0.1229996,0.8190249,0.5788092
0.1217155,0.8170251,0.5765231
0.1206417,0.8182873,0.5767757
0.1204561,0.8183087,0.5785894
0.1226505,0.8177557,0.5810014
0.1241523,0.8181778,0.5849106
0.125347,0.8177611,0.5853819
0.1254833,0.8161252,0.5824807
0.1244991,0.8150265,0.5821184
0.1262373,0.8161053,0.5803476
0.1267909,0.8183756,0.5810418
0.125886,0.8192151,0.5847807
0.1252062,0.8192746,0.5860147
0.1218922,0.8188199,0.5851612
0.1199337,0.8175324,0.5810084
0.1208335,0.8176331,0.5805027
0.1213301,0.8166409,0.5786898
0.1221213,0.8145647,0.5725247
0.125037,0.8160993,0.5749836
0.1275699,0.8172503,0.5765896
0.1265102,0.8154789,0.5761151
0.1267388,0.815095,0.5819764
0.1285863,0.8164561,0.585639
0.1274725,0.8178877,0.5893027
0.1264259,0.8183666,0.5927077
0.125383,0.8176104,0.5884622
0.1231698,0.8165579,0.5817806
0.1216816,0.8169689,0.5783048
0.1209037,0.8201283,0.5772691
0.1232543,0.8212866,0.5780961
0.1261064,0.8168875,0.5819836
0.1241707,0.8138633,0.5879123
0.122661,0.8153772,0.5920696
0.1236945,0.8157718,0.5894329
0.1219147,0.8152382,0.5827233
0.1201309,0.8171314,0.5798945
0.121816,0.8187642,0.5815899
0.1234979,0.8182514,0.5834311
0.124929,0.818626,0.577377
0.1256964,0.8201373,0.570668
0.1244171,0.8204155,0.57552
0.1258686,0.8207725,0.5800357
0.1279149,0.8212017,0.5806949
0.1256135,0.8207466,0.5822787
0.1256297,0.8211833,0.5804507
0.1256232,0.8205583,0.5767514
0.1222059,0.8197873,0.5727914
0.123627,0.8226394,0.5750908
0.1240788,0.8232961,0.5803598
0.1208927,0.8206588,0.5772538
0.1208461,0.8197727,0.5771499
0.1205782,0.8180598,0.5805587
0.1208898,0.8188478,0.5786121
0.1216823,0.8224446,0.577932
0.1229936,0.820355,0.5765911
0.1264324,0.8181991,0.5742295
0.1260723,0.8184874,0.575073
0.1258507,0.8171202,0.5771624
0.127196,0.8173621,0.5825971
0.1258992,0.8157447,0.5889772
0.1256803,0.8146135,0.5902113
0.122786,0.8183351,0.5880206
0.1175534,0.8210728,0.5877459
0.1180716,0.8230114,0.5874046
0.1223567,0.8225994,0.5830468
0.1254957,0.8213422,0.5775141
0.1251628,0.8216378,0.5743077
0.1219814,0.8158373,0.5797777
0.1182258,0.8102595,0.5864973
0.1155628,0.8135231,0.5829195
0.1177995,0.8199549,0.5823029
0.1246117,0.8244848,0.5855904
0.1291145,0.8244409,0.5837397
0.1267848,0.8226204,0.5821231
0.1226707,0.8222874,0.5800116
0.1230233,0.8195056,0.5799509
0.1231247,0.8157812,0.5824953
0.1221021,0.8169787,0.5816931
0.1232285,0.8199407,0.58047
0.1233249,0.8211576,0.5751464
0.1248479,0.8209887,0.5683644
0.1257064,0.8183521,0.5715707
0.1239922,0.8168177,0.5758712
0.1246711,0.8173231,0.5746487
0.1229473,0.817376,0.5753498
0.1215872,0.8177387,0.5767558
0.1230276,0.8178364,0.576467
0.1233748,0.8183644,0.5765564
0.1253644,0.8181083,0.5767859
0.1251222,0.8176427,0.5765659
0.1255221,0.8185391,0.5751322
0.1273833,0.8176178,0.5755102
0.1255976,0.8170754,0.5798246
0.1256475,0.816928,0.582719
0.1249749,0.8170241,0.5807174
0.1243971,0.8190184,0.5777687
0.1257457,0.8192448,0.5791582
0.1243375,0.8210867,0.5795349
0.1241715,0.8228596,0.5755683
0.123985,0.8188325,0.5749058
0.1248351,0.8152349,0.5767361
0.1270223,0.815142,0.5784816
0.123413,0.8171963,0.5777919
0.1200485,0.8188227,0.5722947
0.1211096,0.8177778,0.5709607
0.1228431,0.8169369,0.5754201
0.1235686,0.8173182,0.5768987
0.1210258,0.8200589,0.5747491
0.1190828,0.8229593,0.5762902
0.1228256,0.8199147,0.5777806
0.1267464,0.8163489,0.5748695
0.1250335,0.8182366,0.5760596
0.1240839,0.8187816,0.5762778
0.1257986,0.8169382,0.5755444
0.1249497,0.8165793,0.5788189
0.1256074,0.8149089,0.5780309
0.1266256,0.8146304,0.5785958
0.1234065,0.8161015,0.5797743
0.1213485,0.8157713,0.5808164
0.1224692,0.8196004,0.5851606
0.1238789,0.8236977,0.5820814
0.1232443,0.8204913,0.5799351
0.1227259,0.8179401,0.5816232
0.1254058,0.8190554,0.5784235
0.1253891,0.8194151,0.5784079
0.1214728,0.8209184,0.5809122
0.1210546,0.8227408,0.5813039
0.1253845,0.8195877,0.5801382
0.129251,0.8165696,0.5803494
0.1275674,0.8183676,0.5822659
0.1229225,0.8184542,0.5806819
0.1209932,0.8175439,0.5776767
0.1210572,0.818186,0.5742406
0.121855,0.8171047,0.5756385
0.1219561,0.8161101,0.580017
0.1224031,0.8156437,0.5776473
0.126444,0.8143711,0.5801263
0.1287417,0.8143667,0.5854029
0.1270459,0.8159576,0.5819229
0.1240368,0.8175449,0.5769067
0.1208914,0.8190811,0.5735335
0.1211194,0.8199266,0.5739151
0.121442,0.8180038,0.5726218
0.1211038,0.8155423,0.5677727
0.1230176,0.8141622,0.5712018
0.1232531,0.813319,0.5747123
0.1234169,0.814655,0.5725033
0.1241095,0.8172677,0.5737993
0.1234365,0.8211963,0.5756754
0.1245358,0.8235013,0.5750979
0.1253015,0.8203559,0.574554
0.1235955,0.8174903,0.5745222
0.1209752,0.816204,0.5751135
0.1172278,0.8153806,0.5760661
0.1140014,0.8163592,0.5777706
0.1138891,0.8153999,0.5813136
0.1176274,0.8132342,0.5839563
0.1241901,0.8123996,0.5791583
0.1305984,0.8139398,0.5744403
0.1343317,0.8164175,0.5793888
0.1350899,0.8151838,0.5821244
0.1331348,0.8150771,0.5787822
0.1279833,0.8177048,0.5778846
0.1201207,0.8182326,0.5770568
0.1140093,0.8182803,0.574388
0.1136594,0.8182422,0.5729347
0.1145516,0.8197177,0.5742878
0.1141009,0.8213635,0.577086
0.1174789,0.8189237,0.5833055
0.121083,0.8176003,0.5910277
0.1215623,0.8199225,0.5857777
0.1267954,0.8216236,0.5778801
0.1329995,0.8201797,0.5829621
0.1310212,0.8164192,0.5827092
0.1290437,0.812802,0.577348
0.131321,0.8119779,0.5782288
0.1283274,0.8159541,0.5776302
0.1209924,0.8195941,0.5795168
0.1165546,0.819508,0.5817802
0.1170364,0.8182567,0.5798614
0.1194679,0.8157903,0.5807803
0.1176872,0.8150627,0.580489
0.1174821,0.8171991,0.579323
0.1209986,0.818638,0.5796922
0.1239245,0.8182775,0.5806298
0.1307705,0.8175664,0.5838097
0.1331925,0.8183152,0.5826676
0.1309178,0.818707,0.5773936
0.1333836,0.8198449,0.5738094
0.1324844,0.820718,0.5744938
0.1291428,0.8173818,0.5782271
0.1240733,0.8170492,0.5785556
0.1165598,0.8192221,0.5792027
0.11629,0.8175919,0.5818446
0.1176512,0.8177844,0.5820065
0.1173254,0.8183004,0.5810507
0.1209627,0.8157669,0.5809781
0.1252415,0.81544,0.5830102
0.1272434,0.8178954,0.5814729
0.1264528,0.819825,0.5782105
0.1249268,0.8171771,0.5781572
0.1250082,0.8136072,0.5774068
0.1250091,0.8151022,0.5813425
0.124903,0.8145602,0.5860137
0.1246023,0.8127731,0.585617
0.1222382,0.8156517,0.584085
0.1199898,0.8169858,0.580476
0.1206215,0.8177997,0.5814974
0.1213352,0.8187427,0.5822797
0.1205936,0.8155997,0.5787192
0.120727,0.8146124,0.5797955
0.1210946,0.8158802,0.5802413
0.1211731,0.8159325,0.5821875
0.1235335,0.8168648,0.5851793
0.1259505,0.815918,0.5839843
0.1251375,0.8149866,0.5852715
0.1245042,0.8174682,0.5844918
0.1245776,0.8195482,0.5822339
0.1211045,0.8197956,0.5820467
0.116359,0.8192486,0.5801382
0.1164094,0.819549,0.5798337
0.1204579,0.8202078,0.5796785
0.1242481,0.8191033,0.5822099
0.1259119,0.8177139,0.5858898
0.1249714,0.8176789,0.5801491
0.1245276,0.8184332,0.5728164
0.1254301,0.8176955,0.572121
0.1248811,0.8159582,0.5765899
0.1248291,0.8150953,0.5811546
0.1242192,0.8146981,0.5803229
0.1194083,0.8147353,0.5834828
0.1151076,0.8143725,0.5900007
0.1168138,0.816988,0.5880911
0.1213305,0.8211627,0.5868508
0.1228515,0.8197229,0.5902473
0.1217838,0.819403,0.5881869
0.1193984,0.8217326,0.583956
0.1174724,0.8195943,0.580423
0.1197846,0.8178785,0.5775133
0.1223815,0.81817,0.5800792
0.123341,0.8180376,0.5827146
0.1250076,0.819269,0.5840583
0.1229017,0.8206089,0.5857904
0.1191555,0.820741,0.5828814
0.1196483,0.8189169,0.580614
0.1191478,0.8164049,0.5789322
0.1173367,0.816349,0.5766173
0.1202413,0.8167703,0.5791521
0.1227419,0.8155011,0.5795505
0.1220466,0.8142473,0.577739
0.1223488,0.8146646,0.5791473
0.1223585,0.8166652,0.5836971
0.1230106,0.8180581,0.5887685
0.1241107,0.8179251,0.5838103
0.1232914,0.8172093,0.5776248
0.1226683,0.8161849,0.582373
0.1224018,0.81598,0.5850401
0.1238096,0.8172669,0.5836019
0.1254859,0.819211,0.5826778
0.1228829,0.8204728,0.5796934
0.119318,0.8209759,0.5808654
0.1175579,0.82255,0.5833395
0.1157855,0.8228368,0.5807942
0.1160939,0.8209834,0.5796036
0.1204045,0.8197824,0.5797096
0.1226625,0.8175049,0.5791802
0.1220319,0.8172296,0.5781988
0.1250708,0.8191013,0.5771058
0.1271881,0.8176051,0.5813438
0.1266644,0.8177816,0.5850547
0.1283903,0.8187253,0.5842041
0.1274602,0.8174284,0.5833599
0.1233854,0.8187001,0.5810824
0.1180112,0.8201355,0.5816348
0.113443,0.8218859,0.5824869
0.1172692,0.8229704,0.578459
0.1216832,0.8205406,0.5753786
0.1204851,0.8197287,0.5751138
0.1211336,0.8192267,0.579553
0.122605,0.8181847,0.5821042
0.1256891,0.8182471,0.5806478
0.1293757,0.817318,0.5831008
0.1277601,0.8164571,0.5819749
0.1266876,0.8148754,0.580686
0.126643,0.8147045,0.5829088
0.1240475,0.8160534,0.5818071
0.1237552,0.8154207,0.5839616
0.12386,0.818013,0.5840748
0.1221742,0.8214217,0.5814152
0.1221607,0.8200656,0.5821222
0.1222959,0.8189222,0.5796402
0.1220665,0.8194438,0.5811521
0.1227714,0.8194817,0.5834602
0.1238861,0.8184359,0.5807562
0.1255319,0.8176966,0.5824038
0.1257052,0.818157,0.5825606
0.1263705,0.8177189,0.5837382
0.1295547,0.815873,0.5896226
0.1295254,0.8133425,0.5901535
0.1273033,0.8134718,0.5859534
0.1255161,0.8164547,0.5814169
0.1214755,0.8174229,0.5819226
0.1189274,0.8179282,0.5831281
0.1195816,0.8193591,0.5802181
0.1204356,0.8214365,0.5793017
0.1210983,0.8253363,0.575624
0.1217835,0.8239228,0.5738059
0.1251246,0.8160031,0.5788497
0.1292659,0.8127582,0.5804779
0.1282872,0.8163887,0.5825825
0.1266939,0.818856,0.5859148
0.1283504,0.8145696,0.5848711
0.127944,0.8104549,0.5839018
0.1263143,0.813241,0.5831002
0.1238329,0.8151439,0.5815473
0.1191036,0.8158523,0.5815278
0.1190509,0.8178567,0.5815092
0.1198778,0.8171885,0.5774363
0.1178698,0.8180542,0.573293
0.1212251,0.8187353,0.5749011
0.1246282,0.8173387,0.5759746
0.1257307,0.8183919,0.5758511
0.1302089,0.8178093,0.5789078
0.1322744,0.8158843,0.5790061
0.1291301,0.8151475,0.5754398
0.1236632,0.8148036,0.57566
0.1212539,0.8157294,0.5772211
0.1217536,0.8152236,0.5750828
0.1193486,0.8149599,0.57445
0.1189787,0.8157201,0.5762101
0.1199689,0.8156775,0.5784558
0.1191934,0.8189091,0.5825972
0.1211243,0.8217431,0.5827959
0.1237607,0.8191874,0.5811295
0.1257401,0.8171106,0.5833043
0.1254225,0.8190228,0.5838928
0.124347,0.8199065,0.5832043
0.1264377,0.8172451,0.5823423
0.1264682,0.8162309,0.5816376
0.1246834,0.8180448,0.5852035
0.1221585,0.8201675,0.5857915
0.1185796,0.8216702,0.5808977
0.1183058,0.8216498,0.578086
0.1185815,0.822246,0.5762616
0.1197792,0.8222501,0.5781693
0.1236769,0.8195289,0.5822015
0.1251688,0.8161771,0.5784165
0.124962,0.813624,0.5753501
0.1250889,0.814045,0.5772138
0.1249133,0.8144411,0.5769701
0.125032,0.8126782,0.5783635
0.1250238,0.8137366,0.5798199
0.1249511,0.8146981,0.5795584
0.1243283,0.8140082,0.5795772
0.1212298,0.8182321,0.578879
0.1174566,0.8244468,0.5811792
0.1173687,0.8252109,0.5831684
0.1189481,0.8203718,0.5833473
0.11875,0.8161043,0.5853576
0.119454,0.8168203,0.5844283
0.1199684,0.8164979,0.5815317
0.1200177,0.8145047,0.5793873
0.1258374,0.8176265,0.5765469
0.1340951,0.8208841,0.5744773
0.1356443,0.8211062,0.5743767
0.1300222,0.8219451,0.5759726
0.1239766,0.8222515,0.5767776
0.1214971,0.821456,0.5781862
0.1174964,0.8177677,0.5803572
0.1127462,0.8138847,0.5800214
0.1160308,0.816438,0.5791039
0.1220349,0.8205039,0.577264
0.1211885,0.8208535,0.5771104
0.1203319,0.8191468,0.578765
0.1233322,0.8178602,0.5770506
0.1237312,0.8205398,0.5767556
0.1227062,0.8230549,0.5761839
0.1223778,0.8191491,0.5727374
0.1236361,0.8148089,0.5711522
0.1259003,0.814816,0.5709942
0.1236849,0.8146113,0.5760058
0.1208347,0.813718,0.5833667
0.1195453,0.8152231,0.5870407
0.1170052,0.818781,0.5872547
0.1165598,0.8217233,0.5824116
0.1174986,0.8208566,0.5813809
0.1189167,0.8176251,0.5832739
0.1213479,0.8165448,0.5783658
0.1245116,0.8169,0.5744361
0.1271084,0.8164746,0.5726992
0.1262221,0.8166419,0.5741986
0.1259632,0.8165161,0.5802292
0.1254337,0.8146495,0.5781324
0.121422,0.8139927,0.576312
0.1192364,0.8165829,0.5817389
0.1191247,0.8200183,0.583212
0.1194032,0.8200182,0.585064
0.1187487,0.8190835,0.5840873
0.1174226,0.8215714,0.5780792
0.1185865,0.8225221,0.5774496
0.1199953,0.8202749,0.5775825
0.1211041,0.8188672,0.5770827
0.1212971,0.8192233,0.574674
0.1202667,0.8199269,0.5704046
0.1219615,0.8188404,0.5735982
0.125453,0.8173502,0.5792165
0.1287785,0.8155905,0.5830608
0.1281218,0.8144351,0.5826292
0.1237047,0.8166473,0.5771526
0.1223811,0.8198185,0.5748839
0.12201,0.8226246,0.5733305
0.1217653,0.8205494,0.5748487
0.1218999,0.8159106,0.5790286
0.1204651,0.8175482,0.5778516
0.1225866,0.8155188,0.5792445
0.1250215,0.810759,0.5817119
0.1250354,0.8153888,0.5798105
0.1275893,0.8182029,0.5790776
0.1303436,0.814974,0.5793612
0.1322981,0.8139527,0.5819815
0.1305459,0.8143898,0.5844203
0.1231776,0.8166552,0.5828249
0.118909,0.820045,0.5816505
0.1198886,0.8208878,0.5814866
0.1208844,0.8202318,0.5807242
0.1211763,0.8192588,0.5777351
0.1235614,0.8175394,0.5756493
0.1260387,0.8176119,0.5792655
0.1250045,0.818545,0.581805
0.1247309,0.8168412,0.5803811
0.1268073,0.8162422,0.5801998
0.1292045,0.8171669,0.5810312
0.1314277,0.8169953,0.5814275
0.1306159,0.8166348,0.5815099
0.1281386,0.8148751,0.5795539
0.1246555,0.8147055,0.5772254
0.1200336,0.816002,0.5806909
0.1206863,0.814936,0.5862737
0.1229067,0.8155187,0.5870312
0.1210555,0.8179702,0.5878174
0.1219651,0.8209141,0.5903641
0.1234038,0.8230907,0.5896693
0.1224914,0.8196466,0.5846903
0.1247624,0.8147365,0.580214
0.1250544,0.8131858,0.5811601
0.1238929,0.8139679,0.5812769
0.1273017,0.8162125,0.5781481
0.1284716,0.817004,0.5797586
0.1263536,0.8164862,0.5817619
0.1252036,0.8157706,0.5804859
0.1243569,0.815059,0.5831611
0.1232945,0.816587,0.5852753
0.1217362,0.8188613,0.5810012
0.1222619,0.8197371,0.5780658
0.1248766,0.8187029,0.581204
0.1272366,0.8173903,0.5850219
0.1295655,0.8182015,0.5849942
0.1303555,0.8182838,0.5844564
0.1296046,0.8175551,0.5851189
0.1263898,0.8173828,0.5849206
0.1220121,0.8161623,0.5825114
0.1229055,0.8157618,0.5750524
0.1237645,0.8162511,0.5699702
0.1203062,0.8167756,0.5747138
0.1212963,0.8179085,0.5803577
0.1261463,0.8177724,0.5847974
0.1295209,0.8162855,0.5900067
0.1299862,0.8144327,0.5884597
0.1272825,0.8131313,0.5832888
0.1266136,0.8134043,0.580068
0.1266337,0.8165012,0.5756812
0.1255759,0.8205355,0.5756224
0.1260156,0.8174703,0.5794827
0.1248226,0.8129918,0.578973
0.1256195,0.8158437,0.5782001
0.1282996,0.8165316,0.5778315
0.1272554,0.816897,0.5778843
0.1260111,0.8209784,0.5821588
0.1246105,0.8194569,0.5850834
0.1244833,0.8175858,0.5851837
0.1257479,0.8186202,0.5845146
0.1245702,0.8176295,0.5844183
0.1249552,0.8181084,0.5852579
0.1255533,0.8179795,0.5841669
0.1258023,0.8162235,0.5838303
0.1283978,0.8164698,0.5841158
0.1283195,0.8166798,0.5863196
0.1273177,0.8159768,0.5905684
0.1285363,0.8155977,0.5889109
0.1277946,0.8159843,0.5862573
0.1253574,0.8155971,0.5836161
0.1243003,0.8164595,0.5759936
0.1232753,0.8216595,0.5739303
0.1218392,0.8243703,0.5793519
0.1234905,0.8219401,0.5831363
0.126949,0.8187836,0.5840315
0.1282633,0.8155561,0.5849069
0.1270516,0.814493,0.5859175
0.1258561,0.8155913,0.5851639
0.1275801,0.8154095,0.5828732
0.1292552,0.8155388,0.5767145
0.1287935,0.8184913,0.5708031
0.1273364,0.8220499,0.5767031
0.1248399,0.8231387,0.583649
0.1243139,0.8221455,0.5781007
0.1245575,0.8201081,0.5739426
0.1233431,0.8173989,0.5766503
0.1245127,0.817054,0.5790961
0.1265459,0.8178853,0.5827644
0.1263248,0.8153176,0.580738
0.1252635,0.8144077,0.5742859
0.1238405,0.8160701,0.5749957
0.1232183,0.8149457,0.5762514
0.1235675,0.8154803,0.5761416
0.1227865,0.8175143,0.578672
0.1221812,0.8179409,0.5838268
0.1245198,0.817498,0.5916746
0.1284213,0.815236,0.5909003
0.1300582,0.8156084,0.5864764
0.1292607,0.8167301,0.5866158
0.1297193,0.8155899,0.5820376
0.1300566,0.8170112,0.582081
0.1250624,0.8180112,0.5843028
0.1193529,0.8183694,0.5761308
0.1207391,0.8205561,0.5707369
0.1245839,0.8190839,0.5709721
0.1252924,0.8121701,0.5752566
0.1251641,0.8089248,0.5836621
0.1248802,0.8178556,0.5860394
0.1248578,0.8258629,0.5845529
0.124572,0.8219027,0.5826738
0.1212165,0.8197985,0.57955
0.1197862,0.821867,0.5770197
0.1263453,0.8200423,0.5771331
0.1326044,0.8187853,0.5797666
0.1276175,0.8181209,0.5790577
0.1220309,0.8173149,0.5786105
0.1257611,0.8186553,0.5789879
0.1259348,0.818023,0.5768149
0.1232619,0.8176079,0.5780005
0.1244726,0.8184545,0.5781407
0.1235343,0.8169656,0.5775128
0.1258887,0.816953,0.5797836
0.12928,0.8167116,0.5786287
0.1287409,0.81465,0.5756731
0.1311574,0.8154317,0.5751419
0.1302492,0.8174214,0.5803942
0.1274312,0.8184552,0.5854305
0.1281019,0.8182114,0.5821847
0.1258417,0.8177398,0.5791746
0.1257414,0.8182447,0.5773373
0.1269812,0.8176932,0.5745215
0.1238304,0.8161643,0.5780695
0.1222279,0.8155667,0.5826001
0.1218836,0.8185578,0.5814009
0.1212035,0.8220092,0.5841873
0.12106,0.8189264,0.5905096
0.1216914,0.8145994,0.5872742
0.1245833,0.8144756,0.5793367
0.1256643,0.8146529,0.5752626
0.1247323,0.8152678,0.5765534
0.1250275,0.8154287,0.5844836
0.1250218,0.81304,0.587628
0.1248098,0.8124001,0.5824862
0.123774,0.8144985,0.5790945
0.1214888,0.8167602,0.5784644
0.1204534,0.8179404,0.5785263
0.1216323,0.8197818,0.5776314
0.123209,0.823405,0.577335
0.1238907,0.8218056,0.5792073
0.125652,0.815498,0.5819708
0.127688,0.8122337,0.5856534
0.1294848,0.8127181,0.58378
0.1308299,0.816001,0.5800051
0.1269817,0.817298,0.5823015
0.1232929,0.8159993,0.5814489
0.1252042,0.8155027,0.5781219
0.1255553,0.8149186,0.5774635
0.1244602,0.817355,0.5741951
0.1252055,0.8189988,0.5707751
0.1250846,0.8175069,0.5694962
0.1248083,0.8180931,0.5724719
0.1251439,0.817191,0.5806142
0.1249655,0.8161697,0.5835007
0.1249467,0.8169047,0.5803177
0.1247246,0.8165292,0.5780107
0.1231578,0.8167844,0.5764982
0.1216823,0.8166057,0.5770035
0.1222231,0.8166101,0.5821629
0.1238373,0.8168466,0.5910142
0.1255038,0.8164272,0.5947606
0.1258798,0.8166892,0.5884056
0.1212453,0.8156909,0.5818338
0.1159411,0.8149435,0.5803688
0.118223,0.8153406,0.5800374
0.122587,0.8152831,0.5788711
0.1248183,0.8153314,0.5772759
0.1275767,0.8151791,0.5774495
0.1264578,0.8157009,0.5779267
0.1245169,0.8170875,0.5757686
0.1253746,0.8186683,0.5743274
0.123419,0.8193112,0.575084
0.1214165,0.8191818,0.5751673
0.1206766,0.8192636,0.5748675
0.121349,0.8163264,0.5759145
0.1268282,0.8124388,0.579504
0.1300442,0.8127088,0.5831003
0.1268623,0.8163958,0.5812218
0.1238199,0.8201979,0.577487
0.1265974,0.8190808,0.5777902
0.1294134,0.8142605,0.5795842
0.1269077,0.8109603,0.5820632
0.126101,0.8098737,0.5827417
0.1241556,0.8111408,0.5790936
0.1205895,0.8138294,0.5801308
0.122499,0.8156546,0.5848275
0.1225791,0.8154689,0.5840362
0.1206583,0.8158596,0.5810025
0.1215288,0.8171642,0.577618
0.1232856,0.8156429,0.5781686
0.1259237,0.8150935,0.584212
0.1254147,0.8173638,0.5855533
0.1241465,0.8179448,0.5842926
0.1255483,0.8156222,0.5837738
0.1249737,0.8132207,0.5819007
0.1246698,0.8163556,0.5813455
0.1252196,0.8199069,0.5788616
0.1235036,0.8183998,0.5754984
0.1215717,0.818378,0.5761367
0.1206911,0.8184699,0.5789395
0.1225808,0.8170454,0.5810585
0.1258816,0.8162622,0.5819271
0.1273328,0.8130274,0.5826059
0.1294199,0.8114049,0.5816082
0.1297754,0.8133938,0.5816203
0.1265687,0.814335,0.5826457
0.1255493,0.8154935,0.5813488
0.1252463,0.8158159,0.5821076
0.1241458,0.8146963,0.5818906
0.1246754,0.8154681,0.5790588
0.1241765,0.8156703,0.5764737
0.123478,0.8157803,0.5738731
0.1222893,0.8170769,0.5759243
0.1202255,0.815781,0.577765
0.1240002,0.8146791,0.5781849
0.1296057,0.8151527,0.5835227
0.1313385,0.8135137,0.5861385
0.1316307,0.8118585,0.584452
0.1275146,0.8127162,0.5840382
0.1228671,0.8146678,0.5832085
0.1231083,0.8154568,0.5810706
0.1228475,0.8144988,0.5797075
0.1232608,0.813452,0.5801607
0.1261274,0.813948,0.5835014
0.1260627,0.8151389,0.5892969
0.1251205,0.8153099,0.5893338
0.1262702,0.8151868,0.5855374
0.1263587,0.8143958,0.586114
0.1265688,0.8136348,0.5836303
0.1273283,0.8148793,0.5783159
0.1266286,0.8156426,0.5754545
0.1255765,0.8157814,0.574065
0.1244198,0.8178689,0.576745
0.1244205,0.8201053,0.5787417
0.1228134,0.8189535,0.5799904
0.1194838,0.8170444,0.5834302
0.1207694,0.8183169,0.5823641
0.1220987,0.8184211,0.5779512
0.1232032,0.817495,0.5758107
0.1278909,0.8180923,0.5770978
0.1287181,0.816194,0.5773645
0.1274635,0.8148902,0.5776625
0.1293683,0.8171695,0.582625
0.1294733,0.8185643,0.5825348
0.1265099,0.8172964,0.5780419
0.1235221,0.8159391,0.5780579
0.1205087,0.8173699,0.5802306
0.1184899,0.8196291,0.5833236
0.1201636,0.820523,0.5841628
0.1242048,0.8178713,0.5842824
0.1299501,0.8140385,0.585625
0.1354389,0.8176947,0.5840461
0.1342288,0.8212788,0.5834698
0.1275638,0.8178983,0.5820617
0.1222544,0.8174095,0.5773809
0.1213027,0.8186359,0.5753452
0.1200164,0.8175768,0.574363
0.1149911,0.8172221,0.5734068
0.1149265,0.8162951,0.5743553
0.1207464,0.8155359,0.5782529
0.1259492,0.8153365,0.5830518
0.1294518,0.8144482,0.5828426
0.1280969,0.8128001,0.5830508
0.1273878,0.8104957,0.5866424
0.1295231,0.8118535,0.5858675
0.1273117,0.8153922,0.5818083
0.126935,0.8155051,0.5790119
0.1273125,0.815507,0.5802822
0.1222685,0.817203,0.5858528
0.1187094,0.8184104,0.5890932
0.1179873,0.8186125,0.5875193
0.1204546,0.8184854,0.58394
0.1237052,0.8196493,0.5794519
0.1224259,0.818567,0.576001
0.1241406,0.8151972,0.5759259
0.1297364,0.814136,0.5811693
0.1315555,0.8136007,0.5887439
0.1301851,0.8139735,0.5887555
0.1283472,0.8151436,0.5845886
0.1273276,0.815186,0.5841662
0.1263747,0.8155568,0.5804337
0.1241138,0.8158534,0.5773891
0.1205277,0.8187162,0.5799879
0.1165045,0.8222375,0.5794102
0.1155267,0.8202458,0.5795447
0.1205357,0.8163881,0.5817637
0.126676,0.8137716,0.5824001
0.125925,0.8136723,0.5854223
0.1244882,0.8170813,0.5861781
0.1276705,0.8189014,0.5840391
0.1274568,0.8173044,0.584571
0.1271816,0.8142164,0.5851063
0.128555,0.8121032,0.5841632
0.1264552,0.8151457,0.5828793
0.1271728,0.8199737,0.5815824
0.1293265,0.8198207,0.5823001
0.1291352,0.8179695,0.5852335
0.1288624,0.8180674,0.5849221
0.1260643,0.8179631,0.5808637
0.1229797,0.8177163,0.579605
0.1214243,0.8160335,0.5784392
0.1210132,0.8127526,0.5743234
0.1234953,0.8126048,0.5741813
0.1262294,0.8162442,0.5756636
0.127149,0.8192667,0.572733
0.1272744,0.8183532,0.5718508
0.1265003,0.8172266,0.5743626
0.1242867,0.8185686,0.5759349
0.1242821,0.8177467,0.5779649
0.1250571,0.8158545,0.5795724
0.1227613,0.8151824,0.5802952
0.1244984,0.8148212,0.5823994
0.1297375,0.8160164,0.5856717
0.1322783,0.8167361,0.5852631
0.1303002,0.8168029,0.5811402
0.1257774,0.8168136,0.579778
0.1275003,0.8159238,0.5792958
0.127531,0.8155514,0.5790965
0.1211686,0.8152973,0.5774435
0.1211461,0.8179518,0.5735531
0.1253368,0.8204587,0.5763341
0.1290751,0.8173144,0.5801066
0.1283568,0.8156597,0.581185
0.1243739,0.8160114,0.5791059
0.1253809,0.8155811,0.5725213
0.1244329,0.8178637,0.5764291
0.1217964,0.8201526,0.5807595
0.1208655,0.8189267,0.577796
0.1203196,0.817432,0.5822614
0.1243996,0.8200363,0.5849083
0.1259608,0.8218429,0.5855937
0.1252979,0.8203968,0.5866123
0.1261368,0.8208469,0.5815561
0.1244344,0.8208234,0.5795943
0.1244081,0.8197252,0.5775199
0.1226858,0.819019,0.5767322
0.1195811,0.8173901,0.5812658
0.1206988,0.8167736,0.5813875
0.1203462,0.8181423,0.5823593
0.1196139,0.8197374,0.5847629
0.1229223,0.817034,0.586125
0.1263998,0.8137146,0.5885418
0.1252892,0.8155223,0.5854315
0.1240282,0.816338,0.5819436
0.1257078,0.8173503,0.5773898
0.124906,0.8205925,0.5694979
0.1242563,0.819576,0.5719678
0.1235726,0.817746,0.5787354
0.1203876,0.8183064,0.5821409
0.1204608,0.8179268,0.5850068
0.1216463,0.8181343,0.5773847
0.1223381,0.8191955,0.5663992
0.1238913,0.8189577,0.5673329
0.1220685,0.81695,0.5707979
0.1201485,0.8143366,0.5735604
0.1228717,0.8154155,0.5807582
0.1254867,0.8191518,0.5830262
0.1254417,0.8215405,0.5778832
0.1265877,0.8230403,0.575651
0.1277623,0.8218797,0.5799891
0.1239903,0.8198478,0.5835233
0.1189288,0.8198655,0.5805925
0.1188997,0.8207574,0.5777183
0.1213327,0.8226711,0.5775026
0.1227235,0.8206752,0.5760851
0.1238848,0.817265,0.5763645
0.1230424,0.8189618,0.5782478
0.1222988,0.8190219,0.5786537
0.1268775,0.8175175,0.5800902
0.1306344,0.8181236,0.5827935
0.1283968,0.8179205,0.582317
0.1263903,0.8171839,0.5801777
0.1263384,0.8161557,0.5808559
0.1242069,0.8156718,0.5815733
0.121628,0.8153097,0.5818616
0.1207241,0.8148998,0.5822719
0.1194415,0.815607,0.580617
0.116647,0.8159237,0.5794453
0.1136557,0.8186762,0.5762931
0.1180052,0.821485,0.5727133
0.1274206,0.8174647,0.5772539
0.1283122,0.813618,0.5831278
0.1269607,0.8162105,0.5834288
0.09829923,0.8573946,0.5225194
0.09473024,0.8613042,0.5245877
0.09180479,0.8610939,0.5250697
0.09263599,0.8609338,0.5253486
0.09061786,0.859323,0.5247312
0.08797953,0.8579986,0.5249505
0.08884195,0.8612972,0.5251113
0.09136497,0.8628005,0.5237894
0.09199945,0.8600408,0.5242219
0.09186985,0.8564858,0.5271119
0.09365281,0.8558262,0.530281
0.09491801,0.8560794,0.5298958
0.09605194,0.8563473,0.5290234
0.09756265,0.8591061,0.5312206
0.09899273,0.8618825,0.5286548
0.09781815,0.8658824,0.5218619
0.09434787,0.8642015,0.5181196
0.09429844,0.8580603,0.5186393
0.09414408,0.8607666,0.5200896
0.09246979,0.8604721,0.516423
0.09185096,0.857053,0.5144077
0.09284232,0.8597645,0.5187597
0.09597759,0.8600482,0.520929
0.09631188,0.8630551,0.5204872
0.09695718,0.8655588,0.5204063
0.09862804,0.862403,0.523454
0.09816175,0.861526,0.5266076
0.1005141,0.8564145,0.5245947
0.09979533,0.8525032,0.5247484
0.09720873,0.8573417,0.5265485
0.0992703,0.8597759,0.5256409
0.09871052,0.8595687,0.5240002
0.09756061,0.8622652,0.5212705
0.09649157,0.8648056,0.5217857
0.09326602,0.8622344,0.5229531
0.09420089,0.859898,0.5207214
0.09486831,0.862527,0.5204433
0.09208103,0.8627916,0.5201651
0.09142924,0.8612318,0.5196617
0.0927252,0.8607034,0.5231031
0.09487923,0.8592741,0.5261945
0.09750066,0.8589411,0.5258465
0.09884795,0.859873,0.5269181
0.0971856,0.8610169,0.5303609
0.09455708,0.861209,0.5294948
0.09528199,0.8610129,0.5271669
0.09641224,0.8612934,0.5276952
0.09616455,0.8607351,0.5249834
0.09549485,0.8601275,0.5224823
0.09161788,0.8584606,0.5240052
0.08812613,0.856847,0.5248525
0.08790349,0.8571877,0.5260164
0.08866969,0.8578645,0.5269932
0.09129998,0.8597489,0.5271593
0.09410665,0.8609142,0.5278377
0.09497476,0.8601715,0.5268368
0.09443062,0.8596722,0.5252286
0.09395314,0.8599643,0.5250296
0.09386087,0.8626197,0.5250215
0.09249306,0.8642272,0.5260342
0.09194685,0.8612668,0.529842
0.09201476,0.8585675,0.5300505
0.09229697,0.85973,0.5250919
0.09452,0.8613355,0.5244504
0.0948431,0.8612536,0.5254151
0.09426148,0.8629756,0.5242336
0.09554758,0.8635589,0.5235815
0.09604172,0.8583807,0.5215154
0.09589613,0.8543468,0.5218687
0.09519719,0.8578859,0.5239036
0.09313287,0.862437,0.5260623
0.09170068,0.8597205,0.5307246
0.09475744,0.8559235,0.5291959
0.09902761,0.8555145,0.5241362
0.09700777,0.8562517,0.5234364
0.09401041,0.8623972,0.5240459
0.09301192,0.8682165,0.5283456
0.09066081,0.8667652,0.5321802
0.09189438,0.8636138,0.5303351
0.09422974,0.8608379,0.5291176
0.09424488,0.8588268,0.5292582
0.09497252,0.8585453,0.5290446
0.09418725,0.8589457,0.5283251
0.09421362,0.8598471,0.5247116
0.09515288,0.8615768,0.5219139
0.09484533,0.8615239,0.5270323
0.09577759,0.8595936,0.532911
0.09339404,0.8606898,0.5286985
0.09081758,0.8615324,0.5250431
0.09487281,0.8604614,0.5282288
0.0988569,0.8592395,0.5289181
0.09908064,0.8557864,0.5290762
0.09745535,0.8552007,0.5298453
0.09408349,0.8580703,0.5291719
0.09053573,0.8601987,0.5296494
0.09108441,0.8603063,0.5285197
0.09371008,0.8582498,0.5267601
0.09284703,0.8588785,0.5250237
0.09282462,0.8596417,0.5233888
0.0943029,0.8582897,0.5240863
0.09609874,0.8585483,0.5218365
0.09906718,0.8587132,0.521662
0.09467681,0.8608746,0.5262464
0.089997,0.8631408,0.5270837
0.09643133,0.8597941,0.5278969
0.1008937,0.8570418,0.5258441
0.09786331,0.8584075,0.5213781
0.09597352,0.8590187,0.525408
0.09506947,0.8584699,0.5287394
0.09377384,0.8585917,0.5276813
0.09449348,0.8587246,0.5294521
0.0948558,0.8604377,0.5300091
0.09398293,0.8622773,0.5290259
0.09465451,0.8606793,0.5271451
0.09455665,0.8605438,0.5250134
0.09412756,0.8611343,0.5270092
0.09477421,0.8594125,0.528055
0.09461508,0.8598046,0.5281467
0.09621368,0.8592787,0.5311068
0.09794873,0.8589824,0.5306929
0.0970148,0.8607423,0.5298741
0.09593019,0.8594418,0.5302962
0.09461574,0.860699,0.5278602
0.09320202,0.8638565,0.5261891
0.09350669,0.8626423,0.5228061
0.09666872,0.8579479,0.5208072
0.09981719,0.8522272,0.5232464
0.09836559,0.854172,0.523031
0.09481769,0.8580545,0.5234933
0.09225881,0.8562913,0.5240498
0.09089274,0.8589815,0.5224838
0.09206345,0.861295,0.5239948
0.09407316,0.8602932,0.5255316
0.09562714,0.8620068,0.5253075
0.09752769,0.8608629,0.5256811
0.09825466,0.8602628,0.526635
0.09813095,0.8601599,0.5267275
0.09628309,0.8571051,0.5259385
0.0932403,0.8586998,0.5264044
0.09425198,0.8607917,0.525458
0.09542451,0.8607403,0.5236768
0.09504412,0.860879,0.5249816
0.09807951,0.8591392,0.5280778
0.09929891,0.8606819,0.5312148
0.0969849,0.8630762,0.5318946
0.09517361,0.8629628,0.5314565
0.09460919,0.8633184,0.5307747
0.09810833,0.861373,0.5264938
0.1023365,0.860377,0.5242314
0.1018223,0.8615966,0.5277677
0.1005452,0.8609812,0.5298672
0.1000803,0.8613623,0.5265253
0.09627889,0.8627308,0.5235291
0.09292359,0.8628367,0.5257214
0.09431308,0.8623078,0.5282653
0.09385386,0.8612786,0.5280894
0.0904221,0.8577999,0.5235495
0.09086344,0.853944,0.5176877
0.09598439,0.8566276,0.5224668
0.1011591,0.8600163,0.528701
0.1007139,0.8584594,0.5245769
0.0977534,0.8583358,0.5222587
0.09790895,0.8579865,0.5222375
0.09680533,0.8566284,0.5200565
0.09486074,0.8572589,0.5208382
0.09473808,0.8586346,0.5222035
0.09552344,0.8608525,0.5255374
0.09995923,0.8610719,0.5293997
0.1024487,0.8601538,0.5270884
0.09929293,0.8599109,0.5255479
0.09818069,0.8600735,0.5265804
0.100446,0.8619082,0.5239995
0.1017022,0.8607644,0.5203164
0.09838359,0.8587472,0.5184226
0.09426861,0.8584822,0.5232446
0.09497737,0.8574874,0.5309956
0.09631813,0.8579189,0.5281521
0.09609549,0.8567445,0.5253168
0.09651063,0.8566691,0.5274203
0.0975379,0.8595764,0.5221602
0.09748993,0.8599208,0.5207903
0.09678601,0.8608395,0.5234432
0.09746633,0.8608288,0.520341
0.09710576,0.8582023,0.5198009
0.09605304,0.8566065,0.5196243
0.09587286,0.857223,0.5198169
0.09606469,0.8593647,0.5225087
0.09873747,0.8585941,0.524383
0.1001414,0.8594933,0.5288048
0.09649598,0.8622748,0.528708
0.09392224,0.8597434,0.5242928
0.09859694,0.8578233,0.5243239
0.1037229,0.8567216,0.5249137
0.1007735,0.8546843,0.5271581
0.09759279,0.8559965,0.5292475
0.09746896,0.8578142,0.5270432
0.09631723,0.8598426,0.5275163
0.09706803,0.86213,0.5283698
0.0975983,0.8623681,0.5262106
0.09930323,0.8603595,0.5254512
0.1040996,0.8561005,0.5216898
0.1061437,0.853656,0.5160326
0.106107,0.8543222,0.5159136
0.1051207,0.8551687,0.5179695
0.1047612,0.8555986,0.5203558
0.1032369,0.8547673,0.5241469
0.09814678,0.8536987,0.5257772
0.09738007,0.8541658,0.5264917
0.09650532,0.8545725,0.5293678
0.09222079,0.8559377,0.5295664
0.09270103,0.8612349,0.526439
0.09339694,0.8651741,0.525269
0.09223181,0.8615247,0.5246836
0.09360124,0.8580185,0.5253878
0.09668647,0.8609383,0.5281498
0.09908852,0.8619146,0.5295357
0.1013379,0.8593143,0.5296626
0.1051415,0.8582094,0.5288736
0.1040447,0.8555037,0.5300045
0.099526,0.8530573,0.5311543
0.09807461,0.8540964,0.529188
0.09493454,0.8536255,0.5284672
0.09422727,0.8529115,0.5260264
0.09733195,0.8563354,0.5213672
0.09721602,0.8596944,0.5206595
0.09841508,0.8582137,0.5244323
0.100069,0.8555262,0.5279621
0.09959849,0.8548549,0.5264151
0.09937676,0.8545775,0.5255741
0.09714482,0.8561,0.527127
0.0969388,0.8579094,0.5259328
0.09862936,0.8582187,0.525346
0.09848493,0.8588333,0.5241883
0.09891741,0.8580862,0.5204519
0.0984344,0.8581066,0.5188658
0.09849056,0.8590169,0.5212704
0.09932178,0.8587784,0.5246149
0.09982684,0.8601517,0.5251543
0.101284,0.8598222,0.5251
0.09993809,0.8580726,0.5256599
0.09909083,0.8576412,0.5267623
0.09982447,0.8565724,0.5276695
0.09751699,0.8578111,0.523698
0.09567926,0.8590096,0.520246
0.09472797,0.8585241,0.5197041
0.09636482,0.8610754,0.5186317
0.1003633,0.8632234,0.5206867
0.09947136,0.8614374,0.5205531
0.09838575,0.8583819,0.5184192
0.09931348,0.8569887,0.5202751
0.0980185,0.8570313,0.522125
0.09864674,0.8578633,0.5269335
0.09907374,0.8595513,0.5306289
0.09818307,0.8585717,0.5258724
0.1000833,0.8551809,0.521594
0.1011342,0.8537234,0.5212341
0.1014841,0.8561093,0.5223739
0.1013452,0.8600239,0.5259611
0.09880067,0.8610422,0.5288693
0.09655494,0.8610913,0.5271664
0.09545033,0.861018,0.5257699
0.09756319,0.8590191,0.5295458
0.09917408,0.8579415,0.5310663
0.0955952,0.858177,0.5271067
0.09344709,0.858544,0.5227574
0.09462845,0.858363,0.5215389
0.09606028,0.8584495,0.5246979
0.09771451,0.8603828,0.5275837
0.09947565,0.8615386,0.5281025
0.1007086,0.8612463,0.5279017
0.1013851,0.8609087,0.5274582
0.1015223,0.8607281,0.5278042
0.09932217,0.8595494,0.526917
0.09787795,0.8579079,0.5259029
0.09887062,0.8599937,0.5260019
0.09824612,0.8621773,0.523746
0.09675792,0.8610722,0.521329
0.09538945,0.8617317,0.5224956
0.09547673,0.863088,0.5254803
0.09623546,0.8626413,0.5273021
0.09442395,0.8631607,0.5285082
0.09324227,0.8638227,0.5303553
0.09350399,0.8607524,0.5306921
0.09549126,0.8559054,0.5284705
0.09837746,0.8548436,0.5254403
0.09735337,0.8568838,0.52254
0.09709117,0.8583025,0.519825
0.1004223,0.8588275,0.5197414
0.1018984,0.8600964,0.5221684
0.09993233,0.861641,0.5246109
0.09579191,0.861318,0.5284178
0.0933697,0.8609004,0.5302163
0.09438823,0.8621937,0.5287645
0.09490464,0.8623036,0.5292999
0.09417523,0.8597387,0.5302584
0.09510328,0.8574623,0.5308061
0.09931029,0.8580742,0.5315359
0.1062675,0.8592889,0.5310091
0.1100738,0.8596319,0.5305382
0.105394,0.8608264,0.52959
0.09864503,0.8609034,0.5270941
0.09628166,0.8605496,0.524066
0.0967431,0.8617396,0.52427
0.09809671,0.8611713,0.5260819
0.09800589,0.8616017,0.5245236
0.09840511,0.863177,0.5247079
0.09935503,0.8607805,0.525165
0.09820803,0.8579829,0.5218656
0.09954507,0.8565892,0.5211665
0.1001791,0.8580568,0.5223368
0.09681765,0.8629312,0.5225294
0.09560956,0.8641728,0.5228674
0.09730276,0.8612833,0.5256784
0.09905082,0.8588216,0.5301704
0.09613696,0.8602617,0.5296452
0.09279521,0.8623258,0.5283438
0.09503498,0.860212,0.5297135
0.09572531,0.8591238,0.5290346
0.09552905,0.8580285,0.5284705
0.09635475,0.8557414,0.5263971
0.09546446,0.8557453,0.5221656
0.09625369,0.8553399,0.5214795
0.09780353,0.8563244,0.5226185
0.09887768,0.8567177,0.5222698
0.09905843,0.8548128,0.5219849
0.09808386,0.856371,0.5227611
0.09879811,0.8593794,0.5239895
0.09808522,0.8609708,0.5254261
0.09467323,0.8573556,0.5260935
0.09263175,0.8519803,0.5280373
0.09429523,0.8551542,0.5315183
0.09784265,0.8578213,0.5291704
0.0997696,0.8551287,0.5251543
0.1034751,0.8546558,0.5273426
0.105761,0.8539952,0.530308
0.1016028,0.854346,0.5319556
0.09874308,0.8573766,0.5290612
0.09688043,0.8588036,0.5205897
0.09612823,0.8590334,0.5178094
0.09804698,0.8597334,0.5201972
0.09506639,0.8616383,0.5217972
0.09339219,0.8616955,0.5243962
0.09568213,0.8599132,0.5253379
0.09677166,0.8597433,0.5231579
0.09950244,0.8579575,0.521417
0.09980921,0.8575841,0.5234277
0.1012294,0.8592976,0.5289633
0.1059421,0.8578368,0.5334164
0.104255,0.8581994,0.5312268
0.1014737,0.8592315,0.5225991
0.09975885,0.8591711,0.5190186
0.09583464,0.8605865,0.5270792
0.09652972,0.8590573,0.5353271
0.09749192,0.8579016,0.5323133
0.09463915,0.8585464,0.5281708
0.09482791,0.858041,0.531412
0.09489633,0.8589972,0.5297044
0.09363972,0.8592964,0.5263131
0.09530611,0.8584302,0.5284656
0.09627625,0.8568662,0.5286003
0.09749442,0.8555325,0.5288082
0.09886882,0.8556883,0.5268414
0.09794233,0.8543871,0.5241061
0.09806097,0.8550968,0.5279181
0.09688481,0.8571437,0.5297784
0.09573333,0.8581537,0.5259251
0.09632256,0.8610961,0.5210674
0.09547487,0.8633836,0.5199131
0.09776252,0.8653763,0.5224113
0.1022852,0.8648746,0.5260626
0.1050768,0.8602424,0.5305776
0.1047986,0.8573741,0.5290365
0.1019638,0.857849,0.5260878
0.1011382,0.8601177,0.5283029
0.09698276,0.8596376,0.5269844
0.09232016,0.8583586,0.5245262
0.09492336,0.8587006,0.5257336
0.09616065,0.85774,0.5279363
0.09666133,0.8586408,0.5335094
0.09975458,0.8585367,0.5419239
0.09986022,0.8577583,0.5457919
0.09731744,0.8587753,0.5360432
0.09523226,0.8570719,0.5228718
0.09769276,0.8566562,0.5249166
0.101689,0.8577118,0.5267741
0.1016424,0.8593571,0.5217947
0.1003325,0.8616918,0.5258915
0.09700655,0.8585321,0.5262993
0.09300027,0.8564314,0.5224385
0.0939937,0.8615625,0.5242886
0.09543246,0.8658876,0.5229672
0.09392655,0.8649536,0.5274261
0.09465261,0.8645121,0.5312309
0.09691217,0.8656198,0.5228949
0.09821278,0.8623192,0.5199672
0.09889123,0.859924,0.5210063
0.0964981,0.8612673,0.5213097
0.09406546,0.8601367,0.5249076
0.09497799,0.8580525,0.5280121
0.09710421,0.856251,0.5324491
0.09910604,0.8554067,0.5336956
0.09718964,0.857323,0.5254955
0.09451723,0.8592156,0.5169758
0.09575965,0.859404,0.524091
0.09444475,0.8594855,0.5360483
0.09198662,0.8612082,0.5322092
0.09386643,0.8649472,0.5253785
0.09701717,0.8694566,0.5177501
0.09933793,0.8675024,0.5112725
0.09880338,0.8584407,0.5226293
0.09608288,0.8537975,0.5321109
0.09553196,0.8558989,0.5302433
0.096258,0.8608999,0.5286579
0.09755824,0.8638297,0.5259923
0.09892921,0.8626757,0.5251204
0.09692336,0.8640356,0.5213817
0.09470059,0.8655026,0.5167419
0.09540252,0.8626876,0.5213546
0.09610726,0.8600055,0.5256874
0.09664382,0.8608211,0.5238671
0.09696346,0.8619817,0.5244284
0.09695704,0.8605097,0.5277843
0.09756626,0.8607434,0.5268148
0.09700916,0.8598208,0.5263721
0.09606958,0.8571571,0.527063
0.0958804,0.8587317,0.5245696
0.09573688,0.8599281,0.5267508
0.09705924,0.8613154,0.5264923
0.09849352,0.8631429,0.5231428
0.0987205,0.860555,0.5287868
0.09876133,0.858871,0.5300435
0.09876682,0.8596688,0.5253208
0.1004531,0.859073,0.5248781
0.1020634,0.8573296,0.5251979
0.1013798,0.8560609,0.5284114
0.1004472,0.8564198,0.5291877
0.0979559,0.8587051,0.5253125
0.09528694,0.860409,0.5261322
0.09801327,0.8601141,0.5279529
0.1013313,0.8614269,0.5277786
0.09780302,0.8616879,0.5274386
0.09401711,0.8600885,0.5259427
0.09471231,0.8609014,0.5245396
0.09576663,0.8602311,0.5246801
0.09892453,0.8595248,0.5256757
0.102066,0.8584133,0.526038
0.1005449,0.8546682,0.5284593
0.09675616,0.8557657,0.5310947
0.09317753,0.8579586,0.5304749
0.09332237,0.8582049,0.5294454
0.09287346,0.8590018,0.5253009
0.08920471,0.8581572,0.5209579
0.09198869,0.8603152,0.5244434
0.09655165,0.8629896,0.528314
0.09662986,0.8620398,0.5261474
0.1004266,0.8608322,0.5259208
0.1052297,0.8590729,0.5290625
0.1046797,0.8587696,0.5293602
0.1035005,0.8567492,0.5286
0.1043479,0.8524241,0.526454
0.1037044,0.8535281,0.5231534
0.09970408,0.8559779,0.5240452
0.09484299,0.856256,0.5251319
0.09237964,0.8569771,0.5249963
0.09305137,0.8575939,0.5270639
0.0941296,0.8591488,0.5286771
0.09623246,0.8603844,0.5287067
0.09990393,0.8614267,0.5267553
0.09928328,0.8631782,0.524028
0.09841211,0.8618421,0.5240544
0.1011634,0.8589015,0.5226019
0.1007863,0.8572881,0.5169143
0.09976329,0.8558952,0.5169621
0.09869591,0.8528879,0.5255245
0.09640134,0.8502833,0.5314559
0.09904687,0.8532811,0.5297123
0.1006585,0.8560257,0.5262341
0.09630558,0.8569065,0.5259691
0.09209204,0.862752,0.5259065
0.0898949,0.8654215,0.5274262
0.09025476,0.8617134,0.5287164
0.09239911,0.8580669,0.523088
0.09668883,0.8543409,0.5216578
0.1030331,0.8532227,0.5265126
0.1048704,0.8551691,0.5282488
0.1029671,0.8569493,0.5270724
0.1004265,0.8591691,0.5225545
0.0958178,0.8606945,0.5219609
0.09499099,0.8606453,0.5254861
0.09845416,0.8596922,0.5270602
0.09905446,0.8580602,0.5289081
0.09790325,0.8596242,0.5289327
0.09599537,0.8628264,0.5289449
0.09389837,0.8625012,0.5266953
0.09617948,0.8629758,0.5236391
0.09925582,0.8629938,0.526548
0.09854786,0.8604385,0.5277596
0.09741353,0.8600615,0.5278782
0.09716645,0.8574421,0.5288675
0.09670533,0.8540456,0.5273416
0.09557351,0.8541675,0.5244146
0.09390693,0.8540773,0.5210558
0.09464451,0.8552618,0.5251602
0.09767428,0.8562866,0.5338073
0.09916044,0.8572614,0.5366666
0.09882113,0.8601635,0.532413
0.09830813,0.8609427,0.5265845
0.09808499,0.8607588,0.5290163
0.09617654,0.8595403,0.5307924
0.09353651,0.8575393,0.5271277
0.09547336,0.8582739,0.5270295
0.09880917,0.8587187,0.5247848
0.09960872,0.8580648,0.5246578
0.1002055,0.8587169,0.5281324
0.09914004,0.860599,0.5255983
0.09802341,0.863319,0.5250606
0.09883765,0.8645048,0.5259962
0.09900425,0.8621406,0.5258623
0.1002642,0.8579816,0.5282063
0.1020616,0.8543289,0.5244073
0.101164,0.8537699,0.5206168
0.09922026,0.8572847,0.5243953
0.09827332,0.8593387,0.5258209
0.09845303,0.8585338,0.5234703
0.09919014,0.8598943,0.52169
0.1003586,0.8618423,0.5224081
0.1018111,0.861117,0.5251727
0.1017511,0.8595711,0.5263495
0.1009111,0.8584346,0.525989
0.1015425,0.8562853,0.5273813
0.1006973,0.8548005,0.529991
0.09657867,0.8557177,0.5288625
0.09386882,0.8561051,0.524361
0.09654961,0.8570865,0.5207313
0.09995779,0.8590499,0.5216713
0.0968752,0.8586656,0.5287438
0.09514502,0.8589671,0.5337567
0.101057,0.8611576,0.5328272
0.1036914,0.8614977,0.5307372
0.09992367,0.8608437,0.5281689
0.09643243,0.8609873,0.5274036
0.09713608,0.8603081,0.5269919
0.09980039,0.8593148,0.5256037
0.1000396,0.8595375,0.5284131
0.1000273,0.8590084,0.5296895
0.0991011,0.8582738,0.5282349
0.09800926,0.8600529,0.5296477
0.09879589,0.8615425,0.5282905
0.09759861,0.8590273,0.527118
0.09704023,0.8557513,0.5292683
0.09824748,0.8560126,0.5290077
0.09825733,0.8580937,0.5276112
0.09618591,0.8606573,0.5239903
0.09362027,0.8631507,0.5207834
0.09660947,0.8619581,0.5223284
0.1011987,0.8590144,0.5232398
0.1012597,0.8581763,0.5243285
0.09846437,0.8555648,0.5264094
0.09435392,0.8519962,0.5251501
0.09418801,0.853279,0.5245053
0.09788567,0.8568195,0.5273321
0.09996809,0.8590705,0.5280521
0.09959808,0.8588972,0.5253631
0.09802014,0.8575441,0.5227292
0.09843476,0.8589635,0.5221963
0.100022,0.8604344,0.5261002
0.1026662,0.8612619,0.5301051
0.106839,0.8626708,0.5288896
0.1050224,0.861701,0.5260285
0.1004082,0.8599266,0.5247408
0.0997134,0.857763,0.5265237
0.09798912,0.8573596,0.528453
0.09717225,0.858483,0.5259608
0.09744025,0.8563974,0.524148
0.09480386,0.8579709,0.5261103
0.09409234,0.8622129,0.5269597
0.09507704,0.8624599,0.5261358
0.09698475,0.8618262,0.5261686
0.09969104,0.8594728,0.5256569
0.09868541,0.8582774,0.5242291
0.09841391,0.8588738,0.5233457
0.1008602,0.8588446,0.5226177
0.1012246,0.861241,0.5227884
0.09886714,0.8615517,0.5239322
0.09595845,0.8604317,0.5264647
0.09589872,0.8606134,0.5302784
0.09545266,0.8592326,0.5292874
0.09350067,0.8589134,0.5244246
0.09515287,0.8565217,0.5226338
0.09753084,0.8530697,0.5224299
0.09870476,0.8562702,0.5236649
0.09803241,0.8606103,0.5259622
0.09485591,0.8598552,0.5246789
0.09532711,0.856963,0.5226884
0.09692016,0.8544458,0.523041
0.09600389,0.8530776,0.5263023
0.09606994,0.8566032,0.5308405
0.09368555,0.8618144,0.5297322
0.09174694,0.8602611,0.5278312
0.09521869,0.8592297,0.5303685
0.09764969,0.8624008,0.5309794
0.09879668,0.8610968,0.5306254
0.09971697,0.8599783,0.5266065
0.09966806,0.8601753,0.5194965
0.1017083,0.8573388,0.5209371
0.1002542,0.8578737,0.5205373
0.09701673,0.8584554,0.5148949
0.09904384,0.8565055,0.5202303
0.0990516,0.8573228,0.5256965
0.09788868,0.8572828,0.5227931
0.09863387,0.8579633,0.5224894
0.09554916,0.8599419,0.5226416
0.09242846,0.8605096,0.5231073
0.09187947,0.8639458,0.5266351
0.09194234,0.8643738,0.5269789
0.09346084,0.8615907,0.5251273
0.09545753,0.8627173,0.5254768
0.09762638,0.8609881,0.5260941
0.1000268,0.8584998,0.5253446
0.1016374,0.8578576,0.524861
0.1008429,0.8542919,0.5248245
0.0979732,0.8552351,0.5242272
0.09406119,0.8575043,0.5245168
0.09217022,0.8555483,0.5260054
0.0961033,0.856875,0.5270932
0.09853743,0.8590789,0.5272309
0.09643593,0.8600322,0.527744
0.09533118,0.8603927,0.528229
0.09410892,0.8599175,0.5270643
0.09427004,0.8617332,0.5254579
0.09618653,0.8613809,0.5218945
0.09797687,0.8604012,0.5183497
0.1010484,0.8613897,0.5186225
0.1021024,0.8590558,0.5186143
0.1007493,0.8573034,0.5207938
0.09919197,0.8570627,0.5256778
0.09642045,0.8573414,0.5249684
0.09499416,0.8614084,0.5226524
0.09584902,0.8634563,0.524428
0.09556126,0.860327,0.5250635
0.09616199,0.8578187,0.5245619
0.1004948,0.8577703,0.5281295
0.1026925,0.8558617,0.5294233
0.1011822,0.8531151,0.5248339
0.1025394,0.8540134,0.5257512
0.1061491,0.8547408,0.5307137
0.1072723,0.8539658,0.5298409
0.105272,0.8550881,0.5259558
0.1023515,0.8565478,0.5225204
0.09895977,0.8586838,0.5228967
0.09280071,0.8630916,0.5257857
0.08959021,0.864643,0.5247701
0.09258101,0.8608351,0.5248464
0.09323521,0.8585662,0.5263976
0.09330591,0.8600847,0.5251367
0.09547912,0.8600467,0.5250902
0.09529065,0.8566103,0.5252416
0.09937873,0.8529918,0.5265992
0.1050512,0.8535199,0.5287873
0.1029489,0.8551745,0.5280548
0.1014789,0.8537634,0.5302578
0.1025083,0.8538713,0.5331039
0.09976459,0.8547636,0.5317748
0.09693095,0.8537075,0.5306431
0.09452953,0.8551541,0.5296002
0.09209157,0.8588727,0.5260838
0.094018,0.8620887,0.5222298
0.09669343,0.8619668,0.5230993
0.0977417,0.8599489,0.5245084
0.1011822,0.8615281,0.5220906
0.1031879,0.8611955,0.5218937
0.1025654,0.8584899,0.5229417
0.1029489,0.8579298,0.5242566
0.1018234,0.855774,0.5283856
0.09822533,0.8561648,0.5292939
0.09466069,0.8591642,0.5239622
0.09544987,0.8585096,0.5184559
0.09897379,0.8570035,0.5196308
0.09951633,0.8563446,0.5242567
0.1003755,0.8553024,0.5252074
0.1013043,0.8534432,0.5256889
0.1010145,0.8529173,0.5247223
0.1019321,0.8538633,0.5208789
0.101168,0.8558234,0.5229116
0.1007881,0.8600121,0.5265363
0.1001203,0.86073,0.5270979
0.09758402,0.8602149,0.5300953
0.0982535,0.8612638,0.5298217
0.09735487,0.8589786,0.5279916
0.09474291,0.8594918,0.5295923
0.09556441,0.8615534,0.5264151
0.0949687,0.8606081,0.5200164
0.09483429,0.861471,0.5140356
0.09813281,0.8609818,0.511977
0.09908809,0.8597988,0.520262
0.09883566,0.8599817,0.5278429
0.1004912,0.8592437,0.5279785
0.09884014,0.8599958,0.5292875
0.09493585,0.8596601,0.5321919
0.09410116,0.8584262,0.5338205
0.09420457,0.8585063,0.5338312
0.09466359,0.8579554,0.5279262
0.09476968,0.8585438,0.5207981
0.09527147,0.8584545,0.5229001
0.09829902,0.8583292,0.5245473
0.09911445,0.8603286,0.5206565
0.09845036,0.8605379,0.5224286
0.09866573,0.8596506,0.5240421
0.09848062,0.8592282,0.5228517
0.09879556,0.8587791,0.5250058
0.09831484,0.8575598,0.5270013
0.09732383,0.8574413,0.5290226
0.0951707,0.8607636,0.5257275
0.09265021,0.8616775,0.5195063
0.09368833,0.8596748,0.5223149
0.09676971,0.858647,0.5235506
0.09940391,0.8579455,0.5205427
0.09825902,0.858609,0.521019
0.09671791,0.8591868,0.5201578
0.1011879,0.8585142,0.5239837
0.1038502,0.8564072,0.5291915
0.1008181,0.8536887,0.5216237
0.09925529,0.8545301,0.5151656
0.1009611,0.8573568,0.5207317
0.1013675,0.8597626,0.5255822
0.09737062,0.86065,0.5269067
0.09334651,0.8600753,0.5294255
0.09227828,0.8617632,0.5292639
0.09228753,0.862999,0.5268383
0.0949308,0.8612986,0.526347
0.09834888,0.8575751,0.527047
0.09680725,0.8543932,0.5278959
0.09488731,0.8581321,0.5260155
0.09825721,0.8608947,0.5230321
0.100416,0.8555042,0.5242579
0.09979178,0.8533022,0.5277665
0.1000501,0.8570461,0.5321723
0.09878848,0.8594854,0.5350736
0.09738825,0.8582676,0.535413
0.09707944,0.8567131,0.5353895
0.09684735,0.8574176,0.5294254
0.09647371,0.8580234,0.5213039
0.09447399,0.86024,0.5211508
0.09401843,0.8621609,0.5240168
0.09442499,0.8610719,0.526517
0.09247445,0.8627791,0.5302144
0.09171741,0.864407,0.5300804
0.09487573,0.8616393,0.5281387
0.1005472,0.8585666,0.530478
0.1027231,0.857716,0.531097
0.1009883,0.858563,0.5289622
0.1011739,0.8584393,0.5292926
0.1013503,0.8581044,0.5285155
0.09925689,0.8588874,0.5263866
0.09717754,0.8600197,0.5245222
0.09644097,0.8621928,0.5235525
0.09570089,0.8640743,0.5223244
0.09407591,0.864866,0.5180358
0.09550869,0.8621459,0.5186563
0.0993652,0.8569569,0.5209821
0.1008069,0.8568289,0.5194842
0.1012846,0.8573983,0.5248928
0.1035697,0.8543733,0.5300403
0.1066813,0.8535017,0.5275822
0.1069091,0.8524862,0.5271333
0.1023665,0.8512298,0.5284114
0.09666457,0.8542856,0.5284923
0.09451509,0.8574554,0.5284867
0.09605748,0.8573953,0.5283239
0.09634605,0.8564849,0.5271974
0.09543973,0.85719,0.5251537
0.09731846,0.8584716,0.5237761
0.09978041,0.8600227,0.5215443
0.1022758,0.8616346,0.5187594
0.104542,0.8593468,0.5196484
0.1041901,0.857256,0.5220051
0.1035162,0.8588329,0.5206917
0.1016393,0.8593892,0.5201893
0.09901778,0.8597257,0.5217979
0.0998089,0.8598316,0.5213021
0.1005728,0.858555,0.5225771
0.09929521,0.8579845,0.524407
0.09819747,0.8572118,0.5266949
0.09689953,0.8558604,0.5308378
0.09626011,0.8551829,0.5293733
0.0950319,0.8555643,0.528085
0.09335477,0.8557721,0.5304605
0.0989382,0.8557022,0.5300781
0.1065612,0.8574142,0.5297785
0.1041013,0.8591289,0.5283618
0.09984916,0.8592972,0.5271883
0.09933135,0.858994,0.5277825
0.09784067,0.8564022,0.5255827
0.09812947,0.8532851,0.526061
0.09647403,0.8554708,0.5273173
0.09295606,0.858304,0.5253963
0.09505664,0.8557288,0.5261325
0.09776818,0.8547157,0.5264327
0.09878296,0.8565643,0.5254954
0.09924444,0.8570974,0.52364
0.09837162,0.858774,0.5206605
0.1006668,0.8588406,0.5227122
0.1031905,0.8576055,0.5236555
0.102405,0.8587431,0.5221552
0.1008469,0.8583716,0.5236424
0.09779619,0.8581797,0.5236309
0.09435091,0.8597875,0.5245483
0.09168364,0.8606434,0.5255902
0.09186334,0.8615271,0.5245479
0.09490871,0.8611456,0.5252823
0.09511916,0.8607945,0.5251084
0.09589441,0.8614393,0.5268055
0.09943394,0.8605885,0.5323448
0.1007024,0.8596484,0.5353961
0.1015647,0.8600983,0.5318306
0.1018188,0.8630315,0.5263406
0.1007248,0.8648486,0.5265729
0.1005121,0.861476,0.5254092
0.09841876,0.8595023,0.5234018
0.09527648,0.8600451,0.5267507
0.09397431,0.8583657,0.5270301
0.09429741,0.8582646,0.526516
0.09613658,0.8615697,0.525563
0.09779112,0.8623428,0.5233104
0.09918831,0.8600985,0.5266159
0.099707,0.8610851,0.5278835
0.09899039,0.8619014,0.5283318
0.09960288,0.8604311,0.5276868
0.1006427,0.862393,0.5208919
0.1027068,0.862455,0.5207014
0.1047324,0.8587827,0.5219349
0.1017611,0.8552651,0.520526
0.09665,0.853479,0.5233279
0.0939369,0.8580557,0.5220026
0.09392504,0.8615418,0.5206572
0.09416872,0.8602401,0.5214183
0.09347923,0.8609486,0.520267
0.09454521,0.8602285,0.5225216
0.09549486,0.8573908,0.5243402
0.09661743,0.8563513,0.5257455
0.09959883,0.8569832,0.5282453
0.0992658,0.8570646,0.5292496
0.09876575,0.856098,0.5298768
0.1017113,0.857029,0.5286436
0.1016335,0.8579371,0.5283245
0.09925942,0.856912,0.5262144
0.0963287,0.8565208,0.522022
0.09225061,0.8571768,0.5246173
0.09262817,0.8572572,0.5270791
0.09480001,0.8575188,0.5259463
0.09424919,0.8588475,0.5264492
0.09506693,0.8586044,0.5256672
0.09759122,0.8588206,0.5250985
0.1009573,0.8600239,0.5249922
0.102164,0.8578635,0.5226648
0.09904629,0.8561381,0.5204897
0.09757903,0.8570362,0.5207245
0.09744444,0.8573453,0.5270381
0.09668046,0.8576844,0.5346376
0.09752037,0.8585742,0.5318276
0.09768362,0.8585786,0.5272153
0.09831528,0.8583676,0.5298543
0.09925282,0.8604107,0.5289737
0.09711723,0.8628642,0.5282431
0.09585674,0.8636241,0.5320145
0.09598017,0.8640654,0.5305118
0.09566347,0.8637467,0.5283981
0.09750108,0.8627065,0.5242336
0.1002161,0.8614244,0.5167351
0.1020455,0.8601469,0.5194243
0.10182,0.8585523,0.5248882
0.1006688,0.85623,0.5249022
0.1012033,0.8566438,0.5254601
0.09799168,0.8585686,0.5248638
0.09145484,0.8582691,0.5246467
0.08905843,0.8582923,0.5248347
0.09068542,0.858516,0.5210525
0.0936052,0.8580956,0.5183725
0.09563215,0.858494,0.5196524
0.09832667,0.8583257,0.5220426
0.1016809,0.8582045,0.5247732
0.1012328,0.8588731,0.5273263
0.1001739,0.859977,0.5284336
0.1015826,0.8617004,0.527631
0.1019072,0.8610289,0.5270138
0.1002061,0.85807,0.5257755
0.09767424,0.8545468,0.5240084
0.09400158,0.8518348,0.525219
0.09243633,0.8550372,0.5261649
0.09445633,0.8605689,0.5275922
0.09637218,0.8617587,0.5306003
0.09990075,0.8610267,0.5290925
0.102383,0.8599516,0.5283302
0.1023615,0.8592817,0.5302605
0.1046116,0.8589782,0.5292642
0.1041883,0.8579615,0.5292521
0.1036484,0.8582751,0.5294599
0.1042596,0.8585766,0.5292391
0.09956228,0.8581106,0.5299478
0.09594331,0.858271,0.5286583
0.09517328,0.8574322,0.5301954
0.09599593,0.8566072,0.5322152
0.0975474,0.8574659,0.5306265
0.09765177,0.8597473,0.5306549
0.09935531,0.8618804,0.5298541
0.09849643,0.8612003,0.5275899
0.0970628,0.8598619,0.5250951
0.09879498,0.8604202,0.5235458
0.1026874,0.8599516,0.5240502
0.1110312,0.8568138,0.5215874
0.1130701,0.8545347,0.521477
0.1081313,0.8554607,0.5240935
0.1028938,0.8564777,0.5255718
0.09379625,0.8571313,0.5316206
0.09212437,0.8599406,0.5336577
0.09643872,0.8613904,0.5298837
0.09446623,0.860753,0.5277789
0.0964451,0.8610239,0.5237406
0.1004853,0.8593474,0.5230887
0.09872513,0.8575049,0.5255003
0.1008083,0.8588281,0.5263577
0.1040875,0.8597753,0.5302632
0.101766,0.8584209,0.5300278
0.1004184,0.8544765,0.5263509
0.1006607,0.8519594,0.5265702
0.09856753,0.8538478,0.524691
0.09602633,0.856417,0.5250815
0.09482914,0.8590844,0.5280127
0.09478967,0.859141,0.5266704
0.09578265,0.8572717,0.5278251
0.09754317,0.8589297,0.5283794
0.1006468,0.8597361,0.5256343
0.1026733,0.8601952,0.5246552
0.1009943,0.8620779,0.522084
0.101288,0.86063,0.5215489
0.1039167,0.8593761,0.5241851
0.1038467,0.8573409,0.5280547
0.1026494,0.8544945,0.5339165
0.1002184,0.8574426,0.5323657
0.09804636,0.8594938,0.5274802
0.09621185,0.8579044,0.5276195
0.09376952,0.8584221,0.5257878
0.09522956,0.8594445,0.5242771
0.09736171,0.8598669,0.5253107
0.0988295,0.8598394,0.5248736
0.09956205,0.8597324,0.5259426
0.09764129,0.8606992,0.5295103
0.09920743,0.8612168,0.5322603
0.1010955,0.860092,0.5278779
0.1019746,0.8582161,0.5209694
0.1037768,0.8571456,0.5240623
0.1002774,0.8568084,0.5293149
0.09549535,0.857016,0.5293567
0.09275707,0.8583592,0.5290093
0.09544807,0.8603208,0.5276766
0.1007391,0.8615367,0.5284981
0.09571387,0.8603365,0.5314525
0.0928394,0.8588547,0.5309221
0.0986609,0.8584768,0.5290793
0.1010155,0.8555777,0.5262948
0.1146781,0.8586738,0.5190278
0.1122215,0.8548742,0.522518
0.1100621,0.8494856,0.5294457
0.1107381,0.8485528,0.5268
0.1099602,0.8541859,0.5256589
0.107373,0.8600642,0.5282229
0.1093702,0.8586906,0.5238824
0.1119062,0.8570245,0.5259445
0.1129772,0.8571273,0.5305265
0.1164346,0.855009,0.5279449
0.1168489,0.855006,0.5296763
0.1136306,0.8564882,0.5296589
0.1119122,0.8559316,0.5284083
0.1131148,0.8559692,0.5322084
0.1145869,0.8549448,0.532854
0.1124287,0.8531767,0.5334814
0.1093972,0.8541642,0.5327823
0.1059814,0.8526558,0.5308943
0.1030951,0.8502863,0.5327537
0.1058977,0.852009,0.5327085
0.1082445,0.853402,0.5333448
0.1074114,0.8543894,0.5339071
0.1117167,0.854607,0.5326533
0.1183354,0.8536497,0.5337498
0.11915,0.854029,0.5336588
0.1164761,0.8523137,0.5348479
0.1135963,0.8496689,0.5370524
0.1102904,0.8497748,0.5356286
0.1111006,0.8503606,0.5326507
0.1139775,0.8508725,0.5258712
0.1123384,0.8515977,0.5209882
0.1129566,0.8515467,0.5282058
0.1159464,0.8513673,0.5362239
0.1147123,0.8528622,0.5331198
0.1132646,0.8558406,0.5300387
0.1113392,0.8575324,0.531481
0.110402,0.8559082,0.5308624
0.1128438,0.8533342,0.5312787
0.1138661,0.854172,0.5281979
0.1157943,0.8565767,0.5226678
0.1171952,0.8575376,0.5252307
0.1146015,0.8585078,0.5269643
0.1132595,0.858692,0.5259964
0.1140213,0.8572989,0.5287346
0.1150675,0.854797,0.5295981
0.1152536,0.8520361,0.5291127
0.1143433,0.8535854,0.529165
0.113337,0.858036,0.5290383
0.1118642,0.8588959,0.5293822
0.1108739,0.8578047,0.5291775
0.1104468,0.8565976,0.530084
0.1095734,0.8541986,0.5307729
0.1078821,0.8516929,0.5290364
0.1081376,0.8486023,0.5265377
0.110863,0.8486554,0.5258832
0.1113349,0.852362,0.5283965
0.1109284,0.8539514,0.5294092
0.1103249,0.8568804,0.5284535
0.1093387,0.8598214,0.5284759
0.1108194,0.8580042,0.5261211
0.1110984,0.8573612,0.5229664
0.1090344,0.8562377,0.5222636
0.1069459,0.8529914,0.5241154
0.1065235,0.8540691,0.5288407
0.1082986,0.8558548,0.5310856
0.1085114,0.8552879,0.5303582
0.1082305,0.8555337,0.5306999
0.1084611,0.8542084,0.5299419
0.1081491,0.8509644,0.5278246
0.1092192,0.8493222,0.5266399
0.112013,0.8501331,0.530309
0.1158072,0.8522514,0.5354935
0.1150802,0.8531397,0.5335134
0.1089916,0.8526313,0.5320816
0.1058342,0.8518154,0.5340105
0.1074229,0.8510555,0.5310892
0.1091867,0.8515891,0.528753
0.1070006,0.8524207,0.5292866
0.104252,0.8528927,0.5298926
0.1040523,0.8531733,0.5337941
0.1029354,0.8539523,0.5372564
0.1030121,0.8572094,0.5354614
0.1046916,0.85882,0.5321837
0.1061946,0.8555735,0.5305947
0.1078757,0.8530009,0.5283967
0.1086217,0.8541136,0.5262505
0.1105006,0.8547713,0.5252884
0.1112186,0.8537145,0.5249165
0.1088171,0.854372,0.5294086
0.106136,0.8553589,0.532499
0.1044359,0.8558128,0.5299744
0.1049691,0.8571446,0.5322257
0.1043693,0.8559869,0.5349074
0.1043997,0.8531294,0.5346148
0.1065105,0.8519279,0.535797
0.1051797,0.8513676,0.5319843
0.1043148,0.8514717,0.5272483
0.1044133,0.8538039,0.5293238
0.1040063,0.8575551,0.5315881
0.1065152,0.8586046,0.5304376
0.1083342,0.8556462,0.5305396
0.1085805,0.8523261,0.5323779
0.1083753,0.8509657,0.5319144
0.1080461,0.8509323,0.5298113
0.1086326,0.8528031,0.528689
0.1085615,0.8548732,0.5294305
0.1100332,0.8537525,0.5312576
0.1115278,0.8539532,0.5320973
0.1089378,0.8552242,0.5311186
0.1057366,0.8554229,0.5290769
0.1049891,0.8586832,0.5284862
0.1055535,0.8592262,0.5276845
0.1048068,0.8583392,0.5260167
0.1036614,0.8606,0.5283699
0.104219,0.8589442,0.5319757
0.1043406,0.8553743,0.5323687
0.1048893,0.8518141,0.5316251
0.1087044,0.8500206,0.5302535
0.1124871,0.8521809,0.5268276
0.1119619,0.8514314,0.5239376
0.1118827,0.8517332,0.526166
0.1144141,0.8564678,0.5301569
0.1116107,0.8593206,0.5311316
0.1080997,0.8587394,0.5315483
0.1110118,0.8562446,0.5318902
0.1113665,0.8550958,0.5309133
0.1076594,0.854868,0.5294118
0.1054636,0.857925,0.5286784
0.1057078,0.862024,0.5288293
0.1094954,0.8551035,0.5265928
0.1119089,0.848486,0.5239335
0.1094074,0.8541039,0.5265063
0.1073185,0.8584867,0.5335712
0.1088756,0.8579551,0.5388818
0.1117347,0.8568067,0.5347355
0.1137417,0.8548436,0.528268
0.1143892,0.8549128,0.5300527
0.1127439,0.8543971,0.5286917
0.1119322,0.8518464,0.5225871
0.1123762,0.8525269,0.5241705
0.1092999,0.8535131,0.5287079
0.1060172,0.8525825,0.5315442
0.1067037,0.8548395,0.5323324
0.109367,0.8574533,0.5310673
0.1106613,0.8579103,0.5324593
0.1111855,0.8586108,0.5318278
0.1135155,0.85799,0.5299412
0.1138431,0.8563966,0.5324134
0.1119876,0.8549904,0.535364
0.11112,0.8539779,0.5363561
0.1127438,0.8525822,0.5315264
0.1168576,0.8498099,0.5270449
0.1168738,0.8476919,0.5295724
0.1138118,0.8460684,0.5296744
0.1110451,0.8484513,0.5287467
0.1084748,0.8540142,0.5307655
0.1098456,0.8546165,0.5325088
0.1102957,0.856831,0.5334348
0.1085239,0.8603687,0.5305279
0.1069007,0.8571886,0.5270896
0.1020119,0.8560641,0.5274961
0.101115,0.8567742,0.5283532
0.1073502,0.8580189,0.5285364
0.1116009,0.8627834,0.5294869
0.1114926,0.8604914,0.5303946
0.1130419,0.8570774,0.5304661
0.1167606,0.8589971,0.5302295
0.1153971,0.8562627,0.5278429
0.1132522,0.8519332,0.5260856
0.1141792,0.8496566,0.529929
0.1117744,0.8517647,0.5331066
0.1103692,0.8562616,0.5301071
0.1114557,0.8539313,0.5269354
0.1109517,0.8533652,0.5285256
0.1112107,0.8571121,0.5317171
0.1110942,0.8596292,0.533985
0.1111778,0.8634385,0.5329728
0.1122261,0.8602549,0.5271104
0.1123494,0.8541919,0.5234121
0.1118776,0.8555064,0.5239057
0.1109691,0.8550222,0.5244241
0.1127681,0.853377,0.5260782
0.1148894,0.8545175,0.5281132
0.1136873,0.8541153,0.5266028
0.1136458,0.854082,0.5236619
0.1141806,0.854299,0.5251739
0.1137275,0.853491,0.5267382
0.1139188,0.8516086,0.5257769
0.1133866,0.8491037,0.5283281
0.1109951,0.8498735,0.5335053
0.1080259,0.8515641,0.5388741
0.1080937,0.8512662,0.5372144
0.1108236,0.8516454,0.53219
0.1124285,0.8525333,0.5363667
0.1119009,0.8539385,0.536996
0.1080008,0.8559696,0.5326771
0.1040143,0.8578036,0.5316178
0.1052122,0.8606103,0.5249912
0.1072397,0.8619354,0.5210802
0.1085475,0.8600974,0.5266935
0.1121364,0.8572366,0.5309289
0.1118184,0.8536537,0.5286591
0.1089204,0.8523703,0.5266448
0.1098947,0.8533074,0.5313089
0.1089742,0.8524984,0.5332098
0.1071714,0.8528141,0.5320331
0.1070374,0.8540776,0.5334228
0.104691,0.8540493,0.5329894
0.1043105,0.8544436,0.5332103
0.1046137,0.8536947,0.5321156
0.1036991,0.8525772,0.5308653
0.1054253,0.8529519,0.5328436
0.1062446,0.8545657,0.5315568
0.1071019,0.8568762,0.5304796
0.1090678,0.8578521,0.5300173
0.1083935,0.8581845,0.528279
0.1083545,0.8558964,0.5292904
0.1103515,0.8527597,0.5277723
0.1114371,0.8543159,0.5242102
0.1103665,0.8547139,0.5246311
0.1085605,0.8531972,0.5268412
0.1071349,0.8527352,0.5264965
0.1051637,0.8511486,0.5258492
0.105842,0.8531644,0.529761
0.1079879,0.8573218,0.5303906
0.106763,0.8580154,0.5237391
0.1070303,0.8564706,0.5198471
0.1102024,0.8514215,0.523659
0.1115905,0.8470453,0.5287613
0.1112436,0.8509677,0.5258733
0.1098539,0.857546,0.5227802
0.1097897,0.8591813,0.525553
0.1117492,0.8580487,0.526282
0.11286,0.8559005,0.526964
0.1128011,0.8532381,0.5267507
0.1121366,0.8520964,0.527417
0.1121731,0.8518051,0.5307096
0.111014,0.8519584,0.5287635
0.109316,0.8538125,0.5286793
0.1124348,0.8564584,0.5300274
0.115141,0.8560556,0.5287402
0.113765,0.8546412,0.5315632
0.113146,0.8560592,0.5333828
0.1123938,0.8560457,0.5327624
0.1105659,0.8562654,0.5295958
0.1107131,0.8567666,0.5244431
0.1116993,0.8532607,0.5244649
0.1108741,0.8531935,0.5256102
0.1118033,0.8546063,0.5268389
0.1159975,0.8527701,0.5320076
0.1185264,0.8542735,0.5360863
0.1160278,0.8549475,0.533123
0.1121708,0.8533582,0.5283233
0.1137882,0.8546853,0.5286135
0.1148328,0.8552195,0.5268489
0.1117611,0.8554105,0.5236639
0.111714,0.8562307,0.5255049
0.1108813,0.8562385,0.5271731
0.1096145,0.8579753,0.5281325
0.1100414,0.8577187,0.5290544
0.1082435,0.8544279,0.529002
0.1095185,0.8540228,0.5303489
0.1147649,0.8560352,0.5335128
0.1190626,0.8568835,0.5371779
0.1165668,0.8535508,0.5354653
0.1113012,0.8499543,0.5305045
0.1143249,0.852402,0.5302442
0.1141454,0.8551076,0.5305083
0.1079163,0.8556795,0.5294761
0.1072434,0.8573665,0.5291978
0.1100792,0.8560415,0.5287838
0.1149316,0.8528637,0.5294612
0.1149148,0.8530403,0.5292105
0.1121113,0.8554752,0.5288345
0.114215,0.857431,0.5297457
0.1135818,0.8551982,0.5298083
0.1160412,0.8510622,0.5310067
0.1196178,0.8519432,0.5317733
0.1135662,0.8561759,0.5324137
0.1074058,0.859457,0.5349149
0.104663,0.8586815,0.5336666
0.1066799,0.8548934,0.5311062
0.1101919,0.8528046,0.5328651
0.1084451,0.8510564,0.532068
0.1119866,0.8525136,0.525295
0.1185016,0.8557847,0.522089
0.1180932,0.8534067,0.5245802
0.1151198,0.8518431,0.5279065
0.1131699,0.8516868,0.5331842
0.1147647,0.8501735,0.5363837
0.116905,0.8502371,0.536067
0.1155057,0.848935,0.5361346
0.1137349,0.8523747,0.534312
0.1121871,0.8578065,0.5308961
0.1122982,0.8543463,0.5288554
0.1144625,0.8518087,0.5322456
0.1139538,0.852653,0.5367926
0.1111795,0.8522481,0.5345727
0.1089933,0.8557733,0.5338099
0.108265,0.8592014,0.5351156
0.1109152,0.8578251,0.5316279
0.1135671,0.8553521,0.5296199
0.1116146,0.8535882,0.5313434
0.1109389,0.8534134,0.5341892
0.1152904,0.8529482,0.5361996
0.1185191,0.8511787,0.5347765
0.117593,0.853643,0.5337818
0.1155701,0.8569928,0.5345239
0.1148469,0.854496,0.5339787
0.1138082,0.8532319,0.5345235
0.1125305,0.854949,0.5354039
0.1108718,0.8551027,0.5342659
0.1075515,0.8565551,0.5346773
0.1094818,0.8575835,0.5344137
0.1138905,0.8562797,0.5306953
0.112248,0.8551457,0.5285019
0.1116848,0.8537789,0.5296768
0.1114227,0.8537975,0.5313987
0.1087806,0.8546663,0.5303954
0.1113433,0.8539535,0.5290601
0.1155049,0.8540474,0.5293375
0.1167683,0.8544455,0.5273782
0.1141556,0.8535737,0.5248445
0.1091375,0.852458,0.5230401
0.1093357,0.8512824,0.524066
0.111278,0.8527949,0.5298669
0.1109657,0.8556404,0.5331535
0.1117019,0.8558877,0.5323654
0.1127823,0.8566092,0.5309555
0.1143342,0.8559063,0.5301535
0.114352,0.8527885,0.5290164
0.1130389,0.8531847,0.5270646
0.1133414,0.8532593,0.5263992
0.1121492,0.8519749,0.5249104
0.1111255,0.8536083,0.5270365
0.1114358,0.8549857,0.5307416
0.1106874,0.8576349,0.52658
0.1112594,0.8606489,0.5234868
0.1113169,0.8602206,0.524775
0.1110773,0.8593146,0.528524
0.1132373,0.8545028,0.533699
0.1143032,0.8494401,0.5306015
0.1138243,0.8530967,0.5272189
0.1128238,0.8558348,0.5301291
0.1121749,0.8538477,0.5303139
0.1124574,0.855372,0.5303694
0.1112111,0.8562494,0.5325788
0.1090412,0.8534365,0.5345595
0.1077445,0.854145,0.5362604
0.1082125,0.8576545,0.5324279
0.1091371,0.8587585,0.5259441
0.109953,0.8585323,0.5258184
0.1126071,0.8581081,0.5284003
0.1129992,0.8584426,0.5310314
0.1110107,0.8595165,0.535567
0.1110641,0.8595411,0.5371135
0.1111055,0.8586633,0.5349221
0.1110623,0.8562002,0.5318218
0.1108979,0.8547497,0.5294667
0.1091464,0.8558271,0.530452
0.1079111,0.8558227,0.5315816
0.1081039,0.8562553,0.5318282
0.1086641,0.8573805,0.5342953
0.1086202,0.8574864,0.5342074
0.1099172,0.8594628,0.5287003
0.112126,0.8620257,0.5234874
0.1122098,0.8610904,0.5239781
0.1132441,0.8580994,0.5271696
0.1146408,0.8559892,0.5258433
0.113111,0.8559633,0.5261542
0.1110401,0.8590016,0.5312698
0.1092042,0.8603559,0.5307966
0.1088245,0.8588294,0.5240372
0.1086231,0.8595927,0.5175557
0.1063347,0.8573834,0.5215933
0.1073821,0.8543227,0.5313909
0.1098283,0.8577124,0.5311185
0.1096719,0.8587134,0.530904
0.1112748,0.8551423,0.5328288
0.1109295,0.8522768,0.5302679
0.1093001,0.8512954,0.5308686
0.1135967,0.8522633,0.5313872
0.1161875,0.8540997,0.5319688
0.1122783,0.8581745,0.5326196
0.1089955,0.8595092,0.5303749
0.1094042,0.8574891,0.5288994
0.1104519,0.8583697,0.5262073
0.1103185,0.8573363,0.5304889
0.1113081,0.8544492,0.5390449
0.1111789,0.8538934,0.5387957
0.1087735,0.8539678,0.5381472
0.1080863,0.8544692,0.5369731
0.1085316,0.8540763,0.531518
0.1102398,0.8539928,0.5294729
0.1117945,0.8550049,0.5303814
0.1110165,0.8565927,0.5295964
0.1106073,0.8583502,0.525915
0.1090977,0.8542733,0.5239897
0.1059421,0.8495636,0.5252246
0.1050083,0.8538628,0.5241108
0.1067797,0.8593273,0.5194499
0.108743,0.8601737,0.5168766
0.1103443,0.859746,0.5251581
0.1129517,0.8583633,0.5354055
0.1147567,0.8571639,0.5326468
0.1148922,0.8566494,0.5292436
0.1129653,0.8558564,0.5307307
0.1099225,0.8555229,0.5268704
0.1108525,0.8560986,0.5271148
0.1119676,0.8591942,0.5321429
0.1104692,0.8616234,0.5318233
0.1112274,0.8577369,0.5321331
0.1115914,0.8541518,0.5321653
0.1115682,0.8573202,0.5311186
0.1130902,0.8597336,0.5317571
0.1127047,0.8573413,0.5299104
0.1130519,0.8549593,0.5305031
0.1145015,0.852151,0.5321652
0.113465,0.8504678,0.5318571
0.1122411,0.8540103,0.5342352
0.1125819,0.8570039,0.5350743
0.1141058,0.8579376,0.5347077
0.1143404,0.8584039,0.5340877
0.1124321,0.8553708,0.530678
0.1122911,0.853256,0.5275479
0.113451,0.8543384,0.5272154
0.115847,0.8553448,0.530953
0.1192972,0.8557379,0.5347587
0.1179323,0.8549696,0.5367731
0.1142456,0.8521771,0.5371979
0.112777,0.8469994,0.5368766
0.111724,0.844907,0.539854
0.1117365,0.849173,0.5389303
0.1111837,0.8530031,0.5349925
0.1105195,0.8540912,0.5341379
0.1116253,0.85701,0.5305758
0.1115453,0.8607004,0.5283135
0.1135037,0.8582681,0.5291249
0.1165368,0.853424,0.5288912
0.1149015,0.8536352,0.5276314
0.1129622,0.8531576,0.5254346
0.1125885,0.8521917,0.526763
0.1130205,0.8553402,0.5287203
0.1145027,0.8577477,0.5294386
0.1135881,0.860187,0.5315819
0.1116978,0.8623546,0.5319756
0.1109335,0.8604072,0.5318346
0.1109397,0.8589228,0.5303193
0.112509,0.8582176,0.5291675
0.1136599,0.8564773,0.5311124
0.1140081,0.8549779,0.5305491
0.1140985,0.8521159,0.52928
0.1136108,0.8522253,0.5291854
0.1140008,0.8552703,0.5289192
0.1136401,0.8548292,0.529057
0.1115115,0.8563994,0.526037
0.1089961,0.8605576,0.5195158
0.1076563,0.8599618,0.51543
