accx,accy,accz
0.279494,0.4445977,0.8536392
0.2770254,0.4443456,0.8604129
0.2746455,0.443204,0.8620132
0.2762586,0.4429631,0.8558263
0.2778041,0.4430886,0.8526828
0.2801085,0.4427562,0.8541017
0.2820711,0.4421808,0.8548478
0.2818606,0.4403375,0.8542769
0.2811586,0.4399373,0.8567605
0.2807732,0.4402965,0.8591978
0.2841609,0.4391411,0.8559346
0.2874649,0.4377374,0.8515201
0.2855037,0.4372945,0.848083
0.281751,0.439201,0.8435526
0.278913,0.4428707,0.8413309
0.2790948,0.4452679,0.8457644
0.2822616,0.4439041,0.8509981
0.2834773,0.4422032,0.8496112
0.2797971,0.4444135,0.8497663
0.2768308,0.4464991,0.8554163
0.2803114,0.4483416,0.8590452
0.2832032,0.4507378,0.8587461
0.2795806,0.4483748,0.8542265
0.2762068,0.4459817,0.8514013
0.2770156,0.4477378,0.8525883
0.279895,0.4482081,0.8524775
0.2834358,0.4472409,0.8556044
0.2844436,0.4451416,0.8567163
0.285116,0.4417838,0.8532774
0.2868414,0.4419937,0.8529433
0.2841164,0.4464068,0.8462474
0.2824121,0.4497769,0.8398623
0.2847872,0.4481803,0.8477544
0.2848989,0.4459752,0.8545503
0.2836024,0.4475925,0.8515834
0.2794079,0.4481853,0.8507218
0.2746022,0.449215,0.8542622
0.2759722,0.4521394,0.8528263
0.2772703,0.4484473,0.8509911
0.2749371,0.4427983,0.8503909
0.275292,0.4424754,0.8455068
0.279142,0.4417216,0.8466534
0.2823434,0.4387877,0.8487529
0.2826193,0.4371108,0.8459691
0.2814056,0.4399252,0.8481923
0.2819133,0.4430316,0.8505768
0.2823765,0.4405994,0.8532945
0.2814919,0.4395686,0.8553568
0.2821319,0.4417258,0.8515713
0.2813749,0.44183,0.8516647
0.2780179,0.4414352,0.8563939
0.2758371,0.4407907,0.8601932
0.276832,0.4395894,0.8593004
0.2797515,0.4384813,0.8539256
0.2793446,0.4370764,0.8518162
0.2786204,0.4379282,0.8511269
0.2801119,0.4418405,0.8525652
0.2805938,0.4457653,0.8601134
0.2821388,0.4459927,0.8659021
0.2803128,0.4418531,0.8643059
0.2759892,0.4388441,0.8597065
0.2765526,0.4395301,0.859343
0.2783047,0.4398735,0.8594141
0.2794313,0.4391786,0.8552747
0.2786542,0.4387606,0.852101
0.2770513,0.4377974,0.8520673
0.2789479,0.4372691,0.8550541
0.2796673,0.4375427,0.8547558
0.2788649,0.4371495,0.8517634
0.2792894,0.4360773,0.8526723
0.2789538,0.4354239,0.8518717
0.2782663,0.4354813,0.8526736
0.277366,0.4349921,0.8556675
0.2768873,0.4361822,0.8580532
0.2771225,0.4397944,0.8640443
0.2768748,0.4406887,0.8641278
0.2764289,0.4393098,0.8611749
0.2762718,0.4359497,0.8605595
0.2775839,0.4318731,0.8560621
0.2792737,0.433917,0.8576674
0.2803394,0.436216,0.8652394
0.2818283,0.4349645,0.8683152
0.2821918,0.4363243,0.8638318
0.2811321,0.4366208,0.8564587
0.2784035,0.4353353,0.8581828
0.2752553,0.4355144,0.8577769
0.2760128,0.4352153,0.850403
0.2775566,0.4379434,0.8511687
0.2771961,0.4420003,0.8521411
0.2773037,0.4413755,0.8518657
0.2758465,0.4405042,0.8559478
0.2743704,0.4392048,0.8575374
0.2766052,0.4337241,0.8590645
0.2814596,0.4319459,0.8593531
0.2851409,0.4341218,0.8579814
0.2822886,0.43326,0.8570671
0.2794806,0.433013,0.8547633
0.2812448,0.4342565,0.8572872
0.2793664,0.4361098,0.8591335
0.2779615,0.4401777,0.8550205
0.2771875,0.4408688,0.8535804
0.2739869,0.4379217,0.8549549
0.2768942,0.4373589,0.8561807
0.2803173,0.4393042,0.8555862
0.2807188,0.4409911,0.8548867
0.2825732,0.440411,0.8551908
0.2821018,0.4397934,0.8536319
0.2813692,0.4404435,0.8545099
0.2813133,0.4390038,0.8573818
0.2802236,0.4360789,0.859025
0.2804037,0.4328704,0.8606654
0.2808008,0.4300568,0.8610835
0.2804704,0.4302853,0.861406
0.2804628,0.4309472,0.8610843
0.2799951,0.4312127,0.8607731
0.2768939,0.4354174,0.8619255
0.2745901,0.4419866,0.8626148
0.2782738,0.4474899,0.8644003
0.2825068,0.4508155,0.8629756
0.2815659,0.4484915,0.8552208
0.2813891,0.4432872,0.8475232
0.2839226,0.4437219,0.8452717
0.2843458,0.4455594,0.8491695
0.2856594,0.4438281,0.8530589
0.2867612,0.4440203,0.8555768
0.2841362,0.4435111,0.8543853
0.2818803,0.4420034,0.8494473
0.2800519,0.4422385,0.8532673
0.2809252,0.4360364,0.8571608
0.282406,0.4298947,0.8544222
0.2779217,0.4352502,0.8560261
0.2750676,0.4399699,0.8557908
0.2766819,0.4373836,0.8548409
0.2790419,0.438801,0.8563697
0.2850441,0.4435925,0.8549916
0.2910311,0.4433918,0.8555074
0.28908,0.4422771,0.8536948
0.283609,0.441618,0.8471262
0.2832143,0.4395025,0.8434752
0.2844216,0.440135,0.8482292
0.2856332,0.440788,0.8606496
0.2861318,0.4403989,0.8655862
0.2801762,0.443108,0.85804
0.2733325,0.4455102,0.8502857
0.2715129,0.4456717,0.8503115
0.276188,0.4465287,0.8528922
0.2827612,0.4478228,0.8514582
0.2833782,0.4470813,0.8523097
0.2841648,0.4457292,0.8541161
0.2855661,0.4448889,0.8553629
0.2850129,0.4426802,0.8576255
0.2855221,0.4413037,0.8521934
0.2834441,0.4414629,0.8478789
0.2815634,0.4413844,0.8508981
0.281032,0.4404709,0.8520488
0.2789761,0.4398129,0.8539037
0.2782487,0.4430188,0.8575779
0.2786473,0.4465649,0.86083
0.280224,0.4475773,0.8608847
0.2813565,0.4471812,0.8581189
0.2811495,0.444114,0.8588577
0.2821897,0.4432747,0.8588195
0.2822259,0.4447773,0.8550895
0.2815726,0.4443855,0.8517952
0.2821275,0.4435143,0.8496654
0.2819866,0.4426375,0.8479684
0.2814279,0.4431007,0.8471583
0.280305,0.4432814,0.8499098
0.2789209,0.442735,0.8525066
0.2807,0.4433229,0.8517474
0.2828202,0.4431108,0.852925
0.2809726,0.4442604,0.8558711
0.2796462,0.4466798,0.8555507
0.2798316,0.4471123,0.8523635
0.2780296,0.4443818,0.8510779
0.2782678,0.4400467,0.8530476
0.2834319,0.4396278,0.8537464
0.2881124,0.4407788,0.8473857
0.2880366,0.4400944,0.8390432
0.2865351,0.4413252,0.8416052
0.2858031,0.4459124,0.8492482
0.2830257,0.4510483,0.8499661
0.2811137,0.4502671,0.8489311
0.2820525,0.4448844,0.8492032
0.2820789,0.4418232,0.8482549
0.2818583,0.4403152,0.8495378
0.2819684,0.4406797,0.8517705
0.2822583,0.4414609,0.8507072
0.2840094,0.4398153,0.8494128
0.2862178,0.440377,0.8496829
0.2873888,0.4425495,0.8519066
0.2860513,0.4432466,0.8556174
0.2831559,0.4437317,0.8565699
0.2811448,0.4445235,0.8530959
0.281617,0.4460371,0.8484263
0.282649,0.4445221,0.8512821
0.2813689,0.4415779,0.8566933
0.2811152,0.44255,0.8569558
0.2816248,0.4425979,0.8593753
0.2816391,0.4419008,0.8547239
0.2828679,0.4427869,0.8464677
0.283467,0.4414468,0.8519385
0.2850586,0.4388948,0.8567107
0.2852538,0.4366889,0.8562573
0.2827616,0.437381,0.8557562
0.2825902,0.4403607,0.850645
0.2817441,0.4411945,0.8478962
0.2814969,0.4409844,0.8475354
0.2827963,0.4365167,0.8484166
0.2821949,0.4313,0.8525343
0.2827708,0.4340984,0.853484
0.2820728,0.4360759,0.8540335
0.2811849,0.4347171,0.8547876
0.28263,0.4382668,0.852052
0.2817201,0.4419331,0.8499673
0.2815337,0.4412512,0.8482238
0.2815089,0.4412256,0.8491931
0.2800436,0.4424566,0.853013
0.2826173,0.4428703,0.8524157
0.2878304,0.445785,0.8490364
0.2911623,0.4469646,0.843592
0.2880836,0.4389617,0.8423065
0.2829846,0.4329,0.8554505
0.2836861,0.4396258,0.8668702
0.2829102,0.446118,0.8604783
0.2804033,0.4418831,0.8511168
0.2803411,0.4395702,0.8507068
0.2769611,0.4412575,0.8501178
0.2751483,0.4379963,0.8494333
0.2774406,0.4381529,0.8523637
0.2784625,0.4405297,0.8515448
0.281754,0.4397667,0.850762
0.2857332,0.4420288,0.8514584
0.2864792,0.4405314,0.8483383
0.2863111,0.4372411,0.8465062
0.285818,0.4396303,0.8473756
0.2861512,0.4400387,0.8493813
0.2856212,0.4399999,0.8508831
0.2815183,0.4412102,0.8516446
0.2760913,0.4416239,0.8533662
0.2740082,0.4444214,0.8529226
0.278288,0.4470222,0.8532911
0.2824099,0.4489876,0.8575285
0.2820642,0.4494975,0.8602528
0.2824298,0.4475657,0.8563399
0.284629,0.4478674,0.8502745
0.2868556,0.4474413,0.8508915
0.2865922,0.446437,0.8519062
0.2853107,0.4475147,0.8493165
0.286701,0.4453089,0.850071
0.2869649,0.4433621,0.8518638
0.2864113,0.4442488,0.8516924
0.2858804,0.4447276,0.8516257
0.2828756,0.4470951,0.8539986
0.2813871,0.4481854,0.8565321
0.2818169,0.4475865,0.8546621
0.2821051,0.4491614,0.8530081
0.2820741,0.4497793,0.8531003
0.2816251,0.4498434,0.8522989
0.2820188,0.4499959,0.8525417
0.2812159,0.447832,0.8516103
0.2821997,0.4457342,0.8496129
0.2886942,0.4457226,0.8474483
0.2932668,0.44685,0.8432165
0.2895167,0.4472128,0.8439179
0.2825833,0.4454113,0.8490146
0.2810156,0.4442948,0.8505225
0.2819592,0.4481093,0.8515301
0.2808739,0.4551641,0.8501247
0.279535,0.457768,0.8472931
0.2789173,0.4523035,0.8501274
0.2811535,0.4469759,0.8517372
0.282914,0.448183,0.8517617
0.2825871,0.448633,0.8523247
0.2835999,0.4462908,0.8490296
0.2838304,0.4472044,0.8480162
0.2848876,0.4477709,0.8498353
0.2871826,0.4466644,0.8503997
0.2876601,0.4473059,0.8508425
0.287107,0.4465843,0.8506635
0.2841701,0.4461687,0.8509117
0.2794306,0.447697,0.8513772
0.2769249,0.4473477,0.8515976
0.2783344,0.4469267,0.8513853
0.2801004,0.4475909,0.8513143
0.2789994,0.4480818,0.8522432
0.2791324,0.4482955,0.8509156
0.2823142,0.446095,0.8485993
0.2867353,0.4433999,0.8481696
0.2903803,0.4445649,0.8487251
0.2890939,0.4469251,0.8486803
0.2869002,0.4473309,0.8473837
0.2879453,0.4468672,0.8471143
0.2874141,0.4444698,0.8472088
0.2864541,0.4424262,0.8478683
0.2844502,0.4451536,0.8509941
0.2804479,0.4486047,0.8536437
0.2816114,0.4490504,0.8533229
0.282995,0.4484703,0.8525349
0.2806161,0.4483245,0.8556747
0.279451,0.4473459,0.8576268
0.2772523,0.4441787,0.8537721
0.2773519,0.4426521,0.8510696
0.2812637,0.4457089,0.8517699
0.2842346,0.4482802,0.8508786
0.2868509,0.4456628,0.8432044
0.2847099,0.4413306,0.8365256
0.2805754,0.4399666,0.8435891
0.281108,0.4419295,0.8543148
0.2797259,0.444778,0.856476
0.2780511,0.4439697,0.853011
0.2788554,0.4421533,0.8499104
0.2773861,0.4433608,0.8513539
0.2776415,0.4430406,0.8513605
0.2792179,0.4416276,0.8461523
0.2792132,0.440828,0.8432918
0.2806478,0.4397186,0.844399
0.2825202,0.4403859,0.8469259
0.2838627,0.4405077,0.8518991
0.2834157,0.439953,0.858265
0.2818856,0.4394447,0.8594634
0.2814999,0.4348404,0.8539237
0.2791586,0.4309569,0.8496772
0.2770732,0.4351948,0.8486922
0.2787659,0.4405909,0.8517411
0.2806876,0.4387098,0.8572649
0.2806033,0.4359274,0.8569072
0.2792848,0.4351788,0.8570899
0.2780732,0.4321722,0.8596334
0.2778105,0.431778,0.8578106
0.2795297,0.4340795,0.8575941
0.2813518,0.4349998,0.8562183
0.2805367,0.4351471,0.8527874
0.2802136,0.4349394,0.8538205
0.2808566,0.4383963,0.8529636
0.2806272,0.4413476,0.8508855
0.2813963,0.4383964,0.854016
0.2823276,0.4365276,0.8568822
0.2819656,0.4375914,0.8569353
0.2815873,0.4378806,0.8622729
0.2811698,0.4372023,0.8702845
0.2801135,0.436931,0.8683251
0.2794612,0.4345809,0.8627061
0.2792029,0.4294979,0.862387
0.2801557,0.4285633,0.861675
0.2855719,0.4313145,0.8593311
0.2905145,0.4325656,0.8552177
0.2867492,0.4318432,0.8523062
0.2798327,0.4310015,0.8541016
0.2782416,0.4323741,0.8537444
0.2792618,0.4339314,0.8544493
0.2791673,0.4344313,0.8596202
0.2780613,0.4345905,0.8618803
0.2763007,0.433886,0.8603332
0.2752495,0.4331059,0.8545308
0.2750029,0.4334475,0.8500745
0.2761148,0.4356078,0.8516686
0.2794109,0.4374732,0.8502619
0.2832379,0.4377967,0.8476415
0.2857975,0.4373198,0.850789
0.2848169,0.4363654,0.8543581
0.2828666,0.4360782,0.8543929
0.2823276,0.4354099,0.8540315
0.2792456,0.4338485,0.8542812
0.2762087,0.4328898,0.8558087
0.2771909,0.4339598,0.8632114
0.2798448,0.4351889,0.8707794
0.2808929,0.4351885,0.8690033
0.279653,0.4375402,0.8649171
0.2787899,0.4376995,0.8621215
0.2768541,0.4340201,0.8542315
0.2767272,0.434417,0.8516618
0.2815099,0.4401508,0.8570799
0.2826051,0.4466973,0.8555567
0.2805133,0.444633,0.8545726
0.2795295,0.440193,0.855763
0.2786383,0.4425169,0.8489125
0.2794173,0.4400731,0.844019
0.2792333,0.4391739,0.8442529
0.2788885,0.4437386,0.8473326
0.2791496,0.4427356,0.8510853
0.277117,0.4425588,0.8534144
0.2759439,0.4408224,0.8581645
0.2762506,0.4374685,0.8561595
0.277676,0.440546,0.8519092
0.2823133,0.4426231,0.855004
0.2887762,0.4432431,0.8538168
0.2892246,0.4434555,0.8492432
0.2806563,0.4428389,0.8455086
0.2757059,0.4453968,0.8439937
0.2785946,0.4470475,0.8502399
0.2802656,0.4465953,0.8547006
0.2783677,0.4455841,0.8516293
0.2760087,0.4456091,0.8487373
0.2753259,0.4476322,0.8465939
0.277104,0.448994,0.8432808
0.280392,0.4502117,0.8435869
0.2802167,0.4485527,0.8474086
0.280617,0.44599,0.8491165
0.2852102,0.4474928,0.8502342
0.2844721,0.4475757,0.8545822
0.2837759,0.4467367,0.8600282
0.2861419,0.4495048,0.8574454
0.2849093,0.4578618,0.8452252
0.2863132,0.4698675,0.8364705
0.2868314,0.4710856,0.8374192
0.2851652,0.4614633,0.8455633
0.2867231,0.4560725,0.85125
0.2851403,0.4547821,0.8483276
0.2812975,0.4552561,0.847791
0.2783191,0.4569201,0.8488743
0.2783771,0.4576495,0.8455429
0.2814781,0.459995,0.8443939
0.2814454,0.4575018,0.8486799
0.2827755,0.4516975,0.8560666
0.2845507,0.4526417,0.8572913
0.28332,0.453262,0.8501489
0.2842929,0.452254,0.844984
0.2834351,0.4530161,0.8454794
0.2823415,0.4518419,0.8454922
0.2825132,0.4520056,0.8446808
0.2775883,0.4531314,0.8523838
0.2741397,0.4533515,0.8586652
0.2756592,0.4559357,0.8537347
0.2787459,0.4598256,0.8523377
0.2820294,0.460083,0.8538681
0.2825975,0.4571585,0.8504823
0.2830109,0.4576159,0.8455679
0.2830712,0.4569507,0.8413236
0.281439,0.4544408,0.842048
0.2826949,0.458737,0.8451927
0.2837724,0.461148,0.8490206
0.2808773,0.4577644,0.8545937
0.2781111,0.4536208,0.8535569
0.2771272,0.4485646,0.8504267
0.2771974,0.4508125,0.8526567
0.2782126,0.4550393,0.8510462
0.2795467,0.4520397,0.8436499
0.281209,0.4524011,0.836511
0.2840531,0.4546649,0.8351454
0.2872509,0.4538862,0.8414585
0.2863227,0.4553531,0.8449319
0.2830618,0.4553611,0.8433941
0.2817753,0.4524356,0.8442828
0.2780491,0.4499072,0.8467042
0.2749684,0.4495837,0.8498695
0.2766159,0.4523676,0.8520028
0.2765344,0.4531294,0.8524923
0.2751779,0.45168,0.852228
0.274871,0.45104,0.8492855
0.2750382,0.4502639,0.8491928
0.2766577,0.4500375,0.8508727
0.2793724,0.4490846,0.8482647
0.2823762,0.446451,0.8467307
0.2824482,0.4439431,0.8471341
0.2813601,0.445465,0.8461631
0.2822327,0.4488371,0.8428187
0.2819786,0.4470126,0.8398192
0.2813721,0.4464428,0.8421346
0.2803915,0.4483673,0.8428603
0.2782982,0.4473581,0.8426072
0.2780837,0.4483594,0.8475107
0.2779899,0.4490807,0.8480289
0.2775375,0.4489569,0.8463787
0.279959,0.4500109,0.8470967
0.2848848,0.4488152,0.8441007
0.2886327,0.4494725,0.8442736
0.2860213,0.4508094,0.8490688
0.2811561,0.4511155,0.8502902
0.2817725,0.4514474,0.8496006
0.2824365,0.4475374,0.8488158
0.2812276,0.4449452,0.8445991
0.2814216,0.4451306,0.8423724
0.2802073,0.4431267,0.8467475
0.2802411,0.4431906,0.8490672
0.2811227,0.4459648,0.8514967
0.280119,0.4470923,0.8533005
0.2812206,0.4428914,0.8498039
0.2833919,0.4373909,0.8526155
0.2855896,0.438598,0.8540946
0.2871307,0.4413434,0.8511225
0.287242,0.4425825,0.8528879
0.2873235,0.4453982,0.8507165
0.2833972,0.4442252,0.8495183
0.278739,0.4398999,0.84907
0.2787508,0.4384102,0.8455705
0.2793552,0.4386499,0.8482325
0.2794455,0.440168,0.8499749
0.280102,0.4406704,0.8501645
0.2815277,0.4391803,0.8519646
0.2821464,0.4369724,0.8532325
0.2824496,0.4342815,0.8555528
0.2845876,0.4377082,0.8537748
0.28338,0.4421461,0.8533094
0.280489,0.437851,0.8543827
0.2813997,0.4343395,0.8516581
0.2839363,0.4350384,0.8530658
0.2867782,0.4355688,0.8546207
0.2847302,0.4374143,0.8556114
0.2796074,0.4379333,0.8594423
0.2793444,0.4372073,0.8601894
0.278594,0.4376007,0.8600393
0.2774412,0.4377018,0.8554921
0.2785173,0.4381411,0.8494372
0.278019,0.438521,0.8546053
0.2812008,0.4380003,0.8595616
0.2853699,0.4370776,0.8555803
0.2842225,0.4331886,0.8524753
0.2821996,0.428791,0.8503692
0.2780402,0.4307334,0.8498636
0.2747471,0.4347771,0.855997
0.2775709,0.4361624,0.8598586
0.2813487,0.436423,0.8562751
0.2837808,0.4334143,0.8535338
0.282176,0.4320901,0.8554816
0.2781036,0.4343584,0.861824
0.2790122,0.4330774,0.8679717
0.2802165,0.433265,0.8666725
0.2802886,0.4358282,0.8620759
0.2833366,0.4360742,0.8602874
0.2849322,0.436187,0.8577391
0.2856254,0.4338934,0.8564445
0.2841689,0.4317004,0.8585968
0.2792657,0.4319644,0.856967
0.2789907,0.4317482,0.8545506
0.2790111,0.432015,0.8543948
0.2768069,0.430962,0.8554323
0.2791799,0.4304853,0.8618138
0.2806842,0.4325562,0.8648727
0.2805,0.4334047,0.859857
0.281851,0.431841,0.8550775
0.2824441,0.4301112,0.8544721
0.2847751,0.4338599,0.8555668
0.2869279,0.4397803,0.8535954
0.286038,0.440702,0.8547866
0.2845457,0.4383782,0.8609592
0.2827418,0.4356666,0.8660647
0.2809223,0.4354444,0.8666275
0.2790515,0.4348212,0.8570063
0.2776999,0.4332967,0.8495425
0.2791104,0.4377328,0.8526194
0.2815402,0.4423193,0.8530388
0.2806139,0.441099,0.8509606
0.2786901,0.4401683,0.8538362
0.2787781,0.4406883,0.8556661
0.2785851,0.4403653,0.8482699
0.2814687,0.4421149,0.8424327
0.2859327,0.4446963,0.848871
0.2863874,0.4444177,0.8530878
0.2859305,0.4454147,0.84659
0.2841645,0.4469176,0.8420969
0.2826303,0.4458641,0.8454028
0.2831722,0.4475226,0.8479229
0.2813778,0.4482159,0.8488322
0.2789137,0.4434057,0.852285
0.2779985,0.4394403,0.8569124
0.2787931,0.4376561,0.8621774
0.2805683,0.44092,0.8598953
0.281676,0.4470679,0.850689
0.282318,0.4446087,0.8475581
0.2821742,0.4429733,0.8502537
0.2838145,0.4470583,0.8544772
0.2863694,0.4465912,0.8549571
0.2863825,0.4480935,0.8537479
0.2857669,0.449716,0.8569528
0.2848257,0.4477094,0.8563602
0.2827724,0.4488482,0.853111
0.2812439,0.4476235,0.8527826
0.2820525,0.4456241,0.8512512
0.2831143,0.4465374,0.847363
0.2825056,0.4481729,0.8435566
0.2825958,0.4511159,0.8441408
0.2825566,0.450084,0.8456171
0.2816367,0.4482712,0.8466198
0.2809089,0.4490105,0.8503722
0.280336,0.4482823,0.8525251
0.280559,0.4486587,0.854095
0.280613,0.448836,0.8533625
0.2805061,0.4486325,0.8490144
0.2804268,0.4506667,0.8469166
0.2795968,0.4518323,0.8439346
0.2787858,0.4515366,0.8434189
0.2777648,0.4513165,0.8488817
0.2759203,0.4523133,0.85367
0.274661,0.4532446,0.8577025
0.2766509,0.4531671,0.8547162
0.2788351,0.4553962,0.8483192
0.2777791,0.4578923,0.85135
0.2795603,0.4571448,0.8498359
0.2861228,0.4564021,0.8438373
0.2903065,0.4572155,0.846269
0.2874782,0.4567048,0.8457483
0.2830908,0.4552062,0.8422116
0.2830451,0.4553,0.8406441
0.2814626,0.4557968,0.8392761
0.2781221,0.4555399,0.8408694
0.2769547,0.4550923,0.8405556
0.2759176,0.4541931,0.8406018
0.2782836,0.4538815,0.8429457
0.2803033,0.4554167,0.8431449
0.2789471,0.4569474,0.8444797
0.281395,0.4567917,0.8430459
0.2844844,0.4559555,0.8394635
0.2851435,0.4542026,0.8409397
0.2845044,0.4527475,0.8441683
0.2821245,0.45283,0.8464549
0.2799814,0.4522563,0.8455331
0.2783448,0.4510644,0.843652
0.278956,0.4495733,0.8465032
0.2788589,0.4498918,0.847664
0.276893,0.4524469,0.8439577
0.2781435,0.4522881,0.8413276
0.278974,0.4492825,0.841601
0.2791624,0.4464862,0.8438046
0.2810628,0.4483624,0.8449981
0.2831433,0.4516932,0.8449198
0.2855294,0.4494154,0.8470165
0.2841525,0.4483338,0.848941
0.2818611,0.4483311,0.8462852
0.2820512,0.446575,0.8431454
0.2797635,0.4492536,0.8452989
0.2781452,0.45074,0.8469408
0.2782247,0.4487223,0.8450064
0.2780429,0.4484022,0.8449703
0.2797653,0.4485208,0.8448938
0.2789205,0.4482642,0.8462037
0.275796,0.4458739,0.85133
0.2761594,0.444201,0.8547356
0.2820415,0.4479487,0.8580235
0.290465,0.4509541,0.8593533
0.2898628,0.4468225,0.8517519
0.2840929,0.4405464,0.8445625
0.2837456,0.4407021,0.8484132
0.2821445,0.446784,0.8527863
0.2812193,0.4510384,0.8506686
0.2826928,0.4463067,0.8527487
0.2812674,0.4401168,0.8566377
0.2811548,0.4433377,0.8564369
0.2807351,0.4445879,0.8556915
0.2808551,0.442286,0.8510851
0.2828973,0.4447246,0.8457083
0.282572,0.4439611,0.841924
0.2861499,0.4436723,0.8402516
0.2903609,0.4454778,0.843875
0.2865132,0.4426142,0.8459627
0.2809928,0.4418817,0.8529183
0.278863,0.4418608,0.8615387
0.2789383,0.4410456,0.8554597
0.279324,0.4420996,0.8499768
0.2795524,0.4401538,0.8527904
0.2808621,0.4384195,0.8531137
0.2821562,0.4394143,0.8527874
0.2804506,0.4421511,0.8536868
0.278792,0.4444145,0.8539472
0.2830004,0.4418606,0.8515623
0.2873835,0.4389392,0.8494924
0.2873558,0.4364061,0.8527087
0.2881957,0.4357152,0.8564447
0.2891634,0.4387217,0.8556404
0.2861468,0.437371,0.8537138
0.2806418,0.4357719,0.8525128
0.2771527,0.4369186,0.8510416
0.2785514,0.4364086,0.8538357
0.2820202,0.4375802,0.8603504
0.2833053,0.4361375,0.8648735
0.2831934,0.4334062,0.8657957
0.2820816,0.4349277,0.8622972
0.2787773,0.4340724,0.8600885
0.2769226,0.4326298,0.8622625
0.279208,0.4335733,0.862483
0.2866555,0.4331911,0.8587618
0.2980622,0.4323521,0.852955
0.3006365,0.4313579,0.8503548
0.2873993,0.430044,0.8543353
0.2756592,0.4288437,0.8578921
0.2781621,0.4291595,0.857037
0.2797889,0.4314004,0.8561351
0.2736136,0.4323359,0.8555121
0.2727749,0.4325361,0.8535413
0.2752602,0.4344991,0.8536191
0.2757873,0.4369018,0.8539372
0.2796608,0.4365873,0.8522822
0.2832179,0.4355138,0.8535444
0.2823444,0.4373561,0.8549537
0.2817373,0.4383339,0.8539913
0.2850169,0.4385393,0.8564618
0.2885382,0.4392694,0.8631754
0.2895262,0.4365748,0.8650008
0.2915061,0.4340849,0.8486844
0.2907272,0.4338838,0.8310687
0.2831697,0.4356988,0.841786
0.2771964,0.4405678,0.856735
0.2806172,0.4412464,0.8535364
0.2868732,0.4391964,0.8538561
0.2860201,0.4397858,0.8542607
0.283754,0.4386995,0.8480584
0.2836382,0.4384252,0.8487825
0.2840232,0.4396655,0.8517146
0.288253,0.439429,0.8523681
0.2896738,0.4405544,0.8510131
0.2875277,0.4406302,0.8508223
0.2874427,0.4399325,0.8535171
0.2865301,0.4415048,0.852212
0.284198,0.4419095,0.8528408
0.2804957,0.4415776,0.853935
0.2792399,0.4419035,0.8546153
0.2788404,0.4424621,0.8593755
0.2756148,0.443436,0.8573221
0.2765622,0.443643,0.8533514
0.2779769,0.4458525,0.8508016
0.278221,0.4500317,0.8465358
0.28049,0.4504296,0.8475166
0.2815232,0.4477721,0.8486319
0.2872093,0.4466524,0.8498905
0.2937233,0.4476105,0.8500839
0.2925582,0.4492107,0.8431628
0.2883664,0.4504009,0.8375113
0.2840214,0.4511086,0.8372289
0.2820306,0.4543125,0.8415158
0.2805994,0.4593238,0.8458713
0.2788794,0.4588967,0.8473415
0.2787048,0.4554046,0.8527784
0.2763532,0.4554701,0.8557081
0.2794588,0.4557989,0.8458441
0.2871345,0.4562435,0.8362561
0.2869847,0.4577129,0.8403288
0.2873546,0.4578675,0.8452788
0.2914426,0.459342,0.843626
0.2930871,0.4603739,0.8448482
0.2938179,0.4590191,0.8441453
0.2882626,0.4577911,0.8397458
0.2801486,0.4556387,0.837775
0.2801685,0.4556109,0.8371806
0.2815205,0.4595768,0.841504
0.2799019,0.4621254,0.84445
0.28055,0.4613753,0.8410915
0.2811925,0.4604942,0.8387008
0.2813042,0.4615585,0.8376132
0.2845971,0.4620212,0.8416799
0.2872683,0.4612879,0.8456684
0.2878985,0.4603812,0.8398816
0.2890022,0.4590572,0.8353435
0.2905764,0.4601159,0.8381331
0.2914035,0.4619402,0.8416314
0.2864589,0.4625365,0.8444321
0.2808795,0.4626438,0.8468419
0.2823544,0.4603289,0.8447801
0.2825614,0.4591138,0.8417961
0.279962,0.4592128,0.8439724
0.2797267,0.456088,0.8467429
0.2790305,0.4531434,0.8486211
0.2789735,0.4535116,0.8478544
0.2808719,0.4540639,0.8445145
0.2827653,0.4526011,0.8453137
0.2863764,0.4542712,0.8497227
0.2907059,0.4581832,0.8533764
0.2932726,0.4586595,0.8482833
0.2922854,0.4601528,0.8400858
0.2854125,0.4612558,0.839416
0.2797355,0.4605713,0.8358482
0.2814937,0.4614905,0.8347076
0.2826236,0.4596988,0.841654
0.2786776,0.4573785,0.8422553
0.276696,0.4562655,0.8414361
0.2788172,0.4536332,0.8430537
0.2814935,0.4515756,0.8427526
0.2845162,0.4513524,0.8435673
0.2861239,0.4554113,0.8431803
0.2874814,0.4592792,0.844591
0.2902772,0.457701,0.8473122
0.2897828,0.454504,0.8472624
0.2892415,0.4517987,0.8490279
0.2885262,0.4523453,0.8491247
0.2839722,0.4534565,0.8478931
0.2820255,0.4513706,0.8490537
0.2796845,0.4516334,0.8478361
0.2775433,0.4544965,0.8453742
0.2805493,0.4570741,0.844925
0.2811972,0.4574972,0.8479212
0.28276,0.4551162,0.8511693
0.2856207,0.4535678,0.8511689
0.2846899,0.4522701,0.8517836
0.2874998,0.4514498,0.850557
0.2897431,0.4518956,0.8463861
0.2867833,0.4518873,0.843883
0.285492,0.4531262,0.8444781
0.2859792,0.4531668,0.8470316
0.2863283,0.4514311,0.8458635
0.2846971,0.4503329,0.8452762
0.2822769,0.4493332,0.8495196
0.2808182,0.4517051,0.8531235
0.2802624,0.4525601,0.8560651
0.2826843,0.449406,0.8518504
0.2846928,0.4486457,0.8456833
0.2867369,0.4465851,0.8491455
0.2899834,0.4462518,0.8495694
0.289263,0.4480113,0.8466908
0.2890467,0.4461134,0.8455959
0.2937246,0.4469051,0.8409522
0.2956741,0.4442846,0.8406602
0.2876916,0.4390403,0.843549
0.2782568,0.4418644,0.8446849
0.279905,0.4458405,0.8485595
0.2840668,0.4505967,0.8498946
0.28243,0.4513637,0.8494463
0.2807042,0.445843,0.8520892
0.278699,0.4447039,0.8532444
0.2788371,0.4425332,0.8539913
0.2828869,0.4420132,0.8527525
0.2837601,0.4441731,0.8476957
0.2832887,0.4403716,0.8454835
0.2841704,0.4397039,0.8443077
0.2865639,0.4407881,0.8445938
0.2899899,0.4397694,0.8480958
0.287388,0.4407435,0.8508854
0.2838426,0.4400111,0.8550105
0.2829521,0.440232,0.8537377
0.278743,0.4406091,0.8499076
0.2780283,0.4401727,0.8564823
0.2802489,0.4421017,0.8604933
0.2788078,0.4416367,0.8570804
0.2794262,0.4398657,0.8555213
0.2823552,0.4393851,0.8538123
0.2839501,0.4378849,0.8545787
0.2849956,0.4348974,0.8563331
0.2863152,0.4326902,0.854403
0.288201,0.4321218,0.8536662
0.2876586,0.4319413,0.8547483
0.285876,0.4365098,0.8561462
0.2857821,0.4425962,0.8586449
0.283342,0.4430747,0.860669
0.2809415,0.4395167,0.8602836
0.2820007,0.4347903,0.8559056
0.282041,0.4347212,0.8507967
0.2807028,0.4354999,0.8512173
0.2793884,0.4336178,0.8525347
0.2788391,0.4343023,0.8517505
0.279278,0.4332015,0.8576516
0.2791783,0.4326727,0.8633427
0.2795008,0.433275,0.8592642
0.2818487,0.4283515,0.8567901
0.2869487,0.4259498,0.858901
0.2897921,0.4306619,0.8585794
0.2853642,0.43526,0.8578829
0.2809454,0.4344568,0.8592759
0.2811323,0.4354935,0.8619907
0.2809387,0.439934,0.8634757
0.2814296,0.4338802,0.8582875
0.2826323,0.4274093,0.8513649
0.2797175,0.4315742,0.8540648
0.279119,0.4338527,0.8579749
0.2842178,0.4364801,0.8568156
0.2874304,0.4407014,0.8579679
0.2874852,0.4388983,0.8552918
0.2869796,0.4380018,0.8496986
0.2877851,0.4396441,0.8482577
0.2876153,0.4379831,0.8485342
0.2859769,0.4350323,0.8528401
0.2863535,0.4333957,0.8550692
0.2859073,0.4365307,0.8519868
0.2854471,0.4428171,0.8510809
0.2838849,0.4433118,0.8520206
0.2805974,0.441373,0.85384
0.2821252,0.439377,0.8545963
0.2834887,0.4344279,0.8555144
0.2831437,0.435883,0.8550318
0.2848506,0.4403823,0.8475752
0.2856464,0.4400368,0.8424624
0.2868007,0.4410451,0.8440257
0.2880426,0.4422353,0.8453823
0.2890365,0.4440007,0.8442384
0.2894595,0.4456076,0.8454743
0.2881436,0.443667,0.853256
0.2879552,0.4444917,0.8582896
0.2864359,0.4449579,0.8541441
0.2843912,0.4437561,0.8492124
0.2845414,0.4453094,0.8522828
0.2828296,0.4460876,0.8555574
0.2813318,0.4472035,0.8534514
0.2819607,0.4460538,0.8562431
0.2820871,0.4430814,0.8582404
0.2821008,0.4450325,0.8570096
0.2829128,0.4467164,0.8580638
0.2846052,0.4475076,0.8525063
0.2858084,0.4499733,0.8460593
0.2882676,0.451832,0.8454986
0.2923126,0.4532438,0.8441045
0.2913189,0.451097,0.8388717
0.2853559,0.4493545,0.8356133
0.2810637,0.4530539,0.8440899
0.2812318,0.4551862,0.8515746
0.2827253,0.4537544,0.8459878
0.2817879,0.4518691,0.8420908
0.2812081,0.4497811,0.8457243
0.280665,0.4481783,0.8472403
0.2788665,0.4490683,0.8451694
0.2815899,0.4532001,0.8419001
0.285206,0.4554139,0.8391061
0.2861556,0.4537348,0.8430008
0.2924112,0.4527154,0.846573
0.2979487,0.4518572,0.844063
0.2925384,0.4501382,0.8446366
0.2857874,0.4513196,0.8446066
0.2846222,0.4554624,0.8438451
0.2834548,0.457854,0.8452083
0.2820513,0.4562771,0.8426546
0.2819114,0.4546215,0.8386276
0.2817319,0.455974,0.8353239
0.2824965,0.4568017,0.8388408
0.2833877,0.4567009,0.8444748
0.2832659,0.45684,0.8409646
0.2818911,0.4540569,0.8401123
0.2814829,0.4518094,0.8393824
0.284368,0.4528282,0.835144
0.2851106,0.453047,0.8420578
0.2835084,0.4526302,0.8507512
0.2838075,0.4525577,0.8498778
0.2857511,0.4519837,0.8445549
0.2882098,0.451092,0.8389318
0.2860537,0.451372,0.8388983
0.2832632,0.4528158,0.8449437
0.2850208,0.4537239,0.8498548
0.2839184,0.4543507,0.8495523
0.2816552,0.453367,0.8487608
0.28197,0.452336,0.8482462
0.2822329,0.4538781,0.8420903
0.2843346,0.4541771,0.8381204
0.2884866,0.4522857,0.841238
0.292515,0.4508137,0.8421569
0.2930133,0.4509958,0.8414771
0.2883787,0.4509789,0.842193
0.2845694,0.4496159,0.8435767
0.2857844,0.4507434,0.8467802
0.2868953,0.45178,0.847619
0.284312,0.4491319,0.8478502
0.2828805,0.447096,0.8507821
0.2838071,0.446601,0.8505821
0.2856221,0.4453648,0.8483138
0.2867805,0.443295,0.8469312
0.283904,0.4432658,0.8472252
0.2826363,0.445166,0.8524689
0.2854184,0.4443626,0.8551408
0.2884028,0.4430594,0.8525459
0.2911031,0.4432223,0.8528492
0.2886716,0.4427814,0.8514813
0.2849295,0.4431626,0.8500068
0.2850682,0.4430159,0.853062
0.2824847,0.4418876,0.852809
0.279199,0.4421717,0.8540791
0.2792462,0.444145,0.8551367
0.2812465,0.4460741,0.8510158
0.2846651,0.4426554,0.8512285
0.2862579,0.4383345,0.8506609
0.2861281,0.4400325,0.8497303
0.2867065,0.4393372,0.8535161
0.2887021,0.4361457,0.8554422
0.2906044,0.4377697,0.8559152
0.2875862,0.4391624,0.8534749
0.2828136,0.4394582,0.8518557
0.282667,0.4405584,0.8536792
0.2829328,0.438126,0.854295
0.2814332,0.4347887,0.856179
0.2818438,0.4347227,0.8557052
0.282276,0.4365134,0.853954
0.2820464,0.4374942,0.8544811
0.2838018,0.434058,0.8538084
0.285343,0.4305398,0.8543041
0.2846294,0.4334955,0.8543295
0.2835139,0.4379512,0.8538137
0.2834072,0.4389504,0.8539911
0.2847138,0.4365377,0.8512691
0.2884199,0.4334365,0.8495553
0.2934344,0.4344988,0.8516171
0.2946774,0.4350821,0.8535398
0.2888551,0.4313611,0.8519988
0.280318,0.4301941,0.8520652
0.2773387,0.4323946,0.8604131
0.2792061,0.4332703,0.8687411
0.2777032,0.4300296,0.8676864
0.2745626,0.4267958,0.8630356
0.2758027,0.4312748,0.8624379
0.2783459,0.4353588,0.8614278
0.2798612,0.4325812,0.8603253
0.2822697,0.4313477,0.8646985
0.2844319,0.4322551,0.8656704
0.2865315,0.4324797,0.8618742
0.2902095,0.4315307,0.8595808
0.2920682,0.4275005,0.8579826
0.289041,0.4236622,0.8591715
0.2850838,0.4234372,0.8613674
0.2848263,0.4264973,0.8652186
0.2851564,0.4287005,0.8694615
0.2838215,0.4268229,0.869165
0.2827838,0.426381,0.8671148
0.2801838,0.4302676,0.8588206
0.2797631,0.4330938,0.8508681
0.2830639,0.4321881,0.8534655
0.282773,0.4312483,0.8527567
0.2839674,0.4321416,0.8473315
0.2886465,0.4313562,0.8476826
0.2886255,0.4305889,0.8482077
0.2875528,0.431592,0.8466854
0.2874289,0.4304597,0.8509607
0.2853269,0.4301924,0.8577193
0.2841349,0.4321729,0.8605332
0.2836011,0.4332501,0.8606705
0.2821066,0.4352094,0.8587928
0.2806991,0.4361116,0.8596502
0.2800653,0.4355602,0.8608055
0.280142,0.4379086,0.8595926
0.2809058,0.4397277,0.8615442
0.2831556,0.4374924,0.8592729
0.2843212,0.4348768,0.8550792
0.2835729,0.4335816,0.8551829
0.2840571,0.4329094,0.8520412
0.2831634,0.4334159,0.8485947
0.2808631,0.4335446,0.8492898
0.2812244,0.4339465,0.8538372
0.2842441,0.437962,0.8555202
0.2890609,0.4414807,0.8511832
0.2888492,0.4395904,0.8510097
0.281641,0.4368665,0.8517846
0.2775233,0.4378623,0.8516554
0.2787607,0.4396194,0.8555977
0.2800413,0.4405952,0.8586153
0.2785679,0.4418119,0.8583624
0.2769093,0.4424309,0.8542687
0.2777863,0.443053,0.8516747
0.2820164,0.4415538,0.8544215
0.2885317,0.4389917,0.8573174
0.2881966,0.4393942,0.8580555
0.2869138,0.4381127,0.8530884
0.2923908,0.4367896,0.8478394
0.2917871,0.4388437,0.8496324
0.2886279,0.4393401,0.8501709
0.2867758,0.4403635,0.8478403
0.2811346,0.4443694,0.8493436
0.2798218,0.4478342,0.8509673
0.2806613,0.4476539,0.8497232
0.2806812,0.4456105,0.8507844
0.2819588,0.4458291,0.8520845
0.2826219,0.4457563,0.8510557
0.2840543,0.4450713,0.8510728
0.2836021,0.4465887,0.8491827
0.2848354,0.4492558,0.8452062
0.2882081,0.4506352,0.8435981
0.2874822,0.4478672,0.8449271
0.287169,0.4453119,0.84762
0.2862641,0.4461252,0.8488722
0.2827561,0.4466895,0.8480597
0.2801825,0.4474731,0.8465979
0.279087,0.4481552,0.8472417
0.2790354,0.450406,0.8485209
0.2766479,0.4537942,0.8469557
0.2731006,0.4513574,0.8445036
0.27239,0.4488502,0.8423457
0.2765948,0.4521975,0.8440469
0.2820756,0.4537129,0.848337
0.2809723,0.4520641,0.8480129
0.2800631,0.4509096,0.8440935
0.2839761,0.4496659,0.8393523
0.2853645,0.4496356,0.8392156
0.2844339,0.4504553,0.8412927
0.2827116,0.4498366,0.8378382
0.281036,0.4498485,0.8379619
0.2801856,0.4506441,0.8443072
0.2787551,0.4515601,0.8487661
0.2785299,0.4528484,0.8481933
0.2777813,0.4504111,0.8460761
0.2756571,0.4471978,0.8495753
0.2761258,0.4481208,0.8504156
0.2782046,0.4465629,0.8451497
0.2824972,0.4428817,0.8420848
0.2888575,0.4437644,0.8407936
0.2888055,0.4455383,0.8434082
0.2858681,0.446916,0.8465432
0.287953,0.449812,0.8472496
0.2868894,0.4500574,0.8476875
0.283626,0.4479919,0.8447117
0.2831731,0.4464677,0.8439352
0.2803563,0.4449203,0.8453771
0.2798739,0.4434712,0.8467029
0.2814969,0.4426107,0.8501916
0.2807831,0.4443673,0.8505054
0.2814445,0.4472814,0.8510313
0.2805708,0.4493308,0.8513939
0.2804358,0.4515316,0.8494881
0.2844232,0.4502203,0.8528072
0.272379,0.4311631,0.8471806
0.2709889,0.4368653,0.8346202
0.2695965,0.4436752,0.8501967
0.269658,0.4463784,0.8622939
0.2710619,0.4521892,0.8629204
0.2730547,0.4575927,0.8566089
0.2715503,0.4596874,0.8512882
0.2680152,0.4636272,0.8536906
0.2650918,0.46356,0.8559121
0.2660155,0.459762,0.854317
0.2739896,0.4559981,0.8480682
0.28019,0.4468088,0.842486
0.2772506,0.4427725,0.8448833
0.2710481,0.4477615,0.8550926
0.2684393,0.4467636,0.8708553
0.2691558,0.4469275,0.8801855
0.2698958,0.4514382,0.8673796
0.2694342,0.4521245,0.8517978
0.2682217,0.4535518,0.8595414
0.2649295,0.4524148,0.8659427
0.2593133,0.4502782,0.8633963
0.2591121,0.4485946,0.8662332
0.264833,0.4395111,0.8593484
0.2686922,0.430134,0.8547244
0.2731248,0.4271602,0.861454
0.2762396,0.4271594,0.864411
0.272824,0.4248464,0.8674651
0.2666373,0.42466,0.8678062
0.2621356,0.4290767,0.867428
0.2635564,0.4271111,0.8681397
0.2660054,0.4240077,0.8660214
0.2648302,0.4215882,0.8696374
0.2653233,0.4159852,0.872075
0.2652364,0.4148569,0.870411
0.2634147,0.4130313,0.8710849
0.2642218,0.4118461,0.8719745
0.266626,0.4138668,0.8748181
0.2681285,0.4163076,0.8773388
0.267519,0.4245717,0.877335
0.2681849,0.429512,0.8726162
0.271057,0.4298954,0.8641088
0.2718282,0.4328068,0.8594042
0.2731644,0.4334502,0.8546923
0.2759032,0.4317901,0.8499516
0.2762753,0.4292214,0.8530331
0.2787722,0.4277498,0.8593744
0.2827378,0.4235639,0.8624116
0.2778106,0.4184317,0.8659179
0.2704271,0.4214953,0.8718445
0.2719609,0.4242553,0.8759566
0.2731921,0.4266796,0.8742831
0.2697704,0.431064,0.8667187
0.2645514,0.4291225,0.863719
0.2579111,0.4277187,0.8667744
0.2612251,0.4273538,0.8667184
0.2680884,0.4240095,0.8658017
0.2660848,0.4254313,0.8652956
0.2689751,0.4276534,0.8667926
0.2742905,0.4255091,0.8690428
0.2734584,0.4235081,0.866816
0.2753681,0.4191174,0.8661964
0.2753778,0.4150066,0.8669484
0.27224,0.4184901,0.8668586
0.2717329,0.420955,0.8686217
0.269287,0.4187799,0.8698095
0.2669448,0.419506,0.8695996
0.2660338,0.421132,0.8681474
0.2640291,0.4225132,0.8683673
0.2641604,0.4242437,0.8711299
0.2675455,0.4227715,0.8736809
0.2707261,0.4218396,0.8753278
0.2696943,0.4242992,0.8776401
0.2685984,0.4251021,0.8828199
0.270052,0.422301,0.8816189
0.2697142,0.4194286,0.8721936
0.2709295,0.4188662,0.8668056
0.2731783,0.4185314,0.8676025
0.2717898,0.4191808,0.8720763
0.2697346,0.4219691,0.8761425
0.2674332,0.42188,0.8812306
0.2661425,0.4207278,0.8866454
0.2686087,0.4200735,0.8810093
0.2703088,0.4141553,0.8715479
0.2691149,0.4091639,0.8671039
0.2674052,0.4109933,0.8663892
0.2635871,0.4139838,0.8731291
0.2595377,0.4177468,0.8796502
0.2609004,0.4223073,0.8793525
0.2630783,0.4215972,0.8754752
0.2621043,0.4181271,0.8705281
0.2625593,0.4179713,0.8688096
0.2629799,0.4165025,0.8689416
0.263127,0.4156574,0.8685201
0.2657319,0.4179784,0.8687682
0.2675754,0.4170945,0.8687021
0.2691884,0.4179708,0.8675756
0.2701433,0.4188282,0.866707
0.2688341,0.4161266,0.8683936
0.2680431,0.4171011,0.8718286
0.2653492,0.4175932,0.8745344
0.262466,0.4173895,0.8756034
0.2631163,0.4157472,0.8746694
0.2626746,0.4105239,0.8728724
0.2619697,0.4113055,0.8719075
0.2628604,0.4152713,0.8740148
0.2624785,0.4173377,0.8822366
0.2624735,0.4173549,0.8892691
0.2638049,0.4155273,0.880842
0.264934,0.4161858,0.8665544
0.2656331,0.4159979,0.8650562
0.2651164,0.4180856,0.869012
0.2641498,0.4220361,0.8708512
0.2638335,0.4172934,0.8730501
0.2637131,0.4132191,0.8722578
0.2643713,0.4159104,0.8703717
0.2657306,0.4166545,0.8695723
0.2666739,0.4163863,0.8687293
0.2647365,0.4168029,0.8703232
0.2601741,0.4156883,0.8727509
0.2600868,0.4148654,0.8752891
0.2662965,0.4153734,0.8752046
0.2713882,0.4153743,0.8677389
0.2701023,0.4151398,0.8603245
0.2674847,0.4155546,0.8576718
0.2674835,0.416135,0.8590958
0.2642349,0.4174562,0.8653589
0.2613964,0.4196854,0.8688701
0.2618989,0.4222714,0.8650287
0.26107,0.4229746,0.8624902
0.263025,0.4217146,0.872033
0.2634058,0.4223834,0.8807715
0.2627052,0.4234729,0.8706682
0.2682635,0.4238537,0.862905
0.2715249,0.4257032,0.8704826
0.2726108,0.4269483,0.873481
0.2725075,0.4272135,0.869335
0.2692672,0.4270186,0.864382
0.2684446,0.4250892,0.8609999
0.2663602,0.4207372,0.8684546
0.2643549,0.4156706,0.8782882
0.2639661,0.4169495,0.8739432
0.263333,0.4242326,0.867612
0.2654539,0.4289605,0.8679664
0.2659602,0.4295625,0.8650165
0.2676317,0.4295779,0.8639326
0.2709205,0.4304525,0.8666207
0.2701876,0.4282809,0.868694
0.2709211,0.4250649,0.8703921
0.2725516,0.42755,0.8629948
0.2740542,0.4301726,0.8540734
0.276729,0.4318548,0.8565508
0.2764855,0.4362019,0.8599581
0.2752128,0.4363824,0.860215
0.2743148,0.4326851,0.862545
0.2720341,0.4302203,0.8627673
0.2691202,0.4291417,0.8623678
0.2676778,0.4301724,0.8646659
0.2675838,0.4335185,0.8622039
0.2673218,0.4370647,0.8596235
0.2697391,0.4345325,0.8622683
0.2742153,0.4288351,0.8633383
0.277424,0.4284185,0.8667524
0.2780067,0.427707,0.8692773
0.2735395,0.4260735,0.8656733
0.2689996,0.4293313,0.8644297
0.2697528,0.432491,0.8641782
0.273247,0.4319729,0.8619277
0.2754223,0.4297514,0.860445
0.2717389,0.4288467,0.8609343
0.2675391,0.4301111,0.8616842
0.2698916,0.4307259,0.8606741
0.2720706,0.4294057,0.8618773
0.2720014,0.4268489,0.864971
0.2730352,0.4263906,0.8673375
0.2736412,0.4291741,0.8676101
0.2744489,0.4309028,0.8666029
0.2737711,0.4276447,0.8686382
0.2718754,0.4227445,0.8676802
0.2724429,0.4241234,0.8626469
0.2718939,0.4276555,0.8609804
0.2699204,0.4262206,0.8631105
0.2681053,0.4239819,0.8666139
0.2658233,0.4235823,0.8647555
0.267209,0.4245348,0.8624791
0.2706012,0.4268635,0.8657807
0.2723516,0.4288982,0.8659938
0.2725833,0.4290408,0.8669556
0.2716497,0.4280133,0.8683457
0.2715173,0.4275197,0.8649871
0.2706499,0.4249177,0.8651764
0.2704318,0.4219798,0.8652224
0.2713854,0.4238992,0.8633214
0.2706721,0.4242261,0.8670842
0.2717273,0.4213696,0.8716535
0.2727589,0.420673,0.8738509
0.271616,0.4194833,0.8753073
0.2703303,0.4215224,0.8727809
0.2679999,0.4253883,0.8675557
0.2675367,0.4233151,0.8661819
0.2684416,0.4233474,0.8694285
0.2679428,0.4261872,0.8719706
0.2679939,0.4260617,0.8713116
0.269051,0.4245889,0.8721163
0.2724554,0.4210283,0.8755477
0.2762011,0.4199821,0.8754661
0.2741194,0.4221117,0.8743432
0.2696034,0.4242145,0.8754308
0.2686749,0.4268962,0.8749111
0.2675868,0.4242948,0.8746413
0.264796,0.4198559,0.8735106
0.2631712,0.4197805,0.8686104
0.2620957,0.4177617,0.8662201
0.2623284,0.4162605,0.871182
0.2630399,0.418604,0.8775706
0.2633263,0.4200015,0.876371
0.2656313,0.4221025,0.8714016
0.2684453,0.4230859,0.8685977
0.2696471,0.4211589,0.8666782
0.2680009,0.420452,0.8668737
0.2655799,0.4181043,0.8670161
0.2665003,0.4161761,0.8685472
0.2663508,0.4171445,0.8736481
0.2644523,0.4163651,0.8756873
0.2648446,0.4166044,0.8744477
0.2629428,0.4170374,0.8702746
0.2598834,0.416386,0.8663883
0.2612038,0.4182376,0.8681456
0.2626243,0.4200528,0.8686267
0.2626658,0.4213056,0.8677367
0.2644705,0.4204333,0.8693403
0.266174,0.4166553,0.8704133
0.2672982,0.414775,0.8706396
0.2692724,0.4157143,0.8712399
0.2698487,0.4174996,0.8744979
0.2681263,0.4165579,0.8768772
0.2667672,0.415294,0.8751189
0.2665435,0.416562,0.8730696
0.2665927,0.4167334,0.8698371
0.2664247,0.4176971,0.8672257
0.264856,0.4184741,0.8696536
0.2632644,0.4175765,0.8716722
0.2636122,0.417916,0.8688852
0.2633353,0.4189695,0.8666635
0.2620218,0.4218396,0.8665853
0.2627342,0.4233682,0.8649344
0.2646361,0.4231398,0.8645431
0.2664774,0.4237958,0.8652205
0.2699685,0.4206596,0.8640574
0.2731444,0.4183056,0.8644005
0.2713509,0.4199234,0.8642904
0.2668476,0.4207898,0.8643981
0.2651416,0.4224181,0.8705499
0.2652015,0.422882,0.8752793
0.2651686,0.4222233,0.8721328
0.2651286,0.4251373,0.8692746
0.2633781,0.4287096,0.8711208
0.2622407,0.4295436,0.8714713
0.2644548,0.429055,0.8690042
0.2674557,0.4280054,0.8658079
0.2700952,0.4265389,0.8610553
0.2736164,0.4261557,0.8613597
0.2772401,0.4260666,0.8642347
0.2776329,0.4246277,0.8614703
0.2741614,0.4232795,0.8612774
0.2706773,0.4241945,0.8618469
0.2698136,0.4259517,0.8610916
0.2687725,0.4261455,0.8671521
0.266184,0.428073,0.8711265
0.2665011,0.4304676,0.86894
0.2671736,0.4297831,0.8668219
0.2661082,0.4306956,0.8666738
0.2670015,0.4320149,0.8674525
0.2666905,0.431688,0.8640917
0.2666943,0.4324277,0.8624842
0.2696149,0.4323994,0.8648547
0.2732082,0.4314589,0.8637743
0.2764279,0.4295276,0.8634534
0.2751411,0.4287587,0.8644117
0.2742547,0.4327012,0.8628717
0.2767092,0.4357078,0.8603294
0.2763729,0.4347103,0.8572421
0.2759281,0.4328512,0.8573298
0.2743138,0.432781,0.8597893
0.2700645,0.4340143,0.8588895
0.2686746,0.4334795,0.8573117
0.2692623,0.4349907,0.8590183
0.2688872,0.4382633,0.8633144
0.2681315,0.4384582,0.8663402
0.2708716,0.4386075,0.8642788
0.2753302,0.4370468,0.8611472
0.2754942,0.4332146,0.8606529
0.2742895,0.431932,0.860265
0.2733201,0.4318273,0.8595064
0.2716827,0.4326452,0.8588688
0.2723578,0.43563,0.8563371
0.2744056,0.4384605,0.8530202
0.2746484,0.4378427,0.8547237
0.2715661,0.4357386,0.8613947
0.268123,0.43623,0.8680818
0.2690852,0.4367592,0.870067
0.2710836,0.4384668,0.8620974
0.2724727,0.4414594,0.852422
0.2759971,0.4400323,0.8516509
0.2760965,0.4378339,0.8543749
0.2745644,0.4374909,0.8581947
0.2772983,0.4365822,0.8625679
0.2758753,0.4351048,0.8610655
0.2709244,0.4325569,0.8569589
0.2689446,0.4327268,0.8568836
0.268238,0.4348106,0.8568489
0.268092,0.4357077,0.853257
0.2643883,0.4392443,0.8517063
0.2632521,0.4408939,0.8534074
0.2694603,0.4391587,0.853812
0.271902,0.4389538,0.8547982
0.2709887,0.4363282,0.857932
0.2710296,0.4328574,0.8601864
0.2733692,0.4300572,0.8608159
0.2762057,0.4276354,0.8611374
0.2738644,0.4297112,0.8613292
0.2729074,0.4305726,0.8616662
0.2742596,0.4326728,0.8639306
0.2742754,0.4387737,0.8643652
0.2753811,0.4387465,0.8602681
0.2747075,0.437961,0.8599187
0.2727937,0.4383768,0.8624233
0.2704753,0.435954,0.8603549
0.2675136,0.4361522,0.8588474
0.2662442,0.4346446,0.8585811
0.2666695,0.4336073,0.8571974
0.2692408,0.4357102,0.8577643
0.2726052,0.432657,0.8587028
0.2771492,0.4289694,0.8614162
0.27985,0.4266383,0.8625801
0.2745671,0.4262373,0.8597314
0.2692364,0.4301029,0.8617348
0.2704048,0.4301158,0.8636633
0.2707666,0.4290846,0.8633051
0.2686568,0.4286475,0.8649187
0.2693007,0.4258187,0.8647396
0.2698633,0.4269563,0.8707984
0.2682162,0.4293514,0.8778162
0.2690074,0.4307149,0.8740843
0.2707022,0.4299381,0.8714658
0.2710517,0.4249256,0.8704314
0.2711365,0.4224404,0.8652429
0.2714327,0.4210266,0.8642638
0.2726911,0.4201614,0.8679514
0.2721836,0.4217823,0.8686453
0.2705395,0.4230548,0.8676438
0.2689787,0.4273008,0.8682895
0.2663543,0.4290081,0.8683314
0.2663074,0.4254539,0.8694017
0.2674514,0.4262125,0.8692835
0.2681787,0.4289736,0.8647607
0.2700758,0.4289857,0.8626627
0.2697164,0.4274853,0.864475
0.2688962,0.4257373,0.866434
0.2699676,0.4261521,0.8682387
0.2704987,0.4270836,0.8684878
0.2719835,0.4270008,0.8661653
0.2737208,0.4277893,0.8662436
0.2736533,0.4272858,0.8694008
0.2736107,0.4256329,0.8681901
0.2736404,0.4264845,0.8622108
0.2733449,0.4267375,0.8571027
0.2726436,0.4257752,0.8611978
0.2704608,0.4257681,0.8696654
0.2674022,0.4250558,0.868202
0.2642392,0.4265152,0.8652419
0.263746,0.4287724,0.8630112
0.2685124,0.427331,0.8578964
0.2742761,0.4250884,0.8616802
0.2758101,0.4221293,0.8663238
0.2727185,0.4198402,0.8657308
0.2693967,0.4219467,0.866187
0.2691624,0.424295,0.8613419
0.2695182,0.4252858,0.8569954
0.2689169,0.4271457,0.8617352
0.2668121,0.4275757,0.8664516
0.2643518,0.4274746,0.8664709
0.2650526,0.4282407,0.8675272
0.2662405,0.4275875,0.8669841
0.2666863,0.4276041,0.8611557
0.2689541,0.4281406,0.8601922
0.2706531,0.4272873,0.8628848
0.2724918,0.4269919,0.862292
0.2747042,0.4258727,0.862903
0.273521,0.4233609,0.863362
0.2730373,0.4190476,0.8638999
0.2742446,0.4157436,0.8644418
0.2733094,0.4209642,0.8638024
0.2735079,0.4260529,0.866868
0.2732523,0.4232761,0.8695337
0.2693036,0.4231297,0.8706451
0.2653995,0.4267991,0.8728766
0.2643046,0.4292726,0.8723685
0.2657182,0.4314176,0.8707001
0.2660678,0.430678,0.8696259
0.2673827,0.4285547,0.8683049
0.2709103,0.4279666,0.8678916
0.2710638,0.4275183,0.8689817
0.2731339,0.4293455,0.8690159
0.2775062,0.4301343,0.8648629
0.2763693,0.4282277,0.8610417
0.2741927,0.4295977,0.8621047
0.271644,0.4304752,0.8636131
0.2680492,0.430139,0.8631198
0.2693432,0.4306697,0.8648219
0.2712521,0.4275055,0.8660624
0.2710118,0.4261714,0.863793
0.2736673,0.4301043,0.863642
0.275259,0.4331368,0.8638047
0.2712336,0.4327486,0.8614534
0.2673102,0.4331118,0.8590461
0.2686314,0.4375711,0.8586723
0.2715285,0.438476,0.864761
0.2719668,0.4366269,0.8694737
0.2730999,0.4374179,0.8637871
0.2739673,0.4347911,0.8586633
0.2714888,0.4324205,0.8606883
0.2702343,0.4343082,0.8592199
0.2712459,0.435436,0.8533135
0.2729158,0.4356157,0.8540727
0.2754003,0.4355199,0.8580999
0.2767882,0.4336395,0.8604661
0.2761909,0.4300106,0.8632912
0.2731983,0.4298229,0.8632083
0.2701149,0.431455,0.8629085
0.2696665,0.4304379,0.8626775
0.2718054,0.4322836,0.8608403
0.2747525,0.4346413,0.8613544
0.2741256,0.4352156,0.8606757
0.2735859,0.4381713,0.8590701
0.2755571,0.4394219,0.8575569
0.2732727,0.4396394,0.8546268
0.2712448,0.4421963,0.8542796
0.2736999,0.4419027,0.852586
0.2748916,0.4381847,0.8456861
0.2751033,0.436664,0.8419915
0.2749483,0.4365225,0.8500672
0.2738832,0.4349988,0.8588006
0.2735074,0.434375,0.8581575
0.273102,0.4347425,0.8610704
0.2723216,0.4348378,0.8631972
0.2722771,0.4343342,0.8598122
0.274671,0.4326459,0.8642456
0.2760954,0.4306791,0.8663349
0.2738368,0.4299517,0.8616844
0.2720457,0.4312106,0.8606191
0.2696509,0.4324777,0.8608062
0.2684845,0.4340436,0.8613486
0.2711309,0.4365709,0.8593285
0.2708898,0.4377561,0.8543574
0.2695278,0.4379423,0.8510054
0.2703275,0.4371918,0.8514589
0.2725894,0.4373181,0.8576157
0.276389,0.4379983,0.8613083
0.2751205,0.4363393,0.8595469
0.2720375,0.4337032,0.8584001
0.2734036,0.4291057,0.8577901
0.2763495,0.426883,0.8572485
0.2799901,0.4288763,0.8577817
0.2770536,0.4292628,0.8613284
0.2704754,0.4308858,0.8632477
0.2704447,0.431299,0.8617461
0.2694676,0.429605,0.8632149
0.2688763,0.4310594,0.8644807
0.2722004,0.4310134,0.8645594
0.2723351,0.431488,0.8624875
0.2725998,0.4322945,0.8584283
0.2743364,0.4277266,0.8623406
0.2760602,0.4248577,0.8667969
0.2774742,0.4250801,0.8653865
0.2767389,0.4249244,0.8677831
0.2776318,0.4260817,0.8700982
0.2765801,0.4266662,0.8667626
0.2736803,0.4263432,0.8643693
0.2747227,0.4263633,0.8670181
0.2725496,0.4267322,0.8680392
0.2685718,0.427876,0.8614562
0.2692302,0.4278698,0.8573532
0.2703729,0.4260728,0.8643402
0.2719498,0.425077,0.8705407
0.2741947,0.4233775,0.865485
0.2731752,0.4196768,0.8619928
0.2708928,0.420059,0.8675614
0.2698832,0.4224576,0.8687239
0.2657792,0.4219656,0.8647264
0.2621825,0.4239465,0.863277
0.265995,0.4240145,0.8644387
0.2706815,0.4197948,0.8689275
0.2728904,0.4191799,0.8711141
0.2730002,0.4194973,0.8666017
0.2705584,0.4208359,0.8623824
0.2689273,0.4241767,0.8655615
0.2667251,0.425041,0.8703887
0.2690837,0.4234879,0.8691159
0.2747036,0.4202892,0.8682744
0.2717453,0.4203411,0.868361
0.268639,0.4218114,0.8676756
0.2675593,0.4211024,0.8704496
0.2639368,0.4227097,0.8714419
0.2670387,0.4225259,0.8715633
0.2694538,0.421747,0.8726932
0.2662987,0.4236873,0.8720006
0.2665304,0.4236214,0.8723292
0.2668349,0.423651,0.8722105
0.2668385,0.4231515,0.8715684
0.2690359,0.4206929,0.8697824
0.2715519,0.4189283,0.8673127
0.2731286,0.4190793,0.8699102
0.2720041,0.421013,0.8731979
0.2717199,0.420922,0.8740745
0.2714455,0.4213051,0.8748025
0.2680875,0.4249491,0.8724608
0.2653378,0.4278551,0.8687474
0.2630719,0.4275618,0.8692896
0.262718,0.4245886,0.8719402
0.2678444,0.424725,0.8700894
0.274514,0.4265823,0.8607319
0.2757532,0.4259411,0.8511084
0.2707031,0.4257988,0.8558004
0.2671525,0.425217,0.8648545
0.2679375,0.4276442,0.8615355
0.2687331,0.4324362,0.8589986
0.2698852,0.431966,0.8592612
0.2722053,0.429847,0.8586069
0.2726592,0.4285867,0.8627553
0.2709562,0.4279674,0.8609916
0.2705143,0.428034,0.8579398
0.2710231,0.4280609,0.859063
0.2709201,0.4315444,0.85644
0.27176,0.4345784,0.8570064
0.2728743,0.4330481,0.8573475
0.2740383,0.4310494,0.8563385
0.2754457,0.430264,0.8586607
0.2753983,0.4309824,0.8582957
0.2755639,0.4335731,0.859304
0.276237,0.4365749,0.8599058
0.2739244,0.437548,0.8574785
0.2710253,0.4374737,0.8569712
0.2720932,0.4391586,0.8573622
0.2731061,0.4417876,0.8594077
0.2729228,0.4443786,0.8598939
0.2761339,0.445351,0.8591836
0.2790814,0.4437764,0.8587369
0.2793448,0.4405855,0.8574695
0.2793426,0.4371055,0.8598178
0.2785655,0.4359773,0.8589954
0.2776183,0.4370286,0.8522294
0.2768957,0.4400357,0.8460413
0.2777569,0.44304,0.8444598
0.2794013,0.4431355,0.8496059
0.2786061,0.4432037,0.8510886
0.2772432,0.4430179,0.8492286
0.2750088,0.4428164,0.8504775
0.2734097,0.4434541,0.8492291
0.2764584,0.4423791,0.8472852
0.2831325,0.4413354,0.8458491
0.2886657,0.4399395,0.8477391
0.2823959,0.4398793,0.8518709
0.2731471,0.4424656,0.8510242
0.2760749,0.4445924,0.8556548
0.2774113,0.4480658,0.8634374
0.2772406,0.4479308,0.8615919
0.2807855,0.4444921,0.8594687
0.2758674,0.4463879,0.8599206
0.2736331,0.4491177,0.8565596
0.2785158,0.4502438,0.8538336
0.2804594,0.4502286,0.8517244
0.2829873,0.447615,0.8459909
0.2825768,0.4466365,0.843658
0.2829282,0.4460527,0.8482157
0.2870866,0.4437461,0.8512755
0.2856304,0.442516,0.849268
0.2826421,0.4429038,0.8475126
0.2798223,0.4434425,0.8490282
0.2773844,0.442861,0.8489274
0.277112,0.4429421,0.8479728
0.2742534,0.4435277,0.8491302
0.2744163,0.444034,0.8491707
0.2769861,0.4466114,0.8519701
0.276421,0.4479587,0.8556739
0.2785746,0.4470226,0.8541955
0.2817567,0.4471234,0.8533707
0.282306,0.4473391,0.8535319
0.2820637,0.4471916,0.8513803
0.2814462,0.4468402,0.849943
0.2810498,0.4454506,0.8503518
0.2794741,0.4437521,0.8519347
0.2785285,0.4434473,0.8541777
0.2791742,0.4439821,0.855485
0.2773525,0.4434807,0.8573132
0.275482,0.4429947,0.8608431
0.2756997,0.4422187,0.8607698
0.2756765,0.4392943,0.860336
0.2758831,0.4358745,0.8638671
0.2769654,0.4360988,0.8640887
0.2801682,0.4385792,0.8649338
0.2861016,0.4373176,0.8661906
0.2896215,0.4359274,0.8565864
0.2846648,0.4369263,0.8483434
0.2776461,0.4374304,0.8538262
0.2784111,0.4393587,0.8590748
0.2792307,0.4385225,0.8557693
0.2756552,0.4362997,0.8526377
0.275245,0.4383782,0.8513253
0.2753809,0.4397875,0.8505245
0.2757028,0.4421212,0.8528936
0.279105,0.4437832,0.8519242
0.2805606,0.4398656,0.8486122
0.2808295,0.4379069,0.8499099
0.2814229,0.4388383,0.8544892
0.2812042,0.4373217,0.860629
0.2817028,0.4326587,0.8607516
0.2827371,0.4289659,0.8606384
0.2830038,0.4307938,0.8657662
0.2787533,0.4331541,0.8622007
0.2732997,0.4334644,0.8591274
0.272878,0.4347039,0.862202
0.2731339,0.4357389,0.8588117
0.2753161,0.4363661,0.853771
0.2802092,0.4364564,0.8509538
0.2794998,0.4366795,0.8543241
0.2763738,0.4379744,0.8613125
0.2767157,0.4376318,0.8599681
0.2784207,0.4365685,0.8589951
0.2814674,0.4351385,0.8614795
0.2827586,0.4324282,0.8609025
0.2805687,0.4325337,0.8612567
0.2802177,0.4323863,0.8611825
0.2807984,0.4295172,0.8608179
0.2802189,0.4295841,0.8632624
0.2797759,0.4277838,0.8697819
0.2786577,0.4232849,0.8772452
0.2776068,0.4248973,0.8733617
0.2751388,0.4268053,0.8667793
0.2722582,0.4247671,0.8699452
0.2730478,0.4241017,0.8688105
0.2743175,0.4242701,0.8638278
0.2749558,0.4277709,0.8642482
0.2755495,0.4320678,0.8653445
0.2746403,0.4287927,0.8673312
0.2754499,0.4253006,0.8664986
0.2780515,0.4263213,0.8611912
0.279086,0.4247712,0.8562612
0.2767798,0.4225612,0.8531922
0.2725835,0.422945,0.8593665
0.2721845,0.423517,0.8685861
0.2728398,0.425304,0.8705448
0.2715318,0.4269432,0.8713121
0.2724913,0.4246116,0.8710392
0.272463,0.4225694,0.8712719
0.2717004,0.4240198,0.8725161
0.2727056,0.4247936,0.8687417
0.2721805,0.4247193,0.8644101
0.2730203,0.424248,0.863067
0.2750873,0.4222302,0.8638825
0.2778289,0.4214642,0.864237
0.2810637,0.420372,0.8624846
0.2764951,0.417357,0.862414
0.2702265,0.4183897,0.8623751
0.271861,0.4238473,0.8614645
0.2721696,0.4264226,0.8612541
0.2688808,0.4247961,0.8623832
0.2692205,0.4252005,0.8661254
0.2700697,0.4290925,0.8667075
0.2701245,0.4311159,0.8639611
0.2725514,0.4288589,0.8648278
0.2744209,0.4258053,0.8662087
0.2757808,0.4260723,0.8643458
0.2780404,0.4269392,0.8626819
0.2789841,0.4260118,0.8619171
0.2770031,0.426442,0.8601501
0.2736944,0.4266047,0.8580986
0.2746655,0.4257116,0.8574795
0.2760533,0.4248575,0.8595592
0.2740149,0.4233343,0.8623926
0.2744293,0.4250963,0.8651178
0.2744715,0.4275474,0.866935
0.2736466,0.4267255,0.8659038
0.2737814,0.4287035,0.8656961
0.271252,0.431792,0.861395
0.270386,0.4306717,0.8553956
0.2715658,0.4302603,0.8588762
0.2729576,0.4327986,0.8597939
0.2746458,0.4338582,0.8582934
0.2735958,0.433265,0.8611971
0.2752324,0.4328866,0.8599517
0.2790186,0.4315779,0.8623861
0.2800509,0.4300555,0.8659651
0.2804935,0.4308297,0.8627673
0.2762528,0.433819,0.862437
0.2698169,0.4363005,0.8611847
0.2685375,0.4368896,0.8580132
0.2695107,0.4376687,0.8582722
0.2698151,0.4389788,0.8576471
0.2692026,0.4375493,0.8606743
0.2704137,0.4350013,0.8661941
0.2753158,0.4362489,0.8652195
0.2801571,0.4376735,0.865006
0.2818311,0.4366049,0.8671076
0.2833496,0.4351624,0.86385
0.287469,0.4324862,0.8596083
0.2864168,0.4327136,0.8558074
0.2815122,0.4343835,0.8543532
0.2803097,0.4330663,0.8570214
0.2780053,0.4356014,0.8533172
0.2768055,0.4398564,0.8513885
0.2758462,0.440704,0.8590935
0.2726678,0.4405669,0.8617504
0.2741567,0.4398173,0.861385
0.27474,0.4404241,0.8631861
0.274392,0.440891,0.8636982
0.2750192,0.441965,0.8621
0.2727774,0.4459477,0.8536438
0.2749146,0.447358,0.8475178
0.2780399,0.4473251,0.8507774
0.2794111,0.4476098,0.8523182
0.2813399,0.4445357,0.8492137
0.2784816,0.439538,0.8476105
0.2768683,0.4377926,0.849386
0.2777958,0.441343,0.8509105
0.2759217,0.4435408,0.8534417
0.2744801,0.4427966,0.8562948
0.2752665,0.4432693,0.8560497
0.2781285,0.4429716,0.8590435
0.278763,0.4429498,0.8617875
0.2738987,0.4438387,0.8575771
0.2689906,0.4454657,0.8539626
0.2703253,0.4473215,0.8560907
0.2733986,0.4427045,0.8613309
0.2725557,0.4363749,0.8677848
0.2748328,0.4369267,0.8718982
0.2797632,0.4380913,0.8636206
0.2825639,0.4362565,0.8503442
0.2828281,0.4359258,0.8483633
0.2782514,0.4377274,0.8505995
0.2751045,0.44041,0.8511018
0.2730843,0.4425644,0.8524885
0.2713115,0.4413031,0.8562147
0.2726171,0.4383927,0.8625783
0.2710531,0.4370981,0.8631891
0.2736092,0.4371445,0.8590444
0.2788279,0.4378802,0.8576511
0.2789699,0.4373236,0.8587276
0.2800179,0.4364594,0.8614496
0.2790873,0.4371077,0.8629028
0.2805095,0.4374749,0.8616481
0.2831632,0.4373889,0.8596334
0.2791969,0.4356549,0.8584422
0.2772408,0.4335972,0.8556452
0.2748526,0.4330589,0.8520942
0.2712344,0.4315851,0.8575885
0.2704252,0.431883,0.8669641
0.2688651,0.4346288,0.8686813
0.2697458,0.4367894,0.866943
0.2715453,0.4380288,0.8636562
0.2724571,0.4366234,0.8596969
0.2730207,0.434877,0.8604502
0.2734458,0.4337226,0.8612321
0.2761784,0.4313697,0.8592759
0.2770962,0.4323049,0.8612488
0.2777532,0.4344202,0.8630601
0.2794573,0.4328648,0.8585691
0.2783259,0.4320966,0.85556
0.2766222,0.4321942,0.8573541
0.2743704,0.4314914,0.8595668
0.2742815,0.4320156,0.8619376
0.2756376,0.4309687,0.8640778
0.2727436,0.429067,0.8642304
0.2716461,0.4296522,0.8635684
0.2734977,0.4323156,0.8634521
0.2737248,0.4368909,0.8618627
0.273787,0.4379828,0.8620742
0.2735893,0.4332792,0.8681546
0.2753939,0.4300063,0.8703351
0.279964,0.430892,0.8633381
0.283104,0.4318131,0.8570199
0.2816097,0.4302607,0.8541553
0.2757771,0.429839,0.8517741
0.2704838,0.4303153,0.8566888
0.2681428,0.4286002,0.8662336
0.2693545,0.429097,0.8685719
0.2701872,0.4306567,0.8701794
0.2677345,0.4303447,0.8710752
0.2685068,0.4308157,0.8655259
0.2714133,0.4305032,0.8645174
0.2743329,0.4303485,0.8618831
0.276344,0.4303504,0.8562479
0.2745181,0.4276077,0.8604823
0.275708,0.4256575,0.8632561
0.2773331,0.4261717,0.8632197
0.2756155,0.4267972,0.8633904
0.2756987,0.4262989,0.8596067
0.2748164,0.4257792,0.8625865
0.2744523,0.4249545,0.8664923
0.2739204,0.422862,0.8663463
0.2693911,0.423705,0.8675931
0.2667861,0.4260605,0.8649263
0.2674187,0.4262531,0.8612469
0.2690353,0.4256527,0.8573746
0.2718034,0.4232607,0.8568298
0.2747825,0.421316,0.8601955
0.276172,0.4218262,0.8575798
0.2773301,0.4260809,0.8581326
0.2800307,0.4330263,0.8613683
0.2796317,0.4327297,0.8605152
0.2783175,0.428263,0.8605873
0.279689,0.4265918,0.8546563
0.2787985,0.4240973,0.8502404
0.2765156,0.4247188,0.8577549
0.2735594,0.426879,0.8637197
0.2705762,0.4264957,0.8623472
0.2705755,0.4292765,0.8640341
0.2696241,0.4315448,0.8704025
0.2698907,0.4304397,0.8684193
0.2739468,0.4301966,0.8642357
0.2759074,0.4297373,0.8663104
0.2766011,0.4289652,0.8645398
0.2769659,0.4291542,0.8633531
0.2778278,0.4304281,0.8610203
0.2836522,0.4319311,0.8551823
0.2870959,0.4330006,0.8542673
0.2811868,0.4337432,0.8513293
0.2737911,0.4337589,0.8532187
0.2714475,0.4358812,0.8617243
0.2708224,0.4383637,0.8613807
0.2700522,0.4365573,0.8588021
0.2707418,0.4344131,0.8581824
0.2710429,0.4346695,0.8577638
0.2727131,0.4350235,0.8588481
0.2758483,0.4356848,0.8571268
0.2766009,0.437326,0.8566716
0.2780327,0.4377306,0.858209
0.2801178,0.4364193,0.8583285
0.2825602,0.4360057,0.8586093
0.2845237,0.436987,0.8582777
0.2817353,0.4377172,0.8592096
0.2777922,0.4366637,0.8591784
0.2737607,0.4355664,0.8541355
0.2728555,0.4364044,0.8506772
0.274793,0.4371613,0.8552651
0.2717624,0.4379259,0.860855
0.2707855,0.4398741,0.8585474
0.2716044,0.4423809,0.8578172
0.2709951,0.4435147,0.8609418
0.2742033,0.440994,0.8568885
0.2748504,0.4382844,0.8514919
0.274667,0.4379183,0.8477919
0.2757236,0.437358,0.8458287
0.2747108,0.4371337,0.8502756
0.2770293,0.4368601,0.8529809
0.2785293,0.4358805,0.8540169
0.27751,0.4368825,0.8553665
0.2778647,0.4380876,0.8538004
0.2776667,0.4373881,0.8575555
0.2771857,0.4373192,0.862715
0.2738173,0.4377148,0.8603468
0.2692267,0.4379298,0.8548813
0.2687015,0.4399816,0.8516739
0.2701778,0.4416803,0.8519604
0.2726353,0.4402386,0.8521923
0.2786512,0.439587,0.8564631
0.2834207,0.4408084,0.8612062
0.2773065,0.4402488,0.8563414
0.2692681,0.4402989,0.8530934
0.2697073,0.4426327,0.8521646
0.2697316,0.4442898,0.8525508
0.2688648,0.4438119,0.8596744
0.2695812,0.4389972,0.8590988
0.2678116,0.4345776,0.8568022
0.2681786,0.4381308,0.8597198
0.2718111,0.4431686,0.8570877
0.2734969,0.4434362,0.8552032
0.2737606,0.4429243,0.8522472
0.2755836,0.4427195,0.8499936
0.277617,0.4406898,0.8548209
0.2785746,0.4371156,0.857225
0.2792508,0.4355874,0.8583232
0.2765259,0.4388498,0.856131
0.2733051,0.4415939,0.8514045
0.2734429,0.4399584,0.8539524
0.2718778,0.4390712,0.8585929
0.2706668,0.4399961,0.861312
0.2714215,0.4406135,0.857509
0.2715285,0.4422827,0.8506463
0.2734537,0.4435119,0.8534863
0.2742247,0.4427853,0.8562727
0.2738799,0.4405485,0.8557812
0.2773366,0.4370797,0.8597646
0.2803288,0.4357304,0.8604149
0.2792422,0.4387578,0.8583459
0.2770767,0.4411955,0.8569657
0.2751302,0.4381392,0.8543178
0.2726939,0.4345189,0.8555405
0.2721846,0.434531,0.8563889
0.2728052,0.4349459,0.8546736
0.2718761,0.4357917,0.8561533
0.2731305,0.4373528,0.8573059
0.2743304,0.4377382,0.8602902
0.2727932,0.4373482,0.86317
0.2719703,0.4362796,0.8570278
0.2720056,0.4350298,0.8518206
0.2791031,0.434749,0.8551052
0.2900823,0.4364684,0.8595859
0.2887314,0.4386509,0.8608971
0.2781364,0.4392879,0.8571729
0.2709055,0.4404514,0.8522357
0.270624,0.4408157,0.8536405
0.2717123,0.4393952,0.8559882
0.2686625,0.4386239,0.8549996
0.2689572,0.4371806,0.8579633
0.2724782,0.4364008,0.8606255
0.2720843,0.4354871,0.8606062
0.2728305,0.4322615,0.8621633
0.2753423,0.4328012,0.8600758
0.2775722,0.4343958,0.8580181
0.2788655,0.4326488,0.8576281
0.2774245,0.4333489,0.8583977
0.2794824,0.4334404,0.8629454
0.2817564,0.4309745,0.8609979
0.2796554,0.4305616,0.8579262
0.2784546,0.4313657,0.8595214
0.2749403,0.4331233,0.8592469
0.2703658,0.4329558,0.8619041
0.269037,0.4311989,0.8620048
0.2704217,0.4322705,0.860692
0.2744442,0.4330404,0.8637744
0.2756959,0.4331364,0.8621608
0.2748235,0.4322462,0.860995
0.2750194,0.4286554,0.8616734
0.2752467,0.4276923,0.8603703
0.277142,0.4313366,0.8606669
0.2792889,0.4343697,0.8575695
0.2804905,0.4316627,0.8566907
0.2805417,0.4277955,0.862803
0.2789845,0.4275563,0.8660164
0.2760106,0.4261328,0.8656878
0.2721636,0.4257258,0.8643377
0.2715875,0.4271755,0.8642182
0.2729922,0.4265582,0.8664192
0.2738856,0.428926,0.8654245
0.2753438,0.4318099,0.8651149
0.2740225,0.4304401,0.867015
0.2709004,0.4301616,0.8641704
0.2695501,0.4305379,0.8619771
0.2707895,0.4279584,0.8613367
0.2775232,0.423585,0.8598389
0.2836277,0.4211989,0.8599564
0.2779559,0.4234206,0.8541344
0.2700215,0.4262646,0.8506879
0.2721033,0.4266134,0.8608049
0.2731701,0.4264179,0.8685509
0.2702378,0.4259741,0.8655712
0.2710638,0.4247368,0.8622277
0.2708787,0.4240703,0.862826
0.270486,0.4251518,0.8608333
0.2713348,0.4269526,0.8602889
0.2705963,0.4290057,0.8642945
0.2727675,0.4308619,0.8641513
0.2771136,0.428156,0.8655356
0.2799329,0.4231132,0.8674234
0.2780774,0.4212987,0.8642779
0.2744876,0.4193607,0.863409
0.27551,0.4203699,0.8626229
0.2736056,0.4249738,0.8614889
0.2706267,0.4244412,0.8611439
0.2726769,0.4236424,0.8626202
0.2715261,0.4242277,0.8688059
0.270001,0.4237261,0.8705465
0.2712535,0.4284194,0.8626415
0.2712863,0.4321593,0.8525089
0.2734343,0.4306838,0.8529688
0.2759417,0.4309762,0.8597233
0.2753809,0.4324452,0.8609497
0.275723,0.4320072,0.862349
0.2785096,0.4305901,0.8620528
0.2790801,0.429964,0.861852
0.2769951,0.428283,0.8625381
0.2765435,0.4270055,0.8573164
0.2756425,0.4289297,0.8581294
0.2743087,0.4292311,0.8596609
0.2751957,0.4295015,0.8583983
0.2749968,0.4314137,0.8649062
0.2738305,0.4305021,0.8671129
0.2735286,0.4299309,0.8666777
0.2739914,0.4301322,0.8680942
0.2764414,0.4301132,0.8673138
0.2785875,0.4361229,0.86744
0.2778069,0.4429064,0.8631275
0.2764003,0.440632,0.8598597
0.2770537,0.4375889,0.8588503
0.2801541,0.4381845,0.8554722
0.2838572,0.4345166,0.8568671
0.2827245,0.4324108,0.8584453
0.2753739,0.4374566,0.8576178
0.270956,0.4429079,0.8559838
0.2752908,0.4454009,0.8553037
0.2798164,0.4421975,0.857143
0.2765146,0.4366126,0.85513
0.2731096,0.4356711,0.8559835
0.2744297,0.4372733,0.8620739
0.2750878,0.4397837,0.8664054
0.2773027,0.4409817,0.8678523
0.279857,0.4406812,0.8602854
0.2803247,0.4438816,0.850553
0.2814306,0.4459459,0.8500003
0.2799126,0.4407619,0.8527083
0.2793222,0.4351858,0.8532219
0.2797442,0.437128,0.8540736
0.2775403,0.4393604,0.8549884
0.2761439,0.4381955,0.8537436
0.2726405,0.4409141,0.8549848
0.272361,0.4411748,0.8564423
0.2741486,0.4393302,0.8556561
0.2701147,0.4428637,0.8593491
0.2714494,0.4436028,0.8610897
0.2772579,0.4428541,0.8549114
0.281037,0.4442921,0.8490904
0.2828607,0.4441997,0.8505268
0.2810151,0.4438815,0.8522535
0.2821602,0.4431127,0.8477488
0.2825551,0.4454976,0.8451028
0.2807817,0.4484675,0.8419999
0.2811167,0.4459322,0.8398246
0.2764888,0.4439037,0.8446302
0.2736328,0.4430753,0.845857
0.2763366,0.4427819,0.8477029
0.2767548,0.4449115,0.8513448
0.2763924,0.4446322,0.8507349
0.2759878,0.4416968,0.8520935
0.2758012,0.4398547,0.850699
0.2759249,0.440334,0.8504133
0.2771236,0.4429554,0.8523912
0.2787128,0.4437795,0.8481023
0.2782677,0.441249,0.847648
0.2820677,0.4395332,0.84828
0.2858561,0.4387062,0.8445528
0.2803115,0.4385762,0.8452933
0.2728384,0.4403253,0.8512399
0.2714779,0.4403991,0.858899
0.2751998,0.4402824,0.8593614
0.2771888,0.4416234,0.8543045
0.2745101,0.4423598,0.8544777
0.2726484,0.4425365,0.8581074
0.2737181,0.4404353,0.862266
0.274201,0.4395709,0.8616763
0.2740868,0.4408193,0.8573666
0.2759464,0.4398927,0.8580878
0.2779427,0.4391336,0.8591266
0.2794751,0.437949,0.8581827
0.2798576,0.4366868,0.8573624
0.2782907,0.4365427,0.8539906
0.2784025,0.4340768,0.8528141
0.2777346,0.4325045,0.8535776
0.2761871,0.4338709,0.8524191
0.2767399,0.4360236,0.8550905
0.2757566,0.4400292,0.8597309
0.2745215,0.4428426,0.8611577
0.2736478,0.4406882,0.860063
0.2738108,0.4385481,0.8572059
0.276347,0.4397783,0.8579505
0.2766879,0.4389999,0.8594418
0.2777745,0.4349106,0.8574556
0.2786931,0.4327536,0.858858
0.277073,0.4357004,0.8602432
0.2791335,0.4385746,0.8591209
0.2806651,0.4345348,0.8586058
0.2797687,0.430301,0.8574943
0.278332,0.4294915,0.8585695
0.2752194,0.4274664,0.8576001
0.2759264,0.4293592,0.8551611
0.2763864,0.4333669,0.8573435
0.2733042,0.431675,0.859692
0.2715317,0.4286846,0.8619322
0.2693102,0.4277419,0.8616307
0.2711989,0.4268497,0.8600662
0.275742,0.4260527,0.8620385
0.2743718,0.4262938,0.863143
0.2752356,0.4266658,0.8685992
0.2805469,0.4254863,0.8727372
0.2817643,0.4228092,0.8615182
0.2779702,0.4198996,0.8522141
0.2727581,0.4205682,0.8605042
0.272233,0.423581,0.868404
0.2715041,0.4237308,0.8659967
0.267577,0.4235774,0.8693285
0.2696832,0.4237869,0.8731635
0.2704392,0.4234758,0.8672099
0.2685195,0.4249544,0.865226
0.2720443,0.4260979,0.8638751
0.2728864,0.426426,0.8608794
0.2727816,0.4256915,0.8632731
0.2746033,0.4241663,0.8625758
0.275083,0.4242776,0.8615656
0.2770514,0.4226299,0.8610539
0.2764623,0.4187294,0.8568608
0.274888,0.4161313,0.8563999
0.2748781,0.4187482,0.8572507
0.2728748,0.4263536,0.857728
0.2716839,0.4286134,0.8620402
0.2711853,0.4239812,0.8679623
0.2707203,0.4211901,0.8708141
0.2709962,0.4239028,0.8707069
0.2716457,0.427398,0.8727132
0.2726792,0.4259132,0.8718318
0.2721704,0.4241828,0.8651748
0.2720328,0.4236734,0.8592495
0.2726434,0.4229142,0.8566382
0.2729307,0.4250919,0.8586885
0.2739692,0.4280286,0.8591161
0.2739082,0.431295,0.8576459
0.2742146,0.4308185,0.861626
0.2754881,0.4273933,0.8661661
0.2750443,0.4293279,0.8691034
0.2747395,0.4280198,0.8679467
0.2751949,0.4247506,0.8622767
0.2749676,0.4275712,0.8604653
0.2752716,0.4292113,0.8611194
0.2765384,0.4310482,0.8631646
0.2764774,0.4322997,0.8647525
0.2746567,0.4314034,0.8632429
0.2740734,0.4335709,0.8633158
0.2741235,0.4343041,0.8632257
0.2733817,0.4337597,0.8637607
0.2755518,0.4331947,0.86352
0.2792489,0.4309143,0.8576981
0.2818167,0.4297413,0.8534379
0.283483,0.4267944,0.8550675
0.2778651,0.4255253,0.8613378
0.2707223,0.433626,0.8686068
0.2728137,0.4439364,0.871277
0.2761099,0.4440937,0.8634869
0.2808059,0.4369747,0.846148
0.2896126,0.4359419,0.8375301
0.2867669,0.4413118,0.8415541
0.2677837,0.447816,0.8419472
0.2527612,0.4518132,0.8373027
0.2603229,0.4501499,0.8366034
0.2781336,0.4481046,0.839226
0.2839917,0.4472034,0.8426943
0.2794499,0.4466198,0.8516823
0.2731673,0.444878,0.859068
0.2739774,0.4419008,0.855589
0.2830058,0.4441774,0.8440758
0.2877006,0.4471484,0.833006
0.2859831,0.4499587,0.8403915
0.2837601,0.454503,0.8511754
0.2865464,0.4543327,0.8427179
0.2903147,0.457982,0.8416694
0.1299811,-0.4654346,0.8848841
0.130283,-0.4673375,0.8799336
0.1315726,-0.4693221,0.8704075
0.130492,-0.4691848,0.8735808
0.1332427,-0.4680104,0.8713105
0.1333175,-0.468393,0.8683321
0.1324154,-0.4696123,0.8779261
0.1278585,-0.4727421,0.8828454
0.116819,-0.474353,0.8817021
0.1126355,-0.4688416,0.880172
0.1194282,-0.4629391,0.8767037
0.1314293,-0.4617492,0.8704559
0.1356147,-0.4623753,0.8694224
0.1299231,-0.4629855,0.8759694
0.1248512,-0.4618881,0.8794704
0.120684,-0.4603777,0.8839287
0.1192613,-0.4583325,0.8865457
0.1170227,-0.4556837,0.8833666
0.1094993,-0.4554664,0.8840807
0.1068407,-0.4554671,0.8833104
0.1109183,-0.4554934,0.8808997
0.1139494,-0.4558478,0.8795006
0.114234,-0.4552012,0.8768639
0.1147763,-0.4561139,0.8784406
0.1148511,-0.4575772,0.8770233
0.1116873,-0.4595028,0.8746468
0.1080671,-0.4603679,0.8794738
0.106598,-0.457914,0.8827004
0.1057741,-0.4559789,0.8861567
0.1059216,-0.4534239,0.887264
0.1082997,-0.4517998,0.8819534
0.1073847,-0.4528493,0.8818298
0.1018387,-0.4510424,0.884091
0.09790797,-0.4495509,0.8848122
0.09641167,-0.4518361,0.8854675
0.09813755,-0.4535696,0.883753
0.09972847,-0.4535605,0.8833437
0.09888885,-0.4556995,0.8795458
0.1011189,-0.4592497,0.8740472
0.1039249,-0.4584998,0.8754244
0.1060166,-0.4571175,0.8782846
0.106307,-0.4566689,0.8820933
0.1036346,-0.4541232,0.8857164
0.1034937,-0.453825,0.8862645
0.1009182,-0.4529687,0.886369
0.09732834,-0.4516915,0.8839216
0.1011942,-0.4533207,0.8799702
0.106631,-0.4508585,0.8768779
0.1104245,-0.4487191,0.8785552
0.111939,-0.4495183,0.8850084
0.1099721,-0.44691,0.8888879
0.1091975,-0.4449914,0.8902171
0.1092056,-0.4445674,0.885431
0.1062314,-0.446193,0.8796853
0.1029212,-0.4501072,0.8848007
0.1041709,-0.451334,0.8879431
0.10683,-0.4547683,0.8840002
0.1069614,-0.4610555,0.8825614
0.1072885,-0.4613398,0.881552
0.1078312,-0.4551272,0.880704
0.108377,-0.4509278,0.8814221
0.1078549,-0.452696,0.8838291
0.1034679,-0.4536114,0.887347
0.100646,-0.4522099,0.8859079
0.1037621,-0.4528008,0.8811464
0.1074143,-0.4532662,0.8782641
0.1076069,-0.4535321,0.8774408
0.1086842,-0.4559908,0.8807401
0.1102615,-0.4581713,0.8841793
0.1088474,-0.458094,0.8833202
0.1114469,-0.4574526,0.8829171
0.1150561,-0.4578859,0.8826845
0.1134015,-0.4575207,0.8814865
0.1133206,-0.4555037,0.8814179
0.1116104,-0.45445,0.879432
0.1078282,-0.45254,0.8768215
0.1075189,-0.4514785,0.8784036
0.1069656,-0.452976,0.8830427
0.1081463,-0.4508998,0.8866715
0.108103,-0.4513514,0.8873166
0.1013495,-0.4561455,0.8882242
0.09745488,-0.4572072,0.8898423
0.1018803,-0.4574863,0.8847339
0.1061969,-0.4557308,0.8776377
0.1041651,-0.4519291,0.8807664
0.103246,-0.4485662,0.8849984
0.1062278,-0.4481271,0.8841384
0.1064481,-0.4551722,0.8848182
0.1067454,-0.4582151,0.8820166
0.1066317,-0.4548393,0.8787669
0.1046306,-0.4542954,0.8792706
0.1052329,-0.457349,0.8780167
0.1028512,-0.4615466,0.8808749
0.09825722,-0.4598066,0.8845843
0.09817374,-0.4585822,0.8806325
0.09919721,-0.4606987,0.877617
0.1007885,-0.4582426,0.8792167
0.1036335,-0.457273,0.87884
0.1050906,-0.4549904,0.8776368
0.1049909,-0.4505453,0.8824919
0.1052642,-0.4523167,0.8902276
0.1051745,-0.4553375,0.8917832
0.1040672,-0.4560093,0.8840929
0.1067092,-0.4556752,0.8748649
0.1096951,-0.4562441,0.8752546
0.1074394,-0.4569345,0.8776547
0.1041613,-0.4541977,0.8751202
0.1010395,-0.4514514,0.8764444
0.09961101,-0.4508185,0.8787369
0.1000699,-0.4500103,0.8776414
0.09711896,-0.450026,0.8784773
0.09206909,-0.4531471,0.8827441
0.08957601,-0.4560425,0.8878664
0.09253,-0.4553729,0.8885297
0.09639942,-0.453248,0.8865066
0.09550474,-0.4504639,0.8867636
0.09708763,-0.4496225,0.8854356
0.100156,-0.4520267,0.8820135
0.09854102,-0.4530623,0.8795773
0.09979097,-0.4510496,0.8791062
0.1017353,-0.4489383,0.8819851
0.09853672,-0.4492732,0.8839881
0.09498261,-0.4497159,0.8819469
0.09084356,-0.4497157,0.8810093
0.08783467,-0.4504816,0.8828486
0.08747152,-0.4494454,0.8835536
0.08612787,-0.4480214,0.8838219
0.08598732,-0.4476078,0.8861592
0.08632613,-0.4493458,0.8881336
0.085804,-0.4525695,0.8878682
0.08690502,-0.4505451,0.8857859
0.08890002,-0.4478735,0.8816314
0.09184122,-0.4486723,0.8778412
0.0923573,-0.4466935,0.8804608
0.0896394,-0.4452944,0.8879051
0.08844535,-0.4468694,0.8917043
0.08711827,-0.4475589,0.8923448
0.08665498,-0.4478545,0.89112
0.08643231,-0.4496278,0.8883347
0.0837675,-0.4518258,0.8870503
0.08409192,-0.4491083,0.8854652
0.08373527,-0.4453598,0.8857579
0.08039254,-0.4469254,0.8862167
0.08050443,-0.4477826,0.8854063
0.08084359,-0.4474666,0.8875796
0.08097098,-0.4477193,0.8870125
0.08242881,-0.4466332,0.8867945
0.08333454,-0.4473385,0.8907315
0.08583053,-0.4475921,0.8907493
0.08696386,-0.4465094,0.8873141
0.08711731,-0.4468709,0.8859783
0.08836066,-0.4464199,0.8882066
0.08703146,-0.4474956,0.88707
0.08691957,-0.4496856,0.8846342
0.08602283,-0.449589,0.8879006
0.08137575,-0.4484127,0.8905547
0.07970529,-0.4452631,0.893772
0.07931446,-0.4433267,0.8944686
0.08051302,-0.4441652,0.8908029
0.08275666,-0.4469282,0.8911099
0.07998741,-0.4511762,0.8883471
0.07891665,-0.4480125,0.8865533
0.08320789,-0.4432877,0.8887537
0.08698731,-0.4458373,0.8856488
0.08757533,-0.4458003,0.8858007
0.08723133,-0.4459341,0.8879192
0.08825103,-0.4483439,0.8897103
0.08646746,-0.4459049,0.8922678
0.08332614,-0.445392,0.8858676
0.08229568,-0.4472777,0.8813243
0.07916811,-0.4471571,0.8804123
0.0764985,-0.4474448,0.8772673
0.07837021,-0.4472609,0.8865238
0.0810361,-0.4478564,0.8976662
0.08227076,-0.4482439,0.895909
0.08198946,-0.4458871,0.8924092
0.0797983,-0.4426037,0.8911294
0.0794577,-0.4397703,0.8906657
0.08395388,-0.4422081,0.8886464
0.08843438,-0.4463559,0.8846814
0.08821841,-0.4443006,0.8856752
0.08646199,-0.4439014,0.8878994
0.08683333,-0.4471646,0.8889878
0.08605306,-0.4477241,0.8924218
0.08450691,-0.4494007,0.8907414
0.08506267,-0.4524059,0.8870074
0.08414095,-0.4530941,0.8891938
0.08278332,-0.4519932,0.8878809
0.08203693,-0.450734,0.882745
0.08213272,-0.4515135,0.8813701
0.08446235,-0.451148,0.8816111
0.08420124,-0.4475792,0.88237
0.08526117,-0.4431241,0.8826795
0.09004888,-0.4405487,0.8850785
0.09216693,-0.4435053,0.8891129
0.09074657,-0.4457642,0.8872875
0.0857337,-0.4438919,0.8848011
0.08311347,-0.4448735,0.884944
0.08341044,-0.4474988,0.8849569
0.08133174,-0.4490858,0.8887274
0.0816986,-0.448758,0.8924016
0.08244135,-0.4454664,0.8918043
0.08138826,-0.442295,0.8904248
0.08087051,-0.440646,0.8900201
0.07846788,-0.4417068,0.8909261
0.0767181,-0.4427304,0.8929519
0.07571681,-0.4425341,0.8955618
0.0728745,-0.444726,0.8966508
0.07150478,-0.4445219,0.8956033
0.0734395,-0.4427775,0.8905074
0.07570153,-0.4425491,0.882713
0.07761212,-0.4405359,0.8834097
0.08007568,-0.4399342,0.8871208
0.07950289,-0.4399428,0.8863436
0.0783784,-0.4436868,0.8926119
0.08006393,-0.4515669,0.8988297
0.08054146,-0.4505118,0.8961518
0.0803948,-0.4464809,0.8931708
0.07889073,-0.4457803,0.8891063
0.07609741,-0.4433152,0.8875249
0.07475733,-0.4432786,0.8900458
0.07284438,-0.4425611,0.889917
0.07328452,-0.4404491,0.8921824
0.07499691,-0.4408357,0.8951289
0.07561754,-0.4383815,0.8942952
0.07909595,-0.4364197,0.8944235
0.08023099,-0.4382413,0.8945381
0.0799172,-0.439769,0.8943078
0.08154436,-0.4423327,0.894058
0.08007942,-0.4440186,0.8916436
0.07992953,-0.4426079,0.8895207
0.07948256,-0.4419162,0.8899659
0.07618527,-0.4419324,0.8904814
0.07610732,-0.4422433,0.888093
0.07498389,-0.4433555,0.8860385
0.07434001,-0.4423079,0.8870869
0.07689177,-0.4413371,0.8888494
0.07724564,-0.4438429,0.8904093
0.07759104,-0.4462054,0.891856
0.07635754,-0.4467799,0.8945396
0.07391704,-0.4463077,0.8959515
0.07514349,-0.4445256,0.8913701
0.07573557,-0.4431042,0.8872648
0.07636015,-0.4428967,0.8895935
0.07820143,-0.4430821,0.8915127
0.07618484,-0.4427431,0.8897608
0.07410833,-0.4410461,0.8898347
0.07601873,-0.4388598,0.8899861
0.07742478,-0.4384,0.8879592
0.07787474,-0.4391923,0.8876516
0.07946655,-0.4389015,0.8858705
0.07817829,-0.4394045,0.883939
0.07420774,-0.4430266,0.8869785
0.07279834,-0.4472174,0.8899333
0.07271948,-0.4481743,0.8925304
0.07249513,-0.4463518,0.8946244
0.07422194,-0.4449507,0.8897764
0.0775732,-0.4423872,0.882749
0.08004886,-0.4392561,0.8828575
0.0819689,-0.4385565,0.8868732
0.08499404,-0.4371974,0.8880641
0.08581324,-0.4381691,0.8872375
0.08580841,-0.4444892,0.8858551
0.08793206,-0.4487723,0.8855806
0.08575655,-0.4478453,0.8857589
0.0814132,-0.4463629,0.8818644
0.08083334,-0.4483996,0.8802432
0.080062,-0.4494148,0.8871527
0.07858367,-0.4479192,0.8926603
0.0775473,-0.4489071,0.8900999
0.07750515,-0.4485731,0.8867442
0.07932946,-0.4472825,0.8851122
0.080576,-0.4474444,0.8824694
0.08247454,-0.446602,0.8846557
0.08451581,-0.4465948,0.8905184
0.08512779,-0.4460194,0.8911506
0.08768984,-0.4473018,0.8857979
0.09005367,-0.4507093,0.8795777
0.09015625,-0.4497317,0.8818187
0.08946971,-0.4478948,0.8868136
0.08752459,-0.4464612,0.8844254
0.08670937,-0.4440856,0.8837557
0.08587346,-0.4427955,0.8836685
0.08314207,-0.4435625,0.8814253
0.08282316,-0.4489034,0.8840992
0.08358244,-0.4532439,0.8855681
0.08230272,-0.4524631,0.8850054
0.08159268,-0.4523251,0.887326
0.08252174,-0.4533969,0.8867915
0.08561412,-0.453647,0.8824074
0.09132576,-0.4545181,0.8800527
0.09437332,-0.4563348,0.8795727
0.09123964,-0.4572223,0.8788772
0.08947605,-0.4570891,0.8799294
0.09340147,-0.4566651,0.8835335
0.09555755,-0.4559271,0.8892506
0.09424062,-0.4551583,0.8908849
0.09418703,-0.452805,0.8843668
0.09468264,-0.4488149,0.8799744
0.0943986,-0.4460306,0.8818804
0.09346366,-0.4469128,0.8826206
0.09007517,-0.4481342,0.8805295
0.08611345,-0.4469754,0.8806934
0.08744076,-0.4493281,0.8843469
0.09131727,-0.4528429,0.888858
0.0918973,-0.4529309,0.8917355
0.09179741,-0.4531309,0.8897038
0.09184619,-0.4536254,0.8866181
0.09227938,-0.455152,0.8846666
0.09351847,-0.4556617,0.8804016
0.09206609,-0.4550315,0.8765056
0.09110782,-0.4568399,0.8743095
0.09142294,-0.4566811,0.8775368
0.08835644,-0.4563566,0.8856804
0.08400809,-0.4571598,0.888892
0.08205756,-0.4539425,0.8878167
0.08265665,-0.4517755,0.8868348
0.08211147,-0.4527154,0.8875668
0.08145778,-0.4519452,0.8880538
0.08353619,-0.45007,0.8868086
0.08442418,-0.4494055,0.8876793
0.08479732,-0.4493312,0.8865813
0.08488081,-0.4483643,0.8844177
0.08321384,-0.4479794,0.8849416
0.08240827,-0.4472126,0.8847953
0.08179681,-0.4450813,0.8866446
0.08284984,-0.4450431,0.8872988
0.08492226,-0.4437672,0.8828774
0.08384874,-0.4411421,0.8811516
0.08027251,-0.4453206,0.8897818
0.07644042,-0.4509538,0.899627
0.07765012,-0.4503674,0.8939664
0.08169155,-0.449813,0.8854282
0.08190264,-0.4515632,0.8836756
0.08087835,-0.4509545,0.8792337
0.07850458,-0.4493263,0.8823624
0.07714092,-0.4495519,0.8902213
0.08036934,-0.4490178,0.8904911
0.08310177,-0.4479501,0.8904537
0.08452213,-0.449812,0.8892411
0.08405635,-0.4499254,0.8881836
0.08162913,-0.4457164,0.8893715
0.08014917,-0.4426994,0.887748
0.07662147,-0.4426089,0.8881903
0.07217059,-0.4443803,0.890048
0.06960136,-0.4446869,0.8922963
0.06800994,-0.4424293,0.8956884
0.07018924,-0.4394794,0.8946753
0.07382789,-0.436605,0.8937426
0.07368788,-0.4392547,0.8947235
0.07471952,-0.4436484,0.8933054
0.07775525,-0.4430555,0.891921
0.07632595,-0.4429833,0.8921491
0.07579988,-0.4432191,0.89196
0.07795301,-0.4427908,0.8888754
0.0763615,-0.4433355,0.8861138
0.07381584,-0.4428742,0.8871856
0.0703334,-0.4430729,0.8894054
0.06731284,-0.4433681,0.8928671
0.0679905,-0.4437375,0.8968938
0.06724441,-0.4447337,0.8970209
0.06660502,-0.4435518,0.8935359
0.06853291,-0.4427448,0.8907497
0.06999531,-0.4440455,0.8920788
0.07007996,-0.4446475,0.8940645
0.07069643,-0.4435613,0.8914851
0.07305055,-0.4425736,0.8891467
0.07255126,-0.4431225,0.8893123
0.07107613,-0.442877,0.8905261
0.07102871,-0.4410682,0.8940241
0.06876958,-0.4394817,0.8934781
0.06932441,-0.438277,0.8904875
0.07206961,-0.4374876,0.8919351
0.07167655,-0.4380455,0.8929425
0.06982093,-0.4396271,0.8926168
0.06712177,-0.4399296,0.8915393
0.06752863,-0.4402462,0.8903958
0.06870848,-0.4418383,0.8946094
0.06563671,-0.4423756,0.8988746
0.06471088,-0.4424371,0.89655
0.06572633,-0.4416513,0.8938267
0.06636663,-0.4410881,0.8928321
0.06960104,-0.4418437,0.8892454
0.073555,-0.4397616,0.8883429
0.07608585,-0.4380568,0.8899754
0.07526709,-0.439665,0.8881883
0.07311381,-0.4418041,0.8898333
0.07003898,-0.4446718,0.8949771
0.06408525,-0.444566,0.8971584
0.06401184,-0.4411859,0.8938501
0.06688568,-0.4396479,0.8875445
0.06507706,-0.440435,0.889017
0.0680413,-0.4421045,0.8904738
0.07285433,-0.4416807,0.8869686
0.0723322,-0.4392291,0.8882029
0.07215562,-0.4372775,0.8849902
0.07224004,-0.4358661,0.881999
0.07248283,-0.4365962,0.8878968
0.0742091,-0.4383988,0.8906382
0.0744304,-0.4385943,0.8924477
0.0708851,-0.4394496,0.8952827
0.06610635,-0.4401397,0.8947905
0.06651071,-0.438249,0.8935305
0.06647314,-0.437601,0.8916559
0.06218778,-0.4378669,0.8898869
0.06213664,-0.4369979,0.8903308
0.06293708,-0.4377024,0.8944623
0.06242467,-0.4380523,0.896797
0.06534258,-0.4388736,0.8947511
0.06925155,-0.4411942,0.8944148
0.07222265,-0.4399851,0.8965015
0.07200996,-0.4379702,0.8998178
0.07101435,-0.4377854,0.9006886
0.07001374,-0.4390442,0.8986664
0.06511575,-0.4420857,0.8957355
0.06414293,-0.4421299,0.8914515
0.06592518,-0.4412618,0.8908692
0.06305476,-0.4429127,0.8890102
0.06187044,-0.4439896,0.8841769
0.06265726,-0.4465759,0.8876966
0.06250496,-0.4497254,0.8962088
0.06293102,-0.4482451,0.9014204
0.06412541,-0.444318,0.8993509
0.06595717,-0.4422984,0.8942213
0.06584047,-0.4426084,0.896186
0.06705206,-0.442257,0.8959333
0.0716904,-0.4394883,0.8898523
0.07315732,-0.4382074,0.8869137
0.07143867,-0.4400601,0.883212
0.06936895,-0.4403675,0.8860562
0.06760639,-0.4382831,0.8940466
0.06877985,-0.4369823,0.8918036
0.07112474,-0.4376721,0.8921487
0.07032624,-0.4405656,0.8959437
0.06697004,-0.4451141,0.8926801
0.06439684,-0.4483185,0.8908768
0.06514381,-0.4458407,0.8873748
0.0678184,-0.44281,0.8849009
0.06852766,-0.4449167,0.8873728
0.06920061,-0.4449248,0.8857025
0.07181274,-0.4431268,0.8870327
0.07375905,-0.4423272,0.890471
0.07490901,-0.4393286,0.8899981
0.07545935,-0.4397159,0.8909713
0.07673834,-0.4405981,0.8909199
0.07789929,-0.4360348,0.8915089
0.07496368,-0.4340402,0.8911322
0.07179139,-0.4368262,0.8872066
0.07290222,-0.4401654,0.8862225
0.0752436,-0.4411481,0.8848559
0.07525311,-0.4405506,0.8830974
0.07469631,-0.4415013,0.8827888
0.07556821,-0.4422186,0.8830682
0.07671548,-0.4441094,0.8888095
0.07825589,-0.4469088,0.8946217
0.07868787,-0.4482688,0.8946768
0.08039474,-0.4507839,0.8906185
0.08577818,-0.4511457,0.8839877
0.08729849,-0.4518522,0.8785072
0.08533263,-0.4564653,0.8774378
0.08523092,-0.4558524,0.882469
0.08414518,-0.4522231,0.8865839
0.08172409,-0.4502113,0.8846485
0.08003759,-0.4474668,0.8845436
0.08067683,-0.4484117,0.8879553
0.08376844,-0.4494667,0.8889147
0.08521064,-0.4480551,0.8853931
0.08355858,-0.4497449,0.882073
0.08101532,-0.450497,0.8843505
0.08032197,-0.4494844,0.8874763
0.08300978,-0.4494742,0.8870463
0.08741389,-0.4495061,0.8876036
0.09192419,-0.4519381,0.8894347
0.09415988,-0.4537391,0.8880369
0.09286238,-0.4523514,0.8831885
0.09115189,-0.4518526,0.8792234
0.08889112,-0.452287,0.8808823
0.08511586,-0.4528068,0.8837009
0.08285236,-0.4532525,0.8829157
0.08176102,-0.4534517,0.8825354
0.08155525,-0.4546037,0.8794656
0.08366996,-0.4553401,0.874572
0.0855979,-0.4549052,0.8750774
0.08724466,-0.4529844,0.8753301
0.08859084,-0.4495549,0.8753687
0.08903817,-0.4492751,0.8776783
0.09165805,-0.4507778,0.8784003
0.092535,-0.4496904,0.8825054
0.09074644,-0.4494663,0.8863239
0.09067744,-0.448455,0.8846084
0.08768274,-0.4453989,0.8843194
0.08234144,-0.4458768,0.88551
0.07855111,-0.4479986,0.8873913
0.07663062,-0.4491086,0.8894793
0.07822328,-0.4497932,0.8877341
0.07908288,-0.4498701,0.8840819
0.0788657,-0.4502638,0.8827179
0.07964376,-0.4499292,0.8843191
0.0792615,-0.4498187,0.8855924
0.08086877,-0.4499321,0.8860299
0.08280549,-0.4478196,0.8865148
0.08182079,-0.4458239,0.8857294
0.08154395,-0.4454721,0.8847557
0.08144068,-0.4461161,0.8832641
0.08091968,-0.4469103,0.8830715
0.0810201,-0.4475831,0.886549
0.07920648,-0.4487416,0.8886054
0.0757882,-0.4478588,0.8882189
0.07414285,-0.4458811,0.8889852
0.07407758,-0.4462878,0.8891752
0.07377129,-0.4471336,0.8886021
0.07445664,-0.4470812,0.8890026
0.07720267,-0.4473341,0.8885785
0.08125939,-0.4473268,0.8869841
0.08448577,-0.4461096,0.8849621
0.08384838,-0.4428987,0.8822621
0.08242825,-0.4389549,0.8798916
0.08211025,-0.4402639,0.8811942
0.07555363,-0.4452958,0.8877034
0.06783103,-0.4471686,0.892932
0.06939938,-0.4477037,0.8923021
0.06816571,-0.446685,0.8904973
0.06189188,-0.4440378,0.8898815
0.06604357,-0.4428373,0.8878199
0.07065502,-0.441896,0.8868935
0.06740138,-0.4406906,0.8903548
0.06943853,-0.4373137,0.893633
0.07234753,-0.4366372,0.8949454
0.07077731,-0.4404776,0.8943511
0.07339634,-0.440386,0.8910856
0.07621202,-0.4410284,0.8897569
0.07406165,-0.4451079,0.8898298
0.06994029,-0.4476898,0.8882244
0.06499459,-0.4464389,0.8853626
0.06000777,-0.4425121,0.8837915
0.05473873,-0.4432956,0.886234
0.0531076,-0.4417081,0.8877053
0.05745805,-0.4362167,0.8885515
0.05955535,-0.4358993,0.8912015
0.05790765,-0.4344799,0.89124
0.05838017,-0.4349685,0.8908066
0.0595196,-0.4368867,0.8915545
0.05976858,-0.4327712,0.8934122
0.06063781,-0.4312903,0.8950251
0.06310245,-0.4331222,0.8929094
0.0656804,-0.4349407,0.8918311
0.06173322,-0.4373638,0.8917599
0.05492247,-0.4394114,0.8889687
0.0548668,-0.4417719,0.8894716
0.05619486,-0.4429844,0.8939135
0.05541367,-0.4455202,0.8952407
0.05651296,-0.4459695,0.8940594
0.05729676,-0.4418004,0.8936615
0.05691654,-0.4403714,0.8937218
0.05704561,-0.4394803,0.8946406
0.05802825,-0.4396951,0.8952678
0.05993061,-0.4413723,0.8967671
0.06215126,-0.439294,0.899609
0.06548686,-0.4379948,0.8971777
0.06954191,-0.4358103,0.8888995
0.07052356,-0.4330965,0.8831884
0.06464263,-0.4349497,0.8883009
0.05715606,-0.4363424,0.8985038
0.05634239,-0.4397207,0.8983757
0.05621653,-0.4433765,0.8894426
0.05434457,-0.4409938,0.8821581
0.05613669,-0.43888,0.8826411
0.05660116,-0.4357037,0.8894084
0.05847942,-0.4310021,0.8913115
0.06400648,-0.4313761,0.8899726
0.06365596,-0.4329589,0.8900989
0.06264668,-0.4337283,0.8881756
0.06451207,-0.4359642,0.8874186
0.06345566,-0.4370312,0.8887037
0.06216344,-0.4373245,0.8921097
0.06089066,-0.4408638,0.8951799
0.05918652,-0.4428727,0.8930577
0.05798047,-0.4395878,0.8881767
0.05783231,-0.4392739,0.8836249
0.05917527,-0.440403,0.8873307
0.05896743,-0.4381557,0.8931369
0.06026833,-0.438629,0.8902207
0.06324176,-0.4397304,0.8920071
0.06523734,-0.4392675,0.8965174
0.06798879,-0.4406845,0.8934684
0.06841708,-0.4407533,0.8908566
0.06879567,-0.4408242,0.8883846
0.07002937,-0.4431874,0.8862235
0.06895926,-0.4432142,0.88848
0.06828447,-0.4418629,0.8904859
0.06608262,-0.4422764,0.8922755
0.06439667,-0.445076,0.894187
0.06574718,-0.4484987,0.8942752
0.06640535,-0.4472646,0.8947853
0.0677108,-0.4444662,0.8939059
0.06851684,-0.4445114,0.8913866
0.06807528,-0.4442432,0.8899345
0.06891681,-0.4444325,0.8896886
0.06994293,-0.444725,0.8908369
0.07063697,-0.4440857,0.889759
0.0719156,-0.4446621,0.8874394
0.07434711,-0.4442903,0.8876983
0.07742079,-0.4431522,0.8887601
0.08006086,-0.4421722,0.8893112
0.07973667,-0.4414372,0.8865833
0.07771212,-0.4439629,0.8842714
0.0763739,-0.4471621,0.8855549
0.07173567,-0.4485427,0.8870815
0.06910461,-0.4489419,0.890026
0.07167541,-0.4485901,0.8902842
0.07146385,-0.4493403,0.8894892
0.07312283,-0.4498478,0.8908165
0.07765481,-0.4497198,0.8875684
0.07878693,-0.4494276,0.8838576
0.08154637,-0.4458466,0.8818392
0.0856828,-0.4436356,0.8802595
0.08666517,-0.4484103,0.8812991
0.08580127,-0.4526101,0.8825975
0.0840562,-0.4514117,0.8868441
0.08221406,-0.4503962,0.8903552
0.07925758,-0.4490935,0.8880966
0.07513908,-0.4462589,0.8853004
0.07397452,-0.4472038,0.88388
0.07548547,-0.4497777,0.8848152
0.07518626,-0.4500999,0.8852122
0.0745307,-0.4501703,0.8841245
0.07642493,-0.450275,0.8854257
0.08048335,-0.4516525,0.8867066
0.08601294,-0.4528481,0.8886446
0.08773137,-0.4492469,0.8897567
0.08595022,-0.4457251,0.8875767
0.08426367,-0.4471324,0.8852315
0.079098,-0.447953,0.8816309
0.07754476,-0.4467159,0.8810136
0.08091998,-0.4479437,0.8840632
0.08050425,-0.4511206,0.8841726
0.08171594,-0.453513,0.8847637
0.08083872,-0.4533754,0.8841656
0.07567726,-0.4520116,0.878753
0.07671941,-0.4526134,0.8756155
0.07981318,-0.4513873,0.8790228
0.08272382,-0.4488579,0.8849737
0.08443409,-0.4498262,0.8856302
0.08174623,-0.4486188,0.8839153
0.08234666,-0.4463338,0.8856818
0.08588785,-0.4482546,0.887366
0.08824609,-0.4497346,0.8894499
0.08766505,-0.4510877,0.8896072
0.08384545,-0.4535148,0.8873635
0.08272672,-0.4532234,0.8863593
0.08226417,-0.4521287,0.8826183
0.08053615,-0.4530012,0.8826699
0.07940294,-0.4530227,0.8880551
0.07773715,-0.4523523,0.8880193
0.07769023,-0.453074,0.8866226
0.07837512,-0.4527622,0.8862032
0.08030888,-0.4523705,0.8849237
0.08301052,-0.4522052,0.8862164
0.08202468,-0.4505134,0.8868331
0.0819641,-0.4493865,0.8859855
0.08518788,-0.4473145,0.8846785
0.0875455,-0.4456961,0.880114
0.08729217,-0.4473046,0.8777492
0.0856178,-0.4495115,0.8816852
0.08413502,-0.452015,0.886558
0.08085012,-0.451588,0.8899574
0.07825121,-0.4482105,0.8901574
0.0773201,-0.4481095,0.8896221
0.07359801,-0.4490849,0.8935224
0.07164508,-0.4484509,0.8942192
0.07436253,-0.4483498,0.8929253
0.07805973,-0.4478713,0.8962981
0.08123303,-0.4464971,0.8960593
0.08239217,-0.4447922,0.8939407
0.08234289,-0.4414944,0.8922562
0.08257155,-0.4394237,0.8870805
0.08354391,-0.4421582,0.8850818
0.08359708,-0.444506,0.8867252
0.08171015,-0.4441573,0.8893958
0.08029382,-0.4447323,0.8930212
0.07679216,-0.444506,0.8945696
0.07339386,-0.4442639,0.8939165
0.07420704,-0.4460769,0.8905238
0.07382206,-0.4473637,0.8871155
0.07291642,-0.4477343,0.8887041
0.07341142,-0.4469988,0.8943236
0.07351628,-0.4470892,0.8983711
0.07441266,-0.4488323,0.8981717
0.07390516,-0.4494205,0.8973644
0.0729186,-0.449637,0.8958337
0.0739694,-0.4461426,0.8924207
0.07304079,-0.4401176,0.8902373
0.06963093,-0.4396679,0.8907574
0.06713325,-0.4415589,0.8922546
0.06663806,-0.4419379,0.891404
0.0670712,-0.4418777,0.8885828
0.06660449,-0.4424971,0.8842124
0.06790115,-0.4446379,0.8809809
0.07146119,-0.4456259,0.8852903
0.07277253,-0.4455658,0.8896243
0.07258533,-0.444064,0.8884143
0.07283295,-0.4413451,0.8930179
0.07402015,-0.4413417,0.8985201
0.07477487,-0.442162,0.8902807
0.07361563,-0.4424301,0.8814538
0.07193049,-0.443493,0.8857617
0.06697485,-0.4441162,0.892108
0.06188967,-0.4442914,0.8961066
0.06184173,-0.4426906,0.8990279
0.06192391,-0.4372772,0.8967367
0.06088444,-0.433484,0.8966577
0.06101078,-0.4371064,0.8990509
0.062443,-0.4407307,0.896372
0.06370581,-0.4387611,0.8926268
0.06415524,-0.4390934,0.8891163
0.0651861,-0.4413419,0.8893473
0.06617684,-0.4400222,0.8917909
0.06728925,-0.4399339,0.8892716
0.06764429,-0.4407938,0.8893574
0.06790439,-0.4404509,0.8902126
0.06858471,-0.4430385,0.8887741
0.06694795,-0.4448856,0.8903794
0.06448249,-0.441821,0.8906817
0.06174495,-0.438888,0.8928736
0.06180668,-0.4390831,0.8960911
0.0645482,-0.4386196,0.8955384
0.06349605,-0.4380209,0.895668
0.06277855,-0.4419682,0.8934426
0.06259438,-0.4444523,0.8919508
0.06109156,-0.4420289,0.8930537
0.06281791,-0.4402208,0.8893691
0.06562613,-0.4384224,0.8861488
0.06957385,-0.4384619,0.887412
0.07234464,-0.44055,0.8877441
0.07107356,-0.4402158,0.8860901
0.06764752,-0.4402207,0.8878074
0.06107273,-0.4404879,0.8934933
0.05949293,-0.440355,0.8978159
0.06253361,-0.4422766,0.9000836
0.06198854,-0.4435464,0.8971686
0.06426025,-0.4428104,0.8915965
0.06650359,-0.441039,0.8940406
0.06530948,-0.439941,0.8986029
0.06844199,-0.4413094,0.8980928
0.07373363,-0.4430318,0.8962333
0.07719701,-0.4433379,0.8935137
0.07842605,-0.4427498,0.8938435
0.07755777,-0.442116,0.8953804
0.07668663,-0.4415243,0.892856
0.07586779,-0.441971,0.8932748
0.07454333,-0.4447951,0.8962098
0.07316515,-0.4474574,0.8975484
0.07317187,-0.4477021,0.8978969
0.07313734,-0.4470916,0.8965035
0.07174508,-0.4480396,0.897351
0.07204856,-0.449174,0.8968048
0.07263878,-0.4486448,0.8920451
0.0719269,-0.4493573,0.8894484
0.07226516,-0.450509,0.8896167
0.07237186,-0.4499195,0.8910474
0.07326585,-0.4495166,0.8895348
0.07861867,-0.4483376,0.8856854
0.08364514,-0.4462727,0.882316
0.08155501,-0.4455699,0.8786991
0.07750508,-0.445941,0.8793484
0.07673313,-0.4469924,0.881435
0.07461175,-0.4485904,0.8861179
0.07434428,-0.4496259,0.8945056
0.07792867,-0.4496799,0.8966005
0.07791091,-0.4497969,0.8964422
0.07776127,-0.4499025,0.8942686
0.07907231,-0.4480478,0.8883644
0.07946936,-0.4452041,0.8872102
0.08248694,-0.443769,0.8861995
0.08517163,-0.4433161,0.8853179
0.08689931,-0.4453861,0.88781
0.08749969,-0.4483052,0.8876215
0.08425758,-0.4464787,0.8868673
0.08045821,-0.4447906,0.8856825
0.07804207,-0.4465176,0.8819597
0.07829916,-0.4475027,0.8803772
0.07862971,-0.4507276,0.8807517
0.07743181,-0.4543068,0.8813648
0.07865037,-0.4528333,0.8825
0.08248016,-0.4520262,0.8828955
0.0869687,-0.4530097,0.8833664
0.08695404,-0.4508824,0.8836306
0.08540855,-0.4491958,0.8832492
0.08857748,-0.4503169,0.8842739
0.0906327,-0.4510875,0.8851322
0.09119582,-0.4516435,0.8846364
0.0920896,-0.4524647,0.8850021
0.09045212,-0.4528634,0.8865927
0.08609939,-0.4529388,0.8878324
0.08089597,-0.4528166,0.8866406
0.08128354,-0.4543746,0.8845366
0.08514631,-0.4581383,0.884551
0.08585798,-0.4607802,0.8848926
0.08718214,-0.4593022,0.8846078
0.08812002,-0.4557908,0.8844247
0.0876035,-0.4552372,0.8832856
0.09032362,-0.457199,0.8829705
0.09294374,-0.4579287,0.8842202
0.09335533,-0.4579276,0.8829223
0.09390256,-0.4582055,0.8778109
0.09403742,-0.4561405,0.8707706
0.09433803,-0.4542873,0.8664333
0.09436414,-0.4563232,0.8710965
0.09256622,-0.4572869,0.8787326
0.09082736,-0.4591329,0.8819707
0.09000861,-0.4618188,0.8851197
0.08642535,-0.4563376,0.8856068
0.08146548,-0.4513365,0.8836927
0.08159272,-0.4538957,0.8852315
0.08507601,-0.4559507,0.8852185
0.08916667,-0.4567355,0.8859554
0.09414447,-0.4579963,0.889012
0.09514853,-0.4585613,0.889122
0.0918188,-0.4574185,0.8897241
0.08907601,-0.4564121,0.8873855
0.08753055,-0.4576774,0.8834403
0.08683698,-0.4596609,0.887289
0.08589054,-0.4614479,0.8906604
0.08416299,-0.4594212,0.8873862
0.08443153,-0.4549081,0.883066
0.08505322,-0.4533965,0.8813088
0.08355915,-0.4525218,0.888548
0.08299937,-0.4524135,0.8981636
0.08347507,-0.4532705,0.8939456
0.08383494,-0.4528928,0.8883678
0.08619874,-0.454125,0.8914995
0.08921369,-0.4545834,0.8893962
0.08892573,-0.4521828,0.8858889
0.08502183,-0.4522743,0.8842998
0.08037759,-0.4534378,0.8807021
0.07766337,-0.4525067,0.8816926
0.07725963,-0.4526303,0.8847273
0.07653713,-0.4531058,0.8881776
0.07567999,-0.4525195,0.8871432
0.07680447,-0.4528411,0.883289
0.07655536,-0.4527153,0.8908021
0.07586318,-0.4511551,0.895212
0.07670515,-0.4485963,0.8893166
0.07530685,-0.4467751,0.8843775
0.07456149,-0.449737,0.880229
0.07545255,-0.4528485,0.8823567
0.07589627,-0.4510593,0.8866834
0.07766608,-0.449759,0.8876233
0.0781385,-0.4492083,0.8882933
0.07758039,-0.4473079,0.8868191
0.07732178,-0.4480023,0.887336
0.07468321,-0.4500387,0.8871635
0.07106892,-0.4498695,0.8849455
0.06992915,-0.4481583,0.8850621
0.07086509,-0.4462551,0.8824296
0.06924177,-0.4450938,0.8822963
0.06759645,-0.4434491,0.8879597
0.0712492,-0.4422788,0.8905907
0.07547856,-0.4433672,0.8910412
0.07732334,-0.4428994,0.8919335
0.07790973,-0.4408499,0.8906929
0.07679276,-0.4400666,0.8887532
0.07471587,-0.4399686,0.8889542
0.07230873,-0.4409187,0.890589
0.06885347,-0.4421045,0.8940212
0.06522543,-0.4438306,0.8964435
0.06453167,-0.4462917,0.8923769
0.06474658,-0.4474461,0.8895505
0.06351853,-0.4476932,0.8957355
0.06409244,-0.4467279,0.9008121
0.06633225,-0.446138,0.8970139
0.06862685,-0.4462493,0.8920721
0.06934364,-0.4461686,0.8904832
0.06764665,-0.4474737,0.8896272
0.06765385,-0.4453111,0.8901014
0.06824485,-0.4412604,0.8885064
0.06565179,-0.4406267,0.8846022
0.06268001,-0.4399563,0.8855872
0.06076222,-0.4402327,0.8911716
0.05900219,-0.4407759,0.8962592
0.05799711,-0.4409681,0.8953258
0.05809818,-0.4430964,0.8928128
0.05881992,-0.4433737,0.8951149
0.05916802,-0.4424719,0.8938314
0.06015916,-0.4410367,0.8918437
0.06188452,-0.4378594,0.8938646
0.0626695,-0.4368112,0.8928376
0.06262716,-0.4380217,0.8929685
0.0612098,-0.4394802,0.8944607
0.06000807,-0.440609,0.8936804
0.06074934,-0.4405389,0.8921731
0.06207334,-0.4401608,0.8892253
0.0625444,-0.4411922,0.8898509
0.05971854,-0.4419761,0.8912676
0.05684837,-0.4404505,0.8900899
0.05646969,-0.4390189,0.8939961
0.05464575,-0.4388633,0.9000477
0.05428125,-0.4399035,0.9020488
0.05621576,-0.4416441,0.8984749
0.05572448,-0.4420616,0.8924817
0.05509432,-0.442489,0.8906811
0.05621188,-0.4429637,0.8910122
0.05752555,-0.4413618,0.8943303
0.05991854,-0.439587,0.8991364
0.06222819,-0.4402671,0.8971077
0.062621,-0.4416733,0.8939574
0.0624898,-0.4416327,0.8929591
0.06099192,-0.4417272,0.8907397
0.0578238,-0.4419204,0.8922363
0.05540349,-0.4423549,0.8959418
0.054965,-0.4435361,0.8967998
0.05687545,-0.4430748,0.8933927
0.06005331,-0.4427755,0.8882749
0.06385592,-0.4431617,0.889943
0.06523803,-0.4414728,0.8927248
0.06490215,-0.4387179,0.8908056
0.06776372,-0.4368525,0.8919137
0.06826813,-0.4386806,0.8921096
0.06562581,-0.4428342,0.89052
0.06424663,-0.4453595,0.8905535
0.06312716,-0.4463035,0.8884519
0.06421697,-0.4449271,0.8905995
0.06343932,-0.4441203,0.8949231
0.05970699,-0.446539,0.8932232
0.05800589,-0.4478099,0.8882255
0.05886814,-0.446866,0.8831775
0.06252243,-0.4452419,0.8855948
0.06347096,-0.4439664,0.8894368
0.06403038,-0.4441612,0.8849226
0.06810095,-0.4437973,0.8834498
0.06854346,-0.4430339,0.8846615
0.06782944,-0.444683,0.8826668
0.0679609,-0.4465088,0.883266
0.06683957,-0.4444692,0.8837256
0.06573601,-0.4409975,0.8829532
0.06503524,-0.4410083,0.8846185
0.06742393,-0.446324,0.8890144
0.07006562,-0.4522527,0.8950032
0.07132587,-0.4506855,0.8955898
0.07280829,-0.4477716,0.8918552
0.07243866,-0.4480084,0.8903795
0.07284947,-0.4433153,0.8883993
0.07390736,-0.4413551,0.8881263
0.07275264,-0.4454528,0.8896774
0.07174106,-0.4480253,0.8875771
0.07275751,-0.4526264,0.8869787
0.07588178,-0.4520681,0.8892494
0.0805396,-0.4458953,0.8934034
0.08270331,-0.4458637,0.8989099
0.07793661,-0.4467924,0.895918
0.07260398,-0.4481782,0.8907578
0.07174132,-0.4501548,0.8938901
0.06873654,-0.4504944,0.8961529
0.06527454,-0.4534958,0.895605
0.06650279,-0.4515936,0.8946179
0.068286,-0.4482352,0.8912
0.07121841,-0.4499818,0.8900557
0.07759861,-0.4466078,0.8929016
0.07967132,-0.4431675,0.8951943
0.0775989,-0.4468465,0.8920152
0.07963783,-0.4509903,0.884942
0.0809802,-0.4520672,0.8801539
0.08078898,-0.4512343,0.8801979
0.0828466,-0.4512597,0.8838353
0.08135438,-0.4520715,0.8841054
0.07871751,-0.4539884,0.8847539
0.07763686,-0.456591,0.8907626
0.07701386,-0.4567347,0.8902794
0.07847103,-0.4566304,0.8863616
0.07771344,-0.4568043,0.8841155
0.07727263,-0.4541595,0.8799964
0.07863929,-0.4514199,0.8808938
0.07855659,-0.4505753,0.8832308
0.08147363,-0.4485048,0.8858765
0.08378103,-0.447899,0.888944
0.08315534,-0.4507976,0.884934
0.08370224,-0.4507648,0.8828862
0.08408117,-0.4499835,0.8838515
0.08464012,-0.4523238,0.8837639
0.08248765,-0.4524863,0.8854421
0.0771908,-0.4524027,0.8844207
0.07452122,-0.4534323,0.8838951
0.07463901,-0.4523914,0.8858262
0.07537954,-0.4527053,0.8888307
0.07531311,-0.4531665,0.8912254
0.07653352,-0.4523478,0.8866368
0.07955054,-0.4530256,0.8811397
0.08224223,-0.4527932,0.879871
0.08549859,-0.451844,0.8803051
0.08456073,-0.4494936,0.8815014
0.08060933,-0.44591,0.8820174
0.08025771,-0.4472232,0.8841187
0.07905259,-0.4504589,0.8857342
0.07764336,-0.4526372,0.8858272
0.07644356,-0.455222,0.8869311
0.07220916,-0.4542346,0.8867005
0.07308112,-0.4524665,0.8875291
0.076096,-0.4529277,0.8881667
0.07523829,-0.4513332,0.886785
0.07753468,-0.449037,0.8878021
0.08044912,-0.4472291,0.8878706
0.08217756,-0.4457014,0.8882649
0.08302973,-0.4461141,0.891435
0.08093754,-0.446652,0.8920532
0.0819002,-0.4473958,0.8914658
0.08118005,-0.4475865,0.8905364
0.0757891,-0.4467414,0.8888446
0.07163607,-0.4476455,0.8874911
0.06787578,-0.4482059,0.8853075
0.06885636,-0.4485686,0.8855237
0.06986231,-0.449064,0.8909098
0.06708487,-0.4481896,0.8958131
0.07019421,-0.4487254,0.8916285
0.07289146,-0.4486333,0.8861447
0.07224711,-0.4471872,0.8892286
0.07463394,-0.4463642,0.8884769
0.07716548,-0.4453185,0.8832473
0.07870448,-0.4458727,0.8831653
0.07865592,-0.446135,0.8835724
0.07770136,-0.4456415,0.8853026
0.07302314,-0.4469642,0.8882087
0.06436785,-0.4474615,0.8893083
0.06375994,-0.447197,0.8905191
0.06673887,-0.447574,0.8884457
0.06455107,-0.4489349,0.885616
0.06341744,-0.4497825,0.8860097
0.06063134,-0.4452892,0.8864252
0.05752761,-0.4395007,0.8873404
0.06367176,-0.439841,0.890225
0.07193591,-0.4428445,0.8945331
0.0732306,-0.4433866,0.8962542
0.07032121,-0.4431884,0.8922778
0.0663179,-0.4442956,0.8887084
0.06263764,-0.4464381,0.890158
0.0607556,-0.447977,0.8915029
0.05839494,-0.4471822,0.8919566
0.05439265,-0.4468517,0.8963239
0.05478185,-0.4476004,0.8986718
0.05796969,-0.4470536,0.8960679
0.05755755,-0.4471619,0.8944483
0.05939478,-0.4468812,0.8922675
0.0646183,-0.4441577,0.8905796
0.06837206,-0.4414733,0.8905705
0.06917545,-0.440875,0.8889965
0.06620298,-0.4412192,0.8869231
0.06625211,-0.4400211,0.8839061
0.06695947,-0.4398372,0.8837726
0.06265564,-0.4403205,0.8870569
0.05939556,-0.4373006,0.889539
0.05733693,-0.4359231,0.8945295
0.05755505,-0.4396906,0.8955819
0.05662641,-0.4428512,0.8934399
0.05244835,-0.4411015,0.8958965
0.05435881,-0.439047,0.8918083
0.05632895,-0.4407668,0.8847272
0.05718658,-0.440572,0.8819535
0.06220841,-0.4396262,0.8788991
0.06327841,-0.4408351,0.8820859
0.06221183,-0.4402486,0.8876914
0.06324615,-0.4411905,0.891494
0.06600748,-0.4432075,0.8945671
0.0693093,-0.4428728,0.8927391
0.06796008,-0.4421134,0.8902251
0.06549468,-0.4403825,0.8847419
0.06523348,-0.440228,0.8837226
0.06503239,-0.4428803,0.8929871
0.06543866,-0.4456123,0.8949981
0.06570368,-0.445613,0.8909153
0.06703662,-0.4421669,0.8877189
0.06949826,-0.4422403,0.8880956
0.06951462,-0.4441776,0.8915168
0.07008608,-0.4427082,0.8894915
0.07377053,-0.4441137,0.8902109
0.07640477,-0.4470713,0.8911805
0.07780443,-0.4475294,0.8892233
0.07753293,-0.4485239,0.8921091
0.0745748,-0.4495694,0.8915133
0.07384425,-0.450322,0.8900626
0.07210112,-0.4501818,0.8888862
0.06785463,-0.4499345,0.8867927
0.0693215,-0.4521034,0.8916269
0.07157481,-0.4525738,0.8943288
0.07153996,-0.4486668,0.8931018
0.07530776,-0.443887,0.8939157
0.07948298,-0.4448006,0.8955527
0.08218018,-0.4505046,0.8955165
0.08310137,-0.4512981,0.8890743
0.08299573,-0.4509054,0.8814422
0.08527483,-0.4538766,0.8792524
0.08435771,-0.4539474,0.882716
0.08195589,-0.4544662,0.8856488
0.08258041,-0.4583273,0.8845917
0.07987262,-0.4603405,0.8871539
0.0771417,-0.4591662,0.8909802
0.07848835,-0.4578859,0.8922136
0.08042979,-0.4601417,0.8917114
0.08324123,-0.4617916,0.8889741
0.08524867,-0.459032,0.8878622
0.08704104,-0.4570383,0.8871383
0.08853758,-0.4557879,0.8869453
0.08703577,-0.4535129,0.8862893
0.08741679,-0.4540812,0.8827382
0.08900526,-0.4565506,0.8802604
0.08828704,-0.4572898,0.8768258
0.08738047,-0.4569572,0.8757147
0.08571619,-0.4568622,0.8782481
0.08705956,-0.4569395,0.8799957
0.0912598,-0.4573669,0.8864397
0.09137704,-0.4586893,0.8897648
0.08801295,-0.4605972,0.885766
0.08417586,-0.461446,0.8844707
0.08548936,-0.4604048,0.8813653
0.09191891,-0.4578437,0.8802167
0.0968135,-0.4560577,0.8876844
0.09949168,-0.4579398,0.8918313
0.09631338,-0.4590066,0.8881987
0.09136666,-0.4565491,0.8828568
0.08966154,-0.4547829,0.8805136
0.08496275,-0.4530536,0.881477
0.08430262,-0.4533746,0.8836007
0.08617927,-0.4567403,0.8838115
0.08196507,-0.4574284,0.8798088
0.08380396,-0.4568194,0.8799195
0.09012275,-0.456913,0.8876287
0.09198999,-0.4570893,0.8929846
0.09156029,-0.4577972,0.8883395
0.08827259,-0.4577357,0.881274
0.08820307,-0.4575658,0.8842119
0.08899123,-0.4578075,0.8855422
0.0867063,-0.4587287,0.8820594
0.08971099,-0.4600583,0.8843217
0.09217497,-0.4599777,0.883191
0.09016256,-0.4593003,0.8821831
0.0855654,-0.4584583,0.8827815
0.0788342,-0.456448,0.8789997
0.07963983,-0.4544086,0.8808629
0.08225176,-0.4533921,0.8822438
0.08057552,-0.4509106,0.8811881
0.08221805,-0.4488057,0.882288
0.08292457,-0.4507109,0.8787568
0.08295646,-0.4521376,0.8769081
0.08568588,-0.4523858,0.8779396
0.08479979,-0.4516321,0.877598
0.08308458,-0.4489233,0.8770665
0.08344636,-0.4498312,0.876336
0.0822117,-0.4507915,0.8791922
0.08056928,-0.4494699,0.8815983
0.07674131,-0.4511608,0.880331
0.07204627,-0.4518332,0.879376
0.07394739,-0.4510937,0.8791789
0.07649826,-0.4515687,0.8802795
0.07478125,-0.4511044,0.8817108
0.0768244,-0.4505219,0.8823128
0.08094358,-0.4497912,0.8822703
0.08208204,-0.4495806,0.883491
0.08389418,-0.4494672,0.8855642
0.08486502,-0.4479461,0.8847598
0.08161939,-0.4476004,0.8842929
0.0774052,-0.4473274,0.8854526
0.07508654,-0.4468028,0.8865409
0.07395824,-0.4477166,0.8888933
0.0733593,-0.4480884,0.8893244
0.07452073,-0.4488599,0.8873929
0.07556004,-0.449519,0.8862126
0.0746131,-0.4484552,0.8850156
0.07404245,-0.4487047,0.8857653
0.07369406,-0.4506147,0.8919823
0.07422201,-0.4527919,0.8973804
0.07541788,-0.4556491,0.89299
0.07389524,-0.4575381,0.8870684
0.07216322,-0.4547059,0.8877973
0.07249565,-0.4493066,0.8848155
0.07395922,-0.4475995,0.879263
0.07474924,-0.4477703,0.8793876
0.07070824,-0.4471348,0.8802698
0.06587567,-0.447293,0.8843154
0.06602759,-0.44812,0.890727
0.06595448,-0.4486392,0.8923928
0.06524596,-0.4464823,0.8921099
0.06719296,-0.4430797,0.8910736
0.06613706,-0.4414885,0.8916639
0.06472039,-0.4405442,0.8920967
0.06865129,-0.440482,0.8899992
0.07124851,-0.4419793,0.8903011
0.07063541,-0.443698,0.8891438
0.0690013,-0.4434823,0.887449
0.06713657,-0.4435597,0.8876615
0.06721188,-0.4459818,0.8870578
0.06650254,-0.4463915,0.8878905
0.06537249,-0.4463532,0.8881545
0.06573818,-0.447727,0.890767
0.06680993,-0.4468898,0.8946455
0.06873755,-0.4451905,0.8926815
0.06834721,-0.443935,0.890284
0.06706551,-0.4432429,0.8884471
0.06669394,-0.4431949,0.8874866
0.0650523,-0.4427893,0.8922613
0.06678355,-0.4431386,0.8972078
0.0704047,-0.4430297,0.8972178
0.0704077,-0.4417321,0.8957587
0.07075105,-0.4406866,0.8925628
0.07074418,-0.4398657,0.8852759
0.06721892,-0.4408052,0.8839988
0.0631156,-0.4432361,0.8920589
0.06060644,-0.4449725,0.8961812
0.06141675,-0.4449016,0.8937124
0.06440437,-0.4438683,0.8921362
0.06738459,-0.4449427,0.8941969
0.07091065,-0.4465381,0.8952404
0.07239536,-0.4476576,0.8942049
0.06983631,-0.4495473,0.8964045
0.06683802,-0.4500945,0.8979772
0.06845185,-0.4498418,0.8970229
0.07293842,-0.4482055,0.8970281
0.07583191,-0.4463841,0.8939932
0.07735927,-0.4473936,0.8840081
0.1109302,-0.4347505,0.890001
0.121074,-0.4305753,0.8743745
0.1264929,-0.4309232,0.879139
0.1216126,-0.4381994,0.8833907
0.1155094,-0.4453964,0.8864982
0.1217745,-0.4424541,0.8904757
0.1246295,-0.4385993,0.8885297
0.1121401,-0.4384616,0.8926198
0.1060684,-0.4440431,0.8916151
0.1105199,-0.450496,0.8824347
0.1141013,-0.443759,0.8808775
0.1098383,-0.4370081,0.8855129
0.1063505,-0.441939,0.8950537
0.1126417,-0.4445441,0.8930907
0.1178719,-0.444974,0.875347
0.1219977,-0.4493887,0.8649512
0.1202579,-0.4495626,0.873098
0.1116926,-0.4484147,0.8929718
0.112706,-0.4509463,0.899566
0.1215848,-0.4521942,0.8956236
0.1289265,-0.4601062,0.900306
0.1188099,-0.469705,0.9028231
0.1034658,-0.4609628,0.8945667
0.1126204,-0.4451598,0.8764381
0.1250273,-0.4419771,0.8655521
0.1273473,-0.450638,0.8715787
0.1187515,-0.4627168,0.8792755
0.1041841,-0.4659334,0.8846855
0.1221532,-0.4598933,0.8809836
0.1472462,-0.4567672,0.8755222
0.1433376,-0.4568412,0.8833202
0.1412758,-0.456777,0.8887931
0.1400805,-0.4572486,0.8864739
0.1331759,-0.4567405,0.8821801
0.135269,-0.4569289,0.875698
0.1366436,-0.4571512,0.8723378
0.1342,-0.4561307,0.8698021
0.1322159,-0.4544824,0.8636494
0.1317152,-0.4518863,0.8636572
0.1316536,-0.4529097,0.8735281
0.128838,-0.4562674,0.8804631
0.1279242,-0.4576086,0.8826965
0.1305256,-0.4590713,0.8844383
0.1363413,-0.4599524,0.8803292
0.1401751,-0.4598752,0.8732043
0.1393778,-0.4594801,0.8718605
0.1372203,-0.4577695,0.8734541
0.1322618,-0.4538496,0.8736893
0.1330085,-0.4495926,0.8796909
0.1377825,-0.4501145,0.8862558
0.1390981,-0.4512357,0.8854451
0.1405029,-0.4512334,0.8876956
0.1357908,-0.4553898,0.8881046
0.1306362,-0.4568589,0.8823368
0.1310809,-0.4557822,0.8805901
0.1282444,-0.4582358,0.8806381
0.125716,-0.458124,0.8832189
0.1255192,-0.4573032,0.8875156
0.1270613,-0.4596374,0.8915016
0.1311765,-0.4602263,0.8967394
0.133758,-0.4594973,0.8913112
0.13845,-0.4596581,0.8821351
0.1422794,-0.4598721,0.8843576
0.1383814,-0.4589381,0.8843809
0.1351367,-0.4559152,0.8790992
0.1348443,-0.4523141,0.8798482
0.1343821,-0.4519536,0.8799731
0.1369669,-0.4540892,0.8726654
0.1376651,-0.4552965,0.8673381
0.1333705,-0.4573901,0.8698101
0.1273558,-0.4578069,0.8725383
0.1241934,-0.4561249,0.8765135
0.1312031,-0.4596243,0.8838999
0.1377546,-0.467354,0.8812305
0.1332103,-0.4778238,0.869859
0.1273627,-0.4850041,0.8602672
0.1256848,-0.4815046,0.8560212
0.1320182,-0.473057,0.8631946
0.141105,-0.4601771,0.8724352
0.1371458,-0.4525813,0.8816936
0.129504,-0.4586452,0.8925878
0.1283732,-0.4608228,0.8865116
0.1267384,-0.4616027,0.8789877
0.1269546,-0.4696918,0.8854979
0.1242454,-0.4736302,0.8857268
0.1182876,-0.4694548,0.8828896
0.1209726,-0.4544565,0.8769907
0.1220141,-0.4405673,0.8652144
0.1195541,-0.4446124,0.8704048
0.12227,-0.4485773,0.8848928
0.1243506,-0.442436,0.8915513
0.127251,-0.4420398,0.8939823
0.1282804,-0.4446887,0.8900761
0.1267389,-0.4440369,0.8879119
0.1285391,-0.4464399,0.8876102
0.1277499,-0.446594,0.883917
0.1273858,-0.4446492,0.8860191
0.1294084,-0.4466192,0.8851518
0.1287535,-0.4473707,0.8829094
0.1284776,-0.4535348,0.8854475
0.127915,-0.4625967,0.8823284
0.1291339,-0.4621558,0.8837705
0.1317261,-0.4643008,0.8894316
0.1291216,-0.4702369,0.8921402
0.1238972,-0.4670031,0.8941636
0.119427,-0.4615208,0.8886412
0.1197609,-0.4585051,0.8862995
0.1216618,-0.4530209,0.8900753
0.1166312,-0.4506477,0.8901055
0.1139144,-0.4496616,0.8889194
0.1172427,-0.4431842,0.8864711
0.1201812,-0.4411642,0.8875029
0.1242904,-0.4425022,0.8894657
0.1255211,-0.4401475,0.888952
0.121818,-0.440296,0.8890223
0.1188161,-0.4390774,0.8821119
0.1181224,-0.4361426,0.8757247
0.1189848,-0.4391145,0.8780323
0.1217111,-0.445178,0.8804562
0.1265254,-0.4503759,0.8819867
0.1268848,-0.4506427,0.8851615
0.1213172,-0.4490365,0.890819
0.1165946,-0.4524485,0.8956058
0.1119951,-0.4533448,0.8950463
0.1092778,-0.4500842,0.8936028
0.1105643,-0.4487728,0.8941723
0.1114681,-0.4468467,0.8917361
0.1109037,-0.4450146,0.8871466
0.1090434,-0.4433387,0.8878569
0.1091221,-0.4416584,0.8924132
0.1145513,-0.4409728,0.8946933
0.1202481,-0.4380052,0.8906011
0.1192153,-0.4380202,0.8850717
0.1154173,-0.4395166,0.8878065
0.1152255,-0.438087,0.8902651
0.1139917,-0.4398745,0.8886979
0.1124722,-0.4395028,0.8911942
0.1124239,-0.4380003,0.8906572
0.1101809,-0.4415087,0.8848423
0.1093256,-0.4416235,0.8834342
0.1087548,-0.4386793,0.8876132
0.1079542,-0.436933,0.8911889
0.1082711,-0.4369294,0.8945538
0.1061067,-0.4386548,0.8986701
0.1044385,-0.4387884,0.895782
0.1046497,-0.4398276,0.8925764
0.1060222,-0.4403218,0.8949655
0.1069496,-0.4394925,0.8923947
0.1065067,-0.4404813,0.8887525
0.1071023,-0.4375092,0.888569
0.1050244,-0.4349323,0.8872695
0.1038218,-0.4379746,0.8853932
0.1072083,-0.4405416,0.8851143
0.1096057,-0.4423728,0.8889953
0.1113268,-0.4418002,0.8902874
0.1115075,-0.439902,0.8882499
0.1065553,-0.4396135,0.8918574
0.09915027,-0.4382245,0.8941454
0.09742822,-0.4378866,0.8917744
0.09832791,-0.4376666,0.8918385
0.09646085,-0.4364327,0.8943944
0.1002161,-0.435058,0.8960735
0.1029868,-0.4315573,0.8924995
0.1006539,-0.4309334,0.889021
0.1033044,-0.4319175,0.893026
0.1067281,-0.4299155,0.8956784
0.1091515,-0.4303079,0.8923014
0.1087112,-0.4315194,0.8906895
0.1053362,-0.43186,0.8917972
0.1053917,-0.434561,0.8909622
0.103595,-0.4367362,0.8900554
0.10204,-0.4393996,0.8923186
0.1032939,-0.4416053,0.8948788
0.1034681,-0.4394741,0.8954266
0.1046067,-0.4381139,0.8951804
0.1042147,-0.4376283,0.8951957
0.1038316,-0.4366075,0.8962422
0.1050953,-0.4367854,0.8979335
0.1067289,-0.4337065,0.8989315
0.1107042,-0.4300881,0.8980849
0.1130493,-0.4287667,0.8948084
0.1138286,-0.4280582,0.8921699
0.1134691,-0.4334618,0.8936607
0.1107389,-0.4400432,0.8953935
0.1108329,-0.4393708,0.8942003
0.1118973,-0.4368796,0.8941308
0.1125458,-0.4360193,0.8948881
0.1154939,-0.4364418,0.8941881
0.1185984,-0.4396673,0.8940669
0.1216175,-0.4424179,0.8923335
0.1215952,-0.4415623,0.8880178
0.1186542,-0.4415413,0.8859036
0.1182511,-0.4430128,0.8877137
0.1163492,-0.4429842,0.8924398
0.1144311,-0.4432457,0.8958899
0.1175079,-0.4432037,0.8942962
0.118778,-0.4437326,0.8918668
0.1187185,-0.4466613,0.8917742
0.1237755,-0.4523262,0.8929483
0.132581,-0.45925,0.8960458
0.1376296,-0.4590602,0.8970503
0.1370222,-0.4592958,0.8896245
0.1415471,-0.4663305,0.8789235
0.1469071,-0.4633245,0.8755224
0.1421134,-0.4529899,0.8772568
0.1364376,-0.444115,0.8730865
0.1347852,-0.4361851,0.8659097
0.1376929,-0.4373209,0.8629084
0.144734,-0.4365969,0.856445
0.1466817,-0.4318581,0.8517834
0.1477244,-0.4351195,0.8611427
0.1491489,-0.433913,0.8772869
0.1416522,-0.434016,0.8976637
0.1311272,-0.4414279,0.9117398
0.125493,-0.4429236,0.9069576
0.1281958,-0.4468815,0.901915
0.1332125,-0.450265,0.8928886
0.1312617,-0.4470036,0.8702584
0.1307951,-0.4469868,0.86423
0.1311508,-0.4476414,0.8720054
0.1299917,-0.4490142,0.8746597
0.1342321,-0.4510354,0.8842705
0.1363448,-0.4516837,0.8906856
0.1362992,-0.4525726,0.8887669
0.1373564,-0.4493591,0.8942018
0.137518,-0.446185,0.8946309
0.1398876,-0.4487592,0.889033
0.1405232,-0.4511463,0.8864396
0.1397189,-0.4487583,0.8754882
0.1370887,-0.4468041,0.8688839
0.1312693,-0.4470576,0.8761758
0.1296039,-0.444092,0.8793576
0.1301956,-0.4411473,0.8806809
0.1291247,-0.4404928,0.8864764
0.1271423,-0.4404431,0.8892554
0.1276034,-0.4423789,0.8896402
0.1304792,-0.444192,0.8929406
0.1310684,-0.4440965,0.896211
0.1334017,-0.4421895,0.8947364
0.1356419,-0.4409578,0.8936438
0.134958,-0.4403744,0.892728
0.136425,-0.4397612,0.8885941
0.1380144,-0.4418597,0.8869103
0.138173,-0.4432389,0.8872629
0.1388602,-0.4452618,0.8876917
0.1401511,-0.4499072,0.8882775
0.1372831,-0.4523407,0.8900419
0.1320058,-0.4530288,0.8946485
0.1310677,-0.4501071,0.894576
0.127754,-0.4445329,0.8892448
0.1243388,-0.4418111,0.8836956
0.1267213,-0.4419365,0.8801007
0.1299895,-0.4429207,0.8819256
0.1353036,-0.4419875,0.8819048
0.1372759,-0.4408707,0.8793787
0.1365941,-0.4397362,0.8815897
0.1396885,-0.4390956,0.8842584
0.1386534,-0.4427469,0.8859806
0.1371823,-0.4447137,0.885982
0.1371271,-0.4456555,0.8842237
0.1335221,-0.4481425,0.8842173
0.1320969,-0.4453865,0.8835184
0.130096,-0.4431965,0.8858887
0.129604,-0.4449757,0.8914234
0.1318234,-0.4444997,0.8927682
0.1298599,-0.4439779,0.8911148
0.1313185,-0.4431031,0.8847137
0.135724,-0.4390723,0.8791523
0.1376858,-0.4366692,0.8820094
0.1359097,-0.4391326,0.8811952
0.1283819,-0.4411126,0.8781605
0.1253519,-0.4383159,0.8831034
0.1258037,-0.4373563,0.8863306
0.1253017,-0.4423127,0.8844591
0.1297476,-0.4457813,0.8843127
0.1332662,-0.4436152,0.8850836
0.1326736,-0.4405257,0.8846779
0.1331858,-0.4390491,0.8850709
0.1363061,-0.4382004,0.887615
0.1370901,-0.4430408,0.8897963
0.1347612,-0.4500432,0.8900375
0.1347252,-0.4476166,0.8900837
0.1323458,-0.4454547,0.8910747
0.1285158,-0.4484111,0.8929483
0.1260046,-0.4453373,0.8945072
0.12396,-0.4413855,0.8923334
0.1282034,-0.439975,0.8885573
0.1300375,-0.4393956,0.8896316
0.1252071,-0.4411891,0.8919051
0.1217456,-0.4400859,0.8939142
0.1202398,-0.4393918,0.8973628
0.1236584,-0.4393002,0.8959194
0.1264019,-0.4361684,0.8951632
0.1243957,-0.4363584,0.8982828
0.1237984,-0.4356625,0.8967392
0.1224834,-0.4336074,0.8938876
0.1208257,-0.4350512,0.8912519
0.1203619,-0.4339175,0.8886586
0.118979,-0.4333755,0.8896384
0.1176796,-0.4374016,0.8909799
0.1178796,-0.4408082,0.8922191
0.1194024,-0.4409473,0.8933776
0.1195831,-0.4396026,0.8934327
0.1191541,-0.4400658,0.8937976
0.1187165,-0.4388286,0.8945878
0.1177658,-0.4364531,0.894482
0.1196851,-0.4376439,0.8922419
0.123507,-0.4378501,0.8912045
0.1261311,-0.4370987,0.8919051
0.1264566,-0.4380919,0.8927246
0.1269427,-0.4392419,0.894356
0.1292993,-0.4402118,0.8942917
0.1282123,-0.4377481,0.8926248
0.1245518,-0.4338866,0.8913056
0.1211619,-0.4343879,0.8922448
0.1179782,-0.4351322,0.8932148
0.1185742,-0.4331221,0.8892172
0.1192988,-0.4312834,0.8861737
0.1182473,-0.4301103,0.8876721
0.1193447,-0.4303094,0.8888787
0.1211265,-0.4313663,0.8890787
0.1246868,-0.4333471,0.8904871
0.1275482,-0.4400569,0.8942091
0.1254529,-0.4459852,0.8962086
0.1233243,-0.4457966,0.8925144
0.1199425,-0.4462039,0.8881835
0.1123354,-0.4444632,0.8878157
0.109707,-0.43787,0.8853152
0.1156612,-0.4369154,0.8814519
0.12029,-0.4384876,0.8841341
0.1204686,-0.4353287,0.8873896
0.1209699,-0.4302901,0.8906804
0.1208003,-0.4226806,0.8969795
0.1197017,-0.4178703,0.8980106
0.1195339,-0.4167173,0.8963636
0.1201577,-0.4134934,0.894523
0.1212862,-0.4139487,0.8911154
0.1209267,-0.4143455,0.8927504
0.1204795,-0.4145821,0.8992188
0.1207788,-0.4228044,0.904031
0.1189443,-0.4293816,0.9001315
0.1179586,-0.4315024,0.8944347
0.1207014,-0.4335887,0.8976526
0.1227544,-0.4338082,0.8981783
0.1197451,-0.4322474,0.8942582
0.1156468,-0.4309751,0.8920017
0.1133733,-0.4314558,0.8855824
0.1082505,-0.4291485,0.8826393
0.1047946,-0.4265486,0.8848108
0.1068455,-0.4227791,0.8837262
0.1101738,-0.4134965,0.8865695
0.1197432,-0.4117052,0.8926095
0.1327155,-0.4198623,0.8970085
0.1405304,-0.4301615,0.90529
0.1462128,-0.4363739,0.9115715
0.1483195,-0.4347579,0.9105751
0.1468711,-0.4339933,0.9119716
0.1454646,-0.4342858,0.9181458
0.141295,-0.43284,0.9195377
0.1356422,-0.4332865,0.9071261
0.1332963,-0.4344298,0.8889408
0.1353342,-0.4380516,0.8857945
0.1372808,-0.4442911,0.8890674
0.1383913,-0.4495678,0.8857976
0.1408288,-0.4549826,0.8902429
0.1412101,-0.4579809,0.8940742
0.1416591,-0.4525054,0.8901769
0.1420192,-0.4460704,0.8909436
0.1394604,-0.4426454,0.8867755
0.1367248,-0.4333435,0.881398
0.1336403,-0.4282899,0.8870583
0.1341069,-0.4326584,0.89391
0.1358978,-0.432871,0.8973641
0.1337983,-0.4314454,0.8971891
0.1338276,-0.430953,0.8942397
0.1339547,-0.4287939,0.8926652
0.1343507,-0.4270032,0.8945063
0.137309,-0.4239189,0.8970642
0.1361427,-0.4229097,0.8951173
0.1357755,-0.4239807,0.8924723
0.1380654,-0.424205,0.8905743
0.1363932,-0.4275711,0.888589
0.1337378,-0.4322279,0.8879917
0.132286,-0.4348261,0.8874659
0.1310167,-0.4384658,0.8913371
0.1300689,-0.4430694,0.8923108
0.1304389,-0.4417161,0.8830741
0.1310421,-0.4380517,0.8793038
0.130319,-0.4391877,0.8851289
0.131523,-0.4367584,0.8897472
0.1324829,-0.4326521,0.8905613
0.1318122,-0.431982,0.8939405
0.1327928,-0.4300972,0.8993428
0.1328767,-0.4304103,0.8956467
0.1322298,-0.4289093,0.892237
0.1322022,-0.425569,0.896136
0.1330971,-0.4268692,0.8960635
0.136098,-0.4273853,0.8971404
0.1370136,-0.4287719,0.897432
0.1354129,-0.430129,0.8916266
0.1344047,-0.4294646,0.8897838
0.1310989,-0.4311057,0.8919043
0.1264029,-0.4306848,0.8952634
0.1255332,-0.4304607,0.8968823
0.1252914,-0.4327943,0.89682
0.1251387,-0.4335923,0.8977294
0.1302938,-0.4338102,0.8949268
0.1351892,-0.4338898,0.8937047
0.1353147,-0.434491,0.8952924
0.1346055,-0.4322481,0.8958763
0.1354169,-0.4282485,0.8980119
0.1364014,-0.4289569,0.8973828
0.1342217,-0.4300233,0.8964422
0.1324903,-0.4305859,0.8968957
0.1331738,-0.4326262,0.8952552
0.1313077,-0.432011,0.8955704
0.1281011,-0.4305374,0.8953224
0.1274119,-0.4307568,0.8938157
0.1297668,-0.4315497,0.8941706
0.1309862,-0.4329255,0.8928391
0.1286153,-0.4329239,0.8909489
0.1272404,-0.4312737,0.8915098
0.1288085,-0.4303532,0.8921157
0.1308655,-0.4278194,0.8912342
0.13161,-0.4244702,0.8907012
0.1320496,-0.4257286,0.8904553
0.1321994,-0.4282879,0.8909746
0.131269,-0.4287123,0.8931605
0.1301199,-0.4293752,0.8933954
0.1278217,-0.4291511,0.8923728
0.1274092,-0.4285353,0.891481
0.1301164,-0.4301783,0.8898235
0.1306121,-0.4317527,0.8921791
0.1284289,-0.4301761,0.8987217
0.125349,-0.426807,0.9025147
0.1245418,-0.4241825,0.8989424
0.1271798,-0.4228884,0.893424
0.127457,-0.4241125,0.8941261
0.1232979,-0.4267915,0.895169
0.1192959,-0.4279685,0.8938114
0.1205224,-0.4273079,0.8947384
0.123793,-0.4257289,0.8948818
0.1266124,-0.4267418,0.8964363
0.1323309,-0.4297073,0.9002967
0.1330743,-0.4308273,0.8994749
0.1280567,-0.4310171,0.8963698
0.1251868,-0.430197,0.8966115
0.1208678,-0.4303986,0.8980035
0.1195274,-0.4310865,0.8970326
0.1219243,-0.4294974,0.8964639
0.1209758,-0.4279063,0.8954916
0.1234599,-0.4246807,0.8911968
0.1276157,-0.4230758,0.8910205
0.1282321,-0.4248494,0.8949223
0.129504,-0.4259891,0.8980715
0.1298217,-0.4296475,0.9023124
0.1305472,-0.4310981,0.9021252
0.1323438,-0.4291967,0.8974441
0.1301951,-0.4285024,0.8962624
0.126322,-0.4260185,0.8962742
0.1231111,-0.4285259,0.8960806
0.1198418,-0.4334831,0.8974872
0.1200417,-0.4315854,0.8957118
0.1217487,-0.4298567,0.8932132
0.1195422,-0.4271292,0.8947693
0.1193122,-0.4221394,0.8943942
0.1227624,-0.4214689,0.892165
0.1244087,-0.421714,0.8915025
0.1257601,-0.4237457,0.8923671
0.1270882,-0.42795,0.8973915
0.1288533,-0.4268036,0.9008946
0.1296354,-0.424708,0.89678
0.1268849,-0.4244813,0.8926735
0.1251358,-0.4213716,0.8952519
0.1232726,-0.4222968,0.8972329
0.1211997,-0.4279156,0.895171
0.1223706,-0.4294999,0.8967057
0.1224198,-0.4277949,0.8980909
0.1209312,-0.4254318,0.8964449
0.1210756,-0.4260031,0.8965684
0.1225919,-0.4270488,0.8950867
0.1247233,-0.4238295,0.8924312
0.1270698,-0.4233441,0.8899579
0.1311568,-0.4247881,0.8897818
0.1351105,-0.4247818,0.894512
0.1350612,-0.4245769,0.8954536
0.133089,-0.4230493,0.8940066
0.1283783,-0.4246859,0.8965419
0.1204888,-0.4266756,0.8978241
0.1172908,-0.426145,0.8968548
0.1170004,-0.4267134,0.894718
0.1157251,-0.4258336,0.8912673
