accx,accy,accz
0.9398903,0.223118,0.3291005
0.9394332,0.2227772,0.325576
0.9388376,0.2246641,0.3294294
0.9382117,0.2263115,0.3304323
0.9351017,0.2292783,0.3322356
0.9361281,0.2288327,0.3328569
0.939167,0.2258704,0.3318227
0.9416329,0.2263594,0.3368414
0.9438278,0.2277677,0.3402823
0.9404147,0.232514,0.3376403
0.9346787,0.2381393,0.334
0.9322385,0.2367525,0.3298884
0.9327404,0.234913,0.3270814
0.9322109,0.2378641,0.32991
0.9296656,0.2389405,0.3337864
0.9302126,0.2385111,0.3317955
0.9315237,0.239248,0.3312107
0.9309249,0.237897,0.334722
0.9320497,0.2376104,0.3377817
0.9315214,0.2377203,0.3423085
0.929989,0.2354059,0.3415566
0.9335032,0.2362011,0.3364497
0.9385907,0.2391409,0.3357579
0.9410657,0.2433771,0.3323837
0.9389658,0.2494017,0.3237639
0.9359677,0.2511782,0.3146726
0.937825,0.2488074,0.3132119
0.9380777,0.2436473,0.3199943
0.9370591,0.2334424,0.3201254
0.9398035,0.2247942,0.3190116
0.941113,0.2251503,0.3232552
0.9419946,0.2253384,0.3246923
0.9435973,0.2197104,0.3260414
0.9429659,0.2185233,0.3267009
0.9419575,0.2209467,0.3264632
0.9416237,0.2213181,0.3222619
0.9427085,0.222671,0.3133047
0.9445376,0.224043,0.3142934
0.9455878,0.223661,0.3173707
0.9460843,0.2220722,0.3158571
0.9454516,0.2201662,0.3185662
0.9439639,0.2194014,0.3168396
0.9422328,0.2214661,0.3143953
0.9410116,0.225905,0.3197603
0.9401696,0.2268912,0.3240915
0.9405551,0.2234214,0.325046
0.9443814,0.2185619,0.3249742
0.9478349,0.2163996,0.3237446
0.9470932,0.2229855,0.3188574
0.9437879,0.2301825,0.3131952
0.940306,0.2290705,0.3150216
0.9387377,0.228742,0.3177843
0.9393364,0.2321895,0.3149288
0.9416373,0.2311147,0.3150674
0.943506,0.2271692,0.3198578
0.9412005,0.2262644,0.3240687
0.9370143,0.2265714,0.3295596
0.9352214,0.2270015,0.3345177
0.9348711,0.2300974,0.3326621
0.93618,0.234204,0.3281318
0.9380781,0.2348872,0.3251333
0.9358181,0.2342155,0.3212127
0.9330291,0.2360282,0.3219799
0.9320017,0.2391665,0.3284251
0.9282018,0.2430713,0.3318441
0.9263486,0.2445765,0.3332628
0.92791,0.2449276,0.3352013
0.927587,0.2500735,0.336231
0.926171,0.256385,0.3351856
0.9187948,0.2609004,0.3350797
0.9058047,0.2585927,0.3474497
0.9016782,0.2507168,0.3708561
0.9057197,0.2499577,0.3866374
0.9049629,0.2509032,0.3844317
0.8973358,0.2537996,0.3819866
0.8895904,0.2669477,0.3915318
0.8879796,0.2789243,0.3935346
0.8854947,0.2853786,0.3931242
0.8734219,0.2947694,0.3970418
0.8625646,0.3130881,0.3937753
0.8605026,0.3300687,0.4019884
0.8596527,0.3410037,0.4198184
0.8547835,0.3564655,0.4340317
0.8447042,0.3603799,0.4442935
0.8310886,0.3601832,0.4414009
0.8182184,0.3745778,0.4446515
0.8151593,0.3756929,0.4540638
0.821933,0.3715867,0.4525992
0.8262416,0.3739095,0.4529506
0.8322264,0.3626809,0.4523072
0.8333376,0.3614332,0.4495888
0.8180826,0.3823049,0.4486092
0.8046893,0.404802,0.4476914
0.7969339,0.4136679,0.4505474
0.7968283,0.4046587,0.4500375
0.8033664,0.3979111,0.451648
0.7996804,0.3933546,0.4636441
0.7962683,0.3932938,0.4799129
0.7887145,0.4165451,0.4873987
0.7745801,0.4413312,0.4777257
0.7689419,0.4493661,0.4749045
0.7584118,0.444496,0.4865853
0.7527776,0.4422435,0.492773
0.759347,0.4516904,0.4927053
0.7606194,0.4515928,0.4907217
0.7592873,0.4475965,0.4926352
0.7557655,0.4468363,0.4986724
0.750514,0.4438371,0.5041583
0.7445123,0.4463113,0.5080303
0.7401758,0.4413732,0.5068353
0.7390247,0.4363168,0.512589
0.7328952,0.4427014,0.5231304
0.7310489,0.4523693,0.5238023
0.732866,0.4664266,0.5235645
0.7272287,0.4709977,0.524527
0.7205357,0.4766893,0.5274562
0.7109349,0.492607,0.5347256
0.6916613,0.4924544,0.5376229
0.6728858,0.4930254,0.5397102
0.6667087,0.5145101,0.5478652
0.6567003,0.5328078,0.5592709
0.6418674,0.5354731,0.5646431
0.6401307,0.5445619,0.570204
0.6213315,0.5775706,0.595832
0.5899247,0.6086095,0.6244034
0.5814632,0.6135196,0.6239217
0.5575661,0.6192407,0.6049656
0.5200093,0.6408358,0.5939948
0.5310356,0.6353739,0.5892481
0.5693994,0.5970757,0.5848368
0.5940022,0.5609947,0.5810905
0.6141301,0.530371,0.5739331
0.6264241,0.5174846,0.5711345
0.6578455,0.4986461,0.5657305
0.7016483,0.469127,0.5572415
0.6854756,0.4767756,0.5597252
0.6692849,0.4699553,0.5559835
0.6826998,0.462015,0.5561653
0.6606221,0.4968001,0.5651171
0.6626992,0.5025075,0.558174
0.6764071,0.5055843,0.5564519
0.6551232,0.5176214,0.5610708
0.6499882,0.5190002,0.5604771
0.6336801,0.5488629,0.5657736
0.6174638,0.5599294,0.5653509
0.6276469,0.5553509,0.5651257
0.6231536,0.556561,0.572014
0.6244816,0.5447226,0.5726842
0.6307842,0.5519003,0.5653488
0.6258542,0.5555485,0.5562188
0.6195215,0.5542215,0.5595464
0.6071605,0.5640397,0.5671704
0.6031117,0.5639232,0.5678843
0.5970705,0.5682698,0.5734864
0.585469,0.5654565,0.5765852
0.5884535,0.5627294,0.5745399
0.5916159,0.5752991,0.5761372
0.5930941,0.5792024,0.5775671
0.5942462,0.5785093,0.5818973
0.5891805,0.5727436,0.586345
0.587023,0.5631436,0.5848799
0.5824669,0.5556907,0.5823638
0.5774066,0.5542201,0.5803986
0.5792832,0.5623556,0.5798127
0.5851642,0.5611604,0.5806771
0.5992243,0.5616548,0.5798277
0.611788,0.5644964,0.5776925
0.6146509,0.5564608,0.5782593
0.6146168,0.5541286,0.578238
0.6130508,0.5513836,0.5743298
0.6120333,0.5561807,0.5741256
0.6037918,0.5702406,0.5767847
0.5902751,0.5729278,0.5765865
0.5899118,0.575191,0.5764348
0.5949444,0.5707566,0.57833
0.5967799,0.5612861,0.5798004
0.6012417,0.5623898,0.5798528
0.6026928,0.561103,0.5832571
0.5996859,0.5549672,0.5897143
0.5967364,0.547349,0.5926288
0.5926832,0.5446884,0.5908577
0.5928,0.5464659,0.5871827
0.6008326,0.5434872,0.5817104
0.6090857,0.5460726,0.5747421
0.613023,0.5496125,0.5706573
0.6114996,0.5497612,0.5697567
0.6096713,0.5541829,0.5685806
0.6121386,0.5532235,0.5650239
0.6112813,0.5504142,0.5645488
0.6112086,0.5511348,0.5712626
0.6132396,0.5503006,0.572336
0.609266,0.5542618,0.5684183
0.6080885,0.5587106,0.5700841
0.6123164,0.5560786,0.5714201
0.6158579,0.5542699,0.5719441
0.6161413,0.5548018,0.5709768
0.6147958,0.5522731,0.5667155
0.6185516,0.5504765,0.5644562
0.621451,0.5533241,0.5600469
0.6207286,0.5568805,0.5560579
0.6209974,0.5587429,0.5570251
0.6205743,0.557079,0.5553308
0.6215369,0.5543719,0.5539311
0.6235789,0.5567595,0.5554458
0.6249927,0.5587717,0.5545767
0.6230196,0.5579625,0.5539265
0.6201656,0.558268,0.554239
0.6268093,0.5559635,0.5551271
0.6343571,0.5521211,0.5596926
0.6338671,0.5503331,0.5631246
0.6319865,0.5494134,0.5586651
0.6289047,0.5486031,0.553081
0.6252098,0.5484326,0.5554442
0.6262439,0.5507301,0.5562824
0.6300867,0.5520894,0.5507229
0.6310294,0.5509565,0.548718
0.630465,0.5503431,0.5473995
0.630644,0.5488693,0.5449798
0.6296375,0.5485194,0.5461664
0.6271619,0.5507963,0.5483694
0.6242716,0.5529562,0.5519398
0.6261395,0.5543323,0.5552199
0.628944,0.555211,0.5569874
0.6246382,0.5573377,0.5595279
0.6222936,0.5603934,0.5613057
0.6246181,0.563441,0.5619474
0.6263345,0.5637968,0.5585518
0.6281038,0.5577654,0.5540234
0.6254782,0.5517677,0.5576357
0.6188229,0.5511415,0.5644311
0.6141336,0.5531956,0.5679575
0.6142385,0.5583875,0.5690727
0.6207854,0.5645085,0.5623562
0.6275444,0.5627724,0.5537168
0.6273276,0.5554476,0.5571468
0.625163,0.5512443,0.5632087
0.6258203,0.5480176,0.5634767
0.625067,0.5486456,0.5641985
0.6243204,0.5550121,0.5638146
0.6256146,0.5603094,0.5620915
0.6248354,0.5653212,0.55992
0.6243681,0.565303,0.5572103
0.6236824,0.5599391,0.5576674
0.6211124,0.5575634,0.5565215
0.6210723,0.5575823,0.5527939
0.6202117,0.5593693,0.5511826
0.6185729,0.5591949,0.5481822
0.619758,0.5592182,0.5472315
0.6196032,0.5608414,0.5498839
0.6192861,0.5585091,0.54841
0.6209711,0.5576757,0.5482528
0.6227797,0.5555821,0.5513558
0.6244039,0.5539192,0.5522287
0.6246285,0.5568377,0.5560673
0.6244807,0.554656,0.5595787
0.6234623,0.5546771,0.5575524
0.6194598,0.5571869,0.5568863
0.6149204,0.5562263,0.5605756
0.6116229,0.5608795,0.5639904
0.6130133,0.5642135,0.5625819
0.6180408,0.5620403,0.560774
0.6180645,0.5622579,0.5593034
0.6149884,0.5622698,0.5562562
0.6133999,0.5597153,0.5583894
0.6132886,0.5583474,0.5595981
0.6146328,0.5625647,0.5565601
0.6136948,0.5668982,0.5564614
0.6134665,0.5632843,0.5556707
0.6145786,0.5591171,0.557666
0.6137106,0.5600978,0.5615465
0.6158064,0.5616225,0.559316
0.6174864,0.5626611,0.5591771
0.6163886,0.5616974,0.5601692
0.6163548,0.5584797,0.5573359
0.6148443,0.5578958,0.5566192
0.6135604,0.558535,0.5570323
0.6146024,0.5582309,0.5582901
0.615821,0.5582631,0.560537
0.6152185,0.5575295,0.561435
0.6135397,0.5575693,0.5614287
0.6122559,0.558602,0.5606731
0.6103459,0.5588375,0.5612469
0.610894,0.5597861,0.5615265
0.6116266,0.5607498,0.5615804
0.6098019,0.55979,0.5634896
0.6112595,0.5596291,0.5642651
0.6150328,0.5628116,0.5654867
0.6176849,0.5640847,0.5658851
0.6168051,0.5602115,0.5635264
0.6135356,0.5575834,0.5601995
0.6121297,0.561061,0.5552951
0.6106389,0.5655921,0.5555405
0.6123585,0.5633744,0.5597766
0.6171721,0.5586706,0.5605116
0.6186106,0.5577605,0.5607492
0.618235,0.5582303,0.5569035
0.6167561,0.5590444,0.5522008
0.6168503,0.5599799,0.5552427
0.6197408,0.5614566,0.5566231
0.6209467,0.5617118,0.5548698
0.6195434,0.5601842,0.5557201
0.61696,0.5605325,0.5558635
0.6178621,0.5596722,0.5566187
0.61896,0.5590876,0.5591282
0.617221,0.5609717,0.5599696
0.6183677,0.5620496,0.5568803
0.6181262,0.564418,0.5507181
0.6164137,0.5637331,0.5488075
0.6160699,0.5611354,0.5574486
0.6147518,0.563006,0.5668528
0.6162652,0.5631392,0.5638404
0.617319,0.5636605,0.5600798
0.6162458,0.5658392,0.5637608
0.6168595,0.5625602,0.5629012
0.6166294,0.5596323,0.5623453
0.616416,0.5601882,0.5652051
0.615922,0.5589624,0.5631326
0.6148238,0.5581553,0.561758
0.6156862,0.5613197,0.5612275
0.6171861,0.5645128,0.5599467
0.61849,0.5641184,0.5600429
0.6183195,0.5635414,0.5576163
0.6163742,0.5647827,0.5584742
0.612026,0.567988,0.5630948
0.606475,0.573149,0.5651707
0.6080951,0.5742052,0.5660954
0.6140982,0.5691433,0.5647277
0.6168438,0.5649621,0.5640555
0.6189946,0.5644273,0.5627072
0.6184492,0.5635933,0.5551444
0.6170235,0.5611126,0.5493466
0.6188343,0.5600829,0.5505387
0.6181408,0.5597591,0.5527651
0.6184447,0.5577984,0.5508544
0.6204382,0.5578291,0.5497682
0.618831,0.5590623,0.5516871
0.6179488,0.5583296,0.5537056
0.6154591,0.5601698,0.5586118
0.6132465,0.563143,0.5582271
0.6176895,0.5632919,0.5527534
0.6207245,0.5633369,0.5512269
0.6185828,0.5634646,0.5488107
0.6171394,0.5646818,0.5498287
0.618352,0.565704,0.5511871
0.6187271,0.5630411,0.5488829
0.6196655,0.5608762,0.5515783
0.6235457,0.5609777,0.551813
0.6243172,0.5613225,0.5505543
0.6226368,0.5621006,0.5512132
0.6210827,0.5624813,0.5491646
0.6187868,0.5617519,0.550289
0.6199947,0.560686,0.5519966
0.6214181,0.5609966,0.554841
0.6184144,0.5614651,0.5593591
0.6154917,0.5604831,0.5574726
0.6154058,0.559371,0.5546379
0.618137,0.5584696,0.5531159
0.6213494,0.5605799,0.5514085
0.6212982,0.5640843,0.5529867
0.6199372,0.5634541,0.5543333
0.6196183,0.5633918,0.5537759
0.6194158,0.5648462,0.5533791
0.6208879,0.5643598,0.5529788
0.6217079,0.5654543,0.5549399
0.6193991,0.5656219,0.5593318
0.6171455,0.5630336,0.5589294
0.6135869,0.5603685,0.5551644
0.6116896,0.5575745,0.5564882
0.6140484,0.5597355,0.5577781
0.6157529,0.564011,0.5541548
0.6189746,0.5640977,0.5520241
0.6202791,0.5647581,0.5526524
0.6191272,0.5622684,0.5529729
0.6218873,0.556895,0.5530186
0.6210793,0.5580156,0.5534809
0.6197933,0.5590423,0.5545307
0.6215317,0.556585,0.5540178
0.6185167,0.5559863,0.5523055
0.6173813,0.5555223,0.5527549
0.6184287,0.5562318,0.553939
0.6177768,0.557413,0.5541732
0.6183394,0.5558976,0.5533483
0.6178509,0.5551128,0.5526742
0.6177066,0.5567629,0.5546093
0.6164843,0.5609604,0.5564424
0.6145622,0.5652846,0.5564982
0.6166431,0.5636494,0.556887
0.6189668,0.5610033,0.5572378
0.6198575,0.5629854,0.5568091
0.619576,0.5620597,0.5568266
0.6187252,0.557263,0.5571798
0.6177594,0.5554401,0.5569536
0.6147953,0.5587055,0.5583745
0.6125502,0.5641728,0.5619726
0.6106525,0.564936,0.5658954
0.6089826,0.564536,0.5672229
0.6109048,0.5654928,0.563742
0.6126672,0.5602882,0.5616846
0.6122757,0.5571791,0.5644331
0.6117011,0.5613167,0.565814
0.6107943,0.5635487,0.563415
0.6113024,0.5630473,0.5617529
0.6135858,0.5636069,0.5637021
0.6160073,0.5661879,0.5652257
0.6165358,0.5657123,0.5645508
0.6121493,0.5639053,0.5644264
0.6081401,0.5642819,0.5642927
0.610487,0.5615958,0.5630228
0.6122654,0.5610097,0.5631592
0.6105949,0.5619026,0.5687907
0.6109517,0.5602256,0.5732325
0.611376,0.5611525,0.5654478
0.6098654,0.5595362,0.5548279
0.6095384,0.5580966,0.5542618
0.6099394,0.5631878,0.5565093
0.6105817,0.5667056,0.5553236
0.6120094,0.5652616,0.5553278
0.6137969,0.5626263,0.5555483
0.6159282,0.5623338,0.5535188
0.616466,0.5625953,0.5528395
0.61833,0.5622616,0.5555029
0.6231301,0.5628353,0.5589164
0.6230808,0.5622719,0.558515
0.6207449,0.562472,0.5558589
0.6209858,0.5622385,0.5551704
0.6192122,0.5590874,0.5547081
0.6196042,0.5560253,0.5543403
0.6218632,0.5554866,0.5537146
0.6194019,0.5604857,0.5527561
0.6181107,0.5651331,0.5532832
0.6189985,0.5640842,0.5515405
0.6187974,0.5630495,0.5501395
0.6199572,0.562126,0.5522296
0.6210441,0.5597636,0.5521829
0.6209629,0.5588925,0.553927
0.6197731,0.5593672,0.556944
0.6191498,0.5590669,0.5537419
0.6213338,0.5598651,0.5529619
0.6245989,0.5623546,0.5554355
0.6264292,0.5634983,0.5529621
0.6214503,0.5641336,0.5499333
0.6158105,0.5625899,0.5464113
0.6203649,0.5590383,0.544265
0.62548,0.5578986,0.5470558
0.6256894,0.5580341,0.5479297
0.6256133,0.558863,0.5493297
0.6229646,0.5596254,0.5512405
0.6211981,0.5613761,0.5499966
0.6222575,0.5636294,0.5531739
0.6205529,0.5620637,0.5555839
0.6184206,0.561226,0.5529113
0.6185835,0.5615902,0.5538107
0.6181002,0.5616371,0.5555719
0.6178854,0.5640401,0.5560052
0.6191843,0.5640796,0.5572919
0.6197322,0.5620715,0.555686
0.6193791,0.5598311,0.5544193
0.6194069,0.5572534,0.5565199
0.6189483,0.5582472,0.5579498
0.6167489,0.5589372,0.5636982
0.6144656,0.5578368,0.569623
0.6147679,0.5593739,0.56123
0.6148459,0.5631144,0.5530389
0.6124048,0.5671181,0.5576105
0.612706,0.5667647,0.5592018
0.6165433,0.5640111,0.5565482
0.6190958,0.5650685,0.5553287
0.6193611,0.5637528,0.5518275
0.6192358,0.5594348,0.5517942
0.6206395,0.5593567,0.5539644
0.621581,0.5601646,0.550901
0.6224877,0.560278,0.5488426
0.6252405,0.5608098,0.5480629
0.6254534,0.560503,0.5467233
0.6240245,0.5620201,0.5488664
0.6225537,0.5632367,0.5503815
0.6203202,0.5622016,0.5498356
0.6222438,0.5627596,0.5468649
0.6248834,0.5643458,0.5472534
0.6234065,0.5647537,0.5549134
0.6233438,0.5638738,0.5556001
0.6249989,0.5634228,0.5547609
0.6250628,0.564216,0.5571881
0.6250083,0.5639242,0.5551944
0.6250441,0.5630786,0.5568484
0.6252363,0.5614883,0.5537939
0.6269104,0.5587868,0.5470539
0.6279202,0.5589685,0.5489107
0.6259698,0.5592871,0.549586
0.6232687,0.5585812,0.552784
0.6232058,0.5616885,0.5574103
0.6238901,0.5622244,0.5546071
0.622148,0.5600327,0.5503728
0.6200992,0.5624815,0.5466322
0.6192001,0.5631289,0.5465117
0.6204419,0.5615044,0.5477847
0.6233568,0.561138,0.546037
0.6236518,0.5590514,0.5462052
0.621041,0.5597136,0.550364
0.6166926,0.5622415,0.5574111
0.6142658,0.5625126,0.5614523
0.6175496,0.5628394,0.5592102
0.6209017,0.5622903,0.5553454
0.6205711,0.562542,0.5529223
0.617948,0.5637663,0.551275
0.6146622,0.5637942,0.5491767
0.6138778,0.564168,0.5481871
0.614497,0.5637553,0.5489087
0.6155713,0.5637456,0.5511011
0.618355,0.5642105,0.5547732
0.6194058,0.5635821,0.5580577
0.6184678,0.5638506,0.5608639
0.6189316,0.5625299,0.5624846
0.6197565,0.5595078,0.5594858
0.6208113,0.5583744,0.5562284
0.6225053,0.5586342,0.5620275
0.6219866,0.5578393,0.5672375
0.6186866,0.5562713,0.5605016
0.6168979,0.5580525,0.5558883
0.6184378,0.5602335,0.5580175
0.6182282,0.5601818,0.5544268
0.6165612,0.5605428,0.5502505
0.6169951,0.5586373,0.5555845
0.6175708,0.5580562,0.560874
0.6190022,0.5615726,0.5575314
0.6192039,0.56316,0.5546067
0.6166197,0.561969,0.5542593
0.6145032,0.5585692,0.5524916
0.6122824,0.5560861,0.5529252
0.6145646,0.5582233,0.5523819
0.6194383,0.5617405,0.5496496
0.6181787,0.5627127,0.5500934
0.6173097,0.5597915,0.5569219
0.6190993,0.5568661,0.5649125
0.6195356,0.5564724,0.5585953
0.6212976,0.5555509,0.548872
0.6208128,0.5555321,0.5522745
0.6174205,0.5586053,0.5547976
0.6162425,0.56062,0.5552839
0.6171263,0.5595132,0.5567836
0.6205133,0.5585207,0.5543405
0.6233797,0.5582867,0.5548454
0.6221408,0.5581842,0.5537908
0.6208281,0.55848,0.5493832
0.6208465,0.5590061,0.5477397
0.6202281,0.5618518,0.5477906
0.6179993,0.5650721,0.5530604
0.6148062,0.5637055,0.5572531
0.6139344,0.5604099,0.5581656
0.6150311,0.5600356,0.5621343
0.6157257,0.5631071,0.5615496
0.6173048,0.5662093,0.5586337
0.6194939,0.5636346,0.560051
0.6198313,0.559086,0.5618896
0.6190677,0.5595784,0.5623317
0.6183378,0.5604278,0.5595614
0.6168279,0.5610914,0.5555368
0.615146,0.5630457,0.554775
0.6141969,0.5605839,0.5557901
0.6140382,0.5577866,0.5545915
0.61593,0.5584983,0.5526226
0.6191937,0.5596536,0.5531013
0.6197533,0.5623221,0.5545355
0.6174003,0.5657897,0.5564507
0.6160502,0.5674993,0.5580326
0.61679,0.5665559,0.5600493
0.6178765,0.5654604,0.5620811
0.6181361,0.5661108,0.5600181
0.6181164,0.5656839,0.5582373
0.6180415,0.5642448,0.5572239
0.6179681,0.5632909,0.5555653
0.6183544,0.5629529,0.5590044
0.6190643,0.5621989,0.5614879
0.6205756,0.5601309,0.5602085
0.6211438,0.5585691,0.5603896
0.6195383,0.5578912,0.557589
0.6184264,0.559238,0.5549897
0.6187142,0.5631414,0.5566232
0.620566,0.5662602,0.5562171
0.6236765,0.5663433,0.5548869
0.6246968,0.566122,0.5541368
0.6217374,0.5684793,0.5534453
0.6184588,0.566629,0.5533619
0.6162354,0.5617692,0.5510393
0.6134009,0.5628147,0.5513731
0.6173712,0.5645489,0.5567381
0.625555,0.5652241,0.5580375
0.6256694,0.5650775,0.5513851
0.6242719,0.563017,0.5450505
0.6245153,0.5653387,0.5492068
0.622984,0.5678088,0.5541312
0.6233919,0.5676545,0.5501409
0.6221795,0.5659218,0.5485263
0.620871,0.5597594,0.5475539
0.6225982,0.55739,0.5441357
0.6225093,0.561211,0.5460771
0.621731,0.5638289,0.5455588
0.6213976,0.5638965,0.543377
0.6212043,0.5651835,0.546684
0.6233003,0.5678924,0.5496581
0.6260119,0.5661121,0.5522341
0.6253541,0.5636005,0.5513632
0.6241612,0.5639246,0.5466993
0.625535,0.5636401,0.5457457
0.6244948,0.5641698,0.5477918
0.6218853,0.563844,0.552667
0.6207099,0.5639803,0.556696
0.6210777,0.5657573,0.5569352
0.6231483,0.565397,0.5559299
0.6220655,0.5649648,0.5518328
0.6206664,0.5643778,0.5486681
0.6212952,0.5634581,0.5483733
0.6205076,0.5622741,0.5483701
0.6218791,0.5586407,0.5490512
0.622239,0.5565919,0.548361
0.6191382,0.5606735,0.5502908
0.6174858,0.5670553,0.5579183
0.6185296,0.5673946,0.5633725
0.6234431,0.5644452,0.5567
0.6280338,0.5627148,0.5470999
0.6275953,0.5601455,0.5520697
0.622505,0.560991,0.5573582
0.6164871,0.5628157,0.5557597
0.6157827,0.5624977,0.558044
0.6173272,0.5645769,0.5554634
0.617538,0.5658091,0.5525647
0.6182062,0.5648837,0.5531804
0.6178478,0.5637812,0.5497363
0.6159532,0.5633239,0.5491302
0.614021,0.5639855,0.5496683
0.6141904,0.5624534,0.5544286
0.6151004,0.5614874,0.5621554
0.6144008,0.5624571,0.5597585
0.6146205,0.561648,0.5576787
0.6159026,0.5624826,0.5589971
0.6167972,0.5643379,0.5578408
0.6168587,0.5644843,0.5585128
0.615339,0.5656995,0.5584216
0.6142112,0.5655529,0.5581123
0.6146772,0.5643333,0.5587419
0.6154186,0.5639438,0.5590582
0.61536,0.5618627,0.559903
0.6141654,0.5620457,0.5587441
0.6137628,0.5631263,0.5569198
0.6152505,0.5608956,0.5560238
0.6169636,0.5599945,0.5534332
0.617264,0.5601958,0.5510728
0.6165668,0.5622483,0.554623
0.6179973,0.566208,0.5596392
0.6190253,0.5665204,0.5575474
0.6173268,0.5656709,0.5548516
0.6180685,0.5635453,0.5557185
0.6185828,0.5600953,0.554573
0.6172483,0.5624773,0.5532085
0.6177089,0.5652679,0.55149
0.6173093,0.5625835,0.5482221
0.6179,0.5617844,0.5487684
0.6189634,0.563219,0.5526933
0.6185093,0.5630298,0.555114
0.6207611,0.563171,0.5544644
0.6214968,0.5625645,0.5528144
0.6206181,0.5617831,0.5512525
0.6225508,0.5622228,0.5491004
0.6223556,0.5616673,0.5488088
0.6203349,0.5624132,0.546752
0.6204381,0.563349,0.5431964
0.6219638,0.5628271,0.5487508
0.6243963,0.564458,0.5558616
0.6269833,0.5651719,0.5554739
0.6262773,0.5647306,0.5539165
0.6232089,0.56457,0.5522428
0.6225061,0.561564,0.5532935
0.6206789,0.55996,0.5546045
0.6196455,0.5600692,0.5496489
0.6219937,0.5596759,0.5456934
0.6205237,0.5624648,0.5452886
0.6202874,0.564382,0.5461092
0.6217515,0.5635467,0.5471186
0.6199102,0.5640175,0.5478773
0.6200095,0.5640047,0.5526127
0.6185454,0.5640043,0.558079
0.617107,0.5658824,0.5594397
0.6187316,0.5671376,0.5580756
0.6185316,0.5664632,0.5574515
0.6214998,0.5645949,0.5566946
0.6246824,0.5639627,0.551993
0.6218771,0.566493,0.5509143
0.6197333,0.5690796,0.5555466
0.6205647,0.5683018,0.5577478
0.6195636,0.5673623,0.5558711
0.6170228,0.568469,0.5524141
0.6181279,0.5679537,0.5528969
0.6196338,0.5662408,0.5538884
0.6190835,0.5641071,0.5502686
0.6198096,0.561572,0.5479261
0.6191887,0.5633751,0.5477058
0.6183021,0.5658373,0.5499603
0.6181877,0.5650231,0.5552045
0.6176089,0.5653479,0.556752
0.618394,0.5650498,0.5553527
0.6180522,0.5632297,0.5572273
0.6175901,0.5622213,0.5592914
0.6175442,0.5624832,0.5587227
0.6161159,0.5647088,0.5607259
0.6166272,0.5657402,0.5636306
0.6170092,0.565232,0.5630204
0.6163205,0.5652465,0.5636678
0.6166816,0.5648487,0.5662001
0.6157555,0.5632657,0.5642935
0.6149022,0.559919,0.5583026
0.6151383,0.5581894,0.5545019
0.6144685,0.5596763,0.5565698
0.6139366,0.5617037,0.5599987
0.6155253,0.5628288,0.5573664
0.6174907,0.5607695,0.5543039
0.6167432,0.5589219,0.5575146
0.6161815,0.5609617,0.5602941
0.6168844,0.5629226,0.5582084
0.6156717,0.5643514,0.5556114
0.6152141,0.5658597,0.5566448
0.617199,0.5654222,0.5558382
0.618441,0.5648936,0.5551015
0.6173383,0.5651427,0.5603501
0.6158137,0.5633554,0.559126
0.6158662,0.5610409,0.5539948
0.6153141,0.5620656,0.5546566
0.6151562,0.5647948,0.553413
0.6171199,0.565873,0.550804
0.6167328,0.5650603,0.5517215
0.6147295,0.5643005,0.5546429
0.6147951,0.5645659,0.5537317
0.6149398,0.5644926,0.5531259
0.6142719,0.5636531,0.5578847
0.6143435,0.5627358,0.5589615
0.6141713,0.5623764,0.5582716
0.6133813,0.5624822,0.5583374
0.6145931,0.5624961,0.5580306
0.6168339,0.5625598,0.5585067
0.6184195,0.5624448,0.5560913
0.6185354,0.56267,0.5549516
0.6164892,0.5634714,0.5547253
0.6164773,0.5640563,0.5544927
0.6170328,0.5638938,0.5579665
0.6164091,0.5627764,0.5606154
0.6178827,0.5622745,0.5599268
0.6179099,0.5625259,0.5574922
0.6159827,0.5626847,0.5587214
0.6134693,0.5636164,0.5623558
0.6104696,0.5649881,0.5632452
0.6099788,0.5656845,0.5639139
0.6123598,0.5653986,0.5629446
0.616819,0.5659696,0.561544
0.6176714,0.5670044,0.5626361
0.6159454,0.5650364,0.5647376
0.6175928,0.5611975,0.5654858
0.6170042,0.558764,0.5632541
0.6162245,0.5595575,0.561293
0.6186352,0.5618817,0.5587854
0.6179329,0.5636843,0.5560713
0.6148874,0.565888,0.5565962
0.6135578,0.5649254,0.5581393
0.6155199,0.5625132,0.5604802
0.6178074,0.5635852,0.5625572
0.6175261,0.5636121,0.559674
0.6179082,0.5643365,0.5547935
0.6183312,0.566728,0.5556003
0.6168943,0.5666734,0.5554288
0.6165109,0.5679634,0.5508035
0.6177052,0.5670622,0.5514572
0.6186652,0.5638115,0.5526657
0.6199138,0.5654874,0.5522656
0.6212328,0.565688,0.5526301
0.6208986,0.5633047,0.55068
0.6196264,0.5624481,0.5524685
0.6192341,0.5611216,0.554725
0.6196799,0.561823,0.5546886
0.6208741,0.5624765,0.5559037
0.6237772,0.5619537,0.5536204
0.6259481,0.5630582,0.5519624
0.6250655,0.5624065,0.5528192
0.6245371,0.5619552,0.5519142
0.625307,0.5621318,0.5511301
0.6248305,0.5604702,0.5511783
0.6239026,0.5610591,0.552227
0.6235424,0.5615438,0.5539799
0.6232497,0.5610177,0.5551204
0.6228576,0.5633288,0.5508411
0.6219937,0.5653205,0.544681
0.6219396,0.5655941,0.5469928
0.6220689,0.5652012,0.548871
0.6193724,0.5650846,0.5469199
0.6171329,0.5655491,0.5491936
0.6183522,0.5647562,0.54879
0.6205762,0.5634733,0.5459206
0.6231494,0.5624757,0.5459236
0.6251907,0.5638606,0.5453183
0.6252556,0.5663989,0.5457744
0.6244199,0.5652392,0.5479958
0.6230881,0.5647125,0.550535
0.6210536,0.5654947,0.5511856
0.6210937,0.5632276,0.549848
0.6229152,0.5620616,0.5523993
0.6221297,0.5634407,0.5551378
0.6208723,0.5643056,0.5570723
0.6209665,0.5637723,0.5599146
0.6205726,0.5628725,0.5577071
0.6209503,0.5635312,0.5559264
0.62077,0.5649304,0.5532406
0.6195099,0.5655209,0.5480777
0.6185103,0.5644073,0.5517063
0.6175757,0.5633064,0.5545658
0.6182802,0.5642541,0.552187
0.6192121,0.5647238,0.555188
0.6192212,0.5642435,0.5591242
0.6188477,0.5628578,0.5600029
0.6177479,0.5607332,0.5580961
0.6188099,0.5596125,0.5558909
0.6203278,0.5568895,0.5569175
0.6199039,0.5555358,0.5566071
0.6202981,0.5609787,0.5554023
0.6202171,0.5657491,0.5555239
0.6198789,0.5633052,0.5537912
0.6204092,0.5614104,0.5515227
0.619111,0.5649061,0.5477734
0.615808,0.5659542,0.5438327
0.6127149,0.5636929,0.5515459
0.6139438,0.5629029,0.5657114
0.6176018,0.5621521,0.5678567
0.6179091,0.5624423,0.560685
0.6161272,0.5628247,0.5563609
0.6128951,0.5623271,0.5571313
0.6116119,0.5635969,0.554786
0.614049,0.5639864,0.5477291
0.6142596,0.5625784,0.5494479
0.6149241,0.5606438,0.5547266
0.6175942,0.5598705,0.5551926
0.6184275,0.5620434,0.5612314
0.6177366,0.5641295,0.5644759
0.6150112,0.5654406,0.5546542
0.6137234,0.5649625,0.5476515
0.61646,0.5630018,0.5550596
0.6189362,0.5639326,0.5628472
0.6175048,0.564383,0.5597179
0.6157045,0.5628184,0.5605921
0.6179924,0.5620033,0.5663113
0.6180885,0.5621928,0.5648756
0.6148463,0.5667871,0.5626896
0.6134249,0.5701183,0.5588231
0.61343,0.5669117,0.5523349
0.6146161,0.5658284,0.5505166
0.6150649,0.5652957,0.5521835
0.6165667,0.5625517,0.5572936
0.6178611,0.5629465,0.5612486
0.6155851,0.5641163,0.5594274
0.6159723,0.564967,0.5563833
0.6165581,0.5623807,0.5549463
0.6156681,0.5580703,0.5549762
0.6158782,0.5624311,0.5527564
0.6135429,0.5685348,0.5486313
0.6136084,0.5700017,0.5477956
0.6147496,0.5687958,0.5498882
0.6143896,0.5622674,0.553231
0.6177832,0.5570935,0.5565424
0.6187496,0.558103,0.5570795
0.6168989,0.5609768,0.5580694
0.6147636,0.562541,0.5625059
0.6113777,0.5624838,0.5620425
0.6144981,0.5625287,0.5591088
0.6222023,0.5614437,0.5603152
0.6259386,0.5607649,0.5584172
0.6215032,0.5616569,0.5599435
0.6132399,0.5627542,0.564378
0.612048,0.5645523,0.5602002
0.6132249,0.5640729,0.5583364
0.6130036,0.5633683,0.5592412
0.6155976,0.5641277,0.5559615
0.616523,0.562846,0.5549653
0.6169287,0.5621474,0.5556032
0.6188472,0.5624056,0.5557472
0.6195981,0.5616241,0.5549474
0.6198225,0.5610385,0.5527164
0.6189531,0.561817,0.5506841
0.6184875,0.5630665,0.5501022
0.6185044,0.5628288,0.5518638
0.6193288,0.5641734,0.5542138
0.6219854,0.5670313,0.5572266
0.6217099,0.5669886,0.5578198
0.6214226,0.5661647,0.5553129
0.6234512,0.5659004,0.5537487
0.6227479,0.5648565,0.5505246
0.6212323,0.5641946,0.5507446
0.6209316,0.5637038,0.5545828
0.6207477,0.5627792,0.5536255
0.618963,0.5623644,0.5508028
0.6177344,0.5620865,0.5431374
0.620982,0.5611157,0.5368815
0.6231915,0.5610057,0.5451282
0.6222414,0.5627482,0.5517933
0.6218984,0.5631799,0.5472974
0.622315,0.5617204,0.5459496
0.6224302,0.561655,0.5491168
0.6219279,0.5612361,0.5489988
0.6232594,0.5605201,0.5490435
0.62679,0.5614063,0.5507235
0.6300685,0.559995,0.5498612
0.6284065,0.5583987,0.5488599
0.622699,0.5600244,0.5466182
0.6215353,0.5633373,0.544247
0.6225611,0.5666439,0.5455577
0.6230103,0.565189,0.5425742
0.6241655,0.5625135,0.5394562
0.6230334,0.5627165,0.5431672
0.6217614,0.5621138,0.5447089
0.6201796,0.5629526,0.5479461
0.6185089,0.5642318,0.5522019
0.6182103,0.5639054,0.5478369
0.6174868,0.5646975,0.5475648
0.6190774,0.5668731,0.5526662
0.6218315,0.5694391,0.5538977
0.6241695,0.568598,0.5573278
0.6245599,0.5670872,0.5577428
0.6225304,0.5662353,0.5543269
0.6241032,0.5613668,0.5533172
0.6244745,0.5585067,0.5504165
0.6215523,0.5588849,0.5513567
0.6199176,0.5591829,0.5545105
0.6186121,0.5606114,0.5517652
0.620682,0.5622678,0.5485375
0.6215936,0.5645356,0.5476387
0.6200672,0.5634399,0.5490603
0.6213308,0.561349,0.54903
0.6205509,0.563189,0.5477702
0.6196754,0.563663,0.5498057
0.6198269,0.5646699,0.5513412
0.6197584,0.5660575,0.5549919
0.6215982,0.5649166,0.5598661
0.6202914,0.5656101,0.5601517
0.6176757,0.5672714,0.5557347
0.6165929,0.567671,0.5493258
0.6168592,0.5648355,0.5531408
0.6197607,0.5609442,0.5581421
0.6215784,0.5622598,0.5515679
0.6237361,0.5634644,0.5497655
0.6227999,0.561804,0.5501956
0.6181209,0.5625802,0.5457149
0.6193919,0.5628734,0.5460758
0.620039,0.5623808,0.5495609
0.6176741,0.5645811,0.5530465
0.6179818,0.5658149,0.5543755
0.6160818,0.5649204,0.5545902
0.6153444,0.5635401,0.5556567
0.619013,0.5626618,0.5539582
0.6215289,0.563373,0.5531914
0.6195825,0.5633283,0.5529705
0.6165462,0.5627691,0.5530585
0.618285,0.562498,0.5549592
0.6189384,0.5612792,0.5525269
0.6180455,0.5611229,0.5494218
0.6202763,0.5620647,0.5486812
0.6193412,0.5627033,0.550648
0.6179639,0.5627067,0.5571499
0.6187697,0.5622161,0.5594807
0.6193563,0.5626046,0.557059
0.6214558,0.5626149,0.555555
0.620082,0.5622753,0.5559429
0.6175034,0.5623344,0.5594358
0.6180993,0.5606466,0.5616952
0.617094,0.5589314,0.5586253
0.6166529,0.5587606,0.5518213
0.6185684,0.5585098,0.5484499
0.6201324,0.5589973,0.5514143
0.6206145,0.560838,0.5539544
0.6206128,0.5631028,0.5544356
0.6211794,0.5645848,0.5540482
0.6207502,0.5643762,0.5525449
0.620599,0.5648201,0.5505192
0.6208402,0.5657534,0.5497591
0.6187817,0.5632527,0.551332
0.6175511,0.5618604,0.5513765
0.6181884,0.5652938,0.553101
0.6190995,0.5679535,0.5585924
0.6197406,0.5675488,0.5593675
0.6193703,0.5645269,0.5545063
0.6194169,0.5633429,0.549281
0.6195002,0.564798,0.5486922
0.6199058,0.5635506,0.5497533
0.6222164,0.5645651,0.5475229
0.6238039,0.5662669,0.5486857
0.6211291,0.5648253,0.5494765
0.6169344,0.5663407,0.5487343
0.6169896,0.5671433,0.5555728
0.6183858,0.5658297,0.5597213
0.6194641,0.5642021,0.555431
0.6212938,0.561502,0.5505794
0.618264,0.5626389,0.5480989
0.6151391,0.5649414,0.5461079
0.6173706,0.5653488,0.544695
0.6189821,0.5656082,0.5490002
0.6202542,0.5648154,0.5503864
0.6205033,0.5643926,0.5487647
0.6177563,0.5640107,0.5533571
0.6168713,0.5644084,0.5540258
0.6176753,0.5655719,0.5535476
0.6184325,0.5634774,0.5541093
0.6201139,0.5616033,0.5506358
0.6213676,0.56265,0.5514256
0.6218958,0.5627411,0.5517653
0.622281,0.5622555,0.5507585
0.6217989,0.5625861,0.552044
0.6194983,0.5627284,0.5507732
0.6173454,0.5632998,0.5503937
0.6187276,0.5642217,0.5491033
0.6201255,0.5639965,0.549014
0.6179425,0.5639926,0.557029
0.6157672,0.5658318,0.5681116
0.6149849,0.5670432,0.5723063
0.6152175,0.5656903,0.5618667
0.6163323,0.5636486,0.5508425
0.6162828,0.5627478,0.5525251
0.6158721,0.5624038,0.5554674
0.6144221,0.5623321,0.5556407
0.6118691,0.5626861,0.5566983
0.6139969,0.5631767,0.5601009
0.6179758,0.5659578,0.5657455
0.6180711,0.5689605,0.5664495
0.6181593,0.5665773,0.5639236
0.6180507,0.563912,0.5635489
0.6169156,0.565559,0.5614188
0.6180284,0.5651967,0.5597413
0.6199084,0.562033,0.5599807
0.6205817,0.5611133,0.5577589
0.6164814,0.5637122,0.5577133
0.6109324,0.567343,0.5597855
0.6125513,0.566341,0.5604865
0.6151891,0.5614097,0.5629118
0.6151508,0.559498,0.5609403
0.6155131,0.5628272,0.5553568
0.6141237,0.5668465,0.5551629
0.6137149,0.5647301,0.555732
0.6149932,0.5623149,0.5557818
0.6154179,0.5649631,0.5575686
0.6154761,0.5650179,0.5582565
0.6153928,0.5655902,0.5567491
0.6171243,0.5671162,0.5538976
0.6182131,0.5652981,0.5558392
0.6153471,0.566783,0.5627336
0.6130302,0.5672635,0.5654243
0.614601,0.5649056,0.558774
0.6161843,0.5654729,0.5518859
0.6150005,0.5655483,0.5591049
0.6146346,0.5669321,0.5661001
0.6141482,0.5689146,0.5605476
0.6125042,0.5675722,0.559934
0.6143682,0.5660657,0.5625967
0.6165601,0.5645667,0.5607211
0.6173998,0.5632015,0.560199
0.6188135,0.562375,0.5579423
0.6179086,0.5620773,0.5573444
0.6176837,0.5628691,0.5594346
0.6185712,0.5624749,0.5578916
0.6177148,0.5624264,0.5580652
0.618096,0.5635254,0.5587699
0.6187948,0.5634398,0.5561814
0.620439,0.5641167,0.5533255
0.623277,0.5656546,0.5503065
0.6222777,0.5656154,0.5508473
0.6206355,0.5649335,0.5524577
0.6210345,0.5652936,0.5503748
0.6208504,0.5655158,0.5499238
0.6217038,0.5650212,0.5516101
0.6226763,0.5653734,0.5573841
0.6221207,0.5650226,0.5640103
0.6224879,0.5630972,0.559619
0.6241275,0.5612636,0.5514726
0.6251166,0.5605321,0.5475607
0.6234476,0.5622664,0.5479103
0.6216273,0.5657277,0.5536451
0.6239803,0.5687049,0.5547615
0.6257063,0.5671196,0.5517774
0.6227971,0.5635693,0.5506052
0.6204981,0.5651295,0.5472396
0.6208895,0.5643351,0.5457814
0.6220191,0.5609353,0.5488622
0.6235609,0.5628593,0.5546281
0.6250063,0.5633201,0.556418
0.6264719,0.5635935,0.5496911
0.6284433,0.5663406,0.5445401
0.6293617,0.5651253,0.5448592
0.6274673,0.5638621,0.5509589
0.6256926,0.5640903,0.5581147
0.6272792,0.5634,0.5585186
0.6284826,0.5628097,0.5593982
0.6275158,0.5604843,0.5588989
0.6276633,0.5587147,0.5528446
0.6280232,0.559362,0.5500667
0.6275925,0.5602411,0.5513514
0.627651,0.5621902,0.5508718
0.6262328,0.5633067,0.545708
0.6222537,0.5621236,0.5416693
0.6188373,0.5627075,0.5449106
0.6194446,0.564858,0.5490859
0.6227341,0.5665686,0.5488849
0.6247706,0.5681426,0.5486095
0.6264055,0.5681472,0.5506614
0.6279728,0.5675649,0.5518361
0.6261773,0.5662785,0.5513483
0.622755,0.5638355,0.5502726
0.6214364,0.5643809,0.5509694
0.620804,0.5659147,0.5563652
0.620358,0.5648679,0.5608822
0.6211862,0.5632863,0.556896
0.6208921,0.5624774,0.5516701
0.620294,0.5640447,0.5545295
0.6203231,0.5661754,0.556132
0.6191716,0.5644632,0.5537898
0.620139,0.5599401,0.5552924
0.621591,0.5555779,0.5550791
0.6198212,0.555491,0.5547838
0.6171976,0.5617088,0.5580219
0.6144008,0.5666028,0.558712
0.6149911,0.5656047,0.5582735
0.6180447,0.5644568,0.5565226
0.618127,0.564655,0.5530323
0.6180958,0.5637431,0.5514418
0.6181628,0.5635223,0.5551964
0.6177705,0.5644276,0.560345
0.6183544,0.5647166,0.5566505
0.6179153,0.5649889,0.5532798
0.6179776,0.5635259,0.555541
0.6184656,0.5601386,0.5557258
0.6186931,0.5610187,0.5587304
0.6198783,0.5645284,0.5597706
0.6193628,0.5651454,0.5558029
0.6182205,0.5652153,0.5534538
0.61807,0.5651038,0.5495551
0.6178269,0.5633735,0.5520522
0.6182278,0.5619623,0.5586003
0.6178977,0.5626883,0.554608
0.6168095,0.5646717,0.5515535
0.6157074,0.5652516,0.552164
0.614589,0.5636579,0.550164
0.6144946,0.5617428,0.5523453
0.6138145,0.5622828,0.5531833
0.6135029,0.5631061,0.5523205
0.6142859,0.5620809,0.5539647
0.6137496,0.5621599,0.5546934
0.6137597,0.5610027,0.5574093
0.6146813,0.5591674,0.5573629
0.6165236,0.5615374,0.5560537
0.6198589,0.5634312,0.5580144
0.6199119,0.5628929,0.5575393
0.6175348,0.5649118,0.5592142
0.6162479,0.567725,0.5595996
0.6152898,0.5671342,0.5561637
0.6176578,0.5668051,0.5550482
0.6208261,0.5684358,0.549988
0.6194233,0.565892,0.5456562
0.61933,0.5614508,0.5492323
0.6227072,0.5609675,0.5533094
0.6240607,0.5628024,0.5540472
0.6228767,0.5647005,0.5536491
0.6218093,0.5647627,0.552415
0.6230683,0.5668321,0.5488011
0.6243016,0.5708769,0.5477656
0.6233398,0.5684896,0.5491833
0.623153,0.5645829,0.5482096
0.6226282,0.5636304,0.5477057
0.6227153,0.5617892,0.5470966
0.6257373,0.5620925,0.5463669
0.6259241,0.5622556,0.5449691
0.62513,0.5605028,0.5419699
0.6279297,0.5623851,0.5431158
0.6283914,0.5647945,0.5463436
0.6271784,0.5645906,0.5494086
0.6286024,0.5636839,0.5513437
0.6304992,0.5625845,0.5445005
0.6321594,0.5623276,0.5376887
0.6304049,0.5615786,0.542965
0.6260244,0.5607235,0.5477455
0.6261452,0.5612285,0.5452208
0.6277159,0.5609523,0.5438797
0.6277389,0.5601534,0.5385031
0.6280617,0.5597128,0.5315592
0.627713,0.5613023,0.5395235
0.6286785,0.5661505,0.5505892
0.62948,0.5690118,0.5491648
0.6275427,0.5665512,0.5475494
0.6246643,0.5636134,0.5493714
0.6218387,0.5636367,0.5483574
0.6217664,0.562584,0.5484542
0.6229054,0.5619421,0.5489635
0.6228764,0.5650236,0.5486328
0.6238547,0.5648654,0.5505785
0.6238889,0.5605246,0.5519445
0.6232224,0.5572183,0.5516285
0.6240031,0.5575538,0.5520687
0.6241668,0.5598708,0.5529152
0.6229688,0.5598406,0.5516046
0.6201707,0.5619284,0.5480329
0.618379,0.5629841,0.5466748
0.6195693,0.5597761,0.5480999
0.6188765,0.5619631,0.5491243
0.6167518,0.5655459,0.5486524
0.6157635,0.5677541,0.5482508
0.6141528,0.5692228,0.5489223
0.6152772,0.5658891,0.5485541
0.6182103,0.5645833,0.5489563
0.6188906,0.5641386,0.5515877
0.6198648,0.5638915,0.5531777
0.619822,0.5662704,0.5522859
0.6197865,0.5638038,0.5505814
0.6215809,0.5611303,0.5515721
0.6208019,0.5603415,0.55282
0.6204185,0.558658,0.5528234
0.621677,0.5601522,0.554956
0.6224913,0.5628231,0.5554541
0.6249172,0.5671515,0.5521281
0.6242229,0.5690821,0.5470145
0.6200919,0.5669534,0.5442567
0.6191008,0.568146,0.5462478
0.6215422,0.5666412,0.5466095
0.6250508,0.5639135,0.5471753
0.6265043,0.5656287,0.5502963
0.6263333,0.564484,0.5489476
0.6265522,0.5632412,0.5448579
0.6262465,0.5641798,0.5419705
0.6265807,0.5638108,0.5411496
0.6274005,0.5640895,0.543163
0.6278754,0.5647712,0.5452522
0.6280263,0.565526,0.5462379
0.6275196,0.5654686,0.5460054
0.627476,0.5647617,0.5451327
0.6264977,0.5646157,0.5440492
0.6260107,0.5635815,0.5413161
0.6282841,0.5634811,0.5392032
0.6281871,0.5632092,0.5388327
0.6261767,0.5612551,0.5387798
0.6267499,0.5618352,0.540152
0.6284177,0.5642554,0.5426097
0.6306312,0.565626,0.5471251
0.6319398,0.5651307,0.551794
0.6301835,0.5625961,0.5502717
0.6268121,0.5617112,0.5475348
0.6238826,0.563134,0.547315
0.6249072,0.5643492,0.5444878
0.6279325,0.568283,0.5417302
0.6286509,0.5724461,0.5402544
0.6293736,0.5692602,0.5407239
0.6281428,0.563661,0.5458019
0.6251443,0.5618082,0.5487244
0.6243027,0.5624088,0.5496741
0.6221755,0.5650274,0.5516505
0.6201035,0.5668481,0.5512528
0.6206833,0.5676204,0.5516122
0.6211086,0.5685441,0.5524688
0.6208406,0.5675183,0.5524914
0.6205999,0.566169,0.5522023
0.621226,0.5649838,0.5498072
0.6218907,0.5644406,0.5494865
0.6231889,0.5646185,0.5488088
0.6242843,0.5638615,0.5444057
0.6234582,0.5644058,0.542444
0.6244592,0.5628336,0.5445685
0.6255385,0.5607828,0.5469913
0.6251556,0.5624649,0.5458252
0.6267998,0.5600496,0.5453
0.6285293,0.5587957,0.5474677
0.6288615,0.5626056,0.5468008
0.6285243,0.5626159,0.5454025
0.6267304,0.5624751,0.5435944
0.6246835,0.5627087,0.5410012
0.6271453,0.5620563,0.5389648
0.6308959,0.5631547,0.5361517
0.6284798,0.5627754,0.5378764
0.6256938,0.5626583,0.5461194
0.6254077,0.5628084,0.5535308
0.6260227,0.5635678,0.5502831
0.6285294,0.564963,0.5436679
0.6262772,0.5630189,0.5471271
0.6234788,0.5628692,0.5469156
0.6256293,0.5627576,0.5435611
0.6249537,0.5607125,0.546484
0.6236351,0.5615002,0.5439047
0.6236263,0.5612863,0.5434876
0.6219734,0.5628411,0.5477448
0.6204283,0.565871,0.5522079
0.6191603,0.5652103,0.5605305
0.620989,0.5652649,0.5551798
0.6233855,0.5653382,0.5461923
0.6216125,0.5651185,0.5512484
0.6204685,0.5651672,0.5519121
0.6212946,0.5639556,0.5509377
0.6237148,0.5651447,0.5531688
0.6272457,0.5667892,0.5497627
0.6281747,0.5660967,0.5494295
0.6276989,0.5662955,0.5518725
0.6260674,0.5672473,0.5524303
0.6224135,0.5665173,0.5550492
0.6200817,0.5666878,0.5550981
0.62184,0.5685966,0.5500202
0.6259142,0.5678903,0.5457466
0.6266794,0.5659402,0.5474657
0.624419,0.564577,0.550202
0.6234551,0.5631918,0.5483977
0.625104,0.5624181,0.5499308
0.6270874,0.5622203,0.5517579
0.6244315,0.563913,0.5453613
0.6215398,0.5653165,0.5403048
0.6223873,0.5661452,0.5424941
0.6222213,0.5671041,0.5486158
0.6224914,0.5655342,0.5531386
0.6241722,0.5645335,0.5514042
0.6253431,0.5636844,0.5486624
0.6252131,0.5618497,0.5486803
0.6235983,0.562745,0.5496602
0.623345,0.5646164,0.5509694
0.6222729,0.5651012,0.5509488
0.6190877,0.5628065,0.5495836
0.6175485,0.5603175,0.5492081
0.6191897,0.5627354,0.5481354
0.6229514,0.5651082,0.5463499
0.6244908,0.5629327,0.5480853
0.6243975,0.5599049,0.5489393
0.6243039,0.5589953,0.5479247
0.6206133,0.5639097,0.5508166
0.6166119,0.5707274,0.5542975
0.6178839,0.5683029,0.5575746
0.621069,0.5641869,0.5570937
0.6219808,0.5650044,0.548767
0.6231195,0.5625748,0.5425413
0.6233675,0.5624359,0.5411721
0.62149,0.5642141,0.5435476
0.6222337,0.5616658,0.5485853
0.6228045,0.5623576,0.5494631
0.6226409,0.5631096,0.5503559
0.6242092,0.5618787,0.5529897
0.6230899,0.5630646,0.5530133
0.6206066,0.563304,0.5529144
0.618968,0.5640113,0.5535349
0.6189101,0.5644503,0.5545413
0.6201322,0.5644719,0.5548776
0.6191836,0.5665599,0.5564161
0.6192187,0.5661363,0.5586183
0.6195475,0.5647184,0.5540698
1.019042,-0.02065169,0.1381218
1.019559,-0.02277472,0.1332391
1.018541,-0.01943401,0.1285599
1.018539,-0.01688987,0.1237678
1.01884,-0.01788884,0.1299799
1.017861,-0.01764182,0.1363704
1.017887,-0.01644011,0.1329787
1.018167,-0.01844677,0.131876
1.018123,-0.02178043,0.1322477
1.017919,-0.02267431,0.1279111
1.018293,-0.02394222,0.1266491
1.019031,-0.02386316,0.1293122
1.019537,-0.021767,0.1312949
1.019908,-0.02048812,0.1352774
1.020044,-0.01882872,0.1367349
1.021345,-0.01881534,0.1342016
1.022018,-0.0182729,0.1309106
1.021818,-0.01603997,0.1244263
1.021594,-0.01830401,0.1245568
1.019245,-0.02045734,0.1328771
1.018068,-0.01787879,0.1364166
1.01822,-0.01573639,0.1368394
1.018061,-0.01570952,0.1374481
1.020099,-0.01863215,0.1382267
1.021197,-0.02206838,0.1403569
1.019938,-0.02023745,0.141674
1.019759,-0.01823929,0.1396759
1.0229,-0.01995576,0.1326997
1.025728,-0.01911177,0.127301
1.021077,-0.01624702,0.1256674
1.014824,-0.01489689,0.1244132
1.014847,-0.01515975,0.1261269
1.016566,-0.01774118,0.1288366
1.016701,-0.01946097,0.1359017
1.015791,-0.01954563,0.1445142
1.014876,-0.01944183,0.140903
1.015265,-0.01826255,0.1361317
1.015481,-0.01757674,0.1398472
1.015116,-0.01625562,0.1395902
1.016377,-0.01466839,0.1371051
1.020715,-0.01489799,0.1368609
1.024606,-0.0136958,0.1331495
1.021642,-0.0118493,0.1328778
1.017194,-0.01209551,0.1355484
1.018441,-0.01151982,0.1338081
1.016937,-0.007977872,0.1364843
1.013743,-0.00603029,0.1407122
1.016853,-0.008764757,0.141968
1.018308,-0.01298947,0.1450911
1.017618,-0.01745045,0.1423861
1.01859,-0.01872443,0.1382836
1.017734,-0.01476561,0.1407142
1.018019,-0.0119594,0.1408331
1.018198,-0.01231249,0.140284
1.016574,-0.01274655,0.1442277
1.015628,-0.01226762,0.1469489
1.013912,-0.01149117,0.1465424
1.014133,-0.01099818,0.1475869
1.016992,-0.01090797,0.1498481
1.019754,-0.0111327,0.1499875
1.021248,-0.01002651,0.1519333
1.021425,-0.008221356,0.1538217
1.022121,-0.00690545,0.1487322
1.019441,-0.004858405,0.1437465
1.014875,-0.003798776,0.1428108
1.014876,-0.005016277,0.1433517
1.016096,-0.006070793,0.1458044
1.017871,-0.005546562,0.1458171
1.020647,-0.005270854,0.1460138
1.021495,-0.006358259,0.1481789
1.022227,-0.008156973,0.1481375
1.022506,-0.009892066,0.1477531
1.02085,-0.007567723,0.1468058
1.019602,-0.003936119,0.1489537
1.018804,-0.005613104,0.1514098
1.01663,-0.006174367,0.1488427
1.014793,-0.00369957,0.1483221
1.015839,-0.003145407,0.147978
1.01743,-0.001655943,0.1508138
1.016284,-0.001710908,0.1569306
1.014442,-0.006414931,0.1564529
1.01378,-0.01045863,0.1590488
1.013525,-0.01047511,0.1610632
1.014142,-0.008586824,0.1498224
1.014008,-0.00806414,0.1406789
1.013517,-0.006842547,0.1438863
1.014063,-0.006488898,0.1473997
1.012869,-0.009519691,0.1477124
1.012265,-0.009716208,0.1531891
1.01377,-0.007748839,0.1568246
1.014958,-0.006457878,0.1569612
1.016258,-0.005521525,0.1607154
1.018196,-0.005942907,0.1579867
1.021881,-0.005752051,0.1525694
1.023015,-0.008149663,0.1507243
1.019784,-0.01101282,0.147624
1.0189,-0.009487809,0.1481929
1.019594,-0.008536517,0.1479015
1.018923,-0.005595974,0.1477
1.016801,-0.001381799,0.1506549
1.013989,-0.003411324,0.1504207
1.013279,-0.006509339,0.1511797
1.012557,-0.006334349,0.151182
1.011895,-0.006742107,0.1526196
1.012939,-0.006223631,0.155678
1.012506,-0.003013532,0.1526159
1.012359,-0.002219394,0.1522456
1.013749,-0.00306358,0.1533789
1.013977,-0.002640919,0.1522584
1.013777,-0.0028791,0.1542263
1.013158,-0.002724313,0.1579577
1.013007,-0.002908761,0.1627003
1.014407,-0.00382829,0.1616382
1.014976,-0.004228879,0.1571987
1.01524,-0.004269852,0.1555042
1.015201,-0.002820766,0.1505169
1.013103,-0.00165013,0.1485853
1.011073,-0.001209614,0.1508637
1.011293,-0.001725068,0.1499714
1.014475,-0.004413215,0.1501627
1.018876,-0.005616636,0.1500304
1.020395,-0.003181105,0.1494318
1.019089,-0.0001542269,0.1520759
1.01823,-0.001104659,0.1529127
1.018121,-0.00109269,0.1545948
1.017846,0.005585305,0.1583548
1.018134,0.01013575,0.1546228
1.017819,0.008676631,0.148283
1.016058,0.006744772,0.1462561
1.014889,0.005041945,0.1454363
1.015045,0.001562498,0.1471574
1.015585,-0.001679287,0.1480786
1.015238,-0.004930056,0.1504343
1.01506,-0.01046466,0.1561369
1.01556,-0.01068023,0.1532615
1.015119,-0.008600027,0.1484445
1.015239,-0.01165947,0.1473475
1.015468,-0.0121394,0.1457778
1.014871,-0.01167995,0.1479304
1.01454,-0.009595955,0.1456075
1.013414,-0.004895879,0.1427446
1.012788,-0.00608047,0.1462797
1.012779,-0.006154919,0.1476423
1.013207,-0.005309656,0.1513705
1.015842,-0.009765553,0.1544728
1.018359,-0.01208638,0.1569748
1.019933,-0.01110367,0.161223
1.019752,-0.00975813,0.1548328
1.017721,-0.00939209,0.1495372
1.017137,-0.009543153,0.1528566
1.016334,-0.01051546,0.153155
1.015424,-0.01340049,0.1526563
1.01531,-0.01315693,0.1523749
1.014005,-0.01254636,0.1506232
1.013948,-0.0146586,0.1476534
1.015397,-0.01400497,0.1453102
1.018061,-0.01282668,0.1456324
1.020602,-0.01166253,0.1435289
1.019389,-0.008570439,0.1396681
1.018927,-0.008387416,0.138107
1.019954,-0.008930259,0.1403471
1.019033,-0.006994247,0.1482084
1.018511,-0.004928329,0.157018
1.01797,-0.002340719,0.1586393
1.018285,-0.004192085,0.1540257
1.021071,-0.009971233,0.1533189
1.022191,-0.01044666,0.1544623
1.018176,-0.01016891,0.1483084
1.011566,-0.01173926,0.1358675
1.009729,-0.01075165,0.1277055
1.011717,-0.009265135,0.1418344
1.011212,-0.005143277,0.1609212
1.011107,-0.001109145,0.1565255
1.013552,-0.002466587,0.1538101
1.016103,-0.003037189,0.1614034
1.017211,-0.002576633,0.1598024
1.015681,-0.005464471,0.1601426
1.014685,-0.00659449,0.1632196
1.015524,-0.005004995,0.1624078
1.014967,-0.006489674,0.1640779
1.013332,-0.00731689,0.1630914
1.012094,-0.004525858,0.1602392
1.012397,-0.003039612,0.1608291
1.013988,-0.003111984,0.1615137
1.014888,-0.003615164,0.1612862
1.015707,-0.002882279,0.1618723
1.016337,-0.002077207,0.1639646
1.016257,-0.004245741,0.1642233
1.015198,-0.007157563,0.1626616
1.013147,-0.01037825,0.1596823
1.013953,-0.008806972,0.1554276
1.016358,-0.003889281,0.156602
1.01674,-0.004809947,0.1591843
1.016566,-0.004563296,0.1593025
1.014218,-0.003347104,0.1631579
1.010481,-0.00590892,0.1664711
1.009404,-0.005553113,0.1651479
1.01131,-0.005187833,0.1631752
1.014073,-0.00504648,0.1626049
1.015521,-0.003620683,0.16258
1.018678,-0.005278447,0.1615157
1.020391,-0.005789908,0.1617026
1.015531,-0.004297918,0.1643833
1.011578,-0.003087485,0.1696381
1.010632,-0.002649156,0.1749224
1.01132,-0.004789159,0.1708578
1.014417,-0.006310381,0.1641415
1.015191,-0.006491553,0.1659389
1.012656,-0.006824502,0.1660397
1.009005,-0.005848508,0.1643924
1.008078,-0.003445803,0.1685671
1.009349,-0.002186528,0.1721656
1.009547,-0.003830788,0.1743508
1.011732,-0.004500326,0.1746859
1.011918,-0.002883772,0.1746546
1.011513,-0.001790479,0.1789293
1.016127,-0.001953702,0.1790596
1.01701,-0.003123412,0.1783457
1.013297,-0.002286433,0.182784
1.009984,0.001168878,0.1824673
1.008916,0.002929547,0.1807296
1.01119,-0.0003600786,0.1807751
1.011756,-0.004567868,0.1778896
1.012433,-0.002955641,0.1764837
1.01381,-0.001674804,0.1763295
1.01221,-0.003676514,0.1757308
1.012108,-0.002575369,0.1744719
1.01293,-0.002382304,0.1698204
1.012325,-0.003748381,0.1665329
1.012451,-0.004098671,0.1668719
1.013154,-0.006052305,0.1692325
1.015114,-0.00506627,0.1746632
1.016931,-0.003120669,0.1784231
1.014195,-0.004243837,0.1790755
1.009398,-0.002492778,0.1800469
1.007251,0.0005844061,0.1776953
1.005341,0.003846916,0.1733458
1.006202,0.00816791,0.1754453
1.012131,0.006534226,0.1805427
1.01543,0.002573549,0.1819276
1.016446,0.005339209,0.1829628
1.017178,0.01106899,0.1853096
1.015726,0.01475346,0.1877486
1.014136,0.01547966,0.1881203
1.011805,0.01313362,0.1858869
1.011694,0.00686063,0.1833701
1.012572,-0.003087146,0.1793728
1.0103,-0.005342932,0.1794888
1.010922,-0.001184085,0.1832407
1.011808,-0.004868575,0.1850622
1.010638,-0.007034542,0.1903019
1.012304,-0.004136742,0.1907921
1.012857,-0.004226666,0.1884601
1.012287,-0.002817606,0.1935635
1.012649,-0.00503906,0.1930339
1.012008,-0.009762789,0.1917568
1.010807,-0.009171307,0.194424
1.008814,-0.009628696,0.1915068
1.007451,-0.009651819,0.1919651
1.005718,-0.006262511,0.1929594
1.002928,-0.003145563,0.1898771
1.003259,-0.002280499,0.1905631
1.006555,-0.00486239,0.1921226
1.010619,-0.006325849,0.193165
1.012741,-0.005368654,0.1907847
1.013723,-0.005608826,0.1841994
1.015631,-0.006582536,0.1804559
1.014449,-0.007011223,0.1798252
1.01356,-0.005931044,0.1812589
1.013468,-0.00423181,0.1825727
1.00934,-0.003886378,0.1833587
1.007366,-0.004440243,0.1841742
1.007294,-0.005117178,0.1836502
1.008072,-0.005735491,0.1848739
1.011156,-0.005714152,0.1843488
1.010386,-0.005354935,0.1822823
1.009804,-0.005968403,0.1837375
1.010342,-0.007436889,0.1835007
1.009287,-0.00872741,0.1841407
1.011876,-0.008656132,0.1900246
1.012714,-0.007365335,0.1939859
1.009483,-0.005791039,0.1902744
1.007656,-0.003536206,0.1861565
1.008088,-0.00334471,0.1929307
1.009911,-0.004141573,0.198798
1.009728,-0.00143442,0.1949495
1.009728,0.001161557,0.193718
1.010973,0.003086996,0.192413
1.010992,0.003813496,0.1888064
1.011267,0.001791117,0.1898945
1.010051,0.002926296,0.1897426
1.009104,0.003398135,0.1884934
1.009474,0.001198791,0.1892276
1.010019,-0.0003825382,0.184925
1.013429,-0.004831507,0.1807058
1.014707,-0.005257315,0.182282
1.012359,-0.002851381,0.1806606
1.011129,-0.004864317,0.1795852
1.010034,-0.004583545,0.1835399
1.009409,-0.005412383,0.1835528
1.009751,-0.008121898,0.1826752
1.010001,-0.006554359,0.1823681
1.010378,-0.00573354,0.182171
1.010095,-0.005671914,0.1884683
1.00787,-0.005205778,0.1919182
1.00635,-0.006374304,0.1877244
1.008857,-0.008160327,0.1845428
1.011202,-0.01043773,0.1827832
1.012164,-0.009681398,0.1789155
1.013982,-0.006272209,0.1730103
1.011779,-0.005112484,0.1715571
1.008153,-0.005903632,0.1770926
1.009705,-0.008455292,0.1835942
1.010535,-0.01060279,0.1861675
1.009724,-0.009773046,0.1849156
1.013494,-0.008991782,0.1864907
1.016633,-0.008175816,0.1912575
1.014548,-0.006567013,0.1918066
1.011213,-0.00769064,0.1875041
1.008951,-0.01001584,0.1830691
1.009309,-0.009696154,0.1825565
1.010543,-0.007885901,0.1844311
1.010361,-0.004677847,0.1859455
1.011743,-0.0014851,0.1880631
1.014249,-0.003072129,0.1877716
1.01545,-0.006300264,0.184915
1.014676,-0.007166939,0.185009
1.012274,-0.008040304,0.1874528
1.01211,-0.01022359,0.1890676
1.012979,-0.01311742,0.186748
1.012184,-0.01154289,0.1837857
1.012377,-0.007778646,0.1883407
1.011781,-0.00935173,0.1920669
1.010732,-0.01020527,0.1887363
1.012149,-0.01176846,0.1873007
1.012865,-0.01655078,0.1873095
1.012456,-0.01548476,0.1844482
1.012419,-0.01445024,0.1800171
1.012516,-0.01607726,0.1796889
1.012235,-0.0146674,0.1851981
1.010581,-0.01421045,0.1848189
1.00926,-0.01266436,0.1804949
1.009523,-0.009931597,0.1816906
1.010037,-0.009603523,0.1823031
1.009475,-0.009290786,0.1846049
1.00846,-0.008874016,0.1870832
1.007437,-0.007219977,0.1845044
1.006401,-0.006274162,0.1863828
1.007022,-0.007561797,0.1852239
1.007404,-0.007917966,0.1818047
1.007828,-0.009704515,0.1880701
1.010807,-0.01214619,0.1900545
1.012634,-0.01199541,0.1878549
1.012625,-0.009167484,0.1865727
1.01252,-0.005218213,0.1833841
1.012347,-0.004763998,0.1852659
1.012834,-0.004666496,0.1876624
1.013337,-0.003423154,0.1903108
1.013919,-0.00552175,0.1913047
1.013064,-0.006053676,0.1858904
1.010982,-0.005045157,0.1856989
1.010921,-0.005919961,0.1872291
1.01125,-0.005956891,0.1854611
1.010854,-0.008130898,0.1871249
1.010278,-0.01080476,0.1879777
1.009577,-0.009750557,0.1862495
1.010534,-0.009116167,0.186403
1.011605,-0.009101408,0.1890235
1.011246,-0.007711084,0.1925369
1.011818,-0.006289671,0.1949572
1.013296,-0.004977779,0.1957366
1.014356,-0.003457514,0.1944824
1.015008,-0.003392262,0.1907248
1.013018,-0.007071182,0.1856113
1.010031,-0.01124379,0.180044
1.011949,-0.01048035,0.1781633
1.014533,-0.009415918,0.1804792
1.01344,-0.01254105,0.1805185
1.012816,-0.0139556,0.1821369
1.011213,-0.01426725,0.186393
1.008253,-0.01472058,0.1876814
1.006368,-0.0125692,0.1873507
1.004814,-0.01194684,0.1855569
1.005692,-0.009392187,0.1881579
1.006949,-0.007177517,0.1931634
1.006904,-0.0119002,0.1930481
1.008516,-0.01340244,0.1930598
1.010277,-0.01213227,0.1909378
1.011592,-0.01268538,0.1881195
1.011091,-0.01171362,0.1873346
1.008359,-0.01008502,0.1857291
1.006726,-0.007585166,0.1895992
1.006806,-0.008760601,0.1950809
1.009634,-0.01061099,0.1958042
1.010999,-0.007162916,0.1916211
1.009938,-0.005440683,0.1865781
1.012454,-0.005480782,0.1880093
1.013083,-0.005774547,0.1882584
1.010921,-0.007639919,0.1866206
1.011188,-0.008605827,0.1889836
1.010639,-0.008302341,0.1895532
1.009133,-0.006207311,0.1903677
1.006738,-0.005013124,0.1926384
1.004374,-0.006003976,0.1926095
1.004889,-0.007552194,0.1931498
1.007801,-0.009806948,0.194125
1.013096,-0.01013093,0.19359
1.015454,-0.009436764,0.1921665
1.014812,-0.00980119,0.1893274
1.014584,-0.009926337,0.1874526
1.008854,-0.01058235,0.1915364
1.003521,-0.011569,0.1960019
1.006774,-0.01229495,0.191815
1.010904,-0.0134675,0.187327
1.011295,-0.01362188,0.1892282
1.010024,-0.01030668,0.1898226
1.008677,-0.007155643,0.1904213
1.008835,-0.009059044,0.1916446
1.010313,-0.01074047,0.1882614
1.011379,-0.009318967,0.1877841
1.013624,-0.009547055,0.1897705
1.016491,-0.01010897,0.1866293
1.014669,-0.009438064,0.1857837
1.010972,-0.009599506,0.1892467
1.009261,-0.008603569,0.1909572
1.00909,-0.005898891,0.1905826
1.010375,-0.004155052,0.1904569
1.009661,-0.004032069,0.1942074
1.009253,-0.005554192,0.1980784
1.010325,-0.007698506,0.1974706
1.009354,-0.008805893,0.1959479
1.009528,-0.008483287,0.1928916
1.008972,-0.008158366,0.1891608
1.006746,-0.009232265,0.1905386
1.007414,-0.00900477,0.1929893
1.009636,-0.007036329,0.1906352
1.011722,-0.007295225,0.1877386
1.010661,-0.01062749,0.1866697
1.008274,-0.0136767,0.188138
1.008672,-0.01282971,0.1948393
1.007902,-0.01131339,0.1998057
1.006871,-0.01121321,0.1988968
1.005785,-0.009227475,0.1966759
1.004977,-0.009110559,0.1942014
1.008911,-0.01002605,0.1923763
1.010759,-0.006616443,0.1917254
1.008724,-0.005151128,0.1920498
1.007182,-0.008364652,0.1924807
1.005253,-0.0107046,0.1930574
1.008023,-0.01015626,0.1937936
1.012232,-0.00990607,0.1934217
1.011334,-0.01162104,0.194803
1.011583,-0.01043782,0.1956423
1.013114,-0.008781466,0.1972246
1.011768,-0.01019378,0.2016658
1.008505,-0.01009073,0.2006775
1.005148,-0.01121392,0.2006354
1.00484,-0.01322886,0.2028304
1.005812,-0.01119236,0.1951804
1.003698,-0.008740963,0.1859877
1.001903,-0.008123057,0.1827823
1.00331,-0.009137141,0.1807739
1.004792,-0.01026964,0.1832163
1.006351,-0.009639863,0.1901089
1.008801,-0.009536626,0.1939265
1.011157,-0.009918243,0.1978025
1.012753,-0.009464251,0.2004427
1.012065,-0.008795951,0.1955174
1.010608,-0.008138624,0.1941404
1.008563,-0.008347511,0.1959934
1.004741,-0.009441169,0.1940916
1.002167,-0.009928983,0.1935726
1.003697,-0.009738025,0.1904326
1.008758,-0.009663477,0.1875096
1.010893,-0.009721918,0.1880545
1.009356,-0.009590715,0.1886295
1.009674,-0.008612862,0.1913743
1.009663,-0.007337154,0.1904622
1.00872,-0.007152782,0.1893646
1.008728,-0.006857216,0.1903187
1.010739,-0.00526337,0.1851219
1.013324,-0.004990142,0.1812374
1.01086,-0.006289828,0.1829697
1.008459,-0.006711178,0.1870357
1.01009,-0.009046721,0.1903496
1.009607,-0.01258837,0.1900687
1.00757,-0.01260596,0.1886607
1.007319,-0.01150027,0.1867438
1.010301,-0.01107306,0.1867197
1.013899,-0.01177024,0.1855429
1.01265,-0.0135114,0.1817184
1.010654,-0.01416925,0.1823379
1.011445,-0.01556988,0.1819416
1.010859,-0.01566231,0.1795162
1.009969,-0.01389396,0.1817441
1.010026,-0.01479756,0.1820564
1.010208,-0.01559368,0.1771016
1.011645,-0.01520983,0.1762948
1.011125,-0.01532846,0.1814405
1.009665,-0.01516397,0.1828953
1.009931,-0.01503552,0.1829586
1.009266,-0.01328357,0.1850941
1.008888,-0.01097652,0.1861109
1.008467,-0.0111377,0.1892728
1.009284,-0.01341329,0.1864397
1.013191,-0.01630196,0.1804817
1.014428,-0.01672703,0.1839749
1.012416,-0.01351844,0.1847508
1.009395,-0.009546513,0.1847373
1.007571,-0.008291757,0.1886922
1.009498,-0.009542359,0.1846802
1.011186,-0.01077511,0.1805756
1.0114,-0.01149622,0.1812687
1.012187,-0.01112142,0.1800727
1.013391,-0.01084465,0.1785203
1.013485,-0.01138023,0.1779959
1.011883,-0.01135534,0.1805582
1.011391,-0.01283157,0.1845152
1.011074,-0.01442789,0.1845901
1.00984,-0.01303431,0.1855356
1.009869,-0.01191139,0.1911492
1.010715,-0.01259973,0.1926549
1.012275,-0.01235163,0.1903116
1.012829,-0.01049186,0.1912865
1.011336,-0.009246043,0.1903405
1.011017,-0.009596466,0.1893805
1.012049,-0.01033835,0.1908359
1.012448,-0.01142857,0.1881138
1.010836,-0.01292934,0.1867111
1.009254,-0.01270968,0.1878907
1.011469,-0.01109422,0.1866028
1.013484,-0.01101023,0.1840432
1.011811,-0.01103495,0.1809937
1.009507,-0.01005298,0.1823195
1.007842,-0.009633239,0.1846519
1.007888,-0.009513139,0.1825944
1.009245,-0.009890409,0.1815478
1.009961,-0.009780163,0.1786113
1.010882,-0.009483014,0.176153
1.009022,-0.009980542,0.1842493
1.005455,-0.009591113,0.1940225
1.007201,-0.009672043,0.1940028
1.010157,-0.0100876,0.1898403
1.012153,-0.01021453,0.188511
1.015013,-0.01046953,0.1889276
1.012774,-0.008271443,0.1912036
1.009195,-0.005873175,0.194782
1.007918,-0.005726345,0.197104
1.005195,-0.007119717,0.1980503
1.005177,-0.00895258,0.19655
1.006269,-0.007617105,0.1945145
1.006213,-0.006083825,0.1918949
1.008291,-0.007458311,0.1887658
1.008764,-0.007789017,0.1907648
1.008206,-0.007575221,0.1928455
1.009369,-0.008116496,0.1923351
1.009948,-0.009077595,0.1916441
1.009829,-0.01000857,0.1875406
1.009545,-0.007904247,0.1869059
1.009766,-0.006002578,0.190089
1.009839,-0.007883666,0.1904049
1.009356,-0.010364,0.1901964
1.008797,-0.01152421,0.1882663
1.007129,-0.009785616,0.1868438
1.007205,-0.008440389,0.1878588
1.010755,-0.009809264,0.1889057
1.013208,-0.008970498,0.1926051
1.011073,-0.009461181,0.1974993
1.00842,-0.0117959,0.2003224
1.009868,-0.01159429,0.1999152
1.01033,-0.01287717,0.1950367
1.008682,-0.01257589,0.1868409
1.008267,-0.009938945,0.1833746
1.006675,-0.009765318,0.1881231
1.007261,-0.009197821,0.19025
1.009233,-0.008950391,0.1912997
1.00711,-0.008356028,0.1931495
1.006388,-0.008054687,0.1895503
1.007525,-0.01077306,0.1890654
1.007815,-0.01123726,0.1873066
1.009732,-0.0101916,0.1830181
1.011041,-0.009550983,0.186359
1.011531,-0.009316794,0.1870253
1.013033,-0.01028011,0.1891885
1.014074,-0.009073127,0.1950626
1.012947,-0.007816143,0.1918109
1.01023,-0.006993097,0.1905394
1.009884,-0.007331448,0.1927312
1.010684,-0.01022141,0.1910624
1.009384,-0.009862468,0.1917547
1.008485,-0.009151075,0.1915964
1.008377,-0.009285578,0.1894452
1.008334,-0.007342271,0.1887154
1.009319,-0.006593259,0.1886724
1.01004,-0.005298093,0.1908793
1.009721,-0.005347924,0.1935678
1.009593,-0.008548908,0.1943937
1.00964,-0.01124478,0.1930912
1.008817,-0.01342782,0.1927655
1.007834,-0.01274343,0.1937487
1.007393,-0.01173918,0.1906715
1.007022,-0.01307955,0.1893777
1.007631,-0.01239277,0.1910064
1.008796,-0.01221613,0.1901914
1.008601,-0.012921,0.1921622
1.008899,-0.01182488,0.1936668
1.010239,-0.01045043,0.1919107
1.0098,-0.007509236,0.1914589
1.00937,-0.006130991,0.1912867
1.01002,-0.008263258,0.1909008
1.009985,-0.008693998,0.189199
1.011415,-0.008324337,0.1891893
1.012334,-0.009277637,0.1912232
1.008087,-0.00908463,0.1910224
1.00385,-0.005391648,0.1917484
1.005247,-0.001356064,0.1918645
1.006951,-0.003417629,0.1903428
1.006696,-0.007345294,0.1902518
1.008805,-0.009709387,0.190143
1.008549,-0.01371833,0.1903711
1.004675,-0.01326793,0.1903346
1.004362,-0.009972196,0.1904603
1.00706,-0.01067494,0.1924343
1.010988,-0.009590555,0.1943756
1.012257,-0.00919224,0.1949396
1.010085,-0.01168536,0.1933278
1.010409,-0.01159115,0.1898473
1.009791,-0.0119191,0.1867925
1.00905,-0.01104939,0.1884984
1.010418,-0.009406582,0.1919504
1.009396,-0.01039576,0.1897083
1.010319,-0.01042319,0.1873278
1.013699,-0.01220959,0.1861365
1.01556,-0.01334392,0.1834303
1.014221,-0.01164241,0.1848624
1.011058,-0.01207257,0.1854089
1.012367,-0.0120014,0.1836876
1.012275,-0.01322445,0.1845428
1.009195,-0.01487526,0.1839089
1.010541,-0.01338176,0.1845447
1.010492,-0.01367964,0.1860644
1.008314,-0.01279996,0.1863335
1.008492,-0.009157902,0.1881473
1.010035,-0.008030857,0.1861338
1.011897,-0.009926557,0.1847926
1.010639,-0.01227914,0.1860252
1.007953,-0.01203239,0.1795564
1.006569,-0.01218103,0.1740114
1.006782,-0.01388545,0.1763974
1.009312,-0.01564343,0.1772676
1.010497,-0.01875802,0.1763706
1.011401,-0.01670594,0.179539
1.013113,-0.01150326,0.1844487
1.012392,-0.01099303,0.1853545
1.011338,-0.00850604,0.1835702
1.010826,-0.005757698,0.1834977
1.009907,-0.008292654,0.1862011
1.008736,-0.01017022,0.1892442
1.007678,-0.01186891,0.1878727
1.007535,-0.01493914,0.1840429
1.007561,-0.01553537,0.1830108
1.010183,-0.01321095,0.1862748
1.013937,-0.01100431,0.1934608
1.012633,-0.01194055,0.1988276
1.010659,-0.01390612,0.1986357
1.011108,-0.01398094,0.1972729
1.009205,-0.01272661,0.1947948
1.007773,-0.0112554,0.1884326
1.00937,-0.01066956,0.1857575
1.010118,-0.009727274,0.1892125
1.009705,-0.00684541,0.1895959
1.009212,-0.004929664,0.1898924
1.008018,-0.007390827,0.1945332
1.006467,-0.01036388,0.1963415
1.006574,-0.009612608,0.1933054
1.007853,-0.008180981,0.1906829
1.008491,-0.006902129,0.1935162
1.010108,-0.006718971,0.1967491
1.009954,-0.009778707,0.1953896
1.007179,-0.0104309,0.1946626
1.006745,-0.008148012,0.1935777
1.006901,-0.007841211,0.1923266
1.007429,-0.007237154,0.19271
1.009877,-0.006995115,0.1894834
1.011437,-0.007965043,0.1869124
1.01072,-0.006117796,0.1909026
1.008873,-0.005327436,0.194783
1.009685,-0.007591655,0.1935189
1.010353,-0.008610731,0.19386
1.009052,-0.01027969,0.1964541
1.010043,-0.01161766,0.1923424
1.010202,-0.01302905,0.1892385
1.011089,-0.01851206,0.1951305
1.013158,-0.01950903,0.1987043
1.010623,-0.01271902,0.1954236
1.008266,-0.00780431,0.1929402
1.007226,-0.009063402,0.1935109
1.005285,-0.01112862,0.1916605
1.007044,-0.009062707,0.1891312
1.010546,-0.009670075,0.1894711
1.010944,-0.0121348,0.1893998
1.01082,-0.0103947,0.193674
1.011403,-0.009689244,0.1982494
1.010172,-0.00941106,0.1951696
1.010191,-0.009484871,0.195879
1.011659,-0.009558036,0.2001075
1.010883,-0.008264831,0.2002899
1.010067,-0.01028987,0.2001328
1.009427,-0.01012925,0.1997115
1.008789,-0.009266219,0.1998922
1.009424,-0.01220868,0.1991846
1.010613,-0.0127255,0.1966537
1.011516,-0.01245117,0.1954247
1.01014,-0.01136764,0.193876
1.00914,-0.009716124,0.1940031
1.010361,-0.009765244,0.1941576
1.011484,-0.009444926,0.1923034
1.012766,-0.009971293,0.1930986
1.011597,-0.00971676,0.1935897
1.008162,-0.010004,0.1937285
1.006177,-0.01277351,0.1960325
1.005235,-0.01386655,0.1970558
1.006301,-0.01164273,0.1967732
1.007997,-0.008559992,0.1946802
1.008535,-0.01053414,0.1920538
1.010088,-0.01329923,0.1933632
1.010223,-0.01203163,0.1963796
1.009104,-0.01280884,0.1976499
1.009977,-0.0136238,0.1971457
1.009879,-0.01335733,0.1954724
1.009363,-0.01264444,0.1956857
1.010036,-0.01029891,0.1978103
1.009781,-0.01186556,0.196867
1.010528,-0.01346511,0.1931262
1.011591,-0.01197459,0.1908108
1.011009,-0.01256189,0.191498
1.0112,-0.01269815,0.1931758
1.012112,-0.01224103,0.1930901
1.01271,-0.01252009,0.1934882
1.012634,-0.01151221,0.1953919
1.012096,-0.01083759,0.1939113
1.011549,-0.01124437,0.186406
1.009616,-0.01195075,0.1805248
1.007258,-0.01184982,0.1833586
1.005733,-0.01086083,0.1847913
1.005457,-0.01109863,0.1820174
1.007868,-0.01223437,0.1849673
1.010972,-0.01270834,0.1900739
1.012523,-0.01252464,0.1939263
1.01275,-0.0125861,0.1932624
1.012176,-0.01344007,0.1877147
1.011604,-0.01399429,0.1871381
1.010571,-0.01306981,0.1844212
1.009113,-0.01203984,0.1804627
1.008068,-0.01249692,0.1860687
1.007998,-0.01327045,0.1885579
1.009038,-0.01497335,0.1844532
1.010085,-0.01754476,0.1823167
1.011416,-0.01670326,0.182926
1.01163,-0.01412879,0.1832505
1.010339,-0.01393236,0.1812608
1.0104,-0.01465516,0.1827386
1.009709,-0.01523239,0.184295
1.009162,-0.01376519,0.1825202
1.01047,-0.01113832,0.1826572
1.010588,-0.01076136,0.18249
1.01208,-0.009657621,0.185479
1.012937,-0.009366779,0.1912787
1.010226,-0.01216964,0.192666
1.009615,-0.01270011,0.1928923
1.011495,-0.01134981,0.1925143
1.013156,-0.01017734,0.1916301
1.012416,-0.01025618,0.1943002
1.010075,-0.01256762,0.1962623
1.009611,-0.01253624,0.1923346
1.00932,-0.01040135,0.1878726
1.008924,-0.009336103,0.1867321
1.008272,-0.0094514,0.1847617
1.008205,-0.01031472,0.1857783
1.010629,-0.01027576,0.1908345
1.011493,-0.01051078,0.1908641
1.011101,-0.01059453,0.1895401
1.010766,-0.009891093,0.1902587
1.008966,-0.009980467,0.1870695
1.007148,-0.009422984,0.1833643
1.006664,-0.01003456,0.1827873
1.009167,-0.01205639,0.1834161
1.011391,-0.01368635,0.1836404
1.010774,-0.01604074,0.1829932
1.009411,-0.01797967,0.1834514
1.007652,-0.01936817,0.1843729
1.008333,-0.01651511,0.1873259
1.009772,-0.01201863,0.1910218
1.009553,-0.01484382,0.1888483
1.009976,-0.01655728,0.1867865
1.009453,-0.01384815,0.1888566
1.008866,-0.01283972,0.1908423
1.009406,-0.01052204,0.1937168
1.01053,-0.01092012,0.1925371
1.011282,-0.01476302,0.1871308
1.008268,-0.01561385,0.1853169
1.006363,-0.01546992,0.1843831
1.010278,-0.01512588,0.1842732
1.014927,-0.01511829,0.1854615
1.015634,-0.0154557,0.1847877
1.012144,-0.01390603,0.1873698
1.009185,-0.01279389,0.1901346
1.009111,-0.01193166,0.1886717
1.00823,-0.01052365,0.1888171
1.006516,-0.009362891,0.1900211
1.007497,-0.007820668,0.1901018
1.009716,-0.005993689,0.1886118
1.010849,-0.004122611,0.1867161
1.012791,-0.00624716,0.187822
1.012399,-0.01146578,0.1893013
1.009737,-0.01480274,0.1880403
1.010261,-0.01627936,0.183656
1.009086,-0.013547,0.1815597
1.007224,-0.01031139,0.1882842
1.008921,-0.00972095,0.1943282
1.008369,-0.009183356,0.1917249
1.008451,-0.01097215,0.1907655
1.011504,-0.01062077,0.1944214
1.012985,-0.008891772,0.1948559
1.012546,-0.01016036,0.1945212
1.009691,-0.009600298,0.1964536
1.006552,-0.009248575,0.1970455
1.005248,-0.008225314,0.1948428
1.006943,-0.006034266,0.1918842
1.009262,-0.007222278,0.1927526
1.006364,-0.008101082,0.1936283
1.005154,-0.008349209,0.1903927
1.009632,-0.008577254,0.1887723
1.011634,-0.008603455,0.1878832
1.008707,-0.01151362,0.1869908
1.005823,-0.01527672,0.1878117
1.008678,-0.01677847,0.1873972
1.011166,-0.01485329,0.1874326
1.009089,-0.01043804,0.1875062
1.009619,-0.007229193,0.1860213
1.010164,-0.008705657,0.1842419
1.009456,-0.01104502,0.1834842
1.010706,-0.009646713,0.1877606
1.010435,-0.01108847,0.1920843
1.00945,-0.01379266,0.1896887
1.009946,-0.01214412,0.1856513
1.011646,-0.01222974,0.1835042
1.013272,-0.01295264,0.1837088
1.013426,-0.01196466,0.1862338
1.013379,-0.01159232,0.1863259
1.011475,-0.009956335,0.1836153
1.008684,-0.0095793,0.1822784
1.009444,-0.0117656,0.1822979
1.010432,-0.01266155,0.1837851
1.009485,-0.01085918,0.1861958
1.010905,-0.009717392,0.1849988
1.013707,-0.01432901,0.1797676
1.015082,-0.01960525,0.1791058
1.015703,-0.01931856,0.1849094
1.01481,-0.01855685,0.1844865
1.013107,-0.01768191,0.178389
1.011379,-0.01292204,0.175568
1.010397,-0.009458261,0.1746539
1.011459,-0.009630758,0.1738739
1.011071,-0.009502453,0.1710112
1.009814,-0.009234516,0.1760103
1.009835,-0.00991763,0.1863155
1.009433,-0.01191031,0.1835029
1.009691,-0.01438992,0.1818045
1.008952,-0.01513795,0.1850702
1.007935,-0.01392996,0.1833047
1.00942,-0.01113336,0.1855049
1.010589,-0.009061473,0.1873982
1.012359,-0.006796339,0.1892962
1.014472,-0.004796649,0.1939204
1.012591,-0.006210224,0.1948432
1.007957,-0.003282026,0.1963227
1.005034,0.0013886,0.1958819
1.005251,0.001686968,0.1940005
1.005867,0.005737822,0.1966658
1.005502,0.00706389,0.2003828
1.006152,0.002728055,0.2046329
1.00978,-0.001083282,0.2061111
1.014868,-0.008300486,0.1974066
1.016442,-0.01195257,0.1821507
1.014874,-0.01333749,0.1733321
1.014644,-0.01802405,0.1688138
1.013947,-0.01770248,0.1580161
1.011697,-0.02001391,0.1475676
1.012241,-0.02319822,0.142971
1.012806,-0.02017464,0.1474747
1.010595,-0.02265742,0.1560946
1.011388,-0.0232827,0.1558476
1.015583,-0.02051852,0.1584958
1.019673,-0.02222066,0.1642066
1.021777,-0.01892459,0.1648292
1.020362,-0.01583272,0.1718972
1.017376,-0.01546606,0.1760912
1.01432,-0.01514991,0.172322
1.012678,-0.02097773,0.1714383
1.012366,-0.02523147,0.1691737
1.010971,-0.02551945,0.1642069
1.011806,-0.02538182,0.1582977
1.015701,-0.02619557,0.1534694
1.018427,-0.02880572,0.1536876
1.019498,-0.02591873,0.1550574
1.017164,-0.02047802,0.1557577
1.013977,-0.01606345,0.1584392
1.016167,-0.01378965,0.161697
1.017727,-0.01764101,0.1609468
1.015494,-0.02077453,0.1561927
1.014063,-0.02265364,0.1557779
1.011784,-0.0231718,0.1610827
1.010913,-0.02129414,0.1626276
1.012808,-0.02353286,0.1639327
1.016317,-0.02425076,0.1683247
1.022883,-0.0229524,0.1668523
1.023463,-0.02408842,0.1651309
1.018877,-0.02341553,0.1645308
1.019438,-0.02297901,0.1589489
1.019657,-0.02069975,0.1552178
1.018474,-0.01504815,0.1510267
1.016745,-0.01119764,0.1469873
1.01142,-0.00782158,0.1509984
1.010734,-0.006743685,0.1553048
1.01524,-0.01167452,0.1551217
1.017137,-0.01961393,0.1559603
1.014341,-0.0244608,0.1625246
1.010905,-0.02376411,0.1738776
1.01257,-0.022275,0.1777142
1.013322,-0.02231976,0.1679727
1.011294,-0.0230414,0.1609179
1.011106,-0.0238044,0.1668062
1.009651,-0.02243454,0.1713218
1.011056,-0.01938515,0.1671867
1.014799,-0.01556191,0.1609039
1.014079,-0.0108728,0.1543122
1.014417,-0.00870662,0.1539144
1.016304,-0.01102869,0.158582
1.017082,-0.01368076,0.1574127
1.019377,-0.01411302,0.158024
1.019202,-0.01451396,0.1622302
1.014566,-0.01662654,0.1591083
1.011171,-0.0197422,0.1502126
1.012145,-0.02054107,0.1438157
1.01335,-0.02056252,0.1473874
1.012071,-0.02328417,0.151212
1.012151,-0.02450314,0.1549051
1.011911,-0.02469585,0.1663998
1.009526,-0.0253798,0.1644274
1.009477,-0.02262908,0.1596542
1.010874,-0.02006881,0.1667486
1.014163,-0.01821226,0.1634718
1.01924,-0.01598339,0.1607028
1.019704,-0.01837462,0.1603121
1.018919,-0.02036864,0.1525811
1.020868,-0.01758102,0.1537152
1.021062,-0.0134342,0.1547448
1.020438,-0.008895787,0.1500677
1.01959,-0.007204686,0.1480785
1.016371,-0.008846948,0.1457816
1.014372,-0.009517777,0.1454895
1.015244,-0.009581572,0.143526
1.01567,-0.01038631,0.1430333
1.015044,-0.01137783,0.1502248
1.015221,-0.01309077,0.1541229
1.015496,-0.01405271,0.1513821
1.015089,-0.01442393,0.1500077
1.015144,-0.01590927,0.1571573
1.014485,-0.01538276,0.1640457
1.013448,-0.01472921,0.1601166
1.013565,-0.0163481,0.1588741
1.012262,-0.01773134,0.1643085
1.010589,-0.01995297,0.1642526
1.012221,-0.01922553,0.155524
1.015507,-0.01714232,0.146589
1.018377,-0.02026993,0.1486467
1.020036,-0.02151964,0.1494214
1.018594,-0.01935582,0.1389575
1.016495,-0.0180209,0.1355575
1.017338,-0.01553003,0.140507
1.017432,-0.01302819,0.1426262
1.015378,-0.01225208,0.1453915
1.014711,-0.01460702,0.1519341
1.014498,-0.01802033,0.1597004
1.013894,-0.01878852,0.1595312
1.014744,-0.01977424,0.1537381
1.016653,-0.02057742,0.1505074
1.017227,-0.0175013,0.1425985
1.017284,-0.01351195,0.1378551
1.018775,-0.01346354,0.1420146
1.020006,-0.01478175,0.1421525
1.0205,-0.01494222,0.14129
1.018618,-0.01586807,0.1424107
1.015369,-0.01518796,0.1443232
1.016287,-0.01479222,0.149049
1.016627,-0.01630331,0.1538386
1.014338,-0.01646786,0.1584211
1.016029,-0.0178516,0.1570232
1.019345,-0.01773249,0.1509579
1.021032,-0.01655404,0.148669
1.0194,-0.01838539,0.1461235
1.014561,-0.01877871,0.144006
1.013091,-0.01967449,0.1463349
1.013308,-0.01978458,0.1498897
1.012617,-0.01757493,0.1507946
1.012912,-0.01743613,0.1491459
1.012435,-0.01588794,0.1482544
1.014248,-0.01458426,0.1469521
1.016653,-0.01402605,0.1466337
1.016703,-0.01305835,0.1479262
1.018527,-0.01385448,0.1469183
1.018514,-0.01024828,0.1474019
1.017016,-0.006939228,0.1494582
1.016696,-0.009653302,0.1504636
1.014675,-0.01139449,0.1524074
1.014509,-0.01210864,0.1538367
1.014183,-0.01273096,0.1549849
1.011891,-0.01254473,0.1560169
1.014083,-0.01297165,0.1566748
1.016316,-0.01493186,0.1553072
1.014097,-0.01676399,0.1508639
1.013472,-0.01499511,0.1517104
1.015105,-0.01350382,0.1558768
1.015522,-0.013176,0.1560914
1.015269,-0.01086762,0.1563588
1.015199,-0.009313457,0.1548344
1.014947,-0.007089882,0.1520812
1.013546,-0.005001011,0.1551744
1.011868,-0.008144954,0.1582287
1.012877,-0.01113108,0.1544322
1.015603,-0.009594824,0.150262
1.017218,-0.009169961,0.1496951
1.017165,-0.01024405,0.1497839
1.017106,-0.009557827,0.150267
1.01845,-0.009559437,0.1500208
1.018205,-0.009835462,0.1495254
1.01662,-0.008958648,0.1492855
1.016892,-0.009734111,0.1468835
1.017493,-0.01074306,0.1450168
1.018247,-0.009710115,0.1442348
1.018393,-0.009242025,0.143682
1.017425,-0.01002554,0.1431518
1.017386,-0.009261337,0.1409283
1.01667,-0.006751347,0.1421764
1.017327,-0.005169911,0.1488764
1.019751,-0.006066149,0.1592573
1.019717,-0.007885957,0.1666111
1.020184,-0.007863832,0.1598421
1.021105,-0.008083392,0.1533976
1.019506,-0.008782154,0.1571612
1.017319,-0.007033259,0.1532895
1.016066,-0.00732102,0.1472581
1.016827,-0.01118479,0.148991
1.017886,-0.01510439,0.1437057
1.01786,-0.01643955,0.1364952
1.017196,-0.0137323,0.142032
1.015355,-0.01066808,0.1472839
1.015396,-0.00848041,0.1431855
1.01823,-0.01163085,0.1409091
1.020183,-0.01783204,0.1415575
1.019726,-0.01429486,0.1439025
1.018903,-0.01130108,0.149884
1.019495,-0.01436337,0.1489502
1.018727,-0.01256561,0.1459443
1.017236,-0.01123694,0.1496818
1.016819,-0.01101627,0.1507882
1.013844,-0.009692268,0.1527388
1.011688,-0.01005163,0.1544048
1.014384,-0.009306873,0.1515098
1.016237,-0.00981628,0.1539967
1.015322,-0.01039782,0.1547848
1.01618,-0.01097796,0.1510352
1.01907,-0.01349638,0.150049
1.020003,-0.01201202,0.1491338
1.018768,-0.009250178,0.150959
1.016691,-0.008438062,0.152763
1.014526,-0.009494472,0.1519145
1.014961,-0.01230114,0.1505302
1.015871,-0.01100467,0.1484033
1.015151,-0.00927303,0.1513978
1.015915,-0.009299428,0.1544615
1.016322,-0.007627859,0.1561291
1.014865,-0.008490997,0.1587896
1.015051,-0.009710118,0.1557494
1.015663,-0.009460537,0.1556817
1.015059,-0.01013408,0.1567463
1.014907,-0.009871596,0.1549936
1.013647,-0.01138849,0.1581575
1.012145,-0.01302205,0.1570673
1.014162,-0.01058888,0.1559251
1.016249,-0.008939992,0.1583219
1.015208,-0.009744994,0.1570297
1.014874,-0.01003204,0.1584171
1.016007,-0.009521114,0.1568793
1.017136,-0.009310132,0.1532062
1.019361,-0.008512096,0.1544564
1.020155,-0.007974839,0.1541206
1.018788,-0.01012933,0.1540763
1.018231,-0.0100812,0.1543758
1.016262,-0.006950413,0.153879
1.014475,-0.005992969,0.1544515
1.016553,-0.006172717,0.1534405
1.018125,-0.00707873,0.1515262
1.017344,-0.006899198,0.149115
1.014428,-0.003728361,0.148578
1.010384,-0.002155087,0.1498961
1.010448,-0.002820835,0.1521522
1.01244,-0.004094763,0.1580631
1.013469,-0.006253832,0.160252
1.015934,-0.01031681,0.1591212
1.015977,-0.01492147,0.1603841
1.015231,-0.01397682,0.154553
1.020156,-0.01027288,0.1470808
1.022921,-0.009407697,0.1507673
1.017733,-0.009442624,0.1542107
1.013193,-0.009991128,0.1519835
1.014168,-0.00961519,0.1527716
1.014905,-0.008490987,0.1538656
1.013917,-0.008413929,0.1544636
1.01572,-0.007705982,0.1563299
1.015892,-0.007028762,0.1539929
1.014335,-0.006943995,0.1529819
1.016056,-0.008348787,0.1554873
1.016356,-0.009255316,0.1554089
1.017347,-0.008125807,0.1597292
1.019073,-0.01016086,0.1665941
1.017665,-0.009920219,0.1659612
1.018965,-0.006341967,0.1592537
1.01972,-0.009086331,0.1515551
1.017283,-0.01061967,0.1502439
1.016302,-0.00871445,0.1528583
1.016204,-0.0111491,0.1540567
1.015995,-0.01171707,0.1559699
1.014011,-0.01044788,0.1541766
1.013434,-0.01136903,0.1515915
1.015301,-0.01012901,0.151611
1.015318,-0.009231861,0.1505061
1.015348,-0.01015731,0.1509594
1.015103,-0.01086138,0.1498987
1.014218,-0.01285233,0.149214
1.013878,-0.01224666,0.1509765
1.013738,-0.007792641,0.1494389
1.015068,-0.005744884,0.1511761
1.015714,-0.006610643,0.1568137
1.01604,-0.00472868,0.1609196
1.016879,-0.002164951,0.160826
1.015744,-0.006215777,0.1572049
1.01525,-0.01021912,0.1576833
1.017067,-0.007924537,0.1544788
1.018733,-0.00679479,0.1496798
1.01787,-0.007303525,0.1553399
1.015757,-0.006613461,0.157487
1.015093,-0.007367052,0.1502996
1.015395,-0.008550721,0.1449914
1.017247,-0.008590566,0.1470673
1.018882,-0.008557287,0.1504135
1.018864,-0.009632773,0.1487765
1.019581,-0.009552542,0.1501295
1.01948,-0.004861369,0.1541414
1.018312,-0.001921456,0.1565406
1.017539,-0.00634476,0.1576329
1.016164,-0.0100276,0.1551361
1.014714,-0.008524632,0.153922
1.014108,-0.008427552,0.1542733
1.014154,-0.01023122,0.1558677
1.014767,-0.008033477,0.1580544
1.01664,-0.00577113,0.1568608
1.018122,-0.007493911,0.1586188
1.017816,-0.008046521,0.1603359
1.017291,-0.008204489,0.1569181
1.016549,-0.008419042,0.152836
1.01749,-0.006172591,0.1507952
1.019477,-0.005110488,0.1551561
1.018469,-0.005677452,0.1595924
1.016796,-0.006588114,0.1582058
1.016391,-0.007079721,0.1568473
1.016099,-0.005955252,0.1561887
1.014044,-0.0051051,0.1564697
1.010573,-0.004578561,0.1591179
1.010576,-0.003878035,0.1614778
1.011916,-0.002963622,0.1612913
1.012066,-0.001859743,0.1606337
1.014689,-0.002354082,0.1597486
1.017047,-0.004764824,0.1548676
1.016725,-0.00643048,0.1484755
1.016395,-0.005434746,0.1464891
1.015819,-0.005179143,0.1513447
1.014989,-0.005996436,0.157292
1.015181,-0.005320145,0.1575555
1.015296,-0.005527937,0.1558523
1.01447,-0.005760153,0.1534622
1.014468,-0.005310111,0.1515561
1.01555,-0.005728653,0.1575791
1.015328,-0.00550816,0.1656028
1.014093,-0.005129877,0.1635518
1.013901,-0.003902336,0.1562405
1.014759,-0.002098555,0.1533253
1.015781,-0.002647351,0.1553627
1.016111,-0.003182387,0.1584756
1.016134,-0.00252185,0.1579796
1.017056,-0.002778276,0.158481
1.018316,-0.002753016,0.1632973
1.01843,-0.001192047,0.1634852
1.017377,0.001499557,0.1598112
1.015883,0.003482842,0.156593
1.013222,0.002097897,0.1530645
1.011467,-3.575508e-05,0.1520588
1.013152,-0.001007623,0.1528346
1.014614,-0.002642966,0.1536811
1.015303,5.670381e-05,0.1557245
1.015856,0.004800823,0.1606951
1.014794,0.002824424,0.1644421
1.015655,0.001689003,0.1633333
1.017086,0.004119564,0.1622226
1.016326,0.004225168,0.1603225
1.01527,0.005652014,0.1590957
1.014616,0.005425938,0.1597443
1.016034,0.002284871,0.1573212
1.017274,0.0008940792,0.1550887
1.017647,-0.002092529,0.1556475
1.017044,-0.00261406,0.1598832
1.014099,-0.000977315,0.164312
1.015079,-0.003614176,0.1634114
1.016221,-0.003192804,0.1602912
1.014381,-0.001090091,0.1571432
1.01567,0.0001676583,0.1578623
1.015624,0.005029317,0.1592618
1.01566,0.005124876,0.1566445
1.017493,0.00273169,0.1566219
1.016775,0.003264477,0.1563536
1.018302,-0.001064963,0.1548835
1.020295,-0.004432963,0.1574374
1.019368,-0.00244981,0.1635726
1.018685,-0.002412742,0.1698757
1.016719,-0.003151348,0.1663198
1.013259,-0.002485383,0.159761
1.011379,-0.001795018,0.1605001
1.011516,-0.001243907,0.1560262
1.013161,-0.001592341,0.1503017
1.017169,-0.003504617,0.1544584
1.019165,-0.005612876,0.1603505
1.016522,-0.00555487,0.1637119
1.015488,-0.003595156,0.1619246
1.016038,-0.002182996,0.158068
1.015782,-0.001792763,0.1602374
1.015045,0.001334312,0.1618019
1.013206,0.005769818,0.1608907
1.013118,0.004694272,0.1612474
1.014242,0.002258335,0.1607351
1.015113,0.001289159,0.1605536
1.016407,-0.002384727,0.1603612
1.016877,-0.002036794,0.1610569
1.016607,0.001997829,0.1617494
1.015577,0.002138283,0.1610611
1.014689,0.003000042,0.1639596
1.013544,0.003278006,0.1656321
1.011733,0.001990027,0.1612165
1.011485,0.003331008,0.1566219
1.010996,0.002722331,0.1560919
1.009901,0.002212949,0.157982
1.009863,0.002454284,0.1582675
1.010829,0.0006523139,0.1581335
1.013278,0.001811154,0.1571068
1.013851,0.003528647,0.1570197
1.010204,0.004257495,0.1630254
1.007946,0.004724706,0.1651608
1.012548,0.00378262,0.1558442
1.017438,0.005220853,0.1454559
1.015506,0.005011534,0.1463969
1.015241,-0.0001436068,0.1537074
1.018761,-0.004239003,0.1551295
1.018213,-0.003480947,0.155017
1.017578,-0.001563101,0.1531894
1.018535,-0.003278576,0.1483328
1.017948,-0.003183295,0.1501639
1.018975,-0.002111343,0.1536698
1.019008,-0.004191972,0.1550392
1.014813,-0.0033388,0.1580265
1.011159,-0.002316992,0.1594473
1.012319,-0.002314001,0.1582526
1.015332,0.001550559,0.1549303
1.015511,0.006339251,0.1500967
1.015935,0.007219936,0.1445253
1.015947,0.0008030243,0.1451473
1.012938,-0.005278036,0.1523768
1.012642,-0.004575566,0.1521508
1.016148,-0.004055226,0.1483189
1.019076,-0.006570816,0.1487318
1.017603,-0.01033451,0.1482077
1.015201,-0.01147253,0.1477723
1.016477,-0.008108764,0.1466321
1.016163,-0.005023581,0.144069
1.016192,-0.005111166,0.1427605
1.017386,-0.006635747,0.1437546
1.015193,-0.008025823,0.1498097
1.014986,-0.01037195,0.1547097
1.015638,-0.01005385,0.1530717
1.015444,-0.006792558,0.1516709
1.018247,-0.005970927,0.1523133
1.020149,-0.005254936,0.1513428
1.019852,-0.004941829,0.1515049
1.019952,-0.00433549,0.1554962
1.020606,-0.001756545,0.1568917
1.018578,-0.003057712,0.1516601
1.015242,-0.005194581,0.1466358
1.016661,-0.005491738,0.1492874
1.01741,-0.006068551,0.1563165
1.015946,-0.005350317,0.1586856
1.016992,-0.006416705,0.1553076
1.016927,-0.007402349,0.1510988
1.017249,-0.005365548,0.1523534
1.018304,-0.003563876,0.1559422
1.016164,-0.002031126,0.1569428
1.014212,-0.001723657,0.1601888
1.013471,-0.001598185,0.1565355
1.012436,-0.0009004015,0.1476599
1.013002,-0.001699217,0.1482928
1.014515,-0.001605737,0.149861
1.013996,-0.001995109,0.1530032
1.013944,-0.003200942,0.1589172
1.01697,-0.001255642,0.1568937
1.01807,0.001764207,0.1536044
1.014601,0.002740294,0.1550792
1.011112,-0.0005189208,0.1607643
1.012289,-0.00461859,0.1643916
1.014626,-0.003786542,0.1571481
1.014561,-0.003700446,0.1495582
1.016492,-0.005902283,0.1523856
1.017234,-0.005458252,0.1552425
1.01512,-0.005461676,0.1546242
1.015323,-0.005840544,0.1604621
1.014684,-0.005221346,0.1627077
1.012495,-0.00576379,0.1569254
1.011304,-0.005027348,0.1565369
1.014006,-0.002685774,0.1570736
1.018089,-0.001185469,0.1567245
1.014088,-0.002654368,0.1584999
1.010532,-0.004331051,0.1611978
1.013595,0.001210399,0.165306
1.0145,0.006507207,0.1641896
1.015644,0.004084355,0.1643536
1.017355,0.003069379,0.1670098
1.016211,0.004008326,0.163838
1.014598,0.002362766,0.1637712
1.012166,0.002385445,0.1642919
1.010741,0.00335133,0.1634605
1.011839,0.002483637,0.1664937
1.012991,0.002689875,0.1667957
1.013009,0.003092595,0.1658185
1.013854,0.002289031,0.1623983
1.01611,0.002025157,0.1578432
1.015352,0.001184914,0.1601172
1.013679,0.0010725,0.1615237
1.013984,0.001471763,0.1593925
1.012762,-0.0006488983,0.1589843
1.0122,-0.001960048,0.1614661
1.013034,-0.001383391,0.1641681
1.014131,-0.001236655,0.1635239
1.015613,-0.001590012,0.16402
1.013632,-0.002407295,0.1635491
1.011845,-0.002901867,0.1600055
1.014615,-0.00293884,0.1592225
1.016842,-0.002645353,0.1596477
1.015969,-0.002722033,0.161065
1.014598,-0.002439613,0.16469
1.014367,9.968823e-05,0.1679584
1.014053,0.00212572,0.166904
1.01445,0.001999611,0.1635808
1.015837,0.002717643,0.1641365
1.015333,0.004841658,0.1638302
1.01492,0.004615333,0.1629303
1.015593,0.00250336,0.1615972
1.01499,0.0001240326,0.1559363
1.014299,-0.004027406,0.1536021
1.01397,-0.003779903,0.1532148
1.014521,-0.001237049,0.1549707
1.015469,-0.003034147,0.1606617
1.013523,-0.0001570881,0.1614264
1.011797,0.003953249,0.1623674
1.013493,0.002508646,0.1643109
1.014278,0.002703562,0.1626571
1.012823,0.002966794,0.1627803
1.012648,0.00182415,0.1619344
1.015419,-0.0005417259,0.1604188
1.018509,-0.004077995,0.1622331
1.018157,-0.003103476,0.1623096
1.015799,-0.001909454,0.1581463
1.015229,-0.003340069,0.1527997
1.016997,-0.002739555,0.1498787
1.018244,-0.002487415,0.1514443
1.015368,-0.003101057,0.1580998
1.011663,-0.00261587,0.1649147
1.012776,-0.002741945,0.1615728
1.015722,-0.00293272,0.1507272
1.016576,-0.002440088,0.1464148
1.014034,-0.001963464,0.1527175
1.009763,-0.001141479,0.1601878
1.010737,-0.0008264612,0.1582801
1.014287,7.606851e-05,0.1552778
1.015086,0.002111297,0.1575313
1.017009,0.001101502,0.1550503
1.017279,-0.001878402,0.1562208
1.014757,-0.003201872,0.1622457
1.014388,-0.003131324,0.1615506
1.013963,-0.002377904,0.1613464
1.01492,-0.002802582,0.1602044
1.018725,-0.00308447,0.1572604
1.019224,-0.002405668,0.156318
1.015014,-0.003157121,0.1560651
1.010908,-0.003723539,0.1591314
1.011995,-0.004202783,0.158145
1.013739,-0.004371254,0.1563211
1.012094,-0.002883171,0.1555186
1.014204,-0.002630491,0.1498535
1.016652,-0.002832203,0.1495147
1.016025,-0.001966436,0.1505653
1.018707,0.0006258741,0.1504028
1.020349,0.003494318,0.1521241
1.018976,0.0004664971,0.1500309
1.01848,-0.003471383,0.1506461
1.01753,-0.00291909,0.154675
1.015978,-0.003920505,0.1580031
1.013814,-0.004152232,0.1584397
1.012433,-0.001805762,0.1581772
1.012546,-0.002755986,0.1612242
1.012932,-0.00338618,0.1545726
1.015403,-0.001981254,0.1464622
1.018429,-0.002157688,0.1516394
1.018368,-0.001417567,0.1543618
1.016736,-0.001816286,0.1518207
1.016096,-0.002914014,0.1512956
1.014807,0.001176635,0.151427
1.012397,0.005025647,0.1534004
1.01205,0.004461721,0.1547797
1.013335,0.002859412,0.1541302
1.015148,-0.0002163657,0.1539839
1.017549,-0.004109884,0.1542824
1.017997,-0.004294586,0.1545427
1.017126,-0.002380842,0.1556841
1.015761,-0.003046069,0.1566733
1.013225,-0.003239683,0.1554811
1.014168,-0.004070514,0.1548111
1.016888,-0.006674872,0.1555
1.016672,-0.00510231,0.1556061
1.018216,-0.003250733,0.157127
1.018595,-0.00285925,0.1571729
1.014964,-0.002141974,0.1535299
1.013308,-0.003308937,0.152309
1.01238,-0.002718416,0.153707
1.013869,-0.00240974,0.1545164
1.016606,-0.003302401,0.1547203
1.014582,-0.002376897,0.1555449
1.013129,-0.002899958,0.1573675
1.012888,-0.002931497,0.1554606
1.013621,-0.002465498,0.1528831
1.016074,-0.003092809,0.154865
1.013554,-0.002584033,0.1562538
1.011251,-0.002798358,0.1575592
1.012964,-0.002906197,0.1598164
1.012611,-0.002932224,0.1603211
1.01221,-0.004752761,0.1623717
1.012724,-0.005993019,0.1670336
1.012946,-0.005772517,0.1678801
1.015171,-0.005223386,0.1588162
1.01753,-0.005100111,0.1519476
1.016774,-0.003072015,0.1602698
1.014982,8.164145e-05,0.1670676
1.014245,0.0005173445,0.161657
1.012734,0.0004291597,0.1599785
1.012512,-0.002400463,0.1657485
1.015499,-0.007434995,0.1660005
0.8877685,0.363481,0.3269696
0.8879439,0.3660526,0.327472
0.8885347,0.3655985,0.329989
0.8864525,0.363554,0.3305185
0.8836614,0.3640611,0.3331144
0.8813883,0.3638938,0.334039
0.8824275,0.3636434,0.3348132
0.8852844,0.3642525,0.3373943
0.8848254,0.3634296,0.3374021
0.884359,0.3630585,0.3379062
0.8852665,0.3623874,0.3382833
0.8854182,0.362469,0.3382163
0.8860031,0.3651125,0.3392586
0.8842608,0.3673754,0.3386039
0.8805644,0.3687407,0.338162
0.8800566,0.3679515,0.3378771
0.8807712,0.3664648,0.3374068
0.8805578,0.3656302,0.3375765
0.8805249,0.3629313,0.3372704
0.8801719,0.3626246,0.3377506
0.8788342,0.3666457,0.3374324
0.8771867,0.3708897,0.3374865
0.878442,0.3718501,0.3387523
0.8827331,0.3701571,0.3388189
0.885428,0.3708386,0.3393393
0.8834637,0.3709209,0.3398264
0.8805658,0.3685234,0.3412865
0.8816507,0.3681883,0.341872
0.8805624,0.3696099,0.3378118
0.8760443,0.3715709,0.3331859
0.8764962,0.3709834,0.3310916
0.8794612,0.3691769,0.3336075
0.8810986,0.3697236,0.3360845
0.8810678,0.3692674,0.3345915
0.8800086,0.3682525,0.3362876
0.8817424,0.3644546,0.3385274
0.8824659,0.3599619,0.3373089
0.8815166,0.3651684,0.3372699
0.8825719,0.3705181,0.3377283
0.8836377,0.3666647,0.3372569
0.8853624,0.3645249,0.3365483
0.8864012,0.3664001,0.3359128
0.8874987,0.3677387,0.3359894
0.8895863,0.3700727,0.3360854
0.8867645,0.3701662,0.335202
0.883163,0.3686536,0.3336292
0.8835464,0.370582,0.3318805
0.8852128,0.3702912,0.3310934
0.8875131,0.3677616,0.3316555
0.887264,0.367505,0.3292411
0.886093,0.3653365,0.3262324
0.8869835,0.36308,0.3267693
0.8856448,0.3636905,0.3255
0.8828563,0.3651677,0.3287399
0.8815712,0.3682937,0.3364508
0.8815597,0.3713991,0.3351379
0.882523,0.3690131,0.3336236
0.8829977,0.3657344,0.3356887
0.8842014,0.3721014,0.3343999
0.8854487,0.3765121,0.3356273
0.8848049,0.368194,0.3367131
0.8863374,0.3626777,0.3359378
0.8880595,0.3653455,0.3371905
0.8854274,0.3663082,0.3378476
0.8829983,0.3649448,0.3387056
0.882947,0.3671226,0.3399165
0.8826308,0.3701334,0.3400673
0.8814818,0.3691304,0.3371974
0.8808206,0.3682894,0.331517
0.8806389,0.3671261,0.3282592
0.880265,0.3659538,0.3298232
0.8808815,0.3672647,0.336317
0.881917,0.3674837,0.3397227
0.8837388,0.3681635,0.336462
0.8856159,0.3679055,0.3351179
0.8846364,0.3648901,0.3313601
0.8843277,0.3633647,0.3260831
0.8848011,0.363726,0.3316247
0.8823484,0.3661157,0.3384986
0.8796007,0.3699663,0.3378456
0.8787513,0.3733552,0.338102
0.8802419,0.3728248,0.3394016
0.8826085,0.3700956,0.3386326
0.8844956,0.3711229,0.3375464
0.8860393,0.3708742,0.3355183
0.8844308,0.3695141,0.3338692
0.8819367,0.3707085,0.3338224
0.8811533,0.3708236,0.3331845
0.879983,0.3719743,0.3322961
0.8805061,0.3725814,0.3325948
0.8810344,0.3722465,0.3326482
0.8800603,0.3743314,0.3317915
0.8809555,0.3744289,0.3317079
0.8817384,0.3705873,0.3321574
0.8827911,0.3655909,0.3320985
0.88387,0.3657195,0.3325508
0.8819643,0.3681903,0.3330078
0.8808478,0.3673799,0.332453
0.8815574,0.3708733,0.3323527
0.8830835,0.3732886,0.332176
0.8848907,0.3689075,0.3314963
0.8841984,0.3671732,0.3321182
0.8812946,0.3685832,0.3321356
0.8762797,0.3705265,0.3315854
0.8742912,0.3711444,0.3322225
0.879844,0.3714404,0.3322446
0.8835671,0.3740096,0.3335755
0.8810142,0.3726901,0.3355234
0.8795589,0.3699146,0.3345382
0.8811381,0.3712329,0.3333248
0.8822118,0.3710546,0.3322511
0.8838904,0.3702492,0.3305961
0.8845186,0.3713462,0.3303298
0.8803059,0.3706847,0.3300991
0.8792199,0.3709548,0.3275441
0.8820979,0.3730476,0.3230316
0.8821812,0.3737877,0.3198905
0.8843742,0.3736055,0.3215132
0.8858906,0.3715335,0.3271974
0.8838755,0.3701991,0.3302787
0.8848958,0.3710119,0.3275189
0.8850782,0.3708252,0.3253626
0.8845305,0.3708433,0.325003
0.8869443,0.3711884,0.3239585
0.8878842,0.3725509,0.3227452
0.8876019,0.3737748,0.3201986
0.8871791,0.3707834,0.3222687
0.8865239,0.3674462,0.3298645
0.8862839,0.3676505,0.3333306
0.8869912,0.3685543,0.3313124
0.8898679,0.3678951,0.3258184
0.8909317,0.3685782,0.3218987
0.8892927,0.3719694,0.3217503
0.8871065,0.3740781,0.3180124
0.8854222,0.3719632,0.3128581
0.8876082,0.3676218,0.3110924
0.8889467,0.3665735,0.3088546
0.8883635,0.3669884,0.307947
0.8909911,0.3668971,0.3136263
0.8909324,0.3705544,0.3189441
0.8892594,0.3733469,0.3187701
0.8908696,0.3723235,0.3207035
0.8903317,0.3716313,0.3240236
0.889615,0.3714337,0.324278
0.890289,0.3707986,0.3241888
0.8900807,0.3698813,0.3251287
0.8920986,0.3684858,0.3262079
0.8921739,0.3660665,0.3280723
0.889189,0.3672409,0.3308547
0.8868668,0.3715217,0.3268425
0.8836329,0.3728865,0.3205426
0.8840708,0.3749104,0.322112
0.8859057,0.3757781,0.3211953
0.8840105,0.3737479,0.3182001
0.8846759,0.3726641,0.3185617
0.8850999,0.3698996,0.3167624
0.8831923,0.3692807,0.3187056
0.8834448,0.3711051,0.3236411
0.8833907,0.3731789,0.3254166
0.8841597,0.3777756,0.3257895
0.8852718,0.3763668,0.3241566
0.8843103,0.3725772,0.3239826
0.8838478,0.3731995,0.3242398
0.883682,0.3702547,0.3236328
0.8857718,0.3696929,0.326015
0.8883188,0.3722472,0.3260759
0.8858041,0.3701397,0.3258747
0.8835813,0.3706266,0.3285478
0.8849391,0.3715736,0.3309458
0.8845491,0.3706086,0.3332223
0.8816347,0.3733904,0.3295124
0.880429,0.373179,0.3274992
0.883207,0.3699639,0.3304826
0.8868159,0.3703585,0.3267329
0.8864244,0.3719504,0.3255315
0.8841509,0.3734398,0.3257525
0.8828562,0.3752943,0.3233558
0.8804798,0.3744572,0.3262407
0.8804473,0.3711534,0.3240186
0.8840131,0.3722671,0.3195753
0.8863507,0.3755327,0.3185865
0.8875154,0.3751209,0.3198666
0.8875435,0.3750652,0.3272514
0.8870313,0.3761001,0.3262592
0.8857653,0.3774947,0.3227047
0.8830331,0.3783193,0.3258101
0.8835082,0.3765639,0.3218873
0.8863924,0.3733789,0.3207329
0.8880949,0.3695775,0.3246422
0.887548,0.3702798,0.3235805
0.8850902,0.3735136,0.3246019
0.8844359,0.3745003,0.3274668
0.884708,0.377,0.3277804
0.8848808,0.3760438,0.3260684
0.8857967,0.3726872,0.3242421
0.886325,0.3739005,0.3250622
0.8872436,0.3739535,0.32636
0.8872618,0.3738762,0.3256376
0.8853617,0.3748696,0.3229029
0.8824678,0.3724227,0.3197829
0.8818935,0.3697491,0.3202342
0.886788,0.3678482,0.3218449
0.8902373,0.3695644,0.32
0.8875981,0.3750126,0.3191549
0.8838634,0.3755343,0.3201222
0.8829277,0.3736607,0.3214655
0.884467,0.3732017,0.3233639
0.8861769,0.3721308,0.3215164
0.8873365,0.3726904,0.3197527
0.8876546,0.3728646,0.3190429
0.8874985,0.3705809,0.3179745
0.8873268,0.3699669,0.3212714
0.8867016,0.37198,0.3222405
0.8866692,0.3736487,0.3200382
0.8868891,0.3750429,0.3177071
0.8870057,0.3746099,0.3134739
0.887661,0.370964,0.3130422
0.8889763,0.3709236,0.309416
0.8914328,0.3720309,0.3040611
0.8948298,0.3691389,0.3117372
0.8966966,0.3681843,0.3185681
0.8946786,0.3684118,0.3146646
0.8928037,0.3695674,0.3132909
0.8935254,0.3717454,0.3139551
0.8947204,0.3705999,0.309012
0.8962344,0.36942,0.3026227
0.8952531,0.3680651,0.3009757
0.8939277,0.3648436,0.3057035
0.896508,0.3633678,0.3101328
0.8976051,0.3649531,0.3065662
0.894944,0.368156,0.3042332
0.8923165,0.3711535,0.3090475
0.892813,0.3760972,0.3135978
0.895209,0.3811332,0.3170588
0.8938827,0.3804681,0.3166882
0.8888147,0.376448,0.3139749
0.8836336,0.3743801,0.315949
0.8813025,0.3774145,0.3175062
0.8839101,0.3834237,0.3172206
0.8883494,0.3850784,0.315174
0.8909553,0.3784852,0.3135431
0.8891356,0.3669747,0.3255035
0.8852424,0.3614698,0.3368652
0.8840929,0.3673185,0.3250869
0.88164,0.3737475,0.3137666
0.8805934,0.3754505,0.3212288
0.8832709,0.3808518,0.3261733
0.8816159,0.3878059,0.3263247
0.8813021,0.3869454,0.3290601
0.8829706,0.3831217,0.3239002
0.8811601,0.3813818,0.3182976
0.8821477,0.3780093,0.3177552
0.8830168,0.376422,0.3143162
0.8848666,0.3770985,0.3100981
0.8891968,0.3751257,0.3074908
0.8867245,0.3737489,0.317527
0.8821393,0.3727424,0.3302453
0.8799495,0.3746682,0.3232324
0.8797363,0.3808811,0.3190082
0.8811364,0.3824003,0.3247001
0.8785134,0.3839434,0.3227582
0.8773419,0.3830647,0.3211968
0.8812819,0.3762472,0.3214968
0.884462,0.3779496,0.3202872
0.8849637,0.3783811,0.3185997
0.8817839,0.3742364,0.3172042
0.8792885,0.3776837,0.3236063
0.8798069,0.3785066,0.3289173
0.8798846,0.3786868,0.3282984
0.882586,0.3802496,0.3325095
0.8869512,0.3772456,0.3356633
0.8858899,0.3777452,0.3326518
0.8808177,0.377631,0.3278783
0.8781063,0.3744813,0.3249003
0.8790506,0.3733956,0.3250741
0.8811681,0.3731206,0.3254014
0.8833556,0.375112,0.328012
0.8853647,0.3754664,0.327958
0.8850479,0.3754244,0.3220188
0.8831101,0.3773616,0.3209421
0.8833125,0.3768358,0.3226439
0.8835283,0.3770215,0.3204801
0.8829889,0.3763902,0.3183007
0.8838414,0.3747942,0.3186299
0.8840905,0.3753363,0.3187884
0.8850505,0.3748779,0.3202826
0.8856734,0.3758935,0.3245896
0.8842323,0.3769672,0.3250551
0.8837459,0.3758954,0.3238866
0.883172,0.3752511,0.3229987
0.8838843,0.3729508,0.3196667
0.8870058,0.3711197,0.3206056
0.8893849,0.3703989,0.3227159
0.8901074,0.3681594,0.3217816
0.8893917,0.36798,0.3210404
0.8870514,0.3713895,0.3151673
0.8842175,0.3747425,0.3091322
0.8878253,0.3747206,0.3132891
0.8938723,0.3731032,0.3172104
0.8933774,0.3733995,0.3129677
0.8940447,0.3739994,0.311183
0.8944102,0.3730725,0.3132986
0.8908184,0.3717348,0.3127391
0.8906599,0.3710469,0.3137919
0.8900595,0.3731156,0.3155482
0.8877499,0.3762762,0.3143923
0.8866043,0.3755731,0.3154976
0.8859267,0.3759096,0.3176814
0.8889908,0.3790107,0.3174376
0.8914087,0.3771389,0.3147588
0.8897388,0.3734628,0.311558
0.8880652,0.3718337,0.3138055
0.8860965,0.371669,0.3170653
0.8843302,0.3738409,0.3162821
0.8829202,0.3738095,0.3191345
0.8815104,0.3730293,0.3224857
0.882856,0.3731782,0.3217204
0.8849252,0.3716288,0.326619
0.885376,0.372162,0.3325482
0.8874595,0.3728299,0.3282543
0.8906878,0.3726539,0.3241511
0.8902855,0.3739874,0.3259023
0.8870854,0.3727862,0.321694
0.8847199,0.3724764,0.3158373
0.8823745,0.376932,0.319728
0.8803821,0.3803736,0.322692
0.882835,0.3780071,0.3194366
0.8871317,0.3729428,0.3180111
0.8869018,0.3713489,0.3164389
0.8875722,0.3711388,0.3154566
0.8926952,0.369795,0.3157343
0.893494,0.3691666,0.3143558
0.8888653,0.3701706,0.3197485
0.8827591,0.3744023,0.3275947
0.8795453,0.3785079,0.3260925
0.8853282,0.3782696,0.3233662
0.8916137,0.3760791,0.3204267
0.8902104,0.37506,0.3147251
0.8873213,0.3741605,0.3170117
0.8848412,0.3735153,0.3211273
0.8831588,0.37646,0.3194095
0.8849118,0.3788428,0.3203141
0.885454,0.3776829,0.3217081
0.8841961,0.377495,0.3245084
0.8858031,0.3779595,0.3293076
0.8868586,0.3777961,0.324097
0.8864558,0.3773263,0.317724
0.8872021,0.3753075,0.3188325
0.8866911,0.3709648,0.3188651
0.8864173,0.3687038,0.3220778
0.886452,0.374023,0.3269094
0.8853838,0.3811559,0.325178
0.8849272,0.3824493,0.3242212
0.88194,0.3782898,0.3265343
0.8794141,0.3746011,0.3259354
0.8820487,0.3754915,0.3225387
0.8842017,0.3753405,0.3197573
0.8840439,0.373325,0.3196273
0.883114,0.3740789,0.3213622
0.8818407,0.3754349,0.3234248
0.881114,0.3767087,0.325808
0.880165,0.3770826,0.3252101
0.8809514,0.376655,0.3229652
0.8836323,0.3782786,0.3264702
0.8848657,0.3781173,0.3324126
0.8833289,0.3767545,0.3332194
0.8812835,0.376484,0.3258548
0.8835764,0.374358,0.3174264
0.8863701,0.3743574,0.3198294
0.8860916,0.374921,0.326149
0.8869017,0.3733348,0.3285409
0.8837263,0.3762397,0.3273314
0.8783906,0.3787564,0.3204092
0.8812755,0.3757869,0.3154309
0.8862037,0.3741035,0.3162098
0.8875766,0.375111,0.3179232
0.8864533,0.3753338,0.3202819
0.8835003,0.3746968,0.3228558
0.8844876,0.375044,0.3237838
0.8858884,0.375543,0.3248896
0.8845921,0.376707,0.3289841
0.8857236,0.3793913,0.3286589
0.8849108,0.3798156,0.3253807
0.8841417,0.3789129,0.3277795
0.8873473,0.3774368,0.3275863
0.8877784,0.3740468,0.3269189
0.8866978,0.3744133,0.3289194
0.8840951,0.3769588,0.3264074
0.8812437,0.3762119,0.3237844
0.8854215,0.3762368,0.3202791
0.8892697,0.37659,0.3191917
0.887059,0.374759,0.3221084
0.8850103,0.3731208,0.3186168
0.885071,0.3716506,0.3168173
0.8862825,0.3723122,0.3185905
0.8882715,0.3746119,0.3156815
0.888996,0.3751186,0.3138438
0.8893586,0.3752563,0.3136687
0.8904628,0.3748548,0.3141744
0.8876734,0.3751834,0.3160196
0.8846976,0.3769778,0.3170157
0.8865888,0.3772873,0.3179643
0.8873347,0.3773211,0.3179803
0.8873471,0.377677,0.3181077
0.8878814,0.3780039,0.3182385
0.8871914,0.3778353,0.3166372
0.8879506,0.3772734,0.3128133
0.8893839,0.3774024,0.3071199
0.890636,0.376352,0.3072401
0.8906695,0.3747482,0.310335
0.8897537,0.3716586,0.3106551
0.890149,0.3698546,0.3145568
0.8884396,0.3741682,0.3154094
0.8857507,0.3761172,0.3122832
0.8859066,0.3745657,0.3140674
0.8868334,0.3746966,0.3129712
0.8887403,0.3734041,0.3114156
0.8910726,0.3725738,0.3153073
0.8902619,0.3745913,0.3157451
0.8882387,0.3784935,0.3154066
0.8890107,0.3816733,0.3184977
0.8909429,0.3809519,0.3206913
0.8914506,0.3798668,0.3204747
0.8910596,0.380426,0.3176748
0.8891591,0.378661,0.3160954
0.886639,0.3750663,0.3148639
0.8872643,0.3744334,0.3136789
0.8891342,0.3752991,0.3172697
0.8888116,0.374568,0.319445
0.8888209,0.3732142,0.3203163
0.8889506,0.3716908,0.3234787
0.8875314,0.3719684,0.3229034
0.8864985,0.3729,0.3218327
0.8857718,0.3729765,0.321639
0.8858269,0.374795,0.3186672
0.8855793,0.3761022,0.3163415
0.8844827,0.377167,0.3164827
0.8865091,0.3791443,0.3183354
0.8887359,0.3779324,0.3199921
0.8886064,0.376908,0.3210793
0.8879344,0.3783886,0.3203592
0.8856944,0.3777684,0.3184989
0.8848006,0.3773683,0.3198912
0.8840233,0.3784201,0.3210093
0.8800638,0.3784286,0.3223405
0.8797912,0.3788475,0.3247338
0.8828092,0.3768567,0.3239434
0.8836123,0.373673,0.325901
0.8853061,0.3749724,0.3276856
0.8867166,0.3754734,0.3205953
0.8882534,0.3735434,0.313976
0.8907577,0.3737039,0.316906
0.8856613,0.3752439,0.3220438
0.8791986,0.3787978,0.3232009
0.8807013,0.3811426,0.3240006
0.882857,0.3770881,0.3228567
0.8835491,0.3732456,0.3212471
0.8836498,0.3753866,0.3228255
0.8831048,0.3776053,0.3221539
0.8844148,0.3779863,0.3225766
0.8848876,0.3799309,0.3263415
0.8835475,0.3808102,0.3283951
0.8821627,0.3790943,0.3289623
0.8817385,0.3761966,0.3298829
0.8831539,0.3738172,0.3337628
0.8845686,0.3741008,0.3328644
0.8849616,0.374018,0.3240112
0.8841987,0.373943,0.3200786
0.8818891,0.3760099,0.3253935
0.8802274,0.3768801,0.3316534
0.8823448,0.3775026,0.3278419
0.8862311,0.3766275,0.3237432
0.8866608,0.3740432,0.3273756
0.885526,0.3758081,0.3228387
0.885386,0.3775493,0.3158954
0.8844528,0.3763858,0.3152233
0.884514,0.3766502,0.3162782
0.8854269,0.3766168,0.3195339
0.8862795,0.3775744,0.318576
0.8880789,0.3787345,0.3204516
0.8878266,0.3771353,0.3277858
0.8869217,0.3777083,0.3270389
0.8878333,0.3783412,0.3204907
0.8875303,0.3771644,0.3139049
0.887601,0.3777426,0.3129629
0.8895615,0.3760616,0.3144761
0.8904965,0.3741069,0.3144874
0.8892261,0.3751952,0.319494
0.8865427,0.3751401,0.3179463
0.8858643,0.3748431,0.3124833
0.8880821,0.3750768,0.3154191
0.8894931,0.3749673,0.3172791
0.8888284,0.374864,0.3199904
0.8876366,0.3740412,0.320664
0.8874044,0.3739355,0.3168242
0.887679,0.3763413,0.3179054
0.8883399,0.3796597,0.313803
0.8891063,0.3797429,0.306112
0.8879949,0.3785099,0.3052882
0.8872097,0.3789186,0.3078594
0.8884859,0.3765922,0.3111031
0.8892573,0.3738723,0.3088805
0.8889096,0.3749775,0.3070246
0.8890468,0.3747596,0.3100345
0.8908158,0.3710948,0.3115452
0.8922259,0.3687319,0.3147954
0.891571,0.3711532,0.3144518
0.890511,0.3743178,0.3107315
0.8901177,0.3737485,0.3118939
0.890249,0.3732028,0.3136138
0.8903382,0.3739435,0.3143249
0.8902632,0.3734988,0.3080337
0.8900844,0.3736977,0.3000692
0.8892101,0.3746959,0.3068946
0.8879257,0.3754557,0.3139965
0.8879744,0.3766171,0.3131696
0.8892901,0.376357,0.317297
0.8891062,0.3746693,0.3189061
0.8884998,0.3745272,0.3172231
0.8891192,0.3756049,0.3204279
0.8887219,0.3758882,0.3180946
0.8881848,0.3763552,0.3141521
0.8892041,0.3768219,0.3152327
0.890602,0.3762322,0.3118555
0.8903507,0.3772686,0.3099357
0.8880455,0.3783505,0.3106431
0.8875524,0.3771645,0.31041
0.8902445,0.3760015,0.3137849
0.8925362,0.3745735,0.3127875
0.8918236,0.3747957,0.31134
0.8900834,0.376296,0.3136421
0.8903443,0.3750887,0.3119275
0.8903457,0.373006,0.3123908
0.8896667,0.3725277,0.3130794
0.8880959,0.3764793,0.3116179
0.8831808,0.3808967,0.3123054
0.8809756,0.378068,0.3115596
0.8842917,0.3746987,0.3128499
0.8873936,0.3747707,0.3149885
0.8876324,0.3730606,0.3150952
0.8855109,0.3721958,0.3158426
0.8841301,0.3750739,0.3149392
0.8848333,0.3784351,0.3163911
0.8858857,0.3790423,0.3219964
0.8862798,0.3781289,0.3258817
0.8857377,0.3792358,0.3217397
0.884331,0.382005,0.310538
0.8831068,0.3833091,0.3067433
0.8849297,0.3784984,0.3128916
0.8871103,0.3706859,0.3190585
0.8860235,0.3696553,0.3203619
0.8859004,0.3720826,0.3168871
0.8873754,0.3733673,0.3151105
0.8876423,0.3756973,0.315269
0.8878787,0.3754749,0.3150811
0.8892451,0.3744516,0.315604
0.8908023,0.3762581,0.3150319
0.8902017,0.3769245,0.3152989
0.8880168,0.3774301,0.3153087
0.8871729,0.3795601,0.3142332
0.8874002,0.3794115,0.3146286
0.8874555,0.3772103,0.3147607
0.8866434,0.3772972,0.3154948
0.8856802,0.3783921,0.316451
0.8861401,0.3768576,0.317742
0.8861256,0.3739852,0.3219055
0.8850081,0.3716941,0.3240933
0.8847456,0.3727651,0.3193433
0.8856802,0.3770816,0.3160459
0.8874144,0.3794772,0.3247411
0.8878766,0.3809623,0.3325576
0.8872731,0.3808748,0.327479
0.8877327,0.3779099,0.3224365
0.8884385,0.3766847,0.3222198
0.8883681,0.3733904,0.3217831
0.8854995,0.3701382,0.3219139
0.8814445,0.3753226,0.3197428
0.8803513,0.3807424,0.31754
0.8799448,0.3791977,0.3216142
0.8818595,0.3762553,0.3252955
0.8864182,0.3754643,0.3233409
0.8850578,0.3750335,0.3220575
0.8824451,0.3767067,0.3219626
0.8842159,0.3797661,0.3193257
0.8845666,0.3792445,0.3172215
0.8872858,0.3787062,0.317572
0.8897836,0.3785967,0.3166866
0.8844979,0.3772185,0.314514
0.88013,0.3776756,0.3144614
0.8801434,0.3770595,0.314111
0.8810823,0.375718,0.3143892
0.8830966,0.3755615,0.3190494
0.8861943,0.3750049,0.3198921
0.8887687,0.3759132,0.3174393
0.8872486,0.3777232,0.3183681
0.8857643,0.378123,0.3150035
0.8856612,0.377259,0.313698
0.8839818,0.3757635,0.3196692
0.8847598,0.3737174,0.3216231
0.8851658,0.3731488,0.3232446
0.8843642,0.375253,0.3203316
0.8859621,0.3767161,0.312864
0.886148,0.3767312,0.3160366
0.8851479,0.3761969,0.3169506
0.8845201,0.3761763,0.3119362
0.884829,0.3767826,0.3124855
0.8868848,0.3757774,0.3128164
0.8878395,0.3749148,0.3147757
0.8880156,0.3749641,0.3191253
0.8891065,0.376006,0.3218409
0.8907614,0.3779208,0.3230704
0.890567,0.3772629,0.3216334
0.8887149,0.3750794,0.3198212
0.888917,0.3731094,0.3135926
0.8889646,0.3740869,0.3061414
0.8886405,0.3770828,0.3078672
0.8893965,0.3757667,0.3107786
0.8895439,0.3734312,0.3101384
0.8905808,0.3720583,0.3119127
0.8905619,0.3723326,0.3151513
0.8897861,0.3747714,0.3199446
0.8906345,0.3736037,0.3229626
0.8896634,0.3741052,0.3156459
0.8874359,0.3769612,0.3076834
0.8855666,0.3762119,0.3094532
0.8855427,0.3762309,0.3113479
0.8868663,0.3756508,0.3126482
0.8868836,0.3738923,0.3165387
0.8912319,0.372541,0.3158569
0.8965853,0.3705353,0.3138524
0.8942943,0.3738434,0.3140622
0.8910355,0.3801114,0.3119014
0.8891863,0.3811838,0.3108812
0.8864143,0.3782185,0.3113767
0.8872029,0.3751671,0.3086514
0.8885334,0.3750474,0.3065197
0.8883319,0.3778316,0.3045942
0.8918753,0.3795221,0.3012232
0.894192,0.3767142,0.3014606
0.8914324,0.3735766,0.3027628
0.8895653,0.3750321,0.3024888
0.8894755,0.375513,0.3041476
0.8903131,0.3736525,0.3060758
0.8907799,0.374258,0.3053694
0.8900173,0.3746441,0.3056284
0.891255,0.3741849,0.3078935
0.8921664,0.3753295,0.3081007
0.89144,0.3763467,0.3066071
0.8917053,0.3778428,0.3042401
0.8911693,0.3812403,0.3046126
0.8889248,0.3845428,0.308948
0.8869325,0.3848432,0.3116862
0.8879979,0.3814488,0.3149204
0.889848,0.377282,0.3163526
0.8886572,0.3744626,0.314909
0.8887257,0.3730657,0.3172763
0.8904574,0.3730394,0.3182299
0.8909382,0.3722122,0.3152443
0.8908381,0.3701445,0.3126568
0.8883009,0.3710111,0.3115492
0.8864771,0.3743657,0.309412
0.8878457,0.3765026,0.3032083
0.8876657,0.3778086,0.2992677
0.8871765,0.3777164,0.3022421
0.8877464,0.3767038,0.311012
0.8874079,0.3761643,0.3176898
0.8876435,0.3752176,0.3126558
0.8884897,0.3749547,0.3065387
0.8887081,0.3751133,0.3067192
0.8870926,0.3761853,0.3066562
0.8846251,0.3786673,0.3110951
0.885214,0.3795864,0.3179051
0.886948,0.3790915,0.3158138
0.8869633,0.3778729,0.3135311
0.8873261,0.3766326,0.316486
0.8869668,0.376218,0.3153792
0.8855393,0.3760318,0.3154251
0.8862252,0.3757734,0.3182222
0.8875574,0.3746069,0.3179798
0.8885213,0.374421,0.3198137
0.8902608,0.3733302,0.3196369
0.8903818,0.3697037,0.3158107
0.8888245,0.3696704,0.3153686
0.886939,0.3714646,0.3167517
0.8855959,0.3717683,0.3188297
0.8869821,0.3750555,0.318992
0.8883301,0.3792625,0.3198395
0.8881641,0.3785476,0.3238797
0.8890677,0.3774998,0.3238705
0.8890098,0.3798563,0.3259169
0.8872905,0.3782535,0.3313638
0.8854081,0.3748182,0.3307066
0.8830686,0.3752713,0.3289905
0.8821682,0.3762057,0.3283755
0.8830971,0.379361,0.3266531
0.8846584,0.3817816,0.3249058
0.8869865,0.3802088,0.3208013
0.8880215,0.3800387,0.3175679
0.8874293,0.3786696,0.316338
0.887565,0.375261,0.3150732
0.8886468,0.3743481,0.3178136
0.8900631,0.3751323,0.3209985
0.8904426,0.3754395,0.3194929
0.8892903,0.3755881,0.317377
0.8887271,0.3767795,0.3165765
0.8899384,0.3762494,0.3179577
0.89162,0.3739725,0.3199986
0.891928,0.3723333,0.3187939
0.8915521,0.3707592,0.3175083
0.8916674,0.3714431,0.3173393
0.8913367,0.3745449,0.3195026
0.8896888,0.3771077,0.3234341
0.8874508,0.3761236,0.3193667
0.8870088,0.37449,0.3132484
0.8880052,0.3788593,0.3131045
0.888371,0.3818003,0.3103223
0.889176,0.3779073,0.3068074
0.8904321,0.3740595,0.3062072
0.8920277,0.3721957,0.3047551
0.8939815,0.3728075,0.3042845
0.893899,0.3743622,0.3049884
0.8929393,0.3744602,0.3041521
0.8915181,0.3750904,0.3026458
0.8893356,0.3754306,0.3030348
0.8901739,0.376013,0.3039178
0.8911136,0.3785109,0.3048577
0.8909362,0.3797149,0.3055948
0.8939271,0.3778219,0.3044602
0.8949288,0.375449,0.3061005
0.8921014,0.3749788,0.3089859
0.8902645,0.376681,0.3097768
0.8895149,0.3785613,0.3101988
0.8887152,0.3775489,0.3078131
0.8870303,0.3754637,0.3052633
0.887029,0.3752146,0.3043471
0.8881792,0.3765051,0.3066435
0.8867975,0.3785335,0.312697
0.8857878,0.3777265,0.3133487
0.8854475,0.3752733,0.3116462
0.8863135,0.3749511,0.3119931
0.8895324,0.3747538,0.3106592
0.8906954,0.3747304,0.309772
0.8904339,0.3734409,0.3051925
0.8901684,0.3712925,0.3003989
0.8893651,0.373013,0.307458
0.8865312,0.3765262,0.316198
0.8806965,0.380249,0.3144199
0.8810791,0.3805175,0.3119315
0.890263,0.3736369,0.3121961
0.8968503,0.3688377,0.3087919
0.8940671,0.3705829,0.3090243
0.8889954,0.3723263,0.3119904
0.8890415,0.3732248,0.3103727
0.8869556,0.3768198,0.3103021
0.885803,0.3791758,0.3102289
0.8912305,0.3778513,0.3107295
0.891127,0.3778811,0.3136432
0.8887743,0.3777755,0.3114988
0.8892034,0.3774425,0.3103895
0.8869763,0.3782961,0.3126398
0.8879604,0.377039,0.3121501
0.8897532,0.3760214,0.3108169
0.88759,0.3747714,0.3100117
0.8874675,0.3743047,0.3138732
0.8894833,0.3758252,0.3185001
0.8907952,0.3748078,0.3151424
0.8904653,0.3760495,0.3104569
0.8898726,0.3786413,0.3096295
0.8905017,0.3767517,0.3122275
0.8905062,0.3726045,0.3188171
0.8909637,0.3692168,0.3226459
0.8919605,0.3709784,0.3204179
0.8907961,0.3726982,0.3183377
0.8897509,0.3715514,0.3180476
0.8903962,0.3728964,0.3174243
0.8900479,0.3727506,0.316062
0.8883364,0.3722066,0.3130509
0.8868507,0.3736484,0.3111449
0.8865805,0.3751507,0.3114633
0.8871008,0.3768466,0.3113158
0.8876785,0.3764146,0.3135064
0.8887947,0.3780449,0.3160092
0.8899606,0.3797629,0.3149217
0.8905397,0.376023,0.314144
0.890208,0.3737895,0.3099599
0.889133,0.3730032,0.3030444
0.889119,0.3710391,0.304883
0.8907942,0.3705451,0.3132417
0.892956,0.3722471,0.3184934
0.8922009,0.375913,0.3160967
0.888263,0.3789183,0.3102515
0.8866643,0.3807849,0.3081531
0.8875876,0.3807765,0.3073646
0.8877211,0.3801792,0.3106441
0.8877371,0.3803786,0.31648
0.8888538,0.3782157,0.31463
0.8888389,0.3782113,0.3131958
0.8852853,0.381292,0.3140521
0.8835112,0.381002,0.3113995
0.8854483,0.378457,0.3128545
0.8859266,0.3768277,0.3150255
0.8866779,0.3767976,0.3149696
0.8875227,0.3778076,0.3160079
0.886318,0.3775803,0.3146503
0.8867688,0.3759677,0.3142499
0.8873725,0.3756575,0.3141744
0.8871082,0.3753058,0.3131663
0.8879513,0.3761139,0.3144581
0.8874242,0.3783531,0.3138003
0.8873717,0.3741561,0.3146038
0.8890021,0.3712678,0.3197914
0.8895929,0.3773324,0.3228792
0.8895974,0.3816949,0.3196407
0.8878402,0.3799482,0.3125378
0.8867101,0.3744377,0.3121064
0.8879819,0.3710122,0.3173925
0.8872768,0.3728354,0.320889
0.8863565,0.3746727,0.3218085
0.8863546,0.3748581,0.3203985
0.8866382,0.3764789,0.3205456
0.8884364,0.37861,0.3154779
0.8893522,0.3759029,0.3076637
0.8900554,0.3741329,0.3093412
0.8882135,0.3775657,0.3095158
0.8818787,0.3791451,0.3114463
0.8800379,0.3787373,0.3173793
0.8851675,0.3755816,0.3114915
0.889259,0.37276,0.3084594
0.8876098,0.3762714,0.3162234
0.8856593,0.3791279,0.320594
0.8874998,0.3773983,0.320072
0.8880353,0.3753674,0.3183302
0.8890258,0.3749291,0.3183335
0.8908318,0.3749727,0.3160552
0.8883688,0.3759232,0.3143393
0.8866768,0.3770965,0.3165461
0.8881506,0.3770395,0.3128014
0.8903672,0.378038,0.3114099
0.8923876,0.3780642,0.3175814
0.8917155,0.377315,0.3197861
0.8903253,0.3779383,0.319084
0.8898494,0.3767873,0.3167673
0.8882863,0.3761778,0.3139952
0.8860906,0.3774045,0.3145981
0.8859795,0.3778507,0.3147588
0.8883833,0.3770369,0.3143703
0.8903167,0.3758338,0.3149352
0.8898911,0.3762528,0.3152058
0.8865717,0.3757708,0.3155328
0.8838836,0.3751244,0.314842
0.8862741,0.3786551,0.3133321
0.8885646,0.3816556,0.3125619
0.8864234,0.3797079,0.313903
0.8857046,0.3772719,0.3162454
0.8883304,0.3778038,0.3152418
0.8894208,0.3783571,0.3133457
0.8886889,0.3788915,0.3124049
0.8878571,0.379381,0.3106564
0.8874344,0.3764887,0.3128434
0.8883928,0.3753621,0.3162184
0.8890609,0.3773114,0.3160735
0.8880466,0.3769715,0.3168001
0.8870475,0.3764956,0.3169835
0.8874699,0.3748575,0.3162517
0.8877834,0.3729949,0.3169259
0.8870726,0.3764545,0.3160981
0.8866743,0.378892,0.314389
0.885769,0.3764654,0.31598
0.8849185,0.3749049,0.3241558
0.885361,0.3749465,0.3293695
0.8871195,0.3749934,0.3196783
0.8893034,0.3752089,0.3112679
0.8861189,0.3764101,0.3155173
0.8803271,0.3793467,0.315869
0.8812171,0.3807643,0.3121938
0.8871441,0.3767439,0.3153233
0.8920738,0.3715958,0.3198533
0.8903791,0.3715942,0.3230198
0.884811,0.3735766,0.32286
0.8826211,0.3755345,0.3182475
0.8816263,0.3787874,0.3175319
0.884342,0.3784441,0.3189526
0.8905822,0.3767231,0.3203435
0.8921659,0.3779414,0.3230743
0.8896391,0.3761705,0.3203839
0.8852023,0.3738935,0.3172544
0.8838222,0.3753096,0.318267
0.8865984,0.375197,0.31803
0.8881597,0.3746718,0.318023
0.8903442,0.3752483,0.3181336
0.8908156,0.3745332,0.3179267
0.8895584,0.3728515,0.3182156
0.8897275,0.3699619,0.3188014
0.8885079,0.3696611,0.3217152
0.8885106,0.3750921,0.3220774
0.8884271,0.3795684,0.3178611
0.8868626,0.3779749,0.317013
0.8872066,0.3759756,0.3171859
0.8859389,0.3774398,0.3123907
0.8842976,0.377028,0.311618
0.8865994,0.3749437,0.3154669
0.8893334,0.3750461,0.3156328
0.8891441,0.3758397,0.3167637
0.888345,0.3758669,0.317373
0.8880386,0.3720547,0.3158772
0.8863117,0.3684148,0.3178012
0.8856074,0.3728063,0.3204521
0.8863897,0.3770261,0.3235058
0.8862501,0.3742664,0.3227823
0.8869234,0.3715137,0.3179705
0.8871611,0.3713157,0.3182322
0.8839587,0.3733308,0.3203316
0.8806847,0.3779401,0.3228314
0.8823198,0.3788198,0.3244982
0.8863899,0.3767044,0.3208838
0.888074,0.3771993,0.3187273
0.8878513,0.3761531,0.3192465
0.8874707,0.3752607,0.3192472
0.8892367,0.3768334,0.3180876
0.8906769,0.3760719,0.3162096
0.8874184,0.3748172,0.3171412
0.8850163,0.374613,0.3178424
0.8863373,0.3751678,0.3187122
0.8873726,0.3758189,0.320791
0.887375,0.3771871,0.3207637
0.8866408,0.3803314,0.3222628
0.8858504,0.379667,0.3211763
0.8859437,0.379117,0.3179044
0.8863543,0.3815809,0.3201624
0.8858732,0.3800807,0.3213246
0.8857807,0.3783211,0.3201314
0.8880787,0.3774309,0.3187157
0.8902021,0.3754076,0.3169693
0.889267,0.3755029,0.3183066
0.8877955,0.3773791,0.3174752
0.8883803,0.3801035,0.3157352
0.8875701,0.3795381,0.3174784
0.8867152,0.3774206,0.3179132
0.8882261,0.3788497,0.3175928
0.8873152,0.3781321,0.3185652
0.8871291,0.3755097,0.3237391
0.8881306,0.3746461,0.3290223
0.88697,0.3746783,0.3262734
0.887161,0.3749579,0.3260706
0.8849912,0.372657,0.3286871
0.8822889,0.3719512,0.3234793
0.8843366,0.3743273,0.3194969
0.885521,0.3755638,0.3191257
0.8858089,0.3779268,0.3170245
0.8880175,0.3774123,0.3152588
0.8897008,0.3747816,0.313145
0.8887283,0.3769818,0.3130666
0.8875067,0.3769643,0.3157475
0.8876919,0.3748107,0.3181222
0.8874047,0.3749945,0.3196821
0.8877412,0.3734559,0.3193685
0.8858024,0.3744439,0.319354
0.8820035,0.3762555,0.3195193
0.8829759,0.3756572,0.3182692
0.8847215,0.3772726,0.3181213
0.8855201,0.3764155,0.3190481
0.8882819,0.3767792,0.3204644
0.8877891,0.3797863,0.3206165
0.8846071,0.3780749,0.3195834
0.883695,0.3780834,0.3206922
0.8830707,0.3777128,0.3212171
0.8838101,0.3743001,0.3188181
0.8873831,0.3735549,0.3161933
0.8896358,0.3742064,0.3172844
0.8891564,0.3765798,0.3201179
0.887433,0.3772094,0.3201418
0.8872615,0.3775672,0.3224442
0.887842,0.3800238,0.3231244
0.8873474,0.3773717,0.318078
0.8885616,0.3725463,0.3176854
0.8885299,0.3709349,0.3183621
0.8849554,0.3755781,0.3175489
0.8814924,0.3814476,0.3186969
0.8810944,0.3775502,0.3175936
0.8831202,0.3745441,0.3184428
0.8835634,0.3782951,0.3202531
0.8848319,0.3781445,0.3203858
0.8852385,0.3772363,0.3198202
0.8820256,0.3782061,0.3168431
0.8822602,0.3775715,0.3173838
0.8849096,0.3777605,0.3155694
0.8873998,0.3779471,0.3085678
0.8874264,0.3775618,0.309199
0.8840547,0.377944,0.317503
0.8845828,0.3777171,0.3254161
0.8852063,0.3777298,0.3247205
0.8841584,0.3778952,0.3217979
0.8851574,0.3776491,0.3250395
0.8847268,0.3775095,0.3254536
0.8855081,0.3759694,0.3264621
0.8866861,0.3744128,0.3279487
0.8856887,0.3748647,0.3216848
0.8854472,0.3751582,0.3171008
0.8855395,0.373596,0.3187181
0.8872955,0.3714603,0.3223488
0.8890752,0.3703841,0.3238127
0.8886512,0.3712085,0.322899
0.8877279,0.3738476,0.3210638
0.8854079,0.375674,0.3132317
0.8840045,0.3746681,0.3063364
0.8853797,0.3719436,0.3071724
0.8875924,0.3704766,0.3102257
0.8895281,0.3728303,0.3150649
0.888714,0.3765028,0.3200724
0.8856533,0.3782098,0.3189963
0.884481,0.379579,0.3121378
0.8865276,0.3811532,0.3098295
0.8894231,0.3805619,0.3125857
0.8900183,0.3788422,0.3128419
0.8891892,0.3777617,0.3147299
0.8883929,0.377534,0.3194174
0.88598,0.3794775,0.3210262
0.8843253,0.3797869,0.3158771
0.8867229,0.3774414,0.3125325
0.8901833,0.3775765,0.3149006
0.8912667,0.3771093,0.3106641
0.8917491,0.3757503,0.3081114
0.8928489,0.3766317,0.3108846
0.8899122,0.3760676,0.3082116
0.9977944,0.1317215,0.2094169
0.9978307,0.131775,0.2108205
0.9944532,0.1300149,0.2182961
0.9896458,0.1331061,0.2245696
0.9920394,0.1321211,0.2221747
0.9936719,0.1321665,0.2171988
0.9955071,0.1340058,0.216046
0.9983365,0.1308336,0.2158937
0.9973366,0.128074,0.2157411
0.9966842,0.1273758,0.2157699
0.997525,0.1276392,0.2122388
0.9971286,0.1273086,0.2062299
0.996047,0.1229651,0.2043635
0.9955998,0.1199122,0.211746
0.9946495,0.122423,0.2205004
0.99258,0.1258157,0.2189104
0.9892664,0.124684,0.2189328
0.9869865,0.1216836,0.2266196
0.9909049,0.1205686,0.227677
0.9950346,0.1203163,0.2221088
0.9940411,0.1209194,0.2159522
0.9948676,0.1186024,0.21511
0.9968322,0.1148471,0.2166824
0.9956198,0.1166391,0.2078733
0.9950837,0.1218978,0.2004696
0.9945715,0.1263546,0.2038689
0.9925729,0.1270842,0.207211
0.9945799,0.1267596,0.2083644
0.9970854,0.127419,0.2092483
0.9955049,0.1260153,0.2089139
0.9955475,0.1263211,0.2035119
0.995903,0.1279048,0.198225
0.9937614,0.1285871,0.2025749
0.9927665,0.1297176,0.2072345
0.9939823,0.1288871,0.2064877
0.9959053,0.1271617,0.2075716
0.9961105,0.1233462,0.2092497
0.9954187,0.1196647,0.2080642
0.9950716,0.1232829,0.207301
0.9936005,0.1266065,0.2052893
0.9916182,0.1237703,0.2023736
0.9904677,0.1232802,0.2083079
0.9935085,0.1268758,0.2164934
0.9982962,0.1283199,0.2157767
0.9968115,0.126788,0.213616
0.994585,0.1243958,0.2137477
0.9961918,0.1220122,0.212969
0.9952581,0.1202962,0.2122199
0.994615,0.120552,0.2126129
0.9964152,0.1225081,0.2137427
0.995952,0.1237584,0.2149527
0.995479,0.1263603,0.2156535
0.9957334,0.1286344,0.214888
0.9939799,0.1256699,0.2125962
0.9928017,0.1227721,0.2083936
0.9947278,0.1218072,0.2044828
0.9967294,0.1205201,0.2045252
0.9953202,0.1220783,0.2057603
0.9926765,0.1255161,0.2073055
0.9917926,0.1269746,0.2099277
0.9939186,0.1255578,0.2090461
0.9971173,0.1243368,0.206656
0.9961076,0.1251621,0.2070587
0.9948813,0.1251917,0.2078966
0.9961968,0.1247487,0.2085483
0.9939355,0.1251285,0.2087149
0.9921207,0.1250229,0.208899
0.9933957,0.1248937,0.2101894
0.9930692,0.1258144,0.2105625
0.9925878,0.128535,0.2129158
0.9910211,0.1317926,0.2156058
0.9878429,0.1319504,0.2102498
0.9882711,0.1304207,0.2056317
0.9947618,0.1278522,0.2133225
1.001045,0.1227127,0.2207249
0.9988501,0.122925,0.2187872
0.9952192,0.1277399,0.2209878
0.9962552,0.127986,0.2283787
0.9949993,0.1277651,0.2273187
0.9917559,0.1285096,0.2197829
0.9890292,0.1300133,0.215551
0.9888172,0.1330361,0.2199521
0.9926336,0.1302875,0.2274531
0.9938594,0.1250292,0.2270271
0.9942248,0.1233954,0.225056
0.9953268,0.1265342,0.2251768
0.9937266,0.1339307,0.2218661
0.9945306,0.1357897,0.2208807
0.9949348,0.1324292,0.2193858
0.9937393,0.1313718,0.215456
0.9942658,0.1318154,0.2181657
0.9907241,0.1325465,0.2207697
0.9877389,0.132602,0.2175555
0.9905202,0.1327655,0.214796
0.9945156,0.1300631,0.2120177
0.996873,0.1253787,0.2063608
0.9958942,0.126705,0.2019829
0.9953485,0.1281576,0.2066
0.9961907,0.1267286,0.215216
0.9950317,0.1298385,0.2180989
0.9921811,0.1355598,0.2221095
0.9896464,0.1396035,0.2242079
0.9915861,0.1395696,0.2128387
0.993898,0.1367718,0.2019578
0.9901915,0.1349011,0.2026658
0.9878561,0.1307312,0.2086321
0.9911637,0.1266163,0.2129527
0.993455,0.1277231,0.2100901
0.9931047,0.1281079,0.2077091
0.9924373,0.1264197,0.2101075
0.9903899,0.1263389,0.2115486
0.988635,0.1264766,0.212552
0.9914041,0.1273307,0.2100844
0.9953789,0.1281409,0.2068995
0.9947751,0.1271644,0.2086612
0.9937499,0.1250619,0.2095502
0.9951061,0.1233579,0.2088015
0.9945438,0.1261398,0.2095865
0.9930076,0.1303108,0.2115659
0.9932219,0.1302983,0.2132719
0.9963647,0.1302527,0.2125739
0.9990858,0.1310569,0.2120219
0.9976754,0.1302827,0.2128758
0.9966237,0.1308411,0.2133355
0.9940164,0.1327997,0.2167623
0.9914617,0.1344964,0.2207309
