accx,accy,accz
0.9142877,0.3483151,0.2355408
0.9164314,0.3481543,0.2399723
0.9184754,0.3499312,0.2384024
0.9184786,0.3549566,0.2336693
0.9216449,0.3547841,0.2377159
0.92033,0.3549822,0.2422264
0.9123931,0.3566929,0.2476125
0.9083631,0.3539706,0.2516228
0.9099899,0.3510117,0.2429365
0.9131822,0.3481993,0.2378896
0.9156343,0.3492025,0.2426521
0.9179461,0.3531757,0.2440982
0.9166829,0.3500342,0.2422656
0.910794,0.3478979,0.2400198
0.9118666,0.3494254,0.2384739
0.9132971,0.3481556,0.2384806
0.9102982,0.3496478,0.2392551
0.9134987,0.3506262,0.2393478
0.9139673,0.349682,0.2402309
0.9129844,0.3512219,0.2419295
0.915395,0.3515169,0.2381662
0.9149617,0.3514416,0.2347564
0.9172282,0.3514028,0.2382627
0.9170617,0.3511914,0.240671
0.9137212,0.3520483,0.2399628
0.914685,0.3529307,0.2403714
0.9163621,0.3544195,0.241039
0.9198321,0.3525519,0.2396564
0.919874,0.3492734,0.2383532
0.9156576,0.350337,0.2359448
0.9152282,0.3520226,0.2310436
0.9158971,0.352917,0.2283973
0.9170968,0.3522506,0.2255468
0.9170285,0.3508025,0.2265114
0.9154043,0.3523987,0.2348107
0.9143687,0.3531829,0.2398675
0.9108528,0.3516135,0.2415013
0.9112842,0.3513012,0.2398934
0.9146849,0.3522773,0.2370682
0.9137328,0.3531577,0.2367575
0.9137569,0.3526604,0.2347939
0.9145304,0.3525136,0.2358143
0.915352,0.3556122,0.2337288
0.9174647,0.3586527,0.2308905
0.916772,0.3571433,0.2402989
0.9158468,0.3547632,0.2453246
0.9152414,0.354964,0.2413555
0.9135942,0.3536786,0.2386289
0.9153752,0.351799,0.2384107
0.9175962,0.3513542,0.2411589
0.9156787,0.3499715,0.2397967
0.9145307,0.3501376,0.2360705
0.9156443,0.3510701,0.2345418
0.9153103,0.3512966,0.2357628
0.9150469,0.3518816,0.2389775
0.9155125,0.350993,0.2370073
0.9153277,0.3513812,0.234966
0.9159932,0.351414,0.235068
0.9156013,0.3490907,0.2341407
0.9123114,0.3487935,0.2373462
0.9104309,0.350287,0.2427259
0.9128463,0.3530299,0.2460917
0.914981,0.3534317,0.2407064
0.9136938,0.352031,0.2324786
0.9142127,0.353205,0.2361524
0.9179342,0.3520593,0.2383478
0.9204623,0.3488916,0.2364566
0.9205638,0.3463832,0.2421022
0.9195767,0.3459043,0.2437169
0.9194648,0.3485152,0.2412826
0.9192586,0.3501282,0.2391916
0.9181977,0.3529964,0.2333282
0.9166228,0.354584,0.2330451
0.913433,0.3502587,0.2359046
0.9117506,0.3481304,0.2367317
0.9126758,0.3519644,0.2395264
0.9136043,0.3558993,0.2365218
0.915011,0.3539944,0.2320345
0.9183231,0.351238,0.2350284
0.9216082,0.3518155,0.2381924
0.9187669,0.350916,0.2402226
0.9147143,0.3512219,0.2410323
0.9169561,0.3509901,0.2400594
0.9176026,0.3492284,0.2421761
0.9163321,0.3516215,0.2427838
0.9167993,0.3535878,0.2375335
0.9138463,0.3544019,0.2334907
0.9119183,0.3539189,0.2368721
0.9130436,0.350663,0.2407725
0.9122096,0.3509202,0.2374769
0.9125783,0.3523885,0.2356581
0.9139427,0.3509761,0.2378521
0.9146575,0.3505257,0.2381942
0.9157008,0.3520698,0.2389513
0.9143082,0.3513939,0.2373554
0.9132977,0.3497383,0.2354841
0.914197,0.3504155,0.2391235
0.9139984,0.3497205,0.2413042
0.9149043,0.3498217,0.2407689
0.916552,0.350569,0.2426325
0.9169249,0.3499085,0.2445157
0.916852,0.3530302,0.240281
0.9173839,0.3550598,0.2343206
0.9179536,0.3538875,0.2358181
0.9150888,0.3530127,0.237179
0.9113426,0.3511454,0.2356071
0.9122863,0.3498388,0.2378226
0.9147518,0.3499465,0.2378635
0.9141569,0.352846,0.2353437
0.9127349,0.3547159,0.2358691
0.9117379,0.3536214,0.236722
0.9098748,0.3544932,0.2373875
0.9110784,0.3538715,0.2406685
0.9139765,0.3520106,0.2442488
0.9141063,0.3512959,0.2431968
0.9154569,0.3510324,0.2400433
0.9156061,0.3527795,0.2381665
0.9131041,0.3529884,0.2361807
0.9138805,0.3523592,0.2363543
0.9152235,0.3521678,0.2376613
0.9152744,0.3508589,0.2373914
0.915444,0.3514057,0.2384996
0.9149351,0.3516602,0.2393866
0.9144478,0.3512525,0.238259
0.9136568,0.3524991,0.2373422
0.9136828,0.3529745,0.2365493
0.9142038,0.3526611,0.2375622
0.913708,0.3517933,0.2394563
0.9138817,0.3514421,0.2400588
0.914015,0.3532143,0.2402109
0.9137454,0.354755,0.2369207
0.9139783,0.3540131,0.2358254
0.9138754,0.3519423,0.2431207
0.9138453,0.3512344,0.2473436
0.9139531,0.3523651,0.2431194
0.9138375,0.3542353,0.2391025
0.9140879,0.3555101,0.2399039
0.9146143,0.3548261,0.2401661
0.9146278,0.3521267,0.2379673
0.9137551,0.3493854,0.2392939
0.913374,0.3521312,0.2413804
0.9134892,0.3560486,0.2424669
0.9130703,0.3538753,0.2439559
0.914234,0.3534435,0.2423276
0.9162299,0.3543173,0.2410316
0.9163939,0.3501165,0.2402884
0.9151566,0.34822,0.2395388
0.9139164,0.3522688,0.2409574
0.917077,0.3565827,0.2399477
0.9209321,0.3559396,0.2390215
0.9170828,0.3537076,0.2391972
0.9125648,0.354446,0.2388457
0.9124698,0.3541207,0.2412324
0.9135237,0.3539013,0.2401644
0.9162096,0.3544272,0.2354622
0.9173181,0.3528992,0.235248
0.9164213,0.3531727,0.2364701
0.9166748,0.3554918,0.2343049
0.9167035,0.3567653,0.2323491
0.9164677,0.3530214,0.2342654
0.915797,0.3477723,0.2372051
0.9149528,0.3504319,0.239369
0.9152478,0.3540803,0.2387393
0.9154141,0.3551678,0.2362883
0.9152093,0.3582895,0.2375405
0.9152556,0.3581144,0.2371763
0.9153315,0.3550449,0.2352349
0.9154322,0.3518536,0.238132
0.9159657,0.3500396,0.2413041
0.9161052,0.3510917,0.2433123
0.9150581,0.3498622,0.2436384
0.9151595,0.349524,0.2429893
0.9165075,0.3518434,0.243727
0.9164658,0.352319,0.2422219
0.9145316,0.3539934,0.2409052
0.9118861,0.3543597,0.2395098
0.9124649,0.3519325,0.238072
0.9164903,0.3510881,0.241843
0.9175884,0.3518433,0.2450436
0.916175,0.3552653,0.2446042
0.9166521,0.3580338,0.2384117
0.916387,0.3570792,0.2300377
0.9137418,0.3564881,0.2334713
0.9116146,0.3553312,0.2391972
0.9113118,0.3481732,0.2393213
0.911718,0.3402542,0.24178
0.9125887,0.3444143,0.2429312
0.9148139,0.3540594,0.2441422
0.9164975,0.3560284,0.2431948
0.9182721,0.3526435,0.23619
0.9202194,0.3464836,0.2338465
0.9172311,0.3442008,0.2332309
0.9135034,0.3467782,0.2322292
0.9129692,0.3467434,0.2384399
0.9124124,0.3508524,0.2437321
0.9150153,0.3563381,0.2421402
0.919718,0.3536125,0.2401205
0.9204785,0.3496146,0.2403829
0.9143438,0.3481328,0.2394811
0.90583,0.3485677,0.2414013
0.905729,0.3508606,0.2460584
0.9082643,0.3539761,0.2392245
0.9063481,0.362124,0.2247048
0.9080772,0.3699057,0.2195604
0.9142099,0.3612312,0.2346601
0.9207788,0.3441024,0.2555545
0.9226642,0.3404725,0.2480981
0.9196891,0.3437212,0.2256559
0.9207558,0.3422988,0.2146139
0.9202306,0.3421028,0.2146097
0.9128175,0.3466999,0.2270292
0.9083377,0.3547516,0.2347966
0.9119976,0.3601965,0.2361413
0.9206886,0.3610539,0.2379298
0.9249393,0.3587166,0.2325284
0.9226531,0.3523416,0.2357301
0.9189789,0.3471981,0.2414208
0.9145728,0.3434214,0.2411325
0.9121229,0.3434399,0.2436756
0.9084112,0.3479011,0.2421288
0.9058441,0.3477237,0.244999
0.9122303,0.3494813,0.2448564
0.9166826,0.3529843,0.2368795
0.9153301,0.3509311,0.236088
0.9159287,0.3515271,0.2343873
0.9170523,0.3536058,0.2329872
0.9164906,0.35466,0.2304393
0.9145565,0.3564725,0.2297889
0.9134664,0.3563664,0.2359365
0.9143604,0.3545309,0.2318614
0.9168688,0.3508435,0.2272321
0.9198169,0.3505626,0.2260228
0.9198667,0.3522432,0.2242271
0.9185274,0.3499203,0.2294846
0.916872,0.3498764,0.2305705
0.9145359,0.3515862,0.2296292
0.9152117,0.35311,0.229754
0.9175465,0.3547499,0.2280377
0.9177897,0.3522338,0.229415
0.9178611,0.3504974,0.2291956
0.9176943,0.3512542,0.2293439
0.914506,0.3497275,0.2301519
0.9120148,0.3479476,0.230668
0.913434,0.3483848,0.2320971
0.9144047,0.3491159,0.2314911
0.9130036,0.3483456,0.2327564
0.9102627,0.3488567,0.2342457
0.907714,0.3507392,0.2374639
0.9110311,0.351777,0.2406494
0.9196744,0.3528325,0.2380071
0.9231404,0.3535919,0.2372683
0.9171099,0.3545325,0.2347873
0.9112909,0.3540433,0.230011
0.9137126,0.3513325,0.2301328
0.9153909,0.3485498,0.2296384
0.9134033,0.346315,0.2278133
0.9176551,0.3483174,0.2265164
0.9211825,0.35147,0.2271788
0.9194952,0.3513381,0.23194
0.9219305,0.3516236,0.236407
0.9236619,0.3513106,0.2366985
0.9183687,0.3515247,0.2369067
0.9131396,0.3535724,0.2400835
0.914661,0.353118,0.23982
0.9156782,0.3482533,0.2403985
0.9113426,0.3422446,0.2448466
0.910371,0.3436123,0.2431097
0.9099822,0.3475387,0.2423731
0.9092646,0.3497318,0.2458936
0.9134359,0.3569043,0.2458436
0.9152177,0.356747,0.2447492
0.9147281,0.3496224,0.2386956
0.9147076,0.350018,0.2292524
0.914935,0.3499598,0.2266098
0.9162492,0.3497819,0.2278978
0.9153377,0.3525887,0.2271938
0.9150046,0.3557045,0.2262318
0.9140543,0.3619326,0.2291401
0.9127939,0.3618573,0.2317262
0.9148112,0.3570776,0.2304382
0.9133759,0.3541524,0.2305666
0.9115553,0.3496621,0.2327991
0.9117431,0.3510931,0.2347181
0.912043,0.3536839,0.2353078
0.9154108,0.351948,0.2353763
0.9159229,0.3526572,0.236574
0.916574,0.3488288,0.2377455
0.9196083,0.340104,0.2401468
0.9184298,0.3361192,0.243278
0.9157974,0.3411961,0.2444968
0.9106343,0.3529827,0.2443943
0.9068773,0.3615914,0.2355418
0.9099046,0.3639761,0.2146843
0.9187468,0.360163,0.2023568
0.9304197,0.3521107,0.2076349
0.9253294,0.3460135,0.2150535
0.9074494,0.345171,0.2259301
0.9026107,0.3523333,0.2398624
0.91414,0.3590381,0.2364629
0.9322993,0.3612328,0.224751
0.9330311,0.3642724,0.2231069
0.9203981,0.3616729,0.2264109
0.9169321,0.3555873,0.2382095
0.9125023,0.3517076,0.2497759
0.9143984,0.3499209,0.2444852
0.9195174,0.3517942,0.2377572
0.9129901,0.3489936,0.237887
0.9134634,0.3427467,0.2396541
0.9144856,0.3414209,0.2416986
0.9107121,0.3454802,0.2357178
0.9107958,0.3560973,0.2292528
0.9085747,0.3648966,0.2340526
0.9100255,0.3666404,0.2411867
0.9103284,0.3660491,0.2440342
0.9086352,0.3626788,0.2435733
0.9107347,0.3572422,0.241325
0.9091925,0.3519504,0.2414784
0.9096386,0.3491042,0.2414263
0.9109965,0.3504273,0.2376052
0.9125527,0.3525096,0.2352561
0.9166269,0.3524818,0.235984
0.9136392,0.353653,0.2374527
0.9106627,0.356949,0.2374363
0.9114707,0.3572253,0.2350298
0.9101751,0.3569115,0.2330066
0.9110595,0.3581203,0.2336128
0.9126894,0.358265,0.2388795
0.9122009,0.359036,0.2414091
0.9116304,0.3599151,0.2357323
0.9113269,0.3613268,0.2315641
0.9129624,0.3606775,0.2315133
0.9163469,0.3575095,0.2330389
0.9164882,0.3575167,0.2367786
0.914591,0.3569029,0.2407763
0.9154337,0.3565965,0.2408403
0.9164729,0.3581346,0.2362441
0.9166848,0.3564139,0.2336463
0.91688,0.3551383,0.2328839
0.9164631,0.3555965,0.2320409
0.9165466,0.3565654,0.2323211
0.9160309,0.3564937,0.231989
0.9155827,0.3522382,0.2338451
0.9158771,0.3490654,0.2328217
0.914374,0.3513095,0.2275381
0.9131861,0.3545612,0.228482
0.9141044,0.3548339,0.230374
0.9140911,0.3570749,0.2285633
0.9135705,0.3596232,0.2292152
0.9144413,0.3557587,0.2308803
0.915683,0.3537192,0.2326063
0.9163422,0.3545293,0.2358351
0.9134991,0.3539078,0.2366813
0.9101911,0.3553911,0.2346601
0.9144759,0.3557729,0.2335708
0.9184009,0.3552488,0.2334787
0.9145349,0.3548512,0.2350175
0.9126631,0.3536238,0.2369189
0.9144291,0.3542996,0.2362846
0.9139695,0.3542893,0.236653
0.9135773,0.3539513,0.2380683
0.9143119,0.3545586,0.2373351
0.9148926,0.3548972,0.2363377
0.9167251,0.3559131,0.2356894
0.9186042,0.3556665,0.2341903
0.9180039,0.3552649,0.2330666
0.9159017,0.3552519,0.2340428
0.9144284,0.3522514,0.2349455
0.9134675,0.3476846,0.2323924
0.9118102,0.3454482,0.2278831
0.9108867,0.3473926,0.2248669
0.9124748,0.3516861,0.226042
0.9157688,0.3555182,0.2312494
0.9184673,0.3555516,0.2342249
0.9181969,0.350404,0.2348753
0.9162562,0.3462918,0.2381388
0.913354,0.3469673,0.2376651
0.9089105,0.3488587,0.2345101
0.908003,0.350179,0.2365573
0.9125859,0.353165,0.2370168
0.9169626,0.3568307,0.2373624
0.9169941,0.3566382,0.2415211
0.9143996,0.3547676,0.2399458
0.9133773,0.3546059,0.2351733
0.9142749,0.3543456,0.2339747
0.9156396,0.354791,0.2343097
0.9164369,0.3558407,0.2334116
0.9160509,0.3545954,0.2312229
0.9165158,0.3521335,0.232969
0.9171387,0.3499351,0.2361219
0.9164022,0.3482654,0.2361638
0.9165893,0.3500044,0.2363012
0.916933,0.3526154,0.2351018
0.9162502,0.3512632,0.2315138
0.9160303,0.350836,0.2281127
0.9156293,0.3520023,0.2293961
0.9145156,0.3514389,0.2358965
0.9120285,0.3536514,0.2402828
0.9099719,0.3573224,0.2429718
0.9111622,0.3572598,0.2459227
0.9106914,0.3545819,0.2469294
0.9088246,0.3514988,0.2452756
0.9099827,0.3476905,0.242041
0.9099455,0.3442856,0.2436773
0.9100393,0.3461793,0.2442219
0.9138023,0.3497706,0.2384683
0.9171155,0.3509819,0.2374969
0.917509,0.3532712,0.2385837
0.9171661,0.3536672,0.2402585
0.9192417,0.353067,0.2431151
0.9202293,0.3531869,0.2342983
0.9183306,0.3525962,0.2263498
0.9169195,0.3558221,0.2345277
0.9148352,0.3576302,0.2407564
0.91549,0.3545051,0.2367837
0.917894,0.3518409,0.2356232
0.9161153,0.3506029,0.2385182
0.9154203,0.3516435,0.2399024
0.9154463,0.3516349,0.2423895
0.9137889,0.3509231,0.242132
0.9139955,0.3518064,0.2389884
0.9138084,0.3513592,0.2410097
0.9144782,0.3522432,0.2432179
0.9177668,0.3532747,0.243936
0.92004,0.3522348,0.2436119
0.9186112,0.3512043,0.2392446
0.9143143,0.3503374,0.2364181
0.9129897,0.3518085,0.2355441
0.9133006,0.3537337,0.236051
0.9119214,0.3545634,0.2362995
0.911609,0.3564943,0.2337264
0.9109858,0.3581242,0.2330993
0.9111941,0.3582271,0.2333824
0.9132612,0.3556191,0.2342626
0.9141983,0.3530644,0.2352568
0.9141495,0.3541621,0.2343984
0.913753,0.3541181,0.2352132
0.914817,0.3510944,0.2365407
0.9157948,0.3492777,0.2382243
0.9157635,0.3498065,0.2397686
0.9188716,0.350438,0.2401426
0.9216453,0.3499901,0.2408622
0.9184672,0.350759,0.241002
0.9123315,0.3519407,0.2454788
0.9098439,0.3512809,0.2493194
0.9112122,0.3508652,0.2412425
0.9114866,0.3498239,0.2325377
0.9112221,0.3488102,0.2341868
0.9132325,0.3529032,0.237365
0.9163661,0.3572017,0.2374338
0.9173366,0.35491,0.238645
0.9164233,0.352847,0.2360314
0.9162314,0.3547601,0.2312401
0.9150365,0.3547402,0.2334493
0.9132444,0.3551839,0.2342993
0.913878,0.3571,0.2323275
0.9152104,0.3540818,0.2338362
0.9151567,0.3486053,0.23303
0.9142263,0.3454049,0.2307992
0.9127574,0.3486606,0.2290304
0.9125525,0.355621,0.2288542
0.9153755,0.3545989,0.2335331
0.9173983,0.3512923,0.2367319
0.9156941,0.3499398,0.2393531
0.9138642,0.346573,0.245028
0.9149787,0.3511788,0.2454099
0.9175275,0.3568898,0.237539
0.9185818,0.3532818,0.2307975
0.9179101,0.3516249,0.2338629
0.9169172,0.3517454,0.2384631
0.9163384,0.3507008,0.236716
0.9155715,0.3518091,0.2386785
0.9143092,0.3517881,0.2434413
0.9144494,0.3530119,0.2428635
0.9155889,0.3559731,0.2402708
0.9155023,0.3553092,0.2379925
0.9149866,0.3525454,0.2385692
0.9153531,0.3507368,0.2389847
0.9152432,0.3510531,0.2347174
0.9141702,0.3521325,0.2323524
0.9139282,0.3522201,0.2330217
0.9146899,0.3539567,0.2333568
0.9156231,0.3557999,0.2337752
0.9156338,0.354895,0.233289
0.916154,0.3529621,0.2293684
0.9186148,0.3509902,0.2269675
0.9183186,0.3526453,0.2344954
0.9159224,0.3555805,0.2397502
0.9160395,0.3535645,0.2339774
0.9153655,0.3518346,0.2300546
0.9131367,0.3515396,0.2309143
0.9137404,0.3509296,0.2335426
0.9156133,0.3527345,0.236505
0.9160821,0.3530921,0.2364962
0.9169526,0.3522868,0.235455
0.9171208,0.3521672,0.2344857
0.9168955,0.3509216,0.2338732
0.9179366,0.3515004,0.2346357
0.9172168,0.3527931,0.2350429
0.9168534,0.3536155,0.2332355
0.9171656,0.354373,0.2314296
0.9154933,0.3522629,0.2319327
0.9142082,0.3509904,0.2333647
0.912497,0.3532577,0.2352866
0.9143324,0.3545618,0.2360785
0.9185568,0.3524512,0.2366151
0.9165169,0.3502277,0.2392261
0.9154193,0.3505972,0.239268
0.915862,0.3501405,0.2355558
0.9128273,0.349451,0.2339734
0.9138074,0.3502393,0.2358344
0.9157855,0.3490514,0.2365714
0.9157573,0.348103,0.2354083
0.9172909,0.3490036,0.2339694
0.9167216,0.3500238,0.2338032
0.9162136,0.3528956,0.2366484
0.9169547,0.3548044,0.2359622
0.9155317,0.3524274,0.2297708
0.9147988,0.3505564,0.2266281
0.9144835,0.3523773,0.2294202
0.9135795,0.3534883,0.2356833
0.9138486,0.3526274,0.239909
0.9138356,0.3536128,0.2392802
0.9127581,0.3546828,0.2379901
0.911323,0.3540371,0.2372361
0.9109334,0.3535466,0.2357792
0.9121138,0.3515973,0.2356251
0.9128351,0.3491247,0.2366373
0.9128716,0.3496876,0.2360046
0.9141258,0.3506313,0.2358141
0.9159271,0.3496939,0.2365367
0.9151566,0.3500415,0.2358335
0.9129681,0.3510778,0.236648
0.9122718,0.3506375,0.2393797
0.9128475,0.3508176,0.2425648
0.9153464,0.3516586,0.2439891
0.9171976,0.3524514,0.2413188
0.914967,0.3533617,0.2392195
0.9129355,0.3545165,0.2378821
0.9139157,0.3561038,0.236558
0.9143277,0.3555949,0.2366707
0.9135299,0.3542069,0.2340956
0.9141098,0.354012,0.232877
0.915177,0.3531315,0.2365783
0.9161615,0.3523928,0.2392645
0.9172209,0.3518596,0.2394687
0.9160372,0.3511536,0.2394237
0.9137256,0.3513352,0.2400302
0.9122121,0.3523797,0.237964
0.9128376,0.3558362,0.2347663
0.9148226,0.3591173,0.2351927
0.9138194,0.3558731,0.232318
0.9133509,0.3505271,0.2275679
0.9145214,0.3509812,0.2315126
0.9135344,0.3518969,0.2381399
0.914213,0.3499765,0.2398453
0.915989,0.3495533,0.2397579
0.9166436,0.3484206,0.2387682
0.9162688,0.3472812,0.2360849
0.9145118,0.3481791,0.2338579
0.9154353,0.3481294,0.2342123
0.9166924,0.3484863,0.2343571
0.9163728,0.3489981,0.2318024
0.91708,0.3483813,0.2322953
0.9166679,0.348767,0.2369828
0.9173929,0.3496579,0.2399155
0.9181699,0.3499629,0.2387468
0.9151191,0.349246,0.2342983
0.9130431,0.3481849,0.2317327
0.9138996,0.348882,0.2329694
0.9154084,0.3506971,0.2357639
0.9161056,0.3515448,0.2384648
0.9157586,0.3505381,0.2370206
0.9143848,0.3482091,0.2331773
0.9131347,0.3464665,0.2299722
0.9141558,0.3461199,0.2283379
0.9141244,0.3483522,0.2312837
0.9134292,0.3520925,0.2391764
0.9142784,0.3519157,0.2472301
0.9135625,0.350089,0.2457727
0.9128851,0.3491616,0.2418687
0.9124982,0.3463913,0.2447659
0.9124604,0.3473218,0.243182
0.9148619,0.3517957,0.2411292
0.9167604,0.3532893,0.2417846
0.9178964,0.3529834,0.2371047
0.9181412,0.3514991,0.2364684
0.9168079,0.3510227,0.2368703
0.9154401,0.3517477,0.2332885
0.9141225,0.3514765,0.2323694
0.9147675,0.3532724,0.2290941
0.9165488,0.35482,0.2288482
0.9169589,0.353769,0.232516
0.9166728,0.3522438,0.2321117
0.9164698,0.3508656,0.2350096
0.9168324,0.3512762,0.2358042
0.9166589,0.3517075,0.2315316
0.9165243,0.3511727,0.2318784
0.9168665,0.3517946,0.2326502
0.9165153,0.3532261,0.2344789
0.9167056,0.3546456,0.2385779
0.9167426,0.3544208,0.2386863
0.916167,0.3535581,0.2362788
0.915022,0.353663,0.2340316
0.9132591,0.3532897,0.2354852
0.9140334,0.3534049,0.239436
0.9161623,0.3531881,0.2408111
0.9163664,0.3505576,0.241577
0.914214,0.3487386,0.2392167
0.9118026,0.3498037,0.235258
0.9141408,0.3512173,0.2370477
0.9175435,0.3523975,0.2391869
0.9166144,0.3545521,0.2380952
0.9163511,0.3537031,0.2354496
0.9170516,0.3497856,0.2321199
0.9167549,0.3498155,0.2334613
0.91853,0.3512941,0.2376579
0.9195499,0.3512712,0.2413156
0.9167924,0.3521501,0.244458
0.9142244,0.3528761,0.2423489
0.9150568,0.354661,0.2376423
0.9159884,0.3547444,0.23551
0.9142826,0.3532933,0.2354153
0.9125599,0.3546864,0.236621
0.9113921,0.3542066,0.2352394
0.913928,0.3533634,0.2340241
0.9186291,0.3529296,0.2365462
0.9168128,0.3506368,0.2380477
0.9154746,0.3523374,0.2392903
0.9173718,0.3545416,0.2391526
0.9145101,0.3543706,0.2367387
0.9130536,0.3560873,0.2351905
0.9146367,0.3565371,0.2331191
0.9155462,0.3526418,0.2338065
0.9172631,0.3483527,0.235601
0.9163357,0.3496963,0.2369983
0.9135096,0.3521298,0.2422056
0.9123831,0.3508742,0.2440648
0.9142287,0.3514656,0.2449917
0.9181463,0.3517669,0.2476642
0.9184785,0.3508234,0.2417095
0.9165372,0.3518156,0.2350243
0.9158721,0.3511115,0.234681
0.9157749,0.3502771,0.2336486
0.9169606,0.3499291,0.2343366
0.9169988,0.3488323,0.2365105
0.916198,0.3496094,0.2327806
0.9169258,0.3502885,0.2286328
0.9166943,0.3509601,0.2307402
0.9164565,0.3517243,0.2313381
0.9169026,0.3519708,0.2297388
0.9165221,0.3550182,0.2319988
0.9166796,0.356946,0.2360192
0.9167578,0.3519666,0.2401536
0.916535,0.3464443,0.2393856
0.9164187,0.349284,0.2347221
0.9148326,0.3532588,0.2345506
0.9136808,0.3527744,0.2338899
0.9155265,0.3533475,0.2299773
0.9177307,0.3495138,0.2276158
0.9176258,0.3456305,0.2303876
0.9176303,0.3494718,0.2355912
0.9176909,0.3506774,0.2341878
0.9157475,0.3511044,0.2354324
0.9143089,0.3512911,0.2410338
0.9121188,0.3478405,0.2367886
0.9102569,0.3489821,0.2329591
0.913577,0.3509818,0.2322856
0.9166197,0.3522203,0.2266822
0.9168086,0.3532943,0.2259712
0.9167246,0.3494716,0.2310539
0.9152824,0.3481302,0.2356715
0.9142123,0.3509106,0.2370694
0.9136766,0.353744,0.2347457
0.9138587,0.3548798,0.234295
0.9151625,0.3528121,0.2350046
0.9152914,0.3526638,0.2346144
0.9153902,0.353873,0.2347424
0.9154559,0.3542618,0.2361529
0.916346,0.3541172,0.2418628
0.9188086,0.3519964,0.2467793
0.9190155,0.3510166,0.24041
0.9178113,0.3512896,0.2325731
0.9175939,0.3515015,0.2361446
0.9173998,0.3515062,0.2391751
0.9164503,0.3511088,0.2407083
0.9162963,0.3516328,0.2473642
0.9171293,0.3511544,0.2426864
0.9161245,0.3501631,0.2350216
0.9147188,0.349285,0.2402991
0.9138782,0.3488701,0.2413328
0.9142343,0.3505014,0.238835
0.9161212,0.3504287,0.2393162
0.9159593,0.3501968,0.2365466
0.9178043,0.3513351,0.2372266
0.9198359,0.3502598,0.2379841
0.9157556,0.349439,0.2349412
0.9146128,0.3485281,0.2338454
0.9163091,0.3470328,0.2316838
0.915029,0.3474185,0.2317584
0.9160684,0.3475259,0.235918
0.9157554,0.3488065,0.2370387
0.9149433,0.351234,0.2353654
0.9212764,0.3519275,0.23449
0.923106,0.3538414,0.2349741
0.9180292,0.3546634,0.2361762
0.9166887,0.351898,0.2360198
0.9134645,0.3508219,0.2321466
0.9120948,0.351482,0.229646
0.9162558,0.3514801,0.232441
0.916031,0.3513605,0.234234
0.9177355,0.3513131,0.2339997
0.9179424,0.3511337,0.2365439
0.9130231,0.3495595,0.2400428
0.9158827,0.3483768,0.2385069
0.9174963,0.350467,0.236446
0.9173214,0.3533165,0.2398903
0.9211445,0.35401,0.2410805
0.9184146,0.3540585,0.2398089
0.9151989,0.3539026,0.2403179
0.9137774,0.351344,0.2392878
0.913585,0.3498085,0.2382621
0.9195091,0.3534803,0.2370971
0.9219022,0.3567012,0.235586
0.920814,0.3539741,0.236005
0.9210669,0.3513422,0.2361544
0.9220275,0.3517329,0.2351695
0.9223124,0.346076,0.2345223
0.9171045,0.341135,0.235975
0.9130719,0.3528621,0.2383796
0.9120394,0.3641729,0.2391381
0.9087318,0.3564593,0.2375967
0.9058695,0.3504059,0.2342225
0.9033547,0.3557179,0.2331086
0.903571,0.3553527,0.2359899
0.9058099,0.3556445,0.238417
0.9072586,0.3630852,0.2368182
0.9107007,0.3660762,0.2356252
0.9105999,0.3680081,0.2395564
0.908443,0.3656017,0.2430925
0.9108904,0.356215,0.2428972
0.9126108,0.354214,0.2400364
0.9140246,0.3554029,0.2356414
0.9145108,0.3528723,0.2335178
0.9111756,0.3510769,0.2315814
0.9114695,0.3527029,0.2277891
0.9149833,0.3575781,0.2268106
0.9168628,0.3610754,0.2322714
0.914786,0.3642889,0.2386461
0.9106361,0.3624361,0.236293
0.9125288,0.3560957,0.2327667
0.9134152,0.3575318,0.2348824
0.909724,0.3577302,0.2348864
0.9078564,0.355746,0.2353923
0.9046529,0.3592242,0.2358232
0.9061767,0.360156,0.2303008
0.911314,0.3616484,0.2265984
0.9114674,0.3636982,0.2296369
0.9130773,0.3634244,0.2352247
0.9144882,0.3643199,0.2381749
0.9136868,0.3617468,0.2391258
0.9136812,0.3606072,0.2395346
0.9117208,0.3634084,0.2381794
0.9098212,0.3638005,0.2383353
0.9099787,0.3624426,0.2357602
0.9135607,0.3605429,0.2315281
0.9175805,0.362683,0.2334733
0.9167423,0.3652451,0.2340053
0.9153359,0.3628314,0.232659
0.9152131,0.3610834,0.2336794
0.9146436,0.359469,0.2327592
0.9127424,0.3599183,0.2305345
0.9103711,0.3618968,0.2284956
0.911715,0.3590306,0.2289099
0.9134239,0.3579594,0.2311151
0.9115227,0.361362,0.2322613
0.9086714,0.3633274,0.2342458
0.9062359,0.3627315,0.2354681
0.9066512,0.3621004,0.2351255
0.9095445,0.3636957,0.2320726
0.9102181,0.3634009,0.2265131
0.9104588,0.3589656,0.2268712
0.9115486,0.3550232,0.2298598
0.9104955,0.3557638,0.2309604
0.9083234,0.3590012,0.2362837
0.9066534,0.3585327,0.2384386
0.908239,0.357766,0.2350316
0.9110254,0.3596095,0.2329403
0.9095661,0.3616056,0.2279827
0.9091568,0.3651124,0.226005
0.9109127,0.3655214,0.2286683
0.9120414,0.3641416,0.2261634
0.9138058,0.3648473,0.225335
0.9098188,0.3616889,0.2288277
0.9039309,0.3599814,0.233186
0.9067006,0.3618034,0.2392549
0.9108978,0.3609075,0.2379431
0.9112985,0.3606385,0.2341552
0.9108435,0.3595901,0.2387236
0.9081946,0.3580372,0.2393823
0.9067731,0.361194,0.2342674
0.9104935,0.3654229,0.232442
0.9139134,0.3687164,0.2314408
0.9129287,0.3711812,0.2326298
0.9125209,0.3688657,0.2355641
0.914522,0.3647822,0.2357793
0.9130115,0.3653028,0.2311996
0.9108111,0.3643037,0.2243142
0.9120591,0.3605196,0.225575
0.9119593,0.360995,0.2297634
0.9117269,0.3604086,0.2287402
0.9127474,0.3614243,0.2304762
0.9124131,0.3670065,0.2326731
0.9115465,0.3673418,0.2314664
0.9109505,0.366962,0.2319313
0.9119896,0.3655457,0.2316296
0.9128029,0.361098,0.2279404
0.911487,0.3649366,0.2258267
0.9107761,0.368896,0.2284333
0.9110712,0.366836,0.2328906
0.9113007,0.3680531,0.2342605
0.9108302,0.3676707,0.2331339
0.9097962,0.3620682,0.2341635
0.9078379,0.3592014,0.2354141
0.9068312,0.3638683,0.2361889
0.9105964,0.3698796,0.239923
0.9139394,0.3681275,0.2430742
0.9114892,0.3648317,0.2422547
0.9059499,0.3647683,0.2391979
0.9002881,0.3632449,0.2350128
0.8990956,0.3631973,0.2323926
0.9036567,0.3618856,0.2358409
0.9072689,0.359116,0.2391511
0.9080308,0.3652522,0.2357475
0.9083082,0.3741532,0.2332114
0.9065125,0.376425,0.2320258
0.9051662,0.3742488,0.2312198
0.9073946,0.3700127,0.2345152
0.9089306,0.3649783,0.2360249
0.907485,0.360555,0.237513
0.9062757,0.3605715,0.2402423
0.9072775,0.3623658,0.2379064
0.9080912,0.363474,0.2348072
0.9082457,0.367297,0.2329183
0.9086728,0.3683541,0.2330202
0.9082862,0.3674316,0.2368904
0.9091723,0.3686335,0.2381362
0.9102603,0.3678563,0.2371685
0.9095311,0.3678548,0.2366722
0.9096889,0.3684624,0.2360309
0.9100142,0.3675013,0.2379676
0.9101393,0.3675286,0.2392444
0.9102316,0.3673218,0.2368893
0.9105069,0.3682082,0.2344757
0.91328,0.369501,0.2343151
0.9147887,0.3690481,0.2356564
0.9130112,0.3687853,0.2372695
0.9114624,0.3681385,0.2397502
0.9105955,0.3694967,0.2400212
0.9105434,0.3719003,0.23788
0.9083211,0.3698442,0.2371458
0.9030361,0.3659242,0.2354413
0.9021168,0.3630008,0.2340203
0.9061295,0.3648911,0.2339487
0.9114329,0.3738571,0.2330221
0.915602,0.3797916,0.2327732
0.9138775,0.3766745,0.2304457
0.9106376,0.3730713,0.2267622
0.909335,0.3749179,0.2274428
0.9066585,0.3739903,0.2321593
0.9051714,0.3687837,0.2406273
0.901315,0.3663738,0.2501454
0.89566,0.3634722,0.2504967
0.9000658,0.3649297,0.2441114
0.9057406,0.3714967,0.243165
0.9030639,0.3704442,0.2423252
0.9040895,0.3667758,0.2402639
0.9084657,0.3645931,0.2420981
0.9100855,0.3633773,0.2411757
0.9107947,0.364646,0.2417544
0.9049657,0.3624473,0.2433931
0.8990619,0.3619711,0.2422288
0.9031965,0.3634071,0.2437189
0.9058454,0.3632518,0.2419404
0.9040056,0.3679351,0.2410307
0.9066448,0.3727751,0.2434257
0.9098335,0.3756609,0.2426471
0.9092099,0.3775236,0.2438259
0.9095676,0.3769439,0.2447813
0.9110585,0.374832,0.245258
0.9098048,0.3678568,0.2429817
0.9076554,0.3638151,0.2372418
0.9059287,0.3660781,0.2397741
0.9045231,0.3676248,0.245169
0.905527,0.3711377,0.2479845
0.9092879,0.3734068,0.2479969
0.912909,0.372321,0.2441027
0.984479,0.05509718,0.2536823
0.9908175,0.05516873,0.2443983
0.9916298,0.0537446,0.2445017
0.9956424,0.05279063,0.2484376
0.9967803,0.0539817,0.2441992
0.9953199,0.05597118,0.2457581
0.9962168,0.05556646,0.2470535
0.9977869,0.05512455,0.2444742
0.9992248,0.05687425,0.2465783
0.9993287,0.05872624,0.2453881
0.9980187,0.06199666,0.2430035
0.9956177,0.06034868,0.2443579
0.9932919,0.05447705,0.2468305
0.9915081,0.05399131,0.2524327
0.9895051,0.05488534,0.2560641
0.988601,0.05588412,0.2552505
0.9898855,0.05727776,0.2508941
0.9920602,0.06224706,0.2469248
0.9936823,0.07401485,0.2496977
0.9953933,0.07707382,0.2509216
0.9975508,0.07047751,0.2494072
0.9999085,0.06631846,0.2500328
0.9995479,0.06401157,0.2490833
0.9929513,0.06335763,0.2479561
0.9862717,0.06252504,0.2467627
0.9859288,0.06221284,0.2462986
0.9877623,0.06480329,0.2503072
0.9885692,0.0661114,0.2550607
0.9900141,0.06700097,0.2537733
0.990438,0.06800656,0.2488348
0.9882334,0.06539424,0.2462898
0.9870929,0.06096598,0.2443429
0.9889251,0.0571949,0.2471886
0.9922084,0.05284907,0.2523491
0.994982,0.05052871,0.2493876
0.995641,0.05271677,0.2465053
0.9959907,0.05704434,0.244408
0.9969283,0.0647355,0.2404595
0.996797,0.07025555,0.2424215
0.9937875,0.06767354,0.2425348
0.9876351,0.06696759,0.2405338
0.9846063,0.06652051,0.2432991
0.9877417,0.0605313,0.2446619
0.9910505,0.05888321,0.2491685
0.9916779,0.06233305,0.2565643
0.9901407,0.06606365,0.2544421
0.9883823,0.06867712,0.2488651
0.9910293,0.06900623,0.246873
0.9949956,0.06908098,0.2417309
0.9935324,0.06692917,0.2372984
0.9899136,0.06419104,0.2417802
0.9895499,0.06515742,0.2467796
0.9908,0.06582601,0.2454983
0.9901568,0.06547582,0.2432174
0.9893281,0.06792305,0.2401559
0.9907922,0.0703298,0.2381494
0.9925199,0.06775895,0.2419435
0.9945973,0.06274449,0.2450513
0.996456,0.06042554,0.2434375
0.9953169,0.06249312,0.2411058
0.9919528,0.06519085,0.2387358
0.9895977,0.06380092,0.2366278
0.9921381,0.0632088,0.2366606
0.9960834,0.06479088,0.2385232
0.9958171,0.06428083,0.2408885
0.9932956,0.0646947,0.2417495
0.9898905,0.06502933,0.2381431
0.9880344,0.06552776,0.2348439
0.9902364,0.06950438,0.2384705
0.9927407,0.07148889,0.243025
0.9933365,0.06993222,0.244501
0.9931619,0.06797408,0.2457437
0.9928783,0.06726422,0.2459464
0.9930853,0.06671632,0.2447395
0.9926377,0.06486477,0.2403443
0.9900469,0.06749624,0.2350395
0.9874324,0.07305715,0.2367405
0.9887242,0.07525334,0.2418976
0.9940384,0.07545463,0.2439366
0.9973197,0.07429543,0.244675
0.9955131,0.07315956,0.2437846
0.993225,0.07202979,0.2426533
0.992055,0.07125426,0.2450389
0.9911743,0.07108056,0.2462734
0.9917172,0.06906962,0.2433283
0.9919304,0.07072039,0.2397081
0.9915616,0.07298676,0.2379823
0.9926716,0.06769421,0.2396618
0.9934109,0.06255023,0.2428713
0.9929794,0.06182863,0.2451365
0.9931879,0.06293477,0.244855
0.9939905,0.06537368,0.2422547
0.9947059,0.06900197,0.2403262
0.9943793,0.07227906,0.2384865
0.9931406,0.07009955,0.2401756
0.9920315,0.06543424,0.2468471
0.9912934,0.06330729,0.249927
0.9913043,0.06331622,0.2475622
0.9901106,0.06553452,0.2418197
0.9890114,0.06571518,0.2370591
0.9932288,0.06583681,0.2378216
0.9974923,0.06836775,0.2362903
0.9949574,0.06776896,0.2320931
0.9922818,0.06576808,0.234573
0.993001,0.06317905,0.2377051
0.9913587,0.0617933,0.2345559
0.9897498,0.06511749,0.2331637
0.9923866,0.06769657,0.2349048
0.9949033,0.06845533,0.2357633
0.9955714,0.06787398,0.2384345
0.995574,0.06580757,0.2395707
0.9937716,0.06509815,0.2387105
0.9910235,0.06498258,0.2395891
0.9910818,0.06551133,0.2386842
0.9931817,0.06537875,0.2370535
0.9926582,0.0647457,0.2372006
0.9924861,0.06457045,0.2385172
0.9936489,0.06254991,0.2406053
0.9918465,0.06203933,0.2411123
0.9911589,0.06286249,0.2388552
0.9920665,0.06319861,0.2381419
0.9914407,0.06702689,0.2424486
0.9918976,0.07084243,0.2438861
0.9926559,0.06988185,0.2412036
0.9924287,0.06870817,0.2399236
0.9896056,0.07073448,0.2374153
0.9851791,0.07138405,0.2351865
0.9862478,0.06981514,0.2336057
0.9905325,0.0684049,0.235803
0.9921223,0.06568785,0.2419078
0.9911715,0.06522027,0.2424852
0.9894794,0.0659512,0.2442305
0.9902579,0.06423862,0.2454659
0.989932,0.06368636,0.2394217
0.985255,0.06227273,0.2380702
0.982738,0.06280418,0.2397458
0.9859737,0.06873775,0.2412999
0.9907915,0.07173306,0.2442752
0.9909837,0.06947823,0.2421147
0.9894726,0.06680455,0.2380742
0.9907231,0.06774756,0.236529
0.990465,0.06756698,0.2416887
0.9910106,0.06285472,0.249592
0.993279,0.06183038,0.2465412
0.9929152,0.06222126,0.2415447
0.9921744,0.05965974,0.2409702
0.9914105,0.05866423,0.2378119
0.9916112,0.06256406,0.2383652
0.9929828,0.06916484,0.2398499
0.9930173,0.06896483,0.2369897
0.9928728,0.06677573,0.2366609
0.9912099,0.06886641,0.2373844
0.989941,0.06756489,0.2390632
0.9921189,0.06589425,0.2414912
0.9934248,0.06530483,0.2400013
0.9913692,0.06475541,0.2398717
0.989487,0.06682302,0.2410511
0.9913882,0.06695566,0.2403873
0.9933286,0.06734361,0.2399203
0.9923976,0.06865923,0.2368012
0.9903148,0.06745728,0.2348745
0.9871632,0.06628042,0.2375679
0.9871364,0.06518855,0.2406778
0.9901885,0.0666974,0.2440273
0.9916128,0.06901009,0.2443023
0.992902,0.06702281,0.243639
0.9930094,0.06615697,0.2465046
0.990878,0.06789557,0.2446055
0.9889653,0.06832933,0.2413636
0.9883488,0.06802508,0.2436486
0.9893516,0.06796154,0.2433707
0.9902369,0.06812802,0.2425626
0.9920242,0.06805948,0.2446997
0.9940089,0.06799553,0.2460721
0.9929238,0.06830293,0.249711
0.992684,0.06890803,0.2524782
0.9934905,0.06953942,0.2505019
0.9928091,0.06868786,0.2490812
0.9927117,0.06753484,0.2490927
0.9914106,0.06826004,0.2477213
0.9897277,0.06918788,0.2465102
0.9910931,0.06948879,0.2485158
0.9919497,0.06981212,0.2528226
0.9893941,0.07018935,0.2558812
0.9863426,0.07126183,0.2520547
0.9857841,0.07198355,0.2453746
0.9872769,0.07194789,0.2458704
0.9891717,0.0712593,0.2442901
0.9911011,0.06899512,0.2388989
0.9930096,0.06907072,0.2408933
0.9935291,0.07163266,0.2445658
0.992786,0.07113893,0.2480202
0.9930235,0.06970293,0.2511601
0.9932577,0.06831152,0.2509336
0.9928501,0.06497841,0.2541867
0.9926231,0.06446099,0.2574862
0.9902196,0.06601431,0.2511027
0.9870703,0.06508489,0.2378135
0.9870317,0.06482921,0.2320119
0.9882877,0.06481079,0.2377776
0.9893861,0.06331298,0.2410464
0.991887,0.06383447,0.2401722
0.9941755,0.0642641,0.2419396
0.9943816,0.06388203,0.2435139
0.9937222,0.06603015,0.2438266
0.992698,0.06813566,0.2456427
0.9929823,0.06820332,0.2456466
0.9944194,0.06650561,0.2408191
0.9940652,0.06357671,0.2378571
0.9927332,0.06215941,0.2408998
0.9913705,0.06420363,0.2483041
0.992111,0.06723417,0.2519794
0.9940084,0.06604411,0.2435622
0.9928163,0.0617063,0.2354183
0.9927157,0.05927334,0.2379908
0.993591,0.0617363,0.2379541
0.9926477,0.06564592,0.2319019
0.9931854,0.06392992,0.2337207
0.9928309,0.06317572,0.2381546
0.9909928,0.06671397,0.2388403
0.9901871,0.06662735,0.2435197
0.9907883,0.06553907,0.2442933
0.9920185,0.06433425,0.2403843
0.9898885,0.0629182,0.238134
0.988776,0.06350083,0.2358093
0.9936342,0.06215255,0.2385821
0.9973588,0.06230317,0.2408418
0.9961213,0.06402463,0.2439068
0.9942376,0.06385665,0.249451
0.9927197,0.06504811,0.2437165
0.9892102,0.06548323,0.2382963
0.9880342,0.06500474,0.2385452
0.9883428,0.06434833,0.2352144
0.9857757,0.06268992,0.2353896
0.9875821,0.06337464,0.2384421
0.9903967,0.06546074,0.2412285
0.9916625,0.06708719,0.2435155
0.9970105,0.06677768,0.2435185
0.9961527,0.06470369,0.2434519
0.9917104,0.06493156,0.2453082
0.9918811,0.06611423,0.2485758
0.9912631,0.06653121,0.2468526
0.9924426,0.06669014,0.2435542
0.9917304,0.06498718,0.2417821
0.9882183,0.06380386,0.2354729
0.9890278,0.06474773,0.2320623
0.9902841,0.06366737,0.235858
0.9921946,0.06181291,0.2417716
0.9935344,0.06194566,0.2448336
0.9910425,0.06041339,0.2430886
0.9898158,0.0591444,0.2404455
0.9910838,0.06191336,0.2401621
0.9924707,0.06462981,0.246561
0.9924958,0.06574235,0.2488986
0.9924448,0.06743672,0.2439614
0.9901974,0.06842355,0.2457815
0.9840298,0.06770729,0.2406215
0.9823851,0.06603706,0.2311104
0.9860906,0.06382117,0.2350504
0.9896505,0.06342818,0.2350345
0.991994,0.06424109,0.2315623
0.9920776,0.06395584,0.2350991
0.9923235,0.06472056,0.23776
0.9934225,0.06568324,0.2417516
0.9933438,0.06525495,0.2440332
0.9937205,0.06515879,0.2430792
0.9942804,0.06498658,0.2419223
0.9917589,0.06298606,0.2370203
0.9882226,0.05920404,0.2366026
0.9884916,0.05805449,0.239938
0.9898089,0.06345393,0.2425445
0.9903699,0.07247125,0.247918
0.9922064,0.07730207,0.2462805
0.9920687,0.07526224,0.2430785
0.991217,0.07441822,0.24513
0.9928952,0.07585713,0.2412783
0.9928576,0.07385363,0.2392201
0.990183,0.07345635,0.2421666
0.9878093,0.07453705,0.2441284
0.9867321,0.07336716,0.2481296
0.9861975,0.07651487,0.2471477
0.9863441,0.08007919,0.2407803
0.9899004,0.07847011,0.2368881
0.9929816,0.07590799,0.2368766
0.9920128,0.07160156,0.2424189
0.9929561,0.07006424,0.2487633
0.9953514,0.07404371,0.2481603
0.9944217,0.07573187,0.2448094
0.9930127,0.07413172,0.2460999
0.9931154,0.0722346,0.2457662
0.9926368,0.07013403,0.242107
0.9911961,0.06731257,0.2405271
0.9902656,0.06736596,0.2372908
0.992056,0.07021984,0.2325632
0.995829,0.07021313,0.2277206
0.9963211,0.07082568,0.2287909
0.994297,0.07113204,0.236764
0.9934508,0.06830751,0.2390923
0.9927066,0.06787156,0.2398086
0.9928365,0.06833869,0.2417972
0.9924488,0.06942489,0.2427851
0.9910897,0.06973497,0.2434687
0.9915503,0.0662391,0.2399589
0.9909903,0.06513017,0.2397874
0.9901164,0.06590583,0.2395035
0.9922861,0.06675806,0.2373033
0.9946622,0.06877652,0.2405221
0.9947965,0.06825828,0.2406026
0.9941536,0.06754538,0.2425615
0.9945006,0.06838286,0.2457809
0.99439,0.06821745,0.2446573
0.9933714,0.06877319,0.2484308
0.9927363,0.07008231,0.2494485
0.9920182,0.07036582,0.2478791
0.9915519,0.07085062,0.2491811
0.9915534,0.07080375,0.2469773
0.9919182,0.06859183,0.2424866
0.9926294,0.06664779,0.2371396
0.9926452,0.06706992,0.2390066
0.9905949,0.07031469,0.2470531
0.9882126,0.07347143,0.2482005
0.9903622,0.07262948,0.2429513
0.99266,0.072367,0.2369805
0.9895581,0.07436384,0.240542
0.9875863,0.07371886,0.2461888
0.9874508,0.07256446,0.2418517
0.9856277,0.07135945,0.2424223
0.9862712,0.06850838,0.2445089
0.9894856,0.06913909,0.2428394
0.9917628,0.07070608,0.2488101
0.9921669,0.06771545,0.252508
0.9912042,0.06501241,0.250398
0.9908676,0.0650809,0.2496491
0.9909871,0.06703516,0.2472738
0.9905404,0.07089717,0.2440757
0.9894793,0.07398947,0.2434868
0.9881249,0.07392831,0.2442938
0.9878081,0.07126704,0.2426541
0.9867349,0.07028152,0.2426642
0.9862169,0.07105284,0.2450273
0.9908387,0.0703982,0.2449888
0.9946484,0.06909715,0.2457507
0.9931619,0.06750952,0.2431003
0.9921857,0.06774761,0.2383451
0.9925521,0.06882696,0.2386838
0.9914945,0.06873396,0.2389983
0.991216,0.07064268,0.238878
0.9921433,0.07145444,0.2391453
0.9917177,0.07040416,0.2390394
0.9923238,0.07097659,0.2376031
0.9933599,0.07124744,0.2325164
0.9910788,0.07229599,0.2318915
0.9894108,0.07341187,0.2387307
0.9894367,0.07152511,0.2436984
0.9891479,0.06870303,0.2431799
0.9906844,0.06587893,0.2457421
0.9930271,0.06469696,0.2520246
0.992886,0.06726419,0.2490113
0.9918584,0.06897756,0.2445454
0.9932718,0.06779827,0.2470772
0.9936216,0.06822203,0.2441111
0.9924046,0.07031871,0.2415496
0.9929962,0.07224578,0.2454335
0.9912101,0.07366062,0.2478081
0.9879426,0.07273735,0.2518362
0.9860897,0.06914143,0.2538794
0.9845431,0.0655626,0.2503699
0.9870768,0.06686825,0.2486576
0.9901378,0.06987586,0.2465664
0.9877944,0.06955345,0.244523
0.9856793,0.07198231,0.2493381
0.9871721,0.07442053,0.2549565
0.9905653,0.07260149,0.2515885
0.9942795,0.07207852,0.2458121
0.993799,0.07054091,0.2441234
0.9916775,0.07005221,0.240325
0.992707,0.07198227,0.2378723
0.9915174,0.07123925,0.2400171
0.9899234,0.07234103,0.2403021
0.9912258,0.07289555,0.238541
0.9916169,0.07139954,0.2374505
0.9930183,0.07269783,0.2409128
0.9910813,0.07260041,0.2438835
0.9870353,0.07362294,0.2384558
0.9891883,0.07568232,0.2343026
0.989732,0.07305991,0.237926
0.9893049,0.0713782,0.2430828
0.9930463,0.07233927,0.2442386
0.994311,0.07245137,0.2393834
0.9929183,0.07188687,0.2347218
0.9893232,0.07126759,0.2390832
0.9862375,0.07129493,0.243984
0.9883933,0.07358344,0.2391492
0.9897975,0.07786127,0.2363065
0.9884971,0.0781074,0.2374205
0.9887714,0.07445837,0.2365848
0.9891976,0.07297962,0.242329
0.9886664,0.0727099,0.2482609
0.9894489,0.07040935,0.2461605
0.9915251,0.06688033,0.245679
0.9927971,0.067381,0.2470258
0.9916638,0.06925254,0.2417611
0.9900222,0.06775707,0.2347257
0.9902642,0.0698642,0.2354499
0.9894237,0.07329183,0.2375016
0.9881455,0.07398565,0.2379832
0.9884385,0.07649019,0.2431067
0.9881022,0.07694049,0.2459925
0.9892758,0.07570951,0.2430453
0.9912012,0.07558083,0.2387194
0.9916921,0.07360034,0.2361023
0.9917251,0.07226647,0.2416322
0.9895918,0.0721778,0.2488354
0.9880713,0.07244409,0.2461841
0.9881496,0.07435957,0.2431182
0.9872588,0.07634897,0.2427442
0.9873824,0.07578745,0.2373545
0.9873279,0.07080504,0.2375686
0.9856021,0.06631977,0.2409819
0.9842163,0.06819826,0.238207
0.9853848,0.07177773,0.2419816
0.9896261,0.0724874,0.2475845
0.9928027,0.07237533,0.247531
0.9917672,0.07267754,0.2494442
0.9890968,0.07491796,0.2492819
0.9886012,0.07817882,0.2454936
0.9890068,0.07715913,0.2401819
0.9891145,0.0739225,0.2368274
0.9908377,0.07083502,0.236518
0.9923038,0.06575927,0.2350417
0.9927067,0.06396323,0.2365725
0.9931103,0.06622103,0.2382507
0.9931396,0.06719393,0.2434191
0.9934319,0.06820145,0.2534405
0.9947125,0.06857621,0.2507876
0.9961334,0.06809784,0.2455047
0.9942744,0.07154462,0.2468255
0.9915911,0.07687016,0.2429423
0.9914585,0.07900812,0.2417437
0.9906201,0.07852908,0.2441936
0.9923313,0.07783355,0.2421462
0.9959007,0.07707971,0.2401123
0.994553,0.07567437,0.2385665
0.9938013,0.07536377,0.2380156
0.9965423,0.07415919,0.2387156
0.998628,0.06820937,0.2374232
0.9988741,0.06070071,0.238809
0.9915881,0.05640187,0.2417569
0.9825715,0.05621758,0.2410921
0.9857975,0.05678457,0.2424004
0.9901504,0.05822061,0.2443821
0.9879044,0.06051572,0.2439836
0.9895363,0.05960702,0.2444073
0.991729,0.06128472,0.2421223
0.9939846,0.06384458,0.2406027
0.9967085,0.06256663,0.2436659
0.9910548,0.06680814,0.2451237
0.9869734,0.07309065,0.2461875
0.9902303,0.0738851,0.2467275
0.9909301,0.07011918,0.2450919
0.9898244,0.06679071,0.2465206
0.9891007,0.07125589,0.2483355
0.9880796,0.07558527,0.2456985
0.9879935,0.07468693,0.2436697
0.98909,0.07324977,0.2449217
0.9893545,0.07154437,0.2445989
0.9883534,0.0715594,0.2443768
0.9890861,0.07000606,0.2476993
0.9890889,0.0668621,0.2492474
0.9886516,0.06786658,0.2486627
0.9912374,0.0685671,0.2479688
0.995732,0.06670965,0.245769
0.999747,0.06728774,0.2439517
0.9966159,0.07166999,0.2440771
0.9921818,0.07666555,0.2459177
0.9946416,0.07732118,0.2455576
0.9933475,0.07434737,0.242753
0.9903097,0.07294746,0.2414496
0.9929823,0.07208815,0.241975
0.993658,0.07164015,0.2439305
0.9926361,0.0731858,0.2431489
0.9932177,0.07384668,0.2423031
0.9930485,0.07487706,0.2426139
0.9930043,0.0739539,0.2363892
0.9927586,0.07083021,0.2316698
0.9912157,0.07199692,0.2352156
0.9897763,0.07110067,0.2393189
0.9900314,0.06829064,0.2395217
0.9907103,0.07059893,0.2391869
0.9900762,0.07147556,0.2409592
0.9901734,0.07064188,0.240681
0.9905427,0.07182318,0.2415763
0.990042,0.07197807,0.244166
0.9905447,0.06962701,0.2428885
0.9912424,0.06702809,0.2427257
0.9917745,0.0678392,0.2434429
0.991761,0.06874564,0.2428042
0.9904706,0.06757544,0.2433385
0.9901045,0.06881667,0.2441139
0.990472,0.07189077,0.2454027
0.9913286,0.07437209,0.2450145
0.9929263,0.07371365,0.242215
0.9933179,0.06989677,0.2408102
0.9930162,0.06802088,0.240479
0.9929832,0.06780031,0.2385076
0.9930901,0.06797401,0.2369345
0.9931086,0.06894458,0.239883
0.9929542,0.0709513,0.2448338
0.9931363,0.07578465,0.2494937
0.9930424,0.07720239,0.2524966
0.9929977,0.07306205,0.2490806
0.9929732,0.07137769,0.2434357
0.9917177,0.07204635,0.2414902
0.9896498,0.07162955,0.240603
0.9882514,0.07062399,0.2382677
0.9884668,0.07180134,0.2351698
0.9874911,0.07515061,0.2353817
0.9857948,0.07711784,0.2375295
0.988635,0.07830067,0.2378085
0.9920148,0.07743863,0.240914
0.9919681,0.07438259,0.2429303
0.9930477,0.07232543,0.2399858
0.9937733,0.07153039,0.2399931
0.9921326,0.07271664,0.2406665
0.9911354,0.07370976,0.2390059
0.989194,0.07515216,0.2361059
0.9883247,0.07694634,0.2313017
0.9912348,0.07357224,0.2304132
0.9922401,0.07109727,0.2313937
0.9911101,0.07356839,0.231915
0.9902926,0.07484983,0.2363727
0.9900547,0.07441296,0.2411603
0.9924368,0.0738385,0.243719
0.994074,0.07279984,0.2410545
0.9940897,0.06939706,0.2369622
0.9940619,0.06715115,0.2401828
0.9925149,0.07097379,0.241369
0.9926214,0.07304115,0.2392845
0.9924019,0.06924098,0.2414946
0.9891508,0.06799058,0.2438569
0.9883351,0.07346316,0.2463977
0.9889179,0.07850114,0.2458311
0.9879705,0.07647844,0.2434962
0.9872543,0.07391667,0.2476013
0.9873279,0.07325909,0.2498533
0.9877581,0.06884505,0.2479746
0.9874148,0.06688306,0.2477246
0.9875486,0.06992519,0.2468467
0.988628,0.07170012,0.2461875
0.9893243,0.0734688,0.2461528
0.9908434,0.07385,0.247336
0.9920849,0.07140704,0.2490923
0.9914625,0.07075848,0.2469221
0.989667,0.07251174,0.2437332
0.9883404,0.0743785,0.2406271
0.988854,0.07415541,0.236029
0.9891245,0.07479301,0.2356101
0.9887305,0.07739178,0.2372125
0.9890947,0.07510398,0.2362012
0.9898213,0.06857384,0.2394529
0.9906945,0.06402673,0.2438594
0.9914585,0.06600598,0.2437269
0.9926419,0.07012785,0.2470849
0.9935281,0.0675706,0.2503008
0.9928024,0.06614071,0.2477931
0.99162,0.06766757,0.2464506
0.9898125,0.06584276,0.2458291
0.9885085,0.06750634,0.2453028
0.9906222,0.07079002,0.2459192
0.9926396,0.07248467,0.2452327
0.9913568,0.07330215,0.2472772
0.990603,0.07118777,0.248522
0.9910922,0.07237136,0.2419601
0.9907738,0.07274116,0.2397301
0.99027,0.07015062,0.2436471
0.990555,0.0703942,0.2411743
0.9932534,0.06891693,0.2406859
0.996107,0.0686123,0.2433368
0.9951101,0.06754388,0.2413647
0.9929415,0.06387875,0.2426953
0.9927585,0.06623757,0.2434663
0.99325,0.06728754,0.2437839
0.9930477,0.06425541,0.247585
0.9933049,0.06443414,0.245889
0.9949663,0.06818478,0.2468353
0.9963079,0.07249807,0.2502699
0.9960417,0.07305331,0.2472793
0.9954822,0.0785596,0.2448942
0.9952389,0.08719563,0.2420668
0.9924092,0.08019443,0.2403695
0.9889317,0.07130525,0.2409071
0.9900291,0.07550984,0.2400167
0.9912771,0.07530881,0.2435784
0.9906245,0.0717844,0.2474196
0.9923253,0.07459315,0.2468827
0.993874,0.07470602,0.2445112
0.9942412,0.0745415,0.2408588
0.9940688,0.07585686,0.2403345
0.9918885,0.07435763,0.2410006
0.9901907,0.07512227,0.2415444
0.9888421,0.07534182,0.2439079
0.9893146,0.0744569,0.2440083
0.9931112,0.07546029,0.2459551
0.993597,0.07444385,0.2498571
0.9925714,0.07294486,0.2467731
0.9934168,0.07106915,0.2419406
0.9924925,0.07001522,0.240867
0.9912748,0.07138357,0.2421314
0.98992,0.07022598,0.2496292
0.9897666,0.06787898,0.2547555
0.9909733,0.06605347,0.2467395
0.9902789,0.06551383,0.239773
0.9919572,0.06735013,0.2417577
0.9940035,0.06753615,0.2425463
0.9928343,0.06741559,0.2422671
0.9929028,0.06823519,0.2416248
0.9932447,0.06810294,0.2380275
0.9929528,0.06808004,0.2373938
0.9929147,0.06794278,0.237714
0.9921351,0.06812849,0.2353081
0.9916146,0.06847325,0.237325
0.9924078,0.06966135,0.2399331
0.9933782,0.07122807,0.240731
0.9921902,0.06913506,0.2459693
0.9910816,0.06708211,0.2457155
0.9916777,0.06871586,0.2418649
0.9908598,0.07104735,0.2429597
0.9900201,0.07275894,0.2393994
0.9913637,0.07188704,0.2380497
0.9929926,0.06796628,0.2404122
0.9933272,0.06483431,0.2380988
0.9925847,0.06477541,0.2411741
0.9912504,0.066054,0.2449223
0.9899732,0.06704843,0.2448419
0.9909039,0.06906845,0.2454856
0.9923857,0.07209153,0.2416612
0.9912007,0.07419879,0.2390008
0.9899447,0.07415604,0.2389254
0.9901189,0.07303391,0.2388953
0.9903869,0.07364312,0.2425056
0.9907367,0.07384912,0.2454161
0.9915279,0.07224257,0.2465176
0.9920749,0.07216463,0.246234
0.9902078,0.07242376,0.2470334
0.9882594,0.07315098,0.2497808
0.9891503,0.07503427,0.2485336
0.9904823,0.07514569,0.2475271
0.9907806,0.07497581,0.2465536
0.9895789,0.07501313,0.2439576
0.9883212,0.07489598,0.2477699
0.9876312,0.07535774,0.2513358
0.9880862,0.0757299,0.2466545
0.991319,0.07654348,0.2412483
0.991443,0.07478331,0.2393684
0.9895055,0.06988345,0.2385248
0.9904862,0.06669692,0.2388773
0.9905126,0.06674716,0.2401741
0.991037,0.06724351,0.2403143
0.9921048,0.06600207,0.2406984
0.9912271,0.06608082,0.2420977
0.989854,0.06762502,0.2434296
0.9883275,0.06974842,0.2434771
0.9892595,0.07207258,0.2425214
0.9917986,0.07133352,0.2432282
0.9928735,0.07380332,0.2424024
0.9926773,0.07793038,0.2381597
0.9926709,0.0741556,0.2350988
0.9935685,0.07012943,0.2359996
0.9929462,0.06904503,0.2396956
0.9930945,0.06738115,0.2408615
0.9953071,0.06763277,0.2401181
0.9957053,0.06664699,0.2402119
0.9941109,0.0647951,0.2393662
0.9912418,0.06710106,0.2398453
0.9901723,0.07000086,0.2415435
0.9904766,0.06942131,0.2429139
0.9889514,0.06822718,0.2430957
0.9887674,0.06802835,0.2409684
0.9889887,0.06786005,0.2402172
0.9886914,0.06838985,0.2419046
0.9896907,0.06862103,0.2439965
0.9917218,0.0677493,0.2440407
0.9956927,0.06643838,0.2431047
0.9968516,0.06611926,0.2434252
0.9951674,0.06789131,0.2426707
0.9952493,0.07019374,0.2426781
0.9922875,0.07295445,0.2415147
0.9879989,0.07311464,0.2377617
0.9884101,0.07056296,0.2360747
0.9895231,0.06995142,0.2342035
0.9890213,0.06817908,0.2346482
0.9906722,0.06962016,0.2382625
0.9936105,0.07397395,0.2392384
0.9942158,0.07022396,0.2391475
0.9944103,0.06809108,0.2390178
0.9947251,0.07128472,0.2407197
0.994008,0.07084024,0.2435045
0.9936322,0.07059371,0.2431572
0.992876,0.07007902,0.2425424
0.9922369,0.06892589,0.2412152
0.9912769,0.06962671,0.2388959
0.990751,0.0692525,0.2396011
0.9943856,0.06851789,0.241652
0.9956863,0.06783907,0.2417273
0.9925187,0.06785639,0.2396422
0.9926948,0.06838749,0.2393875
0.9928149,0.0678318,0.2442203
0.9916081,0.06826622,0.2487129
0.9928196,0.06889019,0.2458194
0.9925782,0.06882234,0.2409517
0.9928649,0.06947179,0.2397542
0.994835,0.07200578,0.2365407
0.9951804,0.07430266,0.2350703
0.9961692,0.07105314,0.2379049
0.9957414,0.06821041,0.2374853
0.9931689,0.07155578,0.2377036
0.9911189,0.07304571,0.2392841
0.9894303,0.07062416,0.2389271
0.9906481,0.06865558,0.2393389
0.9922325,0.0677996,0.2404148
0.9914336,0.0688321,0.2425661
0.9911129,0.06965367,0.2428779
0.9913809,0.0675993,0.2421904
0.9922805,0.06606289,0.2420186
0.9923789,0.06758314,0.239317
0.9916522,0.06866342,0.2399462
0.9902276,0.06770374,0.2411912
0.9879362,0.06737306,0.2396809
0.9897825,0.06821986,0.2416423
0.9914519,0.06886061,0.2430081
0.9901333,0.06820872,0.2433622
0.9903596,0.06821995,0.2448206
0.9886192,0.07191174,0.2445743
0.9882822,0.07467196,0.2443407
0.990677,0.07277057,0.2440278
0.9901326,0.07125303,0.243105
0.9904335,0.07154959,0.2423998
0.9915801,0.07042655,0.2421016
0.9923091,0.06863646,0.2410366
0.9928374,0.06785556,0.2413626
0.990992,0.06870344,0.2476735
0.9903069,0.07289059,0.2512408
0.9896705,0.07733303,0.2461497
0.9881021,0.07659946,0.2411167
0.98909,0.07386803,0.239175
0.9895021,0.07334319,0.2373855
0.9904576,0.07356058,0.2376445
0.9933938,0.0737078,0.2406473
0.9934611,0.07291238,0.239285
0.9930052,0.06993449,0.2351317
0.9950212,0.06724292,0.235015
0.9960405,0.06848861,0.2372149
0.9937996,0.07086663,0.2408953
0.9907589,0.07278605,0.2408768
0.9918248,0.08126725,0.238299
0.995842,0.08963687,0.2398427
0.9973217,0.08624887,0.2413994
0.9957466,0.08205634,0.2439988
0.9916252,0.07925092,0.2453423
0.9845258,0.07101553,0.2437519
0.9809449,0.07076901,0.2460603
0.9890695,0.07661512,0.250334
1.002856,0.07837318,0.2536206
1.008435,0.08592453,0.2499369
1.005308,0.09435355,0.2436097
1.002605,0.0969582,0.2423624
0.9972018,0.09921008,0.2343633
0.980613,0.09473933,0.2299669
0.9153844,0.4209765,0.08874726
0.9105421,0.4199054,0.09084927
0.9069941,0.4192297,0.09343913
0.9091759,0.4209078,0.09564436
0.9128999,0.41837,0.09198494
0.9124303,0.4150308,0.09089323
0.9124768,0.4114238,0.09155551
0.9127397,0.4089769,0.08882431
0.911923,0.4098,0.08622077
0.9121438,0.4089873,0.08569524
0.9114087,0.4080376,0.08959095
0.9116566,0.4107103,0.09526612
0.9114455,0.4140631,0.09587771
0.9105543,0.4171095,0.0939576
0.9124804,0.4188828,0.09801082
0.913513,0.4171493,0.1012555
0.9161448,0.4132638,0.0959084
0.9211931,0.4099867,0.09293325
0.9205392,0.4105426,0.09450705
0.9143923,0.4120617,0.09387113
0.9082529,0.4106892,0.09259888
0.9079507,0.4117743,0.09245789
0.9135564,0.4168302,0.09067782
0.9166758,0.4225441,0.0841117
0.9155424,0.4257308,0.07997327
0.9157376,0.4249546,0.08192781
0.9181709,0.4253989,0.08168259
0.9185522,0.4219744,0.07963519
0.9174221,0.4117535,0.0795792
0.9173532,0.4091393,0.0796974
0.9159323,0.4127227,0.08089056
0.9132953,0.4151942,0.08481401
0.9103455,0.4201941,0.08745418
0.9082476,0.4224372,0.08782369
0.9084946,0.4209687,0.09066421
0.9074451,0.4208828,0.09599117
0.9070847,0.4184042,0.1003294
0.9085339,0.4152762,0.09903289
0.9079731,0.4168231,0.09592742
0.9084812,0.4188428,0.0957069
0.9089819,0.4203494,0.09207947
0.9097455,0.4227905,0.08982544
0.9131984,0.4199232,0.0899542
0.913738,0.4160819,0.08633043
0.9131009,0.4172007,0.08701054
0.9115566,0.4154747,0.08858317
0.9077591,0.4143381,0.08686894
0.909295,0.4176315,0.08862223
0.9135393,0.4171258,0.08922405
0.9152856,0.4163604,0.08731244
0.9155661,0.4201988,0.08560688
0.9141037,0.4234515,0.08399101
0.9135677,0.4238003,0.08473496
0.9138504,0.4213959,0.08471901
0.9127705,0.4180499,0.08295675
0.9113675,0.4165032,0.08333057
0.9107018,0.4150878,0.08687133
0.9113936,0.4121244,0.0941693
0.912326,0.4090741,0.1008232
0.9136341,0.4074229,0.09833093
0.9153046,0.4075655,0.08967891
0.9154229,0.410399,0.08560544
0.9150327,0.4148599,0.08512981
0.9135359,0.4157644,0.08293002
0.9090838,0.4163176,0.08080516
0.9064381,0.4219776,0.07995263
0.9112234,0.4248836,0.07957699
0.9170679,0.4224223,0.08076289
0.9150607,0.4201505,0.0845308
0.9114915,0.4179572,0.08540446
0.9114978,0.4160677,0.08217776
0.9123877,0.4162361,0.08197542
0.9143464,0.4175965,0.08374834
0.9125661,0.4185069,0.0852198
0.9099471,0.420894,0.0851917
0.9133804,0.4236135,0.08394563
0.9147714,0.4231562,0.08517821
0.9132845,0.4220343,0.08480837
0.9129366,0.4203483,0.08423609
0.9112995,0.4196944,0.08529988
0.9107531,0.4190572,0.08433318
0.9112315,0.4153404,0.08478656
0.9111235,0.416414,0.08513168
0.9111209,0.419089,0.08541155
0.9110287,0.4191754,0.08781276
0.9112216,0.4217709,0.08839669
0.9114024,0.421141,0.08762211
0.9128748,0.4199434,0.08472745
0.9140028,0.421781,0.08280395
0.9112871,0.4214276,0.08704428
0.9089526,0.4221522,0.08952109
0.9118893,0.4218525,0.08443721
0.9163947,0.4197547,0.08060429
0.916893,0.4203613,0.08548108
0.9147615,0.4202954,0.08927766
0.9132801,0.4206191,0.08526851
0.9136607,0.4216243,0.08354606
0.914422,0.4211156,0.08528532
0.9135707,0.421981,0.08473861
0.9139967,0.4223855,0.08393608
0.9149435,0.4216911,0.08226002
0.914106,0.4210528,0.07929954
0.9130422,0.4199278,0.07894579
0.911932,0.4206255,0.08098043
0.9126793,0.4214398,0.08413367
0.9138077,0.4232841,0.08697908
0.9136916,0.4266052,0.08702923
0.9128239,0.4263912,0.08680452
0.9065749,0.426304,0.08470983
0.9011557,0.4267256,0.07809905
0.9060291,0.4258943,0.07463479
0.9118195,0.4266021,0.07516487
0.9106587,0.4250545,0.07626286
0.9102123,0.4225152,0.07957678
0.9112331,0.4212893,0.08137846
0.9089558,0.4215747,0.08056151
0.9093794,0.4259493,0.08046245
0.9104315,0.4291126,0.08153744
0.9082342,0.4291433,0.08255489
0.909236,0.427493,0.08288442
0.9103016,0.4247415,0.08477736
0.9103958,0.422926,0.08723108
0.9116127,0.420097,0.08867108
0.9109645,0.4203565,0.08885602
0.9105279,0.4237003,0.08599267
0.9085695,0.4233288,0.0827311
0.9059383,0.4218079,0.07929432
0.9070042,0.4204523,0.07532662
0.908655,0.4203056,0.07768674
0.9101584,0.4215469,0.08546053
0.9120381,0.4205059,0.08788062
0.9127594,0.4206549,0.08137239
0.9122021,0.4213057,0.07575027
0.9109837,0.4198414,0.07999622
0.9106226,0.4189079,0.08316058
0.9110501,0.4193164,0.07493744
0.9094797,0.4246249,0.07032019
0.907751,0.4283942,0.07640732
0.9105631,0.423871,0.08109503
0.9138456,0.4224687,0.08287623
0.9138344,0.4243945,0.08505066
0.91217,0.4235084,0.08459704
0.9097886,0.4244478,0.08234522
0.9083576,0.4254827,0.08357704
0.9066139,0.4248755,0.08591212
0.9065479,0.4244325,0.08518613
0.9095233,0.4223362,0.08300973
0.91004,0.4193393,0.08023884
0.9094309,0.416892,0.08418971
0.9089589,0.4149947,0.09035562
0.9082023,0.415845,0.08728725
0.9102118,0.419349,0.08729996
0.9118028,0.4201127,0.09080003
0.911113,0.4191237,0.08951404
0.9110498,0.4205705,0.08991051
0.9122889,0.4211171,0.0895482
0.913764,0.4205656,0.08857292
0.9140886,0.4201936,0.08794909
0.9139007,0.4200946,0.08501249
0.9138095,0.4220568,0.08453004
0.9140698,0.4234485,0.08304024
0.9148803,0.4255232,0.08124875
0.9154184,0.4285489,0.08187928
0.9152893,0.4262893,0.08010587
0.9134742,0.4225171,0.08207597
0.9095146,0.4228184,0.08407903
0.9046259,0.4235029,0.07889409
0.903444,0.4245827,0.07527247
0.9075743,0.4271919,0.07336235
0.9105758,0.4264488,0.07202328
0.9116243,0.4238845,0.07388198
0.9120454,0.4231165,0.07567602
0.9081828,0.422162,0.076601
0.9049942,0.4231166,0.0807528
0.9104923,0.4260491,0.08786181
0.9164379,0.4263782,0.0859176
0.913031,0.4236284,0.07704657
0.9108073,0.4217724,0.07603724
0.9134597,0.4247387,0.08497217
0.9111035,0.4274414,0.09448593
0.9084954,0.4245378,0.08686023
0.9084259,0.4227933,0.07713305
0.9078063,0.425747,0.08609638
0.9089474,0.4272004,0.08826875
0.9093871,0.4261807,0.08295808
0.9105246,0.4262408,0.08463825
0.9119853,0.4265686,0.08284425
0.9106489,0.4263201,0.08289443
0.9112677,0.4272516,0.0831622
0.9123302,0.4309122,0.07712691
0.9120174,0.4334206,0.07490066
0.9107563,0.4259946,0.07989491
0.9067236,0.4126577,0.08675839
0.9044179,0.4091049,0.08587745
0.9053096,0.4159229,0.0839736
0.9100884,0.422108,0.08579892
0.9149282,0.4266993,0.08083282
0.9082529,0.4305937,0.08042734
0.9006498,0.4295549,0.08435934
0.9047844,0.4269979,0.08294328
0.9079782,0.4265995,0.08695989
0.9087462,0.4228633,0.08915427
0.9122695,0.4171173,0.08627105
0.909462,0.4150047,0.08793856
0.9058582,0.4163307,0.08716624
0.9082141,0.4226852,0.08412025
0.9076961,0.4286855,0.08215661
0.9064195,0.4270583,0.08082739
0.907494,0.4263232,0.08093707
0.9093304,0.4305237,0.07675217
0.9139692,0.4314113,0.07331573
0.9159676,0.4299254,0.07570067
0.9125616,0.4302181,0.07716744
0.9098466,0.4280287,0.07789689
0.910864,0.4252456,0.0781806
0.9109686,0.4261997,0.07845093
0.9088143,0.4259586,0.08325631
0.9097525,0.424387,0.08787573
0.9104266,0.4247752,0.08636567
0.9100102,0.4240678,0.08411306
0.9117455,0.4216893,0.08504072
0.9111969,0.4219579,0.08479349
0.9106638,0.4246745,0.08397372
0.9115501,0.4257497,0.08302161
0.9108761,0.4263421,0.07937507
0.9111167,0.426728,0.07834227
0.9110812,0.4249615,0.08090675
0.9101993,0.4237927,0.08529228
0.9105016,0.4235363,0.09055575
0.9112014,0.4237537,0.08851313
0.9114157,0.4256507,0.08385408
0.9108702,0.4268473,0.08489971
0.9112608,0.4263159,0.08492413
0.9122368,0.4252852,0.0839021
0.9125162,0.424757,0.08341871
0.9125625,0.4245026,0.08184647
0.911434,0.4223558,0.08525993
0.9107836,0.4201623,0.0889296
0.9112308,0.4214295,0.08559361
0.9110765,0.4230863,0.08403453
0.9111345,0.4222437,0.08778701
0.9111068,0.4227468,0.08994663
0.9110693,0.4243444,0.08866257
0.9115557,0.4236581,0.08773122
0.9127975,0.4242304,0.08849099
0.9145023,0.4256437,0.08898107
0.9137405,0.4248524,0.08850242
0.9116284,0.424318,0.08613594
0.9108644,0.4223464,0.08380127
0.9108898,0.4189817,0.08458802
0.9113469,0.4194396,0.08467869
0.9111117,0.4228271,0.08173631
0.9109118,0.4251896,0.0790175
0.9113413,0.4254058,0.07684503
0.9104574,0.4245777,0.0756059
0.9083935,0.4240423,0.08057904
0.9062733,0.4235487,0.08775479
0.9066348,0.4233473,0.08708428
0.9085704,0.423648,0.08477975
0.9082861,0.4227351,0.08182997
0.9084228,0.4222862,0.07498581
0.9094797,0.4250162,0.08116838
0.9096907,0.4271282,0.08952308
0.9102025,0.4254887,0.07893864
0.9104122,0.4233246,0.07344294
0.9113047,0.4234797,0.08090139
0.9115134,0.4240245,0.08427659
0.9105823,0.4242876,0.08524155
0.9110332,0.4253868,0.08448072
0.9097563,0.4251347,0.08248526
0.9090819,0.4246482,0.08182367
0.9109018,0.4252869,0.08168734
0.9098578,0.424723,0.08379362
0.9091914,0.4240303,0.08622359
0.9112787,0.4235065,0.08743096
0.9122571,0.4233368,0.08444872
0.9124276,0.423922,0.08001937
0.9117935,0.423493,0.08195673
0.9107911,0.4238696,0.08380185
0.9119684,0.4256076,0.08550865
0.9129053,0.4265643,0.08935278
0.9114339,0.4257992,0.08299611
0.9107219,0.4243386,0.07435004
0.9112015,0.4249915,0.07814814
0.9113519,0.4259499,0.08276394
0.9117766,0.4269011,0.08123544
0.9120397,0.4283832,0.07927715
0.9117151,0.426252,0.07744247
0.9117046,0.4256551,0.07901094
0.9119619,0.4291625,0.08196157
0.9115543,0.4289408,0.0810417
0.9110345,0.4257367,0.0835745
0.9109969,0.4217447,0.08735417
0.9111234,0.4194211,0.08345968
0.9112321,0.4223918,0.08012152
0.910983,0.4265136,0.08123009
0.9111311,0.4296493,0.07983804
0.9110409,0.4274478,0.07861482
0.9098696,0.4218529,0.08162919
0.9086922,0.4236986,0.08449812
0.907918,0.4255526,0.08506653
0.9083604,0.4243571,0.08410825
0.9087582,0.4265789,0.08123831
0.9091209,0.4266951,0.07999452
0.9110451,0.4269847,0.08215298
0.9111514,0.4283244,0.08276894
0.9090785,0.4265362,0.08060788
0.9078653,0.425992,0.07833228
0.9086594,0.4255249,0.0763143
0.9115828,0.4246889,0.07833696
0.9140331,0.4250656,0.08363236
0.9141916,0.4247707,0.08427259
0.9127467,0.4243928,0.08616843
0.9120857,0.423961,0.09181048
0.9127143,0.424259,0.08952436
0.9122901,0.4237949,0.08201836
0.9115263,0.4233385,0.07910053
0.9109713,0.4258532,0.08105425
0.9103342,0.426909,0.0825579
0.9087321,0.4262913,0.08669059
0.9063573,0.4263768,0.0933013
0.908499,0.425778,0.08626379
0.9119975,0.4236724,0.07776162
0.9114418,0.41988,0.08267157
0.9127489,0.4175311,0.08167459
0.9165842,0.4165116,0.07611662
0.920892,0.4173053,0.076306
0.927793,0.425247,0.07640066
0.9304415,0.4371906,0.08113023
0.923513,0.4389129,0.09695795
0.9135373,0.4162547,0.1117475
0.9062953,0.3881444,0.103751
0.9017597,0.3904257,0.08551456
0.8950988,0.4120874,0.08216671
0.8869998,0.4293101,0.08168892
0.8867005,0.4430988,0.08115819
0.8915677,0.447951,0.08458563
0.8971283,0.4468208,0.08394726
0.9047742,0.4480372,0.08724462
0.9056707,0.4481692,0.0878928
0.9036744,0.4515268,0.08083821
0.9107711,0.4531765,0.07508379
0.9207377,0.4462586,0.06794188
0.9222797,0.4389087,0.07542838
0.9042443,0.4309978,0.09754513
0.8817085,0.4203541,0.1045281
0.8844187,0.4142048,0.09062646
0.8952132,0.4208893,0.07555549
0.8943461,0.4313093,0.08134764
0.8945892,0.4336934,0.09395678
0.8946133,0.4374971,0.09528446
0.8927287,0.4450203,0.09280481
0.893774,0.4517931,0.08516648
0.8942123,0.4517113,0.0829964
0.8996688,0.4433966,0.08357779
0.9099633,0.4395303,0.07294187
0.9204716,0.4365622,0.06453639
0.9333291,0.441044,0.05791559
0.937007,0.4503731,0.06587452
0.9181691,0.4366632,0.09687296
0.8886283,0.4219652,0.1121097
0.8786815,0.4235196,0.09381871
0.8873429,0.4242919,0.06961558
0.893252,0.4255757,0.07543512
0.9006296,0.424087,0.0883102
0.9019764,0.4244552,0.08203033
0.8971165,0.434974,0.07976816
0.9020136,0.4493401,0.07291941
0.9039332,0.4617377,0.0752233
0.9080417,0.4616959,0.08654795
0.9200502,0.4482504,0.06894397
0.9247239,0.429079,0.06195055
0.9243904,0.4190404,0.07673268
0.9087409,0.4203001,0.08580206
0.8869134,0.417121,0.08886161
0.8877799,0.4271056,0.07614447
0.892992,0.4437725,0.06992756
0.8892916,0.433351,0.07923686
0.8907082,0.4244108,0.08564334
0.8965445,0.4345227,0.08721201
0.9024858,0.4445407,0.08583514
0.9060374,0.4559244,0.08705637
0.9049897,0.4550302,0.08286778
0.9086879,0.4408031,0.08070879
0.9188021,0.4328174,0.08477794
0.919726,0.4235885,0.08480575
0.9105937,0.4234854,0.08980337
0.9044917,0.4314398,0.08575893
0.9061758,0.4277224,0.07802846
0.907474,0.4329842,0.08409768
0.899593,0.4386029,0.08595389
0.8940255,0.4350036,0.08689788
0.8973917,0.4392833,0.08632488
0.9032485,0.4343869,0.08120216
0.9083499,0.4320089,0.08453106
0.9041277,0.4408649,0.08554068
0.8993576,0.4415249,0.0819763
0.9060975,0.439691,0.08146244
0.911522,0.4308765,0.07996153
0.9108025,0.4237485,0.08041717
0.9084505,0.4265224,0.08702537
0.9059688,0.4296377,0.09395211
0.9067105,0.4356549,0.09091009
0.9076138,0.4335076,0.08585547
0.9063419,0.4293062,0.08752783
0.9060266,0.4299387,0.08357812
0.9054231,0.426925,0.07903424
0.9042117,0.431417,0.08040036
0.904272,0.4358992,0.07710091
0.9040144,0.4352784,0.07663901
0.9041211,0.4383059,0.07945396
0.9047763,0.4381491,0.07854228
0.9056578,0.4377037,0.08296454
0.9069397,0.4395009,0.08655927
0.9036297,0.4388364,0.08418363
0.9003857,0.4376473,0.08449752
0.9049975,0.437388,0.08507269
0.9087645,0.4375131,0.0839913
0.906418,0.4369109,0.08208687
0.9044578,0.434922,0.07956297
0.9042541,0.4320965,0.07936206
0.9038091,0.4309964,0.07946615
0.9046565,0.4291873,0.07915568
0.9061716,0.4246033,0.08139236
0.9071144,0.4228452,0.08482459
0.9074281,0.4233347,0.0870131
0.9065104,0.4229605,0.08761487
0.9069368,0.4221819,0.08577573
0.9073343,0.4226983,0.08457595
0.9064678,0.4243988,0.08832976
0.907228,0.4237021,0.09138266
0.906973,0.4240906,0.08858642
0.9066624,0.4258033,0.08623209
0.9076706,0.4247549,0.08831079
0.9084494,0.4248491,0.09061375
0.9105335,0.4251178,0.0913898
0.9111224,0.4234822,0.08960525
0.91162,0.4217112,0.0861119
0.9131606,0.4206774,0.08737987
0.9112421,0.4236295,0.08981897
0.9094589,0.4271348,0.09009315
0.9088943,0.4262622,0.09269359
0.9069579,0.4240277,0.09348781
0.9039429,0.4223655,0.09507019
0.9005633,0.4223106,0.09693888
0.9027668,0.4257786,0.08728694
0.9075149,0.4312588,0.07868343
0.9062549,0.4349364,0.08430985
0.9044753,0.4355501,0.08876246
0.9041106,0.4365731,0.0842151
0.9026806,0.4398324,0.07981423
0.905917,0.4402998,0.07663026
0.9118631,0.4350977,0.07563238
0.9121325,0.4295038,0.08004123
0.9052149,0.4265773,0.08291782
0.8991834,0.4233023,0.08656107
0.9030112,0.4201556,0.0885895
0.9081252,0.4212481,0.07990172
0.9072111,0.4251544,0.07562953
0.9093648,0.4292353,0.07865769
0.912116,0.4347773,0.07963128
0.9091253,0.4383733,0.08118448
0.906882,0.4352761,0.07944773
0.9058287,0.4306674,0.07489768
0.9041082,0.4322958,0.07136627
0.9075819,0.4372259,0.07472949
0.9160176,0.4414114,0.08622392
0.9195999,0.4434436,0.09197804
0.9132589,0.4341602,0.09068732
0.902484,0.4169479,0.08804735
0.8960975,0.4098122,0.08587836
0.8988251,0.4176219,0.08529153
0.9021941,0.4276364,0.08734633
0.9000605,0.4301039,0.09062335
0.901532,0.4347581,0.08262163
0.9043398,0.4395276,0.07412254
0.9038425,0.4408109,0.07999026
0.9057771,0.4496003,0.08156717
0.9083082,0.4491952,0.07500402
0.9148282,0.4410755,0.07304091
0.9214526,0.441028,0.07810808
0.9144472,0.4347103,0.08632221
0.905648,0.4338507,0.08804317
0.9009566,0.4383842,0.08190261
0.8922458,0.4309092,0.07706863
0.8927185,0.426957,0.08084785
0.9009504,0.4198677,0.09081138
0.9001516,0.4082547,0.09920227
0.8996865,0.4141581,0.09996237
0.9028252,0.4301079,0.09363252
0.9023923,0.4477272,0.09176064
0.9029834,0.4568464,0.09187552
0.9009429,0.4452448,0.08287053
0.8995399,0.4367754,0.07573928
0.9046491,0.4417456,0.0821385
0.9081422,0.4379771,0.09247561
0.9092404,0.4312861,0.09285822
0.9082508,0.4315754,0.08950541
0.9088752,0.4273986,0.08767318
0.9122957,0.4252282,0.08169109
0.9138475,0.4298149,0.08357652
0.9179521,0.4340504,0.09355889
0.9177394,0.4366591,0.0984383
0.909817,0.4319616,0.0980241
0.9032477,0.4267719,0.08901712
0.8990141,0.429407,0.08013706
0.8973033,0.4298566,0.08016884
0.8982449,0.4276432,0.08030894
0.9019413,0.4288203,0.08205198
0.9027385,0.4311807,0.08684782
0.9021723,0.4357471,0.08569522
0.9073299,0.4444062,0.08054125
0.9075691,0.4491426,0.08097893
0.9051085,0.4446314,0.08532465
0.9060398,0.4398097,0.08818894
0.9055487,0.4373109,0.08661051
0.9084986,0.4318692,0.08307308
0.9105459,0.4302863,0.08587926
0.9084438,0.4309409,0.08732254
0.9071482,0.426545,0.08462628
0.906455,0.4289161,0.08473882
0.9076096,0.4338235,0.08209664
0.9083682,0.4307009,0.08240628
0.9084028,0.4301017,0.08760647
0.9078933,0.4293454,0.08931265
0.9078011,0.4281896,0.08761019
0.9101423,0.4306638,0.07888149
0.9093395,0.4276954,0.07327278
0.9076153,0.4253544,0.08255035
0.9069649,0.4266383,0.09171615
0.9061855,0.4268636,0.09114206
0.9076311,0.4292595,0.09099246
0.9071947,0.4305941,0.09352904
0.9084496,0.428287,0.09180994
0.9116715,0.424762,0.09001141
0.9099879,0.4242146,0.08893259
0.9082316,0.4242151,0.08488385
0.9074542,0.4224924,0.08430633
0.9072328,0.4243893,0.08645211
0.9079606,0.4247698,0.08684021
0.9066686,0.4244366,0.08685574
0.9070021,0.4261514,0.08929742
0.9091112,0.4252192,0.09448148
0.9097068,0.4266852,0.09792428
0.9081685,0.4264958,0.09971739
0.9060507,0.4227567,0.1001391
0.9068699,0.4229812,0.0977634
0.9074717,0.4262093,0.08868328
0.9065052,0.4308407,0.07521112
0.9076022,0.4295864,0.07608341
0.9097716,0.4253459,0.08956914
0.9116822,0.4252016,0.09749995
0.9114438,0.4227599,0.09661811
0.9095358,0.4230957,0.0917186
0.9096923,0.4247809,0.09106195
0.9100418,0.422633,0.09130014
0.910363,0.423939,0.08511632
0.9116395,0.4239337,0.07566687
0.9107359,0.422936,0.06915904
0.909054,0.4237313,0.07366436
0.9080944,0.4205666,0.08206481
0.907925,0.4196817,0.08596704
0.908791,0.424796,0.08793065
0.9082098,0.4294305,0.08654905
0.9084653,0.427222,0.08675005
0.9104913,0.4227885,0.08680882
0.9104721,0.4240502,0.08571707
0.9069446,0.4248303,0.08808302
0.9026846,0.4256186,0.08389943
0.9050314,0.4274597,0.08046131
0.9102175,0.4256181,0.08556311
0.9115574,0.4252921,0.08764033
0.9127985,0.4242933,0.0867974
0.9108486,0.4226378,0.08468228
0.907654,0.4243478,0.08434279
0.9095889,0.424443,0.08624662
0.9110085,0.4251748,0.0860892
0.9112125,0.426402,0.08730458
0.9111615,0.4264607,0.08767784
0.9096602,0.4285765,0.08683071
0.9090111,0.4291825,0.08507676
0.9088083,0.4274393,0.0821617
0.909913,0.4257807,0.08365354
0.9100454,0.4262124,0.08478786
0.9082212,0.4279644,0.08169374
0.908362,0.4278171,0.07824317
0.908495,0.4283616,0.07820947
0.9089192,0.4280181,0.08085843
0.9095435,0.42649,0.08204508
0.9086161,0.4281325,0.08632666
0.9091008,0.4291653,0.08947065
0.909063,0.4287817,0.08622009
0.9076409,0.4285534,0.08553167
0.9068936,0.4273805,0.08456191
0.9065041,0.4276066,0.08233347
0.9074022,0.4279619,0.08419429
0.9083162,0.426828,0.08573573
0.910022,0.4270208,0.08664153
0.9121068,0.4280825,0.0862222
0.9109904,0.428111,0.08621766
0.9106807,0.428446,0.09030827
0.9116151,0.4293387,0.09124154
0.9106471,0.4284515,0.08566102
0.9102206,0.4271765,0.07967398
0.9094642,0.4278501,0.08128407
0.9084731,0.4278513,0.08476559
0.9088115,0.4266036,0.08258804
0.9098465,0.4260741,0.08421644
0.9117695,0.4254228,0.08581512
0.9111069,0.4249769,0.08376005
0.9086308,0.4260082,0.08560755
0.9082353,0.4274581,0.08614924
0.9079336,0.4272784,0.08547455
0.9073663,0.4257598,0.08322807
0.9061384,0.4255189,0.0802194
0.9055518,0.4259848,0.08315999
0.9068747,0.4263011,0.08498694
0.9059758,0.4271,0.08589611
0.9051644,0.4281647,0.08632833
0.9061785,0.4303173,0.08342617
0.9067702,0.4306119,0.08487358
0.9075704,0.4286844,0.08505837
0.9068758,0.4277771,0.08202853
0.9075058,0.4243714,0.08237588
0.9088591,0.4222243,0.08356424
0.9061781,0.4252627,0.08664841
0.9050792,0.4254596,0.0884801
0.9069629,0.4244456,0.08771729
0.9090143,0.4255891,0.08789475
0.9104447,0.4257174,0.08698248
0.9093972,0.4258923,0.08757956
0.9084491,0.4231337,0.08792017
0.9074395,0.4196382,0.08705948
0.9063637,0.4226615,0.0888499
0.9073214,0.426218,0.08800209
0.9081116,0.4266825,0.08337146
0.9093059,0.4280947,0.07933389
0.9102604,0.4277305,0.08086046
0.9095428,0.4248806,0.08567876
0.9096262,0.4244292,0.08540206
0.9100724,0.4248375,0.08529264
0.910502,0.4226487,0.08735401
0.9115822,0.4214748,0.09185087
0.9123329,0.423437,0.09922521
0.9134023,0.4241785,0.09698007
0.9140458,0.423772,0.09230747
0.9120459,0.4263666,0.09268849
0.9104944,0.4282128,0.08893562
0.9122461,0.425173,0.08737541
0.9139562,0.4229115,0.08648522
0.9140082,0.4261923,0.08360059
0.9138695,0.4291121,0.08792828
0.9138472,0.4254511,0.09177787
0.913922,0.4192461,0.09264066
0.9160307,0.4174712,0.09323057
0.924585,0.426697,0.08400966
0.9338533,0.4387747,0.07383866
0.9296905,0.4351317,0.07799968
0.9132222,0.4266227,0.08754584
0.8913219,0.4219963,0.096153
0.8750445,0.4136682,0.1047606
0.8830853,0.4153295,0.1004518
0.896452,0.4210567,0.08774935
0.8945558,0.4217704,0.0851295
0.8939499,0.4299596,0.09245117
0.891943,0.4281107,0.1012638
0.8945209,0.4182995,0.09415015
0.9108201,0.421412,0.08140787
0.9163483,0.4288303,0.08542343
0.910668,0.4468134,0.08629821
0.8991334,0.4666544,0.08658129
0.889182,0.4672434,0.09168976
0.8973855,0.457588,0.0824895
0.90772,0.4400272,0.07585399
0.9110544,0.4259469,0.07828819
0.9095675,0.4281302,0.07966053
0.9067585,0.4357053,0.0836399
0.9100612,0.4407816,0.08581699
0.9099899,0.4363103,0.08523231
0.9076878,0.4278072,0.08650509
0.9055696,0.4253644,0.09202135
0.9008864,0.4260125,0.09480712
0.9000263,0.4284665,0.09268374
0.9004062,0.430012,0.09269831
0.9017503,0.4330149,0.09183996
0.9044721,0.4373339,0.09234763
0.9044591,0.438025,0.09333392
0.904131,0.4386412,0.09279235
0.9050533,0.4367519,0.09339305
0.9057736,0.4342689,0.08886738
0.9044948,0.4364254,0.08604564
0.9022456,0.4367364,0.08824655
0.899933,0.4346082,0.08845231
0.8976082,0.4318169,0.09005691
0.8974967,0.4276381,0.0907243
0.8978635,0.4278101,0.08999502
0.8991081,0.4329357,0.09081368
0.9034022,0.4357257,0.09280678
0.9053362,0.4341162,0.09799754
0.9037972,0.4324401,0.1006697
0.9039538,0.4341157,0.09835315
0.9048784,0.4374267,0.09750085
0.9057269,0.4392517,0.0972499
0.9071663,0.4382621,0.09404057
0.9054726,0.4342898,0.0913778
0.9034216,0.4313577,0.08993227
0.9060493,0.4306568,0.08704679
0.9079521,0.4316976,0.08691365
0.9066951,0.4342023,0.0872696
0.9067096,0.4316489,0.08547956
0.907252,0.4296497,0.08710939
0.9067888,0.4341178,0.0879368
0.9069222,0.4364008,0.08607254
0.9072418,0.436022,0.08509593
0.9077196,0.4342293,0.08339579
0.908663,0.4325317,0.08035483
0.9086337,0.4326606,0.08032772
0.9089578,0.4289392,0.0957412
0.9101648,0.4249014,0.1123252
0.9096501,0.4259645,0.1001787
0.9085078,0.4278488,0.08560249
0.9090077,0.4281539,0.09300428
0.9117644,0.4281865,0.09300791
0.9150701,0.4254673,0.08632154
0.9141993,0.4223993,0.08838331
0.912006,0.4238753,0.08738653
0.9127794,0.4222484,0.08940528
0.91251,0.4203093,0.09462513
0.912186,0.4237465,0.09357142
0.9127459,0.4249349,0.09143321
0.9114914,0.4263065,0.08696616
0.9117622,0.425009,0.08542918
0.913053,0.4193021,0.0855773
0.913395,0.4192845,0.08312157
0.9141112,0.4216666,0.08618974
0.9144907,0.4235143,0.08765975
0.9167996,0.4252028,0.08985974
0.9207385,0.4275042,0.096684
0.9205923,0.4315757,0.09932801
0.9149166,0.4260733,0.1005929
0.9094651,0.4116749,0.09753393
0.9078772,0.4061649,0.08984563
0.9040214,0.4198167,0.08279176
0.8987181,0.4385203,0.08205592
0.9006824,0.4382333,0.0857723
0.9045846,0.430665,0.08214692
0.9041263,0.4296296,0.08898594
0.9041451,0.4252201,0.1024427
0.9045384,0.4262497,0.09929539
0.9050885,0.4309402,0.09893369
0.9080839,0.4282676,0.1005766
0.9097813,0.428768,0.09707454
0.9096908,0.427768,0.09812021
0.9088979,0.4230894,0.09339255
0.907822,0.4235742,0.08814118
0.9082711,0.4237713,0.09021361
0.9075786,0.4244438,0.09104807
0.9068163,0.4255417,0.08994828
0.9088016,0.4243366,0.09050213
0.910018,0.423737,0.0940568
0.9080685,0.4242878,0.09759046
0.9058056,0.4297468,0.09877328
0.9050064,0.4337564,0.09411085
0.9004111,0.4298243,0.08871773
0.8955375,0.4284651,0.09153698
0.9021579,0.4323398,0.09437395
0.9161427,0.434134,0.09414034
0.9249465,0.4291873,0.09280362
0.9227831,0.4151882,0.08948074
0.9155263,0.402978,0.08819906
0.9108145,0.4105032,0.0873256
0.9060562,0.4265913,0.08705568
0.9055775,0.4305014,0.08853768
0.9080992,0.4299843,0.09068172
0.9035288,0.426567,0.09702838
0.9018785,0.4201671,0.104247
0.9060574,0.4227899,0.1064097
0.9096073,0.4258414,0.1039904
0.9143852,0.4263212,0.101722
0.9136242,0.4285056,0.1039642
0.9086876,0.4280865,0.1059477
0.9071949,0.4296541,0.103846
0.9118315,0.4291121,0.09841385
0.9197918,0.4241008,0.09052479
0.9178212,0.4178545,0.08719947
0.9102615,0.4114333,0.08574012
0.904732,0.4171694,0.07937973
0.9022443,0.4309329,0.07344259
0.9135081,0.4434329,0.06816631
0.9276032,0.4490758,0.06856113
0.9282658,0.429908,0.08048731
0.9187713,0.3967949,0.09309199
0.9063243,0.3843344,0.09406781
0.9014176,0.4091134,0.07677666
0.9029232,0.4411932,0.06214424
0.9010096,0.4422896,0.07377258
0.8928528,0.4413455,0.09430248
0.8858679,0.4509557,0.1082213
0.8935711,0.4504041,0.1113094
0.9025262,0.4641301,0.1038289
0.895562,0.4782574,0.1027666
0.8961324,0.4642426,0.1002051
0.918412,0.4464384,0.07658892
0.9347969,0.4332901,0.05509426
0.921942,0.4260064,0.06545925
0.8945678,0.4184152,0.08548423
0.8792472,0.4066076,0.08457565
0.8791105,0.4116333,0.0775336
0.891031,0.4211108,0.07341755
0.9026348,0.4349896,0.06848779
0.9002912,0.4716998,0.06687968
0.9053585,0.5001052,0.05729857
0.915372,0.499901,0.05223209
0.9059801,0.4789398,0.06951872
0.8917,0.4528575,0.08965382
0.8836104,0.4445496,0.09476468
0.8851527,0.4338176,0.08846238
0.8925742,0.4054831,0.09126036
0.8898533,0.3991994,0.09610043
0.8900974,0.4237432,0.0920195
0.8964306,0.4506041,0.09522227
0.8983446,0.4676954,0.09416921
0.9034821,0.4638195,0.08755025
0.9067142,0.4546488,0.08591897
0.9038844,0.4595129,0.08517744
0.8965324,0.4464132,0.09026772
0.8885163,0.4260022,0.09266914
0.8912064,0.4294552,0.09470353
0.8931111,0.4303394,0.09895514
0.8885707,0.4291315,0.09272905
0.8896992,0.4371685,0.08227593
0.8948179,0.451702,0.07121616
0.9018836,0.4733837,0.06591634
0.908543,0.4761055,0.06628157
0.9109902,0.4657482,0.06563405
0.9056875,0.4604168,0.07516108
0.8927505,0.4437415,0.08809222
0.8861859,0.4249421,0.09363322
0.8864265,0.4202858,0.09108258
0.8873316,0.4234969,0.08349767
0.8913769,0.4310424,0.07947353
0.8925128,0.4484345,0.07092108
0.8928821,0.4724995,0.06734143
0.8965587,0.4789763,0.07374354
0.9035827,0.4684403,0.06993462
0.9178096,0.4661244,0.06873409
0.9239037,0.4619244,0.07205023
0.9157849,0.4486861,0.07575404
0.9039456,0.4405636,0.09643048
0.8898039,0.4271221,0.1080011
0.887456,0.4116481,0.0916395
0.8937141,0.4143821,0.07886091
0.8925022,0.4282337,0.08697669
0.8972043,0.43721,0.09403095
0.9023656,0.4387116,0.08990983
0.8968193,0.4511893,0.09208886
0.8912518,0.4757021,0.0925593
0.8877115,0.481414,0.08824113
0.9030328,0.4710603,0.08795852
0.9285852,0.4583878,0.08299698
0.9223723,0.4288018,0.08392986
0.8998616,0.4021186,0.086706
0.8898229,0.4055803,0.08172987
0.8924815,0.4142697,0.07920465
0.90081,0.4227408,0.07431086
0.898027,0.4399041,0.07772961
0.8975764,0.4445562,0.08621997
0.9018749,0.4515868,0.08279029
0.8920291,0.4712476,0.0844983
0.8886574,0.4687781,0.08836216
0.8954501,0.4564023,0.08615257
0.9031575,0.4534441,0.08588593
0.9121224,0.4415176,0.08151302
0.9093602,0.432764,0.07871539
0.9048557,0.4333433,0.0805557
0.9044391,0.4310429,0.0791304
0.9039146,0.4332826,0.081612
0.9074436,0.4298625,0.08954369
0.9080433,0.416751,0.09705385
0.9123212,0.4086567,0.09988405
0.9235696,0.4097729,0.0947539
0.9287052,0.4182191,0.09404197
0.9146823,0.4181267,0.1077627
0.8883282,0.4123423,0.1163589
0.8846241,0.4139942,0.09679095
0.8943749,0.4259701,0.07281858
0.8929476,0.450003,0.07835165
0.8946766,0.4570093,0.08881038
0.8961169,0.4511925,0.08578792
0.8968871,0.4611009,0.08498086
0.902937,0.4658538,0.07892576
0.9028696,0.4589629,0.07282292
0.9074949,0.4458533,0.07442828
0.9211341,0.4265046,0.0711198
0.9266029,0.4171445,0.07368548
0.9234163,0.4200637,0.08341267
0.9186187,0.4227203,0.08916611
0.9058655,0.4178985,0.09011066
0.8891696,0.4193852,0.0888327
0.8942108,0.432007,0.09589408
0.9044794,0.4394795,0.1010353
0.8953354,0.4354798,0.1008082
0.8954899,0.4265355,0.1000167
0.9006225,0.4322661,0.09089232
0.8971584,0.4492666,0.09054974
0.9039621,0.4600622,0.08995608
0.9062288,0.4581601,0.08037587
0.9034561,0.4418084,0.08620537
0.9078979,0.4349911,0.09008353
0.9072355,0.436519,0.08779828
0.9083932,0.43368,0.08627407
0.9108765,0.4325015,0.07444335
0.9084928,0.424505,0.07533836
0.9056466,0.4219454,0.09133899
0.8993887,0.4187453,0.1059851
0.8994133,0.4084981,0.1124027
0.9108112,0.4114059,0.103508
0.9195635,0.4077519,0.09943916
0.9136154,0.4044007,0.101134
0.9037169,0.4137669,0.09837472
0.906244,0.4188302,0.09995206
0.9099443,0.4289493,0.09884886
0.9110755,0.4329611,0.09937674
0.9125004,0.4287811,0.1020044
0.9098476,0.4325711,0.09411153
0.9116841,0.4340414,0.08626638
0.913697,0.4375192,0.08114366
0.9128756,0.4421966,0.07668606
0.912532,0.4366655,0.08063401
0.9055936,0.4249614,0.08863387
0.9004901,0.4122916,0.0928396
0.9008145,0.407672,0.0957166
0.9045791,0.408221,0.1011214
0.9107635,0.4089692,0.1025959
0.9075016,0.4159868,0.1003181
0.9041812,0.4205177,0.09977418
0.906595,0.4248093,0.09763412
0.9058205,0.4362501,0.09553381
0.9089684,0.4368734,0.09494262
0.9118363,0.430272,0.09749855
0.9065043,0.4287282,0.10249
0.9026947,0.4243917,0.1008578
0.905751,0.4270244,0.09689018
0.9085332,0.4332779,0.09446729
0.9064573,0.4269979,0.09012175
0.9064728,0.4228659,0.08983828
0.9077409,0.4223527,0.09027657
0.9067164,0.4185958,0.08686849
0.9088722,0.4231841,0.08720214
0.9105195,0.4298562,0.08868946
0.9096793,0.4297776,0.08957236
0.9100533,0.4297622,0.09278804
0.9092516,0.4299645,0.09205678
0.9084221,0.426275,0.0907058
0.9090486,0.4219952,0.09255952
0.9087327,0.4234972,0.09239351
0.9082879,0.4265749,0.09322916
0.9088233,0.4262083,0.09450383
0.9078128,0.4265521,0.09360737
0.9061455,0.426527,0.09176867
1.013833,0.02088921,0.1386647
1.017549,0.01788417,0.1402501
1.024653,0.01245146,0.1359225
1.025659,0.006125357,0.1305733
1.019674,0.003019626,0.1258586
1.017937,0.003358516,0.1223499
1.015396,0.01022574,0.1209126
1.016823,0.01493111,0.1270481
1.025079,0.007097862,0.1428779
1.021482,0.0005353247,0.1505193
1.012373,0.009651072,0.1448376
1.005278,0.01978526,0.1378021
0.9958097,0.01754437,0.1366829
0.9952181,0.01263211,0.1377612
1.002151,0.009484381,0.1359158
1.010305,0.008565719,0.1341493
1.017853,0.01215232,0.1312039
1.019847,0.01689346,0.1276322
1.019708,0.0233275,0.1223258
1.019183,0.02381425,0.1180032
1.019383,0.01811306,0.1253504
1.020153,0.01838044,0.1326651
1.020985,0.01580752,0.1328994
1.02376,0.009352655,0.1373654
1.022294,0.006010093,0.1450129
1.015529,0.002655106,0.1506973
1.006988,0.006495654,0.1554425
1.002439,0.01406002,0.1606241
1.008677,0.01756807,0.1587348
1.013524,0.01675107,0.1525967
1.009706,0.01130794,0.1543755
1.00921,0.00986513,0.1524662
1.013188,0.007399319,0.1465702
1.014356,0.003460129,0.1488514
1.013043,0.006408246,0.1481572
1.012358,0.006355451,0.1445419
1.015111,0.007762433,0.1435722
1.020661,0.0133794,0.141331
1.022788,0.01421675,0.1448733
1.018625,0.01658245,0.1492526
1.013868,0.01874337,0.146904
1.013638,0.01590887,0.1466319
1.012738,0.01297535,0.1481864
1.010013,0.01399433,0.1487725
1.012236,0.01800271,0.1500951
1.014538,0.01873746,0.1482784
1.014579,0.01736349,0.1443374
1.016748,0.0161123,0.1445991
1.016804,0.01335126,0.1489456
1.015291,0.01074482,0.1541609
1.013996,0.008948135,0.1582527
1.011015,0.008762433,0.159459
1.008066,0.009757928,0.1585373
1.006406,0.01145883,0.1549241
1.009093,0.01240489,0.1489957
1.014681,0.007765346,0.1420379
1.019759,0.00190869,0.1331295
1.023876,0.002617681,0.1300345
1.022325,0.007115941,0.1345186
1.019204,0.01193585,0.1356576
1.019705,0.01525014,0.1344118
1.019043,0.01269972,0.135827
1.018252,0.008539689,0.1374245
1.017133,0.007965479,0.1377618
1.014944,0.007258136,0.1374176
1.014976,0.007108544,0.1372668
1.013571,0.008847137,0.1359786
1.012075,0.009736956,0.1329228
1.014924,0.008334213,0.1329481
1.018668,0.005729637,0.1373438
1.020525,0.005945375,0.1397617
1.020281,0.006006815,0.1417261
1.019427,0.005125953,0.1461112
1.01512,0.007997555,0.1449873
1.008985,0.009837411,0.1429665
1.011643,0.009930321,0.1457151
1.016276,0.01137663,0.1453674
1.014868,0.01371705,0.1463688
1.01524,0.01731542,0.1481382
1.018215,0.02256962,0.1437853
1.027213,0.03620771,0.1394891
1.038574,0.04586469,0.1385125
1.033502,0.02659123,0.1490818
1.023743,-0.004440876,0.1673537
1.022949,-0.01526619,0.172281
1.013507,-0.007930409,0.1700364
1.000957,-0.001364799,0.1685318
0.9975439,0.004099165,0.1574105
0.9930604,0.014428,0.1462566
0.9948779,0.008294231,0.1513036
1.004727,-0.008717882,0.1563539
1.006296,-0.005647314,0.1445841
1.00893,0.00074187,0.1358776
1.019625,0.008532707,0.1370328
1.027422,0.03138625,0.1337262
1.033455,0.04055369,0.1357393
1.034192,0.03176811,0.1512144
1.030703,0.0220536,0.1672105
1.031081,0.01350443,0.1704606
1.022258,0.00908385,0.1661401
1.005012,0.008624216,0.1664718
0.9918929,0.01024239,0.1654512
0.9839165,0.009197646,0.1633891
0.987263,0.008953029,0.1622647
0.9975596,0.008089869,0.1548571
1.00816,0.003514774,0.1496679
1.016989,0.005907301,0.1465799
1.020201,0.007285896,0.1424593
1.026194,0.0091395,0.1441828
1.031433,0.01828409,0.1418808
1.028688,0.02390824,0.1348936
1.025601,0.02734112,0.1362029
1.019553,0.01901458,0.1473977
1.00884,0.004648048,0.1609679
1.003453,0.008792753,0.1618566
1.006319,0.01815352,0.1545456
1.010222,0.0218377,0.1545827
1.012273,0.02386998,0.1554852
1.013459,0.01985265,0.15704
1.014,0.01278616,0.1634696
1.022033,0.003730954,0.1664234
1.030758,-0.001326604,0.1654981
1.022994,0.00354957,0.1637839
1.008505,0.006673801,0.163406
0.9984918,0.01005619,0.1620669
0.9933036,0.01338574,0.1544341
0.9976859,0.008767844,0.1484039
1.005661,0.009446315,0.1492512
1.012274,0.01215445,0.1506589
1.018205,0.01297356,0.148401
1.017326,0.02071504,0.1474837
1.017218,0.0228729,0.1497008
1.021734,0.0175452,0.1492192
1.021455,0.01340931,0.1522083
1.021749,0.01275816,0.1556317
1.019325,0.0135242,0.149929
1.010031,0.01219308,0.1477164
1.004915,0.01725819,0.1540712
1.003241,0.02191239,0.1625757
1.005489,0.02054655,0.1669824
1.009813,0.02181316,0.1617142
1.01234,0.01783088,0.1575184
1.018093,0.01150012,0.1594591
1.020678,0.0120524,0.1568177
1.018406,0.01398943,0.1526579
1.014491,0.01414043,0.1560169
1.009222,0.01360577,0.1594066
1.008634,0.0135497,0.1585116
1.008668,0.01101024,0.1609092
1.007169,0.007832655,0.1638346
1.008315,0.008578983,0.1631771
1.008709,0.0115912,0.1626934
1.007121,0.01516754,0.1617096
1.007612,0.01648564,0.1605268
1.012918,0.01694117,0.1604489
1.018631,0.01648514,0.1570972
1.018791,0.01196672,0.1506265
1.015439,0.009193554,0.1487304
1.014702,0.009248253,0.1517756
1.015675,0.007487562,0.1543869
1.014696,0.006229175,0.1572515
1.013556,0.006024627,0.157339
1.012065,0.006674964,0.1515534
1.01221,0.009294096,0.1476088
1.01393,0.008716369,0.1465026
1.013022,0.007351621,0.1455759
1.013019,0.008386047,0.1502976
1.013311,0.004599341,0.1566306
1.012202,0.00165293,0.1584062
1.01244,0.004768781,0.1605627
1.012923,0.006223646,0.1623397
1.014316,0.004681185,0.1585883
1.015777,0.00362482,0.1537797
1.015994,0.00579323,0.1559037
1.017673,0.009513681,0.1585671
1.020116,0.01373739,0.1551285
1.018547,0.01686399,0.1550577
1.014224,0.01470662,0.1565295
1.013208,0.01232378,0.1560818
1.01345,0.01000134,0.1594013
1.013605,0.006901248,0.1604026
1.014124,0.007901626,0.1598873
1.012131,0.006137541,0.1622538
1.011887,0.001761183,0.1630826
1.013357,0.002514296,0.1633752
1.012939,0.003360407,0.166226
1.013154,0.0023925,0.1695152
1.012611,0.002846964,0.1672358
1.011601,0.002919755,0.1659765
1.011105,0.003301113,0.1712587
1.009521,0.006471263,0.1727069
1.01139,0.008878572,0.1701035
1.015554,0.00600844,0.1669848
1.015487,0.002436473,0.165502
1.013893,0.003289418,0.1659285
1.012732,0.003315289,0.1615923
1.010939,0.002105912,0.1572863
1.010088,0.004106989,0.1564674
1.009485,0.004960789,0.1570265
1.009574,0.00589045,0.1589703
1.010216,0.00958809,0.1586282
1.01109,0.009980599,0.1587176
1.015364,0.007503657,0.1589985
1.019772,0.005502646,0.1564142
1.020012,0.005445376,0.1555004
1.018388,0.007716158,0.1563577
1.015824,0.008593217,0.155229
1.01303,0.00753764,0.1526039
1.013275,0.006653203,0.1525083
1.014747,0.007730244,0.1540379
1.013599,0.008657468,0.1542863
1.013727,0.006311148,0.154288
1.015383,0.00470591,0.1538213
1.015104,0.004719435,0.1533136
1.015462,0.004065717,0.1526261
1.015156,0.003807288,0.1522827
1.01389,0.003572567,0.1521044
1.013118,0.003619721,0.1500316
1.011861,0.005104831,0.1495415
1.012608,0.005861418,0.1510631
1.012827,0.003597878,0.1535937
1.012032,0.001967283,0.1575553
1.012672,0.003847339,0.1577106
1.011501,0.007588693,0.1561194
1.010709,0.01177624,0.1572453
1.011447,0.01203618,0.1567822
1.012479,0.009424862,0.1547662
1.01552,0.007846073,0.1539247
1.017524,0.004777626,0.1538728
1.016617,0.004577406,0.1542824
1.015316,0.006807597,0.1532799
1.01505,0.00503348,0.1524228
1.01424,0.005221839,0.1547567
1.0126,0.006142705,0.1589619
1.012295,0.00398832,0.16242
1.01249,0.004152959,0.1623205
1.012221,0.004428346,0.163624
1.010724,0.005346388,0.1683619
1.009587,0.008871302,0.1663172
1.012351,0.01033576,0.1600926
1.015199,0.01012692,0.1559555
1.014531,0.01003859,0.1533004
1.013168,0.01019856,0.1560913
1.012449,0.007548868,0.1576012
1.012478,0.002778015,0.1558781
1.01448,0.001463147,0.1576865
1.01564,0.001677389,0.1571493
1.013355,0.004506283,0.1570001
1.011611,0.009453318,0.1587233
1.011597,0.01043208,0.1567543
1.011115,0.009280432,0.1565787
1.010867,0.007694043,0.1556084
1.011399,0.006536146,0.1536183
1.012112,0.006857568,0.1551034
1.012581,0.007779027,0.155847
1.01272,0.01147395,0.1585364
1.012513,0.01787988,0.1614976
1.013332,0.02082194,0.1622322
1.01439,0.01650717,0.1633327
1.013588,0.01275064,0.1614819
1.012524,0.01068376,0.162218
1.010268,0.003606479,0.1655637
1.007126,0.0006847517,0.1646455
1.007558,0.003763789,0.1629798
1.012379,0.003289844,0.1582192
1.016871,0.003937061,0.1533181
1.014932,0.007155139,0.1539915
1.012322,0.008284755,0.153041
1.014717,0.009978462,0.1505525
1.015098,0.01052161,0.1506517
1.014632,0.00895919,0.1550895
1.015104,0.009512706,0.1595955
1.013207,0.008338628,0.1538434
1.013863,0.005828002,0.1472805
1.015436,0.006929841,0.150629
1.014956,0.006620385,0.1552924
1.015631,0.00587983,0.1585005
1.015019,0.008301861,0.1606525
1.014137,0.008677085,0.1580642
1.014026,0.007131036,0.156229
1.013439,0.007058421,0.1585323
1.014222,0.008722179,0.1612252
1.013902,0.01075148,0.1643186
1.013581,0.01162471,0.161138
1.014287,0.01264299,0.1511366
1.012895,0.01297227,0.1483584
1.01037,0.01173393,0.1518019
1.007757,0.01074454,0.1579722
1.009602,0.009440518,0.1669152
1.013635,0.009195593,0.1676437
1.011725,0.01030165,0.1620615
1.00844,0.009562839,0.1600628
1.006985,0.009094232,0.161281
1.008788,0.008199633,0.1630278
1.012868,0.005175153,0.1650869
1.011179,0.006026743,0.1676171
1.009856,0.01051657,0.1670143
1.011261,0.01320303,0.1656622
1.009372,0.01097821,0.166157
1.011365,0.006235986,0.1640666
1.014902,0.005667662,0.162638
1.014592,0.00583455,0.1633478
1.015159,0.005507102,0.1651553
1.013731,0.009251534,0.1658597
1.011557,0.01310465,0.1573076
1.012769,0.01460081,0.1530114
1.013693,0.01276392,0.160451
1.013908,0.009030281,0.1608796
1.013517,0.006100352,0.1596721
1.011081,0.00309517,0.1593662
1.008912,0.005015805,0.1531607
1.009823,0.008872707,0.1548672
1.012254,0.008897828,0.1575931
1.013816,0.009254614,0.1576362
1.015186,0.008244153,0.160179
1.015181,0.008213857,0.1569631
1.012959,0.01174962,0.1582972
1.010618,0.01260684,0.1589076
1.010369,0.01055981,0.1530459
1.011774,0.007000283,0.1529402
1.011485,0.005153634,0.1517061
1.012015,0.005883103,0.1511625
1.013391,0.005286239,0.1507677
1.010892,0.005958901,0.1515084
1.009661,0.007556311,0.1579549
1.010797,0.008521156,0.1559588
1.01273,0.008690839,0.1551921
1.01672,0.006875512,0.1596805
1.015781,0.006811248,0.1586453
1.014028,0.006963402,0.1584172
1.016371,0.005761197,0.1549871
1.016354,0.005582373,0.1515354
1.018306,0.005274755,0.1534966
1.020373,0.005376236,0.1545765
1.017168,0.004054208,0.1584412
1.015449,0.002802936,0.1619742
1.014153,0.00456852,0.1596343
1.011752,0.004502712,0.1588532
1.012344,0.003001825,0.1616215
1.013904,0.0008292981,0.1627554
1.014009,-0.0024818,0.1652021
1.013255,-0.001925627,0.1687532
1.011305,-0.0004561621,0.1663835
1.009738,-0.001837036,0.1615027
1.013841,0.0002140973,0.1586532
1.018946,0.01107403,0.1589556
1.020319,0.02999274,0.1596945
1.030668,0.03926195,0.1566405
1.041434,0.02013346,0.1576016
1.025288,-0.004883749,0.1644808
0.9995645,-0.01070762,0.1701912
0.9930711,-0.009420133,0.1688192
0.9940055,-0.007303183,0.1579053
0.99779,-0.001550726,0.1477272
1.009375,0.003947724,0.1428852
1.015372,0.006796888,0.1435336
1.015655,0.003763366,0.1489572
1.01632,0.0002955148,0.1492825
1.018174,-0.001976743,0.1494738
1.022205,-0.007447006,0.1512923
1.019861,-0.008555087,0.1490004
1.01451,-0.00816268,0.1501592
1.011759,-0.01101341,0.1505921
1.006478,-0.00964133,0.1494642
1.000174,-0.008937346,0.1530369
0.9924067,-0.01063337,0.1557479
0.9938961,-0.006737688,0.154366
1.013468,0.003766232,0.1391377
1.030515,0.01751984,0.1181646
1.031981,0.01920156,0.1235059
1.027854,0.00802538,0.1533792
1.030975,0.0009374839,0.1721162
1.036761,-0.006527684,0.1559101
1.030355,-0.01071594,0.1382232
1.006717,-0.007596007,0.1569151
0.9739249,-0.01078471,0.1704044
0.961572,-0.0122971,0.1599667
0.9668905,-0.01090221,0.1582334
0.9703931,-0.008193323,0.1520773
0.9945871,0.007354434,0.1444627
1.017791,0.02458472,0.1513597
1.026187,0.04036464,0.1503008
1.056865,0.05485704,0.1468725
1.076102,0.05100479,0.150796
1.062462,0.02801831,0.1628075
1.042493,-0.002196978,0.1860872
1.010628,-0.01536381,0.1926162
0.9862099,0.0004680891,0.1838623
0.9834729,0.01958741,0.1841822
0.977495,0.02869964,0.1817471
0.9764123,0.03046953,0.1712638
0.9869199,0.02603649,0.1625756
0.989373,0.02865422,0.1583656
0.9977539,0.03308857,0.1593974
1.016735,0.03079126,0.1604303
1.029013,0.03279842,0.156843
1.043302,0.03334156,0.1508702
1.047794,0.03334798,0.1469938
1.03867,0.03392129,0.1555332
1.030431,0.02130069,0.1718804
1.009885,0.01419227,0.1767348
0.9961424,0.02895405,0.1759556
1.003624,0.04294433,0.1790518
1.006315,0.03435185,0.1846328
1.005829,0.02252519,0.1918306
1.011137,0.02519012,0.1855941
1.011449,0.02169298,0.1756553
1.003265,0.01985354,0.1805171
0.9975107,0.02280727,0.1805717
0.9962603,0.01515903,0.1753654
0.9960117,0.01514354,0.1712681
0.9987839,0.01644397,0.1569707
1.000916,0.01449555,0.1487704
1.003105,0.0216558,0.1519117
1.008072,0.02643373,0.1546109
1.016856,0.03095571,0.1600847
1.027874,0.03077786,0.1602835
1.032839,0.01867156,0.1610001
1.026908,0.0103846,0.1727396
1.017315,0.01929578,0.1768782
1.019165,0.03869037,0.1736589
1.020797,0.04253462,0.1725723
1.014553,0.03212901,0.169924
1.014279,0.0191499,0.1705253
1.009686,0.005943503,0.1715734
1.005818,0.004952918,0.1700897
1.004327,0.004260025,0.1699605
0.9917983,0.0006200145,0.168188
0.9915139,0.004488226,0.1665711
1.001396,0.005880534,0.1666975
1.006544,0.009093314,0.166537
1.014974,0.01365726,0.1667771
1.017915,0.01381401,0.1662971
1.019145,0.01608245,0.1648056
1.021933,0.01596912,0.1634485
1.021561,0.01621329,0.1643062
1.025601,0.01770616,0.1696958
1.022697,0.00997411,0.1792777
1.015432,0.004294544,0.1854726
1.015471,0.0153679,0.1793816
1.010144,0.03126703,0.1727606
1.00772,0.0374304,0.1756937
1.013281,0.03842604,0.1764605
1.013176,0.03252153,0.1779587
1.015459,0.01302586,0.1824925
1.021646,-0.002932023,0.1779369
1.023073,-0.00334983,0.1734557
1.017724,-0.0001012361,0.1739402
0.9979201,-0.002126456,0.1728856
0.9766183,-0.00672447,0.1740638
0.9815624,-0.009008013,0.1712819
1.002297,-0.009110808,0.1599238
1.011255,-0.00867452,0.1483945
1.010992,-0.009119359,0.1481296
1.011404,-0.002304537,0.1570721
1.016787,0.0210237,0.1578502
1.024625,0.0387843,0.1560872
1.023658,0.03176105,0.1576549
1.025239,0.02434306,0.1552952
1.030704,0.03110479,0.1580758
1.028191,0.02480376,0.1684521
1.029171,-0.00211837,0.1789675
1.02418,-0.01844164,0.1778439
1.002149,-0.001120511,0.1704177
0.9828693,0.02284738,0.1746436
0.981682,0.009810033,0.1745146
0.9865578,-0.003900712,0.1702596
0.9841866,0.00315054,0.1716297
0.9942842,-0.007216765,0.1659241
1.008399,-0.006601274,0.1629521
1.013635,0.002586039,0.1602171
1.026032,0.0005654258,0.1543954
1.029085,0.01346817,0.1599863
1.03238,0.00915377,0.1681496
1.039346,-0.00111386,0.1762395
1.024954,0.007764023,0.18082
1.010147,0.004669437,0.1781908
0.99806,0.007622098,0.1796822
0.9920092,0.01357009,0.177732
0.9963641,0.009881356,0.1722423
0.9959492,0.013707,0.1705048
1.00664,0.01505248,0.1656562
1.015493,0.01719269,0.1618023
1.016804,0.02040267,0.1611059
1.022573,0.0165488,0.1604444
1.016509,0.01377882,0.1619018
1.013317,0.0111802,0.1637446
1.013233,0.005728769,0.1684203
1.009141,0.0006237864,0.1756569
1.01182,0.004580837,0.1776109
1.008934,0.0124048,0.1772115
1.008818,0.01440377,0.1815178
1.011494,0.01491468,0.185268
1.008482,0.01286623,0.1786453
1.012606,0.01238695,0.1689873
1.015085,0.01101517,0.1701635
1.015101,0.005020772,0.1731625
1.016182,0.004442763,0.1715317
1.013543,0.004091604,0.1725343
1.01225,0.004710804,0.1722141
1.00877,0.01093773,0.1711787
1.008639,0.01606241,0.1730824
1.010471,0.01787548,0.1745925
1.00424,0.01331566,0.1751902
1.002519,0.01123468,0.1719738
1.008816,0.01429793,0.1687079
1.015589,0.0135871,0.1692983
1.01687,0.01296176,0.1686154
1.013939,0.01118348,0.1681243
1.015463,0.009160003,0.1704799
1.014333,0.008636878,0.1750453
1.009554,0.007347427,0.1777786
1.006845,0.008921015,0.1759982
1.00466,0.008886123,0.1743637
1.007952,0.009223902,0.1715815
1.012261,0.01204676,0.168781
1.012365,0.01158275,0.1727621
1.011099,0.01234288,0.1769336
1.009616,0.01080053,0.1747198
1.014066,0.005289942,0.1730551
1.018756,0.003273017,0.1732548
1.015798,0.002842956,0.1708848
1.012178,0.005459826,0.1677465
1.009572,0.00919449,0.1626251
1.007978,0.008803052,0.1595617
1.008946,0.009960669,0.1644153
1.010255,0.01278635,0.1670295
1.01254,0.01271722,0.1669732
1.014325,0.01113003,0.1713336
1.014398,0.009411693,0.1732218
1.014576,0.006849864,0.1710858
1.012951,0.004646871,0.1704322
1.011643,0.005944848,0.1722687
1.013664,0.008971381,0.1753648
1.016132,0.01192823,0.1798054
1.017895,0.01622547,0.1833462
1.014053,0.01873591,0.1810833
1.006892,0.0163,0.1784344
1.007856,0.01193165,0.1791385
1.010562,0.009782691,0.1770135
1.009909,0.00790362,0.1736457
1.010977,0.005934391,0.1722713
1.010331,0.007312005,0.1719211
1.010177,0.008424827,0.1725692
1.01209,0.01090951,0.1731269
1.013257,0.02243484,0.1725137
1.018292,0.03855875,0.1676067
1.025169,0.04029327,0.1641717
1.027755,0.01179358,0.1766665
1.023574,-0.01957206,0.1931564
1.011837,-0.01699256,0.1920537
0.9964861,-0.004594527,0.1861732
0.9876362,-0.007391481,0.1851088
0.9909207,-0.007359011,0.176757
0.9922729,-0.004807695,0.1701036
0.9908079,-0.006496792,0.1704368
0.9989613,-0.004874942,0.1635718
1.007489,-0.003544086,0.1564529
1.020205,0.005148591,0.1568784
1.036926,0.02172019,0.1564746
1.035568,0.02250003,0.1593446
1.026116,0.00546029,0.1720947
1.023103,-0.01372794,0.1820685
1.022409,-0.01682264,0.1797369
1.022577,0.002208598,0.1749567
1.019552,0.02321569,0.1667094
1.012387,0.03081839,0.1558214
0.9941864,0.02728246,0.1649607
0.9730022,0.02359283,0.180553
0.9748306,0.02035043,0.1766055
0.9850983,0.01438141,0.1717957
0.9979569,0.01696181,0.1659535
1.024933,0.02293392,0.1521141
1.02863,0.02342274,0.1557647
1.020958,0.02140578,0.1655159
1.036812,0.0107831,0.1691657
1.034446,0.001775002,0.1798805
1.022227,0.005387102,0.1791843
1.018431,0.007152264,0.1760788
0.9976097,0.005619834,0.1846201
0.9903503,0.01174966,0.1778571
0.9850835,0.02080328,0.171118
0.9679886,0.02318351,0.1769505
0.9794971,0.02224151,0.1741402
0.990441,0.02400445,0.1706221
1.002432,0.0240244,0.169012
1.0283,0.01711758,0.1664431
1.029898,0.01002068,0.1659105
1.040914,0.01347623,0.1589068
1.057645,0.01786464,0.1556532
1.040372,0.01424281,0.1682315
1.025753,0.01403939,0.1842129
1.017071,0.0128942,0.1848012
1.002241,0.008183529,0.1729123
0.9883304,0.01231005,0.1690043
0.9695175,0.01476349,0.1719532
0.9663664,0.007815793,0.1736277
0.9734768,0.003723361,0.1725152
0.9784281,0.005372647,0.1672793
1.004092,0.008623629,0.1643523
1.02868,0.01574923,0.164055
1.035542,0.02406051,0.1671413
1.040566,0.01785866,0.1741273
1.032848,0.007880775,0.178645
1.025731,0.01802055,0.1757513
1.033168,0.03510893,0.166583
1.029985,0.05102125,0.1657786
1.006412,0.05709427,0.1745315
0.9750917,0.03571633,0.1904305
0.9702169,0.01416932,0.2059752
0.997976,0.007713556,0.19235
1.011686,0.003884498,0.1756923
1.001823,0.004256754,0.1849541
0.9964768,0.002797479,0.1849
1.003485,0.004189983,0.1751675
1.014717,0.01149514,0.1696481
1.025849,0.01788566,0.1588037
1.027592,0.02758938,0.1600904
1.010891,0.03000477,0.1754524
1.001578,0.02628873,0.1823231
1.013478,0.02869701,0.175685
1.028206,0.03074155,0.167294
1.035265,0.02926417,0.1759519
1.021859,0.01744281,0.1919233
1.000938,0.00289122,0.1966431
0.9969542,0.007745389,0.1916026
0.9989227,0.01651582,0.1796324
0.9955909,0.01375476,0.176539
0.9915315,0.01192023,0.177822
0.9957799,0.009762069,0.1725617
1.004229,0.0110344,0.1724842
1.007347,0.0223781,0.1659303
1.008818,0.03001958,0.1606056
1.011423,0.03248135,0.1660743
1.019644,0.02811589,0.1647669
1.027359,0.01901852,0.1682718
1.027671,0.01792243,0.174991
1.026772,0.01484543,0.1773256
1.020311,0.01366604,0.1799074
1.012176,0.01895792,0.1751172
1.006119,0.0194994,0.1733559
0.9973835,0.02347717,0.1750461
0.9942654,0.02534922,0.1744326
0.9968889,0.02359153,0.1783179
1.002558,0.02626214,0.1779674
1.01078,0.02344752,0.1741661
1.015291,0.02184581,0.1737447
1.016002,0.02264197,0.1749399
1.014874,0.0194965,0.1773701
1.015042,0.0193011,0.176952
1.013866,0.01819276,0.1773986
1.008325,0.01676267,0.1803588
1.003507,0.01680889,0.1784855
1.000499,0.01611668,0.1752892
0.9999421,0.0166732,0.1749417
1.000752,0.01381634,0.1762298
1.003242,0.01140549,0.1769847
1.010594,0.01236517,0.1740742
1.019264,0.01116711,0.1724446
1.021848,0.01058359,0.1723317
1.018492,0.01096266,0.1695265
1.02083,0.009855164,0.1679451
1.02286,0.01004971,0.167155
1.01387,0.01575609,0.1694237
1.005302,0.02201421,0.1746836
1.003059,0.02224327,0.1743593
1.007768,0.021952,0.1722999
1.01254,0.02267221,0.169445
1.011607,0.02492849,0.1640493
1.015261,0.0337754,0.162839
1.019972,0.04176982,0.1638554
1.023566,0.03473497,0.168475
1.02599,0.01107047,0.1772375
1.018953,-0.01384744,0.1817492
1.014426,-0.02102937,0.1827716
1.014261,-0.008012234,0.1816601
0.9992057,0.01350094,0.1805
0.9718683,0.03636296,0.1809736
0.9595156,0.04116575,0.1798781
0.9708781,0.02677825,0.1798069
0.983378,0.02704445,0.1792031
0.9950967,0.02871992,0.1752948
1.018667,0.03058072,0.1637813
1.047058,0.05297248,0.1489615
1.058639,0.04909014,0.1527615
1.038055,0.01209497,0.1621705
1.024577,-0.01498388,0.1593257
1.038526,-0.01109964,0.1635389
1.03785,0.004724212,0.1733554
1.023564,0.000737684,0.1813113
1.006601,0.01820435,0.1882369
0.987889,0.03893948,0.1875888
0.9870112,0.02678114,0.1846088
0.9868327,0.04220315,0.1745867
0.9812429,0.05452173,0.167053
0.9844817,0.03552013,0.1765332
0.9855959,0.02629816,0.1824577
0.9862615,0.0230471,0.1882298
0.9970263,0.03636319,0.1943676
1.016513,0.04819703,0.1814827
1.030562,0.03764744,0.1672164
1.034753,0.02610386,0.1641326
1.03915,0.01269047,0.1640299
1.032473,0.00480589,0.1688426
1.015875,0.004633154,0.1780918
1.010518,0.005646126,0.176984
1.008927,0.01747133,0.1664435
0.9973984,0.03580085,0.1632913
0.9842418,0.03927232,0.1614564
0.9823167,0.03235242,0.155796
0.9872754,0.03943689,0.1452744
0.9894678,0.04425797,0.1356013
1.003194,0.04348049,0.1412145
1.0299,0.05011789,0.1439496
1.039692,0.04520018,0.142841
1.033983,0.03059735,0.1516951
1.034305,0.01374337,0.1557864
1.033561,0.01007779,0.1549469
1.026424,0.02553653,0.1558105
1.016802,0.03051673,0.1610765
0.9960033,0.03509589,0.1689527
0.975104,0.04222547,0.1726802
0.9788393,0.03695364,0.1738541
0.9953594,0.0332077,0.1670944
1.009547,0.02615702,0.1616155
1.022862,0.01877076,0.1670936
1.024324,0.01984373,0.1685489
1.020438,0.02088942,0.1633349
1.022999,0.02165077,0.1597225
1.022147,0.01498253,0.1626313
1.019469,0.006300777,0.1660022
1.014139,0.007721205,0.1648916
1.002849,0.01064153,0.1672403
0.9961891,0.01485215,0.1683758
0.9942354,0.02333257,0.1671202
0.9987717,0.02517788,0.167498
1.011571,0.01838133,0.1647475
1.021133,0.0149979,0.1647589
1.023948,0.0151454,0.1687658
1.022044,0.0138083,0.17106
1.019625,0.01319886,0.1713328
1.017138,0.01229254,0.1683109
1.010316,0.0141549,0.1679441
1.007638,0.01643769,0.1688512
1.008881,0.01483455,0.163399
1.006295,0.01468293,0.1611653
1.006932,0.01304126,0.1635832
1.011526,0.01071056,0.1646929
1.016783,0.0116331,0.1694346
1.021804,0.01014896,0.1714503
1.021507,0.007104365,0.165632
1.021141,0.006526924,0.1608973
1.020366,0.006909858,0.1629088
1.012066,0.006079437,0.1700587
1.006805,0.00609161,0.1744081
1.007435,0.01001082,0.1756344
1.005857,0.01397803,0.1758739
1.008274,0.01246882,0.1709493
1.015756,0.008714201,0.1663013
1.018204,0.007570877,0.167547
1.016264,0.005346632,0.1695436
1.016336,0.002428014,0.1693495
1.016734,0.00250333,0.1704712
1.014152,0.003791475,0.1687989
1.010606,0.007346395,0.1630173
1.008871,0.01114747,0.1646068
1.009294,0.01111562,0.1709987
1.008432,0.01053731,0.1747888
