accx,accy,accz
0.9138322,0.1455662,0.4220016
0.9156945,0.145797,0.4192787
0.9202561,0.1456389,0.4182195
0.9193754,0.1497864,0.421935
0.9203105,0.1464161,0.4169988
0.9213914,0.1420496,0.4163826
0.9209063,0.1455639,0.4177108
0.9227016,0.1444341,0.4118951
0.923301,0.1439052,0.4137399
0.9188995,0.1450897,0.423338
0.9128678,0.1425096,0.4312803
0.9107671,0.1373969,0.4326535
0.9097354,0.1298566,0.4331161
0.907801,0.1292459,0.4397279
0.9114709,0.132214,0.4373565
0.9167301,0.1324674,0.4286929
0.9170965,0.138243,0.4266596
0.9166554,0.1447684,0.4251533
0.9165145,0.1451181,0.4267687
0.9170273,0.1428779,0.4268881
0.9186603,0.1405363,0.4228401
0.919703,0.1378917,0.4223282
0.9198542,0.1321949,0.4199018
0.9190201,0.1273017,0.4203693
0.920375,0.1281821,0.4208628
0.9242411,0.1275796,0.413365
0.9269507,0.123657,0.4110084
0.9252582,0.1248042,0.4172037
0.9211061,0.1288779,0.4252145
0.9218517,0.1324036,0.4252576
0.9219926,0.138016,0.4230555
0.9179202,0.1384416,0.4301286
0.9150426,0.1343763,0.4318132
0.9113206,0.1349384,0.4297391
0.911962,0.1356282,0.4307686
0.9157563,0.1359312,0.4277577
0.9151448,0.1353,0.4244809
0.9172059,0.1310591,0.4206647
0.9216776,0.1301549,0.4190922
0.9241395,0.1322036,0.4201411
0.9220168,0.135813,0.4197287
0.9154862,0.1389075,0.4216609
0.9155036,0.1373495,0.4225846
0.9210931,0.1370625,0.4254614
0.9245873,0.1379169,0.4294475
0.9225978,0.137309,0.4258017
0.9175579,0.1375222,0.4209923
0.9177961,0.1378846,0.419884
0.916568,0.1392766,0.4252462
0.9135747,0.1406374,0.4330612
0.9145551,0.1394123,0.4320831
0.9132708,0.1375317,0.430453
0.9138559,0.1381379,0.4322016
0.9145856,0.1394301,0.4300119
0.9129635,0.1388169,0.4292274
0.9149012,0.1383811,0.4279613
0.9155666,0.1372675,0.4232657
0.9169832,0.1354625,0.4249674
0.9189778,0.1359426,0.4273454
0.9199833,0.1365153,0.4237452
0.9227707,0.1360774,0.4216185
0.9178368,0.1376586,0.4215486
0.9117343,0.1424321,0.4221196
0.9132007,0.1485635,0.422882
0.9127274,0.1516081,0.4252256
0.9126405,0.1482999,0.4273996
0.9164759,0.1412164,0.4230279
0.9188721,0.1360873,0.4182295
0.9174938,0.1381277,0.4122146
0.9158618,0.1420835,0.4057788
0.9178138,0.1382229,0.414967
0.918672,0.1358148,0.4256468
0.9176536,0.1393655,0.4204928
0.9187171,0.1407763,0.4177773
0.9207975,0.1437612,0.4210472
0.9228944,0.1441907,0.4188932
0.9225133,0.1417394,0.4181585
0.920604,0.144721,0.4169509
0.9209009,0.1449043,0.4122934
0.9208787,0.1437589,0.4160067
0.9206278,0.1445638,0.4211345
0.9211076,0.1409855,0.4207215
0.9202828,0.1377531,0.42088
0.9185324,0.1368702,0.4187823
0.9149721,0.1376759,0.4168362
0.9126403,0.1389064,0.4161575
0.9145232,0.1393017,0.416008
0.9160231,0.1428552,0.421168
0.9173031,0.1445365,0.425804
0.9198099,0.139956,0.4263842
0.9203298,0.1348841,0.4249632
0.9167652,0.1358344,0.4230165
0.9124904,0.140059,0.4252485
0.9151194,0.1409768,0.4272283
0.918603,0.1434292,0.4239526
0.9159836,0.147167,0.4209541
0.9158664,0.1472677,0.4205259
0.9159362,0.1452103,0.4214827
0.9135388,0.1415354,0.4246228
0.9155631,0.1402291,0.4268315
0.9161994,0.1403746,0.4240704
0.9153061,0.1399349,0.4211022
0.9173902,0.140667,0.4244713
0.9169939,0.1402491,0.4290801
0.9168329,0.1411004,0.4300103
0.9179207,0.1422309,0.431914
0.9162991,0.1410548,0.4338932
0.9164546,0.1399461,0.431551
0.9180937,0.1383576,0.4259808
0.918043,0.138253,0.4219271
0.9175985,0.1372785,0.4233525
0.915378,0.1334222,0.4243953
0.9129552,0.1319211,0.4219065
0.9137196,0.1301096,0.4210791
0.9144196,0.1266921,0.4220668
0.9132166,0.1275705,0.4267855
0.9120686,0.1304943,0.4327775
0.9115128,0.130688,0.4303054
0.914603,0.1305404,0.4254051
0.9200471,0.1310346,0.4276614
0.9192076,0.1321018,0.4314741
0.9132337,0.1340838,0.4308626
0.9103788,0.1335154,0.4267287
0.9137804,0.1327565,0.4240786
0.9191566,0.1339766,0.4259105
0.9172641,0.1342636,0.4304488
0.9119383,0.135743,0.4344438
0.9125464,0.1367693,0.4336055
0.9155501,0.1357555,0.4317847
0.9173863,0.1361385,0.4301223
0.916631,0.1360859,0.4246366
0.9142099,0.135208,0.4247134
0.9137592,0.1356573,0.4305635
0.9136956,0.1371142,0.4326457
0.9141594,0.1380752,0.4313352
0.9151411,0.1368137,0.4287092
0.9161089,0.1346102,0.4289105
0.9173206,0.1330047,0.4293769
0.9163191,0.1337009,0.4268224
0.9156971,0.1352861,0.4270377
0.916489,0.132855,0.4306873
0.9173987,0.131074,0.4344376
0.9185821,0.1332091,0.4321123
0.9170516,0.1329973,0.4269566
0.9158504,0.1296062,0.4257887
0.9161566,0.1267048,0.4220449
0.9148863,0.1282148,0.4207597
0.9151163,0.1331582,0.4234469
0.9167009,0.1355822,0.4195537
0.9203667,0.1353144,0.4139569
0.9248111,0.1356112,0.4122044
0.9196537,0.1396028,0.4232321
0.9074392,0.1443444,0.4433658
0.9015743,0.1446794,0.4464859
0.905211,0.1421509,0.4398008
0.9126326,0.1355173,0.4381137
0.9168214,0.1297436,0.4336358
0.9152657,0.1324844,0.433002
0.9117126,0.1350414,0.4344786
0.9105193,0.1339592,0.4297505
0.9112011,0.1364692,0.4297272
0.9113642,0.1391599,0.431747
0.9124923,0.1385013,0.430138
0.9154777,0.1380065,0.4326345
0.9175375,0.134003,0.4351656
0.9166908,0.1288758,0.43446
0.9149915,0.1311442,0.4339596
0.9144826,0.1343687,0.4329131
0.9137524,0.1366521,0.4334413
0.9145241,0.1397535,0.4350965
0.9164012,0.1376499,0.4369823
0.9168199,0.1332207,0.4383907
0.9177124,0.1301777,0.4363928
0.9145065,0.1331585,0.4356505
0.9080029,0.1396091,0.435114
0.9074553,0.1376264,0.4322899
0.908932,0.1360757,0.4342573
0.9080091,0.1387491,0.4372918
0.907348,0.1396859,0.4383834
0.9067919,0.1441965,0.441275
0.9071407,0.1443922,0.4407218
0.9099976,0.1405101,0.4385992
0.9155605,0.1395301,0.4379129
0.9193104,0.1321601,0.4358642
0.9148139,0.1278581,0.4374872
0.9074901,0.1326831,0.4386571
0.9068513,0.1351442,0.4358418
0.9115691,0.1384956,0.4355592
0.9150668,0.1405295,0.4343389
0.9125913,0.1388538,0.4337684
0.9093819,0.138371,0.4339644
0.9115831,0.1358055,0.4304864
0.9116865,0.1378247,0.4310744
0.9102066,0.1432539,0.4323147
0.9117491,0.1433446,0.4320149
0.9102752,0.1460123,0.4337444
0.9072157,0.146069,0.4295842
0.9049825,0.1411707,0.4264603
0.9053938,0.1428666,0.4306806
0.9101674,0.1425554,0.4363075
0.9118622,0.138156,0.444355
0.9112879,0.1384713,0.4482052
0.9119554,0.1391022,0.4406932
0.9125339,0.137591,0.4317725
0.9129953,0.1353062,0.4323762
0.9120469,0.1345016,0.434376
0.913068,0.1371314,0.4307186
0.915566,0.1408283,0.4300402
0.9162233,0.1424736,0.4321212
0.9138255,0.1404571,0.4365349
0.9093005,0.1385617,0.4417737
0.9107678,0.1376741,0.4372224
0.9128268,0.1355034,0.4322129
0.9121062,0.1348857,0.4348398
0.9164046,0.134765,0.4337331
0.9169058,0.1310288,0.4306713
0.9139016,0.1267545,0.432992
0.9147186,0.1276623,0.434234
0.9141518,0.1304171,0.4327494
0.915246,0.1311166,0.4339846
0.9169765,0.1339808,0.4362281
0.9130426,0.1381686,0.4379806
0.9096296,0.1397924,0.4381069
0.9110047,0.1385983,0.43567
0.9124154,0.1363337,0.4324142
0.913075,0.1351409,0.4281665
0.915198,0.134379,0.4299424
0.9143304,0.135763,0.4351019
0.9126997,0.1377408,0.4342742
0.9148456,0.13737,0.438897
0.9148266,0.1376459,0.4447325
0.9149193,0.1373223,0.4367879
0.9155816,0.1363978,0.4309015
0.9119528,0.135983,0.4371662
0.9111045,0.1346571,0.4406321
0.9147568,0.1335109,0.4356357
0.9170787,0.1311622,0.4333879
0.9135061,0.1298352,0.4366104
0.9080058,0.1310001,0.4380786
0.9096258,0.1312663,0.4389917
0.9104794,0.1312615,0.4411564
0.9082518,0.1304594,0.4435161
0.9101586,0.1305079,0.4436447
0.9106795,0.1333042,0.4401645
0.9095021,0.1363807,0.4389754
0.9102779,0.1379132,0.4380818
0.9133118,0.1344094,0.433953
0.9165992,0.1292013,0.4310965
0.9152385,0.1297854,0.4318979
0.9136787,0.1363255,0.4367513
0.9141479,0.1444631,0.4402863
0.9136479,0.1456655,0.4393552
0.9141292,0.1392658,0.4342433
0.9148979,0.1323219,0.4281429
0.9148288,0.1279696,0.4317158
0.9128536,0.1322381,0.440367
0.9100271,0.1392778,0.4452006
0.9112214,0.1370447,0.4452319
0.9136375,0.1337492,0.4390364
0.9135794,0.1325764,0.4354763
0.9121605,0.1313198,0.4362821
0.9093858,0.135184,0.4373635
0.90836,0.1371934,0.4385921
0.9093798,0.135509,0.4367152
0.9091324,0.1353233,0.4373742
0.9100057,0.134394,0.4385225
0.9117622,0.1344643,0.4375926
0.9127039,0.1335763,0.4413527
0.9152442,0.1300767,0.4442649
0.9172263,0.1291772,0.4450346
0.9149649,0.133066,0.4406299
0.911816,0.1389836,0.433472
0.9123293,0.1392029,0.4387659
0.9127994,0.1346193,0.4436038
0.911173,0.1327934,0.4396285
0.9110397,0.134797,0.4384206
0.9117835,0.1365806,0.4354072
0.9146436,0.13251,0.4318022
0.9172345,0.1293138,0.4333649
0.9132714,0.1337004,0.4342846
0.9091794,0.1371201,0.4346807
0.9103726,0.1368834,0.4363354
0.9113694,0.1367728,0.434416
0.9116968,0.1369851,0.4299708
0.9140312,0.1375236,0.4277871
0.914373,0.1373818,0.4249129
0.9133333,0.1355972,0.4241563
0.9142448,0.134083,0.4330966
0.9134861,0.1346836,0.4424202
0.910804,0.1350388,0.4417925
0.9055651,0.1344731,0.4404295
0.9015016,0.1347908,0.4424361
0.9075237,0.1347906,0.4348103
0.9139769,0.1340731,0.424743
0.9126666,0.1321316,0.4272055
0.9119221,0.1297001,0.4278938
0.9128872,0.1302263,0.4245072
0.9126183,0.1310341,0.4272292
0.9143099,0.1286064,0.4267619
0.9197124,0.1252195,0.425396
0.9240432,0.122755,0.4272892
0.9235246,0.1232577,0.4260096
0.9228478,0.1253498,0.4262027
0.9242508,0.1249191,0.4258412
0.9236095,0.1251974,0.4204851
0.9231192,0.1271516,0.4167418
0.9239867,0.1279438,0.4174006
0.9222743,0.1280051,0.4194256
0.9209329,0.1263673,0.4200995
0.9210149,0.1249685,0.4235278
0.9214169,0.123783,0.4263224
0.9226629,0.1211942,0.4205907
0.921305,0.1205293,0.4142648
0.9202042,0.1207545,0.4133311
0.9209732,0.120913,0.4215844
0.9196887,0.1209756,0.4320586
0.9182373,0.1205312,0.4286535
0.9177594,0.1216343,0.4270088
0.9178756,0.1234415,0.4328889
0.9170211,0.12513,0.4291225
0.9143666,0.1229302,0.4251439
0.9142604,0.1196423,0.4233971
0.9185439,0.1236569,0.4177189
0.9232779,0.1256951,0.417219
0.9227696,0.1200296,0.41702
0.9202961,0.1168372,0.4148581
0.9214102,0.1201997,0.4170077
0.9230332,0.1249008,0.4185828
0.9256342,0.1253486,0.419607
0.9275394,0.1231751,0.4185932
0.925916,0.1193228,0.413923
0.9267513,0.114061,0.4110996
0.9302446,0.1131434,0.4076955
0.9345235,0.1151673,0.4050485
0.9363055,0.1156199,0.4054154
0.9279035,0.1157521,0.4049621
0.9176395,0.1181623,0.4056062
0.9178484,0.1222218,0.4064618
0.9256199,0.1230252,0.4055835
0.9324886,0.1217426,0.4055199
0.932846,0.1222604,0.4074781
0.9297368,0.1225858,0.4082143
0.9276688,0.1229268,0.4037287
0.9258236,0.1239689,0.4005213
0.9258969,0.1233812,0.4047097
0.9272467,0.1210103,0.4079764
0.9270226,0.1177733,0.4024948
0.9280016,0.1149409,0.3981241
0.9294053,0.1130501,0.4043224
0.929946,0.1109446,0.4120426
0.9321983,0.1120021,0.4150113
0.9332249,0.1153596,0.412538
0.9333644,0.1142776,0.4057313
0.9348215,0.1152905,0.4011716
0.935373,0.1208113,0.395093
0.935634,0.1209459,0.388497
0.9345998,0.1178438,0.3918923
0.934494,0.115453,0.397489
0.9371612,0.1133167,0.3975472
0.9377625,0.1116128,0.4018321
0.9373773,0.1106262,0.4063017
0.9366091,0.1141399,0.4006253
0.9357984,0.1163644,0.3975538
0.9372177,0.1137369,0.4002953
0.9381168,0.1125316,0.3998351
0.9391119,0.1113901,0.3994576
0.940067,0.1107544,0.3947159
0.9403578,0.1111218,0.3833196
0.9437849,0.1099193,0.3743589
0.9461985,0.1086669,0.3739649
0.940735,0.107882,0.3799445
0.9353001,0.1082355,0.3820164
0.9397683,0.1076718,0.3832665
0.9448273,0.1065184,0.3874968
0.9432624,0.1083351,0.3882719
0.9393139,0.1108842,0.3882631
0.9344585,0.1135315,0.3903954
0.9348041,0.1154848,0.3962709
0.9360337,0.1153678,0.4019302
0.9314618,0.1150652,0.399551
0.9311692,0.1143544,0.3963339
0.9313128,0.1136405,0.3984685
0.9291869,0.1148761,0.4005656
0.9315913,0.1193901,0.4015982
0.9317068,0.1231192,0.4035206
0.9323475,0.119199,0.4030023
0.9346155,0.1144474,0.4020963
0.9326575,0.1166114,0.4033523
0.9332785,0.116829,0.4025979
0.9338662,0.1139881,0.4029227
0.932327,0.1158698,0.4049871
0.9320168,0.1176024,0.4056924
0.9298656,0.1178588,0.404929
0.9301749,0.1182369,0.3996067
0.9313225,0.1148717,0.394702
0.9299848,0.1135487,0.3958124
0.9307143,0.116745,0.3997201
0.9307381,0.1189086,0.4034139
0.9302263,0.1182595,0.4040188
0.930848,0.1163998,0.3998455
0.9304052,0.1169455,0.3960863
0.9305485,0.1176758,0.4005046
0.930672,0.1175978,0.4050838
0.9304038,0.1166532,0.4020926
0.9306774,0.1133369,0.4014042
0.9305005,0.1142086,0.4026927
0.930719,0.1180997,0.4015446
0.9315119,0.1198355,0.4014788
0.9319617,0.1192362,0.4010386
0.9312187,0.1171466,0.4002755
0.9300489,0.1192132,0.3991022
0.9305402,0.1214603,0.3980917
0.9303068,0.1211,0.400683
0.9276114,0.1216509,0.4054033
0.9258466,0.1187613,0.4107644
0.9272045,0.1171414,0.412212
0.9294254,0.1194876,0.408189
0.9293683,0.1198262,0.4060899
0.9287035,0.1203066,0.4055222
0.9284979,0.1210725,0.404014
0.9274128,0.1207171,0.404468
0.9276182,0.1198834,0.4073237
0.928138,0.1190849,0.4096473
0.927682,0.1195114,0.4098628
0.928924,0.1195194,0.4103582
0.93043,0.1193469,0.4076676
0.9305828,0.1197066,0.4049167
0.9293601,0.1200886,0.4085224
0.9269223,0.1202692,0.4089428
0.9258719,0.119249,0.4085576
0.9263795,0.1184058,0.4080017
0.9265962,0.1162312,0.4009305
0.9268196,0.1131998,0.4008985
0.9289996,0.1169428,0.4051587
0.931351,0.1238197,0.4057392
0.9293281,0.1234514,0.4072195
0.9256029,0.1198025,0.4065332
0.9250061,0.119579,0.4070741
0.9275584,0.1180249,0.4075308
0.930088,0.114839,0.4070862
0.928514,0.119038,0.4092919
0.9267299,0.1248529,0.4081502
0.9280273,0.1220916,0.4084649
0.9270727,0.120969,0.4116507
0.9261917,0.1232891,0.4118647
0.9293565,0.1208207,0.4084748
0.9314303,0.1204772,0.4026859
0.9304999,0.122289,0.4035894
0.9288753,0.1217017,0.4066607
0.9272931,0.1207721,0.4060979
0.9264313,0.1188791,0.4098258
0.9287475,0.1200167,0.4129289
0.931922,0.1218689,0.4123685
0.9302502,0.1203453,0.4106046
0.9280052,0.1207881,0.4075146
0.9279266,0.1211563,0.4068112
0.9273106,0.1204784,0.4068527
0.9280228,0.1208932,0.4085563
0.9279526,0.1200434,0.4125961
0.9269858,0.1200033,0.4141778
0.9260451,0.1211347,0.4124715
0.9224898,0.1210063,0.4091891
0.922254,0.1206218,0.4100096
0.9271768,0.1208607,0.4108041
0.9311418,0.1209642,0.4054509
0.9331928,0.1206792,0.4011146
0.9343535,0.1200064,0.3985753
0.9323557,0.1164212,0.3969469
0.9264948,0.1125735,0.3971696
0.9253897,0.1154467,0.4014659
0.929364,0.1220659,0.4099618
0.930276,0.1257112,0.4097079
0.9308185,0.1255916,0.406402
0.930929,0.1246072,0.4080061
0.9309366,0.1259173,0.4012022
0.932718,0.1263253,0.395369
0.9316411,0.1225188,0.4026107
0.9307326,0.1196946,0.4079203
0.9307399,0.1206381,0.4036953
0.9300787,0.1214136,0.4012997
0.9307591,0.1205812,0.4054313
0.9288775,0.1213619,0.4068913
0.9251019,0.1247743,0.4081563
0.9227623,0.1272248,0.4139432
0.9230894,0.1262809,0.4170196
0.9244829,0.1229147,0.418643
0.9235573,0.1204572,0.4188642
0.9251796,0.1197112,0.4131049
0.9275051,0.1193727,0.4073057
0.9264248,0.1212999,0.4072787
0.9279971,0.125633,0.4075301
0.9305617,0.1287511,0.4036197
0.9318086,0.126134,0.401082
0.9340486,0.120691,0.3993003
0.9347203,0.1174362,0.3970157
0.9342376,0.1133569,0.3959081
0.933908,0.11268,0.3936537
0.9322,0.1151792,0.3965745
0.9313262,0.1139252,0.402559
0.9331638,0.1174826,0.4067269
0.9364592,0.1260569,0.4117572
0.9394475,0.1303961,0.4097841
0.9359641,0.1307693,0.4060594
0.9273373,0.1282897,0.4058648
0.9256483,0.1219766,0.4031892
0.9303001,0.1112324,0.4054294
0.9333727,0.1072222,0.4090811
0.9332003,0.1119355,0.4079252
0.9319228,0.1134362,0.4069889
0.9304439,0.1205971,0.4062724
0.9271617,0.1299378,0.4072881
0.9296713,0.1285462,0.4058238
0.9361041,0.1268566,0.3985736
0.9375036,0.1221681,0.3915854
0.94027,0.113085,0.3897703
0.9376448,0.1109672,0.3929727
0.9291823,0.11195,0.3928474
0.9301036,0.1144392,0.3921999
0.9319655,0.1183097,0.3942553
0.9324443,0.1189888,0.3925607
0.9360454,0.1202115,0.3948463
0.9348894,0.1224847,0.4008647
0.9339428,0.1216133,0.4036114
0.9353692,0.120919,0.4034446
0.9344816,0.1215168,0.3981746
0.9346272,0.1185311,0.3916715
0.934778,0.1152443,0.3870109
0.9336242,0.1157658,0.3929487
0.9336922,0.1187924,0.4033231
0.935915,0.1220896,0.3984527
0.9379259,0.1203093,0.3972343
0.9351076,0.1154293,0.4030961
0.9319881,0.1136716,0.400811
0.9345106,0.1160132,0.4038397
0.9365581,0.1190019,0.4045832
0.9358386,0.1156265,0.3958679
0.9360711,0.1114439,0.3898555
0.9349235,0.1123134,0.3859505
0.9320912,0.1127261,0.3877442
0.9297433,0.1181184,0.3919041
0.9293656,0.1264966,0.3920501
0.9337298,0.1265301,0.3923188
0.9377659,0.1229244,0.3916339
0.9363107,0.1183269,0.3913809
0.9354247,0.1136106,0.3917321
0.9380707,0.1110226,0.3906515
0.9405174,0.1059042,0.3900696
0.9414618,0.1039702,0.3906442
0.9386051,0.110673,0.3933963
0.9339972,0.1178134,0.396231
0.9339282,0.1198569,0.3977372
0.9323177,0.1220458,0.3999134
0.9267694,0.1272495,0.4025172
0.924955,0.128423,0.4036515
0.925568,0.1275255,0.4039044
0.9300974,0.1273552,0.4037009
0.9373781,0.123798,0.3985939
0.9385843,0.1210624,0.3943841
0.9371341,0.1193403,0.3984851
0.9373347,0.1157729,0.4008792
0.9376859,0.1127057,0.3962242
0.937908,0.1129346,0.3913413
0.9390434,0.1133236,0.3873959
0.9407145,0.111462,0.3833526
0.9386148,0.1187435,0.3888671
0.936424,0.1274869,0.3985804
0.9375625,0.1243536,0.3950283
0.9368478,0.1234829,0.3937924
0.9351957,0.1239883,0.3990529
0.9341674,0.1184476,0.3922529
0.9321238,0.117006,0.3883612
0.9318173,0.1195352,0.3939393
0.935112,0.1192358,0.3950658
0.9379614,0.116546,0.3936133
0.9373932,0.1150699,0.3923848
0.9352932,0.1176457,0.3932652
0.9333212,0.1210117,0.3942694
0.9329284,0.1204326,0.3937317
0.9335782,0.1202668,0.3952609
0.9338506,0.1216701,0.3941213
0.9359181,0.120057,0.3903834
0.9382355,0.1188751,0.3883003
0.9368831,0.1180436,0.3872997
0.9353895,0.1176591,0.3876342
0.9374054,0.1205407,0.389325
0.9388049,0.1212253,0.3915879
0.9379219,0.1204911,0.393825
0.9374048,0.1204778,0.3993205
0.9372878,0.12069,0.4033604
0.9372856,0.1230723,0.3995754
0.9352708,0.1234832,0.3963668
0.9312476,0.1232009,0.3958768
0.929755,0.1243609,0.3967425
0.9305682,0.1242022,0.4006853
0.9317748,0.1248428,0.4009524
0.9348336,0.1236275,0.3948146
0.9382324,0.12114,0.3889044
0.9356189,0.1219495,0.3902164
0.9312402,0.1208791,0.3933709
0.9339509,0.1191663,0.3913072
0.9360659,0.1230005,0.3929265
0.9355468,0.1263815,0.3988854
0.9362104,0.1237972,0.4015075
0.9321865,0.1207997,0.4012531
0.9291589,0.1209286,0.3992035
0.9308147,0.1216574,0.3997193
0.930927,0.1224947,0.4008516
0.931324,0.122835,0.3992597
0.932547,0.1235969,0.4002327
0.9338806,0.1250598,0.3999354
0.9345895,0.1217023,0.3976396
0.9320006,0.1182148,0.397395
0.9288528,0.12236,0.3978044
0.9297898,0.1260781,0.4001355
0.933652,0.1249376,0.4013759
0.9355589,0.1246712,0.4038904
0.9360362,0.1252985,0.4083848
0.9345374,0.1245422,0.4040908
0.9313144,0.1231371,0.3953349
0.9319493,0.1225384,0.3916428
0.9332469,0.1254659,0.3933686
0.9337564,0.1289569,0.3974661
0.9367286,0.1262698,0.4028187
0.9398107,0.1234404,0.4124072
0.9408284,0.1255182,0.4129143
0.9382796,0.1253356,0.3979705
0.9365441,0.1243812,0.3893933
0.9378654,0.1247468,0.3925088
0.9379044,0.1212971,0.3929891
0.9390972,0.118201,0.3872138
0.9401149,0.1194726,0.3848559
0.9358914,0.1214614,0.3901238
0.9319926,0.1234914,0.3942511
0.9347553,0.1261447,0.3964214
0.9372341,0.1275973,0.3966978
0.9329513,0.1293267,0.3952993
0.9309874,0.1309814,0.3985933
0.934207,0.1269663,0.3995055
0.9348008,0.1231901,0.3964957
0.9320515,0.1253316,0.3958239
0.9301862,0.1256694,0.3960551
0.9339306,0.1253207,0.39927
0.9376071,0.1264377,0.4013148
0.9339836,0.1236011,0.3999578
0.9310004,0.1201899,0.4025308
0.9312538,0.1206571,0.4047143
0.9306897,0.1223701,0.4005578
0.932105,0.1232133,0.39718
0.9338399,0.1240385,0.399497
0.9316115,0.1246705,0.400672
0.9295409,0.1251255,0.3977184
0.9310586,0.1262133,0.3956751
0.9327073,0.1262852,0.3929363
0.9333022,0.1251625,0.388983
0.9328342,0.1230093,0.3900188
0.9314883,0.1213905,0.3936592
0.9327569,0.1223938,0.3957821
0.9342509,0.1222969,0.3976909
0.9339077,0.1209922,0.3958924
0.9349388,0.1207833,0.3931896
0.9350604,0.1206655,0.3956579
0.934281,0.1209797,0.3965934
0.9349644,0.1208481,0.3952493
0.9347406,0.1206779,0.3960851
0.9345388,0.1210247,0.3958581
0.9347543,0.1201722,0.3940402
0.9336944,0.1178097,0.3876713
0.9330824,0.1141473,0.3792592
0.933831,0.1137834,0.3809233
0.9361139,0.1188823,0.3855609
0.9377731,0.1229599,0.3847182
0.9348776,0.1246046,0.3914131
0.9311023,0.1267631,0.4009996
0.9317843,0.1268241,0.3977509
0.9334538,0.123934,0.3935893
0.9332391,0.123049,0.3916461
0.93343,0.1239075,0.3841133
0.9330297,0.1229565,0.3862079
0.9313458,0.1209403,0.3921541
0.9309472,0.1187201,0.3879826
0.9337982,0.1187696,0.3899683
0.9368632,0.1195466,0.3945008
0.9323882,0.1187755,0.3941191
0.9256755,0.1223547,0.3983938
0.9264552,0.1262723,0.3982126
0.9295176,0.1256979,0.3956316
0.9314661,0.125756,0.3978852
0.9328143,0.1232022,0.3958576
0.9333484,0.1191266,0.3958622
0.9347648,0.1195707,0.3990502
0.9347613,0.1191116,0.3967942
0.93439,0.1165824,0.3944904
0.9341423,0.116023,0.3937826
0.9329076,0.1167379,0.3933717
0.9344641,0.1208895,0.3951299
0.9365353,0.125312,0.3968065
0.9379025,0.1246086,0.3983348
0.9396099,0.1264254,0.4001893
0.938719,0.1284287,0.4001205
0.9376544,0.1223505,0.398529
0.9375317,0.1174569,0.3936327
0.9376218,0.118835,0.3849989
0.9396546,0.1249011,0.378694
0.941693,0.1317123,0.3734718
0.9420418,0.1308854,0.3702419
0.9413301,0.1265467,0.3737628
0.9406615,0.1239614,0.3768781
0.9402221,0.1213067,0.3781377
0.9400139,0.1173919,0.3783527
0.9405084,0.1104097,0.3755774
0.9402693,0.1083109,0.3750588
0.9404526,0.1215707,0.3751092
0.9430086,0.1407663,0.376151
0.947029,0.1454579,0.3779929
0.9490265,0.1327084,0.377905
0.9440934,0.1196128,0.3833654
0.9386214,0.1167203,0.3870867
0.94009,0.1186826,0.3855612
0.9409218,0.1201066,0.3872168
0.9387753,0.1211171,0.3835905
0.937677,0.1219938,0.3797757
0.9336423,0.1267697,0.3886263
0.9293467,0.1381565,0.3991986
0.9334142,0.1441676,0.3984016
0.9404726,0.1352581,0.3875102
0.9421457,0.1220705,0.375001
0.9428093,0.1143557,0.3643107
0.9453039,0.112221,0.3561636
0.9455578,0.1149246,0.3540903
0.9423661,0.1184098,0.3581366
0.9391274,0.1260291,0.3624944
0.9407869,0.1398244,0.3664497
0.9425991,0.1463431,0.3727264
0.9386053,0.1421462,0.3761072
0.934378,0.1314479,0.3822993
0.9317244,0.1176853,0.3912161
0.9311195,0.1123704,0.387834
0.9336025,0.1141447,0.3858156
0.9369234,0.1180049,0.3920482
0.9434973,0.1270681,0.3919275
0.9466206,0.1303089,0.3883679
0.9440971,0.1259916,0.3763689
0.9478575,0.1259938,0.3601935
0.9514887,0.1256213,0.3616877
0.947732,0.127809,0.3671621
0.9453202,0.1399929,0.3634447
0.9461508,0.1469856,0.3649619
0.9477933,0.1402297,0.3671844
0.9470959,0.130869,0.3672996
0.9387799,0.1292091,0.3770479
0.9291647,0.1312302,0.3842982
0.9312549,0.1303767,0.3837011
0.937883,0.1301592,0.3891567
0.9374365,0.1285843,0.3924545
0.9373116,0.1244482,0.3834106
0.9370711,0.1202807,0.3764585
0.9350543,0.1134823,0.3826343
0.9371869,0.1063991,0.3875467
0.9395607,0.1025136,0.3833921
0.9441824,0.1038815,0.3822046
0.9473475,0.1069982,0.3813791
0.9424496,0.1097008,0.3782165
0.9412313,0.1190524,0.3778236
0.9456028,0.1295745,0.3740598
0.9487244,0.1346566,0.3702608
0.9494117,0.135107,0.3706814
0.9486811,0.1293834,0.369141
0.9460001,0.1251419,0.3675784
0.9395556,0.1253834,0.3665435
0.9388526,0.1273153,0.3648532
0.9427216,0.1391788,0.3672117
0.9440092,0.1600211,0.3713432
0.9480569,0.1679911,0.3731456
0.9464992,0.1518882,0.3750439
0.9412008,0.1285233,0.3764407
0.9440886,0.1119442,0.3752382
0.9461974,0.1076206,0.3711802
0.9461052,0.1122842,0.3663784
0.9429431,0.1107396,0.3672852
0.9364477,0.1139988,0.3693442
0.9393622,0.1252604,0.3656528
0.9423068,0.124531,0.362628
0.9386103,0.1237288,0.362476
0.9386669,0.1280236,0.3706549
0.9380922,0.1270542,0.3870445
0.9391592,0.1227333,0.3914145
0.942221,0.1119443,0.3868238
0.9353797,0.1059561,0.3880734
0.9310763,0.1133944,0.386802
0.9419526,0.1196826,0.3768874
0.950882,0.1210556,0.3645104
0.9449161,0.1284916,0.3621467
0.9372413,0.1416007,0.37097
0.9378084,0.1470627,0.3755378
0.9395114,0.1483377,0.3732611
0.9423844,0.1489686,0.3704127
0.9444499,0.1426918,0.3693186
0.9418357,0.1362401,0.369952
0.9413445,0.1270512,0.3702161
0.9398868,0.117869,0.3721701
0.9375507,0.1167289,0.3747004
0.93796,0.1133632,0.3778366
0.9368434,0.1142789,0.3825601
0.938402,0.1192797,0.3827831
0.9415072,0.1170921,0.3815924
0.9433916,0.1195578,0.3790387
0.9441273,0.1231422,0.3728351
0.9419829,0.1227371,0.3741338
0.9441479,0.1270031,0.3756549
0.9481845,0.1282485,0.3669721
0.9496546,0.1270277,0.3607266
0.9471788,0.1258945,0.3603511
0.9394422,0.1150783,0.3621635
0.9391876,0.1055714,0.3669818
0.9416464,0.1143399,0.3736114
0.9392938,0.1273996,0.3789579
0.9394034,0.1281263,0.3785676
0.9342234,0.1302654,0.3796212
0.9289755,0.1389535,0.3826962
0.9352726,0.144279,0.3773553
0.9416401,0.1485579,0.3729593
0.9407919,0.1455131,0.3752036
0.939326,0.1375447,0.3752485
0.9411805,0.1371428,0.3727862
0.9426939,0.1364738,0.371623
0.945742,0.1329957,0.3723433
0.9486926,0.1298773,0.371286
0.9454976,0.1301789,0.3666793
0.9430016,0.134153,0.3631205
0.9413223,0.1339713,0.3668853
0.9398775,0.1380321,0.3727438
0.9443716,0.1425348,0.3709147
0.9478705,0.13641,0.3699729
0.9462548,0.1307436,0.3727452
0.9432088,0.125519,0.3713042
0.9417277,0.123464,0.3682787
0.942552,0.1280192,0.3640652
0.943203,0.1281418,0.3633761
0.9436535,0.1274651,0.36936
0.9439188,0.1280912,0.3720268
0.9427523,0.1274286,0.3709199
0.9393184,0.1282542,0.3716823
0.9373358,0.1292519,0.3771223
0.9381676,0.1334689,0.3824609
0.9369906,0.1395552,0.3783847
0.9373203,0.1432102,0.3723825
0.9387545,0.1439185,0.3721469
0.9397816,0.1372985,0.3742645
0.9446322,0.129708,0.3775369
0.9449429,0.1315142,0.3781835
0.9399252,0.1360074,0.3755859
0.9354858,0.138026,0.374481
0.9333721,0.1397427,0.3740543
0.9421343,0.1327074,0.3707717
0.9510213,0.1221521,0.3665948
0.9473409,0.1240957,0.3677732
0.9436961,0.1259325,0.3717902
0.9395453,0.1220287,0.3742969
0.9308782,0.1238075,0.3775038
0.9344053,0.1240997,0.3772594
0.9449089,0.1218933,0.376353
0.9443407,0.1224739,0.3802645
0.9414275,0.1229111,0.3794956
0.9404362,0.12703,0.3765598
0.9408873,0.1330909,0.3776801
0.9448868,0.135564,0.3761702
0.9426869,0.1375869,0.3742321
0.9407606,0.1408111,0.3744038
0.9409848,0.1450734,0.3722652
0.9374563,0.1482413,0.3670667
0.9403337,0.1453397,0.3616418
0.9431357,0.1402033,0.3593195
0.9426283,0.1394383,0.3625836
0.9442329,0.1376905,0.3700567
0.9442268,0.131241,0.3725659
0.9462556,0.1265935,0.3719297
0.9456136,0.1269875,0.3770285
0.9428976,0.1278003,0.3806133
0.9442164,0.1257903,0.378403
0.9428314,0.1259319,0.3773096
0.9424949,0.1270629,0.3810544
0.9437924,0.1248964,0.3850127
0.9422167,0.1256804,0.3849393
0.9408333,0.1297555,0.3846873
0.9370664,0.1331245,0.3843299
0.9336992,0.1333639,0.3832039
0.9340949,0.1305807,0.3830717
0.9343119,0.1305957,0.3824508
0.9355893,0.1305792,0.379341
0.9366354,0.1301643,0.3754338
0.9349773,0.1302866,0.3780968
0.9350065,0.1252411,0.3848534
0.9386525,0.1201928,0.3893219
0.9422707,0.1174078,0.3904824
0.9422989,0.1133118,0.3877228
0.9409966,0.1103007,0.3886898
0.9420215,0.1130167,0.3900376
0.942832,0.1212192,0.387694
0.9423741,0.1281252,0.390159
0.940767,0.135858,0.394858
0.9389066,0.1428786,0.4058172
0.9438399,0.1445067,0.4099794
0.9497965,0.146224,0.3771651
0.9409889,0.1468719,0.3447917
0.9147367,0.1479388,0.3596535
0.89385,0.1479556,0.3721993
0.9161796,0.1408836,0.3467672
0.9547779,0.130872,0.3382718
0.9531822,0.1205961,0.3565319
0.9435452,0.1223601,0.3707948
0.9473503,0.1426741,0.3886597
0.9372781,0.1624561,0.4018076
0.932019,0.1627554,0.4073673
0.9352933,0.1444232,0.4078455
0.9326167,0.127773,0.3948549
0.9320417,0.1220182,0.3846676
0.933013,0.1239096,0.3795999
0.9386077,0.1253638,0.3794663
0.9413109,0.119128,0.3775069
0.9360356,0.119344,0.3667162
0.9342083,0.1224615,0.371257
0.9359057,0.1223181,0.3751861
0.9389607,0.1287051,0.3687084
0.9373173,0.1318591,0.3728864
0.9353435,0.1429797,0.3778632
0.9362595,0.1616379,0.3842207
0.933861,0.1580644,0.3874084
0.9366787,0.1474992,0.3836074
0.938742,0.1423331,0.3896493
0.9370356,0.1347644,0.3923549
0.9397322,0.1356346,0.3831439
0.9406458,0.1363567,0.3747279
0.9404299,0.1285205,0.3733468
0.9397848,0.1263105,0.3778798
0.9382791,0.1230527,0.3801794
0.937453,0.1177433,0.3823494
0.9369594,0.1220366,0.3820701
0.9392376,0.120752,0.3745043
0.9401358,0.1146007,0.368942
0.9412628,0.1146109,0.3679896
0.9439671,0.1153983,0.3741976
0.9454542,0.1195495,0.3800584
0.9482628,0.1192153,0.3738866
0.9475749,0.1184685,0.3704251
0.9460982,0.1258297,0.3746663
0.9462046,0.1278477,0.3749718
0.9404789,0.13313,0.3703043
0.9356079,0.1408944,0.3671258
0.9365602,0.1408079,0.3732389
0.9380897,0.1479852,0.3845341
0.9382354,0.1570986,0.3896442
0.939662,0.1527436,0.3855227
0.9424783,0.1403805,0.3797387
0.940214,0.1284404,0.3776928
0.9379545,0.1220166,0.3730073
0.9425759,0.1224178,0.3689221
0.9468332,0.1210742,0.3703616
0.9478538,0.115001,0.367868
0.9460441,0.1132874,0.365544
0.9405302,0.1163626,0.3751055
0.9361209,0.1250008,0.3857023
0.9375839,0.1345344,0.3845827
0.9406109,0.1344276,0.3830677
0.9394444,0.1334909,0.3853875
0.9400253,0.1329099,0.3792285
0.9422573,0.1294794,0.3714838
0.9409533,0.1314639,0.36946
0.9409592,0.1348518,0.368476
0.9405201,0.133983,0.3700275
0.9404069,0.1302104,0.3707733
0.94275,0.1268157,0.3736416
0.9414169,0.1289548,0.3787803
0.9412483,0.1323593,0.3763386
0.942343,0.1308466,0.3763293
0.941278,0.1298536,0.3802276
0.9456657,0.1305492,0.3781382
0.9587839,0.1299063,0.3742036
0.9747812,0.1317967,0.3666836
0.9685873,0.1342754,0.3623174
0.9274661,0.1350699,0.3705825
0.892653,0.1287483,0.3748411
0.9043083,0.1144178,0.3653248
0.936408,0.1138262,0.3604818
0.9484155,0.1291422,0.3756572
0.9483461,0.1414078,0.3915976
0.9436173,0.1456316,0.3887764
0.9384657,0.1495358,0.3850886
0.9421129,0.1565582,0.3839139
0.933724,0.1547208,0.3772015
0.9222765,0.1520437,0.3867158
0.9240843,0.155595,0.3999104
0.9263245,0.1503838,0.3887327
0.9339152,0.1459085,0.3781011
0.9431923,0.1425516,0.3732315
0.9512651,0.134379,0.3599243
0.9545191,0.1339672,0.3567922
0.9492139,0.1368535,0.3607022
0.9467137,0.1440617,0.3630218
0.9362788,0.1542912,0.376154
0.9311378,0.15277,0.3876929
0.9401319,0.1439724,0.3892799
0.9383475,0.1377153,0.393932
0.9335407,0.1371568,0.3979125
0.9268124,0.1386204,0.3972216
0.9208109,0.1398121,0.3963281
0.9304455,0.1416205,0.3866211
0.945313,0.1364335,0.3710138
0.9566096,0.1263185,0.3649079
0.9527173,0.1231142,0.3640362
0.9438656,0.1275605,0.3671108
0.9484741,0.1334963,0.3744176
0.9479468,0.1382007,0.374311
0.943855,0.1411919,0.3742002
0.9408146,0.1450962,0.381387
0.9313566,0.1481526,0.3886876
0.9325634,0.1416817,0.396741
0.9358992,0.1351382,0.4049287
0.9312522,0.1365464,0.4059901
0.9338298,0.1304949,0.3994938
0.934214,0.1179742,0.3970463
0.9319269,0.1141616,0.3979529
0.9337242,0.1179036,0.3959458
0.9293911,0.121054,0.3969502
0.9266956,0.1245391,0.3958374
0.9298802,0.1338764,0.3942238
0.9311986,0.1426947,0.3940954
0.9307849,0.1425558,0.3882901
0.9299649,0.140202,0.3879702
0.932861,0.1412693,0.3900162
0.9419549,0.1369417,0.3855426
0.9554769,0.1278616,0.3768072
0.9578261,0.1284837,0.3656195
0.9399888,0.1396257,0.3676296
0.9294019,0.1537821,0.3728445
0.9396933,0.1611844,0.3684259
0.9489277,0.158513,0.3747153
0.945033,0.1557913,0.3846723
0.9389913,0.1516169,0.3853006
0.9349522,0.1481932,0.3842175
0.928542,0.1456911,0.3793538
0.9294346,0.1312115,0.3746246
0.9358454,0.1211408,0.3745049
0.9390217,0.12928,0.3747091
0.9392783,0.134786,0.3736066
0.9324561,0.1285937,0.3735849
0.9290978,0.1256658,0.3840552
0.9328542,0.1277637,0.39794
0.9332669,0.1205782,0.4028672
0.9297835,0.1109646,0.4085209
0.9214909,0.1100901,0.4116362
0.9196931,0.112449,0.4033395
0.9328275,0.1147043,0.3957349
0.9485231,0.1171334,0.3886535
0.9506384,0.1234908,0.3772184
0.9392082,0.1330032,0.3733789
0.9343631,0.1456023,0.3737591
0.9373993,0.1594196,0.369512
0.9415284,0.1597975,0.3682096
0.9461785,0.1529477,0.3693091
0.9433655,0.1518956,0.3722075
0.9400152,0.1509006,0.3811742
0.9404139,0.1480625,0.3857455
0.9397896,0.1405438,0.3819385
0.938941,0.1285468,0.3810797
0.9349603,0.1232658,0.3841371
0.9316701,0.1252991,0.3871972
0.9315474,0.1262357,0.3935181
0.9312184,0.1284348,0.3972546
0.9338169,0.1346954,0.3919291
0.9385661,0.1360369,0.3872835
0.9390473,0.13348,0.3878443
0.9371863,0.1331508,0.3866975
0.9378116,0.1316035,0.3843773
0.937438,0.1308645,0.3853826
0.9375112,0.1299504,0.3884706
0.9400278,0.1269749,0.3911495
0.9416244,0.129348,0.3892855
0.9440469,0.1332846,0.3813243
0.945825,0.1335961,0.3769349
0.953663,0.1337547,0.3837297
0.9779675,0.1290376,0.3924447
0.9878868,0.1227795,0.3892065
0.9398306,0.1282757,0.378672
0.8850837,0.1412076,0.3736829
0.9012824,0.1522951,0.3773688
0.9248024,0.1564694,0.3864763
0.910938,0.1494926,0.3905346
0.9176534,0.1435819,0.3923752
0.9237022,0.1447197,0.400944
0.9303361,0.142609,0.403887
0.9629722,0.136373,0.3940966
0.9585088,0.1305823,0.3829242
0.9239379,0.1356103,0.3873774
0.8980487,0.1489483,0.4026758
0.8918965,0.1505721,0.409562
0.9213599,0.1433109,0.40652
0.9485081,0.1390657,0.3932892
0.959701,0.1446441,0.3853863
0.9466123,0.1586764,0.3915016
0.9112773,0.1679043,0.3911759
0.9056809,0.1759391,0.3843297
0.9094065,0.1806935,0.3800381
0.9078261,0.1705683,0.3883976
0.9190974,0.1522085,0.3995734
0.9376463,0.1360552,0.394171
0.9672946,0.1312026,0.394343
0.9697939,0.1304342,0.4007397
0.9449973,0.1255629,0.4007866
0.9322837,0.1247272,0.4051844
0.9225498,0.1309057,0.4049064
0.911114,0.1554286,0.399345
0.8941048,0.1829367,0.3972364
0.8932749,0.1740378,0.3936812
0.9052858,0.1517675,0.3891912
0.8937535,0.1459978,0.3851005
0.8976552,0.1423648,0.3838687
0.9267148,0.1460467,0.383103
0.9617479,0.157546,0.3775284
0.9899777,0.1621805,0.3778095
0.9760087,0.1630379,0.3813399
0.9643039,0.1566228,0.3811679
0.9583686,0.1452485,0.3949958
0.9269593,0.1355752,0.4085047
0.9338499,0.1362728,0.3951295
0.9505675,0.1466145,0.3809695
0.9369598,0.1401702,0.3889389
0.9398147,0.1411483,0.4092953
0.9344813,0.1657283,0.4275495
0.9246803,0.1716549,0.4247711
0.9337585,0.1426222,0.4002059
0.9277575,0.09796913,0.3710829
0.921399,0.09528719,0.3529379
0.9179449,0.1231237,0.3693432
0.9113935,0.1239721,0.3919044
0.931708,0.1292546,0.3784583
0.9602403,0.1401469,0.3760024
0.9692682,0.1412829,0.3865047
0.9581647,0.139671,0.3787303
0.9334281,0.1266356,0.3896039
0.9109438,0.1287263,0.3984273
0.8972344,0.1424702,0.3859187
0.8923138,0.1600181,0.3825501
0.9013682,0.1742371,0.3805904
0.9242047,0.1559192,0.3789189
0.9278651,0.1426141,0.3765722
0.9170352,0.1440745,0.3706946
0.9304367,0.1383638,0.3664758
0.9430865,0.1408523,0.3679318
0.9554162,0.1446679,0.3872669
0.9708318,0.1453801,0.4043229
0.9708379,0.141973,0.4071121
0.9933306,0.1355549,0.4062186
1.001531,0.1388038,0.3978527
0.9386867,0.1454647,0.3900756
0.8639992,0.1501828,0.395827
0.8558022,0.1460748,0.4065611
0.9173948,0.1288027,0.4031294
0.9675674,0.114331,0.4016503
0.96422,0.1120794,0.4046656
0.9259466,0.1023041,0.3851402
0.8847024,0.07848218,0.3666899
0.8879376,0.07619507,0.3641583
0.91231,0.08377889,0.3723662
0.9261869,0.07216444,0.397321
0.9370723,0.07301709,0.4170146
0.9382104,0.08337122,0.407912
0.9441691,0.09534406,0.3800022
0.9476418,0.1211772,0.3716068
0.9385281,0.125677,0.3779348
0.9381102,0.1243351,0.375528
0.9343278,0.138421,0.3802599
0.9286731,0.1382885,0.3874197
0.9396129,0.1421947,0.3918961
0.9536637,0.1389037,0.3898247
0.9587095,0.1162614,0.384399
0.9511776,0.1123754,0.3934825
0.9433303,0.1099609,0.4015342
0.9480477,0.1057325,0.4074412
0.9496991,0.1105096,0.4013989
0.9481135,0.1065844,0.3815334
0.951258,0.1032036,0.37789
0.949616,0.09180857,0.3706843
0.9465561,0.08086785,0.3636899
0.9430989,0.09507666,0.3745332
0.9381587,0.1076272,0.3782655
0.9405642,0.1062012,0.375504
0.9432289,0.1036391,0.3738156
0.9423625,0.1053719,0.3741621
0.9427745,0.1126514,0.3756698
0.9412058,0.1240746,0.3794641
0.9410609,0.1309161,0.3869944
0.9410069,0.1207802,0.3809856
0.9367631,0.1080046,0.3735325
0.9352963,0.1055352,0.3771428
0.936458,0.112412,0.3761353
0.9390432,0.1217378,0.3742287
0.9479795,0.1151796,0.3686698
0.9576878,0.1066911,0.3598059
0.9584868,0.1046681,0.3610866
0.9569891,0.09317863,0.3595515
0.9599398,0.08406581,0.351862
0.9540525,0.08200209,0.3527793
0.9427852,0.08900197,0.3620831
0.9442944,0.1125186,0.3712615
0.955075,0.1264407,0.368154
0.9644337,0.1168048,0.3596484
0.9617854,0.1058872,0.357854
0.9533166,0.1069502,0.3549884
0.946152,0.1113456,0.3643215
0.9320841,0.1155327,0.3829693
0.9338921,0.1203014,0.380153
0.9492581,0.1169086,0.3658515
0.9504132,0.1113939,0.3520168
0.9548203,0.1091845,0.3428174
0.9598769,0.1064855,0.3430721
0.9602164,0.1088444,0.332713
0.9656376,0.1135875,0.3233977
0.9637705,0.1210716,0.3297717
0.96787,0.1262652,0.33225
0.9717301,0.1237212,0.3377216
0.9572182,0.1242453,0.3503623
0.947422,0.1167115,0.3591254
0.9471465,0.1014691,0.369297
0.9501439,0.09499477,0.3726696
0.9514295,0.09247543,0.3641598
0.9497562,0.09181677,0.3595799
0.9482461,0.08827151,0.3610981
0.9431481,0.09453589,0.361406
0.9505339,0.1334477,0.3558899
0.9626914,0.1585225,0.3387532
0.9602386,0.1028642,0.3259937
0.9487006,0.04317989,0.3469186
0.9364527,0.09193301,0.373243
0.9470029,0.1410505,0.3611679
0.9667308,0.1136016,0.3466786
0.9650475,0.1155262,0.3505169
0.9522853,0.1242738,0.3542072
0.9389647,0.1074499,0.375231
0.9421866,0.1101985,0.3892123
0.9553627,0.1004213,0.3742197
0.9554404,0.1018832,0.3625984
0.9552213,0.1167323,0.3506186
0.9552572,0.100201,0.3414878
0.9580346,0.09416799,0.3407824
0.9656184,0.09714214,0.335888
0.9591007,0.09955506,0.34314
0.9513847,0.1146141,0.3537945
0.9501138,0.1192431,0.3543319
0.9519896,0.1241436,0.3528551
0.9638252,0.1239357,0.3484049
0.9690786,0.1134897,0.3494949
0.9626874,0.1154506,0.3501395
0.9502498,0.1157899,0.3429452
0.9385495,0.1133821,0.3423941
0.9430177,0.1114104,0.3526941
0.9501805,0.1034667,0.3640209
0.9497745,0.1030531,0.3626542
0.9508216,0.1055731,0.35833
0.9520832,0.1055897,0.3620443
0.9547048,0.1085213,0.3615541
0.9552238,0.109598,0.3626889
0.9470346,0.1114684,0.3663732
0.9412176,0.1142185,0.3654322
0.9483802,0.1090229,0.3686512
0.9590506,0.1001875,0.367435
0.9597407,0.09800275,0.3611791
0.9512255,0.09857336,0.3635288
0.9447003,0.09804455,0.3668003
0.9476308,0.1021892,0.3657908
0.9515544,0.1057796,0.3644446
0.9490363,0.105537,0.3656533
0.9478326,0.1086625,0.3678023
0.947583,0.1110903,0.3677604
0.9465595,0.1101184,0.3680991
0.9497136,0.1080258,0.3652404
0.9497327,0.1046239,0.3625708
0.9450447,0.1070344,0.3643773
0.9421182,0.1119687,0.3638767
0.942729,0.1098106,0.3639064
0.9468759,0.10462,0.3650222
1.013169,-0.2006637,0.04207621
1.019304,-0.1888646,0.03095583
1.020715,-0.1897803,0.02539315
1.009201,-0.1934364,0.02471118
1.004868,-0.1920984,0.02222579
1.009624,-0.1916523,0.02546555
1.008786,-0.1823875,0.02045849
1.006318,-0.1745564,0.01773423
1.00026,-0.1779699,0.02310789
1.003572,-0.1886994,0.02375639
1.010078,-0.2045939,0.02363447
1.009221,-0.2104562,0.01346133
1.005879,-0.2052875,0.001347028
0.9967934,-0.2042202,-7.162391e-05
1.001642,-0.206527,-0.00466882
1.011292,-0.2046688,-0.009543801
1.010611,-0.1988039,-0.009866278
1.015174,-0.1897704,-0.01531274
1.015837,-0.1817143,-0.02613474
1.018955,-0.1836118,-0.03669699
1.028837,-0.1863076,-0.04601368
1.029996,-0.1863918,-0.0546969
1.028469,-0.1924705,-0.06195013
1.024323,-0.1936032,-0.0610742
1.020707,-0.1907833,-0.05760192
1.022209,-0.1878148,-0.06453184
1.021544,-0.1809058,-0.07145836
1.020546,-0.1824712,-0.07426326
1.020742,-0.1860647,-0.06839815
1.022017,-0.1855146,-0.05568916
1.022915,-0.1894638,-0.06272718
1.023702,-0.1858801,-0.07399892
1.025846,-0.1778263,-0.07807045
1.02375,-0.1789514,-0.08317172
1.018348,-0.1793555,-0.07390615
1.013788,-0.1768509,-0.06925751
1.014784,-0.1764111,-0.07410133
1.020255,-0.1772424,-0.07170214
1.023115,-0.1802181,-0.07420385
1.025681,-0.1804877,-0.07497633
1.022367,-0.1759338,-0.06790646
1.011343,-0.1701063,-0.05640268
1.003501,-0.1664505,-0.04850746
1.003358,-0.1683003,-0.06244963
1.017699,-0.1726012,-0.0872914
1.036771,-0.1809702,-0.1063456
1.038783,-0.1899835,-0.1106451
1.025797,-0.1845058,-0.1021748
1.01395,-0.1774243,-0.1020223
1.014319,-0.1857569,-0.1071124
1.019556,-0.1897093,-0.1087848
1.020792,-0.1823726,-0.1093583
1.022151,-0.1798903,-0.1023758
1.022259,-0.1779337,-0.09360612
1.021119,-0.1667297,-0.08666481
1.0208,-0.1527029,-0.07605545
1.020678,-0.147283,-0.06997545
1.022063,-0.1474905,-0.06631021
1.022417,-0.1487345,-0.05703991
1.022129,-0.1607076,-0.05086733
1.022349,-0.1728855,-0.04668596
1.021682,-0.178475,-0.04286421
1.019702,-0.1877927,-0.04744758
1.012427,-0.1914622,-0.04902905
1.000462,-0.1923008,-0.03945411
0.9916161,-0.1903198,-0.02634367
0.9945522,-0.1821278,-0.01962091
1.008849,-0.1827886,-0.02844132
1.019149,-0.1810931,-0.03583372
1.016165,-0.1794449,-0.03097637
1.011005,-0.189228,-0.03044552
1.013124,-0.1933288,-0.03144994
1.014011,-0.1922116,-0.03161594
1.012814,-0.1860192,-0.04056263
1.014039,-0.1788502,-0.0464189
1.012721,-0.1821696,-0.04371233
1.016753,-0.1824719,-0.04441633
1.023778,-0.1783057,-0.04621801
1.022284,-0.1775248,-0.04665136
1.021767,-0.1783909,-0.0497524
1.022651,-0.1797216,-0.05051663
1.021689,-0.1776298,-0.04954601
1.021273,-0.1745002,-0.04840525
1.018376,-0.1732809,-0.04278332
1.016765,-0.175359,-0.03587346
1.017204,-0.1830211,-0.03374394
1.016857,-0.1909306,-0.0385359
1.013911,-0.1927068,-0.04104603
1.010333,-0.1869414,-0.03289449
1.01281,-0.1808091,-0.02183058
1.018418,-0.1798866,-0.01690251
1.024042,-0.1806889,-0.02049307
1.026325,-0.1817732,-0.02663688
1.022636,-0.1820955,-0.03102411
1.020968,-0.1820314,-0.03593815
1.020862,-0.1829841,-0.04312553
1.018859,-0.1834316,-0.05280745
1.017355,-0.1828242,-0.05105139
1.010998,-0.1796001,-0.03907734
1.002783,-0.176793,-0.03576807
1.006004,-0.1793898,-0.03198143
1.013461,-0.1850071,-0.02485325
1.014274,-0.1905148,-0.02184693
1.015668,-0.1943585,-0.01810143
1.015845,-0.1984738,-0.01545411
1.01324,-0.2069644,-0.01117838
1.013807,-0.2146837,-0.01112336
1.009006,-0.2133898,-0.01458338
0.9977302,-0.2098712,-0.0101816
0.9907415,-0.2117897,-0.01131008
0.9967484,-0.2122982,-0.01579457
1.012097,-0.2104057,-0.01921096
1.01782,-0.20261,-0.02493186
1.014486,-0.1836311,-0.02180555
1.013584,-0.1740314,-0.0235773
1.017321,-0.1799727,-0.03624661
1.020971,-0.180551,-0.04440135
1.01616,-0.176594,-0.04405557
1.012297,-0.1766526,-0.04171022
1.011169,-0.1743922,-0.04692695
1.005887,-0.1706009,-0.04470993
1.006802,-0.1718936,-0.03903098
1.016527,-0.1771946,-0.04805699
1.024886,-0.1832154,-0.05252256
1.019392,-0.1863638,-0.05294849
1.010143,-0.1889513,-0.05832403
1.013228,-0.1918346,-0.06657278
1.015008,-0.1880297,-0.0821388
1.015199,-0.1842242,-0.08753702
1.019535,-0.1792112,-0.08480408
1.021158,-0.1676973,-0.09091126
1.022988,-0.1684689,-0.09427133
1.021361,-0.1782409,-0.0961499
1.018686,-0.1836427,-0.1070693
1.02006,-0.187862,-0.1148415
1.01836,-0.1836807,-0.1104171
1.015444,-0.1768159,-0.1067476
1.01148,-0.1761606,-0.1076469
1.011304,-0.1763331,-0.1059885
1.021142,-0.1795243,-0.1059941
1.026685,-0.1810376,-0.1051522
1.020873,-0.1775043,-0.1036556
1.014491,-0.1769075,-0.1056443
1.016116,-0.1822872,-0.1039994
1.017147,-0.1886238,-0.1033542
1.012275,-0.1859759,-0.1031607
1.010623,-0.1807098,-0.09343488
1.006926,-0.1811548,-0.08411145
1.005099,-0.181726,-0.08475621
1.015173,-0.1836468,-0.08842471
1.02322,-0.1817989,-0.08933165
1.02301,-0.176038,-0.09357223
1.018752,-0.1776342,-0.1028504
1.014169,-0.185213,-0.1131542
1.012181,-0.1975016,-0.1202556
1.013345,-0.2019956,-0.1149484
1.016922,-0.1898284,-0.1086791
1.015259,-0.1833788,-0.1068692
1.013809,-0.190066,-0.0953654
1.014592,-0.1946578,-0.0839271
1.010154,-0.192263,-0.07825362
1.0095,-0.19175,-0.07849698
1.008977,-0.1961189,-0.08328123
1.004436,-0.1972,-0.08101882
1.005338,-0.1957157,-0.08184788
1.011064,-0.1890416,-0.08350701
1.017643,-0.1762879,-0.08210363
1.016355,-0.1721108,-0.08768919
1.013078,-0.1748976,-0.09152737
1.016637,-0.1739241,-0.0978722
1.01534,-0.173634,-0.1005425
1.014249,-0.1792599,-0.09107509
1.017183,-0.1860232,-0.08942689
1.018124,-0.1904165,-0.09271059
1.021427,-0.1968007,-0.09520909
1.018551,-0.203717,-0.09606419
1.011274,-0.20381,-0.08793423
1.010548,-0.1997382,-0.07810536
1.010141,-0.1992468,-0.07061305
1.013323,-0.1981904,-0.06728618
1.019823,-0.1931548,-0.06524267
1.019617,-0.1901686,-0.06472573
1.016356,-0.1877155,-0.06660187
1.014326,-0.1854036,-0.05949735
1.013769,-0.1865888,-0.05644946
1.012462,-0.1901002,-0.06069234
1.010049,-0.1948397,-0.0587761
1.010926,-0.1984764,-0.05758948
1.010818,-0.2011787,-0.05315853
1.008683,-0.2015792,-0.05024299
1.008971,-0.2018379,-0.05440413
1.008555,-0.2058251,-0.05447909
1.009073,-0.2069104,-0.05550456
1.012245,-0.2064039,-0.05501792
1.013008,-0.2042748,-0.05142981
1.012348,-0.1959046,-0.0518309
1.012654,-0.1903967,-0.0512823
1.014112,-0.1900648,-0.0504328
1.017972,-0.1903664,-0.05023568
1.021467,-0.1943906,-0.0491626
1.021166,-0.2007245,-0.04841941
1.018118,-0.1996672,-0.04921623
1.012891,-0.194667,-0.05049338
1.006696,-0.1935959,-0.04686328
1.005366,-0.188695,-0.03982185
1.006505,-0.1859166,-0.03128563
1.005844,-0.1877532,-0.02727106
1.011238,-0.1861966,-0.03418854
1.018024,-0.192541,-0.04105091
1.016304,-0.2011634,-0.04249555
1.012522,-0.2078658,-0.04225344
1.01156,-0.2179004,-0.04548519
1.016878,-0.2175083,-0.05967369
1.021441,-0.2129288,-0.0741154
1.010219,-0.2078596,-0.0729793
0.9984656,-0.1997243,-0.06308847
1.004135,-0.2019823,-0.06107257
1.014309,-0.2038121,-0.070074
1.019593,-0.1994321,-0.07681777
1.021179,-0.1996819,-0.06874821
1.017967,-0.1988416,-0.0586787
1.016255,-0.1983197,-0.06060773
1.015724,-0.2029348,-0.05835718
1.013569,-0.2044926,-0.05421902
1.014334,-0.2005382,-0.05961587
1.012225,-0.1972766,-0.05870406
1.010856,-0.199329,-0.05919241
1.012281,-0.2052778,-0.0704728
1.008359,-0.2105397,-0.0766393
1.008744,-0.2143208,-0.0726629
1.008418,-0.2161131,-0.06427244
1.003788,-0.2154928,-0.06144226
1.007665,-0.2132402,-0.05844744
1.009806,-0.2099052,-0.05610807
1.008839,-0.2087997,-0.06407673
1.012392,-0.2055625,-0.06715671
1.014897,-0.1973765,-0.0710822
1.01582,-0.189809,-0.07793386
1.015575,-0.1788259,-0.07682933
1.016795,-0.168983,-0.08127874
1.019474,-0.1710397,-0.0832495
1.02071,-0.1825577,-0.0787096
1.022354,-0.2007787,-0.07177135
1.020295,-0.2125031,-0.05959977
1.013049,-0.2113151,-0.0606292
1.003878,-0.2126311,-0.06287954
0.994661,-0.2144337,-0.05135977
0.993819,-0.2124876,-0.04429624
1.003923,-0.2104808,-0.04576214
1.014165,-0.200591,-0.05701289
1.017252,-0.1891878,-0.07015822
1.014721,-0.183786,-0.0689045
1.012583,-0.1807929,-0.06176569
1.013168,-0.1846618,-0.06166872
1.013878,-0.1932759,-0.06851861
1.015451,-0.2045669,-0.07577819
1.014173,-0.2172573,-0.07655983
1.010237,-0.2195417,-0.07397908
1.008907,-0.2127556,-0.0699685
1.004447,-0.2095395,-0.0589749
1.001471,-0.2121189,-0.05200112
1.004279,-0.2134895,-0.0533857
1.005154,-0.2091447,-0.05001342
1.008307,-0.1975733,-0.04801737
1.012594,-0.1836327,-0.04902898
1.015421,-0.1841007,-0.0521872
1.019398,-0.1946444,-0.06078706
1.019147,-0.1982857,-0.06169916
1.016542,-0.2035955,-0.06770173
1.011157,-0.2111876,-0.08158675
1.006372,-0.2163852,-0.07702051
1.011311,-0.2215646,-0.07109157
1.013721,-0.2156887,-0.07330186
1.009103,-0.2100689,-0.06513533
1.007814,-0.2134198,-0.05978371
1.010249,-0.2104458,-0.06320512
1.013183,-0.20784,-0.06286775
1.013422,-0.2054912,-0.06202529
1.012497,-0.1988703,-0.06111657
1.010917,-0.1974738,-0.05443782
1.00883,-0.1985373,-0.04841707
1.010735,-0.203674,-0.05401312
1.011867,-0.2118296,-0.06292495
1.010474,-0.2121672,-0.06363858
1.010339,-0.2082494,-0.07071887
1.009529,-0.2078496,-0.08206996
1.009823,-0.2085537,-0.07801447
1.012035,-0.2071892,-0.07092084
1.013741,-0.2067495,-0.06646618
1.014022,-0.2069541,-0.05769862
1.011731,-0.206171,-0.05695764
1.009536,-0.2025044,-0.05789509
1.009502,-0.1930794,-0.05332646
1.010899,-0.1830973,-0.05596815
1.015135,-0.1788803,-0.05672946
1.019771,-0.1835938,-0.05390078
1.019996,-0.1917555,-0.05898271
1.020285,-0.199143,-0.06956052
1.022163,-0.2124297,-0.08892046
1.01594,-0.2206481,-0.09916529
1.006869,-0.2153604,-0.08883923
1.004798,-0.2136751,-0.08386838
1.002836,-0.2176086,-0.08165217
1.00402,-0.2176739,-0.07712172
1.010893,-0.2178686,-0.07837785
1.011914,-0.2177371,-0.07505635
1.009726,-0.2122355,-0.07154177
1.009983,-0.2039302,-0.06848863
1.012012,-0.1946772,-0.06195757
1.016904,-0.1874104,-0.06219896
1.019082,-0.1865524,-0.06417666
1.017019,-0.1902744,-0.06664952
1.016069,-0.1974344,-0.07450369
1.016594,-0.2081332,-0.08342916
1.014436,-0.2180776,-0.08862381
1.006659,-0.2224705,-0.08479673
1.000327,-0.2201896,-0.08126835
1.00268,-0.2157459,-0.08173894
1.007695,-0.2131215,-0.0767708
1.010597,-0.2087877,-0.07276378
1.013917,-0.2026579,-0.07326228
1.014978,-0.1992974,-0.07302056
1.014574,-0.1967683,-0.06931349
1.016904,-0.1957604,-0.06468446
1.018631,-0.1968184,-0.06522119
1.020445,-0.1979675,-0.06424731
1.017184,-0.2010211,-0.06156763
1.008327,-0.2011212,-0.06557863
1.00961,-0.2018642,-0.06875377
1.014612,-0.2076023,-0.06657091
1.014601,-0.2067888,-0.06176077
1.012645,-0.1996627,-0.0525761
1.008193,-0.1891804,-0.04487416
1.011773,-0.1802721,-0.04688137
1.018738,-0.1844716,-0.05318337
1.020662,-0.1907988,-0.05941554
1.022662,-0.1920738,-0.06386169
1.017454,-0.194937,-0.05226932
1.011177,-0.1946411,-0.03610503
1.013348,-0.1928651,-0.03881831
1.017212,-0.1933627,-0.03954892
1.020163,-0.1927163,-0.03389813
1.017332,-0.1931234,-0.04138243
1.012624,-0.19439,-0.04492211
1.012065,-0.1987071,-0.03908928
1.009263,-0.2069383,-0.03734881
1.008541,-0.2080432,-0.03548282
1.011293,-0.1998997,-0.02776983
1.011152,-0.1850664,-0.01286208
1.013476,-0.1696534,-0.006009046
1.017945,-0.1665544,-0.01521731
1.019836,-0.16527,-0.02100467
1.020287,-0.162829,-0.02083695
1.018251,-0.1764685,-0.02273312
1.016217,-0.1912913,-0.0287702
1.013471,-0.1962103,-0.04047019
1.010839,-0.2010775,-0.0446984
1.01323,-0.2019437,-0.04034811
1.013051,-0.2026327,-0.04151343
1.01261,-0.2008696,-0.04352016
1.015969,-0.1899509,-0.04257016
1.015218,-0.1829688,-0.0432089
1.015041,-0.184616,-0.04183019
1.015713,-0.1887048,-0.03964076
1.014598,-0.187779,-0.04095781
1.014778,-0.1864603,-0.04533913
1.013465,-0.1907442,-0.05166779
1.013658,-0.1938987,-0.05678583
1.014417,-0.1986912,-0.05893629
1.013414,-0.1985828,-0.0557431
1.014126,-0.194469,-0.05055827
1.013733,-0.1959271,-0.0511096
1.012795,-0.192244,-0.05192922
1.012846,-0.1922282,-0.05089158
1.013963,-0.1976969,-0.05170865
1.016141,-0.1969386,-0.05058876
1.014865,-0.1985933,-0.04768704
1.012036,-0.1989816,-0.04500249
1.011828,-0.1972665,-0.04512935
1.016005,-0.1956191,-0.04756802
1.021576,-0.1904769,-0.04895209
1.019844,-0.1911456,-0.05221983
1.016259,-0.1919606,-0.05246133
1.01526,-0.1873142,-0.04996107
1.011279,-0.1853516,-0.0520616
1.011577,-0.1860865,-0.05131699
1.01407,-0.1881209,-0.04841333
1.011899,-0.1880699,-0.04744835
1.014063,-0.1885955,-0.04592498
1.01568,-0.1939117,-0.04710693
1.012937,-0.1968595,-0.04719214
1.014114,-0.1966344,-0.04857251
1.015141,-0.197413,-0.0538724
1.014975,-0.1984672,-0.05362019
1.014776,-0.1986411,-0.05066662
1.013079,-0.1986497,-0.04783387
1.013206,-0.1988692,-0.04763983
1.013958,-0.1993168,-0.05103872
1.016401,-0.2004316,-0.04959586
1.019392,-0.2000938,-0.04983291
1.01802,-0.1996432,-0.051266
1.017073,-0.1992642,-0.04800364
1.016659,-0.1941246,-0.04708192
1.013473,-0.1882067,-0.04691999
1.012353,-0.1876897,-0.04863772
1.012829,-0.1888299,-0.05116436
1.012346,-0.1871815,-0.05118887
1.013481,-0.1883053,-0.05172666
1.014339,-0.1965098,-0.04912169
1.013704,-0.2057636,-0.04792398
1.01462,-0.208038,-0.04924352
1.017509,-0.2001579,-0.04965676
1.020107,-0.1943704,-0.05327615
1.017636,-0.197172,-0.0553152
1.012345,-0.195344,-0.0559145
1.011045,-0.1922557,-0.05736033
1.011262,-0.1976148,-0.05686197
1.011816,-0.2020127,-0.05598713
1.01307,-0.1996491,-0.05514918
1.012398,-0.1972522,-0.05491596
1.011946,-0.1974459,-0.05216115
1.010982,-0.1969029,-0.04861471
1.009874,-0.1975598,-0.05039171
1.014047,-0.1997545,-0.05333512
1.018305,-0.2018442,-0.05423755
1.01565,-0.2036504,-0.05266696
1.0122,-0.201544,-0.05117516
1.012875,-0.1995203,-0.05505213
1.014488,-0.1992406,-0.05945687
1.016537,-0.1965575,-0.05758568
1.017265,-0.1943264,-0.05154288
1.015229,-0.1928224,-0.04524946
1.014693,-0.1942895,-0.04375524
1.013721,-0.1972291,-0.05035013
1.011714,-0.1961134,-0.05444442
1.012679,-0.1980111,-0.04949042
1.013702,-0.2009351,-0.04568828
1.013908,-0.1972285,-0.04770375
1.013917,-0.1944599,-0.0511944
1.012967,-0.19618,-0.05335002
1.013913,-0.1972066,-0.05696905
1.017677,-0.1970531,-0.06118806
1.019668,-0.1974219,-0.05781651
1.014311,-0.1970476,-0.05169922
1.008994,-0.1961238,-0.0494364
1.012837,-0.1959878,-0.04724719
1.015122,-0.1964848,-0.04674741
1.010432,-0.1976613,-0.04614585
1.008698,-0.1975811,-0.04475667
1.010201,-0.1987275,-0.04657407
1.010543,-0.2046059,-0.04628117
1.010178,-0.2084237,-0.04689259
1.008691,-0.2050687,-0.05035413
1.007964,-0.1981639,-0.05029919
1.010116,-0.1942331,-0.05307924
1.013691,-0.1958832,-0.05769701
1.016457,-0.1989675,-0.05982273
1.016331,-0.201498,-0.06245501
1.014956,-0.2035745,-0.06255029
1.013528,-0.2027654,-0.06247806
1.010874,-0.2003045,-0.06275733
1.011244,-0.2001475,-0.06293741
1.0153,-0.2017534,-0.06755396
1.017824,-0.2029141,-0.07208992
1.018801,-0.2010613,-0.07415193
1.019108,-0.1970281,-0.0752584
1.017415,-0.1967325,-0.07398833
1.01339,-0.1978307,-0.06866538
1.011202,-0.1978212,-0.06277567
1.012934,-0.1990564,-0.06342014
1.012591,-0.1986822,-0.06418155
1.011088,-0.1982939,-0.06131808
1.011799,-0.199642,-0.06322944
1.013507,-0.2019892,-0.06847584
1.016235,-0.2049508,-0.06961387
1.01572,-0.202695,-0.06844289
1.014352,-0.1989871,-0.07496167
1.015896,-0.1995305,-0.08271446
1.015227,-0.1975056,-0.07999454
1.014199,-0.1935338,-0.07753375
1.01218,-0.1933697,-0.07864992
1.009192,-0.1943672,-0.07727137
1.013838,-0.1952498,-0.07411993
1.019008,-0.1967453,-0.07057291
1.016364,-0.1975939,-0.07076137
1.014613,-0.1984815,-0.06965001
1.014977,-0.1973786,-0.06873323
1.013288,-0.1947149,-0.07431782
1.013662,-0.1954066,-0.07541527
1.014328,-0.1943822,-0.07224465
1.012493,-0.1897267,-0.06841557
1.012536,-0.1879698,-0.06499509
1.013508,-0.1873239,-0.06913039
1.013808,-0.1876569,-0.07416857
1.01315,-0.1906622,-0.07713412
1.010772,-0.1922515,-0.07663638
1.009974,-0.1920787,-0.0726647
1.009894,-0.1922157,-0.07289013
1.01046,-0.192991,-0.07043547
1.013007,-0.1913041,-0.06852307
1.014494,-0.1875739,-0.07143026
1.015637,-0.1879092,-0.07223028
1.015639,-0.1903707,-0.07579926
1.014731,-0.1933102,-0.07532949
1.015582,-0.1967215,-0.07156042
1.015502,-0.194273,-0.0738209
1.015896,-0.1897188,-0.07014873
1.017069,-0.1899952,-0.06512565
1.01569,-0.1906551,-0.06709784
1.014638,-0.190008,-0.06775383
1.014676,-0.1910954,-0.06847726
1.014586,-0.194084,-0.07008701
1.01537,-0.197843,-0.07122825
1.015589,-0.1989806,-0.07218615
1.014668,-0.1978803,-0.07233225
1.013498,-0.1980256,-0.0735818
1.012657,-0.1969193,-0.07213315
1.014788,-0.1957727,-0.06919312
1.017793,-0.1954985,-0.07062748
1.015949,-0.1918486,-0.071901
1.013805,-0.1899672,-0.07122848
1.013876,-0.1937412,-0.07057722
1.011129,-0.1972768,-0.06385045
1.010747,-0.1958629,-0.05592345
1.014534,-0.1933117,-0.06402629
1.015316,-0.1951695,-0.08008292
1.012562,-0.1971464,-0.08568265
1.008603,-0.1974814,-0.08350668
1.006967,-0.1974351,-0.07890549
1.008219,-0.196717,-0.0752417
1.010148,-0.1976046,-0.07264321
1.012393,-0.1975772,-0.07208502
1.012491,-0.1986484,-0.07756169
1.012469,-0.2005175,-0.07820975
1.012828,-0.1971378,-0.07325768
1.01184,-0.195252,-0.07174031
1.012107,-0.1985749,-0.07172872
1.012123,-0.2008079,-0.07381445
1.014094,-0.1980104,-0.0744438
1.016797,-0.1941089,-0.07585811
1.014998,-0.19448,-0.08019607
1.013639,-0.1954447,-0.078738
1.013358,-0.1961381,-0.07601731
1.015323,-0.1970732,-0.07466932
1.018588,-0.1970267,-0.07428537
1.016876,-0.1974147,-0.07552781
1.014559,-0.1958158,-0.07280758
1.011926,-0.1934129,-0.07201431
1.011442,-0.1918963,-0.07525167
1.014851,-0.191205,-0.07650243
1.013613,-0.1931101,-0.07328376
1.013304,-0.1942601,-0.06620436
1.01403,-0.1943308,-0.06389679
1.012452,-0.1934671,-0.06563691
1.015385,-0.1906354,-0.06453369
1.015985,-0.1885767,-0.06053032
1.014888,-0.1840659,-0.05616766
1.017587,-0.1796228,-0.05842564
1.01801,-0.1850139,-0.06575422
1.01645,-0.1937388,-0.06963677
1.01419,-0.1948479,-0.06852634
1.012446,-0.1958338,-0.0675504
1.00918,-0.2010207,-0.07120671
1.00502,-0.1997014,-0.07280004
1.00761,-0.1930178,-0.06901555
1.011079,-0.1865484,-0.06573973
1.014341,-0.1788565,-0.06353768
1.020666,-0.1755167,-0.06245162
1.022569,-0.1802383,-0.06430189
1.021678,-0.1881523,-0.06970893
1.019695,-0.1924245,-0.07783208
1.016208,-0.1950179,-0.08392259
1.013557,-0.2030182,-0.08225739
1.007476,-0.2108578,-0.07838748
1.003316,-0.2104085,-0.07936057
1.006366,-0.2034513,-0.07254896
1.008049,-0.1979004,-0.06268327
1.008577,-0.1934941,-0.06746225
1.012325,-0.1850278,-0.06998103
1.016779,-0.1796853,-0.06465826
1.020176,-0.1814338,-0.0672346
1.019965,-0.188654,-0.07628102
1.018463,-0.1974347,-0.083654
1.018642,-0.2005305,-0.07728891
1.015,-0.2015823,-0.06757628
1.008662,-0.2019677,-0.07280266
1.004886,-0.2008289,-0.07440425
1.005559,-0.2015517,-0.07102792
1.011278,-0.2008394,-0.07589086
1.015683,-0.195954,-0.07440294
1.01707,-0.1868716,-0.06753315
1.018647,-0.1805956,-0.06444696
1.019517,-0.1847551,-0.06559303
1.01865,-0.1901005,-0.07523134
1.015539,-0.1905347,-0.08271853
1.014634,-0.1914693,-0.08277353
1.015336,-0.1924204,-0.08207201
1.012544,-0.1946309,-0.08313025
1.008489,-0.1998026,-0.08603415
1.005671,-0.2018385,-0.08464319
1.007467,-0.201506,-0.08429297
1.011954,-0.2028565,-0.08803442
1.015515,-0.2059727,-0.08951151
1.017417,-0.2099717,-0.08980334
1.012679,-0.2112059,-0.0835408
1.008054,-0.2101322,-0.07389714
1.008151,-0.206837,-0.0666906
1.007286,-0.1999484,-0.06117235
1.010109,-0.1890522,-0.05901873
1.014142,-0.1740856,-0.05287045
1.014042,-0.1710525,-0.05515294
1.018842,-0.1861127,-0.07415842
1.026335,-0.1996767,-0.0854916
1.02377,-0.2060907,-0.08363635
1.016387,-0.208325,-0.08075887
1.010141,-0.2088825,-0.08376507
1.00284,-0.2103192,-0.08302762
1.00473,-0.2015153,-0.07148504
1.009922,-0.187161,-0.06599381
1.008639,-0.1795286,-0.06671267
1.016018,-0.1757346,-0.06526205
1.024259,-0.1752134,-0.06220042
1.022307,-0.180115,-0.06343432
1.021462,-0.1958083,-0.07388317
1.020532,-0.2085298,-0.08121587
1.017727,-0.2086044,-0.08631234
1.011775,-0.211735,-0.0854217
1.001689,-0.2115397,-0.07469557
0.9979081,-0.2085087,-0.07016443
1.003158,-0.2037706,-0.06694451
1.010972,-0.1885646,-0.07036752
1.0184,-0.1835429,-0.07824537
1.02406,-0.1876456,-0.07707963
1.022769,-0.1902812,-0.08218777
1.020707,-0.1996944,-0.08570276
1.022142,-0.2080368,-0.08260252
1.014662,-0.2076168,-0.08077369
1.004641,-0.2020974,-0.07574364
1.003259,-0.2004469,-0.07534777
1.006875,-0.2010624,-0.07283976
1.010003,-0.1970111,-0.06550152
1.008297,-0.1923995,-0.06163379
1.01007,-0.1896359,-0.05961005
1.016113,-0.1894535,-0.06600188
1.020112,-0.1863844,-0.07303589
1.022824,-0.1816806,-0.06921893
1.017519,-0.1815368,-0.0599605
1.010165,-0.1848021,-0.05395129
1.010604,-0.1944796,-0.05910488
1.011593,-0.1996808,-0.06500013
1.01096,-0.1986415,-0.05969424
1.011053,-0.2018801,-0.05580812
1.011374,-0.2033231,-0.0585365
1.012888,-0.2055095,-0.05853029
1.017165,-0.2042957,-0.06393161
1.02102,-0.1983352,-0.07303589
1.018449,-0.1983101,-0.07037577
1.012257,-0.1928614,-0.0701023
1.008433,-0.1876585,-0.07580424
1.009138,-0.1937828,-0.0726816
1.011691,-0.1976396,-0.07024005
1.011087,-0.1982858,-0.07055568
1.01054,-0.1957396,-0.0666512
1.010767,-0.191087,-0.06543331
1.009602,-0.1939128,-0.06479363
1.013219,-0.1985387,-0.06201639
1.01967,-0.2006385,-0.06374428
1.02146,-0.2015518,-0.06635775
1.017643,-0.1996094,-0.0669401
1.010658,-0.1980994,-0.0676357
1.005634,-0.196762,-0.06503917
1.004246,-0.1957211,-0.05899312
1.008984,-0.1963081,-0.05254901
1.015159,-0.1959703,-0.05116223
1.012587,-0.1984468,-0.05284199
1.011429,-0.2016562,-0.0499485
1.016083,-0.201537,-0.04955625
1.018081,-0.2014302,-0.05329278
1.020135,-0.1936929,-0.05892805
1.019667,-0.1791434,-0.07330858
1.016659,-0.1746712,-0.08715794
1.016757,-0.1790861,-0.08650756
1.016446,-0.1806477,-0.07553214
1.016626,-0.1823575,-0.06817163
1.016858,-0.1889195,-0.06830865
1.01512,-0.1963085,-0.06677136
1.014241,-0.2011071,-0.06349717
1.012615,-0.1967344,-0.06260511
1.012061,-0.1911053,-0.06059388
1.012695,-0.2011606,-0.05844351
1.01137,-0.2105481,-0.05850089
1.010922,-0.2082198,-0.05813558
1.011074,-0.2077838,-0.05817757
1.011135,-0.207724,-0.05876709
1.011233,-0.2056133,-0.05794623
1.010712,-0.2025252,-0.05841648
1.010406,-0.1986587,-0.05858842
1.009754,-0.1995333,-0.05861535
1.011297,-0.2005661,-0.06246139
1.013456,-0.1977551,-0.06572462
1.012409,-0.1965479,-0.06567857
1.01216,-0.1977573,-0.06325317
1.012648,-0.1991299,-0.05990067
1.011478,-0.2003673,-0.05728358
1.010798,-0.2003318,-0.05656437
1.011105,-0.1995487,-0.05894506
1.011069,-0.2001752,-0.05905001
1.010481,-0.1999719,-0.05651113
1.011055,-0.1986167,-0.05617753
1.012115,-0.1975378,-0.05676156
1.011182,-0.1954872,-0.05730649
1.01053,-0.193799,-0.05828042
1.010772,-0.1928757,-0.05814996
1.007597,-0.1937776,-0.05347963
1.004315,-0.196484,-0.0509849
1.007586,-0.1988193,-0.05941151
1.014901,-0.2046607,-0.07148306
1.021735,-0.2111599,-0.07541847
1.022146,-0.2120988,-0.06695763
1.012594,-0.2119488,-0.05801282
1.004887,-0.2110537,-0.05777983
1.006758,-0.2079728,-0.0604319
1.009596,-0.2077902,-0.06647381
1.011168,-0.208916,-0.07450582
1.014016,-0.2084347,-0.07840738
1.014773,-0.2100311,-0.07861181
1.016889,-0.2113934,-0.07906123
1.02035,-0.2078466,-0.07919047
1.018028,-0.2028005,-0.07567815
1.014999,-0.1999164,-0.07396987
1.012666,-0.1987958,-0.0709243
1.009695,-0.1987424,-0.06331163
1.01114,-0.2003578,-0.06227097
1.010792,-0.2022981,-0.06526748
1.008542,-0.2028801,-0.0670904
1.009208,-0.2053371,-0.06665465
1.008326,-0.2083499,-0.06381386
1.009556,-0.2089571,-0.06655261
1.014233,-0.2133294,-0.07200026
1.017073,-0.2189219,-0.08054529
1.01614,-0.2164651,-0.08787019
1.010613,-0.2126074,-0.0798881
1.005715,-0.2126697,-0.07193383
1.005407,-0.2122651,-0.07241427
1.00605,-0.2138068,-0.07251157
1.005832,-0.2165349,-0.07386722
1.008055,-0.2176431,-0.07089728
1.010593,-0.2185221,-0.06698307
1.00794,-0.2169705,-0.06879073
1.00563,-0.2160948,-0.07081328
1.006378,-0.2174352,-0.07362878
1.00548,-0.2191265,-0.07643705
1.005342,-0.2245001,-0.07896587
1.007159,-0.228256,-0.08035774
1.009266,-0.2270053,-0.07913487
1.012048,-0.2267407,-0.08246932
1.013217,-0.2277146,-0.08590216
1.012308,-0.2286534,-0.08479533
1.012311,-0.2295607,-0.08694708
1.012585,-0.2289215,-0.08867728
1.01164,-0.2263406,-0.08743716
1.011539,-0.2224704,-0.09007854
1.011713,-0.2195867,-0.09220833
1.009946,-0.2205794,-0.08803213
1.008046,-0.2222537,-0.08523554
1.00732,-0.2239624,-0.08968489
1.00713,-0.2311938,-0.09347922
1.008553,-0.2357388,-0.09153581
1.010511,-0.2327893,-0.0905436
1.009847,-0.2322222,-0.09023545
1.009206,-0.230645,-0.08634467
1.009586,-0.2224627,-0.0843904
1.006962,-0.2121716,-0.08299099
1.004556,-0.2048371,-0.07773693
1.005508,-0.206548,-0.07451561
1.005617,-0.2127789,-0.07211192
1.003522,-0.2164525,-0.06858161
1.002186,-0.221912,-0.06869842
1.003475,-0.2254484,-0.06999155
1.006609,-0.2231666,-0.07130225
1.009415,-0.2228454,-0.07283771
1.009865,-0.2218645,-0.0722017
1.010659,-0.215796,-0.07201495
1.014499,-0.2084327,-0.07311827
1.015489,-0.2026463,-0.07569732
1.010922,-0.2052528,-0.07909044
1.005852,-0.2165943,-0.07925838
1.004786,-0.2285823,-0.07949966
1.007989,-0.2349046,-0.08155193
1.009994,-0.234147,-0.08092104
1.008639,-0.2342281,-0.07903607
1.004452,-0.2338193,-0.07756188
0.9998077,-0.2274884,-0.07705792
1.002394,-0.2229651,-0.07836575
1.007964,-0.2213162,-0.07782441
1.008736,-0.2207447,-0.07814147
1.008128,-0.2244051,-0.08318028
1.006416,-0.2321119,-0.08759293
1.005367,-0.2388151,-0.08845873
1.008389,-0.2361873,-0.08599888
1.010664,-0.2301477,-0.080907
1.010243,-0.2252366,-0.07356895
1.010461,-0.2177284,-0.06881108
1.010777,-0.2169676,-0.07187642
1.008622,-0.2172649,-0.07596375
1.007983,-0.213137,-0.08367128
1.009302,-0.2158757,-0.09311686
1.008444,-0.2163501,-0.09071139
1.011862,-0.2146973,-0.08920831
1.01666,-0.2180629,-0.09165239
1.014833,-0.2164811,-0.08616712
1.011872,-0.2154309,-0.08006555
1.006094,-0.214261,-0.07282168
1.001437,-0.2073422,-0.06606135
1.008166,-0.205815,-0.06643492
1.014806,-0.2084125,-0.07142324
1.011715,-0.2125101,-0.08090804
1.006931,-0.2181691,-0.08305507
1.00541,-0.2191873,-0.07887529
1.006676,-0.2192691,-0.0802792
1.008923,-0.220652,-0.07556234
1.005992,-0.2197112,-0.06635277
1.003005,-0.2172914,-0.06215662
1.00826,-0.2155496,-0.06530643
1.011468,-0.2141397,-0.07480597
1.010068,-0.2126558,-0.07434811
1.010286,-0.2129833,-0.07357801
1.009179,-0.214151,-0.07991724
1.006783,-0.215479,-0.07728329
1.005627,-0.2170423,-0.07706614
1.00878,-0.215158,-0.0790748
1.012808,-0.2130437,-0.0756584
1.011202,-0.2158779,-0.07345943
1.009531,-0.2167775,-0.066813
1.008201,-0.211845,-0.06472532
1.004358,-0.2091606,-0.06927919
1.005356,-0.2142228,-0.07144056
1.009462,-0.2206971,-0.07645057
1.009905,-0.2195545,-0.07620352
1.009852,-0.2157067,-0.0726277
1.009769,-0.2151398,-0.07333763
1.009379,-0.2145093,-0.07011855
1.010314,-0.2137664,-0.06901935
1.01041,-0.2121475,-0.06871463
1.011088,-0.2117693,-0.06342589
1.010682,-0.2132334,-0.0663001
1.009021,-0.2111979,-0.07576097
1.01086,-0.2106022,-0.08352913
1.011629,-0.2135868,-0.08748118
1.010965,-0.220531,-0.08406571
1.012172,-0.2296046,-0.08226468
1.012147,-0.2275935,-0.08250329
1.009427,-0.2236779,-0.07968934
1.004662,-0.2269697,-0.07720182
1.003736,-0.2248768,-0.07066796
1.008236,-0.2235843,-0.06793171
1.009803,-0.2254841,-0.06909212
1.004539,-0.2224822,-0.06113462
0.9992977,-0.2215271,-0.0534438
1.002684,-0.2180704,-0.05076715
1.008393,-0.2105946,-0.05498761
1.010441,-0.2091851,-0.06147828
1.012918,-0.2076528,-0.05949053
1.012635,-0.2064447,-0.06618177
1.010816,-0.2079503,-0.07625588
1.010683,-0.2038443,-0.07138085
1.009794,-0.2003606,-0.06910884
1.01085,-0.2014282,-0.07493944
1.011803,-0.2014975,-0.07952664
1.012352,-0.2042085,-0.08310453
1.01446,-0.2099177,-0.08085126
1.014526,-0.2128801,-0.07088476
1.014954,-0.2146567,-0.06445125
1.012958,-0.217812,-0.06812325
1.008446,-0.218684,-0.07337251
1.008554,-0.2181122,-0.07338944
1.007682,-0.2195315,-0.07207103
1.006065,-0.2198151,-0.06899652
1.007182,-0.2182014,-0.06325396
1.006048,-0.2177215,-0.06442107
1.006332,-0.2185634,-0.06911363
1.011931,-0.2198713,-0.0738538
1.017224,-0.2210727,-0.08343777
1.015123,-0.2201157,-0.08078417
1.00929,-0.2172422,-0.0710479
1.00778,-0.2151965,-0.07265139
1.008037,-0.2129837,-0.07216651
1.00889,-0.2115277,-0.0715255
1.010416,-0.2117205,-0.07324891
1.010916,-0.2123269,-0.06936562
1.010842,-0.2144706,-0.06650867
1.009203,-0.2135147,-0.0638445
1.010529,-0.2116048,-0.06807008
1.012899,-0.2148391,-0.07533573
1.011258,-0.2161725,-0.06926304
1.011013,-0.2158292,-0.06383099
1.011126,-0.217088,-0.0632132
1.010932,-0.2162971,-0.06170783
1.011835,-0.2145863,-0.06505734
1.012519,-0.2127316,-0.06758622
1.014624,-0.2135358,-0.07011886
1.014013,-0.2181382,-0.07489419
1.011378,-0.2203635,-0.07691807
1.008341,-0.218667,-0.07661107
1.00389,-0.2172222,-0.07358144
1.005074,-0.2175463,-0.07126431
1.006828,-0.2148128,-0.06709497
1.00503,-0.2109328,-0.06218851
1.007986,-0.2123744,-0.06488943
1.012365,-0.2133233,-0.06464017
1.014736,-0.212403,-0.06902094
1.015394,-0.215494,-0.08122222
1.011446,-0.2189697,-0.0756916
1.008041,-0.2201041,-0.07073411
1.008263,-0.2205415,-0.07507635
1.008721,-0.2182635,-0.06709867
1.009727,-0.2146449,-0.06327225
1.010295,-0.2147459,-0.0657783
1.009543,-0.2159519,-0.06416663
1.010695,-0.2149685,-0.06379478
1.012631,-0.2148143,-0.06154694
1.012579,-0.213462,-0.0581891
1.012464,-0.2089646,-0.05455582
1.012558,-0.2046379,-0.05638349
1.012025,-0.2023864,-0.060807
1.010845,-0.2063768,-0.05882805
1.008928,-0.2130646,-0.06283507
1.008761,-0.2136045,-0.06851482
1.009489,-0.2139744,-0.06798342
1.009536,-0.2181015,-0.06807778
1.009884,-0.2195015,-0.06594091
1.008724,-0.2188538,-0.06487322
1.008396,-0.2198126,-0.06707213
1.011242,-0.2221022,-0.07038865
1.013268,-0.2227704,-0.07274039
1.012422,-0.2207436,-0.06722367
1.010178,-0.2192368,-0.06057775
1.009197,-0.2172594,-0.05980831
1.008838,-0.2130418,-0.05891401
1.008246,-0.2080128,-0.05653783
1.009582,-0.204584,-0.05843168
1.011854,-0.2085748,-0.0635133
1.012913,-0.2165454,-0.06572704
1.011315,-0.2194825,-0.06826573
1.008484,-0.2197553,-0.07048059
1.006223,-0.2191862,-0.067205
1.002113,-0.2172673,-0.05985866
1.001026,-0.2175347,-0.05477466
1.011278,-0.2217338,-0.06449177
1.022363,-0.2268613,-0.07603626
1.018413,-0.224332,-0.07059338
1.010641,-0.2153505,-0.06742817
1.008758,-0.2082056,-0.06766721
1.004311,-0.2048364,-0.05989706
1.006685,-0.207252,-0.06025122
1.013783,-0.208428,-0.0623167
1.012034,-0.2077344,-0.05830306
1.01247,-0.2132724,-0.06317161
1.013155,-0.2166953,-0.06894268
1.011463,-0.2196759,-0.07055518
1.013065,-0.2253472,-0.07252507
1.010324,-0.2243531,-0.06604627
1.00856,-0.220413,-0.05797972
1.008437,-0.2168935,-0.05743088
1.006007,-0.2171193,-0.05862593
1.007258,-0.2193912,-0.05864825
1.008594,-0.2157934,-0.05738413
1.011006,-0.2135287,-0.05579025
1.013685,-0.2124264,-0.05373868
1.012553,-0.2114553,-0.0550494
1.01307,-0.2139341,-0.06039145
1.014221,-0.2144589,-0.06380364
1.01309,-0.2180794,-0.07094721
1.011568,-0.2220195,-0.07873112
1.010214,-0.2221732,-0.0736646
1.006832,-0.2256555,-0.06411115
1.004131,-0.2241685,-0.06276068
1.006411,-0.2200925,-0.06418924
1.008673,-0.2217399,-0.06128626
1.009942,-0.2199284,-0.05419528
1.010786,-0.2168892,-0.04767161
1.011161,-0.2152037,-0.04997919
1.01464,-0.2102439,-0.05367396
1.014421,-0.2083059,-0.05084358
1.01032,-0.2093874,-0.05405771
1.010993,-0.2088338,-0.06000247
1.012503,-0.211863,-0.06188775
1.012088,-0.2175744,-0.06595027
1.010745,-0.2192369,-0.06604168
1.008117,-0.2192843,-0.06428396
1.007679,-0.2202293,-0.06534566
1.008227,-0.2209903,-0.0617834
1.007944,-0.2226679,-0.05630172
1.00848,-0.2214932,-0.05360026
1.007882,-0.2145522,-0.05345012
1.00773,-0.2071577,-0.05239831
1.009617,-0.2043775,-0.04838335
1.011178,-0.2058788,-0.0490252
1.014363,-0.2073955,-0.05380179
1.014944,-0.2120348,-0.05581921
1.010969,-0.2201943,-0.0591371
1.010595,-0.2230386,-0.06664513
1.008302,-0.2283191,-0.07165289
1.003477,-0.2338197,-0.07139884
1.006353,-0.22328,-0.07130007
1.011173,-0.2143648,-0.07369132
1.016591,-0.2177237,-0.07777984
1.020523,-0.2170539,-0.07989664
1.01221,-0.2147946,-0.0715187
1.004916,-0.2155842,-0.06111481
1.008662,-0.2153101,-0.06522968
1.009732,-0.2161167,-0.07244565
1.008124,-0.2176453,-0.07452366
1.010291,-0.2192935,-0.07964475
1.010206,-0.221513,-0.07798723
1.008752,-0.2212834,-0.07209559
1.009498,-0.2205299,-0.07270145
1.009143,-0.2228821,-0.07153984
1.010408,-0.2243548,-0.0719972
1.012154,-0.2216392,-0.0718795
1.010791,-0.2136828,-0.06721231
1.011886,-0.202666,-0.06643021
1.013231,-0.2007946,-0.06467768
1.011776,-0.2075856,-0.06437471
1.010777,-0.211136,-0.06461685
1.009096,-0.2156431,-0.06169044
1.008456,-0.2219708,-0.06713793
1.008639,-0.2226079,-0.0742919
1.008071,-0.2199897,-0.07537409
1.009601,-0.2160467,-0.0719667
1.011018,-0.2112798,-0.06554155
1.011363,-0.2080604,-0.06481
1.012185,-0.2087017,-0.06732026
1.012541,-0.2125915,-0.06857036
1.0127,-0.2130459,-0.0687751
1.01238,-0.2125415,-0.06967175
1.012767,-0.2166082,-0.07398792
1.014511,-0.2226519,-0.07319114
1.015261,-0.2264158,-0.06844539
1.012889,-0.2219944,-0.06663313
1.007146,-0.2159207,-0.06115902
1.004017,-0.2156471,-0.0549138
1.006222,-0.215061,-0.05876126
1.008746,-0.2147144,-0.06653502
1.010139,-0.21341,-0.0671455
1.010452,-0.2088522,-0.0651732
1.011416,-0.2075022,-0.06328078
1.014954,-0.2084883,-0.06056238
1.016219,-0.2085151,-0.06082249
1.014271,-0.2087585,-0.05982617
1.012015,-0.2112767,-0.06067962
1.00791,-0.2153109,-0.06900577
1.004987,-0.2161594,-0.07414349
1.004697,-0.2172078,-0.06992827
1.002319,-0.2241024,-0.06579871
1.002768,-0.2300204,-0.06696567
1.00826,-0.2267249,-0.06088977
1.010711,-0.2207961,-0.05204729
1.010129,-0.2196717,-0.05698011
1.010196,-0.2191034,-0.06262905
1.011196,-0.2194281,-0.06061567
1.010716,-0.2209251,-0.05506789
1.008644,-0.2203872,-0.04834229
1.008799,-0.2202169,-0.05413337
1.0076,-0.2193891,-0.06239424
1.005962,-0.2198518,-0.05758129
1.007652,-0.2216296,-0.0570549
1.007847,-0.2196064,-0.06122067
1.008791,-0.2193092,-0.06007048
1.011558,-0.2216001,-0.06372829
1.012783,-0.2223418,-0.07061143
1.013046,-0.2217043,-0.07415687
1.011282,-0.2199026,-0.07142282
1.008732,-0.2196251,-0.06525002
1.005421,-0.2178374,-0.06829411
1.004297,-0.2154703,-0.07044003
1.007151,-0.2177141,-0.06667184
1.00841,-0.2206994,-0.06699464
1.011933,-0.2237467,-0.06499346
1.015089,-0.2243041,-0.0662166
1.012432,-0.2206023,-0.07055995
1.010454,-0.2186633,-0.06988853
1.007478,-0.217878,-0.07198003
1.006692,-0.2185785,-0.06877787
1.009882,-0.2203278,-0.06304992
1.009841,-0.2188281,-0.06916673
1.0113,-0.2174036,-0.07570701
1.011396,-0.2165678,-0.07635417
1.007821,-0.2157318,-0.07317474
1.008613,-0.2154412,-0.06909755
1.011251,-0.2135701,-0.070175
1.013392,-0.2153497,-0.06913254
1.013808,-0.2189804,-0.06505946
1.013371,-0.2174465,-0.06633728
1.014333,-0.2150855,-0.06602061
1.012224,-0.2138046,-0.06062963
1.009315,-0.215052,-0.05909759
1.007894,-0.2176303,-0.0615898
1.008306,-0.2146179,-0.06362456
1.01211,-0.2117834,-0.06463374
1.014816,-0.2127389,-0.06611527
1.014992,-0.2124394,-0.0679437
1.010593,-0.2129822,-0.06814084
1.00458,-0.2153211,-0.06963921
1.00555,-0.2173047,-0.07189536
1.008911,-0.2171419,-0.07657424
1.010013,-0.2159653,-0.08383892
1.008842,-0.2171351,-0.07875739
1.005552,-0.2184884,-0.07110573
1.004236,-0.2214342,-0.07563095
1.004407,-0.2246776,-0.0743542
1.005979,-0.2208265,-0.07000205
1.008665,-0.2165167,-0.07310074
1.008259,-0.2164158,-0.07247476
1.006259,-0.2155452,-0.07165851
1.00586,-0.2176233,-0.07398519
1.008897,-0.2217273,-0.07477045
1.012056,-0.2212115,-0.07716896
1.008502,-0.220526,-0.07864057
1.004303,-0.2230191,-0.07917867
1.00597,-0.2245042,-0.082987
1.007988,-0.225366,-0.08505424
1.009292,-0.225559,-0.08014559
1.010627,-0.2203799,-0.07297703
1.010157,-0.2147845,-0.0696982
1.009758,-0.2178055,-0.06658918
1.007281,-0.2219169,-0.06456452
1.004626,-0.2203822,-0.06795599
1.008512,-0.2212523,-0.07219267
1.012112,-0.2216558,-0.07623584
1.010649,-0.2184871,-0.07617496
1.009125,-0.2188164,-0.0725994
1.008517,-0.218244,-0.07218543
1.010701,-0.2185058,-0.06932943
1.012691,-0.2224424,-0.0707703
1.007254,-0.2211167,-0.0770066
1.002007,-0.2155071,-0.07401489
1.005304,-0.2090575,-0.07332665
1.008969,-0.2092383,-0.0763969
1.00917,-0.2189182,-0.07314956
1.011002,-0.22706,-0.0687426
1.011654,-0.2300143,-0.0638795
1.011003,-0.2220174,-0.06568914
1.014025,-0.2092747,-0.07345033
1.018912,-0.2066612,-0.0777924
1.020436,-0.2069599,-0.08166505
1.012099,-0.2087725,-0.07853131
1.002277,-0.2144659,-0.07293152
1.005428,-0.2178209,-0.07717931
1.010242,-0.2167601,-0.0835021
1.009009,-0.2119412,-0.08818489
1.009259,-0.2107147,-0.08405213
1.008536,-0.2132446,-0.07230394
1.009423,-0.2149857,-0.06868914
1.012162,-0.2150484,-0.0651334
1.009091,-0.2120711,-0.06104303
1.007417,-0.2121828,-0.0619495
1.010455,-0.2130761,-0.06032845
1.013492,-0.2120879,-0.06874536
1.016026,-0.2136306,-0.08145557
1.013655,-0.2127932,-0.07943751
1.010211,-0.2103588,-0.07534475
1.011196,-0.2092519,-0.07547259
1.011718,-0.2086846,-0.0790571
1.012606,-0.2067929,-0.08666901
1.015512,-0.2026479,-0.08898807
1.018881,-0.2040771,-0.08698719
1.023512,-0.2071707,-0.08623554
1.023384,-0.2087131,-0.08478004
1.01368,-0.2180987,-0.07846733
1.003192,-0.2268084,-0.07098267
1.001163,-0.2236617,-0.07140059
1.005372,-0.2171611,-0.07522984
1.007561,-0.2163188,-0.07415708
1.007321,-0.2176243,-0.06942137
1.010971,-0.2177942,-0.06612675
1.01554,-0.2158727,-0.07052293
1.015574,-0.2090277,-0.077672
1.013,-0.2032671,-0.07799233
1.010909,-0.2019784,-0.07860914
1.01111,-0.202554,-0.08065614
1.01215,-0.2035095,-0.0781798
1.01269,-0.2028055,-0.07889231
1.011965,-0.2061176,-0.07916834
1.008643,-0.2120293,-0.07700271
1.006899,-0.2148758,-0.08114956
1.011032,-0.2179801,-0.08388096
1.015716,-0.2196913,-0.08329611
1.012981,-0.2172425,-0.08313247
1.00909,-0.2111951,-0.08084161
1.010073,-0.2085521,-0.07855384
1.009954,-0.2128638,-0.07691893
1.011239,-0.2149583,-0.07778577
1.01252,-0.2138388,-0.07837746
1.006836,-0.213518,-0.07709261
1.003062,-0.2147695,-0.07816577
1.007427,-0.2176759,-0.07941191
1.012126,-0.2199452,-0.08547445
1.011515,-0.2175193,-0.09318008
1.012057,-0.2074297,-0.09089311
1.014526,-0.1988347,-0.08835295
1.01267,-0.1988575,-0.08844798
1.012865,-0.2017521,-0.0789075
1.013796,-0.2047671,-0.06991943
1.010485,-0.2088796,-0.07424934
1.006375,-0.2114917,-0.07632865
1.001983,-0.21191,-0.0692059
1.006144,-0.2190681,-0.06595638
1.012364,-0.2318213,-0.06476024
1.006404,-0.2384183,-0.06355518
1.002649,-0.2371622,-0.07181558
1.004934,-0.2283966,-0.08220146
1.003998,-0.2143776,-0.08229387
1.004688,-0.2002152,-0.081189
1.008769,-0.1935718,-0.08168733
1.015371,-0.1935509,-0.07627096
1.023357,-0.1918935,-0.07804143
1.027406,-0.201411,-0.08590382
1.026358,-0.2152357,-0.08708318
1.020908,-0.2088024,-0.08849266
1.010098,-0.1985446,-0.0808967
0.997859,-0.1987829,-0.06589783
0.9933024,-0.2062214,-0.06334816
0.9942587,-0.2209487,-0.06591176
0.9970563,-0.2252275,-0.0698866
1.010022,-0.2198032,-0.08004845
1.020788,-0.2205266,-0.09009287
1.01663,-0.2141575,-0.09146914
1.014361,-0.2060915,-0.08893634
1.01418,-0.2102257,-0.09000921
1.008795,-0.2106296,-0.08495212
1.011011,-0.2052031,-0.08423337
1.022546,-0.1957322,-0.08973538
1.029402,-0.1831785,-0.08463952
1.018027,-0.1854692,-0.08217374
0.9935881,-0.1980349,-0.0779461
0.9848374,-0.2086021,-0.07292524
1.003268,-0.2183841,-0.08262217
1.021064,-0.2177327,-0.08694598
1.017808,-0.2107988,-0.08307679
1.013159,-0.2114795,-0.07807475
1.014981,-0.2141023,-0.07007107
1.009516,-0.2202631,-0.06338581
1.007209,-0.2262319,-0.05677117
1.007071,-0.2193879,-0.06111134
0.9997792,-0.2086175,-0.07085638
0.999624,-0.1990167,-0.07036364
1.001228,-0.1973781,-0.07268918
1.005753,-0.2100025,-0.08178317
1.020278,-0.2217799,-0.08792685
1.021768,-0.2268627,-0.08850112
1.016071,-0.2244916,-0.08679255
1.016876,-0.2170015,-0.087894
1.014714,-0.2097608,-0.0896659
1.014572,-0.1992852,-0.08844782
1.014701,-0.1918656,-0.08086372
1.010343,-0.1884395,-0.07164646
1.008593,-0.1892887,-0.07505119
1.008001,-0.1997863,-0.08386674
1.006624,-0.2077667,-0.08513168
1.006441,-0.2081926,-0.08521546
1.006363,-0.2063155,-0.08406108
1.00529,-0.2063895,-0.08139945
1.005555,-0.2092758,-0.08068552
1.008175,-0.2124413,-0.08070267
1.010451,-0.2185615,-0.08646289
1.011031,-0.2181108,-0.09015311
1.007658,-0.2142653,-0.08322012
1.003944,-0.2180987,-0.07300143
1.00663,-0.2169411,-0.06666
1.011659,-0.216583,-0.07010301
1.014169,-0.2205958,-0.07279514
1.011163,-0.2180278,-0.06973615
1.006153,-0.215023,-0.07261539
1.00876,-0.2115338,-0.07662151
1.012328,-0.2107683,-0.0784221
1.011592,-0.2115078,-0.07923222
1.010535,-0.206973,-0.07782615
1.007805,-0.2099643,-0.07883209
1.01026,-0.2149551,-0.07943914
1.013998,-0.2130134,-0.07896422
1.008322,-0.2123632,-0.07906919
1.00616,-0.2113776,-0.07694416
1.011943,-0.2145903,-0.0748918
1.015529,-0.221377,-0.07370593
1.015353,-0.2205898,-0.07322467
1.015395,-0.2148222,-0.0728929
1.017277,-0.2069784,-0.07178626
1.013916,-0.2011975,-0.07169366
1.007163,-0.2008896,-0.06974679
1.004576,-0.1999134,-0.06665735
1.005249,-0.1994201,-0.06609993
1.008264,-0.201103,-0.06493863
1.008694,-0.2026724,-0.06223967
1.007931,-0.2058779,-0.05874288
1.009004,-0.20737,-0.05622519
1.008797,-0.2062632,-0.06020354
1.010144,-0.2061561,-0.06730282
1.010046,-0.2027194,-0.0691647
1.009038,-0.1942874,-0.06790875
1.011045,-0.1871583,-0.06887764
1.013022,-0.187628,-0.07352588
1.015905,-0.1926251,-0.07726026
1.014288,-0.1957701,-0.07236679
1.011575,-0.2018861,-0.06762718
1.017494,-0.2084425,-0.07319667
1.020735,-0.2152868,-0.07716528
1.014569,-0.2261477,-0.07531443
1.003622,-0.2243473,-0.07912737
0.994338,-0.2213251,-0.08510807
0.995405,-0.2312163,-0.08552783
1.002936,-0.23461,-0.08938166
1.010891,-0.2391726,-0.0989307
1.018971,-0.240008,-0.1038454
1.019052,-0.2246966,-0.1020102
1.007897,-0.2171133,-0.08932573
0.9993746,-0.2145194,-0.0670461
1.002401,-0.2114823,-0.05914166
1.006567,-0.2156635,-0.06901073
1.004547,-0.2207482,-0.0721954
1.002674,-0.2277056,-0.06982313
1.001834,-0.2318059,-0.07289613
1.003533,-0.2374357,-0.07335277
1.01,-0.2453297,-0.07385767
1.011148,-0.2366995,-0.08056425
1.010479,-0.2225575,-0.08448959
1.01441,-0.2166688,-0.08661784
1.017145,-0.2116627,-0.09399166
1.023906,-0.2061553,-0.1019044
1.026078,-0.201868,-0.1052081
1.00932,-0.1965216,-0.1013783
0.9912146,-0.1908001,-0.09091513
0.9923111,-0.1931349,-0.08189531
1.007219,-0.2003429,-0.07954943
1.018026,-0.2092084,-0.08004974
1.019818,-0.2227693,-0.07643577
1.017662,-0.2277442,-0.06794669
1.016105,-0.2270318,-0.05965136
1.013232,-0.2300866,-0.04834478
1.004618,-0.2271967,-0.03091329
1.001918,-0.2194856,-0.02108604
1.004034,-0.2088988,-0.0288313
1.002095,-0.2056205,-0.03992844
1.00518,-0.2214148,-0.04668326
1.008413,-0.2326771,-0.06300719
1.008184,-0.2284385,-0.07902216
1.00929,-0.220448,-0.08017559
1.010076,-0.2079942,-0.08830606
1.014668,-0.1950213,-0.1017545
1.017538,-0.1879727,-0.09368203
1.015705,-0.1827759,-0.07381122
1.014234,-0.1782969,-0.06251152
1.011584,-0.18139,-0.05924312
1.011743,-0.1881789,-0.05285482
1.011574,-0.1953566,-0.04099845
1.009455,-0.20571,-0.04261912
1.014114,-0.2115218,-0.05424311
1.018668,-0.2192062,-0.0545524
1.015226,-0.2253189,-0.05581834
1.007951,-0.2252869,-0.05937262
1.000442,-0.2362278,-0.05859667
0.9980064,-0.235622,-0.06106131
1.002282,-0.222334,-0.05139282
1.007613,-0.218843,-0.04118259
1.012126,-0.2082461,-0.04809579
1.01126,-0.2033606,-0.05537258
1.004648,-0.2012312,-0.06600929
1.003231,-0.1877993,-0.07510393
1.002727,-0.1919066,-0.07235632
0.99988,-0.208339,-0.06562751
1.002981,-0.2268713,-0.05771258
1.012188,-0.2325934,-0.0570897
1.024033,-0.2146679,-0.06231051
1.022662,-0.2089715,-0.06743661
1.013484,-0.2073253,-0.07995111
1.016233,-0.1984639,-0.09704375
1.016576,-0.1891636,-0.1071414
1.017261,-0.1661782,-0.1112768
1.025304,-0.1597878,-0.1196186
1.031424,-0.1765274,-0.1230466
1.036605,-0.192905,-0.1090717
1.022667,-0.2107019,-0.08363307
0.9993489,-0.2179539,-0.04699611
0.9946217,-0.2214135,-0.01668215
0.9949554,-0.2323069,-0.01676835
0.9978275,-0.2378826,-0.02578125
1.003724,-0.2366831,-0.03152865
1.002736,-0.2349746,-0.0396529
1.000629,-0.2365987,-0.03335343
1.00206,-0.2368387,-0.02614506
1.012332,-0.2367233,-0.03788669
1.023134,-0.2380182,-0.04910372
1.017238,-0.2320927,-0.05117746
1.0079,-0.2212554,-0.04903558
1.008907,-0.2058739,-0.04597726
1.010137,-0.1952523,-0.04786195
1.014394,-0.2031217,-0.05197805
1.021036,-0.2094544,-0.0563702
1.009234,-0.2069079,-0.05942571
0.9890086,-0.2119562,-0.0556155
0.9838084,-0.2201508,-0.04745656
0.9942783,-0.2272145,-0.03877575
1.012953,-0.2351863,-0.03434379
1.021108,-0.242474,-0.03961483
1.010935,-0.2493583,-0.04387007
0.9993175,-0.2478084,-0.040171
1.000098,-0.2424956,-0.03969998
1.009487,-0.239244,-0.04430817
1.015338,-0.2257996,-0.05042116
1.014235,-0.2113322,-0.05627252
1.009142,-0.2060488,-0.05404385
1.008346,-0.2055933,-0.05232052
1.014224,-0.2088918,-0.06180242
1.01747,-0.2103967,-0.066959
1.013183,-0.2170163,-0.05885437
1.00247,-0.225509,-0.04895958
0.9990806,-0.2243791,-0.04883862
1.009374,-0.2233085,-0.06209215
1.01982,-0.2172555,-0.08128762
1.020646,-0.2074453,-0.09062559
1.011771,-0.2088316,-0.0824346
1.002194,-0.2104346,-0.07418574
0.9977868,-0.205489,-0.07723411
1.004869,-0.2023699,-0.08353958
1.016034,-0.1999529,-0.0862206
1.012613,-0.1886034,-0.06487988
1.012621,-0.1689209,-0.03857182
1.026895,-0.1570974,-0.05402732
1.043136,-0.155463,-0.07795028
1.050698,-0.1481105,-0.08442072
1.030203,-0.1387195,-0.09487396
1.004184,-0.1439621,-0.09543859
1.003879,-0.1575445,-0.09768846
1.012289,-0.1724956,-0.1090065
1.015481,-0.1861698,-0.09793374
1.011864,-0.1918633,-0.08097621
1.00488,-0.1991852,-0.06908295
1.002953,-0.2031422,-0.06157949
1.009645,-0.2009331,-0.07052352
1.022577,-0.2042449,-0.07202077
1.025843,-0.2005767,-0.06946788
1.017865,-0.1966129,-0.07047326
1.009679,-0.1974934,-0.06271706
1.003021,-0.1924212,-0.06826736
1.005158,-0.1942647,-0.0772376
1.010296,-0.1944751,-0.07510458
1.009644,-0.1878332,-0.07430703
1.011938,-0.1825212,-0.06815056
1.014233,-0.1740629,-0.06647444
1.013675,-0.1751233,-0.07113486
1.01408,-0.1783225,-0.07516677
1.012691,-0.1730853,-0.08332432
1.011354,-0.1750996,-0.08102573
1.008211,-0.1829796,-0.07417956
1.005045,-0.1899094,-0.07407696
1.010628,-0.1901155,-0.07394205
1.015866,-0.1890772,-0.08089215
1.010437,-0.1996303,-0.08692122
1.003165,-0.208842,-0.08348305
1.004161,-0.2136104,-0.08367545
1.013561,-0.2187697,-0.08642372
1.021567,-0.2152152,-0.08627191
1.014052,-0.2073681,-0.08586247
1.00236,-0.2011628,-0.08443172
1.005959,-0.1982001,-0.08097777
1.010433,-0.1976356,-0.07900829
1.011474,-0.1947299,-0.08424155
1.015642,-0.1964131,-0.09016708
1.011827,-0.1990865,-0.08847088
1.00949,-0.1979746,-0.08844926
1.012501,-0.2000519,-0.09286156
1.011434,-0.1970848,-0.0943451
0.9820198,-0.02435197,0.3055178
0.9853005,-0.02369171,0.2989868
0.9873649,-0.02693469,0.2869293
0.9843548,-0.02580999,0.2883814
0.9860837,-0.01989059,0.2954979
0.9919979,-0.01146114,0.2945395
0.9976104,-0.00573824,0.2898013
0.9945202,-0.01163983,0.2762386
0.9837748,-0.02079849,0.2711066
0.978623,-0.02681972,0.2837282
0.9789112,-0.03437257,0.2979504
0.9847802,-0.04591043,0.3048177
0.9944124,-0.06534692,0.292836
0.9985698,-0.0774733,0.2794406
0.9941341,-0.06954718,0.2851679
0.9844845,-0.05865151,0.2947071
0.9823381,-0.05290735,0.3003832
0.9874919,-0.05632787,0.3001243
0.9895064,-0.06856996,0.2966628
0.9867774,-0.06995657,0.2993841
0.9797631,-0.05894012,0.3024342
0.975987,-0.04284824,0.3097195
0.9746096,-0.02763624,0.320727
0.9704636,-0.02378991,0.316803
0.9671157,-0.02359699,0.3130539
0.9661325,-0.02983057,0.3226535
0.9712827,-0.04710665,0.3252139
0.9764421,-0.05389114,0.3229975
0.9757989,-0.05080478,0.3240142
0.9722522,-0.05029498,0.3242146
0.9675235,-0.04480372,0.325593
0.9691509,-0.03112016,0.3246277
0.9707578,-0.01953255,0.32316
0.9692029,-0.01808296,0.3236595
0.9750505,-0.01653019,0.3232785
0.9815586,-0.01310955,0.3232107
0.9830053,-0.01626595,0.3213548
0.9820653,-0.01633775,0.3176587
0.9821883,-0.01665527,0.312991
0.9842694,-0.02141611,0.3117002
0.9831955,-0.0191471,0.3137222
0.9818342,-0.01759976,0.3112584
0.978552,-0.01886316,0.3095904
0.9729504,-0.01783105,0.3084162
0.9742978,-0.02174877,0.3068459
0.9755007,-0.02683576,0.3086369
0.9724408,-0.02723562,0.3065835
0.9737112,-0.02096458,0.3070737
0.9754228,-0.01347448,0.3098772
0.9754686,-0.0158127,0.3083554
0.9770384,-0.01815505,0.3125134
0.9759264,-0.01538815,0.3158802
0.9731985,-0.01542146,0.3148283
0.9735288,-0.01508484,0.3186072
0.9804085,-0.0150883,0.3188095
0.9912907,-0.01543966,0.3082615
0.9917909,-0.01298079,0.2999338
0.9853315,-0.01216548,0.3066264
0.9841685,-0.01262465,0.3106092
0.9836215,-0.01448329,0.2954128
0.9864049,-0.02115202,0.2853896
0.9908714,-0.03151153,0.2967332
0.9883032,-0.03973641,0.3061686
0.9833569,-0.03631802,0.3034492
0.9711467,-0.02038384,0.3132264
0.9572517,-0.003479771,0.3297672
0.962885,-0.0001244211,0.3224341
0.9749927,-0.003205015,0.3075217
0.977559,0.002640668,0.3038416
0.979856,0.003112189,0.301049
0.9813534,-0.006403965,0.2979133
0.9821708,-0.0176857,0.2921321
0.9852959,-0.0289092,0.2850879
0.9849249,-0.02826465,0.2812152
0.9853706,-0.02971913,0.2806017
0.9866202,-0.03665543,0.287492
0.9846512,-0.03175915,0.2936787
0.983923,-0.032333,0.2995323
0.9839979,-0.0335398,0.3085751
0.9858421,-0.02764536,0.3145999
0.9861829,-0.02834998,0.3203524
0.9812224,-0.02122829,0.3159696
0.9761401,-0.01358309,0.3105174
0.9744353,-0.01937265,0.3159223
0.9799698,-0.02350503,0.3125765
0.9858433,-0.02385015,0.3071216
0.9849491,-0.02268814,0.3034969
0.9839903,-0.02170656,0.299387
0.9830907,-0.02245316,0.3027856
0.9815872,-0.02229711,0.301576
0.9826054,-0.02339188,0.3024036
0.982891,-0.02487874,0.3073864
0.978003,-0.02625468,0.3077277
0.9731291,-0.025641,0.3143946
0.9759894,-0.02007305,0.318633
0.9795922,-0.01284325,0.315391
0.9790209,-0.009762823,0.3142938
0.9790746,-0.01220659,0.3135587
0.9783654,-0.01579119,0.3121927
0.9763762,-0.02438813,0.3109563
0.9734386,-0.03320544,0.3113548
0.9699285,-0.0307182,0.3112776
0.97193,-0.02850137,0.3123237
0.9756665,-0.0281993,0.316946
0.9748782,-0.02233583,0.3184395
0.9755803,-0.01901448,0.3162083
0.9764929,-0.01642878,0.3128875
0.9745811,-0.0150562,0.3141658
0.9743371,-0.01769901,0.3201336
0.9737297,-0.01509642,0.3206702
0.9752314,-0.01423605,0.3151508
0.9794963,-0.01867772,0.3087322
0.9790803,-0.01891957,0.3087645
0.9767952,-0.01940622,0.3120031
0.9742843,-0.01853627,0.3106771
0.9727491,-0.01431751,0.310753
0.9755071,-0.01371159,0.3097289
0.9783887,-0.01456902,0.3073755
0.9815262,-0.01591816,0.309509
0.9822695,-0.01700213,0.3098478
0.9778009,-0.01893068,0.307718
0.9753229,-0.02232902,0.306449
0.9765906,-0.02025765,0.3066773
0.979581,-0.0173597,0.3067614
0.9839877,-0.01669597,0.3030378
0.9870894,-0.01588574,0.3008152
0.9845147,-0.01782372,0.3042726
0.979853,-0.01935333,0.3086555
0.9807823,-0.02094495,0.3084885
0.9827419,-0.0209222,0.3041311
0.983377,-0.01811177,0.2991308
0.9839807,-0.01969443,0.2967196
0.9828908,-0.02077176,0.3025391
0.983812,-0.02214129,0.3093229
0.9825245,-0.02636096,0.3079134
0.978347,-0.02349289,0.3076281
0.9786672,-0.01985192,0.3092568
0.9787422,-0.01915195,0.3076787
0.9772568,-0.01482198,0.3071829
0.9777199,-0.01413286,0.306347
0.9779999,-0.01636678,0.3058567
0.9776895,-0.01565,0.3084059
0.9784008,-0.01853582,0.3079651
0.9815087,-0.0230081,0.3034343
0.9834407,-0.02354575,0.3003833
0.9792564,-0.02362871,0.3026641
0.9743374,-0.01879265,0.3084322
0.976091,-0.01093077,0.3108164
0.9780708,-0.01294414,0.3097515
0.9773593,-0.01512089,0.3097481
0.9810811,-0.01099401,0.3115828
0.9841266,-0.01367859,0.3132454
0.989381,-0.01743889,0.3137308
1.007896,-0.01790825,0.318396
1.027055,-0.02059908,0.3235974
1.020603,-0.01930075,0.3179705
0.9701888,-0.01775623,0.30976
0.916505,-0.01866862,0.3069199
0.9272417,-0.01582885,0.3006691
0.9686171,-0.01022735,0.2970038
0.9796285,-0.004096148,0.3047259
0.9796358,-0.008493026,0.3095237
0.9798266,-0.01908167,0.306587
0.9742951,-0.01864485,0.3052708
0.9694018,-0.01804545,0.3064292
0.9639548,-0.0230653,0.3116269
0.9687749,-0.0276425,0.3164041
0.9714632,-0.02836868,0.3157744
0.9643248,-0.01468254,0.3190733
0.965974,0.0001313635,0.3251567
0.966102,-0.003321527,0.325772
0.9702762,-0.01546311,0.3243177
0.9855531,-0.02497694,0.3231242
0.9973015,-0.03439455,0.3218413
0.9968963,-0.04377271,0.3226887
0.9775185,-0.0387309,0.3261056
0.9593617,-0.02308588,0.3288081
0.9549547,-0.01906122,0.3257262
0.9672815,-0.01870717,0.3155303
0.9830402,-0.01477652,0.3072172
0.9703884,-0.02123195,0.3119961
0.9630535,-0.03181399,0.3182466
0.9731406,-0.03447084,0.3119339
0.973255,-0.03309693,0.310291
0.9772703,-0.03052795,0.3213571
0.9778922,-0.0212179,0.3320815
0.9743105,-0.01023817,0.3370346
0.9775582,-0.0140973,0.3321385
0.9743406,-0.02056638,0.3278023
0.9697304,-0.0162283,0.3309438
0.9674027,-0.01983484,0.3304468
0.9673987,-0.02950879,0.3353117
0.9711289,-0.03471893,0.3431101
0.9708228,-0.0362783,0.337379
0.9705512,-0.02481547,0.3313726
0.9690575,-0.01560907,0.331563
0.9623946,-0.02248745,0.3324199
0.9584879,-0.02561582,0.3399312
0.9617277,-0.02034459,0.347072
0.9699339,-0.01260988,0.3444564
0.977775,-0.003330306,0.341926
0.9853052,-0.001862961,0.3377493
0.9899104,-0.01123557,0.3234769
0.9903511,-0.01915687,0.3108268
0.9939926,-0.02067148,0.2981261
0.9920037,-0.02335263,0.2844266
0.9804029,-0.02363885,0.2923083
0.9722373,-0.01863599,0.3104474
0.9730899,-0.01258805,0.3208831
0.9814375,-0.006784948,0.337302
0.9843787,-0.01137552,0.3534889
0.9783574,-0.02336486,0.3636737
0.9707047,-0.027186,0.3720337
0.9544151,-0.02672985,0.3681111
0.9399166,-0.02782816,0.3657157
0.9516838,-0.02810985,0.3703299
0.9696686,-0.02662614,0.3632024
0.9637254,-0.02219989,0.3470089
0.9615543,-0.01806252,0.3283292
0.9696238,-0.01963126,0.3239369
0.9613311,-0.02606334,0.3260438
0.9608191,-0.03277515,0.308143
0.9653675,-0.03606815,0.3034516
0.9654197,-0.02419354,0.3101278
0.9914947,0.01540328,0.2940148
1.011498,0.04646889,0.2857871
0.9905037,0.01100316,0.2992299
0.96197,-0.04543314,0.3202253
0.9605891,-0.04256707,0.3340724
0.971597,-0.01960421,0.3249233
0.9763765,-0.005325967,0.310781
0.9922494,0.01977668,0.3038546
0.9981909,0.01824437,0.3076233
0.9799519,0.00410512,0.3212896
0.9688887,0.0007145248,0.3252698
0.9686256,-0.01600185,0.3268047
0.9703558,-0.01653149,0.332614
0.9675399,-0.00727219,0.3323751
0.9695938,-0.01198217,0.3340844
0.9751576,-0.01302238,0.3393756
0.9682994,-0.02260004,0.3427258
0.9633518,-0.03010938,0.3469067
0.9593506,-0.02309166,0.3479336
0.9612081,-0.01774647,0.3423981
0.9700065,-0.01204006,0.3376308
0.9638836,-0.01151408,0.3369964
0.9580068,-0.01654135,0.3381092
0.9543475,-0.02076327,0.3416217
0.9512127,-0.02370785,0.3448633
0.9617006,-0.01396804,0.3435485
0.9698147,0.003311505,0.3349889
0.9721098,0.009059372,0.3211819
0.9715383,0.003288068,0.3145949
0.9704304,-0.003885376,0.3184285
0.974573,-0.01008548,0.3204159
0.9739142,-0.0116129,0.3174608
0.9737905,-0.00888371,0.3142986
0.9761721,-0.01236724,0.3100005
0.9740317,-0.01623113,0.3123386
0.9733077,-0.01581802,0.3263245
0.9719319,-0.01877537,0.3353709
0.9742561,-0.01867669,0.3309288
0.9866559,-0.01317911,0.3172577
0.997517,-0.0007849543,0.2982139
0.9951117,0.02019772,0.2846563
0.9854874,0.02756356,0.2848195
0.9847885,0.01944272,0.286422
0.9907469,0.009449876,0.2790962
0.9960919,-0.01460831,0.2798847
0.9973094,-0.03968215,0.2849229
0.989631,-0.04121171,0.2838846
0.9770109,-0.03491826,0.301856
0.9600956,-0.03065606,0.3346779
0.9548181,-0.02488269,0.3548225
0.9664452,-0.02304068,0.355351
0.9763883,-0.02241515,0.3511511
0.988068,-0.02018322,0.354583
0.9820619,-0.01741585,0.3458648
0.9603145,-0.01213769,0.3341865
0.9612199,-0.007373917,0.3365597
0.9628681,-0.01084488,0.335303
0.9653853,-0.01758355,0.3318953
0.9785081,-0.01576711,0.3241161
0.9700769,-0.01599516,0.314272
0.9641277,-0.02199672,0.3147582
0.9715856,-0.02182564,0.3144688
0.969321,-0.02169761,0.316221
0.9708672,-0.0191748,0.3217911
0.9736725,-0.008270791,0.32369
0.9725562,-0.001462623,0.3271452
0.9740756,-0.003530606,0.3298932
0.973601,-0.006812355,0.3318729
0.9726045,-0.008156852,0.3357315
0.9692526,-0.02089705,0.3344834
0.9651833,-0.03846215,0.3272689
0.9664781,-0.03530544,0.3248015
0.9689363,-0.02451701,0.3341635
0.9706631,-0.02174488,0.3509802
0.9701995,-0.01920101,0.3639217
0.9594486,-0.01449611,0.3654279
0.9489376,-0.007576508,0.3608459
0.9627776,-0.007046206,0.3478828
0.9790286,-0.01298084,0.3237514
0.9708734,-0.01365091,0.3129475
0.964899,-0.01387821,0.3260161
0.966719,-0.01392148,0.3348783
0.9641652,-0.01008809,0.3291093
0.9693272,-0.007963694,0.328624
0.9757648,-0.007526016,0.3306395
0.977706,-0.008265682,0.325856
0.9799746,-0.006251309,0.3198108
0.9781658,-0.001901946,0.3118921
0.9773987,0.000551427,0.3153045
0.976522,0.005698391,0.3270998
0.9739538,0.004273715,0.3281065
0.9712869,-0.004223892,0.3313264
0.9643882,-0.006234522,0.3347565
0.9654229,-0.006340849,0.3329488
0.9690867,-0.006055297,0.3385497
0.9648749,-0.006361381,0.3409711
0.9659231,-0.006313264,0.3365301
0.966483,-0.002352811,0.333197
0.9671243,-0.00337821,0.3320752
0.9740652,-0.003991693,0.3314744
0.9743915,-0.004864794,0.3271608
0.9729205,-0.01237232,0.3255391
0.9742494,-0.01343619,0.3253342
0.9743765,-0.01028474,0.3248911
0.9763404,-0.007520805,0.326613
0.9767529,-0.004327785,0.3207548
0.9761411,-0.007704837,0.3154635
0.9777864,-0.01459372,0.3165863
0.9825227,-0.02086266,0.3151702
0.9872284,-0.02167623,0.3142697
0.9823479,-0.01517332,0.3118449
0.9763066,-0.00888618,0.3049279
0.9800006,-0.005220994,0.3021425
0.9839218,-0.005301628,0.3129338
0.9877679,-0.004659714,0.3323781
0.9961698,-0.002950226,0.3391444
1.003651,-0.01545347,0.3184656
1.007278,-0.04182518,0.2823214
0.9917516,-0.05818311,0.2649808
0.9578445,-0.04880447,0.2722588
0.9453002,-0.0306481,0.2769683
0.9579505,-0.01854134,0.2830132
0.9718865,-0.00498941,0.3051036
0.9852288,0.002167269,0.3189821
0.9855374,0.01357455,0.3155718
0.9738799,0.03698977,0.3214706
0.9740978,0.03598577,0.3301472
0.9891509,0.0219465,0.330561
1.019219,0.006234185,0.3362852
1.039173,-0.02386122,0.3326955
1.005319,-0.02810367,0.3098354
0.9537142,-0.02356886,0.2797248
0.9422315,-0.03711265,0.2638816
0.9516206,-0.03534972,0.2842981
0.9565564,-0.03958246,0.3052187
0.9689106,-0.03841329,0.3049607
0.9833308,-0.0150539,0.3147464
0.9676342,-0.01625979,0.3311777
0.9386784,-0.01637095,0.3453914
0.944773,-0.006850984,0.3517709
0.9694641,-0.01038949,0.346865
0.9928882,-0.008124989,0.3542312
1.005909,-0.0315263,0.3647005
0.9860521,-0.06968074,0.3727471
0.9632309,-0.06899136,0.3810976
0.9497798,-0.04506941,0.3551589
0.9453453,-0.02547007,0.3160159
0.9657884,-0.02893405,0.3119823
0.9726384,-0.04419709,0.3306941
0.961612,-0.04880557,0.3409365
0.9586768,-0.04766494,0.3326219
0.9606456,-0.04390992,0.3261036
0.9680327,-0.04591646,0.330002
0.9677823,-0.04513509,0.3351019
0.9668163,-0.03334854,0.3467964
0.9674135,-0.02659907,0.3554232
0.9593062,-0.02593487,0.3555715
0.959705,-0.02587935,0.359611
0.9618351,-0.02084302,0.3590249
0.9623564,-0.01730082,0.3499941
0.9638403,-0.02106441,0.3465968
0.9614653,-0.02147466,0.3484723
0.9660396,-0.02589439,0.3461288
0.9676954,-0.03292759,0.3412872
0.9657647,-0.0345823,0.3409175
0.9664579,-0.03574178,0.342334
0.9644958,-0.03491673,0.3398161
0.9668796,-0.03906164,0.3335043
0.9694712,-0.04381562,0.3270108
0.9725454,-0.04196313,0.3279157
0.9769431,-0.04502822,0.3310221
0.9763408,-0.04960474,0.3273508
0.9756247,-0.04913864,0.3275439
0.9718603,-0.0472273,0.3315732
0.9684354,-0.04443591,0.3319008
0.9719997,-0.03864956,0.3325467
0.9742873,-0.03412694,0.331624
0.9701724,-0.03447984,0.331609
0.9662523,-0.0313473,0.332711
0.9693832,-0.0297591,0.3312251
0.9714184,-0.03522644,0.3320634
0.9702631,-0.03791068,0.3312698
0.971464,-0.03790311,0.3297176
0.9717568,-0.03707201,0.3301707
0.9732143,-0.03638185,0.3259017
0.9747129,-0.03582477,0.3230829
0.9754581,-0.03284949,0.3279493
0.9797461,-0.03151224,0.3335391
0.9813352,-0.03168906,0.3325387
0.9779309,-0.03249535,0.3302566
0.9739836,-0.03394911,0.3310723
0.9710369,-0.03478513,0.328547
0.9703344,-0.03498769,0.3283614
0.9707364,-0.03242791,0.3302123
0.9701286,-0.03135253,0.327468
0.9689943,-0.03225117,0.3263443
0.9693572,-0.03136961,0.321716
0.9697788,-0.03035021,0.3147806
0.9700597,-0.02943161,0.3160824
0.9739918,-0.03331062,0.3191958
0.9778511,-0.03816784,0.3250696
0.9767441,-0.03629283,0.3387476
0.9760403,-0.03718335,0.3438923
0.9795108,-0.04383482,0.3309436
0.9810204,-0.04689426,0.31932
0.9769901,-0.04173436,0.3200024
0.9717797,-0.03162144,0.3210236
0.9698117,-0.025286,0.3180064
0.9720169,-0.02646807,0.3164012
0.9740942,-0.02899667,0.3202286
0.9745369,-0.02782903,0.3254123
0.9762603,-0.0282444,0.3270413
0.9766245,-0.031008,0.3306033
0.9752319,-0.03062373,0.3333928
0.975007,-0.03050218,0.3286644
0.975779,-0.03173994,0.3199959
0.976653,-0.03195467,0.3137141
0.9746707,-0.03219903,0.3187528
0.9699372,-0.03156807,0.3275571
0.9670517,-0.03118715,0.3251665
0.9694055,-0.03195707,0.3235354
0.975055,-0.03449946,0.3260998
0.9774641,-0.03689132,0.3225282
0.975581,-0.03343934,0.3214608
0.9715447,-0.03041017,0.3236887
0.9692348,-0.03230686,0.3257062
0.9744986,-0.03264922,0.328179
0.9799963,-0.0334668,0.3246002
0.9767583,-0.03620919,0.3234811
0.9728299,-0.03517818,0.3265115
0.9729918,-0.03133576,0.3246441
0.9721062,-0.02974176,0.3253225
0.9726947,-0.03058704,0.3267286
0.9745663,-0.03067842,0.3250853
0.9732667,-0.02945989,0.3267585
0.9735808,-0.02923259,0.3283959
0.9749813,-0.03152608,0.3300947
0.9741027,-0.03525058,0.3331646
0.9717821,-0.03599729,0.3321344
0.968696,-0.03068554,0.3306112
0.9719347,-0.025906,0.3295273
0.9773942,-0.02839942,0.3250447
0.9761153,-0.03077939,0.3242183
0.9738925,-0.03010233,0.327603
0.9716394,-0.03419845,0.3277786
0.9706918,-0.03703062,0.325948
0.9756502,-0.03080088,0.3244369
0.979337,-0.02457145,0.3246858
0.9777597,-0.02426698,0.3252505
0.9763082,-0.02542351,0.3228504
0.9776015,-0.02506536,0.3216234
0.9791626,-0.02471155,0.3209238
0.9800211,-0.02523193,0.3151021
0.9801176,-0.02513587,0.3093191
0.9787494,-0.02629897,0.3123065
0.9789272,-0.02954175,0.3184788
0.9796308,-0.03078523,0.3193305
0.9788327,-0.02804207,0.3209813
0.9790621,-0.02546365,0.3215014
0.978058,-0.02807649,0.3168883
0.9754856,-0.03047737,0.3161148
0.9745506,-0.02874105,0.3166384
0.974894,-0.0292663,0.3175421
0.9756547,-0.0314241,0.3191431
0.976818,-0.03178164,0.3161217
0.9791226,-0.03048556,0.3173855
0.9797098,-0.02829011,0.3195673
0.9773886,-0.02880154,0.315356
0.9758076,-0.02893923,0.3128442
0.9745899,-0.02697414,0.3111252
0.9744694,-0.02779761,0.3138699
0.9746778,-0.02821019,0.3226275
0.9730156,-0.02749008,0.3249391
0.9741588,-0.02910016,0.3213097
0.9777078,-0.03088002,0.3163885
0.9798029,-0.03342805,0.3120793
0.9788766,-0.03495516,0.3130347
0.9739704,-0.03084434,0.3149785
0.9711953,-0.02603291,0.3160123
0.973708,-0.02660233,0.3192658
0.9778938,-0.0288386,0.3184267
0.9799019,-0.0286211,0.3113906
0.9773657,-0.02938018,0.3081751
0.9753975,-0.03149158,0.3114976
0.9765399,-0.03208356,0.3153296
0.9766895,-0.03219889,0.3189579
0.9761208,-0.03178457,0.318627
0.976956,-0.03180547,0.3133814
0.9792188,-0.03190999,0.3126773
0.9803097,-0.02987924,0.3123656
0.9764768,-0.02869897,0.3104609
0.9716944,-0.02909167,0.3147781
0.9735825,-0.02896851,0.3181464
0.9767191,-0.02741425,0.3212575
0.9761708,-0.0256441,0.3268448
0.977572,-0.02619094,0.3233369
0.9780414,-0.02586209,0.3173101
0.9764395,-0.02422187,0.3181171
0.9763164,-0.0241358,0.3186947
0.9753692,-0.0237576,0.3202201
0.975591,-0.0243594,0.3226102
0.9760186,-0.02644906,0.3196452
0.9753483,-0.02706333,0.3156824
0.9759361,-0.02760186,0.3136485
0.9756162,-0.0283351,0.3149442
0.9754325,-0.02789749,0.319095
0.9751737,-0.02952795,0.3183186
0.9747025,-0.03311221,0.318476
0.9762104,-0.03536787,0.3250865
0.9766591,-0.03631902,0.3284222
0.9762791,-0.03358365,0.323969
0.9764409,-0.0304602,0.3184092
0.9766776,-0.03183361,0.3194859
0.9782528,-0.03065907,0.3171205
0.9796666,-0.02800706,0.3094614
0.9793683,-0.02932389,0.3129314
0.9775666,-0.0286359,0.3179365
0.9730305,-0.02432599,0.3174934
0.9689411,-0.02138314,0.3190991
0.9746818,-0.02402903,0.3181274
0.9827255,-0.02917285,0.3202904
0.9793552,-0.02975559,0.3234745
0.9781779,-0.02885579,0.3189804
0.9820292,-0.02893758,0.3169824
0.9770312,-0.02711947,0.318265
0.973423,-0.02500219,0.3182008
0.9756586,-0.02452756,0.3184053
0.9764899,-0.02539626,0.3196125
0.9773324,-0.02602926,0.3209595
0.9777172,-0.02671906,0.3173271
0.9796065,-0.02852104,0.3142092
0.9792349,-0.02944943,0.3180212
0.9739897,-0.02882393,0.3206706
0.9704309,-0.02667879,0.3177376
0.9688449,-0.02587325,0.3135917
0.9723933,-0.02880121,0.3123935
0.9771278,-0.03107427,0.3155619
0.9763223,-0.03189539,0.3214924
0.9762136,-0.03107869,0.3225598
0.9759531,-0.02715303,0.3162825
0.9758822,-0.02580837,0.3125246
0.9768092,-0.02840818,0.3155423
0.9745518,-0.02985774,0.3188663
0.9738638,-0.02903628,0.3179404
0.9730038,-0.02791141,0.3188032
0.9702697,-0.02845235,0.3211966
0.97327,-0.0312872,0.317536
0.9775782,-0.03440545,0.3166899
0.9765044,-0.03407137,0.3196587
0.9754102,-0.0332433,0.3187747
0.9751415,-0.03511522,0.321157
0.9737685,-0.03326161,0.3236054
0.9780676,-0.03112318,0.3209029
0.9844537,-0.03506672,0.3185626
0.982825,-0.0369879,0.316331
0.9772211,-0.03470488,0.317992
0.9737308,-0.03208683,0.3228265
0.9743815,-0.02925641,0.3225525
0.9758722,-0.02730167,0.3213793
0.973662,-0.02752751,0.3208547
0.9732202,-0.02995747,0.3186449
0.9750355,-0.03076153,0.3190972
0.974968,-0.03094633,0.3196421
0.9751401,-0.03255967,0.3194854
0.9751549,-0.03102195,0.3209288
0.9760717,-0.02998762,0.3205601
0.9787326,-0.03294941,0.3217692
0.979414,-0.03748423,0.3236332
0.9779791,-0.04172758,0.3214286
0.9749928,-0.03929878,0.3223064
0.971688,-0.03335765,0.3249008
0.9707272,-0.03076587,0.3241878
0.9732599,-0.02810009,0.3228375
0.9765258,-0.02729377,0.3200463
0.9759632,-0.0290822,0.3217289
0.9758728,-0.02926904,0.3278876
0.9768505,-0.02891399,0.33064
0.9741435,-0.02712328,0.3321032
0.9727976,-0.02485072,0.3303162
0.9729519,-0.02564502,0.3283948
0.971878,-0.02953856,0.3291478
0.9709453,-0.03448678,0.3274462
0.9660959,-0.03844004,0.3306326
0.9617488,-0.04443611,0.3353944
0.9680565,-0.04822082,0.3346924
0.9755397,-0.04538422,0.3328549
0.972136,-0.0469582,0.3246291
0.9695256,-0.05030633,0.3154608
0.9731869,-0.04641733,0.3174309
0.9760445,-0.04027743,0.3225552
0.9821521,-0.03429569,0.3223899
0.9826649,-0.03441195,0.3222783
0.9728797,-0.03700433,0.3246544
0.9695935,-0.031773,0.3258349
0.9734851,-0.03086597,0.3255693
0.9799832,-0.03523785,0.3220002
0.9834651,-0.03813952,0.3202957
0.977308,-0.04231053,0.3260286
0.9694726,-0.03626191,0.3301368
0.9646859,-0.02820239,0.3296104
0.9660189,-0.0324774,0.3286159
0.967944,-0.03445875,0.3295325
0.9637751,-0.03772188,0.3314301
0.9639438,-0.04867748,0.3315647
0.9670582,-0.05048606,0.3306667
0.9683838,-0.04451614,0.3286786
0.9689843,-0.04096279,0.3305163
0.9680874,-0.03790446,0.3334932
0.9699872,-0.03809684,0.3319075
0.969953,-0.03990204,0.3349296
0.9685037,-0.03744526,0.3396515
0.9707151,-0.03712156,0.338002
0.9722696,-0.03902542,0.3340781
0.975574,-0.03869018,0.33195
0.975832,-0.0388181,0.3322117
0.9712506,-0.03702561,0.3316534
0.9719029,-0.03639558,0.3311266
0.9728829,-0.04168478,0.3288507
0.9711716,-0.04611196,0.3258264
0.96977,-0.04486755,0.33197
0.9676077,-0.04232217,0.3390613
0.9693785,-0.04280549,0.3379043
0.9719932,-0.04064201,0.3363966
0.9697189,-0.03741971,0.3360522
0.969049,-0.03902647,0.3335873
0.9716797,-0.03834111,0.3300818
0.9721749,-0.03673705,0.3260414
0.9695804,-0.03794907,0.3247917
0.9672237,-0.0384002,0.3318525
0.9686837,-0.04035128,0.33876
0.9704559,-0.04528403,0.3361498
0.9690773,-0.04991839,0.3333755
0.9692058,-0.04722146,0.3349365
0.9708191,-0.04106412,0.3351227
0.973522,-0.04136965,0.3343557
0.9777016,-0.04260524,0.333874
0.975623,-0.04427057,0.3301184
0.9707406,-0.04917179,0.3243592
0.9706802,-0.0510727,0.3240497
0.9707809,-0.04968373,0.3264344
0.9705924,-0.04245324,0.3282596
0.9702236,-0.0324136,0.3342779
0.9686439,-0.03237369,0.3370784
0.9686511,-0.03503249,0.3303821
0.9680277,-0.03344175,0.3255066
0.9685027,-0.0394103,0.3272978
0.9729868,-0.04862599,0.3260716
0.975447,-0.04941477,0.3220206
0.9718718,-0.04647741,0.3237526
0.9675709,-0.04505579,0.3264253
0.96962,-0.04584309,0.3261085
0.9724297,-0.04631151,0.3267925
0.9717614,-0.04463567,0.3263264
0.9726811,-0.04191899,0.3246137
0.9722496,-0.0366433,0.3197448
0.9718817,-0.03453261,0.3145315
0.9736013,-0.03731712,0.3233858
0.9725587,-0.03791849,0.3336367
0.9718918,-0.03877699,0.3277902
0.971185,-0.03854156,0.3232535
0.969479,-0.03526367,0.3233388
0.9697677,-0.03418262,0.3168705
0.9710172,-0.03348364,0.3172483
0.9729736,-0.0347366,0.3255072
0.972638,-0.03874235,0.3257338
0.9727874,-0.0409207,0.3230052
0.9762431,-0.04469359,0.3221372
0.9766666,-0.04719447,0.3186587
0.9753376,-0.04408373,0.3196794
0.9749464,-0.04187863,0.3247985
0.975683,-0.04087757,0.3261697
0.9774011,-0.04065908,0.3273627
0.9778514,-0.043321,0.3264174
0.9786053,-0.04496954,0.3217801
0.9775037,-0.0473415,0.3185786
0.9743251,-0.05115292,0.31574
0.9733144,-0.04990554,0.3178984
0.9740079,-0.04551066,0.3213608
0.9777863,-0.04281029,0.3189851
0.9821846,-0.04014937,0.3209729
0.9818092,-0.0379473,0.3226826
0.9777522,-0.03909968,0.3171513
0.9733952,-0.04127004,0.3143403
0.9730231,-0.04161765,0.316864
0.9750567,-0.04100168,0.3203191
0.9749798,-0.04004651,0.3194616
0.9740565,-0.04093089,0.317118
0.9733422,-0.04261306,0.314941
0.9738268,-0.04304674,0.3109118
0.9758589,-0.0466932,0.3122177
0.9778238,-0.05017768,0.3138148
0.9791624,-0.04799486,0.3131366
0.9790741,-0.04532088,0.3184426
0.9782255,-0.04431947,0.3226516
0.977584,-0.04488878,0.3206997
0.9777403,-0.04692023,0.3132493
0.9784256,-0.04765806,0.3053837
0.9771861,-0.04832932,0.3073341
0.9765004,-0.04747661,0.3094372
0.9782477,-0.04472264,0.3058825
0.9781339,-0.04568053,0.3086315
0.9770596,-0.04661729,0.3137255
0.9773326,-0.04461307,0.3177459
0.9767393,-0.04337113,0.3244134
0.9758729,-0.04090536,0.3234331
0.9746786,-0.039998,0.3200519
0.9732948,-0.04121397,0.3234611
0.9754786,-0.04092892,0.3213136
0.9784252,-0.04373932,0.3158167
0.9788079,-0.04541026,0.3135579
0.9780101,-0.04274553,0.3138714
0.9730855,-0.04199768,0.3185392
0.9673453,-0.04148667,0.3193459
0.9693085,-0.0414545,0.3208811
0.9736094,-0.04259854,0.3264849
0.9734672,-0.0440162,0.3244687
0.9727962,-0.04677531,0.3206779
0.9721318,-0.0462462,0.3186887
0.9718669,-0.04498372,0.317875
0.9737097,-0.04638371,0.3224733
0.9736842,-0.04579334,0.3260521
0.9739777,-0.04552286,0.3237656
0.9766162,-0.04621759,0.3144051
0.978042,-0.04558613,0.3089531
0.9774445,-0.04586911,0.3209261
0.9753316,-0.04542927,0.3328053
0.9754376,-0.04295883,0.3276623
0.9759616,-0.0410059,0.3213076
0.9768144,-0.04128253,0.3230993
0.9802262,-0.04225668,0.3218679
0.9777001,-0.04145473,0.3208355
0.9747239,-0.04179439,0.3208244
0.9771398,-0.04405191,0.318977
0.976623,-0.04556036,0.324982
0.9766785,-0.04621083,0.3264805
0.9770649,-0.04480236,0.3218523
0.9732572,-0.04388235,0.3219735
0.9717209,-0.04494999,0.3166925
0.9749398,-0.04524694,0.3167966
0.9767556,-0.04550024,0.3226122
0.9719133,-0.04270869,0.3213265
0.9678023,-0.03687879,0.3220841
0.972519,-0.03620262,0.3184058
0.9798776,-0.04342459,0.3148644
0.9830213,-0.05259067,0.3215232
0.9790141,-0.0534927,0.3237042
0.9696218,-0.04579431,0.3249041
0.9645911,-0.03914997,0.3318799
0.9683595,-0.03767094,0.335908
0.974779,-0.03926368,0.3311317
0.9770269,-0.03926915,0.3227891
0.9739364,-0.03832542,0.3211245
0.9715507,-0.03992429,0.3182104
0.9756738,-0.04250001,0.3123152
0.9793453,-0.04453927,0.3109173
0.9752493,-0.04109013,0.3077354
0.9709931,-0.03372271,0.3069265
0.9713385,-0.03176091,0.3085983
0.9743167,-0.03078455,0.3052807
0.9786583,-0.03080821,0.3069848
0.9792107,-0.03923243,0.3170579
0.9803242,-0.04782629,0.325048
0.9844604,-0.05012331,0.3235518
0.9809461,-0.04949659,0.3206605
0.9761842,-0.04922549,0.3267308
0.9780978,-0.04815335,0.328326
0.978143,-0.04285015,0.3205005
0.9770733,-0.04046223,0.3155672
0.9772553,-0.04501829,0.3120911
0.9758242,-0.05055683,0.3059765
0.9754712,-0.05373153,0.3006155
0.9760199,-0.05020317,0.3022547
0.9764552,-0.04470752,0.306214
0.9778267,-0.04475681,0.3071338
0.9794674,-0.04481153,0.3123454
0.9837196,-0.04482036,0.3133223
0.9895723,-0.0456554,0.3115779
0.9909,-0.03955149,0.3172205
0.9868919,-0.02698143,0.3155119
0.9822057,-0.01587715,0.3113964
0.9809948,-0.01401939,0.3116583
0.9813105,-0.02055855,0.3083926
0.9803733,-0.02520988,0.3099602
0.9799517,-0.0293492,0.3125136
0.9790305,-0.03866149,0.3110816
0.9771517,-0.04311104,0.3083109
0.9778464,-0.03942487,0.3011048
0.9800964,-0.03967327,0.2997958
0.9808312,-0.04413795,0.3045532
0.9804963,-0.05019119,0.309764
0.9795398,-0.05778379,0.3174901
0.9784766,-0.05431998,0.3147257
0.9774488,-0.04720808,0.3073664
0.9762715,-0.04896935,0.3085449
0.9780387,-0.04565695,0.3046717
0.9809298,-0.04389223,0.3011429
0.9795286,-0.0492333,0.3056027
0.97674,-0.04846933,0.3044934
0.9761571,-0.04985926,0.3030718
0.97739,-0.04956671,0.3061941
0.9795555,-0.04232226,0.3087776
0.9811894,-0.04101764,0.3123671
0.9821602,-0.04203396,0.3108187
0.9813268,-0.04444526,0.3078374
0.9798485,-0.04655141,0.3097485
0.9806506,-0.0427085,0.307263
0.9814019,-0.04173675,0.3023231
0.9821531,-0.04598846,0.2974713
0.9821663,-0.05033242,0.2936071
0.9777072,-0.04899094,0.2968013
0.9743651,-0.0462249,0.2994568
0.9738697,-0.04838951,0.3033178
0.9734673,-0.04930467,0.3094678
0.9775353,-0.05278788,0.3060936
0.9806868,-0.05637017,0.3045601
0.978621,-0.05475777,0.3103701
0.978044,-0.05526921,0.3106073
0.977997,-0.05204644,0.3049594
0.9783503,-0.04693844,0.299404
0.9795928,-0.04670323,0.3016369
0.9782008,-0.0438035,0.3057899
0.9771182,-0.03960693,0.3034023
0.9770079,-0.03818186,0.3039836
0.976546,-0.03984143,0.3051522
0.9780047,-0.04265372,0.3041717
0.9798927,-0.0441646,0.306709
0.9793682,-0.04665674,0.3081703
0.9789857,-0.04636284,0.3118168
0.9812903,-0.04486675,0.3151602
0.9818162,-0.04645465,0.3099153
0.9781052,-0.04581018,0.3066618
0.9743275,-0.04559851,0.3086404
0.9744867,-0.04725341,0.3087313
0.9766895,-0.04730734,0.3079862
0.9765811,-0.04812707,0.3094091
0.9770935,-0.04812837,0.3139332
0.9783788,-0.04794047,0.3178744
0.9775568,-0.04977029,0.3154319
0.9777389,-0.05043273,0.3085062
0.9786542,-0.0501038,0.3055908
0.9811514,-0.05072931,0.3069728
0.9846026,-0.05145187,0.307825
0.9834714,-0.04882864,0.3095409
0.981447,-0.04252222,0.3117391
0.9812613,-0.03680997,0.3116284
0.9803892,-0.03482495,0.3101361
0.9812217,-0.03710571,0.3090518
0.9822806,-0.04068238,0.3064275
0.9787582,-0.04502747,0.3051303
0.9721335,-0.04828833,0.312326
0.968542,-0.04702477,0.3230869
0.9733639,-0.04648534,0.3284393
0.9790333,-0.04601216,0.3238267
0.9762458,-0.0438153,0.3168509
0.9747507,-0.0463285,0.3180764
0.9758797,-0.04924133,0.3185297
0.97238,-0.04821134,0.3171228
0.9722046,-0.04656744,0.3180804
0.9732637,-0.04427206,0.3170437
0.9721253,-0.04285639,0.3190741
0.9743425,-0.04223261,0.3201038
0.9739284,-0.04212867,0.3168692
0.9727896,-0.0461131,0.3166321
0.9743397,-0.04986418,0.317588
0.9733046,-0.04678854,0.3191612
0.9734722,-0.04234413,0.3187324
0.9743743,-0.04198842,0.3151606
0.9754977,-0.04167885,0.3131149
0.9798932,-0.04253018,0.3119005
0.9810069,-0.04833363,0.3131699
0.977625,-0.05151763,0.3164973
0.9754055,-0.04398214,0.3196054
0.9767263,-0.3298616,-0.1045079
0.9695071,-0.3314486,-0.107819
0.9640178,-0.3344779,-0.1155836
0.9668668,-0.3342589,-0.1106854
0.9681172,-0.3385426,-0.1088719
0.9683107,-0.3389337,-0.119525
0.9750045,-0.3358629,-0.1306942
0.9801612,-0.3405282,-0.1412882
0.9830607,-0.3421513,-0.1486039
0.9870286,-0.3419265,-0.1508546
0.984,-0.3426394,-0.1536236
0.9752295,-0.3335006,-0.1558006
0.9721833,-0.3228974,-0.1576285
0.9756157,-0.3169589,-0.1574096
0.9811215,-0.3110097,-0.1515581
0.9843401,-0.3049106,-0.1482446
0.980889,-0.3042811,-0.150134
0.9775217,-0.3103743,-0.1492737
0.9782771,-0.3155636,-0.1469827
0.9744535,-0.3215155,-0.1423144
0.969291,-0.322878,-0.1346252
0.9742926,-0.3202813,-0.1369468
0.9807599,-0.3233832,-0.1423808
0.9784183,-0.3202254,-0.1437674
0.9750025,-0.3167552,-0.1527133
0.9731832,-0.3188371,-0.1567654
0.972929,-0.3149336,-0.1519725
0.9749062,-0.3122165,-0.1499021
0.9728867,-0.3105802,-0.1465146
0.9725131,-0.3103163,-0.148051
0.9778233,-0.3118588,-0.1519813
0.9825023,-0.3063035,-0.1493883
0.9885139,-0.2999525,-0.148858
0.9917782,-0.2957753,-0.1446709
0.9863927,-0.2971041,-0.1303102
0.9797325,-0.3007734,-0.121627
0.976456,-0.2975575,-0.128042
0.975862,-0.2983125,-0.1335516
0.978265,-0.2996969,-0.1277889
0.9822101,-0.2973009,-0.1262162
0.9860976,-0.2974811,-0.1302217
0.9880236,-0.2922887,-0.1339519
0.9863826,-0.287436,-0.1447618
0.9829443,-0.2889542,-0.15027
0.9802395,-0.2889952,-0.1434917
0.9833998,-0.2878901,-0.1388243
0.989344,-0.2873081,-0.1368988
0.9877337,-0.2887535,-0.1364327
0.9864971,-0.291724,-0.1360875
0.989491,-0.2947042,-0.1311382
0.9874377,-0.2965144,-0.1301614
0.9823725,-0.2939828,-0.1356517
0.9767469,-0.2929539,-0.1388396
0.9767606,-0.2977455,-0.1381531
0.9827857,-0.300517,-0.1384901
0.9847595,-0.2942194,-0.1406612
0.9867243,-0.2854777,-0.1380457
0.986925,-0.2853432,-0.1343404
0.9848103,-0.2895075,-0.1364342
0.9871268,-0.2927064,-0.1367102
0.9870077,-0.295643,-0.1360627
0.9867504,-0.2948836,-0.1401496
0.9859786,-0.2946741,-0.1428773
0.9797555,-0.297423,-0.1422211
0.9781384,-0.296633,-0.1403219
0.9794723,-0.2951445,-0.1385085
0.9791504,-0.2960328,-0.1368967
0.9792971,-0.296273,-0.134944
0.9790681,-0.2974752,-0.1359189
0.981014,-0.2989034,-0.1378397
0.9850835,-0.2969904,-0.137375
0.9906713,-0.2948836,-0.1374316
0.992614,-0.2958289,-0.1378989
0.9871104,-0.2954288,-0.1381743
0.9824779,-0.290945,-0.1388891
0.9801909,-0.2881628,-0.1371079
0.9792644,-0.2913953,-0.1344753
0.982613,-0.295874,-0.1355606
0.9857216,-0.2965344,-0.1377499
0.9833214,-0.2964476,-0.1384274
0.9805823,-0.2953424,-0.1382083
0.9833885,-0.2927839,-0.1372579
0.9852257,-0.2979971,-0.1369207
0.9851885,-0.3043731,-0.1358182
0.9868319,-0.3020204,-0.1331724
0.9858422,-0.3005698,-0.1327795
0.9848637,-0.2964154,-0.1353848
0.9849293,-0.2870708,-0.141279
0.9842558,-0.2911781,-0.1481123
0.984346,-0.3095612,-0.1468739
0.9811356,-0.3228885,-0.1428878
0.9778156,-0.3161175,-0.1424528
0.9799836,-0.290234,-0.1313984
0.9842014,-0.2596626,-0.1185402
0.9874999,-0.2443584,-0.124365
0.9883719,-0.2571983,-0.1342062
0.9884704,-0.2678424,-0.1388577
0.9885261,-0.2580333,-0.1431703
0.9872009,-0.2602985,-0.1417441
0.9889649,-0.2666427,-0.1404635
0.9942152,-0.2690476,-0.1407605
0.9965842,-0.2845638,-0.1341712
0.9943447,-0.287999,-0.1303348
0.9918777,-0.2838846,-0.1339413
0.9919733,-0.2869933,-0.1357612
0.9884065,-0.2805068,-0.1360524
0.9825972,-0.2755846,-0.1422783
0.9860661,-0.2753543,-0.1529085
0.9923783,-0.2744362,-0.1544351
0.9932234,-0.2763602,-0.1468433
0.9921452,-0.2780372,-0.1385583
0.9888348,-0.2818453,-0.1293555
0.989251,-0.2813959,-0.1267961
0.9938772,-0.2800538,-0.1260094
0.9932144,-0.2830939,-0.1183075
0.9904705,-0.2808577,-0.1180468
0.9885801,-0.2799121,-0.1217229
0.9853798,-0.2824337,-0.122042
0.9816115,-0.2842086,-0.1297926
0.9775548,-0.2881553,-0.1373363
0.976092,-0.2897596,-0.1364001
0.9795926,-0.2891228,-0.1296022
0.985747,-0.290282,-0.1209616
0.9891703,-0.2914403,-0.1210686
0.9890182,-0.2899624,-0.1213874
0.9891013,-0.2877476,-0.1158595
0.9896803,-0.2875438,-0.1191435
0.990017,-0.2874159,-0.1257382
0.9873092,-0.288415,-0.1275943
0.9822009,-0.2891159,-0.1255521
0.9810637,-0.286783,-0.1215189
0.9827909,-0.2859863,-0.1298353
0.9847334,-0.2878043,-0.1381396
0.9867619,-0.2894478,-0.1295768
0.9864689,-0.2877091,-0.1252638
0.9855757,-0.2838763,-0.1301488
0.9863018,-0.2828971,-0.1325975
0.9859335,-0.2844212,-0.1346137
0.9840133,-0.2897899,-0.1347959
0.9828134,-0.2950609,-0.1308619
0.9822326,-0.2934631,-0.125164
0.9824491,-0.2914028,-0.1232418
0.9845332,-0.2909636,-0.1292854
0.9869062,-0.2882255,-0.1360292
0.9865792,-0.2880584,-0.1354832
0.9851655,-0.290094,-0.1343306
0.9855501,-0.2894157,-0.1388682
0.9848653,-0.2901785,-0.1414702
0.9853318,-0.2910909,-0.1402007
0.9888422,-0.2895068,-0.1399835
0.9894585,-0.2901664,-0.1400252
0.9895742,-0.2886304,-0.1382887
0.9905413,-0.284916,-0.1328164
0.9892718,-0.2834965,-0.1233079
0.9884342,-0.2811872,-0.1165526
0.9879129,-0.2815122,-0.1244009
0.9875563,-0.2827531,-0.1364832
0.9882989,-0.2813975,-0.1338213
0.9888174,-0.2820416,-0.1307364
0.9871815,-0.2821747,-0.1314172
0.9842598,-0.2821448,-0.1260092
0.9844476,-0.2848851,-0.1266852
0.9849534,-0.286822,-0.1276869
0.9836991,-0.2855058,-0.1231578
0.9844579,-0.2811331,-0.1256779
0.9873871,-0.2783454,-0.1287182
0.9918344,-0.2811589,-0.1304208
0.9940166,-0.2858395,-0.1344291
0.9912058,-0.2867316,-0.1349388
0.9865448,-0.2845076,-0.1344995
0.9835082,-0.2828428,-0.1327737
0.9845956,-0.2821433,-0.129814
0.98674,-0.2825512,-0.1287424
0.9877516,-0.2820451,-0.1268816
0.9892733,-0.2804026,-0.1261283
0.9883588,-0.2813692,-0.127471
0.986417,-0.2844834,-0.1318101
0.9870283,-0.2887835,-0.1384112
0.9868401,-0.2901888,-0.140897
0.9865006,-0.2867562,-0.1408158
0.9873643,-0.2825203,-0.1369368
0.9878271,-0.2768766,-0.1313343
0.9904026,-0.2771786,-0.1349239
0.9922221,-0.2849226,-0.1390452
0.9898339,-0.2873379,-0.1365085
0.9879244,-0.2870293,-0.1350699
0.9877385,-0.2876602,-0.132003
0.9864082,-0.2874803,-0.1302412
0.9836924,-0.2887302,-0.1372088
0.982965,-0.2888914,-0.1415294
0.9846274,-0.2882723,-0.1347066
0.9856622,-0.2854254,-0.1278127
0.9855974,-0.2817012,-0.1304134
0.9842065,-0.2824344,-0.1336486
0.9833422,-0.282262,-0.1305001
0.9826643,-0.2824361,-0.1271265
0.9816013,-0.2882046,-0.1262595
0.9843906,-0.2954297,-0.1341291
0.9877236,-0.3002508,-0.1462934
0.9869906,-0.3019629,-0.1427816
0.9848257,-0.3014845,-0.1324371
0.984849,-0.2987681,-0.1295252
0.9865316,-0.295341,-0.1286449
0.9867501,-0.2910771,-0.129611
0.9877289,-0.2872214,-0.128053
0.9880353,-0.2891447,-0.1248376
0.9867459,-0.2915776,-0.1255191
0.9877532,-0.2909207,-0.1261104
0.9866999,-0.2894375,-0.1303215
0.9855336,-0.2868235,-0.1336339
0.9874679,-0.2891516,-0.1313757
0.987426,-0.293631,-0.1325726
0.9866568,-0.2926055,-0.1357781
0.9858405,-0.2902098,-0.1383347
0.9858268,-0.2884648,-0.1385293
0.9864374,-0.2892106,-0.1382164
0.9846722,-0.2915601,-0.1401726
0.9836185,-0.2908886,-0.1343307
0.9831659,-0.2915414,-0.1280427
0.9830952,-0.2923938,-0.1325911
0.9840957,-0.2906497,-0.1361
