accx,accy,accz
0.9546698,0.2414149,0.2290136
0.9525576,0.2394359,0.2283518
0.9503212,0.2389561,0.2265508
0.9543866,0.2397388,0.229722
0.9585887,0.2426475,0.2292429
0.9604191,0.244326,0.2280428
0.9600492,0.2457161,0.226175
0.9580172,0.2495622,0.2210944
0.9586173,0.2489507,0.2195415
0.9595115,0.2448971,0.2188484
0.9605477,0.2434279,0.2211269
0.9617272,0.2421007,0.2260024
0.9598417,0.2412034,0.2264726
0.9593566,0.2429099,0.2270217
0.9599853,0.2448126,0.2284157
0.9595219,0.2466373,0.2304555
0.9598876,0.2496306,0.2334274
0.9596291,0.2499925,0.2332622
0.9596997,0.2458017,0.2330597
0.9598586,0.24151,0.2321125
0.9595272,0.2408346,0.2309625
0.9598956,0.2421905,0.2316379
0.959637,0.2413483,0.2268637
0.9596949,0.239506,0.2243438
0.9598393,0.2387327,0.2326693
0.9588574,0.2390168,0.2384269
0.9562728,0.2419352,0.2345412
0.9530224,0.2440616,0.2314351
0.9542455,0.2439395,0.2343506
0.9577693,0.2441363,0.2356377
0.9586304,0.242121,0.2355345
0.9585788,0.237443,0.2355886
0.9581343,0.2356793,0.2306776
0.9582156,0.2407952,0.2268118
0.9586535,0.246125,0.2260946
0.9580578,0.2455747,0.2258872
0.9589341,0.245875,0.2265352
0.9611664,0.2491283,0.2234212
0.9627005,0.2500224,0.2213358
0.9612596,0.247149,0.2238961
0.9584621,0.24274,0.2268184
0.9597504,0.2413492,0.2295626
0.9604327,0.2425327,0.2298627
0.95898,0.2442829,0.2305503
0.9600727,0.2475474,0.2323798
0.9598286,0.247851,0.230277
0.9593335,0.2451745,0.2282083
0.9601451,0.2440629,0.2286672
0.9591014,0.2424324,0.2269114
0.9579649,0.2417145,0.2240157
0.9565663,0.2421007,0.2255987
0.9568303,0.2411406,0.2275236
0.9593763,0.2418364,0.225881
0.9595876,0.2415689,0.2269652
0.9580506,0.239409,0.2304148
0.9563354,0.2392773,0.2324228
0.9565704,0.241568,0.2308121
0.9576479,0.2459448,0.2249987
0.9566928,0.2467945,0.2227293
0.9577934,0.2450305,0.22546
0.9582758,0.246146,0.2268819
0.9544171,0.2459461,0.2247331
0.9522994,0.245496,0.2233553
0.9551078,0.246192,0.2282965
0.9584421,0.2454163,0.2321782
0.9573844,0.2450014,0.2296071
0.9574409,0.2444465,0.2282425
0.9596877,0.2452243,0.2293269
0.9577661,0.2473968,0.2284919
0.9573776,0.2473741,0.2273105
0.9569178,0.247109,0.2289372
0.9541879,0.2467573,0.2306256
0.9568903,0.2446505,0.2305658
0.9578228,0.243028,0.2306847
0.9560527,0.2436234,0.2302555
0.9574906,0.2451378,0.2292919
0.9564944,0.2476983,0.2270829
0.9548779,0.2504308,0.2244561
0.9544357,0.2459287,0.2239859
0.9555003,0.239559,0.2236834
0.9591988,0.2419984,0.2242783
0.9595341,0.244436,0.2261005
0.959028,0.2440462,0.2276199
0.9585652,0.2450973,0.229775
0.9559283,0.2442893,0.229705
0.9568199,0.2456937,0.2289756
0.9581423,0.2492913,0.2321429
0.9590313,0.2500615,0.2355877
0.9619941,0.2484101,0.2382562
0.960632,0.245315,0.2378705
0.9585574,0.2454127,0.2297246
0.9601885,0.2457838,0.2261117
0.9597248,0.2417605,0.2309332
0.9582079,0.2400659,0.2290909
0.9575278,0.2441065,0.2254155
0.9564458,0.2501125,0.2243475
0.95694,0.2506326,0.2197504
0.9572643,0.2462567,0.2213681
0.9566073,0.2444014,0.2273849
0.9567522,0.2442203,0.2297507
0.9552025,0.245446,0.2302799
0.9537982,0.2464063,0.2280883
0.9559406,0.2460058,0.228831
0.9575983,0.2486492,0.2283105
0.9557214,0.2506898,0.2248457
0.9530748,0.2492437,0.2290523
0.9529749,0.2477801,0.2347322
0.955799,0.2475218,0.2374256
0.9596399,0.2463279,0.2324008
0.960614,0.2441232,0.2231582
0.9584705,0.2444107,0.2267084
0.9558019,0.2453507,0.2324923
0.9515984,0.2477087,0.2377285
0.9507698,0.2514077,0.2444177
0.9558067,0.2505962,0.2329055
0.9580109,0.2509373,0.2207971
0.9568761,0.2537546,0.2272782
0.9565089,0.2518045,0.2306059
0.9561173,0.2495785,0.2295572
0.955465,0.2497738,0.2333106
0.9553915,0.2482055,0.2321382
0.9569303,0.246751,0.2298356
0.9581154,0.2480577,0.2313076
0.9584343,0.2491827,0.2305059
0.9578692,0.2483541,0.2321543
0.9544328,0.2475036,0.2334287
0.9518287,0.2471629,0.227519
0.9526466,0.2468754,0.2233239
0.9543982,0.2464537,0.2251456
0.9552089,0.2457733,0.2291652
0.9559721,0.2464817,0.2323124
0.9576801,0.2478294,0.2340481
0.9583552,0.2473706,0.23343
0.9575362,0.2478004,0.2306792
0.9552532,0.2490416,0.2304944
0.9532096,0.2476613,0.2305228
0.9527201,0.2466994,0.230861
0.9525312,0.2473898,0.2337284
0.9540004,0.2472798,0.2352401
0.9545251,0.2473057,0.2361233
0.9538487,0.2481574,0.2359566
0.954796,0.2485374,0.2360616
0.9559618,0.246908,0.2365248
0.9582009,0.2450834,0.2343042
0.9581115,0.2459235,0.2302203
0.9560749,0.2471488,0.2252274
0.9571005,0.2475565,0.2293518
0.9572004,0.2491337,0.2371858
0.9566154,0.2505117,0.2331594
0.9571673,0.2499356,0.2286999
0.9570397,0.2481255,0.2295884
0.9578221,0.2448762,0.2318281
0.9583094,0.2419308,0.2354583
0.9565874,0.2432306,0.23502
0.9548565,0.2465563,0.2350768
0.9554056,0.2477732,0.2397756
0.9562147,0.2479533,0.2437296
0.9554064,0.246926,0.2426378
0.9538329,0.2452775,0.2355862
0.9515204,0.2456992,0.2298286
0.9524962,0.24649,0.2298616
0.955786,0.2478166,0.2329558
0.9555001,0.2511203,0.2368271
0.9556635,0.2531048,0.2381827
0.9568011,0.2524527,0.2314797
0.9561928,0.2508777,0.2220158
0.9547164,0.2501003,0.2257953
0.9522667,0.2527597,0.2362769
0.9556656,0.2571818,0.2380569
0.9624253,0.2549978,0.2295645
0.9626049,0.242955,0.215895
0.9590159,0.233117,0.2153956
0.9538481,0.2412035,0.2201241
0.9518132,0.2587605,0.2138559
0.9559535,0.2657676,0.2148156
0.957963,0.2649855,0.219003
0.9565305,0.2602951,0.2230518
0.9548049,0.2505754,0.2364641
0.9538177,0.2420581,0.2401825
0.9542604,0.235045,0.237411
0.9551624,0.2360399,0.2429116
0.9558896,0.2400616,0.2476387
0.9553375,0.2360915,0.2464926
0.9547123,0.2371978,0.2444338
0.9547789,0.237446,0.2458046
0.9545066,0.2289007,0.2426517
0.9526869,0.2262614,0.2370945
0.9484988,0.2361261,0.2350985
0.9482051,0.2638183,0.2242975
0.9582299,0.293789,0.2023154
0.9721153,0.3011133,0.1785909
0.9743023,0.2917214,0.1731545
0.9654949,0.277941,0.1833457
0.9611693,0.2650396,0.180129
0.9620518,0.2628546,0.1806983
0.9670078,0.2736015,0.1967107
0.9721472,0.2730595,0.2073596
0.9636631,0.2476958,0.2198792
0.9514312,0.2198349,0.2392187
0.9506038,0.2142684,0.2543587
0.9559496,0.2316187,0.2491409
0.9610187,0.2463527,0.2300876
0.9619962,0.2550674,0.2190518
0.9595947,0.2589841,0.2079615
0.9557468,0.2481544,0.2084046
0.9518581,0.2443706,0.2142271
0.9550194,0.2445551,0.2062467
0.9608535,0.2452118,0.2131498
0.9596383,0.2557252,0.220993
0.9566956,0.2526251,0.2242989
0.9543381,0.2485612,0.23726
0.952176,0.2487062,0.2357514
0.9568986,0.2412956,0.2357321
0.9628449,0.2434344,0.2331092
0.9628131,0.2456545,0.2167955
0.9609088,0.2493182,0.215619
0.9580514,0.2575199,0.2196913
0.9561094,0.255624,0.2205823
0.9570817,0.2535368,0.2163258
0.9585188,0.2487389,0.209162
0.9602443,0.2410127,0.2141302
0.9616625,0.2425764,0.2180175
0.9609557,0.2473833,0.2207987
0.9588962,0.2522121,0.2247486
0.9578126,0.2568461,0.2241722
0.9569991,0.254495,0.2260885
0.9548086,0.24877,0.225699
0.9526946,0.2502558,0.228311
0.9535702,0.2526119,0.2328678
0.9598962,0.2513854,0.2281339
0.9670786,0.2492856,0.2247396
0.9671115,0.2444264,0.2243882
0.960818,0.2482816,0.2270036
0.9555833,0.2553934,0.2324215
0.9549909,0.2536463,0.2272617
0.9566198,0.2533675,0.2195601
0.9576617,0.2518617,0.2197923
0.9582158,0.2476285,0.2226905
0.9610894,0.245353,0.226063
0.9630371,0.2448826,0.2228798
0.9587958,0.248036,0.2155053
0.9555641,0.2485798,0.2128738
0.9578868,0.2501985,0.2117267
0.9594007,0.2538022,0.2130869
0.9587091,0.2523901,0.2157892
0.9588861,0.2523985,0.2174414
0.9582269,0.2513451,0.2211879
0.9559426,0.2490945,0.2239729
0.9555192,0.2511889,0.2265293
0.9563795,0.2516087,0.2299031
0.9575461,0.2503851,0.2328263
0.9590697,0.249707,0.2335889
0.9595987,0.249482,0.2279333
0.9592822,0.2486022,0.222357
0.9579577,0.2465294,0.2194006
0.9589424,0.2481812,0.2162295
0.9606839,0.2506803,0.2162731
0.9592734,0.2516982,0.2182145
0.9592895,0.2532262,0.2234429
0.9583171,0.251884,0.230885
0.95596,0.2497629,0.2310507
0.9570412,0.2501073,0.2234957
0.9578008,0.2514975,0.2168912
0.9593099,0.2542965,0.2160348
0.9620802,0.2565135,0.2185916
0.9614158,0.2552955,0.2213036
0.9604534,0.2525258,0.2223472
0.9616204,0.2484991,0.2203241
0.9621274,0.2432153,0.2151058
0.9618856,0.2419947,0.2159308
0.9598623,0.2427499,0.2252271
0.9554553,0.2385532,0.2277265
0.9532047,0.2370035,0.2259673
0.949125,0.2495999,0.2267181
0.9420345,0.2665038,0.2258633
0.9446862,0.2671389,0.2262851
0.9526829,0.2568844,0.223718
0.9549506,0.2522056,0.2208963
0.9547667,0.2496315,0.2228359
0.9537902,0.2465249,0.2231094
0.9548651,0.2441124,0.2237999
0.9565488,0.2441939,0.2227716
0.9542789,0.2509491,0.2178231
0.9519797,0.2544023,0.21406
0.9496797,0.2524805,0.2141791
0.9509872,0.2526791,0.2157118
0.9561857,0.2535987,0.2134754
0.9576772,0.2574408,0.2150671
0.9601826,0.2604928,0.2184114
0.9609551,0.257354,0.2162901
0.9583006,0.2541209,0.2195491
0.9601421,0.2549802,0.2268395
0.9590074,0.2537236,0.2306476
0.9564703,0.245908,0.229941
0.9582891,0.2417514,0.2274082
0.9582997,0.2436773,0.2278876
0.9582666,0.2464124,0.224569
0.9575407,0.250802,0.2200196
0.9566672,0.2524773,0.2197227
0.959066,0.2522806,0.2195027
0.9601821,0.2539383,0.2207071
0.959851,0.2555237,0.2167881
0.9595018,0.255533,0.2114594
0.959686,0.2534871,0.2142946
0.9598372,0.2527205,0.2147711
0.9577694,0.2552909,0.2157377
0.954676,0.2607838,0.2249762
0.9521735,0.2637835,0.2308103
0.9553394,0.2599891,0.2231373
0.9605957,0.2552744,0.2093518
0.959904,0.2514053,0.2033465
0.9589697,0.2485061,0.2045263
0.9582984,0.2481227,0.2141452
0.9561404,0.247597,0.2271461
0.9570365,0.2484516,0.2250331
0.958259,0.2512508,0.2201838
0.9582923,0.2521011,0.221666
0.9586946,0.2527285,0.2171355
0.9591046,0.2545722,0.2175095
0.9599796,0.2549395,0.2216938
0.9599329,0.2557224,0.2190201
0.9595872,0.2560365,0.2217463
0.960946,0.2550882,0.2254765
0.9623331,0.2567968,0.2229541
0.9621774,0.256795,0.2236231
0.9598704,0.2537469,0.2249486
0.9573534,0.2508332,0.2248722
0.9581078,0.2478884,0.2253536
0.9589918,0.2469943,0.2239859
0.9580831,0.246919,0.2213243
0.9590486,0.2484312,0.2174274
0.9593899,0.2528742,0.2163822
0.9578377,0.2566711,0.2180745
0.9580266,0.2565973,0.2171726
0.9577638,0.2533612,0.2171535
0.9564516,0.2514106,0.2179053
0.9568785,0.2481386,0.2181148
0.956873,0.2483993,0.2198937
0.9545963,0.2551458,0.2203611
0.9518569,0.256248,0.2212695
0.9509158,0.2567111,0.2228625
0.9525312,0.2571189,0.2206788
0.9545849,0.254022,0.2194465
0.9560576,0.2561297,0.2192082
0.9578217,0.2559346,0.2138164
0.9589559,0.2546493,0.2115998
0.959622,0.2564804,0.21794
0.9593242,0.2553472,0.2230306
0.9576726,0.2573992,0.2236702
0.9580191,0.2592534,0.2234618
0.9578129,0.2579637,0.2234781
0.9552934,0.2586315,0.2225137
0.9555105,0.2591336,0.2199258
0.9570807,0.2600692,0.2194736
0.9587687,0.259678,0.2228726
0.9601848,0.2586282,0.2279382
0.9578695,0.2593245,0.2296867
0.9560509,0.2596711,0.2268124
0.9570948,0.2593509,0.2255144
0.9571774,0.2557839,0.2251472
0.9570876,0.2520439,0.2244048
0.958767,0.2524289,0.2252267
0.9603654,0.2535151,0.224137
0.9596444,0.25453,0.2226484
0.9584526,0.2555362,0.2220862
0.9584966,0.2541839,0.2204727
0.9590968,0.2517882,0.221387
0.9600677,0.2531474,0.2225169
0.9595332,0.2561952,0.2193405
0.9575882,0.2571361,0.2168171
0.9566241,0.2572614,0.2171787
0.9570851,0.2556833,0.2175308
0.9584552,0.2551314,0.2201883
0.9577503,0.2559747,0.2253108
0.9554668,0.2554148,0.2249951
0.9558226,0.2565762,0.218771
0.9561035,0.25768,0.215949
0.9547831,0.2585542,0.2199116
0.9547867,0.2603903,0.2240821
0.9545578,0.2594459,0.2227406
0.9554238,0.2574359,0.2230226
0.9577709,0.2555464,0.2273942
0.955832,0.2541186,0.2263373
0.9528058,0.2543603,0.2237928
0.9527273,0.2555033,0.2229208
0.9527479,0.258201,0.2196197
0.9545168,0.2589086,0.2206817
0.9581374,0.2562198,0.2248044
0.9597217,0.2548944,0.2242793
0.9557719,0.2533028,0.2225194
0.9505537,0.2504453,0.2232906
0.952614,0.2524234,0.2238451
0.954451,0.2570483,0.2231826
0.9536141,0.2593743,0.2229916
0.95733,0.261811,0.2220139
0.9576347,0.2612418,0.222838
0.9550526,0.2575014,0.2244833
0.9560369,0.2562159,0.2232069
0.9562953,0.2553435,0.223045
0.957103,0.2557341,0.2208628
0.9573888,0.258681,0.2164689
0.9559955,0.260135,0.2164723
0.9555102,0.258585,0.2186929
0.9538146,0.2549312,0.2206293
0.9545577,0.253361,0.2216284
0.9562556,0.2544734,0.2220786
0.9534012,0.2552081,0.2225228
0.9525559,0.2559203,0.2235489
0.9556832,0.2563392,0.2244446
0.9576286,0.2561871,0.2223015
0.956331,0.2553054,0.2203064
0.9540839,0.2544868,0.2184646
0.953141,0.2549289,0.2161572
0.9512443,0.2547666,0.21539
0.9523402,0.2540454,0.2150009
0.9557152,0.2541634,0.2183695
0.9539797,0.2560535,0.2217243
0.9539986,0.2610999,0.2246095
0.9576875,0.2673636,0.2313493
0.9586668,0.2679896,0.2301901
0.9583013,0.2595175,0.220379
0.9562573,0.252696,0.2116734
0.9550669,0.2548956,0.21064
0.9566716,0.2552206,0.2210562
0.9575479,0.2513315,0.2279623
0.9588271,0.2528269,0.2241463
0.9597438,0.2560183,0.2217537
0.9581478,0.2572055,0.2226282
0.956362,0.2601452,0.2210276
0.9575546,0.2602397,0.2191995
0.9587601,0.2589511,0.2200533
0.955308,0.2602996,0.2206605
0.9536441,0.2595541,0.2212567
0.9570278,0.258958,0.220402
0.959153,0.2574932,0.2175344
0.9576547,0.254652,0.216862
0.9559934,0.2572725,0.217878
0.9572411,0.2595146,0.2210535
0.9572676,0.258012,0.2228275
0.9569125,0.257044,0.221174
0.9604292,0.2532497,0.2187871
0.9635771,0.2502379,0.2181336
0.9619148,0.2599818,0.2276224
0.9504093,0.2741428,0.2350893
0.9390679,0.2737128,0.2280151
0.9449985,0.267318,0.2187344
0.9539408,0.2642801,0.2143423
0.9554939,0.258039,0.2208799
0.960569,0.2554059,0.2297293
0.9599549,0.2546622,0.2272706
0.9543311,0.2522555,0.2252143
0.9594553,0.2593059,0.2219723
0.9612665,0.264399,0.2147778
0.9567035,0.2576162,0.2200442
0.9562566,0.2549126,0.2272809
0.9531888,0.2628112,0.2222382
0.9534711,0.269175,0.2197385
0.9564392,0.2640091,0.2209841
0.9577135,0.2590933,0.2216921
0.9637284,0.2618847,0.2264036
0.9632923,0.259909,0.2232792
0.9590576,0.2527265,0.2162767
0.959845,0.2458272,0.2171196
0.9575912,0.2448468,0.2188232
0.9566854,0.2532639,0.223588
0.9589772,0.2612188,0.2268155
0.9592113,0.2694057,0.2240507
0.9556778,0.2765983,0.22339
0.9508196,0.2724556,0.2200828
0.95266,0.2631675,0.2175605
0.9549412,0.2519081,0.2235121
0.9534334,0.2422245,0.2281708
0.955239,0.2448095,0.2249078
0.9579048,0.25255,0.2221359
0.9594203,0.2598371,0.2262147
0.9558409,0.2671573,0.2284911
0.9485157,0.2695165,0.2282325
0.9501888,0.2711992,0.230399
0.9557233,0.2678357,0.2317198
0.9572339,0.2577014,0.2329834
0.9568331,0.2557016,0.2294322
0.9547015,0.253374,0.2226057
0.9563408,0.2498959,0.2218371
0.9575562,0.2563133,0.2187554
0.953456,0.2599407,0.2108911
0.9521899,0.2638727,0.2081475
0.9521862,0.2640837,0.2149256
0.950201,0.2559874,0.2263851
0.9485316,0.2606063,0.2290809
0.9505439,0.2634323,0.2283639
0.9545861,0.260464,0.2352537
0.9527085,0.2632294,0.2391752
0.9519726,0.2555035,0.2415417
0.9547449,0.2501609,0.2464729
0.9538644,0.2543042,0.2406405
0.9540495,0.2562702,0.2324977
0.9537128,0.2595467,0.2361714
0.9530995,0.2585586,0.2362602
0.9556921,0.2571499,0.2265129
0.9557107,0.2574941,0.2215835
0.9544236,0.2554409,0.2227073
0.9540124,0.258583,0.221818
0.9541459,0.2646958,0.2184562
0.9553778,0.2688781,0.2185583
0.9556243,0.2656628,0.2204208
0.955664,0.2595426,0.2170373
0.95533,0.2617112,0.2157523
0.9545443,0.2612073,0.2190101
0.9537569,0.2576063,0.2249295
0.9520805,0.2581551,0.2353925
0.9512988,0.2536487,0.2370898
0.9522178,0.248621,0.2334011
0.9545107,0.2481478,0.2352059
0.9560617,0.247031,0.2330856
0.9556623,0.248252,0.2309298
0.9557992,0.249322,0.2313628
0.9569052,0.2532666,0.2297006
0.9577635,0.2663659,0.2313293
0.9575358,0.2738763,0.2299559
0.9583166,0.2694065,0.2221466
0.9588441,0.2617535,0.2179061
0.9571418,0.2534859,0.2188047
0.9582654,0.2481151,0.2221758
0.9587232,0.2517832,0.2282576
0.9558764,0.2611993,0.2354052
0.9549147,0.2685053,0.235209
0.9540288,0.2726414,0.2304962
0.9539507,0.2631031,0.2329195
0.9554512,0.2423554,0.2342276
0.9556824,0.2380125,0.2370994
0.9548916,0.2489623,0.2463054
0.9518956,0.260939,0.2461889
0.9489273,0.2681591,0.242217
0.9496356,0.2648442,0.2341282
0.9507287,0.2574331,0.2224918
0.9500403,0.249549,0.2266652
0.9524635,0.2464131,0.2330553
0.958253,0.2452539,0.2330494
0.9602207,0.2413027,0.2341651
0.9561645,0.248921,0.2317635
0.9517292,0.2606262,0.2317444
0.9534079,0.2673702,0.2333934
0.9563225,0.2698005,0.2325368
0.9543427,0.2613913,0.231108
0.9510878,0.2558308,0.2287755
0.9477086,0.2559485,0.2323602
0.948547,0.2576401,0.2353403
0.9516816,0.2642278,0.2273
0.9499638,0.2664004,0.2207435
0.9521889,0.2681822,0.2254199
0.9553852,0.2666813,0.2350088
0.9501476,0.2555631,0.2436044
0.9443656,0.2473123,0.2517228
0.9429673,0.2407906,0.2607337
0.9481328,0.2366477,0.2653994
0.953908,0.242206,0.2614404
0.9514086,0.2538434,0.2565151
0.9500097,0.2600562,0.2442932
0.9514973,0.2555294,0.2134718
0.9505426,0.2555055,0.1921835
0.9568641,0.2628575,0.1949377
0.9705467,0.266761,0.1930098
0.9749922,0.2652938,0.1892527
0.9637312,0.2595524,0.2100743
0.9511707,0.2539582,0.2390378
0.9522115,0.2475183,0.2490319
0.9588158,0.2436889,0.248
0.9584339,0.2449269,0.2392555
0.9497255,0.2455045,0.2238132
0.9383347,0.251604,0.2194041
0.9410336,0.2618749,0.2136525
0.957095,0.2745784,0.1950202
0.9657695,0.2876781,0.1861368
0.9621134,0.2767063,0.2027229
0.952442,0.2512624,0.2365768
0.949213,0.2479142,0.2492003
0.9565072,0.259791,0.2302704
0.9613186,0.2670954,0.2200022
0.9577948,0.2683492,0.2231756
0.9531499,0.2657892,0.2194182
0.9558872,0.2620723,0.2142828
0.9568482,0.2550306,0.2167937
0.9539015,0.2540556,0.2197542
0.95619,0.2623163,0.2233645
0.9536435,0.2619088,0.2395162
0.950461,0.253404,0.2510295
0.9527735,0.2389459,0.2453305
0.9549206,0.2282327,0.2402001
0.9610065,0.2362104,0.2339544
0.9608979,0.242741,0.2246086
0.9518505,0.2508631,0.2257056
0.9457323,0.2712402,0.2278417
0.9462615,0.2792276,0.2218735
0.9515509,0.2763978,0.2243664
0.9548665,0.2737322,0.2293124
0.9595785,0.2646697,0.2245968
0.9600408,0.2533677,0.2256124
0.9500579,0.2487289,0.2266344
0.9468528,0.2549737,0.224349
0.9548785,0.2636816,0.2271968
0.9617231,0.2639586,0.2286059
0.9544759,0.2655746,0.2369341
0.9460953,0.2701274,0.2452089
0.9546721,0.2665809,0.2409515
0.9575571,0.2626003,0.2384021
0.9510153,0.2554551,0.240126
0.9502996,0.2417773,0.2421395
0.9500058,0.2407697,0.2413881
0.9528007,0.2454698,0.2357573
0.9553856,0.2451901,0.2301101
0.953803,0.2524791,0.2281593
0.9539875,0.2622576,0.2321884
0.9532751,0.2647125,0.2345485
0.9525409,0.2637563,0.2316427
0.9527058,0.2626836,0.2293568
0.9529878,0.2618587,0.2273708
0.9538479,0.2594179,0.2274714
0.9535974,0.2557595,0.2307088
0.9516654,0.2549122,0.234072
0.9480305,0.2567812,0.2368564
0.9484809,0.257731,0.2365188
0.9521587,0.2585207,0.2331297
0.9530796,0.2602683,0.2311308
0.9531444,0.2607435,0.2302878
0.9524402,0.2627825,0.2299547
0.9528674,0.2652029,0.2294924
0.954112,0.2580974,0.2251347
0.9543086,0.2476797,0.2225119
0.956323,0.2454055,0.2281603
0.9568077,0.2419586,0.2420797
0.9537392,0.2380889,0.2611628
0.9492808,0.2481931,0.267387
0.9481783,0.2625898,0.2527587
0.9538212,0.2690757,0.2319335
0.9583376,0.2722081,0.2138008
0.9590419,0.2719015,0.2037721
0.9589105,0.2691452,0.1998903
0.9551659,0.2652617,0.1983607
0.949166,0.25436,0.2121422
0.9467945,0.2410607,0.2402287
0.945955,0.2366888,0.2643823
0.9406838,0.2427326,0.2732332
0.9378435,0.2504886,0.2687691
0.9421496,0.2523586,0.2635936
0.9461653,0.2514669,0.2522699
0.9477145,0.2512812,0.2360205
0.9492455,0.2529344,0.2314675
0.9525592,0.2569877,0.2296203
0.9549419,0.2566901,0.2288926
0.9557138,0.2461138,0.2333938
0.957322,0.2367248,0.2369962
0.9553351,0.2520835,0.2399729
0.9530424,0.2817967,0.2352479
0.954629,0.2878888,0.2291633
0.9554485,0.2665348,0.2233322
0.9564473,0.2443031,0.2089826
0.9576401,0.2419158,0.2030213
0.957555,0.2460096,0.207563
0.957028,0.243051,0.2183765
0.9542592,0.2510827,0.2390861
0.9517797,0.2581666,0.2472849
0.9535906,0.2543695,0.2405591
0.9551111,0.2575514,0.2423258
0.9537401,0.257246,0.2463432
0.9540434,0.2530383,0.2490491
0.9545582,0.2529209,0.2611879
0.953799,0.2519827,0.2634382
0.9543407,0.2537767,0.2476247
0.954035,0.2545593,0.236653
0.9530806,0.2555204,0.237358
0.9527299,0.2569278,0.2409557
0.9525114,0.2562978,0.2395402
0.9532093,0.2591263,0.236339
0.9536325,0.2574036,0.2327943
0.9542705,0.2528731,0.227859
0.9545218,0.2529499,0.2300872
0.9541262,0.2533991,0.2324209
0.9561091,0.255998,0.232382
0.9574333,0.258238,0.2318389
0.9556378,0.2600468,0.2253355
0.9531533,0.261785,0.2257725
0.9513174,0.2578814,0.2302846
0.9511551,0.2549116,0.2351812
0.9513317,0.2551856,0.2449763
0.9508451,0.2534478,0.2416687
0.9515011,0.2505569,0.233147
0.9531956,0.2497901,0.2334825
0.9530696,0.2543857,0.2349075
0.9513261,0.2596171,0.2377318
0.9512807,0.2599501,0.2371969
0.951167,0.2563582,0.2348422
0.9492302,0.2517377,0.2357009
0.9473687,0.2509487,0.2351791
0.9473472,0.2533917,0.2384628
0.9510611,0.2550209,0.2445588
0.9542113,0.2551561,0.2448266
0.9535418,0.2551984,0.2409628
0.9526838,0.2551073,0.2370419
0.9511221,0.2541939,0.2342464
0.9491889,0.2578619,0.2329058
0.9502382,0.2659652,0.2345474
0.9523007,0.2691274,0.2381258
0.9527877,0.2640096,0.2395794
0.9519139,0.2563369,0.2389325
0.9500766,0.2532586,0.238598
0.9491582,0.2525973,0.2395631
0.9485631,0.2522316,0.2416569
0.9473058,0.2534013,0.2436828
0.9504452,0.2529397,0.2436978
0.9547046,0.2544444,0.243485
0.9536745,0.2575379,0.2458242
0.9539882,0.2553601,0.2459391
0.9567363,0.248769,0.2425964
0.9562101,0.2430286,0.2421516
0.9525745,0.2492044,0.2467919
0.948605,0.263032,0.2502015
0.9502086,0.2694974,0.2417017
0.9557331,0.2700175,0.2314587
0.9576453,0.260342,0.234248
0.9563779,0.2441284,0.2361805
0.9521491,0.2391253,0.2375543
0.9486464,0.2398053,0.2460544
0.9508557,0.24229,0.2445894
0.9522862,0.2498117,0.2399883
0.951221,0.2528771,0.2436384
0.9521708,0.2564692,0.2427965
0.9532681,0.2643553,0.2411386
0.9526152,0.2629201,0.2415366
0.9516096,0.2558658,0.2400091
0.9513475,0.2530214,0.2415282
0.9512452,0.2511543,0.2439272
0.9512739,0.2507019,0.2471925
0.9506117,0.2501386,0.2522132
0.9496914,0.2490625,0.2522442
0.9509564,0.2556634,0.2387605
0.9511267,0.2625276,0.224371
0.9475247,0.2603443,0.2354272
0.9437944,0.2601155,0.2483337
0.9448544,0.2642905,0.2414307
0.9505592,0.2645555,0.2406246
0.9541532,0.2630044,0.2415946
0.9531808,0.2566508,0.2357025
0.9519839,0.2445419,0.2339508
0.9530219,0.243785,0.2305763
0.9531478,0.2505422,0.2343594
0.9516722,0.2521859,0.2462548
0.9502667,0.2602564,0.2471643
0.9469537,0.2690737,0.2449321
0.9469737,0.268408,0.2446746
0.9519412,0.2668319,0.2375499
0.9543596,0.2626329,0.2309959
0.9546798,0.2562773,0.2329469
0.9537743,0.2503915,0.2391073
0.9529596,0.2439843,0.2448434
0.9530695,0.2446305,0.2504674
0.9522394,0.2490085,0.2496739
0.9523464,0.2505822,0.2444035
0.9493751,0.2566027,0.2452919
0.9458267,0.2635374,0.2436115
0.9485471,0.26273,0.2412397
0.9519425,0.2612922,0.242601
0.9551579,0.258037,0.2392767
0.9581743,0.2473563,0.240751
0.9564261,0.2389972,0.2431709
0.9524953,0.2389872,0.2412962
0.9499925,0.2489379,0.2456752
0.9500963,0.2651711,0.2470084
0.9513093,0.2733836,0.2400324
0.9510338,0.2684968,0.2333239
0.9520538,0.2593006,0.2341008
0.9546322,0.2494021,0.2377427
0.95409,0.2380203,0.2356242
0.9521854,0.23672,0.2366945
0.9493736,0.2420881,0.2421343
0.9455429,0.2443772,0.2489105
0.9461471,0.2558837,0.2552483
0.9473994,0.2688778,0.2522176
0.9495743,0.2729815,0.2461559
0.9555021,0.2737735,0.2404926
0.9550921,0.2691802,0.2348739
0.9525765,0.2640446,0.2349412
0.9540845,0.2559483,0.2350201
0.9526983,0.2475577,0.2342153
0.9530301,0.2457574,0.2350598
0.9552552,0.2426667,0.2357426
0.9536316,0.245164,0.2402981
0.9530389,0.2485225,0.247184
0.9531468,0.2493193,0.2496142
0.9531745,0.2589577,0.2497622
0.9546365,0.2639617,0.2497112
0.9529793,0.2616555,0.244748
0.9506292,0.2564026,0.2387298
0.9515728,0.2493119,0.2387899
0.9531057,0.2494958,0.2427587
0.953442,0.2502391,0.2455554
0.953209,0.2499825,0.2437066
0.9544497,0.2510593,0.242008
0.9546416,0.2541897,0.2437226
0.9533396,0.2596,0.2440391
0.9534418,0.2573082,0.2439969
0.9517024,0.2530781,0.2427521
0.9506229,0.252711,0.2385975
0.9519198,0.2532709,0.2364318
0.9512317,0.2549799,0.2361166
0.9508982,0.2543736,0.2372679
0.9498775,0.2559794,0.2407916
0.9485047,0.2597447,0.2433591
0.9521468,0.2595883,0.2461273
0.9552782,0.2566352,0.249685
0.9525208,0.2527738,0.248591
0.949899,0.2520535,0.2440624
0.9504163,0.2528557,0.2431982
0.9484182,0.2512874,0.2474263
0.9464791,0.2511243,0.2507202
0.9502497,0.2541158,0.2446386
0.9525541,0.2578383,0.2333025
0.951518,0.2602563,0.2311787
0.9529478,0.2595333,0.2385667
0.9549041,0.2573129,0.2439965
0.9540258,0.2582839,0.2430115
0.9518489,0.2587112,0.2445925
0.9511361,0.2556389,0.2497086
0.9507414,0.2543912,0.2430174
0.948778,0.2539202,0.2350535
0.9465438,0.2537686,0.2403344
0.94755,0.2537809,0.243611
0.9524761,0.2520714,0.2439451
0.9547115,0.2529653,0.2435284
0.9517082,0.2541043,0.2356373
0.9489139,0.2533873,0.2325799
0.9505995,0.2519425,0.2397022
0.9519214,0.2494249,0.2464085
0.9472443,0.2523133,0.2480233
0.9446929,0.2561011,0.2500378
0.9476805,0.2546879,0.2539719
0.9512465,0.2553505,0.2550243
0.9538939,0.2553673,0.2566961
0.9525582,0.2505601,0.2536272
0.9503447,0.2473497,0.2470315
0.949965,0.2482953,0.250149
0.9501581,0.2500634,0.248979
0.952994,0.2518657,0.2396443
0.9551576,0.2550339,0.2361583
0.9551299,0.2555936,0.2377954
0.9551668,0.2556614,0.2439371
0.9536078,0.2594434,0.2476874
0.950405,0.2575976,0.2470783
0.9494592,0.2525835,0.2468909
0.9530494,0.2528256,0.2427069
0.957945,0.2527422,0.2385604
0.9600244,0.2539626,0.2395367
0.9553548,0.2566856,0.2448248
0.9479311,0.2564599,0.2495986
0.9458839,0.254675,0.2527183
0.9447009,0.2512727,0.2578197
0.9463602,0.250577,0.2535153
0.9550423,0.2505443,0.2362229
0.9579678,0.2492834,0.2221407
0.95228,0.2526056,0.2272219
0.9494186,0.2543578,0.2384437
0.9559517,0.2539644,0.2323337
0.9619547,0.2548039,0.2306145
0.9551704,0.2547744,0.2343429
0.9504522,0.2578042,0.2251414
0.9566874,0.2619618,0.2255129
0.9597096,0.2645546,0.2292612
0.9577826,0.26227,0.2319712
0.9552661,0.2513966,0.2462945
0.9523759,0.2393318,0.2543992
0.9491,0.2320022,0.2577817
0.9459062,0.2335642,0.2555989
0.9469442,0.2405506,0.2460727
0.9486958,0.2470923,0.2448554
0.9493972,0.2580973,0.2421856
0.9531881,0.2681665,0.2333729
0.9537415,0.2694953,0.2244571
0.9517648,0.2656482,0.2188422
0.9532122,0.2635018,0.2178465
0.9538431,0.2630825,0.2191828
0.9567516,0.2583663,0.2260067
0.9612042,0.2566748,0.2249188
0.957876,0.2576498,0.2209086
0.9531655,0.2545135,0.2277312
0.9523808,0.2554685,0.2302658
0.9513128,0.2579619,0.2342273
0.9528025,0.2601029,0.2377594
0.9554729,0.2620519,0.2357929
0.9547793,0.2529176,0.2408675
0.954453,0.2436366,0.239255
0.9545066,0.2485295,0.2370133
0.9536248,0.253594,0.240908
0.954221,0.2541671,0.2384441
0.9534595,0.2622774,0.2424369
0.9529903,0.2652642,0.245757
0.9574919,0.2521545,0.2400368
0.9611667,0.2406278,0.2367292
0.9600366,0.2375271,0.2316676
0.9578315,0.2393432,0.2251721
0.9547289,0.2439501,0.2217845
0.9501856,0.2513497,0.2218148
0.9510963,0.2639485,0.2244917
0.9547199,0.2699679,0.2354804
0.9523796,0.2666847,0.2481259
0.9536634,0.2575598,0.2408266
0.9592276,0.246762,0.2343931
0.9600046,0.2552704,0.2396199
0.9594469,0.2705341,0.2353049
0.954246,0.269254,0.235615
0.9447339,0.263821,0.2424965
0.9405832,0.2577996,0.2428117
0.9462025,0.2527817,0.2418417
0.9533832,0.2505513,0.2383631
0.9519213,0.2428648,0.240745
0.9589946,0.2433488,0.2534876
0.9691325,0.2563713,0.2624114
0.9529113,0.2612054,0.2588643
0.9354651,0.2478738,0.2541246
0.939737,0.2320357,0.266834
0.9431434,0.2351353,0.2752045
0.9431398,0.2401028,0.2581019
0.9516461,0.2414379,0.2395279
0.9590742,0.2558057,0.2329922
0.9575413,0.2565095,0.2324596
0.9478955,0.25209,0.2291854
0.9384293,0.267463,0.2264676
0.9510425,0.2725241,0.2289473
0.967096,0.2707189,0.2238706
0.9577147,0.2696809,0.2230002
0.9531265,0.2583691,0.2326691
0.9584048,0.2499149,0.2355866
0.954927,0.2410723,0.23369
0.9567368,0.2398699,0.2319921
0.9565266,0.2498035,0.238649
0.9519289,0.2505571,0.2467879
0.9550109,0.2500351,0.2437255
0.9544981,0.2514677,0.2483377
0.9532836,0.255459,0.2569117
0.9552174,0.2628174,0.2529778
0.955961,0.2606992,0.2447732
0.9630618,0.259928,0.2362257
0.9663652,0.2621825,0.234079
0.9508073,0.2581795,0.2441997
0.9299854,0.2542342,0.2521664
0.9270989,0.246311,0.2488786
0.9366246,0.2393266,0.2477889
0.9425813,0.2456264,0.250385
0.9490115,0.2546527,0.243408
0.9499647,0.2576624,0.2357853
0.9486145,0.265511,0.2343448
0.9577394,0.2787626,0.2324563
0.9583271,0.2804026,0.2366231
0.9520914,0.2688218,0.2443646
0.9532697,0.2557981,0.2426021
0.9533395,0.2511217,0.2403708
0.9580997,0.2622026,0.2477844
0.9604137,0.2793716,0.2560501
0.9455814,0.2864404,0.2617015
0.9327315,0.2852386,0.2639395
0.9378738,0.2855224,0.269262
0.9430072,0.2809294,0.2923914
1.014838,0.04427586,0.1527152
1.013889,0.04518211,0.1499984
1.01949,0.04386875,0.1540397
1.021863,0.04013241,0.1569326
1.014618,0.04434781,0.1592888
1.008147,0.04811151,0.1680536
1.006458,0.05733663,0.1708276
1.013723,0.06015539,0.1632698
1.020125,0.046952,0.1566631
1.017146,0.03963054,0.1643521
1.011888,0.03862075,0.1742495
1.008513,0.04700141,0.1672895
1.009211,0.05836363,0.1603629
1.010055,0.05963768,0.1615299
1.007229,0.06158088,0.1713357
1.007376,0.06055695,0.1857213
1.012603,0.05467857,0.1714062
1.017429,0.04702259,0.1541247
1.01826,0.03351004,0.1683116
1.007805,0.02066144,0.1766357
0.9868163,0.01990306,0.1799156
0.9789282,0.03448015,0.1896631
0.988175,0.04643651,0.185962
0.9920906,0.04661624,0.1828211
0.9922617,0.04292366,0.1793723
0.9970554,0.04004632,0.1674504
0.9987603,0.04255159,0.166093
1.00417,0.04408085,0.1635881
1.017492,0.04498784,0.1533853
1.018824,0.04608627,0.1544578
1.01066,0.03917182,0.1524175
1.010705,0.03369458,0.142143
1.011439,0.0369251,0.1467831
1.010469,0.04795401,0.1554428
1.010833,0.05807217,0.1573007
1.008941,0.05782261,0.1627721
1.009938,0.05767687,0.163659
1.011817,0.0583039,0.1626272
1.014309,0.05661613,0.1645694
1.017833,0.06000172,0.1618688
1.013122,0.06411534,0.1653913
1.005642,0.06437559,0.1713856
1.000915,0.06524255,0.1694656
0.99776,0.0718645,0.1646061
1.000533,0.07904536,0.1569854
1.009875,0.075756,0.1548779
1.021913,0.06599663,0.153146
1.024314,0.05692531,0.1460663
1.015733,0.05245984,0.149552
1.011943,0.05975706,0.1548005
1.012743,0.06761906,0.1528964
1.014209,0.06376906,0.1506011
1.01987,0.05704228,0.1447677
1.022897,0.04832793,0.1427574
1.016113,0.04339296,0.1463115
1.003264,0.05213579,0.1490039
0.9969551,0.05951761,0.1571637
1.001264,0.06020192,0.1635208
1.00501,0.06090239,0.1613822
1.009698,0.06309046,0.1630331
1.020719,0.07062855,0.1656074
1.023933,0.07969362,0.1588466
1.014376,0.0931837,0.1514995
1.007341,0.1078326,0.1510498
1.008368,0.1090544,0.1513105
1.012321,0.1084445,0.1540871
1.017783,0.1078825,0.1626585
1.019678,0.09071188,0.1659651
1.01306,0.06606041,0.1664045
1.006056,0.04954298,0.1704516
1.006688,0.04554516,0.16717
1.007012,0.0471299,0.1618523
1.003215,0.04497996,0.1615971
1.002898,0.04318119,0.1564218
1.002256,0.04051462,0.153672
1.000328,0.037973,0.1633916
1.001903,0.04300796,0.1742388
1.001653,0.04692975,0.1737174
1.003081,0.04653965,0.1643945
1.010894,0.04916763,0.1576872
1.019516,0.05307896,0.1549869
1.022215,0.05462896,0.1486323
1.015621,0.0543037,0.1384035
1.010503,0.05097896,0.1329599
1.010802,0.04612485,0.137489
1.008571,0.05103974,0.1449119
1.008803,0.06090363,0.1500463
1.015032,0.06486402,0.1619561
1.019221,0.07058873,0.1768901
1.015068,0.06815661,0.1753305
1.010982,0.05542126,0.1667412
1.017235,0.05264935,0.1638022
1.019722,0.05425221,0.1541453
1.006687,0.05391034,0.1459041
0.99184,0.05192304,0.1484888
0.9888954,0.04435482,0.157419
0.9956126,0.03717402,0.1696323
1.007108,0.03288898,0.168605
1.023513,0.03727566,0.1684614
1.028319,0.04947707,0.1808575
1.014595,0.05840538,0.1764558
1.0088,0.06008317,0.1694145
1.011018,0.05163198,0.1669768
1.009287,0.04217499,0.1477915
1.016708,0.03755945,0.1409432
1.025204,0.03805239,0.1497281
1.018368,0.0429541,0.1503143
1.004732,0.04003961,0.1561889
0.9941465,0.03799582,0.1634907
0.9916217,0.03876536,0.1599992
1.005281,0.03494659,0.1539107
1.023781,0.03590598,0.1500544
1.024299,0.03279795,0.1510716
1.017477,0.03058538,0.1558047
1.013602,0.03520144,0.1629498
1.003038,0.03788051,0.1716475
0.9969131,0.04898786,0.1727837
1.001607,0.05330629,0.1680718
1.00848,0.04640806,0.1656064
1.0171,0.04720959,0.1607852
1.021058,0.04514869,0.1604884
1.01353,0.04217155,0.1701446
1.005684,0.04297901,0.1735888
1.0048,0.04498191,0.1698789
1.002571,0.05079453,0.1657797
1.002669,0.04934162,0.1625489
1.007534,0.04812713,0.1616708
1.009867,0.05345709,0.1592805
1.013256,0.05301119,0.161838
1.012821,0.05235005,0.1655519
1.009556,0.05308382,0.1611
1.014313,0.05127002,0.1579423
1.018482,0.04941692,0.1554948
1.018857,0.04423523,0.1535763
1.014964,0.03994696,0.1573876
1.005678,0.04159393,0.1611777
1.003984,0.04394579,0.161604
1.007017,0.04577538,0.1591151
1.007979,0.04883179,0.1558256
1.010495,0.05002069,0.1543611
1.009446,0.05051709,0.1598336
1.0054,0.0544695,0.1695737
1.0037,0.05742071,0.1705965
1.006033,0.05999125,0.1642694
1.013588,0.06337094,0.1534132
1.017539,0.06319548,0.1419368
1.010767,0.0655106,0.1444114
1.004289,0.06667988,0.1505374
1.008698,0.06378983,0.1477451
1.013061,0.06584975,0.1500583
1.011131,0.06626196,0.1522002
1.012674,0.06696664,0.1449257
1.013695,0.0702936,0.1436374
1.013241,0.06396672,0.1462927
1.015729,0.05590726,0.1471407
1.011757,0.05539545,0.1513736
1.006827,0.06001689,0.1508796
1.008656,0.06431858,0.1495004
1.009561,0.06160383,0.1526097
1.010413,0.05987554,0.1513597
1.013528,0.06185895,0.1510721
1.016135,0.06084329,0.1539217
1.01583,0.05992779,0.1542858
1.013892,0.05979061,0.1543992
1.012251,0.05977453,0.1527662
1.006947,0.06173473,0.1477721
1.004154,0.06321751,0.1446592
1.008892,0.06345025,0.1524889
1.011245,0.06375031,0.1635392
1.011529,0.06320761,0.1606259
1.014689,0.0624411,0.1582807
1.015847,0.06414941,0.1641728
1.013279,0.065805,0.1618049
1.012535,0.06313275,0.1567019
1.01713,0.05920096,0.1507839
1.021074,0.05666325,0.1440735
1.019121,0.05518207,0.1476655
1.015899,0.05710842,0.1497215
1.013728,0.05908081,0.150017
1.008256,0.05606592,0.1601033
1.001155,0.05259653,0.1665899
1.001166,0.05159697,0.1642483
1.008525,0.05111743,0.1624652
1.01311,0.05122806,0.1634884
1.011101,0.05065129,0.1632636
1.008547,0.04991122,0.1643508
1.006468,0.05301691,0.1690229
1.003392,0.05980221,0.1664107
1.00564,0.06389808,0.1590429
1.010443,0.0594988,0.156403
1.009857,0.05273636,0.1595622
1.009354,0.05261605,0.1677919
1.009974,0.0559554,0.170367
1.008476,0.05890651,0.1678125
1.008037,0.06116512,0.1645837
1.007057,0.06283052,0.1605189
1.004842,0.06387795,0.1677072
1.004239,0.05953684,0.1757401
1.006595,0.0548934,0.1708869
1.009805,0.0565162,0.1682667
1.009311,0.05489373,0.170278
1.008702,0.05034951,0.1703268
1.007468,0.05246017,0.1744662
1.002499,0.05920886,0.1790056
1.002384,0.0641125,0.173133
1.006274,0.06227399,0.1654945
1.006881,0.05852734,0.1678266
1.004534,0.05954969,0.1755123
1.001583,0.05847942,0.1821339
1.00286,0.05581458,0.1820835
1.00548,0.05812675,0.1797296
1.005401,0.05917684,0.181048
1.005898,0.05946473,0.1736758
1.005664,0.06379858,0.1640734
1.005963,0.06463509,0.1677149
1.006971,0.05650325,0.1690989
1.005941,0.04860836,0.1641496
1.007131,0.05362523,0.1633285
1.008304,0.06046108,0.1607998
1.007265,0.05699318,0.1597489
1.008104,0.05431695,0.1624658
1.009309,0.05479506,0.1607247
1.010805,0.0621649,0.1602008
1.013446,0.07381557,0.1597148
1.015753,0.06811082,0.1544027
1.014822,0.0574679,0.1540224
1.010191,0.05677648,0.1590544
1.006581,0.05541428,0.1651271
1.002257,0.05749374,0.1682223
0.9998912,0.06000023,0.1644532
1.003441,0.06015255,0.1625908
1.005711,0.06293687,0.1640773
1.009296,0.05827379,0.1648592
1.013781,0.05375289,0.1672401
1.011606,0.05933992,0.1657134
1.007567,0.0650205,0.1578391
1.004633,0.06797455,0.1536141
1.005663,0.0678064,0.1614451
1.011137,0.06377162,0.1695311
1.013378,0.05872054,0.1614533
1.012228,0.05724953,0.1529807
1.008363,0.05984992,0.1551574
1.002089,0.05988763,0.1526101
1.000264,0.05853463,0.1502454
1.008477,0.05950072,0.1539279
1.017172,0.06435409,0.1585956
1.011738,0.06935502,0.1693665
1.006521,0.06422278,0.1705276
1.011201,0.05819316,0.1587567
1.010062,0.0615172,0.1600704
1.008504,0.06221949,0.1637964
1.010868,0.06008616,0.1592464
1.008644,0.06251929,0.1605609
1.006919,0.06300667,0.1585873
1.005283,0.06198465,0.1531784
1.005504,0.06286915,0.1566059
1.011069,0.06306051,0.1601471
1.013455,0.06600096,0.1621053
1.012547,0.06884625,0.1637767
1.011073,0.06355966,0.1618932
1.009827,0.05261888,0.1633046
1.009844,0.04528472,0.1648274
1.008447,0.04634136,0.1632617
1.005509,0.04700038,0.1641004
1.00045,0.04456824,0.1640091
0.9964747,0.04614694,0.1635828
0.994502,0.04642576,0.1638702
0.9961996,0.0467353,0.1618566
1.008952,0.05766773,0.1610083
1.018648,0.07492228,0.1627578
1.016502,0.08644893,0.1625325
1.018432,0.08595136,0.153375
1.024177,0.08067202,0.1436666
1.022164,0.06499245,0.1487381
1.015407,0.02026691,0.1560202
1.009375,-0.01698005,0.1563569
0.9988398,-0.004450241,0.1619571
0.9890607,0.02290158,0.167023
0.990866,0.03888396,0.1626093
0.9982607,0.05527818,0.153355
1.004345,0.06003151,0.1443065
1.003475,0.05647294,0.1483249
0.9988396,0.05472374,0.1616271
0.9976351,0.04199014,0.1632834
0.9994042,0.03770131,0.1488982
1.02126,0.05849711,0.1174676
1.057359,0.07639275,0.08009169
1.064939,0.06879583,0.0594082
1.04404,0.05199752,0.06299881
1.029087,0.04093763,0.08606968
1.02294,0.00915377,0.1087023
1.010356,-0.04360883,0.1220633
0.9930601,-0.09331153,0.1273322
0.9852526,-0.1246422,0.1137518
1.002635,-0.118083,0.09282119
1.032362,-0.09826364,0.08379672
1.05095,-0.07072914,0.07844535
1.068113,-0.03950447,0.06153037
1.06809,-0.05436067,0.05349654
1.039547,-0.07321007,0.08654593
1.015274,-0.06476661,0.128027
0.9838441,-0.07475584,0.1309794
0.9602096,-0.0861603,0.1137084
0.9849015,-0.08801,0.1095951
1.010836,-0.08356978,0.1137346
1.014005,-0.07168109,0.1170969
1.016589,-0.09561608,0.1316712
1.015158,-0.1256775,0.1442238
1.016475,-0.1085787,0.1211707
1.025368,-0.06946299,0.07459446
1.035481,-0.02035434,0.04867004
1.041918,0.01548711,0.05189359
1.044998,0.01818864,0.06122197
1.049151,0.004782677,0.06512715
1.053294,-0.02819998,0.06307855
1.05884,-0.06510308,0.05195819
1.054252,-0.1281269,0.0211727
1.04392,-0.2010492,-0.001855564
1.045961,-0.1504806,0.04080294
1.028372,-0.01444101,0.114316
0.9789222,0.08229595,0.1467246
0.944711,0.1079428,0.1482139
0.9554462,0.01612334,0.1178928
1.005548,-0.1036915,0.05230264
1.053968,-0.142828,0.03361424
1.052212,-0.1293031,0.1066912
1.016183,-0.05496204,0.1954024
0.9998496,0.02905172,0.2165389
1.010277,0.05329269,0.197353
1.030054,0.03553241,0.1851928
1.04619,-0.001985494,0.1500939
1.029283,-0.03429798,0.1242108
0.9954923,-0.05721093,0.1419179
0.9858126,-0.0468012,0.1397225
0.9883989,-0.02685766,0.1282767
0.9937628,-0.02896228,0.1340757
1.008738,-0.01409948,0.1319756
1.024273,-0.01198235,0.136094
1.023024,-0.01015976,0.1413476
1.014343,-0.006056564,0.1383047
1.021322,-0.02848271,0.1397369
1.021141,-0.02357419,0.1411762
1.014259,-0.02023912,0.1431144
1.017073,-0.02194922,0.1451941
1.011065,-0.01281925,0.1450856
1.014015,-0.01821313,0.1438948
1.022022,-0.005752691,0.1439563
1.015354,-0.00759325,0.1468753
1.014054,-0.01610498,0.1460437
1.013271,-0.005120431,0.1454564
1.019092,-0.008618494,0.147171
1.034313,-0.001102425,0.1408626
1.037318,-0.001137636,0.1257491
1.034361,-0.01457096,0.1164825
1.025659,-0.01778095,0.1236363
1.016764,-0.03244489,0.1273829
1.020434,-0.03955392,0.1186437
1.028666,-0.04299687,0.1175688
1.033038,-0.04822241,0.1245782
1.024335,-0.039674,0.1343119
1.006628,-0.03863289,0.1460465
0.9947061,-0.04352462,0.1554981
0.9928341,-0.046602,0.1691041
0.9933304,-0.04318941,0.1829192
0.9914498,-0.03168883,0.1928874
0.995572,-0.02293292,0.2029701
1.004036,-0.01212707,0.2008688
1.015667,-0.01005422,0.1872328
1.025228,-0.01376973,0.1763083
1.019133,-0.007063933,0.1692893
1.012256,-0.004259497,0.1655373
1.008731,-0.006992028,0.1650107
0.9993727,-0.0108003,0.1659705
0.9988188,-0.02068156,0.1638574
1.004702,-0.03492397,0.1612258
1.010206,-0.04330717,0.1644709
1.01907,-0.03639638,0.1648475
1.019493,-0.02722295,0.1636226
1.013707,-0.02545218,0.1693142
1.006591,-0.03776606,0.1747435
0.9920756,-0.06206604,0.1778369
0.9868687,-0.06435461,0.178308
0.9970896,-0.0505934,0.1709765
1.009495,-0.04494582,0.1620854
1.024476,-0.03194183,0.1624012
1.03555,-0.01571149,0.1659713
1.040147,-0.01098056,0.1640322
1.043924,-0.01616458,0.1657272
1.03296,-0.02899225,0.1701127
1.009301,-0.04302339,0.1698356
0.9930958,-0.04848346,0.1672499
0.9924511,-0.03694403,0.1620555
1.009398,-0.02791037,0.1629313
1.025894,-0.03446199,0.1641365
1.026826,-0.04047751,0.1535194
1.021842,-0.05194909,0.147978
1.015696,-0.06271692,0.1528272
1.011362,-0.0589799,0.1576347
1.013365,-0.05568626,0.1573593
1.016794,-0.05252322,0.1540388
1.013795,-0.04710744,0.1547017
1.008761,-0.0440372,0.1562739
1.010333,-0.04044066,0.159961
1.01754,-0.0406875,0.162813
1.026275,-0.04081878,0.1602358
1.021631,-0.03631671,0.1618772
1.009952,-0.03421225,0.16513
1.012361,-0.03334021,0.1664182
1.018491,-0.03253676,0.1614095
1.0264,-0.03448414,0.1454418
1.030776,-0.03604796,0.1367653
1.022899,-0.03777712,0.1427249
1.018488,-0.03897935,0.1482339
1.012253,-0.03992857,0.1471003
1.007348,-0.04629273,0.1500083
1.012479,-0.04860725,0.1553353
1.0156,-0.04210253,0.1524157
1.020443,-0.03519847,0.153502
1.018528,-0.03052097,0.1596493
1.008337,-0.03498609,0.163549
1.00443,-0.04123201,0.173578
0.9988563,-0.03753526,0.1845814
0.9974351,-0.03375018,0.1886674
1.003961,-0.03205555,0.1863933
1.009216,-0.03344362,0.1798447
1.014276,-0.03778545,0.1698041
1.01138,-0.03433831,0.1596764
1.008443,-0.03194641,0.1572528
1.016388,-0.03611912,0.1517928
1.020741,-0.03652516,0.1445854
1.018119,-0.03592267,0.1503648
1.011805,-0.0362457,0.1588853
1.005202,-0.03589236,0.1648752
1.008325,-0.03618733,0.1644118
1.019043,-0.03505761,0.1572276
1.027258,-0.03407214,0.1573748
1.025094,-0.03212452,0.1605697
1.015244,-0.02687987,0.1701036
1.006014,-0.0231783,0.1855021
1.000351,-0.02314518,0.1850612
1.004494,-0.02346276,0.1785524
1.013544,-0.02366879,0.1781524
1.015684,-0.02811642,0.177103
1.013069,-0.03587992,0.1791219
1.008833,-0.04013677,0.178411
1.009327,-0.0353734,0.1732651
1.014042,-0.02709842,0.1736153
1.014675,-0.02754511,0.1743145
1.016017,-0.0320086,0.1759369
1.016448,-0.03567481,0.1801769
1.013869,-0.03770422,0.1796615
1.005771,-0.02884713,0.1822084
0.9897936,-0.01996349,0.1919545
0.9887682,-0.02171691,0.1969779
1.003487,-0.02412598,0.1894951
1.015116,-0.0266565,0.1803581
1.020246,-0.03204466,0.1835183
1.011382,-0.03225314,0.1861977
1.000016,-0.02443281,0.1846914
0.9992233,-0.01939055,0.1876098
1.001048,-0.0220381,0.1843702
1.007049,-0.02842687,0.1780275
1.013423,-0.03410274,0.1737201
1.012934,-0.03108709,0.1710927
1.010124,-0.02317863,0.1756942
1.009057,-0.01865122,0.1781177
1.010183,-0.01954721,0.1808738
1.010478,-0.02692529,0.1881111
1.010448,-0.03190599,0.1905117
1.011802,-0.02943453,0.1855201
1.016185,-0.02237767,0.1695651
1.021625,-0.01461845,0.1564148
1.019309,-0.0139231,0.1572684
1.014229,-0.01756291,0.1657588
1.009308,-0.02191441,0.1763437
1.000315,-0.02918649,0.1774019
0.9990164,-0.03082956,0.1786582
1.006834,-0.02551249,0.1849919
1.01435,-0.02316001,0.1820293
1.018292,-0.02167921,0.1815192
1.012307,-0.01890425,0.1884854
1.001502,-0.01619177,0.1916363
0.9966299,-0.01233776,0.1905592
0.9989399,-0.01202637,0.1884344
1.005361,-0.00810127,0.1853044
1.008264,0.0001380916,0.180288
1.008074,-0.004500408,0.1799726
1.009282,-0.01219902,0.1819197
1.010497,-0.01535115,0.1798556
1.012654,-0.02163244,0.1818646
1.014922,-0.02041819,0.1855215
1.016916,-0.01792292,0.1854638
1.017848,-0.0236587,0.1860671
1.014485,-0.02505788,0.1867702
1.009623,-0.02281305,0.1884704
1.006402,-0.01847663,0.1901963
1.003594,-0.01298605,0.190296
1.001888,-0.01620296,0.1906651
1.00495,-0.02188844,0.1895153
1.00771,-0.02418774,0.1887118
1.006506,-0.02441972,0.1871605
1.007154,-0.02155852,0.1833606
1.007053,-0.02133013,0.1813411
1.006723,-0.02221056,0.1814367
1.008707,-0.02278494,0.1834115
1.009996,-0.02553565,0.1816233
1.01224,-0.02467823,0.1757281
1.013263,-0.02248414,0.1725502
1.014815,-0.01954524,0.1730767
1.017306,-0.01372592,0.1765611
1.014902,-0.013181,0.1775789
1.009362,-0.02209026,0.180319
1.002791,-0.03680423,0.1843475
1.004341,-0.04137995,0.1778898
1.015259,-0.03045075,0.1727091
1.020869,-0.02217737,0.1769563
1.018142,-0.02125876,0.1830083
1.007896,-0.02198748,0.1896476
1.000209,-0.02097111,0.1932925
1.00687,-0.01831261,0.1904858
1.012366,-0.01947271,0.1859985
1.006961,-0.02056017,0.184344
1.002605,-0.02151494,0.1808738
1.002864,-0.02493441,0.1782749
1.004177,-0.0248231,0.1824796
1.011285,-0.02444042,0.1863674
1.020806,-0.02567799,0.1879436
1.020419,-0.02507271,0.18934
1.014887,-0.02662213,0.1915614
1.009243,-0.02852289,0.1952399
1.00254,-0.02660191,0.1969691
1.002795,-0.02437604,0.1936736
1.004931,-0.02225275,0.1880061
1.001795,-0.02016242,0.1897635
1.003361,-0.02147292,0.1920804
1.009237,-0.023094,0.1884669
1.01084,-0.02198696,0.18884
1.006558,-0.02195743,0.1876003
1.000501,-0.02261343,0.186215
1.003683,-0.02233991,0.1888125
1.010054,-0.02400928,0.1869328
1.009419,-0.02500404,0.1872059
1.009941,-0.02142608,0.1893806
1.009185,-0.01808092,0.1920207
1.007783,-0.01955614,0.1976098
1.008898,-0.02206304,0.1936
1.00523,-0.02225644,0.1855305
1.005946,-0.02236058,0.1838436
1.012793,-0.02314729,0.1817873
1.016525,-0.02678907,0.1755859
1.016272,-0.03261328,0.1693168
1.012493,-0.03288915,0.1765558
1.008359,-0.03084062,0.1926549
1.001761,-0.03123119,0.2005772
1.001758,-0.02845211,0.2022536
1.011493,-0.02255355,0.1922163
1.013538,-0.01691303,0.1772825
1.012609,-0.01589161,0.1784364
1.013563,-0.02171446,0.1805037
1.013471,-0.0270832,0.1750113
1.014311,-0.02809828,0.1750015
1.010544,-0.02509791,0.1772083
1.008975,-0.02126854,0.1801757
1.011078,-0.02274564,0.183955
1.010836,-0.02638661,0.1876937
1.01072,-0.02728889,0.1902099
1.009167,-0.02306817,0.1847422
1.010535,-0.01703857,0.1825342
1.011695,-0.01933355,0.1851986
1.008628,-0.02291327,0.1814242
1.008311,-0.0202504,0.1855833
1.008998,-0.0163981,0.1929565
1.01034,-0.01258983,0.1887072
1.01092,-0.01998544,0.1870763
1.010504,-0.03095614,0.1848547
1.009873,-0.02420476,0.1772114
1.003464,-0.0188171,0.1767632
0.9988514,-0.02290175,0.1797418
1.001566,-0.02286201,0.18389
1.007109,-0.02550094,0.1878532
1.012451,-0.02585965,0.1808316
1.013319,-0.02167464,0.1710355
1.012226,-0.0224991,0.1736476
1.012343,-0.02214887,0.1799633
1.012675,-0.02187054,0.180857
1.012181,-0.02359326,0.1820481
1.010486,-0.02517588,0.1817997
1.010142,-0.02772514,0.1806466
1.013142,-0.02120149,0.1802587
1.0176,-0.01356462,0.1770009
1.016498,-0.0185146,0.1778411
1.010415,-0.02147626,0.1814662
1.005402,-0.01879388,0.1798828
1.002748,-0.0210904,0.1737852
1.005208,-0.02342676,0.1687596
1.007244,-0.02188091,0.1704782
1.007347,-0.02213602,0.1709667
1.010827,-0.02354249,0.1684081
1.010999,-0.02358655,0.1695366
1.012873,-0.02361163,0.1700069
1.020749,-0.02262188,0.1699731
1.021116,-0.02221315,0.172486
1.014196,-0.0241222,0.1781494
1.00828,-0.02553944,0.1866087
1.007212,-0.02539112,0.1895843
1.010019,-0.02547907,0.1843511
1.01003,-0.02665699,0.1779622
1.009315,-0.02575658,0.1728205
1.010052,-0.02473102,0.1741584
1.009907,-0.02830819,0.185835
1.011506,-0.03193154,0.1917383
1.013004,-0.03087624,0.1826
1.011629,-0.02377948,0.1740538
1.010761,-0.0174571,0.1772681
1.012208,-0.02236464,0.179617
1.013929,-0.02764501,0.1732282
1.014034,-0.02263689,0.1718989
1.01383,-0.01789023,0.172924
1.013923,-0.01695993,0.1724129
1.013111,-0.01839213,0.1793425
1.00986,-0.02298308,0.1834608
1.004515,-0.02389569,0.1812935
1.004507,-0.02445211,0.1797497
1.0128,-0.02646831,0.1802843
1.018693,-0.02405932,0.1818741
1.014206,-0.02447424,0.1815198
1.008331,-0.02418391,0.1836549
1.009691,-0.02112783,0.1823488
1.010586,-0.02530839,0.1775816
1.01038,-0.02643452,0.1759943
1.014526,-0.01948049,0.170762
1.01584,-0.01392921,0.1714331
1.012892,-0.01473756,0.1774485
1.010128,-0.01978707,0.1792444
1.00894,-0.02146338,0.1845431
1.010409,-0.0222579,0.1869118
1.011613,-0.02104342,0.1854655
1.01273,-0.01823957,0.18591
1.012859,-0.02225407,0.1824765
1.010803,-0.02582774,0.18027
1.010199,-0.02613869,0.182829
1.009517,-0.02429953,0.186069
1.009417,-0.02060436,0.1882546
1.010392,-0.02230657,0.1877823
1.010099,-0.0226503,0.1884895
1.010528,-0.01940844,0.1933324
1.009417,-0.01847853,0.193814
1.007658,-0.01771601,0.1859795
1.00876,-0.01899833,0.1851898
1.009883,-0.02006498,0.1912072
1.010139,-0.019097,0.1893416
1.009485,-0.02025985,0.1893765
1.009697,-0.02306062,0.1908438
1.011066,-0.0257985,0.1860322
1.010659,-0.02467295,0.1854856
1.00933,-0.02202268,0.1840282
1.006726,-0.0222108,0.1830947
1.005302,-0.02063989,0.1907125
1.007023,-0.02001169,0.193029
1.010559,-0.02187592,0.1850152
1.01468,-0.02123389,0.1754481
1.010349,-0.02062032,0.1755232
1.004078,-0.0176411,0.179576
1.009158,-0.01375517,0.1774926
1.014249,-0.01713185,0.1792155
1.015044,-0.0189647,0.1783807
1.014515,-0.01470501,0.1748534
1.011091,-0.01375049,0.1799832
1.012297,-0.01854596,0.1820655
1.013254,-0.02620351,0.1822634
1.009657,-0.02862717,0.1831146
1.010147,-0.02137629,0.179716
1.012432,-0.01367327,0.1803401
1.014131,-0.01467868,0.1830744
1.01286,-0.02436557,0.1841228
1.009497,-0.03132865,0.186136
1.011422,-0.02512774,0.1880725
1.011044,-0.01714467,0.18764
1.00663,-0.01934464,0.1850319
1.005108,-0.0211868,0.1842684
1.005315,-0.0211246,0.1838324
1.007753,-0.02583378,0.1830112
1.008023,-0.02529894,0.1832618
1.006298,-0.02093204,0.18238
1.007483,-0.02011593,0.181546
1.009087,-0.01974068,0.1809478
1.012347,-0.02218749,0.1798593
1.015182,-0.0230583,0.1778317
1.014696,-0.02139538,0.1755727
1.01194,-0.02304274,0.1770648
1.008337,-0.02434044,0.1813565
1.009378,-0.02702363,0.1833536
1.009837,-0.02827125,0.1784768
1.004534,-0.02325625,0.1732102
1.001888,-0.01933033,0.1790198
1.004895,-0.01932479,0.1866961
1.009369,-0.02238876,0.1865087
1.010731,-0.0246785,0.185514
1.010784,-0.02347026,0.1841247
1.014088,-0.02333484,0.1807993
1.016125,-0.02349309,0.1800026
1.014198,-0.02175636,0.180301
1.011959,-0.02061222,0.1789147
1.010584,-0.02243205,0.1769617
1.00935,-0.02460362,0.1762387
1.009533,-0.02301592,0.1749241
1.011294,-0.02048764,0.1731361
1.012091,-0.01852847,0.1762373
1.012685,-0.0167943,0.1795948
1.012604,-0.01805613,0.1787321
1.010461,-0.02178461,0.1780521
1.00752,-0.02449005,0.1756905
1.005119,-0.02430931,0.1727401
1.008633,-0.02378719,0.1724252
1.013264,-0.02304802,0.1735558
1.010684,-0.02135692,0.1785252
1.009371,-0.02254739,0.1823127
1.010898,-0.02339487,0.1802137
1.012035,-0.02253379,0.1790736
1.015551,-0.02320384,0.1799561
1.015064,-0.02261547,0.1815711
1.011783,-0.02174572,0.1842475
1.012552,-0.01993246,0.1828558
1.013255,-0.01602159,0.1780685
1.015046,-0.01509502,0.1754722
1.018653,-0.01836064,0.1759291
1.017791,-0.02335329,0.1775814
1.013952,-0.02460462,0.1789381
1.011286,-0.0228866,0.180816
1.010332,-0.02212039,0.1795988
1.009848,-0.01846478,0.1735189
1.009226,-0.01603086,0.1720628
1.009941,-0.02018222,0.1782358
1.009934,-0.0238916,0.1850919
1.009306,-0.0217814,0.1865228
1.01022,-0.01860404,0.1853796
1.010919,-0.01852462,0.1871506
1.013867,-0.02029628,0.1827483
1.019313,-0.02342531,0.175416
1.020703,-0.02337053,0.1776438
1.014714,-0.02126773,0.1783444
1.007419,-0.02294277,0.1741626
1.007912,-0.02393744,0.1735116
1.008984,-0.02462395,0.1751942
1.006575,-0.02545213,0.1768815
1.010173,-0.02371028,0.174795
1.014111,-0.0204646,0.1723854
1.016472,-0.01484115,0.1734127
1.020607,-0.014343,0.1712058
1.018969,-0.01847338,0.1689153
1.015186,-0.01898153,0.17316
1.010774,-0.01994814,0.1787894
1.006491,-0.02053598,0.1829469
1.010674,-0.02004924,0.1860627
1.01442,-0.01876483,0.1810484
1.013238,-0.01592374,0.1751632
1.012433,-0.0190718,0.1867835
1.010412,-0.02169922,0.1969901
1.011307,-0.01575137,0.1852799
1.014524,-0.01123572,0.1762586
1.015558,-0.01276126,0.1785337
1.015718,-0.01635766,0.1753698
1.014873,-0.02004067,0.1724287
1.014882,-0.02253551,0.1761494
1.013001,-0.02185549,0.1824711
1.007031,-0.02056576,0.1901094
1.004759,-0.02038546,0.190975
1.008173,-0.01636949,0.1879969
1.010921,-0.01277972,0.1897297
1.008172,-0.01463832,0.1876217
1.003659,-0.01680702,0.1876974
1.002848,-0.0178078,0.1928297
1.005042,-0.01507014,0.1905279
1.008175,-0.01067462,0.1911236
1.008073,-0.01448943,0.1933571
1.009745,-0.02428969,0.1911722
1.016221,-0.03155087,0.1939255
1.016133,-0.02979777,0.1921965
1.014161,-0.02251877,0.1845054
1.015996,-0.02156414,0.1761983
1.014912,-0.02258668,0.172159
1.012926,-0.02174973,0.183983
1.007749,-0.02278314,0.194952
1.001251,-0.0208233,0.1936247
1.001162,-0.01619698,0.1920729
1.000863,-0.01010394,0.1913045
1.001477,-0.007965098,0.1907634
1.008437,-0.01289521,0.1933864
1.011518,-0.01298311,0.1981824
1.008972,-0.01202962,0.2008475
1.008779,-0.01460016,0.2022832
1.009362,-0.0162984,0.2013779
1.009793,-0.01815659,0.1947149
1.011199,-0.01293025,0.1904685
1.011995,-0.007866597,0.185214
1.011977,-0.01351132,0.1813946
1.008163,-0.01687211,0.1910322
1.004344,-0.01320261,0.1992646
1.008023,-0.01127239,0.2002379
1.010773,-0.01365552,0.197729
1.005831,-0.01654126,0.1914301
1.003195,-0.01964589,0.1905235
1.008343,-0.02167549,0.1903915
1.013153,-0.02094322,0.1901586
1.012731,-0.02176182,0.1915237
1.011195,-0.02033342,0.1880582
1.011322,-0.01629674,0.186174
1.012883,-0.01521515,0.187494
1.013421,-0.01549985,0.1955066
1.008018,-0.01652143,0.2030072
0.9998948,-0.01254542,0.1964201
0.999759,-0.008126594,0.1930856
1.008042,-0.01429773,0.1906547
1.016055,-0.02072324,0.1842249
1.017119,-0.02114883,0.1886092
1.009922,-0.01838181,0.1897932
1.004854,-0.01346704,0.189171
1.00893,-0.01158941,0.1924985
1.012729,-0.01348551,0.1848761
1.013489,-0.01826544,0.1797478
1.015004,-0.02178949,0.184962
1.011497,-0.01803683,0.1902699
1.006262,-0.01212383,0.192256
1.009933,-0.01080446,0.1879863
1.015769,-0.01141717,0.1854823
1.016709,-0.01083062,0.1905466
1.015285,-0.01029594,0.1950527
1.011062,-0.006823106,0.1932485
1.007398,-0.004261503,0.1914613
1.005135,-0.0139283,0.1924504
1.004734,-0.02706485,0.1902508
1.008657,-0.02741975,0.1904985
1.009634,-0.01962041,0.1929221
1.00907,-0.01651301,0.1943699
1.008514,-0.0181081,0.1983251
1.004789,-0.01746249,0.194426
1.005313,-0.01247387,0.1871153
1.006721,-0.008817227,0.1876581
1.007574,-0.01383477,0.1898806
1.010655,-0.0191396,0.1944512
1.007734,-0.01612178,0.1975912
1.003846,-0.01386228,0.1962344
1.005491,-0.01446747,0.1958955
1.011241,-0.01481418,0.1904939
1.016906,-0.01834907,0.1835075
1.012476,-0.02067614,0.1854595
1.006734,-0.01892497,0.1872339
1.00902,-0.01832684,0.18253
1.007259,-0.017953,0.1815893
1.004403,-0.0164602,0.1860829
1.009738,-0.01525134,0.188415
1.012658,-0.01495847,0.1884203
1.010512,-0.01707159,0.1895336
1.009514,-0.01669837,0.19173
1.007506,-0.0122481,0.1876019
1.007613,-0.01087379,0.1801315
1.012549,-0.01449793,0.1806939
1.015661,-0.02089235,0.1828557
1.014264,-0.02392236,0.1876535
1.010779,-0.0218129,0.1959638
1.0074,-0.02058034,0.191585
1.008713,-0.01647899,0.1815269
1.013384,-0.0106649,0.1775379
1.014473,-0.01356165,0.177543
1.014114,-0.01829383,0.1828575
1.009831,-0.01909881,0.186948
1.003273,-0.02332634,0.187431
1.007864,-0.02500726,0.1833433
1.012647,-0.02116472,0.1744844
1.011306,-0.01936706,0.1770199
1.017295,-0.01357886,0.1831668
1.021592,-0.007216069,0.1827651
1.018018,-0.009564612,0.1885696
1.016522,-0.0107673,0.1884614
1.014662,-0.009239277,0.1824308
1.009584,-0.01065464,0.1827851
1.008492,-0.01164552,0.1783973
1.010616,-0.01102013,0.1738926
1.010145,-0.01088387,0.1707151
1.012142,-0.01138704,0.1654441
1.017057,-0.01080446,0.1642544
1.019978,-0.01014066,0.1645797
1.022388,-0.009670832,0.1698335
1.018801,-0.009190645,0.1759929
1.010853,-0.009196562,0.1834015
1.01007,-0.007943088,0.1910867
1.011445,-0.008957037,0.1837998
1.00803,-0.01385264,0.1784443
1.002398,-0.01893291,0.1797981
0.9982653,-0.02018511,0.1781074
0.9998297,-0.01530041,0.1865628
1.002753,-0.01224369,0.1943312
1.005183,-0.01331896,0.1955615
1.011903,-0.01248158,0.1979727
1.015219,-0.01248621,0.1944456
1.012903,-0.01475644,0.1921938
0.9984709,0.1704959,0.01641526
0.9917961,0.1799889,0.02275969
0.9968743,0.1804505,0.01113106
1.00419,0.1813171,0.001585215
1.005121,0.1827267,0.0001694075
1.006798,0.1746671,0.009733952
1.007018,0.1645091,0.03143761
1.007233,0.1588449,0.02922733
1.003035,0.1603984,0.02259454
0.9965601,0.1649887,0.02339109
1.003287,0.1633507,0.0160889
1.011333,0.1636594,0.01602649
1.009698,0.1655445,0.01656954
1.008984,0.1663466,0.01256126
1.008329,0.171222,0.01054995
1.006121,0.1699121,0.01020511
1.006859,0.1675966,0.01205881
1.007367,0.1689635,0.00979705
1.006999,0.1655792,0.008665397
1.008777,0.1664105,0.008176736
1.010395,0.1686378,0.0031112
1.009247,0.1674099,0.003637102
1.006705,0.1689133,0.01117254
1.004963,0.1697456,0.01868159
1.005233,0.1705484,0.01691315
1.006573,0.1688429,0.00925837
1.008084,0.1655553,0.007734756
1.010338,0.1694237,0.007993024
1.009839,0.1720547,0.007973465
1.00619,0.1684284,0.005392701
1.005597,0.1663365,-0.001008598
1.0082,0.1667499,-0.001329096
1.010056,0.167683,0.00322839
1.007533,0.1679347,0.006981598
1.003837,0.1663323,0.006243405
1.005528,0.1653163,0.00538094
1.004585,0.1686713,0.0126936
0.9985133,0.1718778,0.01673218
0.9971311,0.1670235,0.0118598
1.002655,0.1578456,0.006175921
1.012323,0.1509107,0.0042752
1.01537,0.1503546,0.005745656
1.007984,0.1608542,0.00368649
1.001639,0.1724671,-0.00102432
1.002126,0.1707673,-0.008479308
1.010595,0.1610836,-0.01530728
1.018029,0.1554223,-0.004382575
1.012778,0.1566994,0.0157396
1.003587,0.1626408,0.02150229
0.99989,0.1722121,0.01510216
0.999297,0.18386,0.007181978
1.001084,0.189642,-0.00205953
1.004859,0.1890656,-0.01007841
1.008327,0.1855583,-0.01232417
1.009855,0.1744955,-0.01270354
1.007838,0.1654995,-0.0127716
1.003876,0.1634812,-0.009559196
1.001784,0.1589777,-0.0002450673
1.005494,0.1591634,0.01140311
1.015118,0.1637637,0.01232036
1.020459,0.1694415,0.006590924
1.01169,0.181438,-0.005978971
0.9960903,0.1861253,-0.03157434
0.9912147,0.1794005,-0.03550265
0.9940189,0.1718168,-0.0182576
0.993565,0.1633604,-0.01831164
0.9986813,0.1580014,-0.01835869
1.008793,0.1588285,-0.01019699
1.015281,0.1580352,-0.008835477
1.017522,0.1564071,-0.01216084
1.015812,0.1586492,-0.01635472
1.014782,0.1604058,0.0010395
1.012231,0.1694115,0.02474742
1.0079,0.1879139,0.01830375
1.003876,0.1988504,-0.005955659
0.9988877,0.199566,-0.03420045
0.9985756,0.1889706,-0.04477419
0.9983496,0.1685612,-0.03129418
0.9993252,0.1562027,-0.02200894
1.006216,0.1556474,-0.01446743
1.00936,0.1584711,-0.009122367
1.01216,0.161608,-0.01145723
1.011019,0.1647456,-0.007984726
1.004089,0.1648004,-0.003308874
1.007797,0.1627658,0.009954079
1.009745,0.1649564,0.02815952
1.001541,0.1684577,0.02197183
0.9952131,0.1724214,0.009324884
0.9903429,0.1745736,0.001614458
0.9967521,0.1684829,-0.01052196
1.010227,0.1653404,-0.006403111
1.010254,0.1710274,0.003995429
0.998303,0.1781652,0.006360626
0.9828464,0.1811089,0.0110603
0.9827391,0.1735695,0.01186909
1.000835,0.1661753,0.00992892
1.011944,0.1696075,-0.003232151
1.011178,0.1718274,-0.02716876
1.007266,0.1699546,-0.02676805
1.008461,0.1710877,0.00261446
1.012313,0.1712212,0.03408338
1.009913,0.1701974,0.034579
1.002605,0.1716374,0.002563865
0.9936248,0.1720465,-0.01825862
1.000414,0.1711552,-0.01359342
1.012969,0.1691221,-0.00344291
1.006337,0.1672794,0.002677638
1.000973,0.1665744,0.009789595
0.9978787,0.1599645,0.01430272
0.9957163,0.1532218,0.01009404
1.01258,0.1509101,0.008000124
1.02446,0.1460716,0.003461818
1.017977,0.1476376,-4.176599e-05
1.008191,0.1581225,0.005038899
1.001864,0.165044,0.001158826
1.001907,0.1650699,-0.003615344
1.003481,0.1631938,-0.006662872
1.004084,0.1665854,-0.01527634
1.005048,0.1723995,-0.02144797
1.006954,0.1740555,-0.02660756
1.00713,0.1719296,-0.01780259
1.004527,0.167495,-0.005541929
1.004424,0.164529,-0.006085544
1.006189,0.1600553,-0.0008137416
1.01029,0.1546636,0.004078056
1.011401,0.1577086,0.008900022
1.004861,0.1626583,0.01479767
1.000378,0.1636424,0.005497457
1.000845,0.1613928,-0.0003279159
1.003447,0.1545546,0.003660854
1.005153,0.1532671,0.003699336
1.007512,0.1577159,0.00568325
1.01115,0.1588816,0.01073039
1.012785,0.1585802,0.01034751
1.018166,0.1588261,0.003493999
1.016514,0.1642683,-0.002271594
0.9945016,0.1741483,-0.009201089
0.9745722,0.1753959,-0.01520293
0.9797291,0.1604594,-0.005587911
0.9899359,0.1488781,0.01668766
0.9877121,0.170049,0.04208788
0.9955664,0.1983412,0.04459494
1.008568,0.1912806,-0.01106565
1.02405,0.1570129,-0.09764115
1.055809,0.1132884,-0.1270041
1.059932,0.09257764,-0.04377098
1.034922,0.1128273,0.06927755
1.013699,0.1322576,0.08935316
0.9822776,0.1553531,0.04152403
0.9676445,0.1882158,-0.003411711
0.9916269,0.1813474,-0.0349486
1.0226,0.1756138,-0.04685987
1.033823,0.197321,-0.04627898
1.015519,0.1879838,-0.0310823
0.9930613,0.1754343,0.006907749
0.9890612,0.1747072,0.03053013
0.9965253,0.1563172,0.02259513
1.00745,0.1490514,0.01754314
1.015299,0.1442367,0.02320816
1.016862,0.1333766,0.02091523
1.013515,0.1355689,0.021634
1.013209,0.1361051,0.02768406
1.014814,0.1389043,0.02301775
1.013035,0.1403755,0.01032856
1.011054,0.1402145,-0.004835231
1.001761,0.1581457,-0.005267465
0.9923005,0.1775014,0.007312806
0.9974106,0.1827421,0.005464267
1.003211,0.1779497,-0.005532302
1.00179,0.1786891,-0.01838525
1.002333,0.1879685,-0.02488251
1.001846,0.1955804,-0.02265091
0.9995364,0.2040932,-0.03297617
1.00467,0.1960302,-0.03966647
1.009985,0.1816625,-0.03467525
1.006671,0.1835906,-0.02456729
0.9994762,0.1830701,0.005087918
0.9919385,0.1805837,0.02404934
0.9923303,0.1680663,0.01896536
1.000426,0.1399843,0.01795759
1.01084,0.1271121,0.0155038
1.030431,0.1231058,0.01849053
1.043759,0.09979387,0.05065005
1.023317,0.08197729,0.07752959
0.9767141,0.1221893,0.03555845
0.9464935,0.1911514,-0.03042343
0.9685752,0.2232525,-0.03246149
1.010931,0.2223678,-0.02036058
1.027652,0.1964083,-0.03858418
1.036765,0.158776,-0.04665159
1.038201,0.1484838,-0.04283122
1.017616,0.1706723,-0.02220101
1.00197,0.1978035,0.01161409
0.9974168,0.1981636,0.02191849
0.9989089,0.1766543,0.01422141
0.9968347,0.1480066,0.01680119
0.9879025,0.1244208,0.03717342
0.9946998,0.1305179,0.04959782
1.000812,0.1434507,0.03366291
1.000559,0.1472979,0.008896013
1.008418,0.1541357,-0.00117541
1.019051,0.1526274,-0.001372433
1.038488,0.1547834,-0.01074945
1.04022,0.1631512,-0.01991682
1.02009,0.1652324,-0.02423155
1.012507,0.1729863,-0.03056263
1.006498,0.1794962,-0.0295638
0.9989208,0.1801634,-0.03536925
0.9975028,0.180851,-0.0442339
0.9973683,0.1769611,-0.03756428
0.9950859,0.1738054,-0.03209846
0.9874694,0.17245,-0.03038365
0.9896617,0.1698636,-0.03020594
1.000233,0.1675464,-0.03315806
1.009154,0.1671041,-0.02805931
1.018218,0.1690511,-0.0190259
1.018911,0.167696,-0.01326651
1.012846,0.1660116,-0.0145232
1.004205,0.1646138,-0.01996746
1.002959,0.1612864,-0.01978592
1.013479,0.1642858,-0.02093542
1.014882,0.1669043,-0.02310396
1.005519,0.1654202,-0.01985885
0.9973264,0.1661675,-0.01894667
1.001,0.1625021,-0.01862629
1.008264,0.1593014,-0.01476128
1.002393,0.1666818,-0.01031362
1.002279,0.1740993,-0.008489797
1.005815,0.1722307,-0.008531412
1.006006,0.1715975,-0.006981095
1.012985,0.1758437,-0.009858947
1.007513,0.1760751,-0.01151887
0.9999938,0.1776835,-0.007979013
1.003917,0.1791017,-0.01063042
1.001087,0.1751524,-0.01216475
1.000073,0.174333,-0.01271476
1.001581,0.1718059,-0.01823841
0.9983222,0.169212,-0.01941623
1.000075,0.1709239,-0.01708853
1.005325,0.166215,-0.01345717
1.009227,0.1629761,-0.01426593
1.010279,0.1686751,-0.01983119
1.010953,0.1733612,-0.02041153
1.013469,0.1719335,-0.02099523
1.011642,0.1694423,-0.01972579
1.006396,0.1708004,-0.01567869
1.003122,0.1685419,-0.0166012
1.003386,0.1650471,-0.02189546
1.005522,0.1675867,-0.02788992
1.006449,0.169668,-0.02208384
1.010512,0.1711974,-0.01425194
1.014587,0.1712957,-0.01987687
1.012027,0.1684477,-0.02158127
1.012195,0.1659514,-0.02152126
1.015227,0.1626485,-0.0261942
1.01465,0.162378,-0.02142039
1.0126,0.1637018,-0.01516956
1.007456,0.1644133,-0.01411468
1.002766,0.1706207,-0.00718464
1.000919,0.1752853,0.001870999
1.000511,0.174287,0.00401542
1.00177,0.1746205,0.004644354
0.9985631,0.1734498,0.004304082
0.9958092,0.1698815,0.0003156324
0.9995262,0.1665579,0.003385589
1.006377,0.1599557,0.006953963
1.014498,0.1554815,-0.001602854
1.013206,0.1615669,-0.009318515
1.005826,0.1683332,-0.01143502
1.0052,0.1666311,-0.01348192
1.005776,0.1650056,-0.01550592
1.006203,0.1658659,-0.01639523
1.004363,0.1657624,-0.01401071
0.999752,0.1672473,-0.01342207
1.004219,0.1682224,-0.01317175
1.012582,0.1695351,-0.01306476
1.015801,0.1719196,-0.016285
1.012757,0.1707375,-0.01214412
1.003667,0.1706842,-0.006525989
1.001256,0.1728351,-0.006999146
1.005477,0.1716932,-0.007447624
1.005921,0.1683645,-0.01191966
1.00564,0.164763,-0.01621651
1.005913,0.1621978,-0.01508542
1.008337,0.1614586,-0.01226648
1.011793,0.165086,-0.01051098
1.010561,0.1699622,-0.01317108
1.007277,0.1673883,-0.01564103
1.004603,0.1651234,-0.01542911
1.005238,0.1667054,-0.01572755
1.007368,0.1621349,-0.01783535
1.006683,0.157877,-0.02049339
1.006464,0.1601321,-0.01852165
1.004483,0.1621681,-0.01293066
1.001588,0.1626008,-0.007269068
1.002782,0.1630475,-0.005351221
1.003803,0.1646993,-0.007219597
1.00507,0.1684439,-0.004467817
1.009107,0.1699023,-0.002866553
1.01381,0.1639123,-0.01112196
1.018689,0.1534033,-0.01811045
1.020003,0.1473641,-0.01632865
1.019524,0.1500556,-0.01702107
1.022414,0.1544513,-0.02477033
1.018851,0.1551328,-0.02665576
1.008684,0.1571737,-0.0238794
1.004239,0.1595802,-0.02498344
1.002338,0.1604814,-0.02342122
1.004101,0.1621622,-0.02032501
1.00937,0.1622633,-0.01747111
1.009594,0.1650692,-0.01134683
1.011448,0.1684695,-0.009623204
1.013151,0.1672538,-0.0118916
1.009078,0.1689254,-0.01011872
1.006882,0.1701819,-0.005303969
1.007942,0.1680051,-0.001492398
1.011901,0.1682728,-0.002076679
1.015389,0.1707271,-0.003848366
1.014763,0.1758872,-0.002406949
1.011306,0.1785073,-0.002377336
1.00497,0.17168,-0.004180559
1.00084,0.1607723,-0.005881216
0.9995854,0.1561658,-0.008191193
0.9994475,0.1603806,-0.002872506
0.9996213,0.1637836,0.003017148
0.9943993,0.1630596,-0.006669953
0.9913661,0.1643088,-0.01404229
0.9995767,0.1665529,-0.005332344
1.006722,0.1697234,-0.0008026441
1.001108,0.1769907,-0.009306266
0.9956918,0.1828441,-0.01671786
1.001484,0.1816086,-0.01742629
1.006523,0.1759135,-0.01813625
1.008636,0.1716849,-0.01904679
1.009415,0.1715255,-0.02078794
1.005213,0.1711802,-0.02592128
1.005711,0.1704705,-0.02477646
1.008923,0.1733104,-0.01152795
1.009184,0.1761371,-0.0002785248
1.007651,0.1767025,-0.005422971
1.001954,0.1765466,-0.01190666
1.000836,0.1759066,-0.005278094
1.001211,0.1754451,-0.003798009
0.9973067,0.1737786,-0.007048865
0.9959441,0.1720813,-0.002737056
0.9930721,0.1722718,-0.002233097
0.9939734,0.1719689,-0.005103289
1.00243,0.1713065,-0.01201672
1.010181,0.1701785,-0.02459917
1.014837,0.1678407,-0.02660589
1.013408,0.1667397,-0.02510854
1.015625,0.1689012,-0.03263459
1.021017,0.1721338,-0.03755618
1.01341,0.1705931,-0.03123817
1.004563,0.1671504,-0.02193242
1.00504,0.166619,-0.02145063
1.005915,0.1667488,-0.02475213
1.005537,0.169563,-0.0252528
1.005449,0.1719466,-0.02527858
1.005069,0.169859,-0.0255135
1.002935,0.1671158,-0.02956376
1.000807,0.1643749,-0.03248263
1.00314,0.1643573,-0.02474879
1.006189,0.1644398,-0.01144157
1.004989,0.1623126,-0.00491771
1.001449,0.1668755,-0.0075844
0.9982781,0.1725356,-0.008403112
0.9981983,0.170982,-0.00765007
1.001565,0.1700803,-0.01143775
1.004575,0.1708254,-0.01107423
1.006361,0.1686171,-0.008425004
1.006833,0.1682942,-0.01017432
1.006361,0.1716132,-0.01013757
1.006314,0.1712756,-0.009920877
1.004354,0.1680756,-0.01111649
1.003592,0.1678568,-0.01078408
1.005661,0.1681341,-0.01369094
1.005787,0.1679246,-0.01673402
1.006594,0.1679048,-0.01507887
1.00843,0.1659221,-0.01494808
1.009517,0.1638665,-0.01669729
1.01089,0.1635262,-0.01655382
1.009979,0.1648897,-0.01559656
1.007488,0.1685314,-0.01414548
1.005065,0.1717644,-0.01234351
1.003353,0.1702586,-0.008729823
1.002645,0.1663875,-0.004876967
1.002894,0.166527,-0.009195764
1.005848,0.1679657,-0.0152805
1.007744,0.1675728,-0.01162933
1.006766,0.1661134,-0.00761256
1.00567,0.1618065,-0.007158115
1.004236,0.1599765,-0.005286272
1.003044,0.1615879,-0.003907726
1.002458,0.1614577,-0.001309743
1.003137,0.1629419,-0.003713287
1.004429,0.1654554,-0.0101754
1.004057,0.1654799,-0.008797285
1.002244,0.1641812,-0.008016928
1.000716,0.1635087,-0.007900041
1.002275,0.1642183,-0.006402566
1.006556,0.1647907,-0.01416178
1.011501,0.1665399,-0.01840712
1.013264,0.1708567,-0.01353172
1.009494,0.1743843,-0.01143924
1.00721,0.1714202,-0.0121048
1.008093,0.1655777,-0.01236583
1.006873,0.1662878,-0.01059274
1.004804,0.1674998,-0.01165897
1.005442,0.1659374,-0.01278305
1.006917,0.1668343,-0.007327408
1.005943,0.1651388,-0.004301474
1.005306,0.1610635,-0.00500324
1.005642,0.1595,-0.004266094
1.005428,0.1618652,-0.002225053
1.005919,0.1653491,-0.002063037
1.006321,0.1629953,-0.003792728
1.00701,0.1616501,-0.002280682
1.006344,0.1651183,-0.002528632
1.004465,0.1656093,-0.003513163
1.003787,0.1652417,-0.002007507
1.001525,0.1653013,-0.00321374
1.000594,0.1649146,-0.00192532
1.002307,0.1643135,0.002111109
1.003057,0.1616052,0.004960581
1.004524,0.1605014,0.005167493
1.004837,0.1612543,0.0007890203
1.004438,0.1611703,-0.006148548
1.006103,0.1611022,-0.01524103
1.005613,0.1615568,-0.01439892
1.004118,0.1638968,-0.007399646
1.003408,0.1660669,-0.01070203
0.9995078,0.1653418,-0.01026238
0.995884,0.1639071,-0.007438513
0.9977585,0.1643166,-0.007778125
1.003542,0.1677288,-0.002031659
1.010559,0.1741166,-0.00355418
1.014088,0.1770224,-0.008951836
1.010768,0.1676386,-0.01027159
1.009371,0.1540158,-0.0122889
1.016596,0.1505523,-0.007452701
1.020075,0.1541201,-0.00469507
1.010898,0.1549897,-0.006991366
1.000943,0.1526802,-0.008393949
1.002408,0.1538396,-0.01198323
1.009078,0.1611981,-0.007945282
1.011262,0.1702682,-0.00300136
1.011392,0.1744019,-0.005517967
1.009643,0.1760325,-0.006233818
1.00626,0.1802586,-0.01068785
1.005813,0.1734474,-0.01707022
1.007783,0.1614113,-0.0158136
1.010202,0.1656997,-0.01378483
1.006453,0.1678778,-0.01373913
1.000788,0.1635892,-0.009791324
1.002293,0.1680435,-0.005696967
1.002382,0.1672911,-0.006375742
1.001526,0.1656139,-0.009715625
1.002846,0.1707657,-0.01400655
1.002574,0.1714004,-0.01330252
1.004029,0.1726803,-0.01094168
1.004473,0.1743184,-0.01345703
1.00404,0.1732901,-0.01257272
1.005378,0.1738496,-0.01170391
1.005568,0.1735755,-0.01343466
1.005763,0.1745726,-0.01226567
1.005446,0.1754419,-0.01433966
1.005056,0.1752805,-0.01710908
1.004087,0.1778698,-0.01937738
1.001745,0.1791133,-0.02330276
1.001637,0.1759773,-0.02095787
1.000708,0.1719855,-0.01785008
0.9991894,0.1732632,-0.01981759
1.000819,0.1753801,-0.01901421
1.00283,0.1753193,-0.01439564
1.004505,0.178268,-0.01193268
1.00383,0.1749859,-0.01565733
1.002328,0.1669737,-0.02267483
1.005798,0.1662402,-0.02488374
1.009085,0.168795,-0.02197469
1.007317,0.1729009,-0.01989442
1.002763,0.1775072,-0.01915402
0.9995543,0.1795888,-0.01923905
1.004694,0.1779735,-0.019966
1.010857,0.1739508,-0.02014792
1.006563,0.1748087,-0.02107035
1.003541,0.1759782,-0.02112323
1.006632,0.1743545,-0.02077539
1.005604,0.1733683,-0.0225011
1.00489,0.1689861,-0.02274059
1.006082,0.1686685,-0.02192998
1.004098,0.1734837,-0.02319937
1.002806,0.173852,-0.02408121
1.001803,0.1733471,-0.023131
1.00102,0.1722014,-0.02170823
1.002556,0.1714015,-0.01992759
1.003031,0.1729643,-0.01818004
1.002756,0.1723838,-0.01789281
1.00275,0.1733505,-0.01898486
1.003074,0.1746107,-0.01987941
1.004887,0.1723952,-0.01942569
1.006854,0.1709359,-0.01920714
1.007485,0.1696138,-0.01969833
1.007051,0.1712953,-0.01896652
1.008591,0.1753275,-0.01761482
1.010244,0.1733041,-0.01663097
1.006972,0.1708283,-0.01931282
1.001612,0.1712329,-0.02678111
0.9990896,0.1706075,-0.02980744
1.002777,0.1728129,-0.02310297
1.010403,0.1741286,-0.01662745
1.012496,0.1707353,-0.01953405
1.004751,0.1666062,-0.021999
0.9972398,0.1631344,-0.01756069
1.002068,0.1638397,-0.01644909
1.006625,0.166728,-0.01786862
1.000302,0.168877,-0.01793218
0.9986102,0.1721078,-0.02042373
1.002418,0.172017,-0.02272604
1.006679,0.1683647,-0.02410066
1.013372,0.1658861,-0.0243154
1.012153,0.1673974,-0.02031275
1.008927,0.1706578,-0.01764581
1.01105,0.1691034,-0.01747952
1.007719,0.1663838,-0.01267462
1.005278,0.1669984,-0.01106032
1.006781,0.1697145,-0.01578643
1.003843,0.1736303,-0.0153858
1.00172,0.1737694,-0.01474683
1.001568,0.1697968,-0.01484725
1.002156,0.165143,-0.01215596
1.005827,0.162533,-0.01460008
1.008783,0.1640234,-0.0195739
1.009953,0.1653348,-0.02329581
1.008142,0.1678049,-0.02139506
1.004825,0.1727691,-0.0172119
1.005623,0.1730846,-0.02075102
1.007211,0.1719673,-0.02250457
1.008607,0.1727207,-0.02241253
1.009722,0.1705611,-0.02306758
1.005217,0.1683893,-0.01943902
1.000991,0.1667569,-0.01702574
1.00267,0.1640397,-0.01315743
1.003618,0.1637543,-0.01256143
1.002228,0.1638404,-0.01717885
1.003096,0.1641516,-0.0149304
1.005327,0.1661671,-0.01351434
1.007481,0.16757,-0.01572223
1.009075,0.1678319,-0.01866219
1.007363,0.1651051,-0.02491099
1.006167,0.1608897,-0.02380902
1.007768,0.1585238,-0.02013541
1.008288,0.1625046,-0.02232536
1.008309,0.1692891,-0.02134083
1.006711,0.1652111,-0.01969015
1.005169,0.1617226,-0.01898604
1.006051,0.1677239,-0.01677921
1.005846,0.1697555,-0.0174484
1.008033,0.171097,-0.01686807
1.010314,0.1699616,-0.01439115
1.006008,0.1607435,-0.01026371
1.003011,0.155562,-0.003700814
1.005942,0.1602679,-0.007771834
1.007955,0.1686332,-0.01635196
1.005491,0.1690874,-0.01537215
1.003002,0.165862,-0.01496034
1.00272,0.1672312,-0.01597552
1.002834,0.1663588,-0.01573871
1.004785,0.166501,-0.01829003
1.006375,0.1674438,-0.01760778
1.007038,0.1668203,-0.01360294
1.01073,0.1688616,-0.009071041
1.013368,0.1680508,-0.006798762
1.01095,0.1671805,-0.007582213
1.008459,0.1669227,-0.001408018
1.009873,0.163879,0.004882828
1.010146,0.1631167,-0.0005265224
1.008138,0.160511,-0.004179664
1.008221,0.1573788,0.003023731
1.007263,0.1572939,0.008979607
1.005588,0.1549375,0.009645919
1.005155,0.1537088,0.01302501
1.003554,0.1561186,0.01357592
1.002479,0.1575037,0.009628664
1.002684,0.1560742,0.01137049
1.004447,0.1548979,0.01357687
1.007218,0.1559362,0.01309271
1.008012,0.1566031,0.0131648
1.00433,0.1569596,0.008412446
0.9995453,0.1574099,0.002999417
1.002855,0.1575866,0.004167022
1.008878,0.1590013,0.006102469
1.010105,0.1607298,0.003695314
1.010314,0.1630332,0.0002972807
1.009399,0.164175,-0.003486025
1.010459,0.1601343,-0.005044988
1.012045,0.1566565,0.001427648
1.010706,0.1573441,0.006443618
1.012123,0.1565074,0.006035972
1.013028,0.1554517,0.00871148
1.011986,0.1564996,0.01213792
1.011644,0.1555005,0.0133877
1.009978,0.1538003,0.01234637
1.010285,0.1534974,0.01195471
1.011565,0.1523885,0.01269697
1.010953,0.152525,0.009371234
1.010098,0.1536596,0.007127157
1.009447,0.1541829,0.007540975
1.009376,0.1563225,0.009183181
1.008029,0.1570914,0.01198775
1.006308,0.1575112,0.009507827
1.006798,0.1600921,0.006656613
1.007304,0.1595329,0.008194137
1.007144,0.1572353,0.01114692
1.008623,0.154983,0.01392159
1.010131,0.1534875,0.008497914
1.007998,0.156433,0.000903903
1.006332,0.1590405,0.004399671
1.008868,0.1601056,0.007725088
1.010575,0.1615534,0.005970271
1.009815,0.1602963,0.00792677
1.010295,0.1592973,0.00889316
1.011669,0.1607469,0.008607394
1.010455,0.1615352,0.006324707
1.006997,0.1610586,0.0005167447
1.003893,0.1605773,0.002200138
1.003179,0.1589773,0.003683869
1.004436,0.1550327,0.001701614
1.005007,0.15344,0.008952557
1.006306,0.156172,0.01432842
1.005264,0.1568952,0.01000671
0.9990785,0.151656,0.0005208626
0.9963653,0.1447588,-0.007826097
1.000225,0.1447132,-0.001508377
1.008635,0.1546326,0.006945238
1.016267,0.1676307,0.002156257
1.015006,0.170305,-0.001930091
1.009186,0.1580814,-0.01104812
1.006254,0.1499692,-0.0290029
1.009946,0.160307,-0.02604308
1.014745,0.1711273,-0.01089504
1.011415,0.1700409,-0.009769856
1.007206,0.1701456,-0.01351165
1.006144,0.1715618,-0.01814107
1.006549,0.167365,-0.01700142
1.009751,0.1657993,-0.01161348
1.00948,0.1669833,-0.01455189
1.006499,0.1660194,-0.0110772
1.004133,0.1639372,-0.005441293
1.002443,0.1606763,-0.005723629
1.004254,0.1608587,-0.002207028
1.005829,0.1635959,-0.004377923
1.008203,0.1640612,-0.009547634
1.011061,0.164115,-0.01174991
1.009454,0.1636837,-0.01220011
1.009356,0.1636467,-0.009181528
1.01022,0.1632854,-0.009008351
1.008642,0.1627935,-0.006589575
1.005606,0.1672255,-0.006622756
0.9994992,0.1719301,-0.01397667
0.997877,0.1713529,-0.01551561
1.003644,0.1692092,-0.0126783
1.007177,0.1665969,-0.00816857
1.005641,0.1633387,-0.007047596
1.004756,0.1655822,-0.009316303
1.005753,0.1703881,-0.005833552
1.00378,0.1689434,-0.004932517
1.002899,0.1695216,-0.005645826
1.008381,0.1724423,-0.003333463
1.012198,0.1699181,-0.004113404
1.007944,0.1695371,-0.009391413
1.003546,0.1690422,-0.016513
1.006758,0.1665292,-0.01465384
1.009014,0.1668285,-0.01094286
1.005835,0.1653604,-0.01463852
1.002533,0.1674426,-0.01427505
0.9994195,0.172121,-0.01510713
1.002909,0.1708399,-0.01787798
1.009204,0.1699892,-0.01471331
1.008023,0.1693336,-0.01206401
1.009563,0.166365,-0.00964498
1.012372,0.166225,-0.009292426
1.008733,0.166694,-0.01225238
1.007217,0.1644199,-0.01271211
1.006852,0.1614551,-0.01246026
1.004619,0.161213,-0.0115006
1.003573,0.164988,-0.010697
1.002566,0.1686574,-0.01097085
1.002454,0.1673145,-0.0092221
1.00326,0.1639276,-0.007108216
1.00381,0.163526,-0.004586667
1.005182,0.1640222,-0.002521944
1.006095,0.1638598,-0.004982891
1.005409,0.16394,-0.008372245
1.005547,0.1638117,-0.008405499
1.006909,0.1637582,-0.01222913
1.007928,0.162839,-0.01877955
1.008719,0.1612493,-0.01465887
1.007656,0.1608357,-0.01010527
1.004465,0.1611383,-0.01533279
1.00198,0.1612303,-0.01681651
1.002222,0.1608352,-0.01712803
1.003548,0.1602128,-0.02070491
1.003797,0.1598977,-0.01964427
1.008674,0.1612899,-0.01872679
1.014993,0.1633231,-0.01996028
1.012831,0.1627922,-0.01969121
1.011273,0.1628717,-0.02124548
1.014389,0.1645723,-0.02387926
1.013676,0.1639033,-0.02397589
1.010491,0.1636895,-0.02222204
1.004686,0.165147,-0.01833799
0.99992,0.165214,-0.01426869
1.00556,0.1633659,-0.01716394
1.01108,0.1582175,-0.02162809
1.008046,0.1537471,-0.01893367
1.008472,0.1554297,-0.01764339
1.011773,0.1574901,-0.01886413
1.009928,0.1565812,-0.01738295
1.008307,0.1566302,-0.01781203
1.008341,0.1554338,-0.01704208
1.008455,0.1536003,-0.01625463
1.010031,0.156515,-0.02064564
1.009765,0.1605941,-0.02170678
1.007898,0.1615487,-0.01913782
1.00811,0.1603155,-0.01856115
1.009626,0.1590647,-0.0187133
1.009985,0.1600205,-0.02002089
1.009542,0.1608947,-0.02169087
1.009817,0.1610172,-0.02331045
1.009718,0.1616251,-0.024259
1.009276,0.1615997,-0.02334823
1.008085,0.1620169,-0.02292802
1.006255,0.1620814,-0.02124181
1.006805,0.1621798,-0.01874649
1.007386,0.162551,-0.02096596
1.006096,0.159014,-0.02242426
1.004322,0.1546454,-0.01660095
1.002794,0.1538312,-0.01131339
1.006047,0.1563876,-0.01160574
1.011047,0.1606483,-0.01203776
1.010098,0.1612907,-0.0110467
1.008826,0.1577401,-0.009831566
1.010338,0.1533675,-0.009631949
1.009104,0.15218,-0.01399305
1.006015,0.1571228,-0.0185247
1.001591,0.164212,-0.0183619
0.9997177,0.168304,-0.01789144
1.008296,0.166059,-0.01841384
1.018434,0.1622802,-0.01981663
1.018958,0.1616352,-0.02079973
1.014113,0.1587335,-0.01728667
1.009689,0.1570422,-0.0138973
1.005697,0.1576235,-0.01506551
1.00112,0.1550168,-0.01604877
0.9996172,0.1518446,-0.01484121
1.005391,0.1481477,-0.01336085
1.015999,0.1507443,-0.00698493
1.022495,0.156621,0.0008666941
1.022334,0.1510987,-0.01406161
1.028572,0.1485502,-0.06502803
1.037495,0.1568503,-0.1112123
1.020938,0.1716655,-0.07652646
0.9722654,0.201678,0.03067467
0.9222194,0.2198159,0.09823811
0.9083516,0.1978568,0.07966414
0.9349274,0.1723113,0.05024359
1.006844,0.1620789,0.03973675
1.013362,-0.04434289,-0.147337
1.01551,-0.04540011,-0.1537559
1.015194,-0.03741291,-0.1612965
1.015539,-0.03614379,-0.1571143
1.014957,-0.04274425,-0.1495537
1.015462,-0.04967296,-0.1444514
1.016407,-0.04931338,-0.1377398
1.020363,-0.04227738,-0.1388343
1.025076,-0.04111895,-0.1407611
1.020743,-0.04154249,-0.1405223
1.014454,-0.0403533,-0.148178
1.012883,-0.03545727,-0.1540751
1.011369,-0.02657413,-0.1544886
1.011241,-0.02830959,-0.1495314
1.016031,-0.03702357,-0.1448959
1.023216,-0.04189596,-0.1482994
1.026236,-0.03978799,-0.1493292
1.021684,-0.03327611,-0.1498759
1.01532,-0.03341417,-0.1508585
1.013668,-0.03633513,-0.149107
1.013802,-0.03732082,-0.1504631
1.013977,-0.03519608,-0.150061
1.015069,-0.02876315,-0.1495724
1.015269,-0.02876033,-0.1509004
1.015479,-0.03189308,-0.1522411
1.015922,-0.03315457,-0.1579936
1.018668,-0.03598918,-0.1620619
1.021893,-0.03621735,-0.1624707
1.019202,-0.03671508,-0.1622544
1.016934,-0.03962077,-0.1567345
1.019282,-0.04427346,-0.1451514
1.019497,-0.04630278,-0.1362302
1.016287,-0.03817838,-0.1400169
1.012641,-0.03200551,-0.1463107
1.009017,-0.03487952,-0.142695
1.006647,-0.03666941,-0.143367
1.011178,-0.03576271,-0.1513156
1.020735,-0.03604295,-0.1548574
1.024036,-0.03560556,-0.1597147
1.020978,-0.03126542,-0.162685
1.020032,-0.02844162,-0.1588713
1.02069,-0.03189237,-0.1594766
1.017714,-0.03657476,-0.1622745
1.012878,-0.03664823,-0.1619686
1.011571,-0.03445237,-0.1586198
1.012786,-0.03570173,-0.1528402
1.013754,-0.03991108,-0.1517212
1.018136,-0.04673709,-0.1533122
1.025443,-0.05191699,-0.1531684
1.027401,-0.05403036,-0.1543306
1.025077,-0.05818685,-0.1560595
1.023012,-0.05636375,-0.1543921
1.016013,-0.05031617,-0.1502725
1.006464,-0.04790515,-0.1480066
1.002333,-0.04457374,-0.1492767
1.00178,-0.04600572,-0.155185
1.001755,-0.05248659,-0.1596721
1.00177,-0.06043359,-0.1584541
1.00742,-0.06828507,-0.161492
1.023446,-0.06149986,-0.1689112
1.038604,-0.04617195,-0.1739544
1.037804,-0.03842213,-0.1761644
1.022088,-0.03661729,-0.1660702
1.010943,-0.03848474,-0.1474558
1.009443,-0.04315674,-0.1367612
1.005924,-0.05397646,-0.1297882
1.009752,-0.06337392,-0.1411022
1.025263,-0.06450187,-0.1681411
1.03674,-0.0658756,-0.1624503
1.037683,-0.05969356,-0.1523126
1.021503,-0.05050344,-0.1632554
0.9949531,-0.04703985,-0.153736
0.9887523,-0.04042492,-0.146119
1.002992,-0.0400654,-0.147993
1.013723,-0.04471582,-0.1495791
1.021673,-0.0471613,-0.1694279
1.02678,-0.04861362,-0.171357
1.024071,-0.04599644,-0.162571
1.023631,-0.0474784,-0.1651934
1.025775,-0.04954294,-0.1570091
1.0245,-0.05443706,-0.1584103
1.021985,-0.06499577,-0.1669109
1.020414,-0.06248098,-0.1722403
1.021424,-0.05526151,-0.1849388
1.022952,-0.05480651,-0.1890332
1.021828,-0.06166417,-0.1768055
1.019695,-0.08023208,-0.1485953
1.016951,-0.08892444,-0.1330778
1.013114,-0.07308466,-0.1478863
1.011905,-0.05503741,-0.1579376
1.014637,-0.05392635,-0.1563533
1.019625,-0.05510726,-0.1500365
1.02388,-0.04395583,-0.1331197
1.022661,-0.03647163,-0.1210604
1.021441,-0.04270039,-0.1342785
1.024708,-0.04714678,-0.1598865
1.022728,-0.03637903,-0.1619678
1.010421,-0.02576452,-0.1335404
0.9997852,-0.03047049,-0.1079283
1.01009,-0.0367045,-0.1221794
1.032088,-0.03781157,-0.1404649
1.038201,-0.03128787,-0.1224301
1.031742,-0.02259395,-0.1189437
1.021395,-0.03540737,-0.1267467
1.010415,-0.05580655,-0.1147965
1.009685,-0.06133083,-0.108782
1.007498,-0.06132766,-0.09661403
1.001052,-0.05721968,-0.09130911
1.010678,-0.05021826,-0.1060966
1.027092,-0.04775265,-0.1099903
1.031362,-0.05080277,-0.115082
1.02671,-0.05753281,-0.1147955
1.021064,-0.06041806,-0.1061423
1.018081,-0.05955911,-0.1097414
1.014117,-0.05885442,-0.1091882
1.010011,-0.05835798,-0.111733
1.015333,-0.06259299,-0.1224002
1.024315,-0.07061316,-0.1282604
1.025905,-0.07562973,-0.1327355
1.023098,-0.07326784,-0.1340123
1.0209,-0.07001858,-0.138559
1.020481,-0.07114487,-0.1384342
1.019789,-0.06830885,-0.134021
1.020471,-0.06787289,-0.1430028
1.023411,-0.07552376,-0.1493837
1.022359,-0.07890265,-0.151266
1.021218,-0.07606983,-0.1525379
1.021913,-0.07154499,-0.1475007
1.019011,-0.06955268,-0.145917
1.016567,-0.06885881,-0.1425229
1.013797,-0.06662498,-0.1384091
1.010435,-0.06670412,-0.1331995
1.01227,-0.06505254,-0.1243164
1.016212,-0.06360151,-0.1298675
1.021817,-0.06213857,-0.1397203
1.027113,-0.05446874,-0.1419575
1.023803,-0.05356588,-0.141322
1.015482,-0.06129535,-0.1375034
1.009792,-0.06792521,-0.1414387
1.00884,-0.07238733,-0.145337
1.00922,-0.07206933,-0.1418369
1.005149,-0.06943995,-0.1446193
1.003777,-0.06285736,-0.1507128
1.012516,-0.05108977,-0.1536737
1.026501,-0.04344787,-0.1457882
1.037917,-0.04321882,-0.1349913
1.036026,-0.04819012,-0.144589
1.023566,-0.05902271,-0.1563799
1.011086,-0.07598644,-0.1578131
1.000273,-0.08562942,-0.165632
0.9995017,-0.08798408,-0.172496
1.007629,-0.09946881,-0.1767362
1.013969,-0.1062658,-0.1846199
1.018431,-0.1078048,-0.1935832
1.020473,-0.1153506,-0.2039387
1.020735,-0.1077556,-0.1968278
1.018739,-0.09261265,-0.1762778
1.016641,-0.08886997,-0.1667262
1.015301,-0.08672262,-0.1583878
1.008814,-0.08691437,-0.1579113
1.007019,-0.08812826,-0.1695804
1.016394,-0.08513091,-0.1779215
1.028303,-0.08505158,-0.1901267
1.031311,-0.08936191,-0.192104
1.021581,-0.09160595,-0.1855555
1.011453,-0.08452172,-0.1913131
1.002613,-0.0733703,-0.1896817
1.000181,-0.0689942,-0.1852556
1.013163,-0.06722722,-0.1889115
1.028624,-0.07114805,-0.1948175
1.038185,-0.08441104,-0.2077518
1.034801,-0.08898596,-0.2062967
1.020578,-0.08543179,-0.1874604
1.012444,-0.08810443,-0.1780782
1.01263,-0.09162073,-0.186715
1.011062,-0.09164112,-0.1983233
0.9995234,-0.08889338,-0.1911265
0.9958364,-0.08638093,-0.1815203
1.005614,-0.08652173,-0.1678224
1.006355,-0.08249105,-0.1400607
1.005678,-0.07670766,-0.1416064
1.010014,-0.07592448,-0.1494157
1.015939,-0.0754732,-0.1313512
1.023252,-0.07349128,-0.1343122
1.02272,-0.07159852,-0.150039
1.023987,-0.06511835,-0.1607535
1.022043,-0.06045983,-0.1705618
1.008311,-0.06821396,-0.1502569
1.000949,-0.07811725,-0.132488
1.000364,-0.08152032,-0.1495936
1.007146,-0.07731968,-0.1624741
1.017264,-0.06966912,-0.1633025
1.016152,-0.07047683,-0.1638834
1.015358,-0.07269336,-0.1634073
1.019444,-0.07197338,-0.1641619
1.020291,-0.07463867,-0.1627377
1.021086,-0.07473162,-0.1605596
1.021767,-0.07071874,-0.1583843
1.018099,-0.0621033,-0.1559874
1.013475,-0.05624854,-0.1569877
1.015393,-0.06451476,-0.1585436
1.019222,-0.07354217,-0.1593459
1.019753,-0.07534415,-0.1616864
1.021605,-0.0786113,-0.1650925
1.021427,-0.0821281,-0.1673495
1.015833,-0.08163744,-0.1656829
1.011068,-0.08136456,-0.1612515
1.013362,-0.08213583,-0.1586534
1.017399,-0.07900678,-0.1590332
1.014997,-0.07667103,-0.1642026
1.015616,-0.07836335,-0.1723184
1.020013,-0.07973042,-0.1731612
1.018553,-0.07951942,-0.1680952
1.015749,-0.07366561,-0.1646835
1.01217,-0.0688057,-0.1648139
1.012128,-0.07866464,-0.1728125
1.018293,-0.08937036,-0.1808101
1.019719,-0.08442211,-0.177156
1.016103,-0.07956249,-0.170794
1.009743,-0.08188735,-0.1660623
1.006723,-0.08114073,-0.1588276
1.011222,-0.08364932,-0.1593193
1.01325,-0.08644767,-0.1633252
1.012186,-0.08329401,-0.161742
1.009951,-0.08312215,-0.1694646
1.009049,-0.08046017,-0.178888
1.012266,-0.07129932,-0.1783819
1.013252,-0.05726966,-0.1798618
1.015056,-0.04703023,-0.1805294
1.020757,-0.05767687,-0.1845538
1.025349,-0.07133736,-0.1918894
1.025416,-0.07477974,-0.1849612
1.021516,-0.08204993,-0.1678868
1.01839,-0.08614991,-0.1537215
1.011784,-0.07634214,-0.1563639
1.003372,-0.05948151,-0.1644949
1.005594,-0.05441668,-0.1584352
1.014067,-0.06359429,-0.1609889
1.019223,-0.07444365,-0.1675216
1.020535,-0.08711464,-0.1619768
1.019726,-0.08564192,-0.1633395
1.021626,-0.07409225,-0.1620962
1.023426,-0.07513885,-0.1555518
1.014771,-0.06987329,-0.1583029
1.003341,-0.06257152,-0.1623381
1.003677,-0.06476183,-0.1664663
1.010953,-0.06084099,-0.1655279
1.016352,-0.06223345,-0.1617585
1.018739,-0.0677348,-0.1647223
1.019616,-0.0695827,-0.1630574
1.019863,-0.07291727,-0.1604013
1.018211,-0.06608158,-0.1609869
1.014583,-0.06004112,-0.1570645
1.009665,-0.06660202,-0.1555207
1.010088,-0.07012571,-0.1603207
1.019651,-0.0686137,-0.1669608
1.024866,-0.06819275,-0.1669719
1.015857,-0.0651879,-0.1599671
1.003591,-0.05811626,-0.1562005
1.003892,-0.05671928,-0.1580769
1.014338,-0.06018442,-0.1668002
1.0223,-0.06005936,-0.1754859
1.023741,-0.05960139,-0.1724399
1.018753,-0.05491504,-0.1588129
1.011145,-0.05050171,-0.1397346
1.0066,-0.05698667,-0.1321416
1.013645,-0.06605866,-0.1490718
1.028641,-0.0758324,-0.1655679
1.029402,-0.07964609,-0.1618413
1.022056,-0.06947776,-0.158733
1.016192,-0.06553677,-0.1626642
1.00149,-0.07682434,-0.1580862
0.9941354,-0.08769507,-0.1497924
1.004306,-0.08949283,-0.1442619
1.018354,-0.09062953,-0.146469
1.025213,-0.09639537,-0.1597341
1.020537,-0.09408026,-0.1741267
1.016901,-0.08396195,-0.1825576
1.017571,-0.07251991,-0.1700074
1.014771,-0.06365814,-0.1487795
1.014849,-0.07310545,-0.1520521
1.018943,-0.08175938,-0.1640087
1.019506,-0.06998377,-0.1687754
1.016253,-0.06496493,-0.1639978
1.012723,-0.06996037,-0.1508323
1.012432,-0.07172866,-0.1522407
1.017614,-0.07486415,-0.1577271
1.022069,-0.07741739,-0.1577685
1.021989,-0.08084083,-0.1613091
1.021184,-0.08540409,-0.1573893
1.016873,-0.08595475,-0.1563233
1.008351,-0.08547156,-0.1620831
1.003807,-0.08356785,-0.1641558
1.006777,-0.07999273,-0.1647135
1.011642,-0.07998373,-0.1604986
1.014377,-0.080334,-0.1599696
1.012775,-0.07508474,-0.1601546
1.007631,-0.06766392,-0.1511099
1.008663,-0.05997279,-0.145783
1.013727,-0.04843635,-0.146566
1.015834,-0.04051284,-0.1496552
1.016562,-0.05159408,-0.1563561
1.016666,-0.07958342,-0.1667503
1.021316,-0.1067221,-0.1714024
1.022806,-0.1174515,-0.164903
1.013949,-0.1097211,-0.1632311
1.005831,-0.1025106,-0.1639225
1.001145,-0.09501919,-0.1643886
1.002619,-0.07515736,-0.1715013
1.011489,-0.06687979,-0.1736864
1.021007,-0.0686188,-0.1765245
1.026172,-0.0665475,-0.1811777
1.02541,-0.07726889,-0.1845619
1.022927,-0.08443589,-0.1961876
1.013717,-0.07456507,-0.1978905
1.003669,-0.06578983,-0.1927333
1.003604,-0.06446175,-0.1937674
1.003808,-0.06793899,-0.1808484
1.008656,-0.07009258,-0.1644936
1.016897,-0.07297934,-0.1625728
1.017733,-0.07290603,-0.1674481
1.019535,-0.06655936,-0.1707678
1.020484,-0.06196997,-0.1646058
1.018571,-0.056808,-0.1594506
1.019629,-0.05988083,-0.15966
1.019048,-0.06567889,-0.1560838
1.014044,-0.06149455,-0.1578869
1.005839,-0.06390923,-0.1669716
1.001137,-0.06866495,-0.1730356
1.008075,-0.07389953,-0.1709262
1.017887,-0.08858534,-0.164642
1.018128,-0.09238099,-0.1632567
1.011428,-0.08190742,-0.164916
1.003597,-0.07640484,-0.1692318
1.002347,-0.07909274,-0.1745599
1.011874,-0.07913599,-0.1743849
1.019259,-0.07379639,-0.1752307
1.019097,-0.07009249,-0.1765636
1.01962,-0.06751287,-0.1733627
1.019587,-0.06910784,-0.1726176
1.012998,-0.07356763,-0.1715688
1.007384,-0.07192975,-0.1655134
1.013005,-0.07072678,-0.1626437
1.021423,-0.07223831,-0.1661234
1.023271,-0.07463434,-0.1696087
1.01572,-0.07913835,-0.1683117
1.003852,-0.07504759,-0.161939
1.004588,-0.06490906,-0.1549801
1.011695,-0.0617529,-0.1543445
1.014171,-0.06701784,-0.157161
1.018266,-0.07549165,-0.1577558
1.018097,-0.07636151,-0.1598197
1.013645,-0.07391185,-0.1613313
1.012013,-0.07741996,-0.1613671
1.011829,-0.08113162,-0.1655426
1.013218,-0.08419182,-0.1699345
1.01245,-0.08335054,-0.1731389
1.01191,-0.08025561,-0.1761694
1.013283,-0.08349454,-0.1756709
1.011984,-0.08679691,-0.1711919
1.01324,-0.08919009,-0.1667996
1.017186,-0.08737293,-0.1714446
1.022322,-0.07561937,-0.1788765
1.026499,-0.06757217,-0.1807743
1.023072,-0.06764903,-0.1827809
1.016515,-0.069945,-0.1760377
1.010763,-0.07430485,-0.1623395
1.011474,-0.07907177,-0.1613157
1.017688,-0.07904034,-0.1695439
1.019303,-0.07336995,-0.1778596
1.024113,-0.06547215,-0.1827415
1.027857,-0.04987886,-0.1794417
1.021149,-0.04042317,-0.1742356
1.016903,-0.05078738,-0.1686629
1.015073,-0.06039466,-0.1613011
1.011792,-0.06849608,-0.164865
1.013591,-0.07900055,-0.1785179
1.019333,-0.08984408,-0.1917945
1.02214,-0.1057042,-0.2028399
1.016521,-0.1061426,-0.2019983
1.001236,-0.09921772,-0.1873721
0.9827387,-0.1009595,-0.167296
0.981664,-0.09712812,-0.1528786
1.002117,-0.09689757,-0.1580259
1.023883,-0.09564314,-0.1745239
1.037022,-0.0864397,-0.1903036
1.033073,-0.08258789,-0.1934184
1.018505,-0.07669376,-0.1780065
1.007303,-0.07148312,-0.1660825
0.9968959,-0.07100375,-0.1606299
0.9976709,-0.07038456,-0.1609255
1.005756,-0.07140893,-0.1682274
1.012615,-0.06898594,-0.165728
1.022937,-0.0636954,-0.1643522
1.017803,-0.0581606,-0.1650811
1.009503,-0.06013541,-0.1627479
1.016378,-0.06975839,-0.1662483
1.018941,-0.07362749,-0.1606765
1.02488,-0.0751948,-0.1571221
1.030484,-0.07118598,-0.1667239
1.017578,-0.06531375,-0.1709169
1.006327,-0.06968404,-0.1681399
1.007946,-0.0720405,-0.1628973
1.01011,-0.076478,-0.1635081
1.008645,-0.08521916,-0.1650213
1.011615,-0.08353865,-0.1624039
1.015368,-0.08099573,-0.1637131
1.013973,-0.08027866,-0.1604842
1.015583,-0.07138753,-0.1565588
1.014725,-0.06199501,-0.1555635
1.011718,-0.05879548,-0.1548284
1.013377,-0.06186041,-0.1599763
1.014505,-0.07043036,-0.1632912
1.019002,-0.07456554,-0.1663275
1.023551,-0.07318556,-0.1689163
1.023402,-0.07297915,-0.1670885
1.021341,-0.06947328,-0.167158
1.015162,-0.06648272,-0.1636952
1.011541,-0.06916509,-0.161092
1.012412,-0.07197207,-0.1636493
1.012882,-0.07409632,-0.1656032
1.01365,-0.07332919,-0.17011
1.016018,-0.06992141,-0.1715433
1.022156,-0.0661421,-0.1673255
1.02607,-0.06156177,-0.1636242
1.020253,-0.06587672,-0.1605211
1.009326,-0.07901815,-0.1561132
1.005676,-0.08462807,-0.1508235
1.013453,-0.08140309,-0.1522714
1.019199,-0.07799852,-0.1621106
1.015502,-0.07453071,-0.1720922
1.0119,-0.06904624,-0.173849
1.013669,-0.06473862,-0.1674176
1.017182,-0.06624267,-0.1652572
1.021288,-0.06891906,-0.1673273
1.021838,-0.06746421,-0.1668935
1.017396,-0.06459437,-0.1683867
1.015291,-0.06249608,-0.1692238
1.011619,-0.06424436,-0.1650256
1.008153,-0.07057506,-0.1614486
1.012072,-0.07613457,-0.1652113
1.013406,-0.07153896,-0.171383
1.012062,-0.06179105,-0.1694649
1.013175,-0.06354971,-0.1614659
1.01507,-0.06632598,-0.1545947
1.017638,-0.06458759,-0.1566277
1.016517,-0.06887038,-0.1649304
1.014231,-0.07012487,-0.1676833
1.013303,-0.06967266,-0.168101
1.010839,-0.0730323,-0.1650798
1.009227,-0.07655321,-0.1584131
1.009374,-0.07941786,-0.1582074
1.011725,-0.07624653,-0.1620629
1.017759,-0.07181395,-0.171476
1.024333,-0.06883293,-0.1799821
1.020388,-0.07045057,-0.175458
1.004031,-0.08355151,-0.169446
0.9953466,-0.0922655,-0.1662801
1.007336,-0.08677277,-0.1605052
1.023144,-0.07260008,-0.1541609
1.021104,-0.06092977,-0.1506792
1.015728,-0.06075049,-0.1553346
1.018835,-0.05682673,-0.1703425
1.01438,-0.04705325,-0.1845686
1.014421,-0.05138824,-0.1766621
1.022221,-0.06355498,-0.1625242
1.021098,-0.06859769,-0.1699241
1.018051,-0.07229714,-0.1758038
1.012152,-0.07289938,-0.1751316
1.010787,-0.07030221,-0.1796233
1.017053,-0.07244133,-0.1755121
1.017368,-0.0690092,-0.173684
1.019895,-0.06427283,-0.1742774
1.018183,-0.06499354,-0.1689839
1.011639,-0.06589959,-0.1689075
1.012847,-0.07344218,-0.1623249
1.01221,-0.07613061,-0.1532
1.01237,-0.07217596,-0.1558363
1.013149,-0.07040367,-0.1631619
1.011611,-0.06456472,-0.1652884
1.013393,-0.06491959,-0.1591383
1.013147,-0.06913288,-0.1621321
1.014073,-0.06881125,-0.1695851
1.01567,-0.06578747,-0.1724489
1.015942,-0.0548452,-0.1770745
1.019375,-0.04997424,-0.1727088
1.019836,-0.0609982,-0.1702854
1.01867,-0.07444242,-0.1692757
1.017011,-0.07674359,-0.162199
1.014137,-0.06852416,-0.1625562
1.015253,-0.0626518,-0.1590637
1.015417,-0.05985269,-0.1585696
1.013082,-0.05900952,-0.1647088
1.012111,-0.0599427,-0.163187
1.012484,-0.05763596,-0.1646173
1.013745,-0.05838691,-0.1653345
1.014168,-0.06836006,-0.1667363
1.014633,-0.08335129,-0.1717226
1.014672,-0.08652362,-0.1695843
1.013605,-0.07253829,-0.1665017
1.01409,-0.0624189,-0.1631485
1.01695,-0.06344203,-0.1657357
1.022512,-0.06808133,-0.1752842
1.025717,-0.07272194,-0.1767155
1.019412,-0.07527237,-0.1730908
1.011284,-0.0756679,-0.1700656
1.012223,-0.07459961,-0.1740834
1.01621,-0.07591961,-0.1808845
1.016574,-0.07711692,-0.1789454
1.015029,-0.07643466,-0.1788866
1.011982,-0.08015295,-0.1807801
1.010305,-0.08590647,-0.1801359
1.007981,-0.08840051,-0.1811163
1.004832,-0.08380666,-0.1789879
1.011055,-0.07453239,-0.1741948
1.021866,-0.06787675,-0.1693683
1.027379,-0.06315115,-0.1702601
1.027597,-0.0624003,-0.1767893
1.020008,-0.06627693,-0.1793344
1.009514,-0.06878575,-0.17849
1.006555,-0.06659902,-0.1668933
1.010689,-0.06287392,-0.1553819
1.014202,-0.06385621,-0.1714812
1.016636,-0.06466521,-0.1891556
1.020773,-0.06442762,-0.1829827
1.019906,-0.06781568,-0.1773521
1.016261,-0.06897756,-0.1759667
1.016537,-0.07011884,-0.1660106
1.014802,-0.07418658,-0.1584132
1.011995,-0.07586991,-0.1584122
1.008835,-0.07509046,-0.1672732
1.003872,-0.07447238,-0.1817102
1.00666,-0.07356262,-0.1825379
1.015834,-0.06614258,-0.1825571
1.021393,-0.05799775,-0.1923868
1.019577,-0.06082634,-0.1839746
1.01235,-0.06474034,-0.1554259
1.006263,-0.06336983,-0.1261387
1.004807,-0.06448374,-0.1229153
1.014728,-0.06787468,-0.1523241
1.028275,-0.07278096,-0.1686915
1.025688,-0.07684348,-0.1637
1.01816,-0.07406433,-0.1616577
1.012088,-0.07225878,-0.1591282
1.001008,-0.07455865,-0.1566236
1.002044,-0.07340858,-0.1573802
1.013061,-0.07092481,-0.165966
1.021411,-0.06257972,-0.1784641
1.028916,-0.05170984,-0.1823024
1.025544,-0.05597,-0.1812673
1.016261,-0.0639529,-0.1773442
1.013744,-0.063858,-0.1709673
1.016332,-0.06494848,-0.1639446
1.022588,-0.06156663,-0.1662577
1.02049,-0.05628645,-0.1750439
1.012581,-0.06126627,-0.1673438
1.010596,-0.06383499,-0.1580388
1.009079,-0.05899107,-0.1546587
1.011077,-0.05874322,-0.1510726
1.015507,-0.06478093,-0.1576642
1.021315,-0.07188848,-0.1605598
1.025827,-0.07319318,-0.1634085
1.017908,-0.07079257,-0.1646119
1.013185,-0.06877214,-0.1537585
1.014199,-0.06695692,-0.154212
1.010531,-0.07065265,-0.155285
1.011138,-0.07388066,-0.1525745
1.01262,-0.07177437,-0.1579719
1.014251,-0.06709634,-0.1572938
1.016513,-0.05928789,-0.1574558
1.016441,-0.05781274,-0.1566626
1.020551,-0.05819029,-0.1549597
1.023195,-0.0564188,-0.163193
1.020096,-0.065526,-0.1669208
1.016452,-0.07348734,-0.1673574
1.015204,-0.07250233,-0.1709368
1.015113,-0.07287729,-0.1747565
1.013133,-0.07544155,-0.1743919
1.0122,-0.07867361,-0.1690162
1.012871,-0.07413234,-0.1691993
1.015277,-0.06437269,-0.1676389
1.017517,-0.06137478,-0.1642925
1.015699,-0.06375212,-0.1635912
1.015055,-0.06719207,-0.1558599
1.017212,-0.06752662,-0.1507589
1.018706,-0.07027456,-0.1547273
1.018197,-0.07351933,-0.1652321
1.0172,-0.06597036,-0.1745252
1.016658,-0.05801819,-0.1710847
1.014657,-0.05723096,-0.1642779
1.014862,-0.06414901,-0.1605502
1.016015,-0.07404652,-0.1591974
1.014442,-0.073008,-0.1595198
1.013531,-0.06988057,-0.1558178
1.012412,-0.0718142,-0.1519855
1.01299,-0.07233119,-0.1525538
1.016271,-0.0737246,-0.1547484
1.018057,-0.07075223,-0.1569275
1.021054,-0.06146018,-0.1606878
1.025794,-0.05702461,-0.1680757
1.030337,-0.06492766,-0.1787328
1.029833,-0.08229607,-0.1804957
1.015223,-0.09455994,-0.1600457
0.9940064,-0.09069483,-0.135502
0.9836686,-0.07129481,-0.1313354
0.990671,-0.05203295,-0.1409647
1.008003,-0.0534539,-0.1467779
1.022441,-0.06464086,-0.1491128
1.025151,-0.06907448,-0.1562582
1.021065,-0.07233528,-0.1586583
1.020892,-0.06746142,-0.1539712
1.015979,-0.05933066,-0.1546366
1.004732,-0.06885406,-0.1588927
0.9989054,-0.08151057,-0.1614058
0.9955617,-0.08676398,-0.1570453
1.006353,-0.09098728,-0.1497238
1.02464,-0.08794625,-0.1538504
1.024482,-0.08434151,-0.1670632
1.019238,-0.08288454,-0.1789196
1.017351,-0.07982821,-0.1777618
1.018389,-0.08076253,-0.1669106
1.022058,-0.08154474,-0.164778
1.019257,-0.08500886,-0.166534
1.016241,-0.09118025,-0.1699812
1.011841,-0.089978,-0.1756671
1.009358,-0.08524174,-0.1709149
1.013095,-0.08265659,-0.1669845
1.013861,-0.08557469,-0.1689884
1.016622,-0.08910619,-0.1678494
1.018026,-0.08615638,-0.1694861
1.015893,-0.08449003,-0.1684013
1.013245,-0.08593647,-0.1587978
1.00613,-0.08652004,-0.1523251
1.004911,-0.0880298,-0.1583559
1.008376,-0.08936115,-0.1689026
1.012002,-0.0890307,-0.1718544
1.018546,-0.0891543,-0.1727987
1.020297,-0.09166317,-0.169654
1.018337,-0.0939702,-0.1620301
1.012412,-0.09321716,-0.1638035
1.004892,-0.09181725,-0.1637095
1.005879,-0.08836932,-0.1598201
1.01358,-0.07930003,-0.1671053
1.02356,-0.07424695,-0.1714469
1.026099,-0.0814292,-0.1669377
1.017759,-0.09044567,-0.1641765
1.010928,-0.0922396,-0.1611662
1.010702,-0.08776985,-0.1571541
1.011194,-0.0816547,-0.1568912
1.010825,-0.08134419,-0.1647739
1.016608,-0.08450217,-0.1770521
1.021388,-0.08497961,-0.1813522
1.016274,-0.08572958,-0.1698157
1.012783,-0.08906358,-0.1560883
1.014058,-0.09293084,-0.1592747
1.014111,-0.09176976,-0.1648323
1.013156,-0.08641565,-0.162956
1.011212,-0.08386397,-0.1645851
1.009416,-0.08337118,-0.1650368
1.011006,-0.08688932,-0.1698935
1.013938,-0.09164089,-0.1819917
1.01335,-0.08974568,-0.1851313
1.013284,-0.08654191,-0.1798196
1.013843,-0.08314062,-0.1722317
1.011842,-0.08046413,-0.167464
1.013286,-0.08256038,-0.1697392
1.014981,-0.08354162,-0.1730071
1.014238,-0.08482485,-0.1740394
1.016393,-0.08735031,-0.1740508
1.019105,-0.08687947,-0.1752277
1.021096,-0.08737125,-0.176996
1.01912,-0.08767879,-0.1766043
1.012438,-0.08530316,-0.1765362
1.008864,-0.08424495,-0.179192
1.008538,-0.0847033,-0.1815423
1.012306,-0.08362961,-0.1802647
1.019194,-0.07806822,-0.1798802
1.020022,-0.07121969,-0.1840545
1.015072,-0.07210939,-0.1841879
1.008151,-0.07931611,-0.1757207
1.004357,-0.0847023,-0.1712598
1.009875,-0.08668199,-0.1690599
1.014401,-0.0860942,-0.1594716
1.009588,-0.08558646,-0.1653563
1.006715,-0.08562958,-0.1792101
1.010553,-0.08458668,-0.1735989
1.013911,-0.08687056,-0.1748091
1.015484,-0.09120996,-0.1794685
1.014155,-0.09138572,-0.1698522
1.011316,-0.0863755,-0.1665044
1.013432,-0.07768305,-0.1619352
1.014577,-0.07083126,-0.1583647
1.011392,-0.06656302,-0.1628106
1.011639,-0.06707564,-0.1639741
1.016476,-0.08151834,-0.1715236
1.023911,-0.09508425,-0.1719946
1.0258,-0.0872601,-0.1618584
1.017253,-0.07571763,-0.1605118
1.009495,-0.07512012,-0.1595256
1.008907,-0.07241311,-0.1606827
1.01309,-0.07514251,-0.1653061
1.018705,-0.08726849,-0.169584
1.021902,-0.08827201,-0.1736122
1.020588,-0.08317467,-0.1714518
1.017022,-0.081653,-0.1711984
1.014206,-0.08281247,-0.162737
1.009216,-0.0865346,-0.1493719
1.008247,-0.08405886,-0.1585069
1.014689,-0.08166685,-0.1673152
1.019913,-0.08091972,-0.1631067
1.026127,-0.07778724,-0.1665241
1.026266,-0.08179793,-0.1706319
1.018901,-0.08486777,-0.1667809
1.01756,-0.08443744,-0.1560078
1.012052,-0.08543123,-0.1428442
1.001873,-0.08406803,-0.1440552
0.9997062,-0.08457268,-0.1585434
1.006758,-0.08323499,-0.1651595
1.019262,-0.08044479,-0.1610266
1.021578,-0.08053436,-0.1585292
1.017553,-0.07816113,-0.1625457
1.017287,-0.07606589,-0.1651618
1.014385,-0.0751571,-0.1601702
1.015335,-0.0767965,-0.1553425
1.018902,-0.08259498,-0.1497529
1.019531,-0.08426715,-0.143474
1.019526,-0.08217089,-0.1472583
1.016208,-0.08150307,-0.1533737
1.014509,-0.08197921,-0.1539489
1.016264,-0.08236869,-0.1501648
1.019793,-0.08259425,-0.1425107
1.023708,-0.08349703,-0.1410401
1.02162,-0.08176976,-0.1476415
1.016889,-0.07679279,-0.1518373
1.014281,-0.07345226,-0.1509552
1.013824,-0.07285322,-0.1527339
1.014746,-0.07317221,-0.1581633
1.015319,-0.07595881,-0.157389
1.016765,-0.08314033,-0.1531716
1.015314,-0.08785805,-0.15026
1.011636,-0.0859821,-0.1446553
1.012748,-0.07950778,-0.1437794
1.014954,-0.06881772,-0.1495015
1.016226,-0.06740218,-0.1538621
1.016905,-0.08027202,-0.1569839
1.013652,-0.08804811,-0.1565006
1.01186,-0.08426447,-0.1520899
1.014408,-0.07827962,-0.1503485
1.015683,-0.07519928,-0.1573356
1.013583,-0.07352832,-0.1688147
1.012376,-0.07415516,-0.1699077
1.017247,-0.08029921,-0.1664712
1.022165,-0.08684879,-0.1690206
1.020586,-0.08907117,-0.1700256
1.016956,-0.08629874,-0.1706484
1.013506,-0.08187972,-0.1694589
1.011436,-0.07825192,-0.1623366
1.012543,-0.07526058,-0.1588813
1.013015,-0.07624459,-0.1615969
1.012054,-0.0741728,-0.1649593
1.012583,-0.07061111,-0.166279
1.012733,-0.07387193,-0.1657269
1.012525,-0.07502317,-0.1625175
1.014509,-0.07481489,-0.156903
1.015987,-0.07546608,-0.1557776
1.016221,-0.07483625,-0.1616192
1.016759,-0.07837716,-0.1672618
1.016612,-0.08452922,-0.1642303
1.015179,-0.08850633,-0.1611597
1.01226,-0.08267129,-0.1688314
1.010281,-0.07220948,-0.1729805
1.01151,-0.07108495,-0.1706307
1.014592,-0.07460451,-0.1727916
1.017669,-0.08203268,-0.1761084
1.018443,-0.09056529,-0.1771794
1.015426,-0.08774781,-0.1748749
1.010835,-0.07990019,-0.169306
1.009126,-0.07207912,-0.1626208
1.011387,-0.06552855,-0.1618967
1.013517,-0.07673406,-0.1709682
1.01286,-0.09572996,-0.1752891
1.01424,-0.09565655,-0.1708582
1.019042,-0.08649032,-0.1685602
1.019607,-0.07800505,-0.1721716
1.015549,-0.07177378,-0.1762839
1.012785,-0.08162757,-0.1748326
1.013502,-0.09139777,-0.1748824
1.014752,-0.08634715,-0.1778343
1.013429,-0.08253488,-0.1795334
1.013715,-0.08111752,-0.1810469
1.014627,-0.07945738,-0.1770428
1.014232,-0.08067133,-0.1710888
1.016342,-0.07885609,-0.168707
1.018528,-0.07576501,-0.1690014
1.021486,-0.07864435,-0.1723398
1.023238,-0.08825701,-0.1732892
1.018011,-0.09666193,-0.1724963
1.009611,-0.09048175,-0.1718796
1.00231,-0.08079845,-0.1713357
1.003383,-0.08510181,-0.1731005
1.009988,-0.08670749,-0.1721615
1.011003,-0.08371304,-0.171547
1.012006,-0.08820821,-0.1727277
1.012552,-0.08660722,-0.1677632
1.011509,-0.08168872,-0.1581651
1.015807,-0.08031356,-0.1502788
1.017786,-0.07875427,-0.1557705
1.016113,-0.08471667,-0.1694522
1.015245,-0.09154186,-0.1722387
1.011766,-0.09242399,-0.1699555
1.007624,-0.09109635,-0.169841
1.006093,-0.08741827,-0.1743129
1.009426,-0.08554185,-0.1841096
1.016229,-0.08585361,-0.1889958
1.020072,-0.08738286,-0.1893166
1.015079,-0.08798488,-0.1820394
1.007735,-0.08696959,-0.1726023
1.010351,-0.08789195,-0.177024
1.012342,-0.0874012,-0.1801147
1.010615,-0.0876249,-0.1778556
1.014642,-0.08973562,-0.1860139
1.014576,-0.09036243,-0.1908766
1.013733,-0.09130644,-0.1779636
1.016553,-0.09253967,-0.1655743
1.014121,-0.0937945,-0.1711584
1.01146,-0.08806884,-0.178653
1.00976,-0.0803196,-0.1784178
1.012249,-0.08548386,-0.1794713
1.020422,-0.09144578,-0.1750242
1.021992,-0.09165699,-0.1710849
1.018992,-0.09282793,-0.1750662
1.01374,-0.08794754,-0.1730204
1.007432,-0.08231616,-0.1700519
1.009624,-0.08543271,-0.1699419
1.013885,-0.0895304,-0.1691781
1.013884,-0.091428,-0.171993
1.013552,-0.09252139,-0.1702153
1.011202,-0.09129906,-0.1661234
1.009557,-0.0901391,-0.1643952
1.014509,-0.08597505,-0.1642849
1.020313,-0.0796119,-0.1736115
1.020132,-0.08090731,-0.1789683
1.018174,-0.08222572,-0.1673728
1.016647,-0.07912418,-0.1520382
1.012331,-0.08140328,-0.1490356
1.008259,-0.08162639,-0.1568161
1.00637,-0.07881433,-0.1600126
1.005312,-0.08030806,-0.1602416
1.009417,-0.07785432,-0.1633048
1.017731,-0.07476491,-0.1668257
1.022909,-0.07685705,-0.1687135
1.021843,-0.08175781,-0.1632416
1.015214,-0.08937774,-0.1582214
1.011522,-0.08896778,-0.1570406
1.016727,-0.08476587,-0.1533492
1.021304,-0.08582831,-0.1556157
1.017091,-0.08092393,-0.1646164
1.011108,-0.07583663,-0.171023
1.009878,-0.07528121,-0.1711732
1.009365,-0.07372018,-0.1683976
1.010848,-0.07669527,-0.1681986
1.0167,-0.0797689,-0.1646283
1.021676,-0.08223616,-0.1572992
1.022101,-0.08269777,-0.1553476
1.01895,-0.0758716,-0.1548409
1.01712,-0.07399089,-0.1547287
1.013478,-0.07570707,-0.1582447
1.008529,-0.07679844,-0.1561157
1.009115,-0.08084808,-0.1494471
1.011566,-0.08170411,-0.1481264
1.018577,-0.08123411,-0.1551243
1.022915,-0.07775272,-0.1641528
1.015874,-0.07339013,-0.1584777
1.012097,-0.07685772,-0.1505275
1.012697,-0.0793973,-0.1548897
1.01484,-0.07937053,-0.1516848
1.020088,-0.08176738,-0.1486498
1.022297,-0.08305526,-0.154669
1.021193,-0.08305998,-0.1529626
1.016565,-0.0828823,-0.1507713
1.013952,-0.08029981,-0.1528549
1.015614,-0.07801127,-0.1559734
1.015382,-0.08136899,-0.1625198
1.016622,-0.0823601,-0.1641178
1.022405,-0.07765334,-0.1628385
1.028572,-0.07556415,-0.1660248
1.025586,-0.07708423,-0.167169
1.015545,-0.08233262,-0.1625256
1.011746,-0.08592623,-0.1545559
1.016073,-0.08310227,-0.1445246
1.021758,-0.08098431,-0.1424857
1.018707,-0.08280867,-0.1595995
1.013824,-0.08427255,-0.1755823
1.015348,-0.08291047,-0.1677352
1.013815,-0.08294996,-0.1595801
1.016654,-0.08299824,-0.1663341
