accx,accy,accz
0.776373,0.5095389,0.3856282
0.7773201,0.5124885,0.3831614
0.7792005,0.5123767,0.3827286
0.7793585,0.5127701,0.3827917
0.7791072,0.5125158,0.3810167
0.7791454,0.5121183,0.3791129
0.7791725,0.5130077,0.377267
0.7792079,0.5127007,0.3772723
0.7791044,0.5155399,0.3792955
0.7786732,0.5197399,0.382042
0.7770248,0.520617,0.3858559
0.7768187,0.5197736,0.3851137
0.7800786,0.5167309,0.3803643
0.781856,0.5128072,0.3785048
0.7815667,0.5087387,0.3765691
0.782368,0.5059063,0.374145
0.7819549,0.5066781,0.3737307
0.7815393,0.5076426,0.3752667
0.7820535,0.5080383,0.3796342
0.7799318,0.5098432,0.3818029
0.7785135,0.5109424,0.3825677
0.7796429,0.5109347,0.3828341
0.7810132,0.5130527,0.3788357
0.7824895,0.5142416,0.3787596
0.7819173,0.5128068,0.3826963
0.7806635,0.5124155,0.3831027
0.7807368,0.5098102,0.3793085
0.7812717,0.5085999,0.3726878
0.7821742,0.5111008,0.3704872
0.7811729,0.5111094,0.3710521
0.7801175,0.5129747,0.3696494
0.7816092,0.514056,0.3725617
0.7819981,0.5122034,0.3766706
0.7800687,0.5129335,0.3751997
0.7788858,0.5118815,0.374033
0.7813654,0.5105122,0.3756836
0.7855771,0.5095651,0.3756892
0.7867014,0.5080072,0.3781145
0.7849342,0.5090038,0.3814858
0.7833281,0.508948,0.3770835
0.7831325,0.5097792,0.3732361
0.7830819,0.5105933,0.3761636
0.7813478,0.5097976,0.3774624
0.7792789,0.511992,0.3764397
0.7796019,0.5124015,0.3756771
0.7812834,0.5129635,0.3722011
0.7815902,0.5138801,0.3702002
0.7818021,0.5080713,0.3755826
0.7823506,0.5046737,0.3793638
0.7815242,0.510366,0.3756229
0.780978,0.5173248,0.3729217
0.7805627,0.517699,0.373849
0.7799856,0.5152826,0.3746922
0.7800071,0.5153323,0.3750868
0.7786657,0.5134745,0.3755225
0.7777629,0.5132019,0.3771896
0.7771456,0.5148251,0.382035
0.7758431,0.5128086,0.3884965
0.7779345,0.5111881,0.3913092
0.7810741,0.5087878,0.3885827
0.7820502,0.5070914,0.3854567
0.7804059,0.5107392,0.3872327
0.7771461,0.5163388,0.3901134
0.7776637,0.5210678,0.3880848
0.7795963,0.520349,0.3788938
0.78076,0.5153393,0.3688495
0.7827946,0.5103582,0.3728642
0.7820229,0.5081717,0.3800325
0.7817458,0.5114052,0.3750471
0.7842515,0.5117617,0.3739017
0.784685,0.510419,0.3761604
0.7827165,0.5126926,0.374284
0.779442,0.5121311,0.3764862
0.7783549,0.5106672,0.3776911
0.7799668,0.5094261,0.3776038
0.7809099,0.5094335,0.3794356
0.7823189,0.5123577,0.3825082
0.7823765,0.5117138,0.3880612
0.7811823,0.5081074,0.3867021
0.7815144,0.5050231,0.3826206
0.7809077,0.5083761,0.3811399
0.7803811,0.514611,0.376701
0.7806644,0.5123966,0.3797131
0.7800224,0.5113583,0.3852121
0.7787605,0.512525,0.3815637
0.7759448,0.509275,0.379418
0.774872,0.5096145,0.3794911
0.7780802,0.5110599,0.3797732
0.7818469,0.5109747,0.3833587
0.7828496,0.5116899,0.3851088
0.7805554,0.5116606,0.3864924
0.7773664,0.5128486,0.3886677
0.7741059,0.5131563,0.3891599
0.7739838,0.5137571,0.3909593
0.7762895,0.5156739,0.3925269
0.775078,0.5127198,0.3919667
0.777729,0.5095411,0.3879863
0.7837707,0.5103672,0.3809702
0.7845973,0.5099258,0.3778997
0.78423,0.5091853,0.3766684
0.7812222,0.5102135,0.3763496
0.7775335,0.5104986,0.3807111
0.7784781,0.5103888,0.3813866
0.7789075,0.5108923,0.3796702
0.7789884,0.5118663,0.3807935
0.7798591,0.5130996,0.3786068
0.7807808,0.5121762,0.3769874
0.7822828,0.5102642,0.3771527
0.7813724,0.5096304,0.3732473
0.7799781,0.5093254,0.3695461
0.7824266,0.5101833,0.3693264
0.787033,0.5107331,0.3673964
0.7899785,0.5102644,0.3630532
0.7890169,0.5080539,0.3673742
0.7862674,0.5040753,0.3740455
0.7849764,0.5051177,0.3702338
0.7817605,0.5067437,0.3702441
0.7776284,0.5053968,0.3749716
0.7792099,0.509289,0.3749082
0.7824051,0.5120733,0.3752714
0.7845852,0.508259,0.3741056
0.7868216,0.5059296,0.3742487
0.7843461,0.5077772,0.377779
0.7813328,0.5092537,0.3791333
0.7827221,0.5076127,0.3804655
0.7829413,0.5063221,0.3796814
0.7815039,0.5056835,0.3748466
0.7825268,0.5058059,0.3699165
0.785786,0.5083376,0.3689511
0.7884516,0.5094597,0.3685787
0.7871925,0.5104592,0.3639494
0.7831895,0.5104127,0.3657611
0.7817229,0.5088057,0.3713748
0.7845538,0.5111185,0.3704245
0.7882289,0.5109821,0.3701245
0.7880385,0.5068748,0.3693927
0.7865346,0.5049727,0.3692467
0.7870271,0.5050943,0.3737468
0.785569,0.5080598,0.3774855
0.7838036,0.5116193,0.3804984
0.783625,0.5144309,0.3796808
0.7836502,0.5131927,0.3776267
0.7855355,0.5089507,0.3755834
0.7856843,0.5105723,0.3683705
0.7849679,0.5101819,0.3677067
0.785887,0.5071056,0.3705106
0.7849535,0.507166,0.3700704
0.7844994,0.5037508,0.3750478
0.783874,0.5041104,0.3749977
0.782796,0.5087889,0.3728314
0.7837987,0.5100322,0.378366
0.784326,0.5104304,0.3776517
0.7858006,0.5085505,0.3733542
0.7867053,0.5069696,0.3719247
0.7859199,0.50614,0.3718018
0.7871244,0.5079815,0.3758723
0.7871024,0.5131548,0.3768572
0.783726,0.5101734,0.3751868
0.7799138,0.5069745,0.3755779
0.7799836,0.5082551,0.3771739
0.782501,0.5054226,0.3804871
0.782756,0.5058249,0.37921
0.7833303,0.5069392,0.3776405
0.7828229,0.504848,0.3802065
0.7811235,0.5062926,0.3805862
0.7821841,0.5097151,0.3806733
0.7821465,0.513778,0.3792367
0.7815816,0.5140998,0.3765883
0.7822507,0.5087205,0.3750355
0.7817985,0.505468,0.3728529
0.7817471,0.5063604,0.3734311
0.7811792,0.5086491,0.3742595
0.7801222,0.5103001,0.374154
0.7805758,0.511108,0.3750672
0.780529,0.5120157,0.3736554
0.7791847,0.5124196,0.3742915
0.777136,0.5109331,0.3812105
0.7763016,0.5088176,0.3857408
0.7792087,0.5096642,0.378976
0.7825839,0.5102811,0.3716814
0.7823188,0.5091975,0.3759716
0.7814246,0.5092232,0.3813899
0.7820175,0.5062573,0.3837095
0.7811129,0.5033198,0.3861877
0.7802302,0.5068963,0.3834979
0.7815683,0.5106976,0.3795353
0.7823151,0.509922,0.3765425
0.7819206,0.5088,0.3721319
0.781816,0.5083228,0.370514
0.7820232,0.5061975,0.3702859
0.7819795,0.5052238,0.3710118
0.7818413,0.5042465,0.3713762
0.7820362,0.5016929,0.3716092
0.7820972,0.5028997,0.3793942
0.782969,0.5045407,0.3849872
0.7845876,0.5048307,0.3792266
0.7846624,0.5078495,0.3735521
0.7828754,0.51115,0.3730296
0.7809499,0.5150303,0.367426
0.7800321,0.5165597,0.3599455
0.7790334,0.5144546,0.3677498
0.779033,0.5151497,0.3756305
0.7819144,0.5143095,0.3710939
0.7846045,0.5103698,0.3719868
0.7841734,0.5093472,0.3748008
0.7813883,0.5104374,0.3767642
0.7809945,0.5117188,0.3817521
0.7833003,0.5109883,0.3809464
0.7835018,0.5093852,0.3790411
0.784584,0.5076043,0.377534
0.7844436,0.5037639,0.3737524
0.7803312,0.5034493,0.3744684
0.779994,0.5056872,0.3760036
0.7804372,0.5055923,0.3750137
0.7804295,0.5079029,0.3775354
0.7836526,0.5114189,0.3795938
0.7838346,0.5116327,0.3745736
0.7830317,0.512261,0.3701992
0.7844734,0.5133046,0.3716356
0.7849198,0.5120344,0.3728095
0.7846572,0.5119718,0.3717154
0.7836324,0.5112772,0.3706713
0.783134,0.5075739,0.3705056
0.783685,0.5043492,0.3710154
0.7851217,0.5008897,0.370967
0.7863954,0.5027999,0.3711051
0.7838603,0.5077873,0.3740248
0.7799617,0.5043633,0.3776624
0.7792532,0.5038605,0.3784317
0.7808828,0.5107371,0.3765246
0.7810144,0.5135992,0.3721907
0.7802084,0.5130202,0.3689891
0.7816379,0.5115786,0.3731655
0.7823775,0.5109462,0.3781642
0.7820928,0.5078869,0.372801
0.7837849,0.5037524,0.3669895
0.7852768,0.5068543,0.3678892
0.7849017,0.5091097,0.3650896
0.7845373,0.5086487,0.3639788
0.7859344,0.5104648,0.3678904
0.7874195,0.5100079,0.3697552
0.7876121,0.5111597,0.3764287
0.7876018,0.5138452,0.3810202
0.7873605,0.5141783,0.3727119
0.7875181,0.5153537,0.365569
0.7869107,0.5141396,0.3668544
0.7833862,0.509556,0.3706498
0.7792047,0.5074629,0.3761489
0.7785221,0.5091562,0.3803137
0.7814907,0.5108465,0.3792625
0.7824582,0.5107697,0.3772342
0.7805849,0.5101242,0.3761516
0.779425,0.5080706,0.3743326
0.7788284,0.5074001,0.3749116
0.7792062,0.5093289,0.3763341
0.7800718,0.509151,0.3753424
0.7826668,0.5094693,0.3748683
0.7868819,0.510481,0.3751262
0.7862382,0.5091421,0.3758619
0.7826177,0.5097734,0.3766536
0.7818411,0.5101299,0.374873
0.7835252,0.5089822,0.371925
0.7855613,0.5092344,0.370083
0.7849122,0.5081552,0.3712914
0.7840813,0.5092555,0.37501
0.7850209,0.5123684,0.3764
0.7835911,0.512343,0.3730213
0.7818902,0.5106816,0.3683335
0.7819427,0.5077614,0.3693369
0.7814271,0.5060037,0.3735776
0.7803071,0.5055855,0.3755515
0.7786274,0.5050314,0.3772334
0.7787889,0.5059806,0.3764831
0.7798049,0.5055462,0.3765608
0.7787991,0.5053888,0.3815873
0.7791176,0.5068942,0.3843724
0.77985,0.506915,0.3840605
0.7807641,0.5074527,0.384554
0.7836069,0.5087064,0.3859484
0.7838091,0.5095468,0.3829129
0.7826859,0.5075501,0.3766597
0.7826635,0.5042627,0.3772932
0.7818488,0.5065775,0.378648
0.7827971,0.5089345,0.3774231
0.7848344,0.507948,0.3799272
0.784735,0.5088913,0.3810906
0.7835395,0.5101674,0.3805251
0.7821888,0.5114152,0.3804954
0.7815748,0.5116199,0.3800788
0.7820384,0.5103054,0.3790419
0.782049,0.510479,0.3769843
0.7818036,0.5096217,0.3778115
0.7820201,0.5097484,0.3792332
0.7819545,0.5129816,0.3787752
0.7820591,0.5140787,0.3785776
0.7829083,0.5121388,0.3775472
0.7833857,0.5092042,0.3784522
0.7818351,0.5083013,0.379913
0.7779198,0.5090512,0.3789078
0.7752528,0.5096701,0.3790609
0.7769555,0.5116456,0.3785059
0.7805666,0.5104614,0.3745081
0.7823159,0.5078972,0.3723762
0.7805302,0.5094376,0.3788355
0.7784423,0.5100103,0.3865028
0.78087,0.5094319,0.3839204
0.7831714,0.5089515,0.3823027
0.7814053,0.5080426,0.3846416
0.7807591,0.5093103,0.3757087
0.780771,0.5101259,0.3674877
0.7804489,0.5096465,0.3732029
0.7828307,0.5096688,0.3786544
0.7847869,0.5097236,0.3804106
0.7849447,0.5098066,0.3855911
0.7843819,0.5096186,0.3875612
0.7827135,0.5103011,0.3790501
0.7816198,0.5124528,0.3700505
0.7816647,0.5136943,0.372202
0.7822475,0.5096969,0.3782095
0.781953,0.5039789,0.3796086
0.7816629,0.5050593,0.3785941
0.782274,0.5070413,0.376981
0.7817724,0.5065789,0.3768567
0.7824189,0.5089771,0.3774518
0.7848585,0.5091093,0.3762196
0.7866545,0.5082975,0.3746882
0.7860852,0.5105537,0.3731595
0.782772,0.5089471,0.3757034
0.7813239,0.5046458,0.3841184
0.7822921,0.5021781,0.3873907
0.7838278,0.5030417,0.3775129
0.785368,0.5071937,0.3660694
0.7847128,0.5101735,0.3690366
0.7842749,0.5128838,0.3725153
0.7840846,0.5115738,0.3697541
0.7829177,0.5059423,0.3804164
0.783626,0.5066905,0.388173
0.7860594,0.5075204,0.3799478
0.7900779,0.5039597,0.3765363
0.7915705,0.4996255,0.3782548
0.7838599,0.4954474,0.3798524
0.7741365,0.5060859,0.3810319
0.7747879,0.5250581,0.3784775
0.7830017,0.5280154,0.3708446
0.7890166,0.5169789,0.3620729
0.7897168,0.5033971,0.3649581
0.786185,0.4955295,0.3712191
0.7834726,0.4942672,0.3710143
0.7830748,0.4943378,0.3733764
0.7821325,0.4963361,0.3739582
0.7817808,0.5007083,0.3733076
0.7811456,0.5086313,0.377226
0.7816029,0.5168982,0.3773619
0.7850877,0.5205382,0.3751328
0.7871213,0.5223808,0.3758248
0.787318,0.5212718,0.3743636
0.7882149,0.5136872,0.3707615
0.789457,0.5009643,0.3689138
0.7888134,0.4937659,0.3689215
0.7874906,0.4996029,0.3701369
0.7876898,0.5043687,0.3705644
0.7872518,0.5037818,0.3716892
0.7875029,0.5072506,0.3747241
0.7870778,0.5105426,0.3764336
0.7835174,0.512659,0.376506
0.7816875,0.5128938,0.3724165
0.7845031,0.5094695,0.3673023
0.7893553,0.5095507,0.365917
0.7891318,0.5068501,0.3649234
0.7853354,0.5014786,0.3691139
0.7847729,0.5031482,0.3737229
0.7861367,0.5034404,0.3717687
0.7883669,0.503445,0.3721716
0.7878592,0.5054899,0.3723478
0.7869227,0.5033812,0.3708856
0.7900352,0.5040418,0.3710266
0.7904639,0.5050884,0.3703796
0.7888897,0.5045867,0.3711563
0.7870156,0.5081127,0.370875
0.7851341,0.5086129,0.3704624
0.7867877,0.5061895,0.3718598
0.788069,0.5052003,0.3731356
0.7887113,0.5057163,0.3762938
0.7876687,0.5087845,0.3772603
0.784739,0.5102955,0.3770172
0.7849298,0.5100482,0.3768585
0.7832241,0.5105937,0.3739294
0.7808771,0.5119907,0.3745134
0.7834955,0.5121449,0.3750356
0.7857195,0.5086515,0.3720386
0.7863126,0.5044767,0.3710614
0.786387,0.4998945,0.3696143
0.7857712,0.4977146,0.3712355
0.7864051,0.499494,0.3748865
0.787132,0.4998398,0.3698064
0.7873641,0.5029798,0.3623491
0.7867139,0.5085382,0.3600756
0.7846915,0.5126337,0.3606846
0.7840083,0.5177025,0.3619139
0.7832172,0.517826,0.3624187
0.7812679,0.5161041,0.3689876
0.781382,0.5176964,0.3774125
0.7806448,0.5137911,0.3748507
0.7784887,0.5071115,0.3716793
0.7800413,0.5042022,0.3746611
0.7828449,0.5032134,0.3750993
0.7840674,0.5027133,0.3763418
0.7838167,0.5000149,0.378127
0.7797966,0.4967512,0.3731433
0.7777049,0.4956328,0.3700217
0.7808769,0.497168,0.3769854
0.7812309,0.5000193,0.3850838
0.7808033,0.499821,0.385912
0.7830511,0.5015156,0.3834344
0.7836696,0.5053032,0.3819001
0.7849254,0.5049116,0.3790348
0.7853574,0.5057385,0.3767391
0.7841877,0.507713,0.3750249
0.7859207,0.5103346,0.3699272
0.7860054,0.5149617,0.367922
0.7831301,0.514376,0.3692912
0.781314,0.5121068,0.3673429
0.7815181,0.5100258,0.365362
0.782588,0.5054453,0.3625938
0.7817074,0.5062058,0.3604438
0.7816862,0.5083028,0.3666308
0.7824398,0.5061824,0.3772434
0.7815347,0.5066584,0.3824073
0.7820735,0.5064961,0.3774887
0.7821066,0.5035813,0.3726653
0.7816186,0.5028319,0.3773008
0.7824396,0.5009271,0.3793438
0.7830205,0.4990891,0.377067
0.785377,0.5005994,0.3798414
0.7865737,0.5019416,0.3813982
0.7841037,0.5034483,0.3798882
0.7826622,0.5049368,0.3782748
0.7834599,0.5056138,0.3732848
0.7845757,0.506173,0.3663695
0.7847785,0.5061156,0.3620677
0.7847706,0.5071773,0.3631216
0.7847561,0.5073663,0.3633268
0.7845751,0.5063901,0.361572
0.7850638,0.5070524,0.3697909
0.7853668,0.5061296,0.3787214
0.7856053,0.5049718,0.3752276
0.7857876,0.5059602,0.3735379
0.7867897,0.5064648,0.377733
0.7881191,0.5069305,0.3764236
0.7864412,0.5060988,0.3736066
0.7854854,0.50426,0.3734065
0.7865009,0.5050304,0.3729374
0.7861661,0.5068331,0.3775067
0.7869466,0.5074813,0.3845293
0.788102,0.5077413,0.3840717
0.7881512,0.5084755,0.3808178
0.7883726,0.5079106,0.3788814
0.788268,0.5044444,0.374576
0.7888698,0.5017821,0.3725483
0.7889134,0.5024799,0.3724575
0.7868296,0.503386,0.3667428
0.7855671,0.5029008,0.3651173
0.7860732,0.5047057,0.3758309
0.785987,0.5086366,0.3839477
0.784197,0.5107877,0.3804731
0.7831075,0.5123543,0.3760858
0.7850252,0.5129915,0.3758837
0.7869747,0.510939,0.3727491
0.7861438,0.5063034,0.3693881
0.7856572,0.5009837,0.3709918
0.7864755,0.5023856,0.371064
0.7860474,0.5070741,0.3695376
0.7864644,0.5073084,0.3695674
0.7890474,0.5091349,0.3706927
0.7905632,0.5122937,0.3740017
0.788839,0.512054,0.3756666
0.7862536,0.5086383,0.3732335
0.7867211,0.5028129,0.3683747
0.7875841,0.5019723,0.3644427
0.7879471,0.505342,0.3648132
0.7896733,0.5058834,0.3665684
0.7885446,0.5059988,0.3688595
0.7865388,0.5071741,0.3729892
0.7860176,0.508851,0.3749776
0.7846623,0.5084324,0.375224
0.7848152,0.5058258,0.3780299
0.7847438,0.5054117,0.3794887
0.7844395,0.5052447,0.3764067
0.7851445,0.5048516,0.3743668
0.7845787,0.5048576,0.3765595
0.7856704,0.5044646,0.3780579
0.7867809,0.5042848,0.3732229
0.7867489,0.5028431,0.3693875
0.7878933,0.5025613,0.3740149
0.7873729,0.5030398,0.3781433
0.7867411,0.5028202,0.3772984
0.7874728,0.5049999,0.3766191
0.7872331,0.5069243,0.3767198
0.7851585,0.5070976,0.3747472
0.7845892,0.5060437,0.3737683
0.789647,0.5049744,0.3799938
0.7927437,0.5061678,0.3841232
0.7887534,0.5073709,0.3751302
0.785431,0.5086893,0.365248
0.7869247,0.5084323,0.3664029
0.7892299,0.506277,0.3689988
0.7887572,0.5071226,0.3699779
0.787838,0.5089192,0.3753188
0.7870897,0.5095303,0.3757013
0.7855653,0.5093715,0.3733233
0.7854141,0.5077696,0.3765917
0.7860694,0.5052782,0.3761754
0.7864626,0.5030806,0.374234
0.7860083,0.5026593,0.3711183
0.7858572,0.5026236,0.3654925
0.7866807,0.5033411,0.3676513
0.7869273,0.5065763,0.3689722
0.7886471,0.5118993,0.3677195
0.7895246,0.5156073,0.3713932
0.7884474,0.5123996,0.37273
0.7892184,0.5080369,0.3731586
0.7900342,0.5056852,0.3756006
0.7912476,0.5028488,0.3777215
0.7919121,0.5043406,0.3739709
0.7896053,0.5058579,0.3663007
0.787961,0.5046451,0.3674074
0.7870539,0.504278,0.3685613
0.7858085,0.5021137,0.3669276
0.7858074,0.502626,0.3723291
0.7864012,0.5054679,0.3750469
0.7861262,0.5054863,0.3733204
0.7860469,0.5060262,0.3735466
0.7872527,0.506374,0.3746462
0.787509,0.5069387,0.3739891
0.7866035,0.5078609,0.3676794
0.7862102,0.5083447,0.3616896
0.7876831,0.5113522,0.3633413
0.7897836,0.5118238,0.3668003
0.7889259,0.5094612,0.3677687
0.7883862,0.5070535,0.3711651
0.7891752,0.5031523,0.373968
0.7878072,0.5051543,0.3726324
0.7871452,0.5085234,0.3717872
0.787438,0.504048,0.3679195
0.7865928,0.5004342,0.365285
0.7862214,0.5001613,0.366757
0.7880952,0.5012934,0.363811
0.791468,0.5036924,0.3638688
0.792334,0.5019534,0.3666735
0.7913612,0.5009527,0.3680059
0.7912998,0.5046297,0.3724015
0.7903527,0.5063035,0.3710738
0.789863,0.5056412,0.3672332
0.7913127,0.506321,0.3659201
0.7915359,0.5109795,0.3598117
0.7911985,0.5155666,0.3572552
0.7917491,0.5131575,0.3621073
0.7898925,0.5102548,0.367097
0.7879605,0.5113982,0.3692893
0.7887466,0.5110595,0.3687367
0.7871402,0.5098885,0.3720903
0.7843602,0.5097427,0.3772312
0.7846419,0.5089711,0.376683
0.7858292,0.507164,0.3758596
0.786727,0.5048263,0.3767806
0.7879067,0.5050161,0.3762537
0.7893041,0.5058403,0.376303
0.78922,0.5025044,0.3762238
0.7884155,0.500541,0.3747844
0.7889217,0.5024795,0.3745748
0.7875647,0.5035634,0.3751417
0.7842819,0.504549,0.3735983
0.78247,0.505723,0.3697207
0.7822238,0.5049999,0.3651314
0.7821489,0.5039094,0.3630223
0.7821576,0.5060132,0.3658204
0.7845058,0.5090699,0.3694737
0.7862652,0.5091021,0.3715902
0.7844519,0.508358,0.3744671
0.7843649,0.5057103,0.3741567
0.7861529,0.5028396,0.3714796
0.7862086,0.5041103,0.371202
0.7860778,0.5037953,0.3690562
0.7861468,0.5019828,0.3679017
0.7862255,0.5034298,0.3701771
0.7870674,0.5057291,0.36957
0.787746,0.5074642,0.3688174
0.7874105,0.507757,0.3685732
0.7864432,0.5081462,0.3658247
0.7858984,0.510271,0.3646177
0.7860647,0.5089224,0.3648378
0.7856775,0.5058248,0.3627939
0.7834013,0.5068095,0.3615636
0.7816183,0.5071419,0.3681022
0.7847192,0.5044112,0.3760596
0.7894939,0.5015651,0.3742841
0.79032,0.4996606,0.3719952
0.7900634,0.501342,0.3746136
0.7904041,0.5039145,0.373801
0.7892139,0.5031668,0.3738436
0.7883942,0.5044796,0.3758265
0.7880762,0.5092943,0.3736434
0.7874126,0.5110221,0.3723562
0.788295,0.5107858,0.3732108
0.7891641,0.5112185,0.3735858
0.7876514,0.5093541,0.3736456
0.7852252,0.5073847,0.3713469
0.7840446,0.5051599,0.3695457
0.7838267,0.5014214,0.3699704
0.783618,0.5031714,0.3703365
0.7854252,0.5083865,0.3704122
0.7897005,0.5098197,0.3707636
0.7921998,0.506856,0.3723466
0.7915446,0.5006369,0.3732823
0.7902288,0.498864,0.3742203
0.7881766,0.5025322,0.3764812
0.7859035,0.5032867,0.3772631
0.785821,0.5026763,0.3766163
0.7863591,0.5023896,0.3758222
0.786206,0.5007213,0.3767058
0.7869708,0.498786,0.3776776
0.7878434,0.4980865,0.3765713
0.7875548,0.5000607,0.3737989
0.7878424,0.5014691,0.369285
0.7902961,0.5022302,0.3700304
0.7926804,0.5042827,0.3720556
0.7927838,0.5070152,0.3680378
0.792264,0.5109724,0.3675182
0.7905725,0.5105446,0.3689111
0.7870675,0.5083814,0.3688404
0.7869023,0.5104374,0.3694429
0.7891953,0.5098717,0.367663
0.7888763,0.5088839,0.3695221
0.7887675,0.5095015,0.3729454
0.7891434,0.5075356,0.3735174
0.7884206,0.5072743,0.3759179
0.7881812,0.5068595,0.3755007
0.7868722,0.5045485,0.3751468
0.7857917,0.5035303,0.3783293
0.7862397,0.5012202,0.3779172
0.7868079,0.4995063,0.3774086
0.7874061,0.5007467,0.3781833
0.787214,0.5020974,0.3774669
0.787685,0.5027557,0.3766613
0.7878918,0.5045856,0.3715837
0.7879271,0.5074107,0.3659539
0.7895556,0.5065254,0.3675333
0.7887264,0.5028776,0.3693478
0.7873768,0.5012329,0.3681
0.7866614,0.5040028,0.3715861
0.7841592,0.5100004,0.37627
0.7828132,0.5115714,0.3751329
0.7815771,0.5104655,0.3744154
0.7816845,0.5106772,0.3754819
0.783315,0.5084804,0.3742567
0.7825085,0.5058089,0.3728309
0.7829959,0.5025205,0.3723086
0.7854005,0.5006852,0.3735328
0.7863311,0.5021054,0.3755712
0.7845308,0.5012726,0.3779826
0.7824396,0.5018315,0.3798566
0.7848864,0.5029378,0.3777025
0.7881384,0.5013762,0.3762099
0.7890941,0.5022751,0.3731414
0.7884223,0.5025403,0.3673572
0.7866861,0.5030258,0.3699405
0.7875537,0.507021,0.3715126
0.7885057,0.5089162,0.3644181
0.7892735,0.5077354,0.3611653
0.7913682,0.506062,0.3633807
0.7902877,0.5059589,0.3655525
0.7902251,0.5058582,0.3640089
0.7910919,0.5050931,0.360467
0.7885348,0.5068287,0.3616053
0.7883216,0.5073278,0.3709632
0.7875961,0.5067739,0.3798123
0.7850142,0.5081253,0.3693224
0.7862599,0.5077162,0.356377
0.7866722,0.5048747,0.3632031
0.7868924,0.5019976,0.3649777
0.7898753,0.5039794,0.3598513
0.7908256,0.5068639,0.3635133
0.7896849,0.5029656,0.3619989
0.7874364,0.5001247,0.3610172
0.7853747,0.5009192,0.3693782
0.7858779,0.5021872,0.3739804
0.7865547,0.5063322,0.3728824
0.7863097,0.5092147,0.3709315
0.7880958,0.5073377,0.3715455
0.79184,0.5033437,0.3693419
0.7940611,0.5019445,0.359859
0.7945657,0.5034591,0.3537687
0.7933852,0.5050759,0.3568284
0.7906543,0.5087038,0.3633643
0.7899862,0.5108778,0.3621298
0.7912286,0.509462,0.359679
0.7920316,0.5091224,0.3653834
0.7917613,0.5080191,0.3661026
0.7906455,0.5052455,0.3685811
0.7883188,0.5041176,0.376169
0.7851882,0.5039215,0.3723586
0.7864057,0.5020919,0.3685188
0.788837,0.4999016,0.3718131
0.7870262,0.5000581,0.3709709
0.78717,0.5022593,0.3691278
0.7876137,0.5051886,0.3701218
0.7843018,0.5062102,0.3719404
0.7826846,0.50536,0.3770944
0.784243,0.5054475,0.3796945
0.7889899,0.504808,0.3717684
0.7931246,0.5010352,0.3651893
0.7902417,0.4973991,0.3681025
0.7844323,0.4997235,0.3709831
0.7816204,0.5054207,0.3724329
0.7832735,0.5088751,0.3761013
0.7884786,0.510262,0.3755526
0.7917273,0.5075268,0.3718074
0.789841,0.5028578,0.3718426
0.7865256,0.501603,0.3705104
0.7839974,0.50216,0.3712341
0.7822793,0.5041456,0.3767123
0.782537,0.5064259,0.3756595
0.7821347,0.5089495,0.3737241
0.7814952,0.5120592,0.3757498
0.7832873,0.5093511,0.3749698
0.783605,0.5048079,0.3744584
0.783624,0.5044367,0.3746527
0.7862427,0.5031106,0.3738929
0.787959,0.5022396,0.3743989
0.786993,0.5034453,0.3752317
0.7852934,0.5044746,0.377415
0.7866609,0.506061,0.3802041
0.7893305,0.5056879,0.3783355
0.7905035,0.5041382,0.3757181
0.7907107,0.5047232,0.3763401
0.7885028,0.506771,0.3745926
0.7864183,0.5091332,0.3726169
0.7843806,0.5086118,0.3727283
0.7830638,0.5062909,0.370782
0.7856124,0.5052943,0.3685841
0.7863175,0.503647,0.3683552
0.787409,0.5037136,0.3716668
0.7901658,0.5050927,0.3759468
0.7886543,0.5047949,0.375456
0.7884488,0.50667,0.3741262
0.7894685,0.5077241,0.3744411
0.7885026,0.5060215,0.3734212
0.7889922,0.5051653,0.3734016
0.7886442,0.5030312,0.3747711
0.7872554,0.5029003,0.3742123
0.7871824,0.5050396,0.3733029
0.7876809,0.5042666,0.3728744
0.7880043,0.5047078,0.3697447
0.7886422,0.5062122,0.3651989
0.7890353,0.5054536,0.3647744
0.7859683,0.5050033,0.3687809
0.7837285,0.5037985,0.3715715
0.7862474,0.501074,0.3732724
0.7883812,0.4999778,0.376802
0.7892514,0.5004734,0.3786918
0.7898115,0.5018002,0.37745
0.7920436,0.5042488,0.3755703
0.7951061,0.5053142,0.3750625
0.791274,0.5063541,0.3766649
0.7864292,0.5090925,0.3784398
0.7876911,0.5075885,0.3782395
0.7877989,0.5039631,0.3779063
0.7869856,0.5044143,0.3785026
0.7882821,0.5059893,0.3754165
0.7887914,0.5073838,0.3710553
0.7892347,0.5073788,0.3699813
0.7889163,0.506115,0.3679934
0.7884698,0.5063796,0.3660334
0.7893556,0.5054088,0.3669782
0.788696,0.5050427,0.369632
0.7887163,0.5061771,0.3717001
0.788937,0.5050575,0.3708621
0.7863421,0.5045806,0.3708247
0.7839864,0.5042401,0.3728984
0.7828116,0.5036726,0.3744231
0.7843423,0.5047986,0.3757676
0.786431,0.5049301,0.3772737
0.7864862,0.505629,0.3773805
0.788923,0.5065568,0.3748211
0.7911133,0.5077109,0.3727614
0.7902193,0.5102492,0.3702981
0.7888757,0.5074637,0.3675366
0.7877829,0.5038007,0.372223
0.7875198,0.5056926,0.3769789
0.7884003,0.5052153,0.3726809
0.7902715,0.5032451,0.3684352
0.790453,0.5038504,0.366665
0.7890912,0.5017352,0.3635222
0.7887934,0.4991934,0.3632387
0.7887152,0.5016715,0.3647438
0.7890597,0.5039385,0.365049
0.7889089,0.5025613,0.3680864
0.7888622,0.5025661,0.3710724
0.7900448,0.5041302,0.3704965
0.7903709,0.5044019,0.3693417
0.7907622,0.5047438,0.3660825
0.7919845,0.5040563,0.3638044
0.7935004,0.5022233,0.3656847
0.7933176,0.5030384,0.3647078
0.7913542,0.5058913,0.3629346
0.7907923,0.5072201,0.3643047
0.7902297,0.5052106,0.3639682
0.79104,0.5023035,0.3633874
0.7931596,0.5024551,0.3622551
0.7918438,0.5035814,0.3577425
0.789527,0.5043116,0.3578065
0.7889122,0.5059191,0.3639887
0.7913622,0.505049,0.3648441
0.7943827,0.5032707,0.3613182
0.7928444,0.5043975,0.3618629
0.7915485,0.5042653,0.3622401
0.7919662,0.5026734,0.3645809
0.7913335,0.501904,0.3703278
0.7917805,0.5009477,0.3683452
0.7918051,0.5013616,0.3669125
0.7910513,0.5018811,0.3711655
0.7897414,0.5019609,0.3708807
0.7864738,0.5032055,0.3705703
0.7854729,0.5029268,0.3702361
0.7873447,0.5024007,0.36868
0.7876666,0.5030709,0.370528
0.7865062,0.5026927,0.3729838
0.7866712,0.5026859,0.3744801
0.7905408,0.5027672,0.3685731
0.7944391,0.5017385,0.3605772
0.7925524,0.5011848,0.3638326
0.7905419,0.5012967,0.3665462
0.793057,0.5015278,0.3643603
0.793093,0.5013682,0.3665419
0.7898707,0.5014666,0.3673144
0.78922,0.5024183,0.3658906
0.7930311,0.5029664,0.3661256
0.7971123,0.5030573,0.3649536
0.7930847,0.5037206,0.3647949
0.786985,0.5051534,0.3652638
0.7882017,0.504982,0.3652014
0.7894047,0.5027616,0.3680853
0.7890629,0.50236,0.3689195
0.7908101,0.5030564,0.3673559
0.7918482,0.5027029,0.368626
0.7911399,0.5029156,0.3705491
0.7895785,0.5037401,0.373742
0.7900397,0.504386,0.3757566
0.7899294,0.5041249,0.3721171
0.7882278,0.5030519,0.3695569
0.7899485,0.5026128,0.3710228
0.7908528,0.5027117,0.3712239
0.789761,0.5028647,0.3704577
0.7897048,0.5027884,0.3700452
0.7892858,0.5025084,0.3675655
0.7895406,0.5019793,0.3669744
0.7889943,0.501614,0.3698732
0.7883596,0.5044628,0.3669104
0.7892908,0.5093403,0.3625781
0.788478,0.510681,0.365262
0.7868898,0.509062,0.3666756
0.7858476,0.507742,0.3686457
0.7857079,0.5066843,0.3735927
0.7865623,0.5058829,0.3761399
0.7859965,0.5035591,0.3779538
0.7860673,0.4988098,0.3718297
0.7873513,0.4964045,0.36475
0.7877008,0.4967394,0.3690062
0.7885446,0.4994283,0.370774
0.7890948,0.5063916,0.3707806
0.7886969,0.5082071,0.3747813
0.7880163,0.5032408,0.3769984
0.787138,0.5024193,0.3783559
0.7876655,0.5046674,0.3759239
0.7884054,0.5058263,0.3738592
0.7880822,0.5040741,0.3747962
0.7874374,0.5013618,0.3713945
0.7868117,0.5019682,0.3689016
0.7859818,0.5006352,0.3727858
0.7847192,0.4995693,0.3762224
0.787319,0.503381,0.3724621
0.7921796,0.5056692,0.3691167
0.7918114,0.5048243,0.373021
0.7891996,0.502797,0.3757667
0.7877162,0.5026231,0.3743315
0.7869505,0.5049884,0.3700975
0.787756,0.5059233,0.3679169
0.7877801,0.505541,0.3721838
0.7881097,0.5046126,0.3729082
0.7890692,0.5049506,0.3705508
0.7870856,0.5068617,0.3717714
0.7856781,0.5068819,0.3743071
0.7879267,0.5051143,0.378447
0.7897315,0.5035193,0.3787165
0.7887137,0.5038308,0.3764422
0.7875709,0.5037605,0.3771298
0.7875829,0.5021431,0.374412
0.7873238,0.5030905,0.3724477
0.7875313,0.5047736,0.3747189
0.7878371,0.5055524,0.3762321
0.7881617,0.5073158,0.3784119
0.7893203,0.5076441,0.3781525
0.7889885,0.5054309,0.3760704
0.7880173,0.5050724,0.3758304
0.7864955,0.5089038,0.3727818
0.7845105,0.5098375,0.3695918
0.7879116,0.5048661,0.3704863
0.7919675,0.5016152,0.3703707
0.7893531,0.5032439,0.3679526
0.7881056,0.5053216,0.3675792
0.79132,0.5030589,0.369354
0.7916876,0.499101,0.3723818
0.7888192,0.497019,0.376619
0.7868487,0.4979964,0.3773674
0.788425,0.5017139,0.376174
0.7916231,0.5010566,0.3762437
0.7919726,0.5006325,0.3717992
0.7915264,0.5035988,0.3649964
0.791784,0.5021325,0.3606432
0.7913287,0.5018233,0.3600307
0.7909081,0.5019046,0.3632584
0.789984,0.5013314,0.3617039
0.790055,0.503914,0.3604346
0.790683,0.5022382,0.3676173
0.7899924,0.5004376,0.3711047
0.7903247,0.5004504,0.3694438
0.7900735,0.5001931,0.3696656
0.7882559,0.5036113,0.3695815
0.7873329,0.5048599,0.3685524
0.7882655,0.504811,0.3683167
0.7909788,0.5022517,0.3693683
0.7932449,0.4954008,0.3694232
0.7942269,0.4958104,0.3691646
0.7914274,0.5010491,0.3688936
0.7870686,0.5037916,0.3668527
0.7890945,0.5030455,0.3665253
0.7917654,0.4999725,0.3686016
0.7912813,0.4999043,0.372153
0.7921626,0.5007918,0.3718632
0.7911947,0.5033062,0.3670431
0.789179,0.5066968,0.3668727
0.7870996,0.5038682,0.3651464
0.7849364,0.5014728,0.3631915
0.7867694,0.5031771,0.369749
0.7883191,0.503003,0.3748194
0.7889558,0.5020815,0.3753273
0.7904852,0.5011519,0.3721242
0.7899926,0.4996815,0.3684029
0.790414,0.5005366,0.3687817
0.7906711,0.5021849,0.3650852
0.7907134,0.501287,0.3608747
0.7925506,0.5011874,0.3630212
0.7924789,0.5027396,0.3667696
0.7930032,0.5027989,0.3688819
0.7937701,0.5026744,0.3680257
0.7934192,0.5019089,0.3667918
0.7945868,0.5009371,0.3665487
0.7928705,0.5020542,0.3662528
0.7906142,0.5041177,0.3650178
0.792045,0.5055608,0.3633851
0.7928262,0.5024029,0.3650149
0.7930309,0.498195,0.3677362
0.7927604,0.5010204,0.3684419
0.7901887,0.506282,0.3680995
0.7884495,0.5091967,0.3669436
0.7904513,0.5091767,0.3637379
0.7925444,0.5073606,0.3602802
0.7905591,0.5079751,0.3635134
0.7885856,0.5058607,0.3690458
0.7890059,0.5006195,0.3683238
0.7891802,0.5000889,0.366752
0.7906267,0.5003581,0.3649762
0.7918324,0.5011802,0.3615395
0.7890233,0.5056489,0.365234
0.7863733,0.5079349,0.3740359
0.7873886,0.5069387,0.3782802
0.7881095,0.5051935,0.3768545
0.7872706,0.5036644,0.3725422
0.7885484,0.5020342,0.3696272
0.7907276,0.500363,0.3686983
0.792458,0.4990111,0.3679199
0.7954565,0.4969632,0.3680849
0.796011,0.4977608,0.3702262
0.792521,0.5013596,0.3760924
0.7890206,0.5044991,0.3800114
0.7883166,0.5058885,0.3739412
0.7901273,0.5039896,0.366245
0.7904903,0.503088,0.3674102
0.7891664,0.5029983,0.3700981
0.7886906,0.5032959,0.3711118
0.7887715,0.5059418,0.3763668
0.7887218,0.5056819,0.3770276
0.7870431,0.5050626,0.373375
0.7854594,0.504894,0.3755775
0.7860841,0.5026109,0.3763742
0.7869082,0.5026324,0.3751805
0.7888143,0.5028799,0.3735301
0.7919685,0.5026664,0.3692841
0.7920085,0.5026049,0.3704142
0.7892859,0.5007661,0.3720094
0.7884371,0.4999867,0.369965
0.7891529,0.5018819,0.3710178
0.7896258,0.5054282,0.3717118
0.789691,0.5063061,0.3730023
0.7886523,0.5047047,0.375835
0.7885986,0.50393,0.3730755
0.7892649,0.5024691,0.3691283
0.7886983,0.5034688,0.369598
0.7888569,0.5061228,0.3713369
0.7892274,0.5062796,0.3727332
0.7896121,0.5064135,0.3726652
0.7902964,0.5062255,0.3731567
0.7882276,0.5060532,0.3768347
0.7849064,0.5065291,0.378947
0.784145,0.5058856,0.3776219
0.7854328,0.5055421,0.374722
0.7878894,0.5054479,0.3711856
0.7916657,0.5047877,0.3717954
0.794588,0.5021979,0.3750734
0.7954987,0.4986965,0.374622
0.7955875,0.4999934,0.3720161
0.7930792,0.5027339,0.3689811
0.7896468,0.5025171,0.3664426
0.7901075,0.502135,0.3650203
0.9729545,0.2085355,0.2353017
0.9700376,0.2193927,0.2353562
0.9667702,0.2169314,0.2346718
0.9706799,0.2148564,0.2426714
0.9673788,0.2076746,0.2550244
0.9681046,0.1990943,0.2625843
0.9727839,0.2074595,0.2579819
0.9717118,0.2118896,0.2449823
0.9768526,0.21051,0.2354908
0.98306,0.2135564,0.2278928
0.9864791,0.2125934,0.2255539
0.983185,0.2140114,0.2331685
0.9673574,0.2190871,0.2474113
0.9579362,0.2234946,0.2583947
0.9577104,0.2257536,0.2518086
0.9617576,0.2264564,0.244024
0.9679754,0.2285397,0.2501591
0.9680743,0.225614,0.254909
0.9669522,0.2197026,0.2578605
0.9630468,0.2168751,0.2597247
0.9584381,0.2188225,0.2568117
0.959325,0.2229275,0.2558565
0.9634823,0.2229482,0.2536007
0.9706574,0.2234636,0.2517243
0.9706056,0.2221849,0.251039
0.9669566,0.218709,0.2469364
0.9654585,0.2208674,0.2466693
0.9582599,0.223047,0.2442354
0.9578153,0.2239284,0.2376201
0.9659673,0.2240303,0.2385168
0.9693138,0.2229283,0.2402032
0.9677163,0.2244245,0.2405716
0.9659147,0.2244784,0.2427733
0.9695806,0.2226732,0.2414494
0.9721505,0.2212664,0.2408117
0.9693474,0.2221968,0.2409137
0.9691185,0.2235072,0.2389894
0.9696351,0.2202378,0.2391684
0.9693461,0.2198659,0.2391386
0.9690334,0.2191352,0.2409823
0.9665962,0.2148726,0.2467892
0.964606,0.2168444,0.2495264
0.9650864,0.2177952,0.2487363
0.9667201,0.2175159,0.2463361
0.9673314,0.2206233,0.245637
0.9693295,0.2189374,0.2500212
0.9728043,0.2161599,0.256022
0.9722385,0.2150522,0.2591273
0.9696248,0.2148168,0.252393
0.9673414,0.2168387,0.2425717
0.9660565,0.2171067,0.2421074
0.9684253,0.2189889,0.2435438
0.9721585,0.2238352,0.2436947
0.973432,0.2260244,0.2466599
0.9686314,0.2251837,0.247944
0.9632721,0.2236575,0.2403215
0.9673157,0.2215945,0.2280426
0.97339,0.2172463,0.2257875
0.9757993,0.2151291,0.2265242
0.9781823,0.2158791,0.2227886
0.9747724,0.2146811,0.2271671
0.9705019,0.2154985,0.2331882
0.9752298,0.2166825,0.2320137
0.9773278,0.2162497,0.2321278
0.9711011,0.2170604,0.2359559
0.964272,0.2151686,0.2421796
0.9607706,0.212985,0.2449857
0.9628045,0.2127423,0.2373382
0.9653862,0.2139301,0.2301917
0.9663097,0.2181913,0.2333975
0.9696578,0.2214489,0.2363341
0.9726604,0.2243634,0.2371694
0.974177,0.2243335,0.2435658
0.973151,0.2201248,0.2462733
0.9684417,0.2190355,0.2437003
0.9656512,0.2177003,0.2453819
0.9662897,0.2175548,0.2468499
0.9672491,0.2199482,0.2465648
0.9666008,0.2196306,0.2456881
0.9662482,0.2222098,0.242163
0.9671709,0.2252754,0.2421998
0.9667883,0.2262262,0.2441353
0.9688448,0.2293887,0.2421087
0.9730676,0.230184,0.2400904
0.9736909,0.2304444,0.2386368
0.9701788,0.2311853,0.2401057
0.9637691,0.2240396,0.2494245
0.9611402,0.2120608,0.2554665
0.9644131,0.2066376,0.2468507
0.9685981,0.2073997,0.2378819
0.9730241,0.2091305,0.2434186
0.974513,0.2144797,0.248206
0.9718908,0.2197199,0.2440781
0.9689984,0.2206837,0.2437078
0.9672848,0.2206571,0.2420669
0.9664073,0.2180252,0.2406086
0.9641067,0.2163923,0.2472903
0.9616235,0.2202571,0.2485625
0.9634791,0.2234372,0.246654
0.9667193,0.2214386,0.2465693
0.9664711,0.2185639,0.2425724
0.9648362,0.2185656,0.2423026
0.964524,0.2172713,0.2440061
0.9688114,0.2165476,0.243406
0.9746729,0.2183519,0.2431283
0.9731188,0.2183278,0.2394352
0.9699375,0.2203666,0.2370639
0.9679134,0.2223564,0.2433144
0.964093,0.221893,0.2509191
0.9675631,0.2242087,0.2509079
0.971277,0.2249249,0.248538
0.9666835,0.2262913,0.248249
0.9645462,0.230423,0.2472438
0.9637432,0.2274645,0.2475061
0.9620047,0.2223241,0.2457362
0.9643405,0.2210052,0.2417161
0.9663024,0.2187337,0.2416892
0.966469,0.2188895,0.2419461
0.9684229,0.2203576,0.2435315
0.9703112,0.2189139,0.2475165
0.9694867,0.219031,0.2487459
0.9689234,0.2181035,0.2505914
0.9699011,0.2163347,0.2513931
0.9689685,0.220499,0.2472592
0.9674563,0.2246252,0.2429379
0.9661077,0.2238737,0.2433477
0.9641998,0.2231159,0.2499322
0.9629785,0.223802,0.2547315
0.9624213,0.2232265,0.2519704
0.9657438,0.2206507,0.2465031
0.9706155,0.2188153,0.2432188
0.9710838,0.2191286,0.2438847
0.9688517,0.2204357,0.244275
0.9663641,0.2220398,0.2425042
0.9662914,0.2241421,0.2427557
0.9671332,0.2243193,0.2439536
0.9661847,0.2227654,0.2445627
0.9658452,0.2235097,0.2473386
0.965305,0.2222106,0.2512115
0.9661984,0.2205161,0.2523897
0.9691548,0.2257844,0.248899
0.9698553,0.2301389,0.2423695
0.9694317,0.2280915,0.2394827
0.9691496,0.2242599,0.2417101
0.9687357,0.2228032,0.2434975
0.9686354,0.2238175,0.2403789
0.968535,0.2235299,0.2341208
0.9678534,0.2225896,0.2295481
0.9658632,0.2220403,0.2284451
0.9652421,0.2222084,0.2420323
0.96706,0.2234266,0.2589475
0.9682812,0.223683,0.2494874
0.9665706,0.2237246,0.2400475
0.9641776,0.2235532,0.247215
0.9653262,0.2238592,0.2402389
0.9651476,0.2256154,0.2322173
0.9609026,0.2258451,0.2387044
0.9580483,0.2222117,0.2415059
0.9587666,0.218092,0.2437935
0.9650069,0.22091,0.2487044
0.9729165,0.2253265,0.2498158
0.9740441,0.2250159,0.2498181
0.9678322,0.2266435,0.247311
0.9621453,0.2271883,0.2447115
0.9639251,0.2252657,0.2457092
0.9668815,0.2259575,0.2447957
0.9673479,0.2248644,0.2411936
0.968359,0.2245706,0.2393987
0.966234,0.226807,0.2409905
0.9644796,0.2271487,0.2449711
0.9664764,0.2275796,0.2501752
0.9668614,0.2248144,0.2527873
0.9656909,0.2195832,0.2498797
0.9654639,0.219276,0.2462464
0.9678924,0.2228231,0.2417428
0.9701806,0.2272736,0.2362076
0.967565,0.228618,0.2380248
0.9646757,0.2263261,0.2422208
0.9655401,0.2249382,0.2413949
0.9678704,0.2239612,0.2405721
0.9710859,0.2236409,0.2391412
0.973297,0.225438,0.2372753
0.9718504,0.22702,0.2376354
0.9700676,0.2265496,0.2373708
0.9701041,0.2257698,0.2372968
0.9691456,0.2252291,0.236992
0.9659373,0.2217291,0.237164
0.9629539,0.2178792,0.2414493
0.9652165,0.2180168,0.2440578
0.968307,0.220007,0.241269
0.9660115,0.2214264,0.2395254
0.9652971,0.2207972,0.2422203
0.9657984,0.2195111,0.2440727
0.9645785,0.2203601,0.2427466
0.9658318,0.2243182,0.2425025
0.9666406,0.2304601,0.2416063
0.9682792,0.2320358,0.2393045
0.9705932,0.229641,0.2392611
0.9689646,0.2298726,0.2396081
0.9682576,0.227296,0.2411497
0.9680708,0.2224667,0.2444691
0.9663408,0.2232158,0.2452147
0.9649633,0.2243496,0.2455371
0.9637078,0.2231731,0.2460223
0.9663766,0.2241739,0.2427853
0.9694707,0.2265039,0.2406437
0.9677239,0.2278249,0.2420464
0.9666603,0.2255427,0.2430842
0.9668847,0.2221816,0.2449528
0.966375,0.2234983,0.2463715
0.9669595,0.2244707,0.2449234
0.9676625,0.2228888,0.2439
0.9681265,0.2237937,0.2443372
0.9683224,0.2233735,0.243783
0.9678065,0.2204439,0.242544
0.9680865,0.2191888,0.2431966
0.9676856,0.2202516,0.2444481
0.9651533,0.2233798,0.2458418
0.9635721,0.2244161,0.2490243
0.9653486,0.2241101,0.2502335
0.9668345,0.2256424,0.2473757
0.9622604,0.225768,0.2448847
0.9585892,0.2254916,0.2465258
0.9646055,0.2249315,0.247719
0.9706787,0.2237898,0.2435763
0.969428,0.2246132,0.2393691
0.9670412,0.2251241,0.2391186
0.9664401,0.2250766,0.2432325
0.9664994,0.2251958,0.2476984
0.9668461,0.2257133,0.2451249
0.9666811,0.2268877,0.2403027
0.9665061,0.2263698,0.238356
0.9662887,0.2257826,0.2381707
0.9639429,0.2248796,0.2396039
0.9621329,0.2227166,0.238861
0.9650082,0.2225371,0.2386917
0.9679823,0.2226157,0.2413417
0.9669026,0.223041,0.2418426
0.9668613,0.2259094,0.2410988
0.9686966,0.2265653,0.2377095
0.9672022,0.223484,0.2329735
0.9653324,0.2214871,0.2334697
0.9649387,0.223308,0.2377789
0.9643404,0.2262091,0.2428572
0.9671337,0.2267358,0.2450685
0.9685974,0.2261335,0.2442282
0.9662886,0.2251324,0.2442836
0.9667844,0.2229002,0.2436299
0.9668447,0.222177,0.2430272
0.9662152,0.2248623,0.2448424
0.9671546,0.2278351,0.2463285
0.9663977,0.2283521,0.2438469
0.96661,0.2290137,0.2374523
0.9673325,0.2298788,0.2330062
0.9680729,0.2280034,0.2345586
0.9704393,0.2254802,0.2376212
0.9703129,0.2230077,0.2375627
0.9692964,0.2226849,0.2372013
0.9679535,0.2245015,0.2363618
0.9659967,0.2224045,0.2324603
0.9684614,0.221818,0.2297708
0.9700153,0.224729,0.2305616
0.9664235,0.2249316,0.2341032
0.9642861,0.2243856,0.23799
0.9654254,0.223537,0.2401207
0.9669734,0.2254251,0.2411584
0.9684444,0.2295935,0.2400526
0.9700399,0.2302602,0.2408431
0.9693627,0.2305939,0.2426464
0.9670786,0.2298214,0.240998
0.9664788,0.2284945,0.2398549
0.9666689,0.2287465,0.2358974
0.9676615,0.2255791,0.2314021
0.9684832,0.2225802,0.2340851
0.9680442,0.2242395,0.2376929
0.9693258,0.2259419,0.2393476
0.9715812,0.2248311,0.2392893
0.972385,0.224726,0.2375306
0.9705907,0.2266468,0.2375677
0.9681095,0.2272495,0.2373667
0.9677381,0.2278938,0.2393008
0.9668989,0.2271448,0.2433316
0.9677986,0.2255953,0.2393925
0.9706214,0.2266955,0.2356668
0.9694808,0.2266707,0.2398237
0.9687796,0.2271597,0.2408694
0.9700641,0.229259,0.2452318
0.9690285,0.2286172,0.2495736
0.9682334,0.2255631,0.2389803
0.9672145,0.2224775,0.2303872
0.9659898,0.2231784,0.2293665
0.9669053,0.2245387,0.234289
0.9668165,0.2230552,0.2490225
0.9663604,0.2239262,0.2527866
0.9671038,0.2258189,0.2437448
0.9674518,0.2264765,0.2377451
0.9679264,0.2275673,0.2393848
0.9665138,0.229568,0.2428503
0.964373,0.2330253,0.2403248
0.9650891,0.232898,0.2408662
0.9648196,0.2315854,0.2377858
0.9636034,0.2342671,0.2315545
0.9658528,0.2330864,0.237164
0.9682493,0.2292153,0.2392209
0.9673567,0.2264811,0.2397978
0.9656466,0.2237146,0.2438137
0.963961,0.2263604,0.2420514
0.9617354,0.2297956,0.2460182
0.9609441,0.2317381,0.2525788
0.9605757,0.2357542,0.2540854
0.9591355,0.2359277,0.2502819
0.9599432,0.2347911,0.2428198
0.9625555,0.2323569,0.2440249
0.9654706,0.2272961,0.2466139
0.9687043,0.2288929,0.2450774
0.9684301,0.2319113,0.2463654
0.9666923,0.2325765,0.2461157
0.9649467,0.2352529,0.247454
0.961477,0.2320535,0.2505748
0.9627722,0.2259589,0.24987
0.96515,0.2263328,0.2482695
0.9623926,0.2284357,0.2448492
0.9621813,0.2299307,0.2428479
0.9640638,0.2318458,0.2483043
0.9647319,0.2346025,0.2525638
0.9654276,0.237079,0.2463088
0.9634323,0.2338058,0.2417061
0.9618767,0.2289638,0.2513773
0.9635041,0.2271174,0.2590587
0.9643632,0.2261619,0.2541994
0.9636547,0.2294538,0.2509192
0.9626251,0.2336348,0.2503586
0.9615081,0.2333045,0.2474007
0.9608898,0.2314382,0.247973
0.9619849,0.2300946,0.2482301
0.9628669,0.23132,0.2458599
0.9614544,0.2325019,0.2476806
0.9612536,0.2306112,0.2474583
0.9638822,0.2291047,0.244386
0.9663296,0.2281205,0.2452371
0.9660998,0.2274299,0.2471008
0.9648519,0.2282022,0.2513692
0.9652523,0.2298248,0.2538546
0.9650886,0.2319114,0.2528122
0.9633539,0.2324559,0.2549474
0.9614987,0.231477,0.2534439
0.9599179,0.231021,0.248954
0.9599213,0.2304741,0.2466652
0.962559,0.2299201,0.2469022
0.9659984,0.2290329,0.2511834
0.9666229,0.2271893,0.2499044
0.9661803,0.2279422,0.2449937
0.9661954,0.2312703,0.2453014
0.9647995,0.233307,0.2462323
0.9647136,0.2338532,0.2455985
0.9639907,0.2331545,0.243699
0.9615534,0.2332558,0.2426851
0.9627669,0.234821,0.2437237
0.9644772,0.2356112,0.2466334
0.963754,0.2361337,0.2497332
0.9632178,0.233922,0.2478614
0.9636355,0.2298649,0.24679
0.9645865,0.2292313,0.2510385
0.9644461,0.2300667,0.2558314
0.9645552,0.2300164,0.2574377
0.9648837,0.2296804,0.2531295
0.9640373,0.2300379,0.2486923
0.9640503,0.2307577,0.2488847
0.9632079,0.2309338,0.2498081
0.9610403,0.2326933,0.2526393
0.9593083,0.235623,0.2570806
0.9590329,0.236166,0.2562587
0.960818,0.232417,0.2538477
0.9613829,0.229103,0.2545108
0.9625636,0.230557,0.2524119
0.9630531,0.231003,0.2518207
0.9598077,0.2291663,0.2539489
0.9594467,0.2290079,0.2525569
0.9600927,0.2285059,0.2549066
0.9602967,0.2255831,0.2594583
0.9619949,0.2232558,0.2589644
0.9617687,0.227613,0.2546853
0.9624537,0.2355874,0.2495179
0.9620564,0.2373012,0.251686
0.9602494,0.2345731,0.2546663
0.9615732,0.2332222,0.2510223
0.9626736,0.2325001,0.249149
0.9651631,0.2325481,0.2470217
0.9678601,0.2335781,0.2470717
0.9666086,0.2335796,0.2514495
0.9660304,0.2326987,0.2517058
0.9657871,0.2314298,0.2527748
0.9631498,0.229253,0.2535819
0.9616995,0.2284919,0.2508654
0.9628524,0.2295827,0.2517114
0.9636314,0.2291941,0.252445
0.9635002,0.2288604,0.2529576
0.9622016,0.2296771,0.2557473
0.9594655,0.2305967,0.258193
0.9592229,0.2343715,0.2609229
0.9603953,0.2378449,0.2584785
0.960575,0.2379002,0.251462
0.9622313,0.2388572,0.2462236
0.9632424,0.2389846,0.2450332
0.9631023,0.2357628,0.2485231
0.9636329,0.2331748,0.2508644
0.9614474,0.2309653,0.2528691
0.9587368,0.2274874,0.2519532
0.9606519,0.2276046,0.2465306
0.9627583,0.2324156,0.2489543
0.9615236,0.2361267,0.2525901
0.960588,0.2367238,0.2527027
0.960282,0.2359267,0.2551561
0.9594722,0.2353341,0.253738
0.9599803,0.2337647,0.2517328
0.9616825,0.2309655,0.2505546
0.962955,0.2315443,0.2490258
0.9625324,0.2329759,0.2503876
0.961232,0.2323003,0.249636
0.9610138,0.233599,0.2497536
0.9614439,0.2338218,0.2505735
0.9628915,0.2326759,0.2494546
0.9645199,0.2337122,0.2520077
0.9639935,0.233181,0.2512073
0.963531,0.2319532,0.2475787
0.9635849,0.2311501,0.2488748
0.9612005,0.2299254,0.2464507
0.9587766,0.2308823,0.2445596
0.9593576,0.2318649,0.2498169
0.9592149,0.2327476,0.2506598
0.9568334,0.2339882,0.2495469
0.9575855,0.233141,0.250637
0.962685,0.2331471,0.2504119
0.9663853,0.233831,0.2510724
0.9641126,0.234152,0.2470807
0.9608381,0.2359857,0.2428331
0.9632809,0.2356498,0.2467076
0.9659559,0.231407,0.2501828
0.9665457,0.2281998,0.2502987
0.9671263,0.2306425,0.2498532
0.964002,0.2347327,0.2499475
0.9613585,0.2351174,0.2501771
0.9610499,0.2355991,0.2497869
0.9604232,0.234229,0.2501663
0.9607676,0.2309067,0.2494065
0.9594875,0.2345061,0.2465375
0.9601714,0.2375391,0.242321
0.9623524,0.2337627,0.242244
0.9615047,0.2325018,0.2472711
0.9627223,0.2327353,0.2467341
0.9629791,0.2289287,0.2447664
0.9618412,0.2249295,0.248349
0.962951,0.2258347,0.2489681
0.9627456,0.2284312,0.2460288
0.9641196,0.2302403,0.2436978
0.9659419,0.234509,0.2426057
0.9637843,0.2345301,0.2449835
0.9606843,0.2316449,0.246729
0.9589812,0.2341442,0.2461303
0.9595972,0.2336627,0.2483729
0.9601626,0.2323517,0.2510115
0.9594348,0.2339309,0.2502142
0.9604468,0.2307314,0.2483308
0.9639912,0.2278997,0.244236
0.9692327,0.22686,0.2364093
0.9725615,0.2272837,0.2332956
0.9722761,0.2321666,0.2364836
0.9712501,0.2340026,0.2364015
0.9677119,0.2314081,0.2356212
0.9628505,0.2285947,0.2366087
0.9632035,0.2276547,0.2357709
0.9648148,0.2272365,0.2361864
0.9633012,0.226311,0.2362967
0.9628426,0.2301061,0.2357748
0.9631751,0.2330596,0.2364409
0.9647223,0.2300249,0.2362763
0.9674556,0.2282223,0.2382517
0.9652064,0.2293919,0.2422806
0.9626333,0.2305088,0.2466503
0.965552,0.2304603,0.2492719
0.9676822,0.230668,0.2450755
0.9677958,0.2302999,0.2402957
0.9666587,0.2290066,0.2414523
0.9643315,0.2302202,0.2424078
0.9649846,0.2324114,0.2411547
0.9648286,0.2315142,0.2415248
0.9621864,0.2260201,0.2407269
0.9626529,0.22244,0.2378326
0.9647242,0.2261976,0.2370828
0.9665118,0.2292722,0.2383899
0.9667475,0.2277199,0.2420857
0.9636291,0.2272744,0.2456448
0.9621865,0.2292121,0.2439196
0.9651248,0.2297854,0.2413999
0.9672857,0.2310028,0.2412246
0.9641648,0.2347483,0.2407509
0.9609346,0.2361938,0.2416046
0.9627105,0.2361661,0.2431076
0.963109,0.2360372,0.2443008
0.9618157,0.2348138,0.24619
0.9630209,0.2334155,0.2426394
0.9636268,0.2310665,0.2380656
0.9645827,0.2300601,0.2407484
0.9652656,0.2304367,0.2404179
0.9643862,0.2293722,0.2366508
0.9662564,0.2271375,0.2359573
0.9676927,0.2254296,0.2359455
0.9671058,0.2257829,0.2397609
0.9683183,0.2262858,0.2468436
0.9680615,0.2285109,0.2527657
0.9656157,0.2329252,0.2523606
0.9640837,0.2340254,0.2478663
0.9634484,0.2331957,0.2487651
0.9639818,0.2332234,0.2489112
0.9639365,0.2330186,0.2473623
0.9626938,0.2316437,0.2467284
0.9624009,0.2298653,0.2429607
0.9624162,0.2307768,0.2433821
0.9625416,0.2327978,0.2467316
0.9625974,0.2330084,0.2534845
0.9625034,0.2309337,0.2621837
0.9642428,0.2280681,0.2541342
0.9675381,0.2288538,0.2430685
0.9696485,0.2300172,0.2450398
0.9679848,0.2287627,0.2428472
0.9656483,0.230808,0.239224
0.9644371,0.2347702,0.2428652
0.9615529,0.2364905,0.2469757
0.9618805,0.2343063,0.2509364
0.9639928,0.2293476,0.2501756
0.9637462,0.2283965,0.2457178
0.9670599,0.2297657,0.2440781
0.9696669,0.2300697,0.2421182
0.9698995,0.2317941,0.2436065
0.97123,0.2324959,0.2475427
0.9677839,0.2326545,0.2487558
0.9644969,0.2334865,0.2491374
0.9655506,0.2325009,0.2465186
0.9661671,0.2317046,0.2468847
0.966816,0.2327892,0.249793
0.9653158,0.2334831,0.2492062
0.9620356,0.2315181,0.2529511
0.9608362,0.2293866,0.2555597
0.9626051,0.2288433,0.2477711
0.9653485,0.2276846,0.2403896
0.9656244,0.2283943,0.2450222
0.9666394,0.2309998,0.250277
0.9671294,0.2316764,0.2458697
0.9638083,0.2319544,0.2458463
0.9617063,0.2320364,0.2479115
0.9607086,0.230623,0.2461402
0.9607731,0.2294393,0.2478593
0.9619067,0.2289236,0.2459367
0.9616073,0.2299587,0.2425599
0.9627536,0.2338806,0.2406685
0.9629474,0.2373104,0.2371625
0.9620432,0.2360988,0.2383859
0.9645051,0.2323585,0.2391448
0.96772,0.2307477,0.2399813
0.9698283,0.2311728,0.2431266
0.9670031,0.232328,0.2419208
0.961655,0.2332684,0.2438234
0.9621839,0.2331252,0.2477244
0.9630501,0.2333846,0.2470881
0.9620402,0.2317882,0.2458177
0.9636543,0.2277574,0.2405911
0.9669172,0.2259377,0.2352651
0.9705096,0.2277499,0.2388094
0.969117,0.2303689,0.2431355
0.9656409,0.2292185,0.2429555
0.9663981,0.2288893,0.2433352
0.9639117,0.2321251,0.2432374
0.9593478,0.2311269,0.2435743
0.9597048,0.2284761,0.2452059
0.9620556,0.2287389,0.2447928
0.9648493,0.2295627,0.2468683
0.9660045,0.229299,0.2498593
0.9646562,0.2286886,0.2474903
0.9634193,0.2299293,0.243339
0.9621115,0.230546,0.2416741
0.9621816,0.2303861,0.2445354
0.9627716,0.2289665,0.2450424
0.9614028,0.2258111,0.2382876
0.9607551,0.2237478,0.2335152
0.9615822,0.2203273,0.2329053
0.9629162,0.2207069,0.2346071
0.9645758,0.2255321,0.2382644
0.9650126,0.2264161,0.239731
0.9653087,0.2250784,0.2407861
0.9666689,0.2225289,0.2417092
0.9676918,0.2222425,0.2396035
0.9683219,0.2234311,0.2364727
0.9680137,0.2231915,0.2352747
0.9668655,0.2268426,0.236444
0.9665841,0.2274094,0.2362936
0.9664017,0.2261672,0.2365866
0.9658038,0.2288307,0.2413075
0.9651127,0.2276684,0.2460379
0.964998,0.2272865,0.2457797
0.9654285,0.2284293,0.2398674
0.9644604,0.227276,0.236057
0.964178,0.2281723,0.2394247
0.9650021,0.2287335,0.2425862
0.964599,0.2291943,0.2426373
0.9653835,0.2295739,0.2429584
0.9668168,0.228538,0.242547
0.9674922,0.228313,0.2383692
0.9684661,0.2266766,0.234634
0.9677819,0.2259439,0.2359034
0.965946,0.2276541,0.2368441
0.9649957,0.2281552,0.2358884
0.9649995,0.2286742,0.2376357
0.9655841,0.2293864,0.2409409
0.9652489,0.2292499,0.2406254
0.9654173,0.2290658,0.2375365
0.9673342,0.2291452,0.2383485
0.9682743,0.2292788,0.2413187
0.9668069,0.2290631,0.2431415
0.9634645,0.229367,0.249557
0.9615856,0.2304855,0.2536474
0.962595,0.2324995,0.2430497
0.96278,0.2331952,0.231408
0.9624408,0.2288296,0.2325923
0.9634578,0.2248632,0.236596
0.9642116,0.2270686,0.237083
0.9639333,0.2291513,0.2384153
0.9640544,0.2280157,0.240596
0.9658062,0.2284648,0.2409098
0.9672148,0.2294135,0.2406215
0.9667794,0.2304952,0.2429472
0.9663738,0.2329895,0.2444778
0.9666128,0.2321037,0.2422435
0.9658659,0.2305993,0.2434083
0.9648234,0.2300047,0.2476317
0.964761,0.2266916,0.248684
0.9622724,0.2270537,0.2470852
0.9574008,0.2280012,0.2403256
0.9564438,0.2256918,0.2354846
0.9602982,0.2281942,0.2400882
0.9643062,0.2303053,0.2441625
0.966208,0.2287203,0.2447203
0.966956,0.2287798,0.2436665
0.9666625,0.2279122,0.2423753
0.9654967,0.2273082,0.2440261
0.9652967,0.22886,0.2459694
0.9661496,0.2288136,0.2459568
0.9669688,0.2280203,0.2425711
0.9668189,0.2288175,0.2420004
0.9667272,0.2293412,0.2462035
0.9686187,0.2291249,0.2457014
0.9698567,0.2294243,0.2434689
0.9682279,0.230314,0.241945
0.9657672,0.2326449,0.2396643
0.9647338,0.2335427,0.2397964
0.9653311,0.2304844,0.238983
0.9656482,0.2281996,0.2374544
0.9659958,0.2290201,0.2360715
0.9669991,0.2297067,0.2354569
0.9662728,0.228158,0.2387069
0.9637114,0.2254725,0.2405117
0.962015,0.2232406,0.2432572
0.9630933,0.2258825,0.2465792
0.9648436,0.2341458,0.2425876
0.9646984,0.2379397,0.2415518
0.9651715,0.2354817,0.2444955
0.9656273,0.232907,0.2426179
0.9638067,0.231193,0.2426181
0.9627413,0.2307305,0.2437894
0.9624077,0.2298762,0.2425357
0.9627727,0.2296973,0.2435086
0.9655181,0.2318331,0.2454498
0.9673294,0.2321034,0.2474339
0.9663554,0.2299169,0.2478657
0.9636193,0.2289092,0.2441198
0.9615498,0.2309251,0.2408148
0.9615498,0.2327857,0.2384615
0.9616747,0.2319341,0.2379594
0.9635292,0.2317517,0.2408262
0.9662742,0.2331247,0.2400693
0.9655828,0.2335764,0.2379202
0.9645838,0.2332824,0.2376375
0.9656451,0.2334896,0.2368268
0.9650371,0.2342395,0.2383208
0.9631124,0.2346378,0.2394103
0.9622902,0.232342,0.2400598
0.9623617,0.2275812,0.2402618
0.9638444,0.2257667,0.2383438
0.9656587,0.2290704,0.2416385
0.9680069,0.2317008,0.2445362
0.9701471,0.2296321,0.243255
0.9677267,0.2282464,0.2465649
0.9655322,0.2303532,0.2499086
0.9664291,0.232966,0.2488676
0.9642158,0.2363797,0.2479119
0.9619101,0.2362598,0.2471081
0.9650117,0.2307286,0.2399659
0.968123,0.228007,0.2314513
0.9665954,0.2292107,0.2342333
0.9659786,0.2305014,0.237481
0.9675068,0.2305654,0.2343374
0.9675004,0.2291191,0.2353174
0.9690378,0.2272653,0.2359577
0.9702124,0.2260369,0.2338134
0.9689944,0.2286134,0.233557
0.9694975,0.2329108,0.2314984
0.9696447,0.2333644,0.229461
0.9691712,0.2307225,0.2298365
0.9693007,0.2280713,0.2291362
0.9675674,0.2287484,0.2296877
0.9664478,0.229092,0.2341265
0.9683469,0.2270598,0.2383037
0.9702797,0.2286758,0.2381766
0.9693713,0.2299607,0.2367419
0.9676562,0.2287062,0.2375249
0.9664147,0.229275,0.2374406
0.9645626,0.2290914,0.238066
0.9650376,0.2282709,0.2412818
0.9655687,0.2285692,0.2402642
0.9630002,0.2293955,0.2366511
0.962583,0.2304204,0.236564
0.9655673,0.2305358,0.239393
0.9693146,0.230841,0.2431582
0.9704017,0.2314752,0.243128
0.9686691,0.232035,0.242114
0.9684058,0.2322664,0.2430279
0.9670425,0.2312641,0.2384316
0.964446,0.2302216,0.2335249
0.9627089,0.2288193,0.2334596
0.9607602,0.2281147,0.2339054
0.963768,0.2269553,0.2381378
0.9687003,0.2230259,0.2408012
0.9683765,0.2233555,0.237585
0.9673351,0.2279632,0.2375662
0.9664724,0.2320242,0.2394209
0.964661,0.236482,0.2398765
0.9650662,0.2368527,0.241332
0.9662543,0.2351735,0.2430049
0.9677198,0.2352672,0.244007
0.9700346,0.232458,0.243754
0.9688991,0.2299917,0.2464607
0.9658991,0.2296994,0.2471227
0.9652311,0.2290203,0.2399491
0.9626151,0.2300343,0.2414329
0.959987,0.2309994,0.2461424
0.9623558,0.2303326,0.2416764
0.9644616,0.2295306,0.2445344
0.9657621,0.2289809,0.2479318
0.9680595,0.229088,0.2442698
0.9673753,0.2299913,0.2453369
0.9650167,0.2327217,0.2447267
0.964077,0.2355768,0.2446494
0.9636184,0.2343178,0.2477797
0.9628899,0.2320397,0.2461448
0.9623398,0.2326957,0.2454814
0.9623887,0.23194,0.2460126
0.9626179,0.230141,0.2452822
0.9626826,0.2299775,0.2443187
0.963478,0.2286982,0.2418977
0.965145,0.2294495,0.241344
0.9656382,0.2324664,0.2407773
0.9644053,0.2338007,0.2393054
0.9616925,0.2349003,0.238184
0.9587,0.2354561,0.2366183
0.9595954,0.2364025,0.2383982
0.9623693,0.2363403,0.241519
0.9629807,0.2347291,0.2435127
0.9643441,0.2355993,0.2442665
0.9660408,0.2354012,0.2439556
0.9661882,0.2341953,0.2465331
0.9667454,0.233926,0.2464131
0.9668801,0.2329479,0.243749
0.9664647,0.2332057,0.245087
0.9670876,0.2325641,0.245787
0.9684986,0.2314845,0.2484105
0.9695576,0.232213,0.2508404
0.9679207,0.2328789,0.245813
0.9656967,0.2335988,0.2421574
0.9666406,0.2335827,0.2428659
0.9666506,0.2340323,0.2446219
0.9635404,0.2351557,0.2493159
0.9614424,0.2347474,0.2542094
0.9605657,0.2343543,0.252616
0.9598755,0.2339493,0.2477179
0.9612017,0.2327077,0.2487479
0.9632828,0.2317284,0.2500805
0.9625847,0.2320559,0.2492709
0.9609704,0.2335713,0.2495329
0.9615826,0.2335055,0.2450488
0.9628539,0.2311125,0.2396407
0.9644523,0.2303466,0.236501
0.9654715,0.232468,0.2371511
0.9657739,0.2339484,0.2437978
0.9669643,0.2331131,0.2497794
0.9649982,0.2311784,0.2542921
0.9629267,0.2301705,0.2510791
0.9653398,0.2310146,0.2429517
0.9664129,0.2333709,0.2437047
0.9660049,0.2353742,0.2474149
0.9655571,0.2336795,0.2502797
0.9638618,0.2305525,0.2467638
0.9622098,0.2293494,0.2397945
0.9618185,0.2292376,0.2439285
0.96344,0.2309635,0.2461325
0.9639656,0.2323116,0.2443721
0.963867,0.2301847,0.2449708
0.9640227,0.2282904,0.2399243
0.9623644,0.2295421,0.2383634
0.9619525,0.2313624,0.2403602
0.9626315,0.2321411,0.2416816
0.9644722,0.2322343,0.2452814
0.9659527,0.2318641,0.2409486
0.9640069,0.2328067,0.2347995
0.9636279,0.2338587,0.2360683
0.9643607,0.2331729,0.2364708
0.9655328,0.2332423,0.2361903
0.9674714,0.2333331,0.2380185
0.9665917,0.2321023,0.2394171
0.9664148,0.2308719,0.2394455
0.9669276,0.2305134,0.2402616
0.9663163,0.2324023,0.2424333
0.9656981,0.2340599,0.2417658
0.9638671,0.233324,0.2397708
0.9628257,0.233049,0.2386482
0.9632421,0.2335334,0.2368236
0.9642586,0.2331505,0.2374059
0.9648979,0.2323237,0.2390373
0.9641177,0.231786,0.2390625
0.9629887,0.2318034,0.2408346
0.9625242,0.2317433,0.2424481
0.9651787,0.2301495,0.2425139
0.9678319,0.2285015,0.2421413
0.9660852,0.2290931,0.2378331
0.963354,0.229695,0.2340087
0.9611647,0.2298171,0.2394902
0.9604219,0.23139,0.2459542
0.9613379,0.2334589,0.2428951
0.9602785,0.2351946,0.2406377
0.9591329,0.2345091,0.2423999
0.9606245,0.2303891,0.2390156
0.9633926,0.2273214,0.2362671
0.966538,0.227719,0.2361321
0.9678201,0.2298746,0.2351876
0.9685985,0.2316989,0.2349146
0.9703257,0.2331866,0.2327964
0.9684707,0.2355052,0.2336914
0.964436,0.2357824,0.2359968
0.9617871,0.2338797,0.2340957
0.96161,0.2332015,0.2346685
0.9632985,0.2330807,0.2353499
0.9614559,0.2332728,0.2350896
0.960383,0.2326245,0.2367602
0.9629425,0.230985,0.2360881
0.9636765,0.2306465,0.2365173
0.9659519,0.2306027,0.2400252
0.9675329,0.2319794,0.2428928
0.9659042,0.2328122,0.2430657
0.9653468,0.2312179,0.2398982
0.9651444,0.2320379,0.237574
0.9669077,0.2322011,0.2384618
0.967287,0.2299307,0.23971
0.9649306,0.2279946,0.2392314
0.9653355,0.2263069,0.241087
0.9655461,0.2305008,0.2445389
0.9659272,0.2354029,0.2428326
0.9674258,0.2323267,0.2414208
0.9674308,0.2300307,0.2418147
0.9678377,0.2290968,0.2398978
0.9663909,0.2252398,0.2412155
0.9634843,0.2259968,0.2438559
0.9635783,0.2293604,0.2428405
0.9642263,0.2291256,0.2399475
0.9637516,0.2302537,0.2386181
0.9636691,0.2347334,0.2424685
0.9631081,0.2387651,0.2486222
0.9624961,0.2379202,0.2514776
0.9641994,0.2333134,0.2499775
0.9660728,0.2320597,0.2492611
0.9651446,0.2313812,0.2501184
0.9638006,0.2287937,0.2471378
0.9630292,0.2276075,0.2447694
0.9620777,0.2272623,0.2459368
0.962448,0.2293596,0.2466409
0.9628024,0.2305268,0.2483463
0.9622377,0.2305676,0.2507725
0.962573,0.2329973,0.2493887
0.9627854,0.2334102,0.2437564
0.9635636,0.2335215,0.2394009
0.9661036,0.2333963,0.239624
0.9667274,0.2327084,0.2412813
0.9639437,0.2330236,0.2420427
0.9614811,0.2312917,0.2431688
0.9623072,0.2318194,0.2435358
0.9637001,0.2325344,0.2414258
0.9647345,0.2311235,0.2404976
0.9678358,0.2314579,0.2398394
0.9691009,0.2302187,0.2367604
0.9689815,0.23022,0.2339545
0.9696611,0.2314976,0.2327209
0.9664718,0.2315235,0.2356122
0.9643146,0.2320877,0.2395549
0.9666594,0.2292491,0.2417683
0.9679348,0.2271182,0.2450021
0.9682856,0.2284701,0.2441498
0.9682281,0.2284596,0.2402326
0.9689448,0.2292925,0.2384569
0.970852,0.2296225,0.2391489
0.9708529,0.2291676,0.2415196
0.9690031,0.2320998,0.2412447
0.9646721,0.2342448,0.2420316
0.9610182,0.2330011,0.2434986
0.9622648,0.2312194,0.2417046
0.963311,0.2305215,0.2431374
0.9620389,0.2322216,0.2436781
0.9620419,0.2341078,0.2407663
0.9611201,0.2334538,0.2391394
0.9591765,0.2328691,0.2375458
0.9617472,0.2336278,0.2416451
0.9650638,0.2333705,0.2480102
0.9637441,0.23308,0.2474468
0.961749,0.233595,0.2466529
0.961138,0.2333949,0.2465557
0.9603617,0.2341616,0.2445239
0.9597921,0.2350005,0.2458136
0.9624283,0.2337399,0.2494901
0.9660642,0.2331472,0.2496241
0.9655036,0.2342249,0.2423079
0.9642836,0.2353197,0.2347516
0.9629255,0.2361855,0.2371155
0.96035,0.2387917,0.2406295
0.9618335,0.2409096,0.2385018
0.964387,0.2376351,0.2383946
0.9635008,0.2346827,0.2395092
0.961956,0.2363084,0.2385843
0.9614781,0.2365891,0.2388203
0.9643198,0.2349188,0.2391586
0.9682158,0.2325245,0.2386332
0.9669558,0.2286978,0.238995
0.9654503,0.2287609,0.2389517
0.9665262,0.2329332,0.2390823
0.964563,0.2349799,0.2408407
0.9625994,0.2358553,0.2421224
0.960944,0.2364323,0.2418678
0.9590107,0.2359069,0.2413431
0.9626243,0.2362089,0.241751
0.9650745,0.2357672,0.2422009
0.9625855,0.234025,0.2431863
0.9626148,0.2320798,0.2451635
0.965315,0.2312844,0.2444864
0.9671955,0.2323437,0.2427978
0.9651457,0.2321518,0.2423072
0.9628328,0.2325306,0.2421
0.9652109,0.2336015,0.2460495
0.9666539,0.231433,0.2503537
0.9649469,0.2307165,0.2480816
0.961611,0.235052,0.2441378
0.9585861,0.2389297,0.2425582
0.9607372,0.2366507,0.2429847
0.9640174,0.2329345,0.2453017
0.9639511,0.2332005,0.2456454
0.9642939,0.2321389,0.2421391
0.9657105,0.2296327,0.2394999
0.9668559,0.22889,0.2416805
0.9660274,0.2293889,0.2436956
0.9635695,0.2322487,0.2393227
0.9631505,0.2336997,0.2359457
0.9615435,0.2314314,0.2392313
0.9587719,0.2289054,0.2426796
0.9604805,0.2297341,0.2455908
0.9619966,0.2350464,0.2485361
0.9614818,0.2384105,0.248504
0.9645704,0.2352936,0.2468302
0.9680134,0.2316324,0.2452221
0.9669283,0.2332768,0.2455874
0.9654867,0.2342055,0.245846
0.9653844,0.2314781,0.2428019
0.9632255,0.2321273,0.240845
0.9623623,0.2333198,0.2412406
0.963083,0.2339719,0.2402062
0.9621488,0.2356313,0.2391122
0.9632759,0.2345075,0.2430063
0.9636545,0.2354511,0.2478366
0.9617972,0.2368776,0.2460338
0.9623826,0.2356837,0.2446702
0.9622178,0.2362534,0.2463892
0.9623308,0.2361472,0.2438575
0.9650704,0.2356064,0.2428284
0.9668955,0.2352488,0.2470015
0.9681771,0.2361451,0.2487989
0.9677122,0.2399242,0.244474
0.9658687,0.2387886,0.2395694
0.9666348,0.23332,0.2414536
0.9671613,0.2310586,0.2429603
0.9660362,0.2318099,0.2404314
0.9659072,0.2337037,0.2412003
0.9651853,0.2353015,0.2413489
0.9652072,0.2364576,0.2412936
0.9677133,0.2361472,0.2432594
0.9693083,0.2338161,0.241583
0.9692514,0.2334908,0.2394096
0.9667824,0.2360232,0.2376879
0.9637901,0.2378002,0.2361779
0.9635044,0.2352488,0.2354336
0.9626158,0.2317336,0.2323581
0.9629459,0.233212,0.2329329
0.9656116,0.2334469,0.2356695
0.9655243,0.2317192,0.2360503
0.9651305,0.2338772,0.2384244
0.9664028,0.2337902,0.2387865
0.9664905,0.2325762,0.2377729
0.9647803,0.2338624,0.2367902
0.9623375,0.2332108,0.2320992
0.9620131,0.2331334,0.2304433
0.962916,0.2334842,0.2325611
0.9630896,0.2319814,0.2359158
0.9663128,0.2309104,0.238243
0.9711444,0.2303804,0.2318532
0.9714574,0.2314191,0.2271966
0.9692043,0.2324812,0.2324757
0.9684979,0.2316102,0.2365586
0.9686524,0.2304273,0.2391264
0.9686521,0.2277483,0.2427844
0.9681072,0.2260757,0.240755
0.9678431,0.2298881,0.2324601
0.9691698,0.2335608,0.2261424
0.9698237,0.232005,0.2269265
0.9689015,0.2311209,0.2290863
0.9680606,0.2325908,0.2283757
0.9679412,0.23131,0.2289751
0.9698692,0.2289304,0.2304508
0.9714384,0.227592,0.2313111
0.9721656,0.2280485,0.2341205
0.9735542,0.2300986,0.2344859
0.9694724,0.2291554,0.2339338
0.9646631,0.2285546,0.2372896
0.9676417,0.2300258,0.2363151
0.9692548,0.2295263,0.234111
0.9673373,0.2298604,0.2352231
0.9681154,0.2293748,0.2331917
0.968546,0.228411,0.2321289
0.9687815,0.2294222,0.232038
0.9707912,0.2270781,0.2316066
0.9710518,0.2246345,0.2332203
0.9697005,0.2255412,0.2324467
0.9688619,0.2279483,0.2316511
0.9672497,0.2319213,0.2318506
0.9644661,0.2327388,0.2301998
0.9632605,0.2314538,0.226946
0.9654554,0.2318569,0.224664
0.9685558,0.2315167,0.2301858
0.9696396,0.2315877,0.2358532
0.9677558,0.2315128,0.2332478
0.9647887,0.227746,0.2323019
0.9650966,0.2251824,0.2341691
0.9667046,0.2284345,0.2331792
0.966587,0.2303507,0.2331546
0.9668341,0.2289844,0.2337981
0.9666338,0.2310798,0.2304523
0.9661394,0.2337071,0.2273646
0.965152,0.2334881,0.2293116
0.9631268,0.2332268,0.2326285
0.9637314,0.2329302,0.2355518
0.9644177,0.2316507,0.2385983
0.9638313,0.2303175,0.2380758
0.965796,0.2320771,0.2366037
0.9671535,0.2344193,0.2389548
0.9657734,0.233212,0.2393785
0.9653022,0.2327298,0.2379522
0.9679783,0.2328884,0.2375618
0.9699962,0.2316465,0.2351949
0.9668309,0.2326784,0.2348825
0.9639094,0.2336425,0.2353966
0.9655493,0.2311941,0.2348914
0.9667307,0.2291334,0.2364475
0.9662635,0.2299872,0.2344906
0.9660031,0.2320655,0.2325363
0.9649957,0.2332325,0.2354848
0.9649698,0.2330417,0.2367882
0.9659151,0.2316375,0.2357206
0.9657479,0.2301069,0.2340791
0.9661538,0.2312123,0.2334589
0.9662826,0.2323816,0.2358968
0.9663272,0.2299501,0.2384957
0.9672524,0.228736,0.238012
0.9664121,0.2311054,0.237606
0.9664534,0.2323018,0.2389086
0.9666004,0.2302102,0.2355229
0.963569,0.2282422,0.2317444
0.9618435,0.2295632,0.234574
0.9623044,0.2314001,0.2365047
0.9628219,0.2316995,0.2360822
0.9625073,0.2305384,0.2371333
0.96272,0.2286647,0.2386346
0.965718,0.2307055,0.2420287
0.9682147,0.2332118,0.2454892
0.9685391,0.2316109,0.2441389
0.9676585,0.2316264,0.2418029
0.9671183,0.2326075,0.243345
0.9675308,0.2325032,0.2435695
0.9663062,0.2336941,0.2417981
0.9631575,0.2335459,0.2408173
0.9602039,0.2329377,0.2380844
0.9627368,0.2336027,0.2385632
0.9674034,0.2332876,0.2417634
0.9664683,0.2332143,0.2417505
0.9653835,0.2335021,0.2427299
0.9643223,0.2332101,0.2434213
0.9621575,0.2333695,0.2427701
0.9626787,0.2335526,0.242779
0.9627501,0.2341486,0.2398372
0.9641924,0.2348884,0.2363038
0.9666567,0.2337209,0.235228
0.9678062,0.2319535,0.2353566
0.9692171,0.2317033,0.2346403
0.9654488,0.2316851,0.2334292
0.9604434,0.230181,0.2345854
0.9624856,0.2285685,0.2366537
0.964504,0.2289809,0.2408104
0.9633802,0.2295878,0.2446887
0.964024,0.2298309,0.2431103
0.9641816,0.2335731,0.2421554
0.9634156,0.2376958,0.2426943
0.9640526,0.236442,0.2412953
0.9629592,0.2351447,0.2413801
0.9619817,0.2366911,0.242264
0.9629371,0.2361708,0.2423677
0.9634848,0.23567,0.2432405
0.9650524,0.2353037,0.2428536
0.9657288,0.2296641,0.2398019
0.965223,0.224743,0.2373231
0.9665834,0.2278694,0.2368706
0.9687339,0.2317957,0.2379059
0.9693693,0.230289,0.2409948
0.9658972,0.2290855,0.2447544
0.9624409,0.2297374,0.2457814
0.963954,0.2296086,0.2441077
0.9655077,0.2307663,0.2420042
0.965595,0.2300585,0.2380572
0.968243,0.2282021,0.2313345
0.9710873,0.2291963,0.2249722
0.9706572,0.2271616,0.2259925
0.970271,0.2236531,0.2311052
0.9704076,0.2239818,0.22967
0.9667444,0.2271227,0.2300259
0.9636103,0.2305209,0.2320046
0.96593,0.2290813,0.2303143
0.9677302,0.2264671,0.2363776
0.9679751,0.226511,0.2397597
0.9697428,0.2262348,0.2322356
0.9704861,0.2275839,0.2291856
0.972767,0.2314664,0.2391721
0.9786584,0.2440041,0.2500522
0.986284,0.2670447,0.2416136
1.056267,0.1255607,-0.04849456
1.044969,0.1222521,-0.04490423
1.038458,0.124244,-0.04339603
1.030448,0.1172319,-0.03093765
1.020741,0.09985649,-0.01853956
1.022783,0.09110917,-0.01488615
1.022508,0.070926,-0.009238457
1.023856,0.04032692,0.001482164
1.029424,0.02692357,-0.0005029579
1.028205,0.0262503,-0.008566384
1.025097,0.02187615,-0.001457232
1.020704,0.02585862,0.005869665
1.02128,0.04273463,0.01747248
1.0246,0.06238203,0.03538493
1.023974,0.08350224,0.0328977
1.02916,0.08552343,0.02938583
1.028631,0.07935617,0.03180772
1.01643,0.08561473,0.02563127
1.00729,0.08312979,0.02375099
1.007482,0.08282794,0.01388315
1.016824,0.08991915,-0.008556475
1.022654,0.09665269,-0.02328745
1.022674,0.1117836,-0.02848259
1.023478,0.1177313,-0.03342418
1.023148,0.1142369,-0.04140281
1.023649,0.1107432,-0.04002872
1.020875,0.1044921,-0.03461903
1.018239,0.1015469,-0.03475957
1.02086,0.1005929,-0.0253938
1.021077,0.1014031,-0.01334627
1.021329,0.0979277,-0.007445947
1.023711,0.08661768,0.003264405
1.026515,0.07589601,0.008827945
1.026816,0.07074703,0.004378712
1.022459,0.07154202,0.006954249
1.019915,0.07059167,0.01206443
1.019589,0.07183884,0.01246911
1.022822,0.07397018,0.01640367
1.026776,0.06980484,0.01594583
1.023718,0.06867993,0.01162135
1.019048,0.06732731,0.01217123
1.01601,0.06935471,0.01053078
1.0182,0.07637633,0.009656973
1.024855,0.07612773,0.006709844
1.025787,0.07734524,-0.00120126
1.02465,0.0801416,-0.004576576
1.025145,0.0837944,-0.009111704
1.024842,0.08878771,-0.01037121
1.024806,0.08524274,-0.006604808
1.023146,0.08537924,-0.01072308
1.020703,0.08752901,-0.01174937
1.017735,0.08485529,-0.006415608
1.014481,0.08672055,-0.004689734
1.016806,0.0864092,-0.003304097
1.021527,0.08654992,-0.001459413
1.022271,0.08981663,0.003584361
1.023651,0.0904309,0.009040522
1.027866,0.0923684,0.007943003
1.029175,0.09190923,0.008771406
1.024565,0.08991911,0.01133964
1.018586,0.08638114,0.009528892
1.019215,0.0774691,0.01090872
1.024103,0.07071626,0.01470946
1.025079,0.06512104,0.01502969
1.022558,0.06194442,0.01556669
1.01938,0.06584942,0.0131686
1.018412,0.06790853,0.00566452
1.01769,0.06844925,0.001436443
1.015454,0.07246359,0.003343908
1.016973,0.07557156,0.008433579
1.017242,0.07735062,0.01006488
1.015754,0.07826024,0.008669222
1.017535,0.08001789,0.007556683
1.017568,0.08882169,0.003592312
1.02032,0.1031562,0.004514402
1.028274,0.110203,0.007868516
1.036014,0.1023058,0.005896534
1.040034,0.09360661,0.004506616
1.037128,0.09184023,0.001518126
1.031217,0.08702075,-0.0008036242
1.021713,0.08086672,-0.001927681
1.016853,0.07014406,-0.004333841
1.025137,0.05159512,-0.003222837
1.027771,0.04540026,-0.005549358
1.021557,0.05576288,-0.009456188
1.01805,0.06124218,-0.007664523
1.017191,0.0556652,-0.000525299
1.01879,0.05309126,0.008965794
1.019533,0.05460086,0.005844465
1.02227,0.05204512,-0.00272004
1.026733,0.05052866,-0.002613249
1.025926,0.04981962,-0.003343504
1.025222,0.04431521,-0.002852329
1.025622,0.03668169,-0.002251972
1.023819,0.03160845,-0.005319768
1.022394,0.03159105,-0.003821767
1.023194,0.03468331,-0.003082179
1.026259,0.04481967,-0.003782336
1.028727,0.05931244,-0.003244863
1.02967,0.0639716,-0.004646816
1.029235,0.06428413,-0.004108401
1.02789,0.06283096,-0.002767851
1.025043,0.0495597,0.00182493
1.020929,0.04030671,0.008324676
1.022451,0.04593497,0.009744439
1.025182,0.04943296,0.01463717
1.022958,0.04804137,0.02072657
1.024046,0.04938192,0.01657181
1.027877,0.05143248,0.008553849
1.028596,0.05256464,0.005876484
1.024459,0.04977608,0.01281644
1.018686,0.04526846,0.02387703
1.021153,0.04610089,0.02409555
1.024246,0.04668538,0.02046513
1.021243,0.04484706,0.01970378
1.022522,0.0462001,0.011526
1.022027,0.04616812,0.01023634
1.017803,0.04480277,0.01532836
1.01965,0.04461597,0.01197943
1.021222,0.04231664,0.01507013
1.021694,0.04317241,0.02058155
1.024697,0.04658672,0.02217993
1.025455,0.04740406,0.02310213
1.024942,0.04788228,0.01628875
1.024903,0.04773793,0.01396372
1.024842,0.04876359,0.01664138
1.024211,0.04904261,0.01833957
1.023006,0.0469715,0.02319546
1.022717,0.04733044,0.023743
1.02233,0.04777129,0.02301602
1.022999,0.04965154,0.02074064
1.025249,0.05279438,0.01720361
1.026357,0.05223896,0.01946569
1.027359,0.05257239,0.02041066
1.028223,0.05402455,0.02144792
1.027685,0.05667928,0.01695475
1.027283,0.06308368,0.004454681
1.025451,0.06357214,0.002309242
1.020787,0.05222418,0.005737011
1.018135,0.03906542,0.007599582
1.019142,0.03669318,0.01369301
1.018567,0.04278519,0.02449236
1.017461,0.04699841,0.03650844
1.019839,0.0483589,0.03538063
1.020487,0.04462575,0.02631302
1.019949,0.03699515,0.02148213
1.02409,0.03539162,0.01258407
1.026782,0.03557319,0.01054208
1.027206,0.03550013,0.01282185
1.029926,0.03970712,0.002887264
1.02953,0.03983827,7.318048e-05
1.027101,0.03980038,0.001039913
1.02561,0.04412907,-0.005113489
1.021727,0.0455467,-0.002897952
1.019866,0.05277114,-0.00254172
1.022747,0.0656875,-0.005364086
1.026302,0.07002778,-0.001609226
1.02848,0.0674196,-0.0009526458
1.027264,0.06543165,-0.001442855
1.025406,0.0641344,-0.001562442
1.0268,0.06144846,-0.002864192
1.027647,0.06021216,-0.004946608
1.027895,0.05925701,-0.009668119
1.029986,0.05584116,-0.01211973
1.030713,0.05489149,-0.01243125
1.028857,0.05576194,-0.009626723
1.024346,0.05598971,-0.005172533
1.020279,0.05781707,-0.005214952
1.020334,0.0614809,-0.005743345
1.020395,0.06369228,-0.005716033
1.02223,0.06228412,-0.006294557
1.026596,0.06207627,-0.006556461
1.025113,0.0626656,-0.007726217
1.021989,0.06041085,-0.01036267
1.022498,0.05919666,-0.0131308
1.022329,0.06003547,-0.01294308
1.023905,0.06170092,-0.01385438
1.026324,0.06301141,-0.01630776
1.026546,0.06291949,-0.01482384
1.02813,0.06407449,-0.01311017
1.027583,0.06591082,-0.01236552
1.023541,0.06554587,-0.01169257
1.021474,0.06477198,-0.0111797
1.021844,0.06586878,-0.009215777
1.022773,0.06720279,-0.01021388
1.022118,0.0680885,-0.01212804
1.022227,0.06748735,-0.009852941
1.0245,0.06481325,-0.006272526
1.025235,0.06409054,-0.002320175
1.024848,0.06386148,-0.0003844391
1.023068,0.06270783,0.002413534
1.021879,0.06333517,0.007659339
1.024149,0.06290562,0.0008569667
1.025472,0.06141655,-0.009241365
1.024027,0.06097216,-0.004218121
1.022107,0.06185322,-0.0003294261
1.022331,0.06280394,-0.002462797
1.024284,0.06054246,-0.0006475765
1.025152,0.05895784,-0.002496146
1.024426,0.05987373,-0.007496961
1.022955,0.06036638,-0.01147901
1.02338,0.06233722,-0.01241474
1.023034,0.06448713,-0.008928803
1.020371,0.06338245,-0.009605552
1.019798,0.06160363,-0.009713269
1.01972,0.06242888,-0.005083746
1.020924,0.06243795,-0.00281821
1.023532,0.06259044,-0.002302327
1.023968,0.06730961,-0.004935896
1.025141,0.06901065,-0.006151985
1.025598,0.06555708,-0.003149663
1.024416,0.06234362,-0.003781
1.025177,0.05649683,-0.009144411
1.024842,0.05074287,-0.0163995
1.022874,0.05249825,-0.0167481
1.022288,0.05714211,-0.01353928
1.023731,0.05854283,-0.01592435
1.025858,0.06152818,-0.01371524
1.025187,0.06552614,-0.008322006
1.02435,0.06549977,-0.005985782
1.025321,0.06543447,-0.00413717
1.024021,0.06615179,-0.003703507
1.022899,0.06644219,-0.002073292
1.022994,0.06492825,-0.002510647
1.021871,0.06104697,-0.002424732
1.022089,0.06059408,0.004336809
1.022871,0.06144656,0.008495441
1.02379,0.06093499,0.0060311
1.025622,0.06142261,-0.001229678
1.024889,0.06189276,-0.007162177
1.022718,0.06335169,-0.004941629
1.022316,0.06552959,0.0007187082
1.023826,0.06800927,0.005638027
1.025751,0.06894802,0.00753671
1.024858,0.06671252,0.00824962
1.022629,0.06451759,0.008724115
1.022065,0.06179929,0.004924887
1.02219,0.06230089,-0.0007120665
1.023069,0.06740145,-0.005990853
1.02312,0.06958121,-0.006302911
1.021778,0.06962929,-0.001716388
1.022128,0.06837701,-0.0008972796
1.022681,0.06645729,-4.671539e-05
1.022897,0.06679602,0.005826098
1.023969,0.06652315,0.01165801
1.023737,0.06663718,0.01107466
1.023157,0.06603122,0.009293331
1.022892,0.06165952,0.01483952
1.021936,0.05792578,0.01571037
1.022031,0.05870224,0.00878401
1.02288,0.06256717,0.005660681
1.023864,0.06312952,0.005061726
1.025489,0.06245074,0.004171398
1.025379,0.06557333,0.001184654
1.024258,0.06733475,0.0003524426
1.024185,0.06670511,0.002924501
1.022045,0.06544377,0.002555813
1.018817,0.06460076,0.004387082
1.018188,0.0637782,0.004193346
1.02075,0.06172616,0.001059555
1.025402,0.0623807,0.001692163
1.026742,0.06301318,-0.003198961
1.02538,0.06203604,-0.006063783
1.024126,0.06272653,0.002884222
1.021284,0.06286394,0.009646788
1.021874,0.06413528,0.006627681
1.023942,0.06601896,0.003470652
1.022337,0.06532654,0.005615104
1.022096,0.06495581,0.0015664
1.022314,0.0658246,-0.003961548
1.022188,0.06709794,-0.001382261
1.023417,0.06845284,-0.003440663
1.024001,0.06838648,-0.006308279
1.025737,0.06745556,-0.0001524377
1.027587,0.0672688,0.006761219
1.026679,0.06661323,0.0076758
1.023413,0.06622652,0.003684201
1.021228,0.06709889,0.001282286
1.023265,0.06602205,0.0002294481
1.024505,0.06376354,-0.001993698
1.024122,0.06258874,-0.00270564
1.025321,0.06455523,-0.005341816
1.025213,0.06821133,-0.0098097
1.024672,0.06661436,-0.00856753
1.025002,0.06442462,-0.004495663
1.023932,0.06430408,-0.004697797
1.022347,0.06222588,-0.004039479
1.022111,0.06302716,0.001207346
1.02319,0.06282356,0.007056051
1.0236,0.0596446,0.01052607
1.021843,0.06014416,0.01129845
1.020296,0.06210754,0.01340523
1.022877,0.06664043,0.01502093
1.029533,0.07086597,0.01575319
1.035443,0.07015647,0.01781128
1.034586,0.07100717,0.0161369
1.027502,0.07219794,0.01386684
1.023219,0.07199584,0.008714448
1.024758,0.07260424,0.0009798436
1.025829,0.07200037,0.002895836
1.02463,0.07216445,0.00428315
1.024769,0.07176468,-0.0001370569
1.025468,0.06800126,-0.003822356
1.024693,0.06397764,-0.009432053
1.024972,0.06288581,-0.004782955
1.025291,0.06458059,0.008670371
1.02447,0.06549232,0.01135363
1.024149,0.0675294,0.008127301
1.022446,0.06993982,0.005921456
1.02165,0.06772685,0.004107893
1.022596,0.06728359,0.005151459
1.022282,0.06893244,0.005707661
1.023062,0.06764477,0.00581563
1.023843,0.06794279,0.006495249
1.02267,0.06845628,0.006760051
1.021868,0.06801011,0.006513477
1.021968,0.06988071,0.004864282
1.021584,0.07067578,0.005138258
1.02075,0.07010663,0.004305646
1.022668,0.0707998,0.001643553
1.025426,0.07172887,0.002905645
1.025185,0.07262318,0.003552389
1.02442,0.07212476,0.004089006
1.02296,0.06892737,0.006393489
1.019881,0.06821422,0.005690011
1.01938,0.07058218,0.005076188
1.023761,0.06931598,0.005880767
1.028997,0.06854385,0.005521245
1.030105,0.06947009,0.005407525
1.028811,0.06724698,0.005714647
1.028995,0.06823798,0.004426893
1.028582,0.07058052,0.0001373611
1.023818,0.06990357,-0.004294646
1.01725,0.06736153,-0.0024554
1.015912,0.06164596,0.003872229
1.021052,0.06292863,0.005541734
1.02567,0.06984937,0.0005033761
1.026285,0.06999871,-0.00487186
1.026353,0.06778677,-0.003479183
1.026205,0.06585381,-0.001242212
1.024274,0.06377929,-0.004727407
1.021865,0.06366537,-0.004588592
1.019988,0.06393351,-0.003295169
1.01931,0.06384228,-0.004861905
1.020373,0.06285109,-0.00277333
1.022196,0.06225715,-0.002288058
1.022945,0.06321434,-0.001726834
1.02376,0.06609937,0.002016333
1.025252,0.06831482,0.004161573
1.023322,0.06390346,0.007609529
1.020233,0.05899156,0.0105971
1.020857,0.06100471,0.01031184
1.022045,0.06220989,0.008927957
1.02209,0.060274,0.008731679
1.021512,0.06191897,0.007464076
1.020567,0.06533842,0.0007750775
1.021818,0.06786449,-0.005888499
1.02389,0.06823445,-0.00890496
1.024451,0.06514041,-0.009282723
1.0238,0.06377394,-0.008698323
1.020592,0.0625661,-0.005958413
1.01739,0.06170074,-0.0002223733
1.018542,0.06543387,0.0002997504
1.022214,0.06661485,0.0007262457
1.025351,0.06648983,0.003672911
1.025547,0.06726864,0.003901919
1.023492,0.06601902,0.008022622
1.023228,0.06679173,0.008197332
1.02296,0.06558991,0.004550482
1.021905,0.06252752,0.00536949
1.023151,0.06152775,0.001461895
1.02408,0.06063492,-0.001057144
1.023325,0.06226079,0.0003226932
1.022643,0.06298281,0.001765976
1.022372,0.06213651,0.005593778
1.02391,0.06293356,-0.003358156
1.025707,0.0634137,-0.01457539
1.025141,0.06526515,-0.007823529
1.024384,0.06683903,-0.001371266
1.024367,0.06805156,0.001902617
1.02321,0.07124881,0.009306328
1.02237,0.07290978,0.01215846
1.022396,0.07098519,0.01552879
1.022091,0.06465793,0.01736872
1.023218,0.05924899,0.01349426
1.024423,0.06171421,0.01420756
1.025186,0.06586638,0.01016722
1.026621,0.06555427,0.001833631
1.024503,0.06598443,0.003899229
1.020768,0.06881204,0.003733245
1.020223,0.07081734,0.001258712
1.020285,0.07294355,0.004787971
1.020654,0.07270684,0.004326981
1.023589,0.07082257,0.003479227
1.026154,0.07007644,0.004418128
1.025067,0.06725994,0.004521927
1.024349,0.06695251,0.006972723
1.025532,0.06741695,0.005898731
1.024889,0.06442159,0.00460904
1.024576,0.06680231,0.007266822
1.024477,0.06954634,0.007812468
1.023064,0.06709119,0.01022277
1.023396,0.06616354,0.01302377
1.023402,0.06511896,0.00821391
1.023063,0.06506749,0.003449146
1.024163,0.06766925,0.006040108
1.023727,0.06801422,0.009268161
1.023792,0.06632367,0.009205349
1.024283,0.06465707,0.007103651
1.023151,0.06497375,0.002770545
1.024717,0.06589591,0.002003371
1.026645,0.06508291,0.005451356
1.025835,0.06630005,0.00639668
1.024635,0.06870752,0.008148475
1.02214,0.07091329,0.009230163
1.021529,0.07405315,0.002461978
1.022684,0.07339786,-0.004801109
1.021057,0.06946916,-0.003215389
1.020466,0.06778226,0.001694247
1.021212,0.07067638,0.002387831
1.021602,0.07513394,0.001873783
1.02261,0.07385307,-0.002098813
1.021887,0.07009616,-0.006879424
1.020233,0.06791983,-0.0003352734
1.019092,0.06429664,0.006050291
1.019475,0.06433584,0.004101243
1.022041,0.06652127,0.005254267
1.024539,0.06494169,0.005350668
1.026534,0.06622205,-0.002072556
1.026561,0.06959102,-0.009689693
1.024245,0.07041856,-0.009501431
1.020451,0.07129552,-0.001081446
1.017478,0.07047096,0.005473656
1.02206,0.06868498,0.002166085
1.027483,0.06794808,-0.004159633
1.024837,0.06775191,-0.004971737
1.024104,0.06936732,0.0003377488
1.026922,0.07008167,0.007444351
1.025759,0.07078427,0.006764319
1.023553,0.07213165,0.002142176
1.022273,0.07005169,-0.0005086123
1.024228,0.06766808,-0.007495563
1.027862,0.06639494,-0.007495502
1.025519,0.06590378,-0.001489543
1.02361,0.06672473,-0.0007532186
1.024735,0.06666248,0.004772363
1.02227,0.0689042,0.001996033
1.021562,0.07250202,-0.007198821
1.022772,0.07332471,-0.001911153
1.021954,0.07141196,-0.002943394
1.022428,0.06725693,-0.01016856
1.023413,0.0672781,-0.008297758
1.024604,0.06884501,-0.004662921
1.025538,0.06628245,0.002242663
1.024263,0.06812677,0.002396617
1.022241,0.07133584,-0.004370978
1.020734,0.06881851,-0.00507576
1.023038,0.06555083,-0.006180857
1.026337,0.06221314,-0.005660463
1.024124,0.06003209,-0.004222235
1.022364,0.06129274,-0.003842954
1.023502,0.06270779,-0.0006711119
1.022649,0.06327885,-0.004661085
1.022551,0.06424793,-0.008787948
1.022647,0.06410952,-0.004585282
1.021572,0.06342732,-0.00323767
1.02287,0.06420159,-0.00518588
1.024383,0.06336811,-0.007883562
1.025977,0.06092245,-0.01063194
1.027293,0.05963232,-0.009426569
1.025733,0.06092294,-0.005509984
1.02538,0.06407872,-0.003603991
1.0252,0.06399155,-0.00618684
1.024401,0.06304784,-0.009672293
1.025479,0.06208957,-0.0103099
1.024921,0.06054729,-0.009440731
1.024,0.06506871,-0.009651968
1.02186,0.06828661,-0.009967096
1.018543,0.06619358,-0.009306859
1.021817,0.06671561,-0.008587547
1.025198,0.06794815,-0.006309704
1.022372,0.06909834,-0.00475517
1.02214,0.06972775,-0.005198592
1.026294,0.06834026,-0.002154829
1.028634,0.06781787,0.004090886
1.02693,0.06761888,0.007159398
1.024626,0.06643296,0.005450714
1.024552,0.06469388,0.00343308
1.023454,0.06511066,-0.001497253
1.021976,0.06680526,-0.01059046
1.024814,0.06655207,-0.01109397
1.027469,0.0662181,-0.005310538
1.025474,0.06408312,-0.005233164
1.024187,0.0612432,-0.004711003
1.025321,0.06120685,9.343196e-05
1.024429,0.05934627,0.004578139
1.021119,0.05644736,0.006393356
1.018394,0.05760984,0.00644945
1.018093,0.06353024,0.008228661
1.01992,0.07579028,0.01011113
1.02486,0.08995781,0.0139152
1.031262,0.0943766,0.01730181
1.030241,0.08888602,0.01447056
1.025679,0.08261129,0.01395189
1.025616,0.07460893,0.01005835
1.022269,0.06009052,-0.002916814
1.019869,0.04512119,-0.008000067
1.020199,0.04243978,-0.003682437
1.015711,0.04964827,-0.001181248
1.019721,0.0551527,-0.003166212
1.026943,0.06611986,-0.002249932
1.024586,0.07961059,0.004855547
1.024371,0.08333725,0.009663375
1.024113,0.08599543,0.008641202
1.022716,0.08497412,0.003055982
1.024872,0.07958477,0.001840643
1.023763,0.07435503,0.006947145
1.022667,0.06328672,0.009093539
1.023449,0.06143191,0.01043093
1.022756,0.06497469,0.009327898
1.023561,0.06246611,0.006269382
1.023995,0.06657626,0.006295019
1.021946,0.06778898,0.008341375
1.020162,0.06875002,0.01258008
1.019807,0.07488071,0.01046595
1.022675,0.07187711,0.006076258
1.026565,0.07116012,0.007904709
1.025081,0.07352993,0.008394262
1.023245,0.07154376,0.009722245
1.024858,0.0735201,0.008607179
1.024107,0.07521001,0.00416685
1.023294,0.07580842,0.00487992
1.023917,0.07645812,0.004213326
1.024357,0.07345165,0.003513913
1.025281,0.07174636,0.005260844
1.024094,0.07436288,0.005686026
1.02256,0.07868869,0.009317251
1.021109,0.08002221,0.01319799
1.018992,0.07886596,0.0141544
1.020878,0.07912482,0.0128207
1.023754,0.07908993,0.0112622
1.023913,0.07768187,0.01286123
1.025038,0.07485446,0.01096014
1.025164,0.07264177,0.007267907
1.021581,0.07338808,0.004955579
1.019143,0.07317342,-0.0001735676
1.019429,0.07198679,-0.000198316
1.020556,0.07392024,0.0004240914
1.022163,0.07592843,-0.004553682
1.022429,0.07492703,-0.003210485
1.021961,0.07497079,-0.0001382087
1.021381,0.07716733,0.002348518
1.02029,0.07817314,0.009181494
1.019942,0.07773406,0.00789453
1.019501,0.07559086,0.003553806
1.020269,0.07077989,0.004789962
1.022289,0.06684391,0.0014683
1.022999,0.06936512,-0.001745604
1.024772,0.07354176,-0.00248695
1.027042,0.07226271,-0.004071061
1.025839,0.07270346,-0.0008556327
1.024456,0.07608367,0.002794276
1.027496,0.07790145,0.004965487
1.032087,0.08174124,-0.000428859
1.036072,0.08247995,-0.01503582
1.036444,0.07656175,-0.01378758
1.024681,0.06734676,0.005856936
1.008957,0.05968564,0.02039177
1.00737,0.06433036,0.01591924
1.014547,0.073267,0.007130576
1.020112,0.07594121,0.01233315
1.027908,0.07947184,0.009608415
1.031805,0.08107554,0.002902786
1.028035,0.08067323,0.007787969
1.028735,0.07951821,0.004181711
1.030279,0.07364396,0.001966665
1.026077,0.07383579,0.003826434
1.018798,0.07563051,0.00568412
1.009835,0.07000014,0.01650075
1.012412,0.0658106,0.01505959
1.019275,0.06128373,0.01082488
1.015875,0.06164383,0.01282621
1.019307,0.06941001,0.005410037
1.025552,0.0756787,0.005122413
1.02514,0.08593277,0.009356594
1.02636,0.09037803,0.01140586
1.019531,0.08386206,0.0190637
1.011088,0.07960496,0.02103384
1.01314,0.0743464,0.01768555
1.01738,0.07149727,0.01395518
1.021555,0.07182708,0.01033407
1.020898,0.07066012,0.01376926
1.019468,0.07597095,0.02071509
1.02439,0.08171596,0.02053157
1.025486,0.08472902,0.01300745
1.022015,0.08543705,0.008437625
1.020098,0.07754484,0.01256652
1.021655,0.06935053,0.01685515
1.024122,0.06558144,0.01074873
1.022936,0.0695786,0.006075304
1.020868,0.07706892,0.01265116
1.019218,0.07483275,0.0173427
1.020955,0.07412629,0.01784284
1.025437,0.07620122,0.01504671
1.025166,0.07404226,0.01015113
1.023718,0.07521096,0.0108221
1.023655,0.07431861,0.009714596
1.023279,0.07290698,0.006631412
1.023922,0.07509211,0.006372639
1.023366,0.07498451,0.005423891
1.022173,0.07514886,0.008175162
1.020468,0.07530768,0.01109222
1.018714,0.07659478,0.009988108
1.02061,0.07798228,0.01208776
1.022387,0.07404285,0.01363393
1.022171,0.07056782,0.006899099
1.022355,0.0702424,0.0006743922
1.022114,0.06958567,0.005880893
1.022043,0.06925468,0.01115784
1.021433,0.07142726,0.007238185
1.020417,0.07325406,0.005721466
1.021017,0.07334894,0.006038913
1.021896,0.07614028,0.003689948
1.022178,0.07713333,0.005262814
1.021477,0.0734296,0.009664423
1.02056,0.07000658,0.01646504
1.021678,0.06733057,0.01945234
1.022767,0.06822939,0.01182076
1.021583,0.07333109,0.008285306
1.01937,0.07654149,0.01420765
1.017622,0.07695261,0.01948922
1.018881,0.07741225,0.02036395
1.022111,0.07647066,0.01763042
1.022834,0.07415003,0.01268615
1.022904,0.07472332,0.005450165
1.023436,0.07658164,0.00482054
1.02098,0.07901426,0.0132684
1.019159,0.08294969,0.01660902
1.022834,0.08101397,0.01356824
1.026659,0.0775615,0.01139991
1.025127,0.08146954,0.01238861
1.024053,0.08312779,0.0133304
1.025748,0.08064569,0.01140979
1.024874,0.07951792,0.01087947
1.024257,0.07705324,0.009576015
1.023763,0.07683299,0.008850687
1.021286,0.07691746,0.01068847
1.022444,0.07426881,0.008598806
1.02463,0.07709117,0.005890854
1.024643,0.08198037,0.004798314
1.023649,0.08321831,0.008443616
1.021523,0.08317819,0.01586757
1.023041,0.0803504,0.01544037
1.025524,0.07710652,0.01519993
1.024435,0.07658014,0.01583887
1.023259,0.07641182,0.01052924
1.021809,0.07606336,0.01136828
1.021757,0.07557016,0.01033542
1.023246,0.07476488,0.003732256
1.023306,0.0751694,0.006636636
1.023665,0.07721807,0.01007178
1.02208,0.07931362,0.009368376
1.020312,0.08026099,0.01023664
1.021757,0.07962919,0.009418571
1.02258,0.07797445,0.009458683
1.024758,0.07738765,0.009381849
1.025887,0.07788355,0.008522891
1.023293,0.07751883,0.0103467
1.023695,0.07569574,0.01089285
1.02476,0.0735938,0.01018845
1.02454,0.07317579,0.007973101
1.023702,0.07402043,0.004713091
1.021233,0.07473364,0.007809075
1.02211,0.07616817,0.01157589
1.02254,0.07815553,0.009744919
1.019795,0.07971559,0.01087652
1.019376,0.08102186,0.01326134
1.020367,0.08028586,0.009306041
1.022308,0.07740213,0.005585237
1.023615,0.07599867,0.00720897
1.023297,0.07704208,0.009903386
1.023018,0.07839412,0.01010217
1.021935,0.07785815,0.008059797
1.022949,0.07695152,0.006287624
1.024531,0.07604253,0.005169182
1.024204,0.07292827,0.005237188
1.025221,0.07304006,0.006049091
1.024595,0.07609487,0.005144082
1.021015,0.07442476,0.004536078
1.018593,0.07064472,0.004230223
1.019002,0.06791703,0.003735134
1.020507,0.06902024,0.003637478
1.020977,0.07759035,-0.0003482313
1.022675,0.08430006,-0.00438154
1.023826,0.08084167,-0.003858152
1.023088,0.07679483,-0.006464967
1.022937,0.07796529,-0.008496798
1.018319,0.07275528,0.005378726
1.014259,0.0623212,0.02260169
1.02052,0.05854347,0.01864375
1.026371,0.05768154,0.006985832
1.024498,0.05687107,0.001174421
1.024074,0.05551756,-0.005490801
1.026393,0.05474791,-0.004190131
1.026502,0.06396985,-0.002970243
1.027848,0.07544739,-0.009659893
1.02857,0.07828225,-0.006403162
1.0254,0.0800847,-0.002624638
1.023163,0.0839007,-0.003778708
1.019068,0.08618042,-0.0007046954
1.016704,0.08941112,0.0001686722
1.020869,0.0919263,0.002885343
1.022319,0.0893094,0.001651859
1.022351,0.08687394,-0.004166444
1.023606,0.08120691,-0.0008811105
1.024332,0.06900327,-0.001387333
1.025365,0.06387474,-0.001606193
1.023028,0.06443149,0.01250429
1.021388,0.06402509,0.02306515
1.02267,0.06631553,0.01761599
1.023121,0.06975941,0.008993412
1.023332,0.07214161,0.01146106
1.021012,0.07168364,0.01417959
1.018426,0.07184365,0.01227863
1.019473,0.07304507,0.01160546
1.021218,0.07234281,0.003404901
1.022805,0.0763967,-0.002182085
1.024854,0.08210275,-0.001389768
1.024525,0.08354441,-0.003976465
1.021987,0.08387857,-0.0007912091
1.021915,0.08485322,0.005686683
1.022568,0.08573501,0.01063899
1.021972,0.08101336,0.0157783
1.021993,0.0751578,0.01868129
1.020433,0.07581783,0.01743033
1.018797,0.0743416,0.01325635
1.019746,0.06773651,0.01477813
1.021671,0.06437473,0.01291215
1.023553,0.0674415,0.007062022
1.024183,0.07115041,0.008543468
1.025072,0.07057603,0.001505865
1.028753,0.07378916,-0.007795221
1.031003,0.08136945,-0.00349414
1.026262,0.08428925,-0.0008301491
1.021446,0.08964449,-0.003701163
1.02312,0.09468957,-0.003300125
1.021923,0.09039962,-0.00297001
1.0183,0.08945164,-0.005958383
1.022221,0.08848909,-0.005936725
1.02624,0.08078368,-0.004921077
1.024806,0.07587271,-0.005613852
1.024712,0.07079218,-0.001998026
1.025187,0.07059787,0.002831247
1.023335,0.07480198,0.007709095
1.020181,0.07260554,0.01226675
1.01556,0.07367239,0.01247739
1.012426,0.07513818,0.009594783
1.013167,0.07456541,0.005337614
1.017324,0.07792808,0.003792234
1.02269,0.07522086,0.0008091503
1.023633,0.07372801,-0.004745484
1.023281,0.07506467,-0.004222787
1.027018,0.06793299,-0.007166865
1.028982,0.06473543,-0.01813074
1.028381,0.07161056,-0.02067594
1.026861,0.079754,-0.01238581
1.022812,0.08100872,-0.007373878
1.02197,0.08009545,-0.009162597
1.022905,0.08350569,-0.008072383
1.021592,0.08124278,-0.004028555
1.022573,0.07756114,-0.006450746
1.023595,0.07473117,-0.01294576
1.02426,0.06914242,-0.01546238
1.025811,0.06904325,-0.01165013
1.024741,0.06642222,-0.006907694
1.02494,0.06395711,-0.01230481
1.026348,0.06752743,-0.01790363
1.025728,0.06806953,-0.0099499
1.023467,0.07072202,-0.0005430935
1.018565,0.06746734,0.004519582
1.016809,0.05916581,0.00418551
1.019546,0.06304927,-0.0003767993
1.022712,0.06631807,-0.001690969
1.027172,0.0655891,-0.006576123
1.028162,0.07030929,-0.007428846
1.025374,0.07444594,-0.001966027
1.022982,0.07513548,-0.004140226
1.020126,0.07345976,-0.002957449
1.021914,0.07255456,-0.001343491
1.025186,0.07205656,-0.004392856
1.022088,0.07081373,-0.002930765
1.020491,0.07112056,-0.008060694
1.02132,0.07051965,-0.01322152
1.020328,0.07062469,-0.008720382
1.021244,0.07034501,-0.006449531
1.022041,0.06845659,-0.005744418
1.023186,0.0684619,-0.001850598
1.025291,0.06615989,0.003628585
1.024569,0.06461095,0.005657528
1.023222,0.06744189,0.008274698
1.021806,0.06865095,0.01353593
1.021755,0.06757265,0.01133514
1.022908,0.0650795,0.011574
1.021852,0.06320834,0.01394212
1.022672,0.06441727,0.002777792
1.025287,0.06779242,-0.00845393
1.026248,0.07067041,-0.008358066
1.023933,0.07054325,-0.004526553
1.018974,0.07052722,-0.0006815438
1.018708,0.07144354,0.00406767
1.020239,0.071908,0.005246144
1.019161,0.07382378,0.001940797
1.020776,0.07442681,0.001148657
1.023088,0.0733296,-0.002305278
1.02395,0.07502685,-0.006370717
1.023902,0.07596499,-0.007125191
1.023138,0.07423763,-0.01139913
1.023862,0.07505035,-0.009203862
1.02352,0.07514446,-0.006315241
1.02241,0.0725989,-0.009975855
1.022279,0.0715015,-0.006283107
1.021922,0.06935598,-0.0007924885
1.022786,0.06768655,0.003951639
1.024063,0.07026279,0.004717518
1.024573,0.07430364,0.0003946785
1.021936,0.07496112,0.0032062
1.018114,0.06935657,0.0008090488
1.021007,0.06494702,-0.003449417
1.023836,0.06750773,0.002442375
1.02158,0.07016702,0.00634887
1.02202,0.06896006,0.008994185
1.022752,0.06737295,0.007417156
1.02178,0.06762098,0.001736394
1.022399,0.07152481,-0.00261079
1.022292,0.07704693,-0.01072906
1.022025,0.07463325,-0.008962436
1.022775,0.06740701,0.0007515653
1.023898,0.06347769,0.001859291
1.025372,0.06100823,0.001762706
1.024395,0.06301713,0.0009647642
1.022819,0.06525145,-0.001029861
1.023792,0.06535044,-0.0004806391
1.024046,0.07080084,0.0004728417
1.024153,0.0769715,0.00398553
1.025665,0.08076478,0.003641808
1.025991,0.07969971,0.002203228
1.025783,0.0766239,0.005548809
1.024092,0.07862359,0.004578344
1.021117,0.07767117,0.006086436
1.021913,0.07657066,0.01014971
1.023228,0.07612442,0.007932075
1.022556,0.07178367,0.00792256
1.023917,0.07142262,0.007471567
1.024775,0.0666409,0.0007892538
1.026554,0.06074063,-0.004779311
1.030623,0.06897207,-0.002952451
1.029267,0.07664997,0.002421826
1.026244,0.07539056,0.004365339
1.026615,0.07564565,0.00904647
1.025746,0.07638358,0.01423859
1.02441,0.07334233,0.009904459
1.022516,0.07291082,0.00231617
1.021294,0.07445909,-0.002602921
1.022992,0.07308025,-0.002336717
1.023118,0.07365411,0.005312621
1.023462,0.07397574,0.0138663
1.024235,0.07289418,0.01657464
1.02306,0.07317148,0.01610701
1.023588,0.0712206,0.01597148
1.022602,0.0693301,0.01310782
1.01973,0.06776296,0.01125862
1.019889,0.06725722,0.0116691
1.022839,0.06891967,0.008056779
1.026335,0.06812526,0.005626821
1.025241,0.07023298,0.00538804
1.02285,0.07555995,0.001018796
1.023011,0.0775298,-0.003010966
1.020881,0.07839829,-0.00175841
1.020403,0.07866918,-0.0006689058
1.022297,0.07686966,-0.004168842
1.022345,0.07440202,-0.006641002
1.023275,0.07618542,-0.007062601
1.023304,0.0795868,-0.006687885
1.020874,0.0780812,-0.002838353
1.019065,0.07800391,-0.0001163717
1.021111,0.07720734,0.000562261
1.025326,0.07004606,0.001782186
1.025411,0.06396563,0.002453456
1.02422,0.06264954,0.00335147
1.023716,0.06534274,0.004523856
1.022011,0.0667957,0.00677099
1.022292,0.06798797,0.009805628
1.023235,0.07259436,0.01322936
1.026001,0.07217519,0.01435669
1.02894,0.07159146,0.01138339
1.024912,0.0751072,0.01127652
1.022364,0.07503695,0.01173089
1.026135,0.0752063,0.01025986
1.028019,0.07606548,0.01050306
1.027501,0.07608422,0.005861031
1.025979,0.07585526,0.001007352
1.024352,0.07320208,0.004820398
1.024745,0.07240231,0.008809988
1.02408,0.07236091,0.008491595
1.021342,0.07175377,0.008119742
1.020536,0.07230618,0.008663265
1.022737,0.07027463,0.009355993
1.024176,0.06910519,0.01082607
1.02272,0.07170527,0.01162762
1.021615,0.07499748,0.01051233
1.022901,0.0777091,0.009116543
1.025448,0.07893212,0.007059914
1.028745,0.07952096,0.006278158
1.029092,0.07915856,0.007377028
1.023245,0.07925221,0.007974504
1.01807,0.08127503,0.01209215
1.01899,0.08212594,0.01699779
1.020785,0.08124759,0.01467885
1.02178,0.08004244,0.01150287
1.024252,0.07953199,0.01192455
1.024321,0.07584423,0.007900609
1.022706,0.06827537,0.001918237
1.023945,0.06653587,0.002117517
1.024102,0.06920806,0.002749041
1.023897,0.06983837,-0.001047747
1.025763,0.07122761,-0.003956972
1.024973,0.07311904,-0.002302955
1.02439,0.07644621,0.001687278
1.02462,0.08043029,0.005069195
1.023358,0.07789737,0.008344607
1.025538,0.07459782,0.009410188
1.028015,0.07640487,0.004609469
1.026821,0.07348046,0.000780808
1.024948,0.0670095,0.007967475
1.023513,0.06601923,0.01632034
1.022461,0.06888575,0.01339561
1.021004,0.07483196,0.01231353
1.020481,0.07952048,0.01565486
1.021015,0.07724305,0.01262059
1.020788,0.07506858,0.01025004
1.020821,0.07700072,0.00724868
1.021045,0.07767173,0.003828311
1.021679,0.07742263,0.008074346
1.022733,0.07789737,0.00918221
1.022986,0.07566338,0.006669459
1.022821,0.07329967,0.00692254
1.021976,0.07358057,0.005776863
1.021024,0.07338154,0.005450885
1.020987,0.07280441,0.006439394
1.021605,0.07196411,0.00918731
1.022548,0.07231126,0.01093509
1.022402,0.07445562,0.007508736
1.022067,0.07524535,0.007527503
1.023481,0.07505845,0.009104386
1.024643,0.07371862,0.00488714
1.024117,0.07235349,-9.119154e-05
1.022184,0.07252503,-0.002172623
1.019852,0.07395452,0.001432367
1.019293,0.0766953,0.006382023
1.02063,0.07628751,0.003688772
1.022657,0.07321344,-0.004613175
1.022862,0.07170747,-0.01230756
1.021928,0.07182397,-0.01127429
1.023772,0.07275774,-0.006321422
1.024279,0.07244094,-0.005842515
1.021607,0.07371311,6.931606e-05
1.020499,0.07601382,0.001823988
1.020027,0.07468773,-0.00481364
1.02097,0.073938,-0.000153356
1.023365,0.07498747,0.004779261
1.023486,0.07671234,0.004572894
1.022873,0.07869386,0.00528
1.021983,0.07739113,0.0002513513
1.02182,0.07534427,0.0006709026
1.022789,0.07402888,0.00307667
1.021929,0.07291891,0.00182511
1.022107,0.07385273,0.007964181
1.022437,0.07418437,0.01066965
1.020905,0.07518054,0.008362768
1.020809,0.07813095,0.008027509
1.02056,0.07818469,0.003849151
1.02028,0.07698633,0.0004059929
1.021166,0.0762098,0.003571772
1.022543,0.07444427,0.007275434
1.02394,0.07468295,0.0045068
1.024392,0.07553969,0.002880794
1.026297,0.0743516,0.005392495
1.027003,0.07298365,0.004488893
1.025645,0.07103126,0.004706023
1.02544,0.07063666,0.004589177
1.022593,0.07393635,0.003937232
1.019532,0.07586152,0.008466501
1.019423,0.07517833,0.009771901
1.020139,0.07578307,0.005314986
1.021236,0.0778683,0.002603954
1.019926,0.07914063,0.009288354
1.019712,0.07916604,0.01679759
1.02421,0.07962225,0.009912876
1.02771,0.08039512,0.003700619
1.026141,0.07933808,0.006197918
1.021868,0.07556865,0.005937799
1.020346,0.07358263,0.00716697
1.021581,0.07563021,0.01019361
1.022689,0.0752958,0.009895106
1.022103,0.07498834,0.009900277
1.019895,0.07918782,0.011545
1.019246,0.08108226,0.01362453
1.019295,0.07899119,0.01536437
1.019652,0.07665207,0.01614651
1.02077,0.07612938,0.01280318
1.021625,0.07424258,0.007735778
1.023379,0.07189849,0.009304805
1.026084,0.0784743,0.01074914
1.03361,0.08368609,0.006765516
1.041002,0.07622243,0.005074917
1.034614,0.07008415,0.002955963
1.01666,0.07050832,0.002281392
1.006017,0.06499587,0.01227909
1.024579,0.05262948,0.02170672
1.053783,0.03942202,0.01358013
1.051777,0.01986488,-0.01102931
1.025472,0.01222264,-0.03040355
1.005029,0.03687831,-0.0255214
1.006343,0.06240223,-0.009493266
1.019047,0.08866951,-0.009332883
1.02222,0.08063414,-0.004129067
1.024185,0.06769984,-0.004872287
1.021096,0.07091049,-0.009527601
1.018222,0.07146057,-0.008475966
1.021513,0.06714229,-0.01266492
1.023277,0.07562614,-0.01304272
1.022004,0.08077176,-0.01110462
1.023212,0.08206793,-0.009498981
1.024977,0.08189788,-0.004118945
1.025268,0.07612202,-0.004497279
1.024895,0.07710802,-0.006116976
1.02495,0.07836801,-0.00794185
1.024574,0.07724656,-0.01243489
1.022227,0.07840736,-0.01398772
1.019881,0.07756317,-0.01856888
1.019624,0.07980844,-0.02457343
1.019759,0.08095592,-0.02605008
1.018543,0.07806305,-0.02477424
1.016807,0.07603494,-0.0186393
1.015088,0.07613354,-0.01301019
1.016569,0.0810276,-0.01415059
1.020326,0.08423073,-0.01512209
1.020546,0.08496662,-0.01492846
1.023263,0.08663209,-0.01595956
1.028364,0.08749522,-0.01485103
1.026441,0.0888552,-0.01587001
1.024397,0.08347666,-0.01940263
1.025551,0.07346539,-0.02128851
1.02472,0.07194257,-0.02200764
1.025797,0.07939665,-0.02179752
1.029792,0.08625857,-0.02421348
1.031557,0.08389401,-0.02306155
1.025492,0.08276638,-0.01516553
1.01765,0.08780631,-0.01129016
1.020501,0.08578224,-0.01293235
1.024144,0.08064111,-0.01694604
1.02276,0.07646656,-0.01663431
1.025133,0.07175646,-0.01126293
1.022267,0.07327827,-0.006331746
1.01728,0.07477666,-0.001897003
1.022156,0.07295052,-0.003297896
1.02543,0.07500702,-0.003632694
1.025663,0.07740992,-0.0003547344
1.026789,0.07795856,-0.002074073
1.023396,0.07826996,-0.001288883
1.01851,0.07848862,-0.001023656
1.015926,0.08078228,-0.003523834
1.019078,0.08344533,-0.004766598
1.023617,0.08615891,-0.01049395
1.022127,0.0886483,-0.01450731
1.021691,0.08750284,-0.01545785
1.022828,0.08688653,-0.01549029
1.021849,0.08807308,-0.01217143
1.022289,0.08728736,-0.01197871
1.022381,0.08771633,-0.01297274
1.021979,0.08960022,-0.01228909
1.022426,0.0900001,-0.01165307
1.022128,0.08741572,-0.008020628
1.022201,0.08222821,-0.004228522
1.02232,0.08121963,-0.004979767
1.022105,0.0842935,-0.006596087
1.021953,0.08433273,-0.005109219
1.020404,0.0797451,-0.00523169
1.019232,0.07316547,-0.006795144
1.021253,0.07054574,-0.007647068
1.024193,0.07167672,-0.01107091
1.025009,0.07353866,-0.01208559
1.025761,0.07767963,-0.01193028
1.026803,0.07940608,-0.01170363
1.024875,0.08004319,-0.003028162
1.021246,0.08472341,0.004476382
1.01756,0.08619623,0.002706494
1.015536,0.0857056,0.00181661
1.017233,0.08824674,0.00462157
1.019578,0.08827868,0.005488039
1.023065,0.08818462,0.003620876
1.026569,0.08930771,-0.001965377
1.02486,0.08609788,-0.008205224
1.022913,0.08402269,-0.0009916
1.022283,0.0849399,0.00839485
1.019961,0.08254469,0.001806179
1.020768,0.08046893,-0.0009715535
1.022464,0.08122636,0.002648992
1.022086,0.08142304,-0.001864906
1.023374,0.0812552,-0.004503478
1.023373,0.08094214,-0.004488196
1.020747,0.08061352,-0.004403891
1.018785,0.08090849,0.001302139
1.01934,0.0831946,0.005089684
1.021918,0.08579622,0.004137878
1.02216,0.08424822,0.004219742
1.02037,0.08149446,-0.000443675
1.019014,0.08055122,-0.01054832
1.019535,0.08186337,-0.01246251
1.022754,0.08423867,-0.009794409
1.023819,0.08253128,-0.0112239
1.021908,0.08132536,-0.008556344
1.019994,0.08426341,-0.005338643
1.019391,0.08506529,-0.00640769
1.019015,0.08377199,-0.005484181
1.017421,0.0829695,-0.005006214
1.019119,0.08321123,-0.004838923
1.021215,0.08368401,-0.002660769
1.020507,0.08360691,-0.001688293
1.021146,0.08603833,-0.002517448
1.020747,0.08849613,-0.004977302
1.020617,0.08721497,-0.007177088
1.021418,0.08527496,-0.007367224
1.021333,0.08425691,-0.008340754
1.022705,0.08365354,-0.01222254
1.02237,0.08328825,-0.01517308
1.021417,0.08317121,-0.01380643
1.020853,0.08326834,-0.01234751
1.018863,0.08245906,-0.01267448
1.020293,0.08157731,-0.01237722
1.022756,0.08209734,-0.0124406
1.023077,0.08320442,-0.0128682
1.024055,0.08471669,-0.01357153
1.024651,0.08654852,-0.01600947
1.024994,0.08569729,-0.01614256
1.025285,0.0815084,-0.01027279
1.024247,0.079312,-0.005213338
1.022141,0.08113409,-0.00977236
1.019285,0.08278836,-0.01970519
1.019023,0.08338161,-0.02305921
1.022023,0.08374445,-0.01647607
1.023587,0.08304632,-0.007786804
1.023228,0.08306876,-0.006880667
1.021051,0.08277962,-0.01010903
1.018359,0.08133851,-0.01060804
1.020557,0.08161347,-0.01299582
1.026342,0.07958266,-0.0156254
1.030572,0.07379258,-0.02198811
1.02951,0.0708679,-0.0314361
1.024839,0.07296166,-0.02136724
1.022846,0.07741245,-0.004755687
1.021672,0.08010933,-0.007117953
1.020854,0.07939515,-0.01349066
1.021513,0.07733411,-0.01605363
1.021161,0.07561576,-0.01639909
1.022606,0.07383483,-0.01443081
1.022382,0.07288249,-0.0191379
1.019588,0.07400917,-0.02440367
1.020036,0.07355099,-0.02554457
1.021822,0.07263099,-0.02655492
1.024658,0.07401888,-0.0249688
1.025185,0.074481,-0.02206176
1.024085,0.07513498,-0.01709801
1.025857,0.07778355,-0.01476201
1.024809,0.08101009,-0.01636928
1.024153,0.08111993,-0.01406589
1.023824,0.07860975,-0.01344551
1.020319,0.07768291,-0.01262188
1.021821,0.07401599,-0.01031975
1.024809,0.07121726,-0.01197398
1.02517,0.07568517,-0.01072037
1.025324,0.08025217,-0.01056624
1.024563,0.08187421,-0.01092285
1.025016,0.08307766,-0.007656854
1.024248,0.08521557,-0.00826294
1.022986,0.08511595,-0.007623771
1.024045,0.08168046,-0.005713488
1.024502,0.07995458,-0.004695867
1.02499,0.07886677,-0.002601703
1.024168,0.0796721,-0.007030987
1.022107,0.08120602,-0.01176407
1.022231,0.07836552,-0.009559193
1.023192,0.0777774,-0.007789517
1.023704,0.08159036,-0.007565685
1.02283,0.0840357,-0.005554843
1.022054,0.08203004,-0.003845551
1.024073,0.07960843,-0.003277374
1.025736,0.08349941,-0.001590193
1.024483,0.0863411,-0.001357653
1.021984,0.08476257,-0.0007331813
1.02061,0.08448391,0.002360098
1.022298,0.08244707,0.001259037
1.024441,0.07914085,-0.002052644
1.022806,0.07802124,-0.00369099
1.021316,0.08088554,-0.005782942
1.022644,0.08598848,-0.007190314
1.022314,0.08568164,-0.005385602
1.021688,0.08554918,0.0004927747
1.021683,0.08986529,0.003439216
1.020372,0.0901988,-0.002466949
1.020888,0.08981269,-0.007614271
1.022099,0.09112503,-0.003940831
1.022181,0.09075663,-0.0009126871
1.022452,0.09192914,-0.003009658
1.02189,0.09210052,-0.0004399746
1.021107,0.09086987,0.003027758
1.020035,0.09116111,0.0004887504
1.019929,0.08998527,-0.0016808
1.022398,0.09009056,-0.00236166
1.023609,0.09190525,0.0001437458
1.023175,0.09300227,0.004405797
1.022041,0.09616185,0.001538039
1.019951,0.09760429,-0.002648161
1.019188,0.09429188,-0.002112682
1.017041,0.09109013,0.0008212203
1.01398,0.09121805,0.006383487
1.016264,0.09224154,0.009738058
1.021379,0.09071117,0.01095505
1.024445,0.08795004,0.01192259
1.023531,0.08536893,0.009023253
1.020924,0.08535679,0.009406995
1.022533,0.08745171,0.01361505
1.023867,0.0879027,0.0138458
1.022099,0.09103194,0.01127325
1.01972,0.09384107,0.002366665
1.015571,0.09165827,-0.006252225
1.017497,0.09146961,-0.003203891
1.022204,0.09132724,-0.001145924
1.021686,0.08816576,-0.00500466
1.025727,0.08434285,-0.005350024
1.027744,0.0821168,-0.004865632
1.022422,0.08458146,-0.004376522
1.021671,0.08548117,-0.001320669
1.022372,0.08463212,0.0001828309
1.021587,0.08771266,0.001937393
1.019815,0.08968439,0.004493305
1.016873,0.08903902,0.002911511
1.018164,0.08851883,0.0003886648
1.019572,0.08931541,-0.001647578
1.01917,0.0909489,-0.003406591
1.019778,0.09183314,-0.002992869
1.019288,0.09175336,-0.003706832
1.019902,0.08932114,-0.005713757
1.022343,0.08740177,-0.007915574
1.024206,0.0879541,-0.00956506
1.024064,0.09001969,-0.009026499
1.022973,0.09275202,-0.007925908
1.023663,0.0918522,-0.007314316
1.022954,0.09075774,-0.00719218
1.021148,0.09136887,-0.004878939
1.020682,0.08981504,-0.001741504
1.019012,0.0905462,-0.00259447
1.018971,0.09348089,-0.004293008
1.020105,0.09487588,-0.004762281
1.019096,0.09451635,-0.00675455
1.019742,0.09143724,-0.009244177
1.021537,0.08764767,-0.008626547
1.022798,0.08439233,-0.008167788
1.024411,0.0820964,-0.01182696
1.024947,0.08109721,-0.01473052
1.024214,0.08317821,-0.01388665
1.022112,0.08790908,-0.01083749
1.020603,0.08649409,-0.009373047
1.020109,0.08365044,-0.009609673
1.018904,0.08598019,-0.006779758
1.019441,0.08657707,-0.005539044
1.020521,0.08921063,-0.01077866
1.022605,0.09098952,-0.01765655
1.026334,0.08711894,-0.01978833
1.025426,0.08621184,-0.01805105
1.023981,0.08423779,-0.01863135
1.025489,0.08199891,-0.01796066
1.024063,0.08344879,-0.01486916
1.022962,0.08293344,-0.01541321
1.024135,0.08356232,-0.0170854
1.024441,0.08378966,-0.01796405
1.025181,0.08376754,-0.01813402
1.024713,0.0865024,-0.01789376
1.021987,0.0862127,-0.01797519
1.020193,0.08586637,-0.01603293
1.021072,0.08643993,-0.01440973
1.023991,0.0859449,-0.01347687
1.025313,0.0876133,-0.01204272
1.023318,0.08948723,-0.01237235
1.021403,0.09027373,-0.01271006
1.022076,0.08785239,-0.01297974
1.022777,0.0847131,-0.0151264
1.02149,0.08621548,-0.0166234
1.02023,0.08666708,-0.01258553
1.018329,0.08557015,-0.007599345
1.01773,0.08633987,-0.01122259
1.021262,0.08599315,-0.01889379
1.023065,0.08485051,-0.02337875
1.02215,0.08390066,-0.0216558
1.02206,0.08377763,-0.01609056
1.022237,0.08525065,-0.01338024
1.022912,0.08589835,-0.00953384
1.024744,0.08632388,-0.01045721
1.026335,0.08821043,-0.01758883
1.022031,0.08965046,-0.01407641
1.015084,0.09041619,-0.01008003
1.014299,0.09007921,-0.01133943
1.014587,0.08766504,-0.00823612
1.015291,0.08655273,-0.009011451
1.019846,0.08681328,-0.008850185
1.022169,0.08523144,-0.007240212
1.023112,0.08526868,-0.01036556
1.024117,0.08869966,-0.009552611
1.022449,0.09032082,-0.009151966
1.021805,0.08920333,-0.008512327
1.022088,0.0877889,-0.005678092
1.020357,0.08774514,-0.007467257
1.019273,0.09119971,-0.00825318
1.021033,0.09413931,-0.008887301
1.023137,0.0923272,-0.009439066
1.022303,0.09092291,-0.006774621
1.021291,0.09300878,-0.005890656
1.020924,0.09449863,-0.003616068
1.018771,0.09441006,-0.0003870381
1.019028,0.09457669,-0.001887295
1.020205,0.09438129,-0.00382831
1.018955,0.09400054,-0.002560984
1.020183,0.09284026,-0.002146286
1.023331,0.09095821,-0.002480573
1.025155,0.09150731,-0.0009698757
1.022669,0.09215569,-0.002098007
1.017333,0.09130869,-0.003621774
1.01765,0.09173931,-0.002362245
1.019746,0.09180933,-0.00351337
1.018979,0.09145741,-0.006544108
1.018668,0.09182101,-0.009170936
1.01682,0.09161858,-0.00897723
1.016781,0.09108676,-0.006836442
1.02072,0.08907564,-0.006804359
1.023084,0.0869566,-0.006435856
1.022472,0.08900817,-0.006155436
1.020652,0.09145186,-0.003777174
1.020749,0.09014768,-0.001585454
1.021092,0.08978264,-0.008159207
1.020282,0.09079904,-0.01189123
1.020253,0.09006375,-0.009764994
1.019081,0.09051665,-0.01043139
1.019171,0.09235576,-0.006017901
1.019803,0.09279447,-0.0006713233
1.018121,0.09071423,-0.002916948
1.018104,0.08787992,-0.005526873
1.018978,0.09003879,-0.005609764
1.019812,0.09412408,-0.005557638
1.020638,0.09434428,-0.006206097
1.020671,0.09287965,-0.008063815
1.021187,0.09094413,-0.00971111
1.020673,0.0920179,-0.005528348
1.020675,0.09603474,0.0003687611
1.021363,0.09775607,-0.001321631
1.021219,0.09733863,-0.003231148
1.021926,0.09461448,-0.002131007
1.021638,0.09201932,-0.002224756
1.021949,0.09144316,-0.0007162361
1.022723,0.09166164,0.0007154092
1.020166,0.09391272,0.001965131
1.016972,0.09486627,0.004607694
1.014969,0.09401303,0.005926165
1.017494,0.09273651,0.004475665
1.021977,0.09180251,-0.001902499
1.020412,0.09614363,-0.007636845
1.020221,0.09996423,-0.005167614
1.023374,0.09682686,-0.002737955
1.022289,0.09356901,-0.005670865
1.021657,0.09493746,-0.006213706
1.023049,0.09760454,-0.005633387
1.023845,0.09894434,-0.00943469
1.025286,0.09914303,-0.01208052
1.024492,0.09811298,-0.0103576
1.022786,0.09857144,-0.008944245
1.023401,0.09821478,-0.009817622
1.022141,0.09356985,-0.0101135
1.020252,0.09025582,-0.009300594
1.022616,0.08978687,-0.009868869
1.024427,0.09078674,-0.009892853
1.022536,0.09230523,-0.009740093
1.021843,0.09355275,-0.01181216
1.023317,0.0950164,-0.01292189
1.023438,0.09445261,-0.0126263
1.020872,0.0938364,-0.01266972
1.018871,0.09292363,-0.01423976
1.021024,0.09073695,-0.01607237
1.022997,0.09051152,-0.01487686
1.020133,0.08948496,-0.01299462
1.017524,0.08807192,-0.01137551
1.018433,0.0883302,-0.01046159
1.020123,0.08845952,-0.01144073
1.021979,0.08993413,-0.01099363
1.021563,0.0920016,-0.009953805
1.018385,0.09287411,-0.009710366
1.017261,0.09406984,-0.009476357
1.017352,0.09494236,-0.00939365
1.016464,0.0942907,-0.007033926
1.01665,0.09430561,-0.005291093
1.01831,0.09433456,-0.009012356
1.020958,0.09245973,-0.01269192
1.023414,0.09119214,-0.0114255
1.024598,0.09097505,-0.01148818
1.026752,0.08873206,-0.01519512
1.0285,0.08412054,-0.01589006
1.025881,0.08290722,-0.01470248
1.02302,0.08590934,-0.01474257
1.020741,0.08677955,-0.0144618
1.015945,0.08738017,-0.01539709
1.015526,0.08856918,-0.01660538
1.0186,0.08856027,-0.01892076
1.019972,0.0903271,-0.02199552
1.023897,0.09062458,-0.01952908
1.024949,0.08925414,-0.01793967
1.022358,0.08838814,-0.02043835
1.024,0.08653601,-0.01842098
1.02403,0.08755515,-0.01711342
1.022675,0.08818582,-0.01843926
1.022977,0.08756935,-0.01560786
1.019774,0.09242414,-0.01283526
1.017702,0.09552761,-0.01210514
1.017844,0.0927245,-0.01229308
1.016414,0.0901107,-0.01316759
1.016897,0.08942987,-0.01268979
1.019218,0.09006336,-0.0123802
1.020771,0.09212228,-0.01095832
1.021302,0.09553848,-0.01065812
1.021786,0.09701241,-0.01424526
1.020942,0.09671171,-0.01686495
1.019625,0.09403463,-0.01876457
1.020099,0.08991721,-0.01818758
1.018899,0.09165052,-0.01535492
1.019184,0.09296266,-0.01531682
1.020496,0.09286075,-0.01472481
1.0193,0.0972708,-0.01308147
1.020369,0.09817516,-0.01036873
1.018698,0.0977409,-0.007764844
1.016745,0.09983877,-0.009644008
1.019175,0.0995915,-0.01100187
1.018857,0.09915006,-0.01023175
1.020489,0.1000628,-0.006989466
1.022699,0.1004215,-0.002364812
1.021806,0.0996976,-0.003871699
1.022589,0.09939689,-0.006350133
1.0221,0.09765603,-0.008704185
1.021683,0.09501528,-0.01340971
1.020458,0.09765302,-0.00881609
1.016722,0.1005656,-0.0007066405
1.016508,0.09921778,0.000187306
1.018808,0.0989068,0.003016233
1.020753,0.09977608,0.003565463
1.020397,0.1003628,-0.003250649
1.018773,0.1015314,-0.005179969
1.0195,0.1018857,-0.003941392
1.0197,0.1008387,-0.004811857
1.019183,0.1004348,-0.006353672
1.019399,0.1000816,-0.008794981
1.018722,0.0991854,-0.007764156
1.018622,0.09873187,-0.007822507
1.019668,0.09723802,-0.01031968
1.020086,0.0967379,-0.009695441
1.020568,0.09709952,-0.01157753
1.021048,0.09679531,-0.01336434
1.019269,0.09866703,-0.0121783
1.018587,0.0989442,-0.01202671
1.020575,0.09777399,-0.009808667
1.021099,0.09729875,-0.007503263
1.022342,0.09572426,-0.008090909
1.023388,0.09915901,-0.008799804
1.023193,0.1028466,-0.008217492
1.025613,0.0994054,-0.007525251
1.02449,0.09748918,-0.006047175
1.02105,0.0992713,-0.003115559
1.020782,0.1006635,-0.003792882
1.019251,0.1012474,-0.005964783
1.020724,0.09973523,-0.007980364
1.023448,0.09691204,-0.01241263
1.020771,0.09685555,-0.01016974
1.01935,0.09906344,-0.00401649
1.019747,0.1004064,-0.004864162
1.020427,0.1019322,-0.007501746
1.022777,0.1017302,-0.007720399
1.022206,0.1007194,-0.007025216
1.019335,0.1018489,-0.006457723
1.018799,0.1013489,-0.004798387
1.019842,0.1007343,-0.002268461
1.01987,0.1000163,-0.0011029
1.020897,0.09774823,0.002132442
1.023079,0.09885832,0.001184433
1.022148,0.1009227,-0.00730151
1.020801,0.1014937,-0.01121153
1.021003,0.1019441,-0.01021284
1.020759,0.102118,-0.008846728
1.021822,0.1039728,-0.008886429
1.022619,0.1047869,-0.009397384
1.021732,0.103754,-0.006752415
1.019903,0.104263,-0.004317043
1.016238,0.1042929,-0.001804895
1.015122,0.1030666,-0.002527139
1.019868,0.09987505,-0.005883213
1.023776,0.09613418,-0.005111563
1.021358,0.09845484,-0.005913442
1.018684,0.1016733,-0.005940785
1.019739,0.09977442,-0.005700423
1.019181,0.09999261,-0.008093737
1.017305,0.1008118,-0.00685689
1.016508,0.09843737,-0.008162415
1.016228,0.0991274,-0.009432635
1.017069,0.1007246,-0.007378785
1.016664,0.1024235,-0.007615745
1.016674,0.1072616,-0.003504279
1.01889,0.1065867,0.0006197603
1.01972,0.0998251,-0.002176016
1.020365,0.09521798,-0.005158454
1.023373,0.0937883,-0.007997449
1.028654,0.09360204,-0.01204991
1.029501,0.09415064,-0.0130363
1.021542,0.09978814,-0.01117913
1.014764,0.1061487,-0.009950415
1.014308,0.1059226,-0.009923563
1.016323,0.1046491,-0.01261598
1.018398,0.1016898,-0.01581617
1.02073,0.09661025,-0.01558205
1.022762,0.09510463,-0.01424927
1.02213,0.09619563,-0.01159083
1.022624,0.09893983,-0.007839269
1.022595,0.1006748,-0.00771488
1.019823,0.09955398,-0.01011945
1.020746,0.09745838,-0.01080004
1.021402,0.09642896,-0.01126056
1.0203,0.09761638,-0.01152069
1.021119,0.09700688,-0.008812421
1.020794,0.09501449,-0.007955416
1.020717,0.09429116,-0.009781053
1.02101,0.09458644,-0.009961034
1.020665,0.09748319,-0.01211616
1.020952,0.09871742,-0.01382369
1.020958,0.09504511,-0.009908508
1.021894,0.09244112,-0.009345087
1.02327,0.09626913,-0.01459869
1.023013,0.1004789,-0.01772632
1.021574,0.09758483,-0.01780796
1.020523,0.09580865,-0.01262894
1.020701,0.09738611,-0.008155411
1.020606,0.09623271,-0.01344497
1.019433,0.09711314,-0.01683564
1.018841,0.09800345,-0.01317115
1.019772,0.0966948,-0.0108926
1.019645,0.09818242,-0.01023354
1.01915,0.09818858,-0.008654224
1.020711,0.09664819,-0.008409588
1.021228,0.09727308,-0.01103392
1.021765,0.09736189,-0.01484077
1.023557,0.09711464,-0.01889407
1.023255,0.09725341,-0.01366924
1.020613,0.0975788,0.0003101078
1.016739,0.09920407,0.003404913
1.016324,0.1013946,-0.006101015
1.019916,0.101926,-0.01387959
1.021541,0.1008745,-0.007967646
1.020808,0.1006564,0.0009465073
1.019557,0.1008567,-0.001974811
1.019292,0.101298,-0.001945024
1.019728,0.1018444,-0.0001626373
1.020376,0.1010918,-0.002662032
1.022148,0.1013248,-0.0006202293
1.022532,0.1017045,-0.001049174
1.022061,0.1010528,-4.503879e-05
1.022282,0.101563,0.003728306
1.022175,0.1017895,0.002494227
1.02192,0.1029748,0.003179215
1.020403,0.1049507,0.004695796
1.018521,0.1042151,0.005257919
1.01752,0.1036069,0.003504956
1.016437,0.1035661,-0.0002318083
1.016508,0.1022553,0.001492277
1.017864,0.1016927,0.002113912
1.018325,0.1014439,0.0006203731
1.01795,0.1011097,0.001802373
1.018064,0.1015547,0.00154363
1.01809,0.1018046,0.002070187
1.018352,0.102985,0.003314397
1.019917,0.1048817,0.00198068
1.021492,0.1043317,-0.000931019
1.02197,0.1036707,-0.003739274
1.02192,0.104518,-0.003243481
1.02158,0.103941,-0.001977772
1.020511,0.1029162,-0.00314251
1.020536,0.1018522,-0.002423246
1.021131,0.1015556,0.001057109
1.019495,0.1051013,0.005417985
1.018214,0.1082138,0.008452144
1.017791,0.107106,0.006376935
1.016936,0.1062942,0.003449909
1.017053,0.1073176,0.002745515
1.01856,0.1073854,0.002168049
1.022075,0.1083952,0.003180545
1.024016,0.1103885,0.00295163
1.023382,0.1089548,0.002209095
1.023241,0.107513,0.003340029
1.02091,0.1086727,0.00235347
1.018483,0.1078773,0.001201432
1.019358,0.1050471,-0.001154575
1.019857,0.1017847,-0.004145649
1.019239,0.1004126,-0.002792402
1.019355,0.1023326,-0.003168091
1.019657,0.1044257,-0.00481605
1.019128,0.1068518,-0.003075024
1.018524,0.107871,-0.00232944
1.017942,0.1057872,-0.003080784
1.01776,0.1042583,-0.003754971
1.01838,0.1029278,-0.003986629
1.017958,0.1058898,-0.002135869
1.017904,0.1149243,0.001070172
1.018863,0.1182488,0.002867295
1.020503,0.1133924,0.005004051
1.022772,0.1065924,0.009728788
1.020827,0.1025387,0.0104085
1.018102,0.1048262,0.006213964
1.019902,0.1062494,0.002861924
1.020223,0.1023787,-0.00420759
1.018245,0.1003542,-0.01255317
1.017687,0.1017112,-0.01023791
1.018031,0.1025925,-0.003609891
1.01866,0.1025837,-0.00227189
1.01931,0.1020663,-0.0009304103
1.019555,0.101369,-0.001859022
1.017573,0.1030083,-0.007744062
1.015939,0.1050795,-0.01002481
1.017991,0.1043116,-0.006712447
1.019407,0.1048335,-0.002444114
1.019674,0.1069161,-0.003607438
1.020521,0.1064754,-0.005736013
1.020843,0.1061708,-0.002836443
1.021277,0.1080713,-0.003369226
1.021545,0.1085649,-0.003299379
1.022243,0.1063196,-0.0003265633
1.021705,0.1048863,0.002462219
1.019525,0.1059423,0.009149334
1.018309,0.1077695,0.007600151
1.016487,0.1097614,0.002677288
1.01773,0.111659,0.007055145
1.020555,0.1138454,0.008957023
1.017463,0.1152056,0.007814062
1.015329,0.1104412,0.004576607
1.016106,0.1027053,0.0004506492
1.014127,0.1018843,0.003558022
1.014006,0.1052779,0.009572337
1.017766,0.1060388,0.01299969
1.02053,0.1058832,0.005428789
1.0194,0.1068197,-0.008774924
1.016739,0.1071693,-0.01194988
1.0158,0.1053121,-0.008276043
1.015633,0.1043958,-0.004851688
1.015938,0.104527,-0.002299908
1.015504,0.102084,-0.005006449
1.015157,0.1021626,-0.008970128
1.018713,0.1035957,-0.009587683
1.022156,0.100922,-0.01012551
1.022104,0.09965716,-0.01046372
1.019601,0.1000502,-0.008942801
1.016892,0.1009844,-0.009402547
1.018169,0.1033248,-0.008757527
1.019781,0.104153,-0.005781833
1.020028,0.1047123,-0.005086821
1.021432,0.1040074,-0.001421338
1.02103,0.103715,-0.0001027246
1.021158,0.1048738,-0.004920602
1.021839,0.1027873,-0.007193088
1.019549,0.09970891,-0.01256144
1.018848,0.09717149,-0.0168531
1.019816,0.1005608,-0.01107642
1.019026,0.1068629,-0.006160526
1.017549,0.1031393,-0.006589884
1.016428,0.1005416,-0.008798283
1.017278,0.1014803,-0.0139765
1.018742,0.09727832,-0.01915476
1.018178,0.09822802,-0.01404829
1.018615,0.1007422,-0.004257366
1.02025,0.09989559,-0.005356212
1.020292,0.10302,-0.009296571
1.020821,0.104903,-0.008808483
1.021071,0.1030154,-0.006007138
1.019748,0.1012513,-0.0007935876
1.020334,0.1001548,-0.002214183
1.022057,0.09996804,-0.00442146
1.02219,0.1003682,-0.001678715
1.020258,0.102795,-0.004333605
1.017975,0.1052351,-0.006395982
1.018647,0.1049904,-0.004945912
1.020534,0.1041695,-0.003983843
1.022111,0.1024207,-0.001563494
1.024218,0.1009563,-0.001352531
1.024266,0.1036223,-0.001899008
1.023511,0.1078667,-0.0038058
1.022821,0.1086696,-0.006525844
1.017524,0.1059199,-0.003630425
1.013118,0.101798,-0.001756842
1.015527,0.0986736,-0.003093283
1.016662,0.09874508,-0.00322057
1.017428,0.1020985,-0.004466031
1.022426,0.1079705,-0.006065781
1.023246,0.1132603,-0.004631181
1.021022,0.1147344,0.001179551
1.020739,0.1139024,0.006099692
1.018489,0.1131466,0.005218673
1.016242,0.1119776,0.003347677
1.015516,0.1083274,0.005240999
1.016568,0.1042602,0.009612224
1.020037,0.1020248,0.01300859
1.0196,0.1015269,0.01494447
1.016887,0.1058907,0.01589884
1.01682,0.1101568,0.01180831
1.017609,0.1074737,0.004262392
1.020278,0.1030676,0.003332215
1.021319,0.1009779,0.00280516
1.018641,0.102553,-0.003604834
1.017564,0.1060315,-0.002163257
1.018672,0.1075659,0.0005628537
1.021869,0.111954,-0.002867764
1.023784,0.1160375,-0.001043511
1.019347,0.1125405,-0.0009574072
1.014778,0.1086673,-0.003278807
1.016703,0.1067635,-0.002579317
1.019647,0.1067034,-0.005017118
1.019205,0.1096606,-0.005519419
1.019597,0.108334,-0.002351401
1.019681,0.1073948,0.001049966
1.018741,0.1092172,0.002720271
1.019031,0.1065102,0.001942665
1.017802,0.1047863,0.005196665
1.018621,0.1040958,0.008459544
1.020737,0.1034593,0.007053075
