accx,accy,accz
0.8845955,0.4235529,0.2160278
0.8861683,0.4243199,0.2131487
0.8897953,0.4239948,0.2148766
0.8940908,0.4215728,0.2152383
0.8892424,0.4225736,0.2174298
0.8806413,0.4261044,0.2180951
0.8790642,0.4294063,0.2176357
0.8792961,0.4349199,0.2201361
0.8771719,0.4353081,0.222187
0.8778449,0.4341169,0.2229937
0.8800546,0.4400243,0.2180119
0.8808225,0.4382839,0.211887
0.8804273,0.43176,0.2181301
0.8782984,0.4311089,0.2245161
0.8762383,0.430094,0.2236425
0.8751536,0.4335542,0.2267698
0.8746283,0.4398509,0.2277923
0.8738188,0.4427768,0.2250239
0.8715306,0.443132,0.2264156
0.8710865,0.4406663,0.2251197
0.8752997,0.4416459,0.2222289
0.8788788,0.4425416,0.2234589
0.8751009,0.4420781,0.2212494
0.8697468,0.445328,0.2177288
0.8699389,0.444935,0.2184792
0.8706959,0.4431265,0.2201423
0.871475,0.4429524,0.2232605
0.8728836,0.4429278,0.2258398
0.8710767,0.4465143,0.2250186
0.8699372,0.4466463,0.2204851
0.8694033,0.4428277,0.2136729
0.8677071,0.4428477,0.215378
0.8696524,0.444012,0.2242871
0.8718619,0.4463498,0.2277007
0.8716119,0.449218,0.2247425
0.8749388,0.4454007,0.2150282
0.8785781,0.4411827,0.2072124
0.8737719,0.444526,0.2136316
0.8682885,0.447288,0.2198321
0.8713666,0.4470819,0.2158064
0.8735716,0.4477276,0.2135452
0.8721503,0.4479417,0.2136748
0.8720569,0.448957,0.2115999
0.8692758,0.4502417,0.2131047
0.8679534,0.4515967,0.2170313
0.8732475,0.4525702,0.2196043
0.8791582,0.4473448,0.2229783
0.8799069,0.4407911,0.2251289
0.8752346,0.4405055,0.2247748
0.8713703,0.4417378,0.2198662
0.870662,0.4429653,0.2154684
0.872493,0.4436299,0.2182159
0.8760161,0.4407001,0.2176286
0.8769364,0.4400813,0.2163712
0.8777016,0.44338,0.2172044
0.8775541,0.4450967,0.2106113
0.8753927,0.4440476,0.2057674
0.8767542,0.4403761,0.2045892
0.8780455,0.4379022,0.2013649
0.8794389,0.4386069,0.2008991
0.8825239,0.4381811,0.2038415
0.8815547,0.4362276,0.2068791
0.8789307,0.4357549,0.2071314
0.8772634,0.4380063,0.2070027
0.8770811,0.4419545,0.2069627
0.8775867,0.4466385,0.2066718
0.8756545,0.4482123,0.2080755
0.8753515,0.4446842,0.2101978
0.8764724,0.4427951,0.2134524
0.877295,0.4432979,0.2122953
0.8802717,0.4437729,0.2095754
0.8812977,0.4449349,0.211816
0.881327,0.4447913,0.2112768
0.8832631,0.4459706,0.2104924
0.8829002,0.4475237,0.2119175
0.8795142,0.4445688,0.2121739
0.8757551,0.4418724,0.2154913
0.8762081,0.4428164,0.2172608
0.8800878,0.4420473,0.2138014
0.8819107,0.4373914,0.2114139
0.8814822,0.4350937,0.2120427
0.8773869,0.4381646,0.2113344
0.8731613,0.4435016,0.2090906
0.8741623,0.4473269,0.2114739
0.8748412,0.4462507,0.2148656
0.8733809,0.4448397,0.2146624
0.8719028,0.4460208,0.2143355
0.87014,0.4441617,0.2102491
0.8706068,0.4420369,0.2057818
0.8714168,0.443455,0.2113697
0.8704456,0.4442042,0.2182821
0.8710081,0.4440278,0.2157277
0.872012,0.4427838,0.2095329
0.8725163,0.4399933,0.2072986
0.8750243,0.4398073,0.2140722
0.8789266,0.4407477,0.2231117
0.8816058,0.4400728,0.2192068
0.8797667,0.4405887,0.2121201
0.8765515,0.4422369,0.2112192
0.8751812,0.4434283,0.2083831
0.8721545,0.4433666,0.2091657
0.8721795,0.4426346,0.2099677
0.8751821,0.4430207,0.2085691
0.8751046,0.4423285,0.2146001
0.8763811,0.4410951,0.2162747
0.8762913,0.4423259,0.2144773
0.8744025,0.4445009,0.2124411
0.8781178,0.4462554,0.2031184
0.8810882,0.4448829,0.2029745
0.879502,0.4408063,0.2093376
0.877896,0.4399978,0.2114518
0.877383,0.4426748,0.2173037
0.8779658,0.4463808,0.219053
0.8776555,0.4477339,0.2154447
0.8768735,0.4441297,0.2136598
0.877029,0.440702,0.2113951
0.8765717,0.4400112,0.2096372
0.8743039,0.4409686,0.2078596
0.8709332,0.4446031,0.2085186
0.8711204,0.4473298,0.2129632
0.8756656,0.4466076,0.2169549
0.8784938,0.446896,0.2198921
0.8756035,0.4477386,0.2204392
0.8718461,0.4457598,0.2216272
0.8735061,0.4443681,0.22464
0.8736624,0.4436161,0.223438
0.8711587,0.4429733,0.2198101
0.8735986,0.4459421,0.2172636
0.8751977,0.4481968,0.215875
0.8747088,0.4472197,0.2167258
0.8754262,0.4465445,0.2169219
0.8748784,0.4455767,0.2153332
0.8759074,0.4438409,0.2149749
0.8769061,0.4431247,0.2146209
0.8756092,0.4433132,0.2144002
0.8737884,0.4424511,0.2156114
0.8717494,0.4415544,0.2151007
0.8740098,0.4418641,0.2131973
0.877866,0.4435508,0.21231
0.8772078,0.4465387,0.213148
0.8757421,0.4475198,0.2145296
0.8754408,0.4473718,0.2138505
0.8749268,0.4472381,0.2135594
0.8751645,0.4463516,0.2151337
0.8772842,0.4449523,0.2176485
0.8801414,0.4422318,0.2196562
0.8809952,0.4434649,0.2172672
0.8786994,0.4461097,0.21553
0.8741749,0.4455932,0.2159706
0.8709814,0.4476909,0.2130858
0.8723909,0.4470199,0.2142885
0.8757136,0.4418098,0.2177606
0.8766521,0.4396523,0.2161138
0.8756099,0.4409762,0.21649
0.8745868,0.4447728,0.215899
0.8748147,0.4468105,0.2125302
0.8754133,0.4465447,0.2127574
0.8747582,0.4442174,0.2146249
0.8749245,0.4405369,0.2193312
0.875297,0.444593,0.2235367
0.8741485,0.4504959,0.2219833
0.8730204,0.4499982,0.2184407
0.8727433,0.4490978,0.2162162
0.8752855,0.4479653,0.2153827
0.8762062,0.4462268,0.2135899
0.8738753,0.4439795,0.2172446
0.87506,0.4424571,0.2263224
0.8746658,0.4462162,0.2276967
0.8726879,0.4491241,0.2208668
0.8749883,0.447917,0.2139135
0.875191,0.4473817,0.2161487
0.8737959,0.4469791,0.2207552
0.8735971,0.445681,0.2184075
0.8732846,0.4456266,0.2197205
0.8739541,0.448222,0.2201305
0.8733303,0.4501285,0.2182355
0.8725404,0.4500526,0.2204945
0.8724583,0.4497789,0.2190401
0.8728816,0.4478408,0.2187576
0.8751347,0.4458406,0.2184603
0.874787,0.4456685,0.2152655
0.8718098,0.447129,0.2164619
0.8693672,0.4495261,0.2138051
0.8688893,0.4501852,0.2089657
0.8710614,0.4492352,0.2107316
0.8719745,0.4483075,0.2154563
0.872235,0.4493891,0.2183462
0.8725803,0.4507117,0.2174806
0.8721742,0.4497221,0.2162265
0.8741876,0.4499073,0.2140296
0.8756578,0.450265,0.2131122
0.8750965,0.4493743,0.2168265
0.8757839,0.4483877,0.2215555
0.8765099,0.4464518,0.225322
0.8751469,0.4460496,0.2189244
0.8717564,0.4461087,0.2098485
0.8703624,0.4453795,0.2133522
0.8726551,0.4458841,0.2121736
0.8745883,0.444854,0.2063541
0.8745914,0.4430033,0.2130587
0.8751388,0.4438279,0.217848
0.8772466,0.4478648,0.2147099
0.8777655,0.4528498,0.2157378
0.8760195,0.4519007,0.2166946
0.8742533,0.4474698,0.2119614
0.8737605,0.4469032,0.2093847
0.8741224,0.4449191,0.2157449
0.8741037,0.4416333,0.2209943
0.8753128,0.443635,0.2133859
0.8752745,0.4463936,0.2059422
0.8734215,0.4468845,0.2086974
0.8737614,0.4451023,0.2096664
0.8737092,0.4422732,0.2101485
0.874694,0.4454267,0.2152175
0.8774361,0.449054,0.215517
0.8780416,0.4462332,0.2128697
0.8779889,0.4440584,0.2114518
0.8773444,0.4429331,0.2106484
0.8768629,0.4426413,0.2133553
0.8762411,0.4457286,0.2143756
0.8748221,0.4471496,0.2126976
0.8739414,0.4473066,0.2116678
0.871331,0.4471285,0.2093887
0.8701383,0.4448537,0.20973
0.871686,0.4432586,0.2130983
0.873954,0.4426025,0.2131764
0.8785211,0.4434551,0.2098479
0.8799713,0.4455387,0.209099
0.8769862,0.4477397,0.2106165
0.8755036,0.449437,0.2111634
0.8753619,0.4475544,0.2127607
0.8737916,0.4462999,0.2111495
0.8715286,0.4466579,0.2083449
0.872754,0.4439514,0.2104893
0.876891,0.4413168,0.2121249
0.8784885,0.440837,0.2143647
0.875588,0.4453613,0.2158883
0.8721302,0.4518115,0.2121891
0.8722979,0.4505931,0.2099436
0.8742957,0.4483672,0.2102545
0.8763892,0.449012,0.2098009
0.8769827,0.4461123,0.2099454
0.8753971,0.4438578,0.2121593
0.8738067,0.444089,0.2134419
0.8716003,0.4466883,0.2125741
0.8721226,0.4518881,0.2146758
0.8757902,0.4507118,0.2164977
0.8760714,0.4484956,0.2147073
0.872965,0.4520435,0.2149065
0.869624,0.4515871,0.2147469
0.8707563,0.450399,0.2120974
0.8747131,0.4503505,0.211535
0.8752951,0.4475191,0.2118232
0.8759148,0.4485446,0.2119308
0.8752789,0.4492801,0.2128755
0.8717284,0.4475643,0.2136343
0.8707744,0.4472223,0.2147986
0.873188,0.4455964,0.2156915
0.87631,0.4472018,0.218302
0.873996,0.4500571,0.2236616
0.8677275,0.449242,0.2246033
0.8649605,0.4499264,0.2233171
0.8683622,0.4499985,0.2257282
0.8761065,0.446888,0.2253632
0.8775657,0.4452888,0.2231009
0.8751724,0.4465772,0.2234675
0.8755571,0.4478756,0.2204701
0.873817,0.4475324,0.2156364
0.873261,0.448673,0.2122376
0.8713566,0.4508858,0.2099142
0.8695504,0.449736,0.212047
0.8728438,0.4476839,0.2126958
0.8724145,0.4472895,0.2101406
0.8727092,0.4477838,0.2088279
0.8745515,0.4484321,0.2063891
0.8730396,0.4452017,0.2082659
0.8738235,0.4414628,0.2124912
0.8735178,0.4435732,0.2117608
0.8722343,0.4466455,0.2126428
0.8712879,0.4486913,0.2140231
0.8691864,0.4511476,0.2134918
0.869666,0.4507151,0.214689
0.8705179,0.4469411,0.2155379
0.8718685,0.4430939,0.2169801
0.8725127,0.4441252,0.2173029
0.8700303,0.4478107,0.2153478
0.8690043,0.4489437,0.214339
0.8693373,0.4508678,0.2125781
0.8696518,0.4523145,0.2152606
0.8694573,0.4524306,0.2202552
0.8692017,0.4528484,0.2179266
0.8702794,0.4488114,0.2163363
0.8719489,0.4458529,0.2155066
0.874399,0.4474871,0.2109415
0.8739539,0.4472216,0.2119501
0.8720115,0.4461995,0.2137795
0.8733517,0.4457471,0.2116323
0.8740111,0.4466083,0.2125943
0.8743982,0.4478163,0.2129599
0.8748966,0.4475621,0.2122662
0.8722077,0.4498419,0.2146695
0.8699769,0.4518134,0.2155985
0.870591,0.4488926,0.2141954
0.8719022,0.4462489,0.2124551
0.8731279,0.4489093,0.2113495
0.8747054,0.4513466,0.2118336
0.8738931,0.4495507,0.2111852
0.8716717,0.4497217,0.2083521
0.8730535,0.4505352,0.2084063
0.875015,0.4495698,0.2192161
0.8767078,0.4498143,0.2306281
0.8773038,0.4482863,0.2246549
0.875401,0.4464647,0.2162393
0.8766711,0.4470593,0.2196071
0.8770458,0.4465888,0.2215917
0.8764547,0.4454013,0.2203614
0.8787326,0.4456974,0.2184834
0.876941,0.4461643,0.2135829
0.8733904,0.4461757,0.2115177
0.8699836,0.448464,0.2120901
0.867965,0.4512064,0.2110583
0.8700998,0.4513512,0.2100216
0.8686414,0.4529355,0.2136696
0.8681974,0.4542693,0.2188356
0.8740347,0.4496872,0.2168077
0.8777882,0.4453671,0.2154198
0.8767991,0.4467596,0.2168721
0.8744688,0.4463736,0.2114572
0.8747104,0.4432007,0.206299
0.8734084,0.4444887,0.2064473
0.8701667,0.445776,0.2072387
0.871215,0.4441675,0.2071153
0.8727848,0.4455149,0.2065668
0.8740791,0.4478356,0.2072039
0.8750285,0.447651,0.2066068
0.8747469,0.4467844,0.2052557
0.8765534,0.4471899,0.2057477
0.8772596,0.447956,0.2077374
0.8767815,0.4486396,0.2112148
0.8756284,0.4506511,0.2118397
0.8739104,0.4500512,0.206569
0.8746904,0.4474441,0.2014727
0.8743933,0.4471948,0.206327
0.8748695,0.4469627,0.2129958
0.8766925,0.447315,0.2091777
0.8758899,0.4474629,0.2084181
0.8756768,0.4462663,0.2113557
0.8750564,0.444884,0.2087643
0.8757355,0.4421493,0.2090248
0.8790874,0.4425544,0.206807
0.8789404,0.4438335,0.2032912
0.8764194,0.4415372,0.2097329
0.8742313,0.4416196,0.2135183
0.8745018,0.4428257,0.2062644
0.8758763,0.4430503,0.1999092
0.8753986,0.4434048,0.2031749
0.8793622,0.4428934,0.2074154
0.8834497,0.4440334,0.2082126
0.8799718,0.4450822,0.2108979
0.8770003,0.4453082,0.2099001
0.8772803,0.4470596,0.2079704
0.8751708,0.44724,0.2070242
0.8716755,0.4451269,0.2016858
0.8720302,0.4426133,0.201896
0.8746549,0.4411796,0.2044866
0.8752478,0.4422155,0.2036646
0.8751364,0.4454511,0.206287
0.8752205,0.4486851,0.2066613
0.8767071,0.448745,0.2072538
0.8782109,0.4471422,0.2112218
0.8754318,0.4453252,0.2099025
0.8714511,0.4436622,0.209175
0.8700924,0.4444949,0.2122493
0.8709877,0.4453461,0.2122867
0.8721246,0.4467344,0.2098248
0.872538,0.4494538,0.2074715
0.8741602,0.44805,0.2077473
0.8755101,0.446177,0.2073491
0.875079,0.4476034,0.2017543
0.8747924,0.447422,0.19843
0.8746955,0.4469966,0.2006519
0.8733188,0.4484129,0.2035199
0.8715442,0.4489956,0.2075128
0.8720542,0.4494867,0.2131508
0.8723515,0.4502614,0.216173
0.8700936,0.4495219,0.2124369
0.8691202,0.4471979,0.206508
0.8703038,0.4454192,0.2055874
0.8712811,0.4473236,0.2071537
0.8709044,0.4497451,0.209621
0.8705023,0.4485203,0.2120817
0.8710971,0.4482827,0.2101023
0.8707945,0.4500146,0.2079111
0.8713862,0.4500728,0.2090411
0.8746424,0.4494537,0.2111295
0.8772987,0.4473848,0.2141357
0.8758011,0.4455883,0.2137701
0.8702664,0.4494063,0.2080005
0.8674023,0.4539364,0.2022204
0.8712914,0.4527664,0.2003471
0.8752264,0.4502636,0.204278
0.8729406,0.4496977,0.2098222
0.8707953,0.4485734,0.2119603
0.8729837,0.446651,0.2122634
0.8723652,0.4460201,0.2140143
0.871357,0.4491588,0.2163019
0.8720506,0.4526139,0.2094683
0.870172,0.4497786,0.2006317
0.8706693,0.4474695,0.2061526
0.8714311,0.4509401,0.2113207
0.8702392,0.4521817,0.2078562
0.87134,0.4507239,0.2055584
0.8720818,0.4495922,0.2019335
0.8740418,0.44831,0.2047791
0.8759837,0.4492809,0.2177155
0.874727,0.4506575,0.2239884
0.8748223,0.4500971,0.2175905
0.8752724,0.4504555,0.2098374
0.8746419,0.4512099,0.2133181
0.8739887,0.4504641,0.2179538
0.8720988,0.4507147,0.2154311
0.8703844,0.452106,0.2162389
0.8708064,0.452807,0.2154299
0.8726488,0.4524709,0.213238
0.8727214,0.4490067,0.2120792
0.8720101,0.4471746,0.2071989
0.8741755,0.4534574,0.2120915
0.8755875,0.4588349,0.2181095
0.8734327,0.4546506,0.2125743
0.8704826,0.4505468,0.2113715
0.8687025,0.4531366,0.2132203
0.8703249,0.4523026,0.2121093
0.8753188,0.4482433,0.2115915
0.8790984,0.4486116,0.2108536
0.8783941,0.4487998,0.2112337
0.876771,0.4493095,0.2123207
0.878134,0.4506693,0.2135797
0.8772693,0.4496875,0.2143011
0.8726353,0.4498459,0.2132263
0.8699532,0.4492644,0.2107958
0.8704216,0.4486216,0.2071981
0.8722697,0.4516253,0.207295
0.8717326,0.4545039,0.2136006
0.8708125,0.4543699,0.2186912
0.8721589,0.4517095,0.2167535
0.8715086,0.4501789,0.2134567
0.8719861,0.4509041,0.2133324
0.8729772,0.4524394,0.2128802
0.8716036,0.4530909,0.2129359
0.8723991,0.4503126,0.2129471
0.8724458,0.4475658,0.2117536
0.8716348,0.4468094,0.2126635
0.871699,0.4472395,0.211675
0.8709036,0.4485436,0.2093608
0.8733919,0.4485847,0.2098792
0.8760126,0.4487115,0.2099612
0.8741075,0.4488403,0.2118202
0.8728513,0.4492689,0.215077
0.8736656,0.4507376,0.2156987
0.8729281,0.4508246,0.2155241
0.8716266,0.4514355,0.2158748
0.8722971,0.4516059,0.2174643
0.8726456,0.4497192,0.2186622
0.8728242,0.4484865,0.2194872
0.8737,0.4484246,0.2200703
0.8715599,0.4503233,0.2185439
0.8681924,0.450755,0.2171781
0.8680755,0.4493742,0.2136426
0.8708636,0.4511557,0.2095193
0.8733659,0.4515899,0.2091559
0.8732672,0.4491905,0.2097656
0.8727761,0.4484519,0.2151483
0.871237,0.4494408,0.2208388
0.867527,0.451474,0.218388
0.8673124,0.4517455,0.2142185
0.8692487,0.4508465,0.2099268
0.8696633,0.4507356,0.2081711
0.8721127,0.4496534,0.2109369
0.8733145,0.4498093,0.2105859
0.8724064,0.4503938,0.2105465
0.8740642,0.4496943,0.21111
0.8736155,0.4500993,0.2089397
0.8710103,0.450084,0.2106338
0.869852,0.4498239,0.2117911
0.8692101,0.4501721,0.2096405
0.8717075,0.4502525,0.2100258
0.8748716,0.4518031,0.211452
0.8751267,0.4530213,0.2132264
0.8742193,0.4511157,0.2137601
0.8730754,0.4491227,0.2134867
0.8736139,0.4499394,0.2146155
0.8737714,0.4505079,0.2145532
0.8725225,0.4499463,0.2141083
0.873228,0.4518624,0.209561
0.8746822,0.4535321,0.2033972
0.8754181,0.4521507,0.2068757
0.8750151,0.449726,0.210456
0.874328,0.4472331,0.2078171
0.8735361,0.4474941,0.2105161
0.871545,0.4495375,0.2153083
0.8717352,0.4495432,0.213232
0.8719784,0.4498556,0.2075393
0.8702953,0.4501078,0.2052797
0.8716751,0.4479051,0.2075651
0.872761,0.4464736,0.207418
0.8710097,0.4465477,0.2062579
0.8705472,0.4465942,0.208797
0.8708772,0.4474996,0.2105101
0.8712526,0.4483928,0.2122667
0.8725997,0.4479218,0.2136876
0.8739181,0.445193,0.2138372
0.8730288,0.4427544,0.2168777
0.8716404,0.4474161,0.2163286
0.8732219,0.4541016,0.2103782
0.8744052,0.4531612,0.2063862
0.8745522,0.4500385,0.2079602
0.8770843,0.4472469,0.2149011
0.878371,0.4439728,0.217575
0.8765627,0.4491841,0.2122263
0.8746681,0.455747,0.205899
0.8730212,0.4520508,0.2033074
0.8715686,0.4488259,0.2046181
0.8711285,0.4486551,0.205701
0.8709455,0.4464102,0.2081899
0.8710806,0.4470608,0.2106588
0.8736206,0.4476335,0.2077768
0.8759663,0.446172,0.2059611
0.8748816,0.447204,0.2082606
0.8734939,0.4480501,0.2124918
0.8729127,0.4486983,0.2161814
0.8727203,0.4505527,0.2130788
0.8738418,0.4505389,0.2082785
0.8736083,0.4503627,0.208352
0.8714247,0.4516855,0.2042836
0.8705968,0.4505998,0.1987944
0.8716553,0.4482911,0.2066323
0.8728402,0.4485788,0.2150026
0.8732003,0.4490847,0.2109374
0.8733853,0.4502147,0.2104803
0.872873,0.4516097,0.214233
0.8708516,0.4487655,0.2122838
0.8703735,0.4463814,0.2126242
0.8717334,0.4489868,0.2133962
0.8731888,0.4510779,0.2080427
0.8750554,0.4498494,0.2048734
0.8747178,0.4495581,0.2065614
0.8743485,0.4506665,0.2083334
0.8754099,0.4506848,0.2093892
0.8729758,0.4515475,0.2116752
0.8713434,0.4512588,0.2148355
0.8725824,0.4482051,0.213186
0.8721933,0.4470211,0.2097781
0.871955,0.4489292,0.2110763
0.8714459,0.4517904,0.2113335
0.8704355,0.4516942,0.209044
0.8708463,0.4498681,0.2086359
0.8713103,0.4500992,0.2091654
0.8725459,0.4498878,0.2089618
0.8736211,0.4501166,0.2081437
0.8711684,0.4513301,0.2079767
0.8683937,0.4522368,0.2080017
0.8701749,0.453011,0.2080243
0.8718782,0.4508799,0.208699
0.870889,0.4489979,0.2086728
0.8733877,0.4489365,0.2094908
0.8764225,0.4463155,0.2101713
0.8758085,0.4432738,0.2075174
0.8758782,0.4427132,0.2061859
0.8750583,0.4444167,0.2076297
0.8727811,0.4470467,0.2086977
0.8733868,0.4494237,0.2101716
0.8736736,0.450688,0.2109727
0.8698384,0.4498998,0.213621
0.86503,0.449733,0.2183545
0.8638392,0.450657,0.2170565
0.8691268,0.4516356,0.2144628
0.8743673,0.4529498,0.2156501
0.8714862,0.4511402,0.2139274
0.8701873,0.4478424,0.2104159
0.8761998,0.4475129,0.2056175
0.8791353,0.4475073,0.2012844
0.8777859,0.4480998,0.2062849
0.8771458,0.4511311,0.2143244
0.8770614,0.4534438,0.2157833
0.8763263,0.4555555,0.2127913
0.8757551,0.4570791,0.2095709
0.8753781,0.453574,0.2098896
0.8719943,0.4499361,0.2096561
0.8699725,0.4521763,0.2082414
0.8730992,0.4535528,0.2122623
0.8752776,0.4501016,0.2172916
0.8751843,0.4478778,0.2193803
0.8748686,0.4487234,0.2160516
0.8744097,0.4505037,0.2095198
0.8724987,0.4520147,0.210333
0.870194,0.4537512,0.2099561
0.8725571,0.4562105,0.2061447
0.8757237,0.4542591,0.2086517
0.8750364,0.450838,0.2088881
0.8747315,0.451817,0.2090588
0.8746943,0.4518368,0.2102937
0.872048,0.4532801,0.2042295
0.8690938,0.4554585,0.2025222
0.8689354,0.4525521,0.2085403
0.8700657,0.4521069,0.213683
0.8699086,0.4525211,0.2139719
0.8694726,0.4504114,0.2127724
0.8696621,0.4506601,0.2166482
0.8711682,0.4499603,0.2162956
0.873158,0.4497139,0.2131423
0.8728116,0.4514064,0.2140659
0.8720205,0.4513871,0.2113349
0.872387,0.4513038,0.2088064
0.8730549,0.4504891,0.2076543
0.8740279,0.4495827,0.206757
0.8738054,0.4501152,0.2090797
0.8742379,0.4500273,0.2099669
0.875565,0.4503127,0.2100864
0.8749309,0.4527099,0.2092749
0.8748073,0.4577549,0.2085969
0.8752182,0.4606385,0.2079741
0.8748647,0.4554941,0.2040132
0.8750449,0.4487094,0.2021976
0.8751909,0.447682,0.2024102
0.8758568,0.449133,0.2035924
0.8767034,0.4496112,0.2066563
0.8760999,0.4500765,0.2110013
0.8746054,0.4502024,0.2134911
0.8740392,0.4498096,0.2086697
0.8754639,0.4500383,0.2083078
0.8772046,0.4491975,0.212167
0.8770946,0.4454087,0.2113405
0.8735421,0.4417734,0.2146206
0.8701558,0.4425107,0.2148697
0.8749165,0.4436951,0.2106768
0.8812621,0.4408178,0.2083634
0.8792862,0.4401942,0.1994837
0.8780748,0.4447666,0.1944386
0.8796057,0.449884,0.1976674
0.8761305,0.453324,0.1958678
0.8739434,0.4549073,0.1925634
0.8752124,0.4568358,0.1907872
0.8751303,0.4578118,0.187338
0.874934,0.4573033,0.1864479
0.874932,0.4580345,0.1885975
0.8754432,0.4547116,0.1900476
0.8766192,0.4493282,0.1945432
0.8772991,0.4491036,0.2014775
0.8765161,0.4487059,0.2034903
0.8758988,0.4456437,0.2041192
0.8779098,0.4419172,0.2041439
0.8798988,0.4364125,0.1994722
0.8835832,0.4318443,0.1942461
0.8880293,0.4288912,0.1902589
0.8869917,0.4257955,0.19004
0.8852283,0.4288735,0.1944548
0.8830807,0.4364883,0.1970715
0.8790021,0.438156,0.1966859
0.8803531,0.4391849,0.1962526
0.8829459,0.4421861,0.1966441
0.8831961,0.4411333,0.1964277
0.8852822,0.4389242,0.1956314
0.8842874,0.4367857,0.1957482
0.8821637,0.4364449,0.1955478
0.8842017,0.4357142,0.1938951
0.8854477,0.4319664,0.1913843
0.8870608,0.4335319,0.1899265
0.8875841,0.4370572,0.1884308
0.8824507,0.4382041,0.1860196
0.879723,0.4416366,0.1871605
0.8832718,0.4437742,0.1910216
0.8870001,0.4431595,0.1932879
0.8865119,0.441653,0.1934526
0.8854969,0.4404044,0.1923762
0.8875373,0.4403046,0.191295
0.8873861,0.4401847,0.1899274
0.8845559,0.4413673,0.1898214
0.8800066,0.4423709,0.1908447
0.8768209,0.4434366,0.1900652
0.8822671,0.4458408,0.1909807
0.8869738,0.4453268,0.1951263
0.8835534,0.4438803,0.1973696
0.8791615,0.4442523,0.1934067
0.8753002,0.4437615,0.1876196
0.8739369,0.443039,0.1868106
0.876466,0.4446607,0.1812878
0.8769225,0.4467393,0.1745477
0.8762407,0.4458436,0.1860783
0.8782437,0.445356,0.199455
0.8792186,0.4468163,0.1978976
0.879267,0.4483323,0.1962613
0.8812173,0.4507359,0.1982361
0.8824241,0.4503629,0.1996773
0.8820354,0.4482627,0.2011911
0.8817167,0.4482393,0.2001428
0.8807621,0.4459345,0.1996218
0.8758128,0.44359,0.2022484
0.8697709,0.4453299,0.203214
0.8706946,0.4464925,0.2008186
0.8751948,0.4453299,0.1965989
0.8790185,0.4438415,0.1932354
0.8828593,0.4427438,0.1949478
0.8820239,0.4440187,0.1967446
0.879312,0.4496261,0.1931834
0.8808235,0.4537598,0.1897579
0.8868846,0.4481376,0.1865177
0.8928205,0.4396896,0.1842517
0.8850079,0.4401422,0.1893175
0.8724861,0.4455836,0.1951342
0.8743432,0.448276,0.195998
0.8770397,0.4476624,0.1967062
0.8764692,0.4455717,0.1953539
0.8806779,0.4422699,0.192888
0.8805164,0.4357193,0.1989502
0.8796891,0.4335639,0.2057943
0.8827945,0.4432427,0.2016385
0.8863318,0.4557265,0.1960596
0.8902597,0.4600061,0.1945475
0.8824214,0.4472349,0.1960996
0.8707893,0.4330565,0.1994528
0.8752023,0.4418321,0.1944643
0.8799529,0.4512162,0.189297
0.8770523,0.4522729,0.1942701
0.8746284,0.4620079,0.1965744
0.8702941,0.4632122,0.1955438
0.8754901,0.4563748,0.1973798
0.8865888,0.4533227,0.1991544
0.8843432,0.4455685,0.2004466
0.8791921,0.4453585,0.1985357
0.877384,0.449922,0.1948043
0.8766158,0.4467758,0.1944127
0.8790177,0.44815,0.1951856
0.8774551,0.4470021,0.1929995
0.8771371,0.4412872,0.1890726
0.8790174,0.4432825,0.1897387
0.8778169,0.4437878,0.1943715
0.8795371,0.4431973,0.1968012
0.8786988,0.445314,0.1971553
0.8766346,0.4442617,0.1974688
0.8784358,0.4442165,0.1967515
0.8776379,0.4449616,0.1942263
0.8779235,0.4450612,0.1924876
0.879936,0.4462625,0.1929432
0.8807289,0.4455418,0.1942842
0.8810307,0.4437956,0.1947696
0.8800441,0.4423482,0.1940258
0.8812276,0.4409882,0.1934914
0.8834994,0.4401268,0.1919246
0.8850911,0.4399022,0.1912818
0.8848885,0.4404116,0.1929198
0.8817993,0.4394054,0.1933925
0.8820978,0.4385249,0.1943539
0.883446,0.4399699,0.1960952
0.8825671,0.4404357,0.195643
0.8844112,0.439337,0.1921504
0.886381,0.4387283,0.1894809
0.8857517,0.4396929,0.1902114
0.8842765,0.4408213,0.1886008
0.8824983,0.4398387,0.1869381
0.8827074,0.4382851,0.1894969
0.8872234,0.4370245,0.1911376
0.8916819,0.4362466,0.191044
0.8887653,0.4362687,0.1908956
0.8834936,0.4358763,0.1913473
0.8828528,0.4361308,0.1926451
0.8818424,0.4366812,0.192917
0.8812048,0.438152,0.1897584
0.8827333,0.4422877,0.1841493
1.041485,0.02293028,0.01446129
1.031611,0.02516033,0.01522761
1.01353,0.03396974,0.01789612
1.010591,0.03999044,0.01591942
1.020908,0.03779659,0.02087579
1.033652,0.0351895,0.02129349
1.039802,0.03655009,0.0209627
1.032026,0.03705964,0.02702226
1.024965,0.03901043,0.02141561
1.027018,0.04267717,0.01290163
1.02722,0.0382965,0.01119386
1.025273,0.03339757,0.009892509
1.028473,0.03395374,0.01093329
1.034751,0.03088658,0.009571372
1.040059,0.02654792,0.008867403
1.036948,0.02106375,0.01149987
1.026598,0.01375778,0.01320763
1.022869,0.01320008,0.01937317
1.020314,0.01776536,0.02335797
1.017631,0.02436327,0.02336999
1.021019,0.03096921,0.02604509
1.021421,0.03041616,0.02475937
1.024404,0.02979888,0.02247495
1.029474,0.03684447,0.02241071
1.028379,0.04460573,0.02109331
1.026616,0.0498596,0.01957884
1.022056,0.04662235,0.0155308
1.02006,0.03702715,0.01397842
1.021551,0.03585891,0.01796173
1.019234,0.03481436,0.02402797
1.020276,0.03028111,0.0315607
1.024109,0.03615198,0.03056698
1.027357,0.05036883,0.02614166
1.027421,0.06229665,0.03119756
1.025662,0.05654414,0.03505363
1.030615,0.04013213,0.03623875
1.031971,0.03549147,0.03657807
1.023218,0.03542703,0.03134773
1.013359,0.0367618,0.02994016
1.01087,0.04076322,0.03166392
1.018391,0.04111976,0.03198674
1.023426,0.0405798,0.03250397
1.023948,0.03605713,0.03146887
1.025693,0.03510238,0.03325442
1.024751,0.03938395,0.03571365
1.023878,0.03849047,0.03889572
1.023623,0.0383481,0.04358727
1.02308,0.0345845,0.04175677
1.023288,0.03037559,0.04103399
1.022456,0.03540678,0.04521344
1.022852,0.04030025,0.04963756
1.021935,0.04582186,0.05502572
1.018862,0.05121328,0.05337969
1.018076,0.05057803,0.04585929
1.019657,0.04829036,0.04257914
1.022609,0.04852035,0.04223771
1.022773,0.05003678,0.04266822
1.021536,0.04979935,0.04503539
1.022619,0.05024627,0.04722848
1.022397,0.04952912,0.04855784
1.023016,0.0459925,0.05139433
1.025138,0.04112574,0.05234408
1.0244,0.03697365,0.05122602
1.021225,0.03991711,0.05503312
1.017457,0.04142135,0.06121559
1.018541,0.03834614,0.06318082
1.02517,0.03991108,0.06001853
1.028803,0.04374034,0.05623358
1.025487,0.04877322,0.05576989
1.020876,0.04950956,0.05410131
1.02196,0.04455765,0.05305538
1.023195,0.04289525,0.0553229
1.020665,0.04193594,0.05578039
1.018923,0.04126899,0.0604679
1.016231,0.04270023,0.06796198
1.01743,0.04518891,0.06713976
1.021373,0.04913105,0.06253588
1.018983,0.04829373,0.05615261
1.018781,0.04478831,0.04945499
1.02134,0.04410451,0.05217593
1.023183,0.04304843,0.05743831
1.02724,0.04473657,0.05607491
1.022898,0.04879149,0.05858385
1.01464,0.04905407,0.06506236
1.015442,0.04815089,0.0644866
1.019212,0.04727833,0.06399894
1.021758,0.04371592,0.06530606
1.021403,0.03945147,0.06020811
1.019844,0.03796687,0.0550241
1.021358,0.03977583,0.05476629
1.021165,0.04278352,0.05682128
1.021165,0.04499301,0.05923467
1.022523,0.04413432,0.06149965
1.019371,0.04202328,0.06116387
1.018201,0.04316735,0.05822621
1.02459,0.04342991,0.05897283
1.030875,0.04150938,0.05865528
1.030017,0.04173693,0.05634085
1.027565,0.0428836,0.05751024
1.028608,0.04776979,0.05687489
1.025997,0.05360263,0.05809282
1.022641,0.05148329,0.06193762
1.021291,0.04792296,0.06240422
1.016858,0.04707948,0.06083154
1.018165,0.04547899,0.05710609
1.022189,0.04728247,0.05703509
1.020468,0.04989658,0.05950339
1.021588,0.04833013,0.05925524
1.023045,0.04802085,0.06170641
1.021726,0.04846416,0.06338556
1.022392,0.04748162,0.0624193
1.022276,0.0489968,0.06313996
1.022045,0.04984613,0.06351969
1.022079,0.04859493,0.06344754
1.020258,0.0478509,0.06553685
1.018993,0.04669743,0.07047807
1.019413,0.04715078,0.07295209
1.02085,0.04819639,0.06966458
1.021913,0.04946927,0.06672127
1.022413,0.05186156,0.0666873
1.022056,0.04894126,0.06261255
1.020126,0.04462533,0.05617135
1.019419,0.04617847,0.05939253
1.021089,0.04809731,0.06392774
1.022953,0.04853646,0.06181015
1.022478,0.04742073,0.06410877
1.021581,0.04298651,0.0649224
1.022649,0.04159605,0.06165578
1.022236,0.04704459,0.06286582
1.021875,0.0518654,0.0625794
1.023006,0.04915318,0.06096325
1.023729,0.04469895,0.05774287
1.025218,0.04333825,0.05226156
1.023258,0.04091882,0.05471395
1.019187,0.04115272,0.05835623
1.019318,0.04368186,0.05721577
1.020506,0.04266692,0.05862962
1.021046,0.04307966,0.05971593
1.021367,0.04416713,0.06211273
1.022303,0.0460276,0.06706087
1.024363,0.05018525,0.06580291
1.023645,0.04818062,0.0637751
1.022146,0.04398721,0.06507441
1.022358,0.04280985,0.06268955
1.021692,0.04253528,0.06157958
1.020455,0.04457291,0.06270864
1.019058,0.04400187,0.05936501
1.019185,0.04045734,0.055408
1.021446,0.03751409,0.05135399
1.023559,0.03459714,0.0478419
1.025743,0.03365668,0.05201183
1.025142,0.0355421,0.05805846
1.022357,0.03956668,0.05745657
1.02215,0.03982647,0.05593033
1.022118,0.03746798,0.05655478
1.022155,0.03867172,0.05367099
1.02253,0.03735741,0.04706283
1.022216,0.03670329,0.04159829
1.024207,0.03868609,0.0438432
1.025968,0.03759322,0.0503973
1.026372,0.0381093,0.05070769
1.026446,0.03689979,0.05186586
1.024292,0.0350647,0.05439078
1.022526,0.03789965,0.05174539
1.021313,0.03860716,0.05371886
1.020191,0.03924076,0.05795868
1.020807,0.04181064,0.05958067
1.020178,0.04526487,0.05813714
1.019037,0.04867479,0.05203353
1.02075,0.04614261,0.05113215
1.023139,0.04345419,0.0504856
1.024004,0.04309837,0.04893003
1.023553,0.04088104,0.05415593
1.022451,0.04160054,0.05564468
1.022058,0.04321396,0.05541769
1.022221,0.04318523,0.05615666
1.022225,0.04507853,0.05440301
1.022101,0.04669961,0.05431306
1.021435,0.04729711,0.05220237
1.021477,0.04757074,0.05193767
1.02244,0.04748574,0.05296856
1.02226,0.04953335,0.05033874
1.020933,0.05027229,0.05163104
1.019865,0.04602422,0.05284386
1.019912,0.04293781,0.05288791
1.020349,0.04378526,0.05588234
1.020505,0.04416384,0.05649488
1.021605,0.04423836,0.05558181
1.022861,0.04409729,0.05479504
1.022187,0.04072333,0.05386484
1.021847,0.03784917,0.05256711
1.022618,0.04138328,0.05260439
1.022065,0.05013537,0.05619938
1.022099,0.05626035,0.05756809
1.022506,0.05229639,0.05581191
1.02195,0.0446944,0.05106523
1.022356,0.04401605,0.04408327
1.022444,0.04650165,0.04345273
1.022942,0.04728462,0.04647667
1.024272,0.04584481,0.04778916
1.024279,0.04366065,0.04902553
1.024394,0.04641218,0.04883327
1.024508,0.04917646,0.04826188
1.025398,0.0474628,0.0485693
1.028126,0.04666136,0.04781609
1.028828,0.04540066,0.0467694
1.024954,0.0433739,0.04722068
1.020507,0.0417095,0.04746377
1.021901,0.03907174,0.04680493
1.024588,0.03711895,0.04643837
1.023959,0.03505905,0.04559389
1.025148,0.03481995,0.04578162
1.024474,0.03699515,0.04725433
1.021613,0.03736391,0.04800658
1.021324,0.03903331,0.04826632
1.015503,0.04499419,0.04949761
1.00482,0.05153478,0.05653537
1.002492,0.05417114,0.06235456
1.015514,0.05107944,0.05006081
1.033739,0.04678335,0.02920583
1.03767,0.04532299,0.02425817
1.031189,0.04545538,0.03597526
1.028275,0.04623698,0.04516448
1.027545,0.04517396,0.04163847
1.02677,0.04076686,0.03669401
1.024512,0.03426919,0.0335516
1.021082,0.0279213,0.02632727
1.021639,0.02250092,0.02497067
1.023231,0.01386974,0.02475221
1.021752,0.0108318,0.01981696
1.021979,0.01572684,0.02266516
1.022835,0.01201885,0.02340834
1.021692,0.009319136,0.02072194
1.022391,0.01402583,0.02517566
1.022438,0.0152213,0.02831813
1.022152,0.01968063,0.03229211
1.024414,0.02441143,0.03266049
1.02534,0.02828202,0.02576466
1.024985,0.03581323,0.02457556
1.023936,0.03869437,0.02710736
1.023234,0.04527709,0.03389261
1.023828,0.05690154,0.04009098
1.023497,0.06172128,0.03645905
1.023996,0.06374134,0.03506601
1.025472,0.0635529,0.03766487
1.026768,0.0604731,0.03776427
1.026805,0.0578956,0.03666185
1.025457,0.05153797,0.03436942
1.024325,0.04122293,0.03284623
1.020536,0.03413446,0.03185984
1.018028,0.02916444,0.02900249
1.019914,0.02296889,0.02823605
1.020209,0.02172593,0.03407706
1.021695,0.02214307,0.04104828
1.024922,0.01867841,0.04597382
1.024896,0.02065889,0.04754258
1.025491,0.02493419,0.04452973
1.026658,0.02549193,0.04603508
1.023625,0.03396135,0.04772393
1.02101,0.04413343,0.04606396
1.021983,0.04181293,0.04724533
1.020506,0.04330264,0.04637176
1.016532,0.05722064,0.05076583
1.015158,0.06377953,0.05782629
1.016001,0.06334441,0.05337248
1.020216,0.07019755,0.04406556
1.029305,0.07391499,0.03610255
1.035445,0.06585214,0.03640327
1.033591,0.05696854,0.03979043
1.030621,0.05152043,0.03652353
1.026054,0.04165196,0.03919044
1.018334,0.02686572,0.04299131
1.019237,0.02247157,0.04086068
1.021469,0.0290006,0.04358806
1.013457,0.02954215,0.04989534
1.011189,0.03088925,0.05572336
1.017757,0.03864425,0.05395875
1.025218,0.04213742,0.04854621
1.031934,0.04617175,0.05218601
1.029863,0.04994579,0.05115689
1.028723,0.04869427,0.04258954
1.034919,0.04676521,0.03651495
1.033761,0.0404546,0.0328454
1.025295,0.03391857,0.03778825
1.0155,0.03528508,0.04221324
1.011733,0.03891985,0.04471703
1.015707,0.04022736,0.05662234
1.018333,0.04547906,0.0643853
1.026968,0.05143013,0.06652739
1.034402,0.04825348,0.06804223
1.023701,0.04780036,0.06562427
1.015999,0.05180472,0.06657351
1.023608,0.05106499,0.06554175
1.026186,0.05173085,0.05967979
1.017528,0.05176866,0.05869955
1.011094,0.05270192,0.06414026
1.012633,0.05504403,0.0699092
1.015849,0.05202716,0.06513804
1.01702,0.05063781,0.05945432
1.016003,0.05192121,0.06346987
1.015132,0.05429885,0.06300776
1.018746,0.06012649,0.06001943
1.024139,0.06359475,0.0599788
1.02591,0.05958459,0.05721432
1.023696,0.05259571,0.05698673
1.02108,0.05073405,0.05662882
1.020562,0.0494265,0.05389401
1.020783,0.04591575,0.05381303
1.020754,0.04621377,0.05457169
1.019965,0.0493594,0.06141059
1.019401,0.05263042,0.06963023
1.021248,0.05185626,0.06799586
1.022939,0.05046113,0.06548301
1.022628,0.05304748,0.06595242
1.024202,0.05243972,0.067378
1.028444,0.04975095,0.07070962
1.028617,0.04909115,0.06976629
1.020146,0.05240995,0.0682625
1.010387,0.05771356,0.06934234
1.010455,0.05565825,0.06686824
1.017755,0.05326837,0.06406723
1.021143,0.05486798,0.06213321
1.020325,0.05265769,0.06100833
1.020968,0.0512531,0.06042377
1.022955,0.05069683,0.05553218
1.023565,0.0492228,0.0541604
1.020967,0.05033497,0.05674778
1.018396,0.0499146,0.05510747
1.019475,0.04877586,0.05532314
1.021089,0.04887991,0.05613978
1.021659,0.04932859,0.05497547
1.02254,0.0514415,0.05624654
1.022412,0.05158488,0.0578652
1.021852,0.04998299,0.0613178
1.022087,0.04904204,0.06334248
1.01959,0.04796451,0.05942893
1.014196,0.04798437,0.05723889
1.011185,0.04803836,0.05843633
1.013302,0.04921652,0.05868458
1.019035,0.05270027,0.0573783
1.023812,0.05470114,0.05541475
1.024451,0.05371092,0.0551565
1.022031,0.0519464,0.05696485
1.020408,0.05202822,0.05636274
1.019307,0.04961622,0.05400861
1.017155,0.04429491,0.05548102
1.01867,0.04374641,0.05595195
1.022991,0.04431952,0.05398707
1.027638,0.04387714,0.0521382
1.030095,0.04528733,0.04942878
1.024202,0.0454969,0.05509332
1.019204,0.04774987,0.06137001
1.020814,0.05070726,0.05726398
1.020299,0.05001657,0.0553267
1.019242,0.05046591,0.0538191
1.0212,0.04990226,0.05185827
1.023008,0.04701555,0.054021
1.022323,0.04693541,0.05136786
1.021879,0.0484089,0.04986377
1.023546,0.04890727,0.05264308
1.023245,0.04854893,0.05116833
1.020491,0.04851958,0.05098255
1.01695,0.04909566,0.05341013
1.01688,0.05030198,0.05438255
1.023492,0.05197436,0.05599963
1.028336,0.04805124,0.05504936
1.027112,0.03304496,0.05419019
1.027488,0.01880298,0.05996266
1.03251,0.02700104,0.06411028
1.03569,0.04969344,0.06144436
1.033033,0.0589019,0.05771241
1.021531,0.05059612,0.05429112
1.008184,0.03541267,0.04824087
1.014063,0.02880588,0.04438552
1.023299,0.03528601,0.04949585
1.016116,0.03884045,0.05347573
1.017707,0.04088687,0.04997947
1.025055,0.04593262,0.04645414
1.025046,0.04526389,0.04297359
1.029753,0.04383912,0.04003015
1.030924,0.04744821,0.03899654
1.02836,0.05024114,0.03972795
1.02787,0.04936996,0.0451402
1.02674,0.04802069,0.04991443
1.027163,0.04477865,0.05132058
1.019553,0.04098597,0.05459874
1.012841,0.04112869,0.0565398
1.019012,0.04315639,0.04992904
1.023561,0.04640149,0.04011955
1.024275,0.04326368,0.04228485
1.026577,0.03779641,0.0542447
1.027175,0.04360769,0.06090815
1.023829,0.04915855,0.05918596
1.022593,0.0511272,0.05302934
1.022625,0.05292977,0.05018694
1.016924,0.051255,0.05151306
1.014318,0.05190571,0.05194681
1.017219,0.04728546,0.0542555
1.019813,0.04021485,0.05618161
1.020396,0.04414894,0.05526302
1.020406,0.04692045,0.05228955
1.023457,0.04511256,0.04892886
1.023374,0.04570199,0.04966872
1.023127,0.04421913,0.04999255
1.025521,0.0427308,0.04732521
1.024584,0.04575014,0.04547458
1.024467,0.04858783,0.04649936
1.021477,0.04813298,0.04976912
1.016919,0.04831955,0.05200693
1.018115,0.04845245,0.05247123
1.019491,0.04474722,0.05257374
1.020431,0.04258178,0.05546522
1.021397,0.04651326,0.05599085
1.021816,0.04988931,0.05326728
1.023358,0.0469564,0.05445765
1.023979,0.0443665,0.05259528
1.023411,0.04666579,0.05029276
1.022352,0.04797662,0.05094904
1.021032,0.04852521,0.04882831
1.01957,0.04910659,0.04991807
1.019113,0.04665836,0.04927825
1.020008,0.04392313,0.04736852
1.02115,0.0407542,0.05150301
1.022403,0.0392811,0.0516988
1.020724,0.04252642,0.04943738
1.018543,0.04555788,0.04757081
1.020453,0.04778718,0.04519192
1.021339,0.04706401,0.0494891
1.019274,0.04485637,0.05274652
1.017703,0.04819966,0.04846171
1.017974,0.05047957,0.04314907
1.020382,0.04956184,0.04099694
1.022866,0.04903043,0.04526882
1.024708,0.04635006,0.05283174
1.025578,0.04590051,0.05660793
1.023856,0.0495954,0.05584477
1.02285,0.05214231,0.05495781
1.023112,0.04968504,0.05567884
1.021833,0.0453599,0.05474449
1.021648,0.0453897,0.05290183
1.020877,0.04530725,0.05056032
1.018737,0.04435039,0.04655649
1.020406,0.0472976,0.04546665
1.022523,0.04950971,0.04639201
1.022183,0.0482367,0.04585301
1.022066,0.04511057,0.04824956
1.021336,0.04237003,0.05309341
1.020866,0.04315884,0.05510376
1.022766,0.04716117,0.05327602
1.025195,0.04997655,0.04825645
1.025413,0.04909624,0.04445484
1.024656,0.04839755,0.04626437
1.024728,0.04861238,0.05114578
1.023328,0.04834038,0.05421174
1.021855,0.04740689,0.05477706
1.023925,0.04406293,0.05557554
1.025749,0.04288251,0.05562472
1.023708,0.04703718,0.05348758
1.021143,0.05155124,0.05220073
1.020539,0.05137792,0.05312201
1.020566,0.04862428,0.05463175
1.0201,0.04828894,0.05503809
1.019337,0.04717733,0.05410972
1.020099,0.04660371,0.05393194
1.021294,0.04888453,0.05534806
1.019868,0.04864213,0.05534419
1.019237,0.04807618,0.05271122
1.021467,0.04714375,0.05062711
1.022782,0.04493729,0.05107141
1.02233,0.04674031,0.0528534
1.021908,0.05087842,0.0556387
1.022361,0.05465002,0.05929311
1.022339,0.05516649,0.05786345
1.021979,0.05322154,0.05262439
1.02242,0.05367315,0.05260692
1.022175,0.05100285,0.05448994
1.022118,0.04672871,0.05692801
1.021871,0.04771895,0.06058184
1.018661,0.04752988,0.0594584
1.013744,0.04558066,0.05751616
1.012007,0.04667552,0.05719356
1.017057,0.04954451,0.05819187
1.021463,0.0532488,0.06084618
1.019347,0.05299288,0.05920433
1.01862,0.04827878,0.05585993
1.020152,0.04640829,0.05271803
1.019978,0.04712513,0.04991171
1.022773,0.04820012,0.05113175
1.026459,0.05082174,0.04928069
1.024831,0.05358806,0.04673758
1.022397,0.05384087,0.05270569
1.022245,0.05365949,0.05778409
1.021427,0.05580928,0.05563113
1.019643,0.05354783,0.05398822
1.017948,0.04943221,0.05359127
1.020111,0.05178222,0.05112284
1.023534,0.05204312,0.05323559
1.020418,0.05049078,0.05648557
1.017999,0.05200248,0.04993772
1.020117,0.05123098,0.04527162
1.019669,0.05117447,0.05026615
1.019954,0.05177811,0.05288997
1.021325,0.05102234,0.05126297
1.019804,0.05142482,0.05181675
1.019017,0.05047298,0.05354534
1.020063,0.0499522,0.05312086
1.022222,0.05188467,0.05410502
1.024354,0.05334085,0.05588293
1.023905,0.05282406,0.05177391
1.023085,0.05141372,0.04752597
1.023288,0.05190123,0.0484027
1.02109,0.05441421,0.04980432
1.018319,0.057703,0.05232831
1.019339,0.05708536,0.05693725
1.020062,0.05172269,0.05797592
1.019323,0.05032211,0.05438003
1.021337,0.05189433,0.05043996
1.02295,0.05135802,0.04588361
1.022343,0.05126454,0.04508679
1.022897,0.05148353,0.05045282
1.024035,0.05135468,0.05238263
1.023553,0.05158077,0.05121643
1.022403,0.05225279,0.05133246
1.022145,0.05309977,0.05127889
1.022142,0.05283816,0.05199264
1.021896,0.05223015,0.05300434
1.020528,0.05093904,0.0546581
1.019108,0.04872499,0.05482555
1.021116,0.04914386,0.05483845
1.023372,0.05188833,0.05842633
1.02302,0.05317949,0.05799857
1.023344,0.05262426,0.05446952
1.023161,0.05064033,0.0550015
1.021644,0.0481075,0.05495342
1.021394,0.04728107,0.051883
1.019076,0.04938545,0.04980481
1.015594,0.05435975,0.04886982
1.018093,0.05700417,0.04809417
1.021347,0.05431139,0.04992382
1.02078,0.05074496,0.04928895
1.022379,0.04754185,0.04519537
1.023058,0.04688294,0.04630174
1.021567,0.0482431,0.04832856
1.023569,0.047576,0.05020419
1.025055,0.04874552,0.05289793
1.024861,0.04914916,0.05117127
1.025324,0.0470497,0.0524543
1.024572,0.04844565,0.05393335
1.023933,0.04980446,0.05099255
1.022667,0.04937509,0.05192396
1.021539,0.04676815,0.05120037
1.022194,0.04269686,0.04607454
1.020482,0.04303997,0.04079348
1.019004,0.04190125,0.03759982
1.021651,0.03941031,0.04177278
1.024788,0.04355284,0.04571937
1.025599,0.04754462,0.04416006
1.02461,0.04677512,0.04422105
1.023813,0.04356992,0.04390526
1.022666,0.04046798,0.03971591
1.021137,0.04189555,0.03765811
1.019707,0.04550942,0.04416076
1.017909,0.04813343,0.05135627
1.020188,0.05032119,0.04728631
1.023295,0.0500564,0.0431692
1.019504,0.04872763,0.04630942
1.016626,0.04862772,0.04570644
1.019368,0.04841998,0.04675139
1.020083,0.04870181,0.05009434
1.019038,0.04909161,0.04610153
1.019528,0.05014417,0.04388608
1.019898,0.05215584,0.04538868
1.021103,0.05153275,0.04671015
1.022848,0.05087087,0.04971445
1.02242,0.05179969,0.04961299
1.021959,0.0512674,0.05170004
1.023357,0.05127034,0.05770014
1.023762,0.05124848,0.05772169
1.0226,0.04888211,0.05774896
1.021952,0.04547158,0.06531564
1.021959,0.04431996,0.07108694
1.021515,0.0489279,0.06498372
1.020489,0.05326333,0.05516766
1.020643,0.05146929,0.05262107
1.0212,0.05047587,0.0515615
1.020784,0.05171139,0.05250196
1.021713,0.04934822,0.05754276
1.022683,0.04681151,0.05741747
1.022461,0.04717883,0.05536359
1.023946,0.04781464,0.05308014
1.025454,0.04988021,0.04864118
1.024089,0.0527816,0.05199368
1.022055,0.05431095,0.05819154
1.021848,0.05548315,0.05872941
1.021358,0.05434138,0.05814377
1.019522,0.05172379,0.05577457
1.019482,0.05187625,0.05228139
1.021361,0.05067016,0.05066987
1.022775,0.04912864,0.05148195
1.022416,0.05351653,0.05397613
1.021784,0.05402389,0.05542247
1.023011,0.04909376,0.05773066
1.024953,0.04914148,0.06177764
1.026426,0.04923268,0.06457084
1.024292,0.05106512,0.06231313
1.020637,0.0571435,0.05678863
1.021834,0.05691321,0.05560757
1.021142,0.05294218,0.05388395
1.017177,0.05052561,0.04991202
1.01788,0.05075527,0.05176041
1.018571,0.05207043,0.05482615
1.017594,0.04907404,0.05581418
1.019013,0.04803238,0.0562037
1.021615,0.04996071,0.05594761
1.024558,0.05000417,0.05734295
1.024062,0.05044747,0.05728374
1.021359,0.05065576,0.05619556
1.021014,0.05162953,0.05588953
1.020755,0.05162094,0.05256857
1.022214,0.05006123,0.05024694
1.023269,0.05102471,0.05227557
1.021328,0.05152296,0.05528546
1.022361,0.05142892,0.0573722
1.022744,0.05147385,0.05549375
1.021487,0.05076838,0.05198466
1.023274,0.04953967,0.05292426
1.024637,0.04612925,0.05547133
1.026015,0.04518023,0.05743879
1.024812,0.04860132,0.05799563
1.020279,0.05456281,0.05200782
1.019241,0.0601811,0.04782279
1.020179,0.05659034,0.05644444
1.022184,0.04942553,0.0647483
1.022571,0.04784627,0.06093951
1.019726,0.0477045,0.05743802
1.019268,0.0513246,0.05832304
1.019302,0.05603902,0.05279224
1.019635,0.05333886,0.04603934
1.02082,0.05147734,0.04576689
1.02189,0.05336079,0.04983102
1.024742,0.05183353,0.0562385
1.025035,0.05111313,0.05918264
1.022712,0.05348269,0.05928637
1.020033,0.05467311,0.05769729
1.018438,0.05430543,0.05404483
1.020079,0.05330246,0.05544775
1.020621,0.05180826,0.05596583
1.021599,0.05019346,0.05197362
1.023034,0.05108869,0.05097922
1.021831,0.05233439,0.05153161
1.022197,0.05062516,0.05339542
1.022475,0.05021291,0.0548425
1.021928,0.04939331,0.05361682
1.022441,0.0478224,0.05290794
1.02177,0.04990095,0.05301317
1.020237,0.0504635,0.05344738
1.018104,0.04925645,0.05139342
1.01762,0.04830601,0.04991306
1.019547,0.04562996,0.05132789
1.020729,0.04572092,0.04895522
1.021927,0.0480461,0.04952086
1.022627,0.04877747,0.05655854
1.022069,0.04777872,0.05897455
1.022011,0.04569293,0.05504153
1.021422,0.045592,0.0508304
1.021019,0.04589591,0.05125625
1.023444,0.04476552,0.05060748
1.02602,0.04516438,0.04762593
1.025209,0.04878138,0.05240086
1.02399,0.05291129,0.05609384
1.023269,0.05156221,0.05316799
1.019921,0.0484117,0.05223778
1.01872,0.04877522,0.05116476
1.022139,0.04847313,0.05093983
1.024585,0.0484539,0.05247718
1.02543,0.04919532,0.05501166
1.025145,0.04910313,0.06263939
1.02423,0.05097986,0.06624602
1.02352,0.05290763,0.05805216
1.021644,0.05463931,0.05116353
1.021989,0.05528526,0.05604776
1.023811,0.05253778,0.06279608
1.023288,0.05159062,0.06309008
1.022807,0.05219574,0.05830448
1.021877,0.05204324,0.05191254
1.020954,0.05205081,0.05408397
1.021047,0.05117021,0.05856629
1.020477,0.0512479,0.05638522
1.020963,0.05159343,0.05796741
1.020845,0.0508898,0.05786683
1.01958,0.04968427,0.05594562
1.019481,0.04819473,0.05924344
1.019406,0.04948987,0.05758792
1.020615,0.05178153,0.0578917
1.02214,0.05256642,0.05876
1.022312,0.0538612,0.05303527
1.022386,0.0545746,0.0558393
1.02201,0.05406437,0.06097974
1.022283,0.05352129,0.06159334
1.022536,0.05162991,0.0620092
1.023051,0.04947363,0.05683745
1.024815,0.05143237,0.0539982
1.024395,0.05386081,0.05606362
1.023001,0.05134327,0.05548088
1.022845,0.04883479,0.05500646
1.023012,0.04852651,0.05664395
1.02444,0.04832278,0.05977794
1.027416,0.0488683,0.06242687
1.029528,0.04969294,0.06383621
1.02657,0.05373277,0.06255488
1.020954,0.05904195,0.05842925
1.018273,0.05796219,0.05901927
1.017061,0.05518788,0.06078195
1.017786,0.0541149,0.05830649
1.019879,0.05149082,0.05816071
1.019998,0.05074813,0.05704885
1.022849,0.05028672,0.05334092
1.026525,0.04927446,0.05450213
1.024633,0.05166297,0.05757303
1.022577,0.05247743,0.0593952
1.022212,0.05130938,0.0585574
1.021826,0.04988682,0.05224206
1.022193,0.04785005,0.04885922
1.02041,0.05047292,0.05358914
1.01868,0.05255376,0.057351
1.019869,0.05087164,0.05588467
1.021461,0.05105698,0.05664246
1.022592,0.04977988,0.06050771
1.022455,0.04785663,0.05937588
1.021884,0.0494679,0.05507613
1.022354,0.05336165,0.0518569
1.022315,0.05661195,0.05056563
1.022044,0.05510521,0.05400967
1.022349,0.05302768,0.0568455
1.02221,0.0546524,0.05698111
1.021785,0.05542609,0.0573439
1.020545,0.0553062,0.05653148
1.01918,0.05594977,0.05773739
1.021027,0.05451154,0.0608082
1.023235,0.05090898,0.0622344
1.022153,0.04795114,0.05884715
1.02179,0.05047179,0.05357678
1.022632,0.05751575,0.05708445
1.021905,0.05864935,0.06039348
1.021213,0.05334022,0.0567037
1.020783,0.04894009,0.05511974
1.020725,0.04790842,0.05146232
1.022705,0.04795118,0.04904597
1.02603,0.04715949,0.0533193
1.02845,0.0513939,0.05617331
1.02627,0.05474559,0.05851693
1.022666,0.05052639,0.05683737
1.0236,0.04879582,0.04928649
1.024073,0.04660189,0.04739988
1.02309,0.04267342,0.04917869
1.023939,0.04364636,0.04967492
1.023567,0.045973,0.05120067
1.023422,0.04945124,0.0516529
1.023901,0.04952045,0.05153912
1.02354,0.04675516,0.05206566
1.024622,0.04926877,0.05174941
1.025309,0.05110704,0.04958481
1.02496,0.05079468,0.04759586
1.024794,0.05018465,0.04877203
1.023713,0.04771348,0.04903034
1.021646,0.04796515,0.0480901
1.020103,0.04794599,0.04910012
1.021007,0.04615743,0.0498436
1.022123,0.0476032,0.0518637
1.022124,0.0485235,0.05369598
1.02247,0.05060028,0.05257517
1.022099,0.0540994,0.0527248
1.022125,0.05005181,0.0539632
1.022632,0.04671204,0.05427822
1.022899,0.04906664,0.05393042
1.023801,0.04693144,0.0522372
1.022874,0.04477726,0.05087622
1.021596,0.04613372,0.05124952
1.022378,0.04646656,0.05169496
1.022723,0.04838856,0.05090396
1.023807,0.05066374,0.04950589
1.025311,0.04927941,0.04808101
1.023229,0.04646568,0.04735817
1.020324,0.04493331,0.04721071
1.02043,0.04245694,0.0464608
1.020296,0.04127169,0.04751885
1.019662,0.04564435,0.05089169
1.023302,0.04800625,0.05398977
1.028188,0.04447956,0.0563763
1.027787,0.04290272,0.05600021
1.023658,0.04830896,0.05499405
1.021203,0.05376281,0.05680163
1.022025,0.05111787,0.05681924
1.022968,0.04837689,0.05398527
1.022832,0.04909192,0.05209439
1.023766,0.04811271,0.05189329
1.023674,0.04922251,0.0506736
1.021365,0.05165765,0.04758059
1.020444,0.05342309,0.04806222
1.020971,0.05527003,0.04930365
1.021818,0.05539599,0.04618583
1.022558,0.0549878,0.04613029
1.022162,0.05112389,0.05060917
1.022139,0.046817,0.05449024
1.02198,0.04859553,0.0554408
1.020335,0.04972444,0.0526961
1.018972,0.04980107,0.04930777
1.01955,0.0520942,0.04756976
1.021642,0.05174767,0.04961628
1.022787,0.05075986,0.05128269
1.023354,0.05136105,0.0496828
1.024664,0.04932481,0.05099309
1.02498,0.04598104,0.05300982
1.023267,0.04605322,0.05581337
1.021447,0.04952824,0.05742873
1.021791,0.05222127,0.0547358
1.020907,0.04995508,0.05656592
1.0185,0.04719377,0.05595977
1.019351,0.04891377,0.05195449
1.020527,0.04911093,0.05277464
1.021676,0.04775986,0.05136687
1.024025,0.04812892,0.05180401
1.021385,0.0462124,0.05210843
1.018484,0.04328143,0.04892269
1.023185,0.04166645,0.04970972
1.02678,0.04355618,0.04810339
1.02472,0.04734918,0.04758268
1.024456,0.04505178,0.05071965
1.02556,0.04327534,0.05124132
1.024794,0.04658313,0.0525418
1.02452,0.04773378,0.05241555
1.023289,0.04853517,0.05181884
1.020408,0.0472059,0.04838308
1.019505,0.04346322,0.04326559
1.01956,0.04365919,0.046394
1.019561,0.04494447,0.04676346
1.021725,0.04868325,0.04537904
1.0246,0.05280672,0.05126451
1.025598,0.04882432,0.05333367
1.02496,0.04538192,0.05030436
1.024711,0.04771181,0.04773684
1.025261,0.04820169,0.04998706
1.024413,0.04999666,0.05294017
1.022002,0.05610928,0.04978979
1.019332,0.05822438,0.04964549
1.018695,0.05558646,0.05258958
1.020711,0.05503405,0.05650509
1.022998,0.05495415,0.06124919
1.025368,0.05142952,0.05739914
1.023723,0.04893542,0.05326168
1.018262,0.05165366,0.05529467
1.016406,0.05371286,0.05397326
1.015045,0.05314335,0.05177355
1.014237,0.05549239,0.05233713
1.01535,0.05637093,0.0539877
1.013427,0.05479004,0.05926795
1.014889,0.05627511,0.06401506
1.019126,0.05743452,0.06126128
1.02035,0.0581253,0.05565287
1.023735,0.0552627,0.04849282
1.027586,0.04444393,0.03875568
1.027897,0.03716571,0.03998444
1.023716,0.03850709,0.04749624
1.01882,0.03839711,0.04539608
1.019111,0.03508643,0.04538344
1.020831,0.03779465,0.04806397
1.025178,0.04307881,0.04568374
1.032207,0.04408165,0.04502185
1.032915,0.04802725,0.04078327
1.028822,0.05390196,0.03609228
1.025875,0.05874083,0.0339472
1.024288,0.05964173,0.03055606
1.023783,0.05253686,0.03609585
1.023655,0.04874919,0.04103731
1.022109,0.04678561,0.04132982
1.02011,0.04426707,0.04727388
1.019293,0.04805519,0.0502253
1.020881,0.05199337,0.05097195
1.026029,0.05632539,0.05160343
1.028772,0.05452571,0.04920958
1.025868,0.04797745,0.04828047
1.022891,0.05090457,0.04743495
1.022435,0.05195346,0.04449529
1.022436,0.05267311,0.04028394
1.021823,0.0563741,0.04043581
1.022387,0.0527108,0.04193471
1.022601,0.05203449,0.04015326
1.022704,0.05204526,0.04424709
1.02425,0.04976217,0.04868149
1.023051,0.05141526,0.05068514
1.02058,0.04884732,0.0544117
1.019406,0.04953725,0.05063784
1.021149,0.05671566,0.04741974
1.026167,0.0597556,0.04913779
1.026308,0.06069245,0.0463391
1.021152,0.05957047,0.04526529
1.016436,0.05519291,0.04748861
1.016049,0.04970836,0.05278845
1.020228,0.05012055,0.05869968
1.021558,0.05443052,0.05359548
1.020472,0.05206245,0.04694204
1.020152,0.05233225,0.0495007
1.019576,0.05399765,0.05370016
1.019756,0.05134806,0.05545069
1.020057,0.0512956,0.05185321
1.023975,0.04501183,0.04632422
1.029433,0.03995962,0.04811816
1.02957,0.04742936,0.04922915
1.027871,0.05282848,0.04575189
1.023933,0.05276915,0.04769559
1.019229,0.05384949,0.04982461
1.021239,0.0550515,0.04954048
1.022944,0.05264541,0.05084629
1.018111,0.05110315,0.04952857
1.015605,0.05288866,0.04979471
1.018662,0.05517768,0.05049941
1.020377,0.05994899,0.04838171
1.019476,0.05867985,0.04821749
1.020209,0.05351747,0.04710438
1.022825,0.05281196,0.05023799
1.025231,0.05122271,0.05884547
1.026416,0.05560928,0.05936376
1.023953,0.06041696,0.05358497
1.020088,0.05597954,0.05167311
1.021522,0.05364565,0.05303054
1.024148,0.05149152,0.05316461
1.023271,0.04765072,0.05341507
1.022736,0.0506675,0.05280868
1.022428,0.05736239,0.04527851
1.024034,0.05871998,0.03842623
1.027776,0.05357986,0.04486437
1.028109,0.05036067,0.05321773
1.026651,0.05374227,0.04931601
1.026135,0.05696514,0.04577113
1.025402,0.05344579,0.04645634
1.02217,0.05043199,0.04440532
1.018621,0.05118257,0.04757782
1.022486,0.04766064,0.05166311
1.026732,0.0456324,0.0514268
1.021877,0.05259979,0.05105303
1.018215,0.0645849,0.0471627
1.019806,0.07424838,0.04399367
1.019027,0.07575517,0.04620036
1.016477,0.07124099,0.05529422
1.015792,0.06416217,0.06278035
1.020352,0.05912481,0.0514978
1.026776,0.05474158,0.03796635
1.025159,0.04672662,0.04189956
1.020927,0.04186546,0.04815399
1.020882,0.03748971,0.04807741
1.020141,0.03260602,0.04655659
1.019113,0.03445832,0.04357104
1.017864,0.03456641,0.04454898
1.017312,0.03316095,0.04751056
1.019023,0.0359684,0.0458088
1.018891,0.03651455,0.04906436
1.020427,0.03929011,0.051467
1.022752,0.04873414,0.04033352
1.020247,0.06268664,0.02866696
1.014376,0.07736954,0.02449497
0.9294012,0.347555,-0.1843692
0.9294414,0.3492597,-0.1855994
0.9285887,0.3555552,-0.1851134
0.9296041,0.3622638,-0.1893205
0.9290949,0.3639146,-0.1900357
0.9289139,0.3577221,-0.1888408
0.929732,0.349833,-0.1909224
0.9300982,0.3520252,-0.1917646
0.9323867,0.3546016,-0.1959851
0.932096,0.3507818,-0.2014034
0.9285591,0.3516714,-0.1953217
0.9268092,0.3523204,-0.1850657
0.9264193,0.3504592,-0.1830135
0.927434,0.3531381,-0.184635
0.9296538,0.3552277,-0.1881133
0.9292617,0.3565141,-0.193286
0.926209,0.3577704,-0.1953318
0.9258759,0.3554198,-0.1966614
0.9278406,0.351531,-0.1974606
0.9277376,0.3482394,-0.1971482
0.9268093,0.3523734,-0.1974482
0.9261843,0.3602156,-0.1969121
0.9261867,0.3587738,-0.1973774
0.9259782,0.3570897,-0.1968269
0.9226636,0.3593787,-0.1941652
0.9218241,0.3570267,-0.1939049
0.9313145,0.3536698,-0.1987314
0.9414116,0.350563,-0.2052992
0.9377685,0.350299,-0.2016903
0.9310879,0.3527668,-0.1918924
0.9315706,0.3508424,-0.1877331
0.9296981,0.3507888,-0.1885346
0.9285042,0.3517607,-0.1916977
0.9302257,0.3508926,-0.1886061
0.9299253,0.354429,-0.1827916
0.9312189,0.3548906,-0.1815648
0.9295728,0.3523301,-0.1798771
0.9282987,0.3530196,-0.1826281
0.931052,0.352627,-0.1851283
0.9295489,0.353079,-0.1827666
0.9270735,0.3542894,-0.183835
0.9242153,0.3536171,-0.1860627
0.9241104,0.3539083,-0.1883092
0.9274107,0.3564349,-0.1877795
0.9263703,0.3577499,-0.1863508
0.9289966,0.3535383,-0.1899901
0.9316716,0.3505982,-0.1922461
0.9276736,0.3520755,-0.1944819
0.9246071,0.3536892,-0.1990904
0.9232127,0.3583385,-0.2000522
0.9262344,0.3611862,-0.1937353
0.9292353,0.3583331,-0.1875
0.9276091,0.3540936,-0.190369
0.9284192,0.3500164,-0.1916868
0.9297375,0.3510443,-0.1905504
0.9291444,0.3543626,-0.1951043
0.9289612,0.3543103,-0.1967159
0.929276,0.3550933,-0.194084
0.9292612,0.355967,-0.1913909
0.9289479,0.3553896,-0.189462
0.9293612,0.3552296,-0.1916331
0.9292863,0.3537964,-0.1981638
0.9299603,0.3516372,-0.2051248
0.9304934,0.3499598,-0.2053732
0.9277784,0.3484991,-0.2016067
0.9254854,0.3500824,-0.2001209
0.9261683,0.3533838,-0.1954135
0.9269515,0.3531386,-0.1909382
0.9261198,0.3527372,-0.1938277
0.9262262,0.3558277,-0.1965409
0.9267807,0.3571897,-0.1971994
0.9262295,0.3543719,-0.1979213
0.9272089,0.351628,-0.1967008
0.9273009,0.352906,-0.1966369
0.9259399,0.3555481,-0.1946668
0.9261667,0.3566103,-0.1899055
0.9256638,0.3581533,-0.1897156
0.9246401,0.3571042,-0.1912646
0.925249,0.3526911,-0.1927676
0.9270099,0.350849,-0.1953048
0.9289599,0.3528501,-0.1945869
0.931458,0.3553315,-0.1929195
0.9332996,0.3541908,-0.1932929
0.9293709,0.3534117,-0.1946249
0.9242775,0.354931,-0.1975154
0.9265012,0.3538413,-0.1973925
0.9294268,0.3536287,-0.1915139
0.9284346,0.3528674,-0.1881807
0.9276817,0.3503382,-0.1870459
0.9261495,0.3518288,-0.1835981
0.9265834,0.3541247,-0.1865558
0.9284408,0.3564135,-0.1930294
0.9247643,0.3569424,-0.1957044
0.9227276,0.3531971,-0.1984752
0.9257962,0.353534,-0.1963566
0.9266204,0.3561904,-0.1933992
0.9247179,0.3551274,-0.1951271
0.9226965,0.3545732,-0.1931606
0.923552,0.3540593,-0.1932363
0.9242226,0.3527883,-0.1972495
0.9231866,0.352919,-0.1989369
0.9249558,0.3533244,-0.1985343
0.926266,0.3562927,-0.1960598
0.9264352,0.3597043,-0.1972464
0.9266582,0.3584444,-0.1973608
0.9260339,0.3576656,-0.1926112
0.9267686,0.3582713,-0.1913988
0.9273234,0.3546905,-0.1922892
0.9278253,0.3486943,-0.1945637
0.9281624,0.3461138,-0.194217
0.9271877,0.349526,-0.1891374
0.9270472,0.3539341,-0.1867404
0.9262386,0.3543014,-0.1868219
0.9259999,0.3523391,-0.188228
0.9270501,0.3519763,-0.1900581
0.9268538,0.3574485,-0.1992408
0.927101,0.3630004,-0.2107717
0.9264769,0.3586795,-0.2034803
0.9265045,0.3533771,-0.1964862
0.9304531,0.3531136,-0.2059792
0.9322352,0.3473602,-0.2079282
0.9285375,0.3418521,-0.1992677
0.9248462,0.3447397,-0.1932217
0.92609,0.3468003,-0.1908123
0.92746,0.3508478,-0.1872297
0.9261681,0.3589818,-0.1811906
0.929096,0.3580819,-0.180984
0.9322584,0.3538944,-0.1841016
0.9320049,0.3553529,-0.1830312
0.9329609,0.3540934,-0.1837873
0.930255,0.3539973,-0.1887433
0.9255581,0.358759,-0.1997639
0.9246008,0.360293,-0.2115866
0.9218773,0.3600038,-0.2097505
0.9193576,0.3587693,-0.2066372
0.9212693,0.3558968,-0.2099931
0.9216702,0.3532973,-0.2046306
0.9229474,0.3516359,-0.1974491
0.9301582,0.3525045,-0.1961666
0.9345219,0.3518332,-0.1959129
0.932211,0.3507729,-0.1979251
0.9292331,0.3509157,-0.197582
0.9277984,0.3496831,-0.1963509
0.9276595,0.351892,-0.1979488
0.9271981,0.3536477,-0.196997
0.9249907,0.3526544,-0.1967714
0.9219381,0.3537332,-0.1972169
0.92165,0.3545486,-0.1966742
0.9238182,0.3552497,-0.1989398
0.9240347,0.3556252,-0.1995745
0.9252511,0.3554324,-0.1986147
0.9271768,0.3547604,-0.1974579
0.9265069,0.3536154,-0.1966263
0.9274117,0.3547087,-0.2005672
0.9300209,0.3562163,-0.2019195
0.9311471,0.3581635,-0.1982206
0.929847,0.3585395,-0.1970879
0.9261227,0.3551291,-0.1995657
0.9215209,0.3534653,-0.2027552
0.9202105,0.3542103,-0.2010426
0.9251734,0.3557402,-0.1971862
0.9296744,0.3575672,-0.1945985
0.9289573,0.3589041,-0.1925155
0.9261172,0.3595836,-0.1975428
0.9232393,0.3591118,-0.2020787
0.9231288,0.3579031,-0.1984953
0.9242875,0.3545974,-0.1968992
0.9248368,0.3530867,-0.1974514
0.9278876,0.3551563,-0.1979291
0.9297389,0.3560587,-0.2017901
0.9264371,0.3588155,-0.2054991
0.9237356,0.3627844,-0.2043443
0.9252166,0.3643524,-0.2018828
0.9264681,0.3637519,-0.2041981
0.9265246,0.3591575,-0.2072934
0.9283958,0.3546299,-0.2073203
0.9297154,0.3533722,-0.2066135
0.9291627,0.3539006,-0.2058506
0.9290217,0.3536953,-0.2055725
0.929209,0.3511262,-0.2044435
0.9292347,0.3510511,-0.2011509
0.9287339,0.3522055,-0.1970966
0.9272036,0.3531372,-0.1955957
0.9248528,0.3570807,-0.1942633
0.9235053,0.359482,-0.1887077
0.9239098,0.359885,-0.1864554
0.9243893,0.3598239,-0.18919
0.925056,0.3582644,-0.1944981
0.9240465,0.3564739,-0.2014149
0.9211207,0.3521603,-0.2007039
0.9207717,0.3493977,-0.19999
0.9228504,0.354293,-0.2073637
0.9251096,0.359041,-0.2120336
0.9253449,0.3572478,-0.210129
0.9236569,0.3566913,-0.204123
0.9238323,0.3591351,-0.1998973
0.9254332,0.3563715,-0.1960033
0.9261577,0.3533874,-0.1903093
0.923171,0.3548312,-0.1948045
0.9191663,0.3558475,-0.2027002
0.9212333,0.3563498,-0.2017415
0.9244616,0.3520225,-0.2008989
0.9245063,0.347334,-0.2027649
0.9228476,0.3537823,-0.2032475
0.9198397,0.3598041,-0.203673
0.9212673,0.3563246,-0.2016506
0.9237675,0.3536865,-0.1973736
0.9224551,0.3528657,-0.1977642
0.9237486,0.3512445,-0.2001721
0.9239341,0.3556604,-0.2004498
0.9213833,0.3605453,-0.2042931
0.9226847,0.3579449,-0.2072563
0.9248844,0.3566243,-0.2036904
0.9253527,0.3578368,-0.1990036
0.9238551,0.3582771,-0.1959896
0.9222375,0.3596746,-0.2017118
0.9232193,0.3565511,-0.2114936
0.9237325,0.3523466,-0.2111257
0.9237315,0.3541959,-0.2131358
0.9237789,0.3551659,-0.21658
0.9250054,0.3547151,-0.2060426
0.929156,0.3577974,-0.1996616
0.9310058,0.3592382,-0.203895
0.9280937,0.3581206,-0.2059808
0.9250432,0.3593718,-0.2073722
0.9262272,0.3610869,-0.2070519
0.9285546,0.3604123,-0.2056228
0.9318755,0.3564697,-0.2048352
0.9369484,0.3514259,-0.200535
0.9309741,0.3501123,-0.1928693
0.9229582,0.349306,-0.188037
0.9295316,0.3468462,-0.1913521
0.9329366,0.3476019,-0.1940717
0.9277716,0.3502465,-0.1926951
0.9233811,0.3529352,-0.1956067
0.9168814,0.3578013,-0.2010941
0.9152441,0.3634225,-0.2098309
0.914639,0.3647729,-0.2187467
0.9084668,0.3592007,-0.2176645
0.9138588,0.3540356,-0.2151148
0.9224193,0.3536515,-0.2168827
0.9196909,0.3531828,-0.2122179
0.924066,0.3527271,-0.201196
0.9311541,0.353383,-0.1944834
0.9283343,0.3564584,-0.1969993
0.927078,0.3607781,-0.2017101
0.9264705,0.3608344,-0.199898
0.9255551,0.3600668,-0.1941177
0.9270244,0.3607816,-0.1887804
0.9251958,0.361028,-0.1905517
0.9243017,0.361078,-0.1977668
0.9245339,0.3589667,-0.1962852
0.9230455,0.3564487,-0.1941755
0.9236545,0.3549268,-0.1987367
0.9234676,0.3540359,-0.2010776
0.9215791,0.3560472,-0.2059073
0.9206431,0.3586416,-0.2121451
0.9216007,0.3586735,-0.2135887
0.9238233,0.35712,-0.2133241
0.9239974,0.3539476,-0.2136793
0.9242551,0.3501514,-0.2142974
0.9254775,0.3508314,-0.212637
0.9247997,0.3543658,-0.2117599
0.9239329,0.356969,-0.2110645
0.92421,0.3607325,-0.2076177
0.9270067,0.3598722,-0.2034739
0.930112,0.3564829,-0.1988138
0.9277271,0.3590232,-0.2008657
0.9249522,0.3588214,-0.2058749
0.9259942,0.3573065,-0.2045767
0.9232924,0.3592176,-0.2071442
0.9194709,0.3576284,-0.2104054
0.9225394,0.3563247,-0.2033145
0.9250287,0.3555771,-0.1975592
0.924011,0.3543886,-0.2015267
0.9278354,0.3545566,-0.2066239
0.9323786,0.3519885,-0.2081879
0.9302452,0.3533035,-0.2089986
0.9258136,0.3591745,-0.2097218
0.9206853,0.3616264,-0.2129957
0.9152197,0.3601469,-0.2188446
0.9164592,0.3564988,-0.2209807
0.9206736,0.3564157,-0.2218913
0.9215876,0.3561368,-0.2225184
0.9248341,0.35404,-0.2146982
0.9287377,0.3555583,-0.2039803
0.9298648,0.3539533,-0.2019098
0.9301952,0.3532607,-0.2023417
0.926532,0.3549941,-0.2002825
0.9210395,0.3511015,-0.2020689
0.9213277,0.347837,-0.201306
0.9293019,0.3449432,-0.1976416
0.9353592,0.3437805,-0.2007023
0.9301888,0.3479261,-0.2016985
0.9251774,0.3488716,-0.200563
0.9286113,0.3468866,-0.202232
0.9308559,0.3449618,-0.2015281
0.9318046,0.3443895,-0.2039271
0.9345591,0.344114,-0.2065028
0.9331993,0.3420618,-0.2035479
0.9312449,0.3432318,-0.2009053
0.93075,0.3435578,-0.1972394
0.9281238,0.3421472,-0.1923034
0.9289822,0.3428907,-0.1916931
0.9300187,0.342121,-0.1943135
0.9283455,0.3437319,-0.1963043
0.9295484,0.3473554,-0.1990354
0.9294631,0.3489769,-0.1983953
0.9296205,0.3493575,-0.194994
0.9313282,0.3464765,-0.1972249
0.930319,0.3413143,-0.1949992
0.9298978,0.3348127,-0.1879483
0.9281298,0.3333735,-0.1862745
0.9256855,0.3369929,-0.1876507
0.9287345,0.337924,-0.1943613
0.933836,0.3455591,-0.1998318
0.9357096,0.3530115,-0.2030221
0.9336123,0.349268,-0.205706
0.9286208,0.3495619,-0.2033624
0.9223663,0.3518792,-0.2095218
0.9179154,0.3508805,-0.2168933
0.9167534,0.353655,-0.2212864
0.9187458,0.3608322,-0.233795
0.9221853,0.3714257,-0.24189
0.9210475,0.3696448,-0.2453539
0.9177272,0.3492627,-0.2425113
0.9146504,0.3328705,-0.2372432
0.9105242,0.3335057,-0.2370516
0.916593,0.340544,-0.2266983
0.9254896,0.3436328,-0.2192548
0.9219072,0.3511936,-0.2206514
0.919589,0.3595793,-0.2202098
0.9201504,0.3605459,-0.2200957
0.9167644,0.3628539,-0.2164629
0.9188176,0.3619628,-0.2179003
0.9233828,0.3664321,-0.2180108
0.9255413,0.3770884,-0.212104
0.9255571,0.3713196,-0.2100088
0.9220842,0.3630112,-0.2060521
0.9202217,0.3592353,-0.2116347
0.9168297,0.356653,-0.2225912
0.911,0.3614713,-0.2265124
0.9112967,0.3598333,-0.230988
0.9167639,0.350456,-0.228959
0.9239019,0.3361196,-0.2244778
0.9236781,0.3308292,-0.2217223
0.9082832,0.3539125,-0.2193559
0.8969098,0.3760817,-0.2284553
0.9093682,0.3774453,-0.2360927
0.9241959,0.3763505,-0.2284711
0.9215533,0.3775089,-0.2180109
0.9263028,0.3674818,-0.2085903
0.9356279,0.3500043,-0.1980715
0.9275599,0.3445645,-0.2004981
0.9229659,0.3503628,-0.2125534
0.9215153,0.3565889,-0.2162332
0.9179674,0.3582168,-0.2196958
0.9226867,0.3599373,-0.2242184
0.9183963,0.3638369,-0.2258415
0.9129979,0.3633193,-0.227844
0.9141499,0.3657366,-0.2223983
0.9116889,0.3678601,-0.2218143
0.9175576,0.3645201,-0.2259423
0.9216575,0.3634232,-0.2208618
0.9194778,0.3600854,-0.2199725
0.9214278,0.3560393,-0.219003
0.9217738,0.3533364,-0.2158292
0.9266601,0.3520019,-0.2148345
0.9346094,0.3529523,-0.2037802
0.9388476,0.3508357,-0.1963405
0.9399743,0.3530276,-0.199505
0.9328659,0.3570076,-0.1998234
0.9204953,0.3573461,-0.2014203
0.9101933,0.3637069,-0.2108327
0.9066872,0.3734903,-0.2252449
0.9088043,0.3797684,-0.2330159
0.9125904,0.3763275,-0.2261895
0.9149005,0.3697943,-0.2169635
0.9134079,0.3709035,-0.2153201
0.9119276,0.3679819,-0.2109669
0.912671,0.3654761,-0.2083104
0.9206089,0.366643,-0.2154129
0.929979,0.3588441,-0.2170168
0.9260571,0.356587,-0.2191698
0.9188541,0.3619931,-0.2220723
0.9177272,0.3628351,-0.2169921
0.9175263,0.3645653,-0.2197527
0.9181941,0.3650471,-0.218844
0.9160135,0.3675651,-0.214043
0.9086756,0.3724262,-0.2187847
0.9058113,0.3679385,-0.2190231
0.9158115,0.3629669,-0.2202782
0.9276008,0.3646207,-0.2183894
0.922973,0.367609,-0.2095472
0.91177,0.3704284,-0.2072197
0.9106544,0.3690184,-0.2042035
0.9179851,0.3639722,-0.2081253
0.9288211,0.3606409,-0.2160576
0.9273539,0.3604596,-0.2129565
0.9168809,0.3616188,-0.2160213
0.916168,0.361158,-0.2239774
0.9153975,0.3610731,-0.2215998
0.9169444,0.3632675,-0.215896
0.9205598,0.3639695,-0.2132244
0.9153359,0.3621492,-0.2149701
0.9166229,0.3604477,-0.21869
0.9215402,0.3603174,-0.2187948
0.9223487,0.3590132,-0.2180682
0.922916,0.3563224,-0.2170832
0.9204387,0.3592157,-0.2153632
0.9204553,0.3631091,-0.2178663
0.9193707,0.3616152,-0.2199599
0.9169427,0.3620612,-0.2214772
0.9184471,0.362238,-0.223056
0.9184255,0.3594875,-0.2174426
0.9196994,0.3607547,-0.2133485
0.9212,0.3635031,-0.2130203
0.9190549,0.364269,-0.2114181
0.9178489,0.3638712,-0.2112227
0.9205407,0.3626486,-0.2092414
0.9236321,0.3620575,-0.210111
0.9219617,0.3604978,-0.2125238
0.9204998,0.3582628,-0.2117035
0.920342,0.3574374,-0.2147978
0.919264,0.3558088,-0.2169541
0.9221943,0.3534356,-0.2152608
0.9246061,0.3545816,-0.2126794
0.9218952,0.3598685,-0.2080828
0.9180219,0.3648956,-0.205966
0.9157325,0.3658476,-0.2068447
0.9166229,0.3623446,-0.207748
0.9181316,0.3598254,-0.2085581
0.9180253,0.3613713,-0.2102244
0.9180833,0.361305,-0.2115878
0.9181171,0.3597411,-0.2124518
0.9184687,0.3595638,-0.2147901
0.9208303,0.3586689,-0.2140042
0.9228533,0.3581536,-0.2119468
0.9215783,0.3583023,-0.2120655
0.9200363,0.3587002,-0.2106838
0.9209636,0.3604013,-0.212375
0.9211733,0.362394,-0.2160738
0.9204332,0.3630903,-0.2155433
0.9211972,0.3613103,-0.2095931
0.9218096,0.357912,-0.2007684
0.9222516,0.3552529,-0.1996112
0.9225738,0.3582719,-0.2013162
0.9220668,0.363379,-0.1986562
0.9233661,0.360213,-0.1993605
0.925143,0.3553869,-0.198941
0.9259776,0.3543912,-0.1977552
0.9267943,0.3550927,-0.2004142
0.9257833,0.3593376,-0.2008747
0.92355,0.3602401,-0.2042335
0.9216234,0.3605981,-0.2087622
0.9215571,0.3639075,-0.2073331
0.9220212,0.3613256,-0.208556
0.9202775,0.3607112,-0.2137893
0.9205188,0.364625,-0.2166619
0.9222051,0.3654221,-0.2144288
0.9239167,0.3634133,-0.2041133
0.9268664,0.3560018,-0.1939204
0.9234792,0.3522498,-0.1983527
0.9187152,0.3615521,-0.2061263
0.9220144,0.369978,-0.2035876
0.9233757,0.3647878,-0.2040044
0.9215511,0.3574378,-0.2045425
0.923712,0.3585842,-0.2006657
0.925882,0.3584018,-0.2008647
0.9263129,0.3577201,-0.1971665
0.9249055,0.3592617,-0.1970875
0.9226371,0.3575916,-0.2005839
0.9239407,0.3581548,-0.1969684
0.9259376,0.3569727,-0.1981788
0.9264368,0.3542418,-0.1975565
0.9267898,0.3564245,-0.1958171
0.9255525,0.3573833,-0.1993274
0.9236508,0.3585872,-0.1989528
0.9213729,0.3590935,-0.2022093
0.9197626,0.358459,-0.2028616
0.9204185,0.3599312,-0.2014099
0.9229038,0.3569288,-0.2056432
0.9279531,0.3535391,-0.2022532
0.9286152,0.3549583,-0.1999311
0.9239142,0.3565974,-0.2030069
0.9231583,0.3577539,-0.2045903
0.9234828,0.35754,-0.2084641
0.922638,0.3552986,-0.2092384
0.9224396,0.3546056,-0.2092607
0.9226062,0.3564716,-0.2104074
0.9243362,0.3567024,-0.2083209
0.9238505,0.3574486,-0.2080077
0.9239363,0.3594158,-0.2071933
0.9259037,0.3579126,-0.2009865
0.9241991,0.3580535,-0.1962159
0.9221179,0.3589778,-0.2018945
0.9204032,0.3580781,-0.209689
0.9203295,0.3600734,-0.2071303
0.9225741,0.36029,-0.2053947
0.9221319,0.359095,-0.2081379
0.9219426,0.3596606,-0.2050627
0.9219911,0.3583021,-0.202175
0.9219672,0.3573365,-0.2021984
0.9248584,0.3569563,-0.2050033
0.9266588,0.355438,-0.2105327
0.9277405,0.3568083,-0.208681
0.9276398,0.3595378,-0.2066361
0.9256169,0.3587043,-0.2071154
0.9274601,0.360472,-0.1982163
0.9295334,0.3677315,-0.1915109
0.9287465,0.3695727,-0.1963832
0.9275806,0.362347,-0.205396
0.9230148,0.355561,-0.2111645
0.9199003,0.3577118,-0.2059066
0.9243509,0.3606402,-0.1975854
0.9271267,0.358985,-0.198127
0.9209776,0.3627212,-0.2003483
0.916114,0.3650247,-0.2025025
0.9209826,0.3635865,-0.2090492
0.9248785,0.3658364,-0.2120339
0.9226815,0.3619411,-0.2123518
0.9233193,0.3558902,-0.2123594
0.9249818,0.3553002,-0.2063354
0.9234191,0.3561808,-0.203335
0.9227581,0.3591059,-0.2076961
0.9222567,0.3604843,-0.2113727
0.9202265,0.3622538,-0.2114496
0.9203995,0.3647996,-0.2115527
0.9215154,0.3657369,-0.2124831
0.9204991,0.3701518,-0.2049972
0.9206946,0.3711053,-0.1979845
0.921421,0.365104,-0.2009815
0.9213372,0.3590648,-0.202886
0.9232,0.3574487,-0.2045626
0.9251012,0.3624732,-0.2049521
0.926022,0.3648372,-0.2036609
0.9235259,0.3601811,-0.2085132
0.918977,0.3550784,-0.214538
0.9206147,0.3542189,-0.2188807
0.9223769,0.3606212,-0.2208267
0.9216269,0.3656702,-0.2217732
0.9244425,0.3607761,-0.222466
0.9236326,0.3541222,-0.218841
0.9199094,0.3534672,-0.2184681
0.9195116,0.354694,-0.218356
0.9200828,0.3556481,-0.2123947
0.9224495,0.3594662,-0.2070271
0.9236996,0.3628329,-0.1990066
0.9230891,0.3637484,-0.1943814
0.923196,0.3646453,-0.1974495
0.9217051,0.3638406,-0.1968557
0.9216206,0.3608262,-0.1965791
0.9210499,0.3569726,-0.1981314
0.9183621,0.3536274,-0.1967167
0.9199767,0.3535032,-0.1978881
0.9226741,0.3552305,-0.2011809
0.9240622,0.3559528,-0.2034531
0.9249252,0.358228,-0.203976
0.9235774,0.3602359,-0.2053375
0.9226936,0.3593126,-0.2115837
0.9221373,0.3596962,-0.2141044
0.9228243,0.3590555,-0.2107992
0.9243957,0.3575869,-0.2107585
0.9231953,0.3588606,-0.2114634
0.9225133,0.3592173,-0.2108758
0.9225079,0.3598004,-0.2119684
0.9226791,0.360108,-0.214613
0.9242508,0.3590717,-0.2156147
0.9232871,0.3591043,-0.2064476
0.9214168,0.3578836,-0.1957756
0.9207061,0.3571272,-0.2003161
0.9205784,0.3573336,-0.2079507
0.9219515,0.3574069,-0.2084526
0.9215631,0.3588703,-0.2098484
0.9202018,0.3584883,-0.2100798
0.9200071,0.3578567,-0.210062
0.919228,0.3587389,-0.2120797
0.9191232,0.3581889,-0.2106044
0.9187728,0.3582288,-0.2099465
0.918181,0.3585633,-0.2095129
0.9213739,0.3581169,-0.206333
0.9268505,0.3584461,-0.2053001
0.9283322,0.3587019,-0.2037036
0.9239975,0.3600196,-0.1986917
0.9205253,0.3617834,-0.1939389
0.9209893,0.3612294,-0.2002976
0.9194458,0.3598361,-0.2108772
0.9175926,0.356878,-0.2077395
0.9220446,0.3533549,-0.2077088
0.9270815,0.3565053,-0.2118742
0.9264122,0.3617824,-0.2037691
0.9242118,0.3594376,-0.1999767
0.9228634,0.3562304,-0.2003116
0.9219735,0.3566809,-0.1980932
0.9224466,0.3551851,-0.2026747
0.9237549,0.3533973,-0.2041793
0.9239925,0.3531519,-0.2038385
0.9221366,0.3533076,-0.2112708
0.9209664,0.3553074,-0.2147706
0.9208714,0.3576024,-0.2087695
0.920883,0.3565102,-0.2030122
0.9232393,0.3545029,-0.2051041
0.925938,0.3556179,-0.2059271
0.926908,0.3549246,-0.2008046
0.9261566,0.3525341,-0.2013318
0.9241549,0.3539078,-0.2040274
0.9233981,0.3553784,-0.2049105
0.9233871,0.3557698,-0.2061982
0.9235839,0.3555411,-0.2032889
0.9226898,0.3544669,-0.2020306
0.9207159,0.355448,-0.2030152
0.9211005,0.3576184,-0.2014499
0.922653,0.3600957,-0.2006052
0.9240895,0.3610857,-0.2011214
0.9238084,0.3608648,-0.2054472
0.9220935,0.3609763,-0.2093819
0.9224863,0.3582169,-0.2088956
0.9230683,0.3563756,-0.2107342
0.9237446,0.3587439,-0.2134642
0.9238366,0.3607114,-0.2128278
0.9223896,0.3607341,-0.2105922
0.9229172,0.3608485,-0.2065153
0.9228007,0.3614109,-0.2021859
0.9210457,0.3600406,-0.2068945
0.9212118,0.3592105,-0.2129959
0.9243503,0.3598857,-0.2027252
0.9274005,0.3581334,-0.1935074
0.924826,0.3553796,-0.1977942
0.9222095,0.3542714,-0.199249
0.9240287,0.3584784,-0.2017521
0.923913,0.3641102,-0.2083601
0.9231325,0.3628218,-0.2071969
0.9230211,0.3617442,-0.2047747
0.9191058,0.3640586,-0.2077255
0.9155236,0.3636621,-0.2075561
0.9182682,0.3616222,-0.2050176
0.9221775,0.3585453,-0.2031318
0.9225976,0.355664,-0.199358
0.9235311,0.3556569,-0.2025327
0.9234234,0.3573185,-0.2076113
0.921443,0.3589632,-0.2014612
0.9231886,0.358571,-0.1990126
0.9238724,0.3579685,-0.2061827
0.9204179,0.3595653,-0.2102118
0.9189572,0.3600236,-0.2097304
0.9204822,0.3595478,-0.2098634
0.9232814,0.3596543,-0.2118503
0.9240218,0.3587472,-0.2100174
0.922254,0.3580911,-0.2068379
0.9211411,0.3582714,-0.2065693
0.9204556,0.3586113,-0.2039142
0.9208718,0.3594285,-0.202425
0.9210626,0.3607583,-0.2045439
0.9207093,0.3619805,-0.2063653
0.9221191,0.3627511,-0.2068278
0.9235165,0.3635494,-0.2064977
0.9247819,0.3608095,-0.2074434
0.9250013,0.3575073,-0.2065421
0.9228517,0.3626373,-0.2041805
0.9204764,0.3672805,-0.2015652
0.9189303,0.3628718,-0.1994136
0.9195599,0.359315,-0.2046274
0.9212384,0.3597873,-0.2090251
0.9215529,0.3591146,-0.206968
0.9222623,0.3570264,-0.2082264
0.9241522,0.3555839,-0.2103618
0.9237435,0.3586392,-0.208053
0.9211256,0.3629298,-0.2065611
0.9207644,0.3608864,-0.2106411
0.9219049,0.3582614,-0.2137445
0.9231379,0.3586834,-0.2100205
0.9231522,0.3582364,-0.2065021
0.920702,0.3610875,-0.2085666
0.9204464,0.3664921,-0.2149591
0.9212005,0.3690894,-0.21867
0.9205896,0.3674976,-0.214914
0.9206033,0.3617935,-0.2081059
0.9190257,0.3584423,-0.2005544
0.9181498,0.3590797,-0.1977514
0.9215568,0.3584759,-0.1998313
0.9249565,0.3563726,-0.1941232
0.9239617,0.3564837,-0.1885741
0.9221077,0.3587,-0.1971782
0.9215405,0.3582799,-0.2058043
0.918687,0.3580915,-0.2046684
0.9186022,0.3588311,-0.2031865
0.9211897,0.3576388,-0.2034631
0.9216595,0.3578871,-0.2017157
0.9251751,0.3574878,-0.201584
0.9257087,0.3570293,-0.2062155
0.9211017,0.3565844,-0.2092091
0.9201647,0.3546801,-0.2059108
0.9191349,0.3568893,-0.20296
0.918397,0.3587248,-0.2059749
0.9200018,0.3589026,-0.2081424
0.9207459,0.3604607,-0.2055091
0.9229961,0.3595087,-0.2052462
0.924973,0.3593376,-0.2068793
0.9243852,0.3593935,-0.2069471
0.9232241,0.3584166,-0.2071699
0.9233616,0.3588482,-0.2065734
0.9240757,0.3565603,-0.2065657
0.92332,0.3542967,-0.2081868
0.9235858,0.3550854,-0.2101393
0.9237015,0.3554345,-0.2097537
0.9223808,0.3571559,-0.205013
0.9223683,0.3593444,-0.2014451
0.9229511,0.3583079,-0.201928
0.9239748,0.3579804,-0.2067193
0.9234742,0.359736,-0.210929
0.9217179,0.3596413,-0.2054592
0.9224255,0.358592,-0.2020503
0.9238662,0.357291,-0.2120551
0.9240735,0.3565522,-0.2195248
0.9232669,0.3582822,-0.2133358
0.9233143,0.3597362,-0.2076558
0.9229671,0.3605803,-0.2092928
0.920653,0.3608235,-0.2069332
0.9207688,0.3600004,-0.2055224
0.9219983,0.3596381,-0.2094871
0.9224286,0.356302,-0.2089119
0.9230617,0.3528978,-0.2080728
0.9217856,0.3560649,-0.2063017
0.9204759,0.3592168,-0.2023143
0.9209436,0.3581635,-0.204291
0.9228336,0.357601,-0.2040031
0.9242617,0.3559637,-0.2015465
0.9235092,0.3531098,-0.2033201
0.9231122,0.353921,-0.2038943
0.9219746,0.3548748,-0.2079766
0.9205467,0.3540453,-0.2140233
0.9224753,0.3559944,-0.213136
0.9245117,0.3577498,-0.2113017
0.9236648,0.3568408,-0.2118571
0.923107,0.3563644,-0.2101783
0.9241801,0.3553529,-0.2091943
0.9246492,0.3532204,-0.2119752
0.9259055,0.3521013,-0.2131227
0.9267579,0.35259,-0.2123073
0.9242667,0.3571892,-0.2125242
0.9229879,0.3633281,-0.2124501
0.9238757,0.3617696,-0.2127522
0.9247835,0.358416,-0.2133799
0.926156,0.3604954,-0.2140654
0.9263005,0.3597859,-0.2141732
0.9246257,0.3589941,-0.2129688
0.922929,0.3605968,-0.211405
0.9234486,0.3586525,-0.2077261
0.9241198,0.3570286,-0.2028964
0.9232351,0.3557331,-0.1995327
0.9236712,0.3574726,-0.201438
0.9239837,0.3625378,-0.2061713
0.9242232,0.3612411,-0.2033318
0.9247747,0.3604674,-0.2012848
0.9214613,0.3628433,-0.2060295
0.9182583,0.3622812,-0.2094282
0.9201557,0.3624924,-0.2130949
0.9218349,0.361654,-0.2101747
0.9208602,0.3605543,-0.20504
0.9223375,0.3608504,-0.2128952
0.9246354,0.3581625,-0.2174267
0.9227948,0.3552296,-0.2111167
0.9196352,0.3557435,-0.2065603
0.9179329,0.359525,-0.2049623
0.9202629,0.3620716,-0.2045583
0.9247578,0.360292,-0.2025353
0.9235869,0.3591661,-0.2021538
0.9204292,0.3607488,-0.2055057
0.9182981,0.3616685,-0.2058466
0.9159451,0.3609145,-0.2061104
0.9195977,0.3611569,-0.2100289
0.9242672,0.362274,-0.2155273
0.9237091,0.3623647,-0.2171431
0.9231433,0.3618054,-0.2099497
0.9218931,0.3606886,-0.2045032
0.920187,0.360593,-0.2069806
0.9211254,0.3597498,-0.207543
0.9228898,0.3574458,-0.2050245
0.9236736,0.3585681,-0.2066614
0.9219771,0.3606779,-0.2111334
0.9201771,0.3611974,-0.2110971
0.921652,0.3614729,-0.2058051
0.9227721,0.3608114,-0.2009899
0.9209386,0.3610913,-0.201267
0.9196383,0.361205,-0.2055955
0.9206405,0.359904,-0.2077978
0.9231409,0.359092,-0.2061515
0.9261663,0.3574893,-0.2051938
0.9269419,0.3574611,-0.2076079
0.925811,0.3604984,-0.2106627
0.9245923,0.3611999,-0.2125045
0.9231294,0.3595251,-0.2141832
0.9233556,0.3588206,-0.2116658
0.9240517,0.3581224,-0.2048344
0.9233748,0.357862,-0.200292
0.9237523,0.3576768,-0.2002264
0.9246929,0.3555897,-0.2055016
0.9249107,0.3548682,-0.210199
0.9242982,0.3550826,-0.2076061
0.9235131,0.353697,-0.2056398
0.9253028,0.3549383,-0.207912
0.9270989,0.3591775,-0.2081802
0.9254397,0.3632289,-0.2069036
0.9243666,0.3643471,-0.2065639
0.9252267,0.363067,-0.2057431
0.9250935,0.3629361,-0.2015281
0.9248165,0.3601436,-0.1971502
0.9247619,0.3556656,-0.2004258
0.9237349,0.3539714,-0.205936
0.9239447,0.3519147,-0.2081763
0.9256288,0.3513153,-0.2089467
0.9252004,0.3536154,-0.2045074
0.9240913,0.3564505,-0.2002803
0.9239649,0.3578496,-0.2003855
0.9229058,0.3562236,-0.2022494
0.9225539,0.3549933,-0.2069017
0.9215425,0.3540299,-0.2078137
0.9202346,0.3537462,-0.2075022
0.9231826,0.3558604,-0.2074811
0.9251127,0.3565255,-0.2032687
0.9240266,0.357072,-0.2032623
0.9233826,0.3574865,-0.2023308
0.9225317,0.3573305,-0.1983842
0.923689,0.3587382,-0.200326
0.9264845,0.3573853,-0.2016315
0.9285736,0.3554766,-0.2019902
0.927862,0.3559893,-0.2036231
0.9251334,0.3549502,-0.2046028
0.9249561,0.3548201,-0.2096198
0.9247166,0.357286,-0.2142822
0.9241661,0.3578338,-0.2117552
0.9244496,0.3564151,-0.2084317
0.9240032,0.3577811,-0.2080934
0.9242515,0.3592027,-0.2055211
0.9227932,0.3580022,-0.2036719
0.9221989,0.3592678,-0.2046927
0.9234301,0.3599407,-0.2054395
0.9219424,0.3576092,-0.2121324
0.9218298,0.3567269,-0.2186397
0.9228667,0.3575762,-0.2126712
0.9227051,0.3586242,-0.2069834
0.9233418,0.3565786,-0.2109771
0.9235981,0.3543539,-0.2114957
0.9233469,0.3551418,-0.204643
0.9218776,0.3549353,-0.2017081
0.9201156,0.3554618,-0.2049649
0.9207728,0.3560735,-0.2092878
0.9212123,0.3551295,-0.2106762
0.9209046,0.3560244,-0.2092647
0.9226689,0.357491,-0.2097231
0.9241077,0.3589926,-0.2113993
0.9227554,0.3605256,-0.2165375
0.9220054,0.3608099,-0.2215201
0.9240953,0.3595303,-0.2125962
0.9254063,0.3566519,-0.2025433
0.9231981,0.3568745,-0.207385
0.9213379,0.3602749,-0.2116298
0.9219371,0.361445,-0.2092897
0.9207823,0.3604575,-0.2086325
0.9187644,0.3591376,-0.2027201
0.9203856,0.3595877,-0.1968209
0.922529,0.3604334,-0.2046213
0.9223983,0.3601557,-0.2133914
0.9228748,0.3615015,-0.212201
0.9231027,0.3614432,-0.2065665
0.9219224,0.3601554,-0.2030956
0.922363,0.3597669,-0.2066815
0.9242996,0.357687,-0.2109799
0.9250658,0.3579176,-0.2094685
0.9231985,0.3590925,-0.2069221
0.9206634,0.3576434,-0.2051506
0.9218956,0.3576883,-0.2032925
0.9255773,0.35765,-0.2042809
0.9269543,0.3574136,-0.2058637
0.9250297,0.3579838,-0.2061207
0.921685,0.3573745,-0.2071882
0.9201011,0.3578673,-0.2052544
0.9208053,0.358517,-0.2036157
0.9214827,0.3583163,-0.2073788
0.9224626,0.3587827,-0.2099826
0.9241027,0.359949,-0.2089892
0.9239744,0.3614198,-0.2068729
0.9229097,0.3595682,-0.2065146
0.9227436,0.3575549,-0.2073566
0.9212281,0.3603362,-0.2067125
0.9201088,0.3616344,-0.2069692
0.9212099,0.3585985,-0.20566
0.9208714,0.3549129,-0.1995677
0.9205523,0.3542198,-0.1947664
0.9209699,0.3590613,-0.2014455
0.9197401,0.3645688,-0.2165482
0.9193794,0.3647134,-0.2225171
0.9203452,0.3627523,-0.2177862
0.9211322,0.3621242,-0.211203
0.9213602,0.3599571,-0.205974
0.9219251,0.3587937,-0.207793
0.9229373,0.3603421,-0.2141075
0.9214226,0.3598525,-0.2166635
0.9195681,0.3604346,-0.2150625
0.9196061,0.3627401,-0.210947
0.9206336,0.3622061,-0.2062429
0.9226209,0.3604962,-0.2066801
0.9244913,0.3583384,-0.2124949
0.9266717,0.3577233,-0.2145391
0.9236068,0.35881,-0.2111701
0.918334,0.3581972,-0.208628
0.9212469,0.3583756,-0.2094405
0.9216491,0.3596541,-0.2101951
0.918639,0.3610258,-0.2074196
0.9200284,0.3633885,-0.2064714
0.9193567,0.363985,-0.2081674
0.9199587,0.3617619,-0.2084277
0.9207709,0.3584473,-0.210166
0.9186483,0.3567144,-0.2161437
0.9200861,0.3573435,-0.2227288
0.9225457,0.358861,-0.2186934
0.9250034,0.3609847,-0.2094756
0.9256874,0.3606081,-0.2082268
0.9234007,0.3575775,-0.2066429
0.9235343,0.3553887,-0.2071681
0.9233716,0.354123,-0.214522
0.9216421,0.35658,-0.2173054
0.920159,0.3608894,-0.214255
0.9186372,0.3607244,-0.2088078
0.9187297,0.3596481,-0.2069345
0.9212492,0.3586116,-0.2069519
0.9249011,0.3549444,-0.2023567
0.9240523,0.3540984,-0.2018493
0.9212924,0.3583783,-0.2072014
0.9218178,0.3636345,-0.2139796
0.9208768,0.3650876,-0.215849
0.9220866,0.3632898,-0.2121266
0.924987,0.363424,-0.2130052
0.9230704,0.3625578,-0.2107736
0.9223759,0.3599524,-0.2061473
0.9225117,0.3602114,-0.2073503
0.9218415,0.3597379,-0.2064664
0.9238882,0.3581188,-0.2060083
0.9252403,0.3575492,-0.205732
0.925031,0.3565138,-0.2047894
0.9230627,0.3575636,-0.2057956
0.9210018,0.3614181,-0.2025279
0.9200161,0.3659517,-0.2002144
0.9150582,0.3676659,-0.2007013
0.91216,0.3639266,-0.2006583
0.9184974,0.3582943,-0.2049814
0.9246656,0.3495081,-0.2115244
0.9209316,0.3445109,-0.21519
0.914366,0.3606916,-0.2155611
0.9148097,0.37818,-0.2150051
0.919886,0.371137,-0.2095444
0.9251734,0.3650305,-0.1979925
0.922542,0.3704497,-0.1920662
0.9154609,0.3675483,-0.1934174
0.9173007,0.3668199,-0.1974683
0.9201872,0.3684853,-0.2054288
0.9225188,0.3592304,-0.212349
0.9245643,0.3531881,-0.2111937
0.9181357,0.353544,-0.2081349
0.9151764,0.3544101,-0.2101939
1.017051,0.1186729,-0.02049216
1.017397,0.1120624,-0.02376306
1.017386,0.1046735,-0.01560539
1.013007,0.1087076,-0.003681185
1.008102,0.1136027,-0.0004311251
1.013599,0.1097122,0.001258619
1.019231,0.1096034,0.002095041
1.017803,0.1172199,-0.004583827
1.015886,0.1201927,-0.009717808
1.014973,0.1162552,-0.0131986
1.015403,0.1124955,-0.01873612
1.017363,0.1152097,-0.01865623
1.018521,0.1179933,-0.01674739
1.01743,0.1121911,-0.01443235
1.014241,0.1096902,-0.009855011
1.011529,0.1118609,-0.01024647
1.012107,0.1118259,-0.01183367
1.013235,0.1129323,-0.008493574
1.012515,0.1126373,-0.004349863
1.014831,0.1131722,-0.004394606
1.020178,0.1145167,-0.0131992
1.023562,0.1136206,-0.02503928
1.023217,0.1137876,-0.02296735
1.017252,0.1115614,-0.0130528
1.009886,0.1050275,-0.01215518
1.008903,0.09995039,-0.01409432
1.01364,0.1041056,-0.01844963
1.018574,0.1096399,-0.02224957
1.01944,0.1054678,-0.01534749
1.015078,0.1042569,-0.01065919
1.011034,0.1071563,-0.01263426
1.013979,0.1067371,-0.01522087
1.017012,0.1086432,-0.01860249
1.014638,0.1081115,-0.02222859
1.013682,0.106792,-0.02541787
1.009755,0.1127701,-0.0225432
1.004124,0.1169263,-0.01895376
1.010555,0.1145563,-0.01735629
1.018032,0.1133218,-0.01507564
1.015124,0.1172331,-0.01825746
1.014191,0.1219788,-0.0205394
1.016303,0.1267895,-0.02312856
1.015094,0.1353502,-0.02826567
1.015904,0.1400696,-0.02796619
1.017841,0.1380641,-0.02472238
1.018286,0.1385629,-0.0197888
1.021007,0.1409634,-0.0241029
1.022468,0.1423189,-0.03395965
1.021548,0.1456727,-0.03570419
1.020203,0.1487816,-0.04238579
1.016126,0.1496141,-0.04382545
1.014104,0.1503741,-0.03543619
1.015633,0.1495249,-0.03392535
1.015466,0.1467894,-0.02934778
1.014994,0.1439437,-0.02728702
1.014532,0.1410125,-0.02915401
1.010821,0.1398907,-0.01847952
1.00689,0.1401043,-0.007951688
1.007146,0.1404083,-0.007393419
1.005798,0.1404457,-0.01251906
1.001486,0.139772,-0.01477974
1.00452,0.1396118,-0.008711386
1.011057,0.1393562,-0.005831572
1.01429,0.1420994,-0.008656898
1.017091,0.1455448,-0.01079508
1.012201,0.1418433,-0.009120479
1.003384,0.1391727,-0.005295152
1.003608,0.1433076,-0.003886287
1.005687,0.1456938,-0.004005904
1.005133,0.144277,-0.007167835
1.004055,0.1439956,-0.008876122
1.002464,0.1441747,-0.007615341
1.005534,0.1405585,-0.008725197
1.00956,0.1367408,-0.007506883
1.010049,0.137089,-0.007034668
1.010445,0.1372776,-0.008369003
1.009836,0.133803,-0.006641351
1.009567,0.1304879,-0.005228552
1.012189,0.1308747,-0.004276282
1.01487,0.1309983,-0.007349829
1.015428,0.1305014,-0.01159556
1.012456,0.1336495,-0.009589151
1.006302,0.1376731,-0.008976495
1.003589,0.1426054,-0.0118622
1.009499,0.1510268,-0.01658984
1.015898,0.1571643,-0.02325296
1.013583,0.1583292,-0.02376624
1.009064,0.1581486,-0.02331491
1.008644,0.1564125,-0.03010066
1.010873,0.1533712,-0.03229832
1.015598,0.1510108,-0.02547885
1.017285,0.1485564,-0.02008592
1.016476,0.1480874,-0.02223345
1.019846,0.1500184,-0.02740049
1.020757,0.1487902,-0.02661877
1.016248,0.1416205,-0.02067088
1.01268,0.1311209,-0.0150996
1.014103,0.1261654,-0.01699308
1.01648,0.1283178,-0.02168689
1.01259,0.1280075,-0.01600338
1.009658,0.1280548,-0.01336364
1.009942,0.1328392,-0.01638698
1.009287,0.1357861,-0.01312062
1.011115,0.1351937,-0.01342285
1.011359,0.1348912,-0.01466288
1.010959,0.1396787,-0.01362287
1.013139,0.1454686,-0.01819911
1.016128,0.1459519,-0.02811129
1.020353,0.1465533,-0.03700421
1.020011,0.1475853,-0.0294616
1.01637,0.1449749,-0.01754887
1.009365,0.1392145,-0.01934832
0.9993439,0.1341616,-0.01515478
1.001103,0.1357679,-0.006480101
1.004756,0.1386675,-0.01218218
1.000081,0.1400511,-0.01883366
1.003658,0.1470858,-0.01686662
1.008139,0.1512546,-0.01490617
1.006219,0.1436131,-0.01649391
1.011959,0.1373881,-0.02455323
1.018212,0.1407124,-0.03218072
1.018536,0.1435107,-0.03050508
1.019787,0.1434623,-0.03203037
1.019135,0.1450982,-0.03773972
1.016427,0.1425088,-0.03133916
1.014666,0.1330355,-0.01832469
1.014177,0.1254738,-0.0119447
1.012334,0.1293319,-0.01143671
1.008499,0.1396203,-0.01397434
1.010071,0.1419816,-0.01693676
1.012579,0.1414894,-0.01862214
1.010628,0.144107,-0.01936453
1.011819,0.1432909,-0.02047366
1.012472,0.1419888,-0.02313702
1.007601,0.1408191,-0.02029247
1.00422,0.1410078,-0.01489276
1.005388,0.142683,-0.01539428
1.007434,0.1400852,-0.01560319
1.007591,0.1416408,-0.0178182
1.007546,0.1517897,-0.02033118
1.005697,0.1661143,-0.01577668
0.9991587,0.1735658,-0.01168597
0.9958645,0.1663068,-0.01042084
1.005055,0.1624884,-0.01199685
1.0192,0.1632965,-0.01501413
1.02135,0.1592854,-0.02011096
1.014259,0.1593255,-0.02907272
1.00325,0.1592019,-0.02991533
0.9915688,0.159821,-0.02658404
1.00706,0.1614626,-0.02575041
1.02866,0.1482617,-0.0193505
1.014507,0.134708,-0.01679515
1.006375,0.138665,-0.02640484
1.015712,0.142399,-0.03767013
1.007081,0.1453975,-0.04367711
1.001766,0.1668527,-0.04929408
1.005566,0.1829655,-0.05123623
1.006333,0.1686195,-0.04409419
1.018655,0.154187,-0.03957968
1.031661,0.1554055,-0.0372367
1.031202,0.15502,-0.04049328
1.028313,0.152743,-0.05033334
1.022651,0.1509956,-0.03968122
1.008344,0.1539378,-0.02891044
1.004157,0.1723504,-0.03502537
1.010758,0.1996199,-0.02413031
1.003895,0.2189203,-0.008451878
0.9978065,0.2289016,-0.005441934
0.9978623,0.2400702,0.0002455977
0.9884637,0.2459292,0.007413237
0.9787376,0.2447764,0.005617319
0.9679376,0.2473907,0.000966338
0.9613539,0.2391366,0.009665689
0.9660333,0.2191068,0.01554527
0.9817246,0.2040746,0.009297504
1.008253,0.1953084,0.008329142
1.012008,0.1966629,0.005887126
1.001208,0.1970662,0.0030159
1.004651,0.1938058,0.008790688
0.9957628,0.1966406,0.02054336
0.9820374,0.1925556,0.03120195
0.98091,0.1872095,0.02425681
0.9835915,0.1878439,0.006909665
0.9948632,0.1876985,-0.004059947
0.9976118,0.1871388,-0.004858375
0.9892216,0.1717441,0.01078215
0.9865689,0.1443169,0.02487595
0.9884695,0.1301477,0.01657527
1.004412,0.130107,0.01065572
1.019798,0.1262515,0.02206054
1.013922,0.1215386,0.02624863
1.009329,0.1263046,0.02213996
1.01702,0.1230946,0.01976896
1.025633,0.1182565,0.0072807
1.029799,0.129614,-0.01416029
1.019345,0.1502408,-0.03105672
1.000474,0.1803463,-0.0372867
1.004273,0.1903542,-0.03640815
1.021561,0.1707519,-0.03561048
1.024625,0.1593794,-0.03338877
1.015686,0.1529683,-0.02574304
0.9989475,0.1515303,-0.01787919
0.9971826,0.156504,-0.01985032
1.009858,0.1489615,-0.02329135
1.01443,0.1449907,-0.0224913
1.022013,0.146843,-0.03432642
1.019489,0.1456619,-0.04964065
1.010695,0.1470512,-0.05019932
1.014047,0.1400419,-0.04673932
1.011529,0.1303875,-0.04683597
1.012147,0.1303101,-0.04742573
1.014208,0.1355582,-0.04628803
1.011695,0.1412355,-0.04493294
1.016383,0.1411328,-0.04431354
1.014661,0.1413267,-0.04245968
1.010888,0.1437682,-0.04312074
1.01032,0.141062,-0.04612629
1.010907,0.1384477,-0.04955908
1.015096,0.1401467,-0.05295876
1.008416,0.1462447,-0.05242951
1.002807,0.1521495,-0.05167702
1.007701,0.1512492,-0.05086813
1.009975,0.1512233,-0.04743721
1.013701,0.1556486,-0.0481258
1.017475,0.1548518,-0.04967513
1.016473,0.1534164,-0.04772657
1.013388,0.1587011,-0.04757627
1.010795,0.160824,-0.04650406
1.010699,0.1590537,-0.04489589
1.009954,0.1574784,-0.04629097
1.007775,0.1535408,-0.04590906
1.006173,0.1512441,-0.04545082
1.006899,0.1490734,-0.04696602
1.007473,0.1454494,-0.04914264
1.006419,0.1453036,-0.05073488
1.007176,0.1471894,-0.04231829
1.007053,0.1476256,-0.03013075
1.006798,0.1465356,-0.03165459
1.008197,0.1455509,-0.03990807
1.008364,0.1440222,-0.04343471
1.009029,0.1439413,-0.0447983
1.011104,0.1448209,-0.04589783
1.014096,0.1422488,-0.04612377
1.014207,0.1414059,-0.04370443
1.010434,0.1436455,-0.03851175
1.009133,0.14493,-0.03482005
1.009669,0.1445979,-0.03489342
1.009513,0.1429847,-0.03412366
1.008026,0.1430578,-0.02903067
1.006475,0.1431102,-0.02778795
1.008773,0.1433624,-0.03039037
1.010623,0.1460732,-0.02890531
1.009394,0.1474098,-0.02956255
1.008252,0.1458283,-0.03083255
1.006459,0.1432489,-0.0288418
1.004898,0.1435335,-0.02963226
1.00633,0.1443265,-0.03091487
1.010439,0.1431722,-0.03458559
1.013249,0.1447484,-0.03667689
1.010841,0.1476142,-0.02831617
1.006961,0.1510615,-0.02322613
1.008041,0.1525887,-0.03017608
1.010087,0.150583,-0.03792734
1.008855,0.151334,-0.03775477
1.009686,0.1507096,-0.03301622
1.011327,0.1480685,-0.03002972
1.010678,0.1478238,-0.02924036
1.010418,0.147018,-0.03060547
1.010015,0.1480257,-0.03329886
1.012239,0.1487078,-0.03730496
1.015917,0.1456599,-0.03983483
1.014153,0.1436566,-0.03480567
1.010399,0.1441763,-0.02706645
1.009134,0.1462523,-0.02428599
1.009551,0.150463,-0.02902228
1.009592,0.1553286,-0.03480726
1.006669,0.1526795,-0.03362572
1.003739,0.147342,-0.03422296
1.005261,0.1499939,-0.03685014
1.011608,0.1476608,-0.03495001
1.016716,0.1400152,-0.03612152
1.012422,0.139766,-0.03753581
1.007101,0.1405787,-0.03555579
1.010084,0.141849,-0.03654253
1.010811,0.1457563,-0.03904624
1.008498,0.1485377,-0.04020999
1.010644,0.150848,-0.03711096
1.011716,0.1531398,-0.03294522
1.012395,0.1553143,-0.03466838
1.013366,0.1518493,-0.03455727
1.011922,0.1417003,-0.02860291
1.013718,0.1335096,-0.02603069
1.015486,0.136751,-0.03224788
1.014638,0.1518771,-0.04078019
1.012305,0.1622027,-0.03834403
1.003645,0.1619644,-0.02876495
0.9979919,0.1557461,-0.02451363
1.003713,0.1442682,-0.02136947
1.009684,0.1360579,-0.01797134
1.008785,0.1357451,-0.01712221
1.009104,0.1399607,-0.01587111
1.014615,0.142797,-0.02074739
1.018059,0.1483074,-0.02727581
1.01783,0.1549859,-0.02164374
1.013957,0.1526861,-0.01724325
1.007569,0.1558448,-0.02302428
1.003816,0.1597462,-0.02405497
1.001113,0.1515183,-0.01853842
1.000726,0.1467005,-0.01620392
1.002235,0.1469343,-0.02096249
1.00235,0.150346,-0.02677148
1.005651,0.1512485,-0.02551081
1.01112,0.1435196,-0.02459069
1.014309,0.1384424,-0.02681941
1.010811,0.1402199,-0.02569074
0.9971953,0.1462363,-0.0269021
0.9899564,0.1478411,-0.02902228
1.009236,0.1448956,-0.02681276
1.032274,0.1433878,-0.0255322
1.023287,0.1425669,-0.02315639
1.002214,0.1469581,-0.02291826
0.9970042,0.1508121,-0.03254179
1.005471,0.1503423,-0.04069739
1.021173,0.1445642,-0.03659625
1.020081,0.1347322,-0.02757311
1.010225,0.1345611,-0.02350574
1.014113,0.1362705,-0.02496246
1.013961,0.1339741,-0.02864977
1.021191,0.1320684,-0.03086878
1.0328,0.1259566,-0.02999981
1.023845,0.1230205,-0.0274386
1.013524,0.1237576,-0.02283251
1.005272,0.1255502,-0.02237879
1.002596,0.1320324,-0.02997691
1.009902,0.1341308,-0.03408439
1.014079,0.1235894,-0.02641858
1.023181,0.1083617,-0.01688641
1.024002,0.1084561,-0.01899383
1.012177,0.119758,-0.02314519
1.008197,0.1238501,-0.02139078
1.007064,0.1239854,-0.02303779
1.012634,0.1206598,-0.02426445
1.020091,0.1179245,-0.02474068
1.015412,0.1212964,-0.02520208
1.011841,0.1250067,-0.01942047
1.010371,0.1309577,-0.01597648
1.008684,0.1320305,-0.01801851
1.012308,0.1281003,-0.02566099
1.013146,0.1295148,-0.03649965
1.012057,0.1295042,-0.0371496
1.01279,0.1295604,-0.03134138
1.012839,0.1314179,-0.02858486
1.01526,0.1296894,-0.02849892
1.016836,0.1278184,-0.0276768
1.01323,0.1263409,-0.02485753
1.009622,0.128483,-0.02629961
1.011527,0.131855,-0.03215408
1.016064,0.1286578,-0.0372487
1.01884,0.1254406,-0.03794249
1.020243,0.1227372,-0.03339895
1.017737,0.1170438,-0.03069351
1.01357,0.1171594,-0.03303093
1.012073,0.1212353,-0.03670469
1.01223,0.1209075,-0.03661863
1.014907,0.1211503,-0.03267541
1.01585,0.1242432,-0.03363363
1.01489,0.1272128,-0.03658024
1.015589,0.1288596,-0.03344957
1.015059,0.1263575,-0.03124965
1.015301,0.1218467,-0.03003342
1.015135,0.1175948,-0.02804482
1.013121,0.1168004,-0.03160565
1.012674,0.1204003,-0.03310659
1.014049,0.1204415,-0.03201676
1.017102,0.1204354,-0.03413464
1.017179,0.1217855,-0.0332574
1.015956,0.1200243,-0.0329501
1.017169,0.1210477,-0.03369982
1.01652,0.1212323,-0.03160334
1.016319,0.1204731,-0.03015875
1.016115,0.123273,-0.02796308
1.015194,0.1233081,-0.02627423
1.018072,0.1208648,-0.02482355
1.019539,0.1177223,-0.02500322
1.015075,0.1171702,-0.03033123
1.011035,0.119747,-0.03273802
1.013971,0.1211649,-0.03027627
1.017551,0.1240199,-0.02967687
1.017323,0.1218918,-0.03608614
1.01955,0.1173813,-0.04217903
1.018541,0.1208123,-0.03410408
1.013825,0.1218295,-0.02332581
1.014599,0.1194191,-0.02295047
1.015272,0.118583,-0.02590577
1.015644,0.1158326,-0.02851485
1.01772,0.1161192,-0.03079071
1.015817,0.1175807,-0.03222577
1.013649,0.1157777,-0.03121021
1.0121,0.1152139,-0.02785878
1.010974,0.1153211,-0.02786115
1.013261,0.115698,-0.03071917
1.016043,0.1158629,-0.03261529
1.018332,0.1158079,-0.03290826
1.015259,0.1216852,-0.0339471
1.010131,0.1268048,-0.03613017
1.012777,0.1224404,-0.03095953
1.013502,0.1189769,-0.02322826
1.011347,0.1212116,-0.02347398
1.013493,0.1219606,-0.02066136
1.014295,0.1228403,-0.01431787
1.015029,0.1260611,-0.01781808
1.013892,0.1250053,-0.02614738
1.009361,0.1212655,-0.03068214
1.009288,0.1206697,-0.02978745
1.011206,0.1205442,-0.0260892
1.014797,0.120943,-0.02612843
1.019873,0.1211352,-0.02721491
1.018438,0.1206826,-0.02854047
1.015888,0.1226408,-0.03398701
1.016947,0.1226856,-0.03519381
1.015755,0.1221836,-0.03181071
1.014121,0.1248522,-0.03290428
1.012927,0.1257443,-0.03413223
1.010778,0.1247121,-0.03199092
1.0137,0.1247884,-0.03144916
1.018707,0.1253442,-0.03197653
1.018255,0.1243136,-0.03003335
1.016725,0.1221821,-0.02849338
1.016466,0.1201527,-0.02957636
1.015412,0.1191416,-0.03111527
1.014293,0.1188522,-0.03240588
1.013475,0.1165643,-0.03213159
1.013879,0.1163056,-0.03139054
1.014164,0.1183621,-0.03128477
1.013792,0.1189685,-0.03043904
1.015255,0.1208298,-0.03123336
1.017044,0.1211987,-0.0325576
1.017111,0.1204617,-0.03150333
1.016517,0.1207884,-0.02993749
1.017082,0.1188437,-0.02885353
1.017094,0.117554,-0.02904004
1.015085,0.1188557,-0.03291843
1.015103,0.1227061,-0.04325579
1.01546,0.1264044,-0.05141474
1.013792,0.1249317,-0.03923454
1.012818,0.1224326,-0.02184377
1.011398,0.1222672,-0.02572998
1.011591,0.122997,-0.03143046
1.013125,0.1236149,-0.02891128
1.012558,0.121973,-0.03186931
1.013267,0.120161,-0.03100522
1.014334,0.1216676,-0.03067685
1.014028,0.1229821,-0.03403259
1.014509,0.1221074,-0.03068953
1.014501,0.1229938,-0.03196473
1.01273,0.1241745,-0.03400933
1.010921,0.123288,-0.03116082
1.011073,0.1226214,-0.02896565
1.011398,0.122084,-0.0243046
1.011997,0.1218563,-0.03032238
1.013874,0.1215616,-0.03950536
1.014136,0.1204578,-0.03332736
1.013604,0.1205079,-0.02616163
1.013203,0.1202567,-0.02314368
1.013248,0.1189731,-0.02546521
1.015039,0.119336,-0.03291241
1.015067,0.1197858,-0.03252772
1.011527,0.1197276,-0.03086947
1.008537,0.1221637,-0.03181586
1.009444,0.1245582,-0.03039603
1.010853,0.1235741,-0.03332699
1.011041,0.1222179,-0.0369363
1.013172,0.1222361,-0.03564454
1.014162,0.1219903,-0.03322442
1.014244,0.1213,-0.03119097
1.015884,0.1206679,-0.03167267
1.014054,0.1206252,-0.03234905
1.01146,0.1214229,-0.03052229
1.011942,0.1227574,-0.02938478
1.012642,0.1249043,-0.02971798
1.013932,0.1256901,-0.03350098
1.014909,0.124917,-0.04050683
1.015256,0.1267807,-0.04207825
1.014518,0.1284449,-0.03509347
1.012464,0.1265738,-0.0298842
1.013056,0.124477,-0.03352657
1.013478,0.1221446,-0.03654226
1.012104,0.120753,-0.03404895
1.012759,0.1241761,-0.03361351
1.01446,0.1274572,-0.03246514
1.015766,0.1237231,-0.02982612
1.015462,0.1195411,-0.03204948
1.0147,0.1209612,-0.03126721
1.01482,0.1210966,-0.02797192
1.014308,0.1195901,-0.02981134
1.014416,0.1204037,-0.02931207
1.013923,0.1209296,-0.02896234
1.012102,0.1210058,-0.03267692
1.010749,0.1209367,-0.03367708
1.009509,0.1217551,-0.03396209
1.011541,0.1236579,-0.03583812
1.015457,0.1239568,-0.04085942
1.015833,0.1244447,-0.04428243
1.015935,0.1252992,-0.03717753
1.017408,0.1250295,-0.02884578
1.018479,0.1249157,-0.0273559
1.019314,0.1246378,-0.03005225
1.016881,0.123287,-0.03383184
1.012608,0.1216208,-0.03660083
1.010806,0.1218091,-0.04052504
1.009675,0.1216615,-0.04196414
1.010354,0.1193438,-0.03876218
1.013914,0.1194207,-0.03571611
1.01538,0.121557,-0.03521267
1.015191,0.1226042,-0.03613137
1.015343,0.1224656,-0.03551689
1.013995,0.1216779,-0.03767945
1.012919,0.1212731,-0.03985107
1.013016,0.1198296,-0.0355932
1.013105,0.1198471,-0.03443107
1.012645,0.1251325,-0.03854274
1.011985,0.1294592,-0.04124585
1.01243,0.1281743,-0.03914024
1.010857,0.1260742,-0.03401719
1.008763,0.1244867,-0.03291632
1.009907,0.1205021,-0.03413538
1.009967,0.1195249,-0.03474274
1.009412,0.1216822,-0.03327895
1.010643,0.1187522,-0.03074147
1.013213,0.1169665,-0.03218063
1.016364,0.1194186,-0.03237293
1.015756,0.1213909,-0.03186542
1.014554,0.1250167,-0.03544744
1.016654,0.1260536,-0.03889138
1.016863,0.1257768,-0.04145511
1.014742,0.1271499,-0.04098355
1.011622,0.1250423,-0.03612165
1.008825,0.1244944,-0.03200899
1.011227,0.1251689,-0.03343078
1.013911,0.1228098,-0.03671729
1.012478,0.1222307,-0.03600289
1.014087,0.1238314,-0.03762736
1.017282,0.1255646,-0.03945056
1.016613,0.1244057,-0.03707581
1.01551,0.1225996,-0.03773253
1.015187,0.1233348,-0.03744271
1.0151,0.1201692,-0.03605988
1.015128,0.1169009,-0.03672806
1.013595,0.1198371,-0.03638924
1.012779,0.1225008,-0.0375241
1.01426,0.1233371,-0.03498433
1.015195,0.1250337,-0.03064231
1.014819,0.1238008,-0.03117575
1.013653,0.1200281,-0.0304927
1.011947,0.1204594,-0.0309113
1.012316,0.1219631,-0.03473968
1.013808,0.1220007,-0.03779428
1.013156,0.1240007,-0.03707232
1.013457,0.1220703,-0.03054516
1.015998,0.1185418,-0.02649684
1.017286,0.1203019,-0.0302938
1.016758,0.1231749,-0.03456277
1.016102,0.1258415,-0.03358832
1.015648,0.125671,-0.03299258
1.013297,0.1238055,-0.03672769
1.011382,0.1246114,-0.03797207
1.011892,0.1236828,-0.03622252
1.011017,0.1240317,-0.03400896
1.010868,0.1270816,-0.03196262
1.012458,0.1273048,-0.0306049
1.012917,0.1278374,-0.02702629
1.014345,0.1278232,-0.02718766
1.015452,0.1255016,-0.03169648
1.013606,0.1249088,-0.0344792
1.011701,0.125705,-0.04228008
1.012714,0.1263025,-0.04903928
1.014829,0.1239056,-0.04068809
1.015082,0.1212616,-0.03195971
1.013716,0.1244327,-0.03645497
1.01217,0.127708,-0.0379347
1.013933,0.1272946,-0.03428952
1.016189,0.1268499,-0.03697273
1.013248,0.1270791,-0.03748664
1.011506,0.1274203,-0.03725299
1.012882,0.1276601,-0.04052221
1.012532,0.1283951,-0.03739319
1.012361,0.1295415,-0.03079657
1.012597,0.1297911,-0.0280743
1.012456,0.1257127,-0.03259477
1.012532,0.1208979,-0.0376293
1.012455,0.1261957,-0.03668678
1.012551,0.1320834,-0.03917271
1.01211,0.128419,-0.03998456
1.010707,0.1269985,-0.03641913
1.009226,0.1266681,-0.03698341
1.009435,0.1228507,-0.03628909
1.010207,0.1231186,-0.03730963
1.009658,0.123346,-0.04025709
1.011241,0.1221551,-0.03889124
1.015233,0.1264365,-0.04036846
1.01742,0.1318255,-0.04269829
1.016118,0.1323231,-0.0411538
1.014317,0.1289581,-0.03962478
1.015115,0.1267048,-0.0385642
1.013918,0.1276741,-0.03864357
1.011377,0.1272883,-0.03920949
1.012459,0.1261227,-0.0389574
1.012029,0.1281648,-0.04040265
1.010354,0.1300228,-0.04427699
1.011819,0.1289428,-0.0465877
1.013969,0.1279144,-0.04424569
1.015856,0.1280004,-0.0418717
1.015748,0.1286604,-0.04319827
1.014616,0.1304188,-0.04302941
1.015556,0.1308502,-0.03947434
1.015268,0.1293728,-0.03650413
1.013828,0.1289425,-0.03538337
1.012682,0.1289861,-0.03601534
1.010231,0.1283275,-0.03562992
1.009526,0.1278857,-0.03398517
1.011797,0.1297128,-0.03535355
1.014011,0.1332022,-0.03773397
1.014519,0.1339477,-0.03892327
1.014436,0.1326901,-0.03735601
1.015592,0.1315517,-0.03308715
1.01558,0.1297348,-0.03275944
1.014449,0.1284994,-0.03441028
1.013779,0.1276624,-0.03567191
1.011782,0.1277146,-0.03809779
1.011174,0.1299128,-0.03607577
1.011708,0.1307398,-0.03356199
1.011499,0.1287301,-0.03628546
1.012767,0.1271004,-0.03852428
1.011931,0.1276273,-0.03783054
1.011118,0.1282301,-0.03270812
1.015912,0.1276888,-0.02624912
1.019014,0.1296781,-0.02861544
1.015404,0.1350733,-0.03540137
1.011439,0.1382529,-0.03685258
1.01208,0.1337752,-0.03619544
1.012332,0.1260123,-0.0364669
1.010267,0.1244519,-0.03864741
1.011496,0.1256426,-0.04128535
1.013366,0.1261988,-0.03869982
1.013897,0.1304591,-0.03443067
1.01443,0.1330074,-0.03270637
1.01344,0.1310033,-0.0328598
1.013898,0.1299015,-0.03400839
1.014259,0.1304521,-0.03346382
1.013233,0.1298279,-0.03536007
1.013317,0.1276413,-0.0398685
1.012365,0.1275012,-0.04052294
1.01308,0.1280662,-0.03834912
1.014511,0.1275465,-0.03563378
1.012722,0.1279289,-0.03478338
1.012465,0.1275573,-0.03515651
1.014443,0.1269859,-0.03518414
1.015799,0.1271745,-0.03663463
1.01534,0.1277556,-0.0359381
1.013723,0.1282323,-0.03362069
1.012643,0.127424,-0.03235741
1.01039,0.1277795,-0.0318059
1.009005,0.1277075,-0.03483656
1.010443,0.1256295,-0.03790844
1.012688,0.1254082,-0.03883249
1.015459,0.1283304,-0.03892055
1.0147,0.1315517,-0.03564842
1.00848,0.1288721,-0.03483328
1.004655,0.1243232,-0.03763758
1.009651,0.1249831,-0.03787173
1.016114,0.1251906,-0.03974216
1.015051,0.1250504,-0.04153566
1.014306,0.1274901,-0.03951664
1.016408,0.1298517,-0.04023433
1.014438,0.1313868,-0.04104115
1.013021,0.1301203,-0.04031908
1.0116,0.1277793,-0.04144921
1.009058,0.1247293,-0.03957912
1.010423,0.1204926,-0.03695612
1.011532,0.1203633,-0.0360502
1.01265,0.1223589,-0.03590853
1.013277,0.125905,-0.03957053
1.01217,0.1309376,-0.04182531
1.01553,0.1296229,-0.04066784
1.01757,0.1267525,-0.0383392
1.015481,0.1273799,-0.03374177
1.015334,0.1253867,-0.0335984
1.016954,0.1223253,-0.04491417
1.018343,0.1213283,-0.05609532
1.015287,0.1244666,-0.04679572
1.011611,0.1299334,-0.03409045
1.012624,0.1282597,-0.03911277
1.013664,0.1261504,-0.03847607
1.013994,0.1290236,-0.03468318
1.014212,0.1275556,-0.04261586
1.01458,0.1271431,-0.04296858
1.015499,0.1287163,-0.03944433
1.014465,0.1270685,-0.03866168
1.013369,0.1279789,-0.03297656
1.013947,0.1282446,-0.03376311
1.013902,0.1281176,-0.04274947
1.012818,0.1297957,-0.04968709
1.012264,0.1277229,-0.05001796
1.012483,0.125499,-0.04633775
1.012575,0.1252481,-0.04443152
1.012489,0.127347,-0.04024063
1.01245,0.130141,-0.03645507
1.012906,0.1274042,-0.03578035
1.014286,0.1257131,-0.03344709
1.015771,0.1294428,-0.03574555
1.015568,0.1312225,-0.04012226
1.014446,0.1285895,-0.041818
1.013709,0.1251675,-0.04294677
1.012074,0.1226643,-0.04047991
1.011987,0.1204052,-0.04062846
1.013188,0.1219564,-0.04089894
1.012186,0.1261552,-0.03804673
1.012344,0.1288046,-0.03952209
1.012918,0.1328977,-0.03878555
1.012102,0.1330144,-0.03796197
1.012865,0.1283212,-0.03787581
1.013639,0.1280999,-0.03400558
1.014995,0.1271952,-0.03548699
1.016823,0.126557,-0.03692261
1.016474,0.1306126,-0.03575732
1.015456,0.1309948,-0.03752194
1.013251,0.1299054,-0.03844543
1.011705,0.1290305,-0.03934779
1.013042,0.1278109,-0.03871287
1.014457,0.1323144,-0.03762106
1.015253,0.1354921,-0.0378917
1.01382,0.1304713,-0.03792281
1.011523,0.1255866,-0.03948747
1.012819,0.1276437,-0.0390217
1.014812,0.1304962,-0.03853472
1.015379,0.1338381,-0.04030908
1.015609,0.1404252,-0.04027147
1.015204,0.1356112,-0.04019063
1.016112,0.1272051,-0.03939833
1.017039,0.1303298,-0.03825303
1.015247,0.1271302,-0.03815728
1.01312,0.120795,-0.03722121
1.012039,0.1242397,-0.03789046
1.012325,0.1260362,-0.04044199
1.012908,0.1279452,-0.04230587
1.012243,0.1321889,-0.04204172
1.012479,0.1295591,-0.04106906
1.012719,0.1229553,-0.04174464
1.012244,0.1178364,-0.04093905
1.01284,0.1172338,-0.03963139
1.013558,0.1219461,-0.04049107
1.014945,0.1251753,-0.04055115
1.015819,0.125823,-0.04061035
1.015039,0.1260529,-0.04033185
1.015235,0.1244984,-0.03835295
1.014731,0.1249202,-0.03847864
1.011544,0.1264724,-0.03927913
1.009435,0.1263663,-0.03775439
1.012854,0.1275501,-0.0379928
1.017163,0.1279877,-0.04215009
1.014998,0.1273152,-0.04507136
1.012438,0.1259625,-0.04136053
1.012865,0.123,-0.03682121
1.01221,0.1218526,-0.03802035
1.013651,0.1225461,-0.03550691
1.015606,0.1246977,-0.03046198
1.016005,0.1259492,-0.03674454
1.016869,0.1244616,-0.043771
1.014651,0.1249366,-0.04057284
1.01213,0.1257697,-0.03698684
1.012435,0.1263593,-0.03523757
1.01286,0.12837,-0.03327268
1.014558,0.1269443,-0.03535103
1.016467,0.124791,-0.03880617
1.01622,0.1257744,-0.03687689
1.014844,0.1259657,-0.03565979
1.014982,0.1256448,-0.04129193
1.015807,0.1268292,-0.04433977
1.014955,0.1284766,-0.04192671
1.015244,0.1293234,-0.0399273
1.015218,0.1284471,-0.03789044
1.012955,0.1271008,-0.03266958
1.011123,0.126457,-0.02715389
1.009871,0.1243028,-0.02982641
1.010511,0.1212865,-0.03457217
1.011688,0.1222563,-0.03469741
1.011924,0.125324,-0.03672546
1.012764,0.1254398,-0.03666734
1.012594,0.124652,-0.03548322
1.012304,0.1254063,-0.03859765
1.012822,0.1269176,-0.03913468
1.01333,0.1283683,-0.03784998
1.013996,0.1287414,-0.03735665
1.013111,0.128372,-0.03715804
1.011643,0.1284311,-0.03849449
1.011096,0.1283832,-0.03995708
1.011173,0.1276888,-0.04129249
1.012654,0.127544,-0.03698095
1.013162,0.1279512,-0.03212287
1.012502,0.1274321,-0.0403691
1.015184,0.1253384,-0.04746736
1.017692,0.1215187,-0.04146541
1.015667,0.1179975,-0.03812023
1.014581,0.1182596,-0.04114852
1.015576,0.1222754,-0.04060895
1.01532,0.1264597,-0.03951304
1.015132,0.1272656,-0.04172801
1.015369,0.1260587,-0.04464778
1.014918,0.1272047,-0.04812163
1.013449,0.1279092,-0.04639867
1.012165,0.1248351,-0.03972192
1.013366,0.1232625,-0.0378574
1.015786,0.1261783,-0.03781822
1.017288,0.1284791,-0.03643917
1.018567,0.1252393,-0.03594135
1.019283,0.1225491,-0.03579806
1.018564,0.1269333,-0.0374131
1.016127,0.1310982,-0.04044784
1.012773,0.1316627,-0.04417544
1.012873,0.1316337,-0.044047
1.013242,0.1289039,-0.04071011
1.009969,0.1250648,-0.03927394
1.010886,0.1244266,-0.03507466
1.013084,0.1264052,-0.03466746
1.012082,0.1284146,-0.03749921
1.013744,0.1313934,-0.03213017
1.014106,0.134756,-0.02900916
1.012608,0.1339675,-0.02903674
1.012587,0.131664,-0.02703132
1.012315,0.1312946,-0.02869847
1.013663,0.1316516,-0.03137998
1.014034,0.1322823,-0.03550331
1.012768,0.1309549,-0.03996818
1.012259,0.1299235,-0.04230598
1.011667,0.1307618,-0.04267162
1.012746,0.1293973,-0.04031984
1.013749,0.1278598,-0.04107103
1.013845,0.1276541,-0.04029975
1.013945,0.1276281,-0.03731891
1.012971,0.1280344,-0.03782745
1.013001,0.1276251,-0.03533499
1.013416,0.128094,-0.03226751
1.012935,0.129935,-0.03123722
1.012455,0.1315845,-0.03570258
1.012282,0.1316984,-0.04286717
1.012658,0.1299426,-0.0364966
1.012511,0.1301744,-0.02997093
1.012382,0.1300379,-0.03270435
1.013336,0.1273729,-0.03203391
1.016013,0.1266423,-0.03361766
1.018782,0.1265439,-0.0394132
1.016745,0.1269963,-0.04298648
1.013671,0.1281956,-0.04291556
1.014788,0.1268334,-0.0432889
1.015269,0.1263953,-0.04847767
1.015648,0.1301334,-0.05009769
1.017246,0.1358979,-0.05011778
1.014757,0.1390853,-0.0521774
1.012668,0.1367441,-0.04760082
1.013421,0.1330222,-0.04092174
1.011889,0.130216,-0.03395581
1.010417,0.127576,-0.02805439
1.009947,0.1255597,-0.03137061
1.011028,0.1224457,-0.03337025
1.013171,0.1204662,-0.02969908
1.010796,0.1206583,-0.02859462
1.008551,0.1189234,-0.02827503
1.010059,0.1183746,-0.03084102
1.009948,0.1232163,-0.03537623
1.009196,0.1300879,-0.034947
1.009218,0.1320011,-0.03406211
1.00929,0.1289154,-0.03465754
1.011934,0.1290551,-0.0351116
1.015265,0.1314617,-0.03957358
1.015657,0.131971,-0.0424763
1.015138,0.1308641,-0.03789923
1.015272,0.1272324,-0.03361921
1.015287,0.1255033,-0.03486738
1.014771,0.1269217,-0.03814294
1.012563,0.1282951,-0.03935291
1.010295,0.1296483,-0.0390284
1.011007,0.1293271,-0.03927579
1.01257,0.128821,-0.04144717
1.012512,0.1293842,-0.04361577
1.013006,0.1278863,-0.04015018
1.015296,0.1228385,-0.03561558
1.017329,0.1176226,-0.03526879
1.017085,0.1193578,-0.03347287
1.015706,0.1244901,-0.03020802
1.01471,0.1257291,-0.0299161
1.011653,0.1269316,-0.0310755
1.008827,0.1282882,-0.03052919
1.0089,0.1277056,-0.03075161
1.007242,0.1281149,-0.03381369
1.00786,0.1295533,-0.03657359
1.016006,0.1310897,-0.0386235
1.024398,0.1299728,-0.04022899
1.024971,0.1247947,-0.04218027
1.02012,0.1186786,-0.04545651
1.018559,0.1141227,-0.04734635
1.018166,0.1120217,-0.0467694
1.016355,0.1089652,-0.04486456
1.014345,0.1073808,-0.04162238
1.009749,0.113468,-0.03784563
1.011036,0.1251629,-0.03979242
1.014895,0.1349841,-0.0433969
1.013089,0.1301536,-0.03837387
1.014749,0.1221976,-0.03302288
1.014706,0.1286897,-0.03062922
1.012784,0.1303898,-0.02926132
1.016654,0.127076,-0.03317572
1.016427,0.1297709,-0.03852048
1.012504,0.1271229,-0.04443493
1.00919,0.1266248,-0.04231303
1.006829,0.12705,-0.03268696
1.008095,0.121498,-0.03445028
1.010281,0.1220837,-0.04197038
1.014208,0.1236287,-0.04674839
1.014642,0.1235069,-0.04413328
1.012763,0.124958,-0.03705641
1.01724,0.1237962,-0.04259702
1.017657,0.1236647,-0.04532685
1.014888,0.1233225,-0.04047826
1.014784,0.1225527,-0.041059
1.010981,0.1225716,-0.03614341
1.009173,0.1227021,-0.03355636
1.009213,0.125257,-0.03663586
1.01008,0.1253343,-0.03742847
1.014973,0.1245299,-0.04145869
1.014351,0.1256145,-0.04011945
1.011839,0.1256007,-0.03714346
1.01307,0.1267424,-0.03896061
1.011993,0.126627,-0.03436316
1.011514,0.1259108,-0.03028523
1.011264,0.1264278,-0.03323625
1.010861,0.124437,-0.03603675
1.013433,0.1231844,-0.0370898
1.014293,0.1246632,-0.04029274
1.013849,0.1270761,-0.04568486
1.013915,0.1302985,-0.04509523
1.01371,0.1315399,-0.03966144
1.014315,0.1262127,-0.03766815
1.014633,0.1195164,-0.03526537
1.015505,0.1217624,-0.03163926
1.015422,0.124532,-0.03385718
1.013903,0.1239483,-0.03705901
1.013922,0.1291748,-0.03729153
1.013771,0.1300161,-0.03819791
1.013878,0.1242351,-0.03720328
1.014442,0.1236005,-0.03710403
1.0154,0.1260716,-0.03845551
1.017417,0.1288207,-0.03791841
1.016307,0.128668,-0.04024301
1.013443,0.1284001,-0.04043552
1.012105,0.1312004,-0.03689712
1.012057,0.1271401,-0.03612001
1.012825,0.1232914,-0.03759249
1.011514,0.1273226,-0.04136015
1.01107,0.1286788,-0.0434607
1.014113,0.1274987,-0.04391407
1.016016,0.1272883,-0.04272746
1.015524,0.1261311,-0.03859398
1.01427,0.1245059,-0.03992269
1.013276,0.124578,-0.04019115
1.013223,0.1256333,-0.03607543
1.015372,0.1247018,-0.03738366
1.016328,0.1248412,-0.03780762
1.01343,0.1256094,-0.03553816
1.013589,0.1261809,-0.03636355
1.014562,0.1304527,-0.03925196
1.012836,0.1323,-0.04205246
1.012498,0.1274516,-0.04091336
1.010795,0.1232099,-0.03582182
1.011551,0.1246876,-0.03110737
1.014812,0.1261682,-0.03297105
1.01453,0.1240208,-0.04012804
1.01515,0.1242796,-0.04224237
1.01389,0.1251859,-0.03821968
1.010971,0.1265925,-0.03471321
1.010978,0.1308661,-0.03666751
1.009441,0.1306376,-0.0387743
1.009149,0.1279315,-0.0354978
1.010556,0.1258631,-0.03390069
1.010854,0.1239326,-0.03408193
1.014337,0.1253329,-0.03635251
1.018257,0.1252915,-0.04141909
1.017759,0.1244652,-0.03967886
1.014276,0.1256337,-0.03668378
1.011382,0.1256818,-0.03773672
1.012703,0.1266157,-0.03643973
1.015962,0.1267144,-0.03576707
1.016522,0.1260903,-0.03624762
1.014194,0.1275957,-0.03602489
1.011479,0.1280009,-0.03570019
1.012089,0.1273761,-0.03329911
1.013408,0.1258302,-0.03172867
1.012311,0.1233005,-0.03434233
1.014199,0.1225331,-0.03742573
1.016341,0.1235946,-0.03646111
1.014569,0.1264704,-0.0361346
1.013386,0.128621,-0.03811325
1.012564,0.1269698,-0.03550496
1.013836,0.1257466,-0.03272624
1.016051,0.1275581,-0.0338361
1.013408,0.1278979,-0.03524113
1.011116,0.1257359,-0.03773714
1.010988,0.1248549,-0.03895598
1.00955,0.1266412,-0.03851535
1.010148,0.1286353,-0.03828475
1.01208,0.1278831,-0.0368883
1.012321,0.1273922,-0.03644867
1.014148,0.1291313,-0.03624397
1.016529,0.1293377,-0.03514747
1.016012,0.1285242,-0.03373561
1.016685,0.1266162,-0.03183773
1.018188,0.1247312,-0.03514671
1.017469,0.1283818,-0.04038897
1.016474,0.1318896,-0.03874722
1.014421,0.1286178,-0.03608754
1.012995,0.1253661,-0.03534429
1.012712,0.1256135,-0.03402394
1.012044,0.1251562,-0.03484985
1.013731,0.125442,-0.03525299
1.014365,0.1271099,-0.03513157
1.013638,0.1265255,-0.03670232
1.015079,0.1269049,-0.03618423
1.015441,0.1284797,-0.03570305
1.014578,0.1279955,-0.03596902
1.011738,0.129894,-0.03323771
1.008455,0.1340583,-0.03110073
1.009892,0.1353847,-0.03232232
1.012177,0.1336207,-0.03541284
1.012277,0.1317783,-0.03872377
1.010924,0.1318789,-0.04066056
1.008988,0.1320154,-0.04151618
1.009864,0.1322065,-0.04244016
1.01206,0.1338501,-0.04266809
1.012524,0.1346332,-0.04130438
1.011794,0.1322901,-0.04132704
1.010866,0.1295439,-0.04200983
1.012,0.1312353,-0.04028851
1.01409,0.1328509,-0.03891178
1.013454,0.1303708,-0.0371531
1.011089,0.1290928,-0.0330958
1.0094,0.1283218,-0.02927081
1.011037,0.1271928,-0.02821579
1.01378,0.1279847,-0.0296547
1.012389,0.1285856,-0.02932202
1.011876,0.1311344,-0.02867938
1.013199,0.134268,-0.02961152
1.012136,0.1315036,-0.02952196
1.012448,0.127406,-0.03173648
1.013182,0.1274877,-0.03443621
1.013729,0.1280522,-0.03371491
1.015185,0.1279678,-0.03503083
1.013778,0.129632,-0.03874116
1.013061,0.1309442,-0.03999784
1.013625,0.129787,-0.03996202
1.011648,0.1285921,-0.03945714
1.010445,0.129175,-0.03382781
1.009887,0.1296648,-0.02702401
1.010209,0.1302984,-0.02786404
1.012751,0.1335882,-0.03253272
1.013215,0.1356059,-0.03675609
1.014381,0.133707,-0.03865079
1.018815,0.1327321,-0.03617041
1.019838,0.1335098,-0.03619616
1.016578,0.1331211,-0.04019318
1.013889,0.1311732,-0.04216359
1.013703,0.1286542,-0.04013275
1.014037,0.1264286,-0.03604364
1.013708,0.1257813,-0.03366099
1.01458,0.1263293,-0.03256057
1.01619,0.1247298,-0.03650499
1.017121,0.1223958,-0.04386392
1.015474,0.1227415,-0.04229565
1.012667,0.12495,-0.03966268
1.012374,0.1280561,-0.04093817
1.012706,0.1286116,-0.03716131
1.014327,0.1266496,-0.03669871
1.015885,0.1261872,-0.03949919
1.014028,0.1247848,-0.03851936
1.012606,0.1242537,-0.03941487
1.012284,0.1258219,-0.04081654
1.012461,0.1248697,-0.04146854
1.012734,0.1254452,-0.04034983
1.012059,0.1265168,-0.03657115
1.011943,0.1250331,-0.03600459
