accx,accy,accz
1.014795,0.07382039,-0.09936822
1.013965,0.07330784,-0.09655721
1.01751,0.07716516,-0.09271424
1.020657,0.07895661,-0.09365747
1.019664,0.08053712,-0.09551194
1.017475,0.08486738,-0.09553164
1.017527,0.0849602,-0.09980508
1.017392,0.08343192,-0.102254
1.018184,0.08110172,-0.09799114
1.020622,0.07976044,-0.09306273
1.020078,0.07971622,-0.08958676
1.017495,0.0779113,-0.08655263
1.014413,0.07767876,-0.08480735
1.015862,0.07868706,-0.09130475
1.020983,0.07952124,-0.1009113
1.021017,0.07876374,-0.1013163
1.020573,0.07609411,-0.09995963
1.020047,0.07453781,-0.1010348
1.017757,0.07453479,-0.09719198
1.018364,0.0757113,-0.09263002
1.018825,0.07636491,-0.09448359
1.019662,0.07894699,-0.09735872
1.019851,0.08237472,-0.09701121
1.01881,0.08209954,-0.09761771
1.0199,0.08337447,-0.09840151
1.018826,0.08435177,-0.09936891
1.016865,0.08359547,-0.1001096
1.01667,0.08635646,-0.09610135
1.01807,0.08760446,-0.09440973
1.019996,0.08703495,-0.1009068
1.019012,0.08683526,-0.1073621
1.019078,0.08380486,-0.1058646
1.018509,0.07984642,-0.101206
1.01724,0.07675213,-0.1002575
1.020239,0.07706286,-0.09877935
1.020026,0.0788685,-0.0979934
1.018136,0.07694614,-0.09871
1.018283,0.07569743,-0.09552256
1.016008,0.07567187,-0.09367422
1.016378,0.07776508,-0.09548697
1.01817,0.0850816,-0.1006702
1.01658,0.08777952,-0.1075773
1.014755,0.0851637,-0.1070439
1.013299,0.08423496,-0.1028185
1.014004,0.08299677,-0.1035958
1.01625,0.08337603,-0.1051997
1.016815,0.08555657,-0.103542
1.016905,0.08641498,-0.1029543
1.016512,0.08580395,-0.1033782
1.016712,0.08312111,-0.1029966
1.017693,0.08121659,-0.1053195
1.017523,0.08177257,-0.1071542
1.018183,0.08231993,-0.1078342
1.018918,0.08201118,-0.1066771
1.017703,0.0826536,-0.1031476
1.01591,0.08370468,-0.107558
1.014884,0.08220545,-0.111844
1.015394,0.08053394,-0.1080969
1.016334,0.08064683,-0.1077445
1.016866,0.08136446,-0.1088185
1.016769,0.08235717,-0.1077511
1.016643,0.08199307,-0.1066226
1.017517,0.08184936,-0.1047911
1.01742,0.08290643,-0.1041342
1.016243,0.08260961,-0.1024999
1.015575,0.08156355,-0.1006826
1.015216,0.08102552,-0.1026354
1.015516,0.08137312,-0.1061592
1.017122,0.08211853,-0.1105068
1.018666,0.08209012,-0.1149901
1.018339,0.08181902,-0.1154665
1.018585,0.08174371,-0.1140766
1.019789,0.08115847,-0.1127716
1.018628,0.08020328,-0.1084877
1.017635,0.0804371,-0.1074126
1.019091,0.08049817,-0.1112269
1.019875,0.07908872,-0.1123343
1.019167,0.07994412,-0.1124815
1.018448,0.08266334,-0.1118269
1.017729,0.0825174,-0.110043
1.016822,0.08159617,-0.1095852
1.01587,0.08391724,-0.1087773
1.015563,0.08522377,-0.1125012
1.016415,0.08232972,-0.118403
1.017321,0.07947975,-0.1177951
1.018937,0.0784614,-0.1159493
1.020333,0.07828956,-0.1144077
1.018787,0.07799509,-0.1118812
1.017342,0.07843252,-0.1148439
1.01667,0.08047679,-0.1180455
1.015876,0.0803963,-0.114565
1.016255,0.0799622,-0.1120442
1.015029,0.08117556,-0.1108177
1.014734,0.08058182,-0.1072695
1.015833,0.08116065,-0.1078533
1.013964,0.08300685,-0.1113408
1.013562,0.08336204,-0.1137626
1.014181,0.08456534,-0.114473
1.013793,0.08497689,-0.1099108
1.015011,0.08449398,-0.1100247
1.015443,0.08492753,-0.1177843
1.015324,0.08442825,-0.1181129
1.015627,0.08361669,-0.1140072
1.017094,0.08233424,-0.111957
1.019732,0.08099437,-0.1109288
1.01939,0.08077181,-0.111008
1.0172,0.08048161,-0.1079422
1.015358,0.08203748,-0.1108735
1.014753,0.08281747,-0.1163999
1.015605,0.08117415,-0.1113175
1.01526,0.08209181,-0.1100247
1.015104,0.08233672,-0.1129959
1.01549,0.08120105,-0.1111495
1.01549,0.08144711,-0.107473
1.017107,0.08003363,-0.1025066
1.018642,0.07969836,-0.105048
1.018187,0.08122808,-0.1113581
1.017898,0.0819901,-0.1139125
1.018926,0.08245361,-0.1192484
1.018917,0.08159635,-0.120619
1.017322,0.08164771,-0.1119393
1.016119,0.08131633,-0.1020023
1.015013,0.07893865,-0.1017382
1.014903,0.07935341,-0.1090223
1.015695,0.08133148,-0.1120154
1.015158,0.08335829,-0.1130223
1.01511,0.08491414,-0.1144859
1.015549,0.08435784,-0.1133605
1.015085,0.08397625,-0.11195
1.015311,0.08329392,-0.1096892
1.015917,0.08404641,-0.1091414
1.017798,0.08658179,-0.1102263
1.02039,0.08707681,-0.1094826
1.019365,0.08693677,-0.1097266
1.016989,0.0841915,-0.1103972
1.016527,0.08081749,-0.1122076
1.016475,0.08356415,-0.1154216
1.016798,0.08589069,-0.1160602
1.016762,0.0831226,-0.1145273
1.016437,0.08091601,-0.1103054
1.016858,0.08039092,-0.1055119
1.016624,0.08047885,-0.1045063
1.016559,0.08170321,-0.1054218
1.017203,0.08221234,-0.1063863
1.018302,0.08184202,-0.1072576
1.01969,0.08198359,-0.1085405
1.017921,0.08191907,-0.1091468
1.015944,0.08158305,-0.1091549
1.018571,0.08021238,-0.113284
1.020407,0.07870735,-0.1179116
1.018697,0.07993553,-0.118065
1.016343,0.08120026,-0.1155431
1.013851,0.08061538,-0.1098033
1.013358,0.08123202,-0.105879
1.015777,0.08263745,-0.1068482
1.018267,0.0826773,-0.108692
1.019675,0.0826071,-0.1139866
1.017933,0.08292777,-0.1190672
1.014559,0.08320536,-0.1134911
1.015059,0.08385075,-0.1055322
1.015815,0.08411517,-0.1075601
1.01481,0.08568852,-0.1057194
1.01549,0.08962542,-0.09382603
1.015342,0.0913365,-0.09116068
1.015212,0.08607423,-0.1007543
1.016454,0.07920736,-0.1088751
1.016741,0.08133605,-0.1068151
1.016647,0.08392218,-0.1048295
1.016009,0.0805283,-0.1103228
1.01655,0.08171057,-0.1077771
1.017809,0.08103448,-0.1048893
1.016596,0.07818741,-0.1079086
1.016155,0.08330144,-0.1027167
1.017074,0.0861128,-0.1003072
1.016436,0.08449027,-0.1045793
1.015578,0.08433812,-0.1090039
1.015227,0.08385952,-0.112581
1.015074,0.08330115,-0.1082612
1.01543,0.082756,-0.1020616
1.015317,0.0827521,-0.09846089
1.015106,0.08155956,-0.0984902
1.015446,0.08072846,-0.1037337
1.015218,0.08221432,-0.1065017
1.015031,0.08349447,-0.1094645
1.01453,0.08518623,-0.1102468
1.013654,0.08286103,-0.1032792
1.014925,0.07877367,-0.09957718
1.016853,0.0789529,-0.1005747
1.017744,0.0791189,-0.099991
1.018303,0.0817737,-0.09881532
1.018084,0.08528884,-0.09872126
1.018098,0.08311986,-0.1010179
1.019044,0.08023271,-0.1048137
1.019707,0.07877834,-0.1074024
1.01951,0.07768946,-0.1072286
1.018744,0.08016984,-0.1067089
1.016853,0.08336507,-0.108079
1.014485,0.08157815,-0.1084279
1.014869,0.07975997,-0.1071975
1.015985,0.08114495,-0.1057905
1.014935,0.08196771,-0.1051158
1.015137,0.08278409,-0.1055689
1.016209,0.08351551,-0.1047131
1.017069,0.08515183,-0.1037249
1.017889,0.08639377,-0.104589
1.015612,0.08533307,-0.1060541
1.015023,0.0856352,-0.1075866
1.017189,0.08422277,-0.1080626
1.016839,0.08225125,-0.1082145
1.019275,0.08244203,-0.1082786
1.02146,0.08231176,-0.1063934
1.016937,0.08502302,-0.1049337
1.013959,0.08627936,-0.1073205
1.015182,0.08541816,-0.1147429
1.015684,0.08588475,-0.1214741
1.013761,0.08406909,-0.1178272
1.011598,0.08451411,-0.1124784
1.011465,0.08504786,-0.1148208
1.013426,0.08226023,-0.1109796
1.016273,0.08247432,-0.1038785
1.014722,0.08533035,-0.1071301
1.012802,0.08798282,-0.1079
1.015449,0.08455821,-0.1038479
1.015585,0.07996548,-0.1042094
1.014931,0.08408925,-0.1033842
1.0156,0.08612037,-0.1004736
1.015017,0.08410716,-0.09875392
1.015418,0.08575855,-0.1026082
1.015295,0.08639947,-0.1097957
1.015479,0.08506956,-0.1088117
1.017289,0.08441989,-0.106068
1.018219,0.08464122,-0.106458
1.017486,0.08533268,-0.1040329
1.016167,0.08631909,-0.1037471
1.017547,0.08807071,-0.1053508
1.018775,0.08729221,-0.1071975
1.017333,0.0842385,-0.1101135
1.016117,0.08285152,-0.1079476
1.013999,0.08304495,-0.1043862
1.01337,0.08315774,-0.1032998
1.015443,0.08063251,-0.1020365
1.016175,0.07860196,-0.1030873
1.016153,0.08186109,-0.104097
1.016228,0.08424933,-0.1038711
1.017792,0.08149383,-0.1042631
1.020636,0.0791355,-0.1032514
1.02061,0.07949003,-0.1058494
1.017752,0.08012814,-0.1106448
1.014069,0.08137309,-0.1087587
1.01328,0.08248478,-0.1069183
1.016413,0.08314852,-0.1093573
1.0183,0.08537355,-0.1095166
1.018904,0.08435094,-0.1102279
1.018371,0.08254212,-0.1126488
1.014798,0.08663291,-0.1129321
1.012236,0.08849244,-0.1131022
1.01379,0.08647483,-0.1110151
1.018061,0.08397013,-0.108799
1.020059,0.0807655,-0.1103645
1.016796,0.08165318,-0.108696
1.014332,0.08272601,-0.1078104
1.01705,0.08141249,-0.1109106
1.019078,0.08150649,-0.1108546
1.016853,0.07944692,-0.1095472
1.016216,0.07672452,-0.1079077
1.017975,0.07813474,-0.1088682
1.0182,0.08106174,-0.1118507
1.018098,0.08186535,-0.1115428
1.017998,0.07952472,-0.1149919
1.017287,0.07754728,-0.1204319
1.014638,0.08191166,-0.1225919
1.011423,0.08679399,-0.1235372
1.013227,0.08343231,-0.1196157
1.016102,0.08019158,-0.1139422
1.015836,0.08161434,-0.1126922
1.016466,0.08376709,-0.1134393
1.017864,0.08726796,-0.1124419
1.018815,0.08646156,-0.1120859
1.018356,0.08288044,-0.1139816
1.016395,0.08264771,-0.1139697
1.01663,0.08133889,-0.1137673
1.016761,0.08040299,-0.1141228
1.015365,0.07917954,-0.1135913
1.015332,0.07653602,-0.1141157
1.015275,0.07814669,-0.1138407
1.016362,0.0792017,-0.1137447
1.018251,0.07910283,-0.1141475
1.018976,0.08152584,-0.1134576
1.019696,0.08218016,-0.1129621
1.018162,0.08188399,-0.1109841
1.015565,0.08101174,-0.1091654
1.014062,0.08024482,-0.1098717
1.013189,0.08169108,-0.1113742
1.013282,0.08216472,-0.1116891
1.012269,0.08197906,-0.1105763
1.012324,0.08189163,-0.1111532
1.0146,0.08185641,-0.1116675
1.01744,0.08215051,-0.1115246
1.019577,0.08174435,-0.1134231
1.014506,0.08202453,-0.1145814
1.008664,0.08202152,-0.1164348
1.01236,0.08157798,-0.1186625
1.015977,0.08107913,-0.11852
1.015783,0.07925361,-0.1181785
1.017558,0.07898347,-0.1144923
1.018283,0.08025341,-0.1107666
1.017637,0.08042509,-0.1130435
1.016831,0.07887741,-0.1150955
1.015869,0.0777276,-0.1159101
1.01712,0.08125625,-0.1159808
1.01671,0.08488266,-0.1119302
1.015138,0.08340808,-0.1090448
1.015597,0.08257533,-0.1097294
1.014943,0.08388581,-0.1098695
1.015291,0.08382577,-0.1087289
1.015629,0.0856946,-0.1052876
1.014775,0.08833761,-0.1021289
1.015836,0.08547678,-0.1058131
1.016443,0.0817209,-0.1099263
1.018515,0.08170934,-0.1055731
1.019938,0.08202065,-0.1023117
1.016411,0.08143277,-0.1051822
1.014522,0.07926717,-0.107142
1.016115,0.07689553,-0.1113401
1.017156,0.07790139,-0.1150491
1.015713,0.08013063,-0.1092036
1.014612,0.08097222,-0.103558
1.015628,0.08176858,-0.1046969
1.015253,0.08314834,-0.1045683
1.015102,0.08438765,-0.1040409
1.015524,0.08415974,-0.1071885
1.015598,0.08274867,-0.109604
1.017545,0.08228645,-0.1101057
1.017752,0.08200542,-0.1113393
1.015589,0.08197343,-0.1115216
1.016127,0.08396074,-0.1110726
1.017401,0.08439443,-0.113512
1.015459,0.08026866,-0.1172903
1.014981,0.07676254,-0.11761
1.017605,0.07999465,-0.111651
1.018187,0.08387937,-0.1051395
1.017287,0.08109999,-0.1061855
1.016112,0.07848542,-0.107611
1.015681,0.07789902,-0.1026387
1.016451,0.0769523,-0.100314
1.016436,0.07834188,-0.1030608
1.017008,0.07808124,-0.1064443
1.016479,0.07804521,-0.1104323
1.015403,0.08011589,-0.1114724
1.015506,0.07909447,-0.1082967
1.014833,0.08012547,-0.1058697
1.01586,0.08366009,-0.1069926
1.017238,0.08621566,-0.1085023
1.018153,0.08801988,-0.108112
1.018375,0.0846695,-0.1088392
1.0156,0.08103563,-0.1102303
1.015429,0.08190453,-0.1115149
1.018105,0.08221965,-0.1125532
1.020083,0.08160272,-0.1111157
1.019697,0.08105021,-0.1073921
1.016412,0.08035892,-0.1028169
1.014723,0.08093355,-0.1040064
1.013588,0.08342125,-0.1071708
1.014677,0.08551833,-0.1028417
1.018179,0.08526941,-0.100818
1.017946,0.08605053,-0.1027155
1.017204,0.08808444,-0.1043342
1.01651,0.08673669,-0.1083921
1.016023,0.0839435,-0.1072661
1.016244,0.0829243,-0.1051495
1.013716,0.08157802,-0.1080261
1.013477,0.08147598,-0.1085206
1.014542,0.08258723,-0.1087797
1.014401,0.08092224,-0.1101711
1.015597,0.07805586,-0.1097328
1.014449,0.0748096,-0.1036999
1.013998,0.07513973,-0.09707393
1.017865,0.08237392,-0.1062476
1.021436,0.08735718,-0.117556
1.020951,0.08664467,-0.1138932
1.017081,0.08546147,-0.1125224
1.014275,0.08629821,-0.1159829
1.014014,0.08750094,-0.1132618
1.017396,0.08743089,-0.1089657
1.02084,0.08867581,-0.1060851
1.018362,0.08883683,-0.1074189
1.015997,0.0868348,-0.1115934
1.016017,0.08584227,-0.1112139
1.014896,0.08585842,-0.1106323
1.015318,0.08746703,-0.1094266
1.016504,0.08737566,-0.1027379
1.016697,0.08543111,-0.0985954
1.016825,0.08433341,-0.1012986
1.016908,0.08333015,-0.1050847
1.018244,0.08357777,-0.1065597
1.019226,0.08315726,-0.1103162
1.017515,0.08332936,-0.1131006
1.015793,0.08469491,-0.1100138
1.015188,0.0845241,-0.1112462
1.015307,0.08504651,-0.1135774
1.017297,0.08481558,-0.1106592
1.018672,0.08534756,-0.1069154
1.018181,0.08702817,-0.1022389
1.018604,0.08652563,-0.1038603
1.019121,0.08682869,-0.1067149
1.018591,0.0860055,-0.1044328
1.018295,0.08443122,-0.1064505
1.01715,0.0839395,-0.1074452
1.015141,0.08185343,-0.107145
1.015013,0.081629,-0.1077926
1.015743,0.08226536,-0.1067589
1.015985,0.08205695,-0.1118534
1.017156,0.08405412,-0.1147496
1.018123,0.08612796,-0.1089066
1.019911,0.08599449,-0.104481
1.022646,0.08325253,-0.1055586
1.02228,0.08098451,-0.1101623
1.020804,0.08208301,-0.1109089
1.019738,0.08360231,-0.1066826
1.01771,0.08530879,-0.102779
1.015904,0.08765047,-0.1047465
1.013925,0.08775357,-0.1128138
1.013537,0.08626547,-0.1161454
1.015154,0.08607897,-0.1118855
1.015479,0.0870461,-0.1033855
1.015249,0.08741822,-0.09895125
1.015266,0.08549567,-0.1021228
1.015235,0.08213119,-0.1017409
1.015367,0.0813076,-0.1007438
1.0152,0.08204641,-0.101933
1.015297,0.08106761,-0.101044
1.015504,0.08017694,-0.1019003
1.016265,0.08070101,-0.1033687
1.018091,0.08199163,-0.1061584
1.019111,0.08390047,-0.1091621
1.018354,0.08515,-0.1082144
1.01587,0.08379149,-0.105645
1.013782,0.08172876,-0.1042663
1.014582,0.0818557,-0.1047193
1.015765,0.08188168,-0.1039412
1.015284,0.08092085,-0.1052985
1.014712,0.08059444,-0.1092929
1.013644,0.08160586,-0.1101064
1.012299,0.08422636,-0.1109635
1.014344,0.08533928,-0.1111822
1.018126,0.08492904,-0.1116344
1.018201,0.08642134,-0.1151091
1.015971,0.08759322,-0.1156806
1.014634,0.08485044,-0.1092989
1.014187,0.08117343,-0.1011807
1.014173,0.08174231,-0.1046189
1.014688,0.08347923,-0.1114181
1.016883,0.08302349,-0.1106728
1.019007,0.08258752,-0.1134627
1.019609,0.08186109,-0.1147297
1.019749,0.08271574,-0.1147985
1.018803,0.08496817,-0.117146
1.017635,0.084814,-0.1106869
1.016233,0.0846094,-0.1072822
1.015216,0.08485012,-0.1085656
1.015975,0.08386081,-0.1057118
1.016784,0.08127709,-0.107318
1.018514,0.07837427,-0.1084286
1.01867,0.08049156,-0.1077642
1.017191,0.08342881,-0.1090853
1.018327,0.08197621,-0.107532
1.017124,0.08324708,-0.1064964
1.01462,0.08554946,-0.105964
1.013675,0.08278617,-0.1075064
1.012439,0.08132617,-0.1116792
1.01596,0.08398465,-0.1118869
1.019692,0.08545884,-0.1137896
1.017799,0.0845135,-0.1159769
1.016567,0.08298104,-0.1130484
1.016665,0.08062468,-0.1136359
1.015626,0.07858544,-0.1156508
1.015165,0.08067636,-0.1147409
1.016197,0.08321138,-0.1146385
1.017211,0.08205061,-0.1136506
1.017749,0.08329512,-0.1136733
1.019072,0.08582984,-0.1153434
1.019906,0.0846072,-0.1152157
1.019019,0.08431388,-0.1153672
1.017467,0.08532013,-0.1151638
1.0165,0.08542579,-0.1141514
1.017463,0.08598838,-0.1138879
1.019552,0.08458263,-0.113084
1.019773,0.08243597,-0.1113998
1.019135,0.08329067,-0.1089703
1.019608,0.08362594,-0.1089558
1.019264,0.08205599,-0.1101046
1.018253,0.08122421,-0.1090182
1.01724,0.07931425,-0.1103237
1.017212,0.07693073,-0.112317
1.019389,0.07752308,-0.1137005
1.019603,0.07904192,-0.1151886
1.01731,0.08125141,-0.1130909
1.016039,0.08523064,-0.1134186
1.015439,0.08533236,-0.1139892
1.014425,0.08198714,-0.1112586
1.013566,0.08130274,-0.112451
1.014935,0.08066658,-0.1111739
1.016794,0.08023317,-0.1083945
1.016348,0.08249863,-0.1107209
1.014909,0.08241513,-0.1132167
1.014054,0.08078268,-0.1183374
1.01716,0.07955965,-0.1229448
1.021101,0.07702572,-0.1221556
1.018825,0.07757853,-0.1206386
1.014998,0.08039604,-0.1179316
1.013678,0.07946398,-0.1152013
1.01419,0.07435178,-0.1139039
1.015761,0.07002496,-0.1121265
1.013588,0.07525697,-0.1124655
1.012191,0.08301527,-0.1160738
1.017378,0.08167063,-0.1194152
1.020455,0.08217908,-0.1206662
1.016904,0.08349799,-0.1194965
1.013759,0.07888612,-0.1154161
1.0153,0.08120199,-0.1128718
1.016104,0.08364868,-0.114707
1.014509,0.08063124,-0.1159042
1.01586,0.08187405,-0.1141909
1.017557,0.08010075,-0.1142109
1.018754,0.07910224,-0.1186375
1.019158,0.08406496,-0.1232906
1.015148,0.08392363,-0.1265346
1.012696,0.08167001,-0.1298043
1.012833,0.08192496,-0.127856
1.013829,0.08179644,-0.118983
1.016318,0.08104744,-0.1127108
1.01532,0.08025047,-0.1134865
1.014652,0.08068877,-0.115405
1.015904,0.08159587,-0.1154461
1.014963,0.08142361,-0.1153224
1.015602,0.07829618,-0.1161983
1.017316,0.07422342,-0.1170144
1.017945,0.07529669,-0.1159348
1.016697,0.08019185,-0.1137004
1.014422,0.08286484,-0.1138542
1.016104,0.08139257,-0.1181896
1.017394,0.07979069,-0.1183605
1.0153,0.08158651,-0.1106298
1.015016,0.0828448,-0.1068667
1.015767,0.08207324,-0.1107822
1.016822,0.08201038,-0.1151399
1.01778,0.08107337,-0.1148656
1.016349,0.08077556,-0.1130062
1.015299,0.08183916,-0.1156618
1.015788,0.0806132,-0.1163347
1.016867,0.07933067,-0.1137741
1.01845,0.07796409,-0.113943
1.017342,0.07623914,-0.1115323
1.015076,0.07722609,-0.1084093
1.016459,0.07981374,-0.1090071
1.018932,0.08300659,-0.1115183
1.019678,0.08209396,-0.1158638
1.018212,0.07807363,-0.1172168
1.014715,0.07817853,-0.1185182
1.013687,0.08095153,-0.1195511
1.016749,0.08634087,-0.1115882
1.019995,0.08893807,-0.1059958
1.019255,0.08462238,-0.1098063
1.015222,0.08222548,-0.1134923
1.013258,0.08171994,-0.1143853
1.014679,0.08163734,-0.1132794
1.016896,0.08245651,-0.111297
1.017002,0.08105638,-0.1098959
1.016223,0.07930144,-0.1113155
1.016972,0.0773691,-0.1137629
1.01662,0.07800795,-0.1137788
1.016469,0.08070923,-0.1136322
1.016809,0.08062245,-0.1112001
1.015486,0.08211008,-0.1087418
1.015138,0.0824271,-0.1107622
1.015763,0.07962063,-0.1113331
1.017967,0.08076596,-0.1091455
1.020402,0.08250232,-0.107524
1.019184,0.08204681,-0.107669
1.016676,0.08180989,-0.1096319
1.013714,0.08201941,-0.11374
1.011297,0.08307854,-0.1182817
1.011913,0.08344155,-0.1158364
1.013338,0.08322533,-0.1084611
1.015007,0.08280223,-0.1040843
1.01724,0.08311651,-0.1023203
1.018569,0.08449045,-0.101318
1.019578,0.08316817,-0.1017472
1.018655,0.08178165,-0.1066672
1.015436,0.08240218,-0.1126313
1.014806,0.08259435,-0.1124307
1.015702,0.08361438,-0.1077256
1.016034,0.08382191,-0.1036667
1.016878,0.08375889,-0.1041725
1.015813,0.08526705,-0.1068361
1.015294,0.08485206,-0.1088419
1.018103,0.08429292,-0.111572
1.020311,0.08507797,-0.11353
1.019532,0.08425296,-0.1152102
1.017929,0.08282526,-0.1141053
1.017931,0.08161216,-0.1111883
1.01719,0.08154201,-0.1104529
1.016195,0.08262474,-0.1077719
1.017027,0.08248439,-0.1092728
1.017197,0.08252276,-0.1131015
1.016466,0.08213578,-0.110365
1.01496,0.08133654,-0.1107533
1.014714,0.08234864,-0.1119745
1.016102,0.08181499,-0.1102955
1.016292,0.08084811,-0.1119146
1.018519,0.08196898,-0.1128914
1.020335,0.0836405,-0.1133995
1.018197,0.0855705,-0.110622
1.017435,0.08485058,-0.1046562
1.017209,0.08406706,-0.1051575
1.01545,0.08531891,-0.1077148
1.014902,0.08432539,-0.1098316
1.015359,0.0836563,-0.1135606
1.015412,0.08380253,-0.1123192
1.014948,0.08463859,-0.1074368
1.014428,0.08689082,-0.1061273
1.013693,0.08534395,-0.109171
1.013825,0.0839868,-0.1138673
1.015283,0.08607616,-0.1162851
1.0163,0.08601483,-0.1139425
1.016965,0.08403896,-0.1123878
1.016774,0.08192545,-0.1139209
1.016361,0.08140458,-0.1122987
1.016909,0.08234395,-0.1116417
1.016619,0.08221933,-0.1124386
1.016537,0.08393667,-0.1066538
1.016872,0.08727904,-0.1023401
1.016497,0.08755498,-0.1043188
1.016555,0.08449547,-0.1060207
1.015818,0.08163628,-0.1075414
1.014354,0.08260756,-0.109661
1.012618,0.08496897,-0.1103612
1.011309,0.0847348,-0.1089931
1.015171,0.08346404,-0.1063992
1.020047,0.08226652,-0.09967377
1.018143,0.08189235,-0.09407262
1.015969,0.08382074,-0.1009683
1.017248,0.08540346,-0.1073469
1.016318,0.08475933,-0.1037803
1.015462,0.08351414,-0.1053213
1.015545,0.08046265,-0.1131697
1.014741,0.07731949,-0.1163146
1.01542,0.0815591,-0.1120338
1.014491,0.08727805,-0.1049767
1.013553,0.08468421,-0.1028291
1.016033,0.08307176,-0.1045424
1.016971,0.08449478,-0.1048991
1.015865,0.08295536,-0.1065759
1.014982,0.08558756,-0.1091117
1.016219,0.08754997,-0.1073872
1.018298,0.08408437,-0.1038742
1.017671,0.08461795,-0.1020601
1.016288,0.08535265,-0.101841
1.014805,0.0850406,-0.1056214
1.01469,0.08667657,-0.1096092
1.015046,0.08512315,-0.1059538
1.013764,0.08395897,-0.1022098
1.01642,0.08414039,-0.1057297
1.019422,0.08294554,-0.1102453
1.017874,0.08344484,-0.1140861
1.017652,0.08460572,-0.1140216
1.018259,0.08557206,-0.1090785
1.017037,0.08546591,-0.1083307
1.016137,0.08327026,-0.109091
1.015797,0.08196722,-0.1097961
1.015146,0.08170946,-0.113961
1.01504,0.0811792,-0.1140311
1.01553,0.08122745,-0.109429
1.015034,0.08211272,-0.1029487
1.014268,0.08222439,-0.0985284
1.01398,0.08165758,-0.1043512
1.014713,0.08201677,-0.1086665
1.016688,0.08188563,-0.1019912
1.017184,0.0808712,-0.09838943
1.017306,0.08040488,-0.1042651
1.018442,0.08061065,-0.1119251
1.017973,0.08230123,-0.1163215
1.016904,0.08578826,-0.1174409
1.016576,0.08875744,-0.1150295
1.016342,0.08822056,-0.1098198
1.015923,0.08567245,-0.1077707
1.014985,0.08426822,-0.1091933
1.015254,0.08343423,-0.1080604
1.016328,0.08332314,-0.1072506
1.015861,0.08322332,-0.106521
1.015078,0.08240317,-0.1027889
1.015133,0.08279837,-0.1045041
1.015767,0.08359417,-0.1089262
1.017097,0.08441564,-0.1092626
1.018459,0.08530274,-0.1078304
1.018039,0.08642237,-0.1043701
1.016183,0.0877627,-0.1058991
1.016826,0.08550613,-0.108997
1.019666,0.08214213,-0.1076974
1.020906,0.08239929,-0.1098206
1.02065,0.0837087,-0.1078477
1.019758,0.08340591,-0.1038611
1.018324,0.08207626,-0.108226
1.017804,0.08180556,-0.11112
1.019229,0.08197787,-0.1106478
1.020779,0.08187863,-0.1083559
1.020621,0.08207452,-0.1043111
1.01873,0.08253389,-0.1062115
1.015983,0.08555625,-0.1123708
1.016502,0.08848503,-0.1153963
1.019784,0.08653296,-0.1135569
1.020008,0.08318569,-0.1106336
1.018771,0.08211636,-0.1081282
1.01868,0.08199951,-0.106833
1.017217,0.08266599,-0.110763
1.014159,0.08385731,-0.1137653
1.012103,0.08315706,-0.1129496
1.013763,0.0819478,-0.1128483
1.01669,0.08129053,-0.110116
1.016213,0.08089574,-0.1084989
1.016538,0.08264784,-0.1086837
1.019623,0.08411223,-0.105943
1.021339,0.08452891,-0.1071331
1.022829,0.08437692,-0.1091425
1.022196,0.08246743,-0.1080633
1.01914,0.08230364,-0.1081256
1.01679,0.08225317,-0.1063974
1.014166,0.08129961,-0.1057618
1.015015,0.08272401,-0.1092688
1.016234,0.08375909,-0.1129794
1.014634,0.08489878,-0.1126603
1.016435,0.08520462,-0.1105117
1.017224,0.08312054,-0.1111267
1.016032,0.08258707,-0.106091
1.01609,0.07992062,-0.1000245
1.015016,0.0767375,-0.1030764
1.016062,0.07965813,-0.1037461
1.017306,0.08278609,-0.1019959
1.016422,0.08327128,-0.104605
1.01666,0.08511702,-0.1075888
1.017094,0.08711585,-0.1110788
1.018403,0.087031,-0.1138187
1.019487,0.08729913,-0.1142219
1.016937,0.08767671,-0.1143211
1.014105,0.08573042,-0.1119051
1.015094,0.08590985,-0.1058805
1.015854,0.08816622,-0.1024066
1.013839,0.08704109,-0.1053232
1.013835,0.08352214,-0.11067
1.015025,0.08134911,-0.1152475
1.015307,0.08341819,-0.1151727
1.015583,0.08592835,-0.1074135
1.01499,0.08405705,-0.1029818
1.01531,0.08153882,-0.1103134
1.015502,0.08042977,-0.1168293
1.014952,0.08093452,-0.1139877
1.015349,0.08288853,-0.1120349
1.014496,0.0830954,-0.1132379
1.014392,0.08411245,-0.1101258
1.015666,0.0865222,-0.1083878
1.015019,0.0861028,-0.1092764
1.013305,0.08557051,-0.1084587
1.012554,0.08445574,-0.1113578
1.015015,0.08158229,-0.1130766
1.017839,0.0818146,-0.1128323
1.016783,0.08317112,-0.1158152
1.016029,0.08287873,-0.1153429
1.016754,0.08083773,-0.1140158
1.014866,0.07829925,-0.1113547
1.013063,0.0800103,-0.1069741
1.01417,0.08242295,-0.1108006
1.014863,0.08219532,-0.1143517
1.014575,0.08368538,-0.1123885
1.014555,0.08540601,-0.1138739
1.014176,0.08477743,-0.1152625
1.013071,0.08441164,-0.1095888
1.011917,0.08491018,-0.1029568
1.012688,0.08474667,-0.1043509
1.013769,0.08457796,-0.1095692
1.013768,0.08503455,-0.1113139
1.014166,0.08557038,-0.1080084
1.013953,0.0861569,-0.105335
1.014632,0.08542172,-0.1134029
1.015849,0.08415371,-0.1216621
1.015125,0.08422129,-0.1180773
1.015695,0.08231023,-0.1163941
1.01816,0.07946161,-0.1193949
1.01991,0.08035887,-0.1177816
1.018262,0.08086414,-0.1178525
1.013555,0.07832713,-0.1206322
1.011936,0.0781375,-0.1199695
1.01426,0.0823025,-0.1166296
1.016124,0.08619369,-0.1124356
1.015414,0.08521752,-0.1130992
1.014673,0.08326767,-0.115366
1.015556,0.08388007,-0.1130313
1.01453,0.08301619,-0.113756
1.014189,0.08245279,-0.1146757
1.016406,0.08138381,-0.1132035
1.017976,0.07740838,-0.1159896
1.019464,0.07750861,-0.1191526
1.017328,0.07882554,-0.1203526
1.013701,0.07929296,-0.1153633
1.015305,0.08076669,-0.1083951
1.015859,0.07801675,-0.1127489
1.013692,0.07860625,-0.1166214
1.014026,0.0824963,-0.1155499
1.015045,0.08158119,-0.1196113
1.016288,0.08209627,-0.1195752
1.017056,0.08222778,-0.1153593
1.015541,0.08170743,-0.114785
1.014555,0.08430749,-0.1127684
1.013627,0.08498455,-0.1115868
1.012295,0.08484335,-0.1133134
1.014079,0.08466775,-0.1136351
1.016221,0.08432182,-0.1156779
1.01529,0.08421346,-0.1177136
1.014992,0.08275172,-0.1163766
1.016542,0.08311293,-0.1164424
1.016887,0.08284111,-0.1161271
1.016392,0.0810566,-0.1119533
1.015835,0.08139104,-0.1089733
1.014939,0.081345,-0.1122702
1.015211,0.0820412,-0.1176141
1.01551,0.08316433,-0.1180068
1.015266,0.08194682,-0.1176537
1.016419,0.08007677,-0.1182962
1.01769,0.07866585,-0.1158908
1.017099,0.08024574,-0.1143574
1.014593,0.0831666,-0.113603
1.012897,0.08285411,-0.1133871
1.013149,0.07983268,-0.1195148
1.012484,0.07713155,-0.1260673
1.012452,0.07995507,-0.1236324
1.014815,0.08379889,-0.1185158
1.016999,0.08148492,-0.1187491
1.01896,0.08032748,-0.1196076
1.020802,0.08113975,-0.1192148
1.02045,0.08016625,-0.1179442
1.016975,0.0816199,-0.1129262
1.013016,0.08247294,-0.109839
1.01243,0.08159247,-0.1111121
1.012904,0.08212609,-0.1125239
1.01249,0.08189685,-0.1128578
1.014339,0.08187719,-0.1133139
1.016051,0.08191759,-0.1151246
1.015365,0.08087097,-0.1146729
1.015948,0.08042572,-0.1133702
1.017141,0.08056992,-0.1139996
1.01653,0.08161659,-0.1138954
1.01553,0.08222582,-0.113917
1.015166,0.08187878,-0.1138527
1.015182,0.08195247,-0.1138522
1.015184,0.08226568,-0.1142082
1.014231,0.08395326,-0.1133345
1.012628,0.08615949,-0.1094644
1.012198,0.08635772,-0.1036956
1.012773,0.08429679,-0.1055911
1.013436,0.08077819,-0.1131892
1.013929,0.0780209,-0.1173251
1.013112,0.07788232,-0.119259
1.01258,0.07878718,-0.1171091
1.01515,0.08002148,-0.1127612
1.017911,0.08274406,-0.1110068
1.017336,0.08266738,-0.1119641
1.015577,0.08085667,-0.1152553
1.013476,0.08249031,-0.1141857
1.011866,0.08251029,-0.112484
1.014511,0.08306367,-0.1148227
1.0171,0.08540409,-0.114528
1.015674,0.08191506,-0.1141748
1.014942,0.0795925,-0.1112087
1.015307,0.08261926,-0.1088531
1.01549,0.08393386,-0.1132857
1.016053,0.0824548,-0.1123888
1.016443,0.08124331,-0.1117805
1.017377,0.08217246,-0.1138119
1.017246,0.08214855,-0.1113048
1.015004,0.08156309,-0.1129626
1.014595,0.08226777,-0.1125663
1.01735,0.08180686,-0.1100717
1.019713,0.08188347,-0.112184
1.020822,0.08213584,-0.1138147
1.01954,0.08172326,-0.1176555
1.016088,0.08210673,-0.1171483
1.017185,0.08188935,-0.1125656
1.019114,0.08189248,-0.111961
1.017488,0.08259999,-0.1094629
1.017592,0.08449169,-0.1069768
1.015628,0.0864894,-0.1046881
1.012862,0.08372172,-0.1014248
1.01482,0.08082424,-0.1011239
1.016316,0.08379318,-0.1016927
1.01689,0.08575557,-0.1029804
1.018409,0.08326648,-0.1032446
1.018311,0.08173628,-0.1026988
1.016709,0.08128028,-0.1048625
1.01662,0.08081089,-0.1074653
1.017771,0.08172337,-0.1087062
1.017598,0.08238344,-0.1089542
1.015607,0.08332869,-0.1100354
1.013056,0.08345823,-0.1125377
1.014405,0.08016387,-0.1129929
1.016451,0.07921497,-0.1111512
1.014758,0.08371355,-0.111179
1.015132,0.0874717,-0.1131278
1.015577,0.08568393,-0.1139117
1.014092,0.08333389,-0.1124051
1.01495,0.08557995,-0.1099906
1.016686,0.08691681,-0.1111503
1.018508,0.08708314,-0.1154968
1.018063,0.08743677,-0.1189786
1.015097,0.08525615,-0.1189299
1.015261,0.08558573,-0.1152941
1.018321,0.0851006,-0.1129919
1.020261,0.0821872,-0.111013
1.019585,0.08439382,-0.1116797
1.018964,0.08551773,-0.1148955
1.019751,0.08400685,-0.1092057
1.019271,0.08422817,-0.1045718
1.018529,0.08393358,-0.1076979
1.018894,0.08480952,-0.1076881
1.019494,0.08462458,-0.1092084
1.019749,0.08159437,-0.1122317
1.019407,0.07992487,-0.1112534
1.02029,0.0808388,-0.1106173
1.020621,0.08367227,-0.1109473
1.017138,0.08540101,-0.1095188
1.014077,0.08395174,-0.1067435
1.015013,0.07996097,-0.1047317
1.015993,0.07684352,-0.1021888
1.014737,0.07936146,-0.1020251
1.014051,0.08319464,-0.1052989
1.013146,0.08378641,-0.106724
1.011763,0.084473,-0.1087153
1.012696,0.08355331,-0.1079203
1.012778,0.08118018,-0.1040983
1.012407,0.08362693,-0.1066071
1.015166,0.08599887,-0.1112234
1.018403,0.08463532,-0.1136494
1.019807,0.08631734,-0.1134952
1.016932,0.08845437,-0.1113763
1.013784,0.0872013,-0.1112959
1.016029,0.08651487,-0.1107682
1.017941,0.0867869,-0.1110408
1.017004,0.08654601,-0.1121697
1.014899,0.08500176,-0.1131615
1.013448,0.08340555,-0.1155641
1.014547,0.0840984,-0.1104948
1.014688,0.08509115,-0.1023449
1.015346,0.08476854,-0.1027085
1.01685,0.08455314,-0.106697
1.016152,0.08498855,-0.1089594
1.015665,0.08546616,-0.1059633
1.013338,0.0854041,-0.1037134
1.011947,0.08462865,-0.1107218
1.015836,0.08438725,-0.1159903
1.018598,0.08500262,-0.1116775
1.019247,0.08471458,-0.1072786
1.019538,0.08451836,-0.1093563
1.019393,0.0849602,-0.1120743
1.019051,0.08423928,-0.1107385
1.016575,0.0827247,-0.1080183
1.014749,0.08011641,-0.1064521
1.015902,0.07721863,-0.1079999
1.017367,0.07652829,-0.1108346
1.016712,0.07927001,-0.1111568
1.015974,0.08442224,-0.1084204
1.016268,0.08585942,-0.1037022
1.014484,0.08410215,-0.1025855
1.013537,0.08441886,-0.1073558
1.014358,0.08317679,-0.1119682
1.01512,0.08110527,-0.1144035
1.01624,0.08176348,-0.1148254
1.015717,0.08138199,-0.1129346
1.016544,0.08022911,-0.112532
1.016529,0.08171368,-0.1111685
1.014163,0.08432631,-0.108346
1.015381,0.08516422,-0.1099801
1.014778,0.08417238,-0.1103111
1.013142,0.08173251,-0.1097834
1.015396,0.07888832,-0.114778
1.016419,0.07882332,-0.1173581
1.016672,0.08047778,-0.1131831
1.015938,0.08076651,-0.1057518
1.014839,0.08048958,-0.1022827
1.016543,0.08054413,-0.1061992
1.017915,0.08057349,-0.1125883
1.018448,0.08072831,-0.1186635
1.018993,0.08144962,-0.1180546
1.019516,0.08221423,-0.1156196
1.01939,0.08205536,-0.1190773
1.016822,0.0817368,-0.1172737
1.013517,0.08203883,-0.1133649
1.011971,0.08199925,-0.1142787
1.014141,0.08181557,-0.1131843
1.016439,0.08205177,-0.112082
1.015387,0.08191528,-0.1109886
1.016698,0.08225065,-0.1104996
1.019086,0.08382347,-0.1131977
1.017974,0.08518302,-0.1142702
1.017848,0.08479891,-0.1154295
1.019309,0.0832467,-0.1146727
1.01959,0.08232,-0.1109389
1.019477,0.08153385,-0.1116751
1.018672,0.08086934,-0.1147635
1.015862,0.08061192,-0.1166754
1.013399,0.0804283,-0.1129783
1.016073,0.08180085,-0.1071572
1.019198,0.08321399,-0.1099783
1.015308,0.08343178,-0.112235
1.01241,0.08350004,-0.1119197
1.01546,0.08311676,-0.1159858
1.016763,0.08357615,-0.118534
1.016159,0.08435619,-0.1198895
1.015142,0.08458328,-0.1150419
1.013503,0.08396228,-0.1070314
1.015494,0.08134282,-0.1140823
1.018098,0.07892341,-0.1220839
1.017933,0.07779907,-0.1179966
1.017846,0.07994756,-0.1154705
1.016536,0.08328779,-0.1136355
1.014811,0.08072538,-0.112709
1.014659,0.07765473,-0.1156435
0.9858458,-0.009556288,-0.2990378
0.9872298,-0.01128382,-0.2978303
0.9882871,-0.01104549,-0.2951149
0.9867906,-0.009881931,-0.2949446
0.9875233,-0.008738516,-0.2987767
0.9855398,-0.007774928,-0.2955309
0.9829782,-0.008369927,-0.2887748
0.9832836,-0.007546135,-0.2861005
0.9830789,-0.006412423,-0.2849803
0.9826457,-0.007092154,-0.2915409
0.9816881,-0.006998628,-0.2993259
0.9830762,-0.006865896,-0.2977278
0.9857929,-0.007342966,-0.3013687
0.9863838,-0.008710047,-0.3086303
0.9859534,-0.01047705,-0.3055324
0.9838508,-0.01078004,-0.3035541
0.9819761,-0.01119727,-0.3040001
0.9816367,-0.01228879,-0.2989057
0.9819508,-0.01263515,-0.2970694
0.9818428,-0.01163419,-0.2964465
0.9798834,-0.008003168,-0.2920329
0.9787269,-0.004169463,-0.2910931
0.9792364,-0.005415443,-0.2930926
0.9804196,-0.008557467,-0.2978119
0.9817521,-0.009217045,-0.3031462
0.9822899,-0.01006527,-0.3001386
0.9829542,-0.009950235,-0.2966753
0.9834277,-0.008673134,-0.2996097
0.9834763,-0.007442503,-0.3008296
0.9832687,-0.004666139,-0.3011845
0.9832092,-0.005356159,-0.3017391
0.9835527,-0.008513279,-0.2987797
0.9833525,-0.00898333,-0.2962092
0.9844084,-0.008768494,-0.2955133
0.986035,-0.005514412,-0.2955697
0.9864563,-0.002706747,-0.2962728
0.9869001,-0.004939489,-0.2956278
0.9867086,-0.005882407,-0.2956896
0.9856739,-0.005772285,-0.2960112
0.9840764,-0.006498699,-0.294598
0.9831055,-0.006957135,-0.2943277
0.9844849,-0.008605057,-0.2953059
0.9869444,-0.0124896,-0.2988809
0.9876127,-0.01554228,-0.3025641
0.9847155,-0.007800483,-0.2999128
0.9822896,0.00126381,-0.2971732
0.9832798,-0.003306742,-0.2985603
0.9838033,-0.006712778,-0.2972953
0.9830418,-0.006207686,-0.2947177
0.9832891,-0.009365745,-0.296401
0.9837463,-0.006340031,-0.2992456
0.9838416,-0.002214242,-0.3011636
0.983791,-0.003009569,-0.3018555
0.9814988,-0.002519797,-0.2991934
0.9795016,-0.002855965,-0.2978676
0.9811674,-0.003159795,-0.2998147
0.9828267,-0.003292613,-0.3030188
0.9843392,-0.004612952,-0.3070765
0.9847763,-0.003214566,-0.3056159
0.9807858,-0.0024095,-0.300346
0.9784944,-0.004076169,-0.3015738
0.9817775,-0.005310744,-0.3090034
0.9846508,-0.005909787,-0.3135553
0.9832187,-0.005464771,-0.3133098
0.9816963,-0.005443185,-0.3140083
0.9824539,-0.005730815,-0.311482
0.9829892,-0.005416932,-0.3078796
0.9852695,-0.005617372,-0.310566
0.9865991,-0.006102169,-0.3109264
0.9830573,-0.008177127,-0.3106024
0.9806389,-0.01025714,-0.3121918
0.9801621,-0.008194984,-0.311294
0.9794816,-0.005807468,-0.3129581
0.9814988,-0.007037282,-0.3129392
0.98441,-0.007282175,-0.3116801
0.9837262,-0.005711162,-0.3131902
0.9820887,-0.006188555,-0.3127434
0.9820624,-0.00654469,-0.3152358
0.9801305,-0.006174669,-0.318765
0.9796241,-0.00743657,-0.3182065
0.9806474,-0.00934925,-0.3178609
0.9783935,-0.01147493,-0.3180429
0.9785459,-0.01150223,-0.3181872
0.9781677,-0.008889315,-0.3170827
0.9751167,-0.008314695,-0.3131685
0.9765034,-0.008775825,-0.3081476
0.9769193,-0.007932663,-0.3073952
0.9756085,-0.008171109,-0.3116216
0.975861,-0.00775135,-0.3142333
0.9748315,-0.007369154,-0.315959
0.9760139,-0.01239576,-0.3169356
0.9788634,-0.01717978,-0.3169665
0.9795337,-0.01522061,-0.3188847
0.9792366,-0.01247239,-0.3175731
0.9789499,-0.01251828,-0.3147273
0.9792659,-0.01207698,-0.3137898
0.9788864,-0.01060651,-0.3142338
0.9768553,-0.009419317,-0.3202027
0.9742018,-0.009315025,-0.3256869
0.9727998,-0.01032515,-0.3256142
0.9739457,-0.01076394,-0.3246532
0.9748181,-0.01176887,-0.3249581
0.9747054,-0.01240226,-0.3261565
0.9744207,-0.01032109,-0.325338
0.9733393,-0.01013324,-0.3238274
0.9743153,-0.01115045,-0.3234117
0.9759102,-0.01200652,-0.3232056
0.9756497,-0.01542029,-0.3225846
0.9765279,-0.01753802,-0.3190299
0.9771222,-0.01764537,-0.3179443
0.9777424,-0.01485496,-0.3227425
0.9793823,-0.01064699,-0.3266655
0.9765807,-0.01187038,-0.3265305
0.9724862,-0.0137071,-0.3266418
0.9723619,-0.01444773,-0.3303488
0.9717185,-0.01605147,-0.3331395
0.9711895,-0.01416001,-0.335092
0.9737361,-0.01284632,-0.3365073
0.9751125,-0.01242497,-0.3371645
0.9741385,-0.009464196,-0.3416593
0.9716231,-0.009554761,-0.3409358
0.9686391,-0.01236065,-0.3361565
0.970701,-0.01514506,-0.3352783
0.9737952,-0.01817138,-0.331336
0.9715025,-0.01714308,-0.3309906
0.9699113,-0.01265864,-0.3352523
0.969454,-0.01137183,-0.3408365
0.9678756,-0.01340595,-0.3500752
0.9678844,-0.01465087,-0.346317
0.9662275,-0.01620594,-0.336781
0.9655586,-0.01755709,-0.3372257
0.9708317,-0.01680661,-0.3366797
0.9751513,-0.01913928,-0.3390535
0.9730686,-0.02162898,-0.3425855
0.9695334,-0.01783752,-0.3405221
0.9690251,-0.0145125,-0.3417587
0.9670587,-0.015115,-0.3393568
0.9656776,-0.01578705,-0.3356118
0.9685631,-0.01604829,-0.338449
0.9692945,-0.01646299,-0.3384669
0.9702401,-0.01520553,-0.3386852
0.9716944,-0.01315811,-0.33885
0.970297,-0.01467763,-0.3346359
0.9704132,-0.01631644,-0.3340402
0.9683676,-0.01559062,-0.3400687
0.9656454,-0.01600949,-0.3471536
0.9676171,-0.01518093,-0.3453066
0.968711,-0.01363533,-0.3422591
0.9677205,-0.0131897,-0.3451977
0.9669667,-0.01202334,-0.3408142
0.9669629,-0.01274671,-0.3371833
0.9683223,-0.01523943,-0.3414568
0.9698493,-0.01759957,-0.3422549
0.9689061,-0.01792355,-0.3417522
0.9671511,-0.01447887,-0.3431611
0.9681128,-0.01447712,-0.3463281
0.966766,-0.01740757,-0.3473992
0.9623124,-0.01623559,-0.3431349
0.9603037,-0.01558498,-0.3418401
0.9611211,-0.01550698,-0.3422051
0.9642181,-0.01481865,-0.3404264
0.9678198,-0.01667483,-0.3392506
0.970433,-0.01687996,-0.3383429
0.969987,-0.01553425,-0.3447777
0.9684162,-0.01249589,-0.3562148
0.9696588,-0.008072861,-0.3559727
0.9678207,-0.01005437,-0.3459209
0.9658354,-0.01438834,-0.3372835
0.9694533,-0.01598366,-0.3344961
0.9727181,-0.01722649,-0.3394259
0.9738463,-0.01632655,-0.3428497
0.9707739,-0.01493286,-0.3411643
0.9661754,-0.0150627,-0.3426205
0.9663457,-0.01524793,-0.3463518
0.9669219,-0.01415351,-0.3490869
0.9665713,-0.0115748,-0.3466301
0.9670688,-0.01044214,-0.3416542
0.9687371,-0.01025358,-0.343545
0.9718764,-0.009557119,-0.3437868
0.9725457,-0.009790846,-0.3403231
0.9702475,-0.01070316,-0.3417478
0.9685708,-0.01141398,-0.3421881
0.9683353,-0.01131732,-0.3409623
0.9672702,-0.0118263,-0.3408684
0.9659802,-0.01329088,-0.3389085
0.9671864,-0.01396245,-0.3375051
0.9687018,-0.0139952,-0.3374631
0.9698097,-0.01287352,-0.3384737
0.9707914,-0.01205825,-0.3429668
0.9704718,-0.01303879,-0.3469029
0.9697759,-0.0139458,-0.3437551
0.9677961,-0.01392633,-0.3396631
0.9675251,-0.01176466,-0.3419173
0.9702878,-0.009617661,-0.342547
0.9698209,-0.0105174,-0.341571
0.9687187,-0.01144381,-0.3465994
0.9697221,-0.01119289,-0.349059
0.9688738,-0.01079238,-0.3429069
0.9693289,-0.01019772,-0.3359954
0.9715619,-0.01014911,-0.3349193
0.9707203,-0.01212206,-0.3362894
0.9685453,-0.01479842,-0.3367227
0.9677764,-0.01311963,-0.3417113
0.9678992,-0.01066872,-0.3460153
0.9680661,-0.01222663,-0.3426668
0.96716,-0.01279907,-0.3404352
0.966603,-0.01237963,-0.3413486
0.9685028,-0.01224709,-0.3394024
0.9701416,-0.01038439,-0.3362877
0.9691365,-0.008422296,-0.337563
0.9673281,-0.007801061,-0.3405732
0.9663274,-0.008743758,-0.342266
0.9664792,-0.009570279,-0.3457133
0.9672778,-0.01053343,-0.3449567
0.9683986,-0.01178677,-0.3372228
0.9698612,-0.01091815,-0.331382
0.9694698,-0.0103509,-0.3338701
0.9671567,-0.008812317,-0.3403622
0.9662918,-0.006177878,-0.3404139
0.9670035,-0.008522501,-0.3380657
0.9685237,-0.01097183,-0.3375022
0.9698663,-0.009435523,-0.3367066
0.9686357,-0.009742226,-0.3378833
0.9676251,-0.01175283,-0.3358042
0.969086,-0.01213025,-0.334489
0.9693359,-0.01206715,-0.3370286
0.9666914,-0.01333333,-0.3359683
0.9645012,-0.01450803,-0.3360582
0.9659881,-0.01436741,-0.337699
0.967532,-0.0162447,-0.339224
0.9663951,-0.01921359,-0.3412136
0.966446,-0.01825355,-0.3402787
0.9663206,-0.01659812,-0.3408975
0.9628463,-0.01503375,-0.3426544
0.9602324,-0.01185285,-0.3441962
0.9622409,-0.01448619,-0.3493697
0.9655714,-0.01851365,-0.3525121
0.9651635,-0.01488169,-0.346872
0.9646408,-0.01159744,-0.3356867
0.9688269,-0.01161435,-0.3296047
0.9706314,-0.01318613,-0.3340823
0.9669829,-0.01659366,-0.3421382
0.9656608,-0.01507489,-0.3477181
0.9662213,-0.01136295,-0.3536087
0.9643968,-0.01023071,-0.358929
0.962184,-0.008221653,-0.363184
0.9597951,-0.006307473,-0.3692636
0.9592245,-0.003555809,-0.3684727
0.9626043,-0.001617272,-0.3643914
0.9657446,0.00238321,-0.3666211
0.966942,0.01352148,-0.3675362
0.9646955,0.0176081,-0.3766923
0.9591045,0.01846634,-0.3952665
0.9540548,0.02691642,-0.3987655
0.9487639,0.0282508,-0.3914177
0.946362,0.02584374,-0.3891255
0.9482546,0.02633655,-0.3877185
0.9501387,0.02327797,-0.3838166
0.9539674,0.01880111,-0.3813235
0.9564718,0.01136792,-0.3807967
0.9559745,0.008139703,-0.3817862
0.9573859,0.008467581,-0.3823389
0.9572046,0.0027669,-0.3734495
0.9569255,0.003465931,-0.362216
0.9602516,0.005026778,-0.3629922
0.9626683,-0.001324351,-0.3637622
0.9629709,-0.004554057,-0.3594062
0.9622487,-0.006565382,-0.360986
0.9623423,-0.006353206,-0.3618265
0.9625141,-0.00786506,-0.3583466
0.960404,-0.01517959,-0.3581275
0.9592594,-0.01585417,-0.3576982
0.9601918,-0.01307133,-0.3545804
0.9627289,-0.01229148,-0.3520049
0.9656396,-0.01295506,-0.3520527
0.9649593,-0.01632381,-0.3513977
0.9613779,-0.02068899,-0.3408892
0.9590405,-0.02691173,-0.3308978
0.961363,-0.02696269,-0.3369466
0.9648611,-0.02546469,-0.3488852
0.9646702,-0.03112165,-0.3559453
0.964273,-0.02908835,-0.3562539
0.9640874,-0.02381139,-0.3501785
0.9632114,-0.02398406,-0.3483812
0.9632941,-0.02254579,-0.3560923
0.9623022,-0.02290257,-0.3620945
0.9620738,-0.02137381,-0.3590855
0.9630369,-0.01858688,-0.3553514
0.9622348,-0.01993551,-0.3555974
0.9624092,-0.01825634,-0.3541309
0.9620981,-0.01771718,-0.3544897
0.9586007,-0.01948225,-0.3591603
0.9560364,-0.01922778,-0.3613012
0.9568857,-0.02023825,-0.3631308
0.9595805,-0.02096648,-0.3641545
0.9609635,-0.0224598,-0.3623986
0.9614455,-0.02146155,-0.3604337
0.9622206,-0.01693256,-0.3541781
0.9627675,-0.01630354,-0.3496767
0.964596,-0.01694532,-0.3473058
0.9657024,-0.01850323,-0.3407313
0.9649343,-0.02059071,-0.3418965
0.9634535,-0.02136406,-0.3500873
0.9618411,-0.02450898,-0.3575206
0.9624604,-0.02585979,-0.363287
0.9624849,-0.02450817,-0.3637325
0.9604065,-0.02332222,-0.3674342
0.9591482,-0.01988806,-0.372298
0.9591395,-0.01685054,-0.3674092
0.9610907,-0.01792088,-0.3639157
0.9630965,-0.01977329,-0.3690847
0.9628626,-0.01961106,-0.3727071
0.9617123,-0.02137848,-0.3705444
0.9603817,-0.02396097,-0.3703143
0.9577064,-0.02369692,-0.3725175
0.9560063,-0.02375062,-0.3726528
0.9583678,-0.02449484,-0.3749057
0.9600137,-0.02522219,-0.3775657
0.9604096,-0.02525701,-0.3772934
0.9615543,-0.02495386,-0.3777141
0.9600877,-0.02703394,-0.377703
0.9592155,-0.02798272,-0.3758412
0.959972,-0.02598614,-0.3722786
0.9596401,-0.02431947,-0.3641632
0.9597509,-0.02478033,-0.3558
0.9593575,-0.02521012,-0.3585623
0.9579063,-0.02284971,-0.3641984
0.9564782,-0.02163795,-0.3614716
0.9566175,-0.02234204,-0.3664497
0.9569329,-0.02242529,-0.3764433
0.9539988,-0.02333387,-0.3774144
0.9518695,-0.02468265,-0.3797344
0.9527573,-0.02542869,-0.3761844
0.953636,-0.02496036,-0.3664732
0.9554851,-0.02473904,-0.3678965
0.9589143,-0.02531702,-0.367165
0.9609093,-0.0248169,-0.3635475
0.9610188,-0.02551831,-0.3675917
0.9608587,-0.02785267,-0.3675964
0.9583884,-0.02975864,-0.3688988
0.9554972,-0.02966493,-0.3726802
0.955212,-0.02794076,-0.3680692
0.9543764,-0.02692034,-0.3657277
0.9555683,-0.02533112,-0.36587
0.9587583,-0.02584133,-0.3648273
0.9577442,-0.02753819,-0.3695496
0.9562047,-0.02555331,-0.372061
0.9576594,-0.02532685,-0.3701968
0.9597899,-0.0254308,-0.3693488
0.9617111,-0.02415894,-0.3688972
0.9615419,-0.02559171,-0.3698913
0.9605066,-0.02497725,-0.3694721
0.9609704,-0.02454412,-0.3690279
0.9593598,-0.026153,-0.3685216
0.9566838,-0.02722092,-0.3619772
0.9574601,-0.02957348,-0.3559962
0.9581553,-0.02701171,-0.3578773
0.9575021,-0.02352564,-0.3637336
0.9583702,-0.02715542,-0.3680359
0.9587289,-0.02884757,-0.3695482
0.957871,-0.02734055,-0.3704683
0.9572491,-0.02683053,-0.3711259
0.9559767,-0.02349777,-0.3660435
0.9557005,-0.01990808,-0.358024
0.9596404,-0.02294674,-0.3612209
0.9641857,-0.02695187,-0.367922
0.9634882,-0.02473959,-0.3680654
0.9581157,-0.02416588,-0.3707909
0.9538906,-0.02595946,-0.3721687
0.9551506,-0.02451635,-0.3722677
0.9566204,-0.02489773,-0.3748625
0.9549509,-0.02546871,-0.3745349
0.9556216,-0.02448558,-0.3735365
0.9569713,-0.02513573,-0.36777
0.956716,-0.02408407,-0.3620424
0.9574378,-0.02312464,-0.3644191
0.9577498,-0.02363683,-0.3662248
0.9585765,-0.02302034,-0.3685112
0.9595066,-0.02357456,-0.3722809
0.9584322,-0.02472439,-0.3744257
0.9574564,-0.0246142,-0.3747761
0.9565291,-0.02473306,-0.3729713
0.9569612,-0.02519178,-0.3735739
0.9583254,-0.02408371,-0.3737907
0.9587188,-0.02321024,-0.3725033
0.9612429,-0.02493819,-0.3727768
0.9629415,-0.02638562,-0.3716659
0.9607844,-0.02762888,-0.3693566
0.958563,-0.02909709,-0.3673281
0.9577509,-0.02888861,-0.3677439
0.9573562,-0.02731947,-0.3681564
0.9581227,-0.02482421,-0.3649637
0.9606282,-0.0244956,-0.3636479
0.9601252,-0.02547634,-0.366461
0.9587654,-0.02460581,-0.3692174
0.9602589,-0.0237204,-0.3686337
0.9585368,-0.02171808,-0.3690149
0.9567571,-0.02016863,-0.3712862
0.9575406,-0.02185889,-0.3673904
0.9583347,-0.02275531,-0.3644872
0.9607313,-0.02205793,-0.3710878
0.9608409,-0.02247799,-0.3766962
0.9606773,-0.02415711,-0.3746497
0.9618287,-0.0254818,-0.3703008
0.9606585,-0.02499687,-0.3681615
0.9611022,-0.02377996,-0.3683783
0.9616392,-0.02364555,-0.3699343
0.9615661,-0.02468164,-0.3698383
0.9625469,-0.02599686,-0.3687647
0.9596683,-0.02537585,-0.3694864
0.9562871,-0.0218998,-0.3677405
0.9566869,-0.01998933,-0.365336
0.9572796,-0.02215761,-0.3651534
0.9568578,-0.02465919,-0.3636432
0.9566362,-0.02480987,-0.3643586
0.9562303,-0.02237291,-0.3664957
0.9551943,-0.01984342,-0.366487
0.9555803,-0.02076435,-0.3669667
0.9571532,-0.02222549,-0.3670205
0.9587524,-0.02101434,-0.3679806
0.9604194,-0.0197178,-0.369623
0.9598524,-0.01956283,-0.3678183
0.9592196,-0.02107595,-0.3650281
0.9601219,-0.02325938,-0.3636578
0.9596267,-0.0229645,-0.3660744
0.9593803,-0.0221632,-0.3723981
0.9590918,-0.02070641,-0.3749097
0.9578518,-0.01876361,-0.3722124
0.9584782,-0.02124862,-0.3670598
0.9594956,-0.02333788,-0.3621287
0.9595771,-0.02185798,-0.3632446
0.9590332,-0.02171112,-0.3655254
0.9580639,-0.02072577,-0.365017
0.9591261,-0.01869694,-0.3670409
0.9603368,-0.01929278,-0.3674747
0.9595604,-0.02042919,-0.3659056
0.959576,-0.0222131,-0.3679424
0.9602955,-0.02600277,-0.3675094
0.9613702,-0.02657677,-0.3622306
0.9627124,-0.0239294,-0.3585605
0.9606286,-0.02379244,-0.3600608
0.9568899,-0.02305022,-0.3634225
0.9568106,-0.02167607,-0.3628524
0.9589942,-0.0242935,-0.3636861
0.9598726,-0.02507769,-0.3672975
0.9577477,-0.02083932,-0.3685694
0.9542384,-0.01650538,-0.3715289
0.9539477,-0.01683991,-0.3716825
0.9569639,-0.02264115,-0.3682652
0.9610288,-0.02661492,-0.3680261
0.9632006,-0.0252699,-0.3662093
0.9597264,-0.02418679,-0.3661593
0.9559443,-0.02535748,-0.36857
0.9568755,-0.02489157,-0.3680503
0.9573732,-0.02271153,-0.3699743
0.9565946,-0.0218486,-0.3716022
0.9574192,-0.02111218,-0.370404
0.9588078,-0.0206848,-0.3698023
0.9601108,-0.02090877,-0.3677108
0.9600678,-0.02086197,-0.3646675
0.9592544,-0.02190538,-0.3614265
0.95972,-0.02241767,-0.3607488
0.959164,-0.02205417,-0.3642463
0.9586468,-0.02135254,-0.3646952
0.960134,-0.02041132,-0.3581936
0.9594364,-0.02092032,-0.3528719
0.9566194,-0.02093398,-0.3602533
0.9555366,-0.02067928,-0.3702982
0.9578881,-0.0211574,-0.3685065
0.961034,-0.02161346,-0.3671656
0.9599027,-0.02255971,-0.3708426
0.958859,-0.02232541,-0.3701059
0.9605879,-0.02195688,-0.3660489
0.9606499,-0.02242374,-0.3607845
0.9619613,-0.0221571,-0.3601303
0.9633602,-0.02236132,-0.3655041
0.9620361,-0.02301649,-0.3712354
0.9624952,-0.02274297,-0.3759365
0.9620783,-0.02102273,-0.370773
0.958573,-0.01934277,-0.3629931
0.9561036,-0.01972531,-0.3671532
0.9569756,-0.02146117,-0.3679759
0.9603759,-0.02359868,-0.3640677
0.9615096,-0.02418057,-0.3658944
0.9598444,-0.02269813,-0.3652698
0.9579706,-0.02094567,-0.3645915
0.9579582,-0.0190301,-0.365093
0.9608186,-0.02028586,-0.3634173
0.9619406,-0.02457078,-0.3659359
0.9617484,-0.02525588,-0.3690355
0.9605188,-0.02308697,-0.3707103
0.95723,-0.02166092,-0.3729307
0.9588538,-0.02228423,-0.3706152
0.9608621,-0.02422498,-0.3662843
0.9581504,-0.02345109,-0.3659714
0.9580115,-0.02177062,-0.368386
0.9586786,-0.02163108,-0.3673569
0.9580556,-0.02065159,-0.3653698
0.9585146,-0.01898431,-0.3682667
0.9580943,-0.01932639,-0.3687094
0.957381,-0.02183772,-0.3670437
0.956812,-0.02258844,-0.3674011
0.9570362,-0.02213273,-0.3644566
0.9594099,-0.02232034,-0.3629665
0.9619187,-0.02202921,-0.3645524
0.9631706,-0.02239407,-0.3646393
0.9621549,-0.02220819,-0.3655355
0.9599393,-0.02204587,-0.3654729
0.9574259,-0.02250451,-0.3649286
0.9546249,-0.02161569,-0.3646627
0.9556514,-0.02036186,-0.3606884
0.9591854,-0.01825934,-0.357667
0.9613876,-0.0187895,-0.3618292
0.9630611,-0.02294959,-0.3678584
0.962454,-0.02382603,-0.3681316
0.9600406,-0.0209107,-0.3674338
0.9585121,-0.01837364,-0.3687565
0.9581061,-0.01957896,-0.3675556
0.9593171,-0.0220058,-0.3669963
0.9601727,-0.02219678,-0.3668618
0.9596011,-0.02232809,-0.3664359
0.9596324,-0.02106168,-0.3689302
0.9598535,-0.01942344,-0.3684821
0.9596435,-0.01946806,-0.3622209
0.9597312,-0.01923817,-0.3568978
0.9597583,-0.01960682,-0.360886
0.9596757,-0.01931087,-0.3668719
0.9597542,-0.01831626,-0.3633642
0.9597145,-0.01842736,-0.3630274
0.9597093,-0.01954304,-0.367235
0.9597451,-0.02178241,-0.3668227
0.959701,-0.02216119,-0.3695712
0.959734,-0.02252829,-0.3718871
0.9597224,-0.0236189,-0.3705174
0.9597127,-0.02172997,-0.3709053
0.9597358,-0.02178398,-0.3703752
0.9595321,-0.02329689,-0.3686015
0.959013,-0.0235274,-0.3648812
0.9589556,-0.02561631,-0.363515
0.960237,-0.02545964,-0.3689602
0.9614786,-0.02422885,-0.3730534
0.9609366,-0.02548097,-0.3713143
0.9594607,-0.02462646,-0.3668042
0.9585321,-0.02290623,-0.3639712
0.95655,-0.02205756,-0.3625174
0.9534535,-0.02193299,-0.361074
0.955381,-0.02357779,-0.3612062
0.9595513,-0.02362903,-0.3620145
0.9582755,-0.02253668,-0.3664734
0.9579281,-0.02233062,-0.3713125
0.9602994,-0.02282302,-0.3683157
0.9613107,-0.02435572,-0.3613158
0.9632223,-0.02438957,-0.3570618
0.9624223,-0.02413503,-0.3604256
0.9596155,-0.02529598,-0.3682708
0.9583636,-0.027434,-0.3706261
0.9574111,-0.03017079,-0.3684058
0.9584884,-0.02854803,-0.3674495
0.9572289,-0.0265661,-0.3677803
0.9559913,-0.02806348,-0.3665541
0.9597253,-0.02602124,-0.3639146
0.9601703,-0.02402707,-0.3633363
0.9593152,-0.02509737,-0.3655149
0.9601276,-0.02420466,-0.3695412
0.9593683,-0.02319673,-0.3709736
0.9586475,-0.0237479,-0.3684042
0.9535478,-0.02469866,-0.3693116
0.9486986,-0.02519125,-0.3703484
0.9542457,-0.02501182,-0.3685158
0.9607555,-0.02497747,-0.3696821
0.9602848,-0.02495272,-0.3687675
0.9605479,-0.02560863,-0.3671606
0.9622135,-0.02765498,-0.3684302
0.9605276,-0.02992784,-0.3669789
0.9608621,-0.02924597,-0.3662886
0.9618698,-0.02646153,-0.3673838
0.9603773,-0.02531876,-0.3692038
0.9614314,-0.02429842,-0.3718403
0.9611172,-0.02308996,-0.3713287
0.9596981,-0.02245264,-0.3722506
0.9600163,-0.02359588,-0.3759742
0.9588981,-0.02697298,-0.3780818
0.9587133,-0.02665342,-0.3795703
0.9592325,-0.02479,-0.3790799
0.9612733,-0.02525087,-0.375987
0.9617979,-0.02436998,-0.3741037
0.957298,-0.02326046,-0.374221
0.9563708,-0.02209144,-0.3746966
0.9566732,-0.02252153,-0.3762837
0.9539902,-0.02479967,-0.3783518
0.9523362,-0.02428617,-0.377297
0.9528558,-0.02487625,-0.3731825
0.9572205,-0.02587345,-0.3713462
0.9600575,-0.02524923,-0.3744021
0.9591817,-0.02671787,-0.3767131
0.9586059,-0.02525448,-0.3752887
0.957792,-0.02125117,-0.3735764
0.9566888,-0.01950772,-0.3726035
0.9549114,-0.01925026,-0.3726888
0.9556424,-0.02150995,-0.3728707
0.9576572,-0.02291573,-0.3711936
0.9568832,-0.02222802,-0.3696851
0.9568648,-0.02323692,-0.3683549
0.9569663,-0.02482576,-0.3660052
0.9569134,-0.02467137,-0.3659115
0.9570837,-0.02132055,-0.3665519
0.9567001,-0.01820355,-0.3647079
0.9571919,-0.01960835,-0.3650987
0.9568167,-0.02207253,-0.3668775
0.9568875,-0.02310762,-0.3660812
0.9575175,-0.02312726,-0.365051
0.9580958,-0.02195562,-0.3639697
0.9588828,-0.02219856,-0.3665619
0.9572442,-0.02446643,-0.3723427
0.9568281,-0.02538917,-0.3727593
0.9566973,-0.02521292,-0.3709178
0.9551591,-0.02580825,-0.3707022
0.9582911,-0.02695978,-0.3706543
0.9610652,-0.02843262,-0.3711196
0.9594551,-0.02940094,-0.3699668
0.959224,-0.0290977,-0.3671891
0.9593676,-0.02714989,-0.3651348
0.9587952,-0.02539892,-0.3681588
0.9598537,-0.02486602,-0.3729289
0.9601537,-0.02410759,-0.3708315
0.9593151,-0.02491612,-0.3690042
0.959814,-0.02560365,-0.3679649
0.9599084,-0.02453762,-0.361986
0.9592724,-0.02506607,-0.362003
0.9584729,-0.02541409,-0.3672603
0.9553692,-0.02557959,-0.368619
0.953115,-0.02669403,-0.3692705
0.9545853,-0.02556314,-0.3721236
0.9563446,-0.02441984,-0.3754361
0.9571756,-0.02497141,-0.3714921
0.9577468,-0.02405057,-0.3653432
0.9593405,-0.02227935,-0.3691791
0.9616171,-0.02228411,-0.3708716
0.9598043,-0.02412032,-0.3672322
0.956963,-0.02559065,-0.3687982
0.9583556,-0.02495,-0.3708862
0.9580074,-0.02320519,-0.3724512
0.9559999,-0.02086529,-0.3714328
0.9575465,-0.01892514,-0.3659834
0.958997,-0.0209218,-0.3645177
0.9596619,-0.02347533,-0.3653109
0.9591925,-0.02183712,-0.3659019
0.9566322,-0.02084826,-0.3681256
0.9566949,-0.02114442,-0.3706149
0.9576682,-0.02022788,-0.373637
0.9584131,-0.02012506,-0.3754234
0.9604521,-0.01985517,-0.3746167
0.9602735,-0.0223917,-0.3701867
0.960973,-0.02852745,-0.3664396
0.9632607,-0.02997689,-0.368122
0.9617297,-0.02671992,-0.3677249
0.9602841,-0.02385241,-0.3631311
0.9608857,-0.02216299,-0.3599094
0.9585634,-0.01934868,-0.3609529
0.9560212,-0.01590301,-0.3644274
0.9577217,-0.01866324,-0.3666067
0.9591922,-0.02281736,-0.3685414
0.9582144,-0.02057046,-0.3667664
0.9590394,-0.02002559,-0.3637347
0.960337,-0.02173335,-0.3643073
0.9595943,-0.0205916,-0.3585176
0.9593688,-0.02159476,-0.3522051
0.9592341,-0.02311755,-0.3591974
0.9586424,-0.02277879,-0.3684073
0.9588262,-0.0237245,-0.368671
0.9575553,-0.02279385,-0.3655296
0.9565159,-0.02065211,-0.3641315
0.9589628,-0.02072537,-0.3642062
0.9605088,-0.02105393,-0.3648246
0.9599098,-0.02173246,-0.3638663
0.9613486,-0.02179712,-0.3625604
0.963222,-0.01869508,-0.3608827
0.9624675,-0.01545082,-0.3587023
0.9611681,-0.01663055,-0.3656835
0.9609129,-0.01970849,-0.3738449
0.9601675,-0.02091758,-0.3674543
0.9594183,-0.02125239,-0.3628096
0.9597406,-0.01973027,-0.3692133
0.9599806,-0.01857654,-0.3716887
0.9605556,-0.01944786,-0.3703801
0.9614087,-0.01956176,-0.3701549
0.9612031,-0.02234182,-0.3663398
0.9609248,-0.02457752,-0.362231
0.9611904,-0.02202789,-0.3626459
0.9611613,-0.01990507,-0.3631008
0.9608328,-0.01807434,-0.3626766
0.9602814,-0.01759421,-0.3660986
0.9591039,-0.01899026,-0.370056
0.9579361,-0.02051038,-0.370209
0.9574073,-0.02256485,-0.3688185
0.9573413,-0.0197576,-0.363625
0.9571561,-0.01573522,-0.3586541
0.9565853,-0.01764852,-0.3609983
0.9570038,-0.01969653,-0.3604333
0.9579213,-0.0194616,-0.3566146
0.9603454,-0.01943919,-0.3593405
0.9646832,-0.01961971,-0.3621904
0.9642832,-0.02032515,-0.3627237
0.9611354,-0.02112624,-0.3631218
0.9608761,-0.02039887,-0.3627782
0.9600796,-0.01792731,-0.3647934
0.9594666,-0.01598426,-0.3656381
0.9598315,-0.01671431,-0.3652357
0.9597846,-0.01897079,-0.367028
0.9607528,-0.01980067,-0.369278
0.9616603,-0.01910963,-0.3706511
0.9629671,-0.01741064,-0.3648631
0.9641933,-0.01500155,-0.3582785
0.9631291,-0.01401241,-0.3607817
0.9619879,-0.01421548,-0.3605386
0.9624479,-0.0157076,-0.3571564
0.9624653,-0.01825754,-0.3610413
0.9604777,-0.01849015,-0.3661402
0.9591679,-0.01787419,-0.3654046
0.9597141,-0.01904564,-0.3610008
0.9600649,-0.01927613,-0.3578985
0.9607457,-0.01672684,-0.3577826
0.9621979,-0.01434336,-0.3608287
0.9627943,-0.01505269,-0.3658583
0.9614963,-0.01588876,-0.3665326
0.9606419,-0.0151016,-0.3657979
0.9614629,-0.01610567,-0.3686377
0.9622108,-0.01725499,-0.3681692
0.9635705,-0.01664343,-0.3665239
0.9643636,-0.01748166,-0.3644194
0.9635336,-0.01868727,-0.3591644
0.9625867,-0.0190717,-0.3606377
0.9605574,-0.02049343,-0.3627692
0.9593465,-0.0214815,-0.3611693
0.9615256,-0.02161971,-0.3649389
0.9628352,-0.02199233,-0.3662622
0.959774,-0.02071445,-0.364446
0.9574891,-0.01880821,-0.364853
0.9601469,-0.02016372,-0.3642578
0.9621815,-0.02168455,-0.3645069
0.96107,-0.02052026,-0.363334
0.9616798,-0.02084967,-0.3593796
0.9631564,-0.02207665,-0.3558942
0.9620811,-0.02166841,-0.3548628
0.9604333,-0.01976382,-0.3577586
0.9594758,-0.01708901,-0.3589875
0.9591909,-0.01732002,-0.357089
0.9592045,-0.01710393,-0.3572168
0.9581787,-0.01455653,-0.3596273
0.9588864,-0.01684841,-0.362022
0.9605226,-0.01974599,-0.3610648
0.9597002,-0.01923395,-0.3585902
0.9603685,-0.02043203,-0.3589677
0.9617676,-0.02070741,-0.361706
0.9607543,-0.02026753,-0.3646966
0.9602779,-0.02163411,-0.3627243
0.9607103,-0.02156762,-0.3592299
0.9620321,-0.02235779,-0.360655
0.9631492,-0.02353828,-0.3598244
0.962291,-0.02242349,-0.3578765
0.9623309,-0.02222551,-0.358863
0.9627908,-0.02214528,-0.35835
0.9622925,-0.02210299,-0.3600264
0.962547,-0.02252785,-0.3621025
0.9620492,-0.02210017,-0.360984
0.9596838,-0.02323178,-0.3619153
0.9576269,-0.02364707,-0.3629626
0.957789,-0.02165502,-0.3615487
0.958041,-0.02054537,-0.3579509
0.9564294,-0.02144613,-0.3542015
0.9569996,-0.02258971,-0.3551169
0.9595137,-0.0203763,-0.3568345
0.960742,-0.01848954,-0.357412
0.9616364,-0.01989916,-0.3614141
0.9607127,-0.02064434,-0.363795
0.958953,-0.02178982,-0.3611497
0.9582449,-0.02274724,-0.3604996
0.9583911,-0.02204946,-0.3615774
0.9613991,-0.02215048,-0.3609179
0.9633684,-0.02234522,-0.3610933
0.962417,-0.02197712,-0.3616022
0.961985,-0.02115122,-0.363264
0.9607551,-0.01969229,-0.3672577
0.959263,-0.0194112,-0.3679383
0.9594354,-0.02131297,-0.362423
0.9604491,-0.02255455,-0.3568381
0.961466,-0.02029401,-0.3577079
0.9625931,-0.01785147,-0.3601792
0.9619943,-0.01870259,-0.3612918
0.9589768,-0.02035664,-0.3648769
0.9573454,-0.02122377,-0.3639467
0.955052,-0.02251065,-0.3580589
0.9536861,-0.02266243,-0.3562569
0.9582165,-0.02156068,-0.3566326
0.9609921,-0.02127979,-0.3576032
0.9596739,-0.01988415,-0.3592989
0.9593433,-0.0187219,-0.3615013
0.960235,-0.01979139,-0.3624827
0.9616922,-0.01950989,-0.3557694
0.9627381,-0.01915737,-0.3496443
0.9627135,-0.0199209,-0.3523985
0.9610785,-0.0201653,-0.3572186
0.959891,-0.02093506,-0.3638793
0.9597276,-0.02016651,-0.3694933
0.9599291,-0.01879446,-0.364366
0.9629045,-0.01975964,-0.3570643
0.965363,-0.02052299,-0.3602417
0.9645652,-0.02104324,-0.3638494
0.9625821,-0.02197904,-0.3628993
0.961546,-0.02226458,-0.3630463
0.9611577,-0.02219669,-0.3602565
0.9590849,-0.021237,-0.3603304
0.9592937,-0.02013929,-0.3621955
0.9604977,-0.01909536,-0.3584311
0.9591942,-0.01758562,-0.35889
0.9597992,-0.01777462,-0.3605317
0.9599971,-0.01849594,-0.3602114
0.9596778,-0.01820632,-0.361774
0.9618306,-0.01994087,-0.361054
0.9629137,-0.02249217,-0.3619253
0.9626524,-0.02180607,-0.3619864
0.9626238,-0.01822357,-0.3568593
0.9642854,-0.01474442,-0.3526957
0.9655178,-0.01463153,-0.3546319
0.9625321,-0.01557557,-0.3624671
0.9600325,-0.01332007,-0.3687959
0.9610321,-0.01170151,-0.3701442
0.9614544,-0.01267391,-0.3657969
0.959904,-0.01265326,-0.3618369
0.9593689,-0.0126804,-0.3644835
0.9595757,-0.01490488,-0.3652228
0.9578467,-0.01849842,-0.3675791
0.9571127,-0.02010004,-0.3728405
0.9603804,-0.01703661,-0.3708713
0.9638776,-0.01302628,-0.3688901
0.9626816,-0.01220998,-0.3688529
0.960421,-0.01462222,-0.362958
0.9606005,-0.01790796,-0.3552935
0.9593707,-0.01881131,-0.354175
0.9593118,-0.01870112,-0.3580158
0.9607813,-0.01986363,-0.3572727
0.9606506,-0.02038762,-0.354063
0.9616876,-0.01991328,-0.3552639
0.9614821,-0.01941205,-0.3594432
0.9621295,-0.01900348,-0.3642015
0.9644374,-0.01889893,-0.3641678
0.9625695,-0.01855895,-0.361882
0.9621334,-0.01833608,-0.3639781
0.9629635,-0.01738985,-0.3641937
0.9620102,-0.01573556,-0.3633549
0.9628482,-0.0158632,-0.3644961
0.9624384,-0.01541569,-0.3634791
0.9622652,-0.01466946,-0.3626625
0.9629024,-0.01576599,-0.3579846
0.9619422,-0.01556904,-0.3524465
0.9616288,-0.01675741,-0.3574367
0.9599821,-0.01903918,-0.3620896
0.9591155,-0.0179459,-0.3596611
0.9601239,-0.01771672,-0.360731
0.9595814,-0.01841871,-0.3635209
0.9598625,-0.01803414,-0.3599434
0.9609232,-0.0193388,-0.3548864
0.9621217,-0.02156536,-0.3541411
0.9630167,-0.02207621,-0.3568628
0.9623107,-0.01872261,-0.361594
0.9624185,-0.01522172,-0.3628192
0.9623245,-0.01650194,-0.361431
0.9605588,-0.01746484,-0.3603554
0.9596108,-0.01593809,-0.3576451
0.9612905,-0.01650745,-0.3596316
0.9634229,-0.01892017,-0.3619915
0.9625608,-0.02142626,-0.3569977
0.9619571,-0.02149874,-0.3541955
0.9629643,-0.01886728,-0.3558473
0.9623701,-0.0184339,-0.3568524
0.9623299,-0.01784799,-0.3569811
0.9627925,-0.01564188,-0.3580039
0.962264,-0.01529976,-0.3624034
0.962582,-0.01492508,-0.3658773
0.9623944,-0.01556086,-0.3615326
0.9614462,-0.01649792,-0.3561293
0.9609991,-0.01586381,-0.360038
0.9610887,-0.01415203,-0.3634918
0.9622149,-0.009970659,-0.3612406
0.9632776,-0.01082979,-0.3621088
0.9651422,-0.01573455,-0.361234
0.9667678,-0.01562395,-0.3593499
0.9633728,-0.01504093,-0.3589788
0.9594591,-0.01537035,-0.3554232
0.9609628,-0.01536313,-0.3572846
0.9618528,-0.01668516,-0.3610799
0.959544,-0.01836972,-0.3615194
0.9595005,-0.01931691,-0.3638918
0.9605645,-0.01779769,-0.3632643
0.9620994,-0.01750648,-0.3644025
0.9652646,-0.01869985,-0.3658294
0.9659736,-0.01774791,-0.359325
0.9653656,-0.01797237,-0.3544524
0.9620718,-0.01836034,-0.3532835
0.9560071,-0.01774257,-0.354678
0.956756,-0.01841163,-0.3576124
0.9583565,-0.01894467,-0.3583109
0.9560839,-0.01923757,-0.3588742
0.9589805,-0.01757333,-0.3571788
0.9608708,-0.01399606,-0.3583583
0.9594051,-0.0134623,-0.3646379
0.9618998,-0.01505445,-0.3673023
0.9642085,-0.01645741,-0.3646914
0.9650113,-0.01975641,-0.3606542
0.9655478,-0.02342773,-0.3624063
0.9649522,-0.02251744,-0.3636131
0.9643034,-0.01939336,-0.3602888
0.9626685,-0.01950227,-0.3614365
0.96138,-0.02043798,-0.3616166
0.9591488,-0.02087311,-0.3623084
0.9557843,-0.02124967,-0.3651986
0.9565276,-0.0204196,-0.363512
0.9577835,-0.02091547,-0.363655
0.9573975,-0.02145926,-0.3643438
0.9614871,-0.02237555,-0.3634521
0.9665223,-0.02538444,-0.3641974
0.9650511,-0.0246789,-0.3633899
0.9608529,-0.02096041,-0.362081
0.9594417,-0.01883234,-0.3603591
0.9611387,-0.01979455,-0.3588918
0.9635411,-0.02192191,-0.358418
0.9622807,-0.02062119,-0.3577706
0.959972,-0.02016171,-0.3587037
0.9598086,-0.02062205,-0.3587863
0.9593429,-0.018722,-0.3605877
0.9598682,-0.01939241,-0.3665761
0.9603329,-0.01991979,-0.3692112
0.9610472,-0.01894859,-0.3672409
0.963239,-0.02008087,-0.3658052
0.9617303,-0.0215747,-0.3668512
0.9600443,-0.02437721,-0.3665342
0.9610259,-0.02511063,-0.363087
0.9612032,-0.02013234,-0.3602065
0.9627599,-0.01675031,-0.3590827
0.9629597,-0.01872451,-0.3608895
0.9609254,-0.0206853,-0.3629456
0.9609077,-0.01985049,-0.3631829
0.9602947,-0.01983391,-0.3650867
0.9592906,-0.01968744,-0.3670082
0.9598088,-0.01785649,-0.3674304
0.9597945,-0.01846003,-0.3648052
0.9596393,-0.02049257,-0.3611776
0.9597695,-0.02373217,-0.3616983
0.9598794,-0.02642515,-0.3635111
0.9604508,-0.02465507,-0.3686698
0.9604782,-0.02438806,-0.3727339
0.9595629,-0.02421133,-0.3683046
0.9594126,-0.02020282,-0.3644599
0.9603717,-0.01865492,-0.3589609
0.9614723,-0.01964442,-0.3514332
0.9628663,-0.02076961,-0.3539531
0.962943,-0.0219136,-0.3589907
0.9615942,-0.02243133,-0.3603008
0.9607219,-0.02239793,-0.3635905
0.958499,-0.02192572,-0.3648257
0.9574498,-0.02236721,-0.3632745
0.9593187,-0.02267435,-0.3636659
0.9600322,-0.02393239,-0.3623296
0.961332,-0.02670046,-0.3601862
0.9617806,-0.02619991,-0.3608681
0.9603566,-0.02337061,-0.3587069
0.9614141,-0.02156349,-0.3530407
0.9613239,-0.022055,-0.3515636
0.9606231,-0.02424971,-0.3592759
0.961567,-0.02628143,-0.3671663
0.9608938,-0.02767167,-0.364277
0.9610449,-0.02378958,-0.3620176
0.9613724,-0.0186133,-0.3652263
0.9608041,-0.02078648,-0.3637646
0.9611512,-0.02196123,-0.3635027
0.9601579,-0.02021659,-0.366586
0.9593574,-0.02273291,-0.3677467
0.9599738,-0.02356665,-0.3707987
0.9608189,-0.02162871,-0.3705627
0.9626478,-0.02212078,-0.3663197
0.9646079,-0.0224997,-0.3668321
0.9654104,-0.02188673,-0.364889
0.963259,-0.02115538,-0.3614088
0.9598149,-0.01972441,-0.3650106
0.9591998,-0.01903176,-0.3646745
0.9600884,-0.01934729,-0.3627601
0.9608645,-0.01870735,-0.3678376
0.9625196,-0.01759843,-0.3677821
0.964705,-0.01820377,-0.3631362
0.9657667,-0.01956738,-0.3613579
0.9649529,-0.0212736,-0.3653347
0.9632719,-0.0227774,-0.3721532
0.9619035,-0.02139222,-0.3674804
0.9614187,-0.02012296,-0.3623994
0.9611516,-0.02126537,-0.3646473
0.9608812,-0.02184287,-0.3614774
0.9614055,-0.02225532,-0.3604693
0.9620793,-0.02233164,-0.3615905
0.9626042,-0.0212436,-0.3606266
0.9623823,-0.02097332,-0.3621363
0.9608371,-0.02001845,-0.3634667
0.9608139,-0.01825342,-0.3659241
0.9620927,-0.01957415,-0.3650226
0.9612654,-0.02200824,-0.3624961
0.9603287,-0.02232509,-0.3645492
0.9600219,-0.02267799,-0.3634403
0.9568665,-0.0240186,-0.360718
0.9548374,-0.02411833,-0.3594425
0.9584019,-0.019167,-0.35922
0.9611714,-0.01286892,-0.3617044
0.9606306,-0.01464647,-0.3631446
0.9618712,-0.01701456,-0.365274
0.9632508,-0.0141339,-0.3668421
0.9623081,-0.01528813,-0.3646672
0.9622605,-0.01606012,-0.3617286
0.9626537,-0.01488721,-0.3585415
0.9614262,-0.01851508,-0.3588294
0.9608038,-0.02025579,-0.359087
0.9613571,-0.01916586,-0.3567096
0.9620238,-0.01831578,-0.3621136
0.9627737,-0.01675951,-0.3678504
0.9625826,-0.01655982,-0.3652399
0.9622989,-0.01638618,-0.3652763
0.9626385,-0.01585847,-0.3673611
0.9621161,-0.01510465,-0.3647839
0.9606634,-0.0152638,-0.3628949
0.9592489,-0.01755684,-0.3646592
0.9594531,-0.01816457,-0.3668334
0.9601629,-0.01711453,-0.3676246
0.9595191,-0.01540631,-0.3637603
0.9596235,-0.01473493,-0.3573326
0.9603304,-0.01570611,-0.3584937
0.9618253,-0.01528915,-0.3648226
0.9658024,-0.01608665,-0.3677218
0.9674129,-0.01718636,-0.3656506
0.9644548,-0.01666572,-0.3578012
0.961818,-0.01756393,-0.3522187
0.9605435,-0.01836038,-0.3560517
0.959362,-0.01777145,-0.3609708
0.9596257,-0.01575912,-0.3598641
0.9611632,-0.01296034,-0.3573722
0.9623399,-0.01188388,-0.35796
0.9634406,-0.01286437,-0.3573295
0.963244,-0.01462268,-0.3571251
0.9611572,-0.01554327,-0.3624196
0.9606816,-0.01605218,-0.3645454
0.9615463,-0.01774283,-0.3582205
0.9619543,-0.02019051,-0.3533585
0.9627229,-0.02058146,-0.3567539
0.9626693,-0.02140889,-0.3632337
0.9622511,-0.02571811,-0.368131
0.9626239,-0.02548868,-0.3682479
0.9625272,-0.02191125,-0.3605975
0.9623969,-0.02143898,-0.3543942
0.9625924,-0.01962653,-0.3560119
0.9622878,-0.01640652,-0.3604829
0.961582,-0.01119105,-0.3638372
0.9610701,-0.00760065,-0.3628145
0.9618509,-0.01079788,-0.3610765
0.96282,-0.01199971,-0.3604034
0.9616256,-0.01212273,-0.357655
0.9603768,-0.01343911,-0.3587624
0.9603635,-0.01200644,-0.3624321
0.9602918,-0.01342107,-0.364163
0.9631802,-0.01465108,-0.3685761
0.9675868,-0.01317834,-0.3698862
0.9668904,-0.01323655,-0.3630813
0.963706,-0.01223282,-0.3575371
0.9619448,-0.01274782,-0.3576241
0.9602871,-0.01565191,-0.3589511
0.9604048,-0.01695616,-0.3583147
0.9617906,-0.01566907,-0.3579342
0.9625089,-0.01179909,-0.3587612
0.9629939,-0.01118145,-0.3585119
0.962396,-0.01579104,-0.3608829
0.9633873,-0.01910825,-0.3664399
0.9653388,-0.01607559,-0.3680678
0.9643574,-0.01006196,-0.3615531
0.9634613,-0.008969669,-0.3534773
0.9629657,-0.009966201,-0.3560416
0.9622249,-0.009634655,-0.3626493
0.9625498,-0.01025,-0.3631034
0.9624859,-0.0113089,-0.363937
0.9625338,-0.01311749,-0.3650377
0.9624959,-0.01302676,-0.3659317
0.9624263,-0.01269173,-0.368613
0.9626419,-0.01466223,-0.365455
0.962529,-0.01373183,-0.3596246
1.014109,0.1092246,0.04433497
1.013862,0.1053971,0.03994045
1.015338,0.1057474,0.04293202
1.018187,0.1034557,0.04253154
1.020533,0.1040102,0.03887762
1.019698,0.1057398,0.03908193
1.020852,0.1053454,0.04048723
1.023129,0.1057841,0.04224705
1.021928,0.1054882,0.04103309
1.019996,0.1056162,0.03945053
1.019191,0.1066492,0.04185381
1.019247,0.106699,0.04283986
1.019649,0.1049639,0.04171394
1.019452,0.1016718,0.03598191
1.019286,0.100635,0.02868134
1.019415,0.1022572,0.03253213
1.018523,0.104122,0.04357004
1.017861,0.1059956,0.04884997
1.018997,0.1051513,0.04352863
1.019806,0.1037356,0.03442415
1.019475,0.1070284,0.03243415
1.019445,0.1095467,0.03298915
1.02043,0.1079603,0.03177756
1.020987,0.1069408,0.034711
1.019901,0.1059145,0.036896
1.018556,0.1041758,0.03365936
1.016722,0.1037565,0.02983719
1.015004,0.1035556,0.02830509
1.016823,0.1034042,0.02876131
1.019886,0.1042926,0.02679689
1.018517,0.10451,0.025074
1.015434,0.1038512,0.03131378
1.015013,0.1043939,0.03812409
1.015386,0.105058,0.03709096
1.016282,0.1045217,0.03584111
1.017361,0.103253,0.03731633
1.018341,0.1021921,0.03654762
1.020006,0.1030408,0.0402228
1.019669,0.1039755,0.04295037
1.018987,0.1042399,0.03324494
1.019914,0.1053785,0.02802161
1.020485,0.1054702,0.03206231
1.021687,0.10467,0.03272229
1.021694,0.1041502,0.03267405
1.019462,0.1049478,0.03339127
1.01898,0.1069313,0.0336181
1.019727,0.1064432,0.03324336
1.01942,0.1055896,0.03305498
1.019327,0.1053417,0.03451071
1.019575,0.1028962,0.03655732
1.019377,0.1024023,0.03965948
1.019436,0.1049714,0.03781187
1.019504,0.1061409,0.03428784
1.019375,0.1051637,0.03652468
1.019492,0.1040883,0.03561681
1.019435,0.1050871,0.03369715
1.019421,0.107514,0.03557945
1.019308,0.1076133,0.03646778
1.018511,0.1062087,0.03785785
1.018163,0.1072849,0.03776631
1.019734,0.1082093,0.0360132
1.021391,0.1080735,0.036139
1.019187,0.1084257,0.03570703
1.01422,0.1063347,0.03427259
1.011904,0.1046636,0.0333004
1.015186,0.1046737,0.034736
1.020004,0.1030308,0.03716602
1.019834,0.1025465,0.03613836
1.017355,0.1037775,0.03586697
1.015483,0.1045072,0.03845925
1.013107,0.1042326,0.03922632
1.01499,0.1038933,0.03949202
1.01906,0.1049324,0.04183327
1.019769,0.1067884,0.0455665
1.019655,0.1092188,0.04585593
1.018689,0.1097451,0.03915376
1.016676,0.109009,0.03222417
1.014799,0.1091614,0.03066391
1.015138,0.1070962,0.03228792
1.018748,0.106398,0.03313913
1.02004,0.1087761,0.03505406
1.019383,0.1098111,0.03979505
1.019458,0.1096983,0.03973124
1.01908,0.1068271,0.03773502
1.018978,0.1042312,0.03971268
1.018564,0.1052719,0.03980681
1.019489,0.1057176,0.03991408
1.019877,0.1067391,0.03967779
1.017924,0.1082301,0.03608074
1.018032,0.1083714,0.0349219
1.018298,0.108577,0.03590344
1.018393,0.1079052,0.03797673
1.018587,0.1069312,0.03861795
1.017751,0.10421,0.03221621
1.019672,0.1025973,0.0261005
1.02027,0.1082824,0.02713901
1.018634,0.1130158,0.02904553
1.019707,0.1102157,0.02841286
1.019687,0.1068173,0.0310807
1.019008,0.1050087,0.03694108
1.019779,0.1024405,0.03993797
1.018816,0.1049259,0.03950401
1.016641,0.110779,0.03807649
1.014682,0.1098783,0.03897832
1.015121,0.1078939,0.03913321
1.017772,0.1075214,0.03634076
1.018153,0.1047165,0.03598398
1.017136,0.10591,0.03637128
1.016455,0.109434,0.03797331
1.016729,0.1096277,0.0405562
1.018863,0.1061902,0.03991516
1.019812,0.1025983,0.04020306
1.019516,0.1041662,0.03847008
1.019185,0.1050974,0.03343512
1.018611,0.1047318,0.03380867
1.018736,0.1078908,0.03686502
1.018721,0.1090788,0.03614464
1.018982,0.1078972,0.03521483
1.01984,0.1070177,0.03494344
1.021354,0.1049961,0.03337799
1.022097,0.1034935,0.03760152
1.018471,0.1044522,0.04344525
1.014467,0.106708,0.0417322
1.014752,0.1089897,0.04131876
1.016455,0.10942,0.04438314
1.01797,0.1043623,0.0467295
1.020862,0.09929143,0.04885357
1.021513,0.1015471,0.04842298
1.017709,0.1046283,0.04665036
1.015096,0.105733,0.04503419
1.014238,0.1077618,0.04324014
1.01499,0.1071615,0.04028998
1.016436,0.1058917,0.03885986
1.015497,0.1057,0.04518483
1.017243,0.1037001,0.05009681
1.019174,0.1049209,0.04320121
1.019044,0.1084516,0.03562661
1.020231,0.1081088,0.0343841
1.019038,0.1065495,0.03238743
1.019191,0.1056104,0.0354801
1.020132,0.1077991,0.04703153
1.018752,0.1114173,0.05068976
1.019802,0.1103682,0.0448277
1.019175,0.1097777,0.03879646
1.017239,0.1095637,0.03398345
1.016638,0.1054959,0.03456353
1.015889,0.103321,0.03761299
1.016311,0.1041472,0.03894998
1.015124,0.1056047,0.03995732
1.015669,0.1072525,0.03920698
1.017891,0.1096773,0.03979734
1.017137,0.1118349,0.03842906
1.018196,0.1093921,0.03475111
1.018393,0.1075284,0.0379562
1.016531,0.110453,0.03834125
1.016771,0.1118679,0.02835557
1.01653,0.11065,0.02139348
1.016478,0.109094,0.02801892
1.01597,0.1079701,0.04121483
1.014728,0.1081377,0.04527367
1.015742,0.1092964,0.04220658
1.01721,0.1118841,0.04000464
1.018406,0.1144509,0.03816686
1.018411,0.1127251,0.03883446
1.017572,0.1096573,0.03923441
1.018269,0.110336,0.03857226
1.018343,0.1073996,0.03856151
1.018673,0.1019653,0.03609393
1.019968,0.104572,0.03393999
1.019444,0.1080207,0.0340911
1.019187,0.1085179,0.03307802
1.019693,0.1111127,0.02947706
1.018796,0.1130784,0.02918927
1.016743,0.1135763,0.03571296
1.014912,0.109743,0.04171957
1.016821,0.1050444,0.04285069
1.020003,0.1079927,0.0404302
1.018363,0.1106787,0.03845697
1.015533,0.1104858,0.03860527
1.015019,0.1133496,0.03802252
1.015287,0.1141213,0.03549455
1.016776,0.1109425,0.03362432
1.018857,0.1081362,0.03787074
1.020814,0.1059391,0.04056739
1.021372,0.1031205,0.03788229
1.020623,0.1007293,0.03824629
1.021785,0.09975136,0.03473828
1.022156,0.09870895,0.03048982
1.01901,0.09882894,0.03474921
1.01546,0.1005911,0.03751967
1.014977,0.1016836,0.03566601
1.018695,0.1014203,0.03319606
1.022199,0.09974079,0.03054983
1.021985,0.1009183,0.02892415
1.018574,0.1050027,0.03271029
1.01552,0.1065126,0.03856502
1.01737,0.1070217,0.0370712
1.019289,0.1061629,0.03333997
1.018677,0.0997162,0.03190313
1.020649,0.08864999,0.03385466
1.022486,0.08129553,0.0379159
1.021193,0.08422693,0.03586675
1.017856,0.090687,0.03426311
1.014118,0.0942002,0.03439459
1.01549,0.09445478,0.02873174
1.018514,0.09462264,0.02490947
1.017938,0.09830472,0.02641491
1.019571,0.09794618,0.028367
1.020441,0.09449893,0.02739198
1.018425,0.09445077,0.02700681
1.019807,0.09163115,0.03162931
1.01996,0.09059969,0.03259331
1.019652,0.09294215,0.02745938
1.021536,0.09234775,0.02436074
1.019789,0.09504106,0.02451275
1.019004,0.09683155,0.02450922
1.021263,0.09411843,0.02303446
1.023602,0.09344256,0.02246994
1.0251,0.09277565,0.02239709
1.020658,0.09205042,0.02397101
1.016088,0.08894146,0.03334259
1.018184,0.08509329,0.04312786
1.019847,0.08937664,0.0413998
1.01925,0.09412356,0.03724484
1.020472,0.09323671,0.03952385
1.02183,0.0945204,0.03808257
1.023283,0.09777011,0.03110631
1.025499,0.09980826,0.02542199
1.021482,0.1010685,0.02317812
1.010174,0.0945673,0.02613366
1.004508,0.08335842,0.02737932
1.014519,0.08269526,0.02513507
1.025806,0.09078723,0.01914705
1.020716,0.1004119,0.009018778
1.016253,0.1082031,0.01425019
1.020047,0.1084058,0.02919534
1.01851,0.1028856,0.03433477
1.020938,0.09613038,0.033859
1.023354,0.09340763,0.02519139
1.01646,0.09490255,0.01480762
1.014015,0.09460301,0.0110631
1.014538,0.09617307,0.01120438
1.014677,0.1017768,0.01436263
1.016632,0.1054809,0.01134011
1.019763,0.1027574,0.008180595
1.025631,0.09583468,0.005642184
1.026014,0.09235517,-6.369599e-05
1.023602,0.09262281,0.003806892
1.02375,0.09231171,0.005649947
1.021608,0.08788183,0.004380573
1.021465,0.08262159,0.007156703
1.020218,0.08478175,0.005117992
1.013998,0.08776179,0.008147486
1.012249,0.08514658,0.01145602
1.018961,0.07807313,0.008871125
1.025669,0.069188,0.009975364
1.024513,0.07283741,0.01028391
1.024051,0.08696723,0.01292881
1.027071,0.09729178,0.01788638
1.023021,0.103214,0.01670727
1.018964,0.1012825,0.01171732
1.022115,0.09727585,0.009628206
1.023075,0.09397269,0.01239945
1.021649,0.08391816,0.01354418
1.022531,0.07979038,0.01494012
1.023612,0.08017833,0.01869738
1.02547,0.07628548,0.021383
1.027174,0.07643221,0.02436756
1.026361,0.07500742,0.02482253
1.02586,0.07303184,0.02204272
1.025445,0.07863203,0.01420992
1.022861,0.08579003,0.006767745
1.021456,0.08929892,0.009451648
1.022395,0.08799225,0.01072224
1.022411,0.0901943,0.007049606
1.021816,0.09775197,0.008106268
1.021258,0.09912323,0.01508078
1.019865,0.09279763,0.02203337
1.019878,0.084236,0.02185975
1.021459,0.07968771,0.02565796
1.021909,0.0805824,0.03540552
1.021951,0.08174242,0.03275319
1.021471,0.08225059,0.02741537
1.019659,0.08329893,0.03034656
1.020427,0.0852438,0.02867616
1.024108,0.08646938,0.02524887
1.025465,0.08436475,0.02084245
1.023265,0.08239815,0.01401759
1.021293,0.08342343,0.01823413
1.02222,0.08281399,0.0218353
1.022732,0.07849859,0.01865937
1.021398,0.07498359,0.02331513
1.02058,0.07522703,0.02801878
1.019427,0.07593742,0.03180708
1.0207,0.07370058,0.03809863
1.023456,0.07234683,0.03634506
1.021942,0.07378849,0.03031063
1.020584,0.07435504,0.02648911
1.020287,0.07653212,0.02371536
1.018745,0.0840882,0.02390036
1.019869,0.09022109,0.0248193
1.021592,0.08997028,0.02282814
1.022329,0.09429517,0.0218334
1.022529,0.1034329,0.02196795
1.020705,0.1019131,0.02027114
1.019717,0.09653596,0.01915326
1.019726,0.09451084,0.02049887
1.020922,0.08723136,0.02781501
1.02315,0.08258306,0.03731002
1.022262,0.08490761,0.03907711
1.021341,0.0852858,0.03418932
1.020928,0.0840295,0.026447
1.019044,0.08230961,0.01903577
1.021662,0.07862382,0.0156651
1.026981,0.07518029,0.01598655
1.027754,0.07622905,0.02289694
1.023382,0.07897961,0.03439472
1.019055,0.07900191,0.0343407
1.020867,0.08189758,0.02875867
1.023962,0.08831085,0.03336057
1.02424,0.09265673,0.03270971
1.024996,0.0950766,0.02962116
1.022521,0.09888052,0.03200253
1.021173,0.1052674,0.02744552
1.030011,0.1122335,0.02712102
1.035914,0.1178857,0.02944408
1.024925,0.1184999,0.02953714
1.01162,0.1155766,0.03639314
1.012826,0.1137609,0.03944148
1.016207,0.111169,0.04016841
1.014973,0.1089684,0.03793597
1.017719,0.1078784,0.03121491
1.017381,0.1070945,0.033571
1.017212,0.1045395,0.0410771
1.021036,0.09958539,0.04838013
1.018024,0.1008134,0.04855961
1.016225,0.1030421,0.04566804
1.017283,0.1013926,0.04990801
1.016326,0.1041386,0.04584458
1.018902,0.1050347,0.04023617
1.019432,0.1033468,0.04321904
1.016626,0.1046108,0.04472395
1.015102,0.1050144,0.04725337
1.017383,0.1085833,0.04244285
1.020664,0.1136948,0.03331601
1.016414,0.1128552,0.03388466
1.012942,0.1108073,0.03449741
1.015116,0.1109827,0.03493289
1.015709,0.1102931,0.0347344
1.016216,0.109281,0.02770435
1.017176,0.1097744,0.02272902
1.018545,0.1100587,0.02305896
1.019967,0.1104294,0.02619049
1.019507,0.1113266,0.02851686
1.01926,0.1095775,0.02885803
1.01949,0.1056294,0.03107356
1.019344,0.1036862,0.034181
1.01812,0.1065812,0.03852664
1.015974,0.1098312,0.03808789
1.014745,0.1082781,0.03389415
1.01548,0.1083228,0.0362792
1.017476,0.1125901,0.03403774
1.018355,0.1143854,0.02881557
1.01821,0.1123378,0.03111348
1.017908,0.1101188,0.02997571
1.017969,0.1109795,0.0263081
1.018123,0.1118184,0.02380843
1.017306,0.1105262,0.02291649
1.018045,0.111228,0.02450943
1.019308,0.1114207,0.02157908
1.018686,0.1102762,0.0216371
1.018224,0.1100536,0.02533654
1.017284,0.1096438,0.02472503
1.016652,0.1121795,0.02544657
1.019333,0.1137111,0.02597836
1.021615,0.1115032,0.02602122
1.019103,0.1116963,0.02618347
1.016914,0.1112593,0.02465382
1.018327,0.1104564,0.02791361
1.018002,0.1118729,0.03138058
1.015865,0.1118181,0.03034847
1.014962,0.1127467,0.02938617
1.015053,0.1137146,0.02693648
1.015573,0.11271,0.02207775
1.015749,0.1125982,0.01846071
1.018147,0.1119221,0.02147427
1.022291,0.1110679,0.02552901
1.022928,0.1112333,0.02234781
1.021821,0.1124762,0.02150642
1.022228,0.1133595,0.02489615
1.022392,0.1120588,0.02519534
1.021543,0.1134931,0.02509064
1.019399,0.1158278,0.0249489
1.016578,0.1157134,0.02483516
1.016882,0.1157614,0.02601558
1.018902,0.1124065,0.02831889
1.018238,0.1097228,0.03029123
1.018651,0.1115069,0.02396391
1.0209,0.1113224,0.01654567
1.019591,0.1107882,0.02190655
1.016288,0.1113111,0.02894837
1.014871,0.1110464,0.02924968
1.017011,0.1111143,0.02807957
1.020083,0.1107523,0.02459796
1.019584,0.1093392,0.02335436
1.019062,0.1077793,0.02845915
1.019968,0.1080989,0.03167604
1.019977,0.1088045,0.02904464
1.019858,0.1087692,0.02641669
1.01744,0.1118865,0.02811315
1.014916,0.1151849,0.0297111
1.015963,0.1140963,0.03009214
1.016225,0.1131753,0.03081643
1.014941,0.1146664,0.02700008
1.015074,0.1150291,0.02518218
1.015544,0.1138241,0.02914244
1.015206,0.1132492,0.02958787
1.015164,0.1151205,0.02877488
1.015445,0.1161844,0.02843931
1.015182,0.1127624,0.02726889
1.015791,0.1116479,0.02738668
1.018067,0.113189,0.02516325
1.019778,0.1121177,0.0226503
1.018062,0.1123577,0.02327094
1.01549,0.1118777,0.02319524
1.017056,0.1103999,0.0224639
1.019089,0.1115927,0.02552041
1.019172,0.1119977,0.02939459
1.018855,0.1126217,0.02789084
1.016611,0.1133642,0.02688435
1.016128,0.1147401,0.02852134
1.01739,0.117414,0.02720347
1.017417,0.114978,0.0255822
1.019262,0.111676,0.02396926
1.020011,0.1123778,0.0227892
1.018872,0.1121829,0.02405504
1.01871,0.1124019,0.02457013
1.017789,0.1147941,0.02771505
1.017496,0.1161083,0.03211774
1.016609,0.1162587,0.02963772
1.014503,0.1146228,0.02586858
1.015113,0.1095182,0.02553217
1.015776,0.1070567,0.02470942
1.015303,0.109593,0.02478324
1.017085,0.1101197,0.02542805
1.018785,0.1085331,0.02469569
1.017884,0.1080758,0.02503024
1.017026,0.1083042,0.02519755
1.017705,0.108503,0.0254394
1.019076,0.1082042,0.02877426
1.020107,0.1083421,0.0301722
1.020088,0.1086059,0.02373639
1.019987,0.1092739,0.01696539
1.019542,0.1109902,0.02132925
1.019003,0.1118126,0.028445
1.019713,0.1127636,0.02851633
1.019351,0.1136903,0.02855019
1.018063,0.1105925,0.02789891
1.017372,0.1068067,0.02688502
1.017049,0.1080809,0.02758092
1.018352,0.1091164,0.02211473
1.018302,0.1067694,0.01729342
1.016584,0.1070605,0.01859681
1.017243,0.1090571,0.01803067
1.019293,0.1099477,0.01550362
1.021743,0.1092642,0.01318135
1.022102,0.1047924,0.01283353
1.020543,0.1014915,0.0143685
1.020049,0.1032662,0.01524443
1.018113,0.1076558,0.01600083
1.017473,0.1128065,0.01576677
1.018794,0.1144369,0.01335691
1.018629,0.110291,0.01151742
1.019558,0.1066314,0.01267989
1.018883,0.1083679,0.01290289
1.01724,0.1091843,0.01196882
1.018345,0.1075362,0.01283529
1.017984,0.1084355,0.01264838
1.016902,0.1076679,0.01282306
1.016992,0.1058382,0.01322088
1.018199,0.1054859,0.01309216
1.020242,0.1036204,0.01579094
1.019591,0.1043309,0.01544897
1.018908,0.1074596,0.01039795
1.019856,0.1087752,0.00715111
1.019351,0.1085065,0.006273894
1.019643,0.1070066,0.007753823
1.021471,0.1067471,0.01089736
1.022236,0.1071088,0.0133384
1.020695,0.1071349,0.01400173
1.01855,0.1088708,0.01345101
1.019495,0.1096821,0.01429229
1.020942,0.1071908,0.01501435
1.02062,0.1046465,0.01488491
1.020868,0.1061759,0.01452646
1.019955,0.1078443,0.0115501
1.018927,0.1054341,0.009954099
1.019647,0.1043618,0.009762637
1.019634,0.1050042,0.007824044
1.020234,0.1045893,0.00970935
1.021234,0.1043006,0.01409839
1.020644,0.1037872,0.01537575
1.019816,0.1043015,0.01204636
1.0196,0.1043971,0.008325678
1.021139,0.1035776,0.01139582
1.022574,0.1036015,0.01404704
1.020383,0.102424,0.0118697
1.017586,0.1024988,0.01231888
1.018178,0.1032944,0.01192773
1.020194,0.1027441,0.006547793
1.021162,0.1046712,0.001973038
1.020898,0.1062486,0.003724442
1.019632,0.1058545,0.009858622
1.019577,0.1071796,0.01253004
1.021333,0.1089443,0.01189416
1.022336,0.1082716,0.01247269
1.020187,0.1060077,0.01275344
1.015774,0.1050875,0.01202423
1.014937,0.1045931,0.0106639
1.018251,0.1039394,0.009263942
1.020321,0.1045537,0.008960482
1.019663,0.1059397,0.006487357
1.019034,0.1071662,0.0001777967
1.020646,0.1053748,-0.001620904
1.021251,0.1031246,0.006960539
1.020527,0.1046518,0.0141818
1.021192,0.1063231,0.01139189
1.021671,0.1071092,0.00953828
1.022422,0.1071437,0.01160456
1.022145,0.1058572,0.008486543
1.020023,0.1062468,0.005383568
1.019514,0.1073044,0.007744443
1.021009,0.1066358,0.008671652
1.022645,0.1050153,0.007976486
1.020691,0.103679,0.007004327
1.018207,0.103986,0.00649883
1.019743,0.1045269,0.009504921
1.019786,0.1041614,0.01136702
1.018772,0.105004,0.01198493
1.018888,0.1058311,0.01359758
1.018051,0.1046071,0.01492227
1.019632,0.1037443,0.01638802
1.021593,0.1038551,0.01183333
1.019887,0.1025217,0.005802661
1.018981,0.1010831,0.008407181
1.020729,0.1029721,0.010483
1.022307,0.1050191,0.009009977
1.023276,0.103202,0.01001902
1.023022,0.1022222,0.009930156
1.019151,0.1045565,0.009613251
1.01514,0.1071494,0.01190356
1.016274,0.1090508,0.01292221
1.017488,0.1086509,0.01255959
1.015209,0.1077017,0.01238119
1.01578,0.1086853,0.01190177
1.020146,0.1076951,0.01001968
1.023131,0.104424,0.007345208
1.021776,0.1020295,0.008207812
1.018718,0.1018216,0.009996527
1.019371,0.102316,0.009464955
1.01997,0.1017361,0.009354458
1.018833,0.1036686,0.007118328
1.019819,0.1051109,0.005532381
1.019454,0.1050244,0.01107972
1.019113,0.1089862,0.01686093
1.019898,0.1091471,0.01570199
1.019444,0.1078134,0.01327145
1.021352,0.1127983,0.01416555
1.022542,0.1137012,0.01416742
1.020356,0.1085439,0.01437552
1.018797,0.1041615,0.01600885
1.019048,0.1064564,0.01477293
1.018912,0.1106227,0.01287086
1.01657,0.1075365,0.01056875
1.016557,0.1077069,0.008278162
1.019106,0.1095741,0.007750951
1.020757,0.1072771,0.003972397
1.022131,0.1082272,0.001639613
1.02138,0.1057075,0.005206548
1.020461,0.1018131,0.007801952
1.021467,0.1032386,0.01002024
1.023464,0.1047982,0.013687
1.025011,0.1068098,0.01471199
1.020786,0.1069072,0.01355167
1.016225,0.1061159,0.01354826
1.018847,0.106837,0.01262102
1.020706,0.1063964,0.008416888
1.018835,0.1082807,0.006128253
1.019284,0.1095186,0.009371704
1.019969,0.1076762,0.014367
1.019354,0.1093653,0.01628285
1.021365,0.1113255,0.01484339
1.022588,0.109965,0.01280179
1.02014,0.1096106,0.01041439
1.017884,0.1096832,0.009835943
1.017825,0.1096486,0.01427646
1.019274,0.1099553,0.01781279
1.019866,0.1092926,0.01385806
1.020236,0.1089364,0.008941406
1.02118,0.1081597,0.008950257
1.020487,0.1079792,0.00835972
1.018917,0.1084518,0.009225594
1.017791,0.1066366,0.01620284
1.019039,0.1065781,0.02057126
1.021954,0.10821,0.02011727
1.022633,0.1087731,0.01855407
1.022001,0.112566,0.01474018
1.021236,0.1168442,0.01434677
1.020578,0.1141128,0.01637633
1.020818,0.108808,0.01475796
1.020917,0.1078995,0.01509484
1.020981,0.1082156,0.01588007
1.021705,0.1083834,0.01465921
1.022163,0.1086136,0.01561301
1.020373,0.1082618,0.01532155
1.017397,0.1103872,0.01494785
1.015759,0.1117208,0.01569953
1.014337,0.1106214,0.01495637
1.014889,0.1093409,0.01538544
1.019391,0.107332,0.01485572
1.022136,0.1061091,0.01287902
1.020611,0.1036041,0.01324829
1.018888,0.1027546,0.01594104
1.016525,0.1086855,0.01806059
1.012536,0.1138314,0.01775277
1.012513,0.1125297,0.0179314
1.017528,0.1089203,0.01649805
1.020748,0.1080359,0.01434359
1.019729,0.109199,0.01647738
1.01889,0.1104083,0.01718671
1.020656,0.1119273,0.01668653
1.021337,0.1135081,0.01864342
1.02029,0.1145999,0.01985869
1.02008,0.1133418,0.01974042
1.019239,0.1117466,0.018853
1.0186,0.1111186,0.01864862
1.017208,0.110507,0.01822568
1.014368,0.1119324,0.01842177
1.015848,0.1129543,0.02007176
1.017771,0.1134158,0.01847593
1.016195,0.1118185,0.01736549
1.01654,0.1072431,0.01882859
1.017405,0.1081141,0.01845084
1.018123,0.1101373,0.0163457
1.019946,0.1090552,0.01525545
1.018641,0.109262,0.01873268
1.016319,0.1075977,0.01842661
1.016643,0.1061821,0.01412426
1.016771,0.1056669,0.01754559
1.016355,0.1055468,0.01769146
1.015902,0.109701,0.01485204
1.015284,0.1118103,0.01909006
1.017138,0.1093328,0.02178292
1.019768,0.1075105,0.02461716
1.019734,0.1088551,0.02060278
1.019173,0.1122077,0.010933
1.019525,0.1127259,0.0153471
1.019507,0.1106269,0.01919993
1.018989,0.1086725,0.01826065
1.017715,0.1086517,0.02122172
1.016129,0.111093,0.01803905
1.017113,0.1131473,0.0162947
1.020719,0.112499,0.01521537
1.022712,0.1091158,0.01046029
1.020783,0.1076755,0.009432747
1.018329,0.1084483,0.007950881
1.019214,0.1088284,0.00998076
1.019418,0.1111768,0.01213004
1.018062,0.1131455,0.01302502
1.019779,0.1128269,0.01903811
1.020022,0.1120907,0.01609269
1.018323,0.1124673,0.01355769
1.017916,0.1129203,0.02035909
1.015252,0.1116807,0.02221899
1.014983,0.1107306,0.02454237
1.018686,0.1084524,0.02522372
1.019975,0.1074289,0.02298726
1.019829,0.1090853,0.0214007
1.019856,0.1080724,0.01436032
1.020021,0.1084959,0.01387198
1.0187,0.1107357,0.01752088
1.017096,0.1121082,0.01693351
1.018637,0.1134397,0.02005513
1.019156,0.1130422,0.01827145
1.019202,0.1140011,0.01390881
1.020032,0.1144407,0.01567828
1.019007,0.1130619,0.01543085
1.019304,0.1133379,0.01489229
1.018858,0.1122836,0.01566015
1.016816,0.1118929,0.01645934
1.015597,0.1121892,0.02249793
1.013358,0.1103042,0.02774192
1.014229,0.1101253,0.02175634
1.016752,0.1098929,0.01207525
1.016717,0.1095592,0.01205662
1.018326,0.1120862,0.01710623
1.018923,0.1138754,0.02020268
1.018188,0.1141612,0.02233618
1.020011,0.113886,0.02117052
1.019757,0.1138381,0.01872359
1.018796,0.1150293,0.01759753
1.019745,0.1150918,0.0154245
1.018455,0.1135197,0.013129
1.017911,0.1117573,0.01316923
1.020091,0.1109468,0.0138206
1.021124,0.1096163,0.01192089
1.020152,0.1077262,0.01150265
1.018802,0.1100309,0.01071475
1.019815,0.1126637,0.007910659
1.021629,0.1125126,0.01350138
1.022334,0.1140619,0.01912568
1.022297,0.1133994,0.0154966
1.019539,0.1108112,0.01416173
1.016185,0.1121272,0.01625698
1.014605,0.1138699,0.01746354
1.015487,0.1142271,0.02003889
1.018623,0.1148462,0.02114892
1.019897,0.1153727,0.0170477
1.019458,0.1155073,0.0139433
1.018558,0.1147201,0.01630205
1.018869,0.1133051,0.01745066
1.021771,0.111239,0.01632773
1.022606,0.1102381,0.01730673
1.021085,0.1106427,0.0204364
1.019552,0.1094741,0.0232098
1.019418,0.1094831,0.02171753
1.021502,0.1111692,0.01650397
1.022664,0.1107269,0.01155185
1.022217,0.1093816,0.01010694
1.020878,0.108039,0.01234229
1.019685,0.1091535,0.01316899
1.019846,0.1126193,0.01170166
1.021909,0.1135235,0.01077845
1.024542,0.1126312,0.009380364
1.022219,0.1093751,0.009221682
1.017605,0.1056071,0.01088391
1.016251,0.1066222,0.01214408
1.017363,0.107689,0.01452683
1.019736,0.1069244,0.01462283
1.019912,0.108299,0.01288541
1.019891,0.1090982,0.01418573
1.021487,0.1082217,0.01319767
1.020583,0.1099846,0.01163684
1.019852,0.1112416,0.01297032
1.02022,0.1064477,0.01242262
1.020045,0.1024809,0.01232344
1.020473,0.1038841,0.01260459
1.020724,0.1040226,0.01116073
1.021097,0.1027838,0.01011407
1.020634,0.1063144,0.009129011
1.019677,0.1109197,0.009022631
1.019339,0.1096408,0.009216443
1.018235,0.1070375,0.009581773
1.018143,0.106219,0.01040155
1.018958,0.1056249,0.01029037
1.019604,0.1063154,0.01114807
1.019416,0.1047662,0.0106537
1.01725,0.1038646,0.008342686
1.016279,0.10827,0.007243313
1.016791,0.1110382,0.005362906
1.017813,0.1106725,0.00678949
1.019517,0.1109502,0.0107043
1.02066,0.1112147,0.01015278
1.022073,0.1103723,0.01099828
1.022325,0.1099437,0.01321004
1.021188,0.1099199,0.01062781
1.020639,0.1060992,0.008783905
1.02065,0.1029016,0.009356987
1.021101,0.1060314,0.007112003
1.020731,0.1083316,0.003251589
1.020713,0.1073086,0.001288339
1.021081,0.1074315,-0.001194212
1.020424,0.1070116,-0.002640476
1.020047,0.1053422,0.00449949
1.01904,0.1046519,0.01269875
1.018286,0.1039326,0.01337962
1.018179,0.1038994,0.01605593
1.017707,0.1051292,0.01806434
1.018266,0.1066016,0.007925619
1.018122,0.1090909,-0.001044833
1.017976,0.1089364,0.002560872
1.019581,0.1061382,0.005320159
1.021352,0.102586,0.005071791
1.022678,0.09771602,0.008237763
1.021481,0.1018134,0.002725348
1.02006,0.1089226,-0.007658605
1.021114,0.1050671,-0.005390669
1.020604,0.104025,0.0003267371
1.018764,0.1062597,0.001187339
1.017748,0.103033,-0.0004249288
1.01827,0.1039899,-0.003861733
1.021132,0.1046908,-0.000414886
1.022751,0.1014932,0.003165804
1.021283,0.1013137,-0.001240252
1.019349,0.1020975,-0.0007329822
1.019145,0.1058973,0.00622087
1.019717,0.1099603,0.01078402
1.019499,0.1084402,0.006279227
1.020125,0.1076367,-0.0003966474
1.020178,0.1087558,0.002414151
1.018213,0.1083617,0.0006454131
1.017591,0.107904,-0.006395067
1.018052,0.1074543,-0.006826375
1.017244,0.1056022,-0.009592211
1.016968,0.1037611,-0.008200093
1.020368,0.1024094,-0.0003287621
1.024468,0.1009058,-0.0008494338
1.023923,0.1022841,-0.003110791
1.02186,0.1044764,-0.00515127
1.021,0.1041312,-0.009218638
1.018778,0.1041688,-0.004327185
1.017495,0.1042242,0.00122229
1.019082,0.1042154,-0.001178772
1.019745,0.1050379,0.0003679674
1.018429,0.1048177,0.00504633
1.017679,0.1040355,0.005466826
1.01825,0.1042583,0.006883737
1.019118,0.1061627,0.008052542
1.019932,0.107355,0.006076672
1.021361,0.10604,0.006989193
1.022637,0.1049178,0.007548693
1.022074,0.1046628,0.005842445
1.020134,0.1037602,0.005426212
1.019337,0.1021119,0.002748772
1.021153,0.1013894,0.001902353
1.022813,0.1030135,0.003417452
1.021443,0.1045578,0.001506805
1.019916,0.1025952,0.001042047
1.020141,0.1006279,0.001810809
1.019401,0.1033153,0.002083353
1.018988,0.1051857,0.003417758
1.019881,0.1036577,0.003464398
1.019322,0.1031442,0.001934478
1.019257,0.1031017,-0.00433064
1.019765,0.1046498,-0.01097119
1.019184,0.1081554,-0.007919614
1.019532,0.1089935,-0.002269886
1.019001,0.1078913,-0.001037897
1.016568,0.1068249,-0.0009047001
1.014659,0.1041658,-0.001707047
1.015372,0.1017538,-0.0007413378
1.018948,0.1028249,0.003634655
1.021829,0.1042857,0.006486567
1.022298,0.1039927,0.005781418
1.019598,0.1043174,0.002329204
1.01676,0.1042165,-0.001288816
1.018159,0.1041178,-0.00352112
1.018588,0.1053128,-0.002574313
1.017508,0.1053365,0.002656578
1.018499,0.1034837,0.005189632
1.018977,0.1007564,0.004090044
1.019881,0.1014714,0.002334884
1.021019,0.1063807,-0.001415803
1.019734,0.1078675,-0.004447324
1.017244,0.1056942,-0.004063816
1.015607,0.1051092,0.0008557049
1.015906,0.1058852,0.004299262
1.017698,0.1065576,0.003544186
1.020236,0.1070437,0.006882728
1.020096,0.1071444,0.01075496
1.018446,0.1067647,0.007605314
1.019918,0.1069365,0.003455959
1.019689,0.1071075,0.004782569
1.018605,0.1069328,0.004939284
1.019182,0.1079411,0.003108032
1.017498,0.1086314,0.00578275
1.01817,0.1081394,0.005961964
1.020648,0.1068452,0.004911418
1.021522,0.103989,0.006577787
1.021907,0.1026314,0.006883509
1.019423,0.1061771,0.008795137
1.019129,0.1099485,0.007569393
1.021866,0.1084774,0.004333702
1.022242,0.1073943,0.005819199
1.021584,0.1090731,0.006551393
1.020323,0.1081967,0.006491495
1.020659,0.1079754,0.006879306
1.021372,0.1088523,0.007076276
1.020175,0.1081363,0.007102434
1.020117,0.1094924,0.00603117
1.019315,0.1108843,0.00530176
1.01919,0.110474,0.005833429
1.020874,0.1099808,0.01065189
1.020811,0.1083516,0.01257021
1.020727,0.1065613,0.007147701
1.019993,0.1062049,0.006338961
1.018962,0.1065359,0.008489471
1.019595,0.1053494,0.009003724
1.019483,0.1051517,0.009663287
1.01935,0.1073271,0.009032891
1.019363,0.107806,0.01155346
1.018464,0.1088678,0.01282902
1.018034,0.1101691,0.007538072
1.018798,0.1092613,0.00411114
1.019928,0.1084071,0.005312368
1.019846,0.1071496,0.006161777
1.020913,0.1059632,0.004107476
1.023058,0.1036683,0.00276128
1.021793,0.1033502,0.003848414
1.019052,0.1066181,0.006876249
1.017435,0.1082027,0.01078638
1.016758,0.1139607,0.007655257
1.016879,0.1184565,0.003539301
1.016813,0.1120836,0.007035494
1.018399,0.1065292,0.00779276
1.020259,0.1057145,0.007248264
1.019382,0.1059404,0.01268321
1.019141,0.1055971,0.01653473
1.019384,0.1035603,0.01359507
1.017521,0.1044136,0.008256829
1.016109,0.1076791,0.004936334
1.016538,0.1108748,0.002655603
1.016995,0.1128479,0.00534234
1.016695,0.1114221,0.01090022
1.017461,0.1070508,0.009704659
1.018551,0.1026411,0.01191195
1.018158,0.1037904,0.01883447
1.018788,0.1076092,0.01747036
1.019909,0.1088306,0.01319572
1.019434,0.1111114,0.01033601
1.019263,0.1115445,0.01104725
1.019939,0.1082348,0.01378893
1.021213,0.1062928,0.01018387
1.022527,0.1053258,0.007925963
1.021611,0.1074633,0.006917753
1.02012,0.1113165,0.003399473
1.020725,0.1113407,0.007399426
1.01993,0.1103211,0.01214787
1.017001,0.1074083,0.01087521
1.016552,0.1034165,0.01059303
1.018514,0.1038803,0.009834887
1.020085,0.1059446,0.008048571
1.019644,0.1074691,0.008434482
1.018392,0.1088278,0.008635393
1.017098,0.1085466,0.009629134
1.014485,0.1083052,0.01386293
1.015207,0.1102676,0.01638349
1.018918,0.1118074,0.01481189
1.019745,0.1108651,0.01215651
1.019653,0.1098295,0.01065905
1.019321,0.108744,0.01202128
1.019405,0.1082333,0.01382881
1.020748,0.1102248,0.01322735
1.02061,0.1114172,0.01207044
1.020091,0.1092155,0.01257614
1.019548,0.1065495,0.01370266
1.020872,0.1068447,0.0137564
1.023318,0.1081966,0.01295755
1.02192,0.108397,0.01107387
1.020885,0.1084675,0.009752703
1.0209,0.1082213,0.009923374
1.019517,0.1086548,0.0106141
1.01926,0.1100966,0.01240902
1.018467,0.1107704,0.01327371
1.017931,0.1104739,0.01418595
1.019031,0.1099816,0.01681876
1.019682,0.1096925,0.01698834
1.019436,0.108797,0.01539224
1.018466,0.1088979,0.01509399
1.018773,0.1105315,0.01527002
1.019735,0.1115345,0.01499781
1.01934,0.1128346,0.01345461
1.018452,0.1125523,0.01246445
1.017407,0.1105367,0.01537757
1.01625,0.111215,0.01964313
1.015424,0.1129171,0.02012043
1.017601,0.1123253,0.01842952
1.020753,0.1094626,0.01632631
1.019552,0.1075013,0.01192836
1.018882,0.108311,0.01101072
1.020932,0.1086426,0.01781564
1.020613,0.1085063,0.02283883
1.018917,0.110289,0.02021233
1.017837,0.1124604,0.01766778
1.018583,0.1122226,0.01805402
1.020229,0.1112121,0.01503038
1.01935,0.1118489,0.01140472
1.019059,0.1109167,0.01184674
1.019912,0.1087213,0.01426906
1.019175,0.1082037,0.01862256
1.019434,0.1081154,0.02064343
1.019481,0.1081074,0.02011632
1.018278,0.1072063,0.0196513
1.017804,0.1077792,0.01561821
1.016998,0.1123286,0.01382916
1.016523,0.1140985,0.01483855
1.016436,0.1135399,0.01425978
1.015959,0.114951,0.0150187
1.016368,0.1114093,0.01469168
1.018463,0.106507,0.01638531
1.02057,0.109987,0.01914902
1.020457,0.1124655,0.01807268
1.021326,0.1086062,0.01916799
1.022059,0.1077481,0.02178256
1.019315,0.109614,0.02351314
1.018881,0.1106232,0.0224429
1.019972,0.113378,0.01772641
1.019168,0.1162003,0.0148901
1.019479,0.1154094,0.01487502
1.019743,0.1127536,0.01701949
1.020162,0.1121858,0.01876433
1.020548,0.1127836,0.01962702
1.017277,0.1132908,0.01983332
1.013992,0.1139496,0.01789481
1.014822,0.112118,0.01730471
1.015715,0.1103102,0.01446976
1.015847,0.1106418,0.01016848
1.018831,0.1086711,0.01082618
1.019924,0.106133,0.01172534
1.018562,0.1078769,0.01183474
1.019993,0.1114586,0.01326222
1.019594,0.1137196,0.01535478
1.018799,0.1169713,0.01731067
1.019419,0.1185007,0.01677977
1.015511,0.1131578,0.01551219
1.01378,0.1057465,0.0163822
1.019238,0.1032136,0.0187904
1.02419,0.1076798,0.01953472
1.021916,0.1118959,0.01676493
1.015721,0.1106801,0.01419923
1.011964,0.1124456,0.0149327
1.009021,0.1144534,0.01506498
1.009831,0.1090443,0.01313797
1.013358,0.1053687,0.0145077
1.019376,-0.111357,-0.07689384
1.019596,-0.1154485,-0.08142229
1.019473,-0.1166042,-0.08106189
1.01982,-0.1176626,-0.07851733
1.022248,-0.117208,-0.07719749
1.024634,-0.1140794,-0.07520834
1.024655,-0.1126431,-0.076012
1.024689,-0.1125401,-0.08062292
1.02419,-0.115812,-0.08313809
1.022378,-0.1193406,-0.08192278
1.021713,-0.1192901,-0.08201351
1.022483,-0.1158201,-0.08566355
1.022284,-0.1124388,-0.09049672
1.021976,-0.1143843,-0.091823
1.022296,-0.1172585,-0.08628702
1.020663,-0.1186652,-0.08094357
1.01785,-0.1203318,-0.08243024
1.016431,-0.1208898,-0.08555075
1.019217,-0.1211266,-0.09155473
1.023396,-0.1207007,-0.0998045
1.02313,-0.1204739,-0.09475208
1.022234,-0.1204536,-0.08420343
1.021633,-0.119987,-0.08435286
1.020061,-0.1219359,-0.08524338
1.020969,-0.12386,-0.08612596
1.020997,-0.1269508,-0.08962823
1.019483,-0.1341634,-0.09240584
1.019112,-0.1367073,-0.1001307
1.017688,-0.1345862,-0.103741
1.016885,-0.1355198,-0.1000016
1.017529,-0.1360093,-0.09931001
1.017764,-0.1356103,-0.09770208
1.019064,-0.1366694,-0.09629469
1.020716,-0.1358029,-0.09772452
1.020194,-0.1350825,-0.09633021
1.018979,-0.1359964,-0.09250209
1.0194,-0.1368363,-0.08934072
1.019704,-0.13813,-0.09052504
1.019228,-0.1375132,-0.09366774
1.019518,-0.1370271,-0.09421275
1.019497,-0.1376704,-0.0954928
1.019333,-0.1354357,-0.09779099
1.019908,-0.1341158,-0.1006981
1.02117,-0.1342771,-0.1015498
1.022773,-0.1320944,-0.09761858
1.021939,-0.1299668,-0.09839748
1.019067,-0.1309843,-0.1009268
1.017498,-0.1329503,-0.09991544
1.017782,-0.1315892,-0.10233
1.018812,-0.1305613,-0.1014404
1.019756,-0.1309469,-0.09945312
1.020798,-0.1293054,-0.1005269
1.01957,-0.1272222,-0.09741627
1.016914,-0.1241035,-0.09687328
1.018195,-0.1241031,-0.097498
1.019637,-0.1259435,-0.09730223
1.019053,-0.1225563,-0.1005056
1.019645,-0.1218204,-0.1013647
1.018489,-0.1247119,-0.1000442
1.017506,-0.1262773,-0.09774017
1.018368,-0.1279707,-0.09742371
1.017939,-0.1277072,-0.09615365
1.017865,-0.1277313,-0.09141926
1.017268,-0.1280343,-0.09464591
1.016232,-0.1273938,-0.09763528
1.016549,-0.1284578,-0.09523515
1.016043,-0.1294556,-0.09773875
1.016003,-0.1307829,-0.09946671
1.017747,-0.1301791,-0.0986142
1.018461,-0.1279794,-0.09848671
1.016985,-0.1285747,-0.09692915
1.016372,-0.127597,-0.09728451
1.017771,-0.1262965,-0.1024288
1.018329,-0.1268984,-0.1051113
1.017709,-0.1269018,-0.1029885
1.016178,-0.1278096,-0.1041771
1.015092,-0.1261197,-0.10328
1.017311,-0.1229972,-0.1003428
1.020671,-0.1235304,-0.1030301
1.021462,-0.1238438,-0.1020381
1.020573,-0.1235935,-0.1001497
1.020748,-0.1249845,-0.1001844
1.02087,-0.1269993,-0.09628297
1.019762,-0.1280846,-0.0960231
1.019242,-0.1254882,-0.09871267
1.019371,-0.1214089,-0.1020286
1.01956,-0.1206431,-0.10519
1.019622,-0.1235251,-0.104934
1.020404,-0.1257756,-0.1041104
1.022138,-0.1233189,-0.1000178
1.022167,-0.1210258,-0.09787054
1.020138,-0.1226815,-0.09941467
1.017995,-0.1234622,-0.09815063
1.017951,-0.1234178,-0.09967173
1.020521,-0.1239853,-0.1011569
1.02313,-0.1234042,-0.102139
1.024035,-0.1231797,-0.1054006
1.022357,-0.1220767,-0.1044286
1.019821,-0.1200361,-0.1044361
1.019104,-0.1209179,-0.1058307
1.019529,-0.122366,-0.1023838
1.020525,-0.1228483,-0.09893893
1.020724,-0.1224782,-0.09972822
1.019004,-0.1183908,-0.1024662
1.017858,-0.1149989,-0.102381
1.019613,-0.1160138,-0.101997
1.021638,-0.1163363,-0.1042113
1.019428,-0.1156035,-0.1050883
1.016466,-0.1166778,-0.1043034
1.017556,-0.1185219,-0.1036784
1.01996,-0.1200671,-0.1043114
1.020143,-0.1195167,-0.1048173
1.018784,-0.1179696,-0.1051498
1.019098,-0.1181487,-0.1059844
1.018527,-0.1179925,-0.1036861
1.017321,-0.117927,-0.1021829
1.020064,-0.1183365,-0.1025907
1.020378,-0.1186818,-0.1006331
1.019306,-0.1226252,-0.1014038
1.021503,-0.1259283,-0.1029693
1.020083,-0.1226217,-0.1023838
1.018714,-0.1188611,-0.1030137
1.020832,-0.1189143,-0.1016043
1.02103,-0.1174476,-0.09995631
1.020427,-0.1155943,-0.1002474
1.018698,-0.1180746,-0.1018627
1.015653,-0.1186672,-0.1081667
1.015184,-0.1174092,-0.1130957
1.018034,-0.1184974,-0.1116295
1.020531,-0.1179238,-0.1109572
1.019512,-0.1173509,-0.113455
1.019582,-0.1157329,-0.1137696
1.023474,-0.1125153,-0.1133206
1.025635,-0.1129191,-0.1142281
1.023282,-0.1129965,-0.1115139
1.019681,-0.1129955,-0.1087955
1.01789,-0.1157637,-0.1096352
1.016543,-0.1174339,-0.1093569
1.017035,-0.1183025,-0.1075055
1.020118,-0.1183798,-0.1070246
1.020573,-0.1176678,-0.1125325
1.020423,-0.1176455,-0.1172958
1.020535,-0.11552,-0.1142075
1.018692,-0.1126475,-0.1129074
1.019064,-0.1130233,-0.1143858
1.018158,-0.1137314,-0.1131901
1.015386,-0.1138057,-0.1108442
1.016068,-0.1154975,-0.1109011
1.016119,-0.1172514,-0.1146283
1.015688,-0.1184913,-0.1150025
1.016271,-0.11821,-0.1127361
1.015772,-0.1166208,-0.1138157
1.016195,-0.116488,-0.1124015
1.01714,-0.1159606,-0.1088101
1.018536,-0.1168258,-0.1087503
1.020009,-0.1224382,-0.1096565
1.019141,-0.1267387,-0.1141213
1.017416,-0.1236134,-0.1204138
1.016446,-0.11498,-0.1182769
1.017872,-0.1093123,-0.1152089
1.021377,-0.1127659,-0.1173767
1.022612,-0.1197837,-0.1146599
1.020486,-0.1226365,-0.1095812
1.018565,-0.1248519,-0.1107111
1.019406,-0.127366,-0.1139842
1.019944,-0.1244503,-0.1143063
1.018844,-0.1224734,-0.1150762
1.018292,-0.1235858,-0.1184817
1.016185,-0.1207064,-0.1201948
1.014329,-0.1163563,-0.1184848
1.015677,-0.1113613,-0.1137462
1.016422,-0.1067961,-0.1106278
1.016599,-0.108338,-0.1160483
1.016985,-0.1130201,-0.1220234
1.016778,-0.1146325,-0.1194594
1.018476,-0.1138554,-0.116764
1.020146,-0.1141311,-0.1170665
1.019454,-0.1158361,-0.1145384
1.019166,-0.1181868,-0.1142463
1.019271,-0.1185516,-0.1151806
1.017664,-0.1175934,-0.1140562
1.016007,-0.1182736,-0.1185359
1.016556,-0.1179012,-0.1214253
1.01706,-0.1169798,-0.1198987
1.016583,-0.1171665,-0.121438
1.017569,-0.1190387,-0.1196656
1.018489,-0.1216073,-0.1168198
1.01762,-0.1192764,-0.1140302
1.016165,-0.1167382,-0.1095791
1.015021,-0.1182384,-0.1126473
1.016089,-0.1174619,-0.1155933
1.018241,-0.115776,-0.1135162
1.018079,-0.1159236,-0.1157379
1.016961,-0.1150268,-0.1183641
1.0167,-0.1136705,-0.1169331
1.017403,-0.1121641,-0.1144312
1.018698,-0.1112722,-0.11382
1.019015,-0.1157753,-0.1166274
1.019391,-0.1217522,-0.1190872
1.019652,-0.121683,-0.1181995
1.01808,-0.1209558,-0.1181693
1.016893,-0.1228228,-0.1220226
1.016334,-0.1222393,-0.1247253
1.015596,-0.1204966,-0.1233774
1.015285,-0.1187474,-0.1213264
1.015199,-0.1155744,-0.1205234
1.016323,-0.1145562,-0.1200304
1.017035,-0.1156011,-0.1166905
1.016518,-0.1151252,-0.1105897
1.016879,-0.1142249,-0.1079597
1.017566,-0.1137602,-0.1096466
1.01847,-0.1137079,-0.1099251
1.019132,-0.1135711,-0.1092944
1.019408,-0.1109568,-0.1094842
1.019567,-0.1079283,-0.1098135
1.018518,-0.1078924,-0.1127978
1.018642,-0.1089036,-0.1150224
1.020005,-0.1093489,-0.1145572
1.020409,-0.1110589,-0.1147582
1.020401,-0.1134983,-0.1119044
1.018153,-0.1138718,-0.1083523
1.014777,-0.1121626,-0.1094994
1.014735,-0.1104374,-0.1104466
1.016202,-0.1108775,-0.1086308
1.016895,-0.1116783,-0.106009
1.018406,-0.1107527,-0.1043616
1.018594,-0.1116113,-0.1078981
1.017229,-0.1141061,-0.1133402
1.017222,-0.115198,-0.1114601
1.015725,-0.112958,-0.1099342
1.014806,-0.1089558,-0.1141291
1.017905,-0.1099711,-0.1141648
1.020357,-0.1112007,-0.1129974
1.021322,-0.1080165,-0.1116906
1.021168,-0.1079017,-0.1083979
1.021241,-0.1089759,-0.1099003
1.022171,-0.1089295,-0.1116041
1.018674,-0.109944,-0.1132622
1.015164,-0.1089318,-0.1184508
1.017027,-0.1077793,-0.1204924
1.018872,-0.1084401,-0.1178282
1.018684,-0.1084689,-0.1108194
1.018,-0.1078441,-0.1038163
1.017956,-0.1065685,-0.1044539
1.019126,-0.1050793,-0.1059206
1.019762,-0.1052554,-0.100302
1.019394,-0.1060119,-0.0977089
1.019354,-0.1051994,-0.1031471
1.019544,-0.1045052,-0.1059925
1.019394,-0.1042073,-0.1067469
1.01962,-0.1038061,-0.1079391
1.020554,-0.1046217,-0.1070186
1.021951,-0.1047185,-0.1103913
1.022465,-0.1041406,-0.113499
1.021027,-0.1042657,-0.1087242
1.019383,-0.1049364,-0.1053177
1.018513,-0.1064283,-0.1070328
1.018673,-0.1069524,-0.1072239
1.01973,-0.1071525,-0.1046714
1.019666,-0.1072068,-0.1036309
1.019141,-0.1074502,-0.1042883
1.019391,-0.1090012,-0.1040252
1.018625,-0.1075973,-0.1034341
1.017799,-0.1043464,-0.1035671
1.018971,-0.1020198,-0.1052067
1.019894,-0.1014615,-0.106219
1.019567,-0.1038166,-0.1050673
1.02019,-0.1045378,-0.1038843
1.021239,-0.1050202,-0.1005649
1.020734,-0.1058871,-0.09753405
1.019675,-0.1043477,-0.100303
1.019352,-0.1040387,-0.102666
1.019335,-0.103562,-0.1017775
1.019706,-0.1013008,-0.104611
1.020384,-0.09850544,-0.1085129
1.021155,-0.09821386,-0.1060525
1.021948,-0.1020832,-0.1006991
1.022079,-0.1034287,-0.09762395
1.021476,-0.10271,-0.09823773
1.020504,-0.1025854,-0.1022132
1.020435,-0.1017007,-0.1062107
1.020336,-0.101417,-0.1092127
1.018763,-0.1007251,-0.1082828
1.018396,-0.09976783,-0.1055687
1.018768,-0.09858767,-0.1090093
1.020255,-0.09978882,-0.112767
1.022655,-0.1030953,-0.1124854
1.018987,-0.1026478,-0.106835
1.01467,-0.1023314,-0.09800061
1.017244,-0.1017932,-0.1008946
1.019192,-0.09993073,-0.1050099
1.019249,-0.1006661,-0.09962087
1.019951,-0.09994536,-0.09894546
1.019345,-0.1012397,-0.09806872
1.020213,-0.1038341,-0.09571141
1.02129,-0.102706,-0.09910124
1.019714,-0.1039477,-0.0989935
1.019091,-0.1043216,-0.09515989
1.019541,-0.1052816,-0.09425847
1.019461,-0.1093072,-0.09712098
1.019454,-0.1068756,-0.09977044
1.019563,-0.103217,-0.09844577
1.020398,-0.1017395,-0.0972221
1.021097,-0.1005763,-0.09747625
1.020885,-0.1031074,-0.09834765
1.020896,-0.1039564,-0.1010564
1.021746,-0.1035007,-0.10389
1.022394,-0.102035,-0.1041182
1.021343,-0.09879022,-0.1013869
1.020387,-0.10119,-0.09961169
1.020696,-0.1042077,-0.1024504
1.020094,-0.1041086,-0.1056009
1.019047,-0.1041401,-0.1034332
1.019352,-0.1021168,-0.09985684
1.020075,-0.1017291,-0.09839205
1.021056,-0.1060586,-0.09882544
1.022753,-0.1106984,-0.1009193
1.022584,-0.1098333,-0.1017021
1.021638,-0.1050721,-0.1073036
1.02181,-0.1028114,-0.1142655
1.01874,-0.1002564,-0.1056427
1.015789,-0.09683086,-0.09572425
1.019239,-0.09684645,-0.1004031
1.022328,-0.0988125,-0.104148
1.0207,-0.100788,-0.1049113
1.020225,-0.1017317,-0.1091312
1.021219,-0.1013975,-0.106692
1.019797,-0.1002642,-0.1018114
1.018933,-0.09987742,-0.1045908
1.019715,-0.1010435,-0.1050574
1.019379,-0.1014112,-0.103041
1.01939,-0.1006168,-0.1048103
1.019561,-0.1001184,-0.1041868
1.019308,-0.1025357,-0.1035091
1.01956,-0.1057578,-0.1038618
1.019385,-0.1055769,-0.1021008
1.019432,-0.1055185,-0.1022227
1.019518,-0.1057412,-0.1012153
1.019163,-0.1049012,-0.1003924
1.018642,-0.1043788,-0.102525
1.018092,-0.1035819,-0.1001882
1.019728,-0.1043432,-0.09805703
1.021641,-0.1045238,-0.09914607
1.020871,-0.1036046,-0.095807
1.020618,-0.1041934,-0.0949122
1.022016,-0.1025405,-0.09949597
1.022291,-0.1014421,-0.1023302
1.021275,-0.1032442,-0.1051211
1.020544,-0.1031707,-0.1047197
1.020906,-0.1029878,-0.1014631
1.021952,-0.102987,-0.1006036
1.022565,-0.1018544,-0.09775173
1.022979,-0.1029239,-0.09853474
1.022586,-0.1052117,-0.1038767
1.020231,-0.1057648,-0.1061578
1.018673,-0.1056174,-0.1085219
1.019481,-0.1055429,-0.10958
1.019785,-0.1054311,-0.1105971
1.019162,-0.1057031,-0.1095485
1.019482,-0.1055169,-0.1040243
1.019607,-0.105627,-0.10596
1.019233,-0.1068152,-0.1102751
1.019037,-0.1079488,-0.1116153
1.016773,-0.1087666,-0.1141118
1.014343,-0.1077708,-0.1117035
1.015642,-0.1059243,-0.1089032
1.018474,-0.1063405,-0.1092654
1.019979,-0.1086473,-0.1084839
1.019701,-0.1092776,-0.1057054
1.019241,-0.1075442,-0.1028645
1.020265,-0.1083228,-0.1056311
1.020378,-0.1089634,-0.1084542
1.019042,-0.1077896,-0.1095457
1.019259,-0.1096049,-0.1132844
1.019969,-0.1101013,-0.1136315
1.020129,-0.1091972,-0.110433
1.021106,-0.109148,-0.1074971
1.021254,-0.1078129,-0.1094592
1.021183,-0.1079607,-0.1127742
1.02198,-0.1072177,-0.1096197
1.021592,-0.1069725,-0.1095157
1.022004,-0.1115987,-0.1131837
1.022651,-0.1133186,-0.1141702
1.020951,-0.1094683,-0.1144268
1.01979,-0.1071589,-0.1133376
1.017496,-0.1088167,-0.1144643
1.014034,-0.1105769,-0.1170254
1.015462,-0.1111972,-0.1182503
1.018983,-0.1115068,-0.1193528
1.020646,-0.1107886,-0.1200344
1.021406,-0.111087,-0.123087
1.020298,-0.1114087,-0.1229167
1.018795,-0.110767,-0.1187194
1.018082,-0.1111294,-0.114403
1.018479,-0.1102385,-0.1055849
1.020496,-0.109441,-0.1032405
1.021327,-0.1109246,-0.1073046
1.022222,-0.1124877,-0.1050796
1.02242,-0.1140793,-0.1064923
1.018563,-0.1155201,-0.114629
1.015696,-0.1150422,-0.1234902
1.015724,-0.1117524,-0.1272819
1.017137,-0.1099024,-0.121377
1.019062,-0.1117755,-0.1192468
1.019574,-0.1122326,-0.1223918
1.020501,-0.1124349,-0.1231648
1.020141,-0.1139194,-0.1257278
1.01894,-0.1134551,-0.1250887
1.01964,-0.1120133,-0.1211628
1.018863,-0.1097592,-0.1197238
1.016721,-0.1095152,-0.1188106
1.0146,-0.1129863,-0.1194436
1.014917,-0.1143879,-0.1188813
1.017023,-0.1130864,-0.1177942
1.016307,-0.1119822,-0.1210154
1.015763,-0.1123862,-0.1231636
1.015278,-0.113138,-0.1218935
1.014757,-0.1130121,-0.1199107
1.01601,-0.1147655,-0.1181484
1.016125,-0.1169078,-0.117722
1.017665,-0.1183015,-0.117915
1.018837,-0.1187791,-0.1171641
1.017373,-0.1173621,-0.1153367
1.017639,-0.1181497,-0.1150794
1.018517,-0.1179775,-0.1173167
1.020676,-0.1145636,-0.121308
1.022685,-0.1126144,-0.1245413
1.021566,-0.112024,-0.1206111
1.020527,-0.113816,-0.1140139
1.01854,-0.1152006,-0.1131376
1.016216,-0.1141738,-0.1140938
1.015184,-0.1139859,-0.114681
1.014609,-0.1135543,-0.1174292
1.016655,-0.1140098,-0.1204406
1.019864,-0.1141329,-0.1203671
1.022677,-0.1134368,-0.1203248
1.021546,-0.1142812,-0.1231418
1.017228,-0.1137509,-0.1221845
1.017659,-0.1142712,-0.118349
1.016239,-0.1163731,-0.1168636
1.013749,-0.1154806,-0.1151199
1.017367,-0.1118296,-0.1152567
1.017687,-0.1095974,-0.1172798
1.0166,-0.1125634,-0.1200599
1.016335,-0.1160623,-0.1240854
1.014152,-0.1183252,-0.124205
1.016013,-0.1178736,-0.1245606
1.017417,-0.1123122,-0.125704
1.017892,-0.1110526,-0.1224957
1.01875,-0.1122174,-0.1216815
1.016403,-0.1111938,-0.1219985
1.016559,-0.1115724,-0.119131
1.017681,-0.1107539,-0.1162124
1.019791,-0.1120406,-0.114134
1.023401,-0.113125,-0.1142159
1.020605,-0.1107726,-0.1155264
1.018044,-0.1103093,-0.1171504
1.019905,-0.10932,-0.1166756
1.019659,-0.1097202,-0.1126491
1.01926,-0.1109957,-0.1099425
1.020708,-0.109551,-0.1109367
1.022031,-0.1081064,-0.1175465
1.021745,-0.1062703,-0.1209435
1.018666,-0.1080025,-0.1132447
1.015456,-0.1111567,-0.1094714
1.016652,-0.1110479,-0.1141327
1.019343,-0.1114274,-0.1164184
1.019104,-0.1112881,-0.1143475
1.017805,-0.1127367,-0.1123781
1.015972,-0.1148449,-0.1120796
1.015292,-0.1127878,-0.1107918
1.015753,-0.1092345,-0.1122427
1.014775,-0.1058291,-0.1138703
1.015896,-0.106414,-0.1118035
1.018317,-0.1089766,-0.114395
1.019199,-0.108038,-0.1166607
1.017472,-0.1086196,-0.1155027
1.013762,-0.1104958,-0.1171339
1.015039,-0.1112064,-0.1163318
1.016757,-0.1117928,-0.113532
1.01625,-0.1115674,-0.1120858
1.019839,-0.1125951,-0.1114172
1.020227,-0.1115538,-0.1099535
1.018687,-0.1074821,-0.1051497
1.020925,-0.1064147,-0.1052531
1.020986,-0.106337,-0.1090669
1.020706,-0.1042505,-0.1068891
1.020835,-0.1009737,-0.1059309
1.020049,-0.09977435,-0.1079965
1.021371,-0.1014442,-0.1076039
1.023432,-0.1013413,-0.1079575
1.023913,-0.1013477,-0.1071096
1.021399,-0.1016732,-0.1050257
1.019138,-0.1011446,-0.1081674
1.019786,-0.1026096,-0.1104585
1.021181,-0.1029891,-0.1058985
1.022132,-0.1026681,-0.102658
1.018873,-0.1027595,-0.1041945
1.01538,-0.1016466,-0.1048002
1.018611,-0.1013287,-0.1042394
1.021452,-0.1010335,-0.1068461
1.019662,-0.1005905,-0.1085838
1.018079,-0.1002231,-0.1034731
1.017912,-0.1020938,-0.09778529
1.018029,-0.1073876,-0.09862511
1.018323,-0.1087027,-0.1032565
1.019098,-0.1044643,-0.1068547
1.020556,-0.1003374,-0.1073022
1.020947,-0.1001007,-0.1047556
1.018883,-0.1013167,-0.1022863
1.01758,-0.1003734,-0.1017734
1.018941,-0.1008365,-0.1016
1.019973,-0.1018812,-0.1035114
1.019399,-0.1021592,-0.1080437
1.019202,-0.1031924,-0.1109674
1.020035,-0.1025465,-0.1106769
1.021169,-0.1017399,-0.1063884
1.022658,-0.1013238,-0.1017087
1.022264,-0.1010832,-0.1023832
1.019869,-0.1017431,-0.1044889
1.019153,-0.1010455,-0.1041061
1.019549,-0.100421,-0.1046189
1.020401,-0.09959952,-0.1070469
1.021406,-0.09838948,-0.1087667
1.02161,-0.09973292,-0.1074993
1.022269,-0.1018542,-0.1039617
1.021544,-0.1012907,-0.1018708
1.020234,-0.09724481,-0.1011378
1.020755,-0.09472644,-0.1010377
1.020121,-0.09605929,-0.1022117
1.018968,-0.09721179,-0.1026498
1.019797,-0.09822289,-0.1032532
1.021441,-0.09931152,-0.1036124
1.022258,-0.1003835,-0.1028756
1.020654,-0.1014688,-0.1025565
1.01894,-0.09985591,-0.1022619
1.021109,-0.09807392,-0.1044843
1.023321,-0.1002843,-0.1065652
1.021489,-0.102486,-0.106758
1.019165,-0.1012065,-0.1071416
1.017699,-0.1009787,-0.1041189
1.017657,-0.1015312,-0.103246
1.019568,-0.09932407,-0.105014
1.019586,-0.09858902,-0.1040964
1.019213,-0.1018227,-0.1056178
1.019912,-0.106431,-0.1063001
1.020274,-0.1073546,-0.1049232
1.022085,-0.1023906,-0.1057426
1.022705,-0.09746899,-0.1056896
1.021892,-0.09651802,-0.1049942
1.022356,-0.09868627,-0.1038818
1.021864,-0.1010097,-0.1022343
1.020363,-0.1015996,-0.1025111
1.019365,-0.1019773,-0.1032225
1.020903,-0.1029286,-0.1026037
1.023274,-0.1047005,-0.1026196
1.022189,-0.1039175,-0.1030862
1.021529,-0.09986957,-0.1025407
1.021651,-0.09791094,-0.1024611
1.019106,-0.09827979,-0.1011418
1.017543,-0.09903351,-0.09992603
1.018251,-0.09881993,-0.1037476
1.019832,-0.09908715,-0.1080445
1.020938,-0.100548,-0.1082832
1.0204,-0.09902123,-0.1066987
1.020077,-0.09797883,-0.1024454
1.019516,-0.09933864,-0.09668922
1.019879,-0.1002601,-0.09774134
1.021435,-0.1013988,-0.1011498
1.019866,-0.09900747,-0.0984577
1.018231,-0.09584762,-0.09810775
1.017157,-0.09726723,-0.09935192
1.014888,-0.09797249,-0.0982708
1.017745,-0.09799909,-0.1011373
1.021933,-0.1004149,-0.1034261
1.020949,-0.1007963,-0.1030676
1.020509,-0.09925232,-0.1022804
1.021923,-0.09993346,-0.1002655
1.021517,-0.09969348,-0.09860038
1.020356,-0.09853224,-0.09862921
1.019818,-0.09992226,-0.1045468
1.019359,-0.1001335,-0.1081165
1.019279,-0.09960837,-0.101929
1.019588,-0.09944292,-0.09683879
1.019436,-0.09802791,-0.09547463
1.019536,-0.09861324,-0.09440388
1.02061,-0.09896678,-0.09443555
1.022139,-0.09801535,-0.09766992
1.023471,-0.09817267,-0.1012657
1.023662,-0.0977833,-0.1001731
1.022668,-0.0990046,-0.09950908
1.021904,-0.1009409,-0.1002383
1.021625,-0.1014011,-0.1003375
1.019738,-0.1018012,-0.1014498
1.017305,-0.1011124,-0.1014043
1.018951,-0.1012886,-0.09878925
1.022249,-0.1019289,-0.09424674
1.022452,-0.1019141,-0.09239275
1.02215,-0.1028711,-0.09532434
1.022292,-0.1011644,-0.09942736
1.021722,-0.09883429,-0.1009458
1.02059,-0.09908172,-0.09964668
1.018831,-0.0977277,-0.09992197
1.019169,-0.09654843,-0.102023
1.020195,-0.09762659,-0.1086829
1.019964,-0.09824787,-0.1168179
1.021126,-0.098657,-0.113232
1.020996,-0.09867385,-0.1036065
1.019791,-0.09769583,-0.09915448
1.021266,-0.09802458,-0.09901225
1.022656,-0.09999683,-0.100968
1.022437,-0.1013131,-0.1010576
1.021606,-0.1013604,-0.1008963
1.020422,-0.100493,-0.1021828
1.019138,-0.09966225,-0.1013627
1.019689,-0.1001225,-0.102926
1.023537,-0.1010901,-0.1053496
1.025619,-0.1015413,-0.1037744
1.023171,-0.1011255,-0.1036522
1.020215,-0.09948615,-0.1031094
1.019548,-0.09843802,-0.1024374
1.019693,-0.1002536,-0.1058308
1.019075,-0.1019129,-0.1072445
1.019207,-0.09964486,-0.1066573
1.017877,-0.09759286,-0.1067697
1.015551,-0.09877413,-0.1046211
1.015881,-0.09931921,-0.1008355
1.015688,-0.1003618,-0.09906134
1.016773,-0.1040782,-0.1000822
1.019923,-0.1058772,-0.1007181
1.019766,-0.1052621,-0.1011138
1.019409,-0.1043826,-0.1000057
1.021432,-0.102095,-0.09174276
1.022578,-0.100672,-0.08550525
1.021465,-0.1014877,-0.09367877
1.020037,-0.102504,-0.1017924
1.020018,-0.1056483,-0.09884355
1.019437,-0.1097497,-0.1000975
1.019042,-0.1084077,-0.1048347
1.019971,-0.1045024,-0.1029043
1.020453,-0.1039297,-0.104299
1.021817,-0.104053,-0.1091192
1.022683,-0.1041567,-0.1079969
1.020872,-0.1044361,-0.1061939
1.019585,-0.1038267,-0.1077612
1.019318,-0.1041589,-0.1086125
1.018951,-0.1033719,-0.1087658
1.017881,-0.1023882,-0.1102428
1.016353,-0.1038876,-0.1100437
1.018203,-0.1040975,-0.1094072
1.020557,-0.102374,-0.1119723
1.019284,-0.1009573,-0.1121506
1.019228,-0.1020278,-0.1078718
1.020593,-0.1036236,-0.104979
1.02001,-0.1023252,-0.1084567
1.019233,-0.1015046,-0.113027
1.019305,-0.1006029,-0.1092142
1.019585,-0.09984019,-0.1069673
1.01893,-0.1029182,-0.1111432
1.016447,-0.1051301,-0.1114918
1.013524,-0.104197,-0.1109455
1.012356,-0.1037845,-0.1112461
1.013401,-0.1047247,-0.1108642
1.016161,-0.1060522,-0.1114142
1.019914,-0.107242,-0.1108997
1.020758,-0.1073527,-0.1111241
1.020293,-0.1063229,-0.1109401
1.022659,-0.106302,-0.1090339
1.021045,-0.1062822,-0.108231
1.017841,-0.1056412,-0.1088771
1.01992,-0.1049671,-0.1105595
1.019826,-0.1038222,-0.1106797
1.018775,-0.1062668,-0.1114134
1.019974,-0.109832,-0.1144137
1.019236,-0.1093498,-0.1154612
1.019352,-0.1071358,-0.1147341
1.019531,-0.1049772,-0.1147457
1.018264,-0.1069456,-0.1207957
1.018157,-0.1095925,-0.1278333
1.018964,-0.1066806,-0.1235448
1.021284,-0.1048868,-0.1145095
1.023934,-0.1055186,-0.1098564
1.025347,-0.1054536,-0.1120311
1.024185,-0.105185,-0.1177892
1.020938,-0.1050409,-0.1168623
1.02041,-0.1061181,-0.1146071
1.020876,-0.1053702,-0.115056
1.019455,-0.1041633,-0.1126916
1.017862,-0.1044995,-0.1120651
1.017539,-0.1042542,-0.1112263
1.019081,-0.1069905,-0.110112
1.018425,-0.1095979,-0.11203
1.017293,-0.1090566,-0.110855
1.019547,-0.1097977,-0.1106964
1.019225,-0.1092635,-0.1118456
1.01639,-0.1059187,-0.1104724
1.015152,-0.1031727,-0.1113844
1.016532,-0.104256,-0.1116073
1.018899,-0.1076945,-0.1124826
1.016316,-0.1081687,-0.1149048
1.01396,-0.1058446,-0.1137749
1.016192,-0.103371,-0.1133765
1.017497,-0.1051146,-0.1128175
1.020036,-0.1094919,-0.1093412
1.021948,-0.1100403,-0.1074695
1.020047,-0.1095953,-0.1091264
1.018906,-0.1088405,-0.1132896
1.017853,-0.1076138,-0.1159659
1.017921,-0.1073623,-0.1138091
1.020551,-0.1048343,-0.1103056
1.02227,-0.1039321,-0.1108202
1.023252,-0.1070644,-0.1118067
1.023001,-0.1092156,-0.1105472
1.021801,-0.1082404,-0.1116305
