accx,accy,accz
0.7873638,0.4104304,0.4732112
0.7872865,0.4121585,0.4760389
0.7878707,0.4151119,0.4731766
0.7885771,0.4107396,0.4705635
0.789897,0.4085728,0.4720393
0.790829,0.411266,0.4694351
0.7901055,0.4123411,0.4690211
0.7902898,0.4130696,0.470883
0.7918195,0.4146232,0.4700369
0.7934975,0.4175004,0.4675481
0.7946364,0.4189593,0.4644811
0.7918442,0.4177353,0.4675391
0.7891669,0.4179079,0.4713191
0.7912554,0.4176259,0.4688492
0.792433,0.4142862,0.4680344
0.7911676,0.4114553,0.4679094
0.7906742,0.4121309,0.4647346
0.7909658,0.4134241,0.4623703
0.7935728,0.4130413,0.462031
0.7967887,0.4141643,0.4627388
0.794303,0.4153298,0.4629911
0.7902436,0.4151461,0.4643433
0.7900135,0.416497,0.4674742
0.7888876,0.4169187,0.4668279
0.7892491,0.4166561,0.4633081
0.792224,0.4175754,0.4625073
0.7917324,0.4172646,0.4626721
0.791356,0.4165652,0.4622767
0.7924033,0.4159007,0.4625807
0.7931473,0.4142795,0.4627565
0.7951231,0.4125517,0.4632566
0.7948979,0.4128266,0.4640742
0.7947233,0.4139076,0.4631022
0.7965447,0.4124333,0.4621269
0.7953175,0.4114601,0.4634768
0.7927623,0.4117911,0.4643565
0.7912266,0.4141933,0.4630623
0.7911721,0.4183232,0.4602158
0.7922558,0.417405,0.4584325
0.7913298,0.4182882,0.4632183
0.7906738,0.4213203,0.4689343
0.7920491,0.4145621,0.4660544
0.7952732,0.4083796,0.4637345
0.7995687,0.4111322,0.4671474
0.7982957,0.4124289,0.4670105
0.7931934,0.4110044,0.4653654
0.7909005,0.4120662,0.4638028
0.7910864,0.4130999,0.4604479
0.7920014,0.4154327,0.4607182
0.7898264,0.4196621,0.4584654
0.7881644,0.4172808,0.4541011
0.7911322,0.4140249,0.4598427
0.7922486,0.4151113,0.4669037
0.7917795,0.4137291,0.4674835
0.7924819,0.4153009,0.4684507
0.7932538,0.4179915,0.4690911
0.7932189,0.4158558,0.4661184
0.7917205,0.4145597,0.4627448
0.7919293,0.4127921,0.4642899
0.7935167,0.4122424,0.4671876
0.7941039,0.4156803,0.467586
0.7913533,0.4170522,0.4708461
0.7871517,0.4150115,0.4715984
0.7894445,0.4129694,0.467023
0.7936899,0.413805,0.4654746
0.7955223,0.4144919,0.4626174
0.7963079,0.4137203,0.457269
0.7924819,0.4160074,0.4565188
0.7896786,0.4183029,0.4610157
0.790378,0.4176526,0.4686193
0.7899909,0.4153678,0.4726445
0.7893563,0.4127668,0.4704734
0.7876625,0.4131454,0.4669564
0.7880805,0.4144628,0.4642834
0.7932047,0.4143912,0.4620316
0.797315,0.4140894,0.4602907
0.7959561,0.4136534,0.4595869
0.7919784,0.415245,0.4597286
0.7909814,0.4175993,0.4617523
0.7895878,0.4177804,0.4630145
0.7863742,0.4156411,0.4614017
0.7860633,0.4123966,0.4606389
0.7877913,0.4118155,0.4601777
0.7896967,0.4118021,0.4604593
0.7890611,0.412205,0.4641174
0.7883927,0.4158537,0.467133
0.7905582,0.4164319,0.4628965
0.7912329,0.4170749,0.4574727
0.7915032,0.4206836,0.4619326
0.7898301,0.4185665,0.4661729
0.7860451,0.4159997,0.4647113
0.7857325,0.417035,0.4658126
0.7860532,0.4165032,0.4662095
0.7852335,0.4166127,0.4665362
0.7848516,0.4170509,0.4673116
0.7862468,0.4173207,0.4676525
0.7884423,0.4184965,0.4749398
0.7874958,0.4181145,0.4818148
0.7870253,0.4172519,0.4780908
0.7879579,0.4155958,0.4696744
0.7874714,0.4129971,0.4645525
0.7883509,0.4147677,0.4637266
0.7893373,0.4196181,0.4620664
0.7888134,0.4188718,0.460187
0.7887913,0.4126484,0.4632215
0.7889725,0.4122093,0.4664422
0.7888814,0.416984,0.4669087
0.7888476,0.4170398,0.4694615
0.7889275,0.4176947,0.4702808
0.7888858,0.4191952,0.4697208
0.7888555,0.4161056,0.4748198
0.7889376,0.4166919,0.4771839
0.789208,0.4181796,0.4716609
0.7906858,0.4173302,0.4675956
0.7922307,0.4179196,0.4689519
0.7920235,0.415984,0.4687139
0.7920007,0.4163692,0.4653035
0.7926187,0.4175217,0.46726
0.7914068,0.4158251,0.4711621
0.7902403,0.4171065,0.4722322
0.7906761,0.416914,0.4721778
0.7909546,0.4171125,0.4696666
0.7915484,0.4181898,0.4710389
0.789718,0.4141332,0.4750604
0.7851452,0.4117428,0.473798
0.7841415,0.4144245,0.468597
0.7859722,0.4185337,0.4654618
0.7873769,0.4204359,0.4689973
0.787838,0.4208385,0.4729877
0.7873012,0.4208374,0.4770954
0.7875363,0.4176509,0.4777066
0.7875792,0.4153886,0.4696492
0.7873608,0.4140195,0.4685961
0.7876442,0.4123097,0.4700077
0.7873996,0.4149697,0.4675872
0.7875271,0.4175013,0.4682692
0.7877265,0.4150691,0.4652167
0.7882957,0.4131744,0.4664969
0.7896246,0.4167602,0.4728782
0.7907078,0.4197897,0.4744947
0.7920235,0.4194731,0.47248
0.7918412,0.4211389,0.464546
0.7903258,0.4214022,0.4592135
0.7903502,0.4196456,0.4599319
0.7911941,0.4175624,0.4589904
0.7906479,0.4114498,0.4544574
0.7856068,0.4085026,0.4539158
0.7802829,0.4143319,0.4643482
0.7839975,0.4205629,0.4731777
0.7884794,0.4218811,0.4770136
0.7851519,0.4217259,0.4796025
0.7835898,0.4231534,0.4817005
0.7838484,0.4243857,0.4860802
0.7822824,0.4245634,0.4833264
0.782891,0.4259291,0.4801656
0.782424,0.4263462,0.4808151
0.783884,0.4225774,0.4720556
0.787762,0.419576,0.4634279
0.7851394,0.4219774,0.4669818
0.7808662,0.4276666,0.4753946
0.7786248,0.4321261,0.4790948
0.778909,0.4305274,0.479865
0.7841368,0.4257971,0.4777337
0.7873658,0.4244023,0.4702176
0.7884555,0.4238276,0.4650791
0.7903993,0.4192623,0.4645897
0.7918705,0.4124489,0.4635586
0.79248,0.4107865,0.4583505
0.7909795,0.4136086,0.458347
0.7916239,0.4125327,0.4641419
0.7917837,0.4131713,0.4637722
0.7873169,0.4210055,0.4701292
0.7826719,0.4282233,0.4796342
0.7789191,0.4306105,0.4798239
0.7803701,0.4303361,0.4815594
0.7827745,0.4320786,0.4828571
0.7818407,0.4311687,0.4835728
0.7859143,0.4233755,0.4819993
0.7890068,0.4162228,0.4752604
0.7885034,0.4105683,0.4695129
0.7908309,0.4088778,0.4632954
0.7923113,0.409522,0.4638454
0.7911129,0.4094635,0.4684686
0.7876716,0.4169261,0.46964
0.7846484,0.4238162,0.4716915
0.7832336,0.42568,0.4747534
0.7820495,0.4269951,0.4809706
0.7844509,0.4246909,0.4790936
0.7885208,0.4227172,0.4711842
0.7898645,0.4173785,0.4707989
0.7901251,0.4134494,0.4655807
0.7909011,0.4165306,0.4601572
0.7906742,0.4151134,0.4614219
0.7894966,0.4156616,0.4617084
0.7871486,0.4186176,0.4638865
0.7848098,0.419605,0.4662016
0.7864122,0.4245017,0.4695678
0.7866742,0.4239196,0.4715406
0.785274,0.4197766,0.4717196
0.7868822,0.4193524,0.4756561
0.78707,0.4182446,0.4704468
0.7883493,0.4162827,0.4605915
0.7901475,0.4128332,0.4605558
0.7901055,0.4130449,0.4622773
0.792163,0.4152332,0.4635133
0.7911816,0.4133168,0.4665829
0.7892475,0.4150231,0.470495
0.7907049,0.4185399,0.4722106
0.7901805,0.4206637,0.469696
0.7890977,0.4232817,0.4689307
0.7888739,0.4213483,0.468158
0.7884737,0.4193155,0.467165
0.7882128,0.4183974,0.4690135
0.7870031,0.4142914,0.4678919
0.7863916,0.415349,0.4657301
0.7862074,0.4216481,0.4665349
0.7857844,0.4242969,0.470801
0.7863074,0.423157,0.474923
0.7861728,0.4203058,0.4738165
0.7858853,0.4169839,0.4750952
0.7863327,0.4158362,0.47535
0.7863718,0.4172975,0.4693925
0.7878436,0.4183388,0.4655144
0.7895836,0.4181658,0.4625299
0.7887685,0.4187306,0.4638247
0.7874908,0.4211384,0.4670865
0.7865439,0.4227131,0.466318
0.7857319,0.4185529,0.4690867
0.7862708,0.4148873,0.4693135
0.7872222,0.4169995,0.4653519
0.7875981,0.4171572,0.4637319
0.7876316,0.4159034,0.4650766
0.7873905,0.4159222,0.4700784
0.7874707,0.414249,0.4694242
0.7876242,0.4148106,0.4658919
0.7873853,0.4184982,0.4653264
0.7873527,0.4203491,0.4650903
0.7866677,0.4194747,0.4699562
0.7857296,0.4189906,0.4737252
0.7864561,0.4190695,0.4738738
0.7880694,0.4158462,0.4732186
0.7892996,0.4125891,0.4693562
0.7887841,0.414076,0.4680121
0.7867143,0.4163507,0.4702929
0.7857287,0.4168047,0.4734093
0.7867147,0.4164765,0.4719153
0.7898734,0.4147703,0.4664089
0.7927383,0.4132616,0.4649027
0.7914233,0.4142103,0.4646259
0.7883105,0.4161457,0.4656787
0.7870286,0.4186043,0.4660576
0.7872858,0.4221573,0.4661123
0.7881491,0.4244681,0.4694476
0.7889019,0.4235804,0.4683555
0.7890159,0.4205227,0.4690406
0.7882895,0.4169276,0.4718298
0.788434,0.4141975,0.4676758
0.7895486,0.4152247,0.4656334
0.7889041,0.4185106,0.4667941
0.7894084,0.4202262,0.4668784
0.7911038,0.420444,0.4664623
0.7902079,0.4176886,0.4651511
0.7914836,0.4162154,0.4635863
0.7952196,0.4164958,0.4605509
0.7972747,0.4113088,0.4570887
0.7972617,0.4086128,0.4545554
0.7939789,0.410097,0.4600499
0.791293,0.4125069,0.4690375
0.7910757,0.4187267,0.4660839
0.7898106,0.4165828,0.465405
0.7875964,0.41191,0.4707108
0.7866077,0.4150766,0.4678458
0.7870251,0.4141131,0.4694299
0.786108,0.4149531,0.4729688
0.786839,0.4182567,0.4686427
0.7902051,0.4160552,0.4690741
0.7902385,0.4165461,0.4699449
0.7884107,0.4171169,0.4666175
0.7868318,0.4161778,0.4659314
0.7862197,0.417034,0.4654528
0.7864954,0.4164869,0.4663732
0.7858039,0.4159442,0.4672367
0.7873187,0.4128891,0.4667614
0.7891289,0.4080115,0.4673231
0.7896785,0.4079265,0.4662338
0.7908452,0.4107852,0.4682326
0.7901516,0.4125796,0.4718242
0.7895234,0.4137618,0.4704506
0.7877679,0.4181583,0.4666063
0.7841053,0.4242114,0.4615362
0.7844465,0.4248277,0.4589602
0.7865204,0.4226201,0.4601793
0.7880979,0.4228245,0.4644562
0.7904014,0.4196778,0.4684211
0.7907067,0.4143148,0.4665137
0.7894182,0.4146655,0.4656871
0.7880152,0.415382,0.4655372
0.7868466,0.4172345,0.4627665
0.7871611,0.4228424,0.4629153
0.7863266,0.4214819,0.4635821
0.784459,0.4190182,0.4665058
0.7861187,0.4210832,0.4707736
0.788571,0.4188595,0.4681245
0.7899464,0.4174661,0.4657019
0.7910124,0.417026,0.47101
0.7899034,0.4139686,0.4756659
0.7903121,0.4151423,0.4741128
0.791642,0.414761,0.4694717
0.7914465,0.4110104,0.4650859
0.7916921,0.4112798,0.4659681
0.7897017,0.4128908,0.4680396
0.7881745,0.4144181,0.4658946
0.7890763,0.4142887,0.4665257
0.7892582,0.4133539,0.4671918
0.7906848,0.4152385,0.4650396
0.7921742,0.4155526,0.4659278
0.7918672,0.4148595,0.4679089
0.7913607,0.4144397,0.4709895
0.7915161,0.4125121,0.473337
0.7910207,0.412238,0.4705026
0.7896964,0.4131616,0.4658152
0.7897961,0.414954,0.4650209
0.7878765,0.4166564,0.4689653
0.7856592,0.4152278,0.4712194
0.7896058,0.4144538,0.473228
0.793309,0.414878,0.4726015
0.7913535,0.413401,0.4662647
0.7890846,0.4131459,0.4685484
0.7889329,0.4159578,0.471373
0.7886515,0.4199994,0.4669827
0.788907,0.4229551,0.4656438
0.7884474,0.4215155,0.4619252
0.7849602,0.4172052,0.4637907
0.7827982,0.4142039,0.4689864
0.7851122,0.4135198,0.4630697
0.7891868,0.4135921,0.461611
0.7902709,0.4124882,0.4660234
0.7890757,0.4147493,0.4671341
0.7890049,0.4183346,0.4671344
0.7887774,0.416021,0.4666864
0.7898443,0.4143006,0.470174
0.7908263,0.4141019,0.4717839
0.790302,0.4131588,0.4687483
0.7922,0.4144527,0.4685978
0.7936268,0.4138389,0.4682019
0.7925757,0.4140325,0.4653048
0.7901962,0.4171137,0.4626462
0.7880445,0.4184607,0.4606893
0.7887922,0.418506,0.4613201
0.7892765,0.4175783,0.4661526
0.7886618,0.4180575,0.4695155
0.7887117,0.4188466,0.4687262
0.7880865,0.4192999,0.4711601
0.7873581,0.4217109,0.474838
0.788246,0.420886,0.4725717
0.7898152,0.4190409,0.4680028
0.7902576,0.4187138,0.4659618
0.7901692,0.4160111,0.4657426
0.7888579,0.4135134,0.4666806
0.7880799,0.411103,0.4673033
0.789528,0.4109737,0.4661513
0.7888663,0.4153747,0.4666607
0.7884302,0.4175947,0.4672968
0.7896255,0.4164626,0.4669932
0.7894483,0.4143061,0.469044
0.7910749,0.4125162,0.4699507
0.7933444,0.4131905,0.4708575
0.7941521,0.4169099,0.4714142
0.7922859,0.4208183,0.4693778
0.7878981,0.4188122,0.4701242
0.788558,0.4157531,0.4700299
0.7912826,0.4170292,0.467166
0.7925201,0.4165674,0.4665377
0.7951993,0.4154067,0.4690003
0.7930331,0.4154248,0.4739657
0.789955,0.4148986,0.474859
0.7913217,0.4160605,0.4686109
0.7904078,0.4180125,0.463286
0.7905656,0.4199776,0.4655543
0.7925573,0.4197363,0.4688641
0.7914937,0.4164736,0.4676421
0.7913826,0.4146495,0.4695949
0.7920356,0.4132304,0.4706531
0.7912634,0.412627,0.4681425
0.7908017,0.4132863,0.4687528
0.7901107,0.4142451,0.4635011
0.7902083,0.4183556,0.4571829
0.7913,0.4189619,0.4608469
0.7907396,0.4154958,0.4634859
0.7891399,0.4164995,0.4628188
0.7888403,0.4174709,0.4634764
0.7908975,0.4171028,0.4630434
0.7933133,0.4182735,0.462435
0.7929717,0.4173664,0.4635059
0.7910266,0.4158628,0.4650085
0.7899996,0.4158518,0.4648659
0.7913291,0.4152524,0.4645962
0.7940977,0.4145555,0.4666207
0.7942106,0.4137916,0.4689551
0.7904244,0.411939,0.4692305
0.7859344,0.4120667,0.4683268
0.7857082,0.4133701,0.4653108
0.789636,0.4130204,0.4626251
0.791925,0.4140705,0.4700554
0.7919163,0.4143814,0.4796163
0.7915723,0.4127364,0.4765846
0.7916855,0.4115386,0.4719527
0.7927992,0.4091455,0.470156
0.7923072,0.4103238,0.4630094
0.7886394,0.4141715,0.4603165
0.7852681,0.4141656,0.4620335
0.7881414,0.4150602,0.4598043
0.7921354,0.4176914,0.4610569
0.7888952,0.4194927,0.4635583
0.7868796,0.4207138,0.4647736
0.7885004,0.4193408,0.4687599
0.7889962,0.4165702,0.4688645
0.791611,0.4144255,0.4677029
0.7917384,0.4147531,0.4688433
0.790125,0.4149957,0.4686452
0.792215,0.4122158,0.4728899
0.7918362,0.4128043,0.4764663
0.7899912,0.4165965,0.4710027
0.7895271,0.4185675,0.4672683
0.7884081,0.4177731,0.4681224
0.7890394,0.4152447,0.4664932
0.7902747,0.4149831,0.4659701
0.7911339,0.4143304,0.4673123
0.7920127,0.4146841,0.4665041
0.7907064,0.4180899,0.4664145
0.789762,0.4172265,0.4670472
0.7902812,0.4184657,0.4673031
0.7892543,0.4224107,0.4711612
0.787789,0.4192278,0.4751306
0.788097,0.4156417,0.4739276
0.7894077,0.4141877,0.4723754
0.7899944,0.4131094,0.4722952
0.7900334,0.4143325,0.4705994
0.7894776,0.4139366,0.4710658
0.7875794,0.4137236,0.4727598
0.7873883,0.4151534,0.46934
0.7896098,0.4155119,0.4667724
0.7901978,0.416292,0.4690884
0.7877327,0.4168658,0.4718337
0.7857428,0.4163359,0.4746165
0.7894247,0.4148558,0.4748974
0.7931919,0.4132758,0.4736817
0.7897601,0.4137836,0.474587
0.7878922,0.4142434,0.4733088
0.7912388,0.4136535,0.4688559
0.7917983,0.4142674,0.4653304
0.7886508,0.4157879,0.4661061
0.7856673,0.4176197,0.4683329
0.7861583,0.419628,0.4687533
0.7893299,0.4212414,0.4712582
0.7910674,0.4205966,0.4709522
0.7913686,0.4167682,0.46788
0.7912321,0.4142398,0.4690505
0.78988,0.4149874,0.4654542
0.7874588,0.4148336,0.4611451
0.7868231,0.4134038,0.4671668
0.7876581,0.4136828,0.4724583
0.7856424,0.4143154,0.4728585
0.7847901,0.4136496,0.4724976
0.7893606,0.4138229,0.4692303
0.7928166,0.4146828,0.469823
0.7902653,0.4163097,0.4803879
0.7873633,0.4186334,0.485589
0.7890002,0.4164752,0.4727258
0.7886349,0.4130288,0.4591319
0.7865741,0.4139134,0.4621568
0.7887678,0.4149072,0.4713757
0.7894042,0.4171264,0.4766351
0.7883055,0.4203948,0.479387
0.7882544,0.4180288,0.4718592
0.7870883,0.4159334,0.4623601
0.7874147,0.4205632,0.4671944
0.7874446,0.4230629,0.4693921
0.7852571,0.4184731,0.4664027
0.7834361,0.4152438,0.4698278
0.7835335,0.417593,0.4715342
0.7871599,0.4185048,0.473345
0.7900742,0.4147408,0.4713546
0.7892206,0.4120341,0.4657991
0.7892061,0.412327,0.4700852
0.7906634,0.4128368,0.4718259
0.7896202,0.413411,0.4661791
0.7882579,0.4144167,0.4644701
0.7902089,0.4161969,0.4648901
0.7916641,0.4197239,0.4648332
0.7916516,0.4246629,0.4638873
0.7911702,0.4266299,0.4664812
0.7878698,0.4210105,0.4741589
0.7854393,0.4144839,0.4770099
0.7877727,0.4131373,0.4706286
0.7909359,0.40827,0.4619562
0.7900237,0.4025835,0.4621794
0.7870258,0.4114515,0.4692415
0.7855434,0.4247508,0.473786
0.7848016,0.4260055,0.4776152
0.7846863,0.4219579,0.4807775
0.7837661,0.4201197,0.4801829
0.7831948,0.4224142,0.4742254
0.7853945,0.4241187,0.4666034
0.7865822,0.4186785,0.4655647
0.7865931,0.4149929,0.4674941
0.7880457,0.4167427,0.4685303
0.791176,0.4171877,0.4698422
0.7923512,0.4160333,0.4699709
0.7893697,0.4150884,0.4710228
0.7882671,0.4154635,0.4727738
0.7888912,0.4167829,0.4722031
0.7878056,0.4172471,0.4695812
0.786582,0.4159559,0.4670775
0.7864872,0.4146808,0.4652777
0.7879739,0.4138684,0.4653129
0.7879174,0.4135839,0.4683723
0.7880625,0.4161946,0.4694379
0.7904482,0.4176257,0.4658301
0.790717,0.4181344,0.4616202
0.7909461,0.4202061,0.4617857
0.7917197,0.418951,0.4636968
0.7898996,0.4163983,0.4628745
0.7883729,0.4149814,0.4640073
0.7896444,0.4158183,0.4645739
0.7909924,0.4185495,0.4628856
0.7901191,0.4175808,0.4634554
0.7898339,0.4151029,0.4622787
0.789756,0.4134095,0.4619736
0.7885546,0.4131018,0.4637619
0.7898799,0.4132362,0.4652371
0.791795,0.4097859,0.4702318
0.7917374,0.409649,0.4717024
0.7916913,0.4132047,0.4667367
0.7916095,0.4133612,0.4630083
0.7920279,0.415318,0.4631941
0.7935189,0.4180649,0.4662493
0.7950699,0.4164176,0.46659
0.7950972,0.4161166,0.4673865
0.7931577,0.417324,0.4708269
0.7918524,0.416354,0.4676158
0.7913314,0.4165536,0.4650284
0.7883613,0.4170288,0.4678211
0.7846837,0.4168423,0.4673993
0.7856753,0.4195227,0.4679352
0.7883124,0.4211727,0.4673323
0.7907475,0.4182544,0.4601942
0.7958441,0.4154807,0.4561797
0.7946257,0.4168327,0.4615406
0.7895846,0.4188833,0.468199
0.7901644,0.4176393,0.4655394
0.7869349,0.416353,0.4632119
0.7845679,0.4164426,0.4663707
0.7883392,0.416242,0.46496
0.7887323,0.4141951,0.4664342
0.7906821,0.4113416,0.4668241
0.7927808,0.4125575,0.4580233
0.7911538,0.4140941,0.4549923
0.7917431,0.4130194,0.4605124
0.791787,0.4115438,0.4662011
0.7914759,0.4091724,0.4644786
0.7915231,0.4118889,0.4618088
0.7896773,0.4184679,0.4685364
0.7884936,0.4204227,0.4725727
0.7889738,0.4192159,0.4733657
0.7910433,0.4168608,0.4736327
0.7921399,0.4144538,0.4691992
0.7912764,0.4132281,0.4676907
0.7898321,0.4122484,0.4685197
0.7882827,0.4105596,0.4696704
0.7887998,0.4099936,0.4681334
0.7892409,0.4140015,0.4654267
0.7886168,0.4153581,0.4691123
0.7888016,0.4128234,0.4698311
0.7878585,0.4152592,0.4671999
0.7862462,0.4176664,0.4664639
0.7858066,0.4198161,0.466456
0.786526,0.4231135,0.4691607
0.7880214,0.4187887,0.4696996
0.7896411,0.4146573,0.4693892
0.7909676,0.4173777,0.4689386
0.7918094,0.419011,0.4654388
0.7916559,0.4187011,0.4637853
0.7896302,0.4160959,0.4673452
0.788259,0.4116439,0.4767353
0.7889756,0.4117379,0.4807549
0.7890285,0.4134766,0.4741215
0.7887699,0.4118997,0.4692357
0.7889318,0.4115693,0.4686831
0.7887015,0.4129869,0.4655977
0.7881931,0.4159318,0.4605651
0.7880848,0.4205449,0.4626581
0.7890847,0.4196169,0.4676738
0.7893837,0.4164732,0.4684749
0.7894318,0.4157645,0.4706658
0.7906751,0.4137332,0.4692514
0.7901268,0.4136452,0.465377
0.7880933,0.4142481,0.4665127
0.7880973,0.4136948,0.4670858
0.7917521,0.4148759,0.4660284
0.795874,0.4147543,0.4638464
0.793193,0.4144954,0.4626659
0.7870674,0.4156642,0.466775
0.7859272,0.4161483,0.4707667
0.7887328,0.4159445,0.4681989
0.7922937,0.414501,0.4649893
0.7916719,0.412429,0.4681126
0.787129,0.4105358,0.4687502
0.785529,0.4108302,0.4662476
0.7858058,0.4128321,0.4676846
0.7862226,0.4133889,0.4700067
0.7854119,0.4142866,0.4730831
0.7839157,0.4150565,0.4721234
0.7863392,0.4151154,0.4692203
0.7910661,0.4154819,0.4715449
0.7957903,0.4141777,0.4707087
0.7938718,0.4135076,0.4683254
0.7865076,0.4142704,0.4678681
0.7854822,0.4146855,0.4654781
0.7863682,0.4159482,0.4642634
0.7870288,0.417011,0.4638313
0.789141,0.4174165,0.4657026
0.7883531,0.4168357,0.4688271
0.7872937,0.4157083,0.4694446
0.7856007,0.4152427,0.4723022
0.7857371,0.4137942,0.4746888
0.7880927,0.4150747,0.4731645
0.7878772,0.4180209,0.4715148
0.7882492,0.4164871,0.4704839
0.7866375,0.4161007,0.4706648
0.7848685,0.4173441,0.471089
0.7859314,0.4162747,0.4707328
0.7844704,0.4166799,0.4706099
0.7852393,0.4162053,0.4700184
0.7870442,0.4127644,0.4696809
0.7857072,0.4109791,0.4719783
0.7867987,0.4141739,0.4745228
0.7899018,0.4185172,0.4721864
0.7925261,0.4168488,0.4676905
0.7915446,0.4154959,0.465961
0.7871801,0.4176566,0.4660289
0.7858,0.4160415,0.4653545
0.7876673,0.4144953,0.4644734
0.7893894,0.4140021,0.469663
0.7870195,0.4131332,0.4766831
0.7830069,0.4146858,0.4753379
0.7834875,0.4154402,0.4727021
0.7852897,0.4186819,0.4699884
0.7864728,0.42246,0.4648231
0.7867404,0.419723,0.4680044
0.7865486,0.4185341,0.4716503
0.788789,0.4196613,0.4683284
0.7883518,0.4173442,0.4705874
0.7856196,0.4145886,0.4764834
0.7851715,0.4127896,0.4793356
0.7844606,0.41302,0.4759541
0.7849644,0.4149029,0.4691815
0.7869819,0.4142093,0.4713726
0.7886675,0.4121428,0.4732434
0.7895181,0.4125164,0.470675
0.7882231,0.412756,0.4732236
0.786641,0.4124566,0.472844
0.7841046,0.4145955,0.4736168
0.7827942,0.4157765,0.4765476
0.7863747,0.4150932,0.4722918
0.7883775,0.4143184,0.4708897
0.7864868,0.4138801,0.4707822
0.7855496,0.4159439,0.4688537
0.7865607,0.4180008,0.4712607
0.7881394,0.4175082,0.4722108
0.7886328,0.415886,0.4735102
0.7861589,0.4148079,0.4755067
0.7821628,0.414717,0.4758677
0.7828618,0.4150354,0.4785944
0.786125,0.4159529,0.4766576
0.7854509,0.416568,0.4735135
0.7848977,0.4193003,0.4749878
0.7849191,0.422088,0.4722328
0.7834736,0.4195094,0.471556
0.7841858,0.4176175,0.4751004
0.7859386,0.4173942,0.4738309
0.7891405,0.4157475,0.4698872
0.7926866,0.4149668,0.4650657
0.7903463,0.4135444,0.4655841
0.7873785,0.4137725,0.4685333
0.7893555,0.4162785,0.4655926
0.7903284,0.4174615,0.4673951
0.7893555,0.4196529,0.4721245
0.7874851,0.4222332,0.4738637
0.7825126,0.4213234,0.474105
0.7810883,0.4175723,0.4691471
0.7853239,0.4151065,0.4678825
0.7865964,0.4134589,0.4701856
0.7842667,0.4083983,0.4690581
0.78292,0.4066378,0.468682
0.7851505,0.4144403,0.4682046
0.7884917,0.4204203,0.4705853
0.7893234,0.4164972,0.4740604
0.7894976,0.4140524,0.47416
0.785415,0.4202876,0.4746035
0.7802051,0.4259367,0.4737643
0.7843016,0.4263304,0.4746895
0.7882675,0.4230429,0.4770548
0.7854808,0.4192003,0.4760064
0.7855926,0.4203049,0.4761747
0.7869118,0.420074,0.475884
0.7859823,0.4166449,0.4739078
0.7879061,0.4182681,0.4730248
0.7897537,0.4196721,0.4701084
0.7887171,0.4186103,0.4683585
0.7887141,0.4174291,0.4705988
0.7890794,0.4123815,0.4731569
0.788801,0.4096094,0.4750144
0.7888988,0.4129095,0.4721553
0.7888973,0.4185462,0.4674043
0.7890739,0.423165,0.4693715
0.7897641,0.4187513,0.4709458
0.7903808,0.4122962,0.4702069
0.7891519,0.4152793,0.4731009
0.786579,0.415814,0.4723969
0.7854338,0.4123716,0.4694094
0.7852156,0.4155736,0.4701608
0.7848345,0.4180969,0.4717832
0.7855647,0.4186697,0.4744906
0.7872643,0.4200711,0.4742579
0.7872003,0.4172464,0.4728434
0.786465,0.4158972,0.4757301
0.7880727,0.4170257,0.4746514
0.7896967,0.415803,0.470042
0.7900102,0.4131986,0.4686644
0.7883536,0.4099599,0.4693093
0.7839567,0.4109942,0.4700038
0.7826335,0.4140789,0.4699784
0.785497,0.415393,0.4738164
0.7867651,0.4197379,0.4769336
0.785559,0.423773,0.4701914
0.7831682,0.423943,0.4648856
0.7812904,0.4218723,0.4709239
0.7818576,0.4181226,0.4760098
0.7836283,0.4159657,0.4714224
0.7854406,0.4172091,0.4691797
0.787473,0.4189449,0.4725984
0.7880548,0.4183277,0.4742158
0.7867803,0.4193329,0.4774476
0.7857083,0.421971,0.4791862
0.7844338,0.420751,0.4778681
0.7842069,0.4197815,0.4773282
0.7853191,0.4187264,0.4739838
0.7843428,0.4158787,0.4731109
0.7835932,0.4181557,0.4710497
0.7836811,0.420802,0.4646552
0.7837477,0.4192717,0.4687383
0.7853357,0.4200061,0.473703
0.7848496,0.4215641,0.4706262
0.7836616,0.420695,0.4732584
0.7825436,0.4205972,0.4785708
0.7800418,0.4207673,0.4796134
0.7830188,0.4183599,0.4735921
0.7873274,0.4148052,0.4644831
0.7860941,0.4133501,0.4665519
0.785675,0.4156193,0.4670536
0.7865124,0.417724,0.4595352
0.7864701,0.4164857,0.4624915
0.7887604,0.4170047,0.4652551
0.7912254,0.4206895,0.4623594
0.7899433,0.4223581,0.4655021
0.7870246,0.4187059,0.4675524
0.7856231,0.4131308,0.4697066
0.7858496,0.4131228,0.4708843
0.7868078,0.4146283,0.4675638
0.7887554,0.4128651,0.4680204
0.7936672,0.4136361,0.465766
0.7967945,0.4142739,0.463525
0.7913585,0.4119655,0.466208
0.7867931,0.4131147,0.4651497
0.790225,0.4187404,0.4653527
0.7920729,0.4244691,0.4650653
0.7898365,0.426047,0.4641117
0.7874855,0.4240054,0.467007
0.785466,0.421045,0.4661848
0.7871872,0.4168167,0.4666555
0.7910087,0.4131514,0.4674605
0.7912697,0.4120363,0.4655408
0.7900487,0.4132439,0.4674572
0.7900353,0.4146062,0.4666022
0.7902519,0.4137512,0.4667709
0.7887795,0.4142973,0.4711488
0.7846329,0.417868,0.4729114
0.7813936,0.420288,0.4747398
0.7814834,0.4198758,0.4745664
0.7834555,0.4187928,0.4716736
0.7872821,0.4196164,0.4640131
0.7916185,0.4199644,0.4559991
0.791072,0.4201784,0.457451
0.7879905,0.4234085,0.4557694
0.78949,0.4251611,0.4525345
0.7914283,0.4235624,0.4556865
0.7932455,0.4180321,0.452921
0.7953264,0.4118167,0.4512762
0.7913334,0.4162072,0.4562338
0.7889903,0.4251886,0.4571083
0.7907995,0.4274731,0.4584773
0.7898396,0.4266572,0.4620123
0.7877533,0.4258734,0.4652256
0.783423,0.4264216,0.4730222
0.7808936,0.4264597,0.4786456
0.784091,0.4230315,0.4787948
0.7865496,0.4177607,0.4781455
0.7862976,0.4123088,0.4753658
0.7859837,0.4112335,0.475738
0.7871723,0.4118893,0.4766592
0.7878199,0.4101913,0.4738001
0.787399,0.4117402,0.475299
0.7875407,0.4133652,0.4765247
0.7874309,0.4136329,0.4747668
0.78757,0.4147436,0.4717188
0.7874938,0.4132863,0.4662345
0.7874139,0.4138192,0.4681797
0.7874709,0.4145003,0.4717964
0.7864601,0.4131492,0.4701869
0.7859188,0.4143678,0.4726613
0.78602,0.4126035,0.4731871
0.7865775,0.4072862,0.4710195
0.7879307,0.4040282,0.4741088
0.7890978,0.4092217,0.4785701
0.7882046,0.4178193,0.482406
0.7858313,0.4163204,0.4788404
0.7858977,0.4183914,0.4716318
0.7866062,0.4264352,0.4748424
0.7865429,0.4246599,0.4768954
0.7872275,0.4224724,0.4732209
0.7870007,0.4210614,0.47247
0.7894782,0.4165384,0.471995
0.7969192,0.4148252,0.4760642
0.8046422,0.4130173,0.4785174
0.8073281,0.414816,0.4700919
0.8017908,0.4225809,0.459769
0.7886135,0.4354916,0.4566546
0.7681981,0.4460339,0.4702131
0.7564867,0.437924,0.4863541
0.767189,0.4263667,0.4841559
0.7793222,0.4238595,0.4787527
0.7836237,0.417635,0.480139
0.7855506,0.4070831,0.484147
0.7824674,0.391906,0.491119
0.7865732,0.3842568,0.4916399
0.7916486,0.3925119,0.4813755
0.7867,0.3984655,0.4721898
0.7840333,0.4080188,0.4723306
0.7795802,0.4237511,0.47505
0.7770898,0.4304077,0.4735325
0.7811555,0.43526,0.470636
0.7806524,0.4379446,0.466471
0.7834192,0.436161,0.4625633
0.7874445,0.4355813,0.4613319
0.786964,0.4330523,0.4576293
0.7866792,0.4361364,0.45748
0.781829,0.4409818,0.4647169
0.7798318,0.4351911,0.47029
0.7846153,0.4266096,0.4764877
0.7873722,0.4178364,0.4803914
0.7872183,0.4109792,0.4827579
0.7862074,0.407995,0.4898462
0.7870567,0.4026351,0.4875958
0.7870307,0.4029549,0.4831863
0.7864672,0.4070554,0.4848136
0.7882041,0.4048717,0.4773045
0.7883927,0.4054769,0.4721376
0.7887586,0.4082202,0.4749521
0.7883698,0.4116543,0.4721977
0.7867786,0.4204967,0.4658761
0.7876759,0.4242225,0.4611275
0.7874834,0.4253226,0.463497
0.7863613,0.4300152,0.468641
0.7862087,0.4298163,0.4678713
0.7869692,0.4285484,0.4675554
0.7890917,0.4304278,0.4664642
0.7904206,0.4303373,0.4619325
0.7921621,0.4277755,0.4603262
0.7934144,0.4258714,0.4594641
0.791075,0.4279412,0.4607112
0.7885441,0.4295826,0.4673366
0.7886306,0.4251185,0.4720845
0.7888113,0.4197281,0.4714357
0.7868163,0.4172956,0.4699019
0.7847965,0.4145178,0.4716803
0.7852588,0.412878,0.474278
0.7865747,0.4142221,0.4768886
0.7860991,0.4150298,0.4786487
0.7848389,0.4179291,0.4737043
0.7846813,0.4224882,0.4678765
0.7846427,0.4213226,0.4660391
0.7849046,0.4194676,0.4669034
0.7857414,0.4203087,0.4693475
0.7862118,0.4174287,0.4671987
0.7870378,0.416377,0.4647938
0.789494,0.4225849,0.4643584
0.7923805,0.4294698,0.4653395
0.7903298,0.4321364,0.4718186
0.7860253,0.4303941,0.4743789
0.7845229,0.4298051,0.4730434
0.7784193,0.4313314,0.4730986
0.7729827,0.4293692,0.4721285
0.7793633,0.4258648,0.4749596
0.7863889,0.4223854,0.4773631
0.78681,0.4201159,0.4746377
0.786696,0.4179762,0.4709187
0.7867674,0.4140605,0.4680011
0.7858497,0.4176528,0.4675393
0.7845833,0.4235739,0.4666952
0.7828663,0.4250171,0.4662181
0.7816796,0.4307165,0.4680644
0.783541,0.431918,0.4675285
0.786298,0.4267246,0.4643561
0.7873007,0.4251058,0.4624038
0.7892638,0.4234072,0.466441
0.7900391,0.4257016,0.4715321
0.7898296,0.4294717,0.4681244
0.7912147,0.4264867,0.4638589
0.7856092,0.4264709,0.4654361
0.7772597,0.4314639,0.4706584
0.7795818,0.434099,0.4765779
0.7862862,0.4320663,0.4711714
0.7910726,0.4290905,0.4588453
0.7928404,0.4309072,0.456044
0.7884032,0.4321588,0.4570847
0.7834584,0.4312079,0.4578167
0.7820581,0.4310635,0.4595708
0.7857014,0.4271058,0.461074
0.7904959,0.4231948,0.4677278
0.7855427,0.4218562,0.4764257
0.7805926,0.4189758,0.4822998
0.7834543,0.4189023,0.4812871
0.7839144,0.4212331,0.4744063
0.7871118,0.4191972,0.4742844
0.7927744,0.4146487,0.4756722
0.7908226,0.413682,0.4723348
0.7881453,0.4156773,0.4694736
0.7844195,0.417548,0.4691775
0.7764667,0.4190608,0.477596
0.7729109,0.421138,0.4863145
0.7712911,0.4260024,0.4903479
0.770737,0.4284436,0.4949797
0.7770221,0.4234281,0.4897593
0.7818587,0.4171898,0.4827831
0.7808131,0.4153357,0.4827719
0.7802536,0.416943,0.477405
0.7820716,0.4153974,0.470725
0.785141,0.4108092,0.4682201
0.7867755,0.4090142,0.469967
0.7876972,0.4086244,0.4727553
0.7929315,0.4067269,0.471899
0.7980211,0.4042101,0.4749551
0.7906425,0.4104815,0.4752071
0.7789228,0.4224087,0.468376
0.7789059,0.4262197,0.4656843
0.7777254,0.4291256,0.4671429
0.7734535,0.4322354,0.4727451
0.7803934,0.4296266,0.4767002
0.7860558,0.4284782,0.474329
0.7853447,0.4278076,0.471625
0.7856991,0.4262234,0.4681696
0.7856366,0.4230097,0.4653415
0.788552,0.414856,0.4613591
0.7925453,0.4119162,0.4590638
0.7928842,0.4158667,0.4712965
0.7889468,0.4168481,0.4871265
0.7820349,0.4180176,0.4863261
0.778897,0.4222942,0.478066
0.7787378,0.4245567,0.4762888
0.7771206,0.4238331,0.4751834
0.775109,0.4230646,0.477686
0.7744154,0.4238333,0.4822808
0.7754725,0.4241706,0.4764055
0.777065,0.4250096,0.4712078
0.7817195,0.4277574,0.4696408
0.7867384,0.4292468,0.4655698
0.7850469,0.4305843,0.4679385
0.7833306,0.43048,0.4710322
0.7846551,0.4282943,0.4688786
0.7828407,0.4301104,0.4681376
0.7818377,0.430557,0.4688253
0.7824583,0.4251279,0.4706232
0.7815904,0.4201133,0.4746823
0.7833285,0.4172041,0.4780053
0.7856936,0.4162098,0.479092
0.7864505,0.4151108,0.4780581
0.787398,0.4123513,0.4756673
0.7873501,0.410062,0.4778221
0.7873243,0.4092515,0.4807592
0.7857976,0.4113299,0.4779992
0.7834819,0.4170871,0.4760781
0.783097,0.4240879,0.4741067
0.7816205,0.4248481,0.4722082
0.7814523,0.4212567,0.4708027
0.7825573,0.4216808,0.4649988
0.7816383,0.4218605,0.4648258
0.7818934,0.4227674,0.4660013
0.7821944,0.4245967,0.46059
0.7822199,0.4217666,0.462538
0.785489,0.4195411,0.4667452
0.7904872,0.4166267,0.4661924
0.7919285,0.4140312,0.4677491
0.7862197,0.4165835,0.4682352
0.7816218,0.4172019,0.4691646
0.7861179,0.4156217,0.4686734
0.7902929,0.4132143,0.4650595
0.7886635,0.4101522,0.4668408
0.7888331,0.4118061,0.4678142
0.7908399,0.414802,0.4667505
0.7901195,0.4156625,0.4668811
0.7885649,0.4178827,0.462013
0.7884609,0.4212525,0.461406
0.7892542,0.4226185,0.4664575
0.788587,0.420298,0.4693493
0.7862147,0.4162352,0.4750854
0.7832335,0.4145238,0.4791777
0.7816828,0.4144583,0.4790748
0.7863634,0.415676,0.4792766
0.7904321,0.4213207,0.4758201
0.7860744,0.4271054,0.4694717
0.7832836,0.4264571,0.4649789
0.786361,0.4209332,0.4656934
0.7885756,0.4166962,0.4672723
0.7890538,0.4150813,0.464255
0.7890773,0.4143193,0.4664478
0.787823,0.4179928,0.474828
0.7843911,0.4221305,0.4810252
0.7811165,0.4184944,0.4816931
0.7830266,0.4150954,0.4756466
0.785997,0.4188052,0.4737271
0.7827318,0.4207113,0.4754567
0.7806072,0.4187866,0.4725475
0.7826655,0.4199891,0.4710167
0.781875,0.4224702,0.4702484
0.7816284,0.4240189,0.4698544
0.7823742,0.4242205,0.4697401
0.7817734,0.4237855,0.4686512
0.7831844,0.4282997,0.4700776
0.7850626,0.4313443,0.4698989
0.7876095,0.4258861,0.4716714
0.7898347,0.4202355,0.4745887
0.7889097,0.4190933,0.4706666
0.7885058,0.4189331,0.4677072
0.7891393,0.4207604,0.4670791
0.7887124,0.4246532,0.4656845
0.7876814,0.4216215,0.4664388
0.786622,0.4170825,0.4672379
0.7864473,0.4201765,0.467032
0.7868822,0.4200182,0.4690498
0.7861759,0.4185863,0.4717222
0.7859314,0.4211674,0.469154
0.7882769,0.420251,0.4663982
0.7891114,0.41809,0.4672717
0.7868007,0.416273,0.4675556
0.7846365,0.4168552,0.4697149
0.7844092,0.419498,0.4700921
0.7861506,0.4183738,0.4666967
0.7872683,0.4184522,0.466376
0.7876246,0.4185726,0.4668266
0.7875432,0.4180611,0.4664995
0.7861065,0.4232501,0.4668711
0.7851171,0.4272977,0.4665136
0.7844073,0.426729,0.4666863
0.784589,0.4254791,0.4667834
0.7852715,0.4234677,0.4664846
0.7853013,0.4208753,0.46682
0.7868321,0.419909,0.4666086
0.7881399,0.4214172,0.4657258
0.78897,0.4209513,0.462318
0.7894482,0.4202499,0.4589462
0.788027,0.4210893,0.4642666
0.7868192,0.4187385,0.4745522
0.7844489,0.417414,0.478423
0.7837435,0.4184063,0.4763022
0.786453,0.4189105,0.4756257
0.7860695,0.4194716,0.4763788
0.7871871,0.4172569,0.4732123
0.7903831,0.4141916,0.4683402
0.7886591,0.41404,0.4669304
0.7882791,0.4189088,0.4664427
0.7896377,0.4280276,0.4650956
0.7884584,0.4328154,0.4659717
0.7879988,0.4307088,0.4682356
0.7847137,0.4292407,0.4681915
0.781111,0.4300279,0.4668409
0.7864815,0.426521,0.4665619
0.7926694,0.4213126,0.4665705
0.7906872,0.4195207,0.4663791
0.7891188,0.4187625,0.4640651
0.7915988,0.4201072,0.4595921
0.7906344,0.4218953,0.4605256
0.7892301,0.4239119,0.4683033
0.7915157,0.426318,0.4728446
0.7929498,0.424427,0.4711651
0.7942458,0.4236801,0.468736
0.7924758,0.4239119,0.4650297
0.7877812,0.4219879,0.4615494
0.7893166,0.4222323,0.4614246
0.7907398,0.4217855,0.4625647
0.7886414,0.4230353,0.4663247
0.7898634,0.426139,0.4692866
0.7902286,0.4245631,0.4693169
0.7906674,0.4212853,0.4683857
0.7922766,0.4176578,0.4643441
0.7896554,0.4160239,0.465142
0.7879939,0.4202664,0.4702995
0.7888273,0.4256098,0.4701268
0.7871706,0.4273986,0.4697658
0.7850741,0.4254316,0.4747732
0.7831104,0.4215201,0.4825704
0.7778367,0.4184049,0.4853575
0.774007,0.418861,0.4853916
0.7800417,0.4190893,0.4909879
0.7852076,0.4126741,0.4949208
0.7776788,0.4066325,0.4923207
0.7723616,0.4085687,0.4881079
0.7766253,0.4132119,0.4843454
0.7783235,0.4163232,0.4819358
0.7776593,0.4173006,0.4828034
0.7801617,0.4150432,0.4840725
0.7829462,0.4119951,0.4834824
0.7836828,0.4111433,0.4832142
0.7824574,0.4134799,0.4803351
0.7810177,0.4165255,0.4781028
0.7806312,0.4155143,0.4802273
0.7806156,0.4145651,0.4827211
0.7823578,0.4175619,0.4850403
0.7845271,0.4204135,0.4816953
0.7841067,0.4226848,0.4770283
0.7822636,0.4204791,0.4794306
0.7797888,0.4142023,0.4799169
0.7798871,0.4131309,0.4787541
0.7813966,0.413932,0.4812804
0.7791637,0.4129315,0.4825818
0.7790237,0.4124162,0.4817119
0.7816861,0.412122,0.4808487
0.7829402,0.4128787,0.4804342
0.7840347,0.4126281,0.4804455
0.7830866,0.4130972,0.4813796
0.7830453,0.4146051,0.4841377
0.7838879,0.4136488,0.4862047
0.7830235,0.4143131,0.4816554
0.7844309,0.4168351,0.474229
0.7851151,0.4185967,0.4749299
0.784671,0.4184015,0.4806089
0.7852503,0.4164471,0.4837539
0.7835444,0.4166767,0.4833903
0.7809822,0.4169748,0.4791254
0.7796357,0.4176239,0.4766574
0.7795754,0.4204565,0.477877
0.7806741,0.4201914,0.4780212
1.001389,0.1091559,0.184598
0.9989804,0.1129803,0.1858435
1.000395,0.1129377,0.1900889
1.002246,0.1087614,0.1940087
1.002519,0.1080056,0.188762
1.001403,0.107771,0.1790677
0.9994444,0.1068994,0.1768182
1.001957,0.106068,0.182608
1.005787,0.1067688,0.186875
1.00542,0.1094695,0.1871491
1.003158,0.1116032,0.1899994
0.9992102,0.1153412,0.1941842
0.9957184,0.1166604,0.1936794
0.9962311,0.1167161,0.1939914
0.9998478,0.1186694,0.1955032
1.004332,0.1140536,0.1877679
1.005103,0.1096429,0.1802018
1.002952,0.1105203,0.1831044
1.00142,0.1096372,0.1847915
0.9985609,0.1104538,0.1824268
0.9978351,0.1116903,0.1832315
1.000437,0.110038,0.1845455
1.001027,0.1066448,0.1857541
1.001426,0.1031526,0.1906294
1.001772,0.1058217,0.1932285
1.00077,0.1102912,0.1919568
1.0007,0.1093835,0.1900241
0.9998268,0.1062269,0.185638
0.9996022,0.102271,0.1838023
1.000511,0.1004988,0.1820921
0.999724,0.1034758,0.1791136
1.000128,0.1051131,0.1828565
1.001877,0.1038417,0.1843399
1.005103,0.1044046,0.1815975
1.00906,0.1063743,0.1822368
1.007723,0.1082043,0.1828814
1.00468,0.108889,0.1843178
1.003643,0.1071454,0.1842554
1.001599,0.1038115,0.1815255
1.001669,0.1008041,0.1798236
1.003486,0.103294,0.1750157
1.002802,0.1073573,0.1704409
1.002768,0.1043102,0.1720399
1.004886,0.1020585,0.1741292
1.005997,0.1039552,0.1737307
1.005855,0.1052562,0.1752816
1.006209,0.1086113,0.1773163
1.00692,0.1093095,0.1756898
1.004864,0.1073401,0.173431
1.000543,0.1087619,0.1717707
0.9991783,0.1081426,0.1712781
1.000343,0.1058742,0.1709936
1.001068,0.104617,0.1679022
1.001878,0.1033954,0.168934
1.004156,0.1044782,0.1742832
1.009082,0.1042058,0.1770027
1.012525,0.102792,0.1786742
1.010018,0.1036534,0.1797315
1.006262,0.1064061,0.1810461
1.004195,0.1113419,0.1824951
1.001973,0.1122391,0.1817706
1.002704,0.1101576,0.1808992
1.005403,0.1110687,0.1794665
1.005245,0.1095404,0.1759769
1.003909,0.1073487,0.1724732
1.002281,0.108504,0.1737903
1.002251,0.1089255,0.179545
1.003754,0.1098786,0.1832227
1.003254,0.1117501,0.1834049
1.003934,0.1113506,0.1796179
1.002829,0.1104604,0.1765466
0.9991876,0.1102667,0.179761
1.000288,0.1086632,0.1816241
1.002163,0.1078531,0.1805757
1.002557,0.1095657,0.1818502
1.001517,0.1098545,0.1822793
0.9990579,0.1086835,0.1800084
1.000883,0.1083071,0.1789397
1.002111,0.1095874,0.1796202
0.9999733,0.1129438,0.179451
1.000001,0.1143419,0.1816571
1.001475,0.1117609,0.1846249
1.004332,0.1088353,0.1832196
1.00637,0.1096781,0.182864
1.004474,0.1128578,0.1838112
1.002418,0.1129926,0.1830874
1.001621,0.1120343,0.1829994
1.000302,0.1128507,0.1819996
0.9995694,0.1134537,0.1816775
1.000303,0.1136643,0.1837561
1.001189,0.1123157,0.1839123
1.002369,0.1103245,0.183266
1.003287,0.1109764,0.1861384
1.001758,0.1116097,0.1889736
0.997609,0.1109411,0.1891975
0.9920349,0.1120252,0.1904384
0.9906819,0.112989,0.1906595
0.995815,0.1123444,0.188842
1.000409,0.1124468,0.1887753
1.002348,0.1126106,0.1889665
1.002824,0.1118728,0.1875418
1.003205,0.1098752,0.1827581
1.004762,0.1074921,0.1780541
1.003322,0.108723,0.1829072
1.00227,0.1118427,0.1882732
1.005085,0.1110574,0.1822577
1.005644,0.107594,0.178224
1.003427,0.1073809,0.1814103
1.000357,0.110005,0.1808687
0.9991442,0.111769,0.1802118
1.000457,0.1146098,0.1830617
1.000685,0.1159006,0.184585
1.003362,0.1143423,0.1850967
1.006742,0.1148163,0.1852005
1.004691,0.1106451,0.1869819
1.001923,0.1034569,0.1891316
1.001026,0.1035556,0.1864597
0.9996274,0.1046235,0.1817647
1.000096,0.1045375,0.1771882
1.003238,0.1069336,0.1751972
1.004969,0.1093638,0.1790313
1.00516,0.1106189,0.1832215
1.005081,0.1112795,0.1881867
1.00278,0.1130269,0.193341
0.9995026,0.1125324,0.1873555
0.9984262,0.1103943,0.1742735
0.9989112,0.1110706,0.1673669
0.998102,0.1113168,0.1712989
0.9966585,0.1110201,0.1852291
0.9961876,0.1107631,0.1957753
0.9979834,0.1092791,0.1936019
1.001141,0.1082759,0.1901463
0.9993945,0.1097369,0.1894781
0.9973118,0.112188,0.1843077
0.9995247,0.1111266,0.1827074
0.9998373,0.1104804,0.1873169
1.001631,0.1117477,0.188033
1.003076,0.1109876,0.1915212
0.9979263,0.1121089,0.1947027
0.9946425,0.1143285,0.1915216
0.9977996,0.1157133,0.1932478
1.001879,0.1162694,0.1917175
1.002661,0.1113603,0.1868257
1.002635,0.1070406,0.1860526
1.003018,0.1115707,0.182499
1.001349,0.1161274,0.1853824
1.000285,0.1136396,0.1892122
0.9998579,0.112571,0.1838064
0.9997245,0.1131192,0.1816095
1.000779,0.1101472,0.183492
1.001522,0.1106587,0.1877776
1.003301,0.1117616,0.1923829
1.00307,0.1085577,0.1903846
1.001133,0.1079792,0.1844018
1.001754,0.1087837,0.1819413
1.00218,0.1100137,0.1858069
1.003104,0.1118987,0.1887624
1.004269,0.1106885,0.1907742
1.004793,0.1090634,0.1942014
1.00587,0.1080485,0.191938
1.003551,0.107792,0.1876532
1.000572,0.1082693,0.1857473
0.99961,0.1082434,0.1829658
0.9980701,0.1100673,0.1814534
0.9989564,0.1105849,0.1851961
1.001726,0.1098409,0.1964515
1.003293,0.1116831,0.2044396
1.002988,0.1114272,0.1926811
1.001356,0.110099,0.177389
1.001283,0.1098075,0.1802808
1.001506,0.1076903,0.1832794
1.001217,0.1078923,0.1803947
1.001571,0.1092812,0.1856052
1.001108,0.1089187,0.1870346
1.000111,0.1112605,0.1855901
0.9982542,0.113599,0.1888469
0.9972934,0.1141076,0.1860937
0.9993588,0.1151651,0.1843008
1.000967,0.115224,0.1848413
1.002308,0.1153773,0.1812789
1.003521,0.1153655,0.1802167
1.002521,0.1144764,0.1804243
1.002559,0.1128748,0.181642
1.003169,0.1101663,0.1830465
1.002849,0.1103549,0.1842907
1.004623,0.110173,0.1881709
1.00588,0.1074099,0.1880031
1.003412,0.109049,0.1858986
1.000202,0.1105668,0.1835195
0.999205,0.1083084,0.178647
0.9993387,0.108054,0.1782003
0.9989748,0.1088633,0.1782471
1.001865,0.1100277,0.1754338
1.008433,0.1117287,0.1738159
1.010358,0.111266,0.1722704
1.004729,0.1108963,0.1751359
0.9990966,0.1125932,0.1798188
0.9991894,0.1145761,0.1781165
0.9998809,0.115594,0.1788729
0.9979905,0.1145428,0.1838827
0.9982231,0.1132436,0.1837141
0.9982578,0.1139851,0.1828911
0.9972435,0.114161,0.1843876
1.000801,0.113744,0.1866812
1.004229,0.1149509,0.1897215
1.002841,0.115403,0.1873873
1.002123,0.1139737,0.1838733
1.003037,0.1118028,0.1857324
1.001721,0.1100908,0.1868693
0.9995673,0.1093694,0.1865549
0.9984925,0.108599,0.1870919
0.9986253,0.1107163,0.1868952
1.001234,0.1147288,0.1873961
1.002367,0.1137883,0.1865312
1.000918,0.1104972,0.1800612
1.002313,0.1095141,0.1746992
1.003257,0.110269,0.1788241
1.00153,0.111764,0.1854646
1.001013,0.1112113,0.1883098
1.000473,0.1109418,0.1929301
0.9997897,0.1135537,0.1956842
1.000113,0.115173,0.1935692
1.000956,0.1154077,0.1943888
1.001719,0.1144234,0.1923242
1.001728,0.1132978,0.1826877
1.003054,0.1137535,0.1754923
1.004296,0.1121794,0.1768235
1.001632,0.1103499,0.1820532
0.9989701,0.1111226,0.1823568
1.00131,0.1117282,0.1872981
1.005038,0.1127461,0.2014865
1.005426,0.114753,0.2101646
1.003038,0.1160134,0.2136497
1.000721,0.1160035,0.2054971
1.002794,0.1134834,0.1878059
1.005255,0.1094448,0.183405
1.00148,0.1082023,0.1818376
0.9977147,0.1063061,0.1770092
0.9972269,0.1024314,0.179637
0.9986247,0.1050344,0.1791973
1.001082,0.1100766,0.1760248
1.000014,0.1131447,0.1780071
0.9993613,0.115305,0.1852467
1.00065,0.1123575,0.1932919
1.000044,0.1115207,0.1911427
1.001717,0.1125837,0.1879473
1.003628,0.1101326,0.1907326
1.002651,0.1112158,0.188452
1.002228,0.111592,0.186287
1.001151,0.1104482,0.1848475
0.9994299,0.1116433,0.180286
0.9997348,0.1103371,0.182522
1.000452,0.1083602,0.1849161
0.9998203,0.1071279,0.1830452
0.9998438,0.1100155,0.1872366
1.000309,0.1152218,0.1913068
0.999939,0.1132558,0.1894773
1.000939,0.1111543,0.185544
1.001803,0.1122269,0.1820145
1.001444,0.1107849,0.1831171
1.002272,0.1114766,0.1851329
1.002713,0.1151706,0.1846536
1.001089,0.1167679,0.1858507
0.9992737,0.1135209,0.1877919
0.9998255,0.109712,0.1897755
1.000721,0.1128726,0.1926895
1.000501,0.11625,0.1926074
1.002062,0.1140018,0.187537
1.003516,0.1131121,0.1836642
1.003471,0.1124179,0.1881678
1.001141,0.1108741,0.1948898
0.9970863,0.1140864,0.1955112
0.9981701,0.1182515,0.1942114
0.9998153,0.1181061,0.1912443
0.9977551,0.1145147,0.1871025
0.9987148,0.110327,0.1861703
0.9994406,0.1091946,0.1824101
0.9997615,0.1117676,0.1793547
1.002197,0.1148604,0.1824541
1.000623,0.117071,0.1874641
0.9989087,0.1203985,0.1992718
0.9993927,0.1219095,0.2077326
0.9974143,0.1195996,0.2027241
0.9970154,0.1162684,0.1986558
0.999321,0.1101174,0.1964836
1.000508,0.1061673,0.1934274
1.000127,0.1091672,0.1930786
0.9994884,0.1107854,0.1918377
0.9992849,0.1117006,0.1921902
0.9987584,0.1162479,0.192777
1.000089,0.118502,0.1900091
1.002156,0.1157832,0.1862982
1.000523,0.112301,0.181967
0.9992288,0.112739,0.1825815
1.000333,0.1130927,0.1863933
1.000241,0.110688,0.1882127
1.000491,0.1113408,0.1930144
1.000963,0.1124529,0.1942371
0.9997528,0.1131485,0.190022
1.000372,0.114071,0.1900939
1.003968,0.1097758,0.190453
1.006499,0.1054317,0.1894542
1.005165,0.1031864,0.1870998
1.001359,0.1005024,0.1804895
0.9993368,0.1014186,0.1784922
1.000844,0.1037378,0.184046
1.003003,0.104483,0.1887819
1.002668,0.1060566,0.1880081
0.9999824,0.1134169,0.1873886
0.9960531,0.1235883,0.1925642
0.9934993,0.1239267,0.1951515
0.9962574,0.1186158,0.190905
1.000011,0.116208,0.1878676
1.001147,0.1112987,0.1912994
1.003742,0.1086993,0.1936846
1.005222,0.110341,0.1863828
1.005002,0.1086451,0.1809621
1.005163,0.1108388,0.184558
1.002357,0.1134428,0.1865695
1.000337,0.1112636,0.1855165
1.000126,0.1147261,0.1866797
0.999401,0.1149905,0.1880586
0.9999087,0.1121628,0.1857448
0.9973606,0.1147176,0.1840693
0.9954699,0.1113916,0.184622
1.000866,0.1068648,0.1834515
1.006215,0.1051252,0.1838291
1.00581,0.1034293,0.1833202
1.002179,0.1073901,0.1797604
1.000471,0.1097171,0.1793865
1.000584,0.1098209,0.1816493
0.9998307,0.111685,0.1845965
0.9995427,0.111568,0.1853514
0.9981376,0.1126932,0.1846897
0.9957457,0.1146704,0.1881033
0.9957305,0.1150305,0.1911104
0.9978627,0.1151469,0.1904682
0.9992584,0.1154654,0.1880168
0.9992728,0.1144533,0.1858468
1.00233,0.1103411,0.1829259
1.007408,0.1061886,0.176055
1.008738,0.105152,0.1730816
1.00745,0.1057022,0.1744926
1.005415,0.1042038,0.1763258
1.00172,0.1046878,0.1855202
0.9998825,0.1093913,0.1972235
1.000222,0.1112756,0.203632
0.9981563,0.1135935,0.2050483
0.9980843,0.1163503,0.2030123
1.000606,0.1133394,0.2022945
1.000871,0.1114197,0.2025595
1.002543,0.1126389,0.1994832
1.00326,0.1116341,0.1907839
1.00136,0.1098339,0.1821204
1.001363,0.1105309,0.1821049
1.001123,0.112464,0.185072
1.0005,0.1126249,0.1867649
0.9997224,0.1115103,0.1925708
0.9987212,0.1107712,0.1947979
0.9989632,0.1114386,0.1888594
0.9993878,0.1131085,0.1885179
1.00142,0.1140721,0.1903712
1.003241,0.1132717,0.1864346
1.004012,0.1120411,0.1887451
1.004612,0.1133836,0.1922093
1.00194,0.1145547,0.1893765
1.000251,0.113603,0.1901861
1.000371,0.11349,0.1914172
0.9993508,0.1122906,0.1921287
1.000107,0.1101982,0.1947803
0.9993451,0.1102974,0.1930197
0.9979967,0.1107339,0.1914304
1.00039,0.1110275,0.1903023
1.002989,0.1121353,0.1861476
1.00485,0.1145307,0.1868422
1.004205,0.1173055,0.1887505
1.001289,0.1155248,0.1867648
0.9994938,0.1123414,0.1877909
0.9978956,0.1141139,0.189859
0.9986234,0.1145722,0.1902097
1.000137,0.1127065,0.1909898
0.9995477,0.1129059,0.1918891
0.9993817,0.1127717,0.1971744
0.9983342,0.1155974,0.2022121
0.9983969,0.1183229,0.1997667
0.9999274,0.115585,0.1982009
0.998992,0.1146348,0.199087
0.9984586,0.1140524,0.198304
0.9989343,0.113373,0.197539
1.000329,0.1164097,0.1927486
1.00216,0.1170697,0.1848359
1.000642,0.1163091,0.1847137
0.9973328,0.1159546,0.1944981
0.9941406,0.1147473,0.2042524
0.993772,0.1157536,0.2046999
0.9966256,0.1172109,0.1970479
0.998263,0.1183567,0.1929718
0.9989959,0.1185008,0.1980117
0.99816,0.1169484,0.2016386
0.9979832,0.1159886,0.1980017
1.000459,0.114813,0.195342
0.9998346,0.1156408,0.195089
0.9987365,0.1161968,0.1924508
0.9988973,0.1137217,0.1920356
0.9980404,0.1128689,0.1930337
0.9987915,0.1107947,0.1902337
0.9979903,0.1101633,0.1914197
0.9970387,0.1137658,0.1971421
0.997866,0.115013,0.1988938
0.9967083,0.1168049,0.1954712
0.99703,0.1156801,0.1912262
0.9971418,0.1109864,0.192829
0.9967845,0.111604,0.1943135
0.9997677,0.1104528,0.1919734
1.000435,0.108764,0.1933712
0.9997355,0.111716,0.1936413
1.000059,0.1129695,0.1935669
0.9988749,0.1143242,0.1969665
0.9984694,0.1141381,0.1968821
0.9989041,0.1122607,0.196156
1.000409,0.1127489,0.1956789
1.001726,0.1124692,0.1912141
0.9995853,0.1131753,0.1879154
0.9979976,0.1132043,0.1910952
0.999659,0.110166,0.1950023
1.001527,0.1091408,0.1934726
1.001544,0.1097515,0.1957888
1.001047,0.1101179,0.1998477
1.000634,0.1103251,0.1934385
0.9996376,0.110562,0.1867757
0.9997239,0.1106872,0.1871913
0.9993928,0.110858,0.1886965
0.9982817,0.1115997,0.1894151
1.000021,0.110931,0.1903651
1.003206,0.1106886,0.1942611
1.004697,0.1106704,0.1978588
1.003284,0.1094385,0.1968794
1.001127,0.1115029,0.1959286
1.001103,0.1134277,0.197571
1.000482,0.1121087,0.1968123
0.9983245,0.1114547,0.1914377
0.9965503,0.1110014,0.1855994
0.9966045,0.1109531,0.1839673
1.00194,0.1116562,0.1888819
1.007104,0.1128056,0.1934767
1.00252,0.1146117,0.1914638
0.9977857,0.1153926,0.1891019
1.002245,0.116887,0.1884533
1.004269,0.1182144,0.1872472
1.001855,0.1142088,0.1871928
1.002934,0.1090847,0.1877474
1.002577,0.1093595,0.1884425
0.9987292,0.1111555,0.1931664
0.9936894,0.1111683,0.2031336
0.991095,0.1117053,0.2077432
0.9981071,0.1137357,0.2025117
1.005135,0.1160636,0.199655
1.002579,0.115527,0.2012161
0.9999352,0.1136436,0.1982065
1.000026,0.1141684,0.1941399
0.9988035,0.1151631,0.1962627
0.9978624,0.1173095,0.1997769
0.9960411,0.1198911,0.2018739
0.9942503,0.1193327,0.2038125
0.9977674,0.1183754,0.2019489
1.001708,0.1177862,0.198639
0.9998709,0.1168965,0.1959144
0.9982643,0.1167101,0.193025
0.9991792,0.1164254,0.1943538
0.9992873,0.1162498,0.196589
1.000164,0.1139264,0.1954196
1.000428,0.1107074,0.194785
0.9994871,0.112001,0.1950134
1.000223,0.1153462,0.1943688
0.9996019,0.1178941,0.1963259
0.9969763,0.1208876,0.2002065
0.9958803,0.1237178,0.2002888
0.9980353,0.1241788,0.1994028
1.001742,0.1224669,0.1986634
1.002545,0.1221795,0.1970693
1.005009,0.1216815,0.1980256
1.007915,0.1187912,0.197436
1.001265,0.116612,0.1964912
0.9934198,0.1130106,0.1978155
0.9921233,0.1096438,0.1977528
0.993141,0.1120942,0.2002714
0.9945371,0.1145998,0.202401
0.9945196,0.1172202,0.1995966
0.9953384,0.1223912,0.1987488
0.9963476,0.1208244,0.199033
0.9964491,0.1175902,0.1965442
1.000579,0.1201986,0.1962307
1.005062,0.1198113,0.1963864
1.004305,0.1185922,0.1941228
1.000219,0.1199682,0.1976391
0.9966056,0.1183229,0.2020797
0.99513,0.117019,0.1996367
0.9952306,0.1157261,0.1992078
0.9946552,0.1128612,0.1998242
0.992175,0.1136622,0.1979488
0.9934005,0.1148943,0.1983549
0.9975261,0.1152362,0.1980996
0.9990065,0.1170999,0.1966433
0.9993797,0.1161623,0.19667
0.9993458,0.1145522,0.1948293
1.001936,0.1165695,0.192006
1.003524,0.1181234,0.1934874
0.999069,0.1174888,0.1973738
0.9960269,0.1155213,0.1992251
0.99535,0.1131488,0.1990303
0.9957348,0.1144166,0.1981149
0.9970726,0.1163348,0.1984581
0.9992354,0.1159735,0.1973914
1.004489,0.1205794,0.1929192
1.005114,0.1266129,0.1901626
1.002256,0.1246471,0.1888599
1.002752,0.1195146,0.1879882
1.001691,0.1164995,0.1922561
1.000085,0.1138814,0.1997446
1.00023,0.1104161,0.2013275
1.001622,0.1066912,0.1963856
1.002889,0.1048819,0.1930509
0.9992431,0.1055278,0.1935904
0.9958718,0.107138,0.1969242
0.9980699,0.1100256,0.1969502
0.9995768,0.1160811,0.1922936
0.9982365,0.1225806,0.1929875
0.9989332,0.1233143,0.1936989
1.001366,0.1212498,0.1917389
1.001677,0.1211167,0.192075
1.000534,0.1186964,0.1896414
0.999578,0.114886,0.1906142
0.9976092,0.113007,0.1929039
0.994828,0.111114,0.1899372
0.9956823,0.1106868,0.190322
0.999,0.1114182,0.1914161
1.000336,0.111376,0.1915919
1.001855,0.1130201,0.1925372
1.000909,0.1159711,0.193258
0.9988351,0.1187097,0.1966809
1.000747,0.1221414,0.196133
1.00117,0.1248739,0.1920709
1.002048,0.1242195,0.1909979
1.003388,0.1192336,0.1900349
1.000125,0.1132182,0.1903437
0.9976687,0.1125032,0.1916944
0.9969598,0.1137315,0.1900671
0.9980855,0.1102056,0.1874673
1.000317,0.1087724,0.1887789
0.9999386,0.1112973,0.1917681
0.9998397,0.1121287,0.1920047
0.9993703,0.1156656,0.1938005
0.9990289,0.121147,0.1970146
1.000589,0.1238091,0.1975955
1.001027,0.1260825,0.1969658
1.000684,0.1263721,0.1946373
0.9980749,0.1242968,0.1913024
0.9946957,0.1246989,0.1894266
0.9965384,0.1256672,0.1900578
0.9994667,0.12315,0.1909538
0.9993722,0.1176292,0.1908886
1.000071,0.1108439,0.1956168
0.9997453,0.1087816,0.1993876
0.9959227,0.1088533,0.1925254
0.9935555,0.1038085,0.186037
0.9948849,0.1031385,0.1894425
0.9984972,0.1053882,0.1939547
1.000478,0.1052946,0.1939006
0.9974287,0.1142035,0.1922471
0.9945832,0.1235192,0.1893562
0.9957313,0.1237034,0.1896583
0.9965089,0.1253391,0.1924831
0.9953829,0.1278573,0.1912044
0.9970246,0.1255598,0.1915841
1.002495,0.1227868,0.1924616
1.00703,0.1214377,0.1917529
1.006513,0.11912,0.1942602
1.003656,0.116764,0.1950363
1.00329,0.1110709,0.196509
1.001024,0.1061877,0.1973587
0.9987795,0.1078625,0.1938333
0.9991294,0.1051646,0.1945887
0.9952803,0.1038784,0.1977582
0.9952855,0.1113696,0.2026639
0.9989313,0.1160326,0.2079362
0.9981895,0.1171678,0.2059639
0.998918,0.1183439,0.2034779
0.9980457,0.1213149,0.2025745
0.9981933,0.1230897,0.2002373
1.001609,0.1218254,0.1999106
1.001553,0.1224361,0.1997516
1.002833,0.1221227,0.1983046
1.002362,0.1221159,0.1950299
0.9992479,0.1222102,0.1915995
0.9991945,0.1190742,0.1929208
0.9983887,0.1142905,0.1939084
0.9983798,0.1080955,0.1927198
0.9989957,0.1076006,0.1951943
0.998141,0.1113633,0.197536
0.9976507,0.1130483,0.1972818
0.9960947,0.1152074,0.1974254
0.99552,0.1168948,0.1978233
0.9969438,0.1205659,0.1982486
0.9975206,0.1238278,0.1983398
0.9972197,0.1225259,0.200399
0.9972696,0.1219401,0.2035882
0.9982098,0.1212726,0.2037745
0.999064,0.1201251,0.2037357
0.9993634,0.1181302,0.2028187
0.999251,0.1118846,0.2004429
0.9985022,0.1072163,0.2013029
0.9983352,0.109086,0.2019483
0.9988425,0.1126344,0.2009117
0.9986051,0.1129845,0.2015453
0.9984531,0.1134956,0.2015169
0.9989616,0.116525,0.2006048
0.9992517,0.119112,0.1989186
0.9995095,0.1211229,0.1961422
0.9994624,0.1219974,0.1959617
1.00019,0.1220435,0.1963076
1.002271,0.1216238,0.1952909
1.002531,0.1199109,0.1961742
1.000183,0.1186649,0.1969663
0.9977309,0.1160811,0.1970942
0.9981684,0.1141465,0.1976288
0.9990892,0.1156819,0.1969513
0.9960264,0.1162054,0.1971694
0.9933441,0.1184197,0.197519
0.9928197,0.1222614,0.1970653
0.9932713,0.1213215,0.1983102
0.9961986,0.1206412,0.1994352
0.9980195,0.1221793,0.2012149
0.9982623,0.1204963,0.2030931
0.9988394,0.1190663,0.2003364
0.9995301,0.1184645,0.1972709
1.000379,0.1147327,0.1987263
0.9992131,0.1129521,0.199496
0.9963105,0.1144825,0.1965183
0.9937251,0.1157656,0.1952943
0.9947124,0.1171276,0.1987148
0.9972649,0.1170643,0.2042038
0.9967224,0.1178634,0.2070723
0.9992188,0.1221569,0.2008449
1.003136,0.1247825,0.1919514
1.002621,0.1233579,0.1930845
1.001761,0.1208794,0.1950239
1.000064,0.1186815,0.1891251
0.9985345,0.1164766,0.1872486
0.9982001,0.1155433,0.1891184
0.995857,0.1135307,0.1901443
0.9946766,0.1105146,0.1944253
0.9958457,0.1142146,0.1939207
0.9968669,0.1184533,0.1914474
0.9982668,0.1146362,0.1942931
1.000622,0.1125275,0.1942376
1.000731,0.1145102,0.1958284
0.9990703,0.1145036,0.1980477
1.000152,0.1162034,0.1930242
0.9992919,0.1191828,0.1904166
0.9967498,0.1173783,0.1906931
0.9974216,0.112886,0.1866062
0.9974929,0.1102181,0.1821617
0.9988893,0.110913,0.186186
1.000865,0.1138314,0.1952799
0.9998321,0.1151472,0.1966306
1.000033,0.1150152,0.1937266
1.001226,0.1137452,0.1925697
1.002469,0.1121402,0.1924394
1.003218,0.1153007,0.1927367
1.002418,0.1189253,0.1902774
1.00152,0.1181287,0.1904238
0.9993997,0.1175893,0.1915729
0.9977137,0.1173392,0.1884943
0.9975878,0.1163617,0.1876424
0.9963182,0.1165323,0.1878907
0.9952582,0.1170607,0.1889782
0.9964645,0.1174943,0.1911986
0.9987614,0.11823,0.1907669
1.000527,0.1183158,0.1926103
1.00063,0.1177547,0.1959286
1.00034,0.1181377,0.1958968
1.001597,0.118209,0.1949766
1.000566,0.1170878,0.1951417
0.9972775,0.114679,0.1956123
0.9969617,0.1122536,0.1941524
0.9972674,0.1164368,0.1908539
0.9971635,0.1216448,0.1890059
0.997775,0.1177919,0.1896961
0.9991104,0.1130901,0.1914381
1.002496,0.1123012,0.1920686
1.003559,0.1125078,0.1905329
1.002384,0.1154247,0.1898385
1.002828,0.1168639,0.1905327
1.0025,0.1155697,0.1901814
1.000736,0.115796,0.1902672
0.9986099,0.1154205,0.1912637
0.9979039,0.1148509,0.1945944
0.9980806,0.1153689,0.1990998
0.9970722,0.1142065,0.1994383
0.9978651,0.1123861,0.1986262
0.9992797,0.1113873,0.19634
0.9986669,0.1108683,0.1913454
0.9992887,0.1110862,0.1926364
1.000531,0.1112468,0.1963949
0.9999776,0.1113766,0.1954636
0.9995906,0.1130721,0.1955745
0.9993194,0.1153958,0.1944116
0.9984456,0.1156916,0.1913446
0.9993379,0.1148234,0.1906784
1.00024,0.1143988,0.1879972
0.9981208,0.1135719,0.1866568
0.9966424,0.1127516,0.1883967
0.9983238,0.1124916,0.188677
1.000072,0.1123222,0.189423
1.000511,0.1125892,0.1880427
1.001706,0.1127635,0.1856151
1.002985,0.1133982,0.1864655
1.000671,0.1151879,0.1892448
0.9963514,0.1156408,0.1913152
0.9950208,0.1152614,0.1904812
0.9959881,0.1163846,0.1920053
0.9960452,0.1178638,0.1938604
0.9961662,0.1183966,0.1946511
0.9987323,0.117451,0.2005083
1.002333,0.1152398,0.2017797
1.004553,0.1132463,0.1983553
1.004841,0.1148912,0.1966209
1.000636,0.1216634,0.1940763
0.9951206,0.126051,0.1975818
0.9966478,0.1209968,0.2018077
0.9985758,0.1140147,0.1987459
0.9955261,0.1133113,0.1967637
0.9964172,0.1112468,0.197405
0.9981161,0.1081267,0.1970732
0.9967145,0.1125173,0.1959724
0.9977275,0.1150907,0.1943091
0.9993,0.1138315,0.1913413
1.001346,0.1165842,0.1892595
1.003085,0.1202308,0.1895665
1.002315,0.1221749,0.1896147
1.001375,0.1194559,0.1895748
0.9975851,0.1145353,0.1897853
0.9943611,0.1107065,0.1911258
0.9963204,0.1068117,0.1950932
0.9980994,0.1044625,0.1978116
0.9987585,0.09999663,0.1950675
0.999091,0.1013566,0.1910138
0.9992121,0.1097717,0.1912694
1.000332,0.1117086,0.1906709
1.000235,0.1124833,0.189173
0.9996274,0.1150732,0.1913687
1.00019,0.1206542,0.1921221
1.000059,0.1246295,0.1929686
0.999624,0.1190347,0.1947113
0.9992891,0.1188487,0.1963204
0.9982714,0.1213366,0.2025673
0.9984418,0.1197924,0.2037625
0.9986004,0.1195049,0.1977938
0.9965868,0.1152446,0.1956015
0.9953173,0.1143951,0.1957699
0.9957508,0.1159398,0.197799
0.9966008,0.1137713,0.1992759
0.9984482,0.1139719,0.1968508
1.000688,0.1137058,0.1942965
1.000334,0.1144392,0.1920409
0.9980128,0.1168489,0.1919069
0.9968335,0.1185787,0.193525
0.995439,0.1198958,0.1981684
0.9953164,0.1197571,0.2044082
0.996921,0.1214568,0.1992719
0.9972544,0.1202622,0.1925929
0.9995421,0.1155245,0.1974269
1.001982,0.1132939,0.1988024
1.002683,0.1130349,0.1967829
1.003044,0.1147444,0.199646
0.9992282,0.1138791,0.1997719
0.9956379,0.1131401,0.1995018
0.9949267,0.1155346,0.2013183
0.994787,0.1168968,0.2023711
0.996797,0.1204993,0.2060343
0.9977366,0.1203992,0.2074416
0.9986569,0.1179112,0.205495
0.999157,0.1202175,0.2035535
0.997003,0.1185368,0.1981133
0.9977169,0.1171197,0.1952843
1.000064,0.1180794,0.195546
1.001722,0.1139097,0.1933948
1.000463,0.1105765,0.1937675
0.99527,0.1106067,0.1945957
0.993786,0.1116817,0.19714
0.9959306,0.1123163,0.2056616
0.9988975,0.1135304,0.210374
1.00104,0.1168923,0.2067858
0.9998138,0.1187087,0.1984787
0.9995462,0.1195765,0.1922722
0.9994402,0.117456,0.1951572
0.9982973,0.1127455,0.2002246
0.9994917,0.1119885,0.200326
1.000292,0.1123289,0.199017
0.9990735,0.1117259,0.1966562
0.9979779,0.1110965,0.1930311
0.9977448,0.1117856,0.1931009
0.9975391,0.1145489,0.1952306
0.9986533,0.1157957,0.1994328
1.000875,0.1171686,0.20675
1.000142,0.118045,0.2059059
0.9994128,0.1178246,0.2014178
1.000472,0.1192603,0.20169
0.9998731,0.1186694,0.1979378
0.9998343,0.1172826,0.1954093
1.00028,0.1164081,0.1948235
0.9997755,0.1150079,0.1914557
1.000082,0.1169441,0.1933409
0.9997006,0.119324,0.1943356
0.9980774,0.1199745,0.1941357
0.997171,0.1219297,0.1959649
0.9987134,0.122599,0.1914449
1.000967,0.1196086,0.1903233
0.9998881,0.1158429,0.1948608
0.9985225,0.1137332,0.1972523
0.9992075,0.1132734,0.2012233
1.000132,0.1131333,0.2005779
1.001792,0.1113608,0.1965441
1.000927,0.1104596,0.196607
0.9991732,0.1116942,0.1956499
1.001222,0.1121263,0.1963312
1.001732,0.1133043,0.198059
1.000132,0.1138206,0.1949698
0.9997256,0.1126203,0.191015
0.9991307,0.1129789,0.1881663
0.9990433,0.1118217,0.1900852
0.9987309,0.1102236,0.194345
0.9987942,0.1114127,0.1929123
1.001136,0.1113185,0.1925266
1.002373,0.1110893,0.1932407
1.001775,0.1133481,0.1898394
1.001771,0.1154493,0.1887769
1.000725,0.1163612,0.1919579
0.9991643,0.1157402,0.1969894
1.000531,0.1140763,0.1993157
1.002173,0.1135267,0.1976981
1.002424,0.1137779,0.1960893
1.001555,0.1131244,0.1936961
0.9990234,0.1115667,0.193334
0.9997301,0.1097272,0.1927114
1.000864,0.1085252,0.1892544
0.9990959,0.1113653,0.1917126
0.9993296,0.1156366,0.194659
0.9987774,0.1139536,0.192451
0.9990745,0.1116829,0.1923114
1.001835,0.1122293,0.1908781
1.001078,0.1107255,0.1883792
0.9992356,0.1116943,0.1926517
0.9972527,0.1134998,0.197658
0.9955711,0.1121742,0.1957482
0.9964302,0.1135679,0.192428
0.997622,0.115718,0.1933603
1.000181,0.1170624,0.1961051
1.001637,0.1180759,0.1981851
1.000854,0.1144744,0.1993514
1.000821,0.11108,0.2000097
0.9994884,0.1123713,0.2004156
0.9985989,0.113918,0.1995944
0.9978241,0.115647,0.1991309
0.9957402,0.1190566,0.199414
0.9969713,0.1188834,0.1987983
0.9994907,0.1168426,0.1978251
1.000224,0.1186041,0.1952707
0.9993397,0.1187153,0.1913861
0.9980749,0.1190777,0.191762
0.9999891,0.1219012,0.1989712
1.002366,0.1193292,0.2012105
1.003013,0.1158938,0.1946196
1.003069,0.11486,0.1957423
1.002225,0.1136627,0.2000118
1.00218,0.1133334,0.1993454
1.001837,0.1124809,0.2005235
1.000649,0.1149818,0.1969323
0.9991538,0.1177521,0.1943702
0.9977127,0.1146231,0.1969416
0.9990707,0.1129574,0.196226
0.9998717,0.1141217,0.1979933
0.999653,0.1138809,0.1993474
1.000571,0.1128313,0.1997909
0.9996905,0.1123877,0.2006297
0.9993325,0.1134411,0.1971226
0.9977566,0.1147488,0.1960762
0.9945493,0.1168022,0.1957155
0.9963115,0.1197759,0.1954085
0.9991643,0.1208125,0.1970835
1.000253,0.1196112,0.1979265
1.000538,0.1177863,0.2010016
0.9994534,0.1149548,0.2009268
1.000105,0.1120651,0.2006508
1.000304,0.1121451,0.2043326
0.999563,0.113618,0.2031489
0.9997706,0.1158814,0.2019171
0.9972659,0.1187821,0.2036038
0.9952083,0.1168006,0.2032856
0.9975557,0.1137899,0.2013296
0.9995655,0.1159017,0.1999183
0.9986084,0.1170856,0.2005415
0.9982945,0.1152429,0.1986168
1.00028,0.1136351,0.1968913
1.001988,0.1132179,0.1983599
1.003194,0.1143936,0.1992881
1.002413,0.1154397,0.2021772
0.9986415,0.1204841,0.2012498
0.9962506,0.1273601,0.1981737
0.9960007,0.123876,0.1999653
0.9960375,0.1198039,0.1984123
0.99569,0.1232714,0.1981955
0.9958483,0.1220063,0.2014056
0.9974221,0.1182647,0.2007227
0.9990331,0.1162488,0.1990601
1.000467,0.1139161,0.1982608
0.9993601,0.1146375,0.2064173
0.9976846,0.1146717,0.2156058
0.9991858,0.1157273,0.2069868
0.9996163,0.1195702,0.1972766
0.9999013,0.1182113,0.1983709
0.999958,0.1174607,0.1973877
0.9968661,0.1212227,0.1962418
0.9951709,0.1235616,0.198049
0.995841,0.1249548,0.1970397
0.9970412,0.1231435,0.1980785
0.9974812,0.119812,0.2040772
0.9970474,0.1185513,0.2078757
0.9973527,0.1172637,0.2049285
0.9971545,0.1176722,0.1998413
0.9973632,0.1162197,0.200943
0.9982583,0.1139932,0.2016522
0.9983364,0.1166271,0.198648
0.9970864,0.1168934,0.1997891
0.9948467,0.1173758,0.1978168
0.9947666,0.1224198,0.1950851
0.9951299,0.122941,0.2006743
0.9958206,0.1208821,0.2044561
0.9990018,0.1210635,0.2027155
0.9991659,0.1200045,0.2011173
0.99814,0.1179485,0.2015048
0.9998722,0.1178808,0.2013586
1.000243,0.1194577,0.19992
0.9999117,0.1204749,0.1992457
0.9996945,0.1211337,0.198231
0.9981203,0.1205922,0.1994581
0.9967894,0.1187084,0.2009398
0.99676,0.1177951,0.2004359
0.9965542,0.1179452,0.2021521
0.9947276,0.1192277,0.2033842
0.994759,0.1197595,0.2037283
0.9965322,0.1185287,0.2020865
0.9958098,0.1160062,0.1985717
0.9960506,0.1127297,0.1995295
0.9983087,0.1134287,0.1990463
0.9977768,0.1148577,0.1959612
0.9944627,0.1132892,0.1972468
0.9938462,0.114778,0.1979991
0.9978328,0.1191103,0.1975537
0.9995492,0.1235249,0.1990969
0.998308,0.1242544,0.1988386
0.9986016,0.1191915,0.1983081
0.9986582,0.1168876,0.1998429
0.9985793,0.1182764,0.2002235
0.9988525,0.1182077,0.1999291
0.9993851,0.1179861,0.200043
1.000593,0.1179776,0.1997402
1.0009,0.1176103,0.1988383
1.000927,0.1153954,0.1965159
0.999006,0.1136411,0.1953146
0.996272,0.1173293,0.1968249
0.9979176,0.1208513,0.1978755
0.9995766,0.1186806,0.1973317
0.99825,0.1169347,0.1951342
0.9987826,0.1185392,0.1922472
1.000777,0.1182741,0.1930889
1.00166,0.117516,0.1978373
1.00076,0.1185104,0.2012537
0.9966432,0.1180867,0.2018021
0.9936164,0.1187834,0.1995732
0.9968268,0.120053,0.1948663
1.000197,0.1190515,0.1924979
0.9987319,0.1179779,0.1953327
0.9990911,0.1150527,0.1987424
1.002752,0.1121126,0.1973613
1.00326,0.1136592,0.1963921
1.002117,0.1171719,0.1989839
1.001169,0.1187039,0.1976022
0.9996913,0.116638,0.192589
1.001618,0.1129851,0.1869744
1.003803,0.1100651,0.1838841
1.002271,0.1090261,0.1847456
1.000681,0.1095507,0.1837808
0.9997555,0.1081469,0.1861415
0.9996935,0.1068284,0.1910947
1.000514,0.1108067,0.1915854
1.000992,0.1161807,0.1914107
1.002764,0.1177019,0.189621
1.005149,0.1178504,0.1900152
1.005527,0.117544,0.192561
1.003322,0.116653,0.1931894
0.9993931,0.1192104,0.1971814
0.9975843,0.1221066,0.1981134
0.9990209,0.1211434,0.195522
0.9997748,0.1220836,0.1932857
0.9997572,0.1239144,0.18869
0.9993914,0.1195721,0.1896738
0.998134,0.1137367,0.1916165
0.9985005,0.1112951,0.1900749
0.9989788,0.1041256,0.1941837
0.9981396,0.09105186,0.1989157
0.9976169,0.0888721,0.2009702
0.9961639,0.102852,0.2031511
0.9958072,0.1194306,0.2011714
0.9991185,0.1320265,0.1964404
1.002834,0.1389388,0.1936292
1.004356,0.1400746,0.1909291
1.002589,0.1373225,0.1893767
0.995688,0.1247071,0.1915539
0.9875378,0.1081024,0.192227
0.988704,0.102528,0.1924707
0.9977443,0.1034699,0.1986852
1.002235,0.1044394,0.2055868
1.00288,0.109214,0.2052236
1.004194,0.116065,0.2009322
1.003671,0.120728,0.2004939
1.001783,0.1194719,0.1997104
0.9996336,0.1118374,0.1971935
0.9973794,0.1075641,0.1987831
0.9964446,0.1084817,0.1972538
0.9980484,0.1090737,0.1944014
1.000248,0.114153,0.1965689
1.001605,0.1231708,0.1968356
1.001947,0.1280287,0.1972695
0.9998669,0.1258573,0.1986544
0.9996756,0.1206381,0.1981799
1.000871,0.1174081,0.19754
1.001264,0.114388,0.1941218
1.003637,0.1127121,0.1919725
1.002845,0.1134001,0.1936451
1.000945,0.1154888,0.1952049
1.000912,0.1202761,0.1971029
0.9989419,0.1241855,0.1970139
0.9982462,0.1251456,0.1934032
0.9971024,0.1200864,0.1905385
0.9964791,0.112457,0.1915514
0.9981879,0.1097945,0.1945652
0.9979794,0.1083601,0.1993236
0.9995737,0.1114865,0.2057856
1.000858,0.1180813,0.2062671
0.9994451,0.1219931,0.2023969
0.9997704,0.1281829,0.1974741
0.9983893,0.1305264,0.189066
0.9963837,0.1279969,0.189799
0.9967293,0.1280705,0.1946165
0.9948241,0.1210462,0.1901744
0.9922094,0.107627,0.1918844
0.9938224,0.1030128,0.1974222
0.9963335,0.1063034,0.1999188
0.9958131,0.1096124,0.2062517
0.9956224,0.1140709,0.2068485
0.9961406,0.1217331,0.2049365
0.9955767,0.1261002,0.2036377
0.9959293,0.1239412,0.1996899
0.9959207,0.1235284,0.2025664
0.9956263,0.1238731,0.2038607
0.9960532,0.1196417,0.2017771
0.9956962,0.1161052,0.2028654
0.9958425,0.1147327,0.1997108
0.9959378,0.1160236,0.1967616
0.9956733,0.118615,0.1973468
0.9965134,0.1178986,0.1994499
0.9984377,0.1179487,0.2029485
1.000806,0.1182092,0.2049158
1.000405,0.1169257,0.2054648
0.9990831,0.1175982,0.2019909
0.9989772,0.1181391,0.1986871
0.9957332,0.1185735,0.2009093
0.9935169,0.119826,0.2020458
0.9964815,0.1216799,0.2002288
0.9975764,0.1235286,0.1995016
0.9943601,0.1224923,0.1998719
0.9927218,0.1201872,0.1979134
0.9965411,0.1183896,0.195035
0.9999204,0.1179134,0.1956992
0.9968351,0.1182851,0.197826
0.994481,0.1187285,0.1976661
0.996472,0.1200206,0.1964335
0.9973401,0.1192209,0.1965294
0.9989879,0.1182115,0.1947522
1.00187,0.1185984,0.1909732
1.001254,0.1193829,0.1925076
0.9988917,0.1209955,0.200744
0.9968869,0.1174888,0.2062976
0.9969503,0.1130982,0.2026873
1.000207,0.1135094,0.1998583
1.000815,0.1116608,0.2007258
0.9992818,0.1102511,0.1972673
1.00076,0.1126668,0.1943444
1.002879,0.1137951,0.1951546
1.003904,0.1138788,0.1976683
1.001035,0.1148032,0.1981239
0.9957139,0.117302,0.1949969
0.9958578,0.1203424,0.1948318
0.9962385,0.1191368,0.1936761
0.9932002,0.1171255,0.1919946
0.9932273,0.1205972,0.1941525
0.9955514,0.1235726,0.1946348
0.9998475,0.1233147,0.1961241
1.002624,0.1216092,0.196374
0.9992971,0.116913,0.1943699
0.9977744,0.1139025,0.1964883
0.9998632,0.1136934,0.1980455
0.9998272,0.1137042,0.1990125
0.9972593,0.1142253,0.2007243
0.9948652,0.1138761,0.2010745
0.9956629,0.1148917,0.2022733
0.9967899,0.1165262,0.202085
0.9975622,0.1156777,0.1992859
1.000986,0.1142021,0.1950518
1.002182,0.1133834,0.1927151
1.000034,0.1145373,0.1971984
0.9996691,0.1168055,0.2020914
1.000178,0.1185282,0.1996835
0.9999548,0.1180852,0.1957274
0.999642,0.114702,0.1941401
0.9980418,0.1128975,0.1924845
0.9957725,0.1121116,0.1946563
0.995369,0.110655,0.1981336
0.9966455,0.1109911,0.1997117
0.9989041,0.1113166,0.2038217
1.002404,0.1110445,0.2023916
1.003829,0.1116134,0.1968518
1.002304,0.1132742,0.1971768
1.002068,0.1136491,0.1975675
1.000561,0.1112262,0.1989941
0.9975817,0.1104815,0.2018776
0.9996704,0.1091897,0.2013995
1.002989,0.1064421,0.201352
1.003575,0.1110546,0.2008908
1.003499,0.1165314,0.1985999
1.001623,0.1143254,0.1965957
1.000543,0.113896,0.1966921
1.001079,0.1154242,0.1974495
1.000398,0.1139014,0.1942241
1.00048,0.1139008,0.1923573
1.000275,0.1137727,0.1952284
0.9996003,0.1127129,0.1977783
1.001205,0.1126196,0.1993853
1.001774,0.1121108,0.2002282
1.000595,0.1130929,0.2000666
0.9986729,0.1151154,0.1987297
0.9956398,0.1190214,0.19681
0.9959142,0.1221838,0.1944715
0.9975888,0.1184783,0.1920519
0.9968585,0.1154147,0.1932838
0.9972935,0.1170436,0.1961831
0.9978724,0.1184179,0.1996132
0.9982268,0.1184678,0.2037517
0.9990373,0.117246,0.2024879
0.9965345,0.1163316,0.1984118
0.9943965,0.1153975,0.1977285
0.9935738,0.1171394,0.2029584
0.9907986,0.1228783,0.2122652
0.9913812,0.1241445,0.2120951
0.9935848,0.1206679,0.1995949
0.9936906,0.118519,0.1901181
0.9953958,0.1191702,0.1925256
0.9974988,0.1196391,0.1992746
0.9998454,0.1163196,0.201559
1.000989,0.1141909,0.2033261
0.9988132,0.1145239,0.2043313
0.9971258,0.1144502,0.2051132
0.9945905,0.1173307,0.2100786
0.9934918,0.1201172,0.2075908
0.9961695,0.117162,0.1994708
0.9960119,0.1134577,0.1964053
0.9956448,0.1149544,0.1965141
0.9971517,0.1171885,0.201241
0.9971608,0.117893,0.2032107
0.9978082,0.1187323,0.2021969
0.9989159,0.1166913,0.2036144
1.000374,0.1162726,0.2026703
1.000554,0.118228,0.2055218
0.9990914,0.1171057,0.2079475
0.9992675,0.114762,0.204451
0.9976153,0.1113999,0.2028459
0.9963673,0.1119049,0.2022744
0.997801,0.115285,0.203032
0.9968941,0.1160013,0.2035107
0.9961488,0.1189564,0.204938
0.9958912,0.1188162,0.2083248
0.9954133,0.1167337,0.2070977
0.9962271,0.1193105,0.2061485
0.9955306,0.1195551,0.20385
0.9949635,0.1201469,0.1981532
0.9955404,0.1210158,0.1991951
0.9966197,0.120008,0.2014564
0.997947,0.1213823,0.1992833
0.9970443,0.1191589,0.2004696
0.9969321,0.1150452,0.2042923
0.997484,0.114706,0.2062241
0.9960117,0.1193709,0.2070275
0.9956358,0.1265422,0.206674
0.9962214,0.1250974,0.2062557
0.9975897,0.122374,0.2037392
0.9992682,0.1219993,0.1994346
0.9988555,0.1149173,0.1998297
0.9991834,0.1134852,0.200949
1.00049,0.1159047,0.2021572
0.9995451,0.1153026,0.2057974
0.9970272,0.1202382,0.2058842
0.9952051,0.120606,0.2056917
0.9957023,0.1180329,0.205075
0.9972076,0.1213676,0.2023651
0.9969812,0.1209521,0.203309
0.9290981,0.2857578,0.3355607
0.9231652,0.2877522,0.3380431
0.9125769,0.2852435,0.3476904
0.9134795,0.2872271,0.3531678
0.9135354,0.2943894,0.3473797
0.9116745,0.299429,0.3376286
0.9145645,0.30007,0.3303858
0.9165795,0.2973116,0.3256893
0.918897,0.2987993,0.3238566
0.9170928,0.3012519,0.3267394
0.9099178,0.3029807,0.331719
0.9055157,0.3088547,0.3386693
0.905899,0.3072774,0.3427503
0.9081277,0.3028461,0.3422921
0.905402,0.3048053,0.3451311
0.9030507,0.304989,0.3449959
0.9052601,0.3053204,0.3422934
0.9067377,0.3034738,0.3426118
0.9106516,0.2976989,0.3411088
0.9126753,0.2944182,0.3418873
0.9115719,0.2926403,0.3439823
0.9120209,0.2921943,0.3444389
0.9110919,0.2909632,0.344822
0.9102838,0.2886222,0.343065
0.907839,0.2872148,0.3431983
0.9049922,0.2870034,0.3457832
0.904988,0.2890511,0.3496823
0.9077914,0.2890882,0.3529565
0.9128614,0.2888851,0.3499974
0.9096592,0.2914619,0.344489
0.9051979,0.2941991,0.3400686
0.907857,0.2985185,0.3388171
0.9071803,0.3026043,0.3397527
0.908276,0.3060581,0.3389088
0.9109605,0.3079032,0.3423471
0.9087964,0.3051674,0.3468147
0.9067577,0.3020302,0.3462142
0.9042582,0.2987049,0.3468403
0.9044438,0.2951432,0.3472024
0.9082759,0.2921766,0.3481046
0.9115825,0.2892056,0.350002
0.9150039,0.2908677,0.3478332
0.9138787,0.292852,0.3483327
0.9091999,0.2912997,0.3495267
0.9077684,0.2926215,0.3484421
0.9079453,0.2948281,0.3534656
0.9076786,0.2956816,0.3599159
0.9062422,0.2979656,0.3614514
0.9038195,0.298856,0.3569437
0.9026318,0.2967878,0.3518079
0.9032031,0.2950929,0.3543293
0.9051819,0.2960956,0.3541499
0.9061718,0.2980738,0.3477194
0.9068154,0.2988308,0.3447141
0.9075361,0.299196,0.3445692
0.9053375,0.300381,0.3430727
0.9042894,0.3027589,0.3390419
0.9043696,0.3019137,0.3407332
0.9036133,0.2941864,0.349727
0.9046403,0.287902,0.3562495
0.9040796,0.2896021,0.3576526
0.9042083,0.2915753,0.3512182
0.9064666,0.2887442,0.3460053
0.9070439,0.288362,0.3492658
0.9069926,0.2912943,0.3498277
0.9043141,0.294012,0.3514517
0.9008283,0.2988009,0.3552376
0.9008461,0.2997838,0.3516866
0.9067437,0.2975494,0.3483726
0.9134571,0.2995959,0.3499999
0.9089433,0.3014274,0.3490394
0.9042612,0.3025907,0.3448683
0.9081663,0.3009365,0.3455655
0.9082453,0.2968144,0.3497984
0.9071167,0.2990514,0.3494624
0.9065196,0.301286,0.348576
0.9032423,0.300109,0.3503917
0.9055438,0.2976058,0.3495268
0.9089081,0.2927181,0.3483599
0.9083475,0.2937431,0.3524414
0.9108838,0.2959894,0.3555995
0.9116331,0.2939581,0.3540444
0.9076734,0.2971818,0.354276
0.9059245,0.2997054,0.3571661
0.9060141,0.2961801,0.3591102
0.9086504,0.2940969,0.3576564
0.9140447,0.2933179,0.3509984
0.9144648,0.292903,0.3387549
0.9093404,0.2934161,0.3310458
0.9062662,0.2948014,0.3416757
0.9075106,0.2965089,0.3520663
0.9107536,0.2959053,0.34479
0.912805,0.2960055,0.341885
0.9093126,0.2987955,0.3467109
0.9057734,0.3001945,0.3462955
0.9105222,0.2974117,0.3500081
0.9143454,0.2937687,0.3543008
0.9110355,0.2951607,0.3520259
0.9089958,0.2976693,0.3518058
0.9080616,0.2971525,0.3519018
0.904765,0.2971957,0.3525656
0.9023941,0.2973205,0.3552921
0.901397,0.2963593,0.3537834
0.9030119,0.2937934,0.3521865
0.9076028,0.2904939,0.3531916
0.910262,0.2912319,0.3542084
0.9110614,0.2931146,0.3535473
0.9098845,0.2945413,0.3471082
0.9073257,0.3001484,0.3401313
0.909194,0.3021601,0.3381474
0.9100099,0.2941515,0.338873
0.9055259,0.2848408,0.3442607
0.9037331,0.2812145,0.3513574
0.9069965,0.2825048,0.3513884
0.9116027,0.2840527,0.3503426
0.9132928,0.288162,0.3538558
0.914726,0.2956087,0.3518041
0.9174021,0.2940424,0.3470368
0.9136145,0.2898451,0.3460557
0.9081749,0.2925978,0.3428167
0.9086275,0.2907946,0.3393443
0.911943,0.2894547,0.3350311
0.9147848,0.2936203,0.3293007
0.912463,0.2957577,0.327998
0.9094313,0.2987478,0.3305637
0.9106476,0.3002729,0.3353761
0.9098265,0.301163,0.3358249
0.9088421,0.3029652,0.3354771
0.9089,0.3022303,0.3404419
0.905206,0.3036868,0.3415855
0.9035617,0.2997308,0.3426057
0.9076405,0.2930252,0.3439778
0.9120591,0.2969389,0.3418414
0.9133843,0.298175,0.3417474
0.9113986,0.2930793,0.3406649
0.9075776,0.290619,0.3449389
0.9036575,0.2887107,0.3541467
0.9045912,0.2893672,0.3552872
0.9122344,0.2927595,0.3531161
0.9165848,0.2952923,0.3504236
0.9117303,0.2946564,0.347099
0.9058241,0.2917975,0.345678
0.9063802,0.2916457,0.3446313
0.9077311,0.2929793,0.3467109
0.9054285,0.2949576,0.3497948
0.9053179,0.2967574,0.3489255
0.9056923,0.2956065,0.3477786
0.9043026,0.2955699,0.3490776
0.9042055,0.296593,0.34984
0.9042758,0.2973151,0.3534253
0.9064298,0.2992725,0.3587536
0.9096218,0.2983481,0.3552266
0.9110104,0.2953527,0.3497055
0.9118927,0.2936571,0.3480874
0.9126265,0.2922836,0.3447527
0.9138984,0.2915668,0.3453633
0.9116398,0.291557,0.3482388
0.9081866,0.2928766,0.3496599
0.9098539,0.2943943,0.3559876
0.9099703,0.2945041,0.360105
0.9073322,0.2951091,0.3563345
0.9066611,0.2970081,0.3543053
0.9069734,0.298672,0.3550604
0.9082179,0.2955474,0.3511827
0.909486,0.2911231,0.3459391
0.9099394,0.2928821,0.3471562
0.9098231,0.2931406,0.3509083
0.9096769,0.2913826,0.3513158
0.9107492,0.2963568,0.3498312
0.9108795,0.3005752,0.3487848
0.9082146,0.2991141,0.3530723
0.9051834,0.2978156,0.3596497
0.9051528,0.2972326,0.3596317
0.907,0.2968346,0.3568252
0.9067281,0.2974186,0.3513506
0.9050317,0.2971822,0.3439203
0.9043046,0.2956847,0.3462694
0.9064811,0.2943263,0.3519234
0.9096549,0.2940261,0.3513476
0.907939,0.2952908,0.3511975
0.9048208,0.2949361,0.3509159
0.9040529,0.2936965,0.3501948
0.9036371,0.2957956,0.3519327
0.9045525,0.2965164,0.3517522
0.90447,0.2958505,0.3518142
0.9047469,0.2962613,0.3534421
0.9072245,0.294761,0.352541
0.9069127,0.2959257,0.3512701
0.9058368,0.2985386,0.3496058
0.9053471,0.2980952,0.3481614
0.9043135,0.2969983,0.3504162
0.9046313,0.2942982,0.3522999
0.9057029,0.2936867,0.3512871
0.9075555,0.29502,0.3512364
0.9071882,0.2932032,0.3525932
0.9052874,0.292693,0.3526107
0.9057725,0.293301,0.3509756
0.9054446,0.2926989,0.3503347
0.9054049,0.2923068,0.354391
0.9059106,0.2922048,0.3596856
0.9053698,0.2960078,0.3590779
0.9066422,0.3002974,0.3583606
0.9072627,0.2985266,0.3615054
0.9068218,0.2955221,0.3615063
0.9068451,0.2935354,0.3597014
0.9055807,0.2896874,0.3570077
0.9037843,0.2888976,0.3532118
0.9029853,0.294566,0.3562321
0.9043577,0.2988609,0.3598518
0.9047433,0.2966704,0.355258
0.9031899,0.2945222,0.3526485
0.9026201,0.2962694,0.354711
0.9013677,0.2962566,0.3541566
0.9025879,0.2951167,0.352905
0.9054708,0.2963145,0.3527616
0.9041937,0.29617,0.3526035
0.9045119,0.296905,0.3529217
0.9062766,0.2978546,0.3527797
0.9044285,0.2951458,0.3526584
0.904032,0.295466,0.3529213
0.9061868,0.2975298,0.3525124
0.9070973,0.2968644,0.3524192
0.9053464,0.2964395,0.3547572
0.9032208,0.2956081,0.3613546
0.9041563,0.2959055,0.3675029
0.904673,0.2983859,0.366248
0.9037025,0.3008914,0.361634
0.904329,0.3030181,0.3581745
0.9042931,0.3026775,0.3546625
0.9040844,0.3003239,0.3543784
0.9056461,0.2978673,0.3557687
0.9075154,0.2964151,0.3536545
0.9089437,0.2973485,0.3531566
0.9082926,0.2973915,0.3529884
0.9069802,0.2959137,0.3485038
0.9070154,0.2957797,0.3477617
0.9067841,0.2959386,0.3504226
0.9067937,0.2969137,0.3535695
0.9060267,0.2985148,0.3586621
0.9041598,0.2984441,0.3579208
0.9041316,0.2966832,0.3563023
0.9051374,0.2944517,0.3588076
0.9051108,0.2950701,0.3549041
0.9021167,0.2973945,0.3508426
0.8993425,0.2976295,0.3524397
0.9033253,0.2976026,0.3495087
0.9071301,0.2969628,0.3448722
0.9036395,0.2941439,0.3468032
0.9021288,0.2919714,0.3509546
0.9068907,0.2918649,0.3519291
0.9094396,0.2934872,0.3513868
0.9074039,0.295992,0.3514216
0.9061991,0.2967458,0.3522903
0.9071454,0.2971428,0.3533613
0.9070159,0.2992768,0.3539969
0.9057072,0.2990148,0.356405
0.9056338,0.2978834,0.3595826
0.9069426,0.298706,0.3590845
0.9098903,0.2964721,0.3535652
0.9121539,0.2929979,0.3460698
0.9108919,0.2917976,0.3436416
0.9097795,0.2916938,0.3449064
0.9096588,0.2935971,0.3448845
0.9085923,0.2952355,0.3464148
0.9081843,0.2953699,0.3452957
0.907929,0.2955198,0.3431
0.9071229,0.2940652,0.3484031
0.9075692,0.2916842,0.3513611
0.9093147,0.2923705,0.348848
0.9087179,0.2955573,0.3469688
0.9063008,0.2964096,0.3444261
0.9063374,0.2956208,0.3446939
0.9064164,0.2958301,0.3431779
0.9068164,0.2958603,0.3400007
0.9085853,0.296196,0.3430242
0.9083098,0.2972577,0.3460477
0.9090584,0.2973339,0.3506323
0.9095914,0.2950485,0.3551407
0.9082199,0.2927844,0.3532221
0.9077426,0.2933215,0.3512061
0.9040456,0.2945409,0.3476808
0.9012557,0.2949141,0.3458332
0.9035709,0.2946006,0.3481507
0.905048,0.296136,0.3470317
0.9065457,0.2991333,0.3467089
0.9075036,0.298787,0.3468514
0.9057342,0.2980921,0.3451257
0.9051592,0.2980337,0.3470018
0.9059257,0.2967271,0.3514377
0.9064333,0.2972107,0.3553232
0.9071551,0.2974692,0.3528741
0.9069448,0.2969744,0.3449196
0.9052591,0.2971943,0.3421795
0.9027197,0.2962787,0.3456789
0.9012361,0.2955433,0.3500575
0.9046953,0.2957785,0.35251
0.9083448,0.2959768,0.3562344
0.9051723,0.2957937,0.3596402
0.9029299,0.2957422,0.3545616
0.905773,0.2959773,0.3506911
0.9069289,0.2957307,0.3540244
0.9068615,0.2958428,0.3556868
0.9070137,0.2959112,0.3572662
0.9058474,0.2955365,0.356941
0.905496,0.295042,0.352553
0.9064598,0.2943049,0.3513656
0.9072513,0.2952093,0.3546897
0.9067237,0.296384,0.3582741
0.9048712,0.2957542,0.3564598
0.9037868,0.295647,0.3539111
0.9039926,0.2956736,0.3554049
0.9044061,0.2939643,0.354029
0.9036159,0.2931917,0.3534267
0.9012999,0.2964985,0.3550326
0.9002918,0.2993349,0.3536997
0.9040466,0.2952824,0.3535744
0.9088672,0.2908959,0.3511841
0.9073478,0.2928635,0.3451224
0.9055932,0.2949131,0.34461
0.9079148,0.2962491,0.3508279
0.906852,0.2993571,0.3564345
0.9063608,0.3002898,0.3546658
0.9075333,0.2999677,0.352804
0.9055312,0.2991108,0.3560877
0.9053648,0.2980335,0.3561695
0.9059244,0.2987064,0.3567583
0.9061902,0.2975669,0.3594859
0.9068051,0.2958247,0.3579856
0.9032501,0.2961185,0.357422
0.9003197,0.2974641,0.3596322
0.9020984,0.2993766,0.3634263
0.9036642,0.2983805,0.366718
0.902975,0.2962971,0.3641644
0.9043169,0.2960941,0.3617461
0.9075295,0.297239,0.3618007
0.9069807,0.2994826,0.3595874
0.9054624,0.2988382,0.3583838
0.9049223,0.2977198,0.3583971
0.9046469,0.2981053,0.3578953
0.9068779,0.2959129,0.357483
0.9073291,0.295229,0.355564
0.9056455,0.2959532,0.3537888
0.9056098,0.2938428,0.3524109
0.9063628,0.2924882,0.3515798
0.90716,0.2933446,0.3557498
0.9059669,0.2952639,0.3601492
0.9040715,0.2977327,0.3585158
0.903872,0.3002523,0.3568366
0.9031115,0.3019299,0.3563074
0.9016405,0.3006819,0.3529827
0.9010163,0.2994477,0.351636
0.9014298,0.3010444,0.3537212
0.9022885,0.3019026,0.3595664
0.9047619,0.300849,0.3682239
0.9077609,0.2991676,0.3658814
0.9056393,0.2964371,0.3580235
0.9033708,0.2947842,0.3572842
0.9080656,0.2948063,0.3513082
0.9109689,0.2922922,0.343606
0.9076842,0.2892149,0.3447726
0.9059596,0.2905205,0.3492389
0.9067927,0.2937404,0.3546771
0.9054552,0.2964214,0.3572497
0.9032953,0.2986364,0.3606723
0.9040501,0.2991256,0.3657648
0.9043598,0.298366,0.3664328
0.9019484,0.2984818,0.3685137
0.9014657,0.2987123,0.3670546
0.9040552,0.2975292,0.3584471
0.9066659,0.2960494,0.3543642
0.9067955,0.292814,0.3594291
0.9062614,0.2889166,0.3645858
0.9066146,0.2899514,0.3582301
0.9049837,0.2923451,0.3517126
0.9047475,0.2926835,0.3529088
0.9071227,0.2952511,0.3516618
0.9076724,0.2978308,0.3511035
0.9068679,0.2982586,0.3516262
0.9043061,0.2997397,0.3515904
0.9018487,0.3004609,0.3544542
0.9011133,0.2992371,0.357353
0.9009955,0.2973474,0.3625092
0.9022777,0.295434,0.3685777
0.9029948,0.2972182,0.3682234
0.9046103,0.299497,0.3617307
0.9058087,0.2966745,0.3559056
0.9051126,0.2947817,0.3526372
0.9071329,0.2961672,0.3479914
0.908663,0.2960036,0.3473813
0.9108925,0.2955416,0.3498254
0.9131585,0.2963731,0.3496433
0.9083254,0.2975971,0.3554286
0.9036644,0.299609,0.3626769
0.9035253,0.3016122,0.3606627
0.9035447,0.3029293,0.3580631
0.902648,0.302426,0.3588628
0.9023188,0.3004264,0.3574375
0.90309,0.2998782,0.3554704
0.9017327,0.2976272,0.3535508
0.9016026,0.2943674,0.351894
0.9058121,0.296263,0.3534305
0.9105475,0.2983313,0.3544095
0.911172,0.2985999,0.3542296
0.904206,0.3000668,0.3548468
0.8982389,0.299936,0.3564637
0.8996371,0.299801,0.3594914
0.9008386,0.299342,0.3589675
0.8992856,0.2988737,0.3593806
0.8980047,0.303251,0.3633256
0.8979867,0.3061731,0.3627079
0.901749,0.3013563,0.361997
0.9085778,0.2964544,0.3629412
0.9092339,0.2991484,0.3617057
0.9041569,0.3036495,0.359542
0.9018891,0.3049382,0.3557799
0.9008409,0.304478,0.3538535
0.9010381,0.2983457,0.352354
0.9016463,0.2938613,0.3480082
0.9018382,0.2982125,0.3483618
0.9050895,0.3006337,0.3535252
0.9047021,0.2998464,0.3567265
0.9021257,0.3000124,0.3576196
0.903377,0.2999578,0.3568555
0.9039089,0.3001084,0.3572593
0.9059893,0.2993443,0.3609681
0.9080334,0.2971964,0.3634078
0.9061972,0.2943549,0.3627833
0.9053831,0.2945949,0.3611089
0.9053674,0.2968054,0.3581249
0.9055706,0.295702,0.3550439
0.9058302,0.295798,0.3572935
0.9046628,0.2980938,0.3616031
0.9032498,0.2988714,0.3587463
0.9009975,0.2988606,0.3570835
0.9001376,0.2983329,0.3603578
0.9002667,0.2989818,0.3596141
0.8994615,0.3006271,0.3593519
0.9003383,0.3016447,0.358739
0.9006282,0.3014237,0.3546622
0.9022508,0.2990124,0.3529393
0.9049441,0.2974049,0.3529809
0.9015036,0.298268,0.3534238
0.8985539,0.3005968,0.3508827
0.9007866,0.3015807,0.3477389
0.9030562,0.2976267,0.3496134
0.9048131,0.294604,0.352593
0.9054394,0.29673,0.3567653
0.9053683,0.2980445,0.359543
0.9055997,0.2967932,0.3610019
0.9046464,0.2960857,0.3624845
0.9037377,0.2959209,0.3558293
0.9042238,0.2955416,0.3523766
0.9043276,0.2961468,0.3562325
0.9034438,0.2968651,0.3539028
0.9015914,0.2972028,0.3560547
0.8998986,0.2977565,0.359836
0.9038834,0.2978371,0.3528867
0.9109559,0.2985052,0.3497866
0.9122305,0.2972086,0.3517048
0.9104456,0.2949159,0.3508094
0.9098025,0.2970143,0.3479018
0.9078748,0.2988366,0.345102
0.9061671,0.298672,0.3493053
0.9067541,0.2996802,0.3532829
0.9064396,0.3001463,0.3514469
0.9051491,0.2993944,0.3523207
0.9063904,0.2963293,0.3526527
0.9075904,0.2933019,0.3470603
0.9067238,0.2938257,0.3419546
0.9068434,0.2933226,0.3421847
0.9071505,0.2911444,0.3438296
0.9067826,0.2931159,0.3481095
0.9070081,0.2959261,0.3534721
0.9069664,0.2950774,0.350039
0.906878,0.2956501,0.3455293
0.9070143,0.2963657,0.348059
0.9068982,0.2943601,0.3514935
0.906958,0.2943039,0.3524589
0.9073152,0.2944259,0.3507861
0.9090593,0.2933314,0.3507557
0.9120838,0.2930262,0.3498251
0.9132395,0.292959,0.3445483
0.9121254,0.2943534,0.342544
0.9114012,0.2956394,0.3422557
0.9111138,0.2956044,0.3415421
0.9112235,0.294076,0.3447143
0.9128915,0.2913108,0.3492663
0.9135749,0.2913351,0.3490092
0.9120851,0.2922347,0.3422827
0.9112668,0.2923196,0.3409192
0.9111689,0.2935854,0.3443494
0.9109394,0.2940883,0.3388087
0.9111743,0.2944208,0.3346754
0.9111909,0.2947557,0.3374175
0.911161,0.2941914,0.339487
0.912259,0.2946617,0.3418392
0.9136822,0.2954695,0.3374837
0.9141862,0.2959298,0.3303969
0.913879,0.295699,0.3330556
0.9137334,0.2938229,0.340386
0.9140216,0.2925499,0.3473847
0.9138727,0.2935069,0.3490615
0.9138015,0.2959702,0.345603
0.9140102,0.2979539,0.3454757
0.9138044,0.2972781,0.3446489
0.9139004,0.2953104,0.3421433
0.9139447,0.2931096,0.3390494
0.9136227,0.2908384,0.3332168
0.9128945,0.2918408,0.3361492
0.9112978,0.2950684,0.3418843
0.9108963,0.2960763,0.3381512
0.9123346,0.2951612,0.338975
0.9137094,0.2937669,0.3417693
0.9141732,0.2931795,0.3382602
0.9134877,0.2924007,0.3379975
0.9119962,0.2916296,0.3397302
0.9106793,0.2953575,0.3448682
0.9108494,0.2987016,0.3512499
0.9113304,0.2969503,0.3491424
0.9100622,0.2958373,0.3490356
0.9095019,0.2959394,0.3515662
0.9107587,0.2956624,0.3435087
0.9113964,0.2957352,0.3337217
0.9106268,0.2949647,0.3337033
0.9082756,0.2937559,0.3367684
0.9065431,0.2925812,0.337439
0.908485,0.2915203,0.3397002
0.9103988,0.2925694,0.3425709
0.9079448,0.2955058,0.3418622
0.9063796,0.296414,0.34056
0.910429,0.295076,0.3421446
0.9149126,0.2931527,0.3449431
0.9156311,0.2910808,0.3459254
0.9132797,0.2929028,0.3440977
0.910352,0.2979372,0.3411815
0.9093102,0.301219,0.3400739
0.9089633,0.3017447,0.3396626
0.9095826,0.2986762,0.3390065
0.9105099,0.2942174,0.3424188
0.9102069,0.2921614,0.3465131
0.9113428,0.2929695,0.346202
0.9113976,0.2945715,0.3450603
0.9096108,0.2947775,0.3439777
0.9097743,0.2961595,0.3439931
0.9096814,0.2978112,0.3448949
0.909606,0.2962735,0.3451866
0.9099823,0.29477,0.345683
0.9094573,0.2931045,0.3404581
0.9100321,0.2900523,0.3350253
0.91067,0.2897736,0.3392587
0.9111897,0.2916725,0.3454349
0.9118048,0.2919283,0.3509967
0.9125275,0.2914693,0.3553099
0.9143948,0.2917734,0.356123
0.9133372,0.292006,0.3546689
0.9115377,0.2933871,0.34962
0.9126777,0.2949313,0.3504341
0.9117682,0.293645,0.3534249
0.9104736,0.2924339,0.3499483
0.9111338,0.2931655,0.3502817
0.9101158,0.2930871,0.3458805
0.9084141,0.2919379,0.3377599
0.908049,0.2918202,0.3416381
0.9085825,0.2934354,0.3457136
0.9093251,0.2950431,0.3460096
0.9091516,0.2946734,0.3474134
0.9063252,0.2939646,0.3478752
0.903593,0.2946953,0.3486433
0.9077057,0.2943635,0.3458015
0.9131936,0.2932481,0.3423048
0.9114649,0.2932513,0.3430939
0.9104723,0.294074,0.3442106
0.9141725,0.2966392,0.3444495
0.91432,0.2979736,0.3435932
0.9114546,0.2969693,0.342845
0.9107127,0.2969827,0.3439247
0.9111141,0.2961052,0.3448931
0.9115835,0.2936759,0.3444562
0.9125142,0.2924611,0.3441898
0.9123925,0.2931855,0.3446702
0.9096276,0.2943012,0.3440278
0.9073448,0.2942672,0.3425578
0.9088493,0.2935102,0.3418297
0.9111068,0.2916704,0.3439837
0.9115256,0.2904441,0.3471308
0.9110232,0.2917431,0.3458049
0.9108873,0.2944611,0.343598
0.9113696,0.2966696,0.3421456
0.9112097,0.2951296,0.3391918
0.9118695,0.2934535,0.339906
0.9130184,0.294885,0.3422862
0.9123975,0.2943812,0.3438964
0.9125411,0.2931694,0.3458697
0.9135816,0.2931463,0.3434039
0.9134835,0.2927634,0.3433207
0.9113896,0.2936026,0.3463939
0.9088614,0.2952507,0.3436867
0.9103652,0.2979338,0.3429231
0.9121096,0.2990937,0.3432838
0.9109032,0.2955758,0.3417257
0.9118342,0.2935896,0.3418766
0.9129777,0.2954336,0.3400812
0.9110555,0.2964056,0.3427226
0.9089346,0.2953869,0.34502
0.9078795,0.2945094,0.3429467
0.9085455,0.2958226,0.3455008
0.910474,0.2967119,0.343496
0.9114448,0.2943654,0.341748
0.9111164,0.2934722,0.3443563
0.9099868,0.2961067,0.3424194
0.909637,0.2962684,0.3437194
0.9106927,0.295558,0.3439486
0.911381,0.29828,0.3429261
0.9112122,0.2997513,0.3460985
0.91092,0.2988093,0.3445768
0.9111696,0.2957981,0.3435422
0.9112181,0.2927463,0.3456727
0.9105776,0.2929235,0.3469351
0.9094524,0.2924281,0.3492851
0.9077756,0.2953679,0.3491325
0.9083789,0.3007663,0.3478973
0.911041,0.2982872,0.3492402
0.913291,0.2945447,0.3506018
0.9155111,0.2934881,0.3508351
0.915436,0.291371,0.3481111
0.9132684,0.2913683,0.3434391
0.910299,0.2910845,0.3430098
0.9074407,0.2898287,0.3423254
0.9097841,0.2914783,0.3389559
0.9122261,0.293018,0.3417348
0.9089063,0.2929868,0.3432225
0.9077764,0.2922678,0.3405949
0.9104828,0.2915612,0.343532
0.9115118,0.2936348,0.3420851
0.9102921,0.2961252,0.3324232
0.9091224,0.2960759,0.3275063
0.909803,0.2956469,0.3321428
0.9099984,0.2958388,0.3373663
0.9095719,0.2961074,0.3356131
0.9107942,0.2966431,0.341004
0.9114041,0.297503,0.3540551
0.9110626,0.2972169,0.356058
0.9110879,0.2954894,0.353327
0.911088,0.2930571,0.3541601
0.9106438,0.291299,0.3541497
0.9083764,0.2947924,0.3531221
0.9061226,0.3009232,0.3514302
0.9068656,0.3016289,0.350801
0.9085514,0.2974419,0.3484781
0.9094403,0.2936436,0.3417156
0.9110294,0.2935421,0.3374358
0.9123134,0.2936087,0.341092
0.9116409,0.2916472,0.3452061
0.9103805,0.2929824,0.3431459
0.9082956,0.2943448,0.3449133
0.9065935,0.2936761,0.3487885
0.9084783,0.2951572,0.3450799
0.9108921,0.2944908,0.3433007
0.9106664,0.2937635,0.3455337
0.9108292,0.2957527,0.3465169
0.9116552,0.2963705,0.3471891
0.9106772,0.2971588,0.3461733
0.9100462,0.2939604,0.3459443
0.909855,0.2900364,0.3458076
0.9094393,0.2938194,0.3452677
0.910939,0.2954023,0.348279
0.9114274,0.293005,0.348444
0.9108801,0.2928717,0.3436149
0.9109505,0.2935311,0.3406059
0.9095279,0.2959214,0.3414191
0.9096248,0.2981158,0.3443397
0.9115295,0.2980018,0.3447767
0.9111936,0.2970501,0.3432524
0.908914,0.2972412,0.3403264
0.9077691,0.2990182,0.3363729
0.9086319,0.2989838,0.3399027
0.9091277,0.2976768,0.3446233
0.9091804,0.2956729,0.3429237
0.909325,0.2919665,0.344325
0.9104833,0.2906528,0.3487658
0.9115381,0.2926455,0.3519321
0.9090956,0.2947222,0.3557093
0.9080644,0.2970855,0.3574805
0.9112296,0.2981631,0.3504004
0.9126931,0.2964692,0.3406107
0.909144,0.2962247,0.3435623
0.9054314,0.2959213,0.3471829
0.9077354,0.2944499,0.34271
0.9093889,0.2955533,0.3454709
0.9067341,0.2963392,0.3472959
0.9072223,0.2975504,0.3447964
0.9099151,0.2988283,0.3483744
0.9116764,0.2958278,0.3491771
0.9112621,0.2934594,0.3482252
0.9086136,0.2942943,0.3490021
0.908067,0.2949536,0.3481712
0.9083614,0.2938721,0.3487694
0.908428,0.2924419,0.3476525
0.9094503,0.291724,0.3463472
0.9099364,0.2921941,0.3448786
0.9108174,0.2950491,0.3388434
0.9109235,0.296804,0.3341137
0.9092919,0.2981221,0.3333081
0.9082307,0.2991796,0.3349903
0.9097445,0.2963163,0.3376345
0.9122065,0.2952088,0.3404569
0.9114704,0.2955493,0.3438646
0.9122618,0.2930328,0.3463661
0.9147283,0.2917124,0.3467786
0.9114738,0.294773,0.3453538
0.9073817,0.2989761,0.3475458
0.9062736,0.297285,0.3499545
0.905678,0.2945992,0.3479364
0.9048226,0.2938888,0.3486371
0.9039078,0.2904475,0.3489936
0.9065075,0.291191,0.3475404
0.9105579,0.2928482,0.3464014
0.9117099,0.2909223,0.3439057
0.9110677,0.2928089,0.3467902
0.9094749,0.2942045,0.3494
0.9078387,0.2952447,0.3438114
0.9064387,0.2985248,0.3407615
0.906617,0.2981322,0.3460803
0.907182,0.2975021,0.3508248
0.9048141,0.2982512,0.3480153
0.9037298,0.2975697,0.3453963
0.9055558,0.2972191,0.3467587
0.9081743,0.2968693,0.3457382
0.9116929,0.2963626,0.3425052
0.9128887,0.295722,0.3413088
0.9104027,0.2955011,0.3464412
0.9070727,0.2965382,0.3516345
0.9063142,0.2975291,0.3497499
0.9072984,0.2989827,0.3485724
0.906882,0.2985751,0.3492213
0.9068487,0.2951131,0.350343
0.9070953,0.2930005,0.3540219
0.906441,0.2931765,0.3545101
0.9049085,0.2961952,0.3520245
0.9017873,0.3001038,0.351062
0.9006101,0.3004814,0.3521271
0.9020211,0.2992732,0.3532653
0.9038246,0.2972672,0.3510425
0.9071911,0.2945451,0.3474688
0.9096463,0.2934118,0.345508
0.9091568,0.294737,0.3447357
0.9087719,0.299717,0.3419177
0.9067211,0.3029131,0.3376089
0.9029234,0.2993703,0.3377264
0.905077,0.2968969,0.3389575
0.9096987,0.297456,0.3420228
0.9096984,0.2952236,0.3507535
0.9089456,0.2940714,0.3530262
0.9080747,0.2939782,0.3485971
0.907755,0.291347,0.3484601
0.9080541,0.2913706,0.3505566
0.9062998,0.2926619,0.3514506
0.9066107,0.2939296,0.3489144
0.9066293,0.2968945,0.3460427
0.9049051,0.2961409,0.3483688
0.9067908,0.2950266,0.3505198
0.9083793,0.2964164,0.3509294
0.9081491,0.2957105,0.3526427
0.9076343,0.2947198,0.352265
0.9064379,0.2916943,0.3481326
0.9069558,0.2885334,0.3451775
0.9075549,0.2950372,0.3491257
0.9084669,0.3035985,0.3543533
0.9100571,0.3029247,0.3524467
0.9081338,0.3017247,0.3491852
0.9062725,0.3026396,0.3485444
0.908813,0.2969979,0.3480709
0.910516,0.2913454,0.3486215
0.9086411,0.2918774,0.3471587
0.9081206,0.2920637,0.3456682
0.910363,0.2917997,0.34778
0.9111606,0.2944297,0.3464735
0.9085058,0.2968156,0.3412891
0.9058199,0.2959662,0.337485
0.9064329,0.2952617,0.3381118
0.9058491,0.2965986,0.3430439
0.9031163,0.2979321,0.3472187
0.9040053,0.3007204,0.3517996
0.9048736,0.3022611,0.3552096
0.9035851,0.2997385,0.3526411
0.9043291,0.2977685,0.3498443
0.904374,0.2969527,0.3496361
0.9039846,0.2967322,0.348649
0.905535,0.2967525,0.3479292
0.9067883,0.2957371,0.3493917
0.9079614,0.297394,0.3509241
0.9078009,0.2996409,0.3531758
0.906477,0.2982955,0.355789
0.9070713,0.2973628,0.3555834
0.9082421,0.2973315,0.3566991
0.909341,0.2967554,0.3559348
0.909425,0.29651,0.3510076
0.9060813,0.2955941,0.3491231
0.9034678,0.2955481,0.3468935
0.9065705,0.2962313,0.3470349
0.9097489,0.2958082,0.3505314
0.9073157,0.297026,0.3499386
0.9061308,0.2994971,0.3514387
0.9086327,0.3004311,0.352818
0.9092474,0.3001231,0.3517168
0.9082173,0.2995256,0.3539136
0.9047489,0.2990594,0.3531059
0.9017569,0.2975534,0.3504485
0.9063381,0.2966088,0.347927
0.9129844,0.2969876,0.3458709
0.9143918,0.2945847,0.3507901
0.9109509,0.2925465,0.3534828
0.9065821,0.2956546,0.3539663
0.9065555,0.298341,0.3585433
0.9087187,0.2963606,0.3565962
0.9101541,0.2948943,0.3522307
0.9112144,0.2962565,0.3512344
0.9085906,0.2959721,0.3505962
0.9056315,0.2954236,0.3520889
0.9069991,0.2965634,0.3513586
0.9078497,0.2974604,0.3513702
0.908433,0.2990809,0.3547883
0.9112929,0.2994048,0.3558865
0.9112163,0.299739,0.355949
0.9078754,0.3017614,0.3552203
0.9062954,0.2988023,0.3548758
0.9074927,0.2944125,0.353036
0.9108634,0.2940139,0.3482492
0.9124317,0.2929006,0.3479955
0.9066636,0.2935838,0.3503967
0.8983943,0.2989661,0.3545824
0.8978497,0.3033786,0.3596394
0.9034867,0.3045402,0.355308
0.9069801,0.3050763,0.3489444
0.9074576,0.3039366,0.3498847
0.9068521,0.298517,0.3496716
0.9071768,0.2937205,0.3484544
0.9094488,0.2935134,0.3511842
0.9087417,0.2971059,0.3556747
0.9045406,0.3018344,0.3617679
0.9027822,0.3003644,0.3636233
0.9037105,0.2976099,0.3600174
0.9028819,0.2994076,0.3564304
0.9022085,0.2983939,0.3494496
0.904455,0.2981732,0.3477975
0.9052731,0.2993843,0.3524771
0.9055139,0.2979442,0.3510661
0.9062119,0.298514,0.3526729
0.9061135,0.2970211,0.3541097
0.9086766,0.2947999,0.3499667
0.9106783,0.2961408,0.3500375
0.91113,0.295917,0.3482544
0.9116571,0.2954909,0.3480473
0.9100499,0.294897,0.3516878
0.9085497,0.293162,0.3507298
0.9064269,0.292796,0.3499063
0.9064882,0.2934008,0.3472856
0.909948,0.295016,0.3433627
0.9106889,0.2957085,0.3426894
0.9113649,0.2933543,0.3466733
0.9112592,0.2911163,0.3521981
0.9095911,0.2940331,0.3414578
0.9099554,0.2973288,0.3301242
0.9094817,0.2943249,0.3408294
0.9098681,0.2917664,0.3476844
0.9109512,0.2917463,0.3429339
0.9102216,0.2917912,0.3423348
0.9079695,0.2946617,0.3418782
0.9047316,0.2966641,0.3418385
0.9078902,0.2956935,0.3466171
0.9128223,0.294487,0.3499967
0.9117583,0.293177,0.3478986
0.912358,0.2919349,0.344362
0.9129852,0.2918257,0.345136
0.9108221,0.2944328,0.3495271
0.9103705,0.2967992,0.3498837
0.9101661,0.2959333,0.3472955
0.9104767,0.2955512,0.348882
0.910664,0.2969878,0.3492602
0.9100513,0.2968399,0.3477122
0.9108381,0.2935354,0.3491653
0.9111304,0.2910796,0.3482717
0.9109808,0.2939994,0.3463666
0.9099928,0.297405,0.3458723
0.90739,0.2958012,0.3455636
0.9072319,0.2946616,0.3477668
0.9106551,0.2946304,0.3472032
0.9146306,0.2911959,0.3441513
0.9138993,0.2900158,0.3443019
0.9092115,0.2910019,0.3468881
0.9067778,0.2906314,0.3533857
0.9064072,0.2921328,0.3583614
0.9077084,0.2919822,0.3536568
0.9099165,0.2910269,0.347141
0.9114021,0.2921758,0.3484071
0.9121759,0.2915055,0.3505404
0.9122328,0.2915002,0.349411
0.9142823,0.2920026,0.3502109
0.9130418,0.2913449,0.3491983
0.907539,0.2918465,0.3478242
0.9063936,0.2918464,0.3491359
0.9071639,0.293131,0.3483958
0.909035,0.2967451,0.3487285
0.9114305,0.298029,0.3497734
0.9110672,0.2964874,0.3483029
0.9110648,0.2967415,0.3423905
0.9101208,0.2990043,0.3353805
0.9093524,0.2984553,0.3410741
0.9099127,0.2972071,0.3509076
0.9095677,0.2961868,0.3511885
0.9096961,0.2932834,0.3497326
0.9085725,0.2928787,0.3465157
0.9072803,0.2945966,0.3432741
0.9078392,0.2972801,0.3472739
0.9095206,0.2992298,0.3500953
0.9113054,0.2956239,0.3484423
0.9110694,0.2923139,0.3493501
0.9107474,0.2932727,0.351554
0.9094634,0.2951055,0.3507344
0.9073584,0.2963229,0.3458365
0.9074742,0.2957263,0.3386829
0.9073178,0.2943503,0.3361661
0.9083755,0.2925101,0.3406078
0.9105727,0.2915585,0.3430941
0.9094849,0.2942894,0.3413967
0.9074462,0.2969769,0.3426708
0.906552,0.295955,0.3455325
0.9058287,0.295172,0.3465657
0.9054931,0.2963147,0.347691
0.9056466,0.295802,0.3489227
0.9064733,0.2951647,0.3489464
0.9072914,0.2944409,0.3480803
0.9069615,0.2929708,0.3475719
0.9069385,0.2964332,0.3463024
0.9080007,0.299939,0.3453256
0.9083664,0.2967909,0.3471782
0.9075129,0.2945832,0.3483497
0.9067257,0.2961762,0.3479431
0.9077485,0.2968733,0.3475104
0.908909,0.2985921,0.3463806
0.9080325,0.3009266,0.3467321
0.9074448,0.2985614,0.349233
0.9079746,0.2969547,0.3512076
0.9094258,0.2977339,0.3513596
0.9112294,0.294218,0.3516355
0.9112382,0.2933797,0.3522862
0.9104499,0.295193,0.3518155
0.9085515,0.2919494,0.3514616
0.9058444,0.2901061,0.3509301
0.9056032,0.2904927,0.3499874
0.9050364,0.2917936,0.3473519
0.9035748,0.2967764,0.3459196
0.9051397,0.2996692,0.3536592
0.906207,0.2980168,0.3623681
0.9057679,0.2955514,0.3607175
0.9084204,0.293758,0.3529892
0.9115894,0.2911387,0.3479814
0.9111697,0.2911001,0.3495792
0.9089255,0.2957018,0.3507886
0.9078551,0.297252,0.3476196
0.9083049,0.297034,0.3465032
0.9083433,0.2967718,0.3480795
0.9077017,0.294934,0.349896
0.9080703,0.2964767,0.3520725
0.9084499,0.2978927,0.3511549
0.9067825,0.298595,0.3470724
0.905651,0.2993796,0.3450967
0.9049085,0.2976859,0.3455597
0.9020755,0.2981208,0.3469433
0.9031251,0.297994,0.3495878
0.9064636,0.2972719,0.3530211
0.9056841,0.2976414,0.3538655
0.9072767,0.2956434,0.3513607
0.910457,0.2957551,0.349798
0.9106047,0.2961023,0.3464315
0.9113433,0.2953885,0.3433117
0.911253,0.2962839,0.3446999
0.9102783,0.2957602,0.3426586
0.9086957,0.2968577,0.3406122
0.9059845,0.298684,0.3417935
0.9068099,0.298424,0.3406506
0.9083754,0.2979246,0.3424167
0.9074455,0.2965513,0.3453226
0.9080364,0.2959123,0.3430826
0.9103414,0.2941453,0.3409387
0.9107183,0.2929114,0.3423956
0.9058367,0.2977339,0.3436767
0.9012413,0.3013103,0.3443707
0.9056693,0.29729,0.3452128
0.9116779,0.2905078,0.3438869
0.911058,0.2882276,0.3450426
0.9090452,0.2923577,0.3486707
0.9080024,0.2959343,0.3492758
0.9082921,0.2935333,0.3454922
0.9108348,0.2908948,0.3399796
0.912336,0.2920251,0.3450767
0.9128,0.2924434,0.3530134
0.9124094,0.294836,0.3494821
0.9112507,0.2989877,0.3431497
0.9111637,0.2982191,0.3367845
0.9103772,0.2978884,0.3367021
0.9084761,0.29796,0.3414881
0.9063243,0.2936657,0.3400247
0.9070191,0.2906618,0.342941
0.9117487,0.2889144,0.3461483
0.9150131,0.2867659,0.3433648
0.9154496,0.2872216,0.3438153
0.9120456,0.2887273,0.3429216
0.9068831,0.2910285,0.3436264
0.9044417,0.2961567,0.3494895
0.8999741,0.3016874,0.3542456
0.8973927,0.3054852,0.3539784
0.9057533,0.3069435,0.3441345
0.9147358,0.3064273,0.3337105
0.9114803,0.3070777,0.3317647
0.9067452,0.3063734,0.334538
0.9084811,0.3045868,0.3358227
0.9070532,0.3045787,0.3344473
0.9094291,0.2974637,0.3374984
0.9169071,0.2864102,0.3402101
0.916732,0.2845395,0.3390179
0.9146309,0.2885407,0.3415126
0.9125687,0.2899321,0.3439971
0.9113937,0.2878451,0.3432877
1.018827,0.1038944,0.04637288
1.019297,0.1030346,0.04584525
1.017145,0.103996,0.04785183
1.018218,0.1025661,0.05124188
1.018581,0.1024434,0.05319279
1.01844,0.1053527,0.05267104
1.020133,0.1059678,0.05390179
1.019709,0.106405,0.05439189
1.020643,0.1066567,0.0540961
1.021083,0.1031596,0.05427293
1.017849,0.10129,0.05414624
1.015982,0.1054268,0.05526392
1.015124,0.1104066,0.055736
1.013456,0.1081494,0.05469917
1.014416,0.1038425,0.05072135
1.016563,0.1021718,0.04515715
1.017525,0.09815604,0.04405928
1.021866,0.09892216,0.04556459
1.024881,0.1030447,0.05014213
1.020033,0.1023981,0.06263405
1.015419,0.1040311,0.07186302
1.014786,0.1075782,0.06669129
1.015229,0.1089154,0.06207322
1.015604,0.1085839,0.06454076
1.015216,0.1072637,0.06033014
1.016534,0.1059805,0.05595289
1.018905,0.1039124,0.0549233
1.019868,0.106247,0.0503792
1.019609,0.1099322,0.05409657
1.019453,0.1065092,0.05907848
1.021402,0.1024062,0.05259092
1.021971,0.1009471,0.04945279
1.017719,0.1008047,0.05057014
1.013912,0.1020517,0.04717108
1.015737,0.1012434,0.04521032
1.018013,0.1010288,0.04845979
1.016181,0.1019163,0.05142997
1.016465,0.1008536,0.04898382
1.018466,0.1007056,0.04489645
1.018838,0.1006871,0.0425428
1.020859,0.1004881,0.04381159
1.021079,0.1013918,0.04925358
1.019141,0.102043,0.05063468
1.018073,0.1029729,0.04789961
1.017467,0.100982,0.04672916
1.019229,0.09814808,0.04710061
1.019225,0.09991583,0.04881916
1.017609,0.1021749,0.04956367
1.017672,0.1021777,0.05014592
1.016438,0.09764047,0.04967358
1.018533,0.09229138,0.04587837
1.022499,0.09506634,0.04367699
1.022179,0.1001213,0.04425098
1.021163,0.1017178,0.04671048
1.01966,0.101129,0.05059947
1.018565,0.09946523,0.05323436
1.017843,0.1018613,0.04989605
1.015087,0.105805,0.04034731
1.014754,0.1084683,0.03425998
1.016271,0.1116746,0.03300903
1.018308,0.1065163,0.03546554
1.022918,0.09296201,0.03832478
1.024857,0.0829992,0.03182353
1.023033,0.0802654,0.02710636
1.022451,0.08401395,0.03134834
1.02237,0.08746386,0.03357087
1.021526,0.09051079,0.03509806
1.020608,0.09814786,0.04012957
1.018999,0.09899198,0.04329814
1.018973,0.09505502,0.0403382
1.020449,0.09612258,0.03793547
1.020945,0.0942956,0.03769471
1.022597,0.09334478,0.03551055
1.022857,0.0959853,0.03787586
1.021236,0.09571214,0.04110468
1.021706,0.09806087,0.04004026
1.020729,0.100252,0.04084335
1.020059,0.0986255,0.04391965
1.020458,0.09817436,0.04958375
1.01792,0.09806509,0.0532651
1.018127,0.09908705,0.04986597
1.021216,0.09901742,0.04434355
1.022715,0.09875412,0.03948099
1.022325,0.1004629,0.03921459
1.019838,0.09715876,0.04381031
1.019064,0.09452521,0.04884478
1.019543,0.09623506,0.05448351
1.019347,0.09570204,0.05422597
1.019456,0.09503197,0.05072212
1.01837,0.09562888,0.05345006
1.017825,0.09863297,0.05249523
1.018086,0.1014462,0.04853394
1.018194,0.1010527,0.046162
1.019083,0.1030808,0.04012762
1.019556,0.1044797,0.04342688
1.019274,0.100447,0.05161951
1.017508,0.09735251,0.05267785
1.015877,0.09940706,0.05727934
1.015797,0.1010356,0.05802919
1.015171,0.0998894,0.05566399
1.015623,0.1016489,0.06138668
1.018498,0.1032074,0.06211237
1.021988,0.09993331,0.05821922
1.023068,0.09789975,0.05538094
1.021837,0.1003377,0.05052345
1.021587,0.1024545,0.05143877
1.019482,0.101264,0.05422503
1.015209,0.1009241,0.05225714
1.014673,0.102254,0.05215872
1.016815,0.1029442,0.05118645
1.017825,0.1048028,0.04705504
1.017851,0.1055477,0.04571021
1.016388,0.1049522,0.04677699
1.014897,0.1051337,0.05015979
1.017119,0.1037724,0.05463663
1.019964,0.1041559,0.05469191
1.019412,0.1065847,0.05250925
1.018286,0.1070579,0.0494939
1.018137,0.1068506,0.04578103
1.01879,0.1050023,0.04831819
1.019893,0.1038122,0.05368533
1.018977,0.1061083,0.0572158
1.016103,0.1072223,0.06135887
1.01292,0.1050953,0.0598917
1.012107,0.1021916,0.05631598
1.015849,0.1015462,0.0565823
1.01954,0.1015897,0.05488899
1.019857,0.1013187,0.05565499
1.01934,0.1036397,0.05818179
1.019306,0.105632,0.05804919
1.019584,0.1057666,0.05751745
1.018908,0.1054103,0.05090675
1.016281,0.1044232,0.04527883
1.012834,0.1041222,0.04970592
1.012067,0.1040022,0.05324635
1.015587,0.1042388,0.05171104
1.017865,0.1043059,0.05325116
1.018315,0.1040822,0.05628518
1.022541,0.1051034,0.0512163
1.026309,0.1046939,0.04620103
1.023175,0.1029942,0.04906343
1.018503,0.1025858,0.04978522
1.017519,0.1040182,0.05073616
1.016613,0.106493,0.05504079
1.016987,0.1069896,0.05563881
1.018677,0.1052235,0.05515771
1.016062,0.1039857,0.05537396
1.014338,0.1066347,0.05282762
1.015651,0.1092125,0.05089824
1.016326,0.1055489,0.05400104
1.020565,0.102756,0.0568811
1.024784,0.1042581,0.05531702
1.021318,0.1036412,0.05411175
1.016584,0.1023013,0.05434894
1.017964,0.103859,0.05433656
1.018909,0.1056584,0.05595087
1.017233,0.1056467,0.0578393
1.018214,0.1057006,0.05803852
1.017547,0.1064813,0.05952134
1.016938,0.1071405,0.06180209
1.019651,0.1069696,0.06143891
1.019909,0.1057809,0.06081825
1.020112,0.1050203,0.06178993
1.020704,0.1037771,0.06079225
1.017962,0.1027571,0.05655088
1.014526,0.1053271,0.05286713
1.012885,0.1082499,0.05245964
1.012554,0.1080067,0.05507469
1.012486,0.1081165,0.05854848
1.014976,0.1095853,0.06052642
1.018732,0.1084014,0.06049535
1.019869,0.1052308,0.05556673
1.018802,0.103459,0.04909627
1.017462,0.103672,0.05001728
1.019037,0.1038726,0.05267289
1.020158,0.1024276,0.05108498
1.018811,0.1033446,0.05244609
1.018339,0.1051172,0.05921466
1.016083,0.1037677,0.06511821
1.014407,0.1040477,0.06232049
1.01588,0.1043736,0.05194042
1.01718,0.1025153,0.04616744
1.017908,0.100972,0.04918811
1.015658,0.09929977,0.05419929
1.012835,0.100045,0.05534846
1.015195,0.1014262,0.05023934
1.018908,0.1012015,0.04428028
1.01989,0.1016632,0.04502188
1.01958,0.1009336,0.04714396
1.019223,0.09945535,0.04558591
1.019267,0.09852541,0.04714292
1.018385,0.09903911,0.04956303
1.015796,0.1006191,0.04882172
1.014866,0.09906418,0.0501113
1.016446,0.09841897,0.04817513
1.017955,0.1017022,0.04221397
1.018359,0.1033387,0.03912049
1.0181,0.1017261,0.03880449
1.018916,0.09854323,0.04253843
1.020189,0.09648058,0.04291471
1.021215,0.09640893,0.04000567
1.022287,0.09739821,0.04249055
1.020728,0.09883184,0.04266102
1.018848,0.09938158,0.0442873
1.021177,0.100328,0.04929339
1.022933,0.1002939,0.04640615
1.020236,0.09962347,0.04257126
1.018546,0.1012897,0.0406041
1.019299,0.1016258,0.03909223
1.017855,0.1012158,0.04120869
1.016417,0.1012292,0.04157094
1.01924,0.09938116,0.04315063
1.02209,0.0982215,0.0457519
1.020698,0.09856633,0.0440553
1.019285,0.09959739,0.04415356
1.019352,0.09940468,0.04495372
1.017259,0.09815068,0.04404605
1.015195,0.09845822,0.04460346
1.015406,0.09803082,0.04485795
1.017069,0.09789154,0.04552189
1.018782,0.1004783,0.04580719
1.017927,0.1040837,0.04554663
1.016581,0.1063306,0.05001079
1.015847,0.1040141,0.05305191
1.014776,0.09884072,0.04862574
1.015839,0.09605363,0.0456926
1.018229,0.09715647,0.04600754
1.019967,0.09914896,0.04579611
1.019565,0.1003205,0.04821032
1.017044,0.1019208,0.05106638
1.016312,0.1017544,0.05087493
1.017249,0.100766,0.04711656
1.019501,0.1017318,0.04355748
1.022666,0.1016469,0.04878043
1.022672,0.1022937,0.05479837
1.021757,0.1051952,0.05308517
1.021694,0.1060246,0.05378597
1.018519,0.1058741,0.05678946
1.014552,0.1072334,0.05553269
1.014853,0.1088826,0.0553454
1.016871,0.1086811,0.0578451
1.017067,0.1072166,0.05873361
1.018688,0.1059385,0.0574812
1.022151,0.1034837,0.05338892
1.023677,0.1034612,0.04822113
1.023426,0.1051663,0.04926823
1.021761,0.103858,0.0573604
1.020215,0.1048717,0.06347696
1.020754,0.1064121,0.06159374
1.020423,0.1054394,0.0586804
1.017096,0.1074282,0.0602238
1.014144,0.1090463,0.05991738
1.014989,0.1089829,0.05942858
1.01601,0.1117588,0.06215117
1.015041,0.1150095,0.06187479
1.016456,0.1144441,0.05790203
1.019789,0.1128994,0.05262053
1.023336,0.1138194,0.04915998
1.025522,0.1112851,0.04702689
1.020728,0.1075394,0.0452232
1.013095,0.1090462,0.05164158
1.011467,0.1092072,0.06049622
1.013618,0.1070027,0.06305581
1.014302,0.1074452,0.0630982
1.012837,0.1114826,0.06129659
1.011647,0.1160076,0.06044078
1.010918,0.1168398,0.06017366
1.010464,0.1174053,0.05921789
1.01669,0.1155997,0.05686746
1.027274,0.1088369,0.05149625
1.029152,0.1067188,0.0507329
1.022976,0.1083056,0.05089221
1.019077,0.1075604,0.05246403
1.017859,0.1091163,0.06150598
1.01338,0.1133818,0.06431056
1.008398,0.1161862,0.06285049
1.011519,0.115361,0.06423823
1.016423,0.1117682,0.06363702
1.014761,0.1101511,0.06222138
1.016694,0.1092364,0.05710098
1.021708,0.1069016,0.05065583
1.020747,0.1061969,0.04765014
1.020432,0.1053389,0.04852742
1.020394,0.1036495,0.05248408
1.018643,0.103895,0.0524546
1.019188,0.1045562,0.05342328
1.016882,0.1040664,0.06140146
1.014146,0.1041562,0.06545191
1.01441,0.1053269,0.05902349
1.011174,0.1056859,0.04999118
1.007492,0.1054261,0.04760675
1.011466,0.1046572,0.05178833
1.017285,0.1037714,0.0569151
1.016792,0.1038778,0.05739645
1.018613,0.1024815,0.05430156
1.022389,0.1007114,0.05198065
1.018701,0.10146,0.05158138
1.016851,0.1028056,0.05590409
1.018699,0.1043095,0.05937553
1.017736,0.1073249,0.05467065
1.016723,0.1101359,0.04999725
1.014732,0.1097169,0.05086378
1.013842,0.1071995,0.05032757
1.017909,0.1047663,0.04718643
1.022545,0.1030931,0.04665576
1.023025,0.1024615,0.04602858
1.021599,0.1013361,0.04570432
1.022332,0.1019129,0.05002165
1.021952,0.1046852,0.05247822
1.018995,0.1052894,0.05116166
1.016426,0.1053052,0.05078444
1.015116,0.1050511,0.05173256
1.015415,0.1035477,0.05148959
1.01544,0.1041423,0.04785682
1.016156,0.1041937,0.04800853
1.018668,0.1016332,0.05293309
1.02089,0.09924886,0.05493014
1.022616,0.09806681,0.05603333
1.020807,0.09970211,0.05570662
1.018168,0.1015884,0.05378761
1.019861,0.1016939,0.05332841
1.020768,0.1032588,0.05162796
1.019856,0.1046983,0.05285131
1.017675,0.1044521,0.05887826
1.013787,0.1048224,0.0622045
1.01388,0.1056975,0.05930209
1.014713,0.104916,0.05425328
1.013102,0.1040343,0.05445279
1.014073,0.1069258,0.05630097
1.014989,0.1091095,0.05478623
1.016873,0.1063062,0.05288781
1.021135,0.1037211,0.05116891
1.02016,0.1039793,0.05486874
1.017706,0.1044417,0.06344841
1.018179,0.1040374,0.06608883
1.017871,0.1041155,0.06061573
1.018342,0.1048591,0.05434617
1.018682,0.1066889,0.05597766
1.018025,0.1085171,0.06198342
1.017781,0.105106,0.06446421
1.017225,0.1013153,0.06250488
1.017534,0.1047498,0.05714806
1.018076,0.1078566,0.05411724
1.018102,0.1063434,0.05289942
1.017135,0.1050286,0.05348186
1.015961,0.1046129,0.05717903
1.01601,0.1072787,0.05554321
1.015553,0.1115201,0.05379608
1.017681,0.1108777,0.05316132
1.020532,0.1094386,0.04788864
1.018546,0.1075482,0.04774455
1.017429,0.1028135,0.04807084
1.019262,0.1051348,0.04587464
1.01894,0.1084098,0.04891391
1.014849,0.1025597,0.05176406
1.011056,0.0998701,0.05378674
1.012821,0.1018928,0.04994247
1.017549,0.1014469,0.0417675
1.021332,0.1009148,0.04428335
1.022781,0.09961666,0.0469782
1.018807,0.09880385,0.04449858
1.013025,0.1020058,0.04558212
1.012396,0.1051943,0.04427591
1.016115,0.1024059,0.04263439
1.019393,0.09802488,0.04002681
1.018414,0.09851048,0.03497166
1.017215,0.09922056,0.04102013
1.019626,0.1000624,0.04863728
1.020093,0.1020942,0.04558151
1.020809,0.1004919,0.04485953
1.023193,0.09968123,0.04680431
1.02054,0.1024215,0.04756601
1.013819,0.1051222,0.05641499
1.011761,0.1058744,0.06527286
1.029068,0.1027114,0.05612112
1.049709,0.09756894,0.03752266
1.038785,0.09488246,0.03048113
1.01687,0.09768773,0.03650848
1.010478,0.1018153,0.0405443
1.010471,0.1017857,0.03322818
1.014289,0.1023796,0.03024369
1.013047,0.1064972,0.04511859
1.009947,0.1135254,0.05849406
1.012083,0.1209138,0.059177
1.00385,0.1216291,0.06412881
0.99659,0.1206692,0.07567275
0.998842,0.1218866,0.07619171
1.012717,0.1141811,0.06582761
1.045403,0.1000264,0.0530968
1.054787,0.09556802,0.04185262
1.024132,0.1052934,0.04866507
0.995824,0.1170851,0.0635349
0.9942897,0.1202428,0.06453878
1.001642,0.1220137,0.06548962
0.9941993,0.1252504,0.07019145
0.9949169,0.1242856,0.07436189
1.017262,0.1211855,0.07037572
1.033522,0.1139879,0.04723572
1.02555,0.1096207,0.03272011
1.000843,0.1177438,0.04330201
0.9925148,0.12277,0.05390722
1.007435,0.1154293,0.04869903
1.02058,0.1079414,0.04634208
1.012569,0.109637,0.05885223
0.9874573,0.119637,0.07689632
0.9803213,0.1268301,0.09707984
1.006574,0.1194502,0.08467288
1.041954,0.108347,0.0578882
1.041723,0.1105803,0.07251521
1.020885,0.1138143,0.07331501
1.021898,0.113972,0.05805551
1.013797,0.1198913,0.06857596
1.010773,0.117874,0.06369207
1.019775,0.1135087,0.06100589
1.003465,0.1167586,0.07460869
1.00189,0.1167766,0.07650957
1.012904,0.117261,0.07325067
1.015529,0.1146145,0.05929776
1.018462,0.1085806,0.0527538
1.012664,0.1111802,0.06315415
1.019965,0.1119093,0.06692312
1.024628,0.1082249,0.06512234
1.01787,0.1098615,0.06407414
1.015521,0.1162906,0.07413504
1.004975,0.1227509,0.08219564
1.009657,0.1191251,0.07321051
1.016916,0.1129832,0.06814636
1.010123,0.1168897,0.06857765
1.015837,0.1186721,0.06256552
1.021723,0.1153994,0.05094164
1.026124,0.1098956,0.04337027
1.030151,0.1017074,0.04131804
1.026612,0.1054699,0.04504509
1.029597,0.1115147,0.05451671
1.037238,0.105229,0.04690078
1.041635,0.1042865,0.03925754
1.029097,0.1083117,0.05593966
1.002409,0.1118594,0.07633813
0.9941449,0.1180193,0.09152555
1.004004,0.1124115,0.08693752
1.007997,0.1047012,0.07540065
1.003042,0.1109887,0.07922287
1.003978,0.1166122,0.06865481
1.017215,0.117232,0.04965901
1.025523,0.1138863,0.03996385
1.014985,0.1072328,0.04195472
1.004449,0.1100126,0.06170157
1.016222,0.1148341,0.06563713
1.026399,0.116812,0.0590177
1.017086,0.1244833,0.06416344
1.009876,0.1234169,0.067762
1.005152,0.11588,0.0781628
1.00781,0.1139804,0.08006879
1.02498,0.1078353,0.07059504
1.030171,0.1074426,0.0691278
1.023687,0.1147822,0.06002123
1.020835,0.1146777,0.05134846
1.021269,0.11092,0.05006823
1.021555,0.1048193,0.05579001
1.015634,0.1028525,0.07368691
1.013024,0.1049836,0.07990236
1.01298,0.1025654,0.07014462
1.011101,0.1052398,0.05964243
1.013659,0.1069596,0.05990422
1.013193,0.1040691,0.06734241
1.01623,0.1057095,0.07094996
1.021436,0.1060433,0.07690528
1.015781,0.1099102,0.07367422
1.011143,0.117641,0.06549563
1.011978,0.120281,0.06720203
1.017371,0.1193377,0.06523607
1.024323,0.1162469,0.06321312
1.02367,0.1139972,0.05807559
1.021665,0.106835,0.05144902
1.018608,0.09954537,0.063341
1.01174,0.104955,0.07395911
1.011347,0.1057396,0.06769557
1.015699,0.09530636,0.06397199
1.015294,0.09017538,0.0679526
1.01402,0.09677116,0.06593184
1.016054,0.1090925,0.05866174
1.023192,0.113925,0.05461173
1.030929,0.1142456,0.05341995
1.022373,0.1169337,0.05655587
1.012008,0.1148823,0.05651344
1.020069,0.1054586,0.05555401
1.022534,0.09225329,0.06314515
1.013629,0.08998706,0.06874123
1.011446,0.1025861,0.07169494
1.014186,0.1136853,0.06759028
1.019072,0.1220525,0.0531671
1.022094,0.1257076,0.04594534
1.019841,0.1158016,0.04842511
1.018764,0.102835,0.05205665
1.019609,0.1006648,0.05086636
1.020003,0.1062901,0.05391735
1.021024,0.1117308,0.06175339
1.02188,0.1148154,0.05907869
1.016551,0.1063162,0.06218028
1.00522,0.09240409,0.07009319
1.001028,0.09532091,0.06474434
1.008498,0.1028625,0.05832648
1.018126,0.1062434,0.05285507
1.023264,0.1158193,0.0489143
1.025176,0.1180445,0.04984539
1.02512,0.1119905,0.05183782
1.022424,0.10994,0.0585605
1.019075,0.1084386,0.06258783
1.014475,0.1054022,0.06334941
1.012022,0.1015166,0.06570165
1.017833,0.1028491,0.06203176
1.022608,0.1082909,0.06089495
1.018293,0.1083046,0.06419479
1.015042,0.1056077,0.06185436
1.018936,0.1032635,0.06240269
1.020108,0.1040803,0.06562852
1.016069,0.1072865,0.06638701
1.01458,0.1087628,0.06738255
1.01572,0.1114517,0.0647325
1.018239,0.1112543,0.06412919
1.020073,0.1080714,0.06566693
1.017872,0.1054905,0.0625438
1.013942,0.1020209,0.06191951
1.012133,0.1026495,0.06120834
1.016081,0.1048744,0.05899841
1.0207,0.1065371,0.05941789
1.019135,0.1099047,0.05901569
1.016111,0.1102568,0.06461784
1.01488,0.1101806,0.07217647
1.01493,0.1084137,0.06893801
1.015863,0.1041576,0.06296633
1.016456,0.1069909,0.06131239
1.0185,0.1100983,0.06057863
1.020387,0.1076244,0.0586378
1.018942,0.1080977,0.05880087
1.017294,0.1089472,0.06496013
1.016909,0.1076428,0.0700821
1.018009,0.1076311,0.0682759
1.020383,0.1067853,0.0660118
1.019645,0.106744,0.06663667
1.018718,0.1081312,0.06499132
1.020039,0.1076457,0.062731
1.018751,0.1076221,0.06322638
1.016527,0.1085285,0.06245343
1.015405,0.1088458,0.06205096
1.017289,0.1101899,0.06333215
1.021033,0.1124812,0.06405475
1.019532,0.1127845,0.06578047
1.018479,0.1101266,0.06534614
1.021057,0.1077153,0.06283306
1.02267,0.1060225,0.06161556
1.025169,0.1059875,0.0587406
1.022353,0.1093769,0.05670189
1.016688,0.1109193,0.06055427
1.017887,0.1108879,0.06558734
1.017154,0.1123894,0.06429352
1.015161,0.1113602,0.06109074
1.016554,0.1083332,0.06300364
1.014186,0.1052508,0.06486649
1.013666,0.1038408,0.06481987
1.015499,0.1078077,0.06405044
1.013326,0.1114607,0.06155326
1.013513,0.1105774,0.06259876
1.014551,0.110745,0.06508973
1.013588,0.1115334,0.06481086
1.015103,0.1099469,0.06389484
1.016572,0.1093082,0.06123718
1.016621,0.1097688,0.05938399
1.015718,0.1087753,0.05910198
1.013706,0.1080118,0.06097734
1.012943,0.108324,0.06495597
1.013762,0.1084382,0.0608084
1.016894,0.1084817,0.05576445
1.0201,0.1093452,0.05941433
1.019684,0.1109676,0.0608731
1.019036,0.1114614,0.06251639
1.019681,0.1109676,0.06829151
1.019431,0.110736,0.071367
1.019149,0.109385,0.07219385
1.018148,0.1079296,0.07081518
1.015031,0.1093757,0.06780704
1.013137,0.1122017,0.0632903
1.014726,0.1127737,0.06021468
1.016185,0.1115131,0.06558988
1.015971,0.1107768,0.06992246
1.016719,0.1113927,0.06566718
1.017096,0.1131353,0.06219375
1.016089,0.1139378,0.06240917
1.015866,0.1122693,0.06291065
1.015199,0.1103215,0.06423371
1.014871,0.1109246,0.06553767
1.015708,0.1118763,0.06366003
1.015126,0.111599,0.06187148
1.015479,0.1127743,0.06436557
1.017375,0.1127349,0.06603848
1.018324,0.1104845,0.06404919
1.018211,0.1085038,0.06261065
1.016627,0.1064014,0.06384717
1.014813,0.1083249,0.06685034
1.011607,0.1109723,0.0686267
1.008366,0.1084427,0.06623702
1.010343,0.1084056,0.06326064
1.013993,0.1123768,0.06378926
1.016005,0.1147779,0.06456997
1.017086,0.1143329,0.06556066
1.01807,0.1131315,0.06825754
1.019712,0.1141953,0.06854555
1.01711,0.1136165,0.06692045
1.014006,0.1106706,0.06462751
1.017322,0.1093516,0.06183314
1.019164,0.1092612,0.06407193
1.017606,0.1101718,0.06891454
1.018181,0.1097613,0.06979124
1.018619,0.1087331,0.06956071
1.01689,0.1075639,0.06981679
1.014612,0.1048173,0.0705775
1.014761,0.107296,0.07079218
1.016168,0.1116408,0.06558739
1.016434,0.1111453,0.05973447
1.019401,0.110539,0.05713664
1.022013,0.1085118,0.05560304
1.019531,0.1054093,0.05984638
1.017492,0.1038218,0.06561911
1.016208,0.1006092,0.06571795
1.013684,0.09960341,0.06766933
1.013494,0.1042906,0.07302821
1.014759,0.109084,0.07474639
1.016461,0.1109909,0.07393233
1.018993,0.1130749,0.07035284
1.019381,0.1147046,0.06242586
1.019014,0.1137915,0.0589806
1.019698,0.113217,0.0602138
1.017963,0.1124223,0.05937886
1.014809,0.1093724,0.05957441
1.013881,0.1051109,0.05911098
1.016229,0.09974648,0.05728082
1.019548,0.09705135,0.05678877
1.019321,0.09629756,0.05508494
1.019701,0.09216192,0.05513609
1.021427,0.09205736,0.05565228
1.017865,0.09605537,0.0521486
1.015425,0.09438664,0.04807716
1.017197,0.09418502,0.04439433
1.017675,0.09833227,0.04247048
1.018704,0.1009321,0.0446889
1.02091,0.1031447,0.04685378
1.022456,0.1029585,0.04600651
1.020907,0.1027251,0.04689786
1.01822,0.1049949,0.0515475
1.019528,0.1056412,0.05279353
1.020027,0.10492,0.04669537
1.018834,0.1036517,0.03886681
1.019729,0.1043332,0.03804112
1.020233,0.106515,0.04394567
1.022741,0.1070037,0.04819121
1.026017,0.1066009,0.04862961
1.023129,0.1031379,0.04492664
1.019049,0.1001362,0.04051731
1.019222,0.1010371,0.04234525
1.019651,0.1000155,0.04710542
1.01931,0.09854983,0.05183414
1.019528,0.1019226,0.05531144
1.019236,0.1058196,0.05560743
1.018166,0.1048674,0.05582494
1.016069,0.1058397,0.05547643
1.014543,0.1094373,0.05528723
1.015504,0.1057833,0.05597963
