accx,accy,accz
0.9983333,-0.01941663,0.27312
0.9948364,-0.01984284,0.2790728
0.990614,-0.01849653,0.281076
0.9873238,-0.01680892,0.2804016
0.9861539,-0.01374554,0.2818208
0.9886655,-0.01403904,0.2819132
0.9872948,-0.0164348,0.282134
0.9863278,-0.01657546,0.2819102
0.985744,-0.01923195,0.2820744
0.9822019,-0.02202811,0.2840924
0.9849448,-0.01981834,0.2846228
0.9879761,-0.01862202,0.2832215
0.987229,-0.01987781,0.2816755
0.9890557,-0.0194465,0.2843255
0.9876156,-0.01922453,0.2877089
0.985038,-0.0187766,0.2856616
0.9871692,-0.01486268,0.2843398
0.9882066,-0.01095129,0.2832946
0.9877057,-0.01115235,0.2809186
0.9901194,-0.0116092,0.2819944
0.9923582,-0.009655328,0.2820545
0.9898293,-0.009443943,0.2789822
0.9868803,-0.009705364,0.275252
0.9874005,-0.007638901,0.2721794
0.9879656,-0.00690269,0.2725282
0.9881793,-0.008929913,0.2727448
0.9892212,-0.01243283,0.2718999
0.9890618,-0.01438881,0.2751589
0.9883873,-0.01476152,0.2802467
0.9885453,-0.01661015,0.2823454
0.9892082,-0.01703099,0.2788645
0.9914537,-0.01675006,0.2740005
0.9925391,-0.01862279,0.2744268
0.9907917,-0.01989271,0.2732834
0.9900145,-0.01950595,0.2713817
0.9896225,-0.01783135,0.2768752
0.9899261,-0.01608161,0.2810977
0.9908409,-0.01485268,0.2816238
0.9890008,-0.01492257,0.2823722
0.9889675,-0.01620039,0.2814834
0.9921622,-0.0169613,0.2811259
0.9944785,-0.01935965,0.2804143
0.994261,-0.02032742,0.2805323
0.9895327,-0.01891023,0.2828517
0.9860238,-0.0205481,0.2835644
0.987444,-0.02133161,0.2821293
0.9878682,-0.02033881,0.2759977
0.9863376,-0.02011152,0.2699338
0.9858938,-0.01908634,0.2716976
0.9873417,-0.019345,0.2748039
0.9887324,-0.01972761,0.2778037
0.9890819,-0.01902552,0.2836117
0.9891642,-0.01830579,0.2833729
0.9895514,-0.01600115,0.2799464
0.9907045,-0.0138418,0.282758
0.9900508,-0.01178331,0.2825503
0.9881105,-0.009056493,0.2806463
0.987456,-0.0101555,0.2823224
0.9880591,-0.01331701,0.2780272
0.9895014,-0.01347601,0.2748644
0.9889757,-0.0139317,0.2768239
0.9884078,-0.0153264,0.2767552
0.9893455,-0.01527417,0.2785508
0.9885231,-0.0163551,0.2815948
0.9880674,-0.01736513,0.2834076
0.9883991,-0.01842455,0.282003
0.9891251,-0.02103684,0.2776421
0.9908047,-0.02121928,0.2759692
0.990104,-0.02051979,0.2780908
0.9884998,-0.02095878,0.282176
0.9885898,-0.02009956,0.2825381
0.9891426,-0.01708236,0.2811302
0.9889751,-0.01310682,0.2815253
0.9885934,-0.0122936,0.2800546
0.9891304,-0.01280879,0.2811132
0.988868,-0.01140641,0.2846158
0.9890494,-0.0117553,0.2854668
0.9911409,-0.01345861,0.2805796
0.9928814,-0.01518066,0.2735975
0.9936049,-0.01735679,0.2766144
0.9921405,-0.01688398,0.2818377
0.9892675,-0.01514885,0.2814219
0.9868091,-0.01528736,0.2810543
0.9867485,-0.01512275,0.2766844
0.9884306,-0.01444399,0.2741765
0.987222,-0.01468094,0.2772865
0.9870724,-0.01531818,0.2765859
0.9884019,-0.01560655,0.2756802
0.9878359,-0.01506011,0.2759095
0.989654,-0.01484227,0.2747139
0.9910567,-0.01376259,0.2765302
0.9915195,-0.01169697,0.2804901
0.9920712,-0.01237968,0.2824307
0.9892811,-0.01283591,0.2795257
0.9887378,-0.01172303,0.2762614
0.9909052,-0.01329175,0.2775231
0.9916754,-0.01431768,0.2757621
0.9903166,-0.01226591,0.2693552
0.9879261,-0.01192346,0.2668746
0.9899731,-0.01434945,0.2706082
0.9921087,-0.01596091,0.2782592
0.9913303,-0.01687271,0.284174
0.9915933,-0.01750442,0.2810499
0.989801,-0.01793644,0.2723931
0.9887122,-0.01938719,0.2680801
0.9916688,-0.01621811,0.2714697
0.9939846,-0.01100854,0.2782883
0.9933429,-0.01182692,0.2805008
0.991644,-0.0103785,0.2778432
0.9896888,-0.005981607,0.2746013
0.9856519,-0.006990169,0.2712523
0.9849444,-0.00929132,0.2731147
0.9873088,-0.01031026,0.2786368
0.9856754,-0.01173099,0.2800995
0.9857693,-0.01277718,0.2808512
0.9866513,-0.0127841,0.2814579
0.9843988,-0.01219827,0.2801711
0.984016,-0.01253956,0.2791391
0.9845032,-0.01268132,0.2770312
0.987394,-0.01227503,0.2750753
0.990704,-0.0122657,0.2753485
0.9905349,-0.01073722,0.2757907
0.9927181,-0.009052937,0.2740302
0.9936984,-0.009468702,0.2729518
0.990636,-0.009162654,0.2752881
0.9901659,-0.008032035,0.277313
0.9921168,-0.009285193,0.2789644
0.9935135,-0.0112349,0.279825
0.992193,-0.01107925,0.2787365
0.9899733,-0.01011836,0.279039
0.9902432,-0.009330308,0.2784943
0.9903842,-0.008670275,0.2771973
0.9901291,-0.008308247,0.2777322
0.9904347,-0.008295615,0.2773559
0.9901694,-0.009715743,0.2781049
0.9901188,-0.01185726,0.2814935
0.9894517,-0.01312622,0.2825125
0.9883244,-0.01394066,0.2795064
0.9881713,-0.0159309,0.2764031
0.9886329,-0.0192732,0.2751375
0.9907255,-0.02012176,0.2746869
0.9921934,-0.01870309,0.2750902
0.9898175,-0.01738123,0.276013
0.9879512,-0.01423991,0.2792697
0.9890462,-0.0120953,0.2832796
0.9891893,-0.01256877,0.281366
0.9887369,-0.01285632,0.2782855
0.9899237,-0.01425826,0.2792426
0.990964,-0.01534476,0.2779265
0.9916598,-0.01273871,0.2749544
0.9917474,-0.009765418,0.2768012
0.9898098,-0.01005972,0.2836915
0.9887667,-0.0101656,0.2885026
0.9892058,-0.009095311,0.2854796
0.9886704,-0.01015176,0.2822368
0.9884486,-0.0110113,0.2820777
0.987392,-0.0120051,0.2803581
0.9852916,-0.0139763,0.280536
0.9861716,-0.0130396,0.2812105
0.9875283,-0.0120889,0.281638
0.9873449,-0.01261948,0.2834722
0.9879124,-0.01227419,0.2816963
0.9883185,-0.01150657,0.2808783
0.9890201,-0.01005142,0.2815453
0.9892469,-0.01076575,0.2801043
0.9882918,-0.01427075,0.280726
0.9881709,-0.01614433,0.2793571
0.9873434,-0.01539407,0.2787064
0.9869353,-0.01440796,0.281921
0.9870827,-0.01381601,0.2831543
0.9856027,-0.01201263,0.2870701
0.9859295,-0.01178816,0.2889836
0.9865882,-0.01236754,0.2846595
0.9855435,-0.0102712,0.2823773
0.9853459,-0.01016871,0.2789579
0.9847406,-0.01152169,0.2778501
0.9852782,-0.01357857,0.2808457
0.9868066,-0.01751467,0.2804131
0.9860036,-0.01690949,0.2823703
0.9858508,-0.01480718,0.2838154
0.9864303,-0.01434461,0.2824287
0.9862773,-0.01135757,0.2844276
0.9879187,-0.00961115,0.2848307
0.9893523,-0.009851782,0.2852781
0.9880788,-0.01064461,0.2853935
0.9874435,-0.01253038,0.2836144
0.9902451,-0.01270698,0.2853419
0.9931055,-0.011857,0.2848882
0.9934997,-0.009878624,0.284024
0.9942873,-0.007078962,0.2851309
0.9934479,-0.006323677,0.2824797
0.9887314,-0.005565324,0.2814039
0.9863257,-0.005033731,0.2819087
0.9875963,-0.00699143,0.2809712
0.9878585,-0.01094797,0.2804833
0.9868945,-0.01523553,0.2801962
0.9856989,-0.01535537,0.2801945
0.9843386,-0.01520509,0.2767612
0.9845479,-0.01904723,0.2727361
0.9860539,-0.01703473,0.2733258
0.9862664,-0.01340163,0.2734762
0.9861869,-0.0173206,0.2708235
0.9872977,-0.01927772,0.269397
0.9885525,-0.02008826,0.2740806
0.9893163,-0.02139878,0.2808783
0.9888428,-0.01701543,0.2835492
0.9888276,-0.01240814,0.2863017
0.9900721,-0.008266706,0.2898112
0.9902082,-0.00557336,0.2932765
0.9891167,-0.007252354,0.2964491
0.9867755,-0.005616685,0.2919615
0.9846527,0.002685988,0.2878311
0.9816478,0.01531563,0.2989588
0.9742582,0.02589925,0.3139187
0.9696001,0.034335,0.3204488
0.9698515,0.04710645,0.3284071
0.9652426,0.05772979,0.338869
0.960127,0.06323127,0.3367528
0.9627968,0.06472686,0.3306707
0.9650442,0.05830071,0.3394731
0.9659537,0.04865232,0.3435917
0.9700649,0.03999798,0.3328079
0.9690758,0.03664282,0.3290791
0.9654807,0.04110972,0.3330833
0.9646572,0.04792457,0.3362198
0.960653,0.05899393,0.3350755
0.9584549,0.06746847,0.3343649
0.9598295,0.0654675,0.3418681
0.9565855,0.06739855,0.3491901
0.9483323,0.07629701,0.3614403
0.9399964,0.086181,0.3811206
0.9394165,0.09919566,0.3910355
0.9450796,0.1122558,0.3888934
0.9475327,0.1249293,0.3863831
0.9446163,0.133347,0.3892646
0.9355186,0.1365474,0.38864
0.9273817,0.1436174,0.3877147
0.9298264,0.1463655,0.3897317
0.932536,0.1414457,0.3847987
0.9297901,0.1412494,0.3858169
0.9321196,0.1433977,0.3973576
0.9348645,0.1450078,0.406796
0.9331551,0.1487801,0.4097977
0.9366629,0.155846,0.4091166
0.9423778,0.1693212,0.4084574
0.9410598,0.1786795,0.4024049
0.9230573,0.177834,0.4025288
0.886359,0.1801553,0.4080172
0.8669985,0.1817385,0.4075479
0.8882962,0.1746816,0.4252312
0.910322,0.1728554,0.4494139
0.9062505,0.1792095,0.454005
0.8973192,0.1900861,0.4592006
0.8858394,0.2079739,0.4716422
0.8716673,0.2217086,0.4767374
0.8710974,0.2269511,0.4752462
0.8706498,0.2362805,0.4761616
0.8666204,0.251411,0.4713535
0.8712358,0.2615279,0.4629256
0.873211,0.2639733,0.4618904
0.8710717,0.2609415,0.4574437
0.8707945,0.2466454,0.4579482
0.8724786,0.2323943,0.4640219
0.8739579,0.2376328,0.4596694
0.8676265,0.2489423,0.4518417
0.8545616,0.2547176,0.4436402
0.8409687,0.2638063,0.4488326
0.8379774,0.2688142,0.4679306
0.8462189,0.2717849,0.4784584
0.851576,0.2826228,0.4852274
0.8534819,0.283658,0.4940147
0.8499078,0.2808543,0.5082147
0.8363635,0.290035,0.5191562
0.8221978,0.3018032,0.5141955
0.8156719,0.3184651,0.5150567
0.8076712,0.3342533,0.5212146
0.7881784,0.3501978,0.5229553
0.7804684,0.370046,0.5279346
0.7902712,0.3754252,0.5291537
0.7900068,0.3763581,0.5325515
0.7888247,0.3769904,0.5354753
0.7921228,0.3729125,0.5311053
0.7884692,0.3751483,0.5312054
0.7904238,0.3711372,0.5281644
0.7930456,0.3630969,0.5241463
0.7917441,0.3606997,0.5239158
0.7972405,0.3576808,0.5186295
0.8043384,0.3587988,0.5113939
0.8101026,0.3615594,0.5008559
0.8118747,0.364271,0.4975435
0.808897,0.3676164,0.4996047
0.8052591,0.367504,0.4917943
0.7981482,0.3658993,0.4924788
0.7906974,0.3626128,0.4995621
0.7871035,0.3613296,0.5034554
0.785279,0.3565183,0.5133158
0.7835539,0.3429442,0.5194721
0.7836607,0.3362348,0.5251244
0.7821541,0.3393247,0.5307677
0.7754065,0.3498124,0.5278837
0.7705616,0.368961,0.5288388
0.7682922,0.3840232,0.5300783
0.7697723,0.3914403,0.5258904
0.7744506,0.3960608,0.5207833
0.7761008,0.3942017,0.511781
0.7782357,0.3902213,0.5011891
0.7796706,0.3898007,0.4883483
0.7862304,0.3837409,0.483464
0.796209,0.3750207,0.492029
0.7931482,0.3769018,0.4942548
0.7885651,0.3835663,0.4970273
0.7939475,0.386259,0.5021127
0.8156516,0.3762769,0.4849999
0.8528778,0.3484281,0.4606485
0.8611958,0.3231005,0.447569
0.8246378,0.3260079,0.4327824
0.7890158,0.3636891,0.4172408
0.7846174,0.4070433,0.4192851
0.8051257,0.408921,0.4406889
0.826288,0.3667212,0.4712126
0.8327698,0.3198121,0.4962932
0.8463927,0.2931189,0.4813132
0.8796963,0.2888396,0.4576084
0.8948614,0.3080334,0.481166
0.8604266,0.3455132,0.5003571
0.8104097,0.3806326,0.5022917
0.7928234,0.3963441,0.5099858
0.7860048,0.4067447,0.502042
0.7621446,0.4251733,0.507989
0.7552592,0.4232254,0.5122563
0.7735403,0.4029185,0.4964517
0.7872392,0.3922227,0.497064
0.8019688,0.3687439,0.4886965
0.817219,0.3403483,0.4746369
0.8177005,0.3283304,0.4671017
0.8230714,0.3139482,0.4564535
0.8338376,0.3136338,0.4616481
0.8348627,0.3191549,0.4596644
0.8371772,0.3139827,0.4517783
0.8377454,0.3232315,0.455995
0.8355679,0.3333977,0.4567411
0.8326688,0.3456239,0.4632371
0.8225387,0.3626077,0.4731964
0.8133273,0.3716116,0.4834454
0.8065157,0.388252,0.491193
0.8018998,0.3914608,0.4840358
0.7981316,0.3872639,0.4811414
0.796573,0.3950404,0.4839695
0.8026243,0.3901118,0.4783718
0.8065919,0.3852703,0.4698467
0.8155438,0.3776681,0.4614454
0.8249397,0.3616733,0.4580007
0.8202466,0.3604964,0.4619842
0.8164547,0.3595625,0.4688868
0.8117833,0.3563228,0.4753662
0.8076938,0.3613931,0.4781118
0.8096353,0.3682236,0.4775207
0.8073648,0.3716468,0.476449
0.8098327,0.3694033,0.474575
0.813846,0.3696761,0.4712736
0.8152113,0.3679765,0.466551
0.8215236,0.3595204,0.4609448
0.8246916,0.3526423,0.4621872
0.8253807,0.3495165,0.467211
0.8228514,0.3541305,0.4662553
0.8176773,0.3614727,0.4687901
0.8162824,0.3670731,0.4719949
0.8143107,0.3704449,0.4676478
0.8154482,0.3685617,0.4643016
0.8176542,0.3692608,0.4568935
0.8195533,0.3683568,0.4483646
0.8235414,0.3650174,0.451264
0.8189237,0.3666042,0.4603784
0.8123969,0.3632863,0.4724712
0.8112557,0.3593882,0.478633
0.8105066,0.3624493,0.4742634
0.8114967,0.3669854,0.4748584
0.8111572,0.3722713,0.4776903
0.8107477,0.3744087,0.4736125
0.811911,0.3738955,0.4704461
0.8131158,0.370719,0.4680849
0.817208,0.3635754,0.4654664
0.8199153,0.3615505,0.4660652
0.8213032,0.3605517,0.463572
0.8238031,0.355477,0.4602321
0.8203489,0.3576699,0.4645044
0.8139091,0.3641169,0.46861
0.8128592,0.3661561,0.4668709
0.8132021,0.3685546,0.4676443
0.8142776,0.3708983,0.4707433
0.8198139,0.3728594,0.4685544
0.822451,0.3732828,0.4633803
0.8212389,0.3664328,0.4570041
0.8223788,0.3609179,0.4515785
0.8225724,0.359372,0.4533178
0.8206068,0.3575146,0.4577516
0.8161407,0.3605496,0.4626758
0.8104149,0.3643164,0.4679335
0.810783,0.3688452,0.4685857
0.812364,0.3761452,0.4687914
0.8104294,0.3756263,0.4666277
0.8133632,0.3706779,0.4610818
0.8209792,0.3680225,0.4597118
0.8269451,0.3636566,0.4580374
0.827922,0.3598844,0.4571881
0.8250244,0.3582298,0.4589218
0.8247448,0.3562512,0.4581513
0.8218996,0.355629,0.4618404
0.8157882,0.3577947,0.4675278
0.8154027,0.3650859,0.4681875
0.8142267,0.3738554,0.466711
0.8146249,0.3722414,0.4637967
0.8196943,0.3675404,0.4633443
0.820205,0.3681969,0.4628687
0.8225314,0.362703,0.4613719
0.8253033,0.3591806,0.4628027
0.8237558,0.3622577,0.4597804
0.8243711,0.35834,0.4579535
0.8206885,0.3582696,0.4654672
0.8142386,0.3627957,0.4745715
0.8146123,0.3609258,0.4787714
0.8163949,0.361094,0.4748215
0.8176837,0.3634177,0.4682086
0.822908,0.365125,0.4614659
0.826882,0.3657481,0.4570142
0.8254539,0.3626368,0.4609002
0.8268408,0.3575431,0.4623713
0.8300304,0.3524249,0.4612735
0.8249666,0.3546164,0.4619435
0.8179072,0.3598083,0.4592497
0.8160197,0.3608391,0.4635459
0.8146156,0.3650595,0.471193
0.8125357,0.3693677,0.4701946
0.8127636,0.3711079,0.4654868
0.8164423,0.371549,0.4607053
0.8203338,0.3672111,0.4621389
0.8209883,0.3625364,0.4659
0.8217856,0.3570591,0.464396
0.824587,0.3524146,0.4637595
0.8250587,0.353022,0.4627569
0.8214459,0.3528731,0.4650215
0.8163516,0.3549574,0.4724952
0.813983,0.3602501,0.4748766
0.8154213,0.365071,0.4746374
0.8158005,0.3712111,0.4724736
0.8152978,0.3726965,0.4687205
0.8175976,0.3715631,0.4696514
0.8175576,0.3717883,0.4697416
0.8135919,0.3708024,0.4700856
0.8129138,0.3734514,0.4746187
0.8153435,0.3762074,0.473931
0.8174114,0.3749135,0.4672848
0.820123,0.3733847,0.4625892
0.8197929,0.3688034,0.4588795
0.8157238,0.3621714,0.4535105
0.8147705,0.360519,0.4492675
0.8166566,0.3590371,0.449578
0.8217594,0.3508163,0.4539474
0.8289443,0.3461788,0.4567096
0.8281373,0.3481619,0.4573463
0.8229814,0.3475478,0.4583858
0.8216512,0.3476049,0.4603967
0.821942,0.349935,0.4674624
0.822802,0.3525681,0.4733375
0.8230704,0.3567986,0.4721282
0.8235799,0.3578636,0.4723671
0.8239371,0.3555037,0.4745079
0.8220848,0.3554772,0.4737066
0.8207983,0.3584143,0.4721235
0.8187323,0.3624984,0.469598
0.8163334,0.3661803,0.4653055
0.8165898,0.3666702,0.4657439
0.8172708,0.3654799,0.4680184
0.8194904,0.3634398,0.464062
0.8226055,0.358783,0.460317
0.8225322,0.3575224,0.4591664
0.820569,0.3570984,0.4642329
0.8188032,0.3525218,0.4736038
0.817623,0.3530031,0.4724874
0.81782,0.3580626,0.4718273
0.8191611,0.3615689,0.4738964
0.8214802,0.3619153,0.4681389
0.8243641,0.3591297,0.468715
0.8230955,0.3586957,0.4706012
0.8190836,0.3584891,0.4652977
0.8192631,0.3578697,0.4613041
0.819732,0.3600197,0.4572499
0.8192429,0.3604963,0.4604428
0.8207109,0.3603583,0.467088
0.8208981,0.3596665,0.4662041
0.8210718,0.3581385,0.4683844
0.8217822,0.3591975,0.470575
0.822253,0.3609534,0.4673585
0.822105,0.3640918,0.4655742
0.8191254,0.3647364,0.4649127
0.8173432,0.3619859,0.4668448
0.8179657,0.3626248,0.4680099
0.8184619,0.3626322,0.4674929
0.8188067,0.3621254,0.4702959
0.8185569,0.3627904,0.46998
0.818152,0.3612516,0.4684411
0.8176762,0.3609388,0.4701304
0.8181956,0.3604551,0.4693528
0.8188313,0.3574214,0.4683675
0.8203041,0.3546921,0.4663751
0.8233804,0.3548817,0.4624325
0.8228323,0.3558116,0.4651596
0.8231732,0.3516106,0.4729196
0.8258548,0.3492694,0.4772557
0.8232243,0.353855,0.4724517
0.8210704,0.356877,0.463849
0.8225719,0.3557821,0.4646035
0.8224061,0.3547667,0.468607
0.8219395,0.3568689,0.4713286
0.8223616,0.360414,0.4771753
0.8218979,0.3643401,0.4759828
0.8203194,0.3663272,0.4712728
0.819531,0.3651084,0.4709374
0.8218909,0.3657469,0.4687733
0.8247888,0.3629653,0.4673029
0.8236417,0.3594394,0.4645976
0.8219307,0.3636052,0.4614923
0.8225222,0.3646185,0.4636173
0.8218793,0.3624101,0.4650559
0.8211954,0.3621832,0.4667798
0.8214433,0.3602344,0.465298
0.823062,0.3585991,0.4594264
0.8261864,0.3577628,0.4595108
0.8249404,0.3584372,0.4610582
0.8223008,0.3587159,0.4618179
0.8223802,0.3577816,0.4621958
0.8218431,0.3585463,0.4594617
0.8223546,0.3571994,0.4592592
0.8224743,0.3555356,0.4591464
0.8217709,0.3562819,0.4579697
0.8222392,0.3588768,0.4595217
0.8203188,0.3621282,0.4618323
0.8187449,0.3596486,0.4659065
0.819539,0.3570019,0.4684537
0.819382,0.3597045,0.4639725
0.8185116,0.3602913,0.4589406
0.8180718,0.3593247,0.4607177
0.8205226,0.3594877,0.4613722
0.8251723,0.3579865,0.4574924
0.8274797,0.3566554,0.4583231
0.8254447,0.3591229,0.4604145
0.8203956,0.3633492,0.4619699
0.8175559,0.3646878,0.4650944
0.821019,0.3639315,0.4630298
0.8256005,0.3645653,0.4614469
0.8238194,0.3655629,0.4629915
0.8221279,0.364292,0.4614264
0.8241621,0.3624122,0.4614161
0.8234957,0.362339,0.4648298
0.8252688,0.3625925,0.4671982
0.828042,0.3622784,0.4644611
0.8264331,0.3616464,0.4612882
0.8247899,0.3608001,0.4653637
0.8211624,0.3610193,0.468242
0.8211524,0.3609852,0.4654501
0.8237117,0.3584554,0.4626852
0.8203485,0.3542318,0.4595285
0.8206407,0.3520865,0.4596588
0.8224751,0.3553465,0.4649641
0.8218695,0.3584557,0.4679039
0.8239621,0.3569395,0.4663024
0.8244301,0.3574276,0.464135
0.8252081,0.3601166,0.4660162
0.8252767,0.3591327,0.4717081
0.8233696,0.355925,0.4730197
0.8238986,0.3534621,0.467522
0.8235492,0.3548429,0.4622279
0.8244329,0.3586843,0.4600634
0.8256678,0.3595,0.4591351
0.8245968,0.360099,0.4591729
0.8253422,0.361878,0.4595455
0.8259149,0.3625916,0.4581294
0.8263172,0.3627711,0.4539303
0.825677,0.361275,0.4517248
0.8230131,0.3607328,0.4565096
0.8217199,0.3614364,0.4619653
0.820395,0.3610435,0.4630927
0.8205069,0.3619449,0.4627522
0.8210396,0.3622869,0.4616898
0.8186849,0.3625326,0.461
0.8177177,0.3643791,0.4603771
0.8189434,0.3636706,0.4608754
0.8202178,0.3604482,0.4634027
0.8209722,0.3574208,0.4644627
0.8206305,0.3570905,0.4648726
0.8193883,0.3592072,0.4633302
0.8191273,0.3603953,0.4626794
0.8216916,0.3611974,0.4651037
0.8228843,0.3615468,0.462593
0.8219351,0.3607801,0.4619117
0.8224794,0.3610764,0.4654969
0.8231183,0.3610387,0.4660258
0.8238164,0.358506,0.4673033
0.8236776,0.3552105,0.4667094
0.8221549,0.3541334,0.4663935
0.8213073,0.358505,0.4692434
0.8206144,0.3631013,0.4682055
0.8216582,0.3611658,0.4633023
0.8223065,0.3599459,0.4570253
0.8193076,0.3610315,0.4583932
0.8177246,0.359241,0.4646128
0.8205687,0.3591526,0.463805
0.8235166,0.3594853,0.4637786
0.8223361,0.3583439,0.4641684
0.8210681,0.3618423,0.461764
0.8210985,0.365432,0.4601592
0.8194554,0.3633568,0.4582307
0.8225126,0.360556,0.4633915
0.8266194,0.3595685,0.4693115
0.8230633,0.3602408,0.4664259
0.8208871,0.3617654,0.4662964
0.8227738,0.3608369,0.4701556
0.8223345,0.3592084,0.4710506
0.8215309,0.3603391,0.4688166
0.8203186,0.3631243,0.4650452
0.8170666,0.3648835,0.4626976
0.8165264,0.3637842,0.4613446
0.8209269,0.3629944,0.4611917
0.8252347,0.3623441,0.4643108
0.8253249,0.3585171,0.467639
0.8226302,0.3574229,0.4667529
0.8209046,0.3589355,0.4635647
0.8215281,0.358499,0.4631074
0.8225569,0.3598694,0.463541
0.8223962,0.3611267,0.4620864
0.8219424,0.36018,0.4621972
0.8223222,0.3599433,0.4633701
0.8223381,0.3589949,0.4639714
0.8220122,0.357727,0.4659912
0.8223808,0.3583282,0.4666282
0.8223749,0.3594126,0.4656933
0.8230147,0.3615779,0.4644909
0.8240438,0.3646907,0.4620684
0.8235817,0.3625395,0.4646065
0.8234586,0.3587247,0.4685432
0.823751,0.3611224,0.4659751
0.8235508,0.3635895,0.4638789
0.823967,0.3630691,0.4621787
0.825597,0.3596878,0.4586383
0.8276358,0.3542225,0.4582458
0.8273731,0.3548696,0.458918
0.825629,0.3570967,0.4614146
0.8250351,0.3566132,0.464506
0.8233183,0.3592819,0.4650435
0.8212955,0.3607431,0.4688741
0.8226048,0.3610906,0.4701471
0.8241203,0.3636507,0.4636481
0.823666,0.3633253,0.4597652
0.8236669,0.3603416,0.4605966
0.8243149,0.3573671,0.4612648
0.8248142,0.3575911,0.4588243
0.8248549,0.3594815,0.4569379
0.8249255,0.3578002,0.4589668
0.8242734,0.3582178,0.4575747
0.8228512,0.3601651,0.4562887
0.8226372,0.3601766,0.4594177
0.8213043,0.3618009,0.4600406
0.8202784,0.3602822,0.4604943
0.8220984,0.3560621,0.4632559
0.8228632,0.3536496,0.4661597
0.8238897,0.3541083,0.4657291
0.8257837,0.3569052,0.4626858
0.8258357,0.3554299,0.4640739
0.82547,0.3550787,0.4650448
0.8249589,0.3587486,0.463452
0.8247608,0.3600156,0.4639018
0.8251735,0.3613514,0.4640648
0.8250024,0.3587194,0.4648449
0.8248983,0.3554181,0.4644766
0.8250853,0.3583378,0.4598776
0.8253488,0.3588847,0.4555465
0.8267288,0.3579459,0.4570298
0.8283952,0.3585222,0.4602168
0.8279559,0.3585782,0.4582923
0.8269839,0.3602211,0.4581813
0.8259031,0.3615813,0.4604047
0.8226783,0.3613302,0.4617442
0.8216329,0.3607807,0.4647673
0.8244149,0.3611636,0.4627176
0.8256471,0.3613552,0.4579161
0.8247366,0.3607701,0.4557684
0.8237553,0.3609767,0.4585958
0.8225681,0.3593267,0.4653659
0.8222193,0.3577682,0.4622096
0.824008,0.3592894,0.4578538
0.8257371,0.3601882,0.4594132
0.8250586,0.3597075,0.4577318
0.8245978,0.3596793,0.4612702
0.8253096,0.3607794,0.4640763
0.8245892,0.3614116,0.4608691
0.8230677,0.3610364,0.459324
0.8220594,0.3611141,0.4565178
0.8227592,0.3610898,0.4598574
0.8245077,0.3611374,0.4648674
0.824297,0.3611257,0.4620036
0.8241534,0.3608597,0.4619066
0.8247742,0.359967,0.463934
0.8247455,0.3575725,0.4656992
0.8253595,0.3568601,0.4689793
0.825138,0.3596565,0.4665002
0.8255869,0.3617973,0.4591684
0.8268992,0.3594999,0.4553724
0.8253356,0.3571246,0.4559098
0.8245144,0.3585768,0.4541866
0.8252298,0.3587392,0.4506917
0.8249312,0.3578138,0.45426
0.8250268,0.3586314,0.4589938
0.8249836,0.3581526,0.4548822
0.8249842,0.3576011,0.4536373
0.8248886,0.3585218,0.4605057
0.823823,0.359278,0.4643024
0.8225494,0.3592412,0.4642534
0.8219602,0.3585404,0.4625666
0.8233889,0.3584217,0.4587913
0.8249502,0.358403,0.4556891
0.8254947,0.3594578,0.4567993
0.8264931,0.3620737,0.4598887
0.8260392,0.3629099,0.4595705
0.8227759,0.3625422,0.4597787
0.8201967,0.3618289,0.460067
0.8210257,0.3597858,0.4590857
0.8220387,0.3575389,0.4602854
0.8221125,0.357079,0.458828
0.8225749,0.3582802,0.4564109
0.8223556,0.3586328,0.4563175
0.8239299,0.3601067,0.458331
0.8258487,0.3619109,0.4610727
0.824885,0.360595,0.4607562
0.8249433,0.3591622,0.462811
0.8261314,0.3580081,0.4626434
0.8265437,0.3581148,0.4593782
0.8265187,0.3603133,0.4609984
0.8260125,0.362384,0.4569047
0.8257702,0.3645769,0.4517522
0.825128,0.3632111,0.4540334
0.8237461,0.3604976,0.4550978
0.8218558,0.3612845,0.4578836
0.8218609,0.3611808,0.4621306
0.8248882,0.36087,0.4626714
0.8263335,0.3610497,0.4604339
0.8262808,0.3591035,0.456699
0.8257416,0.3576794,0.4544466
0.8247348,0.3574838,0.4529371
0.8268617,0.3578165,0.4519642
0.8286209,0.3584594,0.4512421
0.8276064,0.3584674,0.4494384
0.8274494,0.3580822,0.4505784
0.8268458,0.3573689,0.4553456
0.8251939,0.3571482,0.4600073
0.824769,0.358573,0.4623421
0.8260028,0.3604143,0.4643709
0.8266367,0.3601479,0.4670336
0.825376,0.3600267,0.4632598
0.8246632,0.361586,0.4561882
0.8253507,0.3603415,0.4562757
0.8269222,0.3587576,0.4576738
0.8282611,0.3591898,0.4564864
0.8273936,0.358079,0.4571121
0.8248079,0.3580231,0.4577215
0.8228996,0.3587676,0.4603094
0.823564,0.3580716,0.4638437
0.8251487,0.358356,0.4623698
0.8259453,0.3588266,0.4599661
0.8266794,0.3599448,0.4596319
0.8266952,0.3617802,0.4595328
0.8271758,0.3609316,0.4598448
0.8291239,0.3588703,0.4597906
0.8295617,0.3575322,0.4595571
0.8285574,0.3552722,0.4596633
0.8274434,0.3526809,0.458828
0.8260744,0.3528912,0.4586767
0.8269745,0.3570524,0.4619221
0.828553,0.3613038,0.4651132
0.8276265,0.3617755,0.4643867
0.8274994,0.3602067,0.4639817
0.8279581,0.358379,0.4649096
0.8268544,0.356534,0.4596257
0.8270111,0.3578834,0.4519695
0.8282611,0.3619241,0.4523636
0.8288156,0.3625104,0.4562879
0.8292426,0.3587818,0.4575025
0.8293147,0.3555819,0.4571286
0.8283432,0.3560281,0.4565581
0.8255718,0.3575841,0.4571029
0.8226171,0.3567078,0.457084
0.8232831,0.3561437,0.4570192
0.825701,0.3570316,0.4593207
0.8267079,0.3573029,0.4618029
0.828184,0.3578178,0.4622785
0.8284838,0.3584531,0.4608098
0.8277642,0.3585753,0.4600925
0.8288883,0.3585116,0.4595493
0.827434,0.3598506,0.4580317
0.8251858,0.3612257,0.4593025
0.8257822,0.360285,0.4594125
0.8271689,0.3609533,0.4567549
0.8299883,0.3614023,0.4557565
0.8289093,0.3588276,0.4549018
0.8261245,0.3578886,0.4566079
0.8275712,0.3585045,0.4582792
0.8261126,0.3593417,0.4575068
0.8247379,0.3600101,0.4588485
0.825612,0.3595017,0.4568321
0.8242141,0.3587876,0.4558722
0.8246556,0.3584428,0.4595046
0.8255835,0.3600074,0.4594677
0.8271925,0.3615247,0.4597059
0.8282383,0.3593924,0.4583753
0.8235673,0.3577448,0.456129
0.8215472,0.3601826,0.4577988
0.8252381,0.3611715,0.4560372
0.8283036,0.3564836,0.4535766
0.8279713,0.3528487,0.4507713
0.8253032,0.3557662,0.4472968
0.824924,0.3581955,0.4484285
0.8260512,0.3557043,0.4481103
0.8280335,0.3548143,0.4491059
0.8310945,0.3560871,0.4513002
0.8318077,0.3555872,0.4492712
0.8296567,0.3562989,0.4503566
0.826548,0.3574938,0.4522732
0.8274166,0.3566267,0.4530608
0.8284905,0.3559636,0.4552426
0.8251591,0.355411,0.4555172
0.8249803,0.3560716,0.4558534
0.8269875,0.3593877,0.4553413
0.8280849,0.3620692,0.4543091
0.8281462,0.3613402,0.4547656
0.8259968,0.3594928,0.4561912
0.8255232,0.3597464,0.4613167
0.8248569,0.3598473,0.4632489
0.8249012,0.3596351,0.4577786
0.8274378,0.3608887,0.4521198
0.8278968,0.3616083,0.4499256
0.8280078,0.3629379,0.450795
0.8282261,0.3637258,0.4503413
0.8301985,0.3603896,0.4505485
0.8326857,0.3570264,0.4543872
0.829206,0.3579759,0.4560983
0.8266167,0.3587066,0.4552942
0.8290332,0.3551483,0.4530291
0.830531,0.3531947,0.4517819
0.8292119,0.3543979,0.453584
0.8260941,0.3542542,0.4542193
0.8243754,0.3546248,0.4566824
0.8258837,0.3568614,0.4597635
0.8278799,0.3591225,0.4583188
0.8272086,0.3587532,0.45872
0.8267393,0.3575603,0.4605545
0.8282192,0.358768,0.4584748
0.8279154,0.3584191,0.4537804
0.8276578,0.3580902,0.4482554
0.8287007,0.3596838,0.448329
0.8284733,0.3597296,0.4550191
0.8276036,0.3603615,0.4584586
0.8269581,0.3624053,0.4570473
0.8253818,0.3645222,0.4565331
0.8231133,0.3641265,0.4582595
0.8248866,0.3610857,0.4597084
0.8278194,0.360034,0.4597356
0.8262966,0.3596502,0.4594787
0.8267626,0.3603682,0.4577108
0.8285437,0.3618957,0.455034
0.8265885,0.3604587,0.4531373
0.8261102,0.3590126,0.4505787
0.8275234,0.3572413,0.4498204
0.827621,0.3568163,0.4528047
0.8261141,0.3610551,0.4548373
0.8245945,0.3630104,0.4523305
0.8266732,0.3597752,0.4493466
0.828631,0.3558198,0.450826
0.826722,0.3546888,0.4556616
0.8256042,0.3544001,0.4624813
0.8259242,0.3534673,0.4654261
0.8260385,0.3552997,0.4603147
0.8281755,0.3578929,0.45651
0.8297877,0.360089,0.4569283
0.827266,0.3598246,0.4563222
0.8256087,0.3571139,0.4543743
0.8278662,0.3594514,0.4530332
0.8300663,0.3605414,0.4576812
0.8310892,0.3579436,0.4633839
0.8307239,0.3585249,0.4604082
0.8276117,0.3582282,0.4581115
0.8247995,0.3581928,0.4604754
0.8261523,0.3587194,0.4588435
0.8283561,0.3580535,0.4574923
0.8280717,0.3593663,0.4590152
0.8302743,0.3588724,0.4582231
0.8328859,0.3570667,0.456271
0.8298435,0.3567042,0.4564197
0.9951532,-0.0377011,0.2680829
0.9983451,-0.03823512,0.2615906
0.9994114,-0.03338009,0.259914
0.9975599,-0.02613033,0.2598719
0.9949027,-0.02937897,0.2537223
0.9926437,-0.03315928,0.2468275
0.9941539,-0.03527137,0.2421478
0.996767,-0.04648689,0.2428457
0.9930195,-0.05480435,0.2440292
0.9908449,-0.05405863,0.2441901
0.9967842,-0.04820978,0.2464649
1.003911,-0.04205198,0.2423718
1.007561,-0.03845235,0.2325804
1.007443,-0.03061365,0.2247077
1.008478,-0.02490194,0.2230544
1.011968,-0.02827009,0.2244176
1.011352,-0.02979757,0.2209018
1.003895,-0.02996159,0.2191815
0.9908017,-0.03888497,0.2203878
0.98349,-0.05233187,0.2236291
0.9866751,-0.06265276,0.235641
0.9879671,-0.06649932,0.2434533
0.9927009,-0.06007989,0.238423
1.00467,-0.05044622,0.2335527
1.007622,-0.04759967,0.2350058
1.00255,-0.04516132,0.2361666
1.00007,-0.03742303,0.2356341
1.000229,-0.03333462,0.2363418
1.001707,-0.03340584,0.2321852
1.003204,-0.02702566,0.2225888
1.001638,-0.01806323,0.2153403
0.997872,-0.01354134,0.2161619
0.9967816,-0.01165273,0.2204966
0.9988179,-0.01423554,0.2197634
1.003154,-0.01662353,0.2239811
1.008243,-0.01456589,0.2324087
1.010069,-0.01421514,0.2383015
1.009245,-0.01408331,0.2474363
1.006573,-0.01370891,0.2476999
1.001184,-0.01646345,0.2419386
0.9921774,-0.01872353,0.2375186
0.9819702,-0.01928407,0.2231522
0.9820353,-0.01916355,0.2126889
0.9974463,-0.02090663,0.2076753
1.017143,-0.02223932,0.1985191
1.024912,-0.01345911,0.2020631
1.017789,0.002645935,0.2104463
1.013855,0.01451962,0.2113773
1.017945,0.01587257,0.2158291
1.016023,0.01234352,0.2134681
1.01314,0.01309983,0.2062549
1.012706,0.01274835,0.2101271
1.007099,0.01067282,0.2091557
1.002725,0.01135816,0.2046441
0.9997176,0.009280165,0.2090123
0.9991414,0.004987743,0.2128163
1.003294,-0.0003088013,0.2190302
1.001416,-0.004449992,0.2254136
1.001642,-0.004255155,0.2264302
1.007179,-0.00578879,0.2274217
1.006637,-0.006666944,0.2257293
1.004919,-0.006988048,0.2260548
1.001445,-0.01236541,0.2259634
0.9972304,-0.01612786,0.2179047
0.9963974,-0.01886712,0.2117482
0.9949837,-0.02183903,0.2115031
0.9960983,-0.01843723,0.2141792
0.9962557,-0.01288054,0.2144847
0.9961374,-0.009931877,0.2128199
1.001864,-0.00906862,0.2138628
1.006233,-0.01010895,0.212773
1.008223,-0.01133972,0.2129635
1.010376,-0.01413445,0.2144811
1.012219,-0.01779456,0.2161196
1.013707,-0.01694674,0.2241945
1.013291,-0.01375395,0.2277065
1.010611,-0.01210346,0.2225963
1.006889,-0.009062876,0.2193093
1.006883,-0.007966601,0.2205571
1.004137,-0.01325853,0.2217576
0.9974372,-0.01694149,0.219158
0.9996092,-0.01613872,0.2182507
1.001423,-0.01928726,0.2153707
0.9978622,-0.02492009,0.209604
0.9986549,-0.02335232,0.2114772
0.9989179,-0.01650247,0.2167655
0.9981641,-0.01154548,0.2234365
0.9989931,-0.009856641,0.2283739
0.9987888,-0.01069331,0.2236776
1.000352,-0.008137017,0.2202497
1.002127,-0.004019514,0.2230328
1.002097,-0.007878264,0.224069
1.004692,-0.01251658,0.2258773
1.008213,-0.01261211,0.2289278
1.007379,-0.01245318,0.2266738
1.005824,-0.01040924,0.2234781
1.006377,-0.008630557,0.2215446
1.004718,-0.007673775,0.2126673
1.003977,-0.00761054,0.2037354
1.005531,-0.01118405,0.2058727
1.003909,-0.01220552,0.2096186
1.003565,-0.01016767,0.2090466
1.004901,-0.009551083,0.2134873
1.003587,-0.005916235,0.2192341
1.003248,-0.0007662125,0.2229835
1.003167,-0.001147695,0.2302164
1.004272,-0.004518774,0.2284285
1.007809,-0.008345461,0.2210339
1.009053,-0.01279531,0.2201567
1.009279,-0.01413845,0.2162342
1.007557,-0.01651516,0.2147001
1.004224,-0.02192647,0.2147898
1.004318,-0.02030761,0.2124145
1.000841,-0.01181003,0.2168551
0.9942175,-0.004484461,0.2155816
0.9963186,-0.003123372,0.2065923
1.000868,-0.008630595,0.2003332
1.000909,-0.01270708,0.200566
1.003225,-0.01359509,0.2073774
1.006999,-0.01563515,0.2078885
1.010189,-0.01307043,0.2097936
1.015214,-0.006717653,0.2152197
1.019008,-0.004962668,0.2143342
1.017575,-0.008121309,0.2204198
1.011956,-0.01090934,0.2259821
1.00718,-0.008707311,0.2228086
1.001853,-0.006363296,0.2200207
0.9969493,-0.008348048,0.2149287
0.9990696,-0.01219594,0.2090799
1.001665,-0.01675477,0.2055369
1.003922,-0.01625142,0.2075781
1.008594,-0.01387932,0.2113411
1.010205,-0.01696223,0.2117728
1.013869,-0.01739409,0.2155506
1.016152,-0.01678332,0.217583
1.011803,-0.01950591,0.2169996
1.007906,-0.02055677,0.2173694
1.002692,-0.02182324,0.2163442
1.000114,-0.01821954,0.2173172
1.00236,-0.01054583,0.2160065
1.001179,-0.009256764,0.21335
1.001458,-0.009382783,0.2126396
1.004774,-0.01272868,0.2113164
1.005862,-0.02278277,0.2121302
1.005984,-0.02845367,0.2101198
1.005717,-0.03051195,0.2081321
1.008135,-0.03492138,0.2072115
1.011008,-0.04033223,0.19702
1.008309,-0.0435037,0.1936544
1.003059,-0.04103344,0.2121478
0.9985378,-0.03899931,0.2309006
0.9965012,-0.03510426,0.2303935
0.9890036,-0.0136862,0.2378615
0.9760859,0.01592237,0.2636317
0.9811543,0.02523064,0.2623344
0.9972639,0.01827016,0.2441367
1.003354,0.02416743,0.2396811
1.004912,0.03121713,0.2341105
1.004072,0.01961287,0.2388486
1.006942,0.01052229,0.2449354
1.010543,0.004403935,0.2358336
1.004641,-0.006279551,0.2352759
1.002801,-0.01087507,0.2367725
1.000237,-0.01455121,0.2341247
0.9918235,-0.01739201,0.2289911
0.9912655,-0.02223704,0.2131154
0.9990612,-0.02732566,0.2013548
1.011289,-0.01901158,0.1990717
1.011959,-0.009225081,0.2041359
1.005997,-0.004608694,0.2104583
1.009746,-0.005318263,0.2111241
1.010302,-0.01407852,0.2194373
1.01438,-0.01923376,0.2286477
1.020426,-0.01917936,0.2324493
1.011699,-0.01323353,0.2445644
0.9983615,-0.006871909,0.2565359
0.9841296,-0.01000164,0.2577314
0.9753605,-0.01072059,0.2533862
0.9772714,-0.009434872,0.2469639
0.9832871,-0.01520376,0.2406379
0.9981146,-0.02351269,0.2368597
1.011784,-0.02841634,0.2345975
1.0112,-0.02397075,0.2309534
1.008546,-0.01719314,0.2268842
1.011927,-0.01613626,0.2248902
1.01354,-0.01693627,0.2222845
1.011792,-0.02037235,0.2184086
1.011466,-0.02620405,0.2161866
1.010178,-0.03186362,0.2158473
1.00832,-0.03490694,0.2180163
1.006326,-0.03353824,0.2204611
1.002159,-0.03447788,0.2225005
1.001919,-0.03765697,0.2225304
1.003706,-0.039454,0.216662
1.00241,-0.04694532,0.2139885
1.002604,-0.05455837,0.2155946
1.002827,-0.05281382,0.2164401
1.000299,-0.05498075,0.2219444
0.9977821,-0.06241512,0.2284379
0.9963801,-0.0592367,0.2318963
0.9965115,-0.05372025,0.233661
0.9966654,-0.05093434,0.2338612
0.9961263,-0.04368276,0.2331516
0.9959945,-0.04538079,0.2330494
0.9953707,-0.05101276,0.2354291
0.9951337,-0.04745014,0.2375277
0.9953417,-0.04855232,0.2404606
0.9956476,-0.05082198,0.2413269
0.9984878,-0.04990513,0.2377278
1.006472,-0.05252845,0.2333161
1.01648,-0.05197565,0.2243045
1.015192,-0.05572166,0.2189593
1.006955,-0.06664888,0.2186513
1.005413,-0.07387917,0.2166345
1.001671,-0.07956354,0.2198101
0.9975385,-0.08260138,0.2201959
0.994755,-0.07987919,0.2182387
0.986956,-0.07655393,0.2222841
0.9886532,-0.07939848,0.2293333
0.993036,-0.08366489,0.2435227
0.9908411,-0.08405178,0.251613
0.9948101,-0.08960424,0.2500762
0.9972223,-0.09369181,0.2534806
0.9988153,-0.08904853,0.2496545
1.005062,-0.08259503,0.2367599
1.004844,-0.07134683,0.2280355
1.003335,-0.06282716,0.2261383
1.003584,-0.06582634,0.2282176
0.9983282,-0.07124237,0.2259518
0.9923191,-0.07470637,0.2257344
0.992015,-0.07545665,0.2315631
0.9941599,-0.07182827,0.2386472
0.9937966,-0.06874455,0.2476461
0.994441,-0.06976059,0.2461089
0.9965816,-0.07146792,0.2422983
0.998206,-0.07253761,0.2483809
1.001032,-0.0720772,0.2477519
1.000437,-0.06866066,0.2468538
0.9989854,-0.06514513,0.2470033
1.000377,-0.06170081,0.2405458
0.9981015,-0.05962186,0.2422831
0.996283,-0.06084666,0.2413465
0.9979359,-0.06317165,0.2328423
0.999346,-0.06360581,0.2334494
1.002264,-0.05842935,0.2372287
1.00343,-0.05338611,0.2397854
1.001596,-0.05444645,0.2396216
1.001198,-0.05542335,0.2376548
1.002341,-0.05614409,0.2389107
1.002839,-0.05962431,0.2353874
1.000953,-0.06152933,0.2317837
0.999098,-0.06484821,0.2350845
0.9989059,-0.0720886,0.2381967
0.9977596,-0.07319046,0.2403691
0.9973534,-0.0693865,0.2400682
1.001408,-0.06759928,0.2357739
1.006813,-0.06404835,0.231612
1.007543,-0.06165719,0.2315066
1.004226,-0.06345518,0.2336291
1.000458,-0.06542111,0.2321335
0.9972756,-0.06561446,0.2329571
0.9959024,-0.06418442,0.2375247
0.9966354,-0.06191153,0.2383441
0.9975418,-0.05868262,0.2409912
0.9974979,-0.05884934,0.2443045
0.99791,-0.06000633,0.2417143
0.9991638,-0.05774247,0.2381035
1.000002,-0.06010481,0.2330562
1.001396,-0.06334578,0.2278859
1.001649,-0.06168779,0.2283886
0.9985875,-0.0598742,0.2291858
0.9976584,-0.05724245,0.227142
0.9993292,-0.05603606,0.2277896
0.9983198,-0.05587224,0.231496
0.997201,-0.05482733,0.2369205
0.9965135,-0.05595712,0.242727
0.9951493,-0.05571362,0.2420613
0.9959759,-0.05487309,0.2388546
0.9962953,-0.05497876,0.2403958
0.9968502,-0.05258932,0.2418565
1.000472,-0.05141881,0.2430919
1.002236,-0.0516932,0.2433426
1.002097,-0.05230546,0.241595
1.004658,-0.05511739,0.2391855
1.008178,-0.05614964,0.2342904
1.006249,-0.05611547,0.2344803
0.9996068,-0.05907604,0.23606
0.9960895,-0.06186628,0.2334611
0.9976927,-0.05946208,0.235316
1.000628,-0.05490113,0.2360685
1.000279,-0.05345231,0.2356795
0.9993033,-0.04985139,0.237909
1.000621,-0.04538192,0.2373627
0.99979,-0.04784417,0.2390353
0.9997445,-0.05168902,0.2421112
1.001066,-0.05317437,0.2432646
1.002163,-0.0531877,0.2424506
1.004897,-0.05128239,0.2391583
1.002587,-0.05066331,0.2404948
0.9989992,-0.04897238,0.2434279
1.000238,-0.04666718,0.2414152
1.000106,-0.04976685,0.2341562
0.9997748,-0.05333941,0.2267528
1.000046,-0.05431431,0.231131
0.9989401,-0.05761145,0.2369903
0.9980721,-0.05932629,0.2329602
0.9966985,-0.05602744,0.2312193
0.9959953,-0.05469796,0.2311445
0.9986218,-0.05596386,0.2303086
1.002547,-0.05551836,0.2352378
1.002188,-0.05542624,0.2370012
1.000256,-0.05572037,0.2318171
1.001658,-0.05577215,0.2295615
1.000636,-0.05707517,0.2316024
0.9976453,-0.05706403,0.2339449
0.9964253,-0.05465744,0.2352485
0.9955567,-0.05214029,0.2364117
0.9985788,-0.04967764,0.2385311
1.001403,-0.04667059,0.2453819
0.9997954,-0.04537042,0.2529683
1.000643,-0.04707904,0.2447675
1.002247,-0.04964028,0.2340525
1.002259,-0.05147513,0.2412174
1.003881,-0.05180742,0.244235
1.004463,-0.05211254,0.2384641
1.002601,-0.05294609,0.239572
0.9993617,-0.05178491,0.2374711
0.996031,-0.05001987,0.2334051
0.9951498,-0.05028051,0.2351548
0.9965893,-0.05276702,0.2369353
0.9990663,-0.05469427,0.2362214
1.002304,-0.0525881,0.231633
1.003811,-0.0499399,0.2301491
1.002049,-0.0496842,0.2352732
1.000702,-0.04820444,0.2409588
0.9999878,-0.04630499,0.245093
0.9993924,-0.04658075,0.2444096
1.000497,-0.04652199,0.2431245
0.9998148,-0.04712146,0.2433327
0.9987013,-0.05014627,0.2417405
0.9986705,-0.05224651,0.2399432
0.9971048,-0.05165591,0.2365654
0.9964588,-0.05094724,0.2379209
0.9970274,-0.05275352,0.2425473
0.9998797,-0.05414328,0.2423155
1.002649,-0.05389755,0.2428245
1.000245,-0.05340629,0.2405973
0.9992389,-0.05137159,0.2359033
1.000856,-0.0509799,0.2346704
1.001981,-0.05212611,0.2317229
1.00507,-0.05291901,0.2301922
1.006425,-0.05482636,0.2309841
1.005066,-0.0536971,0.2302234
1.004357,-0.04984913,0.2313389
1.00323,-0.04704161,0.2342894
1.001925,-0.0465899,0.2369567
1.001056,-0.04871809,0.2370872
0.9996782,-0.04942533,0.2369951
0.9995378,-0.05060252,0.2398014
1.000522,-0.05210236,0.2390142
0.9991458,-0.04959874,0.2366534
0.9960018,-0.04935006,0.2383853
0.9928557,-0.05211533,0.2386736
0.9924206,-0.05315137,0.238479
0.9958017,-0.05457906,0.2419221
0.9972339,-0.05461918,0.2454063
0.9971739,-0.05351578,0.245901
0.997927,-0.05413665,0.243458
0.9986089,-0.05249282,0.2398182
1.000719,-0.05047034,0.2378246
1.000359,-0.05190042,0.2386331
0.9992233,-0.05341579,0.2376133
1.000583,-0.05408779,0.2350058
0.9995043,-0.05237987,0.2359856
0.9979693,-0.04861626,0.2357224
0.9969107,-0.04820174,0.2341059
0.9955756,-0.04983066,0.23578
0.9952584,-0.05040009,0.2362347
0.9944309,-0.05093754,0.2336305
0.9978502,-0.05205025,0.2305927
1.004466,-0.05425497,0.2303525
1.00671,-0.05620252,0.2315634
1.004795,-0.05498099,0.2290294
1.000476,-0.05024855,0.2284349
0.9975581,-0.04561088,0.2335723
0.9979172,-0.04495202,0.2376583
0.9973848,-0.04599041,0.2396575
0.9951965,-0.04432428,0.2394512
0.9952751,-0.04300934,0.2379604
0.9968385,-0.04535307,0.2407544
0.9961817,-0.04759899,0.246476
0.9965283,-0.04882694,0.2524039
0.99752,-0.04922795,0.2529738
0.9984085,-0.04841348,0.2479448
1.001197,-0.05042835,0.2459008
0.9995624,-0.05234052,0.2405472
0.9962592,-0.05074447,0.2361999
0.9950369,-0.04948112,0.239678
0.9933867,-0.04829654,0.2365491
0.99487,-0.04856173,0.2338065
0.9949953,-0.05093271,0.2371591
0.9945486,-0.05167574,0.2361311
0.9973502,-0.05134357,0.2357428
0.998318,-0.0503518,0.2360659
1.000804,-0.04965906,0.2341384
1.002679,-0.05047931,0.2329178
1.00204,-0.05177228,0.2335281
1.002642,-0.05294708,0.2365405
1.000852,-0.05124851,0.2382458
1.000207,-0.04896562,0.2383979
0.9987008,-0.04972268,0.2376669
0.9940617,-0.04863927,0.2354648
0.9959356,-0.0459104,0.2343864
0.9989254,-0.04501353,0.2353714
0.9993006,-0.04208945,0.237033
1.001856,-0.03764435,0.2369092
1.002844,-0.03553524,0.2375471
1.004475,-0.03287239,0.2386723
1.006402,-0.02931136,0.2366398
1.003875,-0.02906114,0.2331412
1.000967,-0.03275016,0.2251731
0.9994384,-0.03789904,0.2171777
0.9996319,-0.04008257,0.2192471
1.000432,-0.03875381,0.2245256
0.9987993,-0.03918636,0.2258389
0.9978718,-0.04353214,0.2275442
0.9970669,-0.0492323,0.2318258
0.9956913,-0.05223876,0.2338182
0.998716,-0.05111247,0.2299362
1.003031,-0.04918149,0.2260109
1.00265,-0.04856935,0.2280749
0.9986468,-0.04923039,0.2310843
0.9952541,-0.05017338,0.2329299
0.9953169,-0.04834653,0.23597
0.9963695,-0.04622147,0.2344606
0.9962482,-0.04826316,0.2310095
0.9982879,-0.05204094,0.2309831
1.001482,-0.05511761,0.2317371
1.001938,-0.05582886,0.2336627
1.001768,-0.05757304,0.231161
0.9990169,-0.06214994,0.2281452
0.9939705,-0.05844659,0.2341452
0.9954545,-0.05270887,0.2370384
0.9985231,-0.05532054,0.2301967
0.9983154,-0.05196756,0.2210701
1.000877,-0.04601226,0.2185312
1.00169,-0.04869342,0.2268489
1.00149,-0.04864072,0.2345268
1.004051,-0.04550911,0.2324903
1.003509,-0.04479887,0.2280835
1.0037,-0.04275693,0.2295963
1.003793,-0.04318359,0.2307113
0.9999699,-0.0457614,0.2278225
0.9995683,-0.04533617,0.2295913
1.000292,-0.04666617,0.2302442
0.9999381,-0.05002944,0.225385
1.00097,-0.05288823,0.2250656
1.000561,-0.05616612,0.2266228
0.9997203,-0.05277858,0.2245644
0.9989052,-0.04821866,0.224327
0.9985882,-0.05394623,0.2260234
0.9995933,-0.05759817,0.2255611
1.000333,-0.05450686,0.2272535
1.00114,-0.0533622,0.231598
1.001567,-0.05178165,0.2333959
1.002419,-0.05062933,0.2314889
1.002717,-0.05192422,0.2268445
1.000866,-0.05271393,0.2252044
0.9995371,-0.05422254,0.2239333
0.9997209,-0.0544495,0.2226832
1.000414,-0.05111459,0.2289107
0.9998981,-0.04961326,0.2330169
0.9999205,-0.0500568,0.2340339
1.001299,-0.04780186,0.2375133
1.001363,-0.04569325,0.2408676
1.001543,-0.04601709,0.2431767
1.001554,-0.04849822,0.2342204
1.00207,-0.05378717,0.2250765
1.003372,-0.05735734,0.2295315
1.002458,-0.05744949,0.2307024
1.00173,-0.05747499,0.2288727
1.001368,-0.05537946,0.2311841
1.001059,-0.05119988,0.2309153
1.001912,-0.05108432,0.2285445
1.002143,-0.05149448,0.2236771
1.002603,-0.04905241,0.2186547
1.001319,-0.05086882,0.2244936
0.9990242,-0.05246848,0.2330207
1.000375,-0.0498832,0.228697
1.002237,-0.04773118,0.2246781
1.002911,-0.04314686,0.2242376
1.003144,-0.0423377,0.2194401
1.002443,-0.04809284,0.2248555
1.002803,-0.05206101,0.232781
1.00301,-0.05652868,0.2296281
1.002492,-0.05962775,0.2275123
1.002943,-0.05767245,0.2276647
1.002616,-0.05414213,0.2258637
1.001731,-0.05095419,0.2238827
1.001483,-0.05086502,0.2252854
1.002045,-0.05185626,0.2283368
1.002926,-0.05128261,0.2299468
1.001069,-0.05090397,0.2333697
0.9990819,-0.04903072,0.232451
1.000118,-0.04446071,0.2315023
1.000653,-0.04167691,0.2364953
1.00149,-0.04314367,0.2409152
1.003443,-0.04399406,0.2462042
1.003031,-0.04484452,0.2387789
1.002259,-0.04922979,0.2236796
1.003063,-0.05189423,0.2245768
1.002304,-0.05356297,0.2229077
0.9998365,-0.05822736,0.2132141
0.9978655,-0.05873636,0.2142558
0.9972938,-0.05289496,0.2217088
0.9975075,-0.04911278,0.2270852
0.9973325,-0.04967958,0.2266246
0.9989236,-0.05043486,0.22785
1.000884,-0.0499229,0.2342319
0.9998792,-0.04924598,0.2329906
0.999885,-0.04704096,0.2324223
1.001412,-0.04223877,0.2387383
1.002345,-0.04042453,0.2367002
1.003213,-0.04218436,0.2313193
1.00273,-0.04178996,0.2321561
1.002569,-0.041312,0.2347574
1.002851,-0.04320196,0.2370519
1.001549,-0.04780987,0.2356016
0.9997153,-0.0537927,0.2313069
0.9970082,-0.05439616,0.2273426
0.9953681,-0.0526566,0.2249756
0.997674,-0.05436478,0.2267297
1.000304,-0.05569172,0.2269253
0.9995399,-0.05508982,0.2256254
0.9984891,-0.05102705,0.2268825
0.9991448,-0.04680953,0.227226
0.9998436,-0.04862,0.2305704
1.002421,-0.04941274,0.2363496
1.004051,-0.0478981,0.2399861
1.001709,-0.04871393,0.2447491
1.000829,-0.04763185,0.245358
0.9999376,-0.04597248,0.2421373
0.9980789,-0.04713364,0.2431584
0.9983123,-0.05066298,0.2402814
0.9976732,-0.05513337,0.2340005
0.9985068,-0.05763759,0.2330128
0.9996468,-0.06160427,0.2306687
0.9985285,-0.06592849,0.2294559
0.9998026,-0.06050951,0.2295369
1.000023,-0.05113825,0.2252143
1.00113,-0.04894128,0.2276609
1.00429,-0.04661456,0.2321255
1.002476,-0.04553366,0.2326885
1.002021,-0.05225231,0.2363769
1.0027,-0.05395583,0.2362633
1.00054,-0.05086885,0.235535
1.001081,-0.05046145,0.2359293
1.000014,-0.04856101,0.2329443
0.9975856,-0.04838239,0.231544
0.9988885,-0.04888301,0.2288372
0.9998385,-0.04898318,0.2309942
0.9999701,-0.05200789,0.2365608
1.000205,-0.05233288,0.2338671
1.00003,-0.04945597,0.231173
1.000899,-0.04815536,0.2290475
1.00157,-0.04903886,0.2286431
1.000514,-0.04903974,0.2344817
0.9997297,-0.04983412,0.2353263
1.000916,-0.05275592,0.2314285
1.001857,-0.05183392,0.2305567
1.001319,-0.05101627,0.2338982
1.001235,-0.05191921,0.2373921
1.001723,-0.05148754,0.2344572
1.00223,-0.05163946,0.2322055
1.003004,-0.04892286,0.2356661
1.002791,-0.04719114,0.2365363
1.001078,-0.0483314,0.2336772
0.9985509,-0.0484188,0.2309638
0.9967297,-0.04914199,0.2302531
0.9989024,-0.04866607,0.2325039
1.002111,-0.05002958,0.234253
1.001116,-0.05159383,0.2341765
0.9992354,-0.04899456,0.2349098
0.998599,-0.04802316,0.2361033
0.9990916,-0.04713513,0.2370547
1.000345,-0.04663523,0.2367995
0.9980613,-0.04783392,0.2318429
0.9953154,-0.04820873,0.2254774
0.9958298,-0.05337318,0.2255804
0.9959122,-0.05932377,0.2293741
0.9963015,-0.05794359,0.2327169
0.9987691,-0.05587985,0.2361488
1.001611,-0.05671909,0.2351565
1.002083,-0.05418211,0.2331241
1.000809,-0.05007894,0.2341794
1.001309,-0.05034141,0.2327782
1.000606,-0.04939321,0.2330099
0.9986089,-0.04534038,0.2335438
0.9995823,-0.04575714,0.2287106
1.001396,-0.04785993,0.2262958
1.002618,-0.04747491,0.2268982
1.003044,-0.05037149,0.2280729
1.002648,-0.05262695,0.2287376
1.002645,-0.04891128,0.2283556
1.001876,-0.04781612,0.2297786
1.001092,-0.04945189,0.2274261
1.001343,-0.04981494,0.2256364
1.001691,-0.05023966,0.2274512
1.002081,-0.04828726,0.2256905
1.002073,-0.04786935,0.2266932
1.00133,-0.04942574,0.2286542
1.001204,-0.0488126,0.2279915
1.002553,-0.05112673,0.2274108
1.002734,-0.05470969,0.2226538
1.000834,-0.05631756,0.2201367
0.9995266,-0.05895137,0.223457
1.000293,-0.05805975,0.2266467
1.003074,-0.05190002,0.228078
1.00486,-0.0477269,0.2289814
1.004113,-0.04858417,0.2299445
1.002982,-0.05187818,0.2277584
1.002565,-0.05355867,0.2271475
1.002477,-0.05273031,0.2285659
1.001009,-0.05200557,0.2276961
0.9995837,-0.04991611,0.2306677
1.000754,-0.04596787,0.2330095
1.002524,-0.04493495,0.2313581
1.004045,-0.04645004,0.2301205
1.0057,-0.0473732,0.2285536
1.004032,-0.04982948,0.2294695
0.9997421,-0.05258271,0.2314738
0.9997603,-0.05163224,0.2330477
1.00236,-0.05161248,0.2338652
1.002802,-0.05308802,0.2320225
1.001474,-0.05003924,0.2316811
0.9977835,-0.04738667,0.2317327
0.9972742,-0.04892022,0.2298696
1.000941,-0.04988213,0.227867
1.000646,-0.05013736,0.2273246
0.9991596,-0.05105102,0.2290682
1.000293,-0.05176517,0.2301683
1.000411,-0.05216099,0.2320212
1.000678,-0.05204662,0.233801
1.002783,-0.05091235,0.2327306
1.003208,-0.0493073,0.2346325
1.002433,-0.04833661,0.2371671
1.002935,-0.04889228,0.2362294
1.002787,-0.05155624,0.2370276
1.002835,-0.05305393,0.2372094
1.00384,-0.05021451,0.2361071
1.004286,-0.0474002,0.2373051
1.004538,-0.04920139,0.2353523
1.004677,-0.05305871,0.229441
1.004956,-0.05565367,0.2244231
1.003986,-0.05662665,0.2235835
1.002549,-0.0569597,0.2250474
1.002093,-0.05867027,0.2245067
1.000911,-0.05869743,0.2257351
1.001419,-0.0551904,0.2222107
1.002768,-0.05243033,0.2154437
1.002617,-0.04979162,0.2214137
1.002687,-0.049201,0.2284696
1.000912,-0.05101739,0.2322059
0.9992679,-0.05052608,0.2376478
1.000111,-0.05148356,0.2321065
1.000144,-0.05289886,0.2272743
0.9997077,-0.05510959,0.2351891
0.9984167,-0.0601215,0.2400824
0.9947715,-0.05854401,0.2381058
0.9922404,-0.05477948,0.2379611
0.9950878,-0.05402863,0.237989
0.999869,-0.05097704,0.2351741
1.000715,-0.04996486,0.2356583
1.00091,-0.04747262,0.2374479
1.002571,-0.04167961,0.237197
1.002901,-0.04238501,0.2395357
1.001923,-0.04434733,0.2398457
1.000911,-0.04331409,0.2397023
1.001406,-0.04471011,0.2421294
1.001837,-0.04547261,0.2370072
1.001982,-0.04649867,0.2279656
1.003218,-0.04975367,0.2247758
1.00289,-0.04935553,0.226171
1.002437,-0.04946583,0.227321
1.0027,-0.05203328,0.2263794
1.000891,-0.048152,0.2296169
0.9990426,-0.04204914,0.2359081
0.998126,-0.040752,0.2401446
0.9967972,-0.04091766,0.2466478
0.9959725,-0.04177422,0.2505763
0.9957151,-0.04435737,0.2434376
0.9948194,-0.04681194,0.2354838
0.9943253,-0.04633646,0.238157
0.9957441,-0.04590606,0.2381256
0.9979473,-0.04784735,0.2285908
0.9988441,-0.04647232,0.2266841
0.9968812,-0.04454849,0.2322194
0.9949287,-0.04385298,0.237903
0.9959036,-0.03761799,0.2424166
0.9967337,-0.0297238,0.2406664
0.9981639,-0.02706877,0.2423625
1.000949,-0.03220359,0.2480522
1.000393,-0.03880895,0.2470237
0.9992177,-0.03721154,0.2441406
1.000439,-0.03647703,0.2424451
0.9995402,-0.04233485,0.2419476
0.9969388,-0.0460005,0.240689
0.9955743,-0.04650326,0.2381753
0.996232,-0.04653903,0.2391544
0.9980453,-0.04729898,0.2372468
0.9976101,-0.04748983,0.2343307
0.9987853,-0.04534428,0.2380364
1.002933,-0.04230288,0.2389652
1.003448,-0.03646631,0.236915
1.003158,-0.03009779,0.2362517
1.003005,-0.02943775,0.2342311
0.9987431,-0.03525566,0.2371729
0.9950136,-0.04151804,0.2404539
0.9963033,-0.04173141,0.2374396
1.000909,-0.0460076,0.2373387
1.003912,-0.05449288,0.2398485
1.00311,-0.04982456,0.2415144
1.001959,-0.04397393,0.2421014
1.001894,-0.04686081,0.2396458
1.000519,-0.04601682,0.2364926
0.9990094,-0.04705329,0.23337
0.9996176,-0.05004074,0.2320567
0.9994311,-0.0481046,0.2297101
0.9996965,-0.04827737,0.2238889
1.000746,-0.04796453,0.2236879
0.9994977,-0.04563077,0.2277117
0.9999703,-0.04574373,0.2290812
1.000442,-0.04564407,0.2309966
0.9996335,-0.0449956,0.2337259
1.001259,-0.04418739,0.233744
1.001608,-0.0442142,0.2324596
1.001095,-0.04501297,0.231794
1.000642,-0.04579239,0.2301154
0.9995118,-0.05005929,0.2303679
1.000274,-0.05453623,0.2331045
1.001017,-0.05327664,0.2329497
1.001661,-0.04614812,0.2307503
1.002547,-0.03816025,0.2283765
1.002729,-0.03849345,0.2291069
1.003048,-0.04578888,0.2330173
1.002607,-0.05045805,0.2344985
1.002538,-0.05067478,0.2344641
1.002112,-0.04960035,0.2308638
1.001052,-0.04967649,0.226107
1.002311,-0.04950208,0.2277979
1.003272,-0.04805041,0.230929
1.002654,-0.0476229,0.2337296
1.002338,-0.04457378,0.2362176
1.00108,-0.03991155,0.2319303
0.999442,-0.04146193,0.2251997
0.9993835,-0.0440592,0.2252974
0.998678,-0.04435531,0.2267474
0.9969978,-0.04688597,0.2246174
0.9997471,-0.0480629,0.2274242
1.00381,-0.04797419,0.2308425
1.002732,-0.04757581,0.2292176
1.001371,-0.04413924,0.2306959
1.001543,-0.04260068,0.2301258
1.001105,-0.04371849,0.2248348
1.001552,-0.04610782,0.2243239
1.001445,-0.04905086,0.2251398
1.001182,-0.04825174,0.2233507
1.001788,-0.04851916,0.2262582
1.002157,-0.04927979,0.2312902
1.002865,-0.04794583,0.2311154
1.001922,-0.05001118,0.2319848
0.9998719,-0.05053565,0.233353
0.9994769,-0.05042609,0.2287488
0.9983152,-0.05218443,0.2248305
0.9966344,-0.05053139,0.2260204
0.9970436,-0.04866485,0.2277145
0.9979523,-0.04667487,0.2278881
0.9990168,-0.04670385,0.2303157
1.001706,-0.04963677,0.2308481
1.004049,-0.05101795,0.2242807
1.005136,-0.05362691,0.2179692
1.006065,-0.05338197,0.2161043
1.005351,-0.05168365,0.2209303
1.004318,-0.05351244,0.2260933
1.003573,-0.05269825,0.2231903
1.000289,-0.05217888,0.2229737
0.9976643,-0.05246226,0.2254928
0.9983226,-0.05068525,0.2252218
0.9991316,-0.05123895,0.2278787
0.9984886,-0.05084598,0.2300109
0.9985077,-0.04826142,0.2294337
1.000418,-0.04442344,0.2297464
1.002766,-0.03839934,0.2308875
1.005168,-0.03803882,0.2303537
1.005475,-0.04343599,0.2273673
1.004986,-0.04721868,0.2258334
1.006193,-0.04919445,0.2274208
1.00431,-0.04726968,0.2329219
0.9998547,-0.04436766,0.2371854
0.9959846,-0.04651494,0.2311724
0.9953934,-0.04814239,0.2222063
0.998217,-0.04877505,0.2211142
0.9987327,-0.05074324,0.2237486
1.000244,-0.04965774,0.2239185
1.000976,-0.04786876,0.2250119
0.9988054,-0.04666628,0.2317343
1.000582,-0.04535658,0.2376321
1.000254,-0.04565478,0.23264
0.9993752,-0.04504257,0.2260997
1.001755,-0.04430508,0.2309434
1.001148,-0.045435,0.2344728
1.001497,-0.04730802,0.2313034
1.001425,-0.04852991,0.2299289
0.9999988,-0.04878185,0.2263888
1.000273,-0.04968716,0.2243578
0.9995492,-0.04997364,0.2269899
1.000219,-0.04913706,0.2282436
1.000008,-0.0490772,0.2296284
0.9986333,-0.05192769,0.2348627
0.9988388,-0.05546923,0.2438928
0.9987432,-0.05333218,0.2451588
1.001492,-0.05013756,0.2401105
1.003755,-0.04886173,0.2388271
1.002508,-0.04492933,0.2316455
1.001692,-0.0423736,0.2248613
1.000996,-0.04165373,0.224482
1.000496,-0.04100371,0.2227476
0.9998211,-0.04181454,0.2257534
1.000131,-0.03991903,0.2275718
1.002299,-0.03878947,0.2249816
1.003999,-0.04399653,0.2247103
1.004686,-0.04913695,0.224532
1.003612,-0.0487129,0.2304041
1.002025,-0.04441608,0.2381121
1.000292,-0.04231542,0.239452
0.9988745,-0.04484165,0.2388789
0.9986204,-0.04675316,0.2356535
0.9967706,-0.04584615,0.234016
0.9968013,-0.0453584,0.23608
0.9994632,-0.04654835,0.2370241
1.001144,-0.04762815,0.2372438
1.003244,-0.04885991,0.236581
1.001527,-0.04917941,0.237486
0.9984848,-0.04816817,0.2383509
0.9998543,-0.04968051,0.2377377
0.9977515,-0.05039344,0.239412
0.9943574,-0.04870205,0.2391735
0.9965091,-0.04854508,0.2382714
0.9993777,-0.04847504,0.2390343
1.002132,-0.04869765,0.2369211
1.003631,-0.04872687,0.2352669
1.001567,-0.04833729,0.2351047
1.000829,-0.04853321,0.2336952
1.001732,-0.04668206,0.2329136
1.00132,-0.04523863,0.2333337
1.001288,-0.0458179,0.2330386
1.001541,-0.04600425,0.230453
1.001271,-0.04581385,0.228897
1.001613,-0.0460473,0.2320385
1.002308,-0.04778234,0.2363501
1.00298,-0.04839336,0.2361077
1.002784,-0.04515203,0.2319768
1.001622,-0.04173964,0.2299697
1.001232,-0.04300619,0.2320895
1.001526,-0.04584968,0.2344083
1.002327,-0.04576582,0.2328588
1.003455,-0.04631749,0.2299594
1.004565,-0.04775961,0.229509
1.005441,-0.04839658,0.2313511
1.003006,-0.04745758,0.2345028
0.9992337,-0.04485941,0.2338305
0.9995977,-0.04677294,0.2321691
1.000619,-0.04994713,0.2341576
1.000018,-0.05210004,0.2334394
1.001761,-0.05731001,0.2336882
1.003209,-0.0579562,0.234843
1.000947,-0.05529504,0.2298147
0.9991746,-0.05379182,0.2263544
1.000725,-0.04997467,0.2275808
1.003944,-0.04890858,0.2289489
1.005826,-0.04919252,0.2302645
1.003144,-0.04778431,0.231869
0.9992047,-0.04929438,0.230139
1.000491,-0.05051067,0.2259873
1.002644,-0.05063722,0.2277165
1.001847,-0.0511292,0.228904
1.002895,-0.05010766,0.2277073
1.002959,-0.05005521,0.2336746
1.000733,-0.05020025,0.2368381
1.001375,-0.05114535,0.2307921
1.00228,-0.05421087,0.2255614
1.001265,-0.05353271,0.2276668
1.000107,-0.05066084,0.2315047
0.999839,-0.05082928,0.2317996
1.000319,-0.05180359,0.2335383
1.000746,-0.05030585,0.2313081
1.00193,-0.04838499,0.2270908
1.00243,-0.0488905,0.2299791
1.002671,-0.04943204,0.2304912
1.003031,-0.05016937,0.2300082
1.00155,-0.05022118,0.2308449
1.001319,-0.04891329,0.2269253
1.002418,-0.05044289,0.2239134
1.002925,-0.05188038,0.2228434
1.003033,-0.05111904,0.2231947
1.002634,-0.04949813,0.2251684
1.003789,-0.04828634,0.2267112
1.004222,-0.05046143,0.228438
1.002204,-0.05215365,0.2292157
1.000898,-0.05101578,0.2311146
1.001154,-0.04933812,0.2308536
1.0018,-0.04818716,0.2275463
1.001413,-0.04905272,0.2268106
1.002102,-0.05147766,0.225224
1.003395,-0.0531912,0.2257246
1.002421,-0.05124714,0.229053
1.001762,-0.04888609,0.2293415
1.001521,-0.0499472,0.2291956
1.001972,-0.04953572,0.2275454
1.003025,-0.04808508,0.2241752
1.000786,-0.04956008,0.2204021
0.9982674,-0.05057711,0.2180629
0.9986114,-0.04962236,0.2200926
0.9998321,-0.04901545,0.2206401
1.001342,-0.04852126,0.2205112
1.002582,-0.04836681,0.2218032
1.003018,-0.04921897,0.2223519
1.002952,-0.05033343,0.2251155
1.003551,-0.05145802,0.2261038
1.004191,-0.05000886,0.2262648
1.00245,-0.04785723,0.2295367
1.000429,-0.05043079,0.2297
1.000797,-0.05249547,0.2286067
1.001567,-0.05104775,0.2294414
1.001486,-0.05138364,0.229344
1.001691,-0.05259205,0.2299217
1.002762,-0.05266982,0.2311534
1.002826,-0.05185781,0.2314743
0.9997961,-0.05007371,0.2316571
0.997593,-0.04981488,0.2304112
0.9989104,-0.05109651,0.2276879
0.9998001,-0.05163303,0.2253969
0.9999894,-0.05143929,0.2230815
1.000233,-0.05142652,0.2228001
1.000146,-0.05234166,0.2244629
1.001845,-0.05310518,0.2234472
1.003406,-0.05241943,0.2233198
1.002491,-0.05068941,0.2251619
1.0007,-0.04864682,0.2257424
0.9999559,-0.04829505,0.2299375
1.001645,-0.0497782,0.2353965
1.003209,-0.05012981,0.2361732
1.001131,-0.04866694,0.2350394
0.9991237,-0.04651479,0.2342659
1.001195,-0.04540053,0.233878
1.002995,-0.04671351,0.2333058
1.002675,-0.0477961,0.234011
1.002905,-0.04726961,0.2351484
1.002736,-0.04794836,0.2337201
1.002684,-0.04909843,0.2328783
1.002956,-0.04825035,0.2330961
1.002611,-0.04659818,0.2312536
1.0025,-0.04548499,0.2283454
1.001022,-0.04573934,0.2278871
0.9993439,-0.04708178,0.2297184
0.9999176,-0.0475739,0.229779
1.000677,-0.04805981,0.2304595
1.00161,-0.04892932,0.2333399
1.003279,-0.0490062,0.2348146
1.003146,-0.05059763,0.2363399
1.002239,-0.05383286,0.2368514
1.002998,-0.05418219,0.2354305
1.002588,-0.05037097,0.2358517
1.000636,-0.04733931,0.2347218
0.9997506,-0.04845054,0.2322668
0.9996969,-0.04983832,0.2330784
1.000292,-0.05084726,0.231979
1.000036,-0.05357277,0.2289975
0.9996899,-0.05341522,0.2279253
1.00035,-0.0518239,0.2259757
1.000177,-0.05305863,0.2262417
1.001722,-0.0518932,0.2298171
1.003567,-0.04967741,0.2311364
1.002707,-0.04995343,0.2307983
1.002554,-0.04898939,0.2314401
1.002952,-0.04832418,0.2331048
1.00274,-0.04869344,0.2338881
1.002567,-0.04854016,0.2334128
1.0019,-0.04873865,0.2350627
1.001155,-0.04813504,0.2368972
1.001033,-0.04684713,0.2360809
1.000759,-0.04539138,0.2358229
1.000334,-0.04543481,0.2363364
1.003373,-0.04660737,0.2360654
1.007055,-0.04642591,0.2360389
1.005167,-0.04739045,0.2358388
1.001893,-0.04768157,0.2337582
1.000258,-0.04647163,0.229723
0.9993347,-0.04663292,0.2264009
1.000232,-0.04561725,0.2259013
1.00043,-0.04578719,0.2271288
1.000469,-0.0481663,0.2291319
1.002129,-0.04936835,0.2305118
1.002191,-0.05096651,0.2274065
1.001925,-0.05073377,0.2232668
1.002495,-0.04802667,0.2250104
1.002574,-0.04795246,0.2269212
1.003129,-0.04890457,0.2258447
1.002709,-0.04622008,0.2261271
1.002153,-0.0422264,0.223871
1.001384,-0.04160095,0.2220282
0.9993629,-0.04444524,0.2277015
1.000698,-0.04781762,0.2324287
1.002284,-0.04740508,0.2295589
1.000991,-0.04470564,0.2260133
1.001521,-0.04429202,0.2272773
1.002526,-0.04446684,0.2309995
1.002811,-0.04504034,0.2338483
1.002668,-0.04434866,0.2315393
1.000751,-0.04137198,0.2272937
0.9995159,-0.04177779,0.2305392
1.000075,-0.04489695,0.2342639
1.00113,-0.04721692,0.2354336
1.000885,-0.04693432,0.2378799
0.9977912,-0.04505785,0.2322833
0.9947251,-0.04601028,0.2274015
0.9957504,-0.04714713,0.2340035
0.9984764,-0.04671794,0.2378706
0.9991065,-0.04574179,0.232904
1.000403,-0.0442628,0.2257144
1.002047,-0.04701971,0.2223309
1.00135,-0.05096425,0.224326
1.001202,-0.05016023,0.2269359
1.001542,-0.04951648,0.2269106
1.001315,-0.05053626,0.2276816
1.001607,-0.05079043,0.230166
1.002242,-0.05156993,0.2288756
1.003088,-0.05165876,0.2267518
1.002877,-0.05158503,0.2264775
1.002531,-0.05404328,0.2260205
1.002959,-0.0555483,0.2274982
1.002731,-0.05403046,0.2268648
1.002723,-0.05324859,0.2240037
1.002869,-0.05317895,0.2230867
1.002345,-0.05261689,0.2224832
1.001029,-0.05438703,0.222155
0.9994545,-0.05600762,0.2210915
1.00012,-0.05506339,0.2210901
1.002233,-0.05535286,0.2238831
1.002915,-0.05355217,0.226524
1.001852,-0.04900171,0.2271388
1.000213,-0.04818795,0.2258318
1.00069,-0.04968734,0.2261919
1.002815,-0.05133767,0.2261313
1.003096,-0.05179652,0.2247159
1.002236,-0.0503125,0.2249253
1.001029,-0.04784067,0.22249
0.999472,-0.04383762,0.2213206
0.9997722,-0.04376377,0.2238795
1.000418,-0.0463162,0.2237239
1.000146,-0.04601839,0.2234439
1.001727,-0.04760007,0.2238127
1.00352,-0.04955434,0.223758
1.002822,-0.0493988,0.2255553
1.002412,-0.04976785,0.2268793
1.003227,-0.04841619,0.2263709
1.003454,-0.04666259,0.2253812
1.003594,-0.0479525,0.2251569
1.003496,-0.048991,0.223334
1.002768,-0.04667305,0.2178926
1.001145,-0.04499956,0.2151044
0.9991446,-0.04671445,0.2178272
1.000204,-0.04960365,0.2220224
1.002432,-0.05189647,0.2262041
1.002798,-0.05014493,0.2276476
1.003105,-0.04722187,0.2261129
1.002617,-0.04877438,0.2273935
1.002759,-0.04975806,0.2277022
1.004072,-0.05007318,0.2233109
1.004104,-0.05124391,0.221537
1.004006,-0.04784883,0.2204013
1.002344,-0.04535942,0.2192367
1.000631,-0.04568269,0.2225543
1.001865,-0.04393091,0.2230777
1.00351,-0.0460577,0.2224796
1.005457,-0.04859491,0.2252976
1.0054,-0.04662015,0.2258109
1.001633,-0.04698176,0.2273525
0.9989607,-0.04672321,0.2302482
0.9995075,-0.04547297,0.2291302
0.999803,-0.04783248,0.2277303
0.998013,-0.0492438,0.2278336
0.9984915,-0.04883207,0.2276907
1.000349,-0.04924008,0.2276011
1.000667,-0.05018894,0.2267836
1.00186,-0.04937027,0.2251457
1.001907,-0.04785834,0.2248128
1.002665,-0.0488103,0.2265832
1.004827,-0.04883429,0.2295459
1.00222,-0.04842355,0.2324631
0.9994237,-0.04926264,0.2332997
1.000194,-0.04782606,0.2329724
1.001327,-0.04668777,0.232698
1.003416,-0.04787907,0.2308673
1.004994,-0.04772428,0.2281447
1.004883,-0.04655445,0.2260818
1.004657,-0.04752886,0.2274669
1.004008,-0.04851664,0.2307368
1.002984,-0.0481684,0.2304067
1.002653,-0.04794524,0.2317938
1.002415,-0.04575003,0.2348213
1.000978,-0.04430167,0.2322679
0.9996935,-0.04526806,0.2292632
1.00063,-0.04673946,0.2274305
1.002062,-0.04978915,0.2266356
1.001373,-0.04979442,0.2282209
1.000995,-0.04837646,0.2273292
1.001793,-0.04915326,0.2272916
1.00069,-0.04782761,0.2270733
0.9991313,-0.04713254,0.2259449
0.9988244,-0.04718098,0.2315794
0.9992864,-0.04694411,0.2349806
0.998934,-0.04772073,0.2329435
0.9978719,-0.04649648,0.2332265
0.9993476,-0.04561224,0.2328436
1.000624,-0.04479459,0.230191
1.001513,-0.04377707,0.2256474
1.00289,-0.04396867,0.2238872
1.001851,-0.04289288,0.2273819
1.002885,-0.04489164,0.2311532
1.00436,-0.04759238,0.2341604
1.003238,-0.04664027,0.2316327
1.001899,-0.04719362,0.2258328
0.9988763,-0.04810513,0.2242259
0.9983929,-0.0471793,0.2237631
0.9984739,-0.04565964,0.2261619
0.9963338,-0.0446372,0.2298871
0.9984684,-0.0434872,0.2291807
1.000264,-0.04309983,0.229716
0.9997236,-0.04696091,0.2301811
1.000345,-0.04995646,0.2255702
1.000158,-0.04958925,0.2251954
1.001911,-0.05037869,0.2304369
1.004641,-0.05291281,0.2329471
1.005256,-0.05501163,0.2351127
1.005536,-0.0537298,0.234891
1.004197,-0.05015459,0.2308707
1.00108,-0.04504101,0.229258
0.999169,-0.04163101,0.2253365
0.9998483,-0.04523439,0.2230026
1.000529,-0.0489947,0.2251006
0.9996539,-0.04865874,0.2235493
0.718487,0.4705686,0.534111
0.7188261,0.4680463,0.5394055
0.7201167,0.4673269,0.5389607
0.7166225,0.4733912,0.534004
0.7156463,0.4807316,0.5300331
0.7139539,0.4773126,0.5325411
0.7105492,0.4715497,0.5344824
0.7065897,0.4707211,0.5393225
0.7058946,0.4701691,0.545644
0.7103962,0.4710248,0.5442727
0.7117344,0.4702579,0.5434402
0.7128396,0.4681147,0.5453428
0.7141527,0.4681244,0.5441065
0.7131943,0.4662007,0.5431275
0.7143451,0.465855,0.543309
0.7125526,0.4666795,0.5426999
0.7099559,0.464461,0.5429577
0.7099784,0.4651666,0.5420641
0.7103851,0.4655289,0.5392088
0.7136716,0.4625227,0.5388753
0.714342,0.460496,0.5406522
0.7125614,0.4598631,0.5419383
0.7125287,0.4641513,0.5401901
0.7125274,0.4685515,0.5382102
0.7147714,0.4664957,0.5418015
0.7166926,0.4649777,0.5441138
0.7172311,0.4655967,0.5412095
0.7185639,0.4645628,0.5375727
0.7196378,0.462351,0.5351245
0.7199764,0.4596131,0.536424
0.7189472,0.4589454,0.539402
0.7191071,0.4604606,0.5407329
0.7180778,0.4607928,0.5404021
0.7155695,0.4618909,0.5389855
0.7170006,0.4633134,0.5385367
0.717767,0.4623549,0.5380798
0.7169582,0.4635795,0.5369805
0.7168273,0.4663587,0.5367497
0.7162319,0.467116,0.5367199
0.7169335,0.4675743,0.5366542
0.7167393,0.4671633,0.5359998
0.7158182,0.4665444,0.5348353
0.7143333,0.4665662,0.5346739
0.7114729,0.4670166,0.5346941
0.7121855,0.4686277,0.5343168
0.7136383,0.4696065,0.5330673
0.7137576,0.4686696,0.531812
0.7160608,0.4665678,0.5344406
0.7166549,0.4660974,0.5374223
0.7161806,0.4660023,0.5355581
0.7171974,0.4638581,0.532841
0.7166933,0.4637316,0.5316215
0.7176631,0.4650268,0.5315029
0.7207155,0.4652314,0.5323872
0.7224142,0.4640514,0.5315522
0.7247192,0.4606634,0.5298517
0.7272852,0.4592698,0.5289909
0.7281225,0.4614918,0.5287551
0.7269943,0.4633416,0.5300679
0.7257048,0.4625924,0.5318667
0.7265771,0.4619483,0.5336335
0.726245,0.4633002,0.5331561
0.7242505,0.4642151,0.5308321
0.7226291,0.4655681,0.5324499
0.7195423,0.4658685,0.5348521
0.7162438,0.4649291,0.5371899
0.7152105,0.4673555,0.5400434
0.7163658,0.469156,0.5369771
0.716981,0.4697723,0.5348132
0.7164812,0.4721094,0.5369363
0.7162608,0.4716395,0.5371129
0.7139273,0.4684795,0.5389964
0.7123384,0.4640809,0.5420296
0.7160999,0.4586536,0.5426677
0.7208103,0.4573864,0.5401391
0.7217821,0.4608404,0.5329779
0.72188,0.4626454,0.5283974
0.7230756,0.4611653,0.5345205
0.722296,0.4591391,0.5426182
0.7214472,0.4581845,0.5396997
0.7220118,0.4612779,0.5338846
0.7241036,0.4655969,0.5319854
0.7285738,0.4653608,0.530376
0.7308281,0.4630292,0.5322863
0.7326831,0.4612934,0.5298759
0.7341455,0.4618999,0.5254678
0.7324746,0.4650555,0.5289441
0.7312081,0.4667676,0.5292498
0.7270696,0.4668268,0.5303338
0.7232244,0.4666266,0.5336117
0.7230911,0.4664006,0.531221
0.7207369,0.4655362,0.5318685
0.7193654,0.4631453,0.532438
0.722164,0.4620259,0.5313525
0.7265877,0.4634442,0.5324299
0.7273289,0.4643994,0.5320297
0.7253464,0.4638101,0.5337607
0.7258768,0.4640456,0.535442
0.7250136,0.4660764,0.5346453
0.7253723,0.4680113,0.5338917
0.7273516,0.4679562,0.5306068
0.726044,0.4650175,0.5255477
0.7262506,0.4620505,0.5241307
0.7267317,0.4626865,0.5282251
0.7262351,0.465525,0.5274737
0.7276728,0.4672211,0.5144914
0.7288765,0.4658109,0.5044817
0.7296741,0.4634447,0.5155453
0.7300778,0.4626873,0.5302723
0.7300531,0.4615197,0.5244098
0.7282329,0.4605789,0.5186121
0.7252345,0.461296,0.5222975
0.7256154,0.4610353,0.5241738
0.7244939,0.4600125,0.5313198
0.7206589,0.4599691,0.5310227
0.7209108,0.4618791,0.5258666
0.7205745,0.4658949,0.5302686
0.7187355,0.4676863,0.5272813
0.721639,0.4664409,0.5250011
0.7240791,0.4664149,0.526372
0.7231497,0.4669533,0.5215479
0.7217256,0.4665541,0.5228174
0.7193454,0.4666136,0.5192682
0.7198052,0.4667824,0.5127619
0.7243622,0.4660486,0.5194721
0.7275785,0.4634615,0.5264656
0.7268705,0.4590508,0.528506
0.7256842,0.4576624,0.5264221
0.7276385,0.4618977,0.5234848
0.7283538,0.4663109,0.5255997
0.7272792,0.4671632,0.5259068
0.728048,0.4657439,0.5241304
0.7277687,0.4646892,0.5222956
0.727397,0.4654159,0.5200143
0.7271846,0.4653073,0.5218759
0.7258521,0.463914,0.5272284
0.7264095,0.462908,0.5307525
0.7262814,0.4622824,0.5290338
0.7243288,0.4633816,0.5263852
0.7230628,0.4644246,0.5263644
0.7226246,0.4635513,0.5252641
0.7232294,0.4629062,0.5246639
0.723647,0.4623798,0.5261517
0.7241153,0.4619252,0.529259
0.7253908,0.4609664,0.5334146
0.7267476,0.4590786,0.5319963
0.7266627,0.4599742,0.5269559
0.7251288,0.4629681,0.5223644
0.725777,0.464371,0.5175024
0.7271781,0.4641827,0.51943
0.7280437,0.4633431,0.5231456
0.7297474,0.4632047,0.5201019
0.7293577,0.4632126,0.5163923
0.7283772,0.4630144,0.5141499
0.7276755,0.4639576,0.5150395
0.7257772,0.4655946,0.5163042
0.7260884,0.4673663,0.514388
0.7269325,0.4669725,0.5172866
0.7260901,0.4652314,0.5246484
0.7263449,0.4637694,0.5311419
0.7264461,0.4609091,0.5307087
0.7254491,0.4621306,0.5255616
0.7258876,0.4650217,0.5269441
0.727509,0.4640779,0.5269939
0.728044,0.4656636,0.5266488
0.7266374,0.4660633,0.5296805
0.7250139,0.4651995,0.5266833
0.7248526,0.4676394,0.5274812
0.7248364,0.466643,0.5292404
0.7243063,0.4660842,0.5272358
0.7247998,0.467369,0.5303077
0.7277598,0.4661921,0.5289117
0.7300262,0.4664244,0.5262848
0.7273637,0.4648972,0.5260513
0.7252343,0.4620977,0.5239045
0.727268,0.4623517,0.5267978
0.7298331,0.4626088,0.5287331
0.7336877,0.4621645,0.5286874
0.7355608,0.4606612,0.5278412
0.7315194,0.4595193,0.523056
0.7284378,0.4617532,0.5222763
0.7285917,0.4651071,0.5227747
0.7266952,0.4661211,0.5240363
0.7242389,0.4660353,0.52823
0.7261137,0.4677942,0.5273796
0.7300134,0.468279,0.5248034
0.7309561,0.4652511,0.5254561
0.7296548,0.46082,0.5265695
0.7287446,0.4567496,0.5271206
0.7290733,0.4567934,0.5275224
0.7291439,0.4601204,0.5251306
0.7271459,0.461822,0.5207806
0.7261858,0.462006,0.5220507
0.7281725,0.4642543,0.5247194
0.7298728,0.4679384,0.5231166
0.7293355,0.4668889,0.5212099
0.7286669,0.4635637,0.5185217
0.72947,0.4631014,0.5163716
0.7295913,0.4624797,0.5176246
0.7302777,0.4641864,0.5221307
0.7310416,0.4673364,0.5273524
0.7283049,0.4666498,0.529141
0.7261629,0.4664792,0.5306493
0.7240025,0.466918,0.532119
0.720985,0.4667695,0.5297892
0.7230813,0.4686498,0.5280101
0.7250527,0.469905,0.5267354
0.7247485,0.4690777,0.524274
0.7270018,0.466495,0.525594
0.7269034,0.4644815,0.5273454
0.7252315,0.4651863,0.5255046
0.7250697,0.4656099,0.5226712
0.7230869,0.4651358,0.5172497
0.7237681,0.4651952,0.5146027
0.7279964,0.4654221,0.5222398
0.729809,0.4652234,0.5303633
0.7297092,0.4651998,0.5294709
0.729619,0.4656088,0.5246779
0.7308073,0.4660403,0.520049
0.7310808,0.4666203,0.5165555
0.7298804,0.4648781,0.5188291
0.7308743,0.4621052,0.5244562
0.7307207,0.4622536,0.5267563
0.7295511,0.4631272,0.5240386
0.7283555,0.46417,0.518837
0.7253125,0.4658159,0.5189639
0.7260234,0.4651833,0.5222619
0.7272918,0.463045,0.5219733
0.7257246,0.4621545,0.5215718
0.7265407,0.4623936,0.5203894
0.7266411,0.4626636,0.5201645
0.7263472,0.4619634,0.5234994
0.7284944,0.4602255,0.5254814
0.7295842,0.460324,0.5256546
0.7293231,0.4633227,0.5240997
0.7290934,0.4648,0.5230324
0.7300895,0.4635852,0.5220406
0.7312037,0.4638636,0.5198487
0.7311204,0.4647931,0.5212335
0.7314455,0.4638557,0.5218578
0.7314093,0.4635476,0.5212449
0.7317813,0.4640942,0.5218999
0.7324493,0.4639166,0.5214912
0.7321651,0.4635916,0.5237188
0.7345717,0.463056,0.5256368
0.7370456,0.4624512,0.5245887
0.7346934,0.463183,0.5222133
0.7313037,0.4642719,0.5194329
0.7297968,0.4629972,0.5194671
0.7291436,0.4619012,0.5195126
0.7271256,0.4629041,0.5202219
0.7237702,0.4639822,0.5220229
0.7229762,0.4666892,0.5231781
0.7239208,0.4691171,0.5264078
0.7236098,0.4679102,0.5281388
0.7234846,0.4666657,0.5291131
0.7237339,0.466755,0.5300659
0.7239018,0.4665342,0.528457
0.7257633,0.4657778,0.5292111
0.7287486,0.4623287,0.5285811
0.7311342,0.4580315,0.5231932
0.7354332,0.4583568,0.5197718
0.7412769,0.4591567,0.5210428
0.7410606,0.4570484,0.5231414
0.7385492,0.4557828,0.519927
0.7407858,0.4541232,0.51619
0.7393135,0.4554089,0.5159271
0.7372189,0.4604633,0.5147083
0.7401621,0.4617482,0.5152811
0.73732,0.4643727,0.5166226
0.7309535,0.4681908,0.5195216
0.7264888,0.4656876,0.5259553
0.7254582,0.4645013,0.5272518
0.7286346,0.4668785,0.5277544
0.7262827,0.4677781,0.5320841
0.7236457,0.4679121,0.5325478
0.7243496,0.4661506,0.5308313
0.7236361,0.4634931,0.5284901
0.7268294,0.4622744,0.5253205
0.7273077,0.4607189,0.5257371
0.7272043,0.4592214,0.5263472
0.7306452,0.4604655,0.5239677
0.7291919,0.4616912,0.5220352
0.7307153,0.4599841,0.5184214
0.7340592,0.4592588,0.5155277
0.7330324,0.4608376,0.5186023
0.7325104,0.4641501,0.5184684
0.7315647,0.4674652,0.517178
0.7318843,0.4636706,0.5228157
0.7322541,0.4561312,0.5245135
0.7315977,0.454611,0.5217065
0.7323771,0.4577645,0.5195271
0.7327275,0.4629475,0.5170656
0.7335753,0.4681295,0.5191603
0.7332181,0.4691173,0.5215693
0.730622,0.4687204,0.5225204
0.7274212,0.4678887,0.525343
0.7244007,0.4641149,0.5253183
0.7257935,0.4625418,0.5242922
0.7308396,0.4623698,0.5230727
0.7346379,0.4586772,0.5201454
0.734067,0.4575159,0.5201563
0.7325304,0.4601192,0.5211722
0.7355751,0.4617428,0.5193089
0.7361496,0.463485,0.5187502
0.7307377,0.4648731,0.521039
0.7262053,0.4643546,0.5214454
0.7260745,0.4622872,0.5222177
0.7305893,0.4617262,0.5240131
0.7331995,0.4641437,0.5207418
0.73191,0.4641956,0.5172888
0.7326253,0.4633859,0.5177334
0.733936,0.4641739,0.5174314
0.7343293,0.4627672,0.5163258
0.7347629,0.4621475,0.516444
0.7345186,0.4625256,0.5177334
0.7329119,0.4609088,0.5213415
0.7312311,0.4583149,0.5294365
0.7323055,0.4559268,0.5343876
0.7340467,0.4569768,0.5307091
0.7349748,0.4585191,0.5293389
0.734903,0.4583949,0.5305198
0.7333969,0.4609385,0.5253834
0.733213,0.4643005,0.5192799
0.7333817,0.465728,0.5184821
0.7334178,0.4637279,0.5190257
0.7343869,0.4612763,0.515118
0.7341287,0.4629348,0.5109316
0.7313194,0.4638006,0.5134956
0.7279221,0.4636094,0.5173103
0.7292366,0.463997,0.5187859
0.7328782,0.4625411,0.5218047
0.7335161,0.4640883,0.5229058
0.7336155,0.4678202,0.5208991
0.7330185,0.467201,0.5205693
0.7318416,0.4654593,0.5209257
0.7306819,0.4652007,0.5209936
0.7297861,0.4637838,0.5217775
0.7319935,0.4640879,0.5224037
0.7324776,0.4657573,0.522407
0.7309534,0.4624953,0.522001
0.730984,0.4597434,0.5224407
0.7297307,0.4616426,0.5232637
0.7297532,0.4622305,0.5231321
0.7294301,0.4624527,0.5211906
0.7288438,0.4624539,0.5191131
0.732559,0.4604235,0.5228727
0.7340208,0.4593,0.5276348
0.7332266,0.4597246,0.5252745
0.7335567,0.4607304,0.5215419
0.7341654,0.4605944,0.5185428
0.7362092,0.4600991,0.5152209
0.735964,0.4611551,0.5160605
0.7341146,0.4632516,0.5188791
0.7330204,0.4660154,0.5213629
0.7328666,0.4658096,0.5231593
0.7343021,0.4635099,0.5208002
0.7348629,0.4639039,0.5182098
0.7357414,0.4649775,0.5195196
0.7328665,0.4680427,0.5248375
0.7268003,0.4721065,0.531034
0.7272503,0.469491,0.5267804
0.7294161,0.4661856,0.5183527
0.7322929,0.4658969,0.5176534
0.7389311,0.4578706,0.5145505
0.7395852,0.4492668,0.5111546
0.7344414,0.4527248,0.5148266
0.7322897,0.4568381,0.5170207
0.7331267,0.4574778,0.5171452
0.7326919,0.4635941,0.5183587
0.7305275,0.4672539,0.5202467
0.7304682,0.4646856,0.5220478
0.7326734,0.4646405,0.523889
0.73379,0.4639668,0.525374
0.7334514,0.4614459,0.5213609
0.7330835,0.4615205,0.5180723
0.7334025,0.4612651,0.5220696
0.7334664,0.4607256,0.5257018
0.733139,0.4615053,0.5260737
0.7336238,0.4616926,0.5241126
0.7344336,0.4604523,0.5203857
0.735932,0.4576399,0.5161871
0.7375412,0.4563124,0.514574
0.7373937,0.459305,0.5192041
0.736611,0.4624313,0.5219032
0.7358565,0.4627716,0.5178585
0.7355537,0.4627308,0.5161693
0.7346641,0.4632475,0.5203225
0.732233,0.4638163,0.5236166
0.7313005,0.4623624,0.5206639
0.7306209,0.4601491,0.5161593
0.7302673,0.4611322,0.5160212
0.7328229,0.4615802,0.5211448
0.7337082,0.4608305,0.5271766
0.7322769,0.462211,0.5248545
0.7316981,0.4628232,0.5216631
0.7319637,0.4624167,0.5255868
0.7331121,0.4624904,0.5244466
0.733495,0.4623031,0.5178671
0.7334953,0.4618456,0.5113397
0.7342759,0.4616747,0.5080427
0.7348642,0.4632106,0.5146528
0.7351436,0.4655435,0.5207729
0.7353608,0.4670914,0.5210825
0.7364091,0.4667707,0.5211292
0.7364213,0.4641925,0.5197096
0.7349078,0.4625324,0.5211002
0.7328358,0.4623204,0.5230484
0.7301982,0.4620435,0.5209309
0.7334445,0.4609628,0.516878
0.738354,0.4590117,0.5122303
0.7355484,0.4594729,0.5136075
0.7330187,0.4601589,0.5168464
0.7323469,0.4583865,0.5154851
0.7314967,0.4592003,0.5152308
0.7357303,0.4639927,0.5163359
0.7373513,0.4690741,0.5204712
0.7341092,0.4691228,0.5252053
0.733722,0.4658923,0.522008
0.7334788,0.4640357,0.5182405
0.7338343,0.460704,0.5196887
0.7354661,0.4626314,0.5195827
0.7347444,0.4686817,0.5180921
0.7355558,0.4656543,0.5180824
0.7377982,0.4612267,0.5180965
0.7385211,0.4598893,0.5191553
0.738973,0.4602189,0.5205783
0.7380468,0.4642019,0.5202756
0.7370364,0.4626076,0.5199443
0.7375549,0.4610691,0.5199869
0.7376433,0.462936,0.5195076
0.7380909,0.4605116,0.5194917
0.7410933,0.462656,0.5213355
0.7440234,0.4649838,0.5218766
0.7423485,0.4612087,0.5166157
0.7396892,0.4597896,0.5112937
0.7401611,0.4597768,0.5134319
0.7395899,0.4615296,0.5187603
0.7383124,0.4633406,0.520244
0.7386662,0.462291,0.5188233
0.7372319,0.4624166,0.5166347
0.7353753,0.4625957,0.5144641
0.7363931,0.4626348,0.5156046
0.7382581,0.4634358,0.5185053
0.7392149,0.4638937,0.5198956
0.7390762,0.4626971,0.5187489
0.7386377,0.4592206,0.5136124
0.7387666,0.4575616,0.5095853
0.7381179,0.4590172,0.510903
0.7370672,0.4623751,0.5134058
0.7371152,0.4655874,0.5154626
0.7359571,0.4652931,0.5198052
0.7341448,0.4647456,0.5242126
0.7354681,0.4662557,0.5254162
0.736866,0.465496,0.5251835
0.7362436,0.4633263,0.5237903
0.7377188,0.4628132,0.5217571
0.7397176,0.4607293,0.5168446
0.7387467,0.4594028,0.5102565
0.7374126,0.4609119,0.5127411
0.7364662,0.4596464,0.5169188
0.7347871,0.459075,0.514505
0.7344059,0.4603904,0.5151631
0.7350921,0.4594094,0.5159351
0.7353804,0.4596542,0.5145648
0.7356465,0.4600081,0.5165804
0.7356871,0.459591,0.5197455
0.736894,0.4608167,0.5222111
0.7382476,0.4613357,0.5176154
0.7371283,0.4614973,0.5102021
0.736341,0.4628291,0.5130811
0.7360541,0.4642238,0.5156198
0.7348522,0.463335,0.5127846
0.7345069,0.4616771,0.5147769
0.7335949,0.4628399,0.5179183
0.7321178,0.4637187,0.5199001
0.7322789,0.4635425,0.519983
0.73453,0.4633862,0.5164967
0.737126,0.4619847,0.5155003
0.7363475,0.4623349,0.5147121
0.7353936,0.4628043,0.5121532
0.7366192,0.4612,0.5123051
0.7360488,0.4609743,0.517598
0.7358408,0.4611291,0.5244242
0.7364714,0.4608837,0.5204781
0.7358628,0.4603564,0.5149719
0.7359847,0.4592832,0.51924
0.7353339,0.4597145,0.518633
0.7347927,0.4599497,0.5169153
0.7374646,0.4594984,0.5200762
0.7398327,0.4600181,0.5187183
0.7390898,0.4607874,0.5166619
0.7388464,0.4622149,0.514855
0.7418843,0.4629625,0.5144178
0.7430863,0.4623305,0.5167093
0.7385645,0.4618967,0.5165728
0.7348005,0.4599582,0.5187119
0.7375487,0.4576008,0.5207388
0.7404974,0.4589204,0.5202759
0.7381192,0.4606591,0.5214475
0.7363717,0.4603616,0.5192856
0.7354884,0.4640674,0.517013
0.7338852,0.4693738,0.5162141
0.7359657,0.4675071,0.5135064
0.7363759,0.4617727,0.5131559
0.7337649,0.4585902,0.5143012
0.7333217,0.4589457,0.5168814
0.7340806,0.4595542,0.5191544
0.7365432,0.4570717,0.5184099
0.738343,0.4574139,0.5176623
0.7389455,0.4613121,0.5154206
0.7387402,0.4623313,0.5150433
0.734767,0.4626554,0.5185042
0.7323559,0.4626892,0.5195689
0.7335917,0.461935,0.5166275
0.7354327,0.462113,0.5122391
0.7368428,0.4614507,0.5124834
0.7369152,0.4616325,0.5167211
0.7378454,0.4614359,0.5184934
0.7386278,0.4604127,0.5166865
0.7388329,0.4615427,0.5137264
0.7392249,0.4609916,0.5132802
0.7384249,0.4599936,0.5118269
0.7380517,0.4609791,0.5102161
0.7372077,0.4622476,0.5142468
0.7364248,0.4648882,0.5174647
0.7369795,0.4656406,0.5159981
0.736746,0.4641693,0.5107904
0.7368001,0.4631563,0.5082008
0.7366956,0.4610315,0.5142711
0.735968,0.4591687,0.5168336
0.7363551,0.4593145,0.5142054
0.737939,0.4601968,0.513653
0.7395273,0.4596931,0.5121633
0.738988,0.4595312,0.5132579
0.7384928,0.4612398,0.5160031
0.7391973,0.4622255,0.5169949
0.7386246,0.4638623,0.5186654
0.7379041,0.4650964,0.5177023
0.7375653,0.4642918,0.514904
0.7383303,0.4637186,0.5137732
0.7403275,0.4626844,0.515263
0.7403829,0.4620384,0.5177452
0.7391912,0.4611182,0.5167179
0.7385112,0.4608064,0.516023
0.7377029,0.4630732,0.517252
0.7365245,0.4631246,0.5164651
0.7360108,0.462605,0.5164986
0.737931,0.4630267,0.517719
0.7396805,0.459704,0.5199475
0.7386623,0.4571752,0.5234304
0.7376921,0.4593849,0.5225433
0.7374929,0.4605094,0.5203092
0.7373144,0.459133,0.5204546
0.7376368,0.4587998,0.5171957
0.737337,0.4583236,0.5139416
0.7364847,0.4579507,0.5161298
0.7363245,0.4586956,0.5202745
0.7377281,0.458409,0.5223616
0.7389081,0.4590732,0.5177358
0.7355018,0.4602625,0.5103963
0.732239,0.4599619,0.5104585
0.7359549,0.461388,0.5140248
0.7389534,0.463384,0.5155025
0.7362796,0.4635026,0.5182904
0.7355221,0.4637838,0.5203383
0.7374839,0.4642046,0.5192384
0.7377087,0.4637432,0.5175511
0.7377786,0.463603,0.5143842
0.7393079,0.4626854,0.5114999
0.7407848,0.4593801,0.5130712
0.7405484,0.4577794,0.5149515
0.7392882,0.4606665,0.5128637
0.7377948,0.4646817,0.5099629
0.7354277,0.4657387,0.5079789
0.7358444,0.4633537,0.5084308
0.7387817,0.4617145,0.5108478
0.7390403,0.4625302,0.5096803
0.7392395,0.4626458,0.5102393
0.7408078,0.4613622,0.5168149
0.7419166,0.4606638,0.5207271
0.7418151,0.4602783,0.5186761
0.739353,0.4594733,0.514115
0.7386018,0.459417,0.5131247
0.7399328,0.4588678,0.5149805
0.7402651,0.4570436,0.5162049
0.7394804,0.4569221,0.5186705
0.7371974,0.4590798,0.5167043
0.7365023,0.4619053,0.5137534
0.7372287,0.4654285,0.5149288
0.7382808,0.4693012,0.5110002
0.7402023,0.4698808,0.5065266
0.7413122,0.4661019,0.5092485
0.7436285,0.463429,0.5145307
0.7438436,0.4633608,0.5176558
0.7420233,0.4622679,0.5157281
0.7430134,0.4605692,0.5115613
0.7407384,0.4608034,0.5111046
0.7383891,0.4614148,0.5156207
0.7408033,0.4600313,0.5206827
0.740709,0.4592821,0.519495
0.7397187,0.4599416,0.5126236
0.7403666,0.4596764,0.5107168
0.7394179,0.4596727,0.5134903
0.7386347,0.4598214,0.5107857
0.7397982,0.4597842,0.5072159
0.7403836,0.460715,0.5077687
0.7382538,0.4611544,0.5101936
0.735892,0.4599556,0.5126536
0.7358027,0.4575214,0.5121993
0.7366966,0.4563028,0.512597
0.7378834,0.4570601,0.5130856
0.738602,0.4565676,0.5127
0.7356566,0.4541077,0.5147074
0.7324855,0.4529047,0.5138952
0.7371848,0.4569471,0.5143957
0.7436644,0.4616741,0.5199414
0.7428537,0.4601365,0.521769
0.7390605,0.4594716,0.5149464
0.7371327,0.4625738,0.5065876
0.7396906,0.4629179,0.5111183
0.743156,0.4635813,0.5173565
0.7406921,0.4639022,0.5141602
0.7386418,0.461489,0.5158921
0.7383298,0.4624882,0.5190989
0.735143,0.4631658,0.5209351
0.7355286,0.4612302,0.5227082
0.7371367,0.4602196,0.5152734
0.7354841,0.4580945,0.5101769
0.7361158,0.4603314,0.5129074
0.7366998,0.4649241,0.5139289
0.7363424,0.4648725,0.5137324
0.737356,0.4664656,0.5128925
0.7366379,0.4658187,0.5123645
0.7365491,0.4610183,0.5127228
0.7374223,0.4603776,0.5143299
0.7378917,0.45897,0.5160241
0.741419,0.4570084,0.5151558
0.7441487,0.4575516,0.5151198
0.7435073,0.4540255,0.5150978
0.7444228,0.4521068,0.5133599
0.7465411,0.4572957,0.5120663
0.7460148,0.4623076,0.5118203
0.744111,0.4628859,0.5112137
0.7434157,0.4595089,0.5089519
0.7414124,0.4577856,0.5093602
0.7378405,0.4616704,0.5108619
0.7344071,0.4663226,0.510947
0.7320974,0.46718,0.5131441
0.7334844,0.4646257,0.5135237
0.734287,0.4625867,0.5143537
0.7344147,0.4613244,0.5180135
0.7370457,0.4591189,0.5171288
0.7363587,0.4595679,0.5160847
0.7357207,0.461811,0.5161843
0.7390482,0.4610265,0.5119491
0.7418989,0.458828,0.510517
0.7439443,0.4574938,0.5117166
0.7432758,0.4560531,0.50973
0.7425172,0.4558561,0.5094013
0.7445021,0.4573888,0.5102285
0.7446047,0.4572529,0.5108618
0.7444742,0.4564457,0.5142517
0.7455191,0.4573847,0.5163539
0.7446596,0.4582681,0.5159739
0.7398236,0.4601199,0.5157438
0.7341588,0.4620328,0.5152562
0.7366046,0.4608155,0.5156106
0.7412346,0.4600265,0.5180478
0.7397565,0.4609418,0.5199866
0.7387492,0.4619454,0.5176718
0.7364232,0.4628994,0.5146501
0.7331915,0.4612065,0.5151737
0.7350192,0.4587116,0.5155656
0.7351995,0.4582553,0.5148811
0.7342689,0.4593601,0.5144643
0.7360359,0.4622493,0.5138226
0.7362707,0.4639947,0.5146037
0.7369861,0.4637852,0.5158193
0.7411364,0.4625511,0.5152589
0.7471595,0.4591954,0.514838
0.749825,0.4566146,0.5140972
0.7487323,0.4566052,0.5108496
0.7492398,0.4575569,0.5087246
0.7477518,0.4587724,0.5101132
0.7450618,0.4596837,0.5115472
0.7452244,0.4583638,0.510781
0.7439579,0.4562719,0.5085247
0.7426808,0.4586248,0.5081246
0.739793,0.4614921,0.5117064
0.733061,0.4619996,0.5152701
0.7303988,0.4644993,0.515592
0.7312231,0.4646103,0.5142514
0.7308299,0.4629482,0.513646
0.7312895,0.4643319,0.5150181
0.7332167,0.4640359,0.516446
0.733889,0.4637857,0.5152322
0.7329756,0.4661107,0.511434
0.734426,0.4666543,0.5084446
0.7398087,0.4641386,0.5095359
0.7474691,0.4586881,0.5105032
0.751199,0.454433,0.5091726
0.7497958,0.4525928,0.5092223
0.7523074,0.4492306,0.5073787
0.7540394,0.4486083,0.5043257
0.7508834,0.449371,0.505485
0.7512737,0.4470461,0.5063542
0.751574,0.4510363,0.505955
0.7498602,0.4594631,0.5073426
0.7488671,0.4609911,0.508282
0.7453635,0.4602989,0.5113153
0.7403325,0.4619983,0.514684
0.7347967,0.4648334,0.5118414
0.7324511,0.4676886,0.5115342
0.7338799,0.4670044,0.5167603
0.7326519,0.4654215,0.5167221
0.7304395,0.4640199,0.51448
0.7287459,0.4602993,0.5140103
0.7290118,0.4601898,0.5142793
0.7328413,0.4629905,0.517259
0.7347641,0.4617883,0.5178765
0.7360726,0.4609552,0.5171888
0.7401595,0.4615919,0.5155549
0.7446448,0.4596877,0.5098051
0.7462546,0.4590673,0.5078198
0.7469347,0.4575993,0.5062478
0.7507224,0.4524605,0.5029545
0.7504963,0.4510232,0.5063503
0.7479425,0.4549547,0.5103774
0.7490572,0.4584456,0.511221
0.7473745,0.457197,0.5114873
0.7467512,0.4559083,0.5098622
0.7472206,0.4577312,0.5093043
0.7440181,0.4570168,0.5103932
0.7424249,0.4573815,0.5117327
0.7410609,0.4592492,0.5153231
0.7378355,0.4585021,0.5188805
0.7332703,0.4611058,0.5195159
0.7318145,0.4648803,0.5177094
0.7335764,0.4659261,0.5148864
0.7309693,0.4669439,0.5148475
0.7296663,0.4667016,0.5158344
0.7295733,0.4655378,0.514936
0.7292281,0.4645129,0.5154936
0.7354436,0.4625849,0.5163675
0.7399846,0.4609497,0.5166517
0.7398017,0.4633553,0.5161224
0.7415164,0.466072,0.5113477
0.7460531,0.4604561,0.5057431
0.7498956,0.4516004,0.5042068
0.7499579,0.4490901,0.5054505
0.7504697,0.4535853,0.5062072
0.7510913,0.4584006,0.5083861
0.7520847,0.4573232,0.5128162
0.7530839,0.4569583,0.5136727
0.7484957,0.4593494,0.5119487
0.7447788,0.4583773,0.5104723
0.7438754,0.4589698,0.5088617
0.7422507,0.4616187,0.5088598
0.7411171,0.4620237,0.5109955
0.7385206,0.462739,0.5149118
0.7366264,0.4626684,0.5151335
0.7358924,0.4619906,0.5135889
0.735058,0.4616881,0.5175297
0.7329969,0.4598581,0.5200988
0.7301123,0.4590943,0.5207374
0.7345459,0.4590799,0.5215698
0.7401186,0.4580199,0.5191932
0.9981075,0.01327179,0.2642915
0.99371,0.009660331,0.2640755
0.993978,0.008592549,0.262987
0.9933784,0.002881572,0.2614514
0.9914608,0.0004778161,0.2588791
0.9900019,0.004718963,0.2592743
0.9874196,0.002218376,0.2605025
0.9912043,0.001377321,0.2586145
0.9980428,0.0004449296,0.2560085
0.9958253,-0.004940328,0.2536959
0.9937297,-0.002204613,0.2542143
0.9954464,0.0009378969,0.2568391
0.9951401,0.001152855,0.2553528
0.9979076,0.002456824,0.2545487
0.9995185,0.002142834,0.2546312
0.9971475,0.005768207,0.2516849
0.9970535,0.007637961,0.2534853
0.9972578,0.002850984,0.2584059
0.9975624,0.0002241117,0.2621249
0.999122,0.001200774,0.2639274
0.9998111,0.001679837,0.2617484
0.9973687,-0.0007147502,0.2620847
0.9927222,-0.001784133,0.261329
0.9923454,0.0006768118,0.2547112
0.9940614,0.001918783,0.2513972
0.9945315,0.001542888,0.2529944
0.9963923,0.001056796,0.2561744
0.9958481,0.001835609,0.2572368
0.9934216,0.004465646,0.254842
0.9928903,0.009720962,0.2525855
0.9928275,0.01371555,0.2512976
0.9932485,0.007869631,0.2514993
0.9931146,0.001177077,0.2515377
0.9928098,0.002683925,0.2526073
0.9933063,0.003368748,0.2564638
0.9931204,0.002299043,0.2593263
0.9938904,0.002965761,0.2604839
0.9947095,0.003177852,0.2595807
0.9934752,0.005674701,0.2596704
0.9926854,0.01265336,0.2620719
0.9934044,0.01895691,0.2628491
0.995006,0.02083148,0.2636478
0.9962833,0.0220327,0.2636359
0.9960041,0.02053027,0.2620389
0.9955451,0.01095833,0.2607662
0.99592,0.002907185,0.2595408
0.9956007,0.001375586,0.2556544
0.9938614,-0.001682578,0.2473725
0.9926128,-0.002853704,0.2453672
0.9932312,-0.0002252603,0.2494852
0.9951291,-0.001597923,0.2486312
0.9963166,-0.003055107,0.2478792
0.9955266,-0.002205451,0.247657
0.9938506,-0.003269888,0.2472058
0.9926004,-0.002757381,0.2518425
0.9928742,-0.0003814878,0.2542244
0.9942991,0.006824946,0.2523066
0.9975154,0.0182132,0.2527006
1.002214,0.01965438,0.2549681
1.00183,0.01752556,0.2587092
0.9976097,0.01860468,0.2625133
0.99679,0.01220859,0.2600405
0.9968682,0.005192079,0.2519463
0.9952661,-0.000309057,0.2462394
0.992643,-0.007120897,0.244948
0.9896378,-0.005937846,0.2439857
0.9885251,-0.003610657,0.2425067
0.989696,-0.002023153,0.2456043
0.9944758,0.003744957,0.251666
0.9989881,0.004655016,0.2543104
0.9978549,0.004942166,0.2566673
0.9980751,0.006877062,0.259166
1.001099,0.004763784,0.2600948
0.9997195,0.00542462,0.2625806
0.9965472,0.00717472,0.2655276
0.9955394,0.009791182,0.2660641
0.9953255,0.01694377,0.2642714
0.9948482,0.01737918,0.2635015
0.9924963,0.01125871,0.2615937
0.9901266,0.006807716,0.2571436
0.9898171,0.00423116,0.255755
0.990158,0.00556271,0.2583852
0.9943941,0.006314171,0.2624306
0.9979536,0.005357211,0.2598292
0.9954436,0.009233937,0.2552021
0.9967403,0.01429027,0.2577079
0.9980085,0.01627554,0.2570919
0.9920557,0.01511433,0.2561784
0.9876369,0.01277006,0.2589479
0.9857826,0.01245385,0.2616241
0.9876807,0.01247592,0.2671099
0.9931046,0.01341321,0.266202
0.9936887,0.01461442,0.2634612
0.9933916,0.01521844,0.2654079
0.9968192,0.01916449,0.2597881
0.9992134,0.02214965,0.2546732
0.9973369,0.02084892,0.257315
0.9944578,0.0197818,0.2592195
0.9959279,0.01845305,0.2622438
0.9963968,0.01540589,0.2682811
0.9937643,0.01301367,0.2720748
0.9924298,0.01003916,0.2716592
0.9893438,0.00495361,0.268825
0.9869972,0.003184434,0.2655016
0.9850153,0.004452433,0.2667401
0.9808021,0.004883229,0.2714338
0.9835826,0.00810271,0.2726373
0.9896094,0.01257547,0.2717881
0.9914709,0.01377721,0.2672561
0.9947712,0.01383738,0.2589923
0.9969591,0.01558982,0.2555414
0.9957539,0.01603856,0.2583936
0.996668,0.01479542,0.2606194
0.9986721,0.01751107,0.2558442
0.9986856,0.01985483,0.2530199
0.9970549,0.01855429,0.2583519
0.9942541,0.01612474,0.2610002
0.9922027,0.01259032,0.2600953
0.992706,0.01327943,0.2612069
0.9925224,0.01389234,0.263938
0.9901715,0.01073428,0.2641352
0.9898547,0.01178043,0.2626599
0.9910134,0.01355655,0.2633991
0.9920631,0.01365307,0.2605296
0.9946623,0.01406373,0.2579723
0.9964894,0.0122071,0.2591361
0.9983136,0.01148035,0.257293
1.000334,0.01172122,0.2565522
0.9966773,0.0111522,0.2565163
0.9926075,0.01436572,0.2590127
0.9947163,0.01611589,0.2648173
0.9959395,0.01105878,0.2627602
0.994691,0.008337893,0.26068
0.9953769,0.009639901,0.261444
0.9960189,0.008182374,0.2560544
0.9958657,0.006720623,0.253852
0.9958498,0.0094347,0.2548876
0.995713,0.01170196,0.253661
0.9950687,0.007266673,0.2548866
0.9913344,0.002263538,0.2545234
0.9883294,0.004253201,0.2523891
0.9929753,0.006537323,0.2529492
0.9977447,0.005517113,0.2526337
0.9937658,0.005218918,0.2516434
0.9895204,0.005942678,0.2512386
0.9908581,0.006865362,0.2505555
0.9924425,0.008615071,0.2522559
0.9951063,0.009836791,0.2559514
0.9970144,0.008752817,0.2582916
0.9949267,0.00855699,0.2588015
0.9939452,0.008819133,0.2596689
0.9929524,0.007536271,0.2604008
0.9927308,0.007643494,0.2585552
0.9955512,0.007307615,0.2558591
0.9954083,0.008480193,0.2526832
0.9917086,0.01266877,0.2515622
0.986569,0.0126745,0.2548113
0.9855238,0.01031,0.2584126
0.9917393,0.01011197,0.2640808
0.996422,0.01349761,0.2667971
0.9971212,0.01987167,0.2636066
0.9961533,0.02247625,0.2638595
0.9943525,0.02296624,0.2627405
0.9934197,0.02461655,0.2621165
0.9930284,0.02522334,0.2654694
0.9952378,0.02619722,0.2629287
0.9983892,0.02353705,0.2606382
0.998356,0.01716006,0.2598906
0.9947032,0.01608937,0.2580243
0.9898956,0.01985735,0.25804
0.9896885,0.02288268,0.2551023
0.9919958,0.02351646,0.2573124
0.9931543,0.02303744,0.2620734
0.9960139,0.02213366,0.2588422
0.9974303,0.0198354,0.2586716
0.9937055,0.0181279,0.2607576
0.9901563,0.01535857,0.2608265
0.991131,0.01135266,0.2616609
0.9904184,0.01104486,0.2597745
0.9862606,0.009713201,0.2594988
0.9871959,0.007267658,0.2613937
0.9900284,0.009483267,0.2628081
0.9893513,0.01039452,0.2651211
0.9913602,0.009282732,0.265659
0.9950997,0.01005852,0.2661963
0.9951115,0.0111643,0.2645383
0.9944006,0.01397831,0.2600852
0.9948789,0.01630481,0.2609091
0.9942193,0.01512026,0.2627891
0.9936685,0.013395,0.2618386
0.9925946,0.01089399,0.2609922
0.9907279,0.006658625,0.2594807
0.9929228,0.0046432,0.2611043
0.994858,0.005759301,0.2637589
0.9941592,0.006715387,0.261737
0.9957448,0.007243941,0.259397
0.9960349,0.00757856,0.2582189
0.9958064,0.006844592,0.2586032
0.9970265,0.005751958,0.2606343
0.9966265,0.00534739,0.2596971
0.9945048,0.005634719,0.2591689
0.9900821,0.005543104,0.2603286
0.9880258,0.005519021,0.259237
0.9876229,0.005642968,0.2587578
0.9853383,0.005975472,0.2587375
0.9870756,0.008330079,0.2596513
0.9892849,0.01051216,0.2615618
0.9886927,0.009990637,0.2585134
0.9890569,0.00956362,0.2558797
0.9893582,0.01241267,0.2589584
0.9916748,0.01682029,0.2603149
0.995112,0.01882282,0.2577436
0.995754,0.01742578,0.2561219
0.9955268,0.01575454,0.2573827
0.995122,0.01667427,0.2587131
0.993955,0.01565981,0.2583171
0.9933373,0.01156532,0.2574662
0.9931281,0.009656848,0.2571499
0.9927854,0.009335321,0.2572304
0.9929953,0.009848327,0.257379
0.9921165,0.009614621,0.2611481
0.9902396,0.007525164,0.2675277
0.9904621,0.006703499,0.2685037
0.9921256,0.006504125,0.2638453
0.9935785,0.006269132,0.2593523
0.9933382,0.005397149,0.2590087
0.99217,0.005082121,0.2603438
0.991214,0.006309389,0.2589858
0.9880035,0.006189036,0.2568949
0.9864454,0.007061902,0.2550352
0.9878476,0.008003161,0.254965
0.9866286,0.00898658,0.2563203
0.9859053,0.0117405,0.2559691
0.9886285,0.008810104,0.2588913
0.9925001,0.005694095,0.2627027
0.9958027,0.0102003,0.2609293
0.9964957,0.01328288,0.2590111
0.9963427,0.01250956,0.2571271
0.9965745,0.01229309,0.25343
0.9957448,0.0126069,0.2518285
0.9954929,0.01254546,0.2495793
0.9961131,0.01237654,0.2485559
0.9959945,0.01260485,0.2540464
0.9965526,0.01300696,0.2568919
0.9971546,0.01530652,0.2569043
0.9943836,0.01847388,0.2612833
0.9912639,0.01820247,0.2600395
0.9922042,0.01508447,0.2566181
0.9941078,0.0112669,0.259139
0.994804,0.008771203,0.2583346
0.995707,0.01054074,0.2576475
0.9945523,0.01304254,0.2570663
0.9920128,0.01258523,0.250889
0.9929274,0.01305012,0.2478886
0.9937565,0.01375335,0.2495362
0.9924585,0.01258248,0.2517513
0.9932227,0.01272883,0.2537948
0.9932886,0.01354993,0.2589158
0.9928236,0.01451057,0.2645328
0.9942959,0.0143611,0.2604924
0.9949355,0.01215282,0.2551296
0.9962517,0.01243974,0.2555264
0.9977875,0.01266422,0.2558133
0.9971139,0.0111306,0.2573852
0.9961147,0.01067278,0.2589954
0.9949095,0.008234084,0.2586955
0.9920641,0.005956372,0.2600607
0.9883944,0.00598433,0.2626823
0.9886346,0.005536995,0.262678
0.9927092,0.005595682,0.2599065
0.9954227,0.006840553,0.2575015
0.9964497,0.009786166,0.2554582
0.9958527,0.01389854,0.2524151
0.9953982,0.01631879,0.2497681
0.9962532,0.01554069,0.2533936
0.9956891,0.01470978,0.2609944
0.9956843,0.01645252,0.2604905
0.9961339,0.01611643,0.2569089
0.9955592,0.01414732,0.2581423
0.9957815,0.01275328,0.2565891
0.9951659,0.01051948,0.2524685
0.9950761,0.01159237,0.2507864
0.9970869,0.01384893,0.2514117
0.997495,0.01451629,0.2532838
0.9961594,0.01827999,0.2531605
0.9954775,0.01995309,0.2522782
0.996401,0.01428483,0.2529567
0.998667,0.008963181,0.2538095
0.9995872,0.009679761,0.256999
0.995036,0.01297554,0.2612389
0.9892462,0.0147325,0.2602724
0.9903626,0.01493049,0.2592547
0.9914664,0.01517882,0.2639719
0.9891415,0.0150091,0.2675494
0.9903911,0.01178805,0.2699405
0.9898911,0.006595285,0.2723376
0.9878116,0.004350669,0.2688526
0.9895549,0.005437797,0.2650834
0.9900397,0.0051833,0.2648768
0.9910432,0.004190029,0.2634223
0.9926818,0.007668398,0.262508
0.9923184,0.01128098,0.2629969
0.9940299,0.009729636,0.265122
0.9941934,0.009383497,0.265929
0.9923648,0.01242245,0.2598704
0.9932579,0.01470979,0.2569811
0.994204,0.01583049,0.2607239
0.9945014,0.01536755,0.2611012
0.9944446,0.014523,0.2585123
0.9933741,0.01379449,0.2564309
0.9928346,0.01191772,0.2592478
0.9930052,0.0124632,0.2627668
0.9933532,0.01494622,0.259744
0.9937263,0.01527348,0.2591731
0.9937753,0.01436233,0.261752
0.9929781,0.01281569,0.2637369
0.9928501,0.01286249,0.2659669
0.9944568,0.01472073,0.2627169
0.995399,0.01478238,0.2568799
0.9949326,0.01486445,0.2550031
0.9932637,0.01375867,0.2579594
0.99116,0.010664,0.2612774
0.9898462,0.01074489,0.2598093
0.9884027,0.01120441,0.2602393
0.9885489,0.009068918,0.2638952
0.9894752,0.008184516,0.2642551
0.9885505,0.009995433,0.2637386
0.9893702,0.01195273,0.2639453
0.9918872,0.01138493,0.2634478
0.9935168,0.01147403,0.2620294
0.9935915,0.01319684,0.259611
0.9924255,0.01341182,0.2586747
0.9935569,0.01709713,0.2574514
0.9951955,0.02388581,0.2546201
0.9963759,0.02425218,0.256379
0.9991155,0.01943527,0.2626189
1.000336,0.01514074,0.2667255
0.9999404,0.01296292,0.2654379
0.9969667,0.01464079,0.260609
0.9910742,0.01623576,0.2561756
0.9889364,0.01436034,0.2531269
0.9954545,0.01241028,0.2549237
1.003073,0.01179009,0.2597575
0.9990253,0.01597853,0.2596295
0.9935372,0.02271308,0.257804
0.9950192,0.02137761,0.2570378
0.9930889,0.01825841,0.2580651
0.9927103,0.01890353,0.2605392
0.9946755,0.01563527,0.2569504
0.9938291,0.01337025,0.2545317
0.9939075,0.01459116,0.2588025
0.9916915,0.015356,0.2604305
0.9909878,0.01701392,0.2589064
0.9923894,0.01518428,0.2579988
0.9911594,0.01281833,0.260352
0.992204,0.01528825,0.2630052
0.993597,0.01706579,0.2620694
0.994804,0.0180856,0.2602026
0.9959732,0.0178199,0.2570463
0.9953716,0.01348385,0.2572692
0.9962598,0.01113924,0.2617367
0.9956307,0.01281552,0.2622536
0.994561,0.01292235,0.2617856
0.9945238,0.01268203,0.2630164
0.9930458,0.01632267,0.2617521
0.9930962,0.01888682,0.2601775
0.9928502,0.01640131,0.2581791
0.991809,0.0141904,0.2540936
0.9908466,0.01533042,0.2548893
0.9899193,0.015819,0.2571893
0.9926752,0.015669,0.2554766
0.995583,0.01987003,0.2566981
0.9954692,0.02346538,0.2550846
0.9924379,0.02040701,0.2508468
0.9889571,0.01655145,0.2537066
0.9911846,0.01442636,0.2565657
0.9940617,0.01214503,0.2598293
0.9941786,0.01407175,0.2635295
0.995019,0.01888238,0.2615472
0.9942852,0.01753644,0.2617924
0.9937325,0.01394629,0.2649179
0.99355,0.01520661,0.2653939
0.9920242,0.01600331,0.2632338
0.9924516,0.01561844,0.259454
0.9928722,0.01521974,0.2568758
0.9964005,0.01074459,0.2536003
1.003245,0.006741157,0.2499313
1.001957,0.009365305,0.251147
0.9984445,0.01495995,0.2583981
0.9977108,0.02350457,0.265913
0.9924366,0.03424071,0.2648444
0.9892279,0.03344087,0.2612405
0.9895966,0.02589275,0.2630264
0.9908124,0.02454147,0.2627516
0.9944383,0.02138601,0.2617785
0.993402,0.0209657,0.2633789
0.9921065,0.02405542,0.2625431
0.9948734,0.02079454,0.2611487
0.9944428,0.02012962,0.2575091
0.9945938,0.01899223,0.2516719
0.9966024,0.01657357,0.2494697
0.9968307,0.02003316,0.2507124
0.9950221,0.0194315,0.2564428
0.9921447,0.01800026,0.2637665
0.9945439,0.01904913,0.2681882
0.9966635,0.01997601,0.2665617
0.9916692,0.0243033,0.2587383
0.9895216,0.02536678,0.2559943
0.9930419,0.02423144,0.2586797
0.9951105,0.02251592,0.2604116
0.9918948,0.02018092,0.260469
0.9890375,0.02156647,0.2601322
0.9925408,0.01907804,0.2646143
0.995204,0.01848594,0.2664722
0.9949794,0.02249056,0.2641792
0.9952972,0.02030448,0.2638904
0.9942388,0.01946387,0.2617776
0.9939295,0.01903865,0.2618722
0.993948,0.01455623,0.2621463
0.9925985,0.01387682,0.2613682
0.9929055,0.0172761,0.2624149
0.9941296,0.02101921,0.256765
0.9963904,0.01936756,0.2530482
0.9993574,0.0162991,0.257986
0.9970406,0.01642198,0.2608474
0.9924963,0.01534899,0.2599973
0.9928038,0.01692805,0.2544594
0.9934345,0.01743192,0.2481142
0.9928879,0.015652,0.2434952
0.9941832,0.01729855,0.2354373
0.9946513,0.01663585,0.2383801
0.9944474,0.01640931,0.253717
0.9944465,0.01780344,0.2604618
0.99433,0.01642288,0.2578865
0.9946202,0.01699093,0.2537859
0.9946759,0.01918476,0.2569288
0.996231,0.02014602,0.2609571
0.9978907,0.019311,0.2562456
0.9967214,0.01846706,0.2567217
0.9942758,0.01735477,0.2561242
0.9923844,0.01412298,0.2542329
0.992769,0.01524021,0.2600093
0.9935704,0.01807714,0.259798
0.9928124,0.01782176,0.259581
0.9933201,0.01847507,0.2603353
0.9950902,0.0179219,0.258686
0.9959985,0.01776985,0.2610829
0.9952077,0.01856248,0.2613687
0.9938374,0.01762389,0.2646247
0.994404,0.01821285,0.2668008
0.9950234,0.01730758,0.2644873
0.9949709,0.01307989,0.2675781
0.9958655,0.009199245,0.2675694
0.9942906,0.009411569,0.2625016
0.992042,0.01479001,0.2582361
0.9931714,0.01888576,0.2587598
0.9934205,0.02015712,0.2610296
0.9924964,0.01968045,0.2564857
0.9925185,0.01871969,0.253496
0.9924911,0.01998406,0.2527047
0.9939868,0.01924323,0.2518387
0.9955155,0.01812632,0.2550483
0.9956044,0.01889496,0.2595374
0.9961888,0.02020542,0.2685063
0.996027,0.02316989,0.2712852
0.9963682,0.02176265,0.2623948
0.9978859,0.01950614,0.2599052
0.9968148,0.02152452,0.2631319
0.9950885,0.02067332,0.2641161
0.9939612,0.01933567,0.2609423
0.9928939,0.01877114,0.2554156
0.994784,0.01716437,0.2555783
0.9964442,0.01735797,0.2588297
0.994961,0.01642783,0.263089
0.9943909,0.01549074,0.2680556
0.9971803,0.016569,0.2701018
0.9986613,0.0176823,0.2693782
0.9932541,0.01945741,0.2651372
0.9884843,0.0195819,0.2626741
0.9918587,0.01790676,0.2631599
0.9947134,0.01618401,0.2622899
0.9929047,0.0145555,0.2621078
0.9943711,0.01540514,0.2607712
0.9971308,0.01679049,0.2591112
0.99593,0.01850534,0.2598169
0.9968459,0.02394457,0.2611894
0.9979367,0.02712191,0.2631646
0.9947661,0.02135794,0.2638175
0.9929683,0.01270474,0.260871
0.990242,0.01104028,0.2558781
0.9856937,0.01340808,0.2557509
0.9861152,0.01338027,0.262702
0.98948,0.01404906,0.2689246
0.9917486,0.01518552,0.2691856
0.992431,0.01569576,0.2668256
0.9923682,0.01769154,0.2667776
0.9943283,0.01744344,0.2641322
0.996056,0.01469252,0.2600704
0.9956784,0.01563269,0.2617564
0.9959625,0.0213464,0.261401
0.9955131,0.02463653,0.2576724
0.9934803,0.0209573,0.2543712
0.9908085,0.0166468,0.2505957
0.9880924,0.01586081,0.2537765
0.9870423,0.01430848,0.2602992
0.9861682,0.01189506,0.2608482
0.9879275,0.01146692,0.262918
0.99294,0.01016211,0.2703525
0.9953933,0.009154195,0.2739624
0.9980577,0.01104143,0.2705087
1.001173,0.01137194,0.2656959
0.9998587,0.01094187,0.2614521
0.9975822,0.0112737,0.2573484
0.9970158,0.01056505,0.2561951
0.9961951,0.009120371,0.2571829
0.9923575,0.006322165,0.2572106
0.9858909,0.006475686,0.2582181
0.9828633,0.009462812,0.2617484
0.9839518,0.009265456,0.2655234
0.9850176,0.008523194,0.2679088
0.985949,0.008523415,0.2695557
0.9839893,0.009441366,0.2725149
0.9813067,0.01577426,0.277356
0.9865561,0.02335749,0.281604
0.9920044,0.02532503,0.2821018
0.9904425,0.0269459,0.2802749
0.9905769,0.03297895,0.2759816
0.9924032,0.03953474,0.2666317
0.9921849,0.0433238,0.2625872
0.9940333,0.04044458,0.2665553
0.9968992,0.0350427,0.2665186
0.9955981,0.0341639,0.2660448
0.9913032,0.03179571,0.2669698
0.985985,0.02693054,0.2635029
0.9817571,0.02335923,0.2616458
0.9850755,0.02083774,0.2641742
0.9898283,0.01769055,0.2707072
0.989179,0.01385332,0.2770862
0.9916471,0.01808981,0.2740092
0.9953324,0.02390085,0.2699836
0.9954283,0.0234491,0.2723508
0.995976,0.02569119,0.2707417
0.9955683,0.02497126,0.2683499
0.9935391,0.02056297,0.2703191
0.9906768,0.01733978,0.265698
0.9885195,0.01347955,0.2594134
0.9894349,0.01496338,0.2601866
0.9916293,0.01451628,0.2612691
0.9941401,0.01120464,0.2625742
0.9952797,0.01467028,0.2614639
0.9956346,0.01626251,0.2575871
0.9964421,0.01448989,0.2574065
0.9948001,0.01300676,0.2549383
0.9920786,0.009304561,0.2526017
0.9894807,0.007681075,0.2535007
0.9890605,0.01033479,0.2520317
0.9922973,0.01335151,0.2534361
0.9934822,0.014435,0.2563518
0.9936532,0.01514759,0.2596406
0.9957794,0.0136235,0.2651273
0.9975452,0.009429141,0.264783
0.9970209,0.008451712,0.2612926
0.9949619,0.009172083,0.2585839
0.9967585,0.008635318,0.2534423
0.9982163,0.007541058,0.2480157
0.9962995,0.006793047,0.2482101
0.9966064,0.009738633,0.2531188
0.9957164,0.01245431,0.2524851
0.9953006,0.01186589,0.252201
0.9965228,0.0124394,0.2562936
0.9953845,0.01307428,0.2556687
0.9958958,0.0131109,0.2605317
0.9960893,0.0136573,0.2677905
0.9950803,0.01144396,0.2650751
0.9943974,0.008558793,0.263368
0.9925062,0.009021209,0.2607882
0.993716,0.0075697,0.2543053
0.9953067,0.003336689,0.2534973
0.9939334,0.004865165,0.2525042
0.9936384,0.01124328,0.250291
0.9939119,0.0147724,0.254521
0.994429,0.01180713,0.2596972
0.9946421,0.006834226,0.2611265
0.9932713,0.008639467,0.2582295
0.9927831,0.012063,0.2541242
0.9936826,0.01288098,0.2580065
0.9957228,0.01589018,0.2606416
0.998047,0.01728037,0.2520674
0.9973608,0.0174038,0.2451594
0.9956868,0.01736558,0.2455272
0.995911,0.01504836,0.2496876
0.9958,0.01420169,0.2550193
0.9957251,0.01385779,0.2581396
0.9960387,0.0145999,0.258611
0.9956552,0.01595995,0.2552943
0.9958888,0.01464115,0.2529482
0.9959142,0.01311355,0.253479
0.9954961,0.01033437,0.2524632
0.9950913,0.0085717,0.2516917
0.9939167,0.009232632,0.2511183
0.9937803,0.008301858,0.251564
0.9948731,0.009431167,0.2555046
0.9960488,0.01324391,0.2577893
0.995417,0.01569947,0.2539131
0.9909267,0.01652965,0.2513063
0.988454,0.01682596,0.2546593
0.9931216,0.01788404,0.2563306
0.9978613,0.01932826,0.2581017
0.9960787,0.020832,0.2574468
0.9946012,0.02203596,0.2499124
0.9967297,0.02202149,0.2490201
0.9957812,0.01980503,0.251377
0.995241,0.01536301,0.252157
0.9963961,0.01352428,0.256412
0.9944768,0.01560984,0.255938
0.994005,0.01606641,0.254833
0.9938008,0.01574567,0.2563681
0.9924973,0.01815817,0.2560473
0.9932357,0.01958094,0.2564752
0.9930842,0.01888997,0.2526555
0.9929419,0.01771477,0.2481985
0.9933877,0.01498592,0.2498682
0.9937782,0.01373982,0.2508094
0.9948684,0.01437221,0.2495343
0.9942864,0.01445849,0.249881
0.9933351,0.01563971,0.2509619
0.9928048,0.01557164,0.2526879
0.9919478,0.01421106,0.256997
0.9916283,0.01261701,0.2589513
0.9909388,0.008446829,0.2580004
0.9889437,0.00726151,0.2595227
0.9858374,0.009410684,0.2600254
0.9862282,0.01051123,0.2589979
0.9932469,0.01482117,0.2572191
1.004228,0.02092501,0.2545475
1.012509,0.02516317,0.2537661
1.008772,0.02739097,0.2481261
0.9984265,0.02464348,0.240352
0.9916658,0.01800096,0.2437724
0.987051,0.007847978,0.2510423
0.9856719,-0.004149735,0.2541747
0.9860116,-0.009003048,0.2592957
0.9859603,-0.007516255,0.2614616
0.9871438,-0.004006562,0.2588475
0.988335,0.003930714,0.2580373
0.9911509,0.01140706,0.2549718
0.9908217,0.01361376,0.2535449
0.9881324,0.01310458,0.2522464
0.9901587,0.01536695,0.2411179
0.9933755,0.02723518,0.2331169
1.000713,0.04339952,0.2322427
1.006595,0.05103895,0.2294077
1.004672,0.0490011,0.2285273
1.006317,0.04729271,0.2333556
1.007631,0.04907909,0.2408757
1.004176,0.04637458,0.2432248
1.001814,0.04120484,0.2456109
0.9994873,0.03745281,0.2515401
0.9977822,0.03240046,0.2524789
0.9960421,0.0291196,0.2554042
0.9951671,0.02418929,0.2539854
0.9962461,0.01834315,0.2464487
0.9957968,0.01948548,0.2492805
0.9956329,0.02252834,0.2483581
0.996083,0.02700143,0.2450515
0.9958424,0.03461365,0.2504384
0.9965939,0.03810655,0.2488765
0.9964774,0.03838633,0.2471831
0.9944975,0.04196647,0.2487457
0.9928732,0.04760909,0.2454065
0.9920474,0.04976934,0.2454931
0.9916098,0.05004919,0.246835
0.9924374,0.05005159,0.2481237
0.993921,0.0477842,0.2510786
0.9948221,0.0464319,0.2503757
0.9961252,0.04474641,0.2525847
0.9963047,0.03962412,0.2636852
0.9953009,0.03360754,0.2714591
0.9958223,0.02899196,0.2623944
0.9946141,0.02669896,0.2520825
0.9909472,0.02502809,0.2583586
0.9885663,0.02387583,0.264531
0.9869977,0.02176806,0.2639965
0.9853734,0.01819368,0.2631677
0.9851751,0.0202479,0.2576083
0.9880625,0.02703226,0.2572191
0.9900858,0.03332185,0.2596678
0.9907311,0.03861529,0.2534801
0.9942028,0.04103145,0.2462204
0.9941154,0.04063728,0.2381036
0.99346,0.03885162,0.2371447
0.9973265,0.03905128,0.2435271
0.9954362,0.04201645,0.2450075
0.9921178,0.04266201,0.2528193
0.9927888,0.03824972,0.2589583
0.9954531,0.03023275,0.2575244
1.001425,0.02619323,0.2649857
0.9988366,0.02574441,0.2702757
0.9867472,0.021421,0.2642588
0.9766765,0.01832487,0.2539436
0.9760962,0.02128867,0.2474976
0.9902947,0.03136392,0.2509678
1.000256,0.04387234,0.2562047
0.9957205,0.04805497,0.258575
0.9953758,0.04836313,0.2603175
1.002712,0.04906316,0.2592893
1.008551,0.04641424,0.2546079
1.008124,0.04417458,0.2515793
1.002499,0.04167004,0.2540618
0.9983787,0.03755358,0.260354
0.9982438,0.03748201,0.2656246
0.9943937,0.03544845,0.2611388
0.9850465,0.02626552,0.2510613
0.9843342,0.02275203,0.2469818
0.9890462,0.02635925,0.2493601
0.9906534,0.02791315,0.2531585
0.9960096,0.02947135,0.2530083
0.996795,0.03018855,0.253606
0.9940383,0.03059842,0.2595101
0.9975481,0.03469286,0.2636949
0.9985522,0.0364206,0.2615538
0.9991731,0.0341682,0.2584415
0.9974982,0.03019155,0.2625581
0.9902576,0.02349782,0.2646796
0.990854,0.02046893,0.2576434
0.9923642,0.02300214,0.254802
0.9902303,0.02443546,0.2598623
0.9916456,0.02519396,0.2639918
0.9903667,0.02635486,0.260192
0.990916,0.02665753,0.2560199
0.9937615,0.02846592,0.2595307
0.9933973,0.03119233,0.2607533
0.9965588,0.03370498,0.2619119
0.9965771,0.03632429,0.2652932
0.9922068,0.03661837,0.2636676
0.9913383,0.03482349,0.2633379
0.9887715,0.03170717,0.2632846
0.9886105,0.02796248,0.2613332
0.992482,0.02843847,0.2629139
0.9936796,0.03066638,0.2656902
0.9952088,0.02956522,0.2672886
0.9961079,0.02790272,0.2662871
0.995842,0.02542767,0.2623524
0.9957885,0.02585064,0.2553232
0.9939,0.03202715,0.2487016
0.9908987,0.0360148,0.2496393
0.9876318,0.04069569,0.2533263
0.9884382,0.04615254,0.2555235
0.9903743,0.04508598,0.2584104
0.9898576,0.04110706,0.259909
0.9925126,0.03555393,0.261355
0.9930394,0.03381356,0.2628289
0.9915501,0.03600603,0.2621434
0.993106,0.03492509,0.2622049
0.9929135,0.03635379,0.2606901
0.9930981,0.03700115,0.2569004
0.9933276,0.03600953,0.2566923
0.9925744,0.03845977,0.2580424
0.9934774,0.03818926,0.2585243
0.992904,0.04051731,0.2587324
0.9925387,0.04446117,0.2588629
0.991982,0.04069372,0.2600315
0.9915084,0.0363641,0.2589862
0.9953942,0.03562774,0.257597
0.9970042,0.03572137,0.258103
0.9948905,0.03422577,0.2556863
0.9940142,0.03063616,0.2540666
0.992624,0.02893177,0.2590274
0.9918835,0.02917088,0.2652948
0.9927742,0.02864319,0.2651371
0.9932655,0.02628629,0.2637792
0.9938888,0.02350049,0.267835
0.9936388,0.02388629,0.2694561
0.9918599,0.02596353,0.2687363
0.9914157,0.02647205,0.2702179
0.9927029,0.02903715,0.2685421
0.9932273,0.0329974,0.264917
0.9921565,0.03307151,0.2598737
0.9912257,0.03215321,0.2538965
0.9918781,0.02851873,0.2538006
0.9932817,0.02019031,0.2560354
0.995825,0.01792483,0.2559322
0.9976873,0.02251584,0.2569124
0.9946853,0.02565706,0.2637581
0.9916342,0.02728369,0.2726981
0.9931591,0.0285811,0.2720914
0.9934721,0.03015373,0.268199
0.9916024,0.03073951,0.2672262
0.9915745,0.02746554,0.2626904
0.9920879,0.02442949,0.2624671
0.9933463,0.02534636,0.2645532
0.9944243,0.02810785,0.2604745
0.9904328,0.03096984,0.26047
0.9847239,0.03200794,0.2621062
0.9844749,0.03174998,0.2587421
0.988755,0.03214752,0.2527992
0.9920067,0.03245486,0.2436933
0.9935986,0.03536301,0.2436036
0.997353,0.04160544,0.2536354
0.9997615,0.04353062,0.257148
0.9963814,0.03690334,0.256279
0.9937998,0.02887598,0.2577119
0.9946543,0.02793197,0.2604698
0.9944342,0.0297777,0.2610126
0.9944931,0.02817527,0.2602492
0.9955439,0.02722087,0.2635724
0.9959138,0.02853717,0.2622438
0.9960402,0.03047464,0.255946
0.9956481,0.03267631,0.2517152
0.9927848,0.03250473,0.2468127
0.9808363,0.03272802,0.2419612
0.9673602,0.03659543,0.2296794
0.976594,0.03800916,0.2221906
1.006174,0.03388453,0.2398512
1.026799,0.02870896,0.2589032
1.018684,0.026621,0.2644678
0.9943205,0.02752069,0.2702359
0.9838352,0.02647576,0.2783904
0.9858195,0.02329212,0.2779208
0.9831669,0.02133929,0.2683236
0.9778259,0.02000512,0.2633135
0.9777798,0.02496444,0.2563308
0.9838314,0.03734495,0.2463334
0.9871458,0.04618975,0.2458724
0.9934123,0.05071696,0.2483384
1.003963,0.05321213,0.2534425
1.006184,0.05286159,0.2563907
1.006373,0.0497845,0.2534668
1.003952,0.04060174,0.2525275
1.001596,0.03502242,0.248056
1.000733,0.03754065,0.2454221
0.9923199,0.04009474,0.2462072
0.9894535,0.04713361,0.2474856
0.9896477,0.05016543,0.2564091
0.9912385,0.04227504,0.2658242
0.9965471,0.03618845,0.2733644
0.9912323,0.03181929,0.2759437
0.988951,0.02701374,0.2704851
0.993027,0.02008552,0.2656667
0.9933509,0.01270473,0.26394
0.9944051,0.01309563,0.2662719
0.9936058,0.01283829,0.2673674
0.9920823,0.01034764,0.2677295
0.9884851,0.01333954,0.2691806
0.984051,0.01676731,0.2672817
0.9816483,0.01870671,0.2696809
0.9809959,0.02145661,0.2729488
0.9878441,0.02249694,0.2709508
0.9967706,0.01804101,0.2609418
1.003805,0.01036677,0.2463745
1.003816,0.001841126,0.2464966
0.9973678,-0.006377855,0.2472625
0.9954801,-0.005608673,0.2400754
0.9903671,-0.002196636,0.2453469
0.9896475,-0.006580175,0.2493385
0.9945256,-0.008937634,0.2478261
0.9898833,-0.008964323,0.2545945
0.9901342,-0.00817689,0.2612731
0.9898161,-0.003823493,0.2678376
0.9857114,-0.003341177,0.2704226
0.9926202,0.00297519,0.265982
0.9961016,0.0146479,0.2652478
0.9957983,0.01396792,0.2593668
0.9969649,0.01311133,0.2531185
0.9975923,0.01395629,0.2605419
1.00136,0.007532171,0.2649174
0.9987308,0.00903379,0.2614949
0.9938979,0.01360521,0.2599247
0.9910102,0.0146467,0.2579035
0.9870751,0.02177979,0.2565977
0.989054,0.02336661,0.2596009
0.9902269,0.02133801,0.2626226
0.9906733,0.02690985,0.2610038
0.9943839,0.02906344,0.2586224
0.9936769,0.02952819,0.259372
0.9939823,0.03211528,0.2628198
0.997001,0.03208149,0.264143
0.9959326,0.03207372,0.2612256
0.9951682,0.03170509,0.2624144
0.9963685,0.03200162,0.2635845
0.9951857,0.03218364,0.2620214
0.9921975,0.03133874,0.2670265
0.9876363,0.03144692,0.2711356
0.9842634,0.02975002,0.2708742
0.9856379,0.02855305,0.2701726
0.9860168,0.02776357,0.2691535
0.9855024,0.02707834,0.2731585
0.9871782,0.02843609,0.2782031
0.9878269,0.02778215,0.2800706
0.9902233,0.0287231,0.2795166
0.9923793,0.03174589,0.2777414
0.9918803,0.03215603,0.2769161
0.9921795,0.03213418,0.2733053
0.9889321,0.03136768,0.2716074
0.9861351,0.03013159,0.2703295
0.9893794,0.02835717,0.2654385
0.9921221,0.02592977,0.2695919
0.9926283,0.02536175,0.2741832
0.9890237,0.02713481,0.2672348
0.9844728,0.0301799,0.2613765
0.9876685,0.02823962,0.2603098
0.9905882,0.02347025,0.2600941
0.9882439,0.02244676,0.2599061
0.9886006,0.02104472,0.2591371
0.9896909,0.02133702,0.2591924
0.9900281,0.0236886,0.2590948
0.9942365,0.02546936,0.2599344
0.9968629,0.02818308,0.2629798
0.9939569,0.02478119,0.2671171
0.9922084,0.02005005,0.2709815
0.9940979,0.02212164,0.2695666
0.9951049,0.02121698,0.2660553
0.9939808,0.01811505,0.2648068
0.9932749,0.01952972,0.2613409
0.992162,0.02001874,0.2601678
0.9910426,0.01907303,0.2618357
0.9924068,0.02070097,0.260426
0.9945026,0.02217016,0.2592964
0.9963589,0.02227373,0.2580596
0.9960386,0.0223914,0.2577507
0.993322,0.02202894,0.2590683
0.9927781,0.02226474,0.2581443
0.9927328,0.02253467,0.2594714
0.9911977,0.0228956,0.2621968
0.9899316,0.02353216,0.2627017
0.9896682,0.020974,0.2631421
0.9898925,0.01834982,0.2639432
0.9885005,0.01920008,0.2657146
0.9888387,0.01905627,0.2648334
0.9915262,0.0178181,0.2624754
0.9926594,0.01987943,0.262313
0.9935668,0.02290475,0.2598757
0.9925269,0.02308953,0.2591343
0.9899377,0.02235483,0.2622266
0.9889467,0.01995093,0.2624944
0.9902323,0.01579129,0.2592853
0.9937001,0.01564503,0.2519824
0.9937018,0.02072349,0.2479019
0.9929625,0.02524008,0.2576705
0.9944557,0.02328545,0.2686481
0.9926747,0.02041962,0.2687201
0.9925476,0.0221891,0.2711977
0.9937938,0.02251474,0.2768418
0.9930922,0.025316,0.2706915
0.9958476,0.03078213,0.2646788
0.997696,0.02930156,0.2672423
0.9940113,0.02829441,0.2652526
0.9886767,0.02874517,0.2646307
0.9852303,0.02232117,0.269638
0.9843305,0.01643676,0.272475
0.9844776,0.01644431,0.2745432
0.9856083,0.01755429,0.2736754
0.9873435,0.01721192,0.2722373
0.9894485,0.01787284,0.2740833
0.9899363,0.01769116,0.2730865
0.9897992,0.01499684,0.2695209
0.9925364,0.01650542,0.2663134
0.9920207,0.02025321,0.2654886
0.9898998,0.02250597,0.2652971
0.9914716,0.02476475,0.2617013
0.9904626,0.02430154,0.2629178
0.9879516,0.02162638,0.2710171
0.986245,0.01873572,0.2769378
0.9861285,0.0213384,0.2795961
0.9904036,0.02908059,0.2815792
0.9935283,0.03269695,0.2827842
0.9935001,0.03392395,0.2808938
0.992766,0.032684,0.2767875
0.9925096,0.02992214,0.2733986
0.9917275,0.02813711,0.2721137
0.9893595,0.0244922,0.2724433
0.9899464,0.02852152,0.2690113
0.9900571,0.03491684,0.2654749
0.9876427,0.03132638,0.2652415
0.9872683,0.03018075,0.2636855
0.9858587,0.03235877,0.2670241
0.9863854,0.03151803,0.2740897
0.9911135,0.0321937,0.2791337
0.9933763,0.03170857,0.2831667
0.9927152,0.0297706,0.2801717
0.9925188,0.02902101,0.2748102
0.9930211,0.02874658,0.2746145
0.9904363,0.02953532,0.2743935
0.9875738,0.02865231,0.2714906
0.9892677,0.02578325,0.2684786
0.9900112,0.02280435,0.2698852
0.9891833,0.02130078,0.2718461
0.9886502,0.02349155,0.2695346
0.9867209,0.02423513,0.2688793
0.986513,0.02326259,0.2700444
0.9900775,0.02496274,0.2707079
0.9955697,0.02596021,0.2732121
0.9968245,0.02588636,0.273568
0.993275,0.02560611,0.270511
0.9925223,0.02583739,0.2703151
0.9932591,0.02766352,0.2717617
0.9919292,0.02769037,0.2719751
0.9877813,0.02631216,0.2726882
0.9834973,0.02584499,0.2709257
0.9870189,0.02626195,0.2653886
0.9918782,0.02490887,0.2594921
0.9894096,0.02253394,0.2569539
0.9861121,0.02356968,0.2594873
0.98501,0.02281336,0.2624926
0.9875186,0.01959257,0.2632631
0.9926983,0.01864491,0.2623688
0.9932607,0.01718817,0.2622945
0.9937628,0.01749728,0.2651406
0.994947,0.02102798,0.2664531
0.9919016,0.02289447,0.266863
0.9927895,0.02304285,0.2655583
0.9939655,0.0246509,0.2589154
0.9911063,0.02559384,0.2543768
0.9918643,0.02310595,0.2580309
0.9921295,0.020653,0.2657924
0.9931925,0.01886951,0.2682006
0.9964816,0.01887721,0.2674187
0.995839,0.02030119,0.2679929
0.9947921,0.01882657,0.2663382
0.9915576,0.01856866,0.2691935
0.9876461,0.01939963,0.2710604
0.9907492,0.02010577,0.262887
0.9948451,0.02246754,0.2564336
0.9942233,0.02158808,0.2565696
0.9912597,0.02113081,0.2581223
0.9887428,0.02282584,0.2573921
0.9888308,0.02179213,0.2581332
0.9919414,0.0203171,0.2594104
0.9939839,0.01901897,0.2574949
0.9926186,0.01913413,0.2597195
0.9910156,0.02032001,0.2617082
0.9897403,0.02073285,0.2627449
0.989131,0.0218878,0.2669497
0.9890142,0.02097212,0.2661991
0.9885615,0.02023698,0.262911
0.9890823,0.02267901,0.2607898
0.9894764,0.02420062,0.2629912
0.9915329,0.0256874,0.2676997
0.9948172,0.02739925,0.2659843
0.9938348,0.02844194,0.2644303
0.9913719,0.02868477,0.2635386
0.9914858,0.02536362,0.2633506
0.9922168,0.02307694,0.2689478
0.9930028,0.02441651,0.2711357
0.9932021,0.02613265,0.2693962
0.9908584,0.02822918,0.2640428
0.9882824,0.02631961,0.2574854
0.9877155,0.02284024,0.2621591
0.9888254,0.02473954,0.2681412
0.9911115,0.02650025,0.2691334
0.9910244,0.02582521,0.2724029
0.9912002,0.02372701,0.2688702
0.993829,0.02029009,0.2631529
0.9911178,0.02015236,0.2689591
0.9874453,0.02124851,0.2732875
0.9896514,0.02210621,0.2692453
0.9925126,0.02415593,0.2668905
0.9936738,0.02251582,0.2649664
0.9919291,0.02087611,0.2637169
0.9898235,0.02310419,0.2643439
0.9895749,0.02213474,0.2635982
0.9889572,0.02059628,0.2669635
0.9916757,0.02150647,0.2684818
0.9951547,0.02179298,0.2649433
0.9944547,0.02523568,0.2671096
0.993264,0.02769119,0.266718
0.9928771,0.0257637,0.2618606
0.9930107,0.02522232,0.2611399
0.9931848,0.02407946,0.261325
0.9929514,0.02319484,0.2631997
0.9931053,0.02476093,0.2634737
0.9930476,0.02491138,0.2651909
0.99304,0.02270784,0.2737633
0.9927278,0.01867671,0.2766567
0.9912309,0.01636636,0.27448
0.9899522,0.01782504,0.2737215
0.9909213,0.02043282,0.2713972
0.9921975,0.0225372,0.2667741
0.9906773,0.02350512,0.2620035
0.9896908,0.02445776,0.2641881
0.9903638,0.02434353,0.2689559
0.9893938,0.02234604,0.2704542
0.9890241,0.02210324,0.2715607
0.9915933,0.02422707,0.269601
0.9939973,0.0254212,0.2695049
0.9933045,0.02416372,0.2736255
0.9924,0.02303343,0.2757121
0.9934466,0.02281038,0.2748076
0.9931165,0.01935789,0.270216
0.9927076,0.01507061,0.2657837
0.992884,0.01693532,0.2645015
0.9901921,0.02134442,0.2656647
0.9880229,0.02266193,0.2686132
0.9887748,0.02292057,0.2704779
0.9890961,0.0237138,0.2733459
0.9878471,0.02540601,0.2758854
0.9879685,0.0256397,0.2748244
0.9922953,0.02438966,0.2728948
0.9967543,0.026898,0.271672
0.9957894,0.03053458,0.2715272
0.9914669,0.03218454,0.2687133
0.9893947,0.03036589,0.2642356
0.9901895,0.02501355,0.263697
0.9904275,0.02425354,0.263538
0.9889299,0.02553694,0.2628005
0.9870463,0.0246456,0.2640895
0.9877767,0.02523656,0.2642027
0.9915293,0.0245619,0.2624988
0.9944103,0.02309634,0.2637632
0.9941952,0.02213629,0.269807
0.9914779,0.02274758,0.2766689
0.9882349,0.02544179,0.2794742
0.9864939,0.02510306,0.2791569
