accx,accy,accz
0.9246082,0.2003332,0.3788117
0.9232621,0.2040641,0.3770531
0.9217182,0.2052546,0.3781237
0.9230597,0.2080004,0.378432
0.9240472,0.2097211,0.381294
0.9225591,0.2110955,0.3841283
0.9218267,0.2134198,0.381572
0.9227917,0.2106087,0.3774555
0.9250814,0.2081378,0.3764256
0.9270329,0.2084956,0.3738232
0.9265829,0.2065951,0.3699773
0.9244115,0.2075145,0.3769096
0.9216807,0.2102328,0.390417
0.9167643,0.2098567,0.3976195
0.9112178,0.2112257,0.3969963
0.9078295,0.2151266,0.3959971
0.9071948,0.2176845,0.3973762
0.9142619,0.2170213,0.3931222
0.9252839,0.2149911,0.3884506
0.9303241,0.2126207,0.3861279
0.9296623,0.2084948,0.3760987
0.9234655,0.2083657,0.3688768
0.9187181,0.209428,0.3691876
0.9277667,0.2060389,0.3657337
0.9362576,0.2083978,0.3650588
0.9263315,0.2124423,0.370803
0.9188381,0.2102159,0.3756984
0.9285884,0.2084073,0.3793697
0.933478,0.2037152,0.382965
0.9295154,0.2048111,0.3856378
0.9293544,0.2294078,0.3833168
0.9277959,0.2449641,0.3797718
0.9272232,0.203865,0.3798363
0.9330861,0.1567363,0.3760697
0.9344851,0.1744986,0.3704662
0.9337936,0.197161,0.3681164
0.9399313,0.192763,0.3702942
0.939767,0.207708,0.3759442
0.9332828,0.2108474,0.3725702
0.9332957,0.2120851,0.3644784
0.9331526,0.2360075,0.361029
0.9325472,0.2329545,0.3603394
0.9314276,0.2298814,0.3678533
0.9276602,0.2362862,0.376131
0.932341,0.2194987,0.3782723
0.9423404,0.2056268,0.3759879
0.9469541,0.1969349,0.3694971
0.933796,0.2005151,0.3666265
0.9107391,0.2094023,0.3594269
0.9105156,0.1990645,0.3518768
0.9217784,0.1889068,0.3592684
0.9238123,0.1670417,0.3705604
0.9241709,0.1468725,0.3803193
0.9212143,0.1520804,0.3789537
0.9199912,0.1417555,0.3672784
0.9231642,0.128847,0.3628747
0.9283284,0.1441803,0.3579058
0.9353526,0.1629488,0.3569563
0.9304322,0.1752517,0.3622521
0.9226536,0.1863718,0.3648019
0.9270681,0.1928826,0.3736895
0.9344879,0.2033325,0.3766665
0.9426791,0.2152984,0.3701167
0.9429543,0.2000084,0.3617986
0.9334856,0.1819382,0.3473209
0.9313565,0.1959096,0.3455204
0.9303192,0.2027538,0.3531205
0.9295231,0.1971043,0.3564625
0.9355454,0.1981927,0.3682148
0.9329177,0.1884173,0.3753575
0.9298347,0.1811911,0.3731917
0.9345865,0.1863449,0.3749795
0.9327391,0.1910595,0.3695839
0.931058,0.1987291,0.3621088
0.9309362,0.2044012,0.3638366
0.9293985,0.2040466,0.3631275
0.9315472,0.2052331,0.3572627
0.92979,0.2068956,0.3535297
0.92734,0.2053207,0.3588355
0.9266592,0.2041676,0.3674737
0.9270485,0.2020676,0.3684967
0.9335133,0.1970298,0.3707441
0.9351312,0.196098,0.37181
0.9299581,0.199185,0.3644333
0.9260693,0.2034652,0.361
0.9250725,0.2037,0.3617877
0.9249547,0.199424,0.365187
0.9223848,0.2001747,0.3705263
0.9254087,0.1989194,0.3698241
0.9335146,0.1930862,0.3694694
0.9376116,0.189818,0.3675613
0.9321566,0.1925589,0.3616499
0.9230151,0.2022705,0.3634997
0.9304268,0.2035117,0.3653603
0.9374271,0.1962311,0.3629346
0.9303221,0.1897198,0.365044
0.9319387,0.1859885,0.366334
0.9349098,0.1942881,0.3658109
0.9329434,0.2038093,0.3656395
0.9304632,0.2078561,0.3634093
0.9240074,0.2097743,0.3657028
0.925749,0.2014797,0.3712262
0.9282695,0.1941799,0.3721146
0.9249059,0.1965657,0.3699738
0.9271857,0.1967147,0.3669769
0.9286153,0.1922327,0.3679576
0.9290847,0.1923942,0.3723356
0.9309638,0.1953883,0.3740528
0.9300977,0.1948171,0.3763179
0.9304345,0.1963842,0.3779802
0.9284276,0.1976297,0.3788621
0.9240579,0.198313,0.3789115
0.9234333,0.2010891,0.3739098
0.9255952,0.1974214,0.3724937
0.9290758,0.1933879,0.3728651
0.9300112,0.1937912,0.368788
0.9301451,0.1969381,0.3674426
0.9335168,0.201874,0.3678763
0.9347404,0.1986709,0.3690691
0.9329036,0.1934453,0.3717121
0.931784,0.193495,0.3742296
0.9308133,0.1967564,0.3745963
0.9278889,0.2068933,0.3729946
0.92431,0.214379,0.3769895
0.9230418,0.2128647,0.3809379
0.9237757,0.2115424,0.3800962
0.9259477,0.2113853,0.3780863
0.9279211,0.2083431,0.3713172
0.9287251,0.2058496,0.3669156
0.928437,0.2079248,0.3688109
0.9264626,0.2091905,0.3704476
0.9259843,0.207664,0.3716911
0.9266293,0.2074956,0.3740281
0.9263053,0.206514,0.3763563
0.9264161,0.2047911,0.3758563
0.9263704,0.2038469,0.3767969
0.9267466,0.2023366,0.3782469
0.928216,0.2001826,0.3770752
0.9287362,0.1987495,0.3814928
0.9250155,0.2037509,0.3852073
0.920542,0.2103458,0.3819739
0.9237005,0.2077984,0.3771029
0.9295168,0.2027043,0.3681159
0.931191,0.2008664,0.3613115
0.9309809,0.2006874,0.3628742
0.9298778,0.2024548,0.3644328
0.9296548,0.2031373,0.3669114
0.9289808,0.2039963,0.3727562
0.9269461,0.2037848,0.3720439
0.9271923,0.1999349,0.3701784
0.9278406,0.2003808,0.375377
0.9280917,0.2049276,0.3758253
0.9283949,0.2079254,0.3741887
0.927343,0.2075773,0.3763
0.9262593,0.2045596,0.3741678
0.9264075,0.2038843,0.3712877
0.9294152,0.202619,0.3702952
0.9313653,0.2016885,0.3718448
0.9292881,0.2023999,0.3779469
0.9276885,0.1979699,0.3826063
0.9266312,0.1960182,0.3809625
0.9261518,0.1978501,0.3726241
0.9269961,0.1978769,0.3670132
0.9290103,0.2017683,0.3669481
0.9314886,0.2048391,0.3647924
0.9305796,0.200981,0.365478
0.9287156,0.1969183,0.3712077
0.927505,0.199294,0.3727728
0.9263915,0.2015317,0.3686021
0.9298011,0.1986973,0.367008
0.9331782,0.198059,0.3682754
0.9298822,0.1964117,0.3704065
0.9260314,0.1945424,0.3727043
0.9264117,0.1968958,0.3686555
0.9275972,0.1969376,0.3675835
0.9288157,0.1990256,0.3694556
0.9296905,0.2020268,0.3659988
0.9289505,0.2004033,0.3660672
0.9289113,0.2006585,0.3638875
0.9284905,0.2016773,0.3640972
0.9272923,0.2016435,0.3693766
0.9281496,0.2022496,0.3668058
0.929765,0.2023524,0.3687071
0.9309166,0.2004629,0.3710615
0.9308498,0.197408,0.3688202
0.9299681,0.1980231,0.3749234
0.929647,0.1976808,0.3823609
0.9282969,0.194598,0.3855099
0.927867,0.1954565,0.3792251
0.9295621,0.1946986,0.3693698
0.9310515,0.1922452,0.3694248
0.9329951,0.1949001,0.3697899
0.9326337,0.1965152,0.3690981
0.930642,0.1937969,0.3710055
0.9315121,0.1931587,0.3716943
0.9306523,0.197609,0.3724975
0.9295091,0.2020093,0.3713459
0.9304866,0.2020576,0.3698765
0.9282695,0.2023443,0.3694886
0.9269512,0.203439,0.368381
0.9268516,0.2013262,0.3694352
0.9264093,0.1996086,0.3700461
0.9286697,0.1980505,0.3691407
0.9277379,0.1943426,0.3709543
0.9263017,0.1930193,0.3740081
0.9279767,0.1934219,0.3756371
0.9285983,0.195341,0.3743894
0.9309499,0.2005905,0.3694848
0.9328025,0.204311,0.3642267
0.9329953,0.2039871,0.3628815
0.9321755,0.2003604,0.3660474
0.9293992,0.1970048,0.3704058
0.930665,0.1967139,0.373113
0.9320282,0.1953502,0.3726889
0.9305523,0.1925645,0.3699313
0.9306057,0.191604,0.3686281
0.9293943,0.1931623,0.3696001
0.9294013,0.195321,0.3745948
0.9320875,0.1946337,0.379677
0.9335481,0.1948756,0.3767843
0.9320817,0.2002606,0.3726861
0.9292984,0.2040286,0.3688301
0.9307394,0.201159,0.3652876
0.9323924,0.1969675,0.3688749
0.9322983,0.1947606,0.3689809
0.9339403,0.1914505,0.3666227
0.932429,0.1895589,0.3685037
0.9315063,0.1909152,0.3651848
0.9342483,0.1901388,0.3638668
0.9350754,0.1902107,0.3708956
0.9338211,0.1932635,0.3769631
0.9287711,0.1957859,0.3758742
0.9229422,0.1990546,0.3714158
0.9227047,0.2010088,0.3719387
0.9250142,0.2016978,0.3712861
0.9271971,0.1977844,0.3694814
0.9298188,0.1900079,0.371168
0.930007,0.1930101,0.3678069
0.9285845,0.197373,0.3664524
0.9313269,0.1938051,0.3700433
0.9340947,0.1937151,0.370501
0.934119,0.1933645,0.3727538
0.9360927,0.191827,0.3715716
0.9359344,0.1917858,0.3660723
0.9331067,0.191601,0.3663115
0.9310477,0.1952762,0.3650698
0.9292557,0.198503,0.361748
0.9273971,0.199966,0.3637624
0.9244673,0.2005326,0.368244
0.9249787,0.1985251,0.3740328
0.9274965,0.1957102,0.3751716
0.9278883,0.1908063,0.3718397
0.9291499,0.1907013,0.372601
0.9291516,0.1939868,0.3734467
0.9290846,0.1925934,0.377548
0.9296697,0.1930541,0.3822014
0.9299717,0.1940043,0.373394
0.9329394,0.1951475,0.36235
0.9339492,0.1981634,0.3611757
0.9330871,0.1955666,0.3688226
0.9334205,0.1931532,0.3771307
0.9326853,0.1948594,0.3739611
0.9307915,0.1946311,0.3717097
0.9281018,0.194845,0.3752674
0.9280601,0.1983632,0.3709688
0.9292192,0.2019998,0.3679141
0.9287872,0.2019853,0.3690282
0.929534,0.2007466,0.3655308
0.9291598,0.201586,0.3654847
0.9290067,0.2014114,0.3686612
0.930324,0.1999847,0.3692314
0.9298141,0.1987053,0.3729298
0.9297547,0.1960596,0.3749622
0.929808,0.1932912,0.3708586
0.9286683,0.1918734,0.3707273
0.927246,0.1923879,0.3740442
0.9258918,0.1944327,0.37543
0.9262823,0.1948261,0.3755573
0.9266675,0.1942045,0.3743433
0.926218,0.1943281,0.3751249
0.926414,0.1935812,0.3754443
0.9264329,0.1927317,0.3743307
0.9272427,0.193348,0.3751392
0.9308628,0.1951979,0.3729384
0.9343486,0.1971927,0.3704929
0.9320844,0.1967604,0.3708364
0.9289418,0.1925658,0.3708733
0.9308987,0.1888208,0.3714208
0.9307823,0.1899368,0.3696822
0.9276394,0.1917311,0.3667344
0.925893,0.192431,0.3651002
0.9249707,0.1949938,0.3643823
0.9284391,0.1943181,0.3679897
0.932264,0.1920849,0.3714612
0.9302509,0.195221,0.3660285
0.9286597,0.1964598,0.3595844
0.9277057,0.1935382,0.3625564
0.9255182,0.1926287,0.3650516
0.926631,0.1934513,0.3669842
0.9289016,0.1960005,0.3754965
0.9299969,0.1980086,0.3759333
0.929885,0.1973045,0.3712366
0.9269767,0.1969309,0.3724676
0.9254707,0.1973073,0.3706787
0.9267488,0.1971719,0.3703928
0.9264859,0.1961717,0.3745583
0.9261247,0.195592,0.3753367
0.9266143,0.1958499,0.3746442
0.9268202,0.1951294,0.3721796
0.9290569,0.1923152,0.3698388
0.9314555,0.1891093,0.3708949
0.9307783,0.18987,0.3714852
0.9300059,0.191541,0.3724054
0.9308314,0.1924072,0.3741946
0.9303121,0.1980394,0.3738729
0.9284588,0.2016159,0.3738804
0.9282049,0.1973637,0.3773585
0.9310731,0.1933995,0.3787992
0.9343539,0.1928147,0.3712737
0.9318154,0.1938208,0.363581
0.9281848,0.1948235,0.3671684
0.9299406,0.1933618,0.3739192
0.9288276,0.1917635,0.3747406
0.9241248,0.1926505,0.3717724
0.9235402,0.1942218,0.3671585
0.9271769,0.1946598,0.3669829
0.9308261,0.1934889,0.3694939
0.9302391,0.1925947,0.3669885
0.9299031,0.1931669,0.3659947
0.9314043,0.1931662,0.3663387
0.9298123,0.1921869,0.3677108
0.928576,0.1895834,0.3728423
0.9281036,0.1867394,0.3706032
0.9290387,0.1891878,0.3667055
0.9326458,0.1934937,0.3666387
0.931581,0.1933561,0.3638133
0.9277058,0.1930761,0.3660246
0.9260228,0.1945518,0.3709616
0.9266155,0.1935675,0.371611
0.929349,0.1907162,0.370699
0.9298832,0.1892336,0.3704924
0.9297597,0.1895673,0.3725092
0.9295014,0.1917911,0.373352
0.9282819,0.1965532,0.3745966
0.9297646,0.1985099,0.3757587
0.9289007,0.1954723,0.3744415
0.9270965,0.1941523,0.3752085
0.9283952,0.1926676,0.3742353
0.9293683,0.1897772,0.3698225
0.9312476,0.1901824,0.365324
0.9304641,0.1904769,0.3654786
0.9280451,0.1904512,0.37445
0.927889,0.1924055,0.3809397
0.9272587,0.1948925,0.3781429
0.9281097,0.1976973,0.3727679
0.9282793,0.1983973,0.3705311
0.9290561,0.1951056,0.3717556
0.931664,0.1909354,0.3724289
0.9304316,0.1920225,0.3722456
0.9301327,0.1952506,0.3711529
0.9310553,0.1939276,0.370445
0.9300452,0.1922614,0.3710833
0.9299564,0.1906497,0.3706716
0.9300137,0.1895447,0.3708996
0.9314817,0.1919146,0.37126
0.932683,0.1928253,0.3722395
0.9316175,0.1930523,0.3735248
0.931335,0.1934374,0.3719503
0.9293299,0.1931427,0.3714201
0.9258577,0.1959703,0.3718221
0.9258763,0.1977482,0.3729717
0.9274785,0.1953009,0.3767716
0.9286995,0.192706,0.3765557
0.9305127,0.1926521,0.3733933
0.9303858,0.1935395,0.3710445
0.9298834,0.1926421,0.3667492
0.9310548,0.1920844,0.367837
0.9293888,0.1922121,0.3742351
0.9273731,0.1949943,0.3753174
0.9271119,0.2024225,0.3743198
0.9263651,0.2054632,0.3733372
0.9290701,0.2000785,0.3724469
0.9317525,0.1923151,0.3718489
0.9300666,0.1883156,0.3684683
0.9284402,0.1896479,0.3709168
0.9273155,0.1912173,0.3755124
0.9262695,0.1917644,0.3756689
0.9246676,0.1933022,0.3786808
0.9231698,0.195127,0.3780492
0.9253396,0.1970413,0.3748516
0.927381,0.1970763,0.3752767
0.9262534,0.1955196,0.3749261
0.9260353,0.1952719,0.377112
0.9272888,0.1954709,0.3793054
0.9289372,0.1971103,0.3782616
0.9312702,0.1980601,0.3776443
0.931089,0.1946527,0.3774657
0.9297498,0.1937245,0.3771956
0.9307518,0.1953934,0.3729355
0.9294848,0.1958378,0.3674158
0.926629,0.1979157,0.3680564
0.9267119,0.1975602,0.3723703
0.9288789,0.1962941,0.3753694
0.9315818,0.1969277,0.3747296
0.9312741,0.1955349,0.3751713
0.9314465,0.1964587,0.3824778
0.9341485,0.1982361,0.3878232
0.9317003,0.1977645,0.3820014
0.9292159,0.1981414,0.3761408
0.9308762,0.1953269,0.3787077
0.9297987,0.1915778,0.3785936
0.9285431,0.1930217,0.3760784
0.9293456,0.1951332,0.3764256
0.9292484,0.1959799,0.3725605
0.9292349,0.1976528,0.369564
0.9302714,0.1956677,0.3697114
0.9315789,0.1894694,0.3675339
0.9310264,0.1867259,0.3695521
0.9284076,0.189986,0.3721784
0.9274105,0.194654,0.3703738
0.9296422,0.1961348,0.3704931
0.931394,0.1969339,0.3702895
0.9304873,0.1973464,0.3687205
0.9296873,0.194987,0.368031
0.9281868,0.1965494,0.3653057
0.9254694,0.1980615,0.3633474
0.9261593,0.1946048,0.3664714
0.9284245,0.194495,0.3694683
0.9294035,0.1962804,0.3683116
0.9311224,0.1971184,0.3692246
0.9309541,0.1950844,0.371983
0.9298513,0.1915839,0.3720675
0.9309813,0.1941099,0.3765274
0.9305959,0.1952525,0.3829898
0.9303667,0.1928415,0.3809235
0.9318755,0.1934152,0.3779177
0.9319542,0.1947717,0.3789757
0.9317051,0.1962232,0.3770989
0.9301462,0.1947312,0.375381
0.9286237,0.1904995,0.3753136
0.9301153,0.1879982,0.3744534
0.9308576,0.18732,0.3755532
0.9296095,0.1904408,0.3729764
0.9287269,0.1937592,0.3674332
0.9295336,0.1928458,0.3683624
0.931206,0.1906349,0.3729917
0.932227,0.1880749,0.375889
0.9322796,0.1872907,0.3735249
0.931575,0.1903242,0.369749
0.9316379,0.1928961,0.3714874
0.930235,0.1931634,0.3738982
0.9273789,0.1960048,0.3753124
0.9275202,0.2012147,0.375689
0.9278994,0.2015855,0.3738938
0.9267085,0.197371,0.3734288
0.9270775,0.193868,0.3720091
0.9307349,0.1909013,0.371092
0.9345367,0.1869833,0.3712894
0.9318312,0.1845527,0.3691039
0.9281638,0.184938,0.3716496
0.9297279,0.1851935,0.375415
0.9285062,0.1885375,0.373922
0.9249885,0.1973223,0.3767075
0.925328,0.2012845,0.3807226
0.9257263,0.1954012,0.3779415
0.9264372,0.1888555,0.374965
0.9294463,0.1897207,0.374186
0.9297768,0.1910476,0.3711948
0.9283939,0.1876889,0.3676569
0.9286778,0.1874529,0.3685119
0.9285249,0.1894907,0.371579
0.9293961,0.1909472,0.3724873
0.9315311,0.1926106,0.3722347
0.9320656,0.1927108,0.3715948
0.9321683,0.1926724,0.3718256
0.9316634,0.1912314,0.3728699
0.9308668,0.1913593,0.3721928
0.9306128,0.1932438,0.3722748
0.9302017,0.1919828,0.3720628
0.9307894,0.1924914,0.3701748
0.9306392,0.1934004,0.3722541
0.9302337,0.1928685,0.3734318
0.9309039,0.1931249,0.3709893
0.9300106,0.1918808,0.3715745
0.9287262,0.1915474,0.3710202
0.9274549,0.1920025,0.3700181
0.9274627,0.1937191,0.3715679
0.92912,0.1970473,0.3709514
0.9282746,0.1976599,0.3723574
0.927447,0.1966786,0.374669
0.9278716,0.1940082,0.3735413
0.9278749,0.1905013,0.3743021
0.9295183,0.1895823,0.3762654
0.9329024,0.1900417,0.3786714
0.9359199,0.1888375,0.3824129
0.9345359,0.1869188,0.3825529
0.9311123,0.1895668,0.3798194
0.930545,0.1931998,0.3775359
0.9310967,0.1934382,0.3750809
0.9322587,0.1939919,0.3750972
0.9313582,0.1945832,0.3774621
0.9297935,0.1943941,0.3773244
0.9318451,0.1934842,0.3778248
0.9318124,0.1926622,0.3802637
0.9289644,0.1931755,0.3806159
0.9273519,0.1930823,0.379886
0.9281917,0.1931647,0.3758659
0.9301432,0.1942072,0.3710784
0.9291765,0.1955231,0.3711192
0.9295912,0.1959408,0.3689283
0.9316463,0.1935301,0.3638634
0.9313057,0.1906283,0.365522
0.9329663,0.1897052,0.3730197
0.9338806,0.190325,0.3772424
0.9312914,0.191096,0.3750773
0.9281969,0.1926785,0.3699406
0.9258264,0.1955326,0.3672649
0.929044,0.1955823,0.3692219
0.9340325,0.1942126,0.3699662
0.9333024,0.1938695,0.3690573
0.9311209,0.1919759,0.3695018
0.9299187,0.1907345,0.3684572
0.9282911,0.1914908,0.3680863
0.9267161,0.1943114,0.3699139
0.9257927,0.197612,0.3713509
0.9270566,0.196936,0.3707906
0.9293624,0.1958156,0.3688504
0.9307963,0.1938969,0.3695807
0.9298576,0.1900506,0.371287
0.9265145,0.1900597,0.3710854
0.9263539,0.1904404,0.370599
0.9296365,0.1900556,0.3707495
0.9322293,0.190963,0.3709348
0.9335174,0.1917451,0.3697206
0.9325982,0.1937539,0.3691691
0.9303403,0.1933598,0.36991
0.9268014,0.192353,0.3711423
0.9254822,0.1936072,0.3732437
0.9290839,0.1928809,0.3741334
0.9309974,0.1928957,0.3751156
0.9323117,0.1933792,0.375015
0.9341708,0.1927453,0.3714349
0.9326208,0.1932376,0.3683715
0.9304813,0.1930346,0.3675802
0.9284043,0.1931278,0.3693687
0.9277706,0.1941131,0.3718815
0.9286077,0.193853,0.3726388
0.9292526,0.1910653,0.373302
0.9321105,0.1879394,0.3738469
0.9325196,0.1902915,0.37406
0.9299648,0.1929989,0.3729704
0.9291741,0.1903753,0.3717402
0.9290033,0.1895765,0.3738185
0.9307761,0.1909803,0.3744725
0.9314164,0.1909828,0.3728497
0.9296934,0.1918696,0.3739409
0.9306351,0.191964,0.3746664
0.9299977,0.1918034,0.3728456
0.9281334,0.194744,0.3683679
0.928806,0.1973881,0.3636866
0.9290021,0.1962128,0.3674085
0.931734,0.1923816,0.3745289
0.9347696,0.189826,0.3756174
0.9327772,0.190844,0.3749435
0.931052,0.1942135,0.3739384
0.9305373,0.1975761,0.3731458
0.9295698,0.1961221,0.3741279
0.9287708,0.1903833,0.3743367
0.9282429,0.1879995,0.3750646
0.9307897,0.1911031,0.3740651
0.9316342,0.1954475,0.3710455
0.9285519,0.1962415,0.3709014
0.9290627,0.1937905,0.3727144
0.9296889,0.1924478,0.3750105
0.9285273,0.1929638,0.3748231
0.9297839,0.1933933,0.3731463
0.9303586,0.1928901,0.3729401
0.9319652,0.1918736,0.3712494
0.933191,0.1879555,0.3719967
0.9323053,0.1839374,0.3750803
0.9351756,0.1894964,0.3744376
0.9356298,0.195878,0.3720235
0.9326781,0.1909127,0.3683837
0.9334852,0.1847224,0.3668418
0.9335175,0.1840688,0.3687966
0.9325893,0.1896381,0.3675009
0.9319282,0.2002183,0.3649277
0.9298081,0.2008857,0.3637898
0.9308452,0.1921462,0.3655356
0.9338524,0.1886381,0.3733789
0.9340222,0.1892251,0.3787383
0.929769,0.190224,0.3783985
0.924504,0.1907158,0.3815648
0.9270114,0.1918014,0.3853739
0.9314337,0.1940243,0.3787222
0.9296364,0.1927641,0.3694405
0.9278686,0.1917533,0.3693514
0.9260022,0.1922863,0.3667086
0.9254411,0.1929366,0.3624874
0.9280365,0.1946604,0.3704026
0.9286329,0.1910424,0.3782802
0.9308312,0.1872915,0.3784376
0.9307773,0.1899646,0.3774365
0.9277177,0.1911202,0.3765678
0.9305891,0.1895424,0.3764817
0.9313066,0.1883801,0.3759898
0.9295653,0.187242,0.3755209
0.9298936,0.1872816,0.3749671
0.9268591,0.1891372,0.3740035
0.925823,0.1909319,0.372792
0.9279645,0.1920177,0.3695085
0.9297425,0.1920364,0.3688731
0.9312859,0.1909792,0.3701428
0.9302813,0.1909601,0.3697755
0.9294064,0.1905791,0.3707474
0.929191,0.1915298,0.3709604
0.929045,0.1931119,0.3728843
0.9303423,0.1876668,0.379127
0.9298418,0.183041,0.3825976
0.9261035,0.1877271,0.3782965
0.9234731,0.1931329,0.3723437
0.9292592,0.1954839,0.3748786
0.9364196,0.1973413,0.3757595
0.9334523,0.1949269,0.3686291
0.9317019,0.1898947,0.3654625
0.9341616,0.1916511,0.3651953
0.9299533,0.1956759,0.3677916
0.9260389,0.1961289,0.3710948
0.9263535,0.1976531,0.3703214
0.9265364,0.1975991,0.3763566
0.9280865,0.1960799,0.3831039
0.9278593,0.1949507,0.3799796
0.9258582,0.1919738,0.3776006
0.9264577,0.1915054,0.3797316
0.9284999,0.1913747,0.3787485
0.9297043,0.1897334,0.3742413
0.9291629,0.1921531,0.3727864
0.9289482,0.1938753,0.3736625
0.9293597,0.1918513,0.3734808
0.9288931,0.1912588,0.3719858
0.9282932,0.1918,0.3712687
0.9273456,0.1917141,0.3740525
0.9267389,0.1916094,0.3741195
0.9269124,0.1913006,0.3709935
0.9287981,0.1899385,0.3714206
0.9314188,0.1886465,0.3756628
0.9299628,0.1904703,0.3806595
0.9279468,0.1924915,0.3794745
0.9286604,0.1907158,0.3745412
0.927715,0.1897404,0.3748158
0.9272348,0.1916605,0.3776506
0.9285011,0.1928975,0.3798781
0.928477,0.193753,0.3805945
0.9296266,0.1958187,0.3769142
0.9314053,0.1975086,0.3737229
0.931446,0.1956845,0.3758504
0.9297011,0.1920398,0.3773334
0.927019,0.1906334,0.3759937
0.9291315,0.1884906,0.3760715
0.9319458,0.1870426,0.3752985
0.9289886,0.191396,0.3716205
0.9276418,0.1944995,0.3690592
0.9280506,0.1931045,0.3691787
0.9275455,0.1931565,0.369688
0.9286076,0.1932464,0.369423
0.9276201,0.1912303,0.3700299
0.9257536,0.1910578,0.3731522
0.9271492,0.1921698,0.3760445
0.9311372,0.1898785,0.3753754
0.9346277,0.1861108,0.3742699
0.9335506,0.1847453,0.3753218
0.9312165,0.1878931,0.3746613
0.930339,0.1930387,0.371887
0.9286269,0.1916198,0.3703524
0.9289397,0.1876679,0.3700913
0.9307195,0.1866612,0.3694811
0.9304774,0.1852856,0.3678595
0.9309221,0.1866543,0.3697943
0.9325041,0.1885644,0.3749099
0.933254,0.1895805,0.3756069
0.9319773,0.1911433,0.3743744
0.9295462,0.1889477,0.3733398
0.9304143,0.1879743,0.3715099
0.9312841,0.1873148,0.3713001
0.9302657,0.1833428,0.3675517
0.9322049,0.1833281,0.3609442
0.9322973,0.18732,0.3595436
0.929624,0.1936459,0.3600172
0.9294239,0.1969506,0.358766
0.9294982,0.1912367,0.3633608
0.9301451,0.1881874,0.3742594
0.9327226,0.1961418,0.3798086
0.9340533,0.2030796,0.3794195
0.9334079,0.1988699,0.3780409
0.9339493,0.1912754,0.3730751
0.935839,0.1842714,0.3667222
0.9373665,0.1765092,0.3648183
0.9392702,0.1760898,0.3640397
0.9385873,0.1805716,0.3555688
0.9359267,0.1810933,0.348307
0.9350206,0.1745406,0.3538169
0.9327542,0.1666388,0.3595867
0.9315634,0.1723113,0.3618314
0.9326389,0.1814327,0.3665153
0.9313319,0.1822823,0.3684287
0.9309158,0.1868709,0.371747
0.9308205,0.1903245,0.3783292
0.9300667,0.1871893,0.3796856
0.9319356,0.1843549,0.3798412
0.9316731,0.1824704,0.3821111
0.9284402,0.1831517,0.381403
0.9245949,0.182707,0.3780496
0.9223808,0.1803205,0.3747017
0.9256367,0.1808042,0.3754246
0.9292543,0.1823814,0.3792836
0.9310705,0.1838932,0.3792115
0.9312956,0.1841084,0.3769031
0.9296544,0.1854911,0.3748096
0.9312145,0.1886781,0.3725522
0.9327133,0.1881237,0.3720851
0.9331906,0.1895592,0.3727447
0.9334126,0.1979828,0.3758937
0.9289546,0.2066564,0.3790416
0.9258198,0.2101828,0.3776986
0.9261818,0.207854,0.3761391
0.9266387,0.2041526,0.375757
0.9275403,0.2005045,0.375513
0.9278748,0.1943477,0.3767573
0.9287674,0.1915292,0.3776496
0.928471,0.1934049,0.3780363
0.9273641,0.1933363,0.3802861
0.927881,0.1932715,0.3837563
0.9275693,0.1960551,0.385065
0.9262007,0.1989279,0.3819624
0.9225646,0.1979347,0.3781527
0.9195152,0.1916498,0.3780126
0.9208089,0.1862244,0.3784321
0.9217314,0.1868573,0.3790436
0.9226221,0.1897752,0.3801652
0.9259315,0.1912263,0.3745627
0.9273613,0.1945262,0.3687433
0.9260076,0.1973474,0.3733117
0.9261915,0.1959497,0.3771491
0.9266379,0.1981018,0.3747341
0.925155,0.2007731,0.3764135
0.9246493,0.196064,0.3800469
0.9243088,0.192007,0.378281
0.9240091,0.1927957,0.3743521
0.9244104,0.1934266,0.3712438
0.923125,0.1919207,0.372139
0.9215103,0.1912318,0.3769172
0.9205819,0.1919237,0.3782593
0.9205357,0.1917475,0.3769304
0.9218869,0.1925447,0.3760491
0.9243099,0.1936083,0.3764152
0.9269899,0.1942573,0.3787487
0.9252408,0.1964534,0.3793882
0.9220853,0.1978729,0.3796178
0.9238338,0.1971062,0.3809823
0.9246224,0.1943669,0.3816624
0.9246187,0.1877399,0.3796829
0.9273431,0.1813719,0.3754255
0.9264965,0.1869634,0.3757558
0.9246936,0.2007198,0.3764082
0.9264364,0.2080365,0.3743588
0.9300682,0.2098015,0.3769472
0.9346042,0.2097263,0.3788766
0.932306,0.2082222,0.3783691
0.9276528,0.2032432,0.3794161
0.930472,0.1940972,0.3793118
0.9313253,0.1926748,0.378998
0.9294604,0.195267,0.3799236
0.9292477,0.1913374,0.3829557
0.9270805,0.1890585,0.3866869
0.9274219,0.1895157,0.386405
0.928337,0.1888499,0.3826308
0.9263331,0.1879729,0.3773536
0.9262691,0.1860736,0.3722069
0.9262825,0.1861697,0.3709402
0.9252029,0.1903896,0.3714219
0.924017,0.1935302,0.3705592
0.9232244,0.1944602,0.3721274
0.9250651,0.1982286,0.3718238
0.927365,0.1982494,0.3672749
0.9290554,0.1944273,0.3677978
0.9296833,0.1953784,0.3706261
0.9286652,0.193462,0.3712946
0.9282946,0.1918395,0.3729081
0.9278601,0.1941564,0.3744032
0.9283401,0.1925036,0.3765408
0.929807,0.1929697,0.3783885
0.9287668,0.1936095,0.3780041
0.9270774,0.1925205,0.377287
0.9261705,0.1939793,0.3767085
0.9260048,0.1910993,0.3745784
0.9273282,0.1856687,0.3695463
0.9293467,0.1822528,0.3650708
0.9329312,0.1811086,0.3651678
0.9345303,0.1809944,0.3692706
0.9323395,0.1817419,0.3721319
0.931286,0.1884228,0.3707769
0.9295929,0.1946639,0.370887
0.928373,0.197003,0.3739103
0.9306231,0.1996166,0.3760558
0.9306846,0.1996061,0.3763222
0.9291764,0.1984985,0.3737013
0.9284431,0.1969178,0.3687368
0.9281027,0.1951769,0.3645482
0.9297861,0.1967069,0.3614298
0.930344,0.1970035,0.3587907
0.9299473,0.1922043,0.3651035
0.9292496,0.1869509,0.3749199
0.9269394,0.1866774,0.3711948
0.9273398,0.1881969,0.3683814
0.9275847,0.187172,0.3730688
0.9261232,0.1861886,0.3711581
0.9290794,0.1852648,0.3717481
0.9317998,0.1852298,0.373789
0.9304349,0.1905315,0.372223
0.9301525,0.196897,0.3765079
0.9307145,0.1979761,0.379875
0.9296021,0.1987609,0.3824956
0.9287525,0.2026658,0.3856173
0.9292334,0.2036298,0.3797033
0.9294716,0.2018791,0.3739599
0.9299179,0.1998444,0.3753637
0.930901,0.1930204,0.3789934
0.9306655,0.1864679,0.3812491
0.9303002,0.1882483,0.3789397
0.930714,0.1900027,0.3766909
0.9305567,0.1867372,0.3773214
0.9304548,0.1869041,0.3752101
0.9306646,0.1895955,0.3705986
0.9299661,0.189601,0.3707339
0.9278612,0.1909702,0.37543
0.9261645,0.1936058,0.3790289
0.9286843,0.1955392,0.3800341
0.9318574,0.196947,0.3788153
0.9293203,0.1962802,0.3783572
0.926325,0.1972287,0.3770271
0.9267966,0.1974473,0.3737605
0.9281277,0.193568,0.3740675
0.9306882,0.1913159,0.3722542
0.9312239,0.1895069,0.3682264
0.929922,0.1883161,0.3718936
0.930818,0.188943,0.3768805
0.9306682,0.1878848,0.3803229
0.9298775,0.1880145,0.3860432
0.9290985,0.1909803,0.3842701
0.9268602,0.1940275,0.3785022
0.9266783,0.1923815,0.3804711
0.9266745,0.1884817,0.3797056
0.9264066,0.189085,0.3759974
0.9293718,0.1902178,0.3788903
0.9314169,0.192052,0.3808238
0.9306121,0.1941427,0.3814696
0.931462,0.1921431,0.3802768
0.9369642,0.1902125,0.3759644
0.9414018,0.1891622,0.3777598
0.935991,0.1917825,0.3788135
0.9292218,0.1962072,0.3768972
0.931638,0.1936059,0.3790234
0.9330687,0.1921138,0.3784347
0.9291299,0.1956446,0.3755656
0.9283247,0.1952078,0.3725573
0.9283066,0.1898163,0.3687071
0.9278765,0.1831886,0.3696928
0.9299111,0.1821656,0.3736198
0.9295536,0.186354,0.3758138
0.9295585,0.1878095,0.3753847
0.9324919,0.1895916,0.3736262
0.9330113,0.1931319,0.371885
0.9324349,0.1943144,0.3694324
0.9292451,0.1947087,0.3702764
0.9251429,0.1944283,0.3722805
0.9287384,0.1942397,0.3710096
0.9319453,0.1947114,0.3721285
0.9274416,0.1942603,0.3721794
0.925009,0.1944761,0.3696142
0.9271394,0.1945526,0.3711665
0.92862,0.1939081,0.3708765
0.9305753,0.1928247,0.3683581
0.9330368,0.1906738,0.3684397
0.9335843,0.1898353,0.3699263
0.9332245,0.1895657,0.3741815
0.932179,0.189111,0.375987
0.9307127,0.1889904,0.376354
0.9303401,0.1876489,0.3802257
0.9305224,0.1872446,0.3799243
0.930679,0.1880489,0.3782478
0.9305119,0.1893031,0.3805873
0.9304766,0.1916439,0.3802513
0.9305181,0.1910813,0.3766345
0.9291934,0.1886916,0.3748046
0.9274879,0.1888535,0.3784796
0.9274136,0.1899214,0.3841787
0.9286928,0.1905269,0.3829542
0.9281465,0.1907269,0.3765511
0.927304,0.1918494,0.3710016
0.9303591,0.1932079,0.3670484
0.9330643,0.1905813,0.3626278
0.9335594,0.187568,0.3575334
0.9329196,0.1887023,0.3629133
0.9293392,0.1886313,0.3740895
0.9272034,0.1867008,0.3734881
0.9293244,0.1878628,0.3740684
0.931552,0.1897241,0.3810517
0.9307062,0.1907393,0.3798434
0.9298266,0.1924741,0.373981
0.931315,0.1932598,0.369976
0.931373,0.1932433,0.3743287
0.9314858,0.1927806,0.3807421
0.9308052,0.1921787,0.3755164
0.928007,0.1922146,0.3704331
0.9291575,0.1912412,0.3696055
0.9296447,0.1900329,0.3702659
0.9275858,0.1899504,0.3774133
0.9280575,0.1904954,0.379805
0.9290967,0.1900639,0.3735125
0.9320791,0.1881474,0.3696828
0.9343014,0.1872192,0.3738324
0.9320802,0.1878064,0.378187
0.9304798,0.1903725,0.3724453
0.9306408,0.1922443,0.3686524
0.9316351,0.1896901,0.3724561
0.9335226,0.1865928,0.3744703
0.9354314,0.1845562,0.3772298
0.9362535,0.183675,0.3781285
0.9342238,0.187444,0.3769372
0.9314462,0.1920916,0.3771886
0.9308972,0.1911013,0.3714457
0.9315112,0.1907409,0.3657389
0.9319958,0.1944655,0.3678598
0.9314585,0.1933095,0.3694828
0.9282334,0.1912414,0.3692064
0.9257521,0.1904845,0.3712709
0.9292022,0.1860178,0.3715637
0.933827,0.1871812,0.3699593
0.9338166,0.1907283,0.3715176
0.9326911,0.1899782,0.3729221
0.9324424,0.1915748,0.3735408
0.9308448,0.192161,0.3743559
0.9298162,0.1914773,0.3733597
0.9297534,0.1901531,0.3754246
0.9280282,0.1862063,0.3772411
0.9275831,0.187139,0.3748869
0.9298417,0.1896538,0.3738657
0.9307462,0.1892015,0.3739005
0.9288544,0.1896233,0.3765576
0.9269419,0.1879905,0.380698
0.9280601,0.1869421,0.3798379
0.9300698,0.189783,0.3740917
0.9305106,0.1908443,0.3691667
0.9299682,0.1905303,0.3720414
0.9286596,0.1919952,0.3755842
0.9289828,0.1932507,0.3729664
0.9293164,0.1915671,0.3733025
0.9269804,0.1892254,0.3757095
0.9259266,0.1902859,0.3766467
0.9269137,0.1906718,0.3794274
0.9710242,0.1828342,0.2753452
0.9669299,0.1860477,0.270209
0.9677683,0.1858935,0.2702331
0.9687003,0.1880238,0.2725866
0.9653129,0.1883372,0.2718733
0.9653223,0.1869712,0.2712415
0.9661893,0.1911378,0.2697792
0.9667093,0.1905869,0.2687461
0.96744,0.1862057,0.2701149
0.9668421,0.18742,0.2705107
0.9685088,0.1902792,0.2728229
0.9674299,0.1925336,0.2744889
0.9656538,0.1929096,0.2733412
0.9672656,0.1903615,0.2735299
0.9665181,0.1869301,0.2739106
0.9665033,0.1874044,0.2744667
0.9673415,0.19103,0.275254
0.9682953,0.1914493,0.2752893
0.970957,0.1893023,0.2757366
0.9699618,0.1864409,0.2763125
0.966496,0.1871535,0.2739518
0.9634891,0.1897231,0.2682282
0.9620162,0.1894205,0.2658072
0.9644384,0.191629,0.2693132
0.9672727,0.1925411,0.272235
0.9677945,0.1918259,0.2709948
0.9680096,0.1936492,0.2715252
0.9683244,0.192115,0.2753034
0.9678793,0.1910141,0.273745
0.9678257,0.1922148,0.2676568
0.9671973,0.192406,0.265571
0.9652773,0.1933877,0.2686103
0.9655416,0.1931532,0.2715435
0.9681058,0.1924423,0.2733052
0.9700311,0.191126,0.2766008
0.9687343,0.1878372,0.2757904
0.9663906,0.1867626,0.2726942
0.9673507,0.188084,0.2719758
0.9673051,0.1894553,0.266753
0.9644178,0.190761,0.2657114
0.9639882,0.1914893,0.2731991
0.9674532,0.1915905,0.2771832
0.9702993,0.1918179,0.2783185
0.9669987,0.1918668,0.2750682
0.9635683,0.1923696,0.2682208
0.9655998,0.1933537,0.26568
0.9656498,0.1920154,0.2664475
0.963724,0.1900224,0.2688926
0.9643119,0.1893031,0.2684733
0.9656088,0.1882107,0.2674824
0.9671612,0.1870804,0.2709256
0.9670524,0.1862998,0.2733223
0.9660565,0.1883836,0.2755154
0.9669834,0.1916119,0.275829
0.9665854,0.1911064,0.2740054
0.9654269,0.1930837,0.2759636
0.9651757,0.1975412,0.2778804
0.9642806,0.1957642,0.279107
0.9646736,0.1927829,0.2778335
0.9657165,0.1924108,0.2731862
0.9662135,0.190889,0.2725949
0.9669042,0.1906789,0.2714672
0.9665215,0.1909049,0.268237
0.9656725,0.1914156,0.2693221
0.9652524,0.1942217,0.2707736
0.9660243,0.1941905,0.2725716
0.9671871,0.1939034,0.2761741
0.9666255,0.1947094,0.2754132
0.9664508,0.1913184,0.273063
0.9668869,0.1897191,0.2738682
0.9663841,0.1922074,0.2733193
0.9659404,0.1938878,0.2707645
0.9663251,0.19417,0.2672991
0.9685493,0.1936253,0.2646326
0.9699862,0.1921991,0.2679575
0.9673799,0.1893529,0.2730202
0.9648546,0.1898348,0.2752545
0.9651749,0.1922755,0.2742578
0.9654397,0.1912661,0.2712129
0.9651839,0.191547,0.274723
0.9651299,0.1911265,0.2784083
0.964207,0.1894382,0.2757293
0.9628901,0.190648,0.2776527
0.9633846,0.1899569,0.2813562
0.9660332,0.1882209,0.2818694
0.9674422,0.1880099,0.2797938
0.966514,0.1911081,0.2735184
0.9662564,0.1973945,0.2704967
0.9660374,0.1982713,0.2706064
0.9645346,0.1959543,0.2691928
0.9633402,0.1947608,0.2694694
0.9622822,0.1923232,0.271471
0.9624341,0.1929217,0.2728301
0.9648834,0.195602,0.2722286
0.9666505,0.1959988,0.2719276
0.9667305,0.1959493,0.2721457
0.9654338,0.1959407,0.2697568
0.963015,0.1966207,0.2662279
0.9620238,0.1975122,0.2643221
0.9622977,0.1959401,0.2661539
0.9617854,0.1935672,0.2702727
0.9609646,0.1926247,0.2729358
0.9617861,0.1929316,0.2716559
0.9631435,0.1939019,0.2678821
0.9624153,0.1950374,0.2683491
0.9627477,0.1956433,0.2720712
0.9655348,0.1943828,0.2743277
0.9672675,0.1943299,0.2740889
0.9670069,0.1952378,0.2727632
0.9661742,0.1928824,0.2766359
0.9667856,0.1927697,0.2808849
0.9669463,0.1949851,0.2788229
0.9662481,0.1959259,0.2765911
0.9664142,0.1975714,0.2753355
0.9639717,0.1947266,0.2745049
0.9616437,0.191467,0.2751525
0.9633795,0.193475,0.2750924
0.9641864,0.1933363,0.2741665
0.9618062,0.1926358,0.2714568
0.9596051,0.1933427,0.2684042
0.9605655,0.1931112,0.2696698
0.9625273,0.1943286,0.2738591
0.9627339,0.1968769,0.2757384
0.9619155,0.1994518,0.2748133
0.9597233,0.1998831,0.2738143
0.9577909,0.1994232,0.2761248
0.9588986,0.201857,0.2805728
0.9612465,0.2023208,0.2806048
0.9632214,0.1955126,0.2815046
0.9655798,0.189444,0.285204
0.9644015,0.1933558,0.2790401
0.9608998,0.1983178,0.272225
0.9629491,0.1970022,0.2778832
0.9651778,0.1969762,0.2813667
0.9644702,0.1975275,0.278211
0.9642209,0.195519,0.2791309
0.9616395,0.1939894,0.2807438
0.9621519,0.1923018,0.2802611
0.9646724,0.1918792,0.281216
0.9642138,0.1929125,0.2817417
0.9658544,0.1955789,0.2811734
0.965738,0.1995233,0.2797797
0.9654188,0.1957402,0.2798328
0.9676478,0.1904969,0.2813938
0.9664389,0.1935529,0.2793311
0.9661772,0.1937206,0.2784343
0.9660968,0.1912742,0.2793217
0.9635075,0.1928974,0.2760873
0.9628328,0.1933855,0.274209
0.962514,0.1942439,0.2749621
0.9635808,0.196655,0.2751988
0.9662444,0.1978029,0.2752432
0.9670891,0.1979906,0.2755932
0.9667571,0.1967009,0.276949
0.9662204,0.1953704,0.2764297
0.9655466,0.1945116,0.2756277
0.9633078,0.1934543,0.2752276
0.9618097,0.192808,0.2736855
0.9637668,0.1928534,0.2750858
0.9651042,0.1933891,0.2756994
0.9646476,0.1929089,0.2741378
0.9645797,0.1929212,0.2741945
0.9654945,0.193541,0.2725825
0.9665624,0.1943701,0.2718752
0.9661035,0.198422,0.2743993
0.9640843,0.2007351,0.2755184
0.9622503,0.1969651,0.275039
0.9646851,0.1927482,0.2747869
0.9683027,0.1924671,0.2750802
0.9669456,0.1931962,0.2751014
0.9676518,0.1909292,0.276253
0.9704443,0.1887152,0.2822676
0.9671635,0.188664,0.2870383
0.9637757,0.1891247,0.2804428
0.9637504,0.1899277,0.2716912
0.9635796,0.1903663,0.2729161
0.9630242,0.1904587,0.2742774
0.9614411,0.1905076,0.2750751
0.961337,0.1921627,0.2807567
0.9623641,0.1950777,0.2773966
0.9619421,0.1968562,0.2721138
0.9636383,0.1993308,0.2761703
0.966131,0.1999442,0.2746761
0.9649725,0.1953252,0.270334
0.9624722,0.1914935,0.2702653
0.9619365,0.1929452,0.2733137
0.9627845,0.1948862,0.2803418
0.9626131,0.1941599,0.279358
0.9622115,0.1944491,0.2731748
0.9627191,0.1947448,0.2727331
0.9624678,0.1936794,0.2765133
0.9629038,0.1927533,0.283816
0.9653726,0.1902169,0.2839521
0.9668035,0.1895689,0.2771998
0.9643467,0.1909046,0.2748597
0.9611242,0.1900259,0.274443
0.9623607,0.1901831,0.2762519
0.9633712,0.1905568,0.2768729
0.9624869,0.1903436,0.274432
0.9662546,0.1922505,0.2734371
0.9694528,0.1935615,0.271618
0.967981,0.1931857,0.2737554
0.9672684,0.1927857,0.2793246
0.9661854,0.193832,0.2823562
0.9629794,0.1968007,0.2837802
0.9617399,0.199809,0.2828796
0.9637153,0.2009857,0.2848128
0.9644086,0.2011092,0.2909342
0.9644429,0.199369,0.2939852
0.9688292,0.1881099,0.2847412
0.9740201,0.1741513,0.2681337
0.9738565,0.1743242,0.266889
0.9686477,0.17983,0.2718247
0.9633564,0.1826734,0.2683663
0.9612894,0.1916824,0.2700539
0.961511,0.1981151,0.2737771
0.9614754,0.1967776,0.2752111
0.9605604,0.198297,0.2762366
0.9619843,0.1983033,0.2746602
0.965002,0.195339,0.2751286
0.9675889,0.1932557,0.2709211
0.9692789,0.1901201,0.2660184
0.9683693,0.195698,0.2712279
0.9660758,0.2034267,0.2737797
0.9618745,0.1997755,0.2723412
0.9599313,0.1986093,0.2764234
0.9604383,0.2009426,0.2826625
0.9578832,0.1968558,0.2847831
0.9623498,0.1919338,0.2831989
0.9707044,0.1892651,0.2848117
0.9711494,0.1900781,0.2872052
0.9683002,0.1939128,0.2861114
0.9617959,0.1976332,0.2866932
0.9550417,0.2009675,0.2873886
0.953696,0.1989361,0.2833598
0.9566966,0.1951457,0.2777508
0.9614503,0.1965163,0.2760201
0.962842,0.1941924,0.2774945
0.9659808,0.1905208,0.2780399
0.9693603,0.1926626,0.2777755
0.9683245,0.1943563,0.2777134
0.9689264,0.1972062,0.2779508
0.9654277,0.2011005,0.2791071
0.960376,0.2027379,0.2811376
0.963093,0.2016963,0.2831697
0.9660206,0.1962454,0.2839491
0.9662685,0.1937209,0.2826048
0.9641124,0.1934368,0.2783319
0.9598401,0.1941428,0.2760912
0.9606651,0.2018368,0.2787573
0.9638994,0.2061057,0.2793675
0.9635992,0.2031789,0.2803393
0.9644457,0.1985151,0.2833448
0.9658343,0.1923994,0.2817204
0.9632194,0.1903589,0.2809861
0.9616899,0.1926115,0.2811354
0.9623761,0.1958412,0.2787976
0.9607957,0.1986732,0.2796502
0.9592439,0.1983671,0.2780648
0.9609744,0.1964165,0.2737037
0.9644901,0.1960206,0.2748502
0.9661758,0.1967551,0.277188
0.9661655,0.1980024,0.2766673
0.9667086,0.200222,0.275503
0.9668708,0.1971069,0.2751423
0.9665435,0.1923353,0.2749207
0.9664535,0.1960121,0.2773539
0.9658724,0.1987618,0.2851581
0.9647756,0.197524,0.2892758
0.9642369,0.1956418,0.2807582
0.963747,0.1915897,0.2717021
0.9626906,0.1925703,0.2788912
0.9627862,0.1942713,0.286381
0.9642344,0.1927203,0.2821796
0.9656167,0.1966007,0.2838142
0.9647458,0.2020076,0.2830439
0.9630306,0.2030982,0.2765838
0.9638877,0.1999406,0.2813211
0.9631639,0.1952051,0.283671
0.9603092,0.1944462,0.2805605
0.9583844,0.1946782,0.2815132
0.9570605,0.1938632,0.2796195
0.9610245,0.1940284,0.2765877
0.9658265,0.1939857,0.2740929
0.9630635,0.1962197,0.2722314
0.9610068,0.1971053,0.2715658
0.9623286,0.1906477,0.269281
0.9610602,0.1855052,0.270779
0.9617989,0.1884161,0.2753631
0.9652191,0.1921256,0.277817
0.96527,0.1916649,0.277469
0.9633737,0.1920155,0.2746173
0.9620065,0.1952288,0.2744402
0.9625301,0.1984506,0.2745072
0.9648477,0.1980801,0.2716169
0.9655346,0.1921392,0.2702599
0.9651957,0.1899128,0.2694439
0.9643381,0.1932638,0.271193
0.9634481,0.1938809,0.2751623
0.9638754,0.1947458,0.2757441
0.9630211,0.1954062,0.2765846
0.9621055,0.1959976,0.2783797
0.9625529,0.19822,0.2779394
0.9623777,0.1949819,0.2772782
0.9616054,0.1923123,0.2768111
0.9611332,0.1935632,0.2753523
0.9632016,0.1926848,0.274422
0.9666232,0.1936889,0.2757409
0.9681255,0.1959555,0.2778367
0.9680304,0.1976185,0.2796775
0.9665428,0.1974294,0.2795639
0.9637161,0.193674,0.2771992
0.9614373,0.1925354,0.2752383
0.9614383,0.1930798,0.271072
0.9614153,0.1933752,0.2681733
0.9607908,0.1954653,0.2715396
0.9622257,0.1978125,0.2732345
0.9634591,0.1992113,0.2718777
0.9649425,0.1963509,0.2721138
0.9675761,0.1929707,0.2724001
0.9669841,0.193325,0.2721702
0.9656271,0.1951607,0.2734012
0.9652877,0.199291,0.2785712
0.9631797,0.2010451,0.2834617
0.9625119,0.1996276,0.2803208
0.962929,0.199426,0.2745874
0.9622228,0.1970669,0.2744095
0.9634895,0.1931902,0.2745353
0.9646098,0.1921937,0.2735047
0.9644899,0.1934276,0.2764307
0.9656192,0.1932613,0.2784086
0.9652792,0.1931381,0.27585
0.9640296,0.196451,0.272847
0.9638804,0.1997375,0.2718303
0.9637,0.2001621,0.2732617
0.9638503,0.1972083,0.2772551
0.963031,0.1946338,0.280309
0.9620547,0.1959766,0.2765596
0.962766,0.1962256,0.2731463
0.9634866,0.1954384,0.2754549
0.9640543,0.196193,0.2745902
0.9638776,0.1974487,0.2736045
0.9627659,0.2009796,0.2756811
0.9623389,0.2040552,0.2750823
0.9624236,0.2029614,0.2751927
0.9626021,0.202228,0.2779317
0.9621429,0.2041298,0.2791989
0.9606211,0.2043122,0.2758759
0.960178,0.2028241,0.2726597
0.9639166,0.2017953,0.2770565
0.9682522,0.2002167,0.2810025
0.9658177,0.1976973,0.2778043
0.9618311,0.1940951,0.2757276
0.9615812,0.1937781,0.2758627
0.9599278,0.1975306,0.2743513
0.959113,0.199316,0.2743005
0.9603945,0.1994799,0.2752152
0.96038,0.1959482,0.2746748
0.9615364,0.192084,0.2735985
0.9626809,0.1982951,0.2733618
0.9640706,0.2037522,0.2757389
0.9662613,0.1991696,0.2769631
0.9646937,0.1963592,0.2751929
0.9621141,0.1986931,0.2752851
0.9609804,0.2002287,0.277665
0.9614247,0.2018292,0.2795145
0.9633748,0.202821,0.2765169
0.962315,0.1991918,0.2710384
0.9608722,0.1957656,0.2691923
0.9605478,0.197499,0.2680319
0.9590376,0.1996972,0.2692154
0.9599338,0.1997215,0.2718135
0.9612137,0.1984257,0.2688974
0.9617762,0.1969169,0.2669372
0.9631871,0.1986906,0.2686697
0.9623784,0.2011688,0.2690177
0.9621895,0.1998691,0.2698504
0.9629338,0.1993093,0.2715058
0.9621893,0.1995057,0.271965
0.9625832,0.1969733,0.2694882
0.9631545,0.1957154,0.2651091
0.9649583,0.1948697,0.265015
0.9676957,0.1929591,0.2685545
0.9668685,0.1938394,0.2701116
0.9662211,0.1975632,0.2685315
0.967962,0.2013228,0.2637222
0.967604,0.2004558,0.2602986
0.9643567,0.1977504,0.2645852
0.9616278,0.1977125,0.2705061
0.9629531,0.1952281,0.2699836
0.9653474,0.1931868,0.2677036
0.9653965,0.1940635,0.265491
0.9667988,0.1927691,0.261477
0.9673093,0.1928853,0.2635929
0.9651477,0.1948141,0.2680084
0.9661172,0.1961622,0.2654533
0.9671945,0.1983111,0.2645398
0.9663761,0.1991373,0.2664534
0.9668345,0.2000242,0.2675646
0.966588,0.2006466,0.2703885
0.9666252,0.1994466,0.2698734
0.966834,0.2000818,0.2680262
0.9660752,0.2003183,0.2682563
0.9650852,0.1992078,0.2674101
0.9634302,0.198507,0.2658334
0.9646942,0.1961031,0.2604851
0.9670243,0.1946848,0.2595039
0.9668191,0.1950677,0.2677326
0.9673538,0.1946098,0.2692292
0.9675043,0.1931955,0.2668481
0.9663912,0.1924382,0.2669375
0.9662903,0.1953054,0.2639122
0.9660016,0.196952,0.2633568
0.9647891,0.1954079,0.262735
0.9641519,0.1948556,0.2614382
0.9638007,0.1941795,0.2643447
0.9628927,0.1964577,0.2666717
0.9636003,0.197331,0.2706122
0.9659757,0.1941957,0.2715942
0.9672582,0.1964808,0.2693895
0.9667909,0.1974532,0.2718082
0.9658985,0.1961033,0.2706977
0.9651281,0.1970154,0.2692913
0.963414,0.1933149,0.2708986
0.9632093,0.1920991,0.2694402
0.9635353,0.1940115,0.269219
0.9611532,0.1938192,0.2672859
0.9620305,0.1967055,0.2639858
0.966339,0.1983021,0.2637166
0.9690451,0.1990834,0.2641196
0.9694821,0.2024072,0.2671315
0.9656687,0.2032625,0.2698703
0.9625148,0.2018256,0.2709811
0.963898,0.2008084,0.2728753
0.9647639,0.2009981,0.274119
0.9648064,0.1989415,0.2748909
0.9643217,0.1960344,0.2749787
0.9612348,0.1971933,0.2760889
0.9604401,0.1977451,0.2762592
0.9647188,0.1968218,0.273216
0.9669288,0.1971339,0.2705679
0.9658902,0.1964463,0.2692372
0.9662152,0.1954138,0.2690813
0.9675411,0.1957876,0.2667974
0.9683491,0.1971506,0.2650245
0.9662055,0.2010065,0.2698771
0.9639479,0.20511,0.2747799
0.9638135,0.2013526,0.2769448
0.9620551,0.1962854,0.2796218
0.9622263,0.1998138,0.2801679
0.9643944,0.2009647,0.2783712
0.9655726,0.1971555,0.2801146
0.9671608,0.1964881,0.2852842
0.9658049,0.1945834,0.2867891
0.963369,0.1930232,0.2803522
0.962858,0.1976404,0.2716193
0.9613446,0.2025795,0.2745347
0.9606682,0.2022449,0.2800644
0.9615005,0.2010793,0.2766305
0.9619987,0.202421,0.2777319
0.9626941,0.2004283,0.2781592
0.9628613,0.1978714,0.2742455
0.9631465,0.1992909,0.2747979
0.9642668,0.1995139,0.2737937
0.9640551,0.2009255,0.2745518
0.9635421,0.2024494,0.2762543
0.9641099,0.2016846,0.2755362
0.9635333,0.2032103,0.2778694
0.9619451,0.2027203,0.2768169
0.9607533,0.2004137,0.27314
0.9609585,0.1997454,0.2728149
0.9624289,0.1987008,0.2737422
0.9626475,0.1986832,0.277116
0.9625892,0.1985239,0.280705
0.9635099,0.198487,0.2789997
0.9640233,0.1992762,0.2767294
0.964083,0.200089,0.2788053
0.9636999,0.201896,0.281117
0.9638736,0.2006148,0.282705
0.9639079,0.198175,0.2821908
0.9627591,0.1988878,0.2811204
0.9623643,0.199506,0.2808733
0.962593,0.1998185,0.2726416
0.9634522,0.1984924,0.26409
0.9642508,0.1962884,0.2659444
0.9638103,0.1972281,0.2680797
0.9638397,0.1976624,0.2675414
0.9639513,0.1968281,0.2733943
0.9638379,0.1973608,0.2807211
0.9639416,0.1973093,0.27799
0.9640079,0.1970438,0.2749442
0.9648335,0.1973668,0.2765696
0.9660648,0.1971729,0.2746929
0.9680435,0.1971816,0.2763362
0.9697543,0.1973074,0.2790778
0.9680123,0.1973227,0.2761546
0.965592,0.1981521,0.2750776
0.9666242,0.1985391,0.2750317
0.9671128,0.1967078,0.2747239
0.9652296,0.1942389,0.2753219
0.9651404,0.1938452,0.274807
0.965415,0.1944453,0.2746524
0.9647297,0.1953689,0.2733433
0.9635266,0.1978145,0.2714969
0.9609233,0.1981242,0.2725113
0.9607928,0.1974167,0.2740041
0.9624652,0.1999129,0.2737091
0.9625598,0.1997765,0.2727841
0.9626029,0.1973264,0.2740997
0.9622318,0.1970531,0.2777876
0.9615681,0.195517,0.2799604
0.9617023,0.1954326,0.2778395
0.9644051,0.1977899,0.2703058
0.9680729,0.1989454,0.2625389
0.966634,0.2005485,0.2642141
0.963916,0.2003581,0.2732848
0.9640004,0.1993316,0.2784838
0.9636255,0.2000812,0.2761418
0.96375,0.1976572,0.2716772
0.963251,0.1937071,0.2702132
0.9618655,0.1923963,0.2707592
0.9624551,0.1932487,0.269383
0.961809,0.1953181,0.2628449
0.9608976,0.1961116,0.2576723
0.9631973,0.1959466,0.2674707
0.9652671,0.1950384,0.2792709
0.9647283,0.1921288,0.2749784
0.9633864,0.1897894,0.2732939
0.9644698,0.1921743,0.2785904
0.9678583,0.1980015,0.2745585
0.9696988,0.1991447,0.2732903
0.9672531,0.1953593,0.2766685
0.963947,0.1925767,0.2727637
0.9660404,0.1916004,0.270315
0.967907,0.1918955,0.2703762
0.9659319,0.1920514,0.2728687
0.9666998,0.1943731,0.2785546
0.9667373,0.1977496,0.2754358
0.9643441,0.1961914,0.2712101
0.9638937,0.1932334,0.2722099
0.9644771,0.1919149,0.2714989
0.9658085,0.1921854,0.2750448
0.9651094,0.1939351,0.278014
0.9629266,0.1948777,0.275569
0.9626258,0.1964755,0.2754112
0.9630117,0.197872,0.2745342
0.9645883,0.1981147,0.2718997
0.9652157,0.1989739,0.2707714
0.966166,0.1992416,0.2721168
0.9693592,0.1987152,0.2749237
0.9695576,0.1980945,0.2747449
0.9677299,0.1977886,0.2754574
0.9643427,0.1970131,0.2774354
0.9614132,0.1955379,0.2762059
0.9643257,0.194162,0.2770213
0.9666062,0.1928921,0.2780314
0.9660352,0.1954591,0.2745973
0.9676034,0.198732,0.2718572
0.9683697,0.1970315,0.2718291
0.965714,0.1966697,0.273067
0.9627406,0.197831,0.2749442
0.9622287,0.1969066,0.2769247
0.96342,0.1972145,0.2766441
0.9645143,0.1977757,0.2736709
0.964792,0.1987826,0.2724042
0.9652712,0.2005169,0.2726042
0.9654787,0.1992809,0.2746383
0.9637156,0.1980522,0.2789016
0.9618509,0.1996909,0.281247
0.9606876,0.2004817,0.2809251
0.9608012,0.1998184,0.2770497
0.9618131,0.1997716,0.2754743
0.961904,0.1990521,0.2766783
0.9633942,0.1973495,0.2734282
0.9638873,0.196699,0.2748567
0.9624909,0.1960883,0.276565
0.9630699,0.1938405,0.2736124
0.9618165,0.1930121,0.2776447
0.960335,0.1966731,0.2786796
0.9623968,0.2000366,0.2764411
0.9629156,0.1987341,0.2774297
0.9618836,0.1978644,0.2768806
0.9608142,0.1991338,0.2816686
0.9591609,0.1985865,0.2836436
0.9596643,0.1982932,0.2805821
0.9617864,0.198977,0.282682
0.9647041,0.1984164,0.2833017
0.9678247,0.1987515,0.2849338
0.9662029,0.1998817,0.2872897
0.9612636,0.2011148,0.2846395
0.9589044,0.2031663,0.2799272
0.9592716,0.2047216,0.2735303
0.9604636,0.205644,0.2738735
0.9607767,0.203895,0.2797873
0.961826,0.2004578,0.2780203
0.9633886,0.1994121,0.2745346
0.961998,0.1984308,0.2762567
0.9613443,0.197934,0.2792888
0.9617385,0.1982654,0.282177
0.9623089,0.1967494,0.2785266
0.9648473,0.1969445,0.2721409
0.9644678,0.1977767,0.2751184
0.9648975,0.1968217,0.2764616
0.9675366,0.197298,0.2740213
0.9648282,0.1974134,0.2783844
0.9626041,0.1965744,0.2798366
0.9638906,0.195665,0.2760557
0.9648548,0.1936407,0.2715576
0.9662702,0.1932668,0.268218
0.9654556,0.1933578,0.2723541
0.9635741,0.1925801,0.2761266
0.9642033,0.1932825,0.2748312
0.9652003,0.1929963,0.2749948
0.9669074,0.1918493,0.2760582
0.968094,0.191863,0.275915
0.9659074,0.1923274,0.2723371
0.9642103,0.1934738,0.2668948
0.9632971,0.1934193,0.26555
0.9627188,0.193506,0.2671281
0.9656805,0.1948771,0.2670536
0.9679296,0.1932312,0.266937
0.9690383,0.1909782,0.2679236
0.9711338,0.1917813,0.2680779
0.9708191,0.1934136,0.271388
0.9698118,0.1937373,0.2743276
0.9666333,0.1934384,0.2681977
0.962218,0.1951353,0.2628179
0.963029,0.196676,0.2668145
0.9622234,0.1971179,0.273422
0.9591339,0.1970973,0.2777527
0.9639008,0.1929264,0.2764966
0.9690194,0.1886431,0.2706334
0.9664936,0.1884098,0.2684037
0.9660532,0.1893654,0.2689978
0.9695519,0.1909171,0.2665428
0.9705704,0.1921231,0.2623595
0.9705269,0.1929981,0.2596864
0.9683481,0.1940098,0.2616193
0.9654262,0.1950671,0.2695706
0.9666833,0.1966455,0.2776438
0.9672193,0.1982507,0.275599
0.9661726,0.1987876,0.2702469
0.9668526,0.195362,0.271823
0.9667465,0.1918632,0.2685946
0.9662988,0.1927789,0.2657385
0.965757,0.1939187,0.2696142
0.9640414,0.1950975,0.2657572
0.9634925,0.1975845,0.2635796
0.9640521,0.197976,0.2646741
0.963933,0.1956429,0.2622295
0.9635996,0.1953899,0.2679668
0.9630716,0.1966331,0.2735857
0.9622184,0.1964371,0.2734173
0.9623523,0.1984844,0.2751557
0.9627628,0.1985689,0.2756247
0.9620028,0.194431,0.2748295
0.9606793,0.1923247,0.2753415
0.9603831,0.1927268,0.2752942
0.9647344,0.1949753,0.2724078
0.9705266,0.1964055,0.2703605
0.9701272,0.1973747,0.269935
0.9690684,0.1979325,0.2702815
0.9694377,0.1964282,0.2732708
0.9644332,0.1969709,0.2714534
0.9609338,0.1948691,0.26874
0.9626647,0.191927,0.2711497
0.9628538,0.1951448,0.2718626
0.9622819,0.1967048,0.2739139
0.9630095,0.1956359,0.2769185
0.9652788,0.1958664,0.2780435
0.9680141,0.1968054,0.2777268
0.969546,0.1976233,0.2734881
0.96995,0.1974447,0.2718379
0.9650951,0.1989836,0.274881
0.9590477,0.1993903,0.2773806
0.9622342,0.1938324,0.276474
0.9661453,0.1884526,0.2738157
0.9627212,0.1919281,0.2745386
0.9615376,0.1978945,0.2757189
0.9616609,0.1974889,0.2775776
0.9602389,0.1976732,0.2802735
0.9629805,0.1979094,0.2790917
0.964733,0.1936765,0.2788
0.9651969,0.1915633,0.2795222
0.9659087,0.1920676,0.2791353
0.9636095,0.1933229,0.2801593
0.9638239,0.1952544,0.2800701
0.9636487,0.1977819,0.2770961
0.9607087,0.1993859,0.2739212
0.9604967,0.1987577,0.2758274
0.9644479,0.2001352,0.2794562
0.9699368,0.1988071,0.2791648
0.9669254,0.1956434,0.2788286
0.9629028,0.1979392,0.2774996
0.9664174,0.1985965,0.2752115
0.9651041,0.1991104,0.2745052
0.9626106,0.2015448,0.2724238
0.9628653,0.2022146,0.2720348
0.9617566,0.2049176,0.2753153
0.962605,0.2043177,0.2770279
0.9608223,0.2004411,0.2756054
0.9588234,0.1998001,0.2748413
0.9617219,0.1996754,0.2777993
0.9649951,0.1998705,0.2802754
0.9675054,0.1983766,0.2791366
0.9661811,0.1953585,0.2790764
0.9641133,0.1929404,0.2813063
0.9657505,0.1891749,0.2799323
0.9659899,0.1903002,0.2694973
0.9675066,0.1960106,0.258465
0.9704725,0.1979879,0.2610892
0.9687093,0.1970003,0.2663886
0.9671003,0.1941471,0.2653838
0.9682568,0.1925204,0.2703272
0.9669546,0.1951434,0.2721487
0.9642625,0.1978114,0.2695633
0.9634949,0.1993418,0.2755369
0.9638271,0.1992291,0.27422
0.9642661,0.1948161,0.2690369
0.9648953,0.1900344,0.2694721
0.9663353,0.1923929,0.265014
0.9668659,0.1974793,0.2661618
0.9646599,0.1969839,0.269587
0.9635935,0.1953254,0.2713218
0.9657106,0.1951177,0.2785342
0.9674107,0.1981997,0.2742894
0.9664133,0.2030396,0.2673273
0.9640608,0.1987706,0.2708155
0.9618751,0.1943046,0.2721155
0.9607211,0.1969827,0.27376
0.9628433,0.1963311,0.2736855
0.9649479,0.1962918,0.2708076
0.9634577,0.1994257,0.2726601
0.9628975,0.1993378,0.2722445
0.9636942,0.1990138,0.2701091
0.9646794,0.2014825,0.2712306
0.9657654,0.2029999,0.2723545
0.9642487,0.2017969,0.2718345
0.9636924,0.1988837,0.2670749
0.966136,0.1933253,0.2619587
0.9682329,0.190603,0.2618965
0.9693766,0.1928287,0.2628946
0.9694962,0.1942028,0.263081
0.9689315,0.1958537,0.2649498
0.966268,0.1939359,0.2679741
0.9616549,0.1912258,0.2688482
0.9602867,0.1990239,0.2691501
0.9622451,0.2057337,0.2696448
0.9634027,0.2029408,0.266378
0.9640843,0.2017579,0.2649653
0.9658818,0.2017013,0.269453
0.9666201,0.1974654,0.273801
0.965993,0.1965174,0.274504
0.9652273,0.1988203,0.2733615
0.9634833,0.1983049,0.2753694
0.9651875,0.1997517,0.2779323
0.9708051,0.1982466,0.2787538
0.9730638,0.1928081,0.2810859
0.9714075,0.1944777,0.2789605
0.9684354,0.1959432,0.2718176
0.9641468,0.1970832,0.2694832
0.9561256,0.2013893,0.277155
0.9503254,0.1980808,0.286874
0.955547,0.1938505,0.2869923
0.9591919,0.1952515,0.2870931
0.9559346,0.1979221,0.2910915
0.9567947,0.2011468,0.2891696
0.9575876,0.2006538,0.2896058
0.9563616,0.1999276,0.2906188
0.9573967,0.2018692,0.2859866
0.9584023,0.1997598,0.2842538
0.9610877,0.1974375,0.2804299
0.9636437,0.1978585,0.2772256
0.9628293,0.1935095,0.2801349
0.9639753,0.1887804,0.2791943
0.9669395,0.1932916,0.2785961
0.9661797,0.2000324,0.279834
0.9641692,0.1999781,0.2786877
0.9636141,0.1961463,0.2786336
0.9623839,0.1933897,0.2756865
0.9634162,0.1941775,0.2724361
0.9674219,0.1960334,0.2743786
0.9687757,0.1949692,0.2751613
0.9681601,0.1951284,0.2710415
0.968785,0.197257,0.26713
0.9694198,0.1968675,0.2679596
0.9673274,0.1945583,0.2694815
0.9630921,0.1925167,0.2699289
0.9616339,0.1944854,0.2722818
0.9626924,0.1968274,0.2748591
0.9626689,0.193366,0.2767704
0.9623461,0.1903341,0.2789776
0.9625071,0.1897209,0.2781546
0.9625842,0.188317,0.2686751
0.9624309,0.1872588,0.2560316
0.9623132,0.1885467,0.2536038
0.9616864,0.1953657,0.2602955
0.960739,0.2025768,0.2663517
0.9619583,0.2024878,0.2691384
0.9659704,0.1979846,0.2693065
0.9701422,0.1899641,0.2707458
0.9695934,0.1808414,0.2749988
0.9644357,0.1852187,0.27478
0.9603578,0.1976156,0.2739113
0.9588367,0.1985827,0.2774491
0.9594934,0.1981909,0.2745892
0.9596139,0.2013492,0.269877
0.9587808,0.1992939,0.2702845
0.9621436,0.1990569,0.2689357
0.9650756,0.1987577,0.2692878
0.9634913,0.1977136,0.2707426
0.9621679,0.1987034,0.2727423
0.9621231,0.1973598,0.2782681
0.9626661,0.1987724,0.2787126
0.9614952,0.1995163,0.276904
0.9595523,0.1986041,0.2781611
0.9594085,0.2004885,0.2776215
0.9578344,0.1982263,0.276685
0.9567653,0.1972585,0.2763118
0.9586795,0.2039822,0.276527
0.9620193,0.2126139,0.2794823
0.9680139,0.2146408,0.2842752
0.97354,0.2048905,0.2857054
0.9706947,0.1934027,0.27997
0.964541,0.188992,0.2741006
0.9660769,0.1883498,0.2722512
0.9651313,0.188133,0.2728811
0.9592051,0.1905015,0.2759348
0.9601303,0.1955415,0.2737721
0.9591222,0.1989721,0.2711445
0.9561244,0.206072,0.2775636
0.9578392,0.2146065,0.280968
0.9882268,0.1184931,0.2297352
0.989257,0.1125395,0.2216826
0.9913327,0.1138894,0.2171484
0.9939348,0.1146008,0.2189395
0.9963148,0.114015,0.2150193
0.9969165,0.1150146,0.2164326
0.9970532,0.1136911,0.2194676
0.9960794,0.1138878,0.2212629
0.9926227,0.1171918,0.2291343
0.990962,0.1185705,0.2263069
0.9926052,0.1182974,0.2182317
0.993623,0.1168463,0.2164785
0.992976,0.113392,0.2136349
0.9928113,0.1091713,0.2159667
0.9933102,0.1089115,0.2180363
0.9931564,0.1127961,0.2182401
0.9938375,0.1140754,0.2246654
0.9949169,0.1155868,0.2266788
0.9940295,0.117739,0.2231304
0.9925022,0.11594,0.2194682
0.9912919,0.1147288,0.21981
0.9915314,0.1137203,0.2216188
0.9930029,0.1132874,0.2180888
0.99314,0.1147572,0.2196142
0.9930477,0.1142942,0.2226003
0.9929344,0.11469,0.2226933
0.992032,0.1150317,0.2266823
0.991705,0.1149841,0.2265947
0.992752,0.1168451,0.2251177
0.9952799,0.1168299,0.2223554
0.9961399,0.1174399,0.2164929
0.9935317,0.1188113,0.2184517
0.9904235,0.1188642,0.2224872
0.9887657,0.1206541,0.2240515
0.9892945,0.1204027,0.2243158
0.9925607,0.1161112,0.2222217
0.9982774,0.1126019,0.2212643
1.0012,0.113161,0.2195929
0.9964816,0.1140478,0.2221493
0.9907096,0.1126015,0.2272131
0.9898997,0.1166284,0.2247065
0.9920506,0.1202341,0.2230907
0.9939186,0.1121344,0.2234591
0.9931039,0.1053147,0.2185996
0.9923594,0.1084349,0.2153613
0.9927872,0.1106046,0.2166595
0.9921697,0.1097487,0.2184848
0.993039,0.1140909,0.21993
0.9927838,0.1204232,0.2219349
0.9880328,0.1213578,0.2241039
0.9857845,0.118846,0.2233597
0.9902804,0.1160663,0.2201777
0.9952464,0.115467,0.2189222
0.9939262,0.1153318,0.2208615
0.9921144,0.1136958,0.2242769
0.994187,0.1130843,0.2290162
0.9925673,0.112129,0.2299588
0.9894058,0.112452,0.2236008
0.9902302,0.1139356,0.220585
0.9928226,0.1136917,0.2215274
0.9951425,0.1141604,0.2196932
0.9947565,0.1140203,0.2191088
0.9943766,0.1139966,0.2187179
0.9960285,0.11327,0.2166884
0.9956595,0.1100691,0.2160911
0.9919356,0.1106941,0.2180256
0.989721,0.1119672,0.2177406
0.9938524,0.1102072,0.2149876
0.9972803,0.1093776,0.2180113
0.9942044,0.1093018,0.221285
0.9899345,0.1140546,0.2237758
0.9886795,0.1205697,0.2259927
0.991571,0.1176977,0.2186913
0.9949648,0.1113974,0.214749
0.9942064,0.1081663,0.2199583
0.9928397,0.1062884,0.2272813
0.9941788,0.1106903,0.2328272
0.9941661,0.1154357,0.222865
0.9938784,0.1136023,0.2125923
0.9950243,0.1135744,0.221433
0.9930716,0.1140009,0.2285664
0.9912519,0.1117022,0.2261883
0.9900929,0.1108076,0.2264966
0.9879123,0.1111896,0.2247511
0.9890017,0.1132245,0.2215947
0.9898322,0.114239,0.2243674
0.9910714,0.1129146,0.2232079
0.9942058,0.1122077,0.2206903
0.9932801,0.1123256,0.2232651
0.9923379,0.1128218,0.2219653
0.9935525,0.1125328,0.2216274
0.9933428,0.1132623,0.2222694
0.9946269,0.114468,0.2196515
0.9966388,0.1136964,0.2181601
0.9955537,0.1138265,0.2161456
0.993604,0.113691,0.2192249
0.9924887,0.1119357,0.2213472
0.9913548,0.1107011,0.2157236
0.9923123,0.1108114,0.2154181
0.9960821,0.1115526,0.2172464
0.9979013,0.1114769,0.2217661
0.9945022,0.1138056,0.2313842
0.9916093,0.1173199,0.2312094
0.9936573,0.116975,0.2282994
0.9949808,0.1157212,0.2281828
0.9940037,0.1136369,0.2228867
0.9926859,0.1095597,0.2205615
0.9904686,0.1099573,0.2199071
0.989245,0.1145734,0.2180319
0.9890729,0.1153478,0.2212134
0.9917419,0.1157407,0.2244691
0.9961495,0.120144,0.2286206
0.9954135,0.1201179,0.2311992
0.9908408,0.1171283,0.2278679
0.9867813,0.1165635,0.2291178
0.9873322,0.1146768,0.2294341
0.9920763,0.115189,0.2244436
0.9937878,0.1178808,0.2232278
0.9931737,0.1174995,0.2231511
0.9930151,0.1156682,0.2239298
0.9938407,0.112967,0.2239275
0.995076,0.113499,0.2228539
0.9942308,0.1154859,0.2246729
0.9943021,0.1132765,0.2247777
0.994761,0.1129332,0.2243442
0.9941268,0.1142565,0.2212114
0.9946431,0.1138877,0.2177147
0.9944147,0.1135712,0.222097
0.9941456,0.1117716,0.2245095
0.9937534,0.1098009,0.2249456
0.9925851,0.1096198,0.2281203
0.9930707,0.1116208,0.2298337
0.9936069,0.1131405,0.2319895
0.9946564,0.1114263,0.2291833
0.9961162,0.1106676,0.2242125
0.9942458,0.1114124,0.2259416
0.9920723,0.1120453,0.2234504
0.9930712,0.1125874,0.2142332
0.9935385,0.1112704,0.211112
0.9928072,0.1087874,0.216025
0.9940575,0.106821,0.2217245
0.995077,0.1064944,0.2228138
0.9949712,0.1066232,0.2201968
0.9954115,0.1071569,0.2199696
0.9950328,0.1100335,0.2256959
0.9948396,0.1124063,0.2306864
0.994661,0.1134859,0.2261284
0.9938113,0.1140268,0.2210197
0.9935912,0.1120369,0.2241096
0.9920173,0.1103185,0.2245321
0.9911528,0.1115344,0.2213859
0.9931144,0.1131894,0.2188838
0.9942279,0.1138093,0.2138738
0.994772,0.112047,0.2159167
0.9953244,0.108432,0.223244
0.9947567,0.1080059,0.2240832
0.993561,0.1105087,0.2237509
0.9924764,0.1124901,0.2234038
0.9931084,0.1156839,0.2223239
0.9933935,0.1187827,0.222542
0.9926595,0.1167334,0.2217087
0.9932648,0.1129218,0.222605
0.9931011,0.1136868,0.2232109
0.9930109,0.114578,0.2224248
0.9942098,0.1129247,0.2225855
0.9945416,0.1126757,0.2227407
0.9942265,0.1123677,0.2277666
0.9929041,0.1129044,0.2317999
0.9926686,0.1130883,0.226493
0.9940753,0.1104862,0.2205016
0.9932156,0.1102346,0.221427
0.9924201,0.1099695,0.2285777
0.9928983,0.1102933,0.2336852
0.9904397,0.1139021,0.2307239
0.98812,0.11439,0.2279042
0.9906263,0.1146034,0.2321348
0.9927638,0.1155776,0.2341104
0.9918047,0.1141841,0.2281684
0.9931268,0.1137104,0.2248798
0.9951928,0.1133847,0.2265715
0.9935923,0.1119042,0.2275868
0.9923134,0.1088365,0.2270024
0.9933176,0.1073047,0.2259343
0.9935567,0.1093936,0.2263175
0.994563,0.1113796,0.2255933
0.9962232,0.1148077,0.2245294
0.9942196,0.1164922,0.224951
0.9920017,0.1142574,0.2241027
0.9933699,0.1134845,0.2233566
0.9939738,0.1125007,0.2234766
0.9921795,0.1127821,0.2241505
0.9895967,0.1144554,0.2254066
0.988004,0.1119727,0.226725
0.9895376,0.1101642,0.2268739
0.9928765,0.1115683,0.2259753
0.997878,0.1123115,0.2276622
1.000997,0.1138223,0.2291929
0.9950088,0.1163459,0.2290736
0.9880029,0.1183465,0.2291183
0.9888011,0.1201931,0.2264002
0.991115,0.1208827,0.2222971
0.9923725,0.1177525,0.2190346
0.9937189,0.1101033,0.2169148
0.9952688,0.1051812,0.2156295
0.9984616,0.10928,0.2169254
0.9998481,0.1135764,0.2210848
0.99574,0.1126127,0.2207151
0.9903067,0.1147756,0.2229043
0.9910706,0.1174287,0.2306888
0.9940363,0.1154067,0.2299147
0.9936783,0.1155597,0.2275362
0.9954122,0.1154917,0.2277563
0.995605,0.1130524,0.2228572
0.9925527,0.113797,0.2215466
0.9930194,0.1135766,0.2254087
0.9932206,0.1100099,0.2272193
0.9928135,0.1073639,0.2265753
0.9933482,0.1078973,0.2254575
0.9927917,0.1091447,0.2249516
0.9931973,0.1081169,0.2229596
0.9930847,0.1092228,0.2221463
0.9928785,0.1117476,0.2229325
0.9932989,0.1128077,0.2225842
0.9928458,0.1143601,0.2239923
0.9933346,0.1132033,0.2244029
0.9943381,0.1116601,0.2246863
0.9965465,0.1128441,0.2274202
0.9987646,0.1123922,0.2265465
0.9973164,0.1113676,0.2260324
0.9941286,0.1115924,0.2284535
0.9921939,0.1135674,0.2265968
0.9929173,0.1157834,0.2205884
0.993608,0.1126867,0.2160945
0.9923048,0.1086653,0.2177248
0.9913035,0.1096089,0.2193688
0.9899624,0.1102316,0.2169229
0.98995,0.1094901,0.2176033
0.9921337,0.1111034,0.218767
0.9934975,0.1132793,0.2192988
0.99419,0.1143295,0.2223391
0.9912717,0.1140762,0.2258778
0.9876841,0.1134993,0.2307679
0.9923981,0.1140985,0.230268
0.9992492,0.1136054,0.225681
1.000189,0.1118547,0.2221973
0.9965815,0.1108132,0.215283
0.9926671,0.1109546,0.219524
0.9933438,0.1125608,0.2293855
0.9936371,0.1136103,0.224111
0.991238,0.1138339,0.221323
0.9917679,0.1132465,0.2229183
0.9918349,0.1124268,0.2205089
0.9912681,0.115224,0.2244478
0.9921005,0.1178007,0.2268408
0.9914127,0.1164368,0.229127
0.9918185,0.1148424,0.2349465
0.9931738,0.1126075,0.2293931
0.994776,0.1105334,0.2236625
0.9962119,0.1135249,0.2288998
0.9930741,0.1195624,0.2305405
0.9906136,0.1215035,0.2277564
0.9928786,0.118173,0.2266492
0.994586,0.1153948,0.2244539
0.9939986,0.1155012,0.2235924
0.9916842,0.1118779,0.2223061
0.9898668,0.1052266,0.2186979
0.9917315,0.1069676,0.2225458
0.9941881,0.112943,0.2285168
0.9928623,0.1143332,0.2271096
0.99082,0.1140586,0.2275221
0.9884328,0.1120398,0.2292096
0.9854011,0.1123128,0.227176
0.9894593,0.1159547,0.2264437
0.9947817,0.116984,0.2257693
0.9929294,0.1193306,0.225484
0.9924635,0.1212013,0.2277033
0.9936733,0.1170877,0.2298911
0.9927282,0.1128961,0.2351943
0.9930726,0.1135875,0.2398486
0.9932226,0.1157644,0.2319996
0.9928523,0.1158512,0.2221019
0.9931953,0.1160218,0.2248445
0.9924781,0.1153709,0.227638
0.9908728,0.1145823,0.2262473
0.9908272,0.1158884,0.2285979
0.9934793,0.1149644,0.2278448
0.9935106,0.1140583,0.2249889
0.9894341,0.1137882,0.2215566
0.9885928,0.1119127,0.2162718
0.9908587,0.1127295,0.2200404
0.9917956,0.1142404,0.227221
0.9902123,0.1145267,0.2301212
0.9883442,0.1156829,0.2327338
0.9915629,0.1179026,0.2295542
0.9945189,0.1184027,0.2257309
0.9927126,0.1147823,0.2270641
0.9927428,0.1130598,0.2247223
0.9934634,0.1142091,0.222685
0.9928182,0.114833,0.2261766
0.9931073,0.1158038,0.2289329
0.993101,0.1157476,0.2295394
0.992818,0.1150468,0.2290471
0.9921987,0.1134574,0.2278302
0.991377,0.1123679,0.2268055
0.9915747,0.1134535,0.2256381
0.9916725,0.1148206,0.2242232
0.9907003,0.1171147,0.2215423
0.990298,0.1153777,0.2194699
0.9920772,0.1115492,0.2193364
0.9937265,0.1133445,0.2177995
0.9931658,0.1136592,0.2170336
0.9926722,0.111794,0.2173427
0.9932764,0.1126096,0.2169844
0.9931114,0.1126334,0.2218972
0.992838,0.1123672,0.2265122
0.9932586,0.1125716,0.2241545
0.9929837,0.1124579,0.2246586
0.9929801,0.1127268,0.2274676
0.9932158,0.1133359,0.2263707
0.9929008,0.1142047,0.2259883
0.9931349,0.1132792,0.2272321
0.9930751,0.1102407,0.2291826
0.9929601,0.1081377,0.2319945
0.9933547,0.1088128,0.2308643
0.9938551,0.1101873,0.2252583
0.994751,0.1111501,0.2227352
0.9944036,0.1132281,0.2262668
0.9930905,0.1132919,0.2291698
0.9920754,0.1134187,0.2275623
0.9912679,0.1162177,0.2254992
0.9922051,0.1146032,0.2231176
0.9945792,0.11275,0.2198865
0.9955289,0.1140191,0.2220987
0.9917828,0.1111154,0.2253204
0.9869503,0.1088055,0.2236089
0.9883547,0.1106904,0.226042
0.9892864,0.1116856,0.230253
0.9868332,0.1119551,0.2291709
0.990167,0.1152717,0.2288408
0.9932316,0.1197197,0.2294397
0.9917222,0.1181637,0.2288516
0.9941369,0.1148727,0.2283183
0.9970268,0.1146472,0.2274929
0.99553,0.1133587,0.2280333
0.9933526,0.114423,0.2297771
0.9921012,0.1177048,0.2313283
0.9921537,0.1187228,0.232567
0.9933406,0.1189262,0.2322663
0.993424,0.1173442,0.2274489
0.9926021,0.1130731,0.2219178
0.992847,0.1095712,0.2258884
0.9914693,0.1119317,0.2321035
0.9893694,0.1149571,0.2304105
0.9901791,0.1132077,0.2298233
0.9897194,0.113257,0.2304196
0.9882716,0.1108295,0.2283222
0.9889629,0.1071686,0.2290605
0.9887201,0.1126546,0.2283297
0.9869311,0.1184604,0.2251954
0.9865053,0.1193503,0.224898
0.9904093,0.1183351,0.2270188
0.9947757,0.1157918,0.2331178
0.9934028,0.1148273,0.2381196
0.9919668,0.1146126,0.2367951
0.9937409,0.1128981,0.2368359
0.9931052,0.1105577,0.2394525
0.9919986,0.1123756,0.2364444
0.9909265,0.1154102,0.2320227
0.9878073,0.1135037,0.2334023
0.9886454,0.1134371,0.2338573
0.9907487,0.1147563,0.2330747
0.9898681,0.1142856,0.2355312
0.9906697,0.1156988,0.2365535
0.9914812,0.1149954,0.2361621
0.9924492,0.1121026,0.2359979
0.9938429,0.1110249,0.2353042
0.9923647,0.1131731,0.2328035
0.9913238,0.1185333,0.2292106
0.9909856,0.1202795,0.2302119
0.9913629,0.1166576,0.2315141
0.9924039,0.1123565,0.229885
0.9914117,0.1101797,0.2304759
0.9924471,0.1124902,0.2296179
0.993445,0.1160214,0.2265116
0.990878,0.1173218,0.2251262
0.9897894,0.1177687,0.2251969
0.9903895,0.1179807,0.2277661
0.9915369,0.1179039,0.2301397
0.9928432,0.1157044,0.2283679
0.9932146,0.1115182,0.2240496
0.9932192,0.1085274,0.2204342
0.9928105,0.1068563,0.2207696
0.9931445,0.1036847,0.2219684
0.9924712,0.09842345,0.2187715
0.9892254,0.09759897,0.2182507
0.9873597,0.1014198,0.225764
0.9905407,0.1030565,0.2312725
0.9952768,0.1073416,0.2278249
0.9950372,0.1139715,0.2226563
0.9949956,0.1152342,0.2257076
0.9956445,0.1171121,0.2353636
0.9907883,0.1209063,0.2397793
0.9893441,0.1202563,0.2343954
0.9920066,0.1189291,0.226592
0.9925444,0.1189578,0.2202454
0.9936986,0.1172174,0.2161413
0.9939125,0.1154917,0.2191717
0.994591,0.1150313,0.2230389
0.995869,0.1135425,0.2227443
0.9955573,0.1121658,0.2256475
0.9960037,0.1119169,0.228261
0.9946723,0.1110384,0.2294101
0.9928595,0.1125937,0.2310025
0.9923704,0.1150534,0.2293835
0.9918586,0.1131221,0.2278204
0.9922149,0.1108281,0.224469
0.9898808,0.1103226,0.224668
0.9877412,0.1136744,0.2325525
0.9895986,0.1200201,0.2346596
0.9908902,0.1200921,0.2326284
0.9918541,0.1183071,0.2314792
0.9921183,0.1186142,0.2299353
0.9911949,0.1156609,0.2297513
0.9914486,0.1097103,0.2249434
0.9900593,0.1008668,0.2158833
0.9884046,0.09868683,0.2131644
0.9913893,0.1019104,0.2220679
0.9961616,0.0957109,0.229968
0.9980324,0.09354032,0.226284
0.9964311,0.102783,0.2260947
0.9950257,0.1102561,0.2339617
0.995529,0.1138837,0.238015
0.9934082,0.1151042,0.2385925
0.9902773,0.1198696,0.2416609
0.9907061,0.1260203,0.2489572
0.9911482,0.1282036,0.2532676
0.9923768,0.1309398,0.2499218
0.9953922,0.1299592,0.2444738
0.993955,0.1280497,0.2363638
0.991318,0.1251875,0.2267406
0.991402,0.1149688,0.2223016
0.991138,0.1038994,0.2199066
0.9941056,0.09476931,0.2212112
0.9973608,0.09510101,0.2283034
0.9968927,0.09947399,0.2299305
0.9987767,0.09880115,0.2304932
0.9973152,0.1051301,0.2337603
0.9912315,0.1111395,0.2324887
0.9876337,0.1181378,0.2352545
0.9837201,0.1293282,0.2359976
0.9856286,0.1279573,0.2312726
0.9908308,0.1268343,0.2316235
0.9896592,0.1252853,0.2283121
0.9922426,0.1136678,0.2272316
0.9963519,0.1107778,0.2275517
0.9956199,0.1110814,0.2211125
0.9959251,0.1082502,0.2227483
0.9944912,0.1105109,0.2215944
0.9923495,0.1112354,0.2164328
0.9921483,0.1126537,0.2242426
0.9918418,0.1167963,0.2311147
0.9909589,0.1188176,0.2326443
0.9885927,0.1216481,0.2365259
0.9886107,0.1216171,0.2397794
0.9893712,0.1202388,0.2400934
0.9886,0.1240816,0.2398853
0.9900562,0.12545,0.2396357
0.9909124,0.1211572,0.2335482
0.9919265,0.1155122,0.2275635
0.993209,0.1122186,0.2286591
0.9903921,0.1140332,0.2301653
0.9883664,0.1145908,0.2298412
0.991395,0.1131863,0.2299449
0.994839,0.1148985,0.2280912
0.9948345,0.1182839,0.2233797
0.9947139,0.1232637,0.2226646
0.9923186,0.1241351,0.2251946
0.9868345,0.1194558,0.2267736
0.988356,0.1207929,0.2303949
0.9906446,0.1257302,0.2308184
0.9887829,0.1261819,0.2295758
0.9922021,0.1230027,0.2312324
0.9952711,0.1157879,0.2296434
0.9948528,0.1117233,0.2291978
0.9920089,0.1141852,0.2304751
0.9859722,0.1135253,0.2287048
0.9867039,0.1119339,0.2289105
0.9893321,0.1147023,0.2296057
0.9886441,0.1169099,0.228517
0.9927655,0.1167133,0.2271008
0.993944,0.1155972,0.2241204
0.9903678,0.1157268,0.2231044
0.9902318,0.1188527,0.2256786
0.9910677,0.1219984,0.2274692
0.9920424,0.1210714,0.2282799
0.991538,0.1190454,0.2303516
0.9893659,0.1194782,0.2312667
0.9887566,0.1187601,0.2309074
0.9885636,0.117845,0.2340395
0.9894838,0.117675,0.2373337
0.9904371,0.1163025,0.2353738
0.9902236,0.1179781,0.2337103
0.9898368,0.1188143,0.2343981
0.9899169,0.1153921,0.2313434
0.9918144,0.1148484,0.2276736
0.9917032,0.1157147,0.2290256
0.9903572,0.1161506,0.2304918
0.9906624,0.1180172,0.2312815
0.9907408,0.1183255,0.2342073
0.9921627,0.1179302,0.233959
0.991954,0.1182766,0.2323353
0.9908117,0.1188948,0.2336824
0.9911822,0.1196188,0.2325692
0.9888922,0.1185943,0.2311513
0.9888702,0.1175788,0.2325398
0.9920832,0.1175805,0.2322546
0.9935461,0.1153421,0.2309248
0.9933294,0.1120558,0.2287206
0.9915744,0.1126304,0.2255968
0.9920803,0.1166612,0.2232187
0.9945743,0.1187912,0.2236572
0.9957827,0.1173926,0.2299653
0.9934381,0.1160793,0.2353072
0.9881015,0.1179612,0.237025
0.9873619,0.1205557,0.2393092
0.9881982,0.1210297,0.2363259
0.9877339,0.1210059,0.2286051
0.9895765,0.120681,0.2251583
0.9889941,0.1209184,0.2287645
0.9883481,0.1218288,0.2324276
0.9894436,0.121328,0.2309558
0.988576,0.1204165,0.2337517
0.9889012,0.1188352,0.2398726
0.9890966,0.1175808,0.2377869
0.9887791,0.1174943,0.2301747
0.9900219,0.1154871,0.2243181
0.9902578,0.1132587,0.2257091
0.9894676,0.114731,0.2311988
0.9888874,0.1180036,0.2351775
0.990515,0.1186485,0.240191
0.9925885,0.1188551,0.2372653
0.9917819,0.121691,0.2271489
0.9921865,0.1255488,0.225889
0.9929755,0.1287074,0.2291397
0.9894393,0.1261801,0.2311568
0.9863333,0.1219075,0.2304609
0.9882013,0.1239167,0.2286603
0.9899186,0.1258006,0.2351422
0.9885184,0.1249076,0.239406
0.9886349,0.1250484,0.2360478
0.9893714,0.1259164,0.2346734
0.9885328,0.1262367,0.2342848
0.9894979,0.1231604,0.2340638
0.9917412,0.1185355,0.2330347
0.9927055,0.1174789,0.2333422
0.9891393,0.1200195,0.235745
0.9840325,0.121724,0.2365041
0.9861803,0.1206622,0.2382881
0.9893999,0.1203802,0.2382986
0.9891121,0.1204504,0.2344486
0.9902687,0.1198851,0.2308504
0.9898316,0.121892,0.2319819
0.9906497,0.1257229,0.2344751
0.9929503,0.1287022,0.2300792
0.9909524,0.1284635,0.2285166
0.9905121,0.1266859,0.2343537
0.9906752,0.1273375,0.2402072
0.9895344,0.1272199,0.244371
0.9908048,0.1266014,0.2431554
0.9902369,0.1274009,0.2419284
0.9897292,0.1261626,0.2418764
0.9899029,0.1263256,0.2380386
0.9882162,0.1283698,0.2366404
0.9889122,0.1279358,0.2361595
0.988882,0.1277179,0.2358509
0.9866956,0.1287157,0.2384794
0.9861958,0.1291539,0.2392382
0.9876004,0.1272856,0.2389191
0.9897771,0.1246424,0.2388345
0.9890556,0.1247914,0.2387722
0.9882235,0.1252052,0.2371625
0.9894453,0.1249165,0.2288593
0.988723,0.1250207,0.22263
0.9890536,0.1247927,0.2323651
0.9906731,0.1239855,0.2438052
0.990472,0.1223851,0.2380542
0.9904862,0.1220451,0.2334845
0.991625,0.1236058,0.2377765
0.9923372,0.1256971,0.2338512
0.9911404,0.1268123,0.232216
0.9905278,0.1255071,0.236404
0.9907421,0.1244471,0.2358879
0.9907887,0.1243921,0.2352441
0.9931362,0.1216019,0.2294442
0.9935951,0.1181595,0.2218751
0.9923,0.119084,0.2216458
0.992547,0.1203432,0.2226586
0.9912834,0.1189083,0.2253207
0.9910588,0.1197369,0.2311225
0.9903879,0.1218491,0.2364579
0.9882794,0.1233799,0.2358313
0.9908126,0.1252212,0.2335263
0.9934158,0.1244883,0.2381972
0.9916888,0.1221674,0.2397317
0.9885677,0.1201075,0.2364285
0.9868068,0.1193359,0.2358453
0.9888565,0.1197794,0.2358218
0.9922926,0.1181654,0.2364622
0.9936714,0.1180348,0.2350236
0.9930016,0.12023,0.2304064
0.9914623,0.1210451,0.2268013
0.9897667,0.1217653,0.227677
0.9883233,0.1231356,0.2307588
0.9888649,0.125786,0.2292186
0.9906019,0.1255493,0.2303281
0.9920667,0.123159,0.2343293
0.9931213,0.1246743,0.231827
0.9906365,0.1244042,0.2294608
0.9874953,0.1228436,0.2279448
0.9889382,0.1224647,0.225883
0.9898868,0.1191156,0.2260067
0.9902483,0.1170227,0.2260516
0.9933371,0.1171047,0.2301346
0.9938474,0.1170775,0.2336506
0.9933429,0.118271,0.2316154
0.9948049,0.1201266,0.231546
0.9935384,0.1211664,0.232366
0.9914584,0.1218589,0.2317814
0.9916106,0.1227531,0.2315421
0.9915117,0.1205425,0.2306075
0.9907592,0.1197637,0.2303838
0.9907648,0.1228851,0.2322121
0.9936741,0.1248501,0.2326745
0.9971902,0.1282628,0.2317919
0.9957866,0.1263981,0.2347384
0.9931403,0.1210364,0.2366108
0.9927407,0.1239699,0.2315967
0.9914148,0.123649,0.2256314
0.9911824,0.1206475,0.2244724
0.9916623,0.1233519,0.2288476
0.9891459,0.1240361,0.2319101
0.9879768,0.1250589,0.2295226
0.9897055,0.1252583,0.2289064
0.9907863,0.1214851,0.2321843
0.9916708,0.1201939,0.2349729
0.9912708,0.1197942,0.2373328
0.9893593,0.1187914,0.2418248
0.9893335,0.1168132,0.2456641
0.9891248,0.1142925,0.2445702
0.988826,0.1157226,0.2386386
0.9919669,0.1186252,0.2309112
0.9939111,0.1207911,0.2284062
0.9928331,0.1215274,0.2285711
0.9919665,0.1202111,0.2270603
0.9910839,0.1201064,0.2313794
0.9898935,0.1205368,0.2359515
0.9884235,0.1215739,0.2353919
0.9889306,0.1229849,0.2357081
0.9911942,0.1218477,0.234927
0.9917378,0.1210502,0.2344978
0.9907828,0.1209825,0.2340053
0.9889281,0.120614,0.2322391
0.9884491,0.1223419,0.2319762
0.9892419,0.1243286,0.2295778
0.9887336,0.1250247,0.2283155
0.9892202,0.1235235,0.2284452
0.9908183,0.1213652,0.2290385
0.9913178,0.1233132,0.2335322
0.9884537,0.1253222,0.2342472
0.9847163,0.1241176,0.2331772
0.987292,0.1215756,0.2334744
0.9914607,0.1181445,0.2304149
0.9918322,0.1176452,0.2298506
0.9915574,0.1172149,0.231666
0.9897107,0.1149195,0.2330386
0.9881953,0.1170366,0.2354725
0.9890288,0.1186569,0.2348281
0.9889905,0.1184151,0.2322202
0.9887846,0.1211385,0.231718
0.988942,0.1212131,0.2315313
0.9886734,0.1201064,0.2301956
0.9880478,0.1204034,0.2278269
0.9877007,0.1192957,0.2239792
0.9902927,0.1212657,0.2195654
0.9935914,0.1241096,0.2191002
0.993493,0.1235052,0.2245177
0.9920417,0.1220782,0.2278514
0.9899833,0.1192883,0.2253464
0.9855517,0.117144,0.2247553
0.9843906,0.117965,0.2292414
0.990565,0.1185001,0.2363389
0.994995,0.1178093,0.2405632
0.9931412,0.117969,0.2369503
0.9918496,0.118143,0.2326994
0.9916148,0.117115,0.2327488
0.9889223,0.1171605,0.2308805
0.9879741,0.1174538,0.2282502
0.9895833,0.1164967,0.2308441
0.9887861,0.1169667,0.2360393
0.9885206,0.1195449,0.2394495
0.9895817,0.1216493,0.2388518
0.9894191,0.120861,0.2346456
0.9906177,0.1192283,0.2323697
0.9905881,0.1185979,0.2330629
0.9897342,0.1176969,0.2328097
0.9906821,0.1179318,0.2313792
0.9899918,0.1173256,0.2298747
0.989229,0.1124314,0.2262741
0.9890781,0.1081445,0.223529
0.9895884,0.1100876,0.2313748
0.9917999,0.1152598,0.2407306
0.9919426,0.1175496,0.2378649
0.9914105,0.1169176,0.2357793
0.992018,0.116802,0.2386008
0.9924602,0.1193509,0.2360133
0.9933612,0.1219674,0.2335123
0.9931928,0.1203081,0.2337822
0.9927691,0.1175958,0.234623
0.9923632,0.1170713,0.237035
0.9885483,0.119716,0.2363554
0.9846724,0.1240305,0.2353277
0.9856858,0.1232911,0.2362235
0.9876075,0.1216198,0.233418
0.9883033,0.1215329,0.2317875
0.9909103,0.117395,0.2337149
0.9909617,0.115804,0.2338641
0.9882829,0.1181932,0.2338829
0.989082,0.1196523,0.2352147
0.9890827,0.1225059,0.2358916
0.9889253,0.1245429,0.235475
0.9921089,0.1240887,0.2336615
0.9935633,0.1228053,0.2307326
0.9933363,0.122862,0.2301669
0.9925783,0.1255158,0.2322121
0.9920438,0.1253992,0.2334528
0.9916678,0.1222823,0.2335646
0.9898531,0.1209461,0.231083
0.9889653,0.1204834,0.2287834
0.9883446,0.1198384,0.2296817
0.9887644,0.1193837,0.2307752
0.988917,0.1185093,0.2325444
0.9879249,0.1162036,0.2325168
0.9898679,0.113749,0.2320644
0.9896575,0.1152854,0.2341721
0.9888779,0.1183585,0.2333293
0.9896635,0.1190051,0.2328414
0.9880012,0.12085,0.2342508
0.9891798,0.1223614,0.2347621
0.9896886,0.1213911,0.236731
0.9898362,0.1199275,0.2364768
0.992253,0.1170957,0.2356158
0.9879799,0.1175121,0.2374518
0.9844273,0.1191301,0.2377095
0.9869441,0.1173216,0.2372184
0.9891176,0.1181304,0.2359692
0.991215,0.1184979,0.2321665
0.9923352,0.1176192,0.2296327
0.9931626,0.1197735,0.2313588
0.993476,0.1217068,0.2338206
0.9926711,0.1246863,0.2333349
0.9931542,0.126777,0.2330954
0.9926495,0.1258621,0.2341888
0.9901857,0.1247575,0.2357677
0.9885523,0.1231725,0.2373162
0.99033,0.1242183,0.2325751
0.9924378,0.1257005,0.2265102
0.9898401,0.1234323,0.2281459
0.9877765,0.121416,0.2287717
0.9892198,0.120123,0.2273939
0.9891113,0.1187973,0.2317478
0.9887055,0.1182824,0.2347502
0.9903776,0.1197632,0.2329506
0.9919368,0.1238839,0.2326374
0.9916432,0.126173,0.2339221
0.9889934,0.1262461,0.2331928
0.9879706,0.1258469,0.2299145
0.9894915,0.1238796,0.2301854
0.988882,0.1222215,0.2352377
0.9888626,0.1204889,0.2367778
0.9911123,0.1200656,0.2351106
0.9919649,0.1216445,0.2343911
0.991688,0.1202671,0.2343364
0.9905614,0.1188335,0.2342363
0.9899524,0.1188536,0.2328501
0.9907961,0.1179549,0.2332745
0.9919908,0.1175296,0.2349744
0.99273,0.1164568,0.2354172
0.9888456,0.1181745,0.2362813
0.9845811,0.1205569,0.2340411
0.9877038,0.1181179,0.2303685
0.9909843,0.1175688,0.2293834
0.9910743,0.1182416,0.2295476
0.9938577,0.1169289,0.2329997
0.9954224,0.1167359,0.2368598
0.9933984,0.1177122,0.235133
0.9921531,0.1203246,0.2284549
0.9913262,0.1211331,0.2230974
0.992396,0.118651,0.2259885
0.9932271,0.116608,0.2317817
0.9890379,0.1165558,0.2333472
0.9861729,0.1187836,0.2337692
0.9865598,0.119268,0.2341149
0.9865696,0.1158507,0.2337703
0.9877087,0.1126845,0.2334681
0.9895664,0.1139835,0.232777
0.9903944,0.1177193,0.2316759
0.9910364,0.1190418,0.2274336
0.9929325,0.1190026,0.2236805
0.9928236,0.1178426,0.228163
0.9917626,0.1174537,0.2330521
0.993564,0.1189706,0.2311942
0.9933112,0.1186163,0.2289926
0.9925367,0.119696,0.2296945
0.9931188,0.1207976,0.2309213
0.9910801,0.1192845,0.2320708
0.9898887,0.1186071,0.2340226
0.9911067,0.1166526,0.2326887
0.9921669,0.1161823,0.2271414
0.9915516,0.1177369,0.2246111
0.9903866,0.1189486,0.227962
0.9907162,0.1207394,0.2319031
0.9918413,0.1158943,0.2282487
0.9927832,0.1110241,0.2251883
0.9889691,0.1183977,0.2325848
0.9847483,0.1264493,0.2362373
0.9897834,0.1262938,0.2315685
0.9946927,0.1242777,0.2277133
0.9927292,0.1214607,0.2252163
0.9911143,0.1172056,0.2239272
0.9892109,0.1175388,0.226347
0.9863882,0.1208266,0.2313568
0.9872812,0.1236438,0.2316184
0.9882546,0.1270872,0.2320048
0.9874955,0.1235861,0.2359632
0.9900524,0.1181203,0.2345712
0.9919108,0.1203833,0.2353191
0.9897359,0.1202399,0.238215
0.9889198,0.1193182,0.237156
0.9891086,0.1228211,0.23876
0.9886235,0.1224961,0.2391561
0.9886115,0.1215074,0.2378946
0.987208,0.1216387,0.2355245
0.9855841,0.1193882,0.2305666
0.987241,0.1192712,0.2297444
0.9899897,0.120606,0.2293325
0.9906374,0.1209615,0.2284905
0.990296,0.1211923,0.2302601
0.9901486,0.1220213,0.2316867
0.9903023,0.1252704,0.2339767
0.9901997,0.1274038,0.2336019
0.9885384,0.1271994,0.2301342
0.9851116,0.1305171,0.2277527
0.9828808,0.1338854,0.2263897
0.98676,0.1284908,0.2314015
0.9917219,0.1221836,0.2399937
0.9902744,0.1248328,0.2410767
0.9886111,0.125523,0.237113
0.9892447,0.1220694,0.2351517
0.988582,0.1231796,0.2351326
0.9889288,0.1206672,0.2322073
0.9894681,0.116277,0.2284677
0.989822,0.11982,0.2339935
0.9904775,0.1245507,0.2399481
0.9897086,0.12818,0.2343989
0.9897086,0.1301379,0.2303949
0.9878813,0.1259778,0.2327253
0.9858187,0.1200752,0.2330864
0.9886637,0.1171219,0.2341272
0.989258,0.1198289,0.2354712
0.9909018,0.1251012,0.2344209
0.9957437,0.125902,0.2346196
0.9930014,0.1260757,0.2346397
0.989356,0.1267547,0.2326936
0.9892221,0.1241579,0.2320421
0.9899215,0.1226435,0.234441
0.9927524,0.1225484,0.2372319
0.9908581,0.122597,0.2363532
0.98894,0.123839,0.2353195
0.9898539,0.1220183,0.236671
0.9865332,0.1197451,0.2360687
0.985324,0.1210501,0.2357622
0.9862972,0.1207869,0.2365581
0.9851226,0.1186599,0.235817
0.9846824,0.1182626,0.2352548
0.9861374,0.1208677,0.2309345
0.9905903,0.12477,0.2228847
0.9945633,0.1240153,0.219837
0.9945187,0.1209133,0.2240032
0.991536,0.1212566,0.2335903
0.9892373,0.1207872,0.240116
0.9901424,0.1184684,0.2311398
0.9896154,0.1180217,0.2202023
0.9873695,0.1189642,0.2267283
0.9874192,0.1210955,0.2329113
0.9885511,0.1230927,0.227943
0.9889794,0.1234665,0.2260595
0.9880329,0.1221296,0.2257881
0.9874348,0.1197922,0.2264343
0.9894554,0.1199211,0.2275962
0.9919186,0.1205645,0.2270398
0.9920059,0.1197447,0.2305482
0.9910015,0.1205037,0.2304534
0.9899817,0.1209314,0.229025
0.9884101,0.1208173,0.2292245
0.9885413,0.1204648,0.2265084
0.9894197,0.1178766,0.2349969
0.9888097,0.1160542,0.2432495
0.9896884,0.1165228,0.2347422
0.9908345,0.1179825,0.2290225
0.9899418,0.1183136,0.2332886
0.9892888,0.1178002,0.2351156
0.9887771,0.1182791,0.2340713
0.9886605,0.118121,0.2367496
0.9895075,0.1188876,0.2366182
0.9905752,0.1199333,0.2328718
0.9919583,0.1191013,0.2323267
0.9911481,0.118547,0.2296723
0.9894467,0.117833,0.2286848
0.990436,0.1177023,0.2315324
0.990776,0.117465,0.2319517
0.9907518,0.1163539,0.23108
0.9921931,0.1175168,0.2277659
0.9917637,0.1191339,0.2252929
0.9912904,0.1206182,0.2249023
0.9919894,0.1229102,0.2246968
0.9915475,0.1225058,0.2268208
0.9908821,0.1206668,0.2287606
0.9882583,0.1208099,0.2322715
0.9850432,0.1209378,0.23466
0.9866573,0.1199267,0.2333768
0.9886137,0.1174524,0.2359083
0.9873038,0.1141065,0.238268
0.9881101,0.1145965,0.235218
0.9894825,0.1154009,0.231059
0.98776,0.1130121,0.2297337
0.9877723,0.1142632,0.2308009
0.9916297,0.1174351,0.2306593
0.9958963,0.1191347,0.2309264
0.9959092,0.1202999,0.233349
0.9907506,0.1197657,0.2344001
0.9875094,0.1231306,0.2297404
0.9891148,0.1284526,0.2242567
0.9910999,0.1277085,0.2275048
0.9913946,0.1237786,0.232131
0.9914793,0.1182931,0.2318287
0.991468,0.1141039,0.2322166
0.9892296,0.1150728,0.2321092
0.9879419,0.1162273,0.2325035
0.9897222,0.1168797,0.233886
0.990791,0.1194925,0.2322424
0.9910996,0.1203246,0.2311171
0.9886541,0.1198135,0.230396
0.9850175,0.1208267,0.2279978
0.9888276,0.119052,0.2263143
0.9941809,0.1151723,0.2260067
0.9939896,0.1148478,0.2315965
0.9940686,0.1160314,0.2389121
0.9930888,0.1195126,0.2357141
0.9906498,0.1283358,0.22885
0.9916962,0.1341161,0.2291248
0.9923075,0.1293183,0.2363164
0.9921151,0.1235822,0.2456374
0.9935238,0.1247782,0.2438685
0.9932089,0.123387,0.2356816
0.9925007,0.1191541,0.2350755
0.9924307,0.1194171,0.2334701
0.9913445,0.1203832,0.2328018
0.9916242,0.1207278,0.2362527
0.9929276,0.1193131,0.2352684
0.9931174,0.1173788,0.2338428
0.9931397,0.119993,0.2320932
0.9930194,0.1213706,0.2354067
0.9929714,0.1188477,0.2412754
0.9930204,0.1182427,0.2357498
0.9920588,0.122444,0.2328605
0.9913995,0.1266265,0.2357103
0.9916447,0.1234218,0.2343104
0.9917528,0.1178434,0.2339328
0.9916604,0.1163107,0.2349624
0.9917734,0.1181888,0.2392496
0.9926366,0.1216476,0.2424076
0.993131,0.122121,0.2363485
0.992217,0.1216262,0.2312729
0.9912772,0.121579,0.2350012
0.9914025,0.1184541,0.2384659
0.9908776,0.1171016,0.2373205
0.9889183,0.1175708,0.2371906
0.9881462,0.1168105,0.2338836
0.9873612,0.1195828,0.2284804
0.9854801,0.1237204,0.2280335
0.9858735,0.1244378,0.228709
0.9873124,0.1247255,0.2341926
0.9893998,0.1278379,0.2419909
0.9929184,0.1302057,0.243897
0.9931839,0.1278122,0.2425646
0.9922939,0.1248634,0.2367315
0.9933123,0.1223443,0.2315441
0.9912537,0.1178877,0.2295463
0.9894443,0.1164954,0.2272348
0.9915162,0.1212648,0.2297141
0.9920415,0.1261507,0.2335358
0.9915175,0.1244778,0.2345221
0.9916992,0.1214121,0.2339979
0.9914313,0.12244,0.2329013
0.9907006,0.1222031,0.2332173
0.9891958,0.1209595,0.2325056
0.989419,0.1207585,0.2308925
0.9907325,0.1196161,0.228336
0.9903481,0.1197304,0.2253915
0.9898855,0.1219192,0.2251187
0.989487,0.126258,0.2225761
0.9886577,0.128939,0.2194522
0.9886862,0.1257834,0.2276247
0.9891503,0.1239205,0.2402633
0.9888153,0.1250016,0.240331
0.9887586,0.1230033,0.2361886
0.9890994,0.119644,0.2370756
0.9887376,0.1196949,0.236166
0.9889062,0.1241458,0.2374873
0.9891743,0.1276896,0.2401067
0.9896188,0.1258091,0.2376878
0.9903321,0.1229516,0.2341875
0.9885408,0.1208983,0.2309272
0.9870669,0.1170578,0.2311703
0.9799679,0.1890693,0.2345273
0.9791063,0.1889346,0.2316656
0.9756028,0.1892949,0.2314777
0.9751582,0.1901298,0.2343546
0.9763572,0.1909736,0.2366168
0.9782913,0.1902892,0.2404414
0.9763427,0.1912845,0.2405334
0.9737502,0.1912993,0.2415849
0.9768761,0.1869253,0.2463472
0.9796585,0.1867975,0.2454474
0.9803553,0.1893311,0.2409741
0.9784754,0.1887519,0.2345116
0.9751929,0.1888931,0.2291578
0.9781431,0.1892043,0.2316316
0.9803979,0.1895638,0.2353548
0.9776613,0.1907451,0.2344433
0.9776176,0.1902942,0.2307383
0.9789025,0.1900388,0.2279059
0.9793389,0.1904932,0.2283
0.9791501,0.190546,0.228766
0.9780099,0.1920382,0.228309
0.9776584,0.1936805,0.2288443
0.9775126,0.1924828,0.2304942
0.9769529,0.1891,0.2328124
0.9761768,0.186622,0.2340375
0.9761327,0.1874779,0.2347175
0.9763774,0.1899247,0.2375059
0.9744509,0.1909485,0.2399434
0.9729709,0.1920512,0.2382773
0.9736293,0.193051,0.2347257
0.9738094,0.1903398,0.2330235
0.9740407,0.1868571,0.234664
0.9762512,0.1879765,0.2374083
0.9785112,0.1924938,0.2367658
0.9771594,0.195428,0.2352195
0.9754518,0.1939518,0.2349468
0.9766868,0.1923727,0.234126
0.9764485,0.1950392,0.2361999
0.9750842,0.1968321,0.2413054
0.9750231,0.1954824,0.2450324
0.9746464,0.195697,0.2412126
0.9743726,0.1963193,0.2314033
0.974149,0.1961076,0.2288229
0.9740653,0.1952996,0.2296645
0.9736622,0.1913376,0.2288895
0.972228,0.1898237,0.2324989
0.9721595,0.1950823,0.2336766
0.9728467,0.1983926,0.2314337
0.9748837,0.1946326,0.2315253
0.9785144,0.1910558,0.2373464
0.9789471,0.1915113,0.245561
0.9779924,0.1903751,0.2432345
0.9778987,0.1893458,0.2385995
0.9769162,0.1913759,0.2395137
0.9752757,0.1919821,0.2397273
0.9728805,0.1931455,0.243384
0.9730369,0.194585,0.2457708
0.9744855,0.1959952,0.2428254
0.9731797,0.2008375,0.2390989
0.9736334,0.2010484,0.2346462
0.9749938,0.1986545,0.2347514
0.9748009,0.2007221,0.2348324
0.9753267,0.199898,0.2305669
0.9752281,0.1985218,0.2328903
0.9766142,0.1990069,0.2375764
0.9781356,0.1973635,0.2374725
0.9746406,0.1953064,0.2376022
0.9707191,0.1926416,0.2374376
0.9706173,0.1950647,0.2389195
0.9728815,0.2003955,0.2396158
0.9749975,0.1994196,0.2341943
0.9769346,0.1995908,0.2330248
0.979163,0.2007126,0.2329678
0.9777462,0.1984062,0.2283201
0.9750038,0.1983528,0.2347007
0.9750459,0.1978718,0.2423299
0.9746973,0.1961591,0.2364334
0.9740268,0.1947345,0.23454
0.9739767,0.1920455,0.2382261
0.9753592,0.191791,0.2368825
0.9790478,0.1919225,0.2347027
0.9799203,0.1902486,0.2323704
0.9786921,0.1900306,0.2311541
0.9793019,0.1894302,0.231747
0.9792328,0.1890459,0.2328175
0.9788432,0.191616,0.2386066
0.9784248,0.1943138,0.242175
0.9768528,0.1950946,0.2346626
0.975051,0.1957743,0.2265334
0.9733622,0.1956464,0.2284647
0.9749154,0.1919652,0.2315055
0.9776063,0.18832,0.2307215
0.9763263,0.1865001,0.2331671
0.9757993,0.1832315,0.2301049
0.9769717,0.1830173,0.2242695
0.9761642,0.18765,0.2311956
0.9762461,0.1901079,0.2359381
0.9767132,0.1898073,0.2324476
0.9760987,0.1903432,0.2336264
0.9765109,0.1918287,0.2366749
0.9768113,0.1936158,0.2389322
0.9779925,0.1944388,0.2391723
0.9795515,0.1919725,0.2360886
0.9772935,0.1886673,0.23281
0.9745439,0.1883932,0.2301684
0.9748049,0.1878562,0.2301723
0.9752604,0.1875868,0.2313597
0.9750663,0.1900766,0.2324834
0.9762092,0.1906428,0.2356385
0.9785607,0.1906403,0.2370218
0.9795445,0.1904988,0.2361168
0.9781309,0.1877085,0.2374025
0.9759806,0.1872182,0.2375907
0.9743901,0.1876518,0.2337806
0.9732102,0.1872523,0.2321946
0.9733296,0.1878369,0.2340204
0.9744065,0.1872532,0.2341941
0.9752047,0.1875072,0.233514
0.9768084,0.1880951,0.2324189
0.9768992,0.1889291,0.2305559
0.9757062,0.1911269,0.2314364
0.9766996,0.1903705,0.2333582
0.9761903,0.1901251,0.2331353
0.974181,0.1925136,0.2315792
0.9738253,0.1934054,0.2302535
0.9753495,0.193414,0.2321643
0.9787168,0.1938615,0.2343856
0.9779938,0.195834,0.2330035
0.9742123,0.1971187,0.2320762
0.9738298,0.1958696,0.2320684
0.9738689,0.1939684,0.2316509
0.9742225,0.1923093,0.2321193
0.9755128,0.1934933,0.2325223
0.9753709,0.1962657,0.2344437
0.9763692,0.1970436,0.2371113
0.9777949,0.1950082,0.2363458
0.9770089,0.19177,0.2354562
0.9763834,0.1927415,0.2349196
0.9758335,0.1940727,0.2280773
0.9743509,0.1919167,0.2221309
0.9750836,0.1914129,0.2295561
0.9762482,0.1908424,0.2387532
0.9754509,0.1933992,0.2362662
0.9758963,0.1997633,0.2335845
0.9765279,0.2001327,0.2349058
0.975903,0.1993993,0.2333517
0.9737811,0.2001452,0.2337747
0.971544,0.1963994,0.2340078
0.9740675,0.1923242,0.2331661
0.9770281,0.1915272,0.2384028
0.9764077,0.1951871,0.2410588
0.9758671,0.1987081,0.2366021
0.9747082,0.1962482,0.2334823
0.9730487,0.1948649,0.2358018
0.9733722,0.1965357,0.240652
0.9738619,0.1970755,0.2432214
0.9727162,0.1990364,0.24436
0.9723495,0.2008902,0.2404593
0.9722767,0.1999054,0.2351015
0.9703742,0.1994703,0.2384243
0.9703594,0.1994577,0.2420448
0.9719724,0.1980336,0.2434776
0.9732514,0.1975136,0.2454423
0.9755289,0.1971797,0.2428688
0.974712,0.1959472,0.2383566
0.9724707,0.1954374,0.2342944
0.9739001,0.1939989,0.2340409
0.9740076,0.192462,0.2360015
0.9731958,0.1930068,0.2355127
0.975258,0.1932944,0.2367171
0.9771894,0.1931082,0.2362166
0.9790907,0.1941024,0.2353496
0.9794246,0.1956895,0.2369991
0.9769101,0.196175,0.2356119
0.9761494,0.1951638,0.2360141
0.9772254,0.193122,0.236672
0.9781823,0.1909299,0.2354143
0.977937,0.1911043,0.2360796
0.9773542,0.1914281,0.2333059
0.9777416,0.1905804,0.2308801
0.9755957,0.1948716,0.2319045
0.9724557,0.2009312,0.2312192
0.9721308,0.2003096,0.230251
0.9739649,0.19728,0.2303068
0.975127,0.1957349,0.2309068
0.9714388,0.1936588,0.2304638
0.96861,0.1922004,0.2303236
0.9730245,0.1907335,0.2313052
0.9767401,0.1872205,0.2320162
0.9749494,0.185353,0.2339823
0.9743836,0.1879489,0.2336904
0.9765636,0.1903042,0.2329753
0.9765394,0.1904429,0.235635
0.976333,0.1920659,0.2351181
0.9770262,0.1931959,0.2289619
0.9754921,0.1926755,0.2227502
0.9747788,0.1937157,0.2242303
0.9766687,0.1948865,0.2277855
0.9780136,0.1955107,0.2259866
0.9775978,0.19357,0.2283791
0.9777003,0.1893268,0.2323215
0.9781198,0.1898512,0.2317814
0.9774133,0.1909278,0.2322681
0.9779192,0.1885924,0.2319669
0.9779378,0.1879015,0.2326227
0.9774213,0.1874905,0.2344525
0.9781355,0.188308,0.2343721
0.9788371,0.1906747,0.2352813
0.9839857,0.1912299,0.234069
0.9891068,0.1920783,0.2309102
0.9849135,0.1927302,0.2271596
0.9795042,0.1929901,0.2245423
0.9803243,0.1934302,0.2268316
0.9809981,0.1927593,0.2245645
0.9791439,0.1930794,0.2192798
0.9790711,0.1932629,0.2207609
0.9792356,0.1924191,0.2263909
0.9786427,0.1909339,0.2330032
0.9776407,0.1870061,0.2325813
0.9757951,0.1849841,0.230028
0.9771346,0.1867288,0.2335262
0.9785974,0.1888783,0.2327726
0.9772415,0.1926979,0.2326153
0.9765022,0.1958673,0.2346976
0.9745079,0.1943452,0.2321243
0.9731468,0.1927868,0.232629
0.9754925,0.1924796,0.2322474
0.9775651,0.1884064,0.2312855
0.9786856,0.1848096,0.2347019
0.9820147,0.1867917,0.233426
0.9846895,0.1885048,0.2275631
0.9826364,0.1872181,0.2221789
0.9798961,0.1873636,0.2249596
0.9779087,0.188836,0.2307832
0.9756418,0.1892972,0.2276907
0.9747546,0.1906965,0.2303425
0.9735282,0.1917433,0.2351262
0.974846,0.1886733,0.2281286
0.9777348,0.1844697,0.225745
0.9761715,0.1832871,0.232976
0.9760421,0.1850749,0.2380475
0.9779536,0.1886967,0.2348448
0.9770887,0.1922699,0.2313243
0.9752721,0.1930688,0.2351252
0.9731501,0.1944451,0.2354158
0.9748628,0.1971797,0.2337965
0.9778677,0.1907451,0.2354385
0.9760533,0.1838471,0.2347706
0.9759203,0.1923501,0.236404
0.9770483,0.1992291,0.2377135
0.9759556,0.1937457,0.2336849
0.9761129,0.1904102,0.2309599
0.9747904,0.1909103,0.2326666
0.9731351,0.191467,0.235497
0.9754174,0.193869,0.2361297
0.9768967,0.1938697,0.2387292
0.9745689,0.1940987,0.2413352
0.9726957,0.1977089,0.238201
0.9740477,0.1968011,0.2367541
0.9757928,0.1948031,0.2386758
0.9765367,0.1966532,0.2390723
0.9767604,0.1978022,0.2378265
0.9760618,0.1998152,0.2362687
0.9763798,0.2004133,0.237023
0.9766719,0.1976762,0.2387248
0.9760578,0.1967995,0.2392338
0.9765725,0.1971769,0.2390519
0.9764229,0.1968397,0.2395514
0.9760139,0.1945474,0.2407961
0.9755571,0.1920624,0.2397523
0.9738436,0.1934831,0.2373052
0.9743403,0.1958855,0.2348799
0.9763554,0.1960918,0.231875
0.9763611,0.1949616,0.2292024
0.9745078,0.1943595,0.2282562
0.9731271,0.1935818,0.2305294
0.9744476,0.190665,0.2340666
0.9756203,0.19009,0.2377381
0.9746731,0.1933233,0.2395491
0.9739403,0.1955571,0.2399967
0.9735489,0.1964588,0.2442034
0.9737642,0.1972936,0.2438837
0.9755718,0.1975949,0.2391336
0.9769316,0.1966796,0.2387616
0.9761189,0.195253,0.2356579
0.9743268,0.1942549,0.2333098
0.9732081,0.1943361,0.234132
0.9736191,0.1966428,0.2332847
0.9749707,0.197794,0.2354894
0.9760589,0.197043,0.2354417
0.9766744,0.1972655,0.2355204
0.9766371,0.1971759,0.2388075
0.9770566,0.1975987,0.2363693
0.9782066,0.1987247,0.2356458
0.9777091,0.1982329,0.238533
0.9765537,0.1951245,0.2390877
0.9767232,0.1924166,0.2392306
0.9781981,0.193919,0.2392077
0.9808749,0.194122,0.2412938
0.9818321,0.1923953,0.2402629
0.980301,0.1931662,0.2362124
0.977867,0.1937219,0.2392383
0.9753861,0.1955741,0.2407943
0.9759441,0.1981701,0.237094
0.9762834,0.1974398,0.23724
0.9741602,0.1966803,0.2332268
0.9749545,0.1974809,0.2252268
0.9755434,0.1968084,0.2267277
0.9744459,0.1938943,0.2316826
0.9754542,0.1906626,0.2340239
0.9759446,0.1894051,0.2337394
0.9763989,0.1905142,0.2295018
0.9767997,0.190801,0.2292368
0.9759746,0.1908504,0.2331416
0.9765383,0.1931299,0.2391759
0.976526,0.1929322,0.2430352
0.9759243,0.1899925,0.2354046
0.9757606,0.1883149,0.2281293
0.97549,0.1882874,0.2291177
0.9793281,0.1885973,0.231258
0.9834821,0.1873936,0.232231
0.9811321,0.1888924,0.2300916
0.9784327,0.1918888,0.2283806
0.9793791,0.1921365,0.2286912
0.9793236,0.1950366,0.2263555
0.9786461,0.1963853,0.2219306
0.9783959,0.1916953,0.2198173
0.9765069,0.1892806,0.2216583
0.976967,0.1912762,0.2246712
0.9820896,0.1933502,0.2276055
0.9855183,0.1928122,0.2287118
0.9817668,0.1910188,0.229187
0.9769308,0.1896369,0.2303782
0.9792239,0.1881124,0.2261131
0.9800071,0.1873785,0.2208198
0.9761977,0.1872155,0.2220033
0.9763079,0.1876335,0.2239118
0.9770077,0.187343,0.2238575
0.9789608,0.1853498,0.2257232
0.9827306,0.1844418,0.2285375
0.9821212,0.184317,0.2279422
0.9817635,0.183666,0.2244796
0.9830992,0.1817457,0.220496
0.9829191,0.1818877,0.2184986
0.9808568,0.187047,0.2209599
0.978076,0.1896376,0.2223732
0.9789665,0.1884898,0.2213271
0.9798803,0.187844,0.2227732
0.9784552,0.1865246,0.2227285
0.9785658,0.1864328,0.2222695
0.9789574,0.186831,0.2247686
0.980824,0.1850978,0.2244654
0.9828353,0.1844321,0.2246486
0.9809028,0.1870608,0.2258829
0.9798498,0.190045,0.2241012
0.9809421,0.19053,0.2237424
0.9803422,0.1892035,0.2206625
0.9795045,0.1875296,0.2161144
0.9792652,0.1875806,0.2178047
0.9798214,0.1894671,0.223511
0.9810757,0.1902057,0.2307708
0.9807776,0.187834,0.2313629
0.9811193,0.1852569,0.2258993
0.9825169,0.1877175,0.221386
0.981404,0.1896959,0.2146706
0.9789835,0.1857972,0.214008
0.9772295,0.1839749,0.2184474
0.9775176,0.1866761,0.2195376
0.9790849,0.1883215,0.2248441
0.9781694,0.1875038,0.2255395
0.9764879,0.1870614,0.2211351
0.9765632,0.1882272,0.2249311
0.9782547,0.1892224,0.2252198
0.9808117,0.1907939,0.2253838
0.9807683,0.1924044,0.2319708
0.9787302,0.1948683,0.232948
0.9764138,0.1979688,0.2328143
0.9740666,0.1938802,0.2319493
0.9746031,0.1885246,0.2309619
0.9747675,0.1904175,0.2323893
0.9735893,0.1910624,0.227574
0.9771295,0.1905217,0.224238
0.9810678,0.1921161,0.2250476
0.9811435,0.1906782,0.2257193
0.9827095,0.1887186,0.2299031
0.9843266,0.1890263,0.2318124
0.9822519,0.1897534,0.2272367
0.9794967,0.1905987,0.221215
0.9771874,0.1903845,0.2224061
0.9769858,0.1900148,0.2229288
0.9786719,0.19099,0.2178323
0.9777445,0.1929459,0.2234689
0.9782063,0.1947998,0.2307715
0.9796059,0.1931099,0.2315446
0.9761075,0.1905929,0.2337693
0.9740257,0.1928375,0.2288252
0.9751102,0.1948178,0.2205378
0.9751809,0.1938351,0.2190554
0.9749695,0.1928413,0.2236624
0.9753688,0.1913035,0.228645
0.9778708,0.1921533,0.2259983
0.9799385,0.1940118,0.223466
0.9789879,0.1923984,0.2241453
0.9770088,0.1910305,0.2229638
0.975921,0.190166,0.2245442
0.9763979,0.190252,0.2274858
0.9765226,0.1935065,0.2297009
0.9759459,0.1954859,0.2300653
0.9742786,0.1962848,0.2281591
0.9712426,0.1975665,0.22944
0.9704961,0.1974207,0.2296511
0.9727523,0.19666,0.2283777
0.9743987,0.1954303,0.2297647
0.9737518,0.1938552,0.2286697
0.9741437,0.1932372,0.2270835
0.9756204,0.1933512,0.2265363
0.97479,0.1937708,0.2266036
0.973831,0.1943313,0.2288697
0.973792,0.1929823,0.228641
0.9742703,0.1906885,0.2290434
0.9756387,0.1914499,0.2315662
0.9759939,0.1913475,0.2337617
0.9763171,0.1896331,0.2374601
0.9767649,0.1914773,0.237169
0.9761206,0.1931396,0.2375528
0.9765557,0.1933987,0.2410943
0.9775001,0.1946485,0.2359847
0.9778013,0.1947686,0.2312631
0.9776668,0.1947601,0.2355268
0.9758021,0.1967061,0.2371663
0.9746,0.1981847,0.2340036
0.9758867,0.1964028,0.2307213
0.9764895,0.1941349,0.2281488
0.9742728,0.1928679,0.2278298
0.9713733,0.1923275,0.2284009
0.9725862,0.1936767,0.2286438
0.9770536,0.1930827,0.2310102
0.9790243,0.1921334,0.2327859
0.9781391,0.1922973,0.2327531
0.9769027,0.1913122,0.2332001
0.9745727,0.1942236,0.2295756
0.9725186,0.1953951,0.227898
0.9737533,0.1916297,0.2340295
0.9741519,0.1915943,0.235699
0.9729748,0.1931924,0.2325854
0.9741128,0.1958608,0.2297059
0.9754844,0.198253,0.2266078
0.9795585,0.1955915,0.2301292
0.9847085,0.1925459,0.2382985
0.9833272,0.1912951,0.242809
0.9803752,0.1926001,0.239119
0.9787494,0.1953197,0.2330106
0.9771221,0.1940321,0.2345531
0.9788456,0.1906758,0.2336433
0.9807939,0.1900127,0.2289014
0.9805079,0.1931211,0.229522
0.9807801,0.1954185,0.2288337
0.9814641,0.192748,0.2285638
0.9821225,0.1887808,0.2281648
0.9821737,0.1866896,0.2249898
0.9818339,0.1873324,0.2266296
0.9829429,0.1890351,0.2269347
0.9837137,0.1888689,0.2256064
0.983231,0.1888359,0.2271863
0.9829431,0.1890633,0.2270133
0.9810577,0.1884903,0.2274302
0.9773034,0.1881382,0.2255279
0.9753798,0.1872325,0.2214766
0.9768062,0.1872585,0.2208452
0.9788167,0.187891,0.2207127
0.9801823,0.1872573,0.2220031
0.9809781,0.1874997,0.2217291
0.9795242,0.1876779,0.2196184
0.9782486,0.1872746,0.2222495
0.9776831,0.1878379,0.2226476
0.9757913,0.1883539,0.2195939
0.9762534,0.1890906,0.2194052
0.977862,0.1894821,0.2202682
0.9776863,0.1903429,0.2241597
0.9779095,0.1918514,0.2261276
0.9781283,0.1890618,0.220234
0.9794192,0.1850214,0.2155426
0.9813031,0.185013,0.2152522
0.9804473,0.1849438,0.2212302
0.9794487,0.1842826,0.2314204
0.9798993,0.1851682,0.2302488
0.9797739,0.1856426,0.2239386
0.9789182,0.1863428,0.223964
0.9781815,0.1873474,0.2206357
0.9782257,0.1874414,0.2185055
0.9775961,0.1871497,0.2228755
0.9759663,0.1847799,0.2242618
0.9767504,0.182354,0.2237511
0.9805701,0.1832522,0.2244275
0.9837986,0.1837954,0.2290302
0.9837036,0.183028,0.2347676
0.981952,0.1835272,0.2324913
0.9815487,0.1847373,0.2289746
0.9808457,0.1866287,0.2285439
0.9782272,0.1883835,0.2263878
0.9764497,0.1882723,0.223983
0.9768436,0.1885689,0.2229862
0.9774741,0.1912344,0.2229952
0.9775231,0.1937756,0.2227426
0.9793854,0.1936265,0.2238345
0.9809144,0.1923998,0.2281064
0.9769048,0.1931403,0.2337928
0.9733768,0.19347,0.2363235
0.9751354,0.1930806,0.2334862
0.9757586,0.1959936,0.2307637
0.9753816,0.1981445,0.2292969
0.9768038,0.1966561,0.230897
0.9764694,0.1942995,0.2358661
0.9750531,0.1923226,0.2362558
0.9755129,0.1935549,0.2361857
0.9776104,0.1971207,0.2380583
0.9799756,0.1986918,0.2389928
0.9792564,0.1954804,0.2402281
0.9765992,0.1912722,0.2380467
0.9762359,0.1928934,0.2384005
0.976152,0.1943014,0.2402148
0.9754426,0.1934356,0.2373345
0.9753252,0.196709,0.2374933
0.976582,0.1980529,0.2357157
0.9795534,0.1957792,0.2330917
0.9796429,0.1949485,0.233821
0.9787426,0.1919326,0.230987
0.9808051,0.1874039,0.2320101
0.9821729,0.1873144,0.2346406
0.9815058,0.1922578,0.2347173
0.9776107,0.1978696,0.2372699
0.9747828,0.1993411,0.237185
0.9768833,0.196755,0.2354877
0.9765855,0.1948157,0.2328934
0.975045,0.1958071,0.2322952
0.9758881,0.1951903,0.2360587
0.9760793,0.192772,0.2372333
0.9775795,0.1929381,0.2393686
0.9798146,0.1932086,0.2391482
0.9795477,0.1929014,0.2340463
0.9779787,0.1939237,0.2329128
0.9756648,0.196507,0.2325159
0.9727999,0.1997491,0.2308118
0.9728443,0.1994406,0.2293972
0.9745989,0.1994502,0.2317951
0.9732978,0.202123,0.23712
0.9731873,0.1997015,0.2349171
0.9746969,0.1963233,0.2317227
0.9750285,0.1973892,0.2317523
0.9779322,0.1973891,0.2309598
0.9782221,0.1964069,0.2330336
0.9751687,0.1947931,0.2333937
0.9754324,0.1917426,0.2357907
0.9774572,0.19095,0.2409118
0.9797532,0.1904605,0.2383132
0.9775341,0.1899655,0.2353931
0.973024,0.1924829,0.2343187
0.9735464,0.1936847,0.2322023
0.9737676,0.1932202,0.2315843
0.9740838,0.1950144,0.2291785
0.9774989,0.197289,0.2283578
0.9799689,0.1971756,0.2289388
0.9795673,0.1942519,0.2280158
0.9774768,0.1919923,0.2282803
0.9777279,0.1921156,0.2269781
0.9780803,0.1913992,0.2256316
0.977502,0.1893917,0.2278741
0.9790583,0.1876133,0.2328216
0.9793086,0.187245,0.2377429
0.9791048,0.1887335,0.2366514
0.9794978,0.1903375,0.2320103
0.9799709,0.1911951,0.2288935
0.9819821,0.1910447,0.2261347
0.9814983,0.1900238,0.229866
0.9781766,0.19073,0.2353084
0.9756195,0.194178,0.2286813
0.9767133,0.1964516,0.2239883
0.9791856,0.1940062,0.2291299
0.9781341,0.1900994,0.2305601
0.978126,0.1897667,0.2310315
0.9783159,0.1905048,0.2324521
0.9771031,0.1892113,0.2301508
0.9793185,0.1882418,0.2288993
0.9806458,0.1871299,0.2287687
0.9812933,0.1856011,0.2263963
0.9823359,0.1861118,0.2260668
0.9798264,0.1873228,0.2282123
0.9787235,0.1876476,0.2251372
0.9801541,0.1878823,0.223543
0.9807176,0.1899369,0.2291505
0.9798126,0.1946024,0.2283435
0.9785216,0.1980346,0.2204423
0.9793167,0.1971454,0.2163657
0.9792113,0.1943716,0.2233937
0.9777497,0.1913381,0.2323007
0.976886,0.1878504,0.2232
0.9758962,0.1857933,0.2148673
0.9764424,0.1848318,0.2224942
0.9768241,0.1858608,0.2272892
0.9769619,0.1886665,0.2312357
0.9782596,0.188171,0.2320919
0.9776677,0.1895324,0.2257034
0.9765771,0.194133,0.2262536
0.9763791,0.1928407,0.2263547
0.9763573,0.1896386,0.2228658
0.9776312,0.1891842,0.2237108
0.9789438,0.1910211,0.2290642
0.9790534,0.1946002,0.2387741
0.9772655,0.1941959,0.2390327
0.9747432,0.1935447,0.2333587
0.9751947,0.1944773,0.2343925
0.9779904,0.1925238,0.2320793
0.9798707,0.1936463,0.2281131
0.9798071,0.1956675,0.2251508
0.9804214,0.1944324,0.224757
0.9823657,0.1943452,0.2334244
0.9805252,0.1929052,0.2369516
0.9778661,0.1920843,0.2294885
0.9794356,0.1927879,0.2218166
0.9795899,0.1902175,0.2205543
0.9787825,0.1900098,0.2241537
0.9804079,0.1928341,0.2305344
0.9802543,0.1941769,0.24027
0.9777969,0.1947826,0.2369965
0.9759782,0.1934079,0.2288268
0.9777566,0.1927204,0.2350622
0.9800969,0.1949404,0.233285
0.9772177,0.1982111,0.2257064
0.9751047,0.2011642,0.2264127
0.9757552,0.2003145,0.2288865
0.973544,0.1989685,0.2352947
0.9712056,0.1994975,0.2318186
0.9709496,0.1974153,0.2256168
0.9731211,0.196496,0.2309629
0.9780242,0.197922,0.229284
0.9801853,0.1981394,0.2279261
0.9781803,0.1996521,0.2306151
0.9770777,0.2006232,0.2283396
0.9780004,0.1996792,0.2303566
0.9772591,0.1998297,0.2306318
0.9738936,0.1992581,0.2272902
0.9718569,0.1981693,0.2264292
0.9744815,0.1986127,0.2283831
0.9777108,0.1987898,0.2354859
0.975413,0.198121,0.239807
0.9729201,0.1968413,0.2390038
0.9743806,0.1948141,0.2371622
0.9752879,0.1928694,0.2364666
0.9765317,0.1920087,0.2370083
0.976126,0.1947329,0.23287
0.9737492,0.1988074,0.2305977
0.9743807,0.1976218,0.2336647
0.9738875,0.1963946,0.2371756
0.9738009,0.1994739,0.2418152
0.9757698,0.1983621,0.239855
0.9739442,0.1945573,0.2325492
0.9729655,0.1939537,0.2289634
0.9740131,0.1947694,0.2273579
0.973457,0.1963807,0.2273191
0.9736194,0.1966568,0.228549
0.9738533,0.1955129,0.2323389
0.9749418,0.1947336,0.2363557
0.9780613,0.194413,0.2346262
0.9798185,0.1959439,0.2330783
0.9782664,0.198933,0.2332816
0.9760809,0.2016341,0.2312782
0.9763195,0.2004274,0.2300927
0.9765662,0.1961204,0.2304357
0.976176,0.1934325,0.2308029
0.9767457,0.1925786,0.2308518
0.9773821,0.1944018,0.2329022
0.9789005,0.1964874,0.2376838
0.9796795,0.1960185,0.2396765
0.9781964,0.1959477,0.2369507
0.9755979,0.1972322,0.2339801
0.9726386,0.1979192,0.2334869
0.9730497,0.196811,0.2327304
0.9745382,0.1970207,0.2319609
0.9733375,0.1977861,0.2324018
0.9743372,0.1970769,0.2292808
0.9764815,0.1991658,0.2261254
0.9782313,0.2000518,0.2280489
0.9814341,0.196032,0.2310318
0.9799601,0.1924505,0.2346013
0.976198,0.1923548,0.2370178
0.9768617,0.193811,0.2368444
0.9765421,0.1926911,0.2363271
0.975254,0.1919639,0.2324483
0.9765167,0.1927085,0.2260013
0.9769649,0.1918704,0.2210232
0.9769812,0.1916451,0.2226003
0.978059,0.1905769,0.2310131
0.9784072,0.1900525,0.2321274
0.9792092,0.1918539,0.2247017
0.9815783,0.1932935,0.2190264
0.9827026,0.1943284,0.2187765
0.9831989,0.1924973,0.2228092
0.9834206,0.1906074,0.2244165
0.9802782,0.1908591,0.2319055
0.9778478,0.191458,0.2403942
0.9778965,0.193942,0.2293173
0.9781406,0.1934391,0.2177963
0.9813594,0.1917723,0.2196112
0.9841918,0.1919939,0.2226429
0.9841029,0.1895447,0.2253309
0.9848646,0.1897711,0.2254514
0.9841289,0.1910236,0.2245273
0.9799164,0.1887376,0.2252361
0.9765472,0.1887359,0.2253213
0.9771494,0.1889017,0.2267432
0.9781035,0.1879311,0.2278247
0.9773495,0.188556,0.2247669
0.9784783,0.1899463,0.2197019
0.9784347,0.1919716,0.2184814
0.9769353,0.1927414,0.2198909
0.9791243,0.193093,0.2194549
0.9797443,0.1934024,0.2192743
0.9785653,0.1923096,0.2206552
0.9801179,0.1914278,0.2247425
0.9817253,0.1898599,0.2294246
0.9834431,0.1902987,0.2284228
0.9813314,0.1936742,0.2267085
0.9769973,0.1948923,0.2296394
0.9775952,0.1946663,0.23147
0.9765805,0.1938548,0.23156
0.9753354,0.1918354,0.2303911
0.977268,0.1879121,0.2263437
0.9761744,0.1848163,0.2256373
0.9760256,0.1880028,0.227009
0.9769685,0.1902174,0.226063
0.9759394,0.1884703,0.2259176
0.9765337,0.1901,0.2238397
0.9767122,0.1926401,0.2220529
0.976985,0.19306,0.2269848
0.9785139,0.1914413,0.232754
0.9782666,0.1893759,0.2309936
0.9774329,0.1902754,0.2221299
0.9761923,0.1903686,0.2154395
0.9758218,0.1880911,0.216904
0.9771211,0.1872701,0.220818
0.9769787,0.1888104,0.2227237
0.9770691,0.1922473,0.2269431
0.9773376,0.1951766,0.2309183
0.9765579,0.1964863,0.2288805
0.9765879,0.1970015,0.2270639
0.9761604,0.1947875,0.2249479
0.9763061,0.1920942,0.2196812
0.9767459,0.1940934,0.2185243
0.9765453,0.1968801,0.2208783
0.9792426,0.1955933,0.2248753
0.9812978,0.1939111,0.2292686
0.9796914,0.1946075,0.2282608
0.9785863,0.1965079,0.2257454
0.9791727,0.1975647,0.2265912
0.9795041,0.1960025,0.2266
0.9783389,0.1935519,0.2259405
0.9765177,0.193088,0.2265929
0.9749354,0.195706,0.2255762
0.9770465,0.1983104,0.2252338
0.9801289,0.1973413,0.2265651
0.9755559,0.1966152,0.2266844
0.9716404,0.1978335,0.226836
0.9742501,0.1980758,0.226968
0.9749342,0.1979337,0.2302412
0.974915,0.195429,0.2342254
0.9760884,0.1917755,0.2336237
0.9755718,0.193606,0.2367557
0.9748015,0.1955558,0.2397452
0.975016,0.192961,0.2339176
0.9764217,0.193158,0.2292858
0.978083,0.1961506,0.2307578
0.9780852,0.1977685,0.2340658
0.9767136,0.1976534,0.2362188
0.9761898,0.196633,0.2360566
0.9749097,0.1973942,0.2341123
0.9716961,0.197516,0.231666
0.9717404,0.1967362,0.2316835
0.9729361,0.1975879,0.231699
0.9713888,0.1971475,0.2288831
0.970506,0.1970204,0.226186
0.9696985,0.1975588,0.2269978
0.9720465,0.1971024,0.233132
0.9778532,0.1982537,0.2380148
0.9784057,0.199115,0.2365028
0.9758747,0.1997776,0.2338348
0.9735809,0.2020811,0.2303138
0.9714507,0.2030032,0.2254831
0.9735523,0.20074,0.2286087
0.9770818,0.1972968,0.2349197
0.9783148,0.196676,0.2316459
0.9779756,0.1975058,0.2306505
0.977206,0.197517,0.2345328
0.976701,0.1989979,0.2327179
0.9744413,0.2005614,0.2329226
0.9727105,0.2001908,0.2325629
0.9738113,0.1992755,0.2303579
0.9738606,0.1983448,0.231692
0.9736465,0.1970129,0.2287541
0.9755772,0.1978013,0.2286535
0.9767538,0.2003957,0.234264
0.9756026,0.2001544,0.2359149
0.9744358,0.1993125,0.2359283
0.9750195,0.1985589,0.2339449
0.9753024,0.1967944,0.2298361
0.9752405,0.1988541,0.2260868
0.977783,0.2005459,0.2256657
0.9802596,0.1971037,0.2278411
0.9800082,0.1947425,0.2257243
0.9794821,0.1958122,0.2256518
0.979238,0.1959885,0.2263543
0.9789321,0.1936785,0.2222652
0.9792454,0.1925049,0.2242039
0.9789281,0.1931176,0.2286647
0.9773799,0.1931528,0.2296548
0.9768341,0.1935642,0.2299859
0.9778722,0.1956783,0.2305225
0.9781741,0.1979153,0.2346899
0.97732,0.1966704,0.2356924
0.9764793,0.195196,0.2328001
0.97458,0.197942,0.2298539
0.9729097,0.1992287,0.2248008
0.9747354,0.1969483,0.2268335
0.9766002,0.1941896,0.2314353
0.9763152,0.1925969,0.2301961
0.9764966,0.1948748,0.2302655
0.9765301,0.1977747,0.2286671
0.9773697,0.1968386,0.2248298
0.9791207,0.1942486,0.2237387
0.9791978,0.1929638,0.223361
0.9782574,0.1953787,0.2236529
0.977248,0.1980576,0.2237519
0.9768085,0.1943018,0.2232342
0.9767467,0.18963,0.2235792
0.9778437,0.1900821,0.2252991
0.9803421,0.190543,0.2279948
0.9813245,0.1897233,0.2275746
0.9827756,0.1884525,0.2260047
0.9837428,0.186155,0.226693
0.9798968,0.18689,0.2242761
0.9763539,0.1899258,0.219029
0.9763683,0.1910054,0.2160263
0.9781692,0.1911047,0.220088
0.9799717,0.1917403,0.2309161
0.9791724,0.1919472,0.2337496
0.9791022,0.1912577,0.2231177
0.9813514,0.1907725,0.2135478
0.9823236,0.1898286,0.2155388
0.9820959,0.1881737,0.2195598
0.981711,0.1872791,0.2180831
0.9816096,0.1880947,0.2219594
0.9803468,0.1922231,0.2261369
0.9783799,0.1953278,0.2251124
0.9789135,0.1920152,0.2259722
0.9787156,0.1887054,0.2230018
0.9771457,0.190356,0.2246942
0.9777787,0.1911886,0.2306203
0.9780837,0.1905124,0.2284926
0.9776787,0.1917369,0.2285581
0.9789493,0.1902923,0.2261225
0.9803941,0.1876623,0.2215654
0.9809856,0.1893006,0.224137
0.9819861,0.1899984,0.2238915
0.9847599,0.1893148,0.2229927
0.9858959,0.1899613,0.2232545
0.9799627,0.1905035,0.2225682
0.9740643,0.1923738,0.2241823
0.9769714,0.1931703,0.2246552
0.9794646,0.1912447,0.2246561
0.9769118,0.189686,0.2234776
0.9774278,0.1898166,0.222297
0.9775959,0.1899326,0.2266293
0.9754528,0.1883429,0.2309031
0.9769089,0.1886349,0.2291227
0.9787194,0.1893213,0.2262975
0.9800996,0.1875019,0.2265352
0.981049,0.1873677,0.2258861
0.978353,0.1875893,0.2244332
0.9771072,0.1873438,0.2235086
0.9779909,0.1877324,0.2234918
0.977409,0.1872892,0.2277845
0.9760152,0.187584,0.2330048
0.9745722,0.1875798,0.2347021
0.9757079,0.1874806,0.228299
0.9771352,0.188614,0.2183313
0.9761582,0.1890116,0.2190344
0.9762459,0.1897371,0.2243562
0.97663,0.1927006,0.2269079
0.9765838,0.1974461,0.2298898
0.9782142,0.1992859,0.2306258
0.979757,0.1980517,0.2299354
0.9791372,0.1988255,0.2289487
0.9777192,0.1988046,0.2296724
0.9768138,0.1981868,0.2311746
0.9760697,0.199186,0.2283918
0.9762831,0.199321,0.2270421
0.9766872,0.1996651,0.2292917
0.9761689,0.1976737,0.233971
0.9767677,0.1943469,0.2387695
0.9783189,0.1949131,0.2345757
0.9791576,0.1942644,0.2296121
0.9777379,0.1911287,0.2332136
0.9753936,0.1901851,0.2340042
0.9763089,0.1923144,0.2297434
0.9768359,0.1966257,0.2285566
0.9749385,0.1982355,0.2297143
0.9749142,0.1968618,0.2321403
0.9750627,0.1971147,0.2351046
0.9750463,0.1974553,0.234937
0.9760958,0.1968768,0.2331171
0.9766579,0.1963886,0.2313774
0.9776384,0.1955753,0.2301376
0.9788041,0.1956824,0.2313711
0.9791285,0.1960849,0.2325457
0.9774967,0.1955215,0.2320178
0.9755086,0.1947377,0.231379
0.9764319,0.1933885,0.228473
0.9767776,0.1931057,0.2262011
0.9758257,0.1958822,0.2308702
0.9753185,0.1981663,0.2326441
0.9727878,0.1973424,0.2277993
0.9705402,0.196728,0.2283371
0.9714145,0.1975174,0.2275568
0.9745211,0.1972695,0.2257449
0.9774635,0.1973341,0.2331145
0.9766028,0.1992396,0.2366223
0.9743371,0.2006401,0.2374519
0.9733515,0.2012095,0.2400281
0.9720629,0.2023012,0.2359566
0.9735759,0.2032117,0.2352777
0.9762407,0.2021154,0.2358177
0.9746583,0.1988945,0.2313541
0.9734115,0.1963832,0.2304368
0.9730583,0.1967612,0.2300628
0.9718516,0.1978918,0.2300914
0.9742875,0.1965101,0.2285018
0.9767881,0.1942059,0.2253789
0.976421,0.1930957,0.2302541
0.9763833,0.1942063,0.2336529
0.976327,0.1969787,0.2311727
0.9764307,0.1958598,0.2299554
0.9766088,0.1938396,0.228779
0.9771645,0.1941041,0.2293757
0.9783661,0.1923972,0.2314036
0.9786862,0.1932291,0.2333837
0.9792409,0.1957104,0.2347965
0.9794452,0.1967545,0.2346301
0.9781757,0.198783,0.234173
0.9756823,0.1977477,0.2310799
0.9726087,0.1966811,0.2279801
0.9735593,0.1975518,0.2289452
0.9772508,0.1964634,0.2283633
0.9781416,0.1946815,0.2217296
0.9779007,0.1918759,0.2157143
0.9776899,0.1907936,0.2173761
0.9776104,0.1906201,0.2185764
0.9780725,0.1894895,0.2159288
0.9781165,0.1910908,0.2194842
0.9804319,0.1922047,0.2270918
0.9828013,0.1930686,0.2305753
0.9805624,0.1934686,0.2293435
0.9771672,0.1905529,0.2264031
0.9757477,0.189897,0.2261644
0.9762674,0.1904354,0.227513
0.9769528,0.190458,0.2305347
0.9770468,0.1928646,0.2342814
0.9780373,0.1960486,0.2301973
0.9778675,0.1977787,0.2260105
0.9768659,0.1945991,0.2308914
0.9777347,0.1915328,0.2332769
0.9782242,0.1934036,0.2302054
0.9778731,0.1934206,0.2279101
0.9791486,0.1925759,0.2255251
0.9795341,0.1933423,0.2233902
0.9769159,0.1929976,0.2233638
0.9760951,0.1931569,0.2238621
0.9784087,0.1942341,0.2234962
0.9797159,0.1953568,0.2221603
0.9794896,0.1951729,0.2165733
0.9797242,0.1929955,0.2109051
0.9809453,0.1914937,0.2153058
0.9806539,0.1909253,0.2207912
0.9788042,0.1906465,0.218511
0.9774226,0.1911661,0.2216192
0.9766501,0.1907142,0.2285148
0.980574,0.1889324,0.2269553
0.9849935,0.188026,0.2275749
0.9814289,0.1886696,0.2333719
0.9781414,0.1892448,0.2327379
0.9792899,0.187842,0.2264512
0.9785667,0.186932,0.2199524
0.9781339,0.1880072,0.2198388
0.9795495,0.1885264,0.2240093
0.9795808,0.1898917,0.2236958
0.9797013,0.1910931,0.2234024
0.9809975,0.190838,0.2239867
0.9805487,0.1917732,0.2238865
0.9792682,0.1910524,0.2274868
0.9791656,0.1899336,0.2295106
0.978855,0.192415,0.2256193
0.9781433,0.194833,0.221143
0.9767214,0.1957808,0.2219824
0.97582,0.1968242,0.2252196
0.9766373,0.1970398,0.2261846
0.9764655,0.1945856,0.2286027
0.9765135,0.1919895,0.2304667
0.9785766,0.1932978,0.2305445
0.9804884,0.195067,0.2307397
0.9808568,0.1945326,0.2297974
0.9790917,0.1949172,0.2334247
0.9769792,0.1977401,0.234728
0.9760218,0.199564,0.2280574
0.9757918,0.1973546,0.2275802
0.9749862,0.1957203,0.2319299
0.9732699,0.1973114,0.2334524
0.9750368,0.199097,0.2307263
0.9774736,0.2002821,0.2237805
0.9750665,0.1984397,0.2228402
0.9734264,0.1960671,0.2270108
0.974118,0.1965738,0.231043
0.9751756,0.1931045,0.234893
0.9772584,0.1896911,0.2325617
0.9773336,0.1966624,0.2311923
0.9765938,0.2046642,0.2354252
0.976436,0.2027413,0.236064
