accx,accy,accz
1.036661,0.007419986,-0.001552654
1.025654,0.004311909,0.004442192
1.022458,0.0003945429,0.00350211
1.029422,-0.00408881,0.003796678
1.030183,-0.003740843,-0.01150415
1.028098,-0.009138715,-0.005377109
1.030088,-0.005053738,0.0006968631
1.027998,0.00802872,-0.008383308
1.026133,0.01866774,-0.0001245295
1.021823,0.02610376,0.0001876476
1.019013,0.02412267,0.0009173681
1.022429,0.03432415,0.0105071
1.023296,0.04462622,0.01046731
1.024804,0.03809168,0.01263796
1.022251,0.04274028,0.01104208
1.017417,0.04627253,0.008231604
1.02182,0.03817921,0.007133126
1.028159,0.03071546,0.00132969
1.031591,0.02014428,0.004094133
1.029828,0.01431079,0.009026692
1.024058,0.0132703,0.009987933
1.023262,0.01191177,0.01029033
1.025558,0.0129993,0.007976818
1.026734,0.0143055,0.009082385
1.02566,0.01581699,0.01210304
1.023058,0.01513412,0.01439372
1.022807,0.01301309,0.0129925
1.02293,0.0124918,0.007500377
1.022556,0.01305739,0.009206305
1.022532,0.01451771,0.0149452
1.021881,0.01517677,0.01558901
1.023294,0.01972012,0.013499
1.024163,0.02576338,0.01150234
1.023212,0.02326741,0.008743161
1.023996,0.02079877,0.005513909
1.024486,0.0248214,0.005466032
1.025126,0.02528733,0.00662379
1.025534,0.02086497,0.006291243
1.025434,0.01560415,0.003753585
1.026924,0.0113201,-0.0001279195
1.026343,0.01233191,0.001093307
1.025051,0.01460543,0.002451235
1.025127,0.01567184,0.0008993736
1.024711,0.01925487,0.00341645
1.025168,0.02024553,0.004983968
1.025069,0.01946774,0.005144402
1.024765,0.02230124,0.01041965
1.025253,0.02391408,0.01366958
1.024496,0.02114623,0.003957135
1.02321,0.01813429,-0.007544841
1.022333,0.01966029,-0.00337259
1.025772,0.02207829,-0.0007745294
1.034012,0.02206095,-0.009435043
1.037186,0.02261148,-0.009855798
1.031303,0.02175205,-0.003962842
1.025183,0.0201399,0.001669659
1.025669,0.01903432,0.005294725
1.026405,0.0170578,0.003571589
1.02417,0.01662994,0.004716772
1.024921,0.01627285,0.001413174
1.025553,0.0157465,-0.005834224
1.024456,0.01625791,-0.002126221
1.025445,0.01918313,0.001258918
1.025943,0.02405288,0.000538095
1.026587,0.02272722,0.0003279029
1.027684,0.02026348,-0.003335291
1.027636,0.02041399,-0.0034203
1.027866,0.01596838,-0.001890347
1.026976,0.01469782,-0.003368764
1.026661,0.01623861,-0.003360138
1.02753,0.01452163,-0.006301374
1.026898,0.0154445,-0.01051039
1.026818,0.01564635,-0.008506397
1.026595,0.0148679,-0.003892942
1.026099,0.01664741,-0.001838462
1.02754,0.01622889,-0.002650165
1.027767,0.01396133,-0.003279507
1.025838,0.01250085,-0.002486658
1.025026,0.0155308,-0.002722222
1.027469,0.02001175,-0.002847184
1.030385,0.01786228,-0.001656806
1.028779,0.01617256,-0.001197316
1.025734,0.01750526,-0.0009971029
1.024767,0.01708746,0.000340593
1.024749,0.01799157,0.001364915
1.026239,0.0167333,-0.0009763248
1.026759,0.01405572,-0.00409813
1.026081,0.01602653,-0.002882332
1.026416,0.01853312,-0.002003105
1.025431,0.02066077,-0.003423281
1.024636,0.02119471,-0.004214482
1.025633,0.01758333,-0.01057131
1.027664,0.01582806,-0.01582222
1.029673,0.0169261,-0.003945498
1.027644,0.0182727,0.00987354
1.025404,0.02095164,0.006468675
1.02745,0.02285912,0.002906189
1.028103,0.02158546,0.007308563
1.025315,0.01981177,0.005497995
1.022617,0.02009844,0.004078231
1.022209,0.01954972,0.005100186
1.024926,0.0186597,0.001447771
1.027294,0.01905544,0.001824093
1.025596,0.01769809,0.0002683027
1.024127,0.01782993,-0.004027227
1.025342,0.01959975,0.002523267
1.02479,0.01945291,0.01051775
1.022879,0.02014503,0.01315793
1.022299,0.01954753,0.01451319
1.023709,0.01805642,0.01283382
1.025887,0.01892574,0.007752104
1.02516,0.01889028,0.00137592
1.024363,0.01854528,-4.856987e-05
1.025685,0.01960207,0.002240075
1.025784,0.02209167,0.001774572
1.026251,0.02450399,0.003229428
1.025786,0.02291003,0.007839064
1.023523,0.02070971,0.009207686
1.024673,0.01939029,0.008288328
1.027482,0.01474317,0.009066708
1.029105,0.0134041,0.01016812
1.029608,0.01988481,0.00979128
1.028526,0.02407811,0.00927317
1.027395,0.02231025,0.009892024
1.026374,0.02231728,0.01202247
1.028446,0.02714626,0.0143997
1.033875,0.02923547,0.01478993
1.035762,0.02211137,0.01619962
1.034244,0.01573697,0.0188788
1.032658,0.02031916,0.02042698
1.031562,0.02469884,0.02724746
1.030568,0.02183657,0.03282615
1.024827,0.02329166,0.03151526
1.014901,0.02669827,0.03538126
1.011422,0.02445023,0.03670222
1.015689,0.02464944,0.03455818
1.018873,0.02569472,0.0390206
1.022465,0.02440321,0.03670576
1.028482,0.0240331,0.02876918
1.032213,0.01879602,0.02178723
1.03134,0.01309873,0.01791231
1.022382,0.01504003,0.02990975
1.015219,0.01754944,0.04729757
1.019798,0.01721963,0.05401787
1.022482,0.0183779,0.04879377
1.019247,0.01968025,0.04390883
1.018878,0.02015696,0.05474932
1.020238,0.02288032,0.06213095
1.021177,0.02549424,0.05694458
1.022535,0.02830484,0.05548723
1.022731,0.03235111,0.05306451
1.021645,0.0330154,0.04995609
1.022376,0.02984051,0.05159117
1.022523,0.02458637,0.05089424
1.021545,0.02305993,0.04659441
1.021722,0.02267036,0.04256231
1.020989,0.01816378,0.04159359
1.023221,0.02094453,0.04122836
1.026377,0.02623916,0.04110218
1.024165,0.02605523,0.04237055
1.02095,0.02960454,0.04326494
1.018793,0.03257752,0.05026014
1.019211,0.03191636,0.05683835
1.021828,0.03161611,0.04644601
1.021585,0.03000321,0.03630495
1.020542,0.02861063,0.04606101
1.02076,0.02729833,0.05443267
1.021792,0.02423176,0.04997543
1.025545,0.02157792,0.04639805
1.030444,0.02455424,0.03725712
1.032727,0.02954946,0.02317625
1.031823,0.03057993,0.02177724
1.026701,0.03601824,0.02570026
1.020384,0.04216583,0.02439813
1.023741,0.03889726,0.02070941
1.029031,0.0343665,0.01572691
1.023573,0.03021428,0.01406502
1.021213,0.02362634,0.01576328
1.023643,0.01961336,0.01545756
1.024454,0.01787492,0.01489454
1.033642,0.01679359,0.01551859
1.045231,0.01716006,0.01866884
1.045405,0.01942095,0.0324463
1.027941,0.02261157,0.04881269
1.009229,0.02286207,0.04587058
1.01668,0.02194902,0.03404648
1.028524,0.02420156,0.02988923
1.026442,0.02717884,0.02396808
1.026433,0.03217997,0.02127372
1.022058,0.03904237,0.0223009
1.018534,0.03876919,0.01783319
1.024858,0.03607146,0.01606865
1.029231,0.03899943,0.01191069
1.034956,0.03834864,0.01056628
1.034268,0.03187652,0.0207581
1.026221,0.02771576,0.03074673
1.02609,0.0274729,0.04157604
1.023838,0.02428354,0.03642761
1.020008,0.01000125,0.02314928
1.019988,-0.00639311,0.03089044
1.021083,-0.01055087,0.02968753
1.024396,0.0009387508,0.01676472
1.018171,0.01839717,0.004712856
1.011443,0.02025766,-0.01142629
1.015833,0.0115176,-0.007315937
1.021344,0.007615514,-0.003996482
1.026441,0.004582067,-0.01398264
1.024319,0.009431882,-0.008453628
1.020185,0.01995084,-0.005380234
1.024821,0.02467903,-0.006641121
1.024644,0.0275023,-0.001692029
1.017087,0.02941308,-0.001148597
1.012552,0.03201895,0.00692613
1.016252,0.03660187,0.02369049
1.025036,0.0435272,0.04323576
1.032532,0.04474742,0.05696642
1.039214,0.02921229,0.04593432
1.036126,0.01195489,0.02609339
1.027164,0.004307262,0.01001817
1.02917,-5.32312e-05,-0.008087135
1.029504,-0.007063813,-0.01966228
1.024202,-0.01127299,-0.03144527
1.023932,-0.007961576,-0.03971206
1.024839,-0.01115899,-0.03309295
1.028394,-0.01255296,-0.03261127
1.030159,-0.007734801,-0.03304911
1.030785,-0.009167815,-0.02273001
1.035026,-0.00588211,-0.01931835
1.031649,-0.005056506,-0.01605445
1.027065,-0.006663533,-0.01217555
1.026411,-0.0007332963,-0.01511918
1.02537,0.0002957944,-0.01423935
1.027478,0.001978488,-0.01697593
1.027164,0.001597066,-0.02147599
1.027593,-0.002785451,-0.01897903
1.03042,-0.002261394,-0.01909438
1.032083,-0.003654824,-0.01989351
1.035539,-0.001424652,-0.01881484
1.03132,0.003752759,-0.01688667
1.024884,0.008689888,-0.01158264
1.026538,0.01208986,-0.008221056
1.027026,0.006693334,-0.009894663
1.027823,0.004241257,-0.01235592
1.029843,0.002718578,-0.01251961
1.027726,0.0001940594,-0.0126051
1.024532,0.002765218,-0.0118985
1.023232,0.0009119811,-0.008580079
1.026005,0.001855786,-0.006923549
1.030931,0.004200252,-0.01012627
1.031714,0.001687726,-0.01517224
1.02573,0.003253438,-0.01451891
1.019823,0.003811268,-0.01264071
1.02181,0.006671856,-0.01548304
1.023696,0.0118001,-0.01661421
1.021606,0.009687024,-0.01701229
1.024537,0.008922314,-0.01663344
1.028889,0.01035729,-0.01702156
1.029102,0.009547349,-0.01824701
1.027674,0.009777674,-0.009292201
1.025683,0.01077027,-0.003101373
1.027054,0.01063973,-0.009596627
1.028114,0.007550092,-0.01288205
1.023655,0.004918129,-0.01152297
1.021118,0.007850971,-0.01306811
1.022863,0.0110057,-0.01606497
1.026198,0.007690468,-0.01307637
1.028767,0.004660098,-0.009207156
1.027584,0.005912574,-0.01265682
1.025526,0.005889675,-0.01267822
1.024672,0.00712804,-0.008381532
1.024859,0.009386529,-0.004438356
1.025614,0.00913733,-0.001122304
1.026646,0.009744812,-0.002817319
1.028498,0.0102253,-0.002561374
1.028965,0.01033193,-0.0003267901
1.030185,0.01129559,-0.002094075
1.03615,0.01020256,-0.004052708
1.042427,0.008255629,-0.007956677
1.042132,0.008107612,-0.01128815
1.033702,0.008480697,-0.009084363
1.018156,0.008289379,-0.006406847
1.005372,0.008315821,-0.003156556
1.013937,0.007667293,0.005625296
1.032779,0.004701387,0.01397031
1.036198,0.002096659,0.01203058
1.030794,0.004104924,0.006794867
1.025984,0.00693401,0.006882901
1.024958,0.005568125,0.005437585
1.027945,0.005996473,0.004469532
1.025567,0.00954355,0.007088243
1.025012,0.01210839,0.007613908
1.027159,0.01567795,0.01203081
1.029953,0.01625072,0.01465899
1.03677,0.01464038,0.005935256
1.030665,0.01744266,0.000682456
1.0196,0.01919597,0.005820678
1.018528,0.02094917,0.01535181
1.01718,0.02859036,0.02468657
1.017922,0.03396964,0.0302361
1.022797,0.03060784,0.03144212
1.027469,0.02718657,0.02918193
1.023521,0.02994697,0.03216832
1.011253,0.03070331,0.04682147
1.009193,0.03031228,0.06225047
1.017202,0.0349601,0.06115469
1.026922,0.03988512,0.05568369
1.030431,0.04390732,0.06611713
1.024699,0.04374913,0.07166515
1.019032,0.04090013,0.0692514
1.01012,0.04211441,0.07499621
1.007141,0.04217852,0.0789573
1.014615,0.04426372,0.08813006
1.014363,0.04946514,0.1007511
1.013376,0.05088154,0.09977107
1.015384,0.05262654,0.09723666
1.013945,0.05298491,0.09911336
1.014144,0.050566,0.09705887
1.014289,0.04913103,0.08889936
1.017398,0.04704603,0.08039897
1.021203,0.04504247,0.07958695
1.020482,0.04343417,0.07864203
1.022694,0.04185164,0.06852034
1.026207,0.03999102,0.05398053
1.029615,0.03737837,0.03949414
1.035925,0.03374295,0.03474534
1.038579,0.03045339,0.04342428
1.031119,0.0318913,0.05406104
1.015907,0.0342307,0.08148985
1.00345,0.0416792,0.122562
1.001687,0.06520408,0.1411716
1.004183,0.08905096,0.1503054
1.002268,0.09413066,0.146623
1.004119,0.08720673,0.111371
1.015165,0.08074052,0.08337217
1.027344,0.07218179,0.06726406
1.032664,0.05996578,0.04430492
1.028634,0.0509321,0.03107359
1.02956,0.03928971,0.03143907
1.033237,0.0272367,0.02683591
1.023425,0.02711375,0.02064927
1.013624,0.0366963,0.0456386
1.011924,0.05206258,0.08013646
1.016473,0.06075356,0.08691144
1.022086,0.06018438,0.09023124
1.018016,0.06358289,0.09703848
1.017153,0.06193131,0.09513618
1.021065,0.05319451,0.08180932
1.020492,0.04259801,0.06294106
1.020321,0.02931386,0.05699291
1.019686,0.02626861,0.05079457
1.023428,0.02854726,0.03593948
1.030545,0.02665262,0.03306035
1.032334,0.02450078,0.03755209
1.030854,0.02151021,0.03721709
1.025467,0.02439327,0.0406452
1.020162,0.02818508,0.04853656
1.02042,0.02442705,0.05444672
1.019932,0.02056834,0.05953371
1.01711,0.01372432,0.0576056
1.019099,0.003228846,0.05049637
1.023444,0.001125193,0.04215643
1.023769,0.01136422,0.03168773
1.024855,0.01950563,0.03164188
1.028095,0.01102078,0.03050408
1.028725,0.0009296099,0.01644092
1.024825,0.002592641,0.004813858
1.023558,0.004042709,-0.004079961
1.030228,0.00634404,-0.008642276
1.031729,0.01625524,-0.01073443
1.029224,0.02194777,-0.01725689
1.02847,0.01796465,-0.01217144
1.02141,0.01300276,0.0003066591
1.018829,0.01202336,0.001061982
1.025969,0.01478146,-0.007061769
1.03136,0.02415095,-0.02022252
1.029192,0.03408255,-0.0233398
1.023607,0.03066542,-0.007181693
1.022898,0.02409758,0.001269181
1.022814,0.02193619,-0.009952936
1.024365,0.0129107,-0.01903812
1.026445,0.009513323,-0.01066689
1.024423,0.01409314,-0.002591127
1.027967,0.009799056,-0.007387112
1.030135,0.008396675,-0.004671012
1.026592,0.01315755,0.002933255
1.025211,0.01406283,0.004732849
1.024516,0.01703004,0.00529906
1.027171,0.01689742,0.001991013
1.031258,0.01048109,-0.0002129506
1.033202,0.009121611,-0.004706981
1.028942,0.01359547,-0.009206485
1.022143,0.01671245,-0.007994818
1.025917,0.01533486,-0.0106343
1.028416,0.01506369,-0.008151552
1.025849,0.01856298,-0.005758468
1.029061,0.01959484,-0.01205117
1.030868,0.01683831,-0.01392567
1.030309,0.01473586,-0.01103952
1.024373,0.01768429,0.004055641
1.013423,0.0208928,0.0227629
1.015111,0.01814776,0.02065283
1.02442,0.01572805,0.009790959
1.027069,0.01342509,0.004961548
1.024382,0.006956074,0.00306066
1.021069,0.003926515,0.003014263
1.024619,0.005976844,0.003100823
1.028365,0.006930842,0.001339584
1.024669,0.007149882,0.00164709
1.024398,0.009251907,0.004500564
1.02555,0.01206769,0.005560071
1.023541,0.01309672,0.003285606
1.023817,0.01246579,-0.003680326
1.024381,0.01169798,-0.007300367
1.025801,0.01002633,-0.004260507
1.028022,0.007880789,-0.003591545
1.028518,0.009625203,-0.002549334
1.025084,0.01301424,0.00533905
1.018365,0.01430961,0.01683651
1.019341,0.01909168,0.0211498
1.025234,0.02186915,0.01922528
1.026433,0.01399676,0.01696887
1.024317,0.005852915,0.007765383
1.020778,0.004382313,0.001107774
1.022209,0.006254455,-0.0004918512
1.025269,0.009118165,-0.007261397
1.024495,0.01180308,-0.0060664
1.026751,0.01350528,-0.0009319415
1.031268,0.01233513,-0.004212506
1.034821,0.01198048,-0.002867671
1.029256,0.01316063,0.005262955
1.017175,0.01212433,0.01475169
1.016614,0.01245401,0.02044434
1.018853,0.01285488,0.01444136
1.020566,0.01242176,0.01073279
1.027554,0.01459219,0.01795508
1.026151,0.01575379,0.02066704
1.025761,0.0149834,0.01517716
1.031501,0.01334519,0.006416405
1.029051,0.0117211,-0.004249884
1.028248,0.01108975,-0.01406169
1.031391,0.007984995,-0.02573605
1.031137,0.00410784,-0.03632308
1.031028,0.004607711,-0.0310617
1.025655,0.009835146,-0.00926255
1.017952,0.01458744,0.008394087
1.020365,0.01465909,0.007958688
1.029516,0.01443218,0.0002509301
1.034506,0.01373957,0.001588172
1.02886,0.008633777,0.007346602
1.021746,0.005213503,0.009485864
1.025553,0.006524409,0.008739845
1.029432,0.009866597,-0.002344256
1.027829,0.01390314,-0.01676209
1.02732,0.01339315,-0.02247613
1.023766,0.01204516,-0.02314438
1.022149,0.01457454,-0.01065905
1.02331,0.01234162,0.005015498
1.021023,0.01000278,0.002500876
1.02256,0.01372793,-3.964055e-05
1.02288,0.01518736,0.005270741
1.021084,0.01450266,0.00282693
1.023351,0.01372009,0.003062319
1.02332,0.01330034,0.004423517
1.026225,0.01351974,-0.01314435
1.029629,0.01196087,-0.02796227
1.028015,0.01319508,-0.01979427
1.029385,0.0175047,-0.008839355
1.029062,0.02015734,-0.007911665
1.02593,0.01857349,-0.01284008
1.024576,0.01324362,-0.02122842
1.024507,0.01211197,-0.02728768
1.025628,0.01542628,-0.01972313
1.024787,0.01745926,-0.006691696
1.024739,0.01709189,-0.003042953
1.025492,0.01571171,-0.007418393
1.024929,0.01613045,-0.01487169
1.026967,0.01526078,-0.01483897
1.028237,0.0149154,-0.01228098
1.026833,0.0178437,-0.01414562
1.025636,0.01807608,-0.01139256
1.024501,0.01700834,-0.008751509
1.024118,0.01561112,-0.002090056
1.026727,0.01454869,0.005339792
1.030134,0.01614937,-0.003149403
1.026924,0.01710902,-0.01148132
1.022986,0.01929204,-0.009809319
1.025522,0.0201393,-0.009224155
1.025545,0.01785381,-0.01021002
1.024184,0.01837808,-0.01097633
1.025909,0.01989301,-0.01350391
1.026665,0.02051837,-0.01725899
1.027755,0.01772391,-0.01789381
1.026548,0.01386708,-0.01579337
1.023749,0.01699938,-0.01368964
1.024946,0.01952068,-0.01195682
1.024638,0.01730098,-0.01273912
1.022759,0.0168192,-0.01557214
1.023795,0.01591735,-0.01721445
1.024037,0.01512328,-0.01592999
1.024168,0.01813964,-0.01475613
1.025486,0.02046524,-0.01649075
1.025072,0.01946678,-0.01859327
1.0247,0.01900465,-0.02120822
1.025414,0.01974643,-0.0244843
1.026368,0.0194433,-0.02437673
1.029261,0.01925495,-0.02236428
1.031074,0.01982001,-0.02113204
1.027893,0.02007597,-0.01624848
1.025252,0.01962814,-0.01172038
1.027348,0.01636747,-0.01536199
1.028082,0.01223608,-0.02067557
1.024528,0.01271622,-0.02189858
1.021816,0.01644495,-0.01665306
1.022284,0.01830421,-0.01042118
1.024264,0.01489297,-0.01700812
1.025545,0.01135427,-0.0244367
1.025231,0.01617253,-0.02177211
1.025453,0.02126147,-0.02092316
1.026288,0.02049004,-0.01822938
1.02627,0.02242564,-0.01194449
1.02612,0.02425839,-0.01067952
1.025077,0.01992065,-0.009649318
1.024272,0.01477755,-0.008027662
1.025439,0.01356787,-0.00862312
1.02515,0.01744777,-0.008422783
1.024503,0.0214202,-0.009033751
1.025449,0.02124418,-0.01066424
1.024678,0.02198757,-0.01229283
1.023742,0.0228981,-0.01748819
1.022808,0.0207768,-0.02236771
1.02151,0.02049271,-0.02193225
1.022832,0.0208476,-0.02127092
1.024362,0.01875397,-0.01940707
1.026068,0.01764764,-0.01320885
1.027216,0.01788996,-0.01009646
1.026616,0.01863748,-0.01204057
1.029943,0.0198725,-0.01484178
1.032486,0.02130038,-0.0173505
1.027505,0.02222162,-0.01599988
1.023064,0.02195451,-0.01233586
1.024827,0.02208786,-0.01222716
1.026257,0.02054561,-0.01361873
1.025123,0.01869531,-0.01675037
1.026676,0.02052087,-0.02100839
1.027041,0.02098359,-0.01969395
1.025705,0.0188407,-0.01746809
1.027773,0.01735379,-0.01846614
1.02811,0.01693427,-0.01811921
1.027253,0.01687514,-0.01909137
1.026865,0.01699312,-0.02187153
1.02406,0.02038618,-0.02204486
1.023606,0.02350689,-0.01963562
1.026372,0.02210105,-0.01757563
1.028669,0.02081081,-0.02043896
1.028139,0.02068669,-0.0238344
1.027151,0.01987704,-0.02111695
1.028998,0.01899358,-0.01678622
1.028231,0.01848944,-0.01280586
1.025393,0.01796789,-0.0114432
1.02465,0.01763172,-0.01559429
1.024414,0.01740556,-0.01868447
1.023601,0.01634073,-0.01923407
1.021706,0.01643032,-0.01734213
1.022895,0.01707551,-0.01375032
1.025567,0.01712135,-0.01591625
1.024836,0.02024815,-0.01977769
1.024603,0.02312873,-0.02050412
1.023429,0.02064591,-0.01895543
1.021371,0.01821573,-0.01517683
1.022633,0.01996458,-0.01629419
1.0243,0.02174485,-0.0179293
1.025293,0.0222122,-0.01561515
1.025306,0.02265915,-0.01696815
1.024603,0.02141815,-0.01760368
1.025164,0.01940361,-0.01861795
1.025093,0.01763856,-0.02157648
1.02479,0.01753565,-0.01729614
1.025178,0.01971717,-0.01344806
1.024935,0.01954019,-0.0155391
1.024956,0.01912706,-0.01579585
1.024922,0.01989071,-0.01482719
1.024013,0.01888825,-0.01605023
1.023385,0.01868268,-0.01836762
1.023692,0.01794315,-0.01773055
1.024665,0.01830851,-0.01204133
1.025048,0.02220899,-0.006323115
1.024134,0.02436891,-0.005896733
1.023968,0.02347548,-0.011115
1.027099,0.02039425,-0.02022531
1.02997,0.01866085,-0.02400737
1.026768,0.01992671,-0.01709415
1.023314,0.02129835,-0.01315817
1.025242,0.02241569,-0.01562499
1.025634,0.0205996,-0.01440252
1.024299,0.01881598,-0.0114069
1.025319,0.02136954,-0.01094041
1.025104,0.02251486,-0.01299373
1.024844,0.0191393,-0.01462852
1.026399,0.01510571,-0.01367489
1.027391,0.01539516,-0.01221037
1.028124,0.01944404,-0.009709393
1.027845,0.02270236,-0.007607416
1.027472,0.02268903,-0.009002888
1.028061,0.02070165,-0.01058997
1.027313,0.02068303,-0.01040206
1.025733,0.02122264,-0.0138597
1.02375,0.02201563,-0.01815016
1.023113,0.02538379,-0.01511364
1.024924,0.02705123,-0.01248367
1.025453,0.02517977,-0.01531632
1.025728,0.02295891,-0.01585686
1.026768,0.02314475,-0.01448256
1.026405,0.02407365,-0.01381309
1.026238,0.0226555,-0.01274224
1.026854,0.02211442,-0.01307751
1.028144,0.02165257,-0.01395177
1.029705,0.01918035,-0.01501964
1.029208,0.01912772,-0.01853642
1.027867,0.02003002,-0.02040763
1.027872,0.02005241,-0.01833014
1.028653,0.02101105,-0.01482575
1.029073,0.02014481,-0.0109556
1.027557,0.01841628,-0.01008917
1.025561,0.01783011,-0.01132275
1.026475,0.0162843,-0.01468026
1.027792,0.01674277,-0.02137473
1.027461,0.0199331,-0.02075711
1.02691,0.0212169,-0.01587617
1.025187,0.02013807,-0.01569149
1.024983,0.01885953,-0.01201549
1.02804,0.01954473,-0.0106965
1.029542,0.02078323,-0.01398252
1.027415,0.02053965,-0.01012802
1.024513,0.02014535,-0.008509367
1.024471,0.01932562,-0.01142683
1.024638,0.02002249,-0.01274019
1.023341,0.02143687,-0.01700847
1.025348,0.01973159,-0.01865531
1.02733,0.01840909,-0.01894816
1.026032,0.01756706,-0.02030487
1.025283,0.01705085,-0.01671096
1.024765,0.01995584,-0.01511131
1.023929,0.01987336,-0.01606246
1.023508,0.01578066,-0.01744533
1.023456,0.0147282,-0.02038991
1.023771,0.01550905,-0.01780226
1.023756,0.01622048,-0.01530092
1.024427,0.01807884,-0.01718904
1.02556,0.02199319,-0.01712873
1.026108,0.02579453,-0.01815172
1.027356,0.021865,-0.02021987
1.027764,0.01520791,-0.01956888
1.024984,0.01617501,-0.01884398
1.023147,0.0171919,-0.01878796
1.026205,0.01728967,-0.01784989
1.029097,0.02226221,-0.01753148
1.027769,0.02340815,-0.01758541
1.026967,0.02098776,-0.01622624
1.026879,0.02067782,-0.01677667
1.023327,0.01909657,-0.01896727
1.021232,0.01889583,-0.01871569
1.023536,0.02011671,-0.0152714
1.025055,0.01914423,-0.01090292
1.025065,0.01878292,-0.01187397
1.025218,0.01710869,-0.0135205
1.02581,0.01414746,-0.009853084
1.026719,0.01508504,-0.01038217
1.026488,0.01579644,-0.01642427
1.02615,0.01388546,-0.02100566
1.026538,0.01422284,-0.02044794
1.026388,0.01687863,-0.01771542
1.026299,0.01966274,-0.01916056
1.026306,0.01978087,-0.01833514
1.025451,0.01707407,-0.01808137
1.024712,0.01640037,-0.02491226
1.025657,0.01799238,-0.026611
1.028732,0.02012931,-0.0231342
1.031387,0.0217298,-0.02303718
1.030062,0.02161568,-0.02593711
1.02814,0.02224668,-0.02643023
1.029409,0.02226543,-0.02075581
1.028835,0.02005382,-0.01611949
1.025062,0.01903043,-0.0168442
1.023015,0.01951904,-0.02046379
1.024091,0.02035565,-0.01973031
1.025854,0.02037829,-0.01435102
1.025005,0.01982565,-0.01433381
1.024599,0.01974417,-0.017258
1.026492,0.01769987,-0.0202599
1.026417,0.0164127,-0.01960068
1.026322,0.02033185,-0.01757763
1.026603,0.02371447,-0.02618155
1.025894,0.02190581,-0.03267845
1.025403,0.0193669,-0.02967187
1.022864,0.01765452,-0.02527923
1.021788,0.01619637,-0.02047404
1.024279,0.01836773,-0.01995071
1.025223,0.02074836,-0.01972114
1.023346,0.02003731,-0.01546594
1.021476,0.02084311,-0.01377129
1.023267,0.02098761,-0.01895092
1.025323,0.01855723,-0.02474677
1.024854,0.01822945,-0.02210396
1.025297,0.02099457,-0.02020297
1.02589,0.02498311,-0.02242489
1.026522,0.02571946,-0.02127662
1.026533,0.02350057,-0.02114128
1.025098,0.02290232,-0.0203092
1.025451,0.02106298,-0.01612284
1.027652,0.01850444,-0.01429587
1.029951,0.01925946,-0.01528228
1.028569,0.02031294,-0.01523669
1.022989,0.02096248,-0.01222106
1.019808,0.02269619,-0.01082338
1.021211,0.02231258,-0.01431151
1.022924,0.01983645,-0.01938621
1.020396,0.01948483,-0.02228844
1.018921,0.02139598,-0.02181153
1.023548,0.02367693,-0.01959178
1.026197,0.02386093,-0.0172129
1.024649,0.02027382,-0.0172498
1.022833,0.01500598,-0.01712079
1.021967,0.01233544,-0.01423638
1.023319,0.01904248,-0.01498191
1.024857,0.02712324,-0.01616367
1.02534,0.02369273,-0.01455125
1.024929,0.02144123,-0.01550272
1.024813,0.02338904,-0.01551346
1.025813,0.02018501,-0.01428962
1.027477,0.02207532,-0.01300571
1.029668,0.02635633,-0.01116487
1.027824,0.02421673,-0.01610757
1.025362,0.02270218,-0.02191487
1.028477,0.02033697,-0.01970295
1.030132,0.0182053,-0.0195092
1.028647,0.01996915,-0.02379593
1.028187,0.01957428,-0.0236064
1.027683,0.01902248,-0.02048031
1.027759,0.01984513,-0.01764159
1.028864,0.01976141,-0.01277935
1.029397,0.02213825,-0.008379649
1.029192,0.02402182,-0.009538266
1.028176,0.02107461,-0.01444407
1.024746,0.01814964,-0.01541969
1.021773,0.01935708,-0.01150317
1.026107,0.02018705,-0.009717252
1.031422,0.01885105,-0.01477044
1.027943,0.01989877,-0.02146194
1.024441,0.02119367,-0.02004023
1.025475,0.02052386,-0.01790221
1.025208,0.01908682,-0.01987464
1.027402,0.01695342,-0.01528782
1.02956,0.01675891,-0.01047317
1.027289,0.0180377,-0.0111524
1.027538,0.02085568,-0.01194606
1.029221,0.02350694,-0.01303793
1.028791,0.02182867,-0.01241271
1.027504,0.02088934,-0.01258321
1.025571,0.02147239,-0.01559222
1.025272,0.02214864,-0.01993595
1.025237,0.02428502,-0.02397295
1.024749,0.02293699,-0.02202139
1.026109,0.02128383,-0.01940078
1.026398,0.0226453,-0.01922349
1.02445,0.02226899,-0.01629729
1.023089,0.02196834,-0.01461522
1.023594,0.02246272,-0.01556733
1.02507,0.02227634,-0.01723885
1.007492,0.02400581,0.03988748
1.016749,0.02096789,0.03333004
1.033841,0.01309105,0.02956456
1.033542,0.01282547,0.02946084
1.027381,0.0153317,0.02814704
1.027328,0.01510059,0.02703413
1.023606,0.01694494,0.02320808
1.025382,0.01529314,0.01880923
1.029814,0.01299044,0.02077332
1.029016,0.01609827,0.02722648
1.024453,0.01952869,0.03593701
1.016853,0.02491892,0.04404065
1.020607,0.03505076,0.04861497
1.027057,0.03965597,0.0504976
1.023956,0.03355677,0.04902094
1.02508,0.02975027,0.04882982
1.025699,0.03370203,0.04688004
1.022748,0.03792784,0.04186547
1.019546,0.04260397,0.04494005
1.013077,0.04574177,0.05034968
1.015543,0.04365281,0.05165353
1.023544,0.03705331,0.04835618
1.025428,0.02745884,0.04422501
1.024763,0.02733739,0.05089522
1.021744,0.03351135,0.05871554
1.021624,0.03149484,0.06058449
1.023395,0.031098,0.06022494
1.022501,0.03001745,0.05769313
1.025374,0.02124812,0.05862398
1.027496,0.01791147,0.05851953
1.025791,0.0208551,0.05770105
1.019575,0.02804814,0.05963494
1.011095,0.03480138,0.0601254
1.016464,0.03384767,0.06161462
1.026386,0.03326447,0.05984135
1.027703,0.0331355,0.05813728
1.029636,0.02900384,0.06008269
1.027415,0.02422425,0.05679997
1.021807,0.02008345,0.05329828
1.021193,0.01670355,0.05212937
1.020459,0.01633235,0.055588
1.020726,0.01910478,0.06354783
1.021153,0.0190755,0.0619426
1.019385,0.02045557,0.06014822
1.019849,0.0250153,0.0621037
1.021506,0.02426624,0.05074528
1.024464,0.02641876,0.03829232
1.025873,0.03138255,0.04049649
1.0232,0.0300475,0.05145401
1.021564,0.03097251,0.06397887
1.021182,0.03184837,0.0682653
1.024407,0.02467177,0.05733518
1.029844,0.01751896,0.04118198
1.029245,0.01667088,0.03591198
1.025868,0.01798657,0.03974538
1.024439,0.01643406,0.04245255
1.025248,0.01599524,0.04328486
1.028168,0.01727216,0.04324805
1.029777,0.01505881,0.04365196
1.029704,0.01305389,0.04655168
1.030634,0.01339018,0.04981425
1.033435,0.01738017,0.04816402
1.036833,0.02285615,0.04010977
1.037966,0.01984131,0.02574333
1.030475,0.01501676,0.01613106
1.016778,0.01560512,0.03464036
1.015493,0.01642109,0.06123329
1.026451,0.01963518,0.0628388
1.031377,0.02210345,0.06083483
1.029482,0.02046289,0.06386935
1.028129,0.02011465,0.05721258
1.02791,0.01846022,0.04929533
1.021658,0.01616568,0.04399396
1.015315,0.0192995,0.04357121
1.026091,0.02297811,0.04355305
1.035074,0.02141115,0.04072828
1.022723,0.01888682,0.05969838
1.013371,0.01857455,0.08311401
1.019005,0.01802925,0.07702308
1.022112,0.01888032,0.07155092
1.022334,0.0211787,0.07842502
1.026584,0.0222078,0.07336663
1.025492,0.02473298,0.06368193
1.023509,0.02839872,0.05816354
1.026252,0.02953893,0.05778093
1.024624,0.02749904,0.06194572
1.024346,0.02484818,0.05907912
1.025004,0.02378133,0.05701236
1.022523,0.02187624,0.05724492
1.023361,0.02140908,0.05306057
1.021252,0.02307233,0.05948509
1.018051,0.02198145,0.06560265
1.019835,0.02222179,0.06181072
1.020649,0.02460027,0.06462093
1.020663,0.02438365,0.06847945
1.020103,0.02157264,0.067199
1.019019,0.01742838,0.06377523
1.019596,0.01827053,0.0626128
1.021046,0.02192184,0.06502856
1.023711,0.02187328,0.06247361
1.025679,0.02406955,0.05812793
1.023808,0.0262741,0.05699122
1.020065,0.02561987,0.06584441
1.019548,0.02752853,0.07768197
1.023925,0.02819282,0.0681832
1.030691,0.02638203,0.05374371
1.03411,0.0249259,0.04682312
1.03328,0.02270136,0.03153981
1.034771,0.02084456,0.02319627
1.035799,0.02045847,0.02480919
1.034787,0.02118135,0.02307094
1.036095,0.0218208,0.02836462
1.031692,0.02227818,0.03415721
1.017897,0.02251355,0.03677681
1.003274,0.02159151,0.04948198
0.9977128,0.02083709,0.06617277
1.001742,0.02281891,0.08686492
1.003501,0.03231104,0.1096236
1.009594,0.04220438,0.1160376
1.029289,0.0380753,0.1021665
1.040688,0.02815088,0.07879513
1.032314,0.02141518,0.05730763
1.023033,0.01414389,0.03523595
1.022714,0.01251705,0.02218891
1.020752,0.01943841,0.03094851
1.017696,0.02807774,0.03592097
1.020248,0.03104226,0.03620589
1.019698,0.03035127,0.04750029
1.018572,0.03662503,0.05888239
1.021263,0.04403705,0.07477936
1.024073,0.04666655,0.08320291
1.031335,0.04656908,0.07548689
1.032764,0.04258479,0.07675248
1.023368,0.04063827,0.07788736
1.015184,0.03483365,0.07119711
1.012217,0.02394756,0.06657459
1.01599,0.02003933,0.05530808
1.018847,0.01783952,0.04781663
1.019708,0.01610937,0.04966751
1.025635,0.01530057,0.04968354
1.028564,0.01354432,0.05164898
1.029966,0.01754974,0.05044494
1.032082,0.02098704,0.04908649
1.025229,0.0204344,0.06351515
1.016682,0.0260735,0.08454613
1.015014,0.04009136,0.09592362
1.011072,0.05353836,0.09762478
1.00499,0.06068983,0.1023343
1.007952,0.06408399,0.1117328
1.01596,0.05853594,0.1078032
1.028544,0.03992143,0.0788354
1.044476,0.02007659,0.04694849
1.036935,0.008597007,0.05313763
1.020529,-0.00246243,0.06603057
1.027509,-0.01034908,0.05001222
1.02964,-0.003798108,0.05377366
1.023557,-0.000120249,0.06597488
1.023824,0.0101956,0.07360579
1.016677,0.03778276,0.1018034
1.021529,0.04360587,0.09770919
1.030885,0.04441973,0.085966
1.021231,0.05717926,0.1053029
1.016137,0.05275022,0.1013765
1.012399,0.0476023,0.09601587
1.006084,0.03939161,0.1019429
1.009582,0.01886443,0.1048641
1.014238,0.008673008,0.1186467
1.02419,0.008505981,0.1128516
1.030986,0.01744128,0.1026965
1.018086,0.0269828,0.1085316
1.005733,0.0376365,0.1078278
1.010047,0.05707671,0.1120361
1.016744,0.06536518,0.1125171
1.018278,0.06398882,0.1068009
1.020634,0.05475978,0.108381
1.019924,0.03501285,0.1023499
1.020127,0.02237882,0.09449693
1.02431,0.01864958,0.08557438
1.023656,0.02097705,0.07179026
1.023817,0.02317313,0.07215523
1.020317,0.02238792,0.08202257
1.011133,0.02605263,0.090347
1.012827,0.02988301,0.09698206
1.020803,0.03729642,0.09471371
1.027914,0.04875103,0.08812491
1.031287,0.05367445,0.08508708
1.027454,0.05280174,0.08133467
1.025922,0.0510553,0.08121445
1.023274,0.04912955,0.08639408
1.017309,0.04283387,0.09077566
1.018169,0.03821996,0.09724247
1.017152,0.03447971,0.1015552
1.010978,0.01663935,0.1076513
1.011803,0.002868725,0.1159232
1.015599,0.006505789,0.1066345
1.020582,0.005444539,0.0928756
1.029001,0.003757117,0.08898093
1.026181,0.01749459,0.08791233
1.017523,0.03663277,0.08928308
1.018058,0.05169512,0.08622371
1.018062,0.05687539,0.08569234
1.017055,0.04930627,0.0849539
1.015163,0.04240228,0.07934271
1.006932,0.0408884,0.08993194
1.004769,0.03865321,0.1042365
1.012822,0.03774058,0.1097972
1.026617,0.03440949,0.1067153
1.034832,0.02849276,0.09033857
1.024606,0.02881965,0.08465396
1.014812,0.03260972,0.08642632
1.020501,0.03381097,0.07649785
1.031258,0.03196836,0.05841586
1.040349,0.02726119,0.04256296
1.039887,0.01862384,0.04215322
1.029101,0.008154163,0.04042316
1.018781,0.006355749,0.04431582
1.008292,0.0185094,0.0739804
1.004696,0.0339993,0.09803164
1.019753,0.03932875,0.1021673
1.034248,0.03475167,0.09398668
1.033272,0.02958398,0.08409548
1.02885,0.02428886,0.07549322
1.026917,0.01896261,0.06052927
1.024,0.01845068,0.05546829
1.020198,0.01371892,0.05250925
1.015704,0.004891571,0.04780496
1.01077,0.006915004,0.05481426
1.014416,0.01236676,0.05756029
1.022257,0.01432466,0.06680625
1.023089,0.01795446,0.07817005
1.026051,0.02212592,0.07244581
1.028965,0.02800766,0.07373427
1.027682,0.02773959,0.07087122
1.028426,0.02088816,0.04927463
1.026883,0.0168927,0.03731816
1.023281,0.01141641,0.04729876
1.020182,0.01512059,0.06622352
1.020518,0.02668469,0.07456913
1.02265,0.02770507,0.07799417
1.021387,0.03028981,0.08692209
1.020431,0.03389022,0.09675011
1.017195,0.03092644,0.1131363
1.015391,0.03212602,0.1235571
1.019335,0.03228461,0.1038113
1.025294,0.03118244,0.05880664
1.032778,0.03075887,0.02529544
1.030065,0.02520206,0.02868939
1.023789,0.02140884,0.03931721
1.027836,0.02174836,0.03555986
1.029613,0.02272318,0.03745128
1.030173,0.0222694,0.0480563
1.030676,0.02278964,0.05846827
1.022881,0.02815137,0.06690709
1.017245,0.03172138,0.06609521
1.017818,0.03019737,0.06198712
1.020673,0.02787027,0.0610224
1.024419,0.02794666,0.05535911
1.025598,0.02651042,0.0514926
1.02634,0.02329353,0.04819811
1.027424,0.02449491,0.04231929
1.028782,0.02459883,0.04494937
1.028543,0.02654357,0.0463835
1.024856,0.03314845,0.04789029
1.022576,0.03343304,0.05930574
1.020917,0.03259063,0.06559646
1.020294,0.03311713,0.05951038
1.021313,0.0308691,0.05248834
1.020754,0.03015441,0.05721655
1.021742,0.02863599,0.06107123
1.022672,0.02678352,0.0564487
1.021698,0.0271902,0.0570751
1.020493,0.02950604,0.05115245
1.01937,0.03311697,0.04258566
1.021976,0.03161135,0.0488255
1.024658,0.02890211,0.05366388
1.022753,0.03048649,0.05386588
1.021391,0.02984648,0.05795397
1.0225,0.02916245,0.05921227
1.022448,0.0298131,0.05599599
1.021835,0.02848982,0.05438626
1.022656,0.02931887,0.05489562
1.023288,0.02939086,0.05573417
1.024581,0.02746377,0.05908758
1.025643,0.02691678,0.05904573
1.024702,0.02445914,0.05524928
1.024948,0.02209306,0.05573676
1.02559,0.02115082,0.05652051
1.02654,0.02094944,0.05693197
1.02759,0.02147296,0.05676934
1.023487,0.02039342,0.05332909
1.019171,0.02227849,0.05268259
1.021866,0.02607778,0.05361063
1.025295,0.02839539,0.05203412
1.024977,0.0302822,0.05138036
1.024989,0.0291968,0.05267014
1.024987,0.03052812,0.053343
1.023829,0.03303563,0.05395843
1.023924,0.02996944,0.05509752
1.025243,0.02649596,0.05484537
1.026818,0.02418891,0.05646484
1.02568,0.02445283,0.05796536
1.023151,0.02592456,0.05572816
1.023476,0.02465862,0.05454365
1.023208,0.02563948,0.0525026
1.023659,0.02621976,0.0501686
1.026621,0.0243423,0.0492605
1.026875,0.02550801,0.0478622
1.026027,0.02833928,0.04984156
1.026455,0.03150743,0.05061938
1.026307,0.03168078,0.04940295
1.025051,0.02474463,0.0507911
1.022938,0.01747531,0.05159632
1.021649,0.01739841,0.05323997
1.02177,0.02247518,0.05400607
1.020789,0.02749224,0.05554882
1.019043,0.03017648,0.059946
1.020964,0.02870207,0.05746129
1.023412,0.02654395,0.05093451
1.021998,0.02819359,0.04755573
1.021834,0.02833994,0.04802502
1.022708,0.02814817,0.05154563
1.021941,0.03087692,0.05293005
1.022596,0.03043274,0.0572343
1.024166,0.02807753,0.06350022
1.025168,0.02594304,0.06183746
1.024463,0.02488829,0.06154177
1.0227,0.02733964,0.06536374
1.022416,0.02852707,0.06203277
1.020541,0.02941312,0.05320934
1.019085,0.03163642,0.04723332
1.023227,0.03142043,0.05168431
1.026446,0.02916757,0.05879274
1.024977,0.0251077,0.05412844
1.02443,0.02352113,0.05028859
1.025041,0.02401898,0.05404641
1.023222,0.02150181,0.05774501
1.02159,0.02188845,0.06204962
1.023346,0.02418015,0.05174011
1.02492,0.0241911,0.03757211
1.024183,0.02545212,0.04860123
1.023003,0.02503025,0.05748957
1.022011,0.02357311,0.05222151
1.022487,0.02397885,0.05293719
1.024768,0.02422256,0.0473078
1.025612,0.02536273,0.04190763
1.023776,0.02564378,0.05602167
1.023294,0.02625339,0.06674742
1.024843,0.0283505,0.05815414
1.024982,0.02613903,0.05202201
1.023965,0.02383352,0.05760601
1.022413,0.02548379,0.05765463
1.021572,0.02613424,0.05279657
1.021429,0.0261486,0.05347266
1.019802,0.025608,0.05608066
1.020205,0.02344295,0.05907163
1.023165,0.02234905,0.0566996
1.023677,0.02218346,0.04961928
1.020887,0.02242407,0.04758507
1.018375,0.02415545,0.04607559
1.019324,0.0258881,0.04605993
1.01989,0.02743195,0.04913069
1.018082,0.03072085,0.05128976
1.019285,0.03292273,0.05543107
1.025321,0.0308527,0.05507617
1.030713,0.02827882,0.05285564
1.027451,0.02660337,0.05593843
1.022435,0.02417721,0.05406854
1.025513,0.02508307,0.04540256
1.026016,0.02851617,0.03587223
1.02348,0.02949596,0.03484605
1.024897,0.02942717,0.04484659
1.023364,0.02896272,0.0512373
1.02289,0.0290108,0.05215336
1.024765,0.02902013,0.05108853
1.023868,0.02615131,0.04786039
1.025345,0.02426353,0.04761331
1.025316,0.02451237,0.04970032
1.023148,0.02386104,0.05303849
1.023022,0.02345665,0.05289554
1.02168,0.02524831,0.04992061
1.022649,0.02681161,0.05152643
1.025408,0.02593827,0.04927085
1.026501,0.02647808,0.0436953
1.026115,0.0267857,0.04410095
1.024102,0.02577352,0.05068942
1.02498,0.02684396,0.0577118
1.025634,0.02614642,0.05191821
1.024302,0.02517988,0.04495749
1.025554,0.02558387,0.04966306
1.025944,0.0262448,0.04914084
1.02613,0.02907832,0.04523538
1.025678,0.02977716,0.04534914
1.022423,0.0292622,0.04340616
1.021758,0.02609723,0.04258663
1.022208,0.02023649,0.04170513
1.021099,0.0236354,0.04170563
1.019773,0.02812065,0.04779815
1.019445,0.02582977,0.05461791
1.022695,0.02753382,0.05885696
1.026327,0.03040586,0.05898457
1.026808,0.03042099,0.05629092
1.025344,0.02949159,0.05234864
1.024119,0.02587713,0.04511583
1.023434,0.0240926,0.04226045
1.021375,0.02570252,0.0441874
1.020033,0.02747285,0.04930086
1.020051,0.0284585,0.05812543
1.021748,0.0277383,0.05355262
1.025521,0.0282304,0.04594558
1.02495,0.02950871,0.05240783
1.023328,0.02964021,0.05187114
1.025678,0.03105251,0.04603139
1.025328,0.03086617,0.04608117
1.024331,0.02989246,0.04530024
1.02549,0.03122467,0.04810473
1.024875,0.03155734,0.0498971
1.02483,0.0328162,0.04964173
1.025821,0.03360908,0.05247331
1.027444,0.03021989,0.05134943
1.029725,0.02780717,0.05087355
1.026854,0.02590724,0.05182223
1.020619,0.02178674,0.05003638
1.018499,0.01963342,0.05012628
1.020423,0.02164323,0.05079663
1.02251,0.02535866,0.05168745
1.02307,0.02833443,0.05166152
1.025716,0.02886296,0.05087883
1.030001,0.0274647,0.0521391
1.029749,0.03009784,0.05324744
1.028045,0.03310361,0.05544319
1.027561,0.03119349,0.05527425
1.024852,0.03146252,0.04923792
1.023324,0.02949146,0.04432412
1.023563,0.02434986,0.04610745
1.021603,0.02474944,0.0529631
1.020802,0.02543776,0.05580813
1.023524,0.02605395,0.05370668
1.025967,0.02920638,0.05392727
1.025276,0.03259803,0.05449506
1.023944,0.03579892,0.05418276
1.023613,0.03426908,0.05525423
1.021781,0.02984262,0.05674633
1.021946,0.02822206,0.05732907
1.025382,0.02884356,0.05662682
1.028002,0.02789023,0.05562341
1.030925,0.0253714,0.05364408
1.03017,0.02647453,0.05199876
1.024013,0.02792494,0.0547972
1.019253,0.02745958,0.06292112
1.018651,0.02830941,0.07004668
1.021887,0.02873953,0.06576186
1.022858,0.03032792,0.05954087
1.020755,0.03216273,0.06486014
1.021386,0.03075225,0.06631293
1.02355,0.02671038,0.05859929
1.026733,0.02215468,0.05389962
1.027031,0.02369892,0.0515068
1.024415,0.02676271,0.05296928
1.024099,0.02429709,0.05562979
1.022429,0.02478664,0.05668338
1.021622,0.02677012,0.06420456
1.023068,0.02592678,0.07003986
1.023738,0.02711108,0.0661953
1.025601,0.02854214,0.06096359
1.024976,0.03112531,0.06037992
1.021861,0.03320627,0.06193043
1.018546,0.03137697,0.06167005
1.015985,0.03181003,0.06202587
1.020411,0.03243282,0.05938534
1.025992,0.03109121,0.05514387
1.025094,0.03080827,0.05704543
1.023461,0.03055348,0.05764523
1.022733,0.03335451,0.05610556
1.022308,0.03592863,0.05652631
1.024939,0.03376172,0.05600944
1.027236,0.03126129,0.0560786
1.025242,0.02979591,0.05572179
1.022414,0.03028595,0.05525534
1.021913,0.03026397,0.05744906
1.022409,0.02798703,0.06083386
1.023012,0.0274453,0.06257496
1.022991,0.0262673,0.0584642
1.021625,0.026019,0.05339521
1.020193,0.02891841,0.0557466
1.019556,0.02945737,0.05769356
1.020899,0.02859168,0.05340716
1.023113,0.02710138,0.05044977
1.022384,0.02663663,0.05089571
1.021779,0.02992196,0.05265937
1.023592,0.030161,0.05504101
1.023803,0.0292325,0.05818348
1.023476,0.03213644,0.06168269
1.023751,0.03288665,0.06347519
1.023463,0.03315487,0.0661557
1.02353,0.03500976,0.07099826
1.022723,0.03211058,0.07643331
1.022379,0.02821232,0.07640183
1.024948,0.02937306,0.07019238
1.026395,0.0314106,0.0671267
1.022192,0.03251929,0.06058867
1.017454,0.0342075,0.05289371
1.019587,0.03583454,0.04966566
1.022592,0.03666013,0.04084263
1.022744,0.03563155,0.04039626
1.024442,0.03405818,0.04869621
1.024633,0.03314723,0.05329587
1.024821,0.03148811,0.05941251
1.026634,0.02656879,0.05754643
1.026162,0.02004264,0.05490131
1.026121,0.02192811,0.05867815
1.024288,0.0287555,0.05526747
1.019949,0.02947428,0.0511308
1.019178,0.02934669,0.04867137
1.02115,0.02946438,0.05060982
1.023073,0.02946059,0.05701554
1.022541,0.03224123,0.05398642
1.022455,0.03424603,0.05323252
1.024468,0.03858948,0.05848188
1.023348,0.03983988,0.05827152
1.022129,0.03407678,0.05823502
1.02139,0.03271973,0.05661094
1.019214,0.03424559,0.0544907
1.019896,0.03436836,0.0563905
1.022251,0.03148322,0.05798917
1.024081,0.02740188,0.062302
1.023238,0.02941757,0.06438543
1.021337,0.03084607,0.05770447
1.023388,0.03022121,0.05069223
1.024082,0.03230661,0.04920836
1.022243,0.03344005,0.04967924
1.022161,0.03346561,0.04849129
1.022294,0.03153506,0.05059212
1.023014,0.03021098,0.05529281
1.022892,0.03113527,0.05535104
1.020958,0.0300027,0.0520157
1.020991,0.02955936,0.04872678
1.023609,0.02916959,0.04990323
1.02593,0.0278539,0.05253256
1.025206,0.02851662,0.05114513
1.024375,0.02766437,0.05185278
1.02542,0.02674066,0.05496833
1.024979,0.02797164,0.05630912
1.024743,0.02784993,0.05512599
1.024954,0.02653732,0.05226285
1.02302,0.02517736,0.05108074
1.021694,0.02474794,0.05189235
1.022127,0.02505312,0.05612968
1.022471,0.02501593,0.0581233
1.022148,0.02502927,0.04940762
1.022092,0.02545798,0.042392
1.022597,0.02774302,0.05000953
1.022821,0.03034796,0.05811988
1.023144,0.0311914,0.0543028
1.023443,0.03198549,0.05505078
1.025192,0.03236661,0.06090666
1.026749,0.03168645,0.05690032
1.022745,0.03184201,0.05585497
1.019732,0.03223924,0.05912381
1.023669,0.03153515,0.05783433
1.026372,0.03107128,0.05913766
1.024834,0.03045863,0.06111032
1.024501,0.03019904,0.06289121
1.025461,0.03094841,0.06283893
1.024904,0.0305942,0.0587569
1.024775,0.03129776,0.05798886
1.025327,0.03252371,0.05790747
1.024602,0.03177001,0.05596317
1.024123,0.03186606,0.05269249
1.02332,0.0320996,0.05147447
1.02238,0.03144802,0.06091319
1.022345,0.03025409,0.07214146
1.022121,0.02892642,0.07268488
1.023404,0.03074953,0.06421268
1.024932,0.03293305,0.05750577
1.024902,0.0317211,0.06053378
1.024264,0.03079435,0.06614622
1.023142,0.03138203,0.06896972
1.023732,0.03112172,0.0675536
1.024846,0.0302627,0.06082707
1.024942,0.02948692,0.0572611
1.024906,0.02934995,0.0610169
1.023044,0.0309252,0.06590622
1.021618,0.03254353,0.06572248
1.022057,0.03214888,0.06359731
1.021499,0.03098364,0.0638942
1.020674,0.02945722,0.06324591
1.021729,0.02726353,0.06388285
1.023697,0.0284233,0.06605885
1.023858,0.0320827,0.06532881
1.023223,0.032234,0.06478886
1.022851,0.03170331,0.06334076
1.022239,0.03237043,0.05731521
1.023903,0.0324117,0.05267077
1.025817,0.03286295,0.05683046
1.025186,0.03180486,0.06324173
1.025541,0.03143702,0.06192618
1.026382,0.03252029,0.05757476
1.023623,0.03166616,0.05570648
1.020157,0.03186825,0.0600324
1.020677,0.03187973,0.06636702
1.022402,0.03019655,0.06230558
1.02312,0.03114565,0.05903471
1.023807,0.03492145,0.06401096
1.022776,0.03745423,0.06626652
1.021669,0.03598212,0.06716734
1.02236,0.03580738,0.06193702
1.022349,0.03861109,0.05366215
1.022046,0.03911666,0.05757156
1.022506,0.03807109,0.06177818
1.023102,0.03387617,0.06313345
1.02384,0.02769496,0.0689039
1.023774,0.02691193,0.06321365
1.023366,0.02917656,0.05394165
1.023722,0.02955193,0.05794785
1.023667,0.02895796,0.05853478
1.023472,0.02913257,0.056959
1.023554,0.02933828,0.0657562
1.022676,0.02898845,0.07139726
1.021909,0.02943801,0.06981133
1.022201,0.03008268,0.06728584
1.021993,0.03125065,0.06402218
1.020374,0.0334875,0.06002265
1.019225,0.0353948,0.05855385
1.021085,0.03608563,0.06520944
1.022964,0.03583075,0.06891688
1.021327,0.03632483,0.0661324
1.020113,0.03605084,0.06682099
1.021284,0.03468118,0.06485687
1.022204,0.03354084,0.06347126
1.02402,0.03104276,0.06583123
1.024604,0.0299772,0.06859717
1.018697,0.03056037,0.0750617
1.013877,0.02964521,0.07338778
1.020081,0.0289212,0.06413627
1.028476,0.02919319,0.05871359
1.027887,0.03044398,0.05659619
1.023494,0.03170707,0.05906895
1.021457,0.03266951,0.05889994
1.021767,0.03478212,0.05717003
1.022913,0.03664983,0.05927876
1.021838,0.03658266,0.05805104
1.020979,0.03555703,0.05814225
1.021312,0.03583379,0.06046853
1.021204,0.03469781,0.06219688
1.02276,0.03211153,0.06603992
1.022501,0.03252714,0.06590894
1.021907,0.03212178,0.06485862
1.024583,0.03132849,0.06485543
1.024627,0.0326389,0.0615492
1.021462,0.03268032,0.06189046
1.018694,0.03343503,0.06420565
1.020959,0.03358557,0.06550829
1.025714,0.03193914,0.06876776
1.025099,0.03192406,0.06635176
1.024484,0.03189289,0.05975745
1.0242,0.0320847,0.05795719
1.021118,0.03300519,0.05735018
1.020448,0.03321786,0.05726396
1.020993,0.0326858,0.06073258
1.022004,0.0312784,0.06315059
1.02347,0.03093513,0.06093663
1.023908,0.03069588,0.05703983
1.024685,0.03009162,0.05539594
1.02467,0.030706,0.05452532
1.023399,0.02967134,0.05597734
1.02144,0.02862119,0.05943921
1.020756,0.02992909,0.05583903
1.020388,0.03183992,0.05238644
1.019513,0.03406613,0.0561497
1.023979,0.03394185,0.05747106
1.028061,0.03367541,0.05592322
1.025426,0.03628001,0.05194116
1.024603,0.03638985,0.04775496
1.028054,0.0344091,0.04920309
1.029615,0.03291012,0.05131274
1.026306,0.03143872,0.05464112
1.022656,0.03271788,0.0568183
1.022506,0.03426481,0.05208816
1.022185,0.03359243,0.05090449
1.020996,0.03309641,0.05573498
1.020933,0.03175868,0.05878637
1.022011,0.03131697,0.05951461
1.024328,0.03236684,0.06059619
1.025694,0.03073912,0.06424674
1.024925,0.02910159,0.06492298
1.024022,0.02974789,0.0628144
1.021685,0.03165396,0.06397396
1.01862,0.03429704,0.0619846
1.020732,0.03386731,0.05691945
1.023745,0.03305286,0.05191682
1.021901,0.03374721,0.04712637
1.021871,0.03112535,0.05070786
1.023812,0.02938985,0.05507754
1.023661,0.02992765,0.05177666
1.024599,0.03029241,0.050412
1.02536,0.03257073,0.05086548
1.024853,0.03155508,0.0519242
1.024711,0.02929794,0.05597506
1.02352,0.03130803,0.05727096
1.023474,0.03176645,0.05716603
1.02539,0.03258801,0.05479859
1.025515,0.03318262,0.04822139
1.024503,0.02755602,0.04817105
1.025044,0.02345639,0.05036105
1.025137,0.02578276,0.04919852
1.023743,0.02842951,0.05313285
1.023502,0.02795811,0.05572509
1.023608,0.02845163,0.05425061
1.023545,0.03099709,0.05331357
1.024324,0.03154217,0.0531109
1.026101,0.03207246,0.05638017
1.028678,0.03225822,0.0561878
1.027819,0.03130347,0.05678331
1.025172,0.03154702,0.06280105
1.0248,0.03113624,0.06228818
1.023876,0.03190588,0.05870574
1.023419,0.0325756,0.05360416
1.023889,0.03171246,0.04997988
1.024359,0.03410744,0.0544845
1.025092,0.03635146,0.05685857
1.023214,0.03568394,0.05809595
1.021436,0.03346343,0.05719729
1.022269,0.03060292,0.05116135
1.02319,0.03051618,0.05182129
1.025629,0.0319159,0.05722065
1.02813,0.03385584,0.06086661
1.02476,0.03593095,0.05954732
1.0202,0.03600867,0.0553716
1.0222,0.03631211,0.05546071
1.023142,0.03566457,0.05547793
1.020321,0.03288982,0.06031677
1.021433,0.03078726,0.06767072
1.023722,0.03052223,0.06117192
1.025403,0.03189026,0.05470666
1.02559,0.03149488,0.0576891
1.023022,0.03135852,0.05658781
1.022586,0.03284532,0.05593438
1.021301,0.03150826,0.05811898
1.020333,0.03170721,0.05666151
1.023217,0.03259155,0.05751224
1.023983,0.03112989,0.05965403
1.023636,0.03154139,0.0596545
1.023581,0.03127619,0.06162811
1.023423,0.03207224,0.06164135
1.023946,0.03469373,0.06031694
1.023514,0.03551449,0.06069557
1.024563,0.0362135,0.05681955
1.025274,0.03342937,0.05337303
1.023719,0.03061386,0.05569317
1.022536,0.03259798,0.05625164
1.021788,0.03397944,0.05400194
1.022155,0.03496152,0.05480647
1.021501,0.03493331,0.05947034
1.020277,0.03317159,0.06493304
1.021145,0.03239557,0.06633957
1.021825,0.03162123,0.06269334
1.022537,0.03219431,0.06092595
1.023496,0.034044,0.06294316
1.024515,0.03483031,0.06645261
1.025518,0.0341254,0.07081775
1.024912,0.03254444,0.06989805
1.024614,0.03256373,0.06565455
1.023827,0.03352675,0.06282789
1.020512,0.03577974,0.05890914
1.018523,0.03860311,0.06039568
1.019599,0.03673125,0.06451576
1.020574,0.03519948,0.06211079
1.020289,0.03760298,0.06189549
1.020692,0.03758795,0.06440716
1.020874,0.03547928,0.06233261
1.01921,0.03156356,0.05770899
1.019022,0.02843054,0.05428876
1.021037,0.03340002,0.06191242
1.022306,0.03841513,0.07191545
1.024085,0.03599877,0.0646831
1.02562,0.03440753,0.05890896
1.024043,0.03340106,0.06368892
1.022998,0.02926304,0.06001987
1.023678,0.02994241,0.05745566
1.022762,0.03336441,0.06447836
1.021809,0.03410777,0.06818176
1.022406,0.03692139,0.06589159
1.023277,0.03692421,0.06245249
1.023245,0.03464829,0.06038316
1.021016,0.03599399,0.05765317
1.019052,0.03449437,0.05783844
1.021814,0.03415891,0.06230612
1.024946,0.03695119,0.06315449
1.022658,0.03755232,0.06491367
1.021575,0.03922845,0.06984923
1.024606,0.03733888,0.07252457
1.025314,0.03378286,0.07297788
1.023859,0.03512072,0.07100743
1.022206,0.0357109,0.06959205
1.020732,0.03614215,0.06776528
1.019913,0.03650818,0.06665476
1.01903,0.03564739,0.06740969
1.019617,0.03547669,0.0643333
1.020786,0.031662,0.06391363
1.021706,0.02794968,0.06192123
1.022764,0.03068111,0.05227735
1.02213,0.03333548,0.05031172
1.021985,0.03171462,0.0560727
1.022538,0.03137357,0.06067181
1.022013,0.03260719,0.06132965
1.022083,0.03164949,0.05881955
1.021249,0.03179156,0.05982754
1.01951,0.03235942,0.06239102
1.019203,0.03153352,0.06712726
1.019833,0.03215441,0.07223318
1.021328,0.03252957,0.06598813
1.022689,0.03438313,0.05656833
1.022427,0.03722594,0.05671032
1.021887,0.03621266,0.06103149
1.022331,0.03555237,0.06136211
1.022899,0.03632943,0.05214914
1.024672,0.03480067,0.04267983
1.027179,0.03250708,0.04973862
1.025289,0.03164921,0.05882052
1.021285,0.03311051,0.05577512
1.020395,0.03566746,0.0561676
1.020536,0.03626022,0.05697643
1.020142,0.03427774,0.05138614
1.0192,0.03245041,0.05228397
1.020171,0.03234501,0.05900747
1.025273,0.0317239,0.06528597
1.029013,0.0297862,0.06417231
1.027239,0.02933899,0.05568936
1.024284,0.0317474,0.0530456
1.024568,0.03411934,0.05468896
1.023722,0.03277974,0.05795326
1.021122,0.03090977,0.06067194
1.022473,0.03226133,0.05672139
1.023626,0.03227415,0.05444977
1.023662,0.03138396,0.05565756
1.025859,0.03271539,0.0558052
1.026669,0.0336395,0.05500003
1.026537,0.03524457,0.05257301
1.02628,0.03599174,0.05095866
1.026056,0.034771,0.0514094
1.025642,0.03490664,0.05456716
1.023555,0.0341762,0.05644192
1.023306,0.03283267,0.05460747
1.024043,0.0317662,0.05181551
1.024506,0.03132989,0.04798547
1.026292,0.0325731,0.04792522
1.026344,0.0318,0.05033373
1.023955,0.0315934,0.05263279
1.020371,0.03268128,0.05729798
1.018774,0.03239967,0.05774357
1.021386,0.03373268,0.05577527
1.022737,0.0330935,0.0559456
1.020327,0.030079,0.05502963
1.018592,0.02970108,0.05649524
1.019688,0.03315008,0.0608203
1.020884,0.03779755,0.06508402
1.021464,0.03554962,0.06669051
1.021836,0.03209974,0.06413564
1.020556,0.03400238,0.0632628
1.020419,0.03329822,0.06276154
1.0219,0.03357846,0.06009498
1.023255,0.03754998,0.05608145
1.0252,0.03878081,0.05188547
1.022924,0.03588827,0.06332369
1.019105,0.03177492,0.07839868
1.02097,0.03383759,0.07052286
1.021605,0.03600187,0.06407046
1.020207,0.03195372,0.06771805
1.022091,0.03197402,0.0629911
1.02243,0.03500883,0.0643596
1.021057,0.0365865,0.0683737
1.020913,0.03676402,0.061089
1.021514,0.03543883,0.05841188
1.022375,0.03733112,0.06232604
1.020497,0.03809524,0.06615231
1.018529,0.0369345,0.07140433
1.019585,0.03826017,0.07205342
1.019705,0.0391216,0.06741261
1.02007,0.04055019,0.06599658
1.024022,0.03971201,0.067658
1.027597,0.0358777,0.0646277
1.025963,0.03224532,0.06301715
1.023728,0.02761107,0.06527728
1.025945,0.02687933,0.06301509
1.028777,0.02355468,0.06386816
1.032901,0.01518817,0.06581875
1.034285,0.01921722,0.06274045
1.022826,0.02925886,0.05737556
1.012357,0.0349537,0.0456512
1.017782,0.04291398,0.04016586
1.027118,0.04637445,0.04184241
1.031475,0.0466832,0.04235257
1.033452,0.05267675,0.05183862
1.033152,0.05703211,0.06073146
1.031815,0.05575269,0.06300695
1.025924,0.05150922,0.06202207
1.011911,-0.01788837,0.0800754
1.023217,-0.01362024,0.08410965
1.026915,-0.01407448,0.08382889
1.026327,-0.01563642,0.0792349
1.025517,-0.02581711,0.07659878
1.026318,-0.02513261,0.07271154
1.022799,-0.01393234,0.07791359
1.018104,-0.00582961,0.08711841
1.019867,-0.0002095084,0.08819312
1.022151,-0.003626982,0.08999987
1.025223,-0.004992311,0.08541759
1.028609,-0.00532504,0.07647836
1.027952,-0.01265525,0.07475225
1.028794,-0.01526629,0.07072387
1.031431,-0.0201507,0.06617619
1.032476,-0.02538972,0.06241036
1.032198,-0.02074946,0.05382511
1.033184,-0.01699214,0.05184779
1.037471,-0.01677949,0.05644893
1.037892,-0.01297019,0.05665507
1.024135,-0.004328779,0.06125624
0.9979014,0.002442484,0.07855773
0.9854856,0.00643304,0.103155
1.004905,0.007306919,0.1152919
1.026609,0.003800876,0.0990283
1.026361,0.005809666,0.0863273
1.020986,0.00418686,0.09108726
1.020627,-0.008505616,0.08221608
1.021426,-0.01541343,0.06858165
1.022434,-0.007989769,0.06457946
1.019509,0.006207155,0.0674402
1.01781,0.007817057,0.07676579
1.023694,0.003410185,0.07585146
1.028291,0.007504947,0.07404554
1.026718,0.00892408,0.08117245
1.025844,0.01084589,0.08030221
1.029638,0.009058665,0.07160831
1.030555,0.003108211,0.06327675
1.024096,0.008841777,0.07072859
1.017015,0.01117248,0.08513664
1.01504,0.006499315,0.08754726
1.018241,0.004837915,0.09498062
1.021527,0.002615204,0.09375309
1.023941,0.004266349,0.08339024
1.023233,0.008425003,0.09731469
1.016593,0.01205199,0.1114182
1.013028,0.01461014,0.1127913
1.014339,0.0144786,0.1123772
1.022543,0.01170452,0.1000897
1.033394,0.004610819,0.08915627
1.029065,0.002631989,0.08584748
1.021623,0.00610329,0.08594181
1.020492,0.006487541,0.09230965
1.015382,0.008995168,0.09650817
1.015454,0.009579072,0.09800013
1.021429,0.00449164,0.09515342
1.024836,0.004218525,0.0901822
1.02565,0.006947558,0.08759769
1.024737,0.004385936,0.08171561
1.026204,0.0004035599,0.07796376
1.024947,-0.001839225,0.0745962
1.021386,-0.002430075,0.07405852
1.020149,6.861058e-05,0.0824635
1.017586,0.001345566,0.08542058
1.022104,0.002738864,0.08468512
1.027184,0.004977773,0.08541348
1.021454,0.006098932,0.08579695
1.01856,0.01034239,0.08870129
1.020036,0.005865661,0.08627412
1.021528,-0.004336175,0.08046252
1.024682,-0.003045587,0.07678149
1.025554,-0.002154766,0.0764219
1.024971,-0.00294123,0.07955367
1.024399,0.000575129,0.07893016
1.023362,0.001712733,0.08224881
1.021601,0.001528645,0.08720107
1.020827,-0.0008473407,0.0839358
1.021455,-0.0009803389,0.08463337
1.021259,0.005080744,0.08703463
1.022571,0.01186178,0.08548983
1.022315,0.01373952,0.08480795
1.019714,0.008049526,0.08439838
1.019931,0.005643543,0.08691742
1.021848,0.008414108,0.08825474
1.024544,0.007815925,0.08547813
1.02364,0.003961827,0.07932626
1.019853,-0.002980694,0.07064155
1.019323,-0.005929584,0.07105796
1.019655,-0.00505927,0.07619282
1.022237,-0.01107515,0.07654926
1.023876,-0.01689691,0.07895217
1.018895,-0.0115522,0.08194486
1.015119,-0.005773777,0.08298867
1.019032,-0.01387941,0.08020504
1.031139,-0.02775108,0.06788342
1.04207,-0.03718691,0.05072224
1.039224,-0.03626914,0.033617
1.030091,-0.02239493,0.02679204
1.026988,-0.01643602,0.03533206
1.026522,-0.02700946,0.04052594
1.023031,-0.03224778,0.0434196
1.01429,-0.01573612,0.05625961
1.007852,0.0009228913,0.06438551
1.022318,-0.01138345,0.06260047
1.038085,-0.02053841,0.06370914
1.024757,-0.005680652,0.07178699
1.011287,0.005130718,0.07590519
1.01653,0.01020644,0.06045775
1.023761,-0.0005618158,0.03978837
1.031562,-0.0306832,0.03749942
1.031217,-0.0438167,0.03698799
1.026155,-0.03819261,0.0288595
1.030568,-0.03770815,0.02898676
1.029655,-0.04209719,0.03118067
1.024881,-0.03258914,0.03890616
1.021108,-0.01330077,0.0587024
1.013287,-0.008051289,0.06593992
1.02072,-0.01015023,0.05764221
1.031556,-0.01156718,0.05444692
1.025363,-0.01334121,0.06387165
1.018918,-0.01103164,0.07193768
1.016202,-0.01134003,0.06605414
1.024095,-0.01302783,0.05962303
1.037139,-0.01375914,0.05640037
1.030048,-0.01284526,0.05670168
1.022382,-0.009605357,0.06305562
1.02485,-0.01176412,0.0638254
1.021405,-0.01382975,0.06630028
1.023267,-0.01554643,0.0710467
1.027147,-0.0197178,0.06573606
1.023903,-0.02139042,0.05874647
1.025002,-0.02434711,0.05459123
1.025654,-0.02302128,0.0531956
1.024188,-0.01761406,0.0547329
1.026669,-0.0161146,0.05549108
1.030149,-0.01462725,0.05777933
1.033735,-0.01506169,0.06124263
1.028296,-0.01525421,0.06361336
1.017575,-0.008591046,0.07020098
1.015947,0.004535232,0.09256898
1.015447,0.01827185,0.1215316
1.014883,0.01818406,0.1233759
1.019151,0.009855113,0.10404
1.021798,0.005741108,0.0936469
1.023137,-0.009123807,0.07846632
1.024329,-0.03252083,0.05201101
1.026228,-0.04031383,0.03643902
1.029166,-0.0372012,0.0280419
1.029254,-0.03827046,0.01993391
1.029698,-0.03513699,0.02234017
1.032013,-0.02431382,0.03522079
1.033809,-0.01904009,0.04559733
1.033988,-0.01747546,0.04982573
1.031326,-0.01076926,0.05934194
1.02708,-0.002321289,0.0739648
1.021244,-0.0005216443,0.07969129
1.020696,-0.004971391,0.07823069
1.024983,-0.005467755,0.08471189
1.022901,-0.006908487,0.0900915
1.021265,-0.01045648,0.08557942
1.02151,-0.009563237,0.0850402
1.020574,-0.01372194,0.08043501
1.023675,-0.01684617,0.073889
1.024134,-0.01494532,0.07705549
1.024607,-0.01733873,0.07530735
1.025738,-0.01740033,0.07230486
1.021077,-0.01232834,0.07304806
1.019369,-0.005289508,0.07510963
1.019564,-0.003799363,0.07927143
1.020321,-0.006547541,0.0760485
1.023558,-0.002333643,0.07435039
1.023885,-0.0003940097,0.0809293
1.024664,-0.002950744,0.08609426
1.024001,-0.003768309,0.08536619
1.018547,-0.005070632,0.08023063
1.014027,-0.006750714,0.08022497
1.017404,-0.01332969,0.08016264
1.027762,-0.02010568,0.07081044
1.032687,-0.01956021,0.06150331
1.03235,-0.01601845,0.05717874
1.0319,-0.01258276,0.05535776
1.03069,-0.01191322,0.053455
1.028494,-0.01078674,0.05370007
1.022339,-0.002698801,0.06103405
1.020704,0.005837813,0.06780637
1.023737,0.003454359,0.06694965
1.023555,-0.003554891,0.06806795
1.02545,-0.00758563,0.07434708
1.025426,-0.01468913,0.07322079
1.02305,-0.01610791,0.06995318
1.023026,-0.01434919,0.07268055
1.022082,-0.02543969,0.06595289
1.025662,-0.03282305,0.04430745
1.034953,-0.03108659,0.01840498
1.040833,-0.03479461,0.01213135
1.036751,-0.03898649,0.02848631
1.030066,-0.03685287,0.03299243
1.030765,-0.03049294,0.03209332
1.029307,-0.02914653,0.03590698
1.026283,-0.03654117,0.03134793
1.030966,-0.04094218,0.0333878
1.037671,-0.03208123,0.03383961
1.042528,-0.02328437,0.03013264
1.036821,-0.0334737,0.03617955
1.02487,-0.04154355,0.03549425
1.024534,-0.03350427,0.03038725
1.027679,-0.03266161,0.02570825
1.034218,-0.04247598,0.02028808
1.048526,-0.05643187,0.01675671
1.049479,-0.06689411,0.01006523
1.036066,-0.05843386,0.01131246
1.024563,-0.0364285,0.01490581
1.019398,-0.009683085,0.01374433
1.016793,0.01358675,0.01232185
1.010636,0.01857809,0.008412136
1.007871,0.01360255,0.02089146
1.011493,0.009697092,0.03734672
1.014789,0.002065637,0.03396655
1.020211,-0.007307977,0.03202135
1.02269,-0.01443442,0.0389448
1.02036,-0.01396884,0.05247596
1.023441,-0.005479917,0.0708091
1.026113,-0.0008959191,0.07766252
1.022158,-0.003272732,0.0818379
1.017639,-0.008197554,0.0991048
1.01482,-0.007956323,0.109519
1.01643,0.004912226,0.1046372
1.023835,0.01890123,0.1017834
1.02966,0.01787946,0.0990531
1.025984,0.01467503,0.1032137
1.018321,0.02438675,0.114456
1.020077,0.02756178,0.110797
1.033924,0.02394495,0.105142
1.050712,0.03032682,0.1008953
1.051727,0.03305929,0.09400533
1.036483,0.02904154,0.1046525
1.030444,0.02250852,0.1146011
1.036496,0.01210128,0.1082336
1.04541,0.005071778,0.1036563
1.050848,-0.001452701,0.1055713
1.035884,-0.007125193,0.1141733
1.008676,-0.006820423,0.124382
0.9966476,-0.00678764,0.1288709
1.003488,-0.02006408,0.1300883
1.009232,-0.04073921,0.1322154
1.007035,-0.04363034,0.1426871
1.008069,-0.03184486,0.1545295
1.008233,-0.02355806,0.1563543
1.010944,-0.02833722,0.1551042
1.017962,-0.05079916,0.1534844
1.013176,-0.07665103,0.153633
1.008172,-0.08590397,0.1553674
1.008626,-0.08167266,0.1512636
1.004904,-0.08481999,0.143564
1.006442,-0.09537488,0.1319336
1.014066,-0.1135731,0.1258506
1.024644,-0.1379602,0.1246919
1.030274,-0.1393596,0.1141972
1.020741,-0.1318964,0.1143641
1.01084,-0.1344267,0.1201275
1.008476,-0.1291382,0.1135091
1.007708,-0.1262201,0.1093844
1.009502,-0.1310334,0.09771286
1.012948,-0.1413438,0.08483747
1.01558,-0.156196,0.08664873
1.01201,-0.162093,0.07919427
1.004244,-0.1709403,0.06736708
1.00102,-0.1797686,0.06531169
0.9960891,-0.1644029,0.06039654
0.990918,-0.1348385,0.06153465
0.9971067,-0.1094813,0.08520086
1.008917,-0.09835792,0.1195584
1.018681,-0.09606959,0.1418445
1.021861,-0.07743798,0.1499614
1.021794,-0.05111322,0.1542985
1.03079,-0.0316399,0.1516997
1.039269,0.001981644,0.1408541
1.038428,0.0360618,0.1357327
1.034167,0.04731125,0.1419304
1.024092,0.05583249,0.1478652
1.015895,0.06280042,0.1453483
1.016991,0.05177785,0.1394364
1.021703,0.03325622,0.1317563
1.027312,0.01521127,0.1199248
1.029226,-0.006068152,0.1082187
1.029735,-0.01527727,0.09560872
1.031081,-0.01304334,0.08621023
1.028493,-0.01734441,0.0806399
1.027164,-0.01763063,0.06979758
1.028902,-0.01348616,0.06654377
1.029492,-0.0136213,0.06544135
1.029755,-0.01191336,0.05971676
1.031609,-0.0103475,0.06437016
1.034317,-0.009495458,0.06271869
1.033498,-0.009796317,0.06525968
1.031642,-0.01188143,0.0772231
1.032193,-0.01280654,0.0686413
1.031103,-0.01280747,0.06514145
1.028075,-0.01207631,0.07055257
1.024342,-0.01230908,0.06699759
1.02222,-0.01051828,0.06989297
1.022547,-0.007216473,0.0697468
1.021853,-0.007424692,0.06516658
1.022546,-0.009326588,0.06220225
1.024439,-0.01222117,0.05811496
1.025026,-0.01411123,0.05985947
1.025155,-0.01130294,0.06161292
1.02285,-0.006554243,0.06303382
1.021733,-0.006131634,0.06652539
1.023569,-0.008112129,0.06733966
1.02485,-0.008005378,0.06735663
1.026337,-0.008733154,0.06642537
1.026384,-0.008264949,0.0632049
1.025024,-0.0068602,0.06108644
1.02309,-0.007488898,0.06793559
1.021369,-0.007059085,0.07622482
1.022744,-0.00724443,0.07489112
1.024276,-0.006732129,0.07203706
1.02519,-0.005562612,0.06664153
1.025464,-0.006511567,0.06086285
1.024665,-0.008224469,0.06456698
1.026251,-0.01336993,0.06608622
1.027732,-0.01541043,0.06362046
1.027454,-0.0122017,0.06386667
1.025837,-0.0105777,0.05925682
1.022431,-0.007460816,0.05658627
1.021908,-0.007828045,0.0597045
1.024667,-0.01157536,0.05956813
1.02698,-0.01182162,0.05918948
1.026302,-0.01258897,0.05673991
1.022516,-0.01093968,0.05478572
1.021613,-0.008734251,0.06072951
1.024478,-0.0111599,0.06445621
1.026142,-0.01243684,0.06361203
1.027432,-0.01202956,0.06362292
1.028911,-0.009976603,0.06427618
1.027246,-0.007450073,0.06457239
1.023481,-0.009083191,0.06168271
1.021907,-0.01111169,0.06151514
1.023696,-0.01212489,0.06566889
1.025958,-0.01433225,0.06557595
1.025188,-0.01328405,0.06600943
1.024286,-0.009444528,0.07206856
1.025175,-0.008646396,0.07640335
1.023173,-0.009232767,0.0744833
1.021315,-0.01002483,0.07004416
1.022485,-0.01199348,0.06834737
1.022673,-0.01249213,0.06612737
1.023841,-0.01180489,0.06306026
1.026212,-0.01023112,0.06447473
1.027801,-0.008100155,0.06658531
1.029463,-0.007765271,0.07029556
1.028392,-0.01163338,0.07337035
1.025186,-0.01677404,0.06828075
1.024465,-0.01240032,0.06554019
1.025416,-0.007173033,0.06966718
1.026244,-0.01252524,0.07216856
1.02836,-0.01466539,0.07213778
1.029925,-0.01300413,0.07360663
1.028548,-0.01337456,0.075305
1.026226,-0.01072211,0.07047755
1.024426,-0.008508385,0.06583717
1.024597,-0.006414333,0.06738571
1.025576,-0.004883075,0.06755468
1.024957,-0.008575952,0.0686949
1.02554,-0.01352871,0.07235759
1.025934,-0.01614563,0.07316313
1.023318,-0.01388882,0.07419514
1.021121,-0.01081986,0.07597772
1.019901,-0.01197205,0.07514648
1.01997,-0.01149499,0.07632536
1.0224,-0.01121653,0.07842502
1.023788,-0.01305485,0.0749313
1.02442,-0.01067388,0.07233759
1.025484,-0.008686178,0.07332051
1.024971,-0.01005438,0.07118977
1.024759,-0.009481931,0.06982454
1.02526,-0.007714556,0.07629493
1.024868,-0.006906633,0.08274362
1.024982,-0.00846132,0.07675001
1.024933,-0.0106845,0.06850278
1.02398,-0.009745811,0.06994414
1.023242,-0.00903217,0.07329972
1.022595,-0.009278675,0.07522709
1.022118,-0.007921199,0.07313192
1.022079,-0.008086655,0.06886094
1.022687,-0.009151532,0.0710487
1.024054,-0.009814261,0.07173348
1.025048,-0.01168219,0.06978568
1.02355,-0.01168635,0.07106365
1.021233,-0.011348,0.0690572
1.022141,-0.01243074,0.06708968
1.023379,-0.008904132,0.06783254
1.024358,-0.004435667,0.06541427
1.027371,-0.006013733,0.06351001
1.026729,-0.009705721,0.06683948
1.024507,-0.0113314,0.0721367
1.025351,-0.008685569,0.07329982
1.025061,-0.004573525,0.07241351
1.025687,-0.005559447,0.07275543
1.026705,-0.008088978,0.07035427
1.024344,-0.008002962,0.06843215
1.02355,-0.006843873,0.06987498
1.026269,-0.005027142,0.07056336
1.028446,-0.006252551,0.07118168
1.026266,-0.009057975,0.07338074
1.024027,-0.00909762,0.07667674
1.027105,-0.009720998,0.07826427
1.028734,-0.008851273,0.07511915
1.026688,-0.005729733,0.0724428
1.024003,-0.005080375,0.07478006
1.020367,-0.004805056,0.07673899
1.020221,-0.004688755,0.07604251
1.022849,-0.004914465,0.07558331
1.023698,-0.003797801,0.07477694
1.023634,-0.003266907,0.07437011
1.022063,-0.003390697,0.0736116
1.021787,-0.003772251,0.07198945
1.024713,-0.004194422,0.07465227
1.025445,-0.004279721,0.07729811
1.0248,-0.004910893,0.07358649
1.025135,-0.007209351,0.07084605
1.024859,-0.009544711,0.07278406
1.024549,-0.008416023,0.07445678
1.022899,-0.008543454,0.07420827
1.022173,-0.01075144,0.07088167
1.023916,-0.009121285,0.06642828
1.022477,-0.00757791,0.06782234
1.021453,-0.006961532,0.07169386
1.024715,-0.006289809,0.07327325
1.025816,-0.007522213,0.07593081
1.025536,-0.007385795,0.07486786
1.026617,-0.009270241,0.06974451
1.025601,-0.01262761,0.06645053
1.024607,-0.01157728,0.0645271
1.026035,-0.01046463,0.06792814
1.026586,-0.00976729,0.07119498
1.024758,-0.009097679,0.06931291
1.021011,-0.01038294,0.07196061
1.019057,-0.01129785,0.07403625
1.022828,-0.01464687,0.06879666
1.026702,-0.01770868,0.06410675
1.025098,-0.0136211,0.06466184
1.024063,-0.009346239,0.06627566
1.025742,-0.01018863,0.06390643
1.024884,-0.01091175,0.06059373
1.024602,-0.01017451,0.05919755
1.025375,-0.01017758,0.06522991
1.023725,-0.009895102,0.07462585
1.023397,-0.009321636,0.07137742
1.023908,-0.01006596,0.0683798
1.02436,-0.01059116,0.07171368
1.025473,-0.01055164,0.06429664
1.024932,-0.01120674,0.05650861
1.024848,-0.01055572,0.0564488
1.025197,-0.007774561,0.05680965
1.025021,-0.005916964,0.05675296
1.025987,-0.006850565,0.05302894
1.026274,-0.006615297,0.0514325
1.024685,-0.00540571,0.05840622
1.023458,-0.009237417,0.06687455
1.026095,-0.01244169,0.06683887
1.028954,-0.01010539,0.05741695
1.026479,-0.008797121,0.05214508
1.023729,-0.009251208,0.05586189
1.023502,-0.009489709,0.05940121
1.023961,-0.01141721,0.05702395
1.026464,-0.01345154,0.0504332
1.028436,-0.01252253,0.04611098
1.026498,-0.01263235,0.04952905
1.023001,-0.01662477,0.05993404
1.021154,-0.01788686,0.06497006
1.020413,-0.01293171,0.06213844
1.019907,-0.007645377,0.06238501
1.022628,-0.008946081,0.06460044
1.026478,-0.01006778,0.06528958
1.025359,-0.005239287,0.06150434
1.02397,-0.0050295,0.05351244
1.025668,-0.007625017,0.0505449
1.025018,-0.008711172,0.05550702
1.024336,-0.01249592,0.06075435
1.024834,-0.01290617,0.05923615
1.023931,-0.01099517,0.0614327
1.025121,-0.01023934,0.06707204
1.026147,-0.008937754,0.06081976
1.027008,-0.008711906,0.05561964
1.029762,-0.006383628,0.05978734
1.026913,-0.004600031,0.06240614
1.023739,-0.005881453,0.06465169
1.028039,-0.005810303,0.06643022
1.030511,-0.006284549,0.06590611
1.028133,-0.007322143,0.06438012
1.025299,-0.007009255,0.06231772
1.022861,-0.006763936,0.06548206
1.02307,-0.007179946,0.07013316
1.024341,-0.007937675,0.067086
1.023023,-0.008267744,0.06257191
1.021537,-0.007651205,0.0607503
1.020939,-0.006475294,0.06034363
1.021549,-0.006825673,0.06301764
1.024715,-0.007347402,0.06404538
1.025684,-0.006605932,0.06550676
1.024243,-0.007221776,0.06886023
1.023371,-0.007791297,0.06742285
1.021662,-0.00728805,0.06512501
1.021922,-0.005932322,0.06350545
1.022802,-0.003961136,0.06292833
1.021646,-0.004253933,0.06394818
1.02158,-0.005221523,0.06218589
1.021627,-0.005622037,0.06550693
1.02213,-0.0060373,0.07473349
1.022745,-0.006129896,0.07809757
1.02182,-0.007481378,0.07057292
1.022259,-0.007934255,0.06133196
1.022478,-0.006859439,0.06576049
1.021889,-0.005338121,0.07223455
1.022801,-0.003611685,0.07151162
1.024156,-0.00586055,0.07293821
1.02631,-0.007769037,0.07021822
1.026715,-0.004783086,0.06821784
1.023951,-0.003250306,0.07214975
1.022238,-0.003415576,0.07412383
1.022491,-0.002652841,0.07755991
1.024917,-0.00274981,0.07674905
1.027058,-0.003822074,0.07297595
1.024512,-0.004480383,0.07343843
1.021652,-0.004122182,0.07217951
1.022107,-0.004077785,0.07339255
1.022841,-0.004090033,0.07533177
1.023843,-0.003202456,0.07511876
1.025739,-0.002543863,0.07591068
1.026552,-0.003013705,0.07379717
1.027922,-0.004764568,0.07356699
1.029556,-0.006383479,0.07424731
1.026577,-0.007473182,0.07468493
1.023577,-0.007908033,0.0780778
1.024851,-0.005046792,0.0776482
1.023676,-0.001395179,0.07728514
1.021184,-0.00237435,0.07605137
1.022407,-0.003791947,0.07095865
1.023584,-0.001991476,0.07058402
1.02296,-0.001434372,0.07190159
1.021125,0.0001253446,0.07393278
1.019645,0.001722026,0.07695928
1.024361,-0.003358421,0.07691397
1.029867,-0.006784014,0.07290606
1.025493,-0.002818489,0.06628473
1.019498,-0.0001403798,0.06751356
1.01922,-0.002338222,0.07155548
1.019939,-0.003755304,0.07002628
1.023157,-0.002438409,0.0703456
1.0263,-0.003584345,0.07003529
1.024825,-0.004708267,0.07228447
1.023629,-0.002900219,0.07667955
1.023303,-0.002929725,0.07305702
1.02169,-0.004568343,0.07085332
1.020731,-0.006118024,0.07232644
1.022577,-0.006047409,0.06952289
1.025436,-0.005832222,0.06703636
1.025306,-0.007616046,0.06788846
1.024958,-0.007406711,0.06810751
1.027018,-0.008227404,0.06503987
1.027578,-0.01074643,0.06350059
1.024323,-0.008998215,0.06662678
1.020844,-0.005501687,0.06930114
1.022081,-0.002610847,0.06913574
1.024247,-0.002619994,0.06904471
1.024328,-0.007018797,0.06853731
1.026268,-0.008664227,0.06217833
1.027003,-0.004609144,0.05583168
1.025522,-0.0004364766,0.05849314
1.024831,-0.002078441,0.06235097
1.023291,-0.008510795,0.06179974
1.024063,-0.01258228,0.05917856
1.02543,-0.01154559,0.05685535
1.022015,-0.008696193,0.06166867
1.02033,-0.007020549,0.06696732
1.024133,-0.005145101,0.05999164
1.028801,-0.004701846,0.05366051
1.029944,-0.006514375,0.05704628
1.02719,-0.005286716,0.05795036
1.023807,-0.005073126,0.05787453
1.02167,-0.005836106,0.06092036
1.023561,-0.002227842,0.0634457
1.026011,-0.001283663,0.06769203
1.022998,-0.004763847,0.06727959
1.02131,-0.01000276,0.06168607
1.023558,-0.01240382,0.06041775
1.023945,-0.008173883,0.05783261
1.023483,-0.004893025,0.05395362
1.023778,-0.003846609,0.05554559
1.024517,-0.00484022,0.05625143
1.025494,-0.007615621,0.05500129
1.026105,-0.007929267,0.0556868
1.027222,-0.009409807,0.05573395
1.027367,-0.01033781,0.05494944
1.026004,-0.009308856,0.05337786
1.026137,-0.009712207,0.0495625
1.027136,-0.008656371,0.04710952
1.027989,-0.007059619,0.04722287
1.02946,-0.006717104,0.04653615
1.028341,-0.007252078,0.04704916
1.025113,-0.009125541,0.04918666
1.024622,-0.01097082,0.04994859
1.025138,-0.01165109,0.04974447
1.024946,-0.01071079,0.04672758
1.02509,-0.009517612,0.04578
1.024895,-0.006928382,0.05359182
1.025223,-0.003464357,0.05994668
1.026663,-0.004038586,0.05979595
1.030102,-0.005588135,0.06049326
1.032751,-0.005115655,0.06024364
1.029219,-0.003968711,0.05680786
1.025332,-0.002479071,0.05589208
1.026688,-0.004282466,0.05862864
1.028622,-0.006705267,0.06344635
1.029353,-0.005195974,0.06663887
1.02859,-0.004262436,0.06083877
1.024395,-0.004351805,0.05387121
1.021411,-0.004365367,0.05447835
1.024589,-0.007024038,0.05739326
1.028164,-0.008514508,0.06283656
1.027225,-0.004851477,0.06557501
1.027087,-0.001639543,0.06276658
1.027174,-0.004345437,0.06211459
1.023031,-0.006655953,0.06141703
1.021108,-0.003360497,0.06320395
1.022817,-0.001809558,0.0668273
1.023144,-0.003935361,0.06517944
1.023736,-0.006327107,0.06466306
1.023671,-0.008922792,0.06621008
1.022403,-0.006778441,0.06684153
1.02215,-0.002266633,0.06852011
1.022432,-0.00250897,0.06846108
1.024139,-0.003107394,0.0675021
1.025571,-0.002519243,0.06827934
1.025053,-0.00294192,0.06892294
1.024776,-0.002722085,0.07130645
1.024725,-0.002730307,0.07477381
1.023303,-0.002892275,0.0730996
1.021537,-0.002652036,0.07096856
1.022074,-0.003398093,0.07276179
1.022691,-0.005440787,0.07239849
1.02224,-0.007537313,0.07119206
1.024064,-0.006454266,0.06997518
1.025705,-0.004578351,0.06830827
1.024635,-0.005803153,0.07390978
1.022957,-0.005886913,0.08017446
1.022374,-0.004530243,0.07531907
1.024712,-0.003197506,0.06853016
1.027321,-0.0007122881,0.06844038
1.025717,-0.00177369,0.07228752
1.024002,-0.003941404,0.07661889
1.025901,-0.002193211,0.07566435
1.027912,-0.001620161,0.07355372
1.028805,-0.00163769,0.07587776
1.026278,-0.0008655211,0.07511172
1.021974,-0.001917371,0.07368316
1.024238,-0.002295922,0.07318381
1.026497,-0.002937323,0.06953257
1.023747,-0.00377884,0.07009911
1.023265,-0.002387216,0.07031481
1.022174,-0.001799498,0.06750556
1.021565,-0.001384426,0.07017342
1.023779,0.001274794,0.07197709
1.022328,0.00378277,0.07132842
1.020007,0.00293101,0.07007046
1.020203,0.0006954544,0.06611094
1.024404,-0.0001548849,0.06722226
1.029641,-0.001958864,0.07106648
1.025818,-0.00189758,0.07093261
1.020905,-0.000513696,0.07085482
1.023173,-0.00195556,0.07139424
1.024287,-0.001566235,0.07298884
1.023574,-0.001841963,0.07462477
1.02424,-0.003624394,0.07325733
1.024659,-0.002468566,0.07240263
1.023829,-0.003032198,0.06988587
1.022504,-0.004858371,0.06543371
1.022177,-0.005786479,0.06678872
1.022975,-0.005467049,0.06931896
1.024111,-0.002353683,0.06922
1.023847,-0.0007532801,0.06995599
1.02412,-0.00180263,0.06868073
1.025652,-0.004303915,0.06651457
1.024942,-0.006053426,0.06552305
1.024882,-0.003638947,0.06716646
1.026247,-0.0009928086,0.07106124
1.026428,-0.001116546,0.06962142
1.025667,-0.001687172,0.06867876
1.021787,-0.001315344,0.07227323
1.018043,-0.001247173,0.07306878
1.019983,-0.002146826,0.07648026
1.024745,-0.003907582,0.08263182
1.027186,-0.006038628,0.08373937
1.025649,-0.004202288,0.07942275
1.023086,-0.001428196,0.07389199
1.022492,-0.003210019,0.07310311
1.022304,-0.004135879,0.07373621
1.021875,-0.003677561,0.07274584
1.02245,-0.003713096,0.07054179
1.022292,-0.002291179,0.06681466
1.021936,-0.002564841,0.06600537
1.02288,-0.003458964,0.06446173
1.023865,-0.003284128,0.06322063
1.025475,-0.004532782,0.06733857
1.02544,-0.004257787,0.06882307
1.024147,-0.002617355,0.067542
1.024663,-0.001937409,0.06628162
1.02429,-0.001141318,0.06510215
1.024818,-0.00221159,0.06801367
1.02571,-0.0034026,0.06960611
1.024796,-0.002551637,0.06505299
1.026879,-0.003064728,0.06174842
1.028276,-0.005632784,0.06753624
1.025754,-0.01041142,0.07332691
1.0242,-0.01416406,0.0688219
1.023998,-0.01188916,0.06631546
1.023708,-0.008056588,0.06956111
1.023318,-0.006150695,0.07066913
1.02352,-0.004465082,0.071734
1.022916,-0.003228474,0.06835932
1.022168,-0.00265872,0.06159499
1.025017,-0.004637639,0.06020179
1.027226,-0.007452867,0.05741137
1.025177,-0.00650487,0.05359208
1.022535,-0.004028382,0.05633493
1.021962,-0.00219422,0.0582409
1.023384,-0.002627323,0.05879311
1.025208,-0.005294669,0.06080863
1.027093,-0.006324026,0.05849794
1.028262,-0.008236832,0.05484748
1.027497,-0.01008021,0.05266798
1.025762,-0.00694486,0.0548748
1.02454,-0.003488336,0.06168424
1.024874,-0.003755253,0.06067743
1.024918,-0.004361659,0.053933
1.023079,-0.002180038,0.05016569
1.021998,-0.0008254826,0.05066206
1.024076,-0.002449907,0.05460024
1.026964,-0.003153814,0.05324362
1.027562,-0.002769603,0.0482853
1.027531,-0.002630276,0.04605406
1.026989,-0.002837543,0.049847
1.025014,-0.002881375,0.05733064
1.024626,-0.002584024,0.05498568
1.025252,-0.003115296,0.05489875
1.024923,-0.003813291,0.0623982
1.024432,-0.005412756,0.06130117
1.022394,-0.007005817,0.06135935
1.020481,-0.006944781,0.06039891
1.023235,-0.006683302,0.05467669
1.026075,-0.005104826,0.05833221
1.023211,-0.003728077,0.06149382
1.021314,-0.005009849,0.06042342
1.024422,-0.006079055,0.06084476
1.026334,-0.005545092,0.05911027
1.027439,-0.005284556,0.05988291
1.029,-0.005787298,0.06245089
1.024793,-0.005524404,0.06431053
1.018407,-0.005226421,0.06626268
1.018998,-0.005054843,0.06514934
1.023109,-0.004454875,0.06482407
1.026794,-0.005032948,0.0658186
1.030058,-0.005019197,0.06550938
1.027059,-0.004715758,0.06830502
1.022921,-0.006025166,0.07191505
1.025463,-0.00625853,0.07102997
1.023705,0.05747875,0.08117873
1.02349,0.05090842,0.07805659
1.022839,0.04577741,0.07166318
1.02163,0.0413131,0.07066154
1.022434,0.03730194,0.07440035
1.021954,0.0391543,0.06790898
1.019303,0.04719105,0.0634335
1.014697,0.04790636,0.06274551
1.01126,0.04301937,0.05892953
1.015854,0.03785399,0.06545892
1.022656,0.04440295,0.07853096
1.026473,0.06065242,0.08439901
1.028153,0.06275121,0.08600305
1.023815,0.06033826,0.08725844
1.017232,0.05936215,0.08593112
1.01463,0.05545075,0.08073852
1.01371,0.0535624,0.07672067
1.014392,0.04845776,0.07439978
1.016058,0.0493941,0.0715792
1.015204,0.05314087,0.07540804
1.015772,0.05050486,0.07999984
1.020204,0.05056226,0.07838696
1.023341,0.05007532,0.08271033
1.022366,0.05124725,0.08922652
1.019618,0.05594151,0.08672398
1.019151,0.05856611,0.08242987
1.019611,0.05912042,0.08040384
1.019428,0.05762782,0.07758144
1.020547,0.05846352,0.07698668
1.021188,0.05837746,0.07850273
1.021738,0.05574878,0.07811323
1.021821,0.05462608,0.08051799
1.018582,0.05418861,0.08506055
1.015761,0.05793017,0.08463393
1.017296,0.06114589,0.0817755
1.020042,0.059951,0.07906327
1.019493,0.06113152,0.07666362
1.018862,0.0632872,0.07514188
1.01905,0.06292756,0.07751854
1.017442,0.06282359,0.08439264
1.017989,0.06515752,0.08692855
1.01815,0.06773245,0.08844538
1.015963,0.06954642,0.09322331
1.015922,0.06858187,0.09139155
1.016683,0.06517385,0.08597859
1.017028,0.06644239,0.08407474
1.017047,0.06676626,0.08385002
1.019128,0.06397098,0.08352816
1.022064,0.06566608,0.08134959
1.02029,0.06564116,0.08183902
1.017598,0.06513426,0.08680886
1.016352,0.06855927,0.09269738
1.015956,0.06996119,0.09666559
1.016356,0.06972864,0.09006977
1.014853,0.0687401,0.0815979
1.015077,0.06760759,0.08483626
1.016812,0.06653436,0.08589476
1.016868,0.06597358,0.08249121
1.018604,0.0668113,0.08367252
1.020036,0.06366635,0.08354419
1.019414,0.06003277,0.08370126
1.019324,0.05970993,0.08511409
1.019463,0.05978387,0.08546384
1.018993,0.06273364,0.08814797
1.016689,0.06517407,0.08806237
1.014445,0.06502745,0.08565137
1.015597,0.06472658,0.08610017
1.018448,0.06374152,0.08526171
1.019867,0.06552159,0.0845652
1.018566,0.06784522,0.0867078
1.016356,0.0673998,0.08768528
1.015337,0.06802991,0.08532262
1.014333,0.0684815,0.08116453
1.013605,0.06789029,0.0796507
1.01484,0.06883042,0.08168415
1.016302,0.06880636,0.08518238
1.017813,0.06642626,0.0886659
1.020003,0.0644194,0.08811982
1.018476,0.06355478,0.0857566
1.014373,0.06407007,0.0838685
1.013857,0.06596698,0.0780344
1.016573,0.06691322,0.07453851
1.01867,0.06589987,0.07795234
1.016582,0.06495045,0.08173248
1.014672,0.06612053,0.08388304
1.019117,0.06709439,0.08060305
1.022215,0.06560573,0.07458325
1.019572,0.06449129,0.07421555
1.017818,0.0636344,0.07353709
1.018069,0.06198297,0.07160566
1.017726,0.06258926,0.07423278
1.016223,0.06472449,0.07943574
1.015123,0.06597454,0.08339141
1.017213,0.06809538,0.0811453
1.020757,0.07285677,0.07733849
1.021627,0.07572434,0.07785519
1.021402,0.07077423,0.077778
1.022155,0.06552268,0.07761004
1.020316,0.06712089,0.07807122
1.016578,0.06637173,0.07715143
1.015218,0.06318523,0.07646577
1.015211,0.0653152,0.07630625
1.015783,0.06761288,0.077923
1.018036,0.06785749,0.07861156
1.020386,0.06672324,0.07631271
1.020668,0.06420533,0.07469854
1.020503,0.0652395,0.07296334
1.02122,0.06575267,0.07293493
1.020589,0.06372996,0.07401643
1.019689,0.06428575,0.07295659
1.019694,0.06581832,0.07484065
1.020016,0.06836028,0.07576162
1.021127,0.07057651,0.07436433
1.019954,0.07043594,0.0769631
1.017605,0.06907211,0.07926885
1.01718,0.06549398,0.08111916
1.01657,0.06437935,0.08018406
1.017566,0.06586912,0.07414059
1.019587,0.06510539,0.07173387
1.01953,0.06516818,0.07434511
1.01944,0.06586669,0.0784041
1.019251,0.06647427,0.07894515
1.018504,0.06715225,0.07751265
1.017896,0.06542951,0.07789843
1.017823,0.06447496,0.07685447
1.018163,0.06382906,0.07825257
1.017061,0.06142595,0.07831822
1.016459,0.06140682,0.0766157
1.017674,0.06398589,0.07879942
1.018343,0.06673338,0.07780369
1.018496,0.06620451,0.07876272
1.019642,0.0625175,0.08057752
1.021466,0.06234678,0.07851892
1.02113,0.06498722,0.08185509
1.020239,0.06740332,0.08311213
1.021018,0.06858908,0.08065103
1.019608,0.065133,0.08052061
1.017096,0.0599798,0.07868007
1.016526,0.05846351,0.07873381
1.017708,0.06411934,0.07889206
1.020439,0.07091469,0.07437031
1.021205,0.06831506,0.07191062
1.019421,0.0667506,0.07777682
1.017365,0.07117609,0.08573892
1.016026,0.07106993,0.08536449
1.016157,0.0703326,0.08186284
1.014278,0.07035005,0.08186805
1.011938,0.06840608,0.0818434
1.015337,0.06779751,0.08196447
1.019925,0.06634224,0.08211545
1.019898,0.06610928,0.0823957
1.019016,0.0680911,0.08606476
1.019264,0.06987785,0.09035754
1.017515,0.07323255,0.0903992
1.015088,0.07264492,0.08593517
1.014937,0.06922272,0.08167131
1.015498,0.06989705,0.08139891
1.015828,0.0711606,0.08224231
1.017826,0.07257433,0.08234554
1.020368,0.07285254,0.08410887
1.019581,0.07140413,0.08802097
1.017844,0.07206523,0.09051902
1.018203,0.06974076,0.09151675
1.017636,0.06687294,0.09445618
1.016139,0.06916584,0.09452091
1.014991,0.07006766,0.08891199
1.015187,0.06917881,0.08461703
1.01757,0.06960227,0.08470114
1.018297,0.07058817,0.08606604
1.01711,0.07201163,0.08578993
1.016399,0.07197335,0.08672166
1.01645,0.0693594,0.08976347
1.016846,0.06639034,0.09073509
1.015607,0.06793451,0.09132689
1.015062,0.07372488,0.08964513
1.016901,0.07801177,0.08592944
1.019531,0.07838925,0.08747767
1.021621,0.07586785,0.08872075
1.019711,0.07334279,0.08844375
1.016598,0.0715337,0.09137879
1.015789,0.07082537,0.09149961
1.015759,0.07105906,0.09112751
1.017162,0.06958965,0.09239684
1.018085,0.0689365,0.09057018
1.018716,0.06938206,0.08870998
1.019577,0.07021326,0.0882751
1.016686,0.0730767,0.08833844
1.014129,0.07295404,0.08652071
1.015357,0.0723828,0.0844387
1.01567,0.07548091,0.08861716
1.014968,0.07629564,0.09461048
1.015323,0.07601865,0.09876689
1.01559,0.07590318,0.09530096
1.016018,0.07442158,0.08605464
1.01718,0.07493695,0.08834059
1.017714,0.07538524,0.08944566
1.018014,0.07446585,0.08479716
1.018362,0.07425437,0.08900638
1.01785,0.07340159,0.08814578
1.017655,0.07332713,0.08793795
1.016487,0.07399513,0.09345989
1.014859,0.07376849,0.09051672
1.017144,0.07535318,0.08806231
1.019949,0.07659303,0.08385524
1.01958,0.07371811,0.07977167
1.018687,0.07110257,0.08435075
1.016879,0.07211164,0.08697357
1.014106,0.07283493,0.09046436
1.01311,0.07180466,0.09325581
1.01299,0.07220914,0.09101103
1.013749,0.07253473,0.09159333
1.016449,0.07187179,0.09235177
1.017466,0.07240792,0.09334977
1.017756,0.07226386,0.09603424
1.018294,0.07255202,0.0962634
1.014777,0.07550314,0.09501094
1.011967,0.07918292,0.09313095
1.012153,0.0818526,0.09051247
1.011008,0.08163675,0.08848261
1.011293,0.07920978,0.08699702
1.013824,0.07702537,0.08554008
1.01612,0.0773069,0.08611075
1.017968,0.07802541,0.08731485
1.020007,0.07472945,0.08757568
1.01961,0.0727681,0.09103277
1.015497,0.07488837,0.09432357
1.013191,0.07629873,0.09198104
1.012881,0.07667257,0.08828419
1.014215,0.07574704,0.08657243
1.017232,0.07361733,0.08667329
1.020006,0.07160801,0.08925219
1.023525,0.07186928,0.09019659
1.021066,0.07351477,0.08854852
1.015638,0.07177824,0.08998956
1.015178,0.07017225,0.08955463
1.014761,0.07073987,0.08576878
1.015741,0.07035796,0.0842825
1.016869,0.07080902,0.08220011
1.017975,0.07167454,0.08245541
1.020791,0.07102156,0.08577938
1.019173,0.0704673,0.08879384
1.018907,0.07192502,0.09205722
1.020066,0.07276903,0.09251011
1.017924,0.07185848,0.09067313
1.018029,0.07234084,0.08615348
1.017544,0.07232094,0.08475099
1.015217,0.07198015,0.0884026
1.013383,0.0728558,0.08740483
1.013402,0.07380811,0.08725094
1.016165,0.07559905,0.08556716
1.01791,0.07495753,0.08073784
1.020241,0.07259688,0.08348525
1.021082,0.0720947,0.08478564
1.020019,0.07212499,0.08339902
1.021354,0.07350841,0.0836599
1.019864,0.07485576,0.08067377
1.018662,0.07454789,0.08144874
1.020414,0.07234851,0.0850903
1.020911,0.06886422,0.08412819
1.022252,0.06929742,0.08192994
1.019446,0.07205166,0.08007589
1.013611,0.07331647,0.07895591
1.012573,0.07409699,0.07690814
1.013312,0.0736845,0.07186407
1.014143,0.07426542,0.07173774
1.014317,0.07560987,0.07351368
1.014919,0.07452746,0.07019691
1.018486,0.07302909,0.07081912
1.020348,0.07191783,0.07278632
1.018694,0.07184871,0.07341287
1.01555,0.07268422,0.07629275
1.012818,0.07187804,0.07484849
1.012628,0.07099164,0.0739983
1.01321,0.06997218,0.07406997
1.014306,0.06881552,0.07104908
1.017787,0.06998246,0.07221435
1.020332,0.07142647,0.07282653
1.021019,0.0724422,0.07195595
1.022413,0.07250707,0.07436966
1.020838,0.07065444,0.0758316
1.018025,0.06961617,0.07687993
1.01877,0.06841511,0.07809766
1.018209,0.06749378,0.07802554
1.017412,0.06906319,0.07719507
1.018592,0.07180064,0.07592596
1.017549,0.07542445,0.07543692
1.016077,0.07592599,0.0781093
1.01578,0.07373445,0.08106181
1.01836,0.07332222,0.07555341
1.022097,0.07071735,0.07013538
1.019326,0.06767583,0.07602628
1.016436,0.06645836,0.07943527
1.018833,0.06437565,0.07446917
1.019217,0.06516532,0.07163902
1.019312,0.0659613,0.0705235
1.021084,0.06480411,0.06817552
1.021636,0.06715786,0.07014894
1.022587,0.07065186,0.07679747
1.022056,0.07304113,0.08019174
1.019624,0.07283164,0.07785318
1.017479,0.07126277,0.07579298
1.015811,0.07303847,0.07986868
1.01671,0.07422811,0.08428704
1.017516,0.07458079,0.08266347
1.018095,0.07401035,0.08173771
1.021147,0.07134396,0.08217515
1.020857,0.07407821,0.08229803
1.016485,0.07729061,0.0850392
1.010808,0.07621368,0.08983623
1.006889,0.07736769,0.09653485
1.011547,0.07833402,0.09736549
1.018048,0.07889793,0.09605474
1.01856,0.08147552,0.1011107
1.016966,0.08354921,0.1027915
1.012575,0.08464121,0.104385
1.008396,0.08471936,0.1047624
1.011621,0.08374905,0.09775449
1.016922,0.07936933,0.09188756
1.018072,0.07476798,0.08596185
1.018245,0.0770414,0.08660939
1.019139,0.08004388,0.09140871
1.019486,0.07892969,0.0890353
1.019463,0.07913618,0.08886009
1.018445,0.08045099,0.08759137
1.017315,0.08052717,0.08801904
1.016219,0.08072519,0.09513312
1.013497,0.08104274,0.09558569
1.011551,0.08308222,0.09155856
1.011494,0.08542921,0.08742
1.013487,0.08308035,0.08770995
1.016588,0.08078396,0.08968632
1.016433,0.08218611,0.08513035
1.016132,0.08101973,0.08588281
1.017525,0.07531169,0.08807192
1.016929,0.07047882,0.08665174
1.016334,0.07153144,0.08886465
1.015285,0.073879,0.08984766
1.01483,0.0737727,0.09129087
1.018256,0.07701773,0.0882384
1.021237,0.07928541,0.0821583
1.022433,0.07696336,0.08620969
1.0204,0.07772686,0.08930382
1.015418,0.07798717,0.08869456
1.014832,0.0757104,0.0916564
1.016442,0.07645617,0.0936984
1.016278,0.07735635,0.09453865
1.014262,0.0772122,0.09195551
1.011646,0.07626287,0.08884323
1.014508,0.07355929,0.09101297
1.018365,0.07216019,0.09342541
1.017804,0.07535674,0.09476409
1.015774,0.07963101,0.09410718
1.011976,0.07769984,0.08920362
1.01005,0.07559267,0.08557415
1.011358,0.07625074,0.08753523
1.011692,0.07458889,0.09365662
1.01283,0.07663249,0.09701984
1.015934,0.07902328,0.09199471
1.018521,0.07727233,0.08416856
1.019843,0.0773936,0.08202303
1.019813,0.0762255,0.08585053
1.018685,0.07438499,0.08971328
1.017504,0.07587023,0.09237834
1.015174,0.0771353,0.09507389
1.013001,0.07723718,0.09459734
1.015124,0.07759261,0.09353819
1.020154,0.07726092,0.09231362
1.023419,0.07584362,0.08639798
1.019934,0.07623591,0.08339024
1.013247,0.07688635,0.08674915
1.012084,0.07667507,0.08848728
1.014362,0.08010088,0.08682726
1.016924,0.08229334,0.08424004
1.017321,0.0776035,0.08201639
1.016257,0.07309074,0.081624
1.018857,0.0747214,0.08402443
1.019906,0.0765484,0.08497998
1.018312,0.0759522,0.08176732
1.017731,0.07797659,0.07950884
1.016881,0.07680775,0.0794991
1.016945,0.07330842,0.07935145
1.01732,0.0757943,0.07889839
1.017983,0.07728534,0.07914335
1.016673,0.07752515,0.08035121
1.014633,0.07789388,0.08331587
1.018158,0.07355991,0.08759575
1.020675,0.07156073,0.08607349
1.019227,0.07399985,0.0811848
1.018837,0.07525493,0.07993684
1.017662,0.072564,0.07837254
1.015274,0.06984189,0.07745639
1.014625,0.07368939,0.07767939
1.015878,0.07645428,0.07688249
1.017104,0.07458819,0.07730029
1.021053,0.07443761,0.0780927
1.024764,0.07349553,0.08002777
1.019783,0.07226882,0.08194849
1.014037,0.07574118,0.08159634
1.014184,0.08004574,0.07939277
1.014218,0.07860082,0.07665785
1.014425,0.07519312,0.07817901
1.016319,0.07367813,0.08116357
1.018424,0.07062334,0.08215032
1.02186,0.06996899,0.08125241
1.024255,0.07219358,0.07517664
1.023439,0.07319351,0.07015872
1.02327,0.07600777,0.0709848
1.023062,0.0775157,0.0715002
1.021628,0.07660002,0.07016489
1.021724,0.07492464,0.07019232
1.019825,0.07121691,0.07178971
1.017089,0.07344,0.07438926
1.018838,0.07806013,0.07836671
1.019937,0.07667663,0.08132372
1.017197,0.07701521,0.08462062
1.01504,0.07724954,0.08806633
1.014925,0.07496261,0.08699511
1.014339,0.0762232,0.08620464
1.012872,0.07803508,0.08682925
1.013178,0.07837206,0.08493076
1.016233,0.07748989,0.08112494
1.021135,0.07776443,0.072759
1.024276,0.08025306,0.0651874
1.019933,0.08077973,0.06933759
1.012323,0.08168411,0.07884385
1.01142,0.08222031,0.08355357
1.013416,0.08130283,0.08635575
1.013318,0.0799657,0.0868697
1.015001,0.07566537,0.08673308
1.015858,0.07401691,0.08827031
1.014937,0.07531904,0.08278446
1.015373,0.07502453,0.07489048
1.015491,0.07499316,0.0712265
1.016269,0.0750795,0.07267333
1.017923,0.07599867,0.07740873
1.018527,0.07666907,0.07451934
1.018921,0.07438026,0.07381739
1.019566,0.06658785,0.07673274
1.018987,0.0601508,0.07552364
1.015444,0.07166901,0.08422703
1.011932,0.08776134,0.09221613
1.012865,0.08544939,0.08801393
1.01746,0.0787251,0.08331764
1.020222,0.07846702,0.08269179
1.016848,0.07689781,0.089805
1.012651,0.07644119,0.09692704
1.012793,0.07507268,0.09291344
1.012849,0.07265353,0.08711756
1.012124,0.07673105,0.09020632
1.013842,0.07903043,0.09399331
1.015906,0.07731452,0.09283658
1.019041,0.07835874,0.09245034
1.023053,0.08046296,0.08981021
1.021444,0.08278859,0.08765435
1.01527,0.08264348,0.08901951
1.010983,0.08296874,0.08752111
1.012092,0.08563088,0.08732269
1.015544,0.08375336,0.09061074
1.015333,0.08135393,0.09094272
1.015065,0.0810346,0.08367363
1.015697,0.07894203,0.07730714
1.015005,0.07699747,0.08398003
1.016411,0.07638694,0.09085556
1.017027,0.07795531,0.08712847
1.016251,0.0804222,0.08592383
1.01562,0.08101477,0.08803211
1.013036,0.08197716,0.08533467
1.011939,0.0825781,0.08573021
1.012552,0.08090104,0.0881205
1.012621,0.07928158,0.08689075
1.012856,0.07732929,0.08767563
1.014129,0.07718877,0.08676088
1.016017,0.080267,0.08597844
1.015223,0.08273406,0.09024992
1.013718,0.08483416,0.09287673
1.0133,0.08203034,0.09383132
1.013057,0.07681338,0.09442054
1.015065,0.07934816,0.09399095
1.015955,0.08027069,0.09095175
1.014857,0.07796053,0.08681445
1.015522,0.07997045,0.08733553
1.016499,0.07994731,0.0899056
1.017637,0.07942756,0.09428536
1.017855,0.07959548,0.09732122
1.014344,0.0786241,0.0964422
1.011443,0.08047145,0.09756915
1.013357,0.08111315,0.09502223
1.015755,0.08109255,0.08949589
1.015793,0.08287783,0.08571988
1.01777,0.08327591,0.08155596
1.020519,0.08332127,0.08417329
1.019574,0.08183498,0.09027862
1.018328,0.08094752,0.09399156
1.017173,0.08179523,0.09516118
1.014409,0.07939605,0.08918383
1.014763,0.07654209,0.08574665
1.016142,0.07462726,0.08799521
1.015007,0.07427203,0.08795658
1.015871,0.07695797,0.08880478
1.01667,0.07741985,0.08870596
1.015401,0.07778927,0.08534738
1.016092,0.0793196,0.08475529
1.016237,0.07884052,0.09026367
1.01593,0.07944978,0.09430628
1.017699,0.07923871,0.08844007
1.017252,0.07857261,0.08288485
1.014801,0.07842506,0.08433767
1.014622,0.07539098,0.08366566
1.016369,0.07435455,0.08122493
1.018009,0.0752702,0.08355153
1.019793,0.07527186,0.08546194
1.020224,0.07687493,0.0816952
1.018674,0.07821501,0.0808304
1.019011,0.0776867,0.08791091
1.017283,0.07599578,0.09390895
1.013934,0.07627738,0.08947971
1.016664,0.07839306,0.07831542
1.019344,0.07803058,0.07177412
1.019234,0.07739103,0.07171137
1.018959,0.07791945,0.07432327
1.017223,0.07785926,0.07835604
1.017319,0.07765407,0.0831857
1.017533,0.07780615,0.08318316
1.01687,0.07786505,0.07827972
1.016976,0.07746578,0.07911718
1.016047,0.07697396,0.07991464
1.015891,0.07630264,0.07804224
1.015275,0.0770751,0.08009979
1.01491,0.07804263,0.07905854
1.016721,0.07587968,0.07961442
1.016746,0.07424869,0.08172636
1.016755,0.07504441,0.08029878
1.017753,0.07561428,0.08318271
1.017885,0.07661159,0.08425224
1.017126,0.07829742,0.08376084
1.014342,0.07778443,0.08858503
1.013221,0.07543479,0.09181307
1.014148,0.0747012,0.09045282
1.013688,0.07582747,0.08945624
1.012976,0.07952591,0.09189957
1.012772,0.08306281,0.09143771
1.01558,0.08049289,0.0868317
1.020448,0.07771029,0.079253
1.021046,0.07949537,0.07214418
1.016481,0.07962116,0.07831532
1.01126,0.07858994,0.08911254
1.010701,0.07909233,0.09304582
1.014381,0.07746163,0.09191632
1.017264,0.07626835,0.08575868
1.01772,0.08020817,0.08401225
1.01708,0.08421742,0.08701003
1.01624,0.08323634,0.08873848
1.014694,0.08002277,0.08952676
1.013987,0.07912488,0.08739912
1.016616,0.08170892,0.08652001
1.019999,0.08459259,0.08432582
1.019088,0.08451533,0.08108666
1.014353,0.08383858,0.08550501
1.011374,0.08354136,0.08924438
1.012134,0.08126042,0.08738888
1.013895,0.08101738,0.087046
1.015867,0.08111698,0.08865945
1.01883,0.07803115,0.08887391
1.018255,0.07873746,0.08960274
1.013354,0.07918697,0.09292919
1.012132,0.07669257,0.09359244
1.014687,0.07799554,0.0917989
1.017607,0.07869043,0.08918136
1.0187,0.07990879,0.08656055
1.015742,0.08317904,0.0901904
1.015018,0.08210544,0.09333235
1.017304,0.08124442,0.09114283
1.018302,0.08281961,0.09122249
1.017367,0.08326877,0.09124382
1.014734,0.08329163,0.08985976
1.014259,0.08133477,0.09133237
1.014116,0.07812158,0.09311693
1.014807,0.07579758,0.09320135
1.018791,0.07482861,0.09283762
1.019559,0.07872125,0.09213257
1.016776,0.08316181,0.09142065
1.014481,0.08293707,0.09156117
1.015777,0.0862384,0.09274858
1.017866,0.0924787,0.09515468
1.01597,0.09255608,0.09546266
1.015216,0.09082309,0.09094992
1.014148,0.0911723,0.08963539
1.013072,0.08747156,0.09147189
1.016123,0.07998485,0.08806327
1.015819,0.07670227,0.08782282
1.014008,0.07766549,0.0911767
1.014064,0.07718463,0.0915367
1.011898,0.07589885,0.09543938
1.011999,0.07700237,0.09676891
1.013277,0.08029365,0.09799138
1.012058,0.08281376,0.1049231
1.012462,0.08236032,0.100484
1.012839,0.08129495,0.09386265
1.012489,0.08214026,0.09699903
1.015202,0.08152273,0.09757703
1.019418,0.0779137,0.09743441
1.021778,0.07612565,0.09324801
1.01964,0.07865876,0.08599084
1.015528,0.08193771,0.0886198
1.013812,0.0804544,0.09030902
1.012796,0.07773429,0.08675208
1.013317,0.07805365,0.08768379
1.015279,0.07759734,0.08910899
1.015113,0.078635,0.09136802
1.013495,0.07991574,0.09732168
1.012233,0.07884019,0.1007629
1.014064,0.07988894,0.09929484
1.016017,0.0793271,0.09420771
1.012956,0.07792088,0.09041986
1.009802,0.0793956,0.0931058
1.009567,0.07985139,0.09590522
1.01148,0.08069697,0.09418499
1.01607,0.08212526,0.09388927
1.019359,0.08033523,0.09508085
1.018573,0.07723026,0.09293385
1.018124,0.07742342,0.08802106
1.019943,0.0783576,0.08392339
1.018321,0.07700167,0.08718925
1.014386,0.07609645,0.09225447
1.01368,0.07463632,0.08651844
1.014759,0.07480993,0.08189275
1.016666,0.07752244,0.08436235
1.017326,0.07793742,0.08205557
1.017276,0.07754729,0.07834258
1.019478,0.07596552,0.07526034
1.019468,0.07476375,0.07666271
1.017348,0.07781742,0.08714123
1.016316,0.07995961,0.09141469
1.016158,0.07842899,0.08514797
1.016237,0.0769782,0.0795969
1.01483,0.07738578,0.08131086
1.014985,0.07530468,0.08381997
1.015863,0.07139612,0.08104678
1.014838,0.0717432,0.08399677
1.01538,0.07205631,0.08780142
