accx,accy,accz
0.9997377,0.02735771,0.2015398
1.005089,0.01844573,0.1971916
1.005606,0.009774508,0.1964426
1.006155,0.01110419,0.199889
1.005622,0.009039429,0.2000166
1.007103,0.003745299,0.197288
1.010622,-0.001144549,0.1931718
1.008919,-0.005310662,0.1891386
1.007006,0.001575075,0.1902654
1.005012,0.01142672,0.1907425
1.004798,-0.0001643448,0.1897916
1.006808,-0.009882157,0.1909617
1.005844,0.003117393,0.1921094
1.007316,0.009062522,0.1948206
1.008496,0.004991764,0.1984636
1.007747,0.007815175,0.2053115
1.008629,0.01273953,0.2122027
1.006281,0.01793897,0.2083809
1.004789,0.02380386,0.2036647
1.00585,0.02130442,0.2044434
1.005118,0.007863755,0.1969864
1.003829,-0.0006345404,0.188118
1.002184,0.003170936,0.1914608
1.002895,0.008722136,0.1953136
1.005111,0.01057037,0.1965228
1.005524,0.01094564,0.2004773
1.00497,0.01612949,0.1955003
1.00434,0.02327638,0.187389
1.007598,0.0209203,0.1903392
1.010948,0.007900339,0.1915931
1.007936,-0.004482741,0.1896891
1.00571,-0.004053557,0.1944421
1.007279,0.002596012,0.1978031
1.007065,0.003723769,0.1994179
1.005466,0.004069395,0.2031614
1.004582,0.008077773,0.2035269
1.003858,0.01091656,0.2022286
1.003876,0.01044717,0.202597
1.003577,0.01175055,0.2021956
1.002284,0.01505357,0.2001425
1.0034,0.01041208,0.1975424
1.006719,-0.006759503,0.1942706
1.008568,-0.02205241,0.193358
1.006201,-0.01593515,0.1953157
1.002771,0.003313732,0.1941781
1.005324,0.0134479,0.1933717
1.008586,0.01438934,0.1945572
1.008106,0.01419874,0.1922355
1.009167,0.02030499,0.1896601
1.010982,0.02625921,0.1894508
1.013005,0.01098964,0.1910052
1.012573,-0.007414831,0.1946764
1.007767,-0.007146125,0.2007661
1.005532,-0.002934708,0.2036897
1.006415,0.002711806,0.2003322
1.009048,0.01040924,0.2028316
1.010792,0.01292476,0.2089477
1.008301,0.01455371,0.2108558
1.005226,0.01669644,0.212289
1.002132,0.01106224,0.209247
1.003579,0.004121713,0.203914
1.00696,0.01001766,0.1978531
1.002425,0.01436764,0.1946324
1.000239,0.01144234,0.1991942
1.004576,0.013566,0.1993015
1.008209,0.01621063,0.2005057
1.010876,0.01731409,0.2051572
1.009906,0.0118195,0.2031153
1.008952,0.003518508,0.2024813
1.009981,0.00673911,0.2005369
1.006873,0.009102236,0.1998421
1.001735,0.00853749,0.2056112
0.9992948,0.01686622,0.2087312
1.002467,0.02119265,0.211366
1.007001,0.01364907,0.2075871
1.006498,0.005929384,0.2011911
1.006228,0.004935797,0.2059284
1.005531,0.009206312,0.2121028
1.00132,0.01445811,0.2181968
1.001039,0.0157692,0.2210723
1.003872,0.01235762,0.2127979
1.005385,0.008993207,0.2051864
1.005888,0.01014582,0.2023629
1.004427,0.0139997,0.202702
1.004312,0.0169338,0.2039749
1.007401,0.01667875,0.1995493
1.01086,0.0120175,0.1970084
1.012013,0.007125131,0.1990597
1.010163,0.005238636,0.199979
1.007921,0.00622336,0.2017439
1.004759,0.0103507,0.2034926
1.002928,0.01368809,0.2076298
1.004732,0.01387061,0.2123047
1.004353,0.01614862,0.2111065
1.003441,0.01910489,0.2125154
1.003774,0.01051833,0.2143837
1.001924,0.0002528293,0.2088429
1.000093,0.01030695,0.2062212
0.9963547,0.02763521,0.210392
0.9934564,0.03126862,0.2141523
0.9994079,0.01637739,0.2111788
1.008051,-0.001236784,0.2032562
1.010113,0.008185451,0.1988425
1.003659,0.02280486,0.2015779
0.9982494,0.01944738,0.209108
1.00535,0.01985903,0.2095783
1.012426,0.01567787,0.2008165
1.009044,0.007220226,0.1965791
1.006663,0.008916561,0.2035198
1.005788,0.007910587,0.2130632
1.003815,0.01027349,0.2103765
1.005951,0.01676923,0.2069082
1.006278,0.02114652,0.2099959
1.004452,0.02387974,0.2057936
1.004985,0.01741871,0.2061324
1.003063,0.01287424,0.2096978
1.001971,0.006021654,0.2076383
1.003006,-0.003286585,0.2109414
1.000796,0.01004569,0.2106639
0.99934,0.02628468,0.2089021
1.000231,0.02316265,0.2135472
1.001041,0.01962473,0.2122853
1.001626,0.02173382,0.2061952
1.001736,0.0206881,0.2032986
1.003476,0.0261664,0.2065187
1.006538,0.03381294,0.2093272
1.007855,0.02091939,0.204167
1.0075,0.007114993,0.1996582
1.007082,0.01077368,0.2019496
1.005338,0.01168664,0.2067743
1.003667,0.009143259,0.2101478
1.00689,0.01331907,0.2127604
1.009351,0.01699329,0.2148853
1.006284,0.0139149,0.2148861
1.004479,0.008281885,0.2154752
1.004665,0.005275629,0.2174375
1.003237,0.01003022,0.2184121
1.001991,0.02056141,0.2178388
1.002189,0.02068085,0.2160489
1.002085,0.009948294,0.214077
1.001007,0.003045635,0.2112266
0.9980351,0.005329432,0.2067794
0.9952594,0.01002626,0.2040385
0.9999454,0.01009961,0.2041871
1.005255,0.01570633,0.2051807
1.002498,0.02428354,0.2096223
1.002372,0.02597956,0.2150686
1.00751,0.02551624,0.2137002
1.012684,0.01532182,0.2099098
1.015509,0.005883465,0.2066394
1.007661,0.01170714,0.2014135
0.9989904,0.01443424,0.2032383
1.00275,0.01167684,0.2109098
1.004046,0.01317168,0.2136243
0.9986035,0.01815453,0.2170508
0.9981412,0.02423429,0.2210815
0.9990563,0.02295913,0.2190605
0.9996032,0.007864982,0.2165381
1.002367,-0.007190775,0.2138955
1.003201,-0.002489043,0.2115016
1.00316,0.004296631,0.21345
1.004452,-0.0004617156,0.2146419
1.006034,0.002341694,0.2135934
1.004759,0.008978416,0.2137714
0.9986402,0.01696536,0.2141341
0.994763,0.02652222,0.2119615
0.9983016,0.02275436,0.2049211
1.003598,0.02256601,0.1967184
1.003019,0.02733749,0.1951807
1.000073,0.01503403,0.1955356
1.000802,0.005412916,0.1949661
1.003431,0.009898536,0.2045876
1.007419,0.01191491,0.2136105
1.006585,0.01234305,0.2101435
1.001121,0.0162059,0.2113096
1.0004,0.01631093,0.2179821
1.000505,0.01235215,0.21978
1.000483,0.01145405,0.2235384
1.000109,0.009402665,0.2301802
0.9971234,0.009003664,0.231268
0.996355,0.01386916,0.2271537
0.9959737,0.01424177,0.2240738
0.9989393,0.01470413,0.2211296
1.005109,0.01596048,0.2157967
1.005771,0.01660684,0.2122599
1.002762,0.02559872,0.2144211
0.9993565,0.03283304,0.2184698
1.000151,0.02705994,0.2192527
1.004443,0.01486286,0.2168807
1.005691,0.009985536,0.211104
1.004316,0.01328802,0.2051274
1.001329,0.01522273,0.2020671
1.000715,0.0178826,0.2032219
1.000463,0.01904393,0.2099827
0.9992477,0.01781907,0.2143381
1.002509,0.01954649,0.2157014
1.003422,0.01993096,0.2161668
1.002275,0.01815061,0.2143133
1.002846,0.01764926,0.2169858
1.000665,0.01796728,0.2195274
0.9999268,0.01625034,0.2209094
1.001727,0.01470001,0.2235227
1.003022,0.01681816,0.2202489
1.000873,0.01975259,0.2175453
0.9959892,0.02166493,0.2165229
0.996014,0.02114591,0.2157752
0.9995435,0.02117135,0.2176623
1.002438,0.02259256,0.2162569
1.001828,0.02039088,0.2163721
0.9993597,0.01876157,0.2173756
1.000378,0.020631,0.2164906
1.000382,0.02224248,0.2197512
1.001337,0.02223195,0.2220151
1.003769,0.02103853,0.2226102
1.001624,0.01882285,0.2239909
1.000641,0.01458177,0.2235704
1.000832,0.01140469,0.222959
0.9995806,0.01461244,0.2234718
1.000157,0.02303366,0.224706
1.001208,0.02839806,0.223709
1.002306,0.02566533,0.2228521
1.002445,0.02167549,0.2240602
1.001905,0.02125023,0.2222148
1.003425,0.01807027,0.2198968
1.005824,0.01405956,0.2192135
1.006038,0.01840046,0.2191033
1.000128,0.02487233,0.219884
0.9942896,0.02530702,0.2189212
1.000445,0.02224909,0.2174926
1.007484,0.01701377,0.2159254
1.002475,0.01378633,0.2136449
0.9992711,0.01581663,0.2131272
1.000952,0.01874851,0.2140516
0.999421,0.02091093,0.216316
1.000969,0.02231622,0.2180314
1.002054,0.02224682,0.218176
0.9997911,0.02180546,0.2175206
1.000304,0.02089971,0.2149148
1.000917,0.02058865,0.2150993
1.002334,0.02257313,0.2195733
1.002574,0.02292555,0.222584
1.000575,0.02147926,0.2232164
1.001707,0.02208979,0.2214707
1.002524,0.02036297,0.2185299
1.002715,0.01662515,0.2199541
1.003158,0.01646051,0.2232551
1.00241,0.01766334,0.2229146
1.002749,0.0183773,0.2232196
1.00197,0.01816794,0.2218134
1.000717,0.01772973,0.2159497
1.000797,0.01831941,0.2141476
1.000681,0.01799231,0.2145521
1.001482,0.0182862,0.21496
1.001732,0.02023667,0.2201216
1.000896,0.02208039,0.2256124
1.000571,0.02244375,0.2249043
1.000203,0.02015177,0.2213721
1.001689,0.0187863,0.2225573
1.004525,0.0195503,0.2241644
1.004024,0.0197446,0.2234326
1.001052,0.02043761,0.2245725
0.9993932,0.02215747,0.2268772
1.00006,0.02372517,0.228954
1.002252,0.02466824,0.2226587
1.00337,0.02468098,0.2145688
1.003651,0.02245477,0.2184677
1.004387,0.02065208,0.2204923
1.003523,0.02512706,0.2157594
1.000471,0.02944632,0.2140481
0.9984828,0.02533726,0.2151065
1.002622,0.01972463,0.2169522
1.007775,0.01799677,0.2165234
1.004937,0.01766828,0.2151151
1.000796,0.01890801,0.2136517
0.9998987,0.02201016,0.2124101
0.9993215,0.02527189,0.2172028
1.000458,0.02590447,0.2229287
1.000185,0.02393737,0.224641
0.999392,0.02250503,0.2268593
1.000757,0.0186148,0.2269622
1.00085,0.01566564,0.2241859
1.002541,0.02161254,0.2222305
1.004492,0.02675073,0.2200609
1.003721,0.02567297,0.2190043
1.003512,0.02478589,0.2181827
1.002477,0.02243837,0.2151577
1.002448,0.02024755,0.2137261
1.003341,0.02334855,0.2128914
1.001475,0.02684274,0.213443
0.9983993,0.02685852,0.2187679
0.9946676,0.02889124,0.223769
0.9955009,0.03213116,0.2300063
0.9998557,0.03207768,0.2357348
0.9988996,0.03253625,0.2362723
0.9938423,0.03197943,0.2385424
0.9897269,0.02903734,0.2390307
0.9953757,0.02692972,0.2362079
1.003297,0.02461348,0.233857
0.9971059,0.02645272,0.2299668
0.9931751,0.03139568,0.2307574
0.9975744,0.03322644,0.2324573
0.9966917,0.03617736,0.2308777
0.9977845,0.03878212,0.2299261
0.9997985,0.03711418,0.2255687
0.9982696,0.03618653,0.2239277
1.000516,0.03594642,0.2261723
1.002192,0.0340079,0.2246073
1.001221,0.03311215,0.2245822
1.0004,0.03464681,0.2267765
0.9969617,0.0380385,0.2300672
0.9931684,0.04070529,0.2362394
0.9937845,0.04033105,0.2379327
0.9955386,0.03913044,0.2373782
0.9939951,0.03870655,0.2400464
0.99409,0.03970114,0.2387519
0.9951832,0.04405053,0.2372911
0.993661,0.04960939,0.2391102
0.9937191,0.05044188,0.2385186
0.9934133,0.04770364,0.2391143
0.9944078,0.04829941,0.2391235
0.9979473,0.04939102,0.2388197
0.9971985,0.04804288,0.2422007
0.9955552,0.04869987,0.2435367
0.9941733,0.04855499,0.2432914
0.9923096,0.04567706,0.2428468
0.9940584,0.04203913,0.2423064
0.9950587,0.03906072,0.2408936
0.9943543,0.04102629,0.2374188
0.9953355,0.04282133,0.2374692
0.9961842,0.04085702,0.2361167
0.9959037,0.04077049,0.2325802
0.9957825,0.04019567,0.2341138
0.9968681,0.0388571,0.2338554
0.9975235,0.03944655,0.2301232
0.9966472,0.04077522,0.2288621
0.9944966,0.04422108,0.2316729
0.9929587,0.04630596,0.2347468
0.9963451,0.04487631,0.2336127
1.000471,0.04150015,0.2344721
0.9994374,0.03474501,0.2364064
0.9984758,0.03208617,0.2315839
0.9991359,0.03760844,0.2274698
0.9985596,0.04132824,0.2305477
1.000341,0.04053704,0.233828
1.001641,0.04076847,0.2328902
0.9973905,0.04253115,0.2318381
0.9938387,0.04342356,0.2316875
0.9949318,0.04368696,0.2298312
0.9967831,0.04311386,0.2298679
0.9967453,0.04160493,0.2329354
0.9966483,0.0428799,0.2347572
0.9956576,0.04803705,0.2375401
0.9917442,0.0526963,0.2424694
0.9910096,0.05043887,0.2469776
0.9931646,0.04557756,0.2514436
0.9936219,0.04739044,0.2516714
0.9959984,0.04804095,0.2440534
0.9988935,0.04615126,0.2360222
0.9983764,0.04792983,0.237559
0.9942197,0.04714587,0.2413738
0.9891494,0.04676047,0.2376847
0.9879912,0.04790914,0.2384563
0.9891288,0.0466523,0.2417593
0.9896676,0.04745385,0.2405034
0.9912997,0.04754464,0.2421296
0.9939094,0.04789599,0.2384202
0.9935675,0.0504076,0.2355022
0.9921708,0.05184341,0.2401516
0.9935277,0.05611714,0.2397502
0.9931913,0.05983529,0.2416542
0.9923639,0.05942069,0.2461277
0.9928704,0.06207565,0.2493303
0.9918298,0.0668077,0.2533043
0.9922767,0.06512446,0.2514664
0.9916464,0.0624735,0.2525663
0.989454,0.06695681,0.2567762
0.9903151,0.07081971,0.2562798
0.9898221,0.07394997,0.2570759
0.9862949,0.07853968,0.2574383
0.9826916,0.07876696,0.2574324
0.9820231,0.07957341,0.2588769
0.983881,0.08139138,0.2579951
0.9827802,0.08187732,0.2562981
0.9794061,0.08296474,0.2555618
0.9774722,0.08445187,0.2576159
0.9799357,0.09222964,0.2619205
0.9823445,0.1011436,0.2641092
0.9754586,0.1051019,0.2673013
0.9685907,0.1131612,0.2760702
0.9708044,0.1237924,0.2809571
0.973281,0.1313349,0.2737365
0.9741449,0.1370424,0.2684179
0.975552,0.1384156,0.2759388
0.9735616,0.1383182,0.2868462
0.9712152,0.1429211,0.2940897
0.9656329,0.145802,0.2970748
0.9484691,0.1503219,0.299322
0.9388832,0.1603012,0.3026002
0.9504563,0.15652,0.2989013
0.9592961,0.1503394,0.2952206
0.9561504,0.1562739,0.2992542
0.9537052,0.1550034,0.2999647
0.9536365,0.1562383,0.2990704
0.9591212,0.1621745,0.2980386
0.971374,0.1572745,0.2943913
0.9737797,0.1578612,0.296285
0.9572359,0.1715031,0.3016486
0.9390933,0.1933155,0.3116617
0.9378149,0.2113366,0.3231827
0.9450708,0.2098082,0.3234992
0.9428078,0.1994619,0.3245944
0.9306194,0.1907533,0.331814
0.9163071,0.1901248,0.3422143
0.911565,0.2022095,0.3651998
0.9179942,0.2111052,0.3781931
0.917234,0.2109241,0.3717897
0.9121104,0.2129985,0.375923
0.9093365,0.2214577,0.3839077
0.9039618,0.233632,0.3888283
0.9084778,0.2424963,0.396426
0.913276,0.2399926,0.3907032
0.9036706,0.2375999,0.384611
0.892664,0.2491827,0.3828599
0.883093,0.2617104,0.3747396
0.8793409,0.2702494,0.3777267
0.8814843,0.278931,0.3830181
0.8818687,0.286156,0.3826594
0.8906347,0.2943814,0.3863182
0.903929,0.2906614,0.3846567
0.9044202,0.2817037,0.383729
0.8909,0.2859985,0.3859152
0.8756743,0.293073,0.3839613
0.8736308,0.300178,0.3848379
0.8831284,0.2974427,0.3854728
0.8868869,0.2905041,0.3878729
0.8757162,0.3069729,0.3983783
0.8635576,0.3278398,0.4053986
0.8638797,0.3372234,0.4009799
0.8639021,0.3386614,0.394054
0.8548183,0.3350149,0.3945741
0.844544,0.3425237,0.3977476
0.8389687,0.3548166,0.3997887
0.8413582,0.366382,0.4010931
0.8421468,0.3732123,0.3992566
0.8323233,0.3704448,0.3999301
0.821219,0.3801922,0.4014125
0.8159453,0.3899071,0.4027299
0.8209303,0.3880506,0.4071886
0.8295862,0.3953887,0.4059505
0.8289321,0.4031391,0.4044895
0.824355,0.4082925,0.4078264
0.8147788,0.4160617,0.4090014
0.8038893,0.4267772,0.4156795
0.8005669,0.4479794,0.4325024
0.7930329,0.4712353,0.4476931
0.7883025,0.4924506,0.4456983
0.7867291,0.5174337,0.4360599
0.7741765,0.5422135,0.4273079
0.7667636,0.5375526,0.4015222
0.7495806,0.5046851,0.3943665
0.7104546,0.4934371,0.4377563
0.7056316,0.4892202,0.468015
0.7405863,0.4774649,0.4532828
0.7622213,0.4638552,0.4426269
0.7645818,0.4186688,0.455144
0.7656526,0.3947811,0.4627453
0.776726,0.4180193,0.4636058
0.7936644,0.4316113,0.4591801
0.8007077,0.4331423,0.4393356
0.8055961,0.4179833,0.4299545
0.8129917,0.3994081,0.4201752
0.8124574,0.4094866,0.4054341
0.8066825,0.4286475,0.4130405
0.8033759,0.444448,0.4055181
0.8010838,0.4555554,0.3976966
0.8007976,0.4692908,0.3958936
0.8071858,0.5006802,0.3528943
0.8087903,0.5204345,0.3299502
0.7989414,0.5145228,0.3456672
0.7790488,0.5260294,0.3526795
0.7619677,0.5393589,0.3575754
0.7745595,0.5210043,0.3602034
0.7897113,0.5063435,0.3661186
0.7825693,0.4915029,0.377248
0.7794289,0.4751993,0.3886422
0.7753267,0.4750024,0.4033066
0.7689456,0.4643439,0.4143518
0.7737304,0.45898,0.4205053
0.7756894,0.4604177,0.4238684
0.7742729,0.4541715,0.4332494
0.7685694,0.4638491,0.4402741
0.7539263,0.4727304,0.4458589
0.7454524,0.4794015,0.4584338
0.7395937,0.4941886,0.4554215
0.7325766,0.4993395,0.4511566
0.7345804,0.4998204,0.4507702
0.7364364,0.4983813,0.4417903
0.7431196,0.5010619,0.4428896
0.75892,0.5068769,0.4411817
0.7590545,0.5049837,0.4352796
0.7514446,0.5050614,0.4345782
0.7526663,0.5022507,0.4329182
0.7499182,0.4974559,0.4400071
0.7451784,0.4960319,0.4444173
0.7411204,0.4889978,0.4466309
0.736353,0.4857154,0.454369
0.7445914,0.488818,0.4531218
0.7633037,0.4878287,0.4460459
0.7732876,0.4768242,0.4406409
0.7628699,0.4576821,0.448052
0.7389585,0.4478834,0.4601658
0.7212966,0.4554293,0.4572123
0.7194662,0.4695915,0.4562855
0.7293738,0.4813108,0.4585429
0.7432328,0.4832633,0.4533172
0.7596447,0.4708735,0.4530279
0.7653976,0.4623154,0.460574
0.7481298,0.466829,0.4707626
0.737757,0.4668229,0.4735635
0.7442337,0.4669359,0.4642501
0.7434612,0.4739358,0.4556109
0.7393713,0.4777472,0.4549827
0.7389643,0.4771748,0.4595589
0.7429262,0.4755787,0.4609432
0.7524624,0.4784954,0.4529643
0.7566382,0.4808848,0.4479453
0.7494448,0.4813842,0.4609564
0.7390862,0.4863067,0.4784254
0.734107,0.4857547,0.479307
0.7279384,0.4791217,0.473986
0.7270761,0.4748506,0.4714841
0.7411615,0.4755129,0.4651637
0.7502275,0.4773229,0.4634845
0.749028,0.473041,0.4656738
0.7450944,0.471901,0.4659854
0.7385348,0.4785851,0.4717732
0.7366988,0.4865245,0.4731112
0.744133,0.4910412,0.4664841
0.7536517,0.4854654,0.4645014
0.7497667,0.4772498,0.4671345
0.7426146,0.4741977,0.4736763
0.742964,0.4757615,0.4773726
0.7372092,0.4796456,0.4703082
0.7373908,0.4776503,0.4621338
0.742035,0.4771938,0.4617248
0.7400855,0.4817676,0.4660526
0.7459744,0.4816807,0.4665636
0.7472989,0.4803951,0.4619962
0.7412805,0.4786591,0.4580079
0.7391414,0.4786285,0.4585589
0.7350761,0.4817071,0.4642079
0.7390453,0.4828151,0.4695584
0.744591,0.4848924,0.4708499
0.7425438,0.4800937,0.4690033
0.7474036,0.4678299,0.4697691
0.7513502,0.4635847,0.4720015
0.7440336,0.4688199,0.4692951
0.7347228,0.4776905,0.4689746
0.732023,0.4814949,0.4700775
0.7383834,0.4826522,0.4672159
0.7496452,0.4902668,0.4618413
0.7570528,0.4939469,0.454739
0.7519036,0.4850095,0.4585935
0.7397844,0.4732468,0.4679811
0.7338547,0.4721508,0.4684747
0.73652,0.4768487,0.4671779
0.7437564,0.4774466,0.4626381
0.7477725,0.4780719,0.4590845
0.7476206,0.4778884,0.466914
0.7487282,0.4773523,0.4737377
0.7496871,0.4782687,0.4693913
0.7519039,0.4767344,0.4603009
0.7533572,0.4742611,0.4568238
0.7448068,0.4716848,0.4642645
0.7352246,0.4736025,0.4739455
0.7389627,0.4792046,0.4719934
0.742183,0.4822166,0.4685757
0.7343042,0.4876463,0.474287
0.7345108,0.4906258,0.473357
0.7484569,0.4854624,0.467284
0.7567507,0.4780677,0.4629213
0.7430969,0.4717084,0.4590572
0.7265573,0.4742483,0.4636119
0.7375026,0.4801725,0.4653037
0.7451373,0.4799305,0.462415
0.7324198,0.4875931,0.4638192
0.7350321,0.4958708,0.4610679
0.7489039,0.4856935,0.4576829
0.7574507,0.4742815,0.4567729
0.751346,0.474119,0.4631667
0.7358797,0.4755637,0.4735212
0.7375478,0.4759902,0.4690214
0.7384878,0.4775436,0.4645259
0.7365859,0.4819104,0.465709
0.7489134,0.4855325,0.457506
0.751675,0.4806682,0.4562261
0.7434755,0.4716246,0.4664893
0.7362637,0.4697737,0.4703253
0.7371442,0.4756068,0.4637298
0.7408582,0.4862014,0.4583567
0.7307156,0.5007012,0.4683601
0.7308468,0.5064876,0.4758308
0.7500319,0.4949527,0.4605216
0.7611606,0.4797429,0.4506035
0.7440419,0.4732643,0.4642813
0.7196636,0.4745074,0.4749313
0.7299979,0.4818805,0.4703838
0.7398184,0.4888342,0.4679592
0.7389511,0.4856544,0.4659901
0.7551931,0.4779273,0.4562982
0.7452979,0.4718643,0.4573397
0.7254642,0.468128,0.4694862
0.7291815,0.4737263,0.475271
0.734335,0.4804731,0.4723937
0.745432,0.4838585,0.4657584
0.7440886,0.4971489,0.4650377
0.7379664,0.5033352,0.4630397
0.7504382,0.4848561,0.4598278
0.7484137,0.4671449,0.4660551
0.7354187,0.4680231,0.469452
0.7274391,0.4744714,0.4742926
0.7304702,0.4767127,0.476539
0.7425537,0.4782508,0.4693698
0.7394542,0.478388,0.4694063
0.7419358,0.4767385,0.4649274
0.7470082,0.4767546,0.4639513
0.7385472,0.4736575,0.4738578
0.7417937,0.4715887,0.4718371
0.7377505,0.4791299,0.4725449
0.7245837,0.4905884,0.4770419
0.7274489,0.4968221,0.475077
0.7446384,0.4894114,0.4687988
0.7635618,0.4759909,0.4574693
0.746865,0.4717527,0.4643442
0.7255792,0.4744331,0.4741285
0.7415345,0.4780716,0.4669925
0.7434809,0.4803479,0.4674047
0.7325911,0.4882038,0.4675927
0.7372523,0.5001005,0.4643374
0.7413408,0.4957405,0.4641587
0.7476505,0.4790583,0.454993
0.7456389,0.4676019,0.4531133
0.7322083,0.4680002,0.4687443
0.728242,0.4780051,0.4802693
0.7316718,0.4845697,0.4724495
0.7368853,0.4897367,0.4629596
0.7389023,0.4933661,0.4680608
0.7494137,0.4859868,0.4636116
0.7674129,0.4775908,0.4552303
0.756361,0.4715045,0.4669525
0.7351785,0.468881,0.4758053
0.7324957,0.4726719,0.4742142
0.7336588,0.4766863,0.47404
0.7378841,0.4884618,0.4717303
0.7386544,0.4990306,0.4678019
0.7427741,0.4904967,0.4625794
0.7533477,0.4755025,0.4594969
0.7425043,0.4672472,0.4606842
0.7302999,0.4719966,0.4639329
0.7339843,0.4812141,0.4682566
0.7329339,0.4801395,0.4687874
0.7302983,0.484307,0.4734728
0.7303706,0.4932431,0.4808221
0.7369968,0.4897882,0.4711494
0.7477948,0.4837111,0.4574091
0.745466,0.4752786,0.4606513
0.7361619,0.4662707,0.4700452
0.7316697,0.4667984,0.4752295
0.7324745,0.4728312,0.474058
0.7346798,0.4877336,0.4701001
0.7346587,0.4967699,0.4710764
0.7417447,0.4909834,0.465231
0.7503062,0.4838963,0.4561253
0.7428489,0.4719847,0.464194
0.729492,0.4710707,0.4782908
0.7251343,0.479794,0.4845396
0.7300182,0.4790503,0.4780308
0.7361666,0.488607,0.4673783
0.7355619,0.4995937,0.4717821
0.7423145,0.4943709,0.4711421
0.7548911,0.4853271,0.4591973
0.7486149,0.4751808,0.4596102
0.736206,0.471021,0.4645391
0.7324048,0.4749252,0.4699453
0.7315615,0.4782699,0.4762766
0.7348578,0.4826921,0.4774306
0.7335437,0.4902129,0.4798186
0.7339295,0.4938122,0.476087
0.7457229,0.4863297,0.4656877
0.7492511,0.4767317,0.4620546
0.7338026,0.4752092,0.4705219
0.7133439,0.4754295,0.4872656
0.7163082,0.4747105,0.4894162
0.7378527,0.4836674,0.4723486
0.7480761,0.4964501,0.457783
0.7484941,0.4956649,0.4582958
0.7400984,0.4899621,0.4692162
0.7323654,0.4874177,0.4744638
0.7340378,0.4822811,0.4753465
0.7326814,0.4786347,0.4749371
0.7355662,0.4760916,0.4719588
0.7369345,0.4753366,0.4743541
0.7323783,0.4795067,0.4743441
0.7303069,0.4806136,0.4743131
0.7254706,0.4810454,0.4782736
0.7259294,0.4857168,0.4769617
0.7270547,0.4881761,0.4783869
0.7294647,0.4868018,0.4788666
0.7379226,0.483446,0.4739912
0.7341248,0.4824098,0.4730727
0.7310612,0.4829179,0.4731192
0.7350208,0.4803986,0.4721344
0.7318859,0.4805618,0.4707985
0.7285719,0.4834517,0.472961
0.7256523,0.487084,0.476197
0.7285124,0.4904935,0.4704443
0.7438055,0.4883863,0.4613694
0.7539582,0.4864336,0.4573629
0.7428187,0.4862835,0.4641534
0.7254974,0.4855106,0.4771064
0.72567,0.4867321,0.4828684
0.7281096,0.4869901,0.4860821
0.7220796,0.487447,0.489074
0.7252226,0.4874911,0.4872264
0.7341964,0.483247,0.4811796
0.7427476,0.4773297,0.4710827
0.7431177,0.4733866,0.469
0.7268391,0.4757171,0.4771073
0.7171743,0.4798749,0.4826713
0.7243763,0.4835224,0.4853294
0.731219,0.4921757,0.4811645
0.7307058,0.4951566,0.4730676
0.7318137,0.4890993,0.4729805
0.737862,0.484687,0.4742571
0.7371016,0.4797785,0.474375
0.7322657,0.4776859,0.476445
0.7286473,0.4820406,0.4765357
0.7258716,0.4867419,0.476025
0.7279126,0.4927811,0.4749489
0.7294996,0.4943532,0.4747527
0.7322793,0.4892036,0.4776392
0.7316428,0.4879645,0.4803812
0.7272236,0.4875865,0.4825236
0.7326264,0.4835367,0.4830715
0.7338134,0.4814265,0.4841202
0.7268986,0.4842433,0.4878261
0.7241554,0.4875532,0.48712
0.7254935,0.4851675,0.4831293
0.7305968,0.4835746,0.4840939
0.7311362,0.4860462,0.4889345
0.7303116,0.4872149,0.4923851
0.733018,0.4890821,0.4887478
0.7321887,0.4875206,0.4827607
0.7284955,0.4823994,0.4846184
0.7236319,0.4812951,0.4853118
0.7267115,0.4808969,0.4809296
0.730555,0.4828737,0.4804372
0.7209793,0.4871147,0.4812795
0.7166256,0.4863468,0.4808412
0.7253012,0.4858753,0.4741616
0.733922,0.4883527,0.4625504
0.7341297,0.4892662,0.4617682
0.7284481,0.4890405,0.4708247
0.7283546,0.4888161,0.4795177
0.7339769,0.489832,0.4822066
0.7378838,0.49054,0.4780059
0.7305009,0.4892519,0.475848
0.7207297,0.4880315,0.4773332
1.005716,0.0716683,0.1131201
1.012918,0.0757813,0.1018713
1.010869,0.07341254,0.0887151
1.008708,0.06431621,0.08905286
1.021949,0.05414953,0.08677505
1.026446,0.04474184,0.080859
1.026053,0.03915988,0.07930173
1.025734,0.0375614,0.07420592
1.020129,0.03434242,0.074816
1.022936,0.03050249,0.07981868
1.020492,0.02860664,0.0737274
1.017825,0.03034562,0.07056378
1.021186,0.03990795,0.07705576
1.020559,0.04709299,0.07886628
1.025088,0.04410584,0.07900306
1.025137,0.04213792,0.08107454
1.020371,0.04822308,0.08203508
1.018423,0.05707578,0.08069198
1.017958,0.06223674,0.07940908
1.022615,0.06550958,0.08740205
1.021952,0.0673005,0.09476845
1.018014,0.06675696,0.09068407
1.016117,0.0664295,0.08506252
1.014684,0.06554561,0.08297767
1.016242,0.06672558,0.08550295
1.014745,0.07332917,0.08863779
1.014972,0.08475007,0.08585644
1.016188,0.09206685,0.08330589
1.014308,0.09116514,0.08548057
1.015835,0.08921676,0.08712492
1.015317,0.08293126,0.08824663
1.014582,0.07835904,0.08984218
1.015083,0.08203524,0.0892492
1.013765,0.08279907,0.09232463
1.017586,0.08241002,0.09724839
1.018916,0.08532273,0.096687
1.009199,0.09146039,0.09521216
0.9989565,0.09816965,0.09154755
1.001461,0.09566665,0.08744826
1.011692,0.08842002,0.09080797
1.015119,0.08397779,0.09498789
1.013146,0.07940662,0.0945529
1.009825,0.07749119,0.09422835
1.00918,0.08270045,0.09431443
1.013455,0.08925278,0.09249017
1.017205,0.08888116,0.09169623
1.019768,0.08208549,0.09441292
1.018506,0.07538891,0.09795262
1.019737,0.07471983,0.09868256
1.023377,0.08200929,0.0973034
1.019025,0.09164048,0.09294434
1.017895,0.09467221,0.08220658
1.015588,0.09050311,0.07641357
1.009502,0.08598938,0.08324703
1.013348,0.0838874,0.0896704
1.013347,0.08300591,0.0905247
1.011914,0.08407678,0.0884514
1.018207,0.08437162,0.08465309
1.020243,0.07862802,0.08342187
1.019843,0.07130765,0.08209896
1.019003,0.06846124,0.08060747
1.019412,0.0685872,0.08386939
1.021099,0.07140831,0.08549715
1.019588,0.07487365,0.08383274
1.01758,0.07427296,0.08506148
1.013264,0.07349513,0.08507391
1.012694,0.07580326,0.0838598
1.016064,0.07530076,0.08420075
1.016663,0.07471176,0.08166855
1.019935,0.07996813,0.07951497
1.017847,0.08783526,0.0806152
1.013719,0.0941493,0.08596971
1.020408,0.09218283,0.09363028
1.023848,0.0876507,0.09204068
1.018742,0.08872875,0.08881026
1.012309,0.08764513,0.09222251
1.008255,0.08945316,0.09110234
1.011378,0.09455701,0.089471
1.015682,0.09557839,0.08947706
1.017335,0.09952612,0.08708507
1.020165,0.1002856,0.09196947
1.020305,0.09869589,0.09769586
1.017147,0.1029673,0.09550507
1.013001,0.1030472,0.09406963
1.005542,0.1036167,0.092864
1.003265,0.1063548,0.09079378
1.007062,0.09964,0.09256803
1.004459,0.09133488,0.0965117
1.004775,0.08908542,0.09913544
1.014188,0.09136627,0.09492286
1.020185,0.09461046,0.08465884
1.019152,0.09446618,0.07936016
1.016385,0.09355197,0.08098213
1.018487,0.09015163,0.08131211
1.018982,0.08650824,0.07980242
1.016106,0.09086744,0.08085304
1.016338,0.09504953,0.08185762
1.013024,0.09214765,0.08206046
1.012638,0.08872203,0.08410816
1.014332,0.08763525,0.08531488
1.009282,0.09084207,0.08544333
1.009241,0.09944824,0.0858095
1.009831,0.1045439,0.08677524
1.006368,0.1027227,0.09057505
1.006573,0.1005989,0.09203942
1.011504,0.09447835,0.08660562
1.019949,0.08412021,0.08065962
1.021151,0.08257971,0.0782242
1.019524,0.08630428,0.07587436
1.022151,0.08419606,0.07426734
1.01928,0.08144649,0.07699666
1.015036,0.07873592,0.07879508
1.012314,0.07496707,0.07809074
1.013697,0.07805365,0.08129099
1.018602,0.08084273,0.08465262
1.013802,0.07903602,0.08319027
1.009993,0.08274018,0.08084742
1.01194,0.08644349,0.08054838
1.00946,0.08569623,0.08263508
1.012739,0.08716818,0.08847755
1.02015,0.08994941,0.09380992
1.02037,0.09080377,0.09206322
1.013836,0.09066193,0.09034096
1.007319,0.09286709,0.09254624
1.01095,0.09595672,0.09145992
1.014543,0.09730409,0.09076654
1.009626,0.09889976,0.09277717
1.009243,0.09955795,0.09318565
1.012583,0.09987599,0.09569807
1.014594,0.1019654,0.1012559
1.017071,0.1019337,0.1018815
1.016277,0.1007915,0.0942658
1.013674,0.1026294,0.09004633
1.012361,0.1032552,0.09551697
1.013912,0.1023804,0.09826827
1.017423,0.1030256,0.09258179
1.015491,0.1027058,0.08637774
1.008909,0.1028517,0.0878789
1.004455,0.1038996,0.09371275
1.007648,0.1041847,0.09422959
1.014842,0.1035601,0.09349738
1.01375,0.09945234,0.09420483
1.009365,0.09603954,0.09169187
1.008096,0.09816282,0.09089263
1.00761,0.1014087,0.09250534
1.010399,0.1017481,0.09233086
1.012146,0.1011407,0.09368906
1.013834,0.1018947,0.09657132
1.014991,0.1031207,0.09928289
1.011066,0.1046486,0.1007588
1.01124,0.1045502,0.09756124
1.01192,0.1031869,0.09479934
1.010223,0.1023798,0.09633092
1.012651,0.09910858,0.09839571
1.012944,0.09769964,0.09937459
1.013036,0.1000887,0.09829115
1.014563,0.09952328,0.09833742
1.013455,0.0959238,0.09828512
1.013355,0.09112115,0.09313183
1.014478,0.08791024,0.08777906
1.017526,0.08741844,0.08704396
1.019912,0.08709712,0.09141386
1.018001,0.08830651,0.09338598
1.015957,0.09031646,0.0864996
1.0148,0.092074,0.08122329
1.014699,0.0923825,0.0839112
1.013977,0.09087982,0.08622077
1.01163,0.09221522,0.08415771
1.012835,0.09386954,0.08461541
1.015815,0.09344409,0.08738901
1.016824,0.09067847,0.08739218
1.015845,0.08704481,0.088887
1.012787,0.09405527,0.0928448
1.011859,0.1025358,0.09705162
1.013018,0.09922161,0.09690169
1.013296,0.09861024,0.09289247
1.014137,0.1006161,0.09288413
1.013906,0.0976235,0.09067919
1.01284,0.09866027,0.08951357
1.013532,0.10217,0.09530197
1.014895,0.105678,0.09735133
1.015776,0.1095951,0.09810174
1.015225,0.1060158,0.1000057
1.01464,0.1020604,0.09978147
1.013823,0.1048258,0.09354753
1.011778,0.1046151,0.0837006
1.011895,0.1033788,0.08665155
1.011311,0.1045653,0.08987769
1.008758,0.1031044,0.08365457
1.009927,0.1023338,0.08441899
1.012487,0.1037084,0.08450205
1.014344,0.1062667,0.08214441
1.015443,0.1089368,0.08438759
1.011682,0.1051619,0.08546282
1.008494,0.09732073,0.08878357
1.011935,0.09190644,0.09012038
1.015818,0.08805036,0.0871186
1.017299,0.08804244,0.08778613
1.017629,0.09523869,0.08713751
1.013601,0.1027859,0.08509748
1.008457,0.101976,0.0861657
1.009315,0.09722396,0.08555126
1.01178,0.09575382,0.08347689
1.012469,0.09459279,0.08304952
1.016358,0.09324313,0.08447544
1.019135,0.09327589,0.08820359
1.016147,0.09094561,0.08814418
1.014254,0.08747265,0.08257801
1.015468,0.08569689,0.08127577
1.015595,0.08420118,0.08315498
1.014953,0.08197922,0.0834083
1.015534,0.07894882,0.08315452
1.016326,0.07781193,0.08080354
1.015815,0.0830677,0.08161487
1.012462,0.09206745,0.0873782
1.008861,0.09491425,0.09107883
1.012735,0.09229888,0.09049008
1.017631,0.09224161,0.08775621
1.014935,0.09323861,0.08684132
1.014386,0.09324669,0.08615035
1.016293,0.09332848,0.08566117
1.014416,0.09432837,0.08807271
1.013045,0.09520944,0.09034489
1.010606,0.09398329,0.09179567
1.008674,0.09483188,0.08949525
1.011266,0.0972895,0.086028
1.012484,0.09749775,0.08978232
1.012754,0.09743013,0.09612825
1.0146,0.09754546,0.09987934
1.015181,0.09756273,0.09932561
1.013792,0.0965971,0.09572281
1.012017,0.0953998,0.09382711
1.014047,0.09531062,0.09006645
1.016179,0.09564782,0.08608995
1.013161,0.09730844,0.08566442
1.011637,0.09756988,0.08858308
1.012773,0.09812066,0.09635926
1.012574,0.10113,0.0974364
1.012216,0.1016873,0.09260161
1.011798,0.1016351,0.09235276
1.011783,0.102226,0.08989658
1.012629,0.1023211,0.09163197
1.01279,0.1005827,0.09796499
1.012269,0.09706901,0.09866602
1.012469,0.09760522,0.1016046
1.012536,0.09868059,0.1035087
1.011392,0.1008034,0.1006297
1.010917,0.105724,0.09989351
1.01109,0.1025522,0.1014737
1.010956,0.09709453,0.1038466
1.010651,0.09617275,0.1017276
1.011104,0.09368763,0.0958329
1.013206,0.09438556,0.08909768
1.013832,0.09810113,0.08560121
1.012814,0.09938674,0.09089318
1.010739,0.1015761,0.09323002
1.007296,0.1028782,0.09025916
1.00931,0.1002269,0.08920548
1.014744,0.09669013,0.08698094
1.01544,0.09379069,0.08836884
1.013266,0.09165894,0.09289563
1.010011,0.09371363,0.09524382
1.008803,0.09932513,0.09931833
1.011012,0.09950244,0.1010285
1.013197,0.09745707,0.09367198
1.016133,0.09951123,0.08590707
1.015893,0.09943882,0.09015335
1.013055,0.09963177,0.09805564
1.013471,0.09988585,0.09823655
1.013207,0.09775937,0.09543256
1.013627,0.09971506,0.09238803
1.014914,0.1004961,0.09513844
1.014106,0.09859597,0.1012846
1.015311,0.09935275,0.09920201
1.013985,0.1019472,0.1000597
1.011162,0.1050927,0.1081896
1.01285,0.1028458,0.1121104
1.012805,0.09975181,0.1083122
1.012196,0.1021022,0.1013228
1.013936,0.1033218,0.09971075
1.014901,0.1060268,0.09537569
1.015632,0.1087221,0.09094816
1.01548,0.1021673,0.09868665
1.015918,0.09585632,0.1019299
1.016842,0.09906389,0.09972151
1.014852,0.1026193,0.1028705
1.013125,0.1025852,0.1048866
1.013884,0.1026859,0.1046087
1.013326,0.0994806,0.1028079
1.009193,0.09473186,0.1007128
1.005928,0.09473591,0.09801127
1.008544,0.0988751,0.09743564
1.012558,0.103042,0.1001877
1.013846,0.1018225,0.0989744
1.015266,0.1008585,0.09995945
1.014091,0.106008,0.1029268
1.010417,0.1086797,0.1049748
1.011909,0.1072549,0.1096188
1.014369,0.1043119,0.1053139
1.013645,0.1002093,0.100742
1.013706,0.0977454,0.107273
1.011923,0.09648927,0.1094703
1.009468,0.09728159,0.1061704
1.009551,0.09768232,0.1055017
1.009757,0.09666739,0.1090877
1.010199,0.09772422,0.1118373
1.011397,0.09813311,0.1064045
1.013028,0.09949467,0.1006956
1.012868,0.1035569,0.09989417
1.011874,0.1058834,0.09923222
1.012864,0.103624,0.101439
1.012544,0.0996513,0.1058081
1.012179,0.1012575,0.1046551
1.01287,0.102378,0.1028552
1.011907,0.09922288,0.1050616
1.010742,0.09923944,0.1037872
1.009499,0.09907963,0.101745
1.010181,0.1006964,0.1016371
1.011994,0.1045417,0.1010149
1.010917,0.1035109,0.1036425
1.010801,0.1038248,0.1048541
1.011551,0.1047761,0.104137
1.010813,0.1026723,0.1054946
1.011173,0.102672,0.1031885
1.011239,0.1028593,0.09789763
1.010906,0.1026549,0.09586119
1.011463,0.1029567,0.09855071
1.011748,0.1027822,0.09914925
1.011853,0.1035896,0.09599356
1.011041,0.1033799,0.09603284
1.010862,0.101618,0.09751617
1.012398,0.100579,0.09912102
1.012149,0.09969528,0.09916044
1.009742,0.09826168,0.09771794
1.007588,0.09815588,0.09916428
1.007732,0.09949486,0.09865331
1.008152,0.1002533,0.09811067
1.00688,0.101684,0.09870881
1.009867,0.1021868,0.09547372
1.015277,0.101565,0.09374596
1.015903,0.1029579,0.09486294
1.015089,0.1013482,0.09771927
1.015203,0.09873769,0.1012925
1.015135,0.1001569,0.1018973
1.014314,0.09920754,0.1011707
1.012545,0.09700295,0.09988501
1.012243,0.0971716,0.09776288
1.012608,0.09683448,0.0948627
1.012477,0.09550956,0.0939626
1.012358,0.09440976,0.09682637
1.011536,0.0968502,0.0991896
1.010905,0.1001414,0.1015688
1.01081,0.09968124,0.1035476
1.010375,0.1003482,0.1035952
1.009622,0.1012403,0.1060305
1.010547,0.09841168,0.1095284
1.01284,0.09668356,0.1083615
1.013569,0.09571101,0.1044528
1.014355,0.09360848,0.1031139
1.015735,0.09449561,0.1031642
1.016,0.09591064,0.1033947
1.015039,0.09633727,0.1023982
1.012818,0.0993077,0.09844189
1.011126,0.1006353,0.09654971
1.009911,0.0983111,0.09717406
1.009708,0.09785249,0.09833396
1.011753,0.0992146,0.09909905
1.012787,0.09862845,0.09806107
1.011577,0.09817042,0.09804992
1.009694,0.09852293,0.09794817
1.009355,0.09577051,0.0989958
1.010229,0.0934547,0.1021746
1.010445,0.09447909,0.1037029
1.011914,0.0947411,0.1034811
1.014221,0.09481603,0.09960514
1.016572,0.09725976,0.09763234
1.017015,0.1011464,0.1009613
1.013057,0.1041343,0.1010473
1.009858,0.1058618,0.09690679
1.0093,0.1051672,0.09292565
1.009279,0.1019085,0.0947802
1.008329,0.1003884,0.1002056
1.006973,0.09802598,0.1019096
1.011229,0.09505984,0.1019295
1.016257,0.09603172,0.1004064
1.015673,0.09597822,0.09849577
1.016343,0.09547881,0.09708629
1.017378,0.09658876,0.09713971
1.015065,0.09733926,0.102559
1.013848,0.09922615,0.1054619
1.012706,0.09896144,0.1040407
1.009938,0.09793875,0.1040147
1.008441,0.09925095,0.1028233
1.008044,0.09942998,0.0980122
1.008859,0.1000532,0.0914727
1.011975,0.1002463,0.09315796
1.016632,0.09865216,0.1012193
1.019035,0.09853326,0.1046295
1.01527,0.09877916,0.1050793
1.012335,0.09945621,0.1044773
1.014492,0.100598,0.1073992
1.015108,0.1008295,0.109807
1.014709,0.101552,0.1061011
1.013906,0.1012618,0.1063376
1.011325,0.09913958,0.1034525
1.010507,0.09730777,0.09808328
1.009775,0.0967674,0.1015467
1.00908,0.09759148,0.09967478
1.010203,0.09858961,0.09810155
1.010079,0.1006069,0.1081421
1.011154,0.1032975,0.1121955
1.012741,0.1039082,0.1060414
1.008919,0.1039675,0.09979004
1.006466,0.1035612,0.09951437
1.012311,0.102067,0.1001077
1.017203,0.1018398,0.09863185
1.013313,0.1012702,0.1030227
1.008753,0.1000858,0.1040835
1.008971,0.1002317,0.1029993
1.008385,0.1007476,0.1078608
1.008759,0.1009587,0.1103541
1.010439,0.09790632,0.1146481
1.008204,0.09306458,0.1127544
1.006042,0.09219911,0.1047967
1.005336,0.09189634,0.105601
1.005704,0.09135816,0.1018446
1.009099,0.09423856,0.09826654
1.0121,0.09682595,0.09994673
1.013229,0.09778809,0.09732569
1.012267,0.09831482,0.09997004
1.011141,0.09846058,0.1009818
1.011362,0.09896725,0.09897604
1.0104,0.09917971,0.1018363
1.009424,0.1020078,0.1012742
1.008206,0.1056023,0.1014596
1.009135,0.104309,0.1027012
1.01344,0.1034135,0.1024293
1.014665,0.1047139,0.1030923
1.014685,0.1035404,0.09997608
1.01483,0.1014405,0.09659153
1.011662,0.100184,0.09434807
1.008861,0.0999208,0.09401338
1.010099,0.0984973,0.09720735
1.01243,0.09527028,0.09830402
1.011787,0.09540128,0.09894782
1.012211,0.09740372,0.1000236
1.013558,0.09983736,0.1043374
1.012692,0.1040369,0.1107763
1.013922,0.1023141,0.1079318
1.012092,0.09790397,0.1023075
1.007039,0.09878648,0.100749
1.006529,0.09869213,0.09928374
1.007969,0.09807332,0.1000335
1.012441,0.0982101,0.1004023
1.01683,0.09638511,0.09973049
1.014698,0.09669017,0.1007875
1.012733,0.09826713,0.09987111
1.014019,0.1014617,0.09747425
1.012863,0.1055644,0.09624964
1.009003,0.1059539,0.09739255
1.008192,0.1070223,0.1029157
1.011056,0.1073121,0.1069538
1.013083,0.1044218,0.1023911
1.011076,0.1037153,0.09627886
1.008541,0.1027354,0.09693654
1.010869,0.09979318,0.09970444
1.012111,0.09788185,0.100652
1.01137,0.09823682,0.1009964
1.013054,0.09876338,0.09884048
1.012632,0.09560177,0.09528302
1.012073,0.09343877,0.09555809
1.012535,0.09514243,0.09939539
1.009969,0.09729817,0.1044483
1.006519,0.09913265,0.1094643
1.005159,0.09785476,0.1081957
1.008185,0.09546209,0.101679
1.011092,0.09633342,0.0986099
1.009569,0.1004077,0.09782581
1.009588,0.1096424,0.09684123
1.012345,0.1161288,0.09494337
1.014838,0.1098213,0.09178229
1.016646,0.1039936,0.09038218
1.016236,0.1084686,0.08850708
1.01599,0.109866,0.0830168
1.018734,0.1072682,0.07617443
1.020333,0.1069174,0.07481786
1.018706,0.1027024,0.07531079
1.016522,0.09934119,0.07060272
1.014757,0.09888276,0.07222192
1.015177,0.09605561,0.07806336
1.017649,0.09480019,0.08017386
1.018243,0.09239376,0.08337505
1.017137,0.09106304,0.0803926
1.01637,0.09278581,0.07549693
1.016133,0.09125473,0.07675774
1.014845,0.09335402,0.08225607
1.0114,0.09579643,0.09149449
1.010612,0.09368322,0.08929206
1.013351,0.09644001,0.08013168
1.014406,0.1035438,0.07707046
1.013565,0.1094229,0.0731611
1.011894,0.1027202,0.07475753
1.01152,0.08976621,0.07641266
1.015503,0.09077448,0.07248602
1.019617,0.09304571,0.07410221
1.018536,0.09022955,0.07431037
1.017107,0.09024898,0.07609134
1.019566,0.08742837,0.08168457
1.019724,0.08719312,0.07968517
1.017463,0.09100029,0.07598149
1.015531,0.09293187,0.07297105
1.012796,0.09615031,0.07009586
1.014011,0.09812529,0.07199481
1.016522,0.09762121,0.07709199
1.015963,0.09845676,0.08173282
1.014442,0.1001631,0.08288135
1.011466,0.09999106,0.08334313
1.011963,0.09874375,0.08349024
1.013607,0.09871178,0.08248345
1.01174,0.09852274,0.08325814
1.012579,0.09974018,0.08388248
1.013306,0.1014381,0.08409839
1.01403,0.1009724,0.0848534
1.01806,0.09984675,0.08500459
1.018333,0.09788776,0.0845057
1.015711,0.09832371,0.08463636
1.013787,0.09933351,0.08485415
1.012649,0.09767433,0.08352117
1.013288,0.09682148,0.08246139
1.013134,0.09459394,0.08032048
1.011634,0.09356947,0.07927962
1.008766,0.0947667,0.08271626
1.006468,0.09245132,0.08377239
1.009493,0.09112067,0.08267391
1.013452,0.09411778,0.08472913
1.012276,0.1005833,0.08885793
1.009167,0.1064079,0.09165169
1.008097,0.1043862,0.08636269
1.0091,0.1009202,0.0791076
1.011206,0.1022038,0.08339079
1.013323,0.1040044,0.086372
1.019613,0.1050226,0.07884715
1.027594,0.100965,0.07563661
1.024143,0.09463467,0.074622
1.017751,0.09691845,0.07074266
1.017922,0.09812608,0.07014423
1.01272,0.09179218,0.06948191
1.006729,0.08769957,0.06950112
1.006484,0.08337212,0.07249034
1.00988,0.07842747,0.07398382
1.020688,0.07405015,0.07206838
1.026962,0.06397853,0.06957163
1.025424,0.05714376,0.06983176
1.024287,0.06753475,0.06879705
1.020075,0.08640742,0.0680244
1.019983,0.09381018,0.0728865
1.021245,0.09410912,0.07633523
1.014874,0.09481235,0.07427683
1.010123,0.09074119,0.0724316
1.008711,0.09121593,0.07263477
1.010485,0.09271045,0.07053306
1.014779,0.08931141,0.06824892
1.019213,0.0893231,0.07029825
1.023735,0.08587298,0.07246914
1.021665,0.08330849,0.07317477
1.018673,0.08581918,0.07075176
1.018277,0.08621103,0.06622825
1.016339,0.08865979,0.06673206
1.015043,0.09085042,0.06390553
1.01058,0.09356557,0.05780021
1.010754,0.09558267,0.06292991
1.018453,0.09190956,0.06797895
1.022063,0.09175528,0.06571565
1.02251,0.09572798,0.07096298
1.018417,0.09905675,0.07782201
1.014886,0.09947352,0.07463853
1.017256,0.09752247,0.07056231
1.016627,0.09768782,0.06960575
1.015058,0.09508045,0.07012483
1.013566,0.09143889,0.07802191
1.011386,0.09162364,0.08614173
1.011807,0.09153306,0.08445043
1.011583,0.09176111,0.07990485
1.013772,0.09177467,0.0754906
1.018269,0.09174934,0.07180731
1.018198,0.09374222,0.07323749
1.014964,0.09482889,0.07821716
1.013231,0.09463406,0.08505501
1.014697,0.09420007,0.08821263
1.015965,0.0944256,0.08403995
1.015485,0.09416766,0.07351446
1.016843,0.09146631,0.06146568
1.018863,0.08961207,0.0648056
1.017814,0.09001714,0.07374231
1.015588,0.09122023,0.07312488
1.014218,0.09290275,0.08121792
1.013343,0.09496726,0.08592046
1.014002,0.09460907,0.07919504
1.014171,0.09093533,0.08444347
1.013678,0.09023307,0.08639896
1.015027,0.09303538,0.08122865
1.015548,0.09521827,0.08075773
1.015194,0.09479787,0.07618134
1.014793,0.09267376,0.07785121
1.012502,0.09318403,0.08301224
1.011292,0.09322377,0.08296583
1.015211,0.09259216,0.08458348
1.019636,0.09341011,0.0839453
1.016624,0.0920148,0.08612472
1.013423,0.09261542,0.08716303
1.016023,0.0958816,0.08224204
1.015225,0.0990881,0.08313835
1.012738,0.1018123,0.08392061
1.012965,0.1004134,0.08240638
1.013797,0.09856095,0.08160422
1.015414,0.09866935,0.07799474
1.012054,0.09940239,0.07777993
1.008481,0.09962415,0.08166052
1.013718,0.09543726,0.08335491
1.017754,0.09224292,0.07835372
1.015418,0.09631807,0.07248747
1.012811,0.1007461,0.07560011
1.012462,0.09951386,0.07988412
1.014314,0.09903414,0.07986578
1.015754,0.1001731,0.07766313
1.014543,0.09767115,0.07348235
1.013177,0.09734218,0.07454609
1.014024,0.09679246,0.07732314
1.014185,0.09097396,0.07659592
1.013496,0.08845733,0.0809922
1.014128,0.09194468,0.0837239
1.013887,0.09640696,0.0759959
1.01353,0.09596084,0.0695805
1.013236,0.09551507,0.07170545
1.012221,0.0987539,0.07438144
1.013527,0.09658191,0.07523576
1.015325,0.09466259,0.0831686
1.015416,0.09503385,0.0893587
1.014927,0.09302768,0.08526306
1.013402,0.09330127,0.08535174
1.012198,0.09127834,0.08706945
1.013187,0.09069117,0.08443419
1.014154,0.09297,0.08469053
1.012087,0.09124274,0.08478903
1.010572,0.09343333,0.08403409
1.013213,0.09525307,0.08193561
1.015608,0.09206911,0.07750069
1.015284,0.09201817,0.07549563
1.014039,0.09503933,0.0729069
1.012737,0.0982469,0.06964716
1.012209,0.09587177,0.07046791
1.012503,0.09343603,0.07164134
1.012646,0.0986831,0.07061075
1.012388,0.1006207,0.07208507
1.013032,0.09624148,0.07583228
1.015276,0.09359831,0.07868704
1.017011,0.0968405,0.08275128
1.015094,0.100235,0.08585252
1.011828,0.09717272,0.08487813
1.012257,0.09544313,0.0826752
1.013022,0.09608769,0.08054155
1.01226,0.09435528,0.07801187
1.013544,0.09327295,0.07595764
1.014448,0.09189343,0.07508147
1.014817,0.09227581,0.07534735
1.016488,0.09733022,0.07711824
1.017358,0.1011548,0.07767611
1.018398,0.09884991,0.0774427
1.018988,0.09605197,0.08092411
1.015274,0.1003513,0.08727582
1.010754,0.1037153,0.09315225
1.012582,0.1014865,0.08808215
1.016437,0.1006185,0.07552846
1.016493,0.09858847,0.07356973
1.016067,0.09508364,0.07613965
1.014991,0.093649,0.07878247
1.014774,0.09294441,0.08417755
1.015665,0.0938251,0.08592817
1.013055,0.09488936,0.08812523
1.012411,0.09449579,0.08871292
1.015432,0.09421589,0.08317321
1.017522,0.09472812,0.07896572
1.01805,0.09543624,0.07991874
1.017387,0.09607798,0.08181722
1.017397,0.09682183,0.07978499
1.014877,0.09654283,0.07929932
1.010799,0.09672681,0.0803251
1.009696,0.09830545,0.08091769
1.010839,0.09812183,0.08398354
1.014036,0.09416197,0.08020089
1.014544,0.09004465,0.07543882
1.014766,0.09132926,0.07786388
1.01647,0.09272807,0.07555458
1.014483,0.09094464,0.07211474
1.015208,0.09243356,0.07390914
1.015839,0.09618884,0.07535711
1.013484,0.1004855,0.07668619
1.014212,0.102239,0.07842434
1.013171,0.09709458,0.07733286
1.011036,0.09344415,0.07362041
1.009575,0.09466268,0.07254306
1.01044,0.0958711,0.07741654
1.01596,0.09782371,0.08354272
1.017513,0.099226,0.08285739
1.016319,0.09847204,0.08040729
1.015636,0.09744736,0.08314546
1.013871,0.09672731,0.08354852
1.013866,0.0954127,0.08301292
1.013765,0.09391771,0.08428553
1.014108,0.09480364,0.08413964
1.014787,0.09749556,0.08462585
1.014488,0.09921695,0.08016696
1.01513,0.09874427,0.07571736
1.01597,0.09722251,0.0773225
1.017277,0.0973097,0.07368834
1.016412,0.09818716,0.06990198
1.014296,0.09769143,0.07505385
1.014661,0.09350646,0.07913823
1.01696,0.08976572,0.07343568
1.019591,0.09687289,0.07028191
1.013802,0.1049696,0.08214348
1.006811,0.1010133,0.09031713
1.011704,0.09664875,0.08128626
1.014582,0.0932699,0.07314813
1.012328,0.08728419,0.07701283
1.014402,0.09265211,0.08064241
1.015346,0.100213,0.07987825
1.014865,0.09659336,0.0813719
1.015364,0.09637218,0.08063369
1.013713,0.09861888,0.0814454
1.013548,0.09727233,0.08682224
1.015933,0.09909397,0.08689185
1.015315,0.0990302,0.08245613
1.012905,0.09785644,0.07801888
1.012223,0.0995603,0.08175629
1.012379,0.1001901,0.08780522
1.013372,0.1010714,0.08385556
1.016081,0.09836975,0.08387943
1.018465,0.09398465,0.08594603
1.015605,0.09581814,0.08238549
1.010382,0.09690077,0.08167704
1.011148,0.09613958,0.08013132
1.014479,0.09861943,0.07996942
1.015446,0.09867776,0.08237258
1.014849,0.09508671,0.08437083
1.013305,0.09184555,0.08935516
1.014701,0.08997639,0.0901206
1.016341,0.09093663,0.08822488
1.015482,0.09404236,0.0860698
1.016112,0.09651844,0.08042415
1.015352,0.09535539,0.08356946
1.014606,0.09222925,0.08737877
1.016433,0.09210041,0.07710223
1.017737,0.09182623,0.07069836
1.020086,0.0917553,0.07511742
1.019607,0.09579808,0.0783391
1.015608,0.09780461,0.08013415
1.01406,0.09524055,0.08370192
1.013791,0.0913946,0.08501253
1.015685,0.08947291,0.08003424
1.017091,0.09085566,0.07580424
1.013707,0.0927296,0.07690713
1.011532,0.0934456,0.07663559
1.01245,0.09108337,0.07490555
1.012899,0.08930605,0.07601006
1.012857,0.09088091,0.08042905
1.015552,0.09115654,0.08363069
1.020484,0.09175311,0.0777897
1.02067,0.09328214,0.07081554
1.015179,0.09745549,0.07571704
1.010921,0.1034126,0.08143023
1.012902,0.1010322,0.08009708
1.015231,0.09720285,0.08113844
1.01237,0.09921356,0.08260891
1.011887,0.09876503,0.08286175
1.013529,0.0974974,0.08226397
1.013835,0.09650135,0.07834741
1.015958,0.09335954,0.08002494
1.015645,0.0940278,0.08627375
1.01472,0.09539438,0.08804427
1.016884,0.09378926,0.0802372
1.017527,0.0943436,0.06934994
1.017161,0.09355301,0.07404327
1.015734,0.09050997,0.08084862
1.014688,0.09015041,0.07963981
1.016725,0.09108093,0.08471459
1.017717,0.09210118,0.08364823
1.017245,0.09179762,0.07909839
1.016422,0.09124043,0.08165085
1.01538,0.09203564,0.07833522
1.015374,0.09190469,0.07754935
1.015634,0.09331942,0.08104548
1.017959,0.09454445,0.08098815
1.019579,0.09083,0.08374782
1.014847,0.08787487,0.0836844
1.009793,0.09100156,0.08260898
1.010793,0.09514497,0.08374728
1.012907,0.09406705,0.08032096
1.012687,0.09244473,0.07723628
1.014227,0.09470024,0.07775717
1.016106,0.09522427,0.08200809
1.015153,0.09380594,0.08376339
1.015061,0.09449552,0.08045181
1.015339,0.09497995,0.08255694
1.014061,0.0953094,0.08451035
1.01278,0.09804202,0.08414867
1.012112,0.09939186,0.08574982
1.012227,0.09833829,0.08410931
1.010856,0.09854802,0.08455814
1.009335,0.09876048,0.08545632
1.011789,0.09742498,0.08424581
1.014854,0.09331788,0.08702709
1.014002,0.08949548,0.08712745
1.011397,0.09412386,0.08285891
1.010437,0.09983342,0.0793409
1.010268,0.09711763,0.08081493
1.011883,0.09615883,0.08726112
1.015248,0.09927092,0.08967836
1.015155,0.09852158,0.08834233
1.014058,0.09832512,0.08685078
1.013357,0.0994766,0.08678737
1.010585,0.09991701,0.08570958
1.013152,0.1018098,0.07902274
1.01711,0.09937311,0.07734063
1.013944,0.09428109,0.08353132
1.013175,0.09222228,0.08764796
1.015527,0.09173702,0.08587265
1.015209,0.09545335,0.08337601
1.015024,0.09958237,0.08717016
1.013483,0.09888289,0.0882011
1.012165,0.09795629,0.08484234
1.014669,0.09808559,0.08595995
1.017813,0.09813105,0.09058816
1.017814,0.09946107,0.09659822
1.01335,0.1005301,0.09541127
1.00998,0.09840748,0.09240111
1.012617,0.09535406,0.09543191
1.014736,0.09448964,0.09259209
1.01099,0.09673316,0.09025469
1.008497,0.09995885,0.09291226
1.011333,0.09861802,0.09311336
1.013484,0.09679149,0.09423025
1.014087,0.09720005,0.09136274
1.014191,0.09420484,0.08736524
1.013499,0.09287521,0.09079552
1.014055,0.09743547,0.09238019
1.013998,0.1034113,0.08823398
1.013627,0.1046196,0.08464765
1.014318,0.09825625,0.0838778
1.014654,0.09389695,0.08352679
1.015172,0.09686218,0.08320545
1.013727,0.1019686,0.08495948
1.011585,0.1053579,0.08558353
1.012154,0.104671,0.08571278
1.011127,0.1033524,0.09005543
1.010069,0.1040838,0.09318316
1.015868,0.1026583,0.09148052
1.021515,0.1002263,0.09115839
1.017852,0.09945343,0.09216653
1.013451,0.09485673,0.09147852
1.014115,0.0901468,0.09210623
1.013,0.09502089,0.0945609
1.012402,0.09954747,0.09593621
1.01329,0.09601386,0.09301147
1.011792,0.09296484,0.08757464
1.012562,0.09230306,0.08658321
1.012855,0.09548444,0.08872557
1.010357,0.1014165,0.09117313
1.008636,0.09988234,0.09491363
1.006692,0.09687743,0.09405524
1.010066,0.09943443,0.08734727
1.014433,0.0987929,0.08307901
1.011275,0.09806315,0.08422231
1.010338,0.1000631,0.08591989
1.012847,0.098803,0.08486944
1.013469,0.0975194,0.08422541
1.014175,0.09715936,0.08357383
1.014135,0.09787403,0.08296254
1.01456,0.09901541,0.0865767
1.015732,0.09654909,0.08849152
1.015321,0.09551087,0.08714281
1.015039,0.09773478,0.08757565
1.015446,0.09923926,0.08746738
1.014912,0.09883909,0.08731275
1.013389,0.09787452,0.08779409
1.011716,0.09824973,0.09132822
1.010439,0.09771296,0.09801339
1.010287,0.09753603,0.09774023
1.013309,0.09767605,0.09251102
1.018403,0.09742919,0.09053749
1.018578,0.1019882,0.08906065
1.014106,0.105762,0.0851132
1.011542,0.1038136,0.08226827
1.010722,0.10183,0.08513603
1.011896,0.101141,0.08877412
1.013124,0.1012725,0.08930773
0.9357487,0.3200237,0.1790446
0.9343469,0.3181865,0.180678
0.9363414,0.3175503,0.1858445
0.9387152,0.3193168,0.1933024
0.937052,0.3248015,0.1950004
0.9374235,0.3292717,0.191536
0.9377606,0.3293661,0.1933592
0.9372389,0.3263323,0.1933334
0.9377089,0.3258469,0.1903356
0.9368144,0.3250044,0.1925635
0.9349048,0.3227716,0.200584
0.9326882,0.326314,0.2096714
0.9338289,0.3319789,0.2024347
0.934866,0.342674,0.1840297
0.9298989,0.3554422,0.1765731
0.9288787,0.3525749,0.1786623
0.9410494,0.333641,0.1873366
0.9527227,0.3120874,0.1996856
0.94355,0.3089982,0.2105238
0.9253099,0.3266517,0.2117527
0.9220006,0.3358239,0.1976907
0.9332876,0.3271724,0.1883458
0.9449208,0.3194534,0.1883385
0.9412991,0.3152032,0.1932378
0.9347957,0.3023154,0.2024518
0.9391997,0.2938533,0.1978676
0.9365047,0.3017865,0.1932096
0.9352035,0.3100027,0.1934151
0.9429037,0.3156439,0.1852098
0.9449591,0.3154115,0.1909403
0.9468456,0.3033408,0.2036902
0.9441107,0.2990088,0.2137068
0.9375543,0.302845,0.2307675
0.9322655,0.3057329,0.2335594
0.9233473,0.3126963,0.2238965
0.9227235,0.3134848,0.2179341
0.9252553,0.3033914,0.2125935
0.927318,0.2935857,0.2161862
0.933606,0.2975547,0.2245709
0.9349813,0.3196425,0.2286938
0.9379122,0.3486202,0.235945
0.9381061,0.3642579,0.2347995
0.9314109,0.349531,0.2269081
0.9286585,0.3316496,0.2334403
0.9240143,0.3324265,0.2373053
0.9195774,0.3326508,0.2334933
0.9233324,0.332965,0.2354995
0.9312657,0.3224895,0.2324737
0.9353308,0.3013524,0.2319237
0.9331165,0.2967051,0.2383238
0.9327408,0.2942732,0.2408996
0.933852,0.2922067,0.2381935
0.9327988,0.2955465,0.2243383
0.9315019,0.2911069,0.2101615
0.9304434,0.2919832,0.2082423
0.9340788,0.2954467,0.2147305
0.9440844,0.2937787,0.2201938
0.9500372,0.295423,0.2189032
0.9412885,0.2986178,0.224717
0.9311687,0.3079531,0.2319434
0.9341258,0.3178996,0.2269538
0.9360754,0.3174673,0.2229635
0.9359277,0.3131438,0.2230515
0.9411219,0.3060476,0.222008
0.9404319,0.2961653,0.2229637
0.9384444,0.2890728,0.228265
0.939691,0.2826871,0.2322713
0.9373573,0.2809332,0.2330106
0.9355887,0.2912748,0.2348648
0.9324851,0.2989819,0.2345951
0.9311774,0.2973689,0.2357333
0.9332961,0.3000511,0.2351582
0.9312194,0.3037214,0.2287137
0.9334589,0.3059516,0.2291785
0.9380681,0.313426,0.2326161
0.9388171,0.3222899,0.234948
0.9380581,0.3259223,0.2391374
0.9313855,0.3253279,0.2414794
0.9264075,0.3283425,0.2443153
0.9269023,0.3291152,0.242964
0.9313574,0.3246934,0.2399247
0.939936,0.3192971,0.2399649
0.9413099,0.3022853,0.238439
0.9364818,0.2859357,0.2420114
0.9298506,0.285894,0.2465251
0.9239861,0.291644,0.247015
0.926456,0.2978406,0.2495544
0.9305159,0.2998791,0.250367
0.9342307,0.3046279,0.2496747
0.9393989,0.3131303,0.2481958
0.9367272,0.3090634,0.2471647
0.9288686,0.3059992,0.2522153
0.9254307,0.3100386,0.2602211
0.9276388,0.3077267,0.2643485
0.9315099,0.3068981,0.2607465
0.9311662,0.3080905,0.2558591
0.9304711,0.3088202,0.2498184
0.9324263,0.3111511,0.2398992
0.929256,0.305226,0.2412056
0.9261105,0.2984377,0.2464693
0.9264772,0.3018017,0.2433057
0.9217569,0.3053206,0.2455438
0.9189701,0.3086985,0.2458344
0.9270139,0.3155723,0.240629
0.9389914,0.315741,0.2441825
0.941377,0.309725,0.2462382
0.9317828,0.3072881,0.2452423
0.9238915,0.3077292,0.248144
0.9238234,0.3070647,0.2521011
0.9252203,0.3061773,0.2587077
0.9248211,0.3112212,0.2571763
0.9285728,0.3173678,0.2502049
0.9344198,0.3116487,0.2494036
0.9332426,0.305189,0.248449
0.9300573,0.3074709,0.2516766
0.925721,0.3081341,0.2572419
0.9199062,0.3073977,0.2601416
0.9210036,0.3052935,0.2611518
0.9254591,0.3019604,0.2559878
0.9285265,0.3060494,0.2546665
0.9284225,0.310066,0.2557782
0.9246011,0.3062659,0.258415
0.9224853,0.3048068,0.2672206
0.9207733,0.30878,0.2659385
0.9210466,0.3101401,0.2626779
0.9252121,0.3064334,0.2657455
0.9257092,0.3017477,0.2666898
0.9253376,0.3004617,0.270493
0.9270827,0.3022536,0.2687152
0.9262893,0.3045796,0.2626298
0.9259608,0.3078709,0.2624092
0.9261943,0.308507,0.2613391
0.9265987,0.3034086,0.2590154
0.9301335,0.3009227,0.2552309
0.9306484,0.3066477,0.2542129
0.9256577,0.3120459,0.2574401
0.9221674,0.3099682,0.2577382
0.9242185,0.3087249,0.2597978
0.9289544,0.3124997,0.2590883
0.9314089,0.3129695,0.2550107
0.9308104,0.311563,0.2568658
0.9283761,0.310177,0.2549096
0.9253703,0.3072393,0.2509818
0.9235416,0.3081063,0.2531786
0.9264758,0.3094484,0.2528222
0.9312168,0.3095148,0.2504636
0.9292727,0.311141,0.2503116
0.9279174,0.307716,0.2525623
0.9303273,0.3030426,0.2562379
0.9289156,0.3050053,0.2560328
0.9293903,0.3073917,0.2545357
0.929741,0.3067137,0.2541297
0.9264997,0.305976,0.2534917
0.9267989,0.3054131,0.2589472
0.9270527,0.3053234,0.2668573
0.9275566,0.3058279,0.2662351
0.9299784,0.3056516,0.2623336
0.9283878,0.3065005,0.2578816
0.9267487,0.3083305,0.2511989
0.9272315,0.3090727,0.2549829
0.9262128,0.3109616,0.2625668
0.9258465,0.3131129,0.2585364
0.9258936,0.3113874,0.2577588
0.9245905,0.3072436,0.2616286
0.924938,0.3048075,0.259942
0.9263522,0.3052978,0.2611652
0.9261824,0.3065623,0.2624232
0.9254343,0.3058068,0.2628824
0.9240138,0.3051601,0.2666504
0.9241355,0.3077405,0.2648292
0.926497,0.3081774,0.2607525
0.9263631,0.3035542,0.2594169
0.9243605,0.3002601,0.2590132
0.9235255,0.3023261,0.2604015
0.9251497,0.3068511,0.2596583
0.9273663,0.3083959,0.2587091
0.9267498,0.3083499,0.2576649
0.9278375,0.3086237,0.2541593
0.9310886,0.3079276,0.2543634
0.931037,0.3090836,0.2549845
0.9312101,0.3111319,0.2542427
0.9333568,0.3129425,0.255873
0.9336706,0.3132472,0.25401
0.9331484,0.3110685,0.2515757
0.9326299,0.3101394,0.2534751
0.9296427,0.3076848,0.2551408
0.9259234,0.3062521,0.2577129
0.9267661,0.3071922,0.2600508
0.9296958,0.3053259,0.2590002
0.9285982,0.3063335,0.2584532
0.9252419,0.3073285,0.2584419
0.9228442,0.3074207,0.257311
0.9230114,0.3123734,0.2572362
0.9246109,0.3141041,0.2570955
0.9242411,0.3137676,0.2556309
0.9256291,0.313946,0.2555346
0.9292947,0.3115628,0.2567857
0.9304411,0.310562,0.2590381
0.9284971,0.3091225,0.2641683
0.9250367,0.3076861,0.2685605
0.9257619,0.3074966,0.2685308
0.9265754,0.30644,0.2676034
0.9228662,0.3061198,0.2681861
0.9234002,0.3053207,0.2676625
0.92389,0.30553,0.2642456
0.9211161,0.3068174,0.2584172
0.9220423,0.3074481,0.2543428
0.926724,0.3093343,0.2586015
0.9321419,0.3097849,0.2662011
0.9286612,0.3101571,0.2671647
0.9226969,0.3137646,0.2637587
0.9260028,0.3145362,0.2615245
0.9273381,0.3092326,0.2622692
0.9271299,0.3051571,0.2632136
0.927776,0.3057477,0.2616764
0.9244335,0.307315,0.2606792
0.9246992,0.3089945,0.259566
0.9259767,0.3087552,0.2590634
0.9259925,0.3085749,0.2605746
0.9278241,0.3101644,0.260427
0.9260749,0.3078975,0.261608
0.9247682,0.3057969,0.2640721
0.9256706,0.3063363,0.2636697
0.9254303,0.3051932,0.2625216
0.9267904,0.3040727,0.2618561
0.9267104,0.3027125,0.2627826
0.9258133,0.3026099,0.2628467
0.9267972,0.3059254,0.2609517
0.9261331,0.308194,0.2585366
0.9249479,0.3083202,0.254652
0.9232319,0.3085283,0.2573605
0.9215167,0.3084731,0.2619372
0.9231952,0.3090414,0.2576485
0.9242589,0.3098885,0.2541961
0.9233245,0.3079116,0.2521151
0.9239462,0.3063044,0.2511995
0.9257148,0.3082913,0.2566417
0.928244,0.3106221,0.258615
0.9309966,0.3115755,0.2585209
0.9317424,0.3113292,0.2611675
0.9286634,0.3117493,0.2613031
0.924525,0.3122554,0.2625596
0.9242794,0.3089862,0.2635639
0.9239347,0.3064751,0.2630656
0.9217765,0.3111805,0.2665765
0.9229393,0.3153428,0.2664481
0.925059,0.3096373,0.26152
0.9260397,0.3025711,0.2611578
0.9236279,0.302362,0.2633213
0.9188571,0.3038538,0.2668793
0.9217037,0.3044844,0.2702874
0.9274918,0.3042875,0.2654337
0.9296317,0.3038202,0.2572199
0.9300623,0.3044373,0.2557975
0.9273241,0.304304,0.2573543
0.9274428,0.3048927,0.2570088
0.9287427,0.3064367,0.2570021
0.9281976,0.307427,0.257863
0.931702,0.309632,0.2586317
0.9324811,0.3103821,0.2586257
0.9300164,0.3091205,0.2598402
0.9279536,0.3088709,0.264665
0.9253741,0.3080682,0.2666796
0.9273052,0.3069399,0.2595521
0.928281,0.3061067,0.251718
0.9254901,0.3050726,0.2539787
0.9244141,0.3055388,0.2587424
0.9242928,0.3058687,0.2595084
0.9254535,0.3054304,0.2629571
0.9267061,0.3065646,0.2647936
0.9266471,0.3071242,0.262526
0.926546,0.3059654,0.2625195
0.9280527,0.3057906,0.264026
0.9296784,0.3081452,0.2678257
0.9273256,0.3107606,0.2702125
0.9256477,0.3101133,0.2663315
0.927466,0.3099208,0.26138
0.9282417,0.3118677,0.2574284
0.9275337,0.3109994,0.2551522
0.9268674,0.309549,0.2580289
0.9272029,0.309015,0.2627558
0.9279072,0.3077653,0.2617577
0.9276109,0.3083442,0.2597525
0.9258765,0.3086804,0.2619259
0.924537,0.3079516,0.2617178
0.9258856,0.3085372,0.2633144
0.9263925,0.3083567,0.2680807
0.9236065,0.3081546,0.2680801
0.921797,0.3085484,0.2657224
0.9247118,0.3081836,0.2593887
0.9278258,0.3083696,0.2538084
0.9263119,0.3084011,0.2597565
0.9259162,0.3082101,0.2648696
0.9279071,0.3080959,0.2603164
0.9278158,0.3064764,0.2587316
0.9277427,0.3053707,0.2632046
0.9278861,0.3071801,0.2642364
0.9274237,0.3092171,0.2608316
0.9270445,0.3084134,0.2579085
0.9260509,0.3077944,0.2576147
0.9262308,0.3087712,0.2580177
0.9267261,0.3082446,0.2563187
0.9261484,0.3081206,0.2553521
0.9264335,0.3082994,0.2541227
0.9270347,0.3063012,0.2516784
0.9289034,0.3050798,0.2540936
0.931325,0.3054411,0.2595919
0.9295801,0.3057817,0.2630686
0.9264467,0.3055329,0.2594937
0.9261284,0.3053719,0.2517081
0.9264193,0.3057825,0.2520175
0.9262317,0.3057985,0.254062
0.9255456,0.3072862,0.2535489
0.9249844,0.3087006,0.2583491
0.927108,0.3065613,0.2612464
0.9299685,0.3047191,0.2602048
0.9291689,0.3055407,0.2597341
0.9261972,0.3059552,0.2569752
0.9257354,0.305445,0.2545592
0.9268952,0.3064393,0.2551655
0.9263236,0.3079808,0.2552959
0.9264907,0.3094717,0.2539162
0.9286785,0.3115012,0.2562138
0.9304077,0.309252,0.2608455
0.930866,0.3045325,0.2617844
0.9295022,0.3044232,0.2620329
0.9279786,0.3060065,0.2626213
0.9258207,0.3053734,0.2628992
0.9230278,0.3035158,0.2645488
0.9257887,0.3026368,0.2664916
0.9293643,0.3046674,0.2671816
0.9265014,0.30795,0.2654252
0.9245208,0.3108828,0.2646616
0.9251769,0.3130647,0.2649189
0.923904,0.3121371,0.264805
0.9232975,0.3102962,0.2682314
0.9240863,0.312114,0.2700864
0.92535,0.3124036,0.2665973
0.9268027,0.3075316,0.2641377
0.9255017,0.3044662,0.2646764
0.9235738,0.3061125,0.2628728
0.9245855,0.3077635,0.2578432
0.9262511,0.3059188,0.2566131
0.926537,0.3047368,0.2584751
0.9254389,0.3062777,0.2618799
0.9245828,0.306164,0.2663715
0.9250596,0.3062586,0.2622879
0.9256692,0.3072205,0.2561959
0.9275425,0.3094,0.2581883
0.9300406,0.31342,0.2575258
0.9291524,0.3121543,0.2548291
0.9267007,0.308138,0.2567627
0.9261972,0.3066711,0.2570925
0.9262821,0.307155,0.2583004
0.9264454,0.3093303,0.2619143
0.9268714,0.3083455,0.2614729
0.9279687,0.3076208,0.2614691
0.9298427,0.3089499,0.2632578
0.9286954,0.3068355,0.2623706
0.9250162,0.3058871,0.2626128
0.922923,0.3066696,0.2646038
0.9231311,0.3077022,0.2652518
0.9242288,0.3091775,0.2632352
0.923498,0.3081788,0.258553
0.9237629,0.3088513,0.255256
0.9268208,0.3090308,0.2535061
0.9273734,0.3050442,0.2530305
0.9236156,0.3038048,0.2578135
0.9194998,0.3068549,0.264041
0.9228936,0.3093285,0.2649797
0.9300809,0.3073935,0.2634563
0.9311878,0.3048441,0.2647028
0.9301132,0.304904,0.2663244
0.9274102,0.3038468,0.2668031
0.9235069,0.3046089,0.2679751
0.9232704,0.3082442,0.2658246
0.9236033,0.3104263,0.2626167
0.9236014,0.310083,0.2649601
0.9228774,0.3079556,0.2671488
0.9227922,0.3074967,0.2669615
0.9250281,0.3078635,0.2685471
0.9253017,0.3081134,0.2670804
0.9250445,0.3089476,0.2617746
0.9259135,0.3079522,0.2619532
0.9266112,0.3078617,0.2672352
0.9262708,0.3070223,0.2687544
0.9242326,0.3044897,0.2670399
0.9236277,0.305813,0.2657549
0.9252399,0.3070828,0.2638643
0.927106,0.3074257,0.2620133
0.9263278,0.308306,0.2625305
0.9239062,0.3070394,0.265708
0.9237238,0.3068593,0.2674626
0.9242711,0.3074348,0.2662215
0.9251655,0.3081067,0.265092
0.9244643,0.3091269,0.265382
0.9227198,0.3078954,0.2680786
0.9239186,0.3079627,0.2698626
0.923989,0.3076428,0.269292
0.924254,0.3043712,0.2704988
0.9263893,0.3038883,0.270668
0.9256546,0.3055682,0.2672725
0.9246276,0.3075673,0.2623538
0.9249534,0.3090953,0.2589236
0.9252954,0.3081831,0.2583052
0.9268118,0.3077634,0.2573365
0.9309681,0.3068209,0.2580592
0.9339047,0.3051842,0.259648
0.9282312,0.3071937,0.2592453
0.9225345,0.3093143,0.2609591
0.9265034,0.3082809,0.2607231
0.9305106,0.3077279,0.2587684
0.9304869,0.3078145,0.2610648
0.9307224,0.306594,0.2642082
0.9290007,0.3066542,0.268762
0.925797,0.3081378,0.2730297
0.9235845,0.3102241,0.2751891
0.9232935,0.3135766,0.2743972
0.9258352,0.312632,0.2639956
0.926833,0.3086919,0.2556229
0.9251096,0.3077722,0.2581373
0.9240417,0.3063486,0.2609921
0.9244632,0.3050661,0.2631932
0.9271706,0.3056197,0.2657845
0.9285881,0.3055453,0.2638425
0.9275105,0.3054648,0.2590928
0.9276997,0.304757,0.2580737
0.9279201,0.3047598,0.2581009
0.927519,0.3058783,0.2566993
0.9269084,0.3060149,0.2578512
0.9261002,0.3071925,0.2558216
0.9263191,0.3089053,0.2525688
0.9267244,0.3086061,0.2541065
0.9272168,0.3084117,0.2587959
0.9280108,0.3111803,0.2682624
0.9272434,0.3131471,0.2714507
0.923963,0.310516,0.2652726
0.9213824,0.3080919,0.2627245
0.9229777,0.3097252,0.2631329
0.9254273,0.3138306,0.2640551
0.9249194,0.3155041,0.2639753
0.9238309,0.3102132,0.261401
0.9237787,0.3028448,0.2593854
0.9244538,0.3016477,0.2571711
0.9263209,0.30489,0.2576333
0.9268409,0.3071661,0.261397
0.9258744,0.3088676,0.2619816
0.9258027,0.3086465,0.2604839
0.9260215,0.3067309,0.261109
0.9281937,0.3071757,0.2615013
0.9298465,0.3084322,0.2607265
0.9271452,0.311056,0.2601704
0.9253678,0.3139146,0.2559007
0.9260317,0.3130965,0.2510267
0.9267,0.3127883,0.2532873
0.9280296,0.3119402,0.255767
0.9280561,0.3071179,0.2553616
0.9264529,0.3027009,0.2611099
0.9254588,0.3025027,0.2699168
0.9229537,0.3084615,0.2718257
0.919654,0.3176892,0.2677542
0.9202701,0.3222501,0.2641303
0.920795,0.3169644,0.2625557
0.9193896,0.3114795,0.2587343
0.9230356,0.3172592,0.2545494
0.9281078,0.3221663,0.2558581
0.92928,0.3211112,0.2559866
0.9304342,0.3222669,0.2522429
0.9292877,0.3172435,0.2549556
0.9256693,0.3040857,0.2667481
0.9249785,0.2951336,0.2772349
0.9207606,0.2987791,0.2743392
0.9115032,0.308387,0.2689402
0.910821,0.3106057,0.2731815
0.9207556,0.3101505,0.2697156
0.9297644,0.3105942,0.2590077
0.93036,0.3100066,0.258067
0.9263144,0.3085322,0.2676265
0.9258521,0.3043259,0.2790278
0.9264534,0.3083726,0.2734986
0.9243485,0.3157864,0.2636543
0.923353,0.3152624,0.2662433
0.9244999,0.3155843,0.2613536
0.9264355,0.3151706,0.2589611
0.9267635,0.3141734,0.2637442
0.9260347,0.3122636,0.2611543
0.9264133,0.3070369,0.2634896
0.9254742,0.3077878,0.2649136
0.9244176,0.3083117,0.2648497
0.92421,0.3059649,0.2697057
0.9235277,0.3071772,0.268665
0.9244042,0.3071245,0.2680329
0.9250931,0.3068705,0.2668405
0.9232234,0.3080069,0.2675179
0.9225511,0.3085262,0.2734097
0.9274865,0.3084817,0.2704424
0.9321155,0.3080844,0.2633004
0.9281731,0.3084782,0.255344
0.9238292,0.308174,0.2549902
0.9240229,0.3073046,0.2685761
0.9212906,0.3073718,0.2736501
0.9204979,0.3095752,0.2659968
0.9243533,0.3128936,0.2578173
0.9235839,0.3119541,0.2591183
0.9209507,0.3089489,0.2666147
0.9201842,0.3078587,0.2702987
0.9195665,0.3063849,0.2756547
0.9220477,0.3060449,0.2743897
0.9248465,0.3079479,0.2702118
0.9261634,0.31084,0.272381
0.9247054,0.3146683,0.267284
0.9206326,0.3144674,0.2662256
0.9229284,0.3070367,0.2732253
0.9244119,0.300226,0.2758431
0.9189782,0.3019166,0.2760351
0.9175831,0.3049845,0.2730722
0.920496,0.3038107,0.2701925
0.9251502,0.3066067,0.2620981
0.9278424,0.3083553,0.2547634
0.9257801,0.3047548,0.2626855
0.9247531,0.3056275,0.2707369
0.9220495,0.3068704,0.273688
0.9178422,0.3094804,0.2698672
0.918273,0.3156338,0.2607268
0.9218626,0.3152111,0.2611396
0.9249593,0.3134793,0.2597396
0.9249424,0.3107571,0.258218
0.9262955,0.3048472,0.265923
0.9317295,0.3064897,0.2685165
0.9340441,0.3091773,0.2691946
0.9300811,0.3065941,0.2677981
0.9241976,0.3058681,0.2630603
0.92247,0.3061145,0.2655772
0.9248669,0.3077937,0.2651606
0.9284162,0.3113432,0.2624574
0.9325531,0.3116936,0.2646676
0.9321876,0.311677,0.2635944
0.9270577,0.3096512,0.2626852
0.9234205,0.3015393,0.2634194
0.9211989,0.2983692,0.2655241
0.9208875,0.302991,0.2692753
0.9240525,0.3077747,0.2656388
0.9275871,0.3123002,0.2592644
0.928609,0.315213,0.257702
0.927253,0.315089,0.2596278
0.9265038,0.3125603,0.264159
0.9256564,0.3099447,0.2662605
0.9246325,0.3100761,0.2648977
0.9273374,0.3089283,0.2632001
0.9303657,0.3039039,0.2624277
0.9296496,0.3001329,0.2647312
0.9244242,0.302114,0.2681885
0.9186051,0.3058297,0.2671534
0.9209823,0.3056056,0.2605944
0.9259396,0.3042173,0.254252
0.9265007,0.3032642,0.2527024
0.9268126,0.3023808,0.2567836
0.926381,0.3050704,0.261988
0.9267923,0.3109108,0.2611431
0.9278914,0.3153744,0.2608455
0.9267011,0.3129187,0.2627268
0.9277884,0.3063167,0.2559725
0.9284809,0.3047514,0.2512497
0.9265437,0.3055975,0.2583607
0.9253894,0.3059418,0.2635347
0.9232915,0.307587,0.2611522
0.9255879,0.3085042,0.2597535
0.9324085,0.3085798,0.2610793
0.933135,0.3071331,0.2598264
0.92708,0.3065086,0.2612603
0.9213761,0.3071661,0.2667184
0.9229235,0.3057549,0.2671622
0.9258744,0.3055723,0.2662706
0.9259251,0.3069963,0.2659419
0.9320773,0.3098051,0.2647111
0.9347392,0.3119276,0.2651578
0.9276802,0.3091427,0.2633111
0.9241676,0.3072638,0.2607358
0.9219677,0.3077903,0.2594333
0.9193298,0.3068698,0.2568171
0.9233414,0.3047762,0.255197
0.9284225,0.3047541,0.256959
0.9259915,0.3095645,0.2591762
0.920429,0.312503,0.2564958
0.9195952,0.3119314,0.2548739
0.9216734,0.3123324,0.2587565
0.924614,0.3090165,0.260576
0.9245873,0.3054304,0.259419
0.9230917,0.3080295,0.2575898
0.926837,0.3091963,0.2565098
0.9288298,0.3078141,0.2574872
0.9296541,0.3086219,0.2596806
0.92767,0.3091571,0.2625122
0.9207781,0.3087672,0.26402
0.92414,0.3072175,0.2654886
0.9289848,0.3053892,0.2660158
0.927784,0.3049902,0.2644073
0.9261318,0.3029012,0.2645191
0.9177765,0.300511,0.2639724
0.9134502,0.3009941,0.2630934
0.9154403,0.3013681,0.2632004
0.9181051,0.3016276,0.2602775
0.9263625,0.3052375,0.2588391
0.9274241,0.3086034,0.2613746
0.9215165,0.3083431,0.2659455
0.9209653,0.3083365,0.2712368
0.9242035,0.3086352,0.2694354
0.9287217,0.308967,0.2634083
0.9275319,0.3102566,0.2610489
0.9243985,0.3091747,0.2577289
0.9244417,0.3067566,0.2555107
0.9223222,0.3050609,0.2607825
0.9260861,0.3050266,0.2669552
0.9325877,0.3069426,0.2660788
0.9306794,0.3089021,0.2638779
0.9294384,0.3121086,0.2659804
0.929711,0.3125741,0.2657271
0.9250877,0.3093879,0.2653407
0.9220426,0.3073286,0.267552
0.9228378,0.3027133,0.2655413
0.9236783,0.3007272,0.2645993
0.9279759,0.3069223,0.2654621
0.933048,0.311964,0.2631533
0.9272436,0.310328,0.2617457
0.9191675,0.3043895,0.2605319
0.9213773,0.3029017,0.2608352
0.9222705,0.3063546,0.2667203
0.9211971,0.3076017,0.2729101
0.9252693,0.3099415,0.2695596
0.9254052,0.3122439,0.2600513
0.9240051,0.3119185,0.2586604
0.9239164,0.3099151,0.2661143
0.9208179,0.3052015,0.2738263
0.9210278,0.3037665,0.2728084
0.9230336,0.305719,0.2691674
0.924942,0.3091055,0.2728995
0.9278265,0.3144729,0.2705411
0.9271219,0.3139893,0.2638875
0.9249318,0.3113619,0.2614446
0.9206059,0.3112834,0.2605003
0.9167866,0.3078669,0.265019
0.9173855,0.306388,0.2653801
0.919132,0.3067727,0.2641461
0.9236978,0.3048082,0.2666138
0.9248133,0.3086564,0.2633941
0.9224905,0.318484,0.2643488
0.924519,0.3257643,0.2681762
0.9254453,0.3214021,0.268867
0.9264878,0.3104251,0.2666142
0.9268171,0.3075114,0.2588601
0.9226623,0.3040706,0.2596476
0.9181044,0.3003591,0.2654428
0.9146645,0.3083334,0.2673903
0.9207933,0.3144295,0.2695315
0.931478,0.3134809,0.2688947
0.933137,0.3153128,0.269292
0.935098,0.3182691,0.266218
0.9373674,0.3116215,0.2590721
0.9295795,0.2964121,0.2584824
0.9206373,0.2901533,0.2633142
0.9181845,0.2941632,0.2716639
0.9167088,0.3011863,0.272891
0.9220822,0.3092808,0.2637556
0.9379351,0.3120901,0.255534
0.9408785,0.3088383,0.2521312
0.9273655,0.3051606,0.2565854
0.9170803,0.3064313,0.2621144
0.9140799,0.3053949,0.2631389
0.9215955,0.3014623,0.2588556
0.9285836,0.3074985,0.2512151
0.9274102,0.3147309,0.2544871
0.937494,0.3138826,0.2581069
0.9480801,0.3049593,0.2532481
0.938007,0.2939858,0.2532016
0.9227489,0.2956292,0.2524158
0.915769,0.2989859,0.2559874
0.9124676,0.2972673,0.2664567
0.9149487,0.3002561,0.2663768
0.9243043,0.3020735,0.2633843
0.9296689,0.3061331,0.2623954
0.9280467,0.3109438,0.2584017
0.9234824,0.306763,0.2585179
0.920087,0.3041175,0.2571842
0.9203391,0.3032621,0.2524305
0.9246172,0.3031361,0.252701
0.9327786,0.307324,0.2499848
0.9334347,0.3052239,0.2442977
0.9284971,0.301889,0.2511098
0.9236081,0.2999533,0.2632285
0.9134474,0.2960773,0.2662805
0.914908,0.3021919,0.2652815
0.927416,0.3094097,0.2638946
0.933788,0.30934,0.2626095
0.9376715,0.3127195,0.2625755
0.9367542,0.3162266,0.2616254
0.93139,0.3136828,0.260068
0.9232918,0.3083785,0.2593668
0.9158766,0.3042063,0.2666017
0.9185206,0.2994135,0.2743835
0.9210974,0.298338,0.2644964
0.922265,0.3081154,0.2543582
0.9258416,0.3164942,0.2590522
0.9241157,0.3161678,0.2595721
0.9239025,0.3149696,0.259069
0.9264482,0.3169001,0.2729191
0.9283303,0.3192139,0.2804498
0.9307957,0.3177932,0.2650443
0.9256285,0.3160447,0.2489842
0.9169022,0.3106402,0.249444
0.9153023,0.3033192,0.2575262
0.9171434,0.3085396,0.2628495
0.9172895,0.3150814,0.2639962
0.9196154,0.3123208,0.2661733
0.9284581,0.3135499,0.268404
0.9355372,0.3168041,0.2628535
0.9317998,0.3149357,0.257142
0.9209329,0.3148276,0.2602199
0.9122592,0.315907,0.2625902
0.9128448,0.3146975,0.2615113
0.9201175,0.3144342,0.260381
0.9284723,0.3141942,0.2573422
0.9354402,0.315248,0.2580812
0.9317174,0.3176781,0.2612422
0.9203582,0.315607,0.2611284
0.9182818,0.3098912,0.2622158
0.9206741,0.3027265,0.2637525
0.9198115,0.3000585,0.2668478
0.9160932,0.3065138,0.2723216
0.9106618,0.3092494,0.2732597
0.9151298,0.3025496,0.2732159
0.9213262,0.2993538,0.2744939
0.9206207,0.306978,0.2741181
0.9243402,0.3152699,0.2748259
0.9298095,0.3164344,0.2720829
0.9337213,0.3212473,0.2630659
0.9297723,0.3248845,0.2576867
0.9187213,0.3132104,0.2610482
0.9164002,0.3033826,0.2653106
0.9156151,0.3048574,0.2671851
0.9156511,0.3044315,0.2731387
0.9227365,0.3034679,0.274965
0.9246665,0.3097127,0.2682538
0.9234239,0.318455,0.2665838
0.923624,0.3207085,0.2631403
0.9245936,0.3207957,0.2566755
0.9302932,0.3189116,0.2605215
0.9335231,0.3102351,0.2627625
0.9263591,0.3099545,0.2613381
0.9162545,0.3157141,0.261651
0.9176981,0.3141122,0.254653
0.9254145,0.3111819,0.2489066
0.9269046,0.306682,0.2507176
0.9269484,0.3057359,0.254984
0.9260345,0.3087014,0.2602405
0.9255796,0.3076921,0.2596651
0.9248507,0.310494,0.2545114
0.9186674,0.3139036,0.2527553
0.9176851,0.3157957,0.2576738
0.9233081,0.3183817,0.263438
0.9307671,0.3171099,0.2604668
0.9355908,0.3176847,0.2579592
0.9307813,0.3165428,0.2599092
0.9271581,0.3139392,0.2544935
0.9267955,0.3116543,0.2472342
0.9239472,0.3024767,0.2463095
0.9232537,0.3002448,0.2482975
0.9235404,0.3067634,0.2527475
0.9237696,0.3095122,0.2587663
1.002703,0.1670474,0.1536813
0.9501466,0.1935978,0.1373862
0.9284312,0.2370103,0.1479343
0.9240608,0.2405299,0.1431452
0.9386851,0.2128928,0.1227747
0.973933,0.1984953,0.09583049
1.003724,0.1621859,0.05928455
1.019973,0.1341875,0.08040329
1.024302,0.109023,0.1107001
1.030067,0.07309157,0.1218385
0.9854938,0.1188122,0.1389521
0.9229206,0.157433,0.1351962
0.9537551,0.07818654,0.118985
1.039241,-0.03706502,0.08288171
1.119601,-0.1300519,0.06121778
1.124482,-0.1217611,0.07560852
1.042855,-0.02883376,0.05762202
0.989365,0.04032768,0.01447317
0.9627653,0.1025309,-0.03689701
0.9725504,0.09965865,-0.07878958
1.02353,0.03177941,-0.07161323
1.047362,-0.006941521,-0.05771462
1.068599,-0.04304861,-0.03430622
1.048393,-0.03818474,0.01558971
0.993895,-0.0124286,0.05086364
0.9842727,-0.004187207,0.06791828
1.002962,0.05460117,0.04970768
1.050073,0.09355599,0.01806261
1.054973,0.08927841,0.02173275
1.021121,0.07170073,0.02668017
1.028184,0.02227312,0.02409917
1.023073,0.00482311,0.02195329
1.024206,0.01464345,0.01180516
1.023571,0.02308598,0.0115324
1.006331,0.03345596,0.006229653
1.028031,0.03676141,-0.00923458
1.032818,0.0521574,-0.0181213
1.024573,0.0598253,-0.02851332
1.021907,0.06377487,-0.0309949
1.007961,0.06442405,-0.03145745
1.015382,0.03993572,-0.0442789
1.016129,0.02504335,-0.05254443
1.01511,0.03029722,-0.05886572
1.027784,0.04392891,-0.06173889
1.036123,0.04885515,-0.05633719
1.039736,0.04787542,-0.05974557
1.020328,0.05669913,-0.05793479
1.007067,0.05633957,-0.05105195
1.017783,0.0514719,-0.05812706
1.024341,0.04271608,-0.05929304
1.024147,0.02892873,-0.05352482
1.024867,0.01825367,-0.04796408
1.029733,0.01082661,-0.03604934
1.025947,0.01834109,-0.03125543
1.023369,0.02239835,-0.03497737
1.030233,0.02858621,-0.03900587
1.032525,0.03883318,-0.04324589
1.036277,0.02174618,-0.04759094
1.035132,0.007662008,-0.04410441
1.03191,0.01211225,-0.03014834
1.027392,0.03094016,-0.02589151
1.008603,0.06241336,-0.02860132
0.9984559,0.07232908,-0.02990955
1.003549,0.07294881,-0.04172312
1.006825,0.07645536,-0.05254841
1.006948,0.06757257,-0.05115114
1.007297,0.06290084,-0.05132463
1.012803,0.06520576,-0.06982107
1.029623,0.06124001,-0.09713975
1.050441,0.04960172,-0.1075857
1.049811,0.03428527,-0.09950903
1.037242,0.02038309,-0.08950218
1.036202,0.01291751,-0.08620902
1.033917,0.01960121,-0.08015056
1.031002,0.02746307,-0.08167979
1.025867,0.02084687,-0.09194734
1.016047,0.01333866,-0.08183061
1.023282,0.008822707,-0.07163406
1.033243,0.004744237,-0.07054919
1.030299,0.01116188,-0.06498221
1.026047,0.02027974,-0.06929643
1.019986,0.02581573,-0.06835708
1.019165,0.02985797,-0.06193614
1.021102,0.02987469,-0.05793881
1.017921,0.0315437,-0.05072161
1.019765,0.03033902,-0.06398165
1.02063,0.02516981,-0.0891251
1.021041,0.01408823,-0.107703
1.029071,-0.01341167,-0.1207738
1.031104,-0.03870864,-0.1228027
1.024626,-0.05351921,-0.1205814
1.017814,-0.06010207,-0.1094491
1.014142,-0.05538213,-0.09619925
1.010984,-0.05592802,-0.09457749
1.005184,-0.05518205,-0.09089618
1.006189,-0.04960968,-0.08661033
1.012722,-0.05058678,-0.07545106
1.017385,-0.04560617,-0.05663376
1.018189,-0.03800762,-0.05988444
1.014992,-0.0238718,-0.06757592
1.016035,0.001153488,-0.0606844
1.017516,0.007133047,-0.06264244
1.023675,0.01096425,-0.06093149
1.040331,0.03139631,-0.05142475
1.044354,0.02877688,-0.05392088
1.036714,0.01950507,-0.04512731
1.034868,0.02939239,-0.02637876
1.036173,0.02078331,-0.02579622
1.036567,0.005431832,-0.0313617
1.033983,0.002341508,-0.03548593
1.030341,-0.007555856,-0.04234804
1.023791,-0.01018232,-0.04877731
1.012982,-0.002817848,-0.05532343
1.0049,0.007036869,-0.05809196
1.004345,0.01313392,-0.06145651
1.012291,0.002536094,-0.07322704
1.021293,-0.01077827,-0.08228518
1.026956,-0.02331674,-0.08273453
1.025971,-0.02574789,-0.07984957
1.020033,-0.01598525,-0.07460247
1.023472,-0.016563,-0.07623738
1.033779,-0.01519524,-0.07904263
1.042332,-0.01906812,-0.06811747
1.03814,-0.03182297,-0.05421758
1.02375,-0.02864048,-0.04026637
1.025088,-0.02775471,-0.03239999
1.031787,-0.0305306,-0.03723002
1.033179,-0.02497956,-0.03707024
1.034269,-0.02191885,-0.03675463
1.028756,-0.01405415,-0.04111152
1.02897,-0.00540312,-0.04215126
1.027702,-0.007498916,-0.0452171
1.022152,-0.01060509,-0.04617522
1.026303,-0.008067586,-0.04779913
1.024991,-0.00626908,-0.05242029
1.022516,-0.004184038,-0.04717467
1.021962,0.005717417,-0.03986156
1.017833,0.01242793,-0.04163741
1.021961,0.01116465,-0.04416293
1.025206,0.00617766,-0.04704767
1.02482,-0.005128802,-0.05543205
1.026094,-0.01174318,-0.06429473
1.027242,-0.01617076,-0.07574863
1.031221,-0.02641922,-0.08557911
1.030486,-0.0335845,-0.07811342
1.026104,-0.03951908,-0.0643502
1.024487,-0.0405315,-0.05870945
1.023329,-0.03595781,-0.05334856
1.020357,-0.0315112,-0.04666272
1.015213,-0.01710227,-0.04415555
1.017777,-0.002675045,-0.04606079
1.023998,-0.0001293411,-0.04527896
1.024218,0.001937895,-0.03775109
1.028259,0.005546254,-0.03338584
1.032673,0.008995626,-0.03693569
1.031699,0.009768077,-0.03992359
1.032497,0.004878408,-0.03544296
1.033716,0.002145641,-0.03267223
1.035024,0.006833052,-0.04195818
1.034801,0.01474927,-0.04839127
1.031084,0.01694492,-0.04312076
1.028504,0.01493677,-0.0418523
1.025157,0.01397421,-0.0527538
1.023266,0.009988242,-0.06238299
1.027162,0.007551398,-0.05837685
1.030575,0.00877118,-0.05435585
1.028237,0.00783451,-0.05624854
1.021962,0.006097081,-0.05315538
1.01809,0.002894412,-0.05081491
1.018856,-0.001040531,-0.05078218
1.02028,-0.002951653,-0.05005383
1.019357,-0.004623602,-0.05376109
1.018501,-0.007099645,-0.05735752
1.018342,-0.01003901,-0.05833488
1.016191,-0.009476454,-0.05822461
1.01835,-0.004622489,-0.0492127
1.022778,-0.001627273,-0.02961409
1.022015,-0.003314638,-0.01156181
1.021343,-0.007939483,-0.0006925385
1.02067,-0.01139092,0.001075451
1.019531,-0.01388426,-0.01416955
1.016977,-0.02040917,-0.02913787
1.0121,-0.0240758,-0.02431031
1.015735,-0.0124918,-0.02817718
1.026806,0.00415167,-0.06310405
1.035986,0.006988655,-0.09773434
1.04137,0.005493617,-0.1119842
1.04648,0.01475224,-0.137369
1.051368,0.02460334,-0.1641999
1.047019,0.02878644,-0.1565946
1.037367,0.03156471,-0.1621065
1.021926,0.0201749,-0.1796364
1.008091,-0.005484582,-0.159714
1.024115,-0.02071611,-0.1481573
1.038402,-0.03403644,-0.1434835
1.02061,-0.05523404,-0.1281509
1.010376,-0.06574541,-0.140542
1.011222,-0.07675493,-0.1507782
1.005418,-0.08447364,-0.1576274
1.00659,-0.0767434,-0.174923
1.012715,-0.08082441,-0.1697632
1.017426,-0.08661872,-0.1589586
1.02429,-0.08234246,-0.1489289
1.029288,-0.08102948,-0.1341562
1.028752,-0.0707912,-0.1287881
1.024028,-0.05969374,-0.1310102
1.018123,-0.05158627,-0.1394515
1.016882,-0.04035457,-0.139442
1.022278,-0.03910271,-0.1247288
1.032206,-0.03431639,-0.1031092
1.041442,-0.02238589,-0.08629255
1.035383,-0.02210954,-0.08798778
1.022406,-0.02894282,-0.08841532
1.020711,-0.0338867,-0.08219259
1.013844,-0.03267982,-0.07700173
1.002224,-0.03069997,-0.06614663
1.003214,-0.03463862,-0.06293256
1.009605,-0.0352845,-0.05921221
1.016942,-0.03139259,-0.04475131
1.020362,-0.02457545,-0.03641689
1.019803,-0.01677756,-0.0308019
1.020149,-0.02063266,-0.03215985
1.016004,-0.02684663,-0.04292631
1.015722,-0.02038592,-0.04819932
1.019152,-0.005128066,-0.05529712
1.020983,0.01077326,-0.06168008
1.027281,0.008765382,-0.06284263
1.027845,0.0002695738,-0.06714777
1.026641,0.006602471,-0.06452419
1.031332,0.003370363,-0.06284133
1.031396,-0.00144471,-0.07025032
1.03104,0.009415391,-0.07216317
1.028221,0.01354104,-0.07165261
1.023224,0.01567463,-0.06972063
1.02775,0.01494676,-0.06825835
1.031003,0.009686583,-0.07167696
1.028696,0.01436352,-0.07421619
1.029868,0.01548104,-0.07926302
1.030673,0.01634775,-0.07859767
1.027785,0.01940611,-0.07241674
1.025333,0.01661818,-0.07141817
1.026297,0.01879543,-0.06831417
1.026795,0.01891039,-0.06827539
1.025042,0.01964536,-0.06824985
1.024287,0.02499436,-0.06481296
1.022396,0.0252908,-0.07343686
1.019956,0.02785006,-0.08051407
1.020779,0.02559568,-0.07386853
1.022262,0.01771782,-0.06886074
1.022231,0.01780729,-0.07005471
1.021159,0.0204442,-0.0694355
1.016927,0.02312245,-0.06585579
1.013565,0.02501653,-0.06529986
1.020475,0.02585744,-0.06783431
1.02844,0.02863185,-0.07304443
1.024438,0.02896162,-0.07711911
1.019626,0.03126387,-0.07535874
1.020155,0.03843705,-0.07537302
1.020521,0.04028059,-0.07625727
1.023121,0.0367301,-0.07518755
1.023861,0.03426279,-0.07580558
1.022657,0.0319575,-0.07494751
1.024129,0.03172141,-0.07493031
1.021303,0.03606458,-0.07703021
1.017946,0.04134131,-0.07758451
1.019222,0.04336702,-0.07811759
1.022952,0.03799195,-0.07964031
1.028063,0.0342422,-0.08094509
1.024906,0.04564742,-0.07961857
1.019598,0.05680901,-0.07689478
1.021284,0.05269068,-0.07411527
1.021008,0.04697313,-0.07186975
1.021363,0.04362348,-0.07556413
1.023039,0.03740946,-0.08060127
1.021851,0.03773113,-0.07940168
1.022604,0.04049952,-0.07871666
1.024168,0.03610022,-0.08172436
1.025321,0.03260976,-0.0830985
1.025426,0.03017353,-0.0826555
1.024077,0.03011226,-0.08174803
1.023479,0.03374529,-0.08156533
1.022147,0.03116044,-0.08274148
1.023642,0.02935827,-0.08358664
1.027007,0.02987829,-0.08561055
1.025602,0.02798368,-0.08797417
1.023604,0.03005235,-0.08934125
1.021706,0.03040288,-0.09131537
1.018524,0.03090517,-0.09194664
1.019831,0.03256369,-0.09244048
1.022547,0.02639891,-0.09151825
1.02316,0.01901343,-0.08577625
1.025482,0.01505941,-0.08278371
1.025859,0.01693237,-0.08828111
1.024205,0.01957488,-0.09338757
1.026223,0.01526824,-0.08744731
1.026834,0.01511373,-0.08208627
1.024598,0.01860671,-0.08785241
1.023248,0.01919375,-0.09146913
1.02153,0.017463,-0.09030815
1.022032,0.01369563,-0.08610209
1.022837,0.01513111,-0.07995296
1.021692,0.01529577,-0.0841842
1.022413,0.008860499,-0.09069336
1.02308,0.005259047,-0.09254819
1.02547,0.003763655,-0.09889525
1.028477,0.003043134,-0.1000092
1.024444,0.00509432,-0.09392697
1.020665,0.01057037,-0.09227388
1.024124,0.01454068,-0.09013043
1.026349,0.01206797,-0.08488863
1.024331,0.01190364,-0.08084126
1.023666,0.01295035,-0.08229237
1.02297,0.009631544,-0.09141888
1.021632,0.006661733,-0.09661889
1.023308,0.005193176,-0.09367173
1.023979,0.00840474,-0.08930416
1.022399,0.0133947,-0.08716469
1.022595,0.01455784,-0.09182397
1.024803,0.01577716,-0.09642829
1.026989,0.01646507,-0.09416295
1.024922,0.0164884,-0.09177274
1.02229,0.0170412,-0.09167209
1.023732,0.0164488,-0.09173913
1.023113,0.01661814,-0.09231066
1.021415,0.01688227,-0.09212031
1.022616,0.01644614,-0.08865364
1.023296,0.01660047,-0.08633049
1.023786,0.01543788,-0.088078
1.024795,0.01310864,-0.08955742
1.025023,0.01268602,-0.09001684
1.025148,0.01598829,-0.08790502
1.024928,0.01875519,-0.08562002
1.024914,0.01435828,-0.08953309
1.025168,0.008567385,-0.09326029
1.024868,0.008462217,-0.09056117
1.025024,0.008646037,-0.08774772
1.024724,0.008036353,-0.08689706
1.023084,0.009516949,-0.08563203
1.021787,0.01000447,-0.08750918
1.022143,0.01032413,-0.08868855
1.02368,0.01334652,-0.08630409
1.024474,0.01505994,-0.08661465
1.024315,0.009506595,-0.08547985
1.022997,0.00316244,-0.08356871
1.020499,0.006949309,-0.08715985
1.019732,0.01113109,-0.09365242
1.022648,0.00995395,-0.1007242
1.025561,0.01306607,-0.09791812
1.021016,0.01372097,-0.0873041
1.016021,0.01084901,-0.08481334
1.021349,0.01230863,-0.08510493
1.025892,0.01107532,-0.08456739
1.024736,0.01022109,-0.085789
1.024766,0.01193416,-0.08774538
1.023223,0.009690183,-0.09159312
1.021518,0.009359323,-0.08894877
1.022254,0.0097692,-0.08285387
1.022946,0.007365604,-0.08153584
1.024821,0.0058103,-0.08072892
1.027134,0.006012359,-0.07954356
1.025936,0.01113893,-0.0752548
1.021249,0.01577535,-0.0734282
1.019042,0.0142306,-0.0764242
1.02274,0.01394299,-0.07568114
1.026652,0.01600984,-0.07719313
1.025465,0.01568941,-0.07889044
1.025132,0.01556104,-0.0769778
1.028881,0.01716027,-0.07806317
1.027848,0.01592111,-0.07792168
1.024007,0.01406973,-0.07739621
1.022959,0.01391787,-0.07784055
1.020712,0.01195139,-0.07532871
1.019424,0.01221857,-0.07313979
1.020247,0.01412668,-0.07296585
1.022766,0.01369857,-0.07411899
1.026327,0.01404108,-0.07447933
1.025336,0.01392956,-0.07658709
1.024275,0.01366012,-0.08135486
1.026478,0.01417467,-0.08172871
1.026456,0.0138671,-0.081121
1.025097,0.01482284,-0.07960688
1.023632,0.01529972,-0.07437488
1.021542,0.01341812,-0.07325955
1.021104,0.01191299,-0.07328997
1.021736,0.01194163,-0.07251818
1.022102,0.01116478,-0.07591678
1.023902,0.009650121,-0.07997904
1.02588,0.01334707,-0.08186038
1.024717,0.01904175,-0.07726774
1.022672,0.01925412,-0.07002954
1.022648,0.01736064,-0.06987676
1.024616,0.01370797,-0.07054476
1.027208,0.009948823,-0.06963395
1.02595,0.0134584,-0.06885223
1.023781,0.01719143,-0.06725168
1.025473,0.01522037,-0.07238849
1.02527,0.01610458,-0.07741083
1.02439,0.01758899,-0.07561625
1.025358,0.01453151,-0.07488895
1.02388,0.01459382,-0.07325924
1.023229,0.01624876,-0.07387016
1.023647,0.01476769,-0.07635083
1.022574,0.01519244,-0.07431485
1.022259,0.01571165,-0.07495398
1.022922,0.01447263,-0.07533758
1.024262,0.01354893,-0.07345476
1.024623,0.0110927,-0.07420765
1.02467,0.01040662,-0.07507133
1.024595,0.01186241,-0.07633778
1.022805,0.01182243,-0.07323676
1.022613,0.01352421,-0.06926187
1.022443,0.01735203,-0.07388714
1.021644,0.02017424,-0.08019774
1.023182,0.01931123,-0.08312819
1.024865,0.0167974,-0.08190853
1.026926,0.01805955,-0.0781165
1.026559,0.0178133,-0.07584196
1.022801,0.01557162,-0.07221519
1.021434,0.01685572,-0.06813028
1.020352,0.01602336,-0.06554297
1.019494,0.01448189,-0.06365242
1.022118,0.01600484,-0.06611714
1.0245,0.01702922,-0.06954862
1.023967,0.01829066,-0.06881643
1.022738,0.01756173,-0.0711936
1.023372,0.01580014,-0.07714216
1.023987,0.01582792,-0.0772321
1.024902,0.01153042,-0.07563756
1.025879,0.007067577,-0.07772842
1.02434,0.01203397,-0.07685871
1.024966,0.01920889,-0.07111339
1.025592,0.02039807,-0.06541544
1.023927,0.01984758,-0.06658657
1.024016,0.01643545,-0.07381168
1.023104,0.009322596,-0.07773909
1.023176,0.008459023,-0.0775923
1.022825,0.01040195,-0.07563225
1.020963,0.00757522,-0.07379075
1.022932,0.006420987,-0.07304067
1.022441,0.008702459,-0.07203108
1.021758,0.01244564,-0.07588215
1.024862,0.0163034,-0.07879242
1.025092,0.01747074,-0.0737959
1.02514,0.01774416,-0.07137508
1.025221,0.01666835,-0.07503922
1.025532,0.01459501,-0.0788585
1.026981,0.0159711,-0.07881074
1.025248,0.01755497,-0.07759943
1.024559,0.01617173,-0.0773464
1.02526,0.01558112,-0.07506381
1.025012,0.01538868,-0.07369039
1.026222,0.01487282,-0.0716557
1.027441,0.01557002,-0.06939302
1.027821,0.01528931,-0.06997578
1.025634,0.0153815,-0.06835388
1.022374,0.01737462,-0.06674398
1.021984,0.01768902,-0.06542097
1.023112,0.01470769,-0.06595921
1.023919,0.01114058,-0.06974895
1.022698,0.01206139,-0.06792154
1.021665,0.01377581,-0.06712669
1.022616,0.01284882,-0.06954372
1.023319,0.01505717,-0.06877362
1.024673,0.01617463,-0.07020669
1.025121,0.01526313,-0.07136478
1.023042,0.01914438,-0.07445956
1.021798,0.0213188,-0.07868274
1.023013,0.01734948,-0.07518163
1.024238,0.01372466,-0.07282064
1.023867,0.0144734,-0.07150855
1.02514,0.01366051,-0.06864848
1.027068,0.00987952,-0.07100866
1.025541,0.01261896,-0.0721021
1.024294,0.01559144,-0.07111724
1.025238,0.01292884,-0.06838307
1.025127,0.01291777,-0.06331101
1.024773,0.01307652,-0.06656779
1.024787,0.01366563,-0.07459311
1.023204,0.01635162,-0.07920926
1.021951,0.01513524,-0.07904645
1.023896,0.01363434,-0.07530175
1.025722,0.01324841,-0.07370805
1.023937,0.01190302,-0.07027998
1.021993,0.01288526,-0.06906286
1.022575,0.01513929,-0.07237764
1.024036,0.01816206,-0.06932054
1.025294,0.02011273,-0.07175388
1.024259,0.0166973,-0.08023139
1.021921,0.01389009,-0.07886904
1.02227,0.01479704,-0.074012
1.023337,0.01212341,-0.06998351
1.023841,0.008182289,-0.06882956
1.024775,0.009833284,-0.06961598
1.025005,0.01242165,-0.06885847
1.025157,0.01297424,-0.07437951
1.024786,0.0153947,-0.0797319
1.023947,0.01711716,-0.07942472
1.02394,0.01477511,-0.08039405
1.025117,0.01214238,-0.07923503
1.027154,0.01214514,-0.07678679
1.026284,0.01288066,-0.07769446
1.023757,0.01237953,-0.07830852
1.02267,0.01218029,-0.07705539
1.021644,0.0120428,-0.07597033
1.022821,0.01205726,-0.07528577
1.025278,0.01665582,-0.07784988
1.026726,0.02414872,-0.08414265
1.027189,0.02758637,-0.08580897
1.02665,0.02407868,-0.08332598
1.027417,0.02030674,-0.08302977
1.024748,0.02251887,-0.08284293
1.020506,0.02337951,-0.08024154
1.023186,0.02305456,-0.07523285
1.024196,0.02657964,-0.07200307
1.020219,0.02940523,-0.07092019
1.019136,0.03625559,-0.06587235
1.021274,0.04296722,-0.06104203
1.024018,0.03634089,-0.06393773
1.023982,0.02694165,-0.06960916
1.023104,0.02284311,-0.07187226
1.024118,0.02051665,-0.07390144
1.02444,0.02083792,-0.0737595
1.024595,0.02049305,-0.07078379
1.0223,0.02394979,-0.07229426
1.017819,0.03180875,-0.07205779
1.018283,0.03321802,-0.07007338
1.022993,0.03632543,-0.07411389
1.025896,0.042152,-0.07555218
1.023654,0.03887035,-0.07302928
1.021119,0.03593921,-0.0716508
1.024243,0.03650253,-0.07187338
1.026162,0.03618246,-0.07238737
1.024469,0.04007086,-0.06910826
1.024618,0.04286065,-0.06698203
1.023311,0.04055861,-0.06641812
1.020496,0.0360021,-0.06198777
1.020705,0.03213754,-0.05850353
1.022346,0.03465646,-0.06010419
1.024229,0.03768836,-0.06243947
1.025397,0.03647611,-0.06056008
1.024194,0.04131966,-0.05966801
1.023011,0.05410858,-0.06033702
1.023873,0.05977572,-0.0589661
1.024762,0.04884742,-0.0600547
1.024981,0.03829953,-0.06033637
1.024885,0.0426076,-0.0608761
1.02306,0.04371669,-0.06368606
1.021609,0.03770058,-0.0623637
1.022582,0.04066019,-0.06132202
1.02439,0.04217867,-0.0589577
1.026505,0.03890284,-0.05331658
1.027745,0.04097733,-0.05400207
1.026744,0.04093572,-0.05653972
1.02249,0.03928847,-0.05399295
1.01846,0.03695157,-0.05393682
1.022367,0.03387973,-0.05954642
1.027046,0.03890651,-0.06134513
1.022602,0.04483041,-0.05514527
1.018845,0.04579702,-0.04815339
1.019798,0.04488619,-0.04725382
1.019525,0.04232598,-0.05020941
1.02122,0.03935198,-0.05115104
1.023085,0.03690297,-0.05320175
1.022004,0.04035041,-0.05547857
1.02212,0.0460723,-0.05686163
1.022369,0.04633477,-0.06112562
1.022118,0.04546038,-0.05949578
1.022838,0.04436831,-0.05647167
1.024822,0.040991,-0.05943373
1.026922,0.03674244,-0.05791543
1.024533,0.03539289,-0.05590384
1.020628,0.03823374,-0.05584611
1.020643,0.03893819,-0.05632859
1.021944,0.03499849,-0.06422126
1.022983,0.03098265,-0.07012462
1.024455,0.02997513,-0.0665729
1.024518,0.02833402,-0.06118577
1.022538,0.02585166,-0.05670103
1.02208,0.03024464,-0.05283467
1.022883,0.03661557,-0.05893829
1.022172,0.03648341,-0.07166466
1.023999,0.03449123,-0.07064459
1.026992,0.03240788,-0.06527685
1.026027,0.0295008,-0.06345842
1.024437,0.02881233,-0.0548583
1.023468,0.03029556,-0.05501534
1.024054,0.03209857,-0.06383927
1.02552,0.03306335,-0.06707069
1.023038,0.03366837,-0.06797689
1.021329,0.03437092,-0.06668588
1.022504,0.03477039,-0.06691345
1.021749,0.03529794,-0.06197921
1.019434,0.03635175,-0.05067562
1.01782,0.03638984,-0.05051722
1.020403,0.02986998,-0.05546845
1.023695,0.02193203,-0.05776278
1.022168,0.0243258,-0.05944986
1.022269,0.02630327,-0.06041178
1.026399,0.020114,-0.06794617
1.028504,0.01906786,-0.07423457
1.026415,0.02524758,-0.06689919
1.022032,0.03487163,-0.05613448
1.019806,0.04127801,-0.05523868
1.021009,0.0345678,-0.06230642
1.022109,0.02886957,-0.06731735
1.022438,0.03190419,-0.06583825
1.023377,0.02819418,-0.06370537
1.024543,0.02258939,-0.06473781
1.024291,0.02507179,-0.06217209
1.022394,0.02567761,-0.05952487
1.022238,0.02233135,-0.0615909
1.025147,0.0218904,-0.05934066
1.027083,0.02270615,-0.05794429
1.025636,0.0239087,-0.06239764
1.024249,0.02569498,-0.06468204
1.02516,0.02508552,-0.06341724
1.025455,0.02459996,-0.06199107
1.025537,0.02496481,-0.06552614
1.026849,0.02292791,-0.06878554
1.026001,0.02089627,-0.0653475
1.023313,0.02173219,-0.05837459
1.022425,0.02447151,-0.05182381
1.025575,0.0255402,-0.05542198
1.030088,0.0230299,-0.06409132
1.02887,0.01782537,-0.06479764
1.02577,0.0109317,-0.05953091
1.02472,0.008105818,-0.05477011
1.021337,0.01155258,-0.06262109
1.021263,0.01567376,-0.07145895
1.023538,0.02091211,-0.06080778
1.021582,0.02547106,-0.05111929
1.021474,0.02295612,-0.05103867
1.020238,0.02018687,-0.04790647
1.016914,0.02017757,-0.04963681
1.019853,0.01643204,-0.05585806
1.02227,0.01832244,-0.05779318
1.021262,0.03210917,-0.05653306
1.022204,0.04228148,-0.05300755
1.021701,0.03730278,-0.05115301
1.020542,0.02867243,-0.05113579
1.023353,0.0280623,-0.04714564
1.028033,0.02394682,-0.04353683
1.029669,0.0200095,-0.04869412
1.026025,0.02857082,-0.05486752
1.020997,0.03539192,-0.05280475
1.020176,0.03757156,-0.05034693
1.022812,0.03445729,-0.04604762
1.026104,0.02723385,-0.03640456
1.028261,0.03094383,-0.03637117
1.024935,0.03173581,-0.04432834
1.019307,0.0268796,-0.05060788
1.018769,0.0284271,-0.05641695
1.019642,0.02738064,-0.05392796
1.018467,0.02758883,-0.04686171
1.018301,0.02850141,-0.04581489
1.021001,0.02689151,-0.04805413
1.02503,0.02841377,-0.05487089
1.025782,0.02780463,-0.05923627
1.024505,0.02853224,-0.05521513
1.025064,0.03091231,-0.05124224
1.025183,0.02983176,-0.04737388
1.024781,0.02811296,-0.04663132
1.024777,0.02562424,-0.04844205
1.022835,0.02685252,-0.04659314
1.019832,0.02898393,-0.04876248
1.019126,0.0273904,-0.05316393
1.021368,0.02877992,-0.05418583
1.023005,0.03054122,-0.0531036
1.022517,0.02875208,-0.04991066
1.024064,0.0245628,-0.04930599
1.027604,0.02078272,-0.04533069
1.028102,0.02283388,-0.04020425
1.025347,0.02454386,-0.04793578
1.022596,0.02105138,-0.05495773
1.021652,0.01941355,-0.05237267
1.022827,0.02053799,-0.05192498
1.025136,0.02186534,-0.05199957
1.026442,0.02241019,-0.05051294
1.024099,0.0202685,-0.05167397
1.021042,0.01907537,-0.05176232
1.022955,0.02185809,-0.05077828
1.024571,0.02563393,-0.05250289
1.022132,0.02691864,-0.05586488
1.02188,0.02398802,-0.062158
1.022552,0.02055438,-0.06523091
1.022327,0.02180272,-0.05881884
1.024165,0.02618194,-0.05517225
1.025508,0.02795092,-0.05818082
1.025132,0.02754869,-0.05871051
1.024744,0.02955961,-0.05625612
1.024856,0.02956748,-0.05554075
1.024481,0.02647486,-0.05924014
1.023801,0.02605374,-0.06244523
1.024227,0.02549989,-0.06107639
1.022637,0.02513313,-0.05955618
1.020264,0.02859234,-0.05910898
1.0197,0.03344958,-0.05615091
1.017391,0.03581628,-0.05398643
1.016947,0.03137481,-0.05930731
1.022237,0.02356107,-0.06486246
1.026754,0.01971793,-0.06302404
1.025136,0.0234346,-0.06395611
1.022022,0.03128713,-0.07187533
1.022311,0.03411889,-0.07733267
1.022224,0.03483931,-0.078444
1.021586,0.03692776,-0.0778174
1.020877,0.04206411,-0.0763211
1.018564,0.05369935,-0.07641486
1.019807,0.05539765,-0.07715342
1.022972,0.04438257,-0.07990565
1.024724,0.03945978,-0.08425317
1.02638,0.04132429,-0.08434347
1.027976,0.04239206,-0.08582359
1.033354,0.03949688,-0.09141631
1.03544,0.0386974,-0.09151072
1.027388,0.04548568,-0.08494515
1.021024,0.05411046,-0.0799145
1.021552,0.05825456,-0.08185786
1.022611,0.0494898,-0.08500247
1.019085,0.0365309,-0.08416721
1.012209,0.0347563,-0.08249629
1.0085,0.0372208,-0.07856975
1.012135,0.03728422,-0.07295084
1.02136,0.03155337,-0.06684546
1.028365,0.02080126,-0.05999141
1.029506,0.01380961,-0.06048389
1.02486,0.01546754,-0.06293921
1.020655,0.03169135,-0.06271017
1.025962,0.05748022,-0.07554088
1.028652,0.07839029,-0.08939221
1.020143,0.09256901,-0.0848655
1.012294,0.1034991,-0.08172043
1.012021,0.1066291,-0.09031957
1.018615,0.1010707,-0.1013903
1.025438,0.09171209,-0.1171593
1.027101,0.07507042,-0.1269214
1.022935,0.06378875,-0.1213215
1.015052,0.06655381,-0.1182374
1.00885,0.05962141,-0.1127345
1.005915,0.05002384,-0.0994284
1.009595,0.05210357,-0.1026801
1.014949,0.04612055,-0.1078601
1.013677,0.03807108,-0.1011084
1.01268,0.04053779,-0.1015786
1.011777,0.04309379,-0.09839871
1.006791,0.05078742,-0.09000057
1.001104,0.06993398,-0.08849955
0.9985646,0.08330253,-0.08658309
1.002221,0.08112877,-0.08607175
1.005975,0.08074798,-0.08673751
1.013985,0.0875958,-0.09416793
1.031972,0.08787709,-0.1070237
1.039344,0.08606294,-0.1096859
1.033208,0.08667231,-0.1250214
1.031356,0.08647022,-0.1535927
1.025064,0.08966513,-0.1629981
1.005996,0.09475028,-0.166589
0.9917338,0.1065539,-0.1713072
0.9911442,0.1176865,-0.1693519
0.9988731,0.1057837,-0.1745123
1.01026,0.08473874,-0.1832454
1.013888,0.0714763,-0.1904103
1.005178,0.06449926,-0.1966111
0.9964978,0.06813679,-0.1942053
0.9971296,0.07150267,-0.1894299
1.004056,0.07067644,-0.1856254
1.009664,0.07475919,-0.1868744
1.010844,0.07322425,-0.1924342
1.009665,0.06759144,-0.1854221
1.011115,0.06302356,-0.1805271
1.013712,0.04791246,-0.1858013
1.010861,0.03566848,-0.1827032
1.004909,0.03959096,-0.174633
1.000161,0.04650753,-0.167265
1.002256,0.04861431,-0.1696118
1.009007,0.04291921,-0.1785425
1.01058,0.03764329,-0.1830837
1.012797,0.0465725,-0.1947691
1.013742,0.05551701,-0.1982847
1.009878,0.05100988,-0.1920093
1.010181,0.04845956,-0.199932
1.007874,0.05055276,-0.2039379
1.004711,0.04769092,-0.2022111
1.00777,0.04992905,-0.2103514
1.010503,0.06030116,-0.2170855
1.013419,0.07225519,-0.2177195
1.012264,0.07856284,-0.2143497
1.009531,0.07235605,-0.2109393
1.011926,0.07053303,-0.2083682
1.01118,0.07580749,-0.2060885
1.010514,0.07457965,-0.2076449
1.010552,0.07412241,-0.2066648
1.004386,0.07477291,-0.2045797
0.9996128,0.07908336,-0.201538
1.001515,0.09018943,-0.1931999
1.006102,0.09665429,-0.1829175
1.007099,0.09918602,-0.1617617
1.004203,0.09677746,-0.1360725
1.003407,0.09066883,-0.1204212
1.009935,0.08590623,-0.113267
1.019605,0.07581666,-0.1161472
1.019031,0.07166865,-0.113673
1.0135,0.07782496,-0.1018193
1.010298,0.08079445,-0.1008346
1.005094,0.08833876,-0.1068199
1.006139,0.09413482,-0.1139448
1.009409,0.08448196,-0.1232095
1.009323,0.08110417,-0.1316193
1.013902,0.09346632,-0.1376486
1.01448,0.1000193,-0.1397057
1.011915,0.08771551,-0.1456893
1.011809,0.07595753,-0.1478895
1.006036,0.08693297,-0.1436339
1.004676,0.09612911,-0.1497912
1.011599,0.089801,-0.1554811
1.015292,0.09006526,-0.157667
1.016096,0.0905356,-0.1596501
1.014977,0.08742939,-0.1549742
1.015236,0.09047438,-0.157501
1.017411,0.09056904,-0.1614139
1.016276,0.08866001,-0.1619275
1.015064,0.08782596,-0.1650698
1.01547,0.0848516,-0.1584485
1.01809,0.08224369,-0.1521189
1.019332,0.07677991,-0.1496886
1.012449,0.07219342,-0.1416801
1.004882,0.07586356,-0.133487
1.004291,0.07951892,-0.1235557
1.007193,0.07668171,-0.1189332
1.009168,0.07523441,-0.1148422
1.011343,0.0773806,-0.1000233
1.011374,0.07715271,-0.09365236
1.008631,0.07836093,-0.0981797
1.011655,0.082047,-0.09923241
1.014985,0.08322903,-0.1011531
1.016957,0.08132411,-0.1084466
1.02063,0.07933225,-0.1131787
1.010905,0.08683017,-0.1102405
1.000302,0.09500991,-0.1093152
1.009344,0.08982124,-0.1173831
1.016138,0.08690879,-0.1305976
1.009602,0.09129625,-0.1400199
1.008822,0.09235582,-0.137523
1.014642,0.09311691,-0.1362121
1.01572,0.09254683,-0.1431986
1.014513,0.08537926,-0.144377
1.014523,0.07321594,-0.1490325
1.018925,0.06233695,-0.1609962
1.025442,0.06389481,-0.1616959
1.026824,0.07965624,-0.15696
1.028594,0.09288447,-0.1544207
1.026264,0.09162769,-0.1521943
1.01667,0.08961201,-0.1479939
1.015516,0.09534017,-0.1354638
1.020128,0.0951009,-0.127509
1.023228,0.09360906,-0.1257639
1.025237,0.09841792,-0.1158109
1.019775,0.09956636,-0.1059849
1.01442,0.1021734,-0.1005025
1.018285,0.1050538,-0.09176144
1.022954,0.09796957,-0.08049332
1.023823,0.08284951,-0.06718656
1.02054,0.06822694,-0.05177345
1.009123,0.06641546,-0.04263349
0.9991642,0.05785761,-0.03947441
1.003582,0.03289156,-0.03768822
1.009338,0.02648332,-0.04234105
1.008476,0.03633602,-0.04297342
1.01416,0.04025105,-0.04257524
1.017454,0.04101648,-0.0532074
1.010993,0.04196468,-0.06240637
1.011721,0.05009667,-0.07915422
1.019318,0.06630975,-0.1045233
1.026862,0.07631513,-0.1260366
1.033098,0.06951106,-0.1472955
1.034628,0.0551789,-0.1532302
1.033425,0.04257116,-0.1488423
1.027119,0.02631866,-0.1432899
1.02042,0.01671922,-0.1266284
1.017354,0.01406003,-0.1154139
1.016507,0.00213942,-0.107329
1.025908,-0.01117125,-0.08796996
1.034465,-0.02191784,-0.0731268
1.034449,-0.02873602,-0.07497433
1.034754,-0.02743785,-0.08183431
1.031956,-0.02981007,-0.0798763
1.025848,-0.03114141,-0.07832546
1.015935,-0.02425211,-0.07850632
1.008845,-0.019309,-0.07778399
1.012046,-0.01587852,-0.08431868
1.012254,-0.008985579,-0.08949659
1.010674,0.0004407833,-0.09133008
1.013422,0.008665495,-0.08677521
1.017045,0.003744287,-0.07724052
1.033186,-0.02092371,-0.0768115
1.049731,-0.03995548,-0.06901616
