accx,accy,accz
0.9907159,-0.04202361,-0.278459
0.9926352,-0.04390843,-0.2769581
0.9962396,-0.04255171,-0.2753121
0.9978187,-0.04065435,-0.2700511
0.994322,-0.03803804,-0.2644814
0.9920733,-0.03576483,-0.2641627
0.9940278,-0.03576163,-0.2621241
0.9949772,-0.03548984,-0.2620633
0.9932972,-0.03443464,-0.2651926
0.9926345,-0.03573343,-0.2654233
0.993217,-0.03757523,-0.2653475
0.9929167,-0.03761513,-0.265276
0.992057,-0.03750933,-0.2651012
0.9913001,-0.03778983,-0.265535
0.9908096,-0.03930898,-0.265094
0.9910985,-0.04087851,-0.2652996
0.9921186,-0.04039023,-0.2643352
0.993691,-0.04066702,-0.2597229
0.9946439,-0.04401677,-0.2565429
0.9937133,-0.04662516,-0.2624851
0.9925534,-0.0443131,-0.2733064
0.9929878,-0.04162033,-0.2772962
0.9933883,-0.04199372,-0.2758176
0.9929876,-0.0400969,-0.2685622
0.9939576,-0.03751354,-0.2570085
0.9941857,-0.03804755,-0.2554499
0.9907475,-0.03675804,-0.2563892
0.9879154,-0.03572524,-0.2538416
0.9898087,-0.03920254,-0.2591529
0.9930956,-0.04138625,-0.2663955
0.9937021,-0.04112475,-0.2741742
0.9946525,-0.04166443,-0.2775164
0.9961889,-0.04119454,-0.2682072
0.9941027,-0.03708744,-0.2617545
0.9921709,-0.03029393,-0.256995
0.9931057,-0.02663128,-0.2510139
0.9933798,-0.0277266,-0.2503477
0.9928241,-0.02896353,-0.2499366
0.9928571,-0.03155613,-0.2571087
0.9923452,-0.03711902,-0.2642861
0.9915741,-0.03930334,-0.2621989
0.9935763,-0.03854951,-0.2634658
0.9961829,-0.04071648,-0.2668981
0.9955126,-0.0404789,-0.2706657
0.9925995,-0.03668456,-0.2699218
0.9891088,-0.03572683,-0.2650407
0.9885987,-0.03576132,-0.2652121
0.9919429,-0.03535892,-0.2631304
0.9939671,-0.03480373,-0.2628697
0.9931075,-0.03513154,-0.2683837
0.9929874,-0.0370824,-0.2714257
0.9951115,-0.03659033,-0.2686902
0.996058,-0.0357142,-0.2622918
0.9938584,-0.03537562,-0.2653426
0.9912446,-0.033814,-0.2729957
0.9903967,-0.03346846,-0.2750651
0.9908781,-0.03330459,-0.2767845
0.9929445,-0.03512546,-0.2737325
0.9962346,-0.03710574,-0.2645676
0.9965321,-0.03556881,-0.2561509
0.9947596,-0.03514336,-0.2558428
0.9937703,-0.03489258,-0.2596405
0.9900222,-0.03556297,-0.2600918
0.9874564,-0.03827623,-0.2648241
0.9895104,-0.03767842,-0.2685081
0.9904173,-0.03644581,-0.2677241
0.9922219,-0.03763876,-0.2686327
0.9956449,-0.03888571,-0.2675909
0.9954003,-0.03875458,-0.2686281
0.9936283,-0.03772209,-0.2711496
0.9921781,-0.03635027,-0.2716829
0.9895838,-0.03446716,-0.2695401
0.9883978,-0.03389287,-0.265396
0.9907804,-0.03389978,-0.2700192
0.9931251,-0.03399215,-0.2746483
0.9941625,-0.03501811,-0.270886
0.9963813,-0.03710368,-0.2677927
0.9963096,-0.03938396,-0.260717
0.9939508,-0.03561735,-0.2550624
0.9935947,-0.03159936,-0.2624136
0.9927233,-0.03549761,-0.2692002
0.9917881,-0.037291,-0.2665384
0.991896,-0.03610099,-0.2656182
0.9911036,-0.03897384,-0.2674909
0.9912824,-0.04198684,-0.2654105
0.9921558,-0.04071186,-0.2647314
0.9940155,-0.03681767,-0.2664678
0.9954661,-0.03533033,-0.268714
0.9937319,-0.03548414,-0.2731248
0.993398,-0.03272473,-0.2738762
0.992981,-0.03009046,-0.2729526
0.9909605,-0.03361689,-0.2738256
0.9921908,-0.03817782,-0.2709541
0.9942369,-0.03552403,-0.264883
0.9948249,-0.03219637,-0.2563112
0.993341,-0.03125908,-0.2509032
0.9914368,-0.02973797,-0.2575475
0.9919926,-0.03172761,-0.2655908
0.9925899,-0.03268885,-0.2659853
0.9941912,-0.03128422,-0.2660268
0.9950811,-0.03249441,-0.2643414
0.9941602,-0.03297967,-0.2596338
0.995515,-0.03426274,-0.2607812
0.995817,-0.03493725,-0.2637599
0.9939324,-0.03159949,-0.2623492
0.9923918,-0.02981899,-0.2621136
0.9918323,-0.03110528,-0.2628804
0.9924907,-0.03450233,-0.2626985
0.9939469,-0.03694793,-0.2649674
0.9965689,-0.03502088,-0.2695009
0.9953536,-0.03256782,-0.2718815
0.9923977,-0.03289196,-0.2694344
0.9942168,-0.0339754,-0.2658888
0.9948528,-0.03349205,-0.2642797
0.9941443,-0.03447523,-0.2636736
0.9945241,-0.03570451,-0.2673659
0.9929782,-0.03355136,-0.2750509
0.9911004,-0.03196353,-0.2770121
0.9898602,-0.03029371,-0.2736096
0.9909721,-0.02981605,-0.2734184
0.9928527,-0.03220931,-0.2713849
0.9931255,-0.03089458,-0.2667831
0.994879,-0.02905616,-0.2679698
0.9947856,-0.02965998,-0.2687473
0.9928423,-0.03077183,-0.2673331
0.9931573,-0.03439977,-0.2684828
0.9930055,-0.03737748,-0.2681912
0.9929494,-0.03939018,-0.2686927
0.9932868,-0.03883402,-0.2693854
0.992825,-0.03397397,-0.2654683
0.9931722,-0.03306403,-0.2618614
0.9925549,-0.0342628,-0.2631807
0.9902308,-0.03268148,-0.2693454
0.9882432,-0.03273445,-0.27404
0.9884454,-0.03395662,-0.2719079
0.9900798,-0.03315934,-0.2674822
0.991318,-0.03161792,-0.2647521
0.9936427,-0.03033233,-0.2630678
0.9940117,-0.02877851,-0.2630174
0.9929504,-0.03065752,-0.2669199
0.9951361,-0.03326817,-0.2709811
0.9942955,-0.03154278,-0.2696799
0.9909075,-0.03183656,-0.2675556
0.9905094,-0.03336764,-0.2675789
0.9915332,-0.03315311,-0.2645668
0.9936169,-0.03385066,-0.2614226
0.991662,-0.03437413,-0.2642182
0.9885607,-0.03672145,-0.2665048
0.989957,-0.03806813,-0.2653142
0.9888485,-0.034858,-0.2667862
0.9885609,-0.03141067,-0.2689632
0.9914278,-0.03007408,-0.2682853
0.991979,-0.03264908,-0.2684775
0.9927668,-0.03615678,-0.2700715
0.9933798,-0.03645084,-0.2686318
0.9938944,-0.03567793,-0.2641857
0.9948677,-0.03424405,-0.2597423
0.9939604,-0.03212718,-0.258677
0.9926331,-0.02958889,-0.2622249
0.9917378,-0.02806944,-0.2663566
0.9940212,-0.0329574,-0.2715536
0.9968404,-0.04024707,-0.2768055
0.9936874,-0.03897722,-0.2765357
0.990085,-0.0330872,-0.2693765
0.9909566,-0.03106467,-0.2574806
0.9949685,-0.03013924,-0.2530095
0.9993459,-0.02801679,-0.2571896
0.9977988,-0.02647624,-0.2633616
0.9923957,-0.03039191,-0.2765589
0.9901277,-0.03662551,-0.2828398
0.9881384,-0.03430148,-0.2797501
0.9852122,-0.02960644,-0.2830176
0.9863691,-0.02732237,-0.2807914
0.9903636,-0.02535272,-0.2725807
0.9930462,-0.02879562,-0.2683015
0.9945809,-0.03165435,-0.2676099
0.9963324,-0.03282234,-0.2703415
0.9972561,-0.03576836,-0.2675063
0.997005,-0.03373559,-0.2658665
0.9971888,-0.03148618,-0.2656456
0.9960786,-0.03289789,-0.2592204
0.9936865,-0.03551327,-0.2615991
0.993347,-0.03938331,-0.2643155
0.9937581,-0.03803199,-0.2635279
0.9930881,-0.03278951,-0.2694266
0.9926966,-0.03111064,-0.2671648
0.9932242,-0.03186625,-0.2623121
0.9931958,-0.03230814,-0.2644678
0.9924201,-0.0317992,-0.2697666
0.9909294,-0.03215206,-0.2781197
0.9870547,-0.03399755,-0.2770172
0.985439,-0.03437068,-0.2741242
0.9891209,-0.03136986,-0.276934
0.9913455,-0.02779935,-0.2698049
0.9907778,-0.02929056,-0.2638702
0.9927194,-0.03289944,-0.2666642
0.9964362,-0.03347647,-0.2645249
0.9964771,-0.0332682,-0.2615262
0.9930908,-0.03144006,-0.2655309
0.9863617,-0.02972216,-0.2736921
0.9791173,-0.03081247,-0.2778519
0.9861162,-0.03081806,-0.273981
0.9960125,-0.03125311,-0.2700855
0.9884973,-0.03242061,-0.2716326
0.9847102,-0.03187873,-0.2742459
0.9903856,-0.03185168,-0.2738803
0.9887225,-0.03201341,-0.2702393
0.9883413,-0.031573,-0.2663542
0.9900639,-0.03016557,-0.2660648
0.9912073,-0.02857765,-0.2653533
0.9988378,-0.0293886,-0.2640399
1.002123,-0.03075594,-0.2678689
0.9942275,-0.03017539,-0.2715383
0.9873046,-0.02944418,-0.2703801
0.9905589,-0.03038523,-0.2681929
0.9957406,-0.02967517,-0.2704466
0.9955591,-0.02808464,-0.272078
0.9956332,-0.02999951,-0.2686879
0.9923241,-0.03130115,-0.2695734
0.9884554,-0.03157389,-0.2700593
0.99076,-0.03167308,-0.2694443
0.9905714,-0.02883703,-0.2713617
0.9899612,-0.02869797,-0.2667666
0.9915997,-0.03019991,-0.2644938
0.9914674,-0.0304084,-0.2682192
0.9910335,-0.03271443,-0.2701035
0.9899618,-0.03246217,-0.2689124
0.9910502,-0.03205859,-0.265851
0.9922196,-0.03404584,-0.266715
0.9904269,-0.03234163,-0.2660555
0.9903969,-0.03022781,-0.2650541
0.9924264,-0.02692952,-0.2694946
0.9956234,-0.02206632,-0.2714415
0.9975253,-0.02490699,-0.2703509
0.9969593,-0.03193128,-0.2684461
0.9958788,-0.03387796,-0.268057
0.9928351,-0.03035613,-0.2668067
0.9908776,-0.02516008,-0.2637737
0.9925664,-0.02431899,-0.2656851
0.9935305,-0.0275683,-0.2657533
0.992024,-0.02934109,-0.2649979
0.9911475,-0.0302732,-0.2686522
0.9920446,-0.03087136,-0.2699323
0.9928041,-0.03058243,-0.2700596
0.9942273,-0.03150412,-0.2712984
0.9958777,-0.03221956,-0.2740822
0.9955584,-0.03163214,-0.2728327
0.9940572,-0.03006701,-0.2629273
0.9928543,-0.02930055,-0.2583543
0.9945754,-0.03267041,-0.265804
0.9963638,-0.03608581,-0.271271
0.9930648,-0.0342772,-0.2633314
0.990391,-0.03031116,-0.2571144
0.9914551,-0.02891983,-0.2660131
0.9903059,-0.03064043,-0.2716988
0.9879578,-0.0324856,-0.2691222
0.98877,-0.02989331,-0.2698336
0.9896267,-0.02516801,-0.270211
0.989725,-0.02450381,-0.2673972
0.9923844,-0.02528565,-0.2660706
0.9939436,-0.02658172,-0.2690023
0.9922181,-0.03039906,-0.2721536
0.9902604,-0.03306713,-0.2722996
0.9883038,-0.03269597,-0.2714398
0.9889283,-0.03057707,-0.2703299
0.9924435,-0.03012299,-0.270269
0.9944655,-0.03051425,-0.2683288
0.9950505,-0.0289712,-0.2645825
0.9950382,-0.02889101,-0.264882
0.9949672,-0.03037256,-0.2658162
0.9946344,-0.03086755,-0.2650031
0.9940958,-0.03046649,-0.2645592
0.9956168,-0.03045164,-0.261306
0.9959057,-0.03074485,-0.256363
0.9937317,-0.03056451,-0.2573869
0.9930559,-0.03116748,-0.2628741
0.9947459,-0.02994022,-0.2635179
0.9976157,-0.02590825,-0.2616586
0.9976803,-0.02446769,-0.2627349
0.9966216,-0.02774243,-0.2629075
0.9976084,-0.03013832,-0.2630111
0.9966216,-0.02706334,-0.2642683
0.9943467,-0.02406265,-0.2630213
0.9929074,-0.0232804,-0.2619202
0.9942407,-0.02208957,-0.2628574
0.9967922,-0.02373729,-0.2634784
0.9939719,-0.02600669,-0.2647345
0.9918237,-0.0254997,-0.2676528
0.9939484,-0.02758727,-0.2694239
0.9945141,-0.03251874,-0.2638767
0.9945116,-0.03415126,-0.2521507
0.9938759,-0.03272096,-0.2465859
0.9942785,-0.03086932,-0.2500973
0.9970253,-0.02979998,-0.2539061
0.9969083,-0.03065158,-0.2552449
0.9944954,-0.02993361,-0.2550904
0.9923647,-0.02929621,-0.2537715
0.9926639,-0.03389033,-0.253884
0.994804,-0.03725858,-0.2555114
0.9941614,-0.03437704,-0.2584064
0.9934089,-0.03113248,-0.2622072
0.9931665,-0.03146025,-0.2610266
0.9926897,-0.03068153,-0.2595713
0.9942425,-0.02814513,-0.2675717
0.9941034,-0.02912765,-0.2743806
0.9943641,-0.02973896,-0.2723157
0.9965433,-0.02843361,-0.2682873
0.9959723,-0.02818002,-0.2602777
0.99584,-0.02576401,-0.2520178
0.9978143,-0.02411444,-0.2580505
0.9987855,-0.02579738,-0.2676868
0.9969964,-0.02869726,-0.267622
0.9948678,-0.03426549,-0.2751653
0.9958898,-0.03735082,-0.2838324
0.9962545,-0.03334781,-0.2766783
0.9954257,-0.0303544,-0.272585
0.996001,-0.0320962,-0.2704131
0.9958923,-0.03084675,-0.2635867
0.99585,-0.02607559,-0.2616
0.9968698,-0.02466421,-0.2585992
0.9968984,-0.02751673,-0.2618735
0.9944504,-0.03042316,-0.2687556
0.9911997,-0.02899827,-0.2668328
0.9912917,-0.02651407,-0.2659864
0.9931501,-0.02652741,-0.265342
0.9929404,-0.02569677,-0.2648116
0.9921132,-0.02465783,-0.263882
0.9914958,-0.02446466,-0.2599543
0.9915894,-0.0282721,-0.2604985
0.9927109,-0.0348748,-0.2594241
0.9924829,-0.03503099,-0.2583713
0.9924563,-0.03533701,-0.2597288
0.9941556,-0.03713776,-0.2582079
0.9950882,-0.03216037,-0.2586938
0.9950909,-0.02897843,-0.257761
0.9951855,-0.0284801,-0.2566103
0.9953779,-0.02786355,-0.2567937
0.9957495,-0.03065815,-0.2550529
0.9961248,-0.03280673,-0.2572113
0.9950447,-0.03437753,-0.2628958
0.9920578,-0.03127833,-0.265966
0.9896568,-0.02538457,-0.2572757
0.9907518,-0.02861515,-0.2476994
0.9936209,-0.03082909,-0.252311
0.9928808,-0.02798932,-0.2556519
0.9905705,-0.02962781,-0.2570096
0.9895452,-0.030437,-0.2610286
0.9895491,-0.02986831,-0.260335
0.9934799,-0.02934956,-0.261143
0.9956975,-0.02702434,-0.2618825
0.994144,-0.02845741,-0.2613111
0.9953065,-0.03015535,-0.2631941
0.99593,-0.02868733,-0.2621987
0.9939863,-0.02931822,-0.2602879
0.9929729,-0.03034231,-0.2603028
0.9955023,-0.02945957,-0.262872
0.9986007,-0.0254802,-0.2667823
0.9971679,-0.02070823,-0.2654502
0.9964175,-0.02391874,-0.2627841
0.9969303,-0.02964689,-0.2616793
0.9949509,-0.02935357,-0.2592664
0.9938588,-0.02898406,-0.2618604
0.992961,-0.02941507,-0.2657698
0.9925087,-0.02885694,-0.2635219
0.9935504,-0.02940643,-0.2630959
0.9929698,-0.02911602,-0.263789
0.9929677,-0.02919307,-0.2617486
0.995028,-0.0306803,-0.2633313
0.9980554,-0.03237353,-0.2674337
1.000317,-0.03392217,-0.269818
0.9959229,-0.0319558,-0.2675273
0.9909093,-0.02851243,-0.2636135
0.9940369,-0.02801426,-0.2661965
0.9954062,-0.03105282,-0.2670758
0.9918072,-0.03379495,-0.2609209
0.9915894,-0.02827917,-0.2567969
0.9937804,-0.02229197,-0.2572505
0.9956636,-0.02515299,-0.2626024
0.9953321,-0.02612933,-0.2677957
0.992849,-0.023973,-0.2679995
0.9927517,-0.02568067,-0.2694302
0.9933577,-0.02708161,-0.269826
0.9926894,-0.02761685,-0.2655259
0.9924174,-0.02750066,-0.2616702
0.9922976,-0.02595003,-0.2594564
0.9931508,-0.0281119,-0.2593139
0.9934695,-0.03028836,-0.2608702
0.9926526,-0.02879786,-0.2631252
0.9931731,-0.02901898,-0.2662645
0.9932073,-0.0294738,-0.2655895
0.992797,-0.02891275,-0.2624425
0.9932577,-0.02912121,-0.2628112
0.9929938,-0.02824951,-0.265003
0.9931618,-0.02745767,-0.2692083
0.9940904,-0.02775176,-0.2723105
0.9945841,-0.02790121,-0.2696433
0.9946216,-0.02792051,-0.2684523
0.994423,-0.02859438,-0.2691061
0.9953733,-0.02937694,-0.2677832
0.9962344,-0.02813077,-0.2687807
0.9955772,-0.02621107,-0.269181
0.9948602,-0.02530371,-0.2648399
0.9940804,-0.0252963,-0.2609896
0.9933993,-0.02764301,-0.2624808
0.9930063,-0.03012949,-0.2651117
0.992836,-0.02974477,-0.2643426
0.9934152,-0.03033854,-0.2635519
0.9943069,-0.03248902,-0.2626356
0.9963602,-0.03044224,-0.2597911
0.9978649,-0.02787919,-0.2566206
0.9960605,-0.02965464,-0.2554367
0.9943429,-0.03042547,-0.2602067
0.9944009,-0.03030664,-0.2656601
0.9945786,-0.03082427,-0.2659578
0.995393,-0.02939211,-0.2654195
0.99629,-0.028849,-0.261935
0.9967675,-0.02932546,-0.2566645
0.9970124,-0.02907477,-0.2599557
0.9952353,-0.0292462,-0.2659093
0.9919477,-0.02911855,-0.2646754
0.9909339,-0.02914955,-0.261468
0.9921334,-0.02925167,-0.2599096
0.9926679,-0.0288706,-0.2633191
0.992908,-0.02837202,-0.2689772
0.9924493,-0.02782207,-0.2655402
0.9911381,-0.02942769,-0.2620943
0.9916001,-0.03156714,-0.2646555
0.9925597,-0.03146886,-0.2638515
0.9940346,-0.03182517,-0.2637781
0.99622,-0.03199858,-0.2649894
0.9935687,-0.02989875,-0.2646468
0.9893223,-0.02769579,-0.265426
0.9882464,-0.02470123,-0.2658798
0.9865874,-0.02159795,-0.2679303
0.9898192,-0.02460263,-0.2702609
0.9973201,-0.03001699,-0.2689807
0.9962824,-0.02942422,-0.2641777
0.9927102,-0.02759634,-0.2566285
0.9933887,-0.02869014,-0.2544282
0.992522,-0.03111178,-0.26551
0.9921656,-0.03447943,-0.2769697
0.9919696,-0.03359221,-0.271264
0.9919048,-0.03022586,-0.2605947
0.9939285,-0.02978102,-0.2557939
0.992998,-0.02894446,-0.2534696
0.9920218,-0.02979541,-0.2625071
0.9909949,-0.03146,-0.2705302
0.9876562,-0.02994311,-0.2658616
0.9897198,-0.02926597,-0.2656199
0.9950789,-0.02742953,-0.266831
0.9978489,-0.02516786,-0.2627984
0.9962746,-0.02578183,-0.2572659
0.992819,-0.02493287,-0.2506385
0.9943599,-0.02456974,-0.2529824
0.9944657,-0.02526166,-0.2618844
0.9912424,-0.02390931,-0.2651653
0.990761,-0.02329325,-0.265076
0.9889542,-0.0236686,-0.2650079
0.9906047,-0.024375,-0.2612415
0.9952235,-0.02752132,-0.2518525
0.9933665,-0.03182323,-0.2488431
0.9920938,-0.03209363,-0.254506
0.9921845,-0.02943824,-0.2567809
0.9907185,-0.02954878,-0.2647771
0.9916482,-0.02898115,-0.2730381
0.9891688,-0.02547465,-0.2675569
0.9864163,-0.02279106,-0.2678296
0.9897733,-0.02248296,-0.2712852
0.9920236,-0.02762506,-0.2681065
0.9917677,-0.03270961,-0.2682307
0.9917656,-0.0306348,-0.264426
0.9924898,-0.02973309,-0.2607098
0.9931374,-0.03220219,-0.2638765
0.9912245,-0.0319108,-0.267127
0.9895779,-0.03084654,-0.2700888
0.9905864,-0.03100495,-0.2667971
0.9923815,-0.03300917,-0.2607484
0.9934289,-0.03577058,-0.2603956
0.9928373,-0.03375673,-0.2603279
0.9910598,-0.02769719,-0.2585623
0.9904792,-0.02521063,-0.2580193
0.9937535,-0.03227757,-0.2597595
0.9972141,-0.04000026,-0.2619037
0.9948388,-0.03226093,-0.2632725
0.9887417,-0.02243423,-0.2644895
0.9856098,-0.02528714,-0.2657797
0.9900672,-0.02576916,-0.267502
0.996532,-0.02358979,-0.2680637
0.995669,-0.02403765,-0.2669853
0.9936302,-0.0213411,-0.2647073
0.9943999,-0.02184552,-0.263778
0.9921637,-0.02347866,-0.2651114
0.9917773,-0.02343593,-0.2647507
0.993068,-0.02709643,-0.2653128
0.9942938,-0.02879235,-0.2677295
0.9982792,-0.02903117,-0.2683702
0.9951588,-0.02941633,-0.2687749
0.9909135,-0.02688511,-0.2669474
0.9947762,-0.02610615,-0.2616008
0.9950579,-0.02733692,-0.2582353
0.9939646,-0.0280777,-0.2596452
0.995778,-0.02779101,-0.2613686
0.9958977,-0.02633179,-0.2604459
0.9957936,-0.0254517,-0.2616041
0.9948163,-0.024303,-0.2622547
0.9943056,-0.0230767,-0.258968
0.995433,-0.02241724,-0.2607751
0.996066,-0.02418659,-0.2695347
0.9960122,-0.02962625,-0.2743997
0.9955481,-0.03197094,-0.2664496
0.9959563,-0.03112556,-0.256595
0.99594,-0.03187311,-0.2600191
0.9954113,-0.03115774,-0.2633219
0.9949957,-0.02897129,-0.2592998
0.9933427,-0.02794506,-0.2604314
0.9937095,-0.02784901,-0.2646854
0.9962173,-0.02878806,-0.2674829
0.9979265,-0.03038944,-0.2698375
0.9988643,-0.03025858,-0.2738539
0.9975052,-0.02678444,-0.2758723
0.994851,-0.02387802,-0.2671655
0.9941432,-0.02471866,-0.2566076
0.995355,-0.02567854,-0.2523385
0.9962948,-0.02468643,-0.2556742
0.9956272,-0.02624305,-0.2648318
0.994552,-0.03256678,-0.2676823
0.9931155,-0.03796179,-0.2659647
0.9908314,-0.03649524,-0.2637806
0.9897675,-0.03195582,-0.263017
0.9902817,-0.03164408,-0.2646331
0.9904675,-0.03202487,-0.2614274
0.9901641,-0.03065637,-0.2604877
0.991144,-0.03070554,-0.261272
0.9948421,-0.03042712,-0.2587568
0.9985062,-0.0315007,-0.2583565
0.9975933,-0.03218941,-0.2579573
0.994619,-0.02885082,-0.2597533
0.9924333,-0.02436152,-0.2611453
0.9895142,-0.02100452,-0.2605776
0.9908937,-0.02422681,-0.260021
0.9958358,-0.02938458,-0.2544154
0.9961776,-0.0285642,-0.2524709
0.9956755,-0.02572823,-0.2585742
0.9960679,-0.02282251,-0.2646229
0.9954623,-0.02474878,-0.2647768
0.9952716,-0.02817382,-0.2631192
0.9921629,-0.02582208,-0.2663651
0.9914441,-0.02596332,-0.2649494
0.995245,-0.0273419,-0.2622768
0.993726,-0.02667345,-0.2624419
0.9914763,-0.02844933,-0.2572468
0.9941816,-0.02891471,-0.2578194
0.9950129,-0.02872805,-0.2619739
0.9947903,-0.02862826,-0.2622996
0.9957769,-0.02607413,-0.2644842
0.994766,-0.02512084,-0.2613411
0.9951671,-0.02509109,-0.2583495
0.9965661,-0.02484778,-0.2621542
0.9962287,-0.02600138,-0.2625983
0.9969361,-0.02534436,-0.2597069
0.9964086,-0.02290305,-0.2582894
0.9960601,-0.02248996,-0.2633751
0.9959793,-0.02659121,-0.2719338
0.993326,-0.03042259,-0.2722756
0.9928485,-0.02653713,-0.2651844
0.993044,-0.02242561,-0.2586159
0.9927561,-0.02484182,-0.2586627
0.9926799,-0.0273056,-0.2614986
0.9919037,-0.0298542,-0.2619033
0.9934288,-0.03248898,-0.2642576
0.9934439,-0.02833682,-0.2635942
0.9928004,-0.02247044,-0.2592567
0.9952772,-0.02228709,-0.2596101
0.9960789,-0.0227641,-0.2599554
0.9948392,-0.02281343,-0.2597205
0.9932971,-0.02520866,-0.2619101
0.9935305,-0.02615895,-0.2631223
0.9950476,-0.02540431,-0.2645431
0.9942212,-0.02482483,-0.2659537
0.9933299,-0.02360923,-0.2671727
0.9931923,-0.02266013,-0.2678357
0.9937059,-0.02226734,-0.2643511
0.9949665,-0.0238426,-0.2599898
0.9944649,-0.02646221,-0.2590591
0.9945125,-0.02761817,-0.2604732
0.9961378,-0.02976518,-0.2621529
0.9958773,-0.03061131,-0.2634189
0.9940682,-0.02910875,-0.2641176
0.9939261,-0.02929282,-0.2644847
0.9951459,-0.02911575,-0.2640957
0.9952568,-0.02896931,-0.2623444
0.995807,-0.02987613,-0.2620513
0.9963297,-0.03066057,-0.2613657
0.9950423,-0.03221101,-0.2601679
0.9941198,-0.02998788,-0.2614119
0.9929504,-0.02524755,-0.2597121
0.9933498,-0.0244311,-0.2591984
0.9954188,-0.02504974,-0.263362
0.9941039,-0.02550731,-0.2644045
0.9934688,-0.02676113,-0.2637377
0.9951636,-0.02798458,-0.2629127
0.9958684,-0.02732429,-0.2624394
0.9963334,-0.02555616,-0.2644907
0.9955111,-0.02683037,-0.2657608
0.995677,-0.02861537,-0.2651074
0.9963154,-0.02864231,-0.2631748
0.9953575,-0.02666196,-0.2605855
0.9964023,-0.02197549,-0.2553679
0.9977383,-0.02168204,-0.2492993
0.998458,-0.02481825,-0.2530325
0.9972367,-0.02535421,-0.2654947
0.9937344,-0.02642912,-0.2731408
0.9941931,-0.0283,-0.2685067
0.9949981,-0.02952698,-0.262047
0.9934214,-0.02859817,-0.265085
0.9920215,-0.02686695,-0.2642135
0.9894539,-0.02807238,-0.2590395
0.9899601,-0.02766661,-0.2642665
0.9920415,-0.02552261,-0.2671116
0.9917764,-0.02521331,-0.2636717
0.9935476,-0.02657199,-0.2629242
0.9951377,-0.02957379,-0.2604013
0.9938218,-0.02930701,-0.2608334
0.9916268,-0.02673537,-0.2639044
0.9900779,-0.02625902,-0.2637763
0.9928342,-0.02644815,-0.2647469
0.9967325,-0.02841352,-0.2664425
0.9957674,-0.02944342,-0.2677631
0.9931036,-0.0268926,-0.2643329
0.9910892,-0.02400971,-0.2589155
0.9898565,-0.02286455,-0.2619498
0.9922328,-0.0240191,-0.2627698
0.9947809,-0.02472366,-0.2552369
0.9935996,-0.02472035,-0.2512318
0.9926211,-0.02450376,-0.2540086
0.9930932,-0.02320975,-0.2589509
0.9931569,-0.02441649,-0.2609207
0.9930199,-0.0249971,-0.2613503
0.9931709,-0.02111705,-0.2629918
0.9940403,-0.01905107,-0.2623312
0.9946758,-0.02274404,-0.2598434
0.9943341,-0.02640766,-0.2561583
0.9934382,-0.02333856,-0.2523354
0.9927863,-0.02062986,-0.2551064
0.9939359,-0.02306571,-0.2654291
0.997627,-0.02331429,-0.2712911
1.000403,-0.0233095,-0.2618436
0.9960829,-0.02423611,-0.2507879
0.9915487,-0.0229814,-0.2523284
0.9975036,-0.02277296,-0.2549633
1.002416,-0.02186354,-0.2547605
0.9978504,-0.01994494,-0.2579355
0.9940263,-0.01939941,-0.2617634
0.992763,-0.01903409,-0.2647325
0.9923772,-0.01918592,-0.2637707
0.9933674,-0.01688203,-0.2610597
0.9915286,-0.0140681,-0.2629189
0.9914602,-0.01534771,-0.2629977
0.9957326,-0.01643963,-0.2615
0.9964748,-0.01845006,-0.2622119
0.9945398,-0.02207461,-0.2606987
0.9941538,-0.02131057,-0.2609045
0.9944833,-0.02006096,-0.2626843
0.9947615,-0.02222519,-0.2610075
0.9953677,-0.02263345,-0.2565018
0.9970531,-0.02184713,-0.2515612
0.9978371,-0.02316124,-0.255527
0.9978928,-0.02575338,-0.2621539
0.9988989,-0.02839064,-0.2594006
0.9987938,-0.02645217,-0.2591631
0.998324,-0.02252658,-0.262645
0.9985844,-0.02346423,-0.2614529
0.9977379,-0.02339127,-0.2583238
0.9968394,-0.02207665,-0.2546999
0.9972167,-0.02327385,-0.2577141
0.9973938,-0.02218274,-0.263523
0.9965548,-0.02162435,-0.25907
0.9943842,-0.02243956,-0.2506091
0.9914079,-0.01967757,-0.2452409
0.9909876,-0.01610554,-0.2461152
0.9922408,-0.01469205,-0.2495089
0.9919156,-0.01674129,-0.2484296
0.9933745,-0.02121995,-0.2518879
0.9962372,-0.02412788,-0.2551139
0.996092,-0.02499905,-0.2533989
0.9953618,-0.02455293,-0.2576307
0.9949116,-0.02271892,-0.2597704
0.9932511,-0.01894726,-0.2572768
0.992647,-0.01609004,-0.2517746
0.9931937,-0.01771448,-0.2430449
0.9934903,-0.02025348,-0.2475341
0.9947181,-0.02306476,-0.2547549
0.9964367,-0.02619956,-0.2520098
0.9960773,-0.0252748,-0.25429
0.9958728,-0.02404447,-0.2555333
0.9987922,-0.02442327,-0.2512738
1.00087,-0.02243785,-0.2477034
0.9995327,-0.02118793,-0.2421666
0.9969525,-0.02085819,-0.2468082
0.9951985,-0.01884764,-0.2554626
0.9954178,-0.01904202,-0.2504282
0.9953658,-0.01992715,-0.2474552
0.9940012,-0.01818113,-0.2473056
0.9940424,-0.01773123,-0.244321
0.9939827,-0.01826419,-0.2543142
0.9928875,-0.01810315,-0.26392
0.9948732,-0.0190334,-0.2586925
0.9978898,-0.01969305,-0.2536859
0.998255,-0.01914399,-0.2522196
0.9986565,-0.01755801,-0.2503544
0.9986912,-0.01645981,-0.2502673
0.9974394,-0.01854175,-0.2525707
0.9970733,-0.02116932,-0.2577763
0.997161,-0.02116371,-0.2612708
0.9972924,-0.02049891,-0.2584594
0.9970793,-0.02111438,-0.2554357
0.9962096,-0.02183717,-0.2552723
0.9956803,-0.02211991,-0.2539283
0.9956751,-0.02123389,-0.254053
0.9960062,-0.01852304,-0.256104
0.9958237,-0.01761453,-0.255497
0.9956921,-0.01911579,-0.2533972
0.9960123,-0.01978842,-0.2532005
0.995726,-0.01929815,-0.2571919
0.9958226,-0.01817041,-0.2604296
0.9959393,-0.01701788,-0.2554481
0.9956957,-0.01704008,-0.2495154
0.99558,-0.02018156,-0.2511358
0.9940158,-0.02376787,-0.2530092
0.9924673,-0.02348883,-0.2537547
0.9929287,-0.02399332,-0.2592376
0.9933826,-0.02591862,-0.2610634
0.9929068,-0.02289424,-0.2572191
0.992966,-0.01477316,-0.2546301
0.9934295,-0.008462721,-0.2522279
0.9939832,-0.01452699,-0.2543002
0.9956217,-0.02308376,-0.2589303
0.9961426,-0.01660842,-0.2595629
0.9945073,-0.01264441,-0.2629016
0.9931108,-0.01890685,-0.2662377
0.9918958,-0.01819566,-0.2638824
0.9918981,-0.01652345,-0.2643979
0.9946182,-0.017314,-0.2667096
0.9975688,-0.01715858,-0.2647096
0.997782,-0.02067957,-0.264813
0.9963568,-0.02178168,-0.2661812
0.995536,-0.02220518,-0.2646083
0.9943162,-0.02466336,-0.2657293
0.9947834,-0.02441717,-0.2667709
0.9967537,-0.02505772,-0.2644012
0.9957051,-0.02495028,-0.2614036
0.9954003,-0.02252192,-0.2579257
0.9963833,-0.02009829,-0.2566976
0.995491,-0.01806996,-0.2569488
0.9962168,-0.0169662,-0.2587565
0.9974816,-0.01471539,-0.2607744
0.9974191,-0.01513089,-0.259639
0.9970002,-0.0188265,-0.2612509
0.9962812,-0.02006264,-0.2625364
0.9967325,-0.02065705,-0.2603896
0.996933,-0.02183001,-0.2597435
0.9957771,-0.02268594,-0.2566291
0.9942513,-0.02329779,-0.2492488
0.993521,-0.0229882,-0.2417233
0.9943425,-0.02125154,-0.2410005
0.9961198,-0.01883176,-0.2475854
0.9983358,-0.02076051,-0.2533256
0.9978507,-0.02371503,-0.2572869
0.9965636,-0.02131199,-0.2589741
0.9969929,-0.01891383,-0.257147
0.99695,-0.01702024,-0.2545944
0.9985718,-0.01560113,-0.2548279
0.9987996,-0.01729866,-0.2605961
0.9972301,-0.01710422,-0.263566
0.9974294,-0.01791665,-0.2528622
0.9968326,-0.02057342,-0.2409778
0.9972126,-0.01932896,-0.2443385
0.9965587,-0.01901022,-0.2453201
0.9954148,-0.01992695,-0.238986
0.9981912,-0.0186325,-0.2499982
1.000001,-0.01680381,-0.2616291
1.000131,-0.0145741,-0.2563082
0.9987334,-0.01479443,-0.2554621
0.9962438,-0.01603485,-0.2573924
0.9954123,-0.01508113,-0.2546738
0.9946593,-0.01676302,-0.2550392
0.9945049,-0.0209042,-0.2543089
0.9950175,-0.02287528,-0.2518449
0.998116,-0.02170555,-0.2528051
1.002117,-0.01990747,-0.254249
1.000491,-0.02113842,-0.2535052
0.9970383,-0.02220984,-0.2515951
0.9950581,-0.02136298,-0.2498021
0.993891,-0.01997995,-0.2522866
0.9944446,-0.01708092,-0.2565792
0.9944962,-0.01733231,-0.255018
0.9933996,-0.01804082,-0.2540594
0.9931263,-0.01498871,-0.2563918
0.9948387,-0.0161745,-0.2555503
0.9963274,-0.01929407,-0.2551901
0.9950462,-0.0190689,-0.2551978
0.9943336,-0.01704246,-0.2530384
0.9972301,-0.01466612,-0.2548436
0.9996902,-0.01787355,-0.2605327
0.9980957,-0.02202624,-0.263456
0.9954379,-0.02073947,-0.2663072
0.9940095,-0.02067245,-0.2713855
0.9938714,-0.0220826,-0.2719616
0.9938447,-0.02068416,-0.2711982
0.9917865,-0.01433687,-0.2686805
0.9910372,-0.007108366,-0.2602507
0.9923022,-0.009494892,-0.2581613
0.992794,-0.01545978,-0.262107
0.9949754,-0.01617827,-0.2675307
0.9963792,-0.01747257,-0.2738751
0.993833,-0.01874178,-0.268655
0.9928353,-0.01922221,-0.2623575
0.9957952,-0.02032937,-0.2680198
0.9979481,-0.0188452,-0.2718178
0.9953859,-0.01931492,-0.2717983
0.9923606,-0.02012943,-0.2725131
0.9930412,-0.01831826,-0.2696375
0.9933209,-0.01791549,-0.2682158
0.9929552,-0.01546851,-0.2703378
0.9939488,-0.01558414,-0.2687951
0.9937771,-0.01962456,-0.2661005
0.9928296,-0.01911671,-0.2642286
0.9924974,-0.01672639,-0.2631864
0.9918253,-0.01451397,-0.2666428
0.9915264,-0.01509443,-0.2691447
0.9932175,-0.01802396,-0.2695651
0.9936909,-0.01728755,-0.269035
0.9914624,-0.01468411,-0.264201
0.991459,-0.01251908,-0.2605032
0.9921979,-0.01724873,-0.2601442
0.9921824,-0.02449353,-0.2604846
0.993582,-0.02150975,-0.2615549
0.9929581,-0.01927705,-0.2643521
0.9917597,-0.02077864,-0.2661503
0.9918026,-0.015248,-0.2643754
0.9916857,-0.01056358,-0.2643596
0.9936719,-0.01267254,-0.2604379
0.9952202,-0.01518681,-0.2530256
0.9958253,-0.01534068,-0.25359
0.9988548,-0.01583974,-0.2543566
1.001823,-0.01843318,-0.2575366
1.000634,-0.02145126,-0.2680699
0.9942574,-0.02148758,-0.2754496
0.9881183,-0.01760277,-0.280487
0.9883466,-0.014456,-0.2791337
0.9928028,-0.01216134,-0.271782
0.9956461,-0.01091973,-0.2706292
0.995769,-0.01180442,-0.269599
0.9942397,-0.009108017,-0.2655268
0.9926965,-0.00977387,-0.2630621
0.9956531,-0.01652164,-0.2607934
0.9982894,-0.01867123,-0.2617062
0.9950034,-0.01771951,-0.2616246
0.9926212,-0.01590113,-0.2568216
0.9931767,-0.01625807,-0.2545391
0.994045,-0.01846004,-0.2562559
0.9947281,-0.01932478,-0.2605592
0.994448,-0.0231827,-0.2631631
0.9945338,-0.02099485,-0.2596743
0.9953783,-0.01542003,-0.255214
0.9961203,-0.0172733,-0.254829
0.9959248,-0.01756407,-0.2561957
0.9955999,-0.01757494,-0.2550273
0.9961802,-0.01700924,-0.2536845
0.9966947,-0.01427427,-0.2535903
0.9972412,-0.0173,-0.2538214
0.9965513,-0.01871166,-0.2548576
0.9952564,-0.01549853,-0.2535045
0.9964091,-0.01298505,-0.2521002
0.9987716,-0.0121214,-0.251461
1.000198,-0.01452089,-0.2506085
0.9984732,-0.01598273,-0.2522214
0.9950166,-0.01537805,-0.2520502
0.9944657,-0.01599936,-0.2516631
0.9938251,-0.01683881,-0.2517316
0.9924516,-0.01579842,-0.2496729
0.9943394,-0.01373352,-0.251232
0.9958602,-0.01478946,-0.2561539
0.9958053,-0.01941894,-0.263321
0.995866,-0.02334641,-0.2675998
0.9943779,-0.02122006,-0.2669861
0.992429,-0.01826672,-0.2695451
0.9915033,-0.02343307,-0.2668669
0.9932292,-0.02576047,-0.2615034
0.9956696,-0.01885342,-0.2652602
0.9950509,-0.01396918,-0.2660034
0.9947787,-0.01471534,-0.262572
0.9947521,-0.01616876,-0.262194
0.9946,-0.01552127,-0.2613926
0.9983114,-0.01756781,-0.261044
1.001202,-0.0209336,-0.2610416
0.9995397,-0.01926844,-0.2612416
0.9968311,-0.0188985,-0.2618541
0.995265,-0.02042199,-0.2607439
0.995796,-0.02086112,-0.2590638
0.9969128,-0.02248432,-0.257366
0.996474,-0.02059972,-0.2556816
0.9955548,-0.01738232,-0.2535042
0.9962331,-0.01831979,-0.2502784
0.9987301,-0.02011558,-0.2477956
1.000362,-0.02082755,-0.2489227
0.998319,-0.01877943,-0.2547966
0.995259,-0.01445935,-0.2611247
0.9957458,-0.01298777,-0.2627651
0.9971948,-0.01464803,-0.2551486
0.9971649,-0.0167606,-0.2435927
0.9974084,-0.01882034,-0.241387
0.9973218,-0.01936876,-0.2465357
0.9979975,-0.01912088,-0.25474
0.999117,-0.01978131,-0.2625698
0.9986922,-0.01888468,-0.2614007
0.9993686,-0.01650199,-0.2612985
1.000452,-0.01479011,-0.2672
0.9994445,-0.01422788,-0.2649547
0.9971666,-0.0128437,-0.260728
0.9954772,-0.008385443,-0.2622884
0.997303,-0.007645069,-0.2594523
0.9990036,-0.01229478,-0.2564724
0.9944595,-0.01540574,-0.2582412
0.9887483,-0.01922655,-0.2590153
0.9886777,-0.02448807,-0.2596346
0.9922842,-0.02853988,-0.257482
0.9956971,-0.02977339,-0.2520545
0.9969015,-0.02538096,-0.2462005
0.9972965,-0.01962288,-0.2434738
0.9992421,-0.01497791,-0.2452807
1.000161,-0.01274918,-0.2438776
1.00053,-0.01505039,-0.248061
1.001873,-0.01592791,-0.2561113
0.9999962,-0.01492815,-0.2517014
0.9964088,-0.01514112,-0.2497788
0.9943022,-0.01446495,-0.2540396
0.9929557,-0.01337632,-0.2543322
0.9931122,-0.01306864,-0.2560299
0.9930727,-0.0131801,-0.2560119
0.9928757,-0.01339937,-0.2548383
0.9938565,-0.01480091,-0.2556608
0.9955379,-0.01861284,-0.2533457
0.9978862,-0.02237134,-0.2497059
0.9967992,-0.02279687,-0.2473645
0.9947003,-0.02197646,-0.2477204
0.9960615,-0.0232267,-0.25074
0.9951821,-0.0238305,-0.2509174
0.993493,-0.02188581,-0.2499916
0.9938579,-0.01837032,-0.2521407
0.9933647,-0.01547007,-0.2532397
0.9957989,-0.01682331,-0.2544335
1.000215,-0.01918354,-0.2544476
1.000119,-0.01948839,-0.245794
0.9969028,-0.01987902,-0.2403093
0.9950428,-0.02037022,-0.2457078
0.9953342,-0.02188137,-0.248816
0.9948491,-0.02287165,-0.250262
0.9940583,-0.021891,-0.2540613
0.9968008,-0.0218278,-0.2531027
1.000281,-0.02067879,-0.2508548
1.000933,-0.01774653,-0.2506349
0.9984282,-0.01473744,-0.245111
0.9948486,-0.01065443,-0.2365016
0.9982524,-0.01070237,-0.2335907
1.004019,-0.01622517,-0.2366927
1.002001,-0.02041649,-0.2445227
0.9987747,-0.02251536,-0.2538411
0.9967474,-0.02297265,-0.255851
0.9964171,-0.02314454,-0.2535309
0.999251,-0.02421491,-0.255018
0.9986782,-0.02265704,-0.2538134
0.9991523,-0.02207359,-0.2512073
1.000935,-0.02301657,-0.2532369
0.9989257,-0.02155991,-0.2511645
0.997442,-0.02224759,-0.2491952
0.9952163,-0.0227437,-0.2533329
0.9953039,-0.02155956,-0.2552441
0.9977646,-0.02264544,-0.256071
0.9965359,-0.02149,-0.2571947
0.9955071,-0.01833067,-0.257123
0.9945182,-0.01620278,-0.2569222
0.9955535,-0.01712844,-0.2566685
0.9986133,-0.02108456,-0.2576584
0.9970219,-0.02082184,-0.2582091
0.9963022,-0.01862733,-0.2583363
0.9961362,-0.01812756,-0.256989
0.9934587,-0.01872992,-0.2560804
0.9941247,-0.02207451,-0.2587158
0.994169,-0.02277843,-0.2579454
0.9929873,-0.02148101,-0.2550408
0.9968707,-0.02071279,-0.2530212
1.000919,-0.01886401,-0.252068
0.9998328,-0.02022001,-0.2552744
0.9963852,-0.02159784,-0.2556041
0.9934752,-0.02068539,-0.251781
0.9923138,-0.02172298,-0.247305
0.9935328,-0.02224714,-0.2441464
0.9951853,-0.02028018,-0.2463596
0.9959867,-0.01801346,-0.2478464
0.9962133,-0.01889847,-0.2497401
0.9955213,-0.02189296,-0.2551632
0.9957811,-0.02270537,-0.2582745
0.9963411,-0.02201906,-0.2631139
0.9963755,-0.0211494,-0.2656262
0.9976584,-0.02066159,-0.2570514
0.9972364,-0.02061329,-0.2497819
0.9955079,-0.01998375,-0.2533645
0.9939787,-0.01921776,-0.2563111
0.9915542,-0.01959973,-0.2542019
0.9930661,-0.02114417,-0.2571971
0.9982415,-0.02089635,-0.2618289
1.001191,-0.01898481,-0.2624306
1.000406,-0.01921507,-0.2621194
0.9991312,-0.02096371,-0.2594626
1.000412,-0.02191844,-0.2580541
1.000234,-0.02237732,-0.2551858
0.9995997,-0.02257591,-0.2487729
1.001583,-0.02342055,-0.2493245
1.002372,-0.02662808,-0.2502895
1.002985,-0.02847663,-0.2478468
1.002342,-0.02428329,-0.2480719
0.998544,-0.01587449,-0.245918
0.995593,-0.00926428,-0.2459668
0.9950707,-0.01054311,-0.2510396
0.9963528,-0.01475153,-0.253362
0.9959622,-0.01571189,-0.251386
0.9952759,-0.01890474,-0.2477745
0.9963929,-0.02339294,-0.2491558
0.9961216,-0.02484986,-0.2539125
0.9983725,-0.02228708,-0.2561881
1.001037,-0.01712733,-0.2556663
0.9989983,-0.01692639,-0.2511317
0.9979821,-0.01584576,-0.248938
0.9991486,-0.01221922,-0.2515328
1.000534,-0.01622483,-0.2561999
1.001959,-0.01793751,-0.2606724
1.001783,-0.01568896,-0.2550116
0.9990294,-0.01717505,-0.2484057
0.9951879,-0.01639916,-0.2528087
0.9940399,-0.01554367,-0.2551186
0.9940821,-0.01559514,-0.2533961
0.9932928,-0.01598916,-0.2541109
0.9940085,-0.01923809,-0.2523845
0.9956348,-0.0197278,-0.2491829
0.9984622,-0.01820826,-0.2484188
1.001516,-0.01713973,-0.25029
1.000238,-0.01667513,-0.2584001
0.9972592,-0.01685,-0.2665588
0.9952454,-0.01443669,-0.263581
0.9931834,-0.01275043,-0.2577622
0.9931552,-0.01180631,-0.25667
0.9933593,-0.01024097,-0.256894
0.9945256,-0.01172188,-0.2610916
0.9969153,-0.01320264,-0.267528
0.9956516,-0.01411746,-0.2684508
0.9954279,-0.01660405,-0.257865
0.9964017,-0.02130501,-0.2440682
0.9953904,-0.02706544,-0.2465524
0.9962012,-0.026239,-0.2553613
0.9967929,-0.0249784,-0.2556436
0.9972528,-0.02866953,-0.2551757
0.9976302,-0.02456299,-0.2510014
0.9967672,-0.0197985,-0.2473028
0.9974424,-0.02297875,-0.2529848
0.9971163,-0.02172661,-0.2582886
0.9960664,-0.01701977,-0.2619248
0.9963911,-0.014485,-0.2640657
0.998206,-0.01449626,-0.2595723
1.00054,-0.01593406,-0.2541487
0.9976258,-0.01315641,-0.2546268
0.9941881,-0.01207166,-0.2559669
0.9960959,-0.01571576,-0.2531865
0.9963804,-0.01712213,-0.2533242
0.9952259,-0.01571438,-0.2524881
0.9961109,-0.01274465,-0.2484114
0.9959083,-0.0128232,-0.2518917
0.9954002,-0.01731613,-0.2569336
0.9953569,-0.0206066,-0.2589129
0.9946036,-0.02009025,-0.2584829
0.9945242,-0.01840529,-0.2537166
0.9949269,-0.01982341,-0.2520408
0.9967808,-0.01987779,-0.252762
0.9991678,-0.01863233,-0.2535522
0.9979874,-0.01938261,-0.2571302
0.99549,-0.01641203,-0.2616881
0.9933537,-0.01516923,-0.2633235
0.9928027,-0.01709729,-0.2579
0.994289,-0.01580858,-0.2522925
0.9920456,-0.01713814,-0.2506423
0.991074,-0.01904295,-0.2498287
0.9951703,-0.01868402,-0.2533788
0.9966121,-0.02041574,-0.2579167
0.9967725,-0.02041894,-0.2590668
0.9973621,-0.02014581,-0.2580275
0.9970186,-0.02049763,-0.2560373
0.9964668,-0.01687075,-0.2554463
0.9953458,-0.01564476,-0.2552612
0.9958576,-0.01626245,-0.2557122
0.9964588,-0.01390295,-0.2552238
0.9972844,-0.0145101,-0.2524527
0.9990468,-0.01580413,-0.250938
0.9969486,-0.01568882,-0.2507761
0.9948078,-0.01799042,-0.2509493
0.9961669,-0.01980097,-0.2497608
0.9970366,-0.01811387,-0.2499658
0.9970235,-0.01544741,-0.2534305
0.9963215,-0.01665746,-0.2547637
0.9945877,-0.01725351,-0.2550868
0.9945258,-0.01497226,-0.2542518
0.9973649,-0.01556713,-0.2510857
0.9994465,-0.01636274,-0.2493412
0.9989474,-0.01759227,-0.2496008
0.99924,-0.01919539,-0.2506368
1.00136,-0.01900565,-0.2508655
1.001549,-0.01948973,-0.2550181
0.9992229,-0.01705176,-0.2587917
0.9981558,-0.01594967,-0.2493707
0.9985388,-0.02018061,-0.2397137
0.9984311,-0.02155329,-0.2445223
0.9968257,-0.0205707,-0.2555556
0.9951146,-0.01984004,-0.2647107
0.9958101,-0.01912429,-0.2669708
0.9961809,-0.01882664,-0.2602999
0.9955363,-0.01534262,-0.2551525
0.9959438,-0.01007729,-0.2547538
0.9960548,-0.008721625,-0.2507743
0.9966201,-0.01121256,-0.247378
0.9970564,-0.01258986,-0.2489101
0.994595,-0.01322995,-0.2522781
0.992577,-0.01739779,-0.2563047
0.9955297,-0.0215832,-0.2576672
0.9988639,-0.02117489,-0.2566644
0.9978538,-0.01837221,-0.2548124
0.9975062,-0.01773657,-0.2535245
0.9985862,-0.01952825,-0.2529963
0.9983372,-0.02142361,-0.250683
0.9981536,-0.02289222,-0.2494555
0.9951105,-0.02228457,-0.2499129
0.9921484,-0.02176814,-0.2502473
0.9960439,-0.02265068,-0.2503399
1.000475,-0.02186352,-0.2517046
0.9996624,-0.02088658,-0.2545651
0.9961154,-0.01866217,-0.2542639
0.9935943,-0.0153521,-0.252386
0.9953716,-0.01490091,-0.250085
0.9985867,-0.01569715,-0.2475262
0.9985749,-0.0173281,-0.2485746
0.9966779,-0.0194736,-0.2491359
0.9953576,-0.01983033,-0.2481842
0.9960935,-0.01929134,-0.2499839
0.9989613,-0.01932685,-0.2549678
1.000646,-0.01964337,-0.2588291
1.000147,-0.01915921,-0.2522181
0.9997122,-0.0185054,-0.241665
0.9998612,-0.01686613,-0.2413414
0.9992922,-0.01242002,-0.2426488
0.9983126,-0.009821453,-0.2418141
0.9994538,-0.01612905,-0.2472208
1.000246,-0.02395126,-0.2492512
0.998003,-0.02042901,-0.2472347
0.9969667,-0.01650726,-0.2492543
0.9989531,-0.01826412,-0.2472236
1.000644,-0.01444078,-0.2463942
0.9992017,-0.01362236,-0.2508528
0.9978026,-0.01527964,-0.2502996
0.9989417,-0.01181473,-0.2489251
0.9987246,-0.01668211,-0.2482832
0.9982994,-0.0218803,-0.2469085
0.9989001,-0.01716797,-0.2473837
0.9986407,-0.01375089,-0.2432953
0.999497,-0.01229101,-0.2394926
1.000387,-0.01370271,-0.2424878
0.9999593,-0.01663404,-0.2431893
0.9999093,-0.01455598,-0.2418227
0.9998724,-0.01208203,-0.2410775
0.9989526,-0.01086653,-0.238405
0.9973926,-0.01069225,-0.2409118
0.9968669,-0.0125777,-0.2450733
0.9973502,-0.0135811,-0.2426128
0.9970865,-0.01673627,-0.2424306
0.9966056,-0.02103937,-0.2441037
0.9970335,-0.01928811,-0.2435494
0.9972636,-0.01573773,-0.2462708
0.9956927,-0.01509791,-0.2491208
0.9956425,-0.01586085,-0.2503432
0.9991072,-0.02084594,-0.2505429
1.000786,-0.02818936,-0.2493508
1.000284,-0.02929189,-0.2502214
1.001805,-0.02163102,-0.2504292
1.004276,-0.01437711,-0.2504243
1.003297,-0.01539058,-0.252053
0.9966254,-0.01454492,-0.2511779
0.9915878,-0.009814534,-0.2503443
0.9960467,-0.01444142,-0.2508171
1.000875,-0.01989817,-0.2498933
0.9974977,-0.01606233,-0.2474062
0.9959944,-0.01231337,-0.2446971
0.9991689,-0.01131568,-0.245621
0.9986625,-0.01400779,-0.2466584
0.9979084,-0.01806338,-0.2451839
0.9971388,-0.01411782,-0.2459679
0.9939528,-0.01071507,-0.2457807
0.9943463,-0.01478755,-0.2435795
0.9959143,-0.01804089,-0.2437641
0.9965081,-0.01984348,-0.247194
0.9970842,-0.01923942,-0.2505818
0.9962626,-0.01707438,-0.245232
0.9972733,-0.01919324,-0.2386481
0.9977762,-0.02001082,-0.2419191
0.9966867,-0.01728191,-0.2434539
0.9974254,-0.01443718,-0.2430957
0.9976925,-0.01188517,-0.2476975
0.9987536,-0.01492965,-0.2492409
1.000946,-0.01935561,-0.2504989
1.001012,-0.01801181,-0.2528286
1.001035,-0.01648947,-0.2505704
1.000912,-0.01320379,-0.2501692
0.9994945,-0.008351714,-0.2498273
0.999824,-0.01176383,-0.2455968
1.000454,-0.01540695,-0.2450938
0.9996673,-0.00981864,-0.2505368
1.000047,-0.007760359,-0.2571112
0.9998305,-0.0151256,-0.2553359
0.9977683,-0.0200782,-0.2493146
0.9959804,-0.0174564,-0.2500867
0.9952964,-0.01555962,-0.2501322
0.9969452,-0.01974552,-0.2491337
1.001359,-0.02396145,-0.2496663
1.008267,-0.02550243,-0.2492878
1.009759,-0.02455153,-0.2520472
0.9984097,-0.01835627,-0.2498836
0.9891488,-0.01180227,-0.2445817
0.9928775,-0.007923167,-0.2457639
0.9958764,-0.006084184,-0.2495782
0.9936942,-0.00774567,-0.2560936
0.9953084,-0.01071568,-0.2566412
0.9971845,-0.01343224,-0.2526889
0.9965803,-0.01301461,-0.2558362
0.9980603,-0.011757,-0.2554682
0.9983,-0.01392721,-0.2543796
0.9987804,-0.01438614,-0.25696
0.9990319,-0.01429225,-0.2541307
0.9939601,-0.01510035,-0.2517787
0.9922698,-0.01442474,-0.2497006
0.9944537,-0.01567046,-0.2488863
0.9954146,-0.01753269,-0.2526143
0.9965,-0.01818313,-0.2529939
0.9953112,-0.01857344,-0.2542988
0.9948341,-0.01865024,-0.2551628
0.9946071,-0.01919145,-0.2528155
0.9939889,-0.01708888,-0.2533354
0.9959296,-0.01453199,-0.2496419
0.9964368,-0.01787808,-0.245208
0.9983964,-0.02059501,-0.2461307
1.001082,-0.01741876,-0.2467127
0.9994192,-0.01545371,-0.2485216
0.9970061,-0.01608172,-0.2490886
0.9952109,-0.01521107,-0.2483633
0.9956879,-0.01486272,-0.2501567
0.997295,-0.01511416,-0.2515531
0.9969935,-0.01251763,-0.2519956
0.9964283,-0.01065911,-0.2513895
0.9955464,-0.01371385,-0.2527488
0.9959814,-0.01656007,-0.2547739
0.9979822,-0.01530224,-0.2536349
0.9989291,-0.01464007,-0.2537592
0.9988333,-0.0157807,-0.2516729
0.9979804,-0.01521192,-0.2473343
0.9968566,-0.01499758,-0.2463513
0.9954812,-0.01564614,-0.2442372
0.995371,-0.01504574,-0.2444901
0.9962173,-0.01617356,-0.2505023
0.9949294,-0.01992666,-0.254443
0.9948431,-0.02333637,-0.2563584
0.9965823,-0.0231298,-0.2592589
0.9967189,-0.02200898,-0.2599115
0.9972737,-0.02325824,-0.2578881
0.9968206,-0.0185374,-0.2538318
0.9933305,-0.01179812,-0.2482519
0.9912456,-0.01369152,-0.2492835
0.9941464,-0.01524197,-0.2546119
0.9982375,-0.01490298,-0.2540914
0.9977189,-0.01726992,-0.253491
0.9975365,-0.01597477,-0.2517008
1.000348,-0.01339554,-0.2466101
0.9998811,-0.01376439,-0.2481709
0.9977074,-0.01274351,-0.2540101
0.9960611,-0.0102687,-0.2592308
0.9951657,-0.009405236,-0.2589984
0.9962051,-0.01089154,-0.2558899
0.9958885,-0.01381383,-0.2591846
0.9955171,-0.01618026,-0.2582004
0.9961772,-0.0171406,-0.2525207
0.9956292,-0.01712298,-0.2503341
0.9961991,-0.01811282,-0.2469839
0.9977643,-0.01985063,-0.2454271
0.9989522,-0.0179085,-0.245746
0.9995303,-0.01548832,-0.2470836
1.000977,-0.01689627,-0.2501429
1.004666,-0.01685705,-0.2519652
1.004233,-0.01495431,-0.2547478
0.9993596,-0.01330433,-0.2553944
0.9961369,-0.01058323,-0.2548543
0.9949765,-0.008899233,-0.25448
0.996049,-0.008355673,-0.2516563
0.9962465,-0.008848345,-0.2526884
0.9952411,-0.01073377,-0.2535248
0.9965599,-0.011365,-0.2520068
0.9978065,-0.01190458,-0.252678
0.9997449,-0.01218329,-0.2497118
1.000885,-0.01064539,-0.2457436
0.9992187,-0.008591879,-0.2453387
0.9988262,-0.006383698,-0.2475314
0.9972235,-0.008210016,-0.2541509
0.996171,-0.01181776,-0.2601016
0.9976976,-0.01198957,-0.2576501
0.9957047,-0.01422825,-0.2525285
0.9948513,-0.01497208,-0.2524283
0.99672,-0.01269438,-0.25015
0.9956013,-0.01472806,-0.2494044
0.9955024,-0.01598409,-0.2551253
0.9968839,-0.01577691,-0.2544594
0.9981535,-0.01397771,-0.2531046
1.000877,-0.009108985,-0.2543384
0.9999794,-0.00989676,-0.2516938
0.9964039,-0.0111005,-0.252923
0.9953753,-0.01031834,-0.2533276
0.9944862,-0.01360177,-0.2519629
0.9936542,-0.01292931,-0.253473
0.9939178,-0.01159937,-0.2527934
0.9956657,-0.0144436,-0.2546768
0.998452,-0.01495673,-0.2571877
0.9988219,-0.01628452,-0.2555152
0.9986087,-0.01682707,-0.2527004
0.9986858,-0.01351246,-0.2502669
0.9981917,-0.01131699,-0.2510508
0.9979986,-0.009569839,-0.2501745
0.9968051,-0.007753098,-0.24767
0.9970385,-0.007049794,-0.249578
0.997683,-0.007169677,-0.2501675
0.9968217,-0.007845995,-0.2470296
0.9973872,-0.008421967,-0.2449536
0.9973028,-0.008852086,-0.2456785
0.9969901,-0.009098592,-0.2452972
0.9980143,-0.01087561,-0.240131
0.9997243,-0.01215404,-0.2365649
1.001543,-0.01258753,-0.2410297
0.9982076,-0.01564674,-0.2474538
0.9939757,-0.01698555,-0.2491915
0.9962176,-0.01722186,-0.2510385
0.9981219,-0.01873717,-0.2539821
0.99681,-0.01758812,-0.2545777
0.9965875,-0.01564755,-0.2548388
0.9971339,-0.01329185,-0.2505727
0.9973486,-0.01150295,-0.2433721
0.9962973,-0.01223951,-0.2409504
0.9949421,-0.01008944,-0.2419747
0.9946071,-0.007466457,-0.2476499
0.9943737,-0.01006124,-0.2524598
0.9959473,-0.01206335,-0.2525859
0.9965155,-0.009468004,-0.2554732
0.9939874,-0.006396207,-0.2568588
0.9934336,-0.0059573,-0.2568538
0.9930714,-0.009716222,-0.2599452
0.9925727,-0.01430261,-0.2592518
0.993941,-0.01291898,-0.253894
0.9949635,-0.01176268,-0.2509098
0.9980309,-0.01604856,-0.2562649
0.9995606,-0.01709235,-0.2615437
0.9971303,-0.01427718,-0.2553212
0.9969643,-0.01162445,-0.2503812
0.9974039,-0.01112241,-0.2551709
0.9970942,-0.01610118,-0.2572652
0.9973536,-0.02066146,-0.2561721
0.9970962,-0.02073795,-0.2568538
0.9971177,-0.02019618,-0.2537254
0.9963419,-0.01925853,-0.2515807
0.9954662,-0.01759469,-0.2552399
0.99586,-0.01686673,-0.2557718
0.9962813,-0.01491976,-0.2525013
0.9975747,-0.01049989,-0.250661
0.9991318,-0.0113683,-0.2514302
0.9985111,-0.01579933,-0.253783
0.9964002,-0.01531995,-0.2544301
0.9954508,-0.01511931,-0.2536732
0.99595,-0.01559586,-0.2514868
0.9968518,-0.0148535,-0.2490167
0.9976905,-0.01563647,-0.2504329
0.9984578,-0.01478475,-0.2531939
1.00056,-0.01282671,-0.2544277
1.001798,-0.009586801,-0.2535009
0.9995346,-0.007492436,-0.2511035
0.9979623,-0.01169765,-0.2511547
0.9995379,-0.01548092,-0.2517166
1.000629,-0.01561889,-0.2509504
0.9998165,-0.01521106,-0.2506181
0.9998275,-0.0150826,-0.2497504
1.000273,-0.01497541,-0.2488761
0.9998175,-0.01249372,-0.2458958
0.9993117,-0.01040729,-0.2409394
0.9965261,-0.01185624,-0.2398345
0.9930294,-0.01392614,-0.2401651
0.9935961,-0.01598958,-0.2428609
0.9953594,-0.01879929,-0.2507834
0.9958284,-0.01814928,-0.2533897
0.9961716,-0.01349791,-0.2515423
0.9956913,-0.01170276,-0.2517275
0.9956488,-0.01250518,-0.2495065
0.9961552,-0.01261209,-0.2502046
0.9956172,-0.01262133,-0.2527965
0.9958242,-0.01259722,-0.2505591
0.9960304,-0.01444233,-0.2503546
0.99558,-0.01590942,-0.2503149
0.996008,-0.01520594,-0.2496134
0.9961664,-0.01572163,-0.252401
0.9976816,-0.01796504,-0.2531482
1.000236,-0.02033104,-0.252385
0.9999633,-0.01973478,-0.2506801
0.9976275,-0.01784748,-0.2474479
0.9949132,-0.01545665,-0.2474772
0.9941196,-0.01144066,-0.2507983
0.9963778,-0.01349427,-0.2540651
0.9979588,-0.01720754,-0.2531329
0.99687,-0.01473158,-0.252863
0.9950862,-0.01472854,-0.2588275
0.9948853,-0.01650156,-0.2614266
0.9977742,-0.01647787,-0.2551069
1.001345,-0.01833585,-0.2487529
1.000257,-0.01678213,-0.2508872
0.9976934,-0.01387861,-0.2533626
0.9972111,-0.01596136,-0.2508427
0.9952315,-0.0174583,-0.2523851
0.9952954,-0.01768467,-0.2529791
0.9969234,-0.01685474,-0.251661
0.9961404,-0.01423107,-0.253882
0.9973237,-0.01513646,-0.2522796
0.9968704,-0.01581606,-0.2511728
0.9949704,-0.01358194,-0.2513514
0.9971194,-0.0129359,-0.2496949
0.9976538,-0.0122948,-0.2520906
0.996917,-0.01188709,-0.2516436
0.9974161,-0.01113788,-0.2495684
0.9976197,-0.008887567,-0.2521363
0.9999832,-0.009534203,-0.2575774
1.00203,-0.01068605,-0.2639762
1.000726,-0.01103495,-0.2578836
0.9992496,-0.0131711,-0.2474495
0.9995191,-0.01287804,-0.2506471
0.9977429,-0.01144959,-0.2546517
0.9945573,-0.01114427,-0.2546409
0.9958839,-0.009349474,-0.2518142
0.9974801,-0.01065431,-0.2445409
0.9970413,-0.01481596,-0.2448346
0.9982488,-0.01596835,-0.2473085
0.9981276,-0.01621742,-0.2446972
0.9975489,-0.01624893,-0.2451074
0.997997,-0.01404967,-0.2446035
0.9971249,-0.01169911,-0.2438619
0.9970912,-0.01205247,-0.2466128
0.9987258,-0.01306878,-0.2484656
1.000461,-0.01110632,-0.2507744
1.001032,-0.00970965,-0.2496568
0.9998534,-0.00986542,-0.2445485
0.9997241,-0.00972933,-0.2425086
1.00129,-0.01230069,-0.2435624
1.001622,-0.01575375,-0.2460524
1.001074,-0.01687956,-0.2446386
1.000582,-0.01425831,-0.2399027
1.000032,-0.01117843,-0.2388019
1.001674,-0.01351322,-0.2411439
1.003603,-0.01554576,-0.2426215
1.026204,-0.07433276,-0.04230592
1.023279,-0.07867626,-0.04400805
1.022864,-0.07202262,-0.04741525
1.024698,-0.06888221,-0.05565423
1.025154,-0.06682852,-0.05795955
1.025836,-0.05940923,-0.06296329
1.022535,-0.05806334,-0.06805442
1.017503,-0.05565464,-0.06877736
1.021046,-0.05541496,-0.06896251
1.02675,-0.06469944,-0.06860105
1.02815,-0.0657158,-0.06636489
1.026865,-0.06162773,-0.06104052
1.022883,-0.05702839,-0.05624835
1.02219,-0.05344529,-0.05233823
1.027043,-0.05690853,-0.0537492
1.03016,-0.05743042,-0.05937457
1.027832,-0.0583545,-0.05598273
1.024723,-0.06029543,-0.05479643
1.025501,-0.05854937,-0.06302267
1.024404,-0.05855761,-0.06794959
1.021627,-0.05670982,-0.07168237
1.023589,-0.05801776,-0.07488483
1.024882,-0.06087828,-0.07698786
1.024945,-0.05645179,-0.07818386
1.025446,-0.05448052,-0.07522393
1.02449,-0.05581736,-0.07231245
1.025602,-0.05565788,-0.06643417
1.026917,-0.05535806,-0.06390941
1.02757,-0.05467143,-0.0709916
1.026651,-0.05519306,-0.0736825
1.023387,-0.05649774,-0.07302082
1.023246,-0.05817364,-0.07367423
1.02201,-0.06053659,-0.07285724
1.019293,-0.06264867,-0.06997985
1.018839,-0.06068869,-0.06477421
1.017894,-0.05647099,-0.06451472
1.021397,-0.05833407,-0.06604482
1.027213,-0.05852726,-0.06483968
1.027986,-0.05275661,-0.06506993
1.025272,-0.05053799,-0.06351954
1.022845,-0.05119967,-0.06200659
1.02616,-0.05274429,-0.06353608
1.028754,-0.05280191,-0.06510084
1.02321,-0.05050905,-0.06365188
1.018098,-0.04986687,-0.05797872
1.018772,-0.0496215,-0.05483164
1.02536,-0.04990492,-0.05997144
1.0313,-0.04839679,-0.06629566
1.027671,-0.04669602,-0.06357852
1.023656,-0.05074318,-0.05813856
1.026291,-0.05506382,-0.05790925
1.02707,-0.05599962,-0.05756134
1.025467,-0.05378505,-0.05797915
1.024864,-0.05150915,-0.06046723
1.023463,-0.0518561,-0.06160099
1.024942,-0.04952983,-0.06100876
1.027646,-0.04760042,-0.05882281
1.025829,-0.04853993,-0.05803641
1.024154,-0.04698468,-0.05703185
1.02379,-0.04507237,-0.05206953
1.023968,-0.04623716,-0.04853152
1.025725,-0.04897253,-0.05560017
1.025417,-0.05107342,-0.06483718
1.026281,-0.05330087,-0.05964116
1.029002,-0.05607017,-0.05499274
1.028657,-0.05585825,-0.05787124
1.028947,-0.05170056,-0.05198488
1.029203,-0.04687178,-0.04814284
1.026084,-0.04255563,-0.04927359
1.0244,-0.04016142,-0.04702467
1.025801,-0.0420125,-0.05150171
1.026993,-0.04322753,-0.05559235
1.026378,-0.04521188,-0.05039987
1.02639,-0.05051892,-0.04685665
1.028517,-0.04920062,-0.04868605
1.029607,-0.04706425,-0.04942825
1.029062,-0.04975238,-0.04755001
1.027758,-0.04801984,-0.04694261
1.025524,-0.04686961,-0.04568985
1.023801,-0.04943062,-0.04539296
1.023881,-0.05358984,-0.04846221
1.024629,-0.05706309,-0.04885924
1.022977,-0.05262248,-0.04816356
1.02036,-0.04978426,-0.04702313
1.019374,-0.05327679,-0.04511445
1.020185,-0.05394669,-0.04738182
1.023498,-0.05436352,-0.05046462
1.025585,-0.05534593,-0.0524985
1.026792,-0.05545874,-0.05479143
1.029494,-0.05591969,-0.05751103
1.029638,-0.05510301,-0.05957251
1.029536,-0.05341579,-0.05780321
1.030358,-0.04751037,-0.05698412
1.029759,-0.04034448,-0.0579288
1.030557,-0.04079403,-0.05900286
1.029939,-0.04293479,-0.06188564
1.024649,-0.04318646,-0.05961406
1.019767,-0.04849247,-0.05582211
1.020415,-0.05394362,-0.05741195
1.023761,-0.05326333,-0.05800718
1.024914,-0.05327572,-0.05824039
1.026231,-0.05342823,-0.05880266
1.027633,-0.05028622,-0.05878532
1.027031,-0.05099333,-0.06295892
1.027163,-0.05223291,-0.06677454
1.02787,-0.0497162,-0.06481488
1.028162,-0.0498875,-0.06092834
1.028593,-0.05043949,-0.05901205
1.029282,-0.05053124,-0.05876088
1.029525,-0.05200686,-0.05653731
1.028803,-0.05130812,-0.05300937
1.029235,-0.05114234,-0.05316727
1.0294,-0.05135937,-0.05327838
1.028813,-0.04845852,-0.04928358
1.029077,-0.0435338,-0.04833274
1.02732,-0.03939602,-0.04933771
1.025878,-0.040308,-0.04826579
1.027322,-0.04103172,-0.05115221
1.027694,-0.03757727,-0.05493745
1.024946,-0.03667257,-0.05598057
1.021631,-0.03696022,-0.05600399
1.021826,-0.03873647,-0.05579015
1.023117,-0.04512351,-0.06082584
1.024245,-0.04860473,-0.06626861
1.028243,-0.05178012,-0.06459537
1.03035,-0.05919162,-0.06060088
1.028887,-0.05781301,-0.06015636
1.028519,-0.04590221,-0.06132941
1.027549,-0.03795101,-0.05732831
1.024815,-0.03972603,-0.055239
1.024073,-0.04599868,-0.06211968
1.023699,-0.05193984,-0.06745748
1.021544,-0.0559293,-0.06486887
1.022384,-0.04936388,-0.05945157
1.025587,-0.03843052,-0.05767156
1.027324,-0.04171692,-0.05795708
1.029381,-0.04637639,-0.05755633
1.031044,-0.04450259,-0.05699591
1.030307,-0.04508292,-0.05526225
1.027403,-0.04224811,-0.05206773
1.02445,-0.04218561,-0.0484565
1.023974,-0.04458036,-0.0545785
1.024501,-0.04138123,-0.063294
1.025102,-0.04028043,-0.0568349
1.025272,-0.03681936,-0.05302701
1.024719,-0.03433129,-0.05800949
1.02509,-0.03769582,-0.05701346
1.025276,-0.03760529,-0.05613807
1.026069,-0.03936779,-0.05546411
1.028604,-0.0416131,-0.05236727
1.029572,-0.0413253,-0.05300655
1.028256,-0.04333007,-0.05593457
1.027273,-0.04263497,-0.0585533
1.027824,-0.04108788,-0.05889599
1.02784,-0.04018029,-0.0584016
1.026451,-0.03972006,-0.0614684
1.025332,-0.04211171,-0.06527833
1.025032,-0.04259901,-0.06555109
1.026919,-0.04255732,-0.06322322
1.029469,-0.04018887,-0.06166621
1.02943,-0.03384226,-0.0619786
1.028924,-0.03229627,-0.0625422
1.029251,-0.03376232,-0.06268411
1.02812,-0.03437222,-0.06298332
1.023758,-0.03582576,-0.06469665
1.019758,-0.03931501,-0.06497047
1.022875,-0.04396589,-0.05877579
1.026874,-0.04363563,-0.05306264
1.023642,-0.04122083,-0.05467594
1.02158,-0.04180282,-0.05572258
1.022831,-0.0416954,-0.05388396
1.022565,-0.04203545,-0.05336329
1.025751,-0.04455697,-0.05250094
1.029245,-0.04650356,-0.05248472
1.027745,-0.04618769,-0.05325933
1.026893,-0.04473857,-0.05266456
1.026368,-0.04353339,-0.05328181
1.024948,-0.04195282,-0.05291768
1.027317,-0.04262458,-0.05046539
1.030001,-0.0438946,-0.04990135
1.026055,-0.04088203,-0.04881949
1.020697,-0.03763504,-0.04857237
1.020895,-0.03591798,-0.05323216
1.023668,-0.037042,-0.05586005
1.025829,-0.04062843,-0.05453737
1.025372,-0.03968628,-0.05588683
1.024221,-0.03930574,-0.05799149
1.02565,-0.03962738,-0.05830705
1.026308,-0.03616471,-0.05833981
1.028205,-0.03753196,-0.05636443
1.031191,-0.039337,-0.05483206
1.030545,-0.03822014,-0.05572008
1.029643,-0.03983412,-0.05565601
1.027059,-0.04051987,-0.05489753
1.022782,-0.04190681,-0.05295396
1.023066,-0.04242053,-0.05051427
1.024471,-0.04058727,-0.05094781
1.024239,-0.04120845,-0.05106673
1.025316,-0.04015796,-0.05015615
1.026281,-0.03983366,-0.05336873
1.026263,-0.04281693,-0.05748914
1.026605,-0.04598032,-0.05709487
1.026183,-0.05005208,-0.05553253
1.025305,-0.04911278,-0.05231928
1.02552,-0.04562673,-0.04867166
1.027954,-0.04371146,-0.05366378
1.032845,-0.0376099,-0.06147333
1.033119,-0.03496681,-0.063068
1.02562,-0.03714453,-0.05965878
1.020178,-0.03715446,-0.0513966
1.022731,-0.04034585,-0.04650814
1.026168,-0.04337203,-0.04951674
1.024706,-0.0432654,-0.05021041
1.02419,-0.04585704,-0.04424482
1.023985,-0.04786059,-0.03693836
1.021617,-0.04881059,-0.03556667
1.024819,-0.05068402,-0.04139837
1.028126,-0.05002598,-0.0478496
1.026847,-0.04752981,-0.04963692
1.02801,-0.04328992,-0.04843526
1.029101,-0.03838134,-0.04824449
1.02851,-0.03870977,-0.04768428
1.026751,-0.04001644,-0.04638281
1.023823,-0.03800554,-0.04760241
1.023804,-0.03891509,-0.05134699
1.024413,-0.03936721,-0.05378088
1.024866,-0.03719728,-0.05267752
1.027101,-0.03769514,-0.05146421
1.027532,-0.03850419,-0.05190709
1.029727,-0.04352602,-0.05394515
1.036161,-0.05238736,-0.05649491
1.036538,-0.0532692,-0.05529867
1.030182,-0.04585124,-0.05079043
1.02536,-0.03711174,-0.04380612
1.023874,-0.03426992,-0.03817496
1.02534,-0.03733017,-0.04226005
1.025425,-0.04006599,-0.04880879
1.024337,-0.04227464,-0.04886296
1.025443,-0.04228737,-0.04838768
1.025318,-0.0409226,-0.04771009
1.026495,-0.04225177,-0.04567371
1.028738,-0.04372373,-0.04584014
1.027664,-0.04437829,-0.04613975
1.027123,-0.04386908,-0.04809672
1.026296,-0.0414663,-0.0520684
1.024123,-0.04128562,-0.05260724
1.023913,-0.0421135,-0.04844536
1.024326,-0.04100977,-0.04401443
1.025944,-0.03941873,-0.04587885
1.028737,-0.03561787,-0.04883467
1.028045,-0.03272828,-0.0482296
1.026026,-0.03482398,-0.04900479
1.026942,-0.03785408,-0.04861755
1.028194,-0.03961917,-0.04818874
1.02961,-0.03932052,-0.04881129
1.030663,-0.03935529,-0.04644346
1.030136,-0.04200937,-0.04533557
1.030718,-0.04312486,-0.04711703
1.029208,-0.04366373,-0.05212279
1.025767,-0.04415223,-0.05758227
1.024592,-0.04173146,-0.05554864
1.024587,-0.03831581,-0.05139966
1.025483,-0.03521917,-0.05058825
1.024607,-0.03545451,-0.05093846
1.022798,-0.0378957,-0.05448175
1.022772,-0.03670238,-0.05760478
1.024492,-0.03714539,-0.05550363
1.028539,-0.04174594,-0.05214172
1.028104,-0.04367168,-0.04879652
1.024957,-0.04153554,-0.04406402
1.025154,-0.03912814,-0.04085763
1.025007,-0.04009569,-0.04415442
1.026882,-0.04010265,-0.05315722
1.027922,-0.03860008,-0.05748645
1.023884,-0.04266056,-0.05461637
1.02117,-0.04592547,-0.0531856
1.022727,-0.04340749,-0.05446413
1.027445,-0.03940227,-0.05465812
1.030073,-0.03550202,-0.05463558
1.028467,-0.03534775,-0.05598734
1.026921,-0.03721667,-0.05566429
1.026071,-0.03770594,-0.05409511
1.02308,-0.03954124,-0.05359023
1.019395,-0.04123923,-0.05043057
1.021683,-0.04160566,-0.0476527
1.024501,-0.04151345,-0.04935663
1.023031,-0.03865364,-0.05021447
1.02382,-0.03557844,-0.04689874
1.023993,-0.03624232,-0.04266233
1.024392,-0.03816263,-0.04184845
1.027551,-0.03932933,-0.04298001
1.028127,-0.03892766,-0.04488145
1.027809,-0.03758098,-0.04709141
1.027676,-0.03764217,-0.04714256
1.027701,-0.03850434,-0.04665979
1.027679,-0.03986591,-0.04412586
1.025705,-0.03954694,-0.04235489
1.024611,-0.03653952,-0.04706688
1.024828,-0.035124,-0.0499231
1.025215,-0.03427897,-0.04676668
1.025585,-0.03149179,-0.04301086
1.027403,-0.02867215,-0.04132262
1.030994,-0.0275979,-0.04568161
1.032933,-0.03025087,-0.05529234
1.03509,-0.03751468,-0.0595461
1.035357,-0.04719734,-0.05233437
1.031769,-0.05332195,-0.04577965
1.029496,-0.05146047,-0.05080261
1.023202,-0.04742967,-0.05545966
1.012996,-0.04722853,-0.05444904
1.009726,-0.04856819,-0.05598452
1.011906,-0.05094514,-0.05545773
1.014149,-0.05134259,-0.05100561
1.016973,-0.04686061,-0.0456501
1.023363,-0.04341221,-0.04022538
1.033624,-0.03864995,-0.04359925
1.039061,-0.03366518,-0.05269399
1.035119,-0.03583951,-0.05714065
1.03051,-0.03416773,-0.05652792
1.026806,-0.02814116,-0.05418879
1.021322,-0.02923196,-0.05551503
1.021578,-0.03150627,-0.05455578
1.023305,-0.0323947,-0.04982352
1.021369,-0.03420278,-0.04708163
1.0227,-0.03460393,-0.0418949
1.023914,-0.03363985,-0.0434545
1.025966,-0.03019556,-0.04967849
1.029677,-0.02805783,-0.04834172
1.029302,-0.02980656,-0.05276739
1.030419,-0.03114029,-0.05726342
1.030514,-0.03187638,-0.05041821
1.027694,-0.03052931,-0.04641968
1.027264,-0.02725534,-0.0469613
1.024239,-0.02469967,-0.04591609
1.021451,-0.02171967,-0.04521541
1.022855,-0.02355749,-0.04734981
1.024378,-0.02941898,-0.05273533
1.02715,-0.02962187,-0.05870253
1.028762,-0.02775054,-0.05913469
1.027594,-0.02873341,-0.05242192
1.028505,-0.03196553,-0.04839663
1.029606,-0.03629338,-0.04657749
1.027766,-0.035135,-0.04461545
1.025578,-0.03214447,-0.05145948
1.024185,-0.03212813,-0.05712451
1.023089,-0.02935945,-0.04964632
1.022547,-0.0272866,-0.04337445
1.025197,-0.02658707,-0.05070707
1.031174,-0.02537564,-0.05801369
1.032609,-0.02745001,-0.05684927
1.027371,-0.02881252,-0.05849678
1.022426,-0.03168888,-0.05946088
1.021319,-0.03569432,-0.05792631
1.02199,-0.03546601,-0.05849028
1.019785,-0.03785049,-0.05192858
1.017731,-0.0386462,-0.04680128
1.022456,-0.0363863,-0.05325384
1.026974,-0.0389768,-0.05784953
1.025061,-0.03867969,-0.05538556
1.02459,-0.03419766,-0.0554551
1.028383,-0.03004407,-0.06091646
1.029927,-0.02800293,-0.06367583
1.028721,-0.03148671,-0.06258076
1.027248,-0.0328983,-0.06214604
1.02588,-0.03138329,-0.06143688
1.026073,-0.03125752,-0.05638382
1.02584,-0.02746604,-0.04685609
1.024499,-0.02354671,-0.04325252
1.024927,-0.02425993,-0.04489865
1.0253,-0.02407578,-0.04275106
1.024957,-0.02167812,-0.04212668
1.026113,-0.02421304,-0.04292168
1.027644,-0.03011291,-0.04113287
1.028042,-0.03123164,-0.04172812
1.02792,-0.03052545,-0.04418299
1.028574,-0.03100162,-0.04572472
1.029525,-0.0330784,-0.04772831
1.029442,-0.03553628,-0.05012707
1.029802,-0.03260217,-0.05166252
1.030278,-0.02885367,-0.04969915
1.027099,-0.02805453,-0.04560036
1.024109,-0.02780871,-0.04515722
1.027497,-0.02983495,-0.04557268
1.030781,-0.03207266,-0.04548908
1.028593,-0.03229362,-0.05058987
1.026412,-0.03087142,-0.0572923
1.024701,-0.02738102,-0.05912202
1.022954,-0.02441037,-0.05563452
1.025626,-0.02729638,-0.05321642
1.02839,-0.03305637,-0.05868995
1.027667,-0.03327675,-0.06771936
1.026851,-0.03281407,-0.07193198
1.023413,-0.03391129,-0.06594259
1.01932,-0.0319439,-0.05807704
1.021347,-0.03275451,-0.05923089
1.026589,-0.0381151,-0.05919937
1.030438,-0.04446313,-0.0568215
1.030426,-0.04691001,-0.05941487
1.024471,-0.04429892,-0.06004899
1.018511,-0.0444183,-0.06277162
1.019829,-0.0429766,-0.06772432
1.025539,-0.03875315,-0.06712404
1.028987,-0.0395388,-0.06981269
1.026842,-0.03838131,-0.07337779
1.022456,-0.0349364,-0.0722974
1.022093,-0.03731258,-0.0748779
1.024697,-0.04178021,-0.07608709
1.028144,-0.04477725,-0.06882783
1.030167,-0.04617655,-0.06043586
1.027677,-0.0433473,-0.05860828
1.024971,-0.04017752,-0.05976241
1.022895,-0.04181625,-0.06150709
1.020455,-0.04158718,-0.06843136
1.021247,-0.03722202,-0.07253717
1.023726,-0.03447854,-0.07130561
1.025628,-0.03442228,-0.07116554
1.025638,-0.03694433,-0.06883639
1.025193,-0.03800092,-0.07076114
1.027156,-0.0363233,-0.07786208
1.027565,-0.03590671,-0.0810757
1.027405,-0.03636146,-0.08234378
1.028386,-0.03823621,-0.08038053
1.02673,-0.04033764,-0.07550684
1.024098,-0.04056165,-0.07098052
1.021886,-0.03952673,-0.07019201
1.023158,-0.03633373,-0.07140047
1.026614,-0.03276361,-0.06700018
1.024471,-0.03169095,-0.0686965
1.022409,-0.03261902,-0.07347311
1.023527,-0.03365515,-0.07008542
1.025929,-0.03464565,-0.07333112
1.030925,-0.03355605,-0.07651047
1.029213,-0.03070869,-0.072337
1.023924,-0.03192473,-0.0725804
1.024379,-0.0332441,-0.07568265
1.02664,-0.03382407,-0.07871326
1.029534,-0.03732976,-0.07561052
1.02543,-0.03598182,-0.06874101
1.018334,-0.03239711,-0.06742225
1.021053,-0.03298453,-0.06754019
1.022341,-0.03677204,-0.06759874
1.022383,-0.0422754,-0.06645802
1.026525,-0.04053174,-0.06602017
1.025181,-0.03584014,-0.06769539
1.024086,-0.03643128,-0.06707976
1.026134,-0.03559758,-0.06806577
1.026492,-0.0350652,-0.06705557
1.028201,-0.03507545,-0.06200707
1.027941,-0.03390997,-0.06044047
1.025123,-0.0351397,-0.06101213
1.02372,-0.03381445,-0.06276882
1.022327,-0.03256608,-0.06458288
1.022285,-0.03425295,-0.0653055
1.024753,-0.03483473,-0.06493195
1.028113,-0.03702991,-0.06299118
1.029866,-0.03778317,-0.06414969
1.027163,-0.03600255,-0.06530762
1.02442,-0.03465887,-0.06451634
1.025019,-0.03420695,-0.06405717
1.025128,-0.03714,-0.06237633
1.024861,-0.03798606,-0.06571726
1.025114,-0.03579798,-0.06929356
1.024921,-0.03417695,-0.06386418
1.025393,-0.03108073,-0.05900409
1.026795,-0.02951164,-0.05937767
1.027564,-0.03058142,-0.06079041
1.024482,-0.03477024,-0.06377144
1.021013,-0.03810186,-0.0688726
1.023999,-0.03525076,-0.07092683
1.027354,-0.03469487,-0.0687842
1.026025,-0.03470639,-0.06922878
1.02527,-0.03028813,-0.06915322
1.02508,-0.0288757,-0.06445607
1.024619,-0.03119989,-0.06134691
1.025305,-0.03565852,-0.06224552
1.024972,-0.03801773,-0.06397762
1.024612,-0.03573727,-0.06339917
1.024391,-0.03332984,-0.06338423
1.023497,-0.03104135,-0.06414114
1.025502,-0.03178195,-0.06100828
1.028153,-0.03370718,-0.0594345
1.027975,-0.03311705,-0.06121232
1.027056,-0.034486,-0.06201952
1.025134,-0.03508253,-0.06287855
1.022851,-0.03444426,-0.06259145
1.023411,-0.03408043,-0.06251162
1.025133,-0.02969573,-0.06531027
1.025015,-0.02470934,-0.06892069
1.025448,-0.02399984,-0.07027797
1.027872,-0.02561887,-0.06751966
1.029773,-0.02550428,-0.06614779
1.029421,-0.02637503,-0.06740023
1.027519,-0.02976483,-0.06485923
1.026745,-0.0294593,-0.05931169
1.026338,-0.02865623,-0.0541236
1.02636,-0.02923727,-0.05576395
1.028605,-0.02749946,-0.06375786
1.029026,-0.02766807,-0.06837521
1.02651,-0.0299722,-0.0707371
1.024328,-0.03138453,-0.06546073
1.025419,-0.03206895,-0.05538353
1.027001,-0.03214483,-0.05708963
1.023346,-0.03188079,-0.05846555
1.021212,-0.03212661,-0.05675752
1.023644,-0.03396992,-0.06224799
1.024854,-0.03445326,-0.06249021
1.025269,-0.03125089,-0.05751381
1.024937,-0.02791445,-0.05470134
1.024869,-0.02886634,-0.05577548
1.025582,-0.03092884,-0.05959704
1.026928,-0.0295117,-0.06006853
1.030237,-0.03046844,-0.06490857
1.030954,-0.03470873,-0.0698805
1.02846,-0.0364271,-0.06418776
1.027009,-0.03376081,-0.06097066
1.026799,-0.02941144,-0.0653394
1.026123,-0.03043537,-0.06991772
1.024252,-0.03252176,-0.07095253
1.023258,-0.03265924,-0.06729164
1.023675,-0.03586225,-0.06390362
1.025356,-0.03668033,-0.06422428
1.028904,-0.03524519,-0.06302831
1.030846,-0.0334803,-0.05894874
1.027367,-0.03001596,-0.05819254
1.023337,-0.03029703,-0.05674556
1.026322,-0.03195627,-0.05609838
1.030424,-0.03195743,-0.06293815
1.029648,-0.03209186,-0.06427037
1.026293,-0.0316065,-0.05810278
1.021184,-0.03111007,-0.05241277
1.02114,-0.03051715,-0.05026955
1.024936,-0.0324669,-0.05667035
1.02772,-0.03880912,-0.06017265
1.033146,-0.04241946,-0.05776578
1.03076,-0.03665768,-0.05883978
1.0247,-0.02959107,-0.06104805
1.028642,-0.03162483,-0.06337839
1.028336,-0.03336618,-0.06299969
1.024501,-0.03098116,-0.06258059
1.025194,-0.03312319,-0.06499585
1.0227,-0.03405959,-0.06465658
1.022054,-0.03251816,-0.06518995
1.024491,-0.03211057,-0.06602325
1.025941,-0.0279998,-0.06563348
1.026517,-0.0262906,-0.06699786
1.025079,-0.03272019,-0.06594633
1.026878,-0.03825789,-0.06456792
1.028965,-0.03572822,-0.0651538
1.028799,-0.03307217,-0.06359252
1.029697,-0.03648266,-0.06176987
1.02755,-0.03617193,-0.06239797
1.025499,-0.03258902,-0.06184243
1.024951,-0.0323352,-0.0568703
1.024383,-0.03402472,-0.05287599
1.025281,-0.03687294,-0.05622223
1.023026,-0.03387475,-0.06263154
1.021723,-0.03024431,-0.06598246
1.024537,-0.03476676,-0.06727178
1.026535,-0.03741249,-0.0669407
1.027782,-0.03736097,-0.06534525
1.027944,-0.03700951,-0.06362579
1.028858,-0.03533164,-0.061015
1.030481,-0.03628631,-0.06193223
1.029938,-0.03618863,-0.06441441
1.027152,-0.03446963,-0.06432712
1.023692,-0.03297646,-0.06790549
1.02444,-0.03168131,-0.07044465
1.025113,-0.03460261,-0.06998668
1.022814,-0.03736348,-0.07052397
1.025202,-0.03496283,-0.06549322
1.029417,-0.03028441,-0.06118979
1.030983,-0.02669624,-0.06118352
1.029473,-0.02797682,-0.06024556
1.024439,-0.03050197,-0.0606558
1.021737,-0.02906402,-0.05869449
1.022051,-0.02948877,-0.05795422
1.022302,-0.03176648,-0.05978669
1.022034,-0.03113071,-0.05835329
1.020548,-0.03211594,-0.05817366
1.021157,-0.03382419,-0.05825145
1.024433,-0.03491916,-0.06124155
1.026297,-0.03776865,-0.06355171
1.026802,-0.03701384,-0.05746656
1.028788,-0.03453618,-0.05578694
1.03015,-0.0328704,-0.05465947
1.028476,-0.02932187,-0.05221404
1.028112,-0.02941217,-0.05662796
1.027523,-0.03170179,-0.05363864
1.024444,-0.03200467,-0.04748196
1.023442,-0.03354372,-0.04626109
1.024172,-0.03530234,-0.04800909
1.025521,-0.03596786,-0.05469335
1.025305,-0.03329623,-0.0520535
1.024295,-0.0276848,-0.04748614
1.025548,-0.02600821,-0.05011381
1.024907,-0.0278333,-0.04947984
1.024663,-0.03244687,-0.05208698
1.025887,-0.03799373,-0.05227584
1.026875,-0.0353972,-0.04986996
1.031185,-0.03039126,-0.05257944
1.032737,-0.03124415,-0.05064958
1.029208,-0.0315006,-0.04920351
1.025704,-0.03091489,-0.04889928
1.023212,-0.03137873,-0.04755838
1.023391,-0.03035944,-0.04990154
1.023718,-0.03065783,-0.05012676
1.022012,-0.03263517,-0.05153245
1.019332,-0.03373678,-0.05234697
1.018369,-0.03354744,-0.05064453
1.024191,-0.03279946,-0.05373086
1.030222,-0.03258815,-0.05485018
1.027617,-0.03160638,-0.05379397
1.023494,-0.03052142,-0.05458648
1.022819,-0.02981013,-0.05483717
1.02204,-0.0287819,-0.05616341
1.024015,-0.03005941,-0.05708722
1.027078,-0.0311954,-0.05951958
1.026288,-0.02973179,-0.06241178
1.025729,-0.02768819,-0.0610073
1.023963,-0.02482644,-0.06061125
1.021092,-0.02423722,-0.06140831
1.022166,-0.02564299,-0.05949712
1.023973,-0.02484138,-0.05669992
1.02811,-0.02476906,-0.05461975
1.033571,-0.02535828,-0.053529
1.030832,-0.02473834,-0.04998091
1.025976,-0.02506719,-0.04652082
1.026972,-0.02528189,-0.05253108
1.025868,-0.02571157,-0.06021319
1.023738,-0.02646526,-0.05869352
1.025312,-0.02463378,-0.05694967
1.023293,-0.02265731,-0.05731746
1.021473,-0.022873,-0.05514487
1.024623,-0.02337464,-0.05762234
1.02643,-0.02495838,-0.06362508
1.027089,-0.02826748,-0.06643443
1.027505,-0.02959005,-0.06711478
1.027383,-0.02737611,-0.06528283
1.027437,-0.0255586,-0.06148931
1.028918,-0.02634899,-0.05510516
1.030464,-0.02700666,-0.04985132
1.027858,-0.02677966,-0.05584113
1.0262,-0.02716454,-0.06345492
1.024963,-0.02645462,-0.0601388
1.02285,-0.02544109,-0.05677417
1.024371,-0.02489075,-0.05861313
1.023607,-0.02213499,-0.05886312
1.02412,-0.02195065,-0.05869931
1.027823,-0.02581184,-0.05939139
1.029562,-0.02781969,-0.05949051
1.032291,-0.02839902,-0.06135261
1.028126,-0.0287074,-0.06280351
1.022277,-0.02988479,-0.05889729
1.025473,-0.03047534,-0.05620558
1.026157,-0.02812942,-0.06186263
1.025692,-0.02701743,-0.0673327
1.028079,-0.02534761,-0.06449005
1.027041,-0.02310879,-0.05822519
1.026402,-0.02369203,-0.05580529
1.026511,-0.02268557,-0.05784808
1.024158,-0.02172565,-0.05915374
1.023087,-0.02247712,-0.0577101
1.023731,-0.02247153,-0.05631914
1.023816,-0.02421907,-0.05483914
1.024488,-0.02682934,-0.0529806
1.02546,-0.02856333,-0.05328921
1.025954,-0.02936283,-0.05460292
1.026544,-0.02835503,-0.05467238
1.026325,-0.02716726,-0.05566213
1.025554,-0.02697823,-0.05797002
1.02546,-0.02713206,-0.05867438
1.025707,-0.02667958,-0.05878163
1.025012,-0.02549735,-0.06105316
1.024556,-0.02416207,-0.06326812
1.025339,-0.02314461,-0.06282498
1.024989,-0.02206734,-0.0623139
1.024761,-0.02202699,-0.06463553
1.025647,-0.02467244,-0.06695863
1.026967,-0.02660961,-0.06570083
1.030113,-0.02737016,-0.06123339
1.031092,-0.02787596,-0.05690857
1.028385,-0.02580204,-0.05905054
1.026806,-0.02440415,-0.06422557
1.026192,-0.0248043,-0.06478774
1.025395,-0.02427962,-0.06440426
1.024704,-0.02351127,-0.06304624
1.021626,-0.02422306,-0.06152335
1.018172,-0.02567728,-0.06324804
1.02053,-0.02404586,-0.06340008
1.024836,-0.02017339,-0.06357592
1.025213,-0.01767136,-0.06237111
1.025117,-0.01991558,-0.05538704
1.024991,-0.02447661,-0.05169217
1.025267,-0.0239831,-0.05759622
1.028063,-0.02445533,-0.0684189
1.028845,-0.02633614,-0.07334721
1.024637,-0.02425055,-0.07075468
1.018716,-0.02591229,-0.07096054
1.018672,-0.02681396,-0.07309411
1.023344,-0.02294395,-0.0713635
1.026714,-0.02178364,-0.06730005
1.030511,-0.0219122,-0.06425508
1.029399,-0.02290329,-0.06385065
1.025001,-0.02412486,-0.06158943
1.025138,-0.02505016,-0.05819122
1.024671,-0.02557721,-0.06457801
1.024939,-0.02341076,-0.07319154
1.025906,-0.02415882,-0.06985633
1.026081,-0.02754484,-0.0692654
1.028782,-0.02959285,-0.07453829
1.027811,-0.02859884,-0.0713111
1.026069,-0.02379956,-0.06860516
1.026708,-0.02297733,-0.06811349
1.02501,-0.02383867,-0.06477507
1.024882,-0.02235875,-0.06373083
1.025306,-0.02213138,-0.06215222
1.026005,-0.02099701,-0.06378506
1.028417,-0.02090459,-0.06688339
1.027588,-0.02218101,-0.06501417
1.02504,-0.02401712,-0.06685128
1.024323,-0.02602906,-0.06901869
1.025298,-0.02435774,-0.06660665
1.025241,-0.0229435,-0.06544675
1.02451,-0.0217919,-0.06467575
1.025384,-0.0198068,-0.06350801
1.024922,-0.01972408,-0.06157982
1.024958,-0.02025236,-0.05938489
1.02644,-0.02308769,-0.05811865
1.027585,-0.02469008,-0.05949176
1.030095,-0.02400746,-0.06798527
1.030346,-0.02468968,-0.07602994
1.026877,-0.0216122,-0.07521678
1.024074,-0.01796727,-0.07240227
1.025398,-0.0193276,-0.0712802
1.027813,-0.02049181,-0.06789565
1.026876,-0.02081671,-0.06449804
1.027659,-0.02268912,-0.06366898
1.028059,-0.02314906,-0.06251862
1.02379,-0.02381147,-0.05980726
1.020396,-0.02851101,-0.05538045
1.019433,-0.02955517,-0.05529174
1.023702,-0.02408404,-0.06133679
1.028379,-0.02142766,-0.06426672
1.02517,-0.02476924,-0.06479822
1.022796,-0.02888291,-0.06547508
1.023154,-0.02805828,-0.0667251
1.022082,-0.02657866,-0.06767824
1.024071,-0.02671101,-0.06551086
1.027519,-0.02420171,-0.0659851
1.030164,-0.0243867,-0.06524177
1.032623,-0.02482963,-0.06241751
1.031033,-0.02158223,-0.06189704
1.02663,-0.02113742,-0.05653136
1.024357,-0.02143911,-0.05405994
1.02217,-0.02307374,-0.06121856
1.020479,-0.0262767,-0.0681978
1.023433,-0.0250927,-0.0687371
1.026248,-0.02432445,-0.0700119
1.0252,-0.02554131,-0.07581055
1.02514,-0.02485437,-0.07214829
1.026181,-0.02501537,-0.06830633
1.024837,-0.0265075,-0.07130914
1.024215,-0.02827157,-0.06378379
1.024915,-0.02984811,-0.05718367
1.024022,-0.02926113,-0.0606096
1.025288,-0.02872428,-0.06546729
1.027547,-0.0286159,-0.06824232
1.027454,-0.02428629,-0.06616588
1.027303,-0.01889717,-0.06634128
1.025972,-0.01950357,-0.06641754
1.025637,-0.02474211,-0.06070932
1.025319,-0.0285819,-0.05390881
1.022552,-0.02844731,-0.04899444
1.023645,-0.02808104,-0.05070897
1.025954,-0.02906792,-0.05614767
1.028163,-0.02626949,-0.06321035
1.032239,-0.02080703,-0.07002073
1.031396,-0.0189,-0.0728488
1.028849,-0.01829755,-0.07822277
1.026849,-0.01591761,-0.07867376
1.023931,-0.01505116,-0.07310849
1.026681,-0.01739738,-0.07362332
1.028896,-0.02082857,-0.07033529
1.024992,-0.02251683,-0.06472926
1.022564,-0.02383265,-0.06606274
1.022614,-0.02825627,-0.06540862
1.025577,-0.03385012,-0.0646243
1.029307,-0.03603408,-0.06590551
1.027734,-0.03362202,-0.0631807
1.026056,-0.02973877,-0.05631972
1.026751,-0.02698133,-0.04889809
1.026689,-0.02665235,-0.05003058
1.029025,-0.02689936,-0.05368906
1.031089,-0.02391065,-0.0520561
1.027924,-0.02248569,-0.05987778
1.025091,-0.0228247,-0.06927796
1.026403,-0.02132941,-0.06519773
1.027347,-0.02345318,-0.06434825
1.02769,-0.02710009,-0.07020957
1.029249,-0.02972088,-0.07191647
1.02696,-0.03040338,-0.07301213
1.023777,-0.02787087,-0.07571193
1.027246,-0.02890367,-0.07645524
1.030813,-0.02723781,-0.07246185
1.029358,-0.02286188,-0.06695869
1.024407,-0.02463102,-0.06464073
1.019002,-0.02449797,-0.06286922
1.021824,-0.02631482,-0.06243531
1.028602,-0.03093687,-0.06444449
1.029172,-0.02824622,-0.06522834
1.026301,-0.02684929,-0.06492879
1.022267,-0.02928505,-0.06249269
1.021088,-0.02940093,-0.06224771
1.02401,-0.02850947,-0.0698138
1.026447,-0.02647588,-0.07515661
1.029314,-0.0242511,-0.07648613
1.025817,-0.0247946,-0.07970633
1.01966,-0.02653848,-0.07640218
1.02458,-0.02602757,-0.0659229
1.028667,-0.02398193,-0.05939867
1.027128,-0.02060552,-0.05972555
1.027899,-0.01850422,-0.06078542
1.025912,-0.02220623,-0.06101538
1.024136,-0.02677767,-0.06480529
1.025644,-0.02815528,-0.06955002
1.026782,-0.02600019,-0.07628486
1.028291,-0.02198896,-0.08174755
1.02765,-0.02178717,-0.07282805
1.025535,-0.02295947,-0.06263783
1.024757,-0.02375911,-0.06465205
1.025268,-0.02568783,-0.06426553
1.027985,-0.02517689,-0.06141467
1.029574,-0.02433776,-0.06437796
1.027158,-0.02445495,-0.06504266
1.023161,-0.02325911,-0.06209101
1.020298,-0.02356825,-0.05586138
1.019693,-0.02488233,-0.04916302
1.022666,-0.02504914,-0.05644589
1.026036,-0.02492236,-0.06509091
1.022624,-0.02422668,-0.06350841
1.019453,-0.02417188,-0.06901064
1.024014,-0.02528996,-0.07256976
1.026317,-0.02486176,-0.06498803
1.024224,-0.02291589,-0.06156484
1.023074,-0.02198248,-0.06230462
1.021896,-0.02295964,-0.0631914
1.022639,-0.02416062,-0.06468363
1.026174,-0.02362595,-0.06721799
1.028899,-0.02364424,-0.06927404
1.029018,-0.02569219,-0.06599307
1.028769,-0.02684471,-0.05974397
1.029576,-0.02631577,-0.05458971
1.028055,-0.0252766,-0.05905567
1.023519,-0.02476736,-0.06975337
1.020452,-0.02503584,-0.07249993
1.024805,-0.02502612,-0.07528565
1.032152,-0.02498482,-0.07690429
1.030331,-0.02465378,-0.07237273
1.024765,-0.02318267,-0.07200323
1.023215,-0.02208686,-0.06914476
1.022661,-0.02427611,-0.06743474
1.023017,-0.02884693,-0.07054277
1.020307,-0.03090282,-0.06696548
1.018376,-0.03059844,-0.06687236
1.022059,-0.03018367,-0.06617039
1.022672,-0.02869623,-0.05813965
1.022377,-0.0273121,-0.0580545
1.024208,-0.02755307,-0.06199358
1.025218,-0.02829969,-0.06572973
1.025566,-0.02858223,-0.06816001
1.024573,-0.02907864,-0.06540987
1.02584,-0.02847358,-0.06396126
1.026162,-0.02569645,-0.06210579
1.024028,-0.02288305,-0.06113274
1.024122,-0.01903254,-0.0608475
1.022588,-0.01776008,-0.05718114
1.021406,-0.02419348,-0.05895652
1.021872,-0.03012933,-0.06220517
1.021877,-0.02893032,-0.06223925
1.025775,-0.02404142,-0.06645763
1.031139,-0.02167255,-0.06838653
1.032984,-0.02558928,-0.0623801
1.030647,-0.02951224,-0.05642437
1.024859,-0.02788281,-0.05628527
1.018946,-0.0268303,-0.05902655
1.018749,-0.02813679,-0.06376873
1.02447,-0.02593705,-0.07091423
1.027467,-0.02399482,-0.07205579
1.026275,-0.02518465,-0.06928218
1.024639,-0.02399471,-0.06884114
1.024343,-0.02240306,-0.06655797
1.024824,-0.02403105,-0.06691809
1.020376,-0.02917186,-0.06856092
1.016452,-0.03353848,-0.06759043
1.01995,-0.02971349,-0.07000303
1.025104,-0.02373891,-0.06975169
1.029227,-0.02220034,-0.06615975
1.029571,-0.0218676,-0.06352987
1.025885,-0.02285874,-0.05867584
1.023867,-0.02565038,-0.05787938
1.023155,-0.0297536,-0.06205368
1.022032,-0.03331709,-0.06606753
1.021821,-0.03460363,-0.06885089
1.023081,-0.03655344,-0.06894869
1.024947,-0.03686158,-0.06930298
1.02672,-0.03486884,-0.06893416
1.026136,-0.0342925,-0.0673607
1.024143,-0.03130095,-0.06833512
1.026004,-0.02866239,-0.06920496
1.027232,-0.02858538,-0.06940824
1.025972,-0.02560278,-0.06973848
1.027488,-0.02543263,-0.06920502
1.028167,-0.02664393,-0.06947283
1.027053,-0.02531983,-0.06959189
1.025212,-0.03110701,-0.06924644
1.022849,-0.03679469,-0.06904453
1.024467,-0.0317688,-0.066741
1.026767,-0.02680253,-0.06420997
1.026376,-0.02699437,-0.06328232
1.026328,-0.02459091,-0.05950323
1.02646,-0.02112628,-0.05431134
1.026156,-0.0237466,-0.05574301
1.025339,-0.02644249,-0.06114817
1.02402,-0.02458704,-0.06327016
1.024105,-0.02501393,-0.06237305
1.025384,-0.02731168,-0.05933043
1.025222,-0.02799621,-0.05746929
1.024979,-0.0278459,-0.05902994
1.026993,-0.02610008,-0.06113489
1.028004,-0.02325089,-0.06284221
1.026018,-0.01991071,-0.0609339
1.02459,-0.0166207,-0.05721352
1.026674,-0.01562663,-0.05630749
1.02863,-0.0195699,-0.05444047
1.02658,-0.02593804,-0.05355498
1.024808,-0.02605571,-0.0555466
1.02472,-0.02355722,-0.05578357
1.023093,-0.02453966,-0.05579494
1.021915,-0.02259765,-0.05829325
1.023139,-0.02141678,-0.06328628
1.025052,-0.02403306,-0.06673565
1.02514,-0.02487266,-0.06358083
1.023845,-0.02701699,-0.05829796
1.023454,-0.02823626,-0.05719229
1.023881,-0.02481807,-0.06224566
1.026032,-0.01943762,-0.06930612
1.02983,-0.01386735,-0.06912212
1.032328,-0.01343868,-0.0666592
1.031749,-0.01731492,-0.06838865
1.028341,-0.02113514,-0.0664372
1.024417,-0.02702029,-0.06406565
1.022775,-0.03254654,-0.06574818
1.024557,-0.03236005,-0.06568629
1.025096,-0.02967465,-0.06680945
1.021013,-0.02724761,-0.06958308
1.018492,-0.02228246,-0.07163857
1.021276,-0.02245373,-0.07440191
1.026974,-0.02742802,-0.07404146
1.030701,-0.0258843,-0.07190942
1.028161,-0.02479002,-0.07188525
1.022112,-0.02385487,-0.07056599
1.019042,-0.02145553,-0.06974931
1.024154,-0.02744867,-0.07477612
1.030158,-0.03180903,-0.0785323
1.026198,-0.02978762,-0.07186338
1.022871,-0.02689241,-0.06427458
1.026051,-0.02282701,-0.06460955
1.02572,-0.02044516,-0.06350317
1.026855,-0.01733681,-0.06082831
1.030253,-0.01750606,-0.06267726
1.026249,-0.02203012,-0.06252379
1.022553,-0.02250117,-0.06244536
1.023933,-0.02262043,-0.0655409
1.024664,-0.02405906,-0.06787429
1.02496,-0.02524983,-0.0710188
1.023712,-0.02542792,-0.07146654
1.020466,-0.02324776,-0.07135208
1.019698,-0.02248409,-0.07165505
1.025035,-0.02142218,-0.0682356
1.03169,-0.02119461,-0.07010093
1.030535,-0.02420026,-0.07117072
1.025028,-0.02567194,-0.06445608
1.023773,-0.02631037,-0.06193417
1.028605,-0.02500942,-0.06562821
1.033453,-0.02214662,-0.06989786
1.028893,-0.02209416,-0.06893808
1.023344,-0.02164918,-0.0692796
1.025259,-0.02179033,-0.07338113
1.023706,-0.02298756,-0.06738546
1.02133,-0.0220092,-0.06098071
1.024011,-0.02296759,-0.06389622
1.026285,-0.02433737,-0.06908308
1.030245,-0.02311301,-0.07474856
1.030061,-0.02304891,-0.0739747
1.025633,-0.02393391,-0.07138384
1.027071,-0.0255711,-0.07465359
1.028259,-0.02754865,-0.07517629
1.028596,-0.02845711,-0.07523068
1.026796,-0.02907005,-0.0774096
1.019572,-0.02820338,-0.07601445
1.019103,-0.02799018,-0.07507335
1.023802,-0.02815289,-0.07494958
1.026684,-0.02602705,-0.07273019
1.027324,-0.02541558,-0.07192583
1.025295,-0.02445054,-0.07213167
1.025565,-0.02180684,-0.07156177
1.024261,-0.02078433,-0.06952287
1.022847,-0.02148619,-0.06888452
1.026135,-0.02475926,-0.07305885
1.026421,-0.02577278,-0.07351389
1.024518,-0.0244227,-0.07130115
1.023332,-0.02531262,-0.07542403
1.02403,-0.02457814,-0.07709827
1.026036,-0.0230572,-0.07284647
1.02448,-0.02234009,-0.06965063
1.023647,-0.02363595,-0.0686902
1.023002,-0.02709584,-0.06973486
1.021342,-0.02625255,-0.06966546
1.02311,-0.02337259,-0.06775652
1.025042,-0.01978546,-0.06354946
1.026647,-0.01504841,-0.05805261
1.025842,-0.01374913,-0.06063366
1.022439,-0.01286772,-0.06512419
1.023887,-0.01471406,-0.06351974
1.026665,-0.01971521,-0.06580478
1.026481,-0.01865733,-0.06937183
1.025419,-0.01753725,-0.06979878
1.025084,-0.02197444,-0.07111065
1.027797,-0.02333577,-0.06939615
1.029935,-0.02146882,-0.0676679
1.028201,-0.02127624,-0.06650352
1.025995,-0.02106941,-0.06278485
1.024968,-0.02134067,-0.06240269
1.023165,-0.02278283,-0.06261897
1.021761,-0.02214779,-0.06309278
1.024231,-0.02090635,-0.06480251
1.026829,-0.02091795,-0.06340257
1.026293,-0.02044317,-0.06387088
1.025026,-0.02001526,-0.06429143
1.022973,-0.01931178,-0.06332486
1.022114,-0.01926379,-0.064728
1.025263,-0.02093104,-0.06563011
1.029258,-0.02183877,-0.06801762
1.029325,-0.02228396,-0.06886798
1.02605,-0.02152997,-0.06608935
1.024222,-0.02017513,-0.06212332
1.024868,-0.02099874,-0.05701531
1.024865,-0.02066275,-0.05998517
1.022152,-0.01875086,-0.06510671
1.019868,-0.01774464,-0.06256253
1.021152,-0.01738266,-0.06527268
1.023041,-0.01665999,-0.07029772
1.024396,-0.01463338,-0.06705201
1.026542,-0.01610016,-0.06369909
1.027944,-0.02299925,-0.06296738
1.026388,-0.03002007,-0.06524465
1.024318,-0.03112869,-0.06865926
1.026684,-0.02344679,-0.06214569
1.028996,-0.01678424,-0.05598569
1.027244,-0.01581338,-0.06310878
1.026435,-0.01365428,-0.06786012
1.025669,-0.01391845,-0.06463081
1.024305,-0.01641808,-0.06467659
1.025187,-0.0154937,-0.06603906
1.025205,-0.01692156,-0.06458831
1.024677,-0.02130087,-0.06335389
1.02577,-0.02294825,-0.06213283
1.027614,-0.02296225,-0.06109464
1.029908,-0.02188691,-0.06134111
1.029276,-0.01992313,-0.06092247
1.026621,-0.01928424,-0.06100887
1.026759,-0.01924284,-0.06233528
1.029159,-0.01990062,-0.06578078
1.032277,-0.02139745,-0.07223518
1.032005,-0.02247206,-0.07244152
1.027065,-0.02228826,-0.06461047
1.022874,-0.01966429,-0.0588105
1.021764,-0.01712368,-0.05787099
1.02493,-0.01643553,-0.05973711
1.027477,-0.01750328,-0.06270873
1.024292,-0.01987279,-0.0671555
1.022847,-0.02045789,-0.07082246
1.026068,-0.02071292,-0.07236142
1.031604,-0.02031342,-0.07399375
1.035723,-0.01871121,-0.07263055
1.030282,-0.01958567,-0.07175485
1.022434,-0.01989068,-0.07032133
1.02351,-0.02013044,-0.06295145
1.027156,-0.02229657,-0.06127045
1.02809,-0.02247952,-0.06510847
1.02762,-0.02172076,-0.06568805
1.024723,-0.02047661,-0.06575043
1.023119,-0.01887075,-0.06725447
1.025448,-0.01928813,-0.07093038
1.02661,-0.02050234,-0.07123896
1.023814,-0.02286136,-0.06910835
1.021498,-0.02565313,-0.070896
1.025007,-0.02382222,-0.06983067
1.028839,-0.02071747,-0.06728336
1.027725,-0.02277267,-0.06845434
1.027456,-0.02470307,-0.06779272
1.027748,-0.02472756,-0.06582342
1.025438,-0.02493056,-0.06714997
1.022732,-0.02108799,-0.07469996
1.021484,-0.01814206,-0.08383543
1.022364,-0.02028988,-0.08150663
1.022504,-0.02331115,-0.07535094
1.021872,-0.0255649,-0.0751836
1.022597,-0.02360366,-0.07122616
1.023298,-0.02182257,-0.07059537
1.024642,-0.02689918,-0.07342699
1.025544,-0.03007782,-0.06951942
1.024786,-0.02475527,-0.07147552
1.024923,-0.01965805,-0.07328431
1.025187,-0.02032664,-0.06822041
1.024846,-0.01903541,-0.06875398
1.024703,-0.01682321,-0.07229731
1.023062,-0.02024277,-0.07603488
1.020713,-0.02361087,-0.07420606
1.020951,-0.02546237,-0.07042749
1.023785,-0.02584708,-0.0761815
1.026176,-0.02404013,-0.07906211
1.026954,-0.02527477,-0.07699812
1.027848,-0.02509531,-0.07519787
1.027889,-0.02245221,-0.07242952
1.025649,-0.02245087,-0.07373327
1.024415,-0.02273954,-0.07369559
1.02508,-0.02403409,-0.07164105
1.025302,-0.02400642,-0.07123983
1.025802,-0.02303563,-0.06782122
1.026673,-0.0249027,-0.06408283
1.026338,-0.02372294,-0.06505046
1.025286,-0.02027919,-0.06994354
1.024802,-0.0181108,-0.07442115
1.025328,-0.01802997,-0.07589711
1.026505,-0.01967584,-0.06917739
1.026518,-0.01806142,-0.06039772
1.024461,-0.01732362,-0.06578375
1.023502,-0.01986558,-0.07083631
1.024862,-0.02288426,-0.06633197
1.027807,-0.02515955,-0.06566239
1.031855,-0.02362632,-0.06562991
1.03123,-0.02270534,-0.06752434
1.028284,-0.02050037,-0.07102207
1.029569,-0.01684966,-0.07109631
1.028977,-0.02081179,-0.07975594
1.026248,-0.02414898,-0.09271367
1.023819,-0.0235522,-0.09386089
1.020822,-0.0253597,-0.08843156
1.022438,-0.02598366,-0.08284327
1.023925,-0.02722062,-0.07313004
1.023535,-0.0293867,-0.06891056
1.02705,-0.02588472,-0.07367512
1.029325,-0.02082531,-0.0707384
1.029641,-0.02186596,-0.06704766
1.030079,-0.02283899,-0.06894208
1.03009,-0.01969234,-0.06562863
1.028609,-0.01907738,-0.06532946
1.023228,-0.01971859,-0.06706499
1.021269,-0.02041272,-0.06625451
1.024389,-0.02223834,-0.06913843
1.025656,-0.0219687,-0.06930565
1.025091,-0.02048344,-0.06657206
1.024577,-0.01921652,-0.06471274
1.025259,-0.02091494,-0.06493975
1.0251,-0.02359018,-0.06963456
1.024642,-0.02306578,-0.0762069
1.025743,-0.02440398,-0.08241496
1.026395,-0.02550108,-0.07858277
1.027392,-0.02281306,-0.07053491
1.026213,-0.02163435,-0.07244664
1.023767,-0.02225026,-0.07273253
1.023904,-0.02241192,-0.07042134
1.024178,-0.02212673,-0.06811969
1.025341,-0.02125546,-0.06071239
1.02541,-0.0177375,-0.05992213
1.024325,-0.01289372,-0.06353616
1.025987,-0.01346167,-0.06439638
1.027656,-0.01668794,-0.06772188
1.029126,-0.01677964,-0.06902697
1.027253,-0.01668339,-0.06838684
1.023394,-0.01745394,-0.06851759
1.02599,-0.02002921,-0.06614913
1.027535,-0.0235367,-0.06494082
1.025576,-0.02183936,-0.06802371
1.026635,-0.01809537,-0.07010713
1.026032,-0.01796994,-0.06638929
1.023354,-0.01987494,-0.06210848
1.022264,-0.02229324,-0.06427452
1.024402,-0.02414057,-0.07347583
1.028023,-0.02554943,-0.08150336
1.027405,-0.02535734,-0.07575698
1.027143,-0.0243137,-0.06749805
1.028503,-0.02540739,-0.07092295
1.02624,-0.02420222,-0.07024074
1.025079,-0.0195437,-0.06496629
1.025138,-0.01452226,-0.06708321
1.024571,-0.01258979,-0.06689859
1.025207,-0.01691741,-0.06499241
1.024008,-0.02027687,-0.06574087
1.023134,-0.02097766,-0.06440573
1.024039,-0.02185483,-0.06315402
1.024398,-0.02191949,-0.05951161
1.025843,-0.02415064,-0.0578569
1.027815,-0.02279686,-0.06430451
1.029323,-0.01818718,-0.06825665
1.02777,-0.01788869,-0.06564084
1.024225,-0.01800424,-0.06217907
1.02479,-0.01905586,-0.06133643
1.025537,-0.01910142,-0.06115405
1.024537,-0.0145638,-0.0610171
1.025032,-0.01138729,-0.06337129
1.024332,-0.0126167,-0.0642777
1.024028,-0.0169804,-0.06422518
1.025396,-0.01890797,-0.06572361
1.02516,-0.01797359,-0.06661911
1.024012,-0.01783966,-0.06539477
1.021555,-0.01718986,-0.06312212
1.019996,-0.01840108,-0.06629383
1.026954,-0.02262417,-0.07193402
1.034052,-0.0261288,-0.07452411
1.026251,-0.0234462,-0.07557175
1.018566,-0.01838132,-0.07291294
1.025258,-0.01862896,-0.0709707
1.029607,-0.01805599,-0.07119818
1.027486,-0.01708056,-0.07041815
1.024545,-0.01704075,-0.07163655
1.019094,-0.01477562,-0.07072381
1.021112,-0.01777457,-0.06712988
1.026198,-0.02031968,-0.06526957
1.024438,-0.01529527,-0.06383521
1.024831,-0.01162781,-0.06394946
1.024817,-0.01304002,-0.06601589
1.023281,-0.01753596,-0.0707149
1.024884,-0.02058958,-0.07551259
1.023463,-0.01924059,-0.07346151
1.022768,-0.0157762,-0.06970741
1.023489,-0.01283775,-0.06943618
1.021508,-0.01213882,-0.06910451
1.022675,-0.0133468,-0.06937684
1.025373,-0.01450978,-0.06883326
1.026753,-0.01359402,-0.06733114
1.026769,-0.01305825,-0.06844207
1.024864,-0.0149651,-0.0691433
1.024899,-0.01810651,-0.0693608
1.025188,-0.01966378,-0.0704019
1.024195,-0.01405511,-0.07193564
1.023112,-0.009094175,-0.07540401
1.022567,-0.0137278,-0.07561158
1.025445,-0.01891736,-0.07326747
1.026137,-0.01999703,-0.07371094
1.023838,-0.01963104,-0.07361615
1.025705,-0.01924571,-0.07202391
1.027221,-0.02049159,-0.06672754
1.026512,-0.02068341,-0.06025739
1.023197,-0.0180413,-0.06317945
1.017247,-0.01579941,-0.06856378
1.019473,-0.01588654,-0.06798902
1.025682,-0.01457106,-0.06856797
1.029314,-0.01137334,-0.07101085
1.032455,-0.01207714,-0.07259927
1.025186,-0.01345143,-0.07289832
1.017637,-0.01225292,-0.07151681
1.023974,-0.01426931,-0.0723253
1.027095,-0.0162698,-0.07251885
1.023834,-0.01497504,-0.07066997
1.024045,-0.01516369,-0.07099929
1.023799,-0.01496074,-0.07070219
1.024217,-0.01242354,-0.07070548
1.029262,-0.0103974,-0.0710351
1.032528,-0.01091659,-0.06986424
1.026843,-0.01282153,-0.06961617
1.020031,-0.01409166,-0.06624141
1.021856,-0.01784628,-0.06565432
1.023356,-0.02174541,-0.07443766
1.020376,-0.02105514,-0.07660336
1.020691,-0.02003991,-0.0699759
1.021404,-0.01910122,-0.06727595
1.021445,-0.01607746,-0.0626305
1.023907,-0.01340888,-0.06100751
1.024794,-0.01259051,-0.07215325
1.025184,-0.01504723,-0.08025823
1.026388,-0.01894279,-0.08235959
1.027362,-0.01947622,-0.0796206
1.029249,-0.01897782,-0.07294657
1.028849,-0.01975154,-0.07505202
1.025909,-0.0182545,-0.07345193
1.0226,-0.01661755,-0.06930928
1.021187,-0.01689799,-0.07074788
1.022719,-0.01733471,-0.06391926
1.022716,-0.01850282,-0.06066805
1.023553,-0.01748667,-0.06140417
1.025982,-0.01386108,-0.05802879
1.025533,-0.0107356,-0.06031616
1.027226,-0.009351792,-0.06088547
1.030398,-0.01009167,-0.0627261
1.029142,-0.01036242,-0.06934684
1.027598,-0.01315922,-0.06968021
1.027961,-0.01846523,-0.0671545
1.027841,-0.0209309,-0.06437398
1.028413,-0.02443664,-0.06348536
1.028582,-0.0260531,-0.06722803
1.026527,-0.02212341,-0.06976267
1.025855,-0.01944156,-0.06979073
1.026157,-0.01740496,-0.0688542
1.023674,-0.01637684,-0.06756603
1.021309,-0.01956353,-0.0664047
1.022363,-0.02183899,-0.06619943
1.024573,-0.0207046,-0.06734053
1.025431,-0.0194834,-0.06782067
1.025993,-0.0194532,-0.0698201
1.026581,-0.01957223,-0.0717392
1.026225,-0.0211797,-0.06946443
1.025468,-0.02624994,-0.06764772
1.024714,-0.03179808,-0.06597624
1.024903,-0.03294267,-0.06270928
1.025248,-0.02962275,-0.06090401
1.024812,-0.02560318,-0.05725693
1.025227,-0.02230976,-0.05265498
1.026144,-0.02072847,-0.05395976
1.027249,-0.01971532,-0.05895114
1.027202,-0.01782606,-0.06313941
1.024701,-0.01950908,-0.06657696
1.022727,-0.02051663,-0.06594496
1.022329,-0.01906891,-0.06415204
1.024111,-0.02341894,-0.06690243
1.027298,-0.02609115,-0.06678342
1.026117,-0.02216708,-0.06417972
1.021434,-0.01797519,-0.06362256
1.020891,-0.01579889,-0.06208527
1.026408,-0.01848591,-0.06324591
1.030567,-0.02058922,-0.06498513
1.026448,-0.01906071,-0.06568117
1.021241,-0.01914714,-0.06962394
1.022455,-0.01877008,-0.07324581
1.024458,-0.01784371,-0.07472165
1.024928,-0.01956694,-0.07124066
1.024584,-0.02351468,-0.0660921
1.023066,-0.02593778,-0.06879906
1.024452,-0.02404003,-0.07176383
1.025796,-0.02190789,-0.06885057
1.024571,-0.02215148,-0.06625807
1.025047,-0.0223846,-0.0641197
1.025184,-0.02154418,-0.06385032
1.024563,-0.0195966,-0.06715532
1.024147,-0.0172916,-0.07013334
1.022329,-0.01814269,-0.07507206
1.021841,-0.02149138,-0.07858329
1.023664,-0.02266126,-0.07852907
1.028449,-0.02240217,-0.08520285
1.033292,-0.02096786,-0.08962689
1.029846,-0.01674165,-0.07918304
1.024441,-0.01311474,-0.06683841
1.025611,-0.01564625,-0.06612454
1.025522,-0.02089211,-0.06977968
1.024014,-0.02169756,-0.06690758
1.024941,-0.02441495,-0.06382571
1.021422,-0.02662148,-0.06282354
1.018395,-0.02170158,-0.06340176
1.023211,-0.02077637,-0.06903503
1.029316,-0.02098337,-0.07141117
1.031877,-0.01814511,-0.07519767
1.030395,-0.01864564,-0.08165998
1.02862,-0.01955329,-0.07860112
1.027517,-0.02235482,-0.07373433
1.024317,-0.02318991,-0.06894441
1.02274,-0.02025437,-0.06213693
1.022046,-0.01837554,-0.06200435
1.020971,-0.01409306,-0.06596182
1.022281,-0.01515443,-0.06842451
1.024457,-0.01900327,-0.06833393
1.027371,-0.0176773,-0.06773666
1.027905,-0.02088499,-0.06804765
1.023783,-0.02300668,-0.06712061
1.021494,-0.02136113,-0.06708556
1.023789,-0.0228074,-0.07017841
1.026134,-0.02144506,-0.07381927
1.024981,-0.01773775,-0.07422824
1.024882,-0.01343295,-0.07387831
1.028503,-0.009586646,-0.07503725
1.030641,-0.006903278,-0.07567336
1.030768,-0.001389534,-0.07972049
1.029226,-0.002874355,-0.08447195
1.02644,-0.0106454,-0.08315041
1.024196,-0.01334782,-0.08006694
1.021919,-0.01806866,-0.07860113
1.022351,-0.0213038,-0.07909472
1.024368,-0.01914599,-0.08105544
1.025753,-0.0224718,-0.08327467
1.027564,-0.0266231,-0.08504908
1.026851,-0.02641536,-0.0807691
1.02441,-0.0238622,-0.07096771
1.023633,-0.01917657,-0.06572728
1.024719,-0.01745101,-0.06792232
1.02532,-0.01970816,-0.06964639
1.024758,-0.02113631,-0.06688842
1.02518,-0.01731147,-0.06649793
1.024953,-0.01279413,-0.06864849
1.024684,-0.01192633,-0.06864256
1.024383,-0.01012073,-0.06969722
1.023227,-0.01367227,-0.07064666
1.024567,-0.02201992,-0.07160635
1.025501,-0.02250738,-0.07292472
1.024815,-0.02001221,-0.06794957
1.025017,-0.01851011,-0.064028
1.024991,-0.01554602,-0.06571954
1.025043,-0.01634956,-0.0651861
1.024964,-0.01774766,-0.06515793
1.02498,-0.01689376,-0.06557405
1.024911,-0.01879192,-0.06399817
1.023981,-0.02029252,-0.06114548
1.02416,-0.02050172,-0.0575344
1.027033,-0.0206147,-0.06128505
1.030431,-0.01870851,-0.06628962
1.029054,-0.01890696,-0.06330026
1.025317,-0.01816251,-0.0622021
1.024086,-0.01458865,-0.06349754
1.023759,-0.01505883,-0.06391326
1.024618,-0.01555235,-0.06666908
1.024579,-0.013995,-0.06651378
1.023359,-0.01420023,-0.06430632
1.023164,-0.01550803,-0.06580267
1.021619,-0.01735179,-0.06740825
1.021962,-0.01727673,-0.06815628
1.022784,-0.01801814,-0.06765907
1.020671,-0.02150261,-0.06313019
1.020789,-0.02214162,-0.06052656
1.022385,-0.02178844,-0.06515341
1.027697,-0.02139142,-0.07232586
1.033254,-0.01779899,-0.07529241
1.02607,-0.01381676,-0.07471685
1.017836,-0.01161031,-0.07412965
1.021682,-0.0130332,-0.07253657
1.026675,-0.01824385,-0.07240845
1.027652,-0.02309345,-0.07339984
1.026771,-0.0243018,-0.07169383
1.02391,-0.02064201,-0.07099292
1.024565,-0.01720937,-0.07103452
1.026132,-0.01534886,-0.0700857
1.024145,-0.01193627,-0.06929391
1.025111,-0.01422684,-0.06716346
1.025543,-0.01829114,-0.06586618
1.02421,-0.01368082,-0.06537167
1.025427,-0.01099541,-0.06471276
1.023936,-0.01442971,-0.06492755
1.023606,-0.01623794,-0.06215203
1.026704,-0.01800593,-0.05967302
1.028288,-0.01989749,-0.06157408
1.027766,-0.0211703,-0.06273419
1.024424,-0.02252874,-0.06637593
1.023151,-0.02060729,-0.07191776
1.024569,-0.01858087,-0.07017208
1.025256,-0.02083208,-0.06755478
1.024782,-0.02326764,-0.06683684
1.021826,-0.0233338,-0.06311611
1.020614,-0.02110196,-0.06343614
1.022818,-0.01749132,-0.0651819
1.026125,-0.0147159,-0.06468647
1.026774,-0.01189913,-0.06682766
1.023112,-0.01144866,-0.06630841
1.021876,-0.01356156,-0.06588814
1.024113,-0.01249974,-0.06686193
1.026652,-0.01278183,-0.06161278
1.026597,-0.01516919,-0.05893998
1.023767,-0.01437269,-0.06336433
1.022525,-0.01622045,-0.06674302
1.022861,-0.02039191,-0.06631586
1.028249,-0.02266516,-0.06777909
1.036215,-0.02156223,-0.07246474
1.036434,-0.01597461,-0.07006661
1.030582,-0.01425043,-0.0659155
1.02495,-0.01587553,-0.06718076
1.023993,-0.01599605,-0.06510704
1.025591,-0.01621666,-0.060273
1.024412,-0.01218675,-0.05699777
1.022117,-0.008457959,-0.06270897
1.0204,-0.01221413,-0.07193746
1.022549,-0.01825149,-0.06707128
1.029389,-0.02049776,-0.06290523
1.032958,-0.01846509,-0.06536904
1.028779,-0.01791534,-0.06199027
1.024638,-0.02094001,-0.06284304
1.028574,-0.02264173,-0.0649822
1.032605,-0.019165,-0.06446548
1.030599,-0.01394447,-0.06788415
1.026713,-0.01318594,-0.06582253
1.022479,-0.01398498,-0.0619003
1.024372,-0.01285035,-0.05927755
1.028602,-0.01127367,-0.05347055
1.025745,-0.01087316,-0.05507103
1.026054,-0.01256564,-0.05954931
1.02933,-0.01511807,-0.063884
1.029205,-0.0188221,-0.07412732
1.031403,-0.02186134,-0.07588235
1.031158,-0.02015899,-0.07100663
1.025321,-0.01520321,-0.07061058
1.019648,-0.01264709,-0.06762502
1.019671,-0.01489752,-0.06764695
1.024574,-0.01616598,-0.07106739
1.028223,-0.014793,-0.06800334
1.032078,-0.01527149,-0.06722331
1.027388,-0.01555074,-0.06928965
1.018015,-0.01498544,-0.06927619
1.022887,-0.01508543,-0.07063161
1.026007,-0.0131285,-0.0666186
1.023369,-0.01006409,-0.06080653
1.026339,-0.009811179,-0.06265584
1.024349,-0.01339861,-0.06506456
1.022501,-0.01661164,-0.06529872
1.022294,-0.01562893,-0.06610055
1.01837,-0.01541939,-0.06792309
1.01928,-0.01744812,-0.07095612
1.024024,-0.01640332,-0.07017324
1.029421,-0.01435257,-0.0654463
1.027706,-0.01398624,-0.06272947
1.021196,-0.01441638,-0.06212007
1.023061,-0.01581792,-0.06274744
1.025081,-0.01546995,-0.06463848
1.026097,-0.01384214,-0.06646987
1.025945,-0.01125028,-0.06940798
1.021653,-0.006689492,-0.07071049
1.02284,-0.00651141,-0.06770974
1.019194,-0.007178666,-0.06836882
1.012512,-0.005248526,-0.07611187
1.017912,-0.01093534,-0.08076664
1.025059,-0.01944977,-0.07677724
1.029099,-0.02226566,-0.07313085
1.028695,-0.02274263,-0.07488435
1.025326,-0.02194476,-0.07345741
1.027503,-0.0222969,-0.06693829
1.030227,-0.02362885,-0.0610511
1.031293,-0.02442828,-0.05732307
1.027675,-0.02486757,-0.06212616
1.020986,-0.02132858,-0.07553415
1.024195,-0.01825888,-0.08446288
1.027406,-0.02028771,-0.08489622
0.9423289,0.3065552,0.2266747
0.9444805,0.3127321,0.2295983
0.9488356,0.2975617,0.2289832
0.9503271,0.2811687,0.230703
0.9468109,0.295128,0.2330358
0.9409387,0.3158761,0.2371441
0.9390828,0.3181015,0.2469183
0.9406333,0.3079569,0.248421
0.9417257,0.2890471,0.2464023
0.946246,0.2802038,0.2504449
0.9516911,0.2847204,0.2438903
0.9488019,0.2834141,0.2340838
0.9442384,0.2848291,0.235787
0.9464937,0.2886203,0.236718
0.9485568,0.2882918,0.2347055
0.9502824,0.29129,0.2338931
0.9536156,0.2932332,0.2310792
0.9516992,0.2979507,0.2282156
0.9469677,0.3071255,0.2291935
0.9442991,0.3095831,0.2330154
0.9483334,0.3042122,0.2356218
0.9568537,0.2987896,0.2363437
0.9564399,0.2990117,0.2344619
0.9533437,0.2968253,0.2322401
0.9520564,0.2881527,0.2339219
0.9470744,0.2813522,0.2354709
0.9487611,0.2842831,0.2365189
0.9518481,0.2925053,0.2384624
0.949375,0.2914478,0.238909
0.9517612,0.2870336,0.2395679
0.953913,0.2849725,0.2405462
0.9519882,0.2823149,0.2414415
0.9509607,0.2840586,0.239446
0.949613,0.2835514,0.234679
0.9494915,0.2844795,0.2343663
0.9495722,0.2921861,0.2355463
0.9481151,0.2979003,0.2373843
0.9484417,0.3017481,0.2422593
0.9490229,0.2998896,0.2424718
0.9483294,0.2967549,0.2359458
0.9488116,0.2966153,0.2268827
0.9496738,0.2933956,0.2240567
0.950059,0.2940681,0.2277005
0.9498851,0.2953453,0.2264386
0.9479985,0.2935291,0.2255651
0.9477517,0.2933479,0.227293
0.9525475,0.2901234,0.2260314
0.9564902,0.2877461,0.2274992
0.9509549,0.2881553,0.2319598
0.9423403,0.2843555,0.2426428
0.9434095,0.2784154,0.2558131
0.9501307,0.2771303,0.2556727
0.9538851,0.2803341,0.2502124
0.9518656,0.2863259,0.2412952
0.9473767,0.295101,0.2252708
0.9467104,0.2977542,0.2269637
0.9450294,0.2971522,0.2354895
0.9465414,0.2995754,0.2275772
0.9535457,0.2965558,0.2264145
0.9517062,0.2973955,0.227979
0.9500771,0.3025065,0.2227304
0.9537233,0.3007129,0.2217888
0.9510907,0.3001685,0.2156082
0.9465057,0.2945514,0.2199014
0.9426878,0.286226,0.2328146
0.9469615,0.2896203,0.2306035
0.9547444,0.2944087,0.2327289
0.9490629,0.2957377,0.2383347
0.9455167,0.2928173,0.2385921
0.9491105,0.2873427,0.2377391
0.9492513,0.2889691,0.2316229
0.9515864,0.2915753,0.2322116
0.9495927,0.292068,0.2371239
0.945286,0.294743,0.2394721
0.9485807,0.2964265,0.2401725
0.9493106,0.2960598,0.2380795
0.9470024,0.2954866,0.2430074
0.9472609,0.2953596,0.2436577
0.9469461,0.2933577,0.2311173
0.9463728,0.2905897,0.2214991
0.9456403,0.2914782,0.2233674
0.94556,0.292338,0.227899
0.9470975,0.2922645,0.2252182
0.9501108,0.2970778,0.2311521
0.9535494,0.3009967,0.240389
0.9506636,0.2958555,0.2343105
0.9456384,0.2909999,0.2294602
0.9472663,0.294909,0.2239837
0.947595,0.2973568,0.219521
0.9446487,0.2939481,0.2316908
0.944324,0.2931261,0.2408119
0.9442556,0.2933063,0.2368665
0.944529,0.2925521,0.2316439
0.9453595,0.29345,0.2302553
0.9476509,0.2929837,0.2321746
0.9513918,0.2928236,0.2340018
0.9496409,0.2934234,0.2337909
0.9454247,0.2923886,0.2325413
0.9449593,0.2912175,0.233339
0.9483643,0.288916,0.2321972
0.952729,0.2887235,0.2314523
0.9492792,0.2921204,0.2361269
0.9455959,0.2933489,0.2364432
0.9515343,0.2914514,0.2328625
0.9544094,0.28973,0.2309754
0.9520664,0.2922799,0.2303115
0.9514142,0.2962266,0.2319835
0.9495264,0.2967586,0.2335673
0.9484317,0.2967105,0.2330636
0.9512553,0.2964203,0.228117
0.9535632,0.2963403,0.2229864
0.9511334,0.2968851,0.2240715
0.9485622,0.2955293,0.2285103
0.9494412,0.2922944,0.2327072
0.9492072,0.285775,0.2315438
0.9506798,0.2802054,0.2282491
0.9536115,0.280152,0.2285998
0.9500585,0.2812203,0.2286958
0.9461092,0.284007,0.2310552
0.9476148,0.2891167,0.2367576
0.949908,0.2913618,0.237639
0.9528962,0.2894071,0.226952
0.9535446,0.2881105,0.215917
0.9451877,0.2902229,0.2245373
0.9375365,0.2907063,0.2349157
0.9439946,0.2902749,0.230469
0.9552395,0.2924823,0.2320914
0.9576177,0.2945561,0.2332386
0.9523658,0.2959896,0.2269881
0.9461922,0.2968189,0.2328699
0.9464255,0.2975844,0.2363293
0.9495813,0.298382,0.2265593
0.9489395,0.2984812,0.2178067
0.9491453,0.2989476,0.2137526
0.9476713,0.298102,0.219741
0.9442107,0.2961249,0.2267456
0.9451068,0.2927854,0.2267806
0.9473184,0.2895916,0.2321191
0.9510971,0.2907737,0.2391144
0.9525249,0.2905582,0.2420595
0.9490015,0.2880214,0.2397388
0.9471214,0.2887437,0.2320756
0.9443303,0.2896904,0.2297812
0.9434868,0.2904173,0.2294324
0.9455665,0.2927326,0.2284225
0.9450829,0.2956004,0.2315097
0.9468907,0.3005872,0.2302168
0.9471429,0.3035981,0.2264617
0.9421712,0.2966138,0.2264179
0.940563,0.2872566,0.2279521
0.9471265,0.2871191,0.2301592
0.9553009,0.2919468,0.2291667
0.9529125,0.2959258,0.2290913
0.9472574,0.2972495,0.232526
0.9474182,0.2980563,0.2332169
0.9467161,0.3027027,0.2301042
0.9472674,0.3067386,0.2235246
0.9476218,0.3077012,0.2220678
0.9455171,0.3033795,0.2308045
0.945935,0.2947654,0.2373958
0.9451577,0.2939538,0.2347968
0.9453783,0.2946787,0.2303713
0.9467507,0.2900668,0.2316779
0.9455643,0.2914695,0.2359696
0.9473314,0.2935728,0.239186
0.9480836,0.2918259,0.2357274
0.9464378,0.2932426,0.2283233
0.9474753,0.2931486,0.2288173
0.9474143,0.2911313,0.2260099
0.9468791,0.2914281,0.2215127
0.9476516,0.2919206,0.2293115
0.9480481,0.2918863,0.2322463
0.9486285,0.2930479,0.2288449
0.9474147,0.2974318,0.2289616
0.9439725,0.3014392,0.2280035
0.9426052,0.3010598,0.2280502
0.9449948,0.2989327,0.2284424
0.9476109,0.2970721,0.2290323
0.9475099,0.2954956,0.2277247
0.9468642,0.2941906,0.2241775
0.9479316,0.29099,0.2252046
0.9501218,0.2864273,0.2272492
0.952752,0.2899651,0.2316289
0.9523029,0.2989014,0.2357791
0.9483505,0.3003167,0.229515
0.9462665,0.2994667,0.2237174
0.946493,0.2986569,0.2268319
0.9499667,0.2960747,0.2297056
0.9542459,0.2981543,0.2301862
0.9513145,0.3015358,0.2310388
0.9488225,0.3050901,0.2286151
0.9533074,0.3062845,0.2262265
0.9549274,0.3002257,0.2261149
0.9515439,0.2944417,0.2213486
0.9478266,0.2932401,0.2183734
0.9451229,0.2998503,0.2213665
0.9441887,0.3074078,0.222805
0.9445388,0.3031849,0.2213639
0.9460582,0.2972051,0.2190635
0.9469938,0.2958768,0.2193838
0.9479378,0.2969864,0.2202927
0.950904,0.3017534,0.2229084
0.9502928,0.3008005,0.2316476
0.9471524,0.292582,0.2391082
0.9472571,0.285117,0.2437034
0.9469516,0.2835611,0.2457326
0.9461845,0.2906679,0.2393076
0.9459438,0.2961973,0.2290528
0.946044,0.2947817,0.2241986
0.9497979,0.2898172,0.2227714
0.9519503,0.2839885,0.2215942
0.9482458,0.2883349,0.2253183
0.9433559,0.3004214,0.2277573
0.9420028,0.3101686,0.2253547
0.9441103,0.3151625,0.2249437
0.9459701,0.3132686,0.2239028
0.9485775,0.3124904,0.2238703
0.9495966,0.3099711,0.2242497
0.9478324,0.3040324,0.2225404
0.9489561,0.3044972,0.2230029
0.9500169,0.2961374,0.2213857
0.9517185,0.2820358,0.2220422
0.9575409,0.2808556,0.2294555
0.9593178,0.2813232,0.2333284
0.9512244,0.286468,0.230603
0.9429686,0.2964607,0.2284616
0.9486038,0.2907758,0.2338394
0.9544453,0.2826507,0.2374199
0.9468988,0.2863179,0.2311661
0.94294,0.2901355,0.2273089
0.9443668,0.2957517,0.2283551
0.9469551,0.3001542,0.2246763
0.953861,0.2976528,0.2168463
0.9532709,0.2993046,0.2149046
0.9487245,0.2996773,0.2179458
0.9490174,0.29735,0.2174349
0.9498956,0.3013762,0.2181998
0.95224,0.3014558,0.2209417
0.9518098,0.2981154,0.222495
0.9504013,0.2969795,0.2233798
0.9525319,0.2964224,0.2171441
0.9529595,0.2980774,0.2104711
0.9542226,0.2959469,0.212886
0.9540489,0.2913595,0.2170345
0.951585,0.2889752,0.219158
0.9531206,0.2920231,0.2212524
0.9529485,0.2986974,0.2234865
0.9509192,0.2959785,0.2243089
0.9498281,0.2940182,0.2234717
0.9482866,0.2976039,0.2241694
0.9513801,0.2950638,0.2236508
0.9550627,0.295514,0.2178473
0.9542273,0.2962514,0.2133428
0.9538788,0.2921605,0.215101
0.9541663,0.2919782,0.2159143
0.9532509,0.2943402,0.212836
0.9524547,0.2988393,0.2112195
0.9527059,0.3008315,0.2105907
0.9524691,0.3001234,0.2131269
0.949937,0.3022564,0.221058
0.9488807,0.3001185,0.2232246
0.9537426,0.2945827,0.2207236
0.9590797,0.2904504,0.2219206
0.9573724,0.2913114,0.2165316
0.9550048,0.2981043,0.2076316
0.9550235,0.3012025,0.2086195
0.9510676,0.3014839,0.2141721
0.9506721,0.299943,0.2190875
0.9553538,0.2966768,0.2216469
0.9551154,0.2962458,0.2228538
0.9520527,0.2931959,0.2240315
0.9486159,0.2928755,0.22088
0.947946,0.2969604,0.2157949
0.9503256,0.2964269,0.2083861
0.9496566,0.2965102,0.2046844
0.9493317,0.296822,0.2109063
0.9493007,0.2958482,0.2128261
0.9494892,0.2962828,0.2130997
0.9523798,0.2955336,0.2175279
0.9527782,0.2967859,0.2164196
0.9511125,0.2976936,0.2135378
0.949322,0.2958949,0.2123258
0.9503205,0.2957523,0.214341
0.9544318,0.2955573,0.2192618
0.9554671,0.2949915,0.2200302
0.9534064,0.2943001,0.2198597
0.9503054,0.2942551,0.2220543
0.9519405,0.2957968,0.2242139
0.9552568,0.2958877,0.2219883
0.9531836,0.2958382,0.214827
0.9524622,0.2946841,0.2118323
0.9512886,0.2893546,0.2165688
0.950993,0.2846205,0.2216499
0.9551254,0.2871976,0.2197499
0.9555096,0.294551,0.2179435
0.9526509,0.2977445,0.2213506
0.9459938,0.2993384,0.2228126
0.942146,0.3023042,0.22473
0.9513324,0.3010032,0.2226303
0.9588533,0.2972786,0.2159091
0.9555777,0.2949625,0.2184928
0.9530515,0.2945776,0.2221217
0.9549358,0.2920844,0.2226741
0.9536772,0.2878339,0.2245576
0.9507681,0.2931201,0.2212765
0.9500212,0.3031681,0.2199309
0.949409,0.3056254,0.2212901
0.9513817,0.3030238,0.218835
0.951929,0.2983188,0.2157979
0.950692,0.2944464,0.2130503
0.9519905,0.2957187,0.2152561
0.9511148,0.2985052,0.2191585
0.9510593,0.2973798,0.2202162
0.9513343,0.291412,0.2229218
0.9503986,0.2859383,0.2213811
0.9509635,0.289365,0.2194797
0.9479204,0.2954941,0.2237467
0.9466719,0.2946418,0.2238367
0.9481467,0.2953944,0.2210345
0.946756,0.2967115,0.2198981
0.948149,0.2920324,0.2190235
0.9494943,0.29085,0.2220836
0.9487108,0.2911107,0.2253369
0.9486371,0.2914385,0.2250888
0.946827,0.2995455,0.2229372
0.9468356,0.3064031,0.2198928
0.9489772,0.3030316,0.2184402
0.9498419,0.2972299,0.2167561
0.9520278,0.2986832,0.2144041
0.9532115,0.3010046,0.211858
0.9507978,0.3019897,0.2103314
0.9489384,0.3065033,0.2110706
0.9483895,0.3049096,0.2094869
0.9478663,0.3017449,0.2110999
0.9484823,0.3018289,0.2154227
0.9496259,0.2970524,0.2154544
0.951063,0.2947674,0.2181856
0.9534421,0.2966082,0.2200595
0.9527189,0.2995854,0.2197028
0.9483272,0.3022444,0.2217309
0.94647,0.2990804,0.2206568
0.9472676,0.29496,0.2204709
0.9483492,0.2938762,0.2212113
0.9487937,0.2960789,0.219115
0.9475054,0.3000969,0.2177963
0.9470036,0.3017829,0.216928
0.9470318,0.2993463,0.2181207
0.945975,0.29378,0.219461
0.9439047,0.2923582,0.2209416
0.9425543,0.2955024,0.2249619
0.9458736,0.2985635,0.2240384
0.9511694,0.300974,0.2214897
0.9526963,0.3007439,0.2218319
0.9469115,0.2990966,0.2176349
0.9407807,0.296232,0.2138026
0.9458432,0.2941592,0.2162947
0.9514317,0.2981196,0.218667
0.9496008,0.3035866,0.2196448
0.9498544,0.3044472,0.2231408
0.950429,0.3034836,0.2254766
0.9491827,0.302736,0.2206729
0.9485061,0.2980876,0.216448
0.9466338,0.2941633,0.2207883
0.9471992,0.2971981,0.2239908
0.9496822,0.2997876,0.2208452
0.95012,0.2991645,0.2173253
0.9502313,0.2985333,0.2147079
0.9498535,0.2979522,0.2156535
0.9495111,0.2970774,0.220271
0.9481655,0.2959881,0.2225248
0.9449717,0.299196,0.2235886
0.9464542,0.303829,0.2225689
0.9527316,0.3017046,0.2197725
0.9564332,0.2976458,0.2228867
0.9544623,0.2973457,0.2258234
0.9503306,0.2997374,0.2242389
0.9485811,0.3024678,0.2234105
0.9482951,0.3015094,0.222047
0.948839,0.298946,0.2235812
0.9497533,0.2967221,0.2261093
0.9495934,0.2939474,0.2238111
0.948321,0.297579,0.2230071
0.945623,0.3032025,0.2237807
0.9452294,0.3009738,0.2226328
0.9469817,0.2988432,0.2212097
0.9482204,0.2984994,0.2178551
0.9507657,0.2961832,0.2122142
0.950588,0.2960725,0.2110803
0.9490652,0.2978181,0.2195125
0.9503471,0.301122,0.2266363
0.9486333,0.3040322,0.223489
0.945226,0.306043,0.2203309
0.9441715,0.3090275,0.2212848
0.9449493,0.306178,0.2213432
0.9466316,0.302226,0.2241734
0.9465056,0.3040591,0.2277758
0.948923,0.3020447,0.2253665
0.953035,0.2984473,0.2230709
0.9515148,0.2999292,0.2226267
0.9496231,0.2991682,0.2172529
0.9476161,0.2951205,0.2119253
0.9434383,0.2936782,0.2134779
0.9463627,0.2950305,0.2165999
0.9508259,0.2973757,0.2176291
0.9481638,0.2992663,0.2198738
0.9483762,0.2989054,0.2192532
0.9522839,0.2981136,0.2159142
0.9523238,0.2989946,0.2176901
0.9494899,0.2998185,0.2192773
0.9466556,0.3012432,0.2198121
0.950695,0.3037665,0.221996
0.9578409,0.3045715,0.2204922
0.9559589,0.3043408,0.2200441
0.9492231,0.3049603,0.2201425
0.9442966,0.3049316,0.2179925
0.9455422,0.3013038,0.2181543
0.9495018,0.2969317,0.2164208
0.9479615,0.2980205,0.2157316
0.9503042,0.2987038,0.2177305
0.9526802,0.2951141,0.2158399
0.9486741,0.2943915,0.2151801
0.9513784,0.2937089,0.2161235
0.9522805,0.2914727,0.2158921
0.946317,0.2929514,0.216631
0.9458411,0.2955487,0.2170634
0.9485908,0.298081,0.2179565
0.9523361,0.2994209,0.2176818
0.9549234,0.2979341,0.2181997
0.9541237,0.2960314,0.2201931
0.9501214,0.2919505,0.2187385
0.9434296,0.2891083,0.2182184
0.9455735,0.2925428,0.2146214
0.9515788,0.2961579,0.2100673
0.9513944,0.2969547,0.2157204
0.9536688,0.2969044,0.2188223
0.9544633,0.2946111,0.2170175
0.9516437,0.292225,0.2192414
0.9506598,0.2937559,0.2217725
0.9502103,0.2955271,0.2235083
0.9532611,0.2950306,0.2211394
0.9552751,0.2955405,0.2170003
0.9545597,0.2945363,0.2122963
0.9526086,0.2922023,0.207818
0.9475772,0.2939004,0.2138372
0.9488264,0.296362,0.218859
0.951512,0.2994013,0.2184825
0.9493709,0.3043789,0.2247038
0.9506085,0.3034859,0.2279057
0.9505883,0.3003907,0.2245598
0.9493154,0.301865,0.2204071
0.9511601,0.3015243,0.2166364
0.9510033,0.3008177,0.2161421
0.9497117,0.3020072,0.2167637
0.9483975,0.3015927,0.2172566
0.946497,0.3039994,0.2182591
0.9478521,0.306737,0.2208151
0.9523122,0.3047291,0.223717
0.9551492,0.3011171,0.2233973
0.9533899,0.2959532,0.2200009
0.9472371,0.2911387,0.2148071
0.9431921,0.287733,0.2097214
0.9469582,0.285661,0.205378
0.9510872,0.2899853,0.2072914
0.9495898,0.2969272,0.2126247
0.9490959,0.3001343,0.2129188
0.9503808,0.301973,0.2178605
0.947524,0.3015903,0.2243558
0.9462712,0.2984962,0.2250339
0.9498967,0.2965529,0.2235741
0.9504713,0.2946301,0.215376
0.9493537,0.2919471,0.2110565
0.9484389,0.2903453,0.2171706
0.9473454,0.2928446,0.2216353
0.9516294,0.2996328,0.2216453
0.9550532,0.3013691,0.220715
0.949867,0.2997271,0.2196893
0.9449888,0.3029137,0.2148494
0.9472008,0.3049001,0.2131379
0.948739,0.3026357,0.2154656
0.9476595,0.2985998,0.2146017
0.9493401,0.2966062,0.2180442
0.9487811,0.299967,0.2197973
0.9475851,0.3022124,0.2187001
0.9487849,0.2996615,0.2205091
0.9472512,0.2971318,0.2174184
0.9482143,0.2969673,0.2132463
0.9502083,0.2959935,0.2098987
0.9495035,0.2966065,0.215117
0.9496148,0.3018094,0.2251608
0.9480319,0.3034813,0.2196995
0.9487221,0.3007895,0.2171931
0.9511194,0.2982869,0.2224884
0.9510445,0.2943942,0.2201907
0.9510776,0.2909889,0.2206999
0.9493784,0.2926243,0.2214755
0.9498854,0.2970352,0.2200518
0.9515035,0.296498,0.2210651
0.949864,0.2965703,0.2188279
0.9492567,0.300327,0.2173672
0.948351,0.2994755,0.2185603
0.9492575,0.300503,0.2198675
0.9509224,0.3026494,0.2214391
0.9495047,0.3008248,0.2208972
0.9500475,0.3023922,0.2205365
0.9502476,0.3024786,0.2203348
0.9496356,0.2974032,0.2161254
0.9503295,0.2920012,0.2088044
0.9498057,0.2901817,0.2049114
0.9496658,0.2951223,0.2067724
0.9483375,0.3052172,0.2059869
0.9466526,0.3145098,0.2039108
0.9482778,0.3074373,0.2095568
0.9500683,0.2948394,0.2147935
0.9501957,0.3003854,0.2134039
0.9495329,0.3026482,0.2164927
0.9482129,0.2979832,0.2242531
0.946745,0.3023354,0.224874
0.9469164,0.3008139,0.2224939
0.9477182,0.2991256,0.2239865
0.9469758,0.3016396,0.2234961
0.9473097,0.298676,0.2216879
0.9485782,0.3004418,0.2219565
0.9494996,0.3016461,0.2210925
0.9505153,0.3004557,0.2191735
0.9499353,0.3025096,0.2187355
0.9497407,0.3007677,0.2199434
0.9503231,0.3010674,0.2196087
0.9498005,0.3012133,0.2185053
0.950016,0.2988576,0.2181849
0.9508386,0.3005137,0.21508
0.9533979,0.2993358,0.2117227
0.956786,0.2956828,0.2101509
0.9550382,0.2920623,0.2130098
0.9502186,0.2908075,0.2186513
0.9477544,0.2962672,0.2143389
0.9481332,0.3020131,0.2106331
0.9494424,0.3050354,0.2172812
0.9490208,0.3021656,0.2189179
0.948111,0.2977984,0.215904
0.9472836,0.3003377,0.214193
0.9466976,0.2996449,0.2126462
0.9494657,0.2964129,0.2120414
0.9534958,0.2980731,0.2099097
0.9557556,0.2998633,0.2071606
0.9528704,0.3020128,0.2062904
0.9477198,0.3016853,0.2093661
0.950162,0.2982948,0.212662
0.9520454,0.2967818,0.2123655
0.9496121,0.2951861,0.2128387
0.9514976,0.2955438,0.212201
0.9524755,0.2965652,0.2113002
0.9527432,0.295609,0.2112458
0.9531979,0.2977585,0.2101038
0.9513417,0.2992458,0.2127459
0.9524039,0.297305,0.2155543
0.9530459,0.2960211,0.2152387
0.9526142,0.294786,0.2134877
0.9528683,0.2923576,0.2115667
0.9515325,0.2896644,0.2125541
0.9515533,0.2917753,0.2114887
0.9521576,0.2965988,0.2086475
0.9530218,0.2969677,0.2087657
0.9531573,0.2965856,0.2120198
0.9521867,0.295002,0.2167928
0.9531661,0.2921248,0.2153383
0.9527692,0.2956274,0.2107759
0.9519345,0.3015652,0.2112395
0.9505262,0.3041132,0.2140111
0.9476284,0.3048725,0.2157554
0.9496706,0.3054188,0.2128408
0.9527822,0.3051875,0.2068754
0.9526949,0.2999825,0.2059717
0.9520453,0.2925275,0.2134765
0.9511313,0.2909495,0.2203835
0.9521727,0.2955743,0.2144139
0.9532305,0.2997843,0.2058348
0.9517023,0.298822,0.2086776
0.9511665,0.2986233,0.2172301
0.9523787,0.3027458,0.2239786
0.9531274,0.304366,0.2203066
0.9531605,0.3001472,0.2126631
0.9543701,0.293434,0.2155379
0.9555307,0.2925433,0.2151106
0.9521869,0.2982485,0.2124773
0.9484016,0.3013308,0.2170637
0.9502452,0.3000584,0.2139079
0.9526375,0.2984023,0.2106087
0.9526738,0.298085,0.2120242
0.9530918,0.2954083,0.2100239
0.9526812,0.2897049,0.2123672
0.9523776,0.2888575,0.2153252
0.9520632,0.2943567,0.2186713
0.9499685,0.2992065,0.2201396
0.9498217,0.2978499,0.2119469
0.9513583,0.2967172,0.2087725
0.9523906,0.2998345,0.2142247
0.9532284,0.2986999,0.2184519
0.9510758,0.2977378,0.2163639
0.9445617,0.29953,0.2106151
0.9389734,0.2981287,0.209444
0.9435858,0.2983677,0.2090312
0.9505315,0.2981608,0.2089751
0.9474142,0.2965905,0.2086789
0.9485526,0.298393,0.2077803
0.9547882,0.2989841,0.2119334
0.9523876,0.2982842,0.2135151
0.9511254,0.2974118,0.2141756
0.9520871,0.2950793,0.2170655
0.9504126,0.2939202,0.2153871
0.9505676,0.2948654,0.2105542
0.9480355,0.2974624,0.2049245
0.9464598,0.2994385,0.2073093
0.9497312,0.2995386,0.2141734
0.9511969,0.2988494,0.2132289
0.9513537,0.2976056,0.2109966
0.9517834,0.2970404,0.2117703
0.9525296,0.2980456,0.2137172
0.9521919,0.2986094,0.2134127
0.9509776,0.2958825,0.2135259
0.9504992,0.2935306,0.2181646
0.9490693,0.2960529,0.2227295
0.9501541,0.3001211,0.2270539
0.9507288,0.3022658,0.2213943
0.9490009,0.3014684,0.211724
0.9506113,0.2999014,0.2138154
0.9500684,0.299862,0.212227
0.9493841,0.2987295,0.2125621
0.950961,0.2964623,0.2208159
0.9501535,0.2953465,0.2194147
0.9510701,0.2960429,0.2201002
0.9510299,0.2979776,0.2239398
0.9508079,0.2989699,0.2193257
0.9523277,0.2983879,0.2167986
0.9506415,0.2966414,0.2164674
0.9504352,0.2956344,0.2153302
0.9502491,0.298285,0.2162379
0.9496159,0.3029815,0.2184904
0.9524346,0.3053121,0.2218615
0.9531182,0.3040092,0.2205791
0.9523908,0.3025349,0.2176035
0.9510528,0.3016891,0.2182823
0.948855,0.2991653,0.2154877
0.9483157,0.2979348,0.2113073
0.9468913,0.2988072,0.2109963
0.9467795,0.2994004,0.2167465
0.947783,0.3022526,0.2248245
0.9469404,0.3062053,0.2196636
0.9475399,0.3057104,0.2130997
0.9492208,0.3021545,0.2193079
0.9503298,0.300933,0.2206565
0.950334,0.3022545,0.2190256
0.9490401,0.3032363,0.220481
0.9474604,0.3025042,0.2186992
0.9453593,0.3004759,0.2210442
0.9464694,0.2987921,0.2243744
0.9503104,0.2985106,0.2250097
0.9511818,0.3004775,0.2258516
0.9514408,0.3022034,0.2240442
0.9515313,0.3012642,0.2236708
0.9497136,0.3009643,0.2212197
0.9480036,0.3007754,0.2182354
0.945729,0.2995644,0.2229962
0.9452818,0.2997527,0.2265621
0.9470788,0.2993532,0.2262731
0.9491503,0.2981693,0.2240033
0.9522639,0.2990634,0.218927
0.9511526,0.3015647,0.2163996
0.948614,0.3034229,0.2173224
0.9501586,0.3029033,0.219604
0.9485084,0.3014017,0.2198486
0.9460511,0.301275,0.218984
0.9475218,0.3014738,0.2202997
0.9481665,0.3007496,0.2220189
0.9504616,0.2988049,0.2237923
0.95408,0.2965569,0.2214888
0.9527986,0.297903,0.2177377
0.9501049,0.300533,0.2201555
0.949948,0.3003047,0.2228189
0.9504226,0.3016187,0.2238684
0.952659,0.3028852,0.2251781
0.9542984,0.2984421,0.2247109
0.9497842,0.2930013,0.2247693
0.9453378,0.2939379,0.2232438
0.9474349,0.2988406,0.2203799
0.9503247,0.2992784,0.219794
0.9516785,0.2993118,0.2163988
0.9531727,0.3027495,0.2114804
0.9512361,0.3019328,0.2123328
0.9487613,0.302172,0.216217
0.9502972,0.3054552,0.2181112
0.9501923,0.302604,0.2176418
0.9489144,0.2991643,0.2142592
0.9514038,0.2993438,0.2099605
0.9561932,0.3025121,0.20883
0.9589067,0.306234,0.2090096
0.9527142,0.2997423,0.2104532
0.9445605,0.292522,0.2136903
0.9459389,0.2961245,0.2128704
0.9507375,0.2965764,0.2109968
0.9547205,0.2919356,0.210504
0.9567023,0.2912734,0.2076109
0.953551,0.2919996,0.2092433
0.9499546,0.2934937,0.2146983
0.9481695,0.2951392,0.2154607
0.9489027,0.2945851,0.2136571
0.9510582,0.2950944,0.2106775
0.9498464,0.296322,0.2067837
0.949473,0.2960288,0.2051359
0.9510238,0.296512,0.2118796
0.9513936,0.29764,0.221171
0.9529517,0.2971536,0.2144621
0.9515225,0.2960279,0.2070317
0.948635,0.2957514,0.2139609
0.9502797,0.2961014,0.2154813
0.9504286,0.2976654,0.2151502
0.9497825,0.299592,0.2176336
0.9521578,0.3002942,0.2121442
0.9532455,0.3007201,0.2090858
0.9524974,0.2999771,0.2108861
0.9507914,0.2985621,0.2121543
0.9496579,0.2986579,0.2132095
0.9508462,0.298584,0.2125855
0.9516813,0.298325,0.2152069
0.950524,0.2982726,0.2169079
0.9494614,0.2987518,0.2120612
0.9502627,0.3013688,0.2084854
0.9511168,0.3014647,0.2110952
0.9515618,0.2972416,0.2141518
0.9521978,0.2950199,0.2120941
0.9514067,0.2967155,0.2118775
0.9511599,0.2988958,0.213431
0.9522005,0.2988009,0.2114975
0.9514369,0.298302,0.2108276
