accx,accy,accz
0.988581,0.1965074,0.1800447
0.9857079,0.1989049,0.1925559
0.9795263,0.2043151,0.2044613
0.9804673,0.2045194,0.2043324
0.9842337,0.2041115,0.2010853
0.9845782,0.2048515,0.2011054
0.9845136,0.2080152,0.2001208
0.983197,0.2127753,0.1994763
0.9867774,0.2133259,0.2025712
0.9902114,0.2115491,0.2043215
0.9851017,0.2104558,0.2026129
0.9799542,0.2068786,0.1973593
0.9783782,0.2018342,0.1914609
0.9800196,0.1979474,0.1966926
0.9814126,0.1963787,0.203672
0.9804835,0.1993147,0.2010635
0.9823391,0.2063141,0.2005302
0.9840975,0.216767,0.1951997
0.9827724,0.2252081,0.1840949
0.9803971,0.2229545,0.1863777
0.9784931,0.2149015,0.1903776
0.9792703,0.2092475,0.1876839
0.9814,0.207026,0.192112
0.9825006,0.2029165,0.1993579
0.9825581,0.1901521,0.2083579
0.981997,0.1837674,0.2158753
0.9825065,0.1907142,0.2081863
0.986181,0.1915437,0.2019421
0.9889837,0.1890832,0.2040748
0.9861935,0.1923442,0.2003043
0.9815506,0.1987232,0.1990883
0.9778525,0.2115986,0.2006831
0.976413,0.2212176,0.1990154
0.9770014,0.2217044,0.1974175
0.9767819,0.2226365,0.193677
0.9810463,0.2239689,0.1917638
0.987153,0.2234469,0.1897891
0.9861648,0.2213112,0.1830833
0.983231,0.2183917,0.1806193
0.9806078,0.2172036,0.1889341
0.9789069,0.2148374,0.2013372
0.9814965,0.2069243,0.2038091
0.9837499,0.1959285,0.2045161
0.9845679,0.1890775,0.2188681
0.9831783,0.1870944,0.2296789
0.9790592,0.1884724,0.2199463
0.9786669,0.1937059,0.2045293
0.9811076,0.2003797,0.2014408
0.98314,0.2083954,0.2004839
0.9847061,0.2097981,0.1939502
0.983333,0.2070029,0.1929698
0.9823611,0.2153965,0.1932462
0.9822091,0.2200044,0.1926936
0.9770906,0.2175507,0.1958943
0.9737248,0.2216652,0.2009882
0.9778286,0.218823,0.2089674
0.9806011,0.214411,0.2087709
0.9786198,0.2175329,0.1993925
0.9768596,0.2167799,0.1920499
0.9779437,0.2133752,0.1896425
0.9846397,0.2022209,0.198543
0.9942004,0.1871677,0.2063899
0.9940985,0.1878703,0.2024313
0.9867023,0.1932236,0.2003274
0.9853111,0.189286,0.1975664
0.9862143,0.1918289,0.1917824
0.9860493,0.204448,0.1967956
0.9864508,0.2123663,0.2050642
0.9856671,0.2118832,0.2013059
0.9856319,0.2118625,0.1935321
0.9823166,0.2230761,0.1902704
0.9772501,0.2297035,0.1955119
0.9772948,0.2200251,0.2072305
0.9775442,0.2152573,0.2102377
0.9751233,0.2136658,0.2120449
0.9765995,0.2078902,0.2123207
0.9929439,0.2042769,0.1911781
1.007564,0.2022806,0.1772458
0.989008,0.2073533,0.1986309
0.9685912,0.2108749,0.2207113
0.9810186,0.2049619,0.2123887
0.9873613,0.2006083,0.2010211
0.9787897,0.2007396,0.2037378
0.983289,0.2018532,0.1999595
0.9823436,0.2052559,0.2004618
0.9763238,0.2123223,0.2048287
0.9790474,0.2129775,0.2033706
0.97582,0.2115065,0.2098903
0.9776686,0.2151832,0.2050698
0.9840715,0.209875,0.1974869
0.9819551,0.2051755,0.205181
0.9817864,0.2082068,0.2037753
0.9800251,0.2092185,0.1984066
0.9784332,0.2147649,0.1945233
0.9808334,0.2174774,0.1939158
0.9814666,0.2099997,0.2017827
0.9834927,0.2019655,0.2039875
0.9834955,0.2002911,0.2077616
0.9825009,0.2057509,0.2126438
0.98145,0.2082875,0.2101639
0.9796576,0.2061244,0.2110267
0.9825011,0.2040903,0.2138065
0.9829127,0.2020307,0.215361
0.9815128,0.2029624,0.2160264
0.9823195,0.2058799,0.211002
0.9796015,0.2103183,0.2027641
0.9771598,0.2146427,0.2009554
0.9769277,0.2158919,0.2029281
0.9785967,0.2193018,0.197267
0.9827075,0.2221771,0.1925973
0.9826386,0.2182364,0.1975895
0.9806239,0.2137605,0.2049182
0.9806825,0.2104708,0.2096627
0.978695,0.2026042,0.2097957
0.9784925,0.195167,0.2091533
0.9800943,0.1946831,0.2101907
0.978663,0.1980186,0.209653
0.9790731,0.2036244,0.20878
0.9794778,0.2131964,0.2062475
0.9775444,0.2230962,0.2022179
0.9767758,0.2274186,0.2027614
0.9750886,0.2246155,0.205297
0.9745938,0.2194819,0.2063906
0.9753464,0.2211061,0.208766
0.9747657,0.2240316,0.2077146
0.9751134,0.2195419,0.2057653
0.9755505,0.2130837,0.210538
0.9775526,0.2027508,0.2122731
0.9801728,0.1982422,0.2098205
0.9793117,0.2062613,0.2088217
0.9786429,0.2077612,0.2063717
0.9794775,0.2079491,0.208266
0.9790192,0.2125122,0.2108792
0.9780612,0.2153678,0.2074292
0.9776873,0.2212685,0.2065346
0.9776359,0.220627,0.2089646
0.9780587,0.2174559,0.2103315
0.9785514,0.2206264,0.2102477
0.9787412,0.2190859,0.2110048
0.9795387,0.216911,0.2126991
0.9807557,0.2162655,0.2091017
0.9795662,0.2123585,0.2057432
0.9723641,0.2103112,0.2116833
0.9636098,0.2082716,0.2224314
0.9696028,0.201219,0.2218293
1.001441,0.1921133,0.1904295
1.021755,0.1967096,0.1634746
0.9728473,0.223553,0.2008259
0.9235123,0.2434078,0.2380914
0.9739277,0.2283843,0.1975999
1.017963,0.208832,0.1713355
0.9781107,0.2144871,0.2063066
0.9674686,0.2110889,0.2163008
0.9858615,0.196514,0.2000377
0.9748477,0.2020295,0.1998803
0.9766383,0.2062676,0.2091284
0.9818358,0.2068315,0.2162861
0.9802467,0.2069739,0.2060208
0.9888825,0.1979595,0.1901989
0.9838928,0.2057714,0.1888494
0.9787468,0.2143842,0.1974289
0.9827732,0.2118147,0.2066218
0.979898,0.2164676,0.2034086
0.9799306,0.2168385,0.2001575
0.9803958,0.2192692,0.2048384
0.9783583,0.2183806,0.2023198
0.9792893,0.2100781,0.2020832
0.9793558,0.2121372,0.2048413
0.9791831,0.2109457,0.202693
0.9804336,0.208207,0.2045396
0.9826912,0.2092968,0.2080478
0.9839239,0.2080601,0.2096366
0.9829594,0.2107166,0.2053727
0.9813416,0.2093859,0.1965844
0.9802942,0.2066359,0.1967802
0.9816621,0.2080897,0.2009295
0.9840907,0.2077851,0.2026168
0.9843787,0.2074489,0.2036009
0.9824661,0.2064941,0.2021992
0.9799839,0.2093238,0.2027967
0.976974,0.2137101,0.2037368
0.9755136,0.213729,0.2048953
0.9778012,0.2133691,0.2074663
0.9794332,0.2109258,0.2024986
0.9802779,0.2105524,0.1941504
0.9828715,0.2122397,0.1916267
0.9829334,0.2124255,0.1937504
0.9788254,0.2156307,0.1973307
0.9750974,0.215523,0.198837
0.9774686,0.2123913,0.1972441
0.9827831,0.2101689,0.195018
0.9838758,0.2060474,0.1964744
0.9832314,0.2049043,0.1983391
0.9823445,0.2056646,0.1966686
0.9811226,0.2055996,0.1973004
0.9804112,0.2054828,0.1985988
0.9791048,0.2042299,0.1983572
0.9816992,0.2032359,0.199399
0.9856808,0.2032239,0.2001582
0.9845128,0.207206,0.2011136
0.9825051,0.2114597,0.1983871
0.9815165,0.2102048,0.1928631
0.9807581,0.2106917,0.190844
0.980826,0.2137661,0.1885671
0.9812081,0.2134165,0.1896928
0.9821369,0.2125493,0.1938559
0.9810903,0.2128361,0.1937888
0.9789707,0.2121722,0.1976869
0.9792369,0.2124597,0.2010318
0.9805123,0.2125056,0.1962653
0.9825337,0.2103064,0.196452
0.984072,0.2093741,0.2003293
0.9832668,0.2096068,0.1982126
0.9830471,0.2101874,0.1910621
0.9836094,0.211646,0.1836853
0.9832295,0.2123915,0.1860636
0.9832792,0.2111691,0.1916764
0.9832764,0.2087287,0.1890938
0.9821598,0.2095233,0.189059
0.9808175,0.210703,0.1916013
0.9800195,0.2100906,0.1909326
0.9793527,0.2125128,0.1939801
0.9772651,0.2132915,0.1962928
0.9759219,0.2128119,0.1947299
0.9782422,0.2137993,0.1916263
0.9797079,0.2103227,0.1874714
0.9768921,0.2074688,0.1912733
0.9737679,0.2109042,0.2015754
0.9738557,0.2135989,0.2067688
0.9778218,0.2106837,0.2012836
0.9830748,0.2084204,0.1937725
0.9840759,0.2102045,0.1970781
0.9809007,0.2099374,0.1982473
0.9789543,0.2092364,0.1936962
0.9790668,0.2101376,0.196435
0.9797317,0.2102483,0.1967155
0.9818991,0.2132541,0.1955084
0.9839229,0.2167303,0.1984867
0.9823987,0.2163851,0.1967806
0.9793185,0.2153715,0.195861
0.9787502,0.2123028,0.1962945
0.9793298,0.2068479,0.1960011
0.9791338,0.2075633,0.200805
0.9791835,0.2125082,0.2040879
0.9796927,0.2123989,0.2019106
0.9818186,0.2128702,0.1968622
0.9835114,0.215012,0.193279
0.9799907,0.2134269,0.1959616
0.9763044,0.2135349,0.1981637
0.9785442,0.2131399,0.1951143
0.9807015,0.2099388,0.192459
0.9803856,0.209363,0.1918303
0.9826993,0.2096936,0.1873787
0.9846343,0.2098468,0.1829126
0.9852692,0.2097558,0.1875788
0.9870063,0.2095101,0.1951943
0.985985,0.209981,0.1999678
0.9855869,0.2095647,0.2010013
0.9862738,0.2097066,0.1965159
0.982979,0.2098861,0.1946483
0.9816943,0.2095,0.1960939
0.9846182,0.2099015,0.1939176
0.9865687,0.2100096,0.1923658
0.9838081,0.2111008,0.1934628
0.9804158,0.2117485,0.1956979
0.9832521,0.2106712,0.1999427
0.9851994,0.2107333,0.2025507
0.9842606,0.2098077,0.2013745
0.9851157,0.2080247,0.1989459
0.9842269,0.208287,0.1956307
0.9827836,0.2075452,0.1919034
0.9813699,0.2068949,0.1938905
0.979968,0.2100113,0.198932
0.9806699,0.2134389,0.1967362
0.9806215,0.2155582,0.1920873
0.9810015,0.2171885,0.1906467
0.9829833,0.2164103,0.1902802
0.9839725,0.2132564,0.1911977
0.9833007,0.2099773,0.1918525
0.9823554,0.2090273,0.1925895
0.9811052,0.2102808,0.1950544
0.9784013,0.2116932,0.1980376
0.97985,0.2126297,0.1963808
0.9836772,0.2119067,0.1904369
0.9832974,0.2106804,0.1882341
0.9828277,0.211955,0.1887831
0.9808111,0.2131681,0.1909273
0.9779859,0.2120896,0.1930099
0.9792445,0.2116527,0.1928954
0.9795545,0.2120048,0.1954533
0.9788362,0.2124362,0.1963414
0.9796433,0.2125541,0.1950961
0.9811491,0.210088,0.1944544
0.9833465,0.2073223,0.1919564
0.9832809,0.206845,0.191572
0.9803801,0.2086124,0.1892916
0.9783195,0.2106448,0.1864896
0.9795477,0.2100492,0.190461
0.9825246,0.211046,0.1930892
0.9847375,0.2131577,0.1923856
0.9852963,0.2107072,0.1929717
0.9838871,0.2087108,0.1932546
0.9817385,0.2102778,0.1918266
0.9791796,0.2117818,0.1903263
0.9784708,0.2123956,0.1921817
0.9808365,0.2110213,0.1999809
0.9819161,0.208499,0.2079415
0.9827803,0.2077618,0.2032331
0.9836422,0.2070146,0.1963905
0.981097,0.2066368,0.2002406
0.9790162,0.2091914,0.1975686
0.9789703,0.2103405,0.1914579
0.979358,0.2093073,0.1940759
0.980245,0.2088932,0.1925821
0.980618,0.2082078,0.1902448
0.9809266,0.209114,0.1925
0.9813228,0.210285,0.1915503
0.9821271,0.2095743,0.1913379
0.9824716,0.2096367,0.1921116
0.9823955,0.2098394,0.1913331
0.9838066,0.2098346,0.1919776
0.9835559,0.2104613,0.1927871
0.9822819,0.2104722,0.1946044
0.9808889,0.2095885,0.1976733
0.9773275,0.2093683,0.1992069
0.9772235,0.2102355,0.1986929
0.9796404,0.2105624,0.1969061
0.9803324,0.2111846,0.1953263
0.9826362,0.2114966,0.1939799
0.9844472,0.2107119,0.193564
0.9849225,0.2112394,0.1923367
0.9861858,0.2110935,0.1896962
0.9846824,0.209918,0.1925285
0.9823117,0.2097084,0.1957157
0.9833141,0.2095112,0.1914064
0.9838586,0.2095075,0.1892594
0.9832482,0.2080067,0.1924451
0.9852198,0.2063489,0.1936475
0.985959,0.2080395,0.1920861
0.9815629,0.2097959,0.1910798
0.9779568,0.209857,0.1916589
0.9807596,0.210053,0.190943
0.9842168,0.2114477,0.190087
0.9823641,0.2131187,0.1926914
0.9804882,0.2126754,0.1964381
0.9788435,0.2120761,0.197362
0.9754978,0.2125685,0.19347
0.9776689,0.2116345,0.1892541
0.9809386,0.2104742,0.1908236
0.979793,0.2102901,0.1954019
0.9813312,0.2095879,0.1982141
0.9829209,0.2094616,0.1968447
0.9811066,0.2100066,0.191959
0.9801006,0.2098041,0.1893577
0.9798403,0.2105226,0.1922018
0.9831028,0.2112007,0.1987029
0.9875042,0.2087569,0.2018275
0.9838011,0.204943,0.1945569
0.980026,0.2036442,0.1870557
0.98343,0.2059905,0.1900339
0.9843108,0.2078871,0.1920232
0.9835162,0.206821,0.1889866
0.985323,0.2069517,0.1912859
0.9846734,0.2090952,0.1956827
0.9834005,0.2097645,0.1992491
0.9834209,0.2080757,0.2035539
0.983085,0.205982,0.2030996
0.9834862,0.2060638,0.1979922
0.9833829,0.2065615,0.1917308
0.9831441,0.2059897,0.1902085
0.9835332,0.2065247,0.1888269
0.983225,0.2072321,0.1814808
0.9827837,0.2082418,0.1866346
0.9807576,0.2106355,0.1953578
0.9787546,0.212297,0.1906768
0.9817977,0.2118608,0.1918897
0.985644,0.2097315,0.1949029
0.9846123,0.2092302,0.1929952
0.9823692,0.2102926,0.1958566
0.9819522,0.2104548,0.1943774
0.9825872,0.2113456,0.1880949
0.9841728,0.2111967,0.1838818
0.9845769,0.209641,0.1844621
0.982612,0.2088108,0.1901823
0.9795078,0.2084598,0.1944927
0.976968,0.2109774,0.1970016
0.9776537,0.2132589,0.1959961
0.9824822,0.2107394,0.1938526
0.9888937,0.2086893,0.195215
0.9884328,0.2098559,0.1950581
0.9827724,0.2102933,0.1955072
0.9820052,0.2105793,0.194223
0.9801356,0.2132916,0.1891835
0.9784438,0.2141534,0.1891827
0.9826081,0.2109532,0.190751
0.9841153,0.2089771,0.1899656
0.9843202,0.2104799,0.1884558
0.9841617,0.2118881,0.1876743
0.9808153,0.2107691,0.1920166
0.9775223,0.2098944,0.1960714
0.9770474,0.2102406,0.194706
0.9808323,0.2111469,0.1939323
0.9828355,0.2132343,0.196669
0.9834035,0.2124782,0.1979851
0.9831546,0.2099752,0.1958161
0.9780214,0.2096989,0.1918908
0.975409,0.2094389,0.1873755
0.9764583,0.2098464,0.1885867
0.9787276,0.209932,0.1923215
0.9809823,0.209325,0.1898614
0.9812975,0.2098757,0.1883559
0.9826798,0.2087341,0.1912162
0.9825992,0.2077239,0.1946349
0.9821729,0.2076342,0.197323
0.9814292,0.2069486,0.1964309
0.9793171,0.2086746,0.1935227
0.9800893,0.2104593,0.1919567
0.9792984,0.2097857,0.1914459
0.9797376,0.2093784,0.1900047
0.9833985,0.2095465,0.1900207
0.9835379,0.2080252,0.1932937
0.9833362,0.2061668,0.1954907
0.9835265,0.2069202,0.1958723
0.984041,0.2073273,0.1954918
0.9854778,0.2069714,0.1977451
0.9854547,0.2092073,0.200249
0.9859221,0.2117565,0.1968578
0.9846278,0.2113387,0.196512
0.9825721,0.2090941,0.1969964
0.9842481,0.2092343,0.1901545
0.9853873,0.2104318,0.1871441
0.9845063,0.2093964,0.1932401
0.98459,0.2095727,0.1991204
0.9849353,0.2101209,0.1934025
0.9844339,0.2093601,0.1867719
0.9837924,0.20987,0.1913272
0.9831873,0.2098107,0.1913279
0.983277,0.2098484,0.1898466
0.9843188,0.211391,0.1941671
0.9840223,0.2111171,0.1939244
0.9830417,0.209395,0.194334
0.9826994,0.209378,0.1949193
0.9806123,0.2112612,0.1928222
0.9774465,0.2122854,0.1932306
0.9770967,0.2125043,0.1928972
0.9783752,0.2128147,0.1933591
0.9782122,0.2123797,0.1951332
0.9801534,0.2134338,0.1959919
0.9829993,0.2138529,0.1956333
0.9809276,0.2109782,0.1915698
0.9787735,0.2089571,0.1883822
0.9798336,0.2094348,0.1892299
0.98179,0.21026,0.1927008
0.9841279,0.2098965,0.1951652
0.9837444,0.210894,0.1914749
0.9825996,0.2118864,0.1874476
0.9837222,0.2099479,0.1890323
0.9834278,0.2108053,0.1925631
0.982966,0.21206,0.1948231
0.9836851,0.2104304,0.1961684
0.983005,0.2110234,0.195446
0.9823603,0.2107421,0.1908426
0.9818901,0.2102416,0.1881301
0.9817918,0.2133727,0.1913824
0.9831724,0.214155,0.194447
0.9835124,0.2107885,0.1931631
0.9832833,0.2080625,0.1916845
0.9835753,0.2084486,0.1910239
0.9841029,0.2093836,0.1880174
0.9851189,0.2097441,0.1891962
0.9847846,0.212139,0.1954614
0.9848062,0.2116884,0.1967251
0.9867528,0.2080081,0.1906403
0.9877596,0.2086382,0.1840104
0.9867948,0.2103686,0.188725
0.9855241,0.2111846,0.1951328
0.9860951,0.2116411,0.1905211
0.9861271,0.209545,0.1908258
0.9839578,0.2095554,0.1934266
0.9829364,0.2102495,0.1918302
0.98321,0.210329,0.1968186
0.9837028,0.2126783,0.2002583
0.9842454,0.2120118,0.1999046
0.9847893,0.2086719,0.2000988
0.9848753,0.2064764,0.1967894
0.9833465,0.208394,0.1924729
0.9821942,0.2127279,0.1886522
0.9817956,0.2113644,0.1890268
0.9813745,0.2104861,0.191005
0.9804805,0.213311,0.1905854
0.9791642,0.2125856,0.1930727
0.9824547,0.2111409,0.1925976
0.9861145,0.2108665,0.1891773
0.982536,0.2099855,0.187463
0.9788577,0.2086442,0.1837344
0.9790505,0.2078813,0.1847432
0.9799067,0.2083071,0.1900002
0.9827514,0.2078723,0.1914107
0.986017,0.2083164,0.1921355
0.9858085,0.2104478,0.1942
0.9847029,0.2108093,0.1939272
0.9849623,0.2099783,0.1877203
0.9841828,0.2097337,0.1816809
0.9828249,0.2092303,0.1834965
0.9817198,0.2082878,0.1878887
0.9816092,0.2079866,0.1893764
0.9833575,0.2084524,0.1882217
0.983524,0.2086951,0.187197
0.9831036,0.2086252,0.1896433
0.9836014,0.2086456,0.1933354
0.9831092,0.2082497,0.1949265
0.9834087,0.2090608,0.1948024
0.9834439,0.2104293,0.1941211
0.9830948,0.2096617,0.1939951
0.9835848,0.2104326,0.1930107
0.983179,0.2112389,0.1904754
0.9829795,0.2081641,0.1900461
0.9816788,0.2061206,0.1907786
0.9803479,0.207461,0.1918202
0.9831988,0.2109837,0.1938885
0.9856873,0.2127259,0.193122
0.9839278,0.2091037,0.1925389
0.9824564,0.2054403,0.1935617
0.9832721,0.2073368,0.1935064
0.981613,0.2117255,0.1966202
0.9786771,0.2138314,0.1998941
0.9797173,0.2143176,0.1978958
0.9829838,0.2121682,0.1935158
0.9856503,0.2081836,0.190617
0.9847026,0.2067346,0.1918105
0.9811615,0.2083377,0.195031
0.9805287,0.2119619,0.1958699
0.9821897,0.2124999,0.1932519
0.9838239,0.21187,0.1905952
0.9824607,0.2126192,0.1916151
0.9791373,0.2084801,0.1932606
0.9789748,0.2056939,0.1929059
0.979576,0.2076491,0.1930892
0.9808352,0.209957,0.1925164
0.9829231,0.212849,0.1895601
0.9825987,0.2125295,0.1878634
0.982612,0.2103538,0.1882361
0.9827729,0.2098783,0.1883225
0.9822397,0.212481,0.1876804
0.9821413,0.2169711,0.1869915
0.9817505,0.2161838,0.1876486
0.9829639,0.210854,0.1905493
0.9838042,0.2066831,0.1924254
0.9830925,0.2069734,0.1906754
0.9834017,0.2086104,0.1893424
0.9828242,0.2064541,0.188175
0.9805727,0.2040757,0.1842868
0.9789941,0.2025981,0.1831477
0.9814159,0.2042167,0.1878994
0.9850304,0.2092021,0.1918909
0.9836871,0.2106353,0.1888477
0.9817016,0.2118946,0.18402
0.9814787,0.2123757,0.1839815
0.9817707,0.2092868,0.1883519
0.984385,0.2094834,0.1936459
0.9851904,0.2101022,0.1929283
0.9844427,0.2090086,0.1926717
0.9849576,0.2082015,0.1977142
0.9845287,0.206447,0.1953076
0.9849543,0.2076023,0.1899261
0.9857544,0.2093474,0.1889595
0.9861089,0.2089224,0.1888004
0.9861433,0.2102464,0.1905373
0.9839539,0.2118502,0.1870388
0.9828729,0.2126652,0.1837711
0.9833332,0.2125132,0.1915857
0.9832159,0.2103695,0.1967738
0.9825389,0.2088546,0.1944878
0.9820003,0.2077595,0.1935449
0.9846715,0.2056595,0.1948876
0.9864347,0.2053602,0.1947552
0.9825826,0.2076041,0.1944861
0.9790428,0.2091376,0.1985198
0.9805338,0.2083335,0.2007011
0.9823708,0.2061568,0.1982365
0.9817464,0.2061829,0.1964294
0.9831308,0.2103214,0.1969544
0.9847641,0.2109481,0.1959901
0.9846293,0.2065335,0.1863783
0.9848404,0.206356,0.1767258
0.9835992,0.2076026,0.1795111
0.9830297,0.208923,0.1873293
0.9835031,0.2132365,0.1898295
0.9831802,0.2116279,0.1899985
0.9833153,0.2094583,0.1911378
0.9823428,0.212503,0.190123
0.9816393,0.2118158,0.1918152
0.9819987,0.2121667,0.1936742
0.9819326,0.2132759,0.1885299
0.9822028,0.2107872,0.1842485
0.9827252,0.2111018,0.1823242
0.9836634,0.2111088,0.1834938
0.9834913,0.2095132,0.1920066
0.9829821,0.2078912,0.1994546
0.9836043,0.2051062,0.1959491
0.9832572,0.2062304,0.1891365
0.9832371,0.2103988,0.1901583
0.983513,0.2135259,0.1878165
0.9829866,0.2125417,0.1849198
0.9825354,0.2078089,0.1887171
0.9818456,0.2064887,0.1855187
0.9826645,0.2079402,0.1862103
0.9835552,0.2094003,0.1916502
0.9814635,0.2096235,0.19033
0.9803448,0.2084572,0.1923999
0.9832396,0.2100362,0.1918414
0.9856798,0.2105969,0.1896948
0.9835622,0.2107938,0.1911668
0.9806534,0.2131487,0.189452
0.9805441,0.2108611,0.1896532
0.9813925,0.2087002,0.1858517
0.9820929,0.2111435,0.1793838
0.9812439,0.2124721,0.1816929
0.9802571,0.2122322,0.188259
0.9824779,0.2104041,0.1946241
0.9841063,0.2071188,0.1941783
0.9832314,0.2049943,0.1914269
0.9829528,0.2035065,0.1938777
0.9825981,0.2014353,0.1932194
0.9821997,0.2010067,0.1927141
0.9844363,0.2031783,0.1951716
0.9872054,0.2058931,0.1942506
0.9861554,0.2085552,0.1926703
0.9844811,0.2091462,0.1927268
0.9849643,0.2086538,0.1933378
0.984578,0.2101556,0.1911866
0.9847933,0.2103876,0.1828809
0.9859125,0.2109574,0.1754559
0.9860827,0.2134212,0.178647
0.9860084,0.2123067,0.1850285
0.984173,0.2097366,0.1832467
0.9826887,0.2078845,0.1824195
0.9835715,0.2058692,0.1845182
0.9843703,0.2062699,0.1829088
0.9849187,0.2061315,0.185171
0.9848058,0.2035589,0.1872392
0.9845533,0.200725,0.1851296
0.9850221,0.1997941,0.1845796
0.9855719,0.2050312,0.1829384
0.9863724,0.2104564,0.1838556
0.9862552,0.2093846,0.1857212
0.9855027,0.2087049,0.1849615
0.984468,0.2114662,0.1883189
0.9827965,0.2144106,0.1912076
0.983379,0.2156704,0.1886787
0.9856377,0.2145307,0.1865014
0.9858646,0.2135111,0.1884529
0.9835556,0.2147367,0.189813
0.981699,0.2148373,0.1876065
0.9851514,0.209745,0.1853812
0.9893922,0.2051129,0.1825339
0.9872863,0.2066204,0.1824867
0.9856781,0.2077756,0.1854029
0.9867032,0.2055038,0.1872355
0.9853388,0.2051296,0.191778
0.9843066,0.2061408,0.193982
0.9831622,0.2062268,0.195474
0.9826546,0.2072101,0.1991598
0.9840555,0.2075968,0.1908505
0.9830952,0.2082662,0.1821083
0.9830498,0.2105693,0.1869166
0.983868,0.2100975,0.1890649
0.9828734,0.2099904,0.187426
0.9835141,0.2120571,0.1886291
0.9836363,0.2119658,0.1885206
0.9839118,0.2120593,0.1897479
0.9853301,0.211015,0.1916268
0.9840818,0.2075284,0.1902837
0.9818592,0.2061515,0.1889326
0.9799797,0.205846,0.1869535
0.9800537,0.2068722,0.1829464
0.9818049,0.2091212,0.1837484
0.9829164,0.2075946,0.1892432
0.9846627,0.2067152,0.193426
0.9818862,0.2109576,0.1998725
0.9776071,0.2131259,0.2035212
0.9818893,0.209923,0.1938245
0.9851856,0.2068301,0.1823422
0.9826703,0.2073501,0.1818234
0.9830888,0.2074629,0.1844884
0.9838573,0.2065463,0.1831627
0.9829496,0.209236,0.1841003
0.9839831,0.2114017,0.1901829
0.9861064,0.2110488,0.1946282
0.9879675,0.211117,0.1934172
0.9870709,0.2098417,0.1901047
0.9849733,0.2085965,0.1900905
0.9854012,0.2081199,0.1904253
0.9848453,0.2081469,0.1889321
0.9840942,0.2085246,0.1877497
0.9854196,0.2071738,0.1824295
0.9853383,0.2066889,0.1782982
0.9852156,0.2072228,0.1842961
0.9849696,0.207746,0.1912019
0.9839166,0.2091051,0.1903077
0.984223,0.2100923,0.1889066
0.9831369,0.211313,0.1904597
0.9826354,0.2106173,0.1886211
0.9832868,0.2092578,0.1895373
0.9821961,0.2116752,0.1940539
0.98344,0.2133216,0.1927867
0.9840073,0.2123523,0.1911255
0.9825991,0.212302,0.1905844
0.9840368,0.212149,0.1899761
0.9852252,0.2096112,0.1902629
0.9855685,0.206535,0.1881188
0.9831493,0.2064552,0.1878918
0.9795217,0.2072381,0.1909377
0.983927,0.2059189,0.1934797
0.9882717,0.2056732,0.190198
0.9853133,0.2083544,0.1854565
0.983544,0.210601,0.189635
0.9824345,0.2099528,0.1914208
0.9802195,0.2091477,0.1875369
0.9805253,0.2102033,0.1872531
0.9809094,0.2107218,0.1870352
0.9812079,0.2110536,0.1862202
0.9824205,0.2115151,0.1856804
0.9819727,0.2106222,0.1859182
0.9818499,0.2100347,0.1860722
0.9830975,0.2088208,0.1854734
0.9834838,0.2076252,0.1882199
0.9834202,0.2084642,0.1905252
0.9832305,0.2075405,0.1917201
0.9829586,0.2065396,0.1909768
0.9816721,0.2080418,0.185451
0.9807596,0.2086361,0.1838138
0.985063,0.2085236,0.1855039
0.9901942,0.2092805,0.1876639
0.9890409,0.2111061,0.1917378
0.9860193,0.212835,0.192943
0.9851318,0.2142984,0.1949695
0.9843563,0.215594,0.1970998
0.9844244,0.2132561,0.1913573
0.9842252,0.2097039,0.1849032
0.9827281,0.209328,0.186969
0.9832978,0.2098321,0.1895997
0.9840824,0.2096227,0.1884917
0.9847189,0.2087573,0.1925528
0.9870398,0.2075046,0.1938424
0.9872494,0.2056357,0.1873211
0.9862731,0.2034659,0.1849835
0.9833992,0.2041385,0.1850015
0.9780036,0.2065649,0.1847936
0.979173,0.2072255,0.18462
0.9848767,0.2070115,0.1834061
0.9859593,0.2068608,0.18466
0.9820402,0.2067073,0.1883019
0.9778588,0.2061954,0.1928391
0.9812735,0.2051776,0.1892921
0.9856611,0.2054416,0.1812441
0.98264,0.2058707,0.1823799
0.9828892,0.2060284,0.1870341
0.9852818,0.2093611,0.1941036
0.9843859,0.2132004,0.1983141
0.9859489,0.2130317,0.1931262
0.9862716,0.2117349,0.1920035
0.9847284,0.2115745,0.1913367
0.9838756,0.2098247,0.1864726
0.9833917,0.2072177,0.1878212
0.987135,0.2066983,0.1894924
0.9898066,0.2068648,0.1884991
0.9871425,0.2073772,0.1906528
0.9851054,0.2088357,0.1910238
0.9860963,0.2100459,0.1891023
0.9861623,0.210116,0.1887847
0.9827424,0.2092804,0.1872034
0.9803264,0.2097921,0.1867965
0.9811549,0.2100199,0.1886731
0.9850803,0.209304,0.1885999
0.9889433,0.2100026,0.1888017
0.9864574,0.2098853,0.1877044
0.9831568,0.210576,0.1870876
0.983318,0.2127712,0.1919215
0.9832223,0.213514,0.193757
0.9833952,0.2139825,0.1909001
0.9835831,0.2130724,0.1887887
0.9840759,0.2116121,0.1881243
0.9849518,0.2108514,0.1881609
0.9838774,0.208903,0.1853217
0.9828301,0.2074303,0.1846788
0.9835754,0.2059852,0.18966
0.9844076,0.2048433,0.1918594
0.9846361,0.2059723,0.1867696
0.9839966,0.2066621,0.1807953
0.9832647,0.2068576,0.1839249
0.9850105,0.2074698,0.1897918
0.9869919,0.2076106,0.1920827
0.9858999,0.2085557,0.1946512
0.9846533,0.2088635,0.1938513
0.9840851,0.2084044,0.1947979
0.9835504,0.2084359,0.1975406
0.984114,0.2065972,0.1958541
0.983447,0.2065899,0.19693
0.9825537,0.2095489,0.1944181
0.982878,0.20994,0.1867286
0.9816604,0.2097178,0.1854941
0.9817072,0.2098007,0.1878493
0.9832395,0.2094811,0.1898187
0.982567,0.2099981,0.1890394
0.9826244,0.2095799,0.1880995
0.98359,0.2096555,0.1889248
0.9834104,0.2099506,0.1850176
0.9832752,0.2090984,0.1820397
0.9834434,0.208117,0.1839403
0.9843367,0.2069058,0.1863334
0.9849594,0.2092944,0.188213
0.9847473,0.2128956,0.1883561
0.984849,0.2128323,0.1912217
0.9855727,0.2138263,0.1970593
0.9863088,0.2141186,0.1984379
0.9852538,0.2106108,0.1968334
0.9842196,0.2089699,0.1979343
0.9850043,0.2097411,0.1988412
0.9857283,0.2099234,0.195122
0.985906,0.2096606,0.1908084
0.9844759,0.2096169,0.1894527
0.9825965,0.2095022,0.1902899
0.9831946,0.2078885,0.1903977
0.9834368,0.2063285,0.1880553
0.9812518,0.2068645,0.1874215
0.9799935,0.207246,0.1892825
0.9812746,0.2069545,0.1908851
0.984313,0.2078068,0.1909429
0.9871046,0.2089106,0.1909116
0.9863295,0.2092373,0.1914566
0.9844613,0.209792,0.1890894
0.9846462,0.2100039,0.1886986
0.9842099,0.209462,0.1908891
0.984666,0.2097669,0.1897468
0.9867884,0.2102261,0.1903348
0.9861975,0.2113014,0.1911408
0.9845226,0.2131881,0.1913258
0.9840302,0.2121598,0.1941431
0.9840439,0.208957,0.1931724
0.9857913,0.2057146,0.1923123
0.9867981,0.2028672,0.1941505
0.9855928,0.2024631,0.1946337
0.9851587,0.2028985,0.197254
0.9843543,0.2030791,0.1976457
0.9825762,0.2051759,0.1943926
0.9815496,0.2083522,0.1924045
0.9807636,0.2089797,0.1898981
0.9805336,0.2063716,0.1871556
0.9806787,0.2065502,0.1862822
0.9815586,0.2096482,0.1887455
0.9831127,0.2099001,0.1887733
0.9826614,0.2095095,0.1847987
0.9815972,0.2089616,0.1868317
0.9818503,0.2079663,0.1896222
0.9821049,0.2093849,0.1898773
0.9819308,0.210104,0.1918269
0.9816485,0.2094323,0.1913206
0.9811791,0.209016,0.1933353
0.9802464,0.2087294,0.1946323
0.9809055,0.2092637,0.1928051
0.9835888,0.2092015,0.194497
0.9854826,0.2095626,0.1909035
0.9857776,0.2098447,0.1882434
0.9846574,0.2076371,0.1907557
0.9828748,0.20672,0.1904261
0.981362,0.2087647,0.1935216
0.9818182,0.2100696,0.1914496
0.9834527,0.2080738,0.1870235
0.9832456,0.2062845,0.1933498
0.9837122,0.2088259,0.1958028
0.9853071,0.210706,0.1926578
0.9861452,0.2094785,0.1908347
0.9855457,0.2096856,0.188706
0.9828652,0.2107176,0.1882446
0.9821312,0.2101685,0.1862347
0.981958,0.2086546,0.1846079
0.9807089,0.2078304,0.1880827
0.9819711,0.2084569,0.1923123
0.9838036,0.2090478,0.1933155
0.9853313,0.2107697,0.1941571
0.9850437,0.2132761,0.1949855
0.9836449,0.2117659,0.191145
0.9827477,0.2090223,0.190079
0.9777625,0.208894,0.1952634
0.9758195,0.2082011,0.1978606
0.9822268,0.2079872,0.1947656
0.9865957,0.2087661,0.1894954
0.9848359,0.2082927,0.1895145
0.9825842,0.2091622,0.1896105
0.9829449,0.2102387,0.184275
0.9830218,0.2095695,0.1842487
0.9848059,0.209663,0.1921979
0.987345,0.209831,0.2001948
0.9846367,0.2096362,0.1975219
0.9825911,0.2097768,0.1901989
0.9810104,0.2095107,0.1904413
0.9787448,0.209024,0.1901165
0.9836532,0.2089561,0.1908761
0.9877282,0.2098646,0.1928987
0.984274,0.2100776,0.191798
0.9820244,0.2093669,0.1973544
0.9840037,0.2098171,0.1998052
0.9855793,0.2098689,0.1891975
0.9851528,0.2096677,0.1810234
0.9821756,0.2107849,0.1892914
0.978375,0.2113484,0.1978538
0.9829311,0.2113136,0.185649
0.9886525,0.2119312,0.1779365
0.9838641,0.212761,0.1863741
0.9817495,0.2126962,0.1880918
0.9843469,0.2122008,0.185686
0.9829032,0.2126312,0.1833508
0.9822224,0.2122328,0.1813576
0.9820297,0.2105028,0.1849561
0.9815484,0.2097254,0.18897
0.982296,0.2112164,0.1923611
0.9820107,0.2132312,0.1946129
0.9827249,0.2113954,0.191528
0.9838196,0.207692,0.1875587
0.9830778,0.2046388,0.1912107
0.9819562,0.2020846,0.1950981
0.9801932,0.2051153,0.1910151
0.9791777,0.2087287,0.1893602
0.9800921,0.2069328,0.1898677
0.9804252,0.2080121,0.1886721
0.981134,0.2100626,0.1885245
0.9824917,0.2078852,0.1865534
0.9808573,0.2079973,0.1866585
0.9789367,0.2098725,0.1887072
0.9792654,0.2096969,0.19314
0.9790577,0.2097358,0.1991606
0.9791629,0.2098024,0.1941328
0.9795032,0.2095673,0.1889601
0.9801847,0.2096815,0.1935158
0.9827976,0.2086068,0.1938447
0.9839379,0.2071041,0.1911391
0.9832447,0.2066889,0.1883381
0.9826624,0.2071074,0.1839165
0.9807246,0.2079992,0.1866312
0.9784156,0.208662,0.1930713
0.9787183,0.2093307,0.1948986
0.9798714,0.2098943,0.1939362
0.9797739,0.2097963,0.1914128
0.9833998,0.2096447,0.1910868
0.9870663,0.2097013,0.1929465
0.9817802,0.2097996,0.1938882
0.977591,0.2100279,0.1955677
0.9830717,0.2114883,0.1911939
0.9876222,0.2131254,0.1850632
0.9860289,0.2122666,0.1893495
0.9855303,0.2103482,0.1917385
0.9865109,0.2093938,0.1875425
0.9849722,0.2093469,0.1869687
0.9845194,0.2090987,0.1877181
0.9858161,0.2079916,0.1874925
0.9859245,0.2080993,0.1874917
0.9845031,0.2089036,0.1874485
0.9825462,0.2090124,0.1875867
0.9831889,0.209589,0.188146
0.9838926,0.207899,0.1910873
0.9828784,0.2041844,0.1941859
0.9838204,0.2039767,0.1943084
0.9852751,0.2062287,0.196752
0.9863785,0.2076321,0.2004907
0.9858523,0.2080194,0.1942675
0.9820099,0.2082006,0.1859972
0.9799986,0.2090141,0.188927
0.9821161,0.2101709,0.1912386
0.984339,0.2123903,0.1892896
0.9834432,0.2132876,0.1906301
0.9828272,0.2119496,0.1895078
0.9846154,0.2125554,0.1882311
0.9839942,0.2128108,0.1902937
0.9828586,0.2115523,0.1905726
0.9838449,0.2102872,0.1920669
0.98507,0.2083469,0.1966217
0.9861602,0.2095307,0.2008044
0.9834684,0.2110562,0.200134
0.9795535,0.2104095,0.1953941
0.9794308,0.2113571,0.1937575
0.9793279,0.2097971,0.1939536
0.9788287,0.2085465,0.1928517
0.97936,0.2103568,0.1914544
0.979374,0.2075728,0.1919488
0.9802688,0.2051702,0.1926484
0.9829212,0.2068864,0.1857645
0.9846726,0.2080654,0.1794005
0.9838617,0.2098944,0.183956
0.9820657,0.2108786,0.1912154
0.9813473,0.2113004,0.1952129
0.9812323,0.2123571,0.1948669
0.9803534,0.2121972,0.1911651
0.9802711,0.2117052,0.1883986
0.980914,0.2098615,0.1889169
0.9803975,0.2091316,0.193202
0.9804746,0.2100135,0.1937025
0.9811232,0.2086234,0.1874496
0.9817863,0.2083777,0.1849483
0.9823643,0.2102139,0.1872333
0.9811493,0.2112533,0.188311
0.9816478,0.2096452,0.1893136
0.983703,0.2070528,0.1905456
0.9831791,0.2076979,0.1902974
0.9832532,0.2082655,0.1881835
0.9838239,0.2088257,0.186862
0.9838595,0.2107849,0.1885519
0.9852146,0.2102551,0.1925651
0.9844956,0.2102973,0.1978518
0.9830412,0.211513,0.1968527
0.9841124,0.2133838,0.1897491
0.9847551,0.216589,0.1877225
0.9831134,0.2154975,0.1891154
0.9806981,0.213254,0.1888645
0.9807907,0.2107209,0.1875844
0.9824283,0.2054285,0.1856737
0.9836208,0.2078026,0.1872657
0.9840675,0.2122169,0.1938819
0.9839667,0.2097656,0.1979596
0.9869106,0.2109087,0.1947002
0.9883677,0.2122157,0.193075
0.9854673,0.2099177,0.1952987
0.983842,0.2107777,0.1931625
0.9838462,0.2104267,0.1914252
0.9865219,0.2101435,0.1912882
0.9869215,0.2121149,0.1876369
0.9827388,0.2125211,0.1858392
0.9812409,0.2138253,0.1893121
0.9793148,0.2139118,0.1960529
0.9786636,0.2126911,0.1985722
0.9820841,0.2126197,0.1946868
0.9835791,0.2113636,0.1928164
0.9837541,0.2092097,0.193488
0.9823214,0.2059524,0.1957486
0.9820032,0.2066401,0.1982052
0.9838727,0.2109349,0.1972901
0.9837504,0.2112183,0.1967997
0.9849809,0.2109171,0.1969428
0.9837657,0.2095936,0.1943731
0.9800397,0.2078594,0.1908593
0.9810622,0.2085663,0.1893639
0.9812033,0.2065812,0.1892616
0.9788555,0.2067951,0.1904118
0.9789797,0.2106303,0.1932419
0.9822651,0.2127408,0.1928849
0.9846271,0.2148639,0.1909332
0.9838892,0.2152331,0.1903638
0.9848507,0.2131237,0.1885017
0.9849626,0.2098352,0.1898531
0.9832988,0.2070136,0.1916888
0.9834236,0.2068139,0.1893781
0.9832964,0.2064659,0.1908967
0.9843251,0.2052386,0.1945974
0.9849491,0.2046425,0.1961334
0.9836382,0.2081424,0.1971917
0.9831611,0.2131454,0.1977907
0.9831477,0.2108127,0.2000653
0.983399,0.2072057,0.1968845
0.9823846,0.2078142,0.18926
0.981499,0.2099597,0.1897813
0.9826582,0.2136702,0.1906379
0.9845926,0.2121285,0.1878739
0.9865569,0.2087246,0.1873853
0.9846889,0.2113107,0.1878092
0.9820831,0.2123826,0.1914238
0.9835367,0.2119765,0.1943884
0.9841245,0.2112605,0.1937626
0.9846282,0.2086379,0.1928102
0.985638,0.2095381,0.1893781
0.9801307,0.2094337,0.1862843
0.974389,0.2074232,0.1870016
0.9787213,0.2084029,0.1873923
0.9828324,0.2076318,0.1861901
0.9798801,0.2065292,0.1900346
0.9805014,0.208164,0.1971164
0.98417,0.209584,0.1981575
0.9847584,0.2100082,0.1961849
0.9840285,0.209639,0.193416
0.982071,0.2096506,0.1891689
0.9821182,0.2096601,0.1870455
0.9830949,0.2085588,0.1865142
0.9805615,0.2072125,0.1892853
0.9801559,0.2065606,0.1926401
0.9820745,0.2072013,0.1887774
0.9827307,0.2079793,0.1830187
0.9826724,0.2086027,0.182798
0.9807309,0.20944,0.1844305
0.9799818,0.2097823,0.1867105
0.9817918,0.2096888,0.189891
0.9849611,0.208209,0.1884245
0.9882358,0.2053074,0.1866522
0.9851183,0.2037608,0.1897617
0.9796054,0.2062418,0.1908395
0.9802349,0.2105442,0.1891419
0.9815294,0.2109752,0.1892806
0.9822144,0.2086856,0.1924348
0.9858581,0.2068712,0.1957362
0.9864241,0.2059118,0.195083
0.9829747,0.2095994,0.1943236
0.9813634,0.2144174,0.1927614
0.9826378,0.2128387,0.1865908
0.9840943,0.2112907,0.1866863
0.9830436,0.2133144,0.193724
0.9820646,0.2126745,0.1945559
0.9821405,0.2124779,0.190602
0.9815683,0.2130148,0.1869433
0.9821325,0.2103242,0.1864931
0.9824311,0.2106282,0.1898775
0.9833988,0.2118094,0.1937106
0.9854154,0.2094455,0.2004979
0.9838852,0.2086519,0.2017789
0.9825869,0.2082347,0.1955067
0.9834645,0.2082043,0.1935381
0.982482,0.20983,0.1901572
0.9815128,0.2106229,0.1887311
0.9817779,0.2116725,0.1922242
0.9812236,0.2121041,0.1913526
0.9801621,0.2127546,0.1925956
0.9807896,0.2147457,0.1905975
0.9826638,0.2147514,0.1862823
0.9836526,0.2119471,0.1944775
0.9832137,0.2086456,0.2014214
0.9810862,0.2100501,0.19794
0.9791408,0.2123684,0.1930244
0.979249,0.2092671,0.1904161
0.9811773,0.2073746,0.190103
0.9835325,0.2077155,0.1904398
0.9840265,0.2098741,0.1923019
0.9848322,0.2132903,0.1936019
0.9867676,0.2083332,0.193541
0.9863408,0.2044517,0.1956829
0.9856311,0.2131139,0.1974467
0.9858431,0.2196169,0.1942767
0.983114,0.2158096,0.1879775
0.979132,0.2099826,0.1900585
0.9852678,0.2030558,0.2067865
1.013471,0.1919474,0.2223391
1.03662,0.1890366,0.2142018
1.004581,0.2042773,0.1891248
0.9568668,0.2181187,0.178422
0.9594652,0.2135619,0.1930201
0.9703336,0.207098,0.2099898
0.9768902,0.2025971,0.2017693
1.007663,0.1838628,0.1859681
1.011636,0.1724599,0.1848841
0.9953834,0.1744898,0.1821005
0.9966821,0.1653916,0.1842716
0.9882548,0.1693443,0.1922827
0.9858436,0.1862579,0.1986666
0.988409,0.1848119,0.2118614
0.9672398,0.1813859,0.218279
0.9542594,0.1809335,0.2268438
1.023748,0.05687171,-0.1092522
1.02277,0.05724905,-0.1158019
1.020951,0.05530635,-0.1273252
1.02187,0.05356068,-0.1316875
1.02058,0.05269173,-0.1252863
1.019271,0.05426266,-0.1227985
1.019839,0.05608242,-0.1251277
1.019139,0.05174981,-0.1298368
1.019713,0.04469127,-0.1346981
1.021659,0.04199689,-0.1313679
1.021927,0.0449214,-0.1269581
1.020738,0.04940744,-0.1280853
1.017654,0.05120041,-0.1229292
1.017448,0.05424066,-0.116245
1.018854,0.05694269,-0.124836
1.017526,0.05538585,-0.1326832
1.018156,0.05610484,-0.1259056
1.018497,0.05700949,-0.1228071
1.018512,0.05312798,-0.125037
1.020118,0.05019993,-0.1193519
1.01898,0.05113754,-0.111035
1.01743,0.05210596,-0.1051995
1.016428,0.05065831,-0.1019221
1.016034,0.04979707,-0.1108004
1.016136,0.0503156,-0.1228737
1.013889,0.0512967,-0.1173435
1.013546,0.05218023,-0.110557
1.015216,0.05107898,-0.1139412
1.015703,0.05280825,-0.1127702
1.01718,0.05725438,-0.1153314
1.018677,0.0589113,-0.1205084
1.019126,0.05864514,-0.115896
1.018921,0.05704725,-0.1104799
1.016902,0.05739666,-0.1055943
1.014436,0.05830881,-0.1055183
1.015012,0.05704367,-0.1099555
1.017126,0.05768645,-0.1076697
1.017999,0.05638531,-0.1083042
1.020925,0.05269943,-0.111172
1.02308,0.05088304,-0.1107554
1.019665,0.0512823,-0.1128155
1.015911,0.05512575,-0.1125915
1.014619,0.05859131,-0.1131519
1.015151,0.06141613,-0.1145736
1.016291,0.063551,-0.1124225
1.017783,0.06084898,-0.1137057
1.021196,0.055104,-0.1187399
1.021639,0.04972075,-0.1234659
1.019487,0.05154006,-0.1195609
1.018472,0.05662744,-0.109463
1.016009,0.05535297,-0.1061062
1.016137,0.05520396,-0.1063865
1.018537,0.05624228,-0.1123009
1.017857,0.05488919,-0.1198022
1.01853,0.05518095,-0.1172728
1.021053,0.05189347,-0.1178805
1.022636,0.0476134,-0.1228517
1.022467,0.04892611,-0.1204599
1.019773,0.05185992,-0.1170206
1.019023,0.05453791,-0.112991
1.019641,0.05591939,-0.1062033
1.019266,0.05720933,-0.1020634
1.019652,0.05909304,-0.09884484
1.019315,0.05825081,-0.1011731
1.019398,0.05699658,-0.1086354
1.019662,0.0573502,-0.1059564
1.019337,0.05858166,-0.1036874
1.020557,0.05996561,-0.1093277
1.02051,0.05823248,-0.1066269
1.01815,0.05566753,-0.09981675
1.016216,0.05613071,-0.09663653
1.018008,0.05578882,-0.1054672
1.020802,0.05564109,-0.117988
1.019572,0.05956139,-0.1045123
1.020694,0.06219761,-0.09287895
1.023451,0.06086517,-0.1050887
1.022017,0.05852374,-0.1058107
1.021847,0.05616462,-0.09246105
1.022665,0.05497824,-0.08425868
1.02126,0.05582241,-0.08683549
1.018675,0.05771397,-0.09306841
1.01568,0.05865618,-0.09294409
1.016466,0.05900441,-0.09646008
1.019373,0.06087528,-0.1035568
1.019553,0.0632435,-0.1078683
1.019653,0.06249431,-0.1085186
1.020423,0.05903421,-0.1032918
1.020873,0.0578195,-0.103763
1.020995,0.05758476,-0.1049957
1.019649,0.05481165,-0.1009904
1.019346,0.05238969,-0.1019446
1.020496,0.05476361,-0.1020051
1.02116,0.05838282,-0.1034496
1.021942,0.05516094,-0.1073532
1.022246,0.0525507,-0.1085474
1.021653,0.05522037,-0.1112915
1.018632,0.05499607,-0.1099886
1.015751,0.05629721,-0.1065507
1.018457,0.06068836,-0.1040541
1.021558,0.06267601,-0.1052786
1.020528,0.06048504,-0.1109791
1.018754,0.05548562,-0.1087098
1.018269,0.05581377,-0.1105563
1.020479,0.05746519,-0.1167548
1.023351,0.05704671,-0.1131018
1.021957,0.05858019,-0.1142023
1.018731,0.05478004,-0.1193451
1.017606,0.05133043,-0.1190616
1.016842,0.0551565,-0.1096579
1.01662,0.05730092,-0.09542998
1.01673,0.05670883,-0.09871037
1.016639,0.05502934,-0.1113233
1.017628,0.05393521,-0.115108
1.016608,0.05593879,-0.1139084
1.012826,0.05784282,-0.1099498
1.010503,0.05765084,-0.1099819
1.013924,0.05630909,-0.1118819
1.01972,0.05542443,-0.1119456
1.020023,0.05521547,-0.1152066
1.019028,0.05572327,-0.1141169
1.019694,0.05612592,-0.1123627
1.01926,0.05693951,-0.1133033
1.019563,0.05917191,-0.110309
1.019441,0.05818356,-0.1125524
1.019315,0.05586869,-0.1155095
1.019661,0.05523174,-0.1136367
1.01923,0.05333996,-0.1175372
1.019036,0.05233586,-0.1245081
1.016767,0.05178741,-0.1298976
1.014877,0.05112523,-0.1281728
1.017811,0.05150786,-0.1187594
1.020729,0.05128226,-0.1158481
1.019544,0.05236696,-0.119305
1.018703,0.05639916,-0.1203755
1.019482,0.06224279,-0.1215314
1.0167,0.06370929,-0.124054
1.015001,0.05961804,-0.1264256
1.019897,0.05808759,-0.1303125
1.023885,0.05751004,-0.1312264
1.022142,0.0565506,-0.1275558
1.019286,0.0580845,-0.1223015
1.018562,0.05861562,-0.1142276
1.017735,0.05829784,-0.1164537
1.017049,0.05830775,-0.129333
1.015062,0.05827421,-0.1353709
1.010993,0.05812037,-0.1366307
1.012265,0.05640423,-0.1308543
1.014392,0.0550671,-0.1239088
1.012734,0.05593317,-0.1252013
1.014505,0.05869431,-0.1216585
1.017292,0.06119837,-0.1207178
1.019576,0.06045459,-0.1243951
1.021741,0.05828161,-0.1230014
1.020454,0.05756035,-0.1242806
1.01855,0.05665465,-0.1194727
1.016684,0.05373557,-0.1112017
1.015208,0.05172845,-0.114235
1.015304,0.05137034,-0.1184944
1.015537,0.05156075,-0.1215498
1.017297,0.05450795,-0.1252088
1.019717,0.05733902,-0.1230059
1.020891,0.05686466,-0.1198283
1.021806,0.05497635,-0.121459
1.021994,0.05390655,-0.125035
1.019632,0.05609138,-0.1263376
1.01663,0.05870669,-0.124573
1.015754,0.05855183,-0.1225881
1.013592,0.05811646,-0.1197275
1.012344,0.05838014,-0.1181203
1.018125,0.05787593,-0.1212412
1.022913,0.055557,-0.121349
1.020886,0.05356404,-0.1190689
1.019569,0.05549262,-0.1171461
1.019673,0.06011859,-0.1121738
1.017327,0.06297672,-0.1135313
1.016198,0.0622957,-0.117281
1.015437,0.05952515,-0.1158648
1.013031,0.05751686,-0.1158828
1.015126,0.05836685,-0.113107
1.019048,0.06005629,-0.1103952
1.01965,0.06148583,-0.1111865
1.019799,0.06261188,-0.1093851
1.01898,0.06001385,-0.1092876
1.018419,0.05700261,-0.1098448
1.018237,0.05835777,-0.108063
1.017481,0.05894432,-0.1078576
1.018662,0.05744502,-0.1090089
1.018957,0.056693,-0.109889
1.019509,0.05555296,-0.1093334
1.020774,0.05682187,-0.1073674
1.019641,0.05952406,-0.1062437
1.019458,0.0582863,-0.1087906
1.019368,0.05773175,-0.1126207
1.019294,0.05894925,-0.1144205
1.019277,0.057697,-0.1131128
1.01639,0.05645511,-0.106023
1.015167,0.0553161,-0.1031639
1.017742,0.05502296,-0.1149898
1.020579,0.05615847,-0.1258826
1.019988,0.05552168,-0.1180302
1.019883,0.05623327,-0.1089965
1.02449,0.05763745,-0.1146729
1.025168,0.05722654,-0.1126167
1.021049,0.05955461,-0.1052138
1.018489,0.06230941,-0.1076124
1.01889,0.06158977,-0.1052812
1.0204,0.05977973,-0.1045006
1.018656,0.05877606,-0.1089162
1.017357,0.0595606,-0.110649
1.016838,0.05975109,-0.1148322
1.015786,0.05677913,-0.1111476
1.017731,0.05493225,-0.1054929
1.018405,0.05754135,-0.1090054
1.01945,0.0601607,-0.1076239
1.019866,0.06007686,-0.1043266
1.015801,0.06038002,-0.105948
1.014978,0.06147946,-0.1079948
1.016732,0.06072479,-0.1109223
1.019533,0.05812691,-0.1131691
1.021936,0.05665416,-0.112972
1.019067,0.05880544,-0.1119598
1.016234,0.06233051,-0.1123519
1.015312,0.06223347,-0.1118331
1.017489,0.06042563,-0.1094719
1.021534,0.06093466,-0.1093953
1.022203,0.05998302,-0.108499
1.024643,0.0564891,-0.1051543
1.026102,0.05583294,-0.1059546
1.02327,0.06098737,-0.1166016
1.023387,0.06685957,-0.1288496
1.023794,0.06558245,-0.1256583
1.022376,0.0622667,-0.1162636
1.022168,0.06193587,-0.1131778
1.02207,0.05878157,-0.1106608
1.022323,0.05573932,-0.112661
1.022303,0.05704783,-0.1101741
1.022015,0.05830028,-0.1000459
1.02242,0.0583741,-0.1008992
1.021606,0.05835774,-0.1061805
1.019479,0.05832479,-0.112638
1.01686,0.05868004,-0.1180007
1.014885,0.0601114,-0.1163388
1.014158,0.06134363,-0.1213041
1.015039,0.05947968,-0.1183867
1.017812,0.05740819,-0.1097522
1.018115,0.05797821,-0.1164938
1.018264,0.05698969,-0.1182392
1.020541,0.05464822,-0.116078
1.019058,0.05522296,-0.1150947
1.017673,0.05526535,-0.1086682
1.016752,0.0534339,-0.1111812
1.014256,0.05431844,-0.1142484
1.016654,0.05531999,-0.1123599
1.019291,0.05467597,-0.1142755
1.019228,0.05456616,-0.1160902
1.019005,0.05341718,-0.1199279
1.017378,0.05364315,-0.1226555
1.018002,0.05707805,-0.1229683
1.01855,0.05886081,-0.1257999
1.017532,0.05805947,-0.1259034
1.018346,0.05824442,-0.1250534
1.017705,0.05885252,-0.1251924
1.016051,0.05872611,-0.1242156
1.015018,0.05919583,-0.1278447
1.01484,0.05797806,-0.1307886
1.015785,0.05520903,-0.1300854
1.015653,0.0520229,-0.1334211
1.017741,0.04923582,-0.1300259
1.020648,0.05331941,-0.1205058
1.01945,0.05771263,-0.1182388
1.018747,0.05493195,-0.1173358
1.018613,0.0540568,-0.1199099
1.015352,0.05465227,-0.1220142
1.011827,0.0538128,-0.1168425
1.011176,0.05529529,-0.1163284
1.01475,0.05629262,-0.1177918
1.019386,0.05716007,-0.1215318
1.02034,0.05894193,-0.1266542
1.020398,0.05852096,-0.1238719
1.020225,0.05792615,-0.1227763
1.017042,0.05819898,-0.1208255
1.01585,0.05658269,-0.1161518
1.017124,0.05501654,-0.1180333
1.016554,0.05656711,-0.1185472
1.016938,0.05847929,-0.115079
1.018627,0.05844799,-0.1121667
1.019799,0.05826143,-0.1112273
1.019812,0.05836394,-0.1155588
1.018773,0.05848793,-0.1208269
1.018561,0.05907219,-0.1192908
1.017066,0.05908782,-0.1147795
1.016102,0.0576284,-0.1140086
1.018161,0.0553567,-0.116144
1.019196,0.05399381,-0.1186951
1.019777,0.0555857,-0.1158689
1.020529,0.05777739,-0.1118916
1.020065,0.05616514,-0.1135177
1.017596,0.05462168,-0.109971
1.014842,0.0554525,-0.1075733
1.019276,0.05297603,-0.1213465
1.024139,0.05037599,-0.132562
1.019373,0.05268546,-0.1191504
1.016387,0.05580729,-0.09862543
1.019609,0.05855397,-0.09793471
1.01999,0.0606009,-0.1087148
1.019004,0.05967852,-0.1145962
1.019071,0.05866495,-0.1116963
1.016806,0.05981619,-0.1062804
1.014517,0.06016204,-0.109923
1.016312,0.05936681,-0.1122209
1.019661,0.05940865,-0.1116881
1.021744,0.05811817,-0.1163004
1.023409,0.05617754,-0.1172068
1.022835,0.05721033,-0.1190104
1.019646,0.05880318,-0.1171181
1.01796,0.0587054,-0.1092304
1.018104,0.05915774,-0.1109496
1.018936,0.06090962,-0.1115353
1.019849,0.06181563,-0.1074051
1.019428,0.06175983,-0.1070164
1.019267,0.062338,-0.1076033
1.019619,0.06105556,-0.1110736
1.019004,0.05875512,-0.1128914
1.017653,0.06005365,-0.1134808
1.016173,0.06202191,-0.1160647
1.016572,0.06222443,-0.1154699
1.018019,0.06091918,-0.1154473
1.018104,0.05815089,-0.1177736
1.017724,0.05924503,-0.1168482
1.016304,0.06328087,-0.1080723
1.015151,0.06394591,-0.09915955
1.017868,0.06132063,-0.1012845
1.020626,0.05807155,-0.1031108
1.019519,0.05678665,-0.1018053
1.019019,0.05557622,-0.1121201
1.020772,0.05461532,-0.126734
1.020905,0.05643785,-0.1295499
1.019777,0.05649576,-0.1214256
1.019279,0.05660234,-0.1124243
1.019091,0.05864573,-0.1097555
1.018411,0.06099274,-0.112173
1.015955,0.06618379,-0.1142896
1.014477,0.06564014,-0.1139181
1.015135,0.05908093,-0.1136478
1.013649,0.05684446,-0.1141727
1.012797,0.05631911,-0.11426
1.01779,0.05713252,-0.1165363
1.022845,0.05724947,-0.1190641
1.020894,0.05528427,-0.1181428
1.01775,0.05583371,-0.1174106
1.018153,0.05538691,-0.1174531
1.017008,0.05573064,-0.1164023
1.016169,0.05747429,-0.1163925
1.017054,0.05619636,-0.1163048
1.016424,0.05375859,-0.114215
1.016546,0.051983,-0.1152592
1.015912,0.05483147,-0.1189661
1.014733,0.05808529,-0.1184111
1.01599,0.05851247,-0.1198024
1.017989,0.06153518,-0.1230968
1.019989,0.06253873,-0.1212661
1.01898,0.06235505,-0.1272208
1.017047,0.06372934,-0.1357122
1.018541,0.06252551,-0.1313793
1.019027,0.06045591,-0.1296378
1.018569,0.05797934,-0.1317884
1.019096,0.0569374,-0.1298528
1.019318,0.05722449,-0.1316444
1.01976,0.05651146,-0.1317016
1.019352,0.05736756,-0.1266149
1.019242,0.05792121,-0.1221662
1.019765,0.0577484,-0.1220631
1.01904,0.0561253,-0.1289423
1.017858,0.05308562,-0.134903
1.01437,0.05522142,-0.1346791
1.011069,0.05897482,-0.1296698
1.012464,0.06046427,-0.1236702
1.013529,0.06083532,-0.1217941
1.014119,0.05737611,-0.1214808
1.017891,0.05547631,-0.1247147
1.019916,0.05603653,-0.1297933
1.019236,0.05400995,-0.1280558
1.018616,0.055732,-0.1260424
1.015056,0.06350611,-0.1261469
1.011328,0.07032003,-0.1235743
1.013908,0.0683775,-0.1246905
1.016794,0.06003249,-0.1271827
1.014942,0.05620961,-0.1258116
1.014766,0.05486328,-0.1271817
1.016478,0.05500873,-0.1304065
1.017608,0.0567257,-0.1323807
1.020016,0.05472448,-0.1328546
1.019205,0.05536628,-0.13013
1.016799,0.05540748,-0.1276019
1.018458,0.05343292,-0.1240948
1.018584,0.05746888,-0.1226869
1.018311,0.05919557,-0.1249842
1.020224,0.05851608,-0.1229279
1.019381,0.06015587,-0.1239066
1.019083,0.06104728,-0.128298
1.019698,0.05994336,-0.1286318
1.018268,0.05743049,-0.1256512
1.017853,0.06010412,-0.1146148
1.01769,0.06229943,-0.1091951
1.016299,0.05951391,-0.1187951
1.014799,0.05975017,-0.1249693
1.014562,0.06087243,-0.120855
1.014042,0.06236794,-0.1154105
1.011878,0.06379122,-0.1149117
1.013577,0.0627062,-0.1143866
1.017972,0.061593,-0.1132811
1.020225,0.06054546,-0.1144494
1.021206,0.06117918,-0.113499
1.018679,0.06127196,-0.1135807
1.015063,0.05976678,-0.1124439
1.014142,0.05976232,-0.1105122
1.013571,0.05954948,-0.1141499
1.014268,0.05995531,-0.1156641
1.016782,0.06041926,-0.1124778
1.021404,0.05966557,-0.1090633
1.024843,0.05993904,-0.1102334
1.021009,0.06184042,-0.1159502
1.017341,0.06534824,-0.1191099
1.017914,0.06683092,-0.1184232
1.015675,0.06421015,-0.1144622
1.01419,0.06158867,-0.1103642
1.016799,0.06297959,-0.1097733
1.019782,0.06511432,-0.1189109
1.022802,0.06325717,-0.1293686
1.021416,0.06246672,-0.1174063
1.017994,0.06170149,-0.1054177
1.021475,0.05831859,-0.1150435
1.023271,0.05866792,-0.117582
1.019417,0.06107899,-0.1108624
1.018188,0.06315479,-0.1085382
1.017817,0.0631572,-0.1042922
1.017946,0.06150613,-0.1041434
1.018089,0.06372965,-0.1117012
1.015853,0.06625228,-0.1173725
1.014957,0.06833893,-0.1158738
1.014931,0.06826192,-0.1069501
1.014724,0.06427742,-0.1010907
1.014986,0.0624959,-0.1078212
1.017076,0.05941587,-0.1151316
1.020131,0.05995341,-0.1124503
1.019142,0.06482788,-0.1093372
1.017283,0.06201748,-0.1075176
1.016923,0.06190976,-0.1024427
1.017901,0.06565205,-0.1036668
1.020538,0.06450069,-0.1078868
1.019538,0.06393096,-0.1079345
1.018714,0.06195417,-0.1124437
1.019971,0.06124054,-0.1150964
1.018231,0.06096206,-0.1115228
1.018042,0.05782325,-0.1107861
1.02026,0.06343972,-0.1120588
1.022105,0.06924579,-0.1141447
1.022491,0.06504802,-0.1151343
1.02004,0.06239935,-0.1151167
1.018892,0.06332338,-0.1161262
1.019513,0.06584885,-0.1166322
1.018984,0.06889351,-0.1167338
1.016786,0.06658155,-0.1087069
1.015407,0.06217132,-0.1003361
1.02043,0.06030054,-0.1093632
1.025684,0.05775635,-0.1175328
1.022588,0.05751983,-0.1097448
1.018953,0.06037476,-0.1059445
1.019621,0.05979154,-0.1114011
1.019248,0.06062557,-0.1111599
1.01761,0.0643328,-0.1068412
1.014565,0.06663999,-0.1048979
1.011392,0.06913715,-0.1049429
1.0141,0.06874766,-0.1068946
1.016749,0.06992031,-0.1080193
1.01492,0.07273804,-0.1097402
1.016487,0.06666495,-0.1086254
1.020103,0.06061348,-0.1030696
1.021194,0.06265029,-0.1022448
1.020205,0.06547007,-0.1023456
1.018702,0.06679027,-0.1021908
1.019533,0.06691549,-0.1043326
1.019815,0.06495446,-0.1048393
1.019,0.06447971,-0.107839
1.019696,0.06608142,-0.1087931
1.019456,0.06493044,-0.1063399
1.019069,0.06394024,-0.1047754
1.018616,0.06446091,-0.09987162
1.016718,0.06419719,-0.1011944
1.016329,0.06619191,-0.10773
1.0172,0.06700771,-0.1081687
1.018423,0.06609225,-0.1070965
1.019975,0.06522377,-0.105843
1.019662,0.06260657,-0.1102226
1.018682,0.06242255,-0.1171665
1.017858,0.06221089,-0.1147034
1.016545,0.06038037,-0.113176
1.018398,0.05969264,-0.1141625
1.022359,0.05927788,-0.111621
1.022019,0.06128507,-0.1089324
1.01811,0.06235431,-0.1078138
1.014834,0.06231978,-0.1141913
1.014551,0.06289162,-0.118967
1.016141,0.06036756,-0.1150586
1.016942,0.05740829,-0.1157697
1.021041,0.05482297,-0.1210726
1.025235,0.05659257,-0.1228778
1.021635,0.06309045,-0.113713
1.018126,0.06554525,-0.1038274
1.018142,0.06523679,-0.1146599
1.016893,0.06242733,-0.1255029
1.016306,0.06023743,-0.1200051
1.013534,0.0641426,-0.1201558
1.010467,0.06903553,-0.1260389
1.016281,0.07179854,-0.1257909
1.022131,0.06904548,-0.1214785
1.018367,0.06468581,-0.1150726
1.013882,0.06527603,-0.1155671
1.012336,0.06535869,-0.1216414
1.01323,0.06510853,-0.1187543
1.018502,0.06536026,-0.1126625
1.020654,0.06358028,-0.1125575
1.018858,0.06110781,-0.1212367
1.017829,0.05842437,-0.1367055
1.01428,0.05769662,-0.1402812
1.011253,0.05711996,-0.1363611
1.012354,0.05619652,-0.1400251
1.013456,0.0576357,-0.1398046
1.013992,0.05788158,-0.1368746
1.015662,0.05780495,-0.1367396
1.015691,0.05715541,-0.1343479
1.013864,0.05558757,-0.1338781
1.015269,0.06078064,-0.1334669
1.018429,0.06641479,-0.131325
1.020027,0.06460515,-0.1286159
1.019903,0.06365717,-0.1219756
1.018211,0.06447907,-0.1157554
1.017037,0.06418688,-0.1149021
1.014925,0.0674179,-0.1179803
1.015263,0.07035974,-0.1190653
1.017907,0.06682831,-0.1178821
1.015369,0.06323639,-0.1182525
1.014513,0.06279905,-0.1187209
1.016196,0.06100391,-0.118543
1.016047,0.06186491,-0.1111741
1.018883,0.06715026,-0.09931943
1.020234,0.06909626,-0.0980994
1.018949,0.06787371,-0.1071775
1.018599,0.06788077,-0.1141893
1.017408,0.06816063,-0.1117473
1.016216,0.06774252,-0.1111397
1.014903,0.06618547,-0.1158126
1.01492,0.06474532,-0.1143488
1.015961,0.0647887,-0.1155688
1.016448,0.06378381,-0.1194173
1.01957,0.06183918,-0.1147682
1.021802,0.06237452,-0.1106276
1.019827,0.06450286,-0.1100766
1.018772,0.06654832,-0.1061532
1.01951,0.06904244,-0.1002112
1.018326,0.06941553,-0.09765867
1.01575,0.06939556,-0.09591882
1.014784,0.07271972,-0.08936094
1.015269,0.07431944,-0.08465721
1.015481,0.07372866,-0.08357006
1.015528,0.07408821,-0.08281712
1.017183,0.07338384,-0.08854133
1.019639,0.07180355,-0.0962484
1.019818,0.07079642,-0.1001487
1.019151,0.07099673,-0.1022866
1.019519,0.07098183,-0.1014138
1.019511,0.07146528,-0.1006888
1.01935,0.07235893,-0.09711872
1.0195,0.06937528,-0.0920215
1.019085,0.06701658,-0.09271514
1.01763,0.06811541,-0.09056773
1.016864,0.06815697,-0.08722254
1.020193,0.06704214,-0.08776152
1.024614,0.06663324,-0.0867552
1.023593,0.06853202,-0.08464382
1.020102,0.07048409,-0.07808926
1.019072,0.07123348,-0.07283386
1.019011,0.07253615,-0.07812001
1.018808,0.07236159,-0.0855764
1.017857,0.07099363,-0.08812416
1.017804,0.07115807,-0.08438582
1.019829,0.07355575,-0.0799377
1.021292,0.07567982,-0.08191441
1.022699,0.07419423,-0.08248352
1.022622,0.07187057,-0.07833888
1.021183,0.07157559,-0.07771375
1.02085,0.06978572,-0.08054469
1.018942,0.06754267,-0.08186153
1.01903,0.0708878,-0.07706255
1.02139,0.07548879,-0.06832841
1.022023,0.07540293,-0.06781155
1.02525,0.07429759,-0.07504837
1.02716,0.07332122,-0.08013625
1.024144,0.07172278,-0.0810759
1.022204,0.07192808,-0.0814136
1.022439,0.0717885,-0.08203345
1.022169,0.06756181,-0.07684642
1.018973,0.06432402,-0.0707115
1.015857,0.06769666,-0.06941227
1.016034,0.0710836,-0.06953879
1.019459,0.0691277,-0.07841025
1.024833,0.06782864,-0.08763694
1.023987,0.06919835,-0.0795757
1.019554,0.07129977,-0.06975611
1.019218,0.07466022,-0.07228238
1.017953,0.07385765,-0.07428292
1.015996,0.06968523,-0.0727609
1.015553,0.06927197,-0.07473974
1.017586,0.06950427,-0.07881345
1.022015,0.07042495,-0.09053382
1.021889,0.07241558,-0.09960394
1.020802,0.07246773,-0.08382729
1.021168,0.07416817,-0.06516672
1.019318,0.07554501,-0.06726984
1.019057,0.07407774,-0.07454227
1.017795,0.07049833,-0.07943305
1.015809,0.06710888,-0.08469319
1.017196,0.07075258,-0.08409203
1.018592,0.07541264,-0.08164773
1.019829,0.07311515,-0.08251285
1.019766,0.06934755,-0.08097372
1.018944,0.0676232,-0.08205573
1.019918,0.0661983,-0.0868093
1.020334,0.06509433,-0.08645195
1.021099,0.06686865,-0.08171787
1.022059,0.06921143,-0.07602093
1.02213,0.0687209,-0.07857066
1.02248,0.06839679,-0.08422097
1.021741,0.06828013,-0.08055812
1.019977,0.06761886,-0.0788056
1.017343,0.06878248,-0.07813093
1.015881,0.07070598,-0.07647608
1.018375,0.0718314,-0.08028241
1.021283,0.07113693,-0.08168758
1.022355,0.07057306,-0.08547397
1.020848,0.07390563,-0.09005014
1.018498,0.07587486,-0.08850849
1.020334,0.07367438,-0.09056111
1.021212,0.07213924,-0.09132035
1.017627,0.07074655,-0.09157403
1.016265,0.06914358,-0.09967645
1.018717,0.06900378,-0.1032286
1.022098,0.06900101,-0.09419378
1.022902,0.06642142,-0.08517537
1.021451,0.06452142,-0.08944126
1.02035,0.06921494,-0.09388392
1.017756,0.0725047,-0.08984985
1.015594,0.07004972,-0.090034
1.016296,0.06824748,-0.0892356
1.020302,0.06517861,-0.08745619
1.025338,0.06355934,-0.08945887
1.023394,0.06850085,-0.08492516
1.020245,0.07225296,-0.08243996
1.021979,0.06921436,-0.08780059
1.019758,0.06707504,-0.09173745
1.017358,0.07119785,-0.09297765
1.018626,0.07345415,-0.09282451
1.017741,0.07185769,-0.09456264
1.018146,0.07207878,-0.09344937
1.01935,0.07243522,-0.09002021
1.019065,0.07122925,-0.09228037
1.018972,0.06776134,-0.09301382
1.017713,0.06356873,-0.09329697
1.01874,0.06297606,-0.09804681
1.01993,0.06294774,-0.1028046
1.017262,0.06181515,-0.1050159
1.016113,0.06359689,-0.100487
1.016674,0.06730378,-0.0968526
1.016817,0.07028075,-0.1001701
1.016669,0.07032189,-0.1022725
1.017017,0.0684136,-0.104809
1.019933,0.06983951,-0.1078806
1.023316,0.07074814,-0.1054382
1.024429,0.06918494,-0.1028361
1.023205,0.06894189,-0.1038586
1.022033,0.06745961,-0.1020035
1.02029,0.06816046,-0.09857417
1.016705,0.07061608,-0.09871255
1.016104,0.06992093,-0.09448857
1.017378,0.06780097,-0.0877057
1.018292,0.0639481,-0.08958588
1.020062,0.06507308,-0.09100238
1.019462,0.06944999,-0.08773294
1.018089,0.06905464,-0.08969479
1.018099,0.06898269,-0.09107005
1.018065,0.06831036,-0.08774692
1.019406,0.07007489,-0.08780939
1.021726,0.07384955,-0.09116062
1.02363,0.07062824,-0.09338515
1.024028,0.06855176,-0.0897259
1.023331,0.0699812,-0.08337717
1.023463,0.0708015,-0.0834107
1.02285,0.07139949,-0.08388293
1.021427,0.06936136,-0.08292108
1.020435,0.06915765,-0.08652076
1.019091,0.07019298,-0.09106901
1.019072,0.07081877,-0.09342845
1.019904,0.07307466,-0.0886229
1.019463,0.07234538,-0.08086815
1.020184,0.07166113,-0.08204537
1.021564,0.07272425,-0.08665344
1.021625,0.07199413,-0.08987831
1.021614,0.07254484,-0.09055
1.018968,0.07418965,-0.08468257
1.01577,0.0749849,-0.07914421
1.019048,0.07357198,-0.0785329
1.022576,0.07102656,-0.08078816
1.020548,0.07129636,-0.08423786
1.020036,0.07113053,-0.08714934
1.020643,0.07020677,-0.08925135
1.01885,0.07087037,-0.08863748
1.019227,0.06907731,-0.08679636
1.02,0.06718742,-0.08555462
1.019003,0.06891809,-0.08422833
1.01957,0.07183977,-0.08503414
1.019604,0.07430105,-0.08691962
1.019333,0.07324779,-0.08908897
1.020592,0.07129339,-0.08898009
1.021169,0.07374273,-0.08056245
1.021794,0.07606599,-0.07245843
1.022432,0.07629305,-0.07853916
1.021193,0.0758641,-0.0895492
1.016814,0.07420946,-0.09065826
1.013099,0.0733023,-0.09145936
1.017805,0.07024782,-0.09901069
1.022684,0.06640092,-0.1045319
1.016963,0.06891258,-0.1026421
1.012112,0.07336586,-0.09396424
1.01446,0.07562396,-0.09051616
1.015172,0.07613702,-0.09543785
1.014977,0.07593773,-0.0984899
1.015778,0.07774901,-0.09778629
1.015327,0.07493581,-0.09572622
1.01703,0.07001144,-0.09592652
1.019062,0.07244338,-0.09475327
1.018832,0.07296146,-0.0952993
1.01951,0.07032355,-0.1009471
1.01974,0.07126123,-0.1007116
1.019531,0.07165512,-0.1020599
1.020958,0.07214414,-0.105458
1.021045,0.07177779,-0.1013804
1.018834,0.07001084,-0.09801297
1.017977,0.07084166,-0.09701988
1.018413,0.07002747,-0.1000707
1.017958,0.06752215,-0.1052254
1.018885,0.06654759,-0.1074063
1.019149,0.06650965,-0.1108542
1.014745,0.0689646,-0.1119261
1.011443,0.07173964,-0.1103507
1.014112,0.07428792,-0.1086418
1.017383,0.07701288,-0.1042887
1.016066,0.07628641,-0.1016418
1.015686,0.07508626,-0.1044797
1.019345,0.07481148,-0.1096158
1.021141,0.07285248,-0.1126069
1.021775,0.07133994,-0.1141117
1.022249,0.06943714,-0.1148393
1.020316,0.06733783,-0.1121057
1.018353,0.06784766,-0.1090969
1.016236,0.06844204,-0.1132375
1.013036,0.06810092,-0.1202387
1.012573,0.06954556,-0.120232
1.018276,0.07346199,-0.1195955
1.023786,0.07613421,-0.1205888
1.022742,0.0751396,-0.1152905
1.022287,0.07442446,-0.1113845
1.023831,0.07532499,-0.1157483
1.020503,0.07400738,-0.1192062
1.014771,0.06935247,-0.1136112
1.010904,0.06544927,-0.1085736
1.009077,0.06865087,-0.111658
1.010847,0.07873926,-0.110936
1.015063,0.08650764,-0.1056978
1.017846,0.08751669,-0.1041056
1.01964,0.08700791,-0.1070932
1.02053,0.08659489,-0.1116354
1.019702,0.08066653,-0.1090797
1.018,0.07188954,-0.1039335
1.014837,0.07069225,-0.1025564
1.013267,0.07325097,-0.1018837
1.015008,0.07188296,-0.1029085
1.016648,0.07098914,-0.100297
1.01696,0.07150763,-0.09856948
1.016495,0.07316242,-0.1071873
1.01666,0.07570515,-0.1139638
1.016801,0.07352978,-0.1123019
1.016487,0.07070153,-0.1106369
1.01681,0.07163153,-0.1131842
1.01697,0.07096908,-0.1165052
1.018406,0.07036415,-0.1167953
1.020109,0.07241587,-0.1100264
1.019522,0.07330459,-0.1009936
1.019128,0.07372009,-0.1062844
1.019798,0.07353562,-0.1156785
1.020379,0.07144978,-0.119777
1.020962,0.07137252,-0.1269514
1.021227,0.07515918,-0.1169234
1.021518,0.07823419,-0.1016667
1.022147,0.07284584,-0.1114143
1.019993,0.06562375,-0.1181716
1.014918,0.0678884,-0.1151745
1.012796,0.06969387,-0.1184792
1.013948,0.06926019,-0.11621
1.014266,0.07446075,-0.1120245
1.013838,0.07593319,-0.1075925
1.015597,0.07254857,-0.09633899
1.020262,0.07213266,-0.09237182
1.023494,0.07393442,-0.09765071
1.0224,0.07580131,-0.1000594
1.020526,0.07458331,-0.09925288
1.020908,0.0717556,-0.1024747
1.020803,0.07138731,-0.1076078
1.018726,0.07483052,-0.1061707
1.015007,0.07960737,-0.1060855
1.010929,0.07830614,-0.1098883
1.012382,0.07634469,-0.1082759
1.015885,0.07805391,-0.1070374
1.017115,0.07413489,-0.1060816
1.020667,0.07051467,-0.1011774
1.021339,0.07293694,-0.1004678
1.018376,0.07432504,-0.1021083
1.017843,0.07519918,-0.1011649
1.017805,0.07518728,-0.101258
1.01794,0.07367875,-0.1016389
1.016345,0.07371315,-0.1011948
1.014553,0.07444629,-0.1014557
1.016902,0.07531122,-0.1017923
1.0198,0.07516695,-0.1030736
1.02134,0.07430666,-0.1042723
1.020225,0.07379513,-0.1014734
1.018906,0.07308976,-0.09786493
1.021528,0.07376298,-0.09826961
1.022605,0.07427646,-0.09950926
1.020284,0.07457857,-0.1001104
1.019304,0.07561184,-0.1020741
1.022008,0.07366898,-0.1027236
1.024877,0.072219,-0.102221
1.023091,0.07323169,-0.1023159
1.020296,0.07261063,-0.1004817
1.019535,0.07221288,-0.09887891
1.020741,0.07209489,-0.09969064
1.022336,0.07230144,-0.1014901
1.017778,0.0738091,-0.1023506
1.012248,0.07531986,-0.1000227
1.01389,0.07718395,-0.09709271
1.016101,0.07671243,-0.09227227
1.017647,0.0762785,-0.08701071
1.020516,0.0768626,-0.0883802
1.019733,0.07396035,-0.0920876
1.018651,0.07211866,-0.09397984
1.019987,0.06988169,-0.08843204
1.019403,0.06718519,-0.08067577
1.01895,0.07195166,-0.08939721
1.019119,0.07631018,-0.1004293
1.01844,0.07510839,-0.1013842
1.019612,0.0755417,-0.103579
1.019939,0.07622323,-0.1029515
1.018896,0.07285939,-0.1010078
1.019683,0.06963546,-0.1009715
1.019552,0.07203211,-0.09650831
1.019151,0.07601438,-0.09317073
1.019549,0.07674896,-0.0941583
1.018406,0.07651506,-0.09418691
1.017582,0.07605343,-0.08980995
1.017016,0.07542145,-0.08649818
1.015538,0.07497451,-0.0912264
1.015455,0.07395105,-0.09649498
1.01798,0.0717002,-0.09867865
1.020438,0.06872567,-0.1031797
1.019972,0.07072191,-0.1045388
1.020616,0.0748103,-0.09743074
1.023192,0.07278009,-0.09203725
1.02187,0.06955419,-0.09320712
1.01888,0.06760573,-0.08919341
1.018456,0.06680321,-0.08277143
1.021208,0.06724237,-0.08765306
1.024211,0.06591242,-0.09316388
1.019414,0.07171717,-0.08851487
1.013218,0.07977521,-0.08399941
1.015816,0.07626493,-0.08229865
1.018864,0.07353123,-0.08411669
1.019404,0.07428933,-0.08982989
1.020145,0.0717147,-0.08876397
1.019096,0.07521837,-0.09018795
1.02029,0.08175321,-0.09739713
1.021419,0.08226704,-0.09514968
1.01948,0.07958564,-0.09646395
1.019648,0.07501567,-0.1026627
1.021253,0.06991048,-0.09947013
1.022361,0.06595087,-0.0981796
1.020817,0.0645466,-0.09830911
1.018077,0.06752358,-0.0924001
1.018711,0.06984454,-0.08781714
1.018259,0.0696038,-0.08688497
1.01774,0.07053067,-0.08623288
1.020918,0.07267335,-0.08522042
1.023924,0.07635654,-0.0913706
1.025102,0.07972837,-0.1017572
1.020973,0.07911041,-0.1020026
1.013893,0.0760153,-0.0959903
1.011979,0.07407531,-0.09323399
1.012768,0.07419674,-0.09500669
1.013572,0.07476093,-0.09974997
1.015104,0.07604581,-0.1026609
1.016101,0.0778344,-0.1031884
1.01793,0.07798384,-0.1022289
1.020148,0.07674665,-0.1001794
1.019849,0.07300735,-0.0998741
1.01884,0.06714787,-0.1020148
1.019652,0.0642683,-0.105022
1.019142,0.06446788,-0.1070924
1.016357,0.06612365,-0.1084812
1.014751,0.06963208,-0.1069231
1.014925,0.07161505,-0.103547
1.016061,0.07377553,-0.1047138
1.017047,0.07527002,-0.1058119
1.018247,0.06838547,-0.1052936
1.019053,0.0632522,-0.1074505
1.019205,0.06852354,-0.1074517
1.020965,0.07286171,-0.1050434
1.018756,0.07244334,-0.1009887
1.015026,0.07192972,-0.09718471
1.017878,0.07161704,-0.1053219
1.018945,0.06874599,-0.1164077
1.017205,0.06518844,-0.112884
1.017443,0.06553727,-0.1089017
1.016402,0.06576133,-0.1108307
1.016946,0.06540537,-0.1070069
1.019915,0.06995944,-0.1053347
1.022289,0.07655835,-0.1047556
1.022873,0.07836296,-0.1007216
1.021426,0.07323839,-0.1019543
1.020416,0.06880679,-0.100094
1.019218,0.07138467,-0.0967851
1.018883,0.07447469,-0.09878834
1.020226,0.07500548,-0.09506525
1.020156,0.07497459,-0.09284892
1.020676,0.07203211,-0.1004277
1.020483,0.06981091,-0.1059781
1.018441,0.07118072,-0.1005312
1.018289,0.07210949,-0.09218443
1.016745,0.07337491,-0.09310781
1.01628,0.07496589,-0.09690292
1.020696,0.07514429,-0.1004593
1.021859,0.07485948,-0.1048222
1.019863,0.07398555,-0.1034444
1.0193,0.07341116,-0.1002235
1.018428,0.07353382,-0.0970111
1.01839,0.07370993,-0.09602643
1.018414,0.07328001,-0.09854539
1.017725,0.0715163,-0.09774116
1.019105,0.06952835,-0.09777485
1.019955,0.06890571,-0.09591451
1.019165,0.06969979,-0.09213454
1.019503,0.06992877,-0.09841498
1.019172,0.07127275,-0.103999
1.017505,0.07482356,-0.102361
1.016989,0.07567223,-0.1067961
1.020103,0.07469517,-0.111228
1.024642,0.07499695,-0.09908487
1.023989,0.07508594,-0.08531382
1.021622,0.07495994,-0.09054139
1.021602,0.07498308,-0.09574338
1.019733,0.07449344,-0.09407097
1.017013,0.0723213,-0.100658
1.014711,0.07068763,-0.1024207
1.014434,0.07414651,-0.09868153
1.016231,0.07787724,-0.1003672
1.015202,0.07509451,-0.0994677
1.01643,0.0711151,-0.09920904
1.021241,0.07026194,-0.09728874
1.02288,0.06902069,-0.09223499
1.022198,0.06853315,-0.09472979
1.019811,0.07003003,-0.09512943
1.017987,0.07158958,-0.09247166
1.017851,0.07369608,-0.09405975
1.016922,0.07497492,-0.09539274
1.01705,0.07504098,-0.09841541
1.018251,0.07419595,-0.09965159
1.020005,0.07042519,-0.09942551
1.019929,0.06674082,-0.1007869
1.018631,0.0677206,-0.09805521
1.019938,0.0699253,-0.09546686
1.019495,0.06999012,-0.09380833
1.018991,0.0728652,-0.09187328
1.019999,0.07630721,-0.09219492
1.019063,0.07395896,-0.09202295
1.019521,0.07196893,-0.09341246
1.019648,0.0732582,-0.0938041
1.019273,0.0738368,-0.09484432
1.02067,0.07352217,-0.1042463
1.020739,0.07238306,-0.1091664
1.020046,0.07128346,-0.09894335
1.019121,0.07142632,-0.09009991
1.019211,0.0724573,-0.09962433
1.019898,0.07273019,-0.1060671
1.019117,0.07271694,-0.08779492
1.019853,0.07403301,-0.07729774
1.021418,0.07384949,-0.0951169
1.02159,0.07331298,-0.1073903
1.018208,0.07483967,-0.09309391
1.013396,0.07486647,-0.08257633
1.014898,0.07278451,-0.09647134
1.016554,0.06993999,-0.1045601
1.014356,0.06894682,-0.1000867
1.015583,0.07189571,-0.1015711
1.016643,0.07507201,-0.1017059
1.01613,0.07722135,-0.1012626
1.016304,0.07837613,-0.1042036
1.015621,0.07715363,-0.1064499
1.019511,0.07473447,-0.1056812
1.024186,0.0720884,-0.09696365
1.021715,0.07154766,-0.09163234
1.018141,0.07308376,-0.09500003
1.015226,0.07395688,-0.0951787
1.012801,0.07528365,-0.09367521
1.014828,0.07481689,-0.0948566
1.0162,0.07082755,-0.09611252
1.014771,0.06837495,-0.09840865
1.015267,0.06834403,-0.1022143
1.015944,0.06839113,-0.1055239
1.016903,0.06892937,-0.1095527
1.019687,0.07056477,-0.1114033
1.019939,0.07143883,-0.110231
1.018979,0.07089189,-0.1106278
1.019109,0.07253613,-0.1060073
1.016796,0.07427996,-0.1004637
1.014497,0.07208856,-0.1042379
1.016527,0.06901628,-0.1067497
1.02016,0.06736476,-0.1054948
1.021109,0.06802796,-0.1066923
1.019069,0.06981965,-0.1098929
1.017821,0.07118526,-0.1166224
1.020609,0.07286016,-0.1255417
1.023542,0.07228072,-0.1306067
1.022205,0.07057727,-0.1270915
1.021573,0.07006596,-0.1208918
1.022818,0.06973868,-0.1168395
1.022017,0.07288743,-0.1138123
1.021702,0.07614404,-0.1143958
1.02059,0.07275611,-0.1137072
1.016821,0.06827287,-0.1132374
1.01323,0.06791794,-0.1149842
1.010287,0.07003647,-0.112895
1.012018,0.07280417,-0.113067
1.017926,0.07441125,-0.1128768
1.02166,0.07481416,-0.1108839
1.023713,0.07302015,-0.1108318
1.023009,0.06867067,-0.1074754
1.019766,0.06740224,-0.1094808
1.016837,0.07035242,-0.1116271
1.012549,0.07240169,-0.1021584
1.011687,0.07248066,-0.09333138
1.015121,0.07169641,-0.09222047
1.016019,0.0707577,-0.09951113
1.017141,0.07066688,-0.1091544
1.019535,0.07149992,-0.1115319
1.019798,0.07126544,-0.105399
1.019326,0.07049443,-0.09822842
1.018773,0.07284438,-0.1003381
1.016945,0.07431177,-0.09968039
1.014407,0.07219319,-0.09585782
1.014845,0.07104431,-0.1028087
1.016103,0.0706088,-0.1032603
1.015507,0.07092387,-0.09794885
1.018796,0.07200841,-0.1007621
1.022332,0.07222058,-0.09970457
1.020454,0.07245997,-0.09878473
1.018474,0.07206043,-0.1014456
1.017928,0.07197336,-0.0984366
1.017439,0.07175661,-0.09526555
1.016498,0.07100382,-0.09284704
1.015613,0.07182644,-0.09459347
1.019387,0.0717911,-0.1035361
1.024152,0.07191365,-0.1066507
1.021784,0.0728142,-0.1028197
1.017472,0.07189744,-0.09660283
1.016429,0.07213116,-0.09284602
1.016149,0.07256512,-0.09751074
1.016482,0.07187921,-0.09934484
1.014198,0.0727481,-0.0945685
1.012366,0.07405228,-0.09203986
1.018932,0.07536035,-0.09383413
1.024611,0.07524731,-0.09719074
1.022068,0.07301453,-0.09925685
1.0193,0.0708881,-0.1019007
1.019557,0.06921515,-0.1005047
1.019403,0.07182845,-0.09673179
1.019051,0.07616774,-0.09875482
1.018895,0.0751128,-0.09776502
1.017564,0.07439366,-0.09577813
1.017893,0.07484721,-0.09662301
1.018555,0.07115228,-0.089423
1.017595,0.06904304,-0.08477974
1.018432,0.07279954,-0.09472187
1.019048,0.07667217,-0.1039961
1.019422,0.07520026,-0.1019191
1.019706,0.07358211,-0.09955129
1.018111,0.07404013,-0.1005784
1.017944,0.07190516,-0.09800498
1.018455,0.07369951,-0.09835658
1.019907,0.07839138,-0.1024177
1.022483,0.07733216,-0.1029393
1.021603,0.07491639,-0.1025274
1.017552,0.07250937,-0.09998564
1.014498,0.07029551,-0.09820272
1.017433,0.06953573,-0.1023892
1.021324,0.06867037,-0.1054699
1.019184,0.06990131,-0.1031209
1.019226,0.06950466,-0.09720499
1.022977,0.06786648,-0.09287897
1.023478,0.0686169,-0.09374467
1.021158,0.0685649,-0.09447976
1.018392,0.07010377,-0.09268553
1.019025,0.07170968,-0.09397621
1.020417,0.0723674,-0.09818744
1.017909,0.07475817,-0.09913308
1.014971,0.0750431,-0.09854425
1.011627,0.07510954,-0.09810779
1.011897,0.07515244,-0.09571807
1.016793,0.07455176,-0.09391282
1.018,0.07548175,-0.09468842
1.019081,0.07440853,-0.09853873
1.020168,0.07308973,-0.100378
1.018632,0.0720696,-0.09601911
1.018533,0.07155274,-0.09167224
1.016036,0.07295177,-0.09221127
1.014628,0.07213732,-0.09443649
1.017548,0.07284728,-0.09449777
1.018507,0.0739029,-0.09841745
1.018553,0.07052084,-0.10344
1.01956,0.06885106,-0.101717
1.021237,0.07107635,-0.1027529
1.020421,0.07594459,-0.1047191
1.018361,0.07918372,-0.1033953
1.019659,0.07745683,-0.1045857
1.018429,0.07545741,-0.1026865
1.015478,0.0749353,-0.09989343
1.015102,0.07574149,-0.1013987
1.01538,0.07686191,-0.1050913
1.017365,0.07570816,-0.1089153
1.017843,0.07311271,-0.1077626
1.014463,0.07186097,-0.1053513
1.012591,0.07183952,-0.104818
1.018259,0.06938202,-0.1077117
1.024591,0.06880251,-0.1125435
1.019766,0.07416088,-0.1069378
1.015587,0.07707402,-0.1012409
1.019081,0.07612257,-0.105186
1.018527,0.07557088,-0.1056056
1.01812,0.07459723,-0.1047862
1.020421,0.07440325,-0.1053383
1.019448,0.07247511,-0.104249
1.020011,0.06859332,-0.1076106
1.020825,0.06815378,-0.1118007
1.017079,0.06831069,-0.1117503
1.014051,0.06856849,-0.1111258
1.015403,0.07274104,-0.1116517
1.017779,0.07547861,-0.113905
1.018211,0.07092647,-0.1149596
1.018142,0.06598214,-0.1111721
1.018058,0.06901849,-0.1065712
1.017878,0.07204411,-0.1034946
1.018276,0.07087512,-0.1042136
1.017776,0.07175414,-0.108959
1.017082,0.07064703,-0.1092533
1.016602,0.06853123,-0.1107465
1.016341,0.06971276,-0.1168643
1.016999,0.06932483,-0.1177774
1.016582,0.0687377,-0.1187236
1.016491,0.07031573,-0.1201801
1.017142,0.07408858,-0.1182874
1.017312,0.07731476,-0.1171114
1.01842,0.07393284,-0.1120503
1.018241,0.07060936,-0.1060996
1.017482,0.07242956,-0.1082089
1.017643,0.07260148,-0.1127363
1.017199,0.07081155,-0.1134217
1.018125,0.07067193,-0.1141372
1.018374,0.07095972,-0.1136311
1.016149,0.070719,-0.10812
1.013866,0.07180561,-0.1006054
1.011733,0.07530368,-0.09519849
1.012101,0.07832714,-0.09934283
1.013253,0.07489335,-0.1041633
1.012965,0.06995754,-0.1011027
1.016889,0.07164256,-0.1054817
1.021203,0.06974233,-0.1108097
1.019567,0.06588184,-0.1065524
1.017901,0.07423354,-0.1010754
1.016432,0.08277039,-0.0945463
1.012954,0.08062147,-0.09265528
1.014041,0.07647035,-0.09575061
1.016713,0.07154038,-0.09528849
1.0143,0.06657445,-0.09501545
1.011964,0.06995159,-0.09382821
1.010174,0.07469046,-0.09039623
1.0091,0.07162722,-0.09169981
1.0141,0.07136805,-0.09529662
1.020438,0.07310037,-0.09877476
1.024378,0.06963284,-0.1030418
1.024072,0.06898191,-0.1019051
1.019738,0.06971513,-0.1000182
1.018534,0.06828124,-0.1030683
1.016853,0.06531047,-0.1048715
1.015672,0.06264785,-0.1069137
1.02254,0.07096638,-0.105474
1.028586,0.0790859,-0.1011137
1.026209,0.07017812,-0.1072674
1.023131,0.06173518,-0.1168684
1.025621,0.06441509,-0.1208008
1.025343,0.06271978,-0.1179974
1.021819,0.05735139,-0.1063783
1.020605,0.06011691,-0.09123926
1.014666,0.0690821,-0.07007099
1.009736,0.08242087,-0.04816597
1.011763,0.09211704,-0.03584546
1.015638,0.09262712,-0.0276811
1.021587,0.09422256,-0.02592533
1.024561,0.09343296,-0.0239931
1.024483,0.09068695,-0.01665625
1.025151,0.09255327,-0.02447264
1.024696,0.09168888,-0.03761819
1.022525,0.09394133,-0.03367254
1.017963,0.1003172,-0.02615975
1.016022,0.100529,-0.02519627
1.019355,0.09388681,-0.03464154
1.02102,0.08571215,-0.04668903
1.015219,0.08801089,-0.03370978
1.008647,0.09154456,-0.01434444
1.01133,0.08782966,-0.01418441
1.01628,0.08988284,-0.01127638
1.018162,0.0896971,-0.004762134
1.020155,0.0874184,-0.001241518
1.019734,0.09336605,0.007707256
1.018873,0.1020502,0.01346302
1.019936,0.1122993,0.01458264
1.020567,0.1112523,0.007746411
1.021756,0.1017482,-0.01633319
1.022641,0.101702,-0.04299176
1.020452,0.09821089,-0.05300897
1.016074,0.09035315,-0.0487841
1.010817,0.08552925,-0.05180162
1.01123,0.08175526,-0.06063782
1.025424,0.0821304,-0.05607411
1.039362,0.0760342,-0.05470193
1.034928,0.06581871,-0.06562029
1.024128,0.05588493,-0.06950382
1.017701,0.04584986,-0.06539016
1.009568,0.05082356,-0.05777719
1.008613,0.05605375,-0.05455657
1.016994,0.05645523,-0.0625112
1.022934,0.06613687,-0.06987032
1.027641,0.06874333,-0.07596702
1.026904,0.06333729,-0.08697633
1.022273,0.05884343,-0.09192272
1.020648,0.05920142,-0.08030335
1.01657,0.06925628,-0.07006478
1.017557,0.08320662,-0.07674814
1.02078,0.09579517,-0.08690452
1.02104,0.08403714,-0.1095197
1.03058,0.0517377,-0.1413899
1.036012,0.03617701,-0.1414832
1.021926,0.03631965,-0.1212107
0.9973738,0.0326667,-0.1258841
0.9874331,0.02496367,-0.1765192
1.010574,0.04604588,-0.2420774
1.035174,0.07724254,-0.2429979
1.023987,0.05979047,-0.1907292
0.9836494,0.0326606,-0.1585889
0.9508028,0.0132477,-0.1465856
0.9597844,-0.01534573,-0.1587928
0.9792875,-0.01627536,-0.1762993
0.9844691,0.0007193511,-0.1570719
1.035124,0.04748865,-0.1333852
0.9614869,0.2315559,0.2594052
0.9614418,0.2280872,0.2455517
0.9590199,0.2265895,0.2353137
0.9602754,0.2335562,0.2474457
0.9621929,0.2397164,0.261972
0.96062,0.235981,0.2527521
0.9610236,0.2307043,0.2441945
0.9613079,0.2321177,0.2464298
0.9598393,0.2324363,0.2437109
0.9602,0.2311455,0.2470537
0.9622813,0.2327954,0.2528119
0.9646027,0.2326028,0.2513317
0.9625125,0.2333507,0.254274
0.9569334,0.2341797,0.2528706
0.9554805,0.2334446,0.246665
0.9600866,0.2354344,0.2480812
0.9661943,0.2347009,0.2500837
0.9662523,0.2328457,0.2510493
0.9640942,0.2317324,0.2535763
0.9646097,0.2288211,0.2553146
0.9591559,0.2298087,0.2554282
0.9539826,0.2312657,0.2556892
0.9600441,0.2302879,0.2549473
0.9658701,0.2311078,0.2505128
0.9634448,0.2332715,0.2478858
0.9602514,0.2356988,0.2492929
0.9596588,0.2361366,0.2530406
0.9592884,0.2365979,0.255343
0.9599288,0.2380995,0.2553565
0.9599959,0.2363534,0.2560711
0.9591997,0.2340201,0.2541606
0.9601213,0.2319288,0.2537821
0.95932,0.2288922,0.2548903
0.9574583,0.2297135,0.2548185
0.9559615,0.2323036,0.2580617
0.9552248,0.2320682,0.2570946
0.9590438,0.2319489,0.2491319
0.9624563,0.2329671,0.2424625
0.9628754,0.2335282,0.2462919
0.962618,0.2336496,0.254506
0.9622509,0.2336723,0.2523657
0.9637392,0.2334479,0.2501942
0.9641261,0.2324951,0.2513177
0.9631968,0.2330195,0.2523774
0.9617508,0.2342662,0.257674
0.9604722,0.2338215,0.2559883
0.9628826,0.2348373,0.2508213
0.9629734,0.2351384,0.2483607
0.9598355,0.2328047,0.2462454
0.9602171,0.2313863,0.2523657
0.9632857,0.2291755,0.2558433
0.9652933,0.2289893,0.2516287
0.9604757,0.2324858,0.2508783
0.9548241,0.2335275,0.2514776
0.9598747,0.2317619,0.2529381
0.9653089,0.2300678,0.2547889
0.9644604,0.2324388,0.2558852
0.9654456,0.2364398,0.2553591
0.9657294,0.235911,0.251252
0.9643091,0.2342284,0.2496342
0.9638845,0.2330915,0.2515265
0.9619158,0.2337835,0.2536239
0.9620455,0.2355014,0.2526262
0.9632581,0.2331929,0.2480889
0.9620246,0.2309907,0.2431201
0.9623398,0.2307566,0.2395167
0.9619134,0.2326387,0.2463701
0.9606292,0.2379426,0.254988
0.9621647,0.2398316,0.2515339
0.9629208,0.2376497,0.250628
0.962384,0.2360798,0.2529986
0.9624578,0.2358794,0.2489231
0.9625297,0.2361298,0.2462094
0.9625385,0.2351148,0.2464167
0.9624285,0.2344435,0.2476353
0.9627237,0.2345398,0.2514387
0.9634082,0.233882,0.2512721
0.9644498,0.233101,0.2463589
0.9653352,0.23311,0.2467911
0.9640788,0.2336414,0.2500362
0.9611252,0.2332213,0.2496247
0.960171,0.2332013,0.2484263
0.9623713,0.233771,0.2475057
0.9648342,0.2338215,0.2512536
0.9665058,0.2341878,0.2557912
0.9636518,0.2327063,0.2509612
0.9575935,0.2301603,0.2449507
0.959909,0.2293857,0.2428857
0.9654941,0.2315182,0.2412419
0.9651423,0.235709,0.2433904
0.9636074,0.2363769,0.2466711
0.9618317,0.2361898,0.2468198
0.9621356,0.2377367,0.2471848
0.9629527,0.2365883,0.2470563
0.9600938,0.2372117,0.2433291
0.9596692,0.2382471,0.237839
0.9615945,0.2349863,0.2360165
0.962788,0.2315164,0.2432768
0.9620464,0.2284131,0.251752
0.9603183,0.2302523,0.2517407
0.9622707,0.2351131,0.2520833
0.963109,0.2350842,0.2541556
0.962217,0.2368314,0.2523772
0.9636507,0.2378764,0.2552393
0.964256,0.2349261,0.2613661
0.964474,0.2370989,0.2624083
0.963717,0.2411546,0.2581422
0.9619599,0.2437171,0.2517292
0.9622957,0.2431637,0.2521695
0.9629891,0.2372593,0.2558782
0.963317,0.2341884,0.2547818
0.9643877,0.2344335,0.2531317
0.9655825,0.2347854,0.250111
0.9649989,0.2350914,0.2486477
0.9626648,0.2342344,0.2510086
0.9619884,0.2347855,0.2521161
0.9636524,0.233978,0.2528176
0.9643852,0.2329853,0.2513533
0.9634429,0.2354852,0.25008
0.963,0.2365786,0.2503207
0.962394,0.2362177,0.2489487
0.9621715,0.2359092,0.2487119
0.9628828,0.2355313,0.2474517
0.9623326,0.2337236,0.2500106
0.9620464,0.2307864,0.2550297
0.9609686,0.2319828,0.2522826
0.9590947,0.233529,0.2510788
0.9605507,0.2330356,0.2522535
0.9618039,0.2343507,0.2515826
0.9608874,0.2368142,0.2532159
0.9611734,0.2398349,0.25207
0.962193,0.2392221,0.2507421
0.9623208,0.2360376,0.2528464
0.9607946,0.2359069,0.2542802
0.9590571,0.2350169,0.2561975
0.959891,0.2333915,0.256638
0.961986,0.2332936,0.2519634
0.9627643,0.2329375,0.2457193
0.9626629,0.2326638,0.2446024
0.9619876,0.2316545,0.2471579
0.9606508,0.232345,0.2475683
0.9593871,0.2360246,0.2463223
0.959503,0.2380822,0.2442433
0.9610681,0.237049,0.2454948
0.96112,0.2352414,0.2500914
0.9600469,0.235737,0.2498155
0.9599956,0.2349433,0.2479702
0.9612401,0.2323173,0.2473639
0.9629479,0.2342955,0.2476617
0.9609196,0.2355759,0.2514324
0.9585221,0.2341793,0.2519326
0.960926,0.2348951,0.2503118
0.9644666,0.2347873,0.2492035
0.9665456,0.234552,0.2460392
0.9621244,0.2349093,0.2470107
0.956283,0.2345694,0.2489319
0.9617208,0.2349918,0.2509728
0.9663722,0.2359526,0.2558489
0.9615857,0.238126,0.2547586
0.9590396,0.2396277,0.2530347
0.9583302,0.2387984,0.255882
0.9572128,0.2386496,0.2550908
0.9572192,0.2392819,0.2516092
0.9552625,0.2399117,0.2497675
0.9567258,0.2413637,0.2520806
0.9596844,0.2414398,0.2556284
0.9570503,0.23776,0.2529734
0.9564193,0.2339987,0.2497419
0.958574,0.2342373,0.2502542
0.9592246,0.2352994,0.2500373
0.9601475,0.234008,0.2518171
0.9597182,0.2318545,0.2532993
0.9592757,0.2300414,0.2498256
0.959138,0.2303958,0.2458256
0.9578649,0.2327876,0.2460834
0.958618,0.2330093,0.2511022
0.9606001,0.2322825,0.2515164
0.9622961,0.2323119,0.2483988
0.9632622,0.2300842,0.2513617
0.9629436,0.2290127,0.25132
0.9626321,0.2331694,0.2475021
0.9599286,0.237571,0.2443162
0.9569637,0.2364221,0.2389306
0.9591229,0.2335718,0.2432608
0.9625349,0.2346749,0.2543437
0.9643685,0.2353148,0.2569541
0.9643747,0.2340396,0.2556822
0.9622984,0.2339855,0.2541589
0.9623227,0.2332017,0.2511127
0.9628416,0.2333253,0.2470257
0.9621173,0.2355366,0.243907
0.9624005,0.2364766,0.2440221
0.9606936,0.2364146,0.2459963
0.9589713,0.2371746,0.2511398
0.9601766,0.2395521,0.2531506
0.9616608,0.2412853,0.2516096
0.9629476,0.2408067,0.2536744
0.9627072,0.2399182,0.2515655
0.9621128,0.2359598,0.2488778
0.9627325,0.2314625,0.2481261
0.9624873,0.2336695,0.2444004
0.9623829,0.2370859,0.2469025
0.9626326,0.2375149,0.2493315
0.9624206,0.2374065,0.2479286
0.9625147,0.2345889,0.2488305
0.9625261,0.2328369,0.2467511
0.9624654,0.2361486,0.2460424
0.9623436,0.2383914,0.248768
0.9616023,0.2365285,0.2526176
0.960832,0.2345743,0.2564287
0.9611891,0.2355541,0.2525173
0.9622132,0.2365952,0.2478194
0.9626617,0.235958,0.2497814
0.9625777,0.2360966,0.2489836
0.962399,0.2361736,0.2449347
0.9628587,0.2351384,0.2455328
0.9643697,0.2317423,0.2465471
0.9650171,0.2278825,0.2448765
0.9619584,0.2295916,0.2442781
0.9589568,0.2318645,0.2426596
0.9630016,0.2302665,0.2424614
0.9673562,0.2314941,0.2438751
0.9652031,0.2349422,0.2425952
0.9653685,0.2372895,0.2438945
0.9677922,0.2404283,0.247926
0.9665771,0.2408296,0.250885
0.9672183,0.2378131,0.2501486
0.9686531,0.2363113,0.2453087
0.9669243,0.2344087,0.2444346
0.9662624,0.2314109,0.2480565
0.9668007,0.2289488,0.2493091
0.9665126,0.2258757,0.2417398
0.9655652,0.2271409,0.2327427
0.96409,0.230939,0.238305
0.9632035,0.22901,0.2429381
0.9621685,0.2282429,0.2360629
0.9606628,0.2305707,0.2354252
0.9608012,0.2306072,0.2390179
0.9617198,0.2335969,0.2409761
0.9623931,0.2363631,0.2435337
0.9652933,0.2369584,0.2437778
0.9678691,0.2401641,0.2464439
0.9662277,0.2404979,0.2487267
0.9641954,0.2389372,0.2425007
0.9629394,0.2380029,0.2367111
0.9618212,0.2369832,0.2409833
0.9627169,0.2387259,0.2473304
0.9627299,0.2379921,0.2471593
0.9619297,0.2322231,0.2453787
0.9615401,0.2267368,0.2455057
0.958983,0.2272774,0.2509758
0.9577314,0.2302168,0.2573154
0.959438,0.2279758,0.2496097
0.9602983,0.2291449,0.2411091
0.9605623,0.2336118,0.2448835
0.9612397,0.2352051,0.2454932
0.9613416,0.2389856,0.2433235
0.9609028,0.2392096,0.2447815
0.9609316,0.2363546,0.2445461
0.9603872,0.2361713,0.2459513
0.9592553,0.2353974,0.2469849
0.9598904,0.2354209,0.2413905
0.9608645,0.2338668,0.2399886
0.9611428,0.2332905,0.2456068
0.9615117,0.2357365,0.2476624
0.9618119,0.2343623,0.2496411
0.9627821,0.2334722,0.2514768
0.9627563,0.233406,0.250457
0.9620979,0.2318977,0.2544856
0.9627333,0.2326423,0.2563211
0.9623451,0.2344099,0.2511073
0.9612312,0.2369339,0.2472238
0.9599937,0.2363299,0.2436032
0.9583066,0.2333287,0.2407956
0.9581758,0.233391,0.2409911
0.9584233,0.2336824,0.2413336
0.958263,0.2363235,0.2405986
0.9585973,0.2404487,0.2431991
0.9591497,0.240529,0.2508428
0.9600225,0.2383639,0.2545824
0.9607601,0.2333256,0.2532374
0.9638947,0.2269878,0.2489357
0.9682245,0.2264703,0.2438176
0.9662954,0.2338493,0.2453423
0.9610405,0.2401593,0.24614
0.959028,0.2377665,0.2445461
0.959636,0.2357309,0.2507675
0.9620042,0.236694,0.2565985
0.9630798,0.2341116,0.2538478
0.9615473,0.2339571,0.2502614
0.9589815,0.2357742,0.2499795
0.9562378,0.2339993,0.249913
0.9582063,0.2336922,0.250911
0.9612567,0.2336112,0.2507463
0.9591809,0.2328387,0.2444536
0.9585339,0.2347272,0.2380001
0.9596226,0.2347768,0.2390269
0.9594582,0.2335787,0.2462833
0.9601036,0.2335256,0.2513687
0.9596131,0.233855,0.2503892
0.9598501,0.2355169,0.2490061
0.9618913,0.2353193,0.248389
0.9627434,0.2341298,0.2465428
0.9627986,0.2333906,0.2453066
0.9622153,0.2329907,0.2458093
0.9624587,0.2358107,0.2457367
0.9624569,0.2376038,0.2441713
0.9603605,0.2374955,0.2458234
0.9600742,0.237049,0.2537016
0.9631409,0.2335803,0.2599967
0.9661891,0.2310318,0.2538591
0.9639968,0.2316122,0.2460525
0.9613786,0.2324769,0.2475673
0.9656481,0.232052,0.2428123
0.9677937,0.2333438,0.2363215
0.9649442,0.2385618,0.2438393
0.9629996,0.2413155,0.2485211
0.9609219,0.2392496,0.2450387
0.9598523,0.2366145,0.2460906
0.9598771,0.2370282,0.2463399
0.9607706,0.2378157,0.2435653
0.9635803,0.2345304,0.2441422
0.9653224,0.2329448,0.2450605
0.9651625,0.2337173,0.2441232
0.9634184,0.2330532,0.2447127
0.9618403,0.2333983,0.2465352
0.962462,0.233806,0.2475014
0.962795,0.2349331,0.2475135
0.9614197,0.2366369,0.2469236
0.9580238,0.23535,0.2472108
0.9548477,0.2342161,0.2474966
0.9575925,0.2357587,0.2483354
0.9616054,0.2366134,0.2545256
0.9599471,0.2357573,0.25969
0.960582,0.23514,0.2539618
0.9640094,0.234433,0.2453977
0.9623096,0.2337698,0.2438481
0.9618641,0.2345749,0.2434791
0.9632721,0.2365851,0.2434631
0.962208,0.2377302,0.2477868
0.9634444,0.2349035,0.2477864
0.9638878,0.2323643,0.2442052
0.9609414,0.2352205,0.243034
0.9593584,0.2370072,0.2402362
0.9611564,0.2347501,0.2405401
0.9638417,0.2335042,0.2462564
0.963176,0.234514,0.2502448
0.9626256,0.2367371,0.2496856
0.9630109,0.2375025,0.2468703
0.9620401,0.2339212,0.2446131
0.9636142,0.2305021,0.2420906
0.9640896,0.2319859,0.2427399
0.9614937,0.2337994,0.2450302
0.9601015,0.2337593,0.2441461
0.9600617,0.2342545,0.2454848
0.9617692,0.2332839,0.246962
0.9621544,0.2327242,0.2481968
0.9612416,0.2340991,0.2520508
0.961239,0.2340539,0.2516734
0.9598028,0.2347537,0.249517
0.9595345,0.2350753,0.2479709
0.9599235,0.2332716,0.2446619
0.9594529,0.2334623,0.2436741
0.959986,0.2344562,0.2439288
0.9597701,0.2357245,0.2437454
0.961081,0.2365704,0.2447003
0.964296,0.2348884,0.2454597
0.9659222,0.2344268,0.2448265
0.9654179,0.2348531,0.2431566
0.9639861,0.2346427,0.2419594
0.9644029,0.2344747,0.2421326
0.9633217,0.2328193,0.2432222
0.9591446,0.23217,0.2454985
0.9582815,0.2353456,0.2496654
0.9627996,0.2387024,0.2506746
0.9663871,0.2369842,0.2455153
0.9619232,0.2344496,0.2415754
0.9575246,0.2348947,0.2394256
0.9608634,0.233724,0.2374307
0.9639668,0.2360828,0.241579
0.9655607,0.2409556,0.2465145
0.9657664,0.2386821,0.2451643
0.962513,0.2368088,0.2459944
0.9610076,0.2372897,0.2502337
0.9601946,0.235343,0.2494399
0.9591346,0.2367619,0.2501339
0.9600155,0.2402272,0.2543503
0.9599107,0.2413105,0.251629
0.9602323,0.2379085,0.2477581
0.9609351,0.2331051,0.2462539
0.9602388,0.2370234,0.2432064
0.9620453,0.2406724,0.2444543
0.9660494,0.2353546,0.2461962
0.9686426,0.2337004,0.2453398
0.9669245,0.2361437,0.2467736
0.96382,0.2363095,0.2484613
0.9650108,0.2361863,0.2505311
0.964083,0.2359047,0.2509185
0.9600654,0.2362164,0.250123
0.9600967,0.2362044,0.2529639
0.9599152,0.2358747,0.253044
0.9595156,0.2363587,0.2502975
0.9619958,0.2356147,0.2498965
0.9628839,0.2339489,0.2495072
0.9623771,0.2311504,0.2489857
0.9615108,0.229952,0.247022
0.960924,0.2327099,0.2480114
0.9621317,0.2340199,0.2567012
0.9627732,0.2332219,0.2613334
0.9625561,0.2331817,0.2553826
0.9623744,0.23343,0.2502558
0.9624966,0.2337418,0.2517064
0.9622893,0.2349907,0.2477217
0.9603509,0.236753,0.2403146
0.95839,0.2365047,0.2450538
0.9580504,0.2364948,0.2512422
0.9595798,0.2386427,0.2509782
0.9608848,0.2402696,0.2513059
0.9602824,0.241715,0.2470789
0.9595785,0.2405564,0.2446353
0.9594779,0.2375961,0.2502732
0.9595681,0.2385334,0.251889
0.9579879,0.2378346,0.2476701
0.9566844,0.2348412,0.2446419
0.9598542,0.2361973,0.2464135
0.962935,0.2366847,0.2485023
0.9617533,0.2360324,0.2475248
0.9595431,0.2392869,0.2514909
0.9598068,0.2420127,0.2563176
0.9617822,0.2414897,0.2546545
0.9628888,0.2387438,0.2541754
0.9627401,0.236775,0.2565019
0.9621632,0.2383423,0.2559052
0.9623898,0.2395564,0.251372
0.9620033,0.2387406,0.2496147
0.9612368,0.2386854,0.2527231
0.9618052,0.238766,0.2524426
0.9602556,0.2370268,0.2524344
0.9588553,0.2354722,0.2556308
0.9601342,0.2360616,0.2549617
0.959785,0.2365828,0.252939
0.9590757,0.2366396,0.250653
0.9582135,0.2368782,0.2496289
0.9569715,0.2360494,0.2508766
0.9602971,0.2357018,0.248835
0.9641049,0.2368019,0.247755
0.9626085,0.2378804,0.2478668
0.9614828,0.2388517,0.2475055
0.9624094,0.2375816,0.2482868
0.9614853,0.2350112,0.245967
0.9614251,0.2362382,0.2463357
0.961237,0.2376736,0.2490037
0.9586367,0.2367845,0.2484819
0.9582385,0.2357081,0.248651
0.9594519,0.2323383,0.247373
0.9607707,0.231094,0.2458152
0.9615661,0.2337989,0.2455879
0.9598729,0.2356528,0.2468788
0.9594165,0.2383433,0.2494792
0.9599039,0.2395577,0.2482365
0.9595747,0.2376535,0.2484827
0.9597,0.2373593,0.2502569
0.9587133,0.2384572,0.2495516
0.9586043,0.2392333,0.2498953
0.9610221,0.2387793,0.2472688
0.9633337,0.2375508,0.2446475
0.9629047,0.236555,0.24642
0.9613733,0.2356673,0.2485236
0.9611244,0.2357756,0.2525534
0.9593122,0.2349335,0.254995
0.9595682,0.2339434,0.2514827
0.9634826,0.2347937,0.2493225
0.965678,0.2334478,0.2536393
0.9684181,0.2323596,0.2573114
0.969357,0.23403,0.2546544
0.9641478,0.2333388,0.2506062
0.9574772,0.2328339,0.2460053
0.9556762,0.2344278,0.2433571
0.9594124,0.2359026,0.2486834
0.9605754,0.2391385,0.253577
0.9592078,0.2401608,0.2525625
0.959921,0.2397926,0.2507968
0.9596964,0.2421866,0.2495235
0.959647,0.2403019,0.2497788
0.9598727,0.2374536,0.2504388
0.9600643,0.2393191,0.2497378
0.9625828,0.2389933,0.2499826
0.9638857,0.237513,0.250553
0.960636,0.2377532,0.2519278
0.9570768,0.2381761,0.2552304
0.959841,0.2391167,0.2563225
0.9625876,0.2381517,0.2550753
0.9594021,0.2368428,0.254575
0.9582858,0.2376809,0.2540937
0.9585952,0.2381833,0.2535744
0.9582382,0.2399501,0.2522435
0.9610033,0.2428169,0.2486597
0.9642644,0.2428481,0.2459513
0.9654122,0.2426466,0.2456449
0.9619109,0.2433811,0.24627
0.9579493,0.2420063,0.248463
0.9599837,0.2406414,0.2501226
0.9615596,0.2387052,0.2494039
0.9615675,0.2344878,0.2497022
0.9631372,0.2349835,0.2503742
0.9621936,0.2396369,0.2488692
0.9602846,0.2394971,0.2487165
0.9595896,0.2371325,0.2518686
0.959332,0.2375276,0.254991
0.9600631,0.2379799,0.2536738
0.9602664,0.2392428,0.2474637
0.961574,0.2422862,0.2447602
0.9623682,0.2438454,0.2496764
0.9590408,0.2439071,0.2525115
0.9587323,0.2408915,0.2485675
0.9612241,0.2356012,0.2457725
0.9610729,0.235257,0.2481543
0.9627424,0.2372642,0.2513352
0.9626313,0.2376028,0.253279
0.9579909,0.2387665,0.253454
0.9562307,0.2365554,0.2520706
0.9567685,0.232327,0.2528645
0.9571977,0.2330565,0.2532501
0.9577764,0.2339788,0.2525195
0.9601222,0.2328662,0.2549346
0.963945,0.2339865,0.2561322
0.9623179,0.2370613,0.2552441
0.9587558,0.242526,0.2543328
0.9584934,0.2456244,0.2519902
0.9587299,0.2407018,0.2508986
0.9602947,0.2370149,0.2513076
0.960028,0.2392229,0.2510815
0.959167,0.2394491,0.2486783
0.9613982,0.2382836,0.2467324
0.962103,0.2389449,0.2500437
0.9626336,0.2381265,0.2535499
0.9625009,0.2369409,0.2530369
0.9601865,0.2378003,0.2523361
0.9598874,0.2385389,0.2529636
0.9612666,0.2389644,0.2530782
0.9628567,0.238767,0.2534038
0.9610828,0.2368625,0.2541199
0.9583807,0.2356293,0.2513677
0.9597119,0.236006,0.2479571
0.9582993,0.2359934,0.2483316
0.9565444,0.2340776,0.2495136
0.9607284,0.2317735,0.2504532
0.9638538,0.2321691,0.2506435
0.9624616,0.235906,0.2503552
0.9605432,0.2424399,0.2539878
0.9594764,0.2472357,0.2582949
0.9577886,0.2454593,0.2587326
0.9580649,0.2414225,0.2586804
0.9603339,0.2396898,0.2553426
0.9618796,0.2393416,0.2523192
0.9657577,0.2380807,0.2569976
0.9670332,0.2352487,0.2568523
0.9617088,0.2354493,0.2503782
0.9582917,0.2371435,0.246847
0.9592635,0.2357796,0.2472174
0.9596379,0.2367947,0.2544843
0.9576988,0.2384017,0.258584
0.9579402,0.237178,0.2547577
0.9593287,0.2382834,0.2522368
0.9586303,0.2386733,0.2514372
0.9604259,0.2380554,0.2516635
0.9619997,0.2402376,0.2512915
0.9626272,0.241859,0.2523434
0.9647011,0.2426734,0.2546407
0.9634989,0.2429612,0.2546371
0.9621106,0.241133,0.2546861
0.9623959,0.238723,0.2512472
0.9621325,0.2380587,0.2486037
0.9609991,0.2371586,0.2508402
0.9586462,0.2336491,0.2518628
0.9587693,0.2324547,0.252764
0.9586284,0.2337702,0.2509983
0.9578283,0.2333292,0.2471447
0.9601054,0.233158,0.2476762
0.9613188,0.2334944,0.2518373
0.961108,0.2336153,0.2554476
0.9595957,0.2351224,0.2533256
0.9591968,0.2368613,0.2496981
0.9625161,0.2375552,0.2499609
0.9637433,0.2395013,0.2500409
0.9632609,0.2431109,0.2498697
0.9606384,0.2445742,0.2502065
0.9569314,0.2442029,0.2498268
0.9598366,0.24353,0.2500484
0.9640503,0.2415842,0.2500858
0.9639897,0.2402131,0.2498439
0.9624033,0.2393373,0.2508511
0.9617142,0.2380906,0.2535191
0.963775,0.2362899,0.2562465
0.966167,0.2312523,0.2543053
0.9680656,0.2282862,0.2512817
0.9661937,0.2336372,0.2530497
0.9610751,0.2382865,0.2533522
0.9622066,0.2360051,0.251695
0.9635457,0.2355223,0.2517615
0.9615355,0.2387319,0.2514348
0.9629336,0.239224,0.2536931
0.9624711,0.2389496,0.2550906
0.9609129,0.2398872,0.2516077
0.9605167,0.2403758,0.2508121
0.9593236,0.2405479,0.2515399
0.961678,0.240026,0.2503021
0.9631779,0.2404497,0.2495194
0.9613323,0.24106,0.2474901
0.9608213,0.2398393,0.2441693
0.9610393,0.2382976,0.2433193
0.9609774,0.2366728,0.2491632
0.9590331,0.2359191,0.2553843
0.9567993,0.2361513,0.2529772
0.9566968,0.2372007,0.2514006
0.9570094,0.2388783,0.2531096
0.9570786,0.238998,0.249018
0.9575008,0.2387302,0.2463915
0.9605556,0.2378227,0.2509804
0.9637007,0.2362028,0.2541308
0.9625609,0.2361233,0.2517611
0.9609387,0.236928,0.2473204
0.9611843,0.2379229,0.2394495
0.9612929,0.2375721,0.2308762
0.9618849,0.2373398,0.2362189
0.9629249,0.2387163,0.247268
0.9620008,0.2390137,0.2462085
0.959376,0.2389477,0.2451941
0.9568707,0.2388559,0.2476858
0.9573133,0.238789,0.2474087
0.9629593,0.2392544,0.2516039
0.9678392,0.239619,0.2556573
0.9663196,0.2406039,0.2556669
0.9614598,0.2402802,0.2535262
0.9585575,0.2390214,0.2494971
0.9594878,0.2390569,0.2476507
0.9606965,0.2396182,0.2449613
0.9612167,0.2406486,0.2433716
0.9627478,0.2404594,0.2440727
0.9619281,0.2398785,0.2425916
0.9595106,0.2403878,0.2429458
0.9604411,0.2388049,0.2441042
0.9617179,0.2356016,0.2463108
0.9609114,0.2331325,0.2502712
0.9617776,0.2333045,0.2507248
0.964816,0.2364908,0.2511089
0.967085,0.2380518,0.2520799
0.9645286,0.2366974,0.2506636
0.9607757,0.2358997,0.2494772
0.9626076,0.2380442,0.2484422
0.9633307,0.2407068,0.2484452
0.9611066,0.240431,0.2508789
0.9602027,0.2398599,0.2511802
0.9578309,0.239211,0.2473332
0.9584769,0.2367185,0.2433242
0.960697,0.2355048,0.2438267
0.9574932,0.2361178,0.2470395
0.9560595,0.2363641,0.2464427
0.9573748,0.2359527,0.2467085
0.9571975,0.235881,0.250265
0.9587123,0.2354026,0.2503988
0.9599646,0.2342725,0.2501639
0.9580704,0.2346823,0.2466045
0.9568008,0.2349944,0.2388467
0.9604006,0.2344732,0.2399828
0.9639873,0.2353664,0.2452478
0.9612264,0.2374315,0.2466909
0.9581093,0.2401352,0.2492938
0.9574581,0.2420073,0.2522343
0.9564536,0.2431676,0.253181
0.9573265,0.2431778,0.2510454
0.9590254,0.2398922,0.2494068
0.9601138,0.2379857,0.2530031
0.9604744,0.238333,0.254903
0.9583022,0.235452,0.2513392
0.9562947,0.2323252,0.2461245
0.9572011,0.233801,0.2446295
0.9601891,0.2358383,0.2527842
0.9627752,0.2344628,0.2618643
0.9628485,0.234431,0.260726
0.9622626,0.2362798,0.2576042
0.9623139,0.2363328,0.257766
0.9618989,0.2379872,0.2550481
0.9611301,0.239574,0.2545922
0.9597705,0.2387586,0.2579576
0.9570394,0.2388352,0.2575771
0.9563038,0.2389027,0.2579617
0.9593369,0.2385546,0.2567966
0.9603763,0.2371284,0.2514146
0.9593942,0.2356274,0.2508526
0.9598439,0.2371393,0.2517686
0.9591562,0.2389395,0.2521543
0.9569993,0.2391087,0.2533202
0.9550389,0.2385996,0.2525292
0.9566665,0.2374318,0.2531777
0.9615786,0.2346557,0.2546631
0.9633041,0.2331796,0.2571431
0.9629295,0.2377677,0.2622859
0.964022,0.24215,0.2665321
0.9652768,0.2404122,0.2658304
0.9625604,0.2391411,0.2612358
0.9568834,0.2400525,0.2606339
0.9564902,0.2389668,0.2602473
0.9592469,0.2401169,0.2544015
0.9598817,0.2429289,0.2497499
0.9589317,0.2415172,0.2500657
0.9567462,0.2413124,0.2540773
0.9567126,0.2430122,0.2565578
0.9572529,0.2420615,0.2579398
0.9568323,0.2415325,0.2585384
0.958222,0.2413881,0.257288
0.9594341,0.2407848,0.2614288
0.9600159,0.239828,0.2636509
0.9594556,0.238121,0.2592675
0.9579731,0.2373458,0.2555847
0.958126,0.2375327,0.2520486
0.958148,0.2395062,0.2521451
0.9569494,0.2411408,0.2531733
0.9564897,0.24101,0.2528779
0.9583409,0.2416883,0.2547044
0.9597462,0.2409704,0.2528237
0.9595623,0.2400877,0.2521443
0.9600448,0.2421342,0.2564124
0.959551,0.2432172,0.2572156
0.9595844,0.2402889,0.2550722
0.9597297,0.2367707,0.2535545
0.9575557,0.2373482,0.2539125
0.9566036,0.2391257,0.2538289
0.9571346,0.2397084,0.2492006
0.9588999,0.2405278,0.2448929
0.9605568,0.2394358,0.2462416
0.9603253,0.2383021,0.2514381
0.9602103,0.239436,0.2561389
0.9587535,0.2405784,0.2557287
0.9582295,0.2411631,0.2533545
0.9612804,0.2403329,0.2558644
0.9626495,0.2397114,0.2586205
0.9591016,0.2406827,0.2579188
0.9555125,0.2399299,0.2576772
0.9576866,0.2380117,0.2539424
0.9595529,0.2363982,0.2485598
0.9582225,0.2354472,0.2496884
0.9609654,0.2369169,0.2508011
0.9637464,0.2389838,0.2499682
0.9629099,0.2408686,0.2528466
0.9647967,0.2420078,0.2552714
0.9678032,0.24192,0.2564303
0.9667515,0.2420138,0.2616239
0.964667,0.2379155,0.2669756
0.962961,0.2327874,0.2629311
0.9583362,0.2321315,0.2568133
0.9554543,0.2309118,0.2576166
0.9572399,0.2334871,0.2543738
0.9567998,0.2406421,0.2519588
0.9530981,0.2461888,0.264863
0.9486111,0.2533302,0.2770997
0.9475999,0.2546288,0.2719411
0.956236,0.2489473,0.262649
0.9642981,0.248167,0.26052
0.9606996,0.2451033,0.2579132
0.9575466,0.2392618,0.254874
0.9613676,0.2400821,0.2526856
0.96269,0.2406803,0.2511021
0.9631593,0.2397427,0.2541201
0.9624467,0.2396725,0.2530481
0.9579417,0.2389457,0.2523896
0.9592518,0.2415473,0.256867
0.9601993,0.2439625,0.2578249
0.9566246,0.2422016,0.260762
0.9574702,0.2411341,0.2554898
0.9554006,0.2426892,0.2463548
0.9526529,0.2436394,0.2540259
0.9547025,0.2427904,0.257962
0.953269,0.2428303,0.2520633
0.9526877,0.2420193,0.2505059
0.95577,0.239368,0.2496824
0.958361,0.2392955,0.2512608
0.9609046,0.2432999,0.2574699
0.9625505,0.2470912,0.263068
0.9612929,0.2444699,0.2622186
0.9576241,0.2413542,0.260352
0.9577881,0.2435935,0.2626809
0.9594417,0.2434723,0.2577498
0.9585418,0.2423353,0.2495031
0.9606883,0.2430369,0.2492857
0.9628315,0.2402543,0.2508865
0.9639445,0.2378665,0.2526527
0.9646322,0.2389032,0.2549965
0.96217,0.2394149,0.2543622
0.9623527,0.2395863,0.2537204
0.9629115,0.2403087,0.2543655
0.9616046,0.2396738,0.2547923
0.9611613,0.2382815,0.2566573
0.9590036,0.2388698,0.258541
0.9593605,0.2392701,0.2551297
0.9605057,0.2390435,0.2505563
0.959113,0.2417342,0.2513736
0.9600889,0.2435962,0.2521402
0.9606217,0.2413628,0.2526504
0.9601255,0.2393462,0.2567202
0.9599013,0.2402275,0.26195
0.9590337,0.2406484,0.2672724
0.9591501,0.2389336,0.2662903
0.9583093,0.2386872,0.2601004
0.9587711,0.2390455,0.2567876
0.9602326,0.2387151,0.2546105
0.9577139,0.2390678,0.2580166
0.9561437,0.2387835,0.2645629
0.9571367,0.2388612,0.2646166
0.9570488,0.2392182,0.2602806
0.9570328,0.2399365,0.2536384
0.9578216,0.2425005,0.2521976
0.9584934,0.2434705,0.2524276
0.9575172,0.2421097,0.2483625
0.9562403,0.241219,0.2530598
0.9559668,0.2414724,0.2599908
0.954719,0.2408795,0.2623894
0.9543318,0.2390274,0.2643516
0.9549394,0.2393026,0.2628008
0.9532199,0.2400472,0.2649127
0.9525346,0.2395171,0.2672336
0.9557771,0.2402756,0.2671762
0.9579106,0.2405078,0.2670414
0.9569271,0.2390954,0.2597843
0.9565854,0.2382536,0.256835
0.9571847,0.2371868,0.2590865
0.9569536,0.2355864,0.2586554
0.9562588,0.2365676,0.2592299
0.9549337,0.2401404,0.2558646
0.9540773,0.2426955,0.2535273
0.9546838,0.2429345,0.2536524
0.9530262,0.2427141,0.2519901
0.9519662,0.2433597,0.2540224
0.956468,0.2431121,0.2572838
0.9590474,0.2425464,0.2607754
0.9587756,0.2426756,0.2601653
0.9592464,0.2425166,0.2555723
0.9570318,0.2448831,0.2555331
0.9563405,0.2460794,0.2553816
0.9574396,0.2409974,0.2554374
0.956673,0.2378466,0.2565964
0.9570235,0.2416087,0.2579742
0.9570094,0.2456825,0.2627196
0.9567832,0.2455352,0.2633717
0.9571463,0.2450673,0.2608476
0.9571214,0.2445345,0.2580572
0.9590134,0.2412504,0.252336
0.9611598,0.2408839,0.251587
0.9613284,0.241348,0.2528977
0.96005,0.2386398,0.2480248
0.9593095,0.2385906,0.2443864
0.9595289,0.2392105,0.2469645
0.9582982,0.2384684,0.250052
0.9581149,0.2381572,0.2505212
0.9601394,0.2371467,0.2520998
0.960626,0.2372088,0.2551741
0.960957,0.2368981,0.2561828
0.9631266,0.2356072,0.2554821
0.9630313,0.2360898,0.2553021
0.9616837,0.2368888,0.2557751
0.9625595,0.2387788,0.2555416
0.9608645,0.2420323,0.2553961
0.9586772,0.2426832,0.2541524
0.9598346,0.2428463,0.2468557
0.9589913,0.2451363,0.2379166
0.9577845,0.2447216,0.2386433
0.957736,0.2427702,0.2494074
0.9548341,0.2432388,0.2618189
0.9528914,0.2429979,0.2684208
0.9585626,0.2428781,0.2631739
0.9653095,0.2433868,0.2508123
0.9633561,0.2427576,0.2426851
0.9636713,0.2431709,0.2407585
0.9696832,0.2431567,0.241086
0.9669838,0.2428137,0.2415804
0.9597726,0.2436675,0.2509063
0.9561086,0.2453987,0.2666843
0.9574625,0.2499608,0.2709881
0.9576743,0.2504964,0.270493
0.9390389,0.238353,0.2721993
0.9245562,0.2230746,0.2727522
0.9501401,0.2207139,0.2754008
0.9815217,0.2244234,0.2692878
0.9790892,0.217487,0.2504057
0.9704259,0.2090319,0.2280024
0.973412,0.2091084,0.2181395
0.9685179,0.2117601,0.2360514
0.9651458,0.2187604,0.258651
0.9727244,0.2260578,0.2643376
0.9767302,0.2229772,0.2592082
0.9783465,0.2160138,0.2428439
0.9792705,0.2135627,0.2280008
0.9769304,0.2137641,0.2346312
0.9682801,0.2207677,0.2497134
0.9582965,0.229728,0.2548499
0.9635633,0.2225499,0.2549607
1.015145,0.06304062,-0.1084399
1.015791,0.05463421,-0.1160367
1.014583,0.05253203,-0.1232089
1.015546,0.0517432,-0.1188696
1.015605,0.05387893,-0.1127191
1.014609,0.06447477,-0.1163762
1.015899,0.06684584,-0.1170748
1.014988,0.06780328,-0.1186812
1.016059,0.07316692,-0.1226367
1.020134,0.07540143,-0.1202887
1.022596,0.07303726,-0.1183793
1.020044,0.06634259,-0.1139019
1.014321,0.06584206,-0.1063132
1.014786,0.06434018,-0.1061187
1.015811,0.0594679,-0.1096714
1.012738,0.06018455,-0.1090165
1.012675,0.05957868,-0.1042251
1.01467,0.06254019,-0.1005151
1.018559,0.06498799,-0.1051428
1.020724,0.06135812,-0.1145343
1.018917,0.06104878,-0.1186327
1.019032,0.06172089,-0.1199064
1.017762,0.06304416,-0.1198994
1.014941,0.06329822,-0.1171223
1.014997,0.06439966,-0.1155146
1.015477,0.0682694,-0.1132151
1.015662,0.06640453,-0.1136586
1.016928,0.06505272,-0.1177353
1.018693,0.06578851,-0.1176625
1.018123,0.06487127,-0.1156059
1.016608,0.066502,-0.1125428
1.017123,0.0671393,-0.109737
1.018317,0.06739504,-0.1065713
1.020155,0.0679301,-0.102735
1.020562,0.0651387,-0.1092588
1.019547,0.06194748,-0.1191952
1.019123,0.06103461,-0.1217123
1.016505,0.06154489,-0.1198071
1.014785,0.06216347,-0.1166915
1.017061,0.06537283,-0.1199701
1.018845,0.07123712,-0.1217325
1.018181,0.07612176,-0.1161826
1.01755,0.07848898,-0.1147091
1.01802,0.07692297,-0.1161533
1.01616,0.07393649,-0.1181199
1.013319,0.07140164,-0.1182601
1.012876,0.06945182,-0.1155777
1.012347,0.06617616,-0.1154136
1.012875,0.06046637,-0.1158297
1.015443,0.06161143,-0.1170968
1.017462,0.06478003,-0.1175974
1.01796,0.06319767,-0.1190924
1.017733,0.06817737,-0.1249697
1.01802,0.07517582,-0.1254281
1.016294,0.07837266,-0.1215466
1.014576,0.07829581,-0.119174
1.016351,0.07362209,-0.1175059
1.016959,0.0748367,-0.1164032
1.015628,0.07617597,-0.1136074
1.014964,0.07452238,-0.1126057
1.015379,0.08049211,-0.110277
1.01679,0.08418505,-0.1039483
1.018882,0.0838242,-0.1042233
1.022264,0.08530887,-0.106237
1.025406,0.08709117,-0.09939572
1.028824,0.08698558,-0.0897235
1.030955,0.076683,-0.0859954
1.024608,0.06166395,-0.09300687
1.013484,0.05465518,-0.1024557
1.009205,0.05646812,-0.1004761
1.013771,0.05522247,-0.1012008
1.015972,0.05209889,-0.1095061
1.008535,0.07081471,-0.09764096
1.006061,0.09445758,-0.07115953
1.020858,0.09436115,-0.05359204
1.032972,0.08943323,-0.04932746
1.021317,0.09202047,-0.05199419
1.009454,0.09247392,-0.04759157
1.018102,0.0908198,-0.04971598
1.021143,0.09082369,-0.06263121
1.016357,0.08655151,-0.07495859
1.020533,0.08010031,-0.09123292
1.019005,0.08157092,-0.08873157
1.015199,0.08333174,-0.07937042
1.016934,0.08300115,-0.08503054
1.015372,0.08511744,-0.07766702
1.018002,0.08257532,-0.07122157
1.023807,0.07699785,-0.06964138
1.026519,0.07456455,-0.06000027
1.023516,0.07508622,-0.05918497
1.014631,0.07761699,-0.05168062
1.014102,0.08092682,-0.04697887
1.016888,0.08288428,-0.06022547
1.016549,0.08179474,-0.06679559
1.020766,0.08039131,-0.07176043
1.021688,0.07887277,-0.07663733
1.020015,0.0742637,-0.07929864
1.019757,0.07202441,-0.08259118
1.01685,0.07846117,-0.0715887
1.017629,0.0856848,-0.06436759
1.022882,0.08479991,-0.07599777
1.024757,0.08356904,-0.08280032
1.021216,0.08553523,-0.07246722
1.019036,0.08366015,-0.0616432
1.020659,0.0814506,-0.06549305
1.020912,0.07861461,-0.06788177
1.020755,0.07308087,-0.06517445
1.019956,0.07428463,-0.06840752
1.018932,0.0767434,-0.07009731
1.019684,0.0756054,-0.07251443
1.019394,0.08027846,-0.07269586
1.019739,0.08356588,-0.06894109
1.021372,0.08055082,-0.07076586
1.022045,0.07892642,-0.06777799
1.019936,0.07550193,-0.06403599
1.016886,0.07057088,-0.07024001
1.018841,0.07149241,-0.07398713
1.02052,0.07351336,-0.07152434
1.019211,0.07164911,-0.06790662
1.021259,0.07278121,-0.06547494
1.02234,0.07798776,-0.06445877
1.017642,0.08348212,-0.06641941
1.010899,0.08948676,-0.07339759
1.008628,0.09211394,-0.0743971
1.01413,0.0909528,-0.06089357
1.02238,0.08687265,-0.04756938
1.027275,0.08087607,-0.05084955
1.026731,0.07853943,-0.05913835
1.023849,0.0748974,-0.06107159
1.020832,0.07065231,-0.06499279
1.017205,0.07392161,-0.06742846
1.017758,0.07683908,-0.06561174
1.019902,0.07647434,-0.05946459
1.019364,0.07926388,-0.05043079
1.02147,0.08267275,-0.05941915
1.022946,0.08563381,-0.07395751
1.021039,0.09000773,-0.07176822
1.017879,0.09213175,-0.07311483
1.013644,0.09477363,-0.08149347
1.014228,0.0978148,-0.0843125
1.016559,0.09072322,-0.07710292
1.016708,0.08159738,-0.06488715
1.019478,0.07823328,-0.06530537
1.022902,0.07094094,-0.06403858
1.026105,0.06617468,-0.05405474
1.026283,0.07002707,-0.05535645
1.020075,0.07322775,-0.05673106
1.014703,0.0757758,-0.0579783
1.014368,0.07910287,-0.06907872
1.01611,0.08165656,-0.07561877
1.016443,0.08596058,-0.07627142
1.017446,0.08691183,-0.07928998
1.020237,0.08252391,-0.08741441
1.020839,0.08121323,-0.09166951
1.020791,0.08175118,-0.08911236
1.019297,0.0801615,-0.09088324
1.01717,0.07872791,-0.09052768
1.016871,0.07875982,-0.08953424
1.01449,0.08006414,-0.0931466
1.014746,0.08186864,-0.09567588
1.01635,0.08809305,-0.1001858
1.015898,0.09530224,-0.09905962
1.022597,0.09509717,-0.09474869
1.028426,0.0936449,-0.09388898
1.023393,0.09310512,-0.08823767
1.017243,0.08917308,-0.08800852
1.015716,0.08645503,-0.09329486
1.01526,0.08818073,-0.09210633
1.014606,0.0897206,-0.09082138
1.014802,0.08766514,-0.0923336
1.013459,0.08709189,-0.09369668
1.012472,0.08973201,-0.09335443
1.013673,0.09395428,-0.086963
1.01553,0.1014101,-0.07327651
1.01931,0.1084412,-0.0625975
1.020047,0.1113867,-0.06276728
1.022906,0.1045999,-0.07109906
1.029352,0.08742434,-0.0891181
1.02134,0.07356331,-0.1111346
1.009438,0.06505837,-0.1264919
1.009251,0.05679832,-0.1350295
1.008318,0.05146382,-0.1416631
1.007367,0.05018443,-0.147605
1.014418,0.05248046,-0.1452
1.021553,0.05599063,-0.1396674
1.021424,0.06368161,-0.1363874
1.020849,0.07180032,-0.1274878
1.025072,0.07017307,-0.1181362
1.025433,0.07063192,-0.1039933
1.022461,0.07585595,-0.0896941
1.02197,0.07669924,-0.09339745
1.020813,0.0798711,-0.08872442
1.019894,0.08078385,-0.07125489
1.019235,0.07934705,-0.07350434
1.01908,0.0823821,-0.07976589
1.02002,0.07795409,-0.0793563
1.018187,0.07233909,-0.08600088
1.014942,0.07627469,-0.08548736
1.011504,0.07976591,-0.0774856
1.012022,0.08439463,-0.07037015
1.016579,0.09197287,-0.05786027
1.016871,0.09835128,-0.04991824
1.016445,0.1048257,-0.04516601
1.016043,0.1070525,-0.03651959
1.014481,0.1058847,-0.03517791
1.016204,0.1035251,-0.04188634
1.018155,0.09736996,-0.05124129
1.021027,0.09301829,-0.05307481
1.02275,0.09150025,-0.04930077
1.020706,0.09164321,-0.0524825
1.017805,0.09418368,-0.05012542
1.012175,0.09381231,-0.04203521
1.011353,0.0959786,-0.03787646
1.016539,0.1020189,-0.0370597
1.019814,0.1029472,-0.04094801
1.023656,0.1041145,-0.03955958
1.023918,0.1045061,-0.03865472
1.021723,0.09946602,-0.03957509
1.02085,0.09653257,-0.03416485
1.015904,0.09510798,-0.03853071
1.015391,0.09399173,-0.04473027
1.018229,0.09471878,-0.04524401
1.016386,0.09512328,-0.04937425
1.019223,0.09546789,-0.0502406
1.021832,0.09476897,-0.05113771
1.017674,0.09393743,-0.04858414
1.016256,0.09293005,-0.04381173
1.019285,0.09146284,-0.04818012
1.021726,0.0926184,-0.04972994
1.019182,0.09517041,-0.0485094
1.016846,0.09771409,-0.0522338
1.019473,0.09556959,-0.05795818
1.019724,0.08914269,-0.06450009
1.018194,0.08810114,-0.06724846
1.017632,0.08973318,-0.06694025
1.01569,0.09142439,-0.06676645
1.013567,0.09390959,-0.07029924
1.013786,0.09189379,-0.08020802
1.017881,0.08907656,-0.08558801
1.020152,0.08884913,-0.07563317
1.019,0.09014146,-0.06359995
1.019259,0.09387126,-0.06659555
1.017774,0.09719524,-0.0663496
1.016002,0.0987092,-0.05877108
1.017657,0.09858925,-0.06789082
1.01838,0.09755479,-0.07794245
1.017074,0.09690116,-0.07668492
1.016238,0.09596495,-0.07715898
1.016878,0.09488355,-0.07388818
1.01795,0.09402504,-0.06927317
1.018816,0.09493199,-0.06796168
1.018684,0.09781228,-0.06702592
1.015924,0.1009003,-0.06971925
1.015115,0.1011254,-0.07298761
1.019125,0.09428643,-0.07739583
1.022069,0.08674968,-0.07968205
1.021205,0.08683375,-0.0770496
1.021032,0.09021884,-0.08046702
1.022536,0.09204042,-0.08256271
1.020471,0.09355848,-0.07532727
1.017394,0.09504119,-0.06931936
1.018232,0.0942068,-0.06860843
1.019151,0.09188973,-0.07343731
1.019487,0.0896469,-0.08111053
1.018675,0.08806297,-0.08626173
1.013754,0.08877857,-0.08345215
1.010145,0.08859576,-0.07501424
1.014135,0.08783966,-0.07104272
1.021589,0.09123895,-0.06728807
1.022796,0.096645,-0.06627822
1.018193,0.1019502,-0.06970206
1.01571,0.1044742,-0.06573421
1.01744,0.1037746,-0.06456428
1.019979,0.1035332,-0.06668977
1.01947,0.09949282,-0.06426385
1.018554,0.09362146,-0.06653322
1.016884,0.09345182,-0.06757405
1.012314,0.09293807,-0.06662364
1.012071,0.08911235,-0.0673067
1.015974,0.0887606,-0.06262721
1.021103,0.09406784,-0.05986182
1.026374,0.1021022,-0.06216989
1.024868,0.1070825,-0.06314119
1.020377,0.1057915,-0.06329066
1.01878,0.1028031,-0.06661976
1.018134,0.09996278,-0.07068528
1.01807,0.09677054,-0.06533629
1.01703,0.1008424,-0.05435029
1.016606,0.1064442,-0.04937326
1.018665,0.1010638,-0.05168463
1.019933,0.09650436,-0.05427887
1.019973,0.09666867,-0.05099706
1.020922,0.09351027,-0.04870063
1.021591,0.09387287,-0.04900245
1.016375,0.09581033,-0.04679931
1.009896,0.09558067,-0.04366406
1.012486,0.09784287,-0.03937913
1.016207,0.09793564,-0.04382079
1.016475,0.09728283,-0.05790488
1.018965,0.09937018,-0.06300266
1.018787,0.09820582,-0.05718391
1.018878,0.09536867,-0.04978143
1.02233,0.09413063,-0.04872869
1.02174,0.09392828,-0.05113795
1.020862,0.09495412,-0.04924524
1.018269,0.09405913,-0.04907096
1.011528,0.09226417,-0.04919718
1.01166,0.0919687,-0.0495968
1.015117,0.09295091,-0.05272566
1.016426,0.09590905,-0.05106726
1.02001,0.09777386,-0.04972682
1.021294,0.1003565,-0.04939547
1.021165,0.1029562,-0.04681307
1.022986,0.100789,-0.047062
1.021858,0.1009908,-0.04660643
1.019977,0.1013414,-0.04642856
1.019399,0.09619826,-0.04855572
1.018607,0.09247786,-0.04804897
1.018047,0.08925223,-0.04409284
1.017212,0.0845947,-0.04229296
1.02146,0.08180636,-0.05252248
1.027114,0.08208365,-0.06533761
1.02305,0.08529029,-0.06286872
1.018177,0.09208629,-0.05477336
1.017982,0.1012138,-0.0521533
1.016779,0.1033505,-0.04949263
1.019833,0.1012422,-0.04828894
1.024063,0.103207,-0.05075161
1.021788,0.1029961,-0.05276616
1.019122,0.1011363,-0.05334381
1.016917,0.1002292,-0.05281323
1.014738,0.09649425,-0.05442382
1.018754,0.09044233,-0.05600671
1.022692,0.0856133,-0.05246766
1.020784,0.08745603,-0.04964943
1.021074,0.09245447,-0.0509593
1.023156,0.09614423,-0.053727
1.021712,0.1001778,-0.05414856
1.019031,0.09973544,-0.05031347
1.013939,0.09987085,-0.04661332
1.009583,0.1045528,-0.04383685
1.014616,0.1025435,-0.04153661
1.022667,0.09861465,-0.04388299
1.024683,0.09751657,-0.04938716
1.023371,0.09352676,-0.05181764
1.021011,0.09352536,-0.05727703
1.018622,0.09867189,-0.06931278
1.017581,0.1027748,-0.07460334
1.017138,0.1025548,-0.07393139
1.014927,0.1009292,-0.07151651
1.012252,0.1044184,-0.06593595
1.0173,0.1041474,-0.06715114
1.023482,0.1012949,-0.0672391
1.019825,0.1032013,-0.05948705
1.01791,0.100951,-0.05695379
1.020509,0.09934637,-0.05708233
1.018698,0.1024106,-0.05740769
1.016032,0.1042405,-0.05920833
1.013025,0.1056375,-0.05823037
1.010374,0.1054697,-0.05937658
1.011869,0.1048865,-0.06273614
1.014471,0.1019774,-0.06544467
1.018775,0.09764857,-0.06752698
1.022733,0.0982898,-0.06577188
1.022086,0.09895595,-0.06376507
1.02049,0.09781362,-0.0617281
1.01755,0.09838487,-0.05685987
1.015604,0.09872419,-0.05703444
1.018779,0.09690782,-0.06416723
1.019815,0.09552303,-0.06957127
1.018938,0.09659833,-0.06942238
1.020805,0.09781141,-0.06842784
1.020947,0.1008749,-0.0708715
1.019683,0.1035252,-0.0730583
1.019012,0.102253,-0.07195262
1.017261,0.1019181,-0.06938855
1.015436,0.1013646,-0.06548004
1.015142,0.1008838,-0.06299891
1.017194,0.1008882,-0.0655401
1.018121,0.09574702,-0.06772046
1.014365,0.09132965,-0.06553529
1.012966,0.09381849,-0.06384755
1.021606,0.09929194,-0.06214104
1.03161,0.1026499,-0.05857041
1.029139,0.1019285,-0.05804222
1.020738,0.101584,-0.05544686
1.017676,0.1032866,-0.04915147
1.016379,0.1033045,-0.05064773
1.013979,0.1030989,-0.05316075
1.01019,0.1047145,-0.0502319
1.010796,0.1040679,-0.05213435
1.018685,0.1017733,-0.05642592
1.023178,0.1013149,-0.0607145
1.024404,0.101075,-0.06366647
1.023239,0.1012049,-0.05708352
1.018782,0.09979749,-0.05033267
1.016815,0.09781728,-0.04936112
1.01488,0.09984842,-0.04896958
1.01517,0.1014572,-0.05322782
1.016257,0.1013969,-0.05831218
1.016196,0.1015512,-0.05812256
1.019261,0.1009894,-0.05593919
1.017969,0.1006355,-0.05074571
1.016839,0.09973107,-0.0424654
1.020039,0.09994366,-0.03954525
1.021091,0.1012842,-0.04310746
1.022399,0.1015776,-0.04502807
1.021868,0.1024299,-0.04759965
1.021198,0.1029711,-0.05018721
1.021454,0.1024417,-0.04775342
1.021835,0.1007977,-0.04743857
1.024285,0.09830416,-0.0476988
1.021022,0.09735168,-0.04641483
1.018143,0.09736461,-0.04795236
1.021803,0.09816604,-0.04807928
1.022878,0.100441,-0.04760721
1.0218,0.1035542,-0.04478114
1.020586,0.1075259,-0.04022478
1.02077,0.1090754,-0.04404741
1.022725,0.1061594,-0.04733623
1.021641,0.1035621,-0.04201315
1.01741,0.1032151,-0.0373884
1.013948,0.1026365,-0.03523604
1.015465,0.1023971,-0.03408465
1.018829,0.1012544,-0.03501781
1.019386,0.09652189,-0.03707872
1.017954,0.09329234,-0.04239344
1.015658,0.09692841,-0.04795473
1.0157,0.1030423,-0.04642222
1.016603,0.1050772,-0.04434971
1.016853,0.1033157,-0.04671302
1.01991,0.1024367,-0.04595212
1.022518,0.1046582,-0.04509708
1.02213,0.1062552,-0.04569872
1.020349,0.1045205,-0.04100254
1.019084,0.1035973,-0.03793797
1.021238,0.1044077,-0.04183275
1.02311,0.1045413,-0.04639137
1.021574,0.1060297,-0.04738637
1.019277,0.1084646,-0.0468524
1.017465,0.1087824,-0.04758788
1.017339,0.1076797,-0.04715506
1.016799,0.1065345,-0.04676936
1.01453,0.1055647,-0.04587347
1.015445,0.1069272,-0.04073842
1.018668,0.1092017,-0.03824225
1.019847,0.1075022,-0.04264799
1.01971,0.1062114,-0.04758483
1.019179,0.1083142,-0.04635831
1.019191,0.1082503,-0.04388634
1.019228,0.1063851,-0.04762121
1.018915,0.1051136,-0.05266475
1.019387,0.1054128,-0.05574046
1.017203,0.1069646,-0.05236758
1.015546,0.1066094,-0.04480901
1.018473,0.1044341,-0.0449919
1.019315,0.09981655,-0.04697307
1.019231,0.09529556,-0.05051303
1.019975,0.09601281,-0.05528252
1.018813,0.09885813,-0.04885887
1.018671,0.1006509,-0.04516719
1.017646,0.1005555,-0.04851319
1.016128,0.1004264,-0.04816498
1.017079,0.1028736,-0.05111424
1.018295,0.1032891,-0.05148254
1.019488,0.1024676,-0.048578
1.019418,0.1039366,-0.051529
1.019322,0.1049456,-0.05158763
1.019774,0.1068172,-0.04625124
1.018726,0.1087876,-0.04348471
1.017835,0.1067968,-0.04707141
1.016402,0.1045145,-0.05019012
1.01721,0.1053659,-0.04844464
1.019819,0.1052198,-0.04912988
1.018309,0.1034176,-0.05124367
1.016733,0.1039756,-0.0525881
1.016582,0.1037298,-0.05440585
1.016616,0.1025647,-0.05252437
1.018266,0.1055855,-0.04862715
1.019895,0.1080261,-0.04834905
1.021285,0.1072739,-0.04845793
1.019811,0.1092391,-0.04634021
1.01678,0.1153256,-0.04500012
1.016484,0.1200911,-0.03752438
1.017801,0.1179305,-0.03107245
1.023027,0.1073825,-0.04951449
1.027144,0.09133114,-0.07967105
1.020273,0.08105102,-0.09739321
1.010698,0.08143593,-0.107445
1.007833,0.08231086,-0.1102047
1.006108,0.08224751,-0.1069726
1.00791,0.08610242,-0.1077813
1.016143,0.09298554,-0.1048106
1.02024,0.09848896,-0.09516019
1.025027,0.09856027,-0.0859607
1.030678,0.1013569,-0.07594437
1.025566,0.1058356,-0.07162176
1.021853,0.1002227,-0.07013124
1.020231,0.09549186,-0.06432938
1.016308,0.09775196,-0.06522485
1.020355,0.09716835,-0.06957101
1.02175,0.09545806,-0.07181831
1.017938,0.09265645,-0.07432022
1.017098,0.08785927,-0.07173714
1.016752,0.08665503,-0.07184983
1.020449,0.08824412,-0.07613748
1.023579,0.09074227,-0.07590121
1.02213,0.09458984,-0.07212656
1.021883,0.09802013,-0.06142883
1.022366,0.09969318,-0.05381238
1.022365,0.1013198,-0.05970136
1.021648,0.1023411,-0.06391619
1.020507,0.09779071,-0.06302594
1.019046,0.09227217,-0.06345833
1.018946,0.09400346,-0.05568924
1.02013,0.09584103,-0.0451767
1.018582,0.0935564,-0.05197006
1.016612,0.09438047,-0.06091437
1.015443,0.09549121,-0.05849355
1.017888,0.09548975,-0.06196564
1.024722,0.09831469,-0.05995037
1.025761,0.0984478,-0.04881502
1.022307,0.09801572,-0.0495698
1.019489,0.09979092,-0.0484522
1.015979,0.09994389,-0.04350661
1.014869,0.101837,-0.04782787
1.016062,0.1017207,-0.05244977
1.017195,0.09864541,-0.05671052
1.017308,0.09879746,-0.05696862
1.01887,0.09932512,-0.05408048
1.022082,0.1002478,-0.05813593
1.021023,0.1000778,-0.05770168
1.019666,0.09702398,-0.04802254
1.01971,0.09441193,-0.03677602
1.017302,0.09149519,-0.03225921
1.017124,0.0901282,-0.04045861
1.016141,0.08912123,-0.0458874
1.012564,0.08890874,-0.04429232
1.014337,0.09246065,-0.04642798
1.018533,0.09290651,-0.04793892
1.020951,0.09259597,-0.04814146
1.02236,0.09386015,-0.04933896
1.021181,0.09264609,-0.05124097
1.019914,0.09419959,-0.05318497
1.018388,0.09599916,-0.04988062
1.015875,0.0945646,-0.04512478
1.01784,0.09084137,-0.04356568
1.021689,0.08576089,-0.04352213
1.022674,0.08775551,-0.04645773
1.022418,0.09067822,-0.04989649
1.021894,0.08835018,-0.04903198
1.022482,0.09053918,-0.04853306
1.023134,0.0928876,-0.05362155
1.021085,0.09192983,-0.05635165
1.014229,0.09515392,-0.0519439
1.007637,0.09856935,-0.04862229
1.012863,0.09583694,-0.05070689
1.020357,0.08844356,-0.0525906
1.018662,0.08338943,-0.04891366
1.019022,0.08852383,-0.04127587
1.020852,0.09819095,-0.03379481
1.020529,0.09922736,-0.03557254
1.023941,0.09346637,-0.04739782
1.023152,0.09107408,-0.05928418
1.016453,0.09539239,-0.06789719
1.012878,0.1018602,-0.06151563
1.015561,0.102285,-0.05079757
1.021984,0.09998805,-0.05767991
1.022843,0.09917991,-0.06151868
1.019825,0.09634426,-0.06051458
1.019249,0.09665616,-0.06048126
1.019034,0.0982374,-0.05144291
1.020406,0.09583371,-0.0494024
1.022305,0.09355942,-0.04739837
1.025416,0.08985088,-0.04378579
1.028871,0.08801842,-0.05150751
1.028152,0.0888234,-0.04809203
1.024291,0.08695628,-0.03555975
1.016278,0.08814185,-0.0261319
1.012919,0.08937348,-0.02116692
1.016517,0.08564616,-0.02060147
1.015244,0.08360805,-0.007765125
1.015561,0.08286857,0.00026502
1.02082,0.08149591,-0.005919568
1.025218,0.07920257,-0.01195075
1.028063,0.07169695,-0.02683
1.027581,0.06078325,-0.0355946
1.027652,0.05361295,-0.03655705
1.027003,0.04916927,-0.04837304
1.024691,0.04408255,-0.0523228
1.025093,0.04211051,-0.04436395
1.025817,0.03768357,-0.04156656
1.0294,0.02568583,-0.0451564
1.033204,0.01376519,-0.04704986
1.029104,0.005964035,-0.04420849
1.021238,0.005380424,-0.04024009
1.015968,0.005314208,-0.03386693
1.017115,0.002420129,-0.02771603
1.023639,0.005912176,-0.02668664
1.027792,0.006456195,-0.03756396
1.02492,0.003350267,-0.05691145
1.021029,0.001246918,-0.06002581
1.022305,-0.008131386,-0.05494056
1.022589,-0.01413982,-0.06422369
1.02068,-0.01721583,-0.07858899
1.020946,-0.02676907,-0.09211166
1.020544,-0.03515316,-0.09633162
1.019866,-0.04186386,-0.09211327
1.019439,-0.04524076,-0.09907219
1.018667,-0.04926569,-0.1069659
1.017881,-0.05694522,-0.1086409
1.015313,-0.05764231,-0.1096394
1.017601,-0.06081712,-0.1063786
1.02834,-0.07007221,-0.1089719
1.036405,-0.07209896,-0.1131803
1.033275,-0.06969247,-0.1130619
1.02514,-0.0654737,-0.1170592
1.020758,-0.0623388,-0.1227092
1.018649,-0.06377704,-0.1337475
1.02089,-0.06290665,-0.1425023
1.024808,-0.06136744,-0.1413743
1.021893,-0.06188913,-0.1407715
1.019515,-0.06013038,-0.1377004
1.018134,-0.05924449,-0.1336581
1.017059,-0.06227954,-0.1295087
