accx,accy,accz
0.990639,-0.1066127,-0.2575832
0.9916965,-0.1041933,-0.2533119
0.9960283,-0.1032849,-0.253654
0.9955657,-0.1039813,-0.2547878
0.9908435,-0.10484,-0.2516169
0.9879762,-0.1073245,-0.251603
0.989178,-0.1096648,-0.2541295
0.9915256,-0.1077818,-0.2562822
0.9900125,-0.1069667,-0.2559316
0.9895268,-0.1067199,-0.2537801
0.9901923,-0.1027043,-0.2546727
0.9882708,-0.100997,-0.2560713
0.9900634,-0.103432,-0.256378
0.9929147,-0.107744,-0.2538884
0.99309,-0.1094728,-0.2486777
0.9930661,-0.1077647,-0.2495006
0.9909329,-0.1083796,-0.2518096
0.9900984,-0.108567,-0.2529069
0.9921554,-0.1078278,-0.2579937
0.9936009,-0.1072058,-0.2587613
0.9933713,-0.1037942,-0.2570554
0.9924826,-0.1019058,-0.2573057
0.9935192,-0.102575,-0.2533835
0.9946388,-0.1025792,-0.2489598
0.9969669,-0.1027608,-0.2474796
0.9999659,-0.1049758,-0.2477547
0.9981513,-0.1075757,-0.2460895
0.9960598,-0.1085829,-0.2446069
0.994836,-0.1097333,-0.2515074
0.9927426,-0.1093877,-0.2549781
0.9932668,-0.1077499,-0.252836
0.9940441,-0.1067776,-0.2573846
0.9945021,-0.1067169,-0.2612793
0.9946311,-0.1091084,-0.2620089
0.9929742,-0.1093362,-0.2569044
0.9920426,-0.1076398,-0.2455776
0.9915952,-0.1071797,-0.2424777
0.9923779,-0.1048692,-0.2441346
0.9936995,-0.103546,-0.2473852
0.9928896,-0.1043611,-0.2525165
0.9927082,-0.1055903,-0.2507535
0.9924304,-0.1076025,-0.2480407
0.9917217,-0.1089686,-0.2486703
0.9943256,-0.1094822,-0.2488685
0.9968847,-0.1093754,-0.249628
0.9957836,-0.1089292,-0.2516708
0.9941983,-0.1071591,-0.2547258
0.9936263,-0.1062639,-0.2568845
0.9929068,-0.1074439,-0.2565805
0.9937489,-0.1069773,-0.2549597
0.9949452,-0.1078524,-0.2553481
0.9933867,-0.1096516,-0.2559442
0.992748,-0.1088751,-0.2545684
0.9941685,-0.1079897,-0.2557885
0.9945029,-0.1070216,-0.2581248
0.9936356,-0.1059966,-0.2596974
0.9926035,-0.1061094,-0.2595729
0.9931925,-0.1098581,-0.2507378
0.9942541,-0.1137434,-0.240698
0.9946083,-0.1100298,-0.2433074
0.9957429,-0.1065278,-0.2490639
0.9968479,-0.1081921,-0.2528091
0.9970116,-0.1059891,-0.2617977
0.9946461,-0.1018338,-0.25969
0.9917366,-0.1024597,-0.2508567
0.9917422,-0.1039428,-0.254631
0.990184,-0.1050535,-0.2481949
0.9883174,-0.1074453,-0.2385758
0.9916691,-0.105698,-0.2479718
0.994347,-0.1027071,-0.2562749
0.9928962,-0.1049988,-0.2607045
0.9926209,-0.1075197,-0.2589345
0.9934707,-0.1093943,-0.2494954
0.9931071,-0.1107085,-0.2496851
0.9943552,-0.1089977,-0.2518584
0.9976186,-0.1087004,-0.2537419
0.9986598,-0.1085868,-0.2576089
0.9951854,-0.107523,-0.2569882
0.991343,-0.1079016,-0.2598322
0.9919539,-0.1062897,-0.2626128
0.991989,-0.104711,-0.2621495
0.9890661,-0.1039286,-0.2630922
0.9886389,-0.1020916,-0.2619635
0.9891432,-0.1030809,-0.2615241
0.9896356,-0.1047488,-0.2610699
0.9908099,-0.1055788,-0.2585613
0.9901544,-0.1075256,-0.2556887
0.9904828,-0.1087985,-0.2546657
0.9923176,-0.108811,-0.259817
0.9933697,-0.1087592,-0.2602559
0.9934099,-0.1103193,-0.256837
0.9926141,-0.1106265,-0.263862
0.9931839,-0.1089326,-0.2683074
0.993275,-0.1083657,-0.2645358
0.992146,-0.1078537,-0.2594446
0.9912116,-0.1085512,-0.2511862
0.9903026,-0.1086184,-0.2497541
0.991998,-0.1079427,-0.2536238
0.9927148,-0.1097101,-0.2554584
0.9922048,-0.1091373,-0.2608818
0.9938403,-0.1060295,-0.2622051
0.992007,-0.1033102,-0.2589191
0.9909253,-0.1042997,-0.2575459
0.9933487,-0.1097503,-0.253603
0.9929531,-0.111788,-0.2520691
0.993079,-0.1104582,-0.2554342
0.9927218,-0.1093382,-0.2583128
0.9899729,-0.1103043,-0.258166
0.9890237,-0.1121387,-0.2553397
0.9910157,-0.1101171,-0.2558209
0.9944511,-0.1082563,-0.2571176
0.9933486,-0.1066825,-0.2556756
0.9914042,-0.1063756,-0.2570163
0.9913249,-0.1099228,-0.2599676
0.9879578,-0.1107987,-0.2615856
0.9891209,-0.1108746,-0.2597868
0.9918256,-0.1094027,-0.2542338
0.9896626,-0.1053194,-0.2516539
0.991131,-0.1052968,-0.2530152
0.9926346,-0.105678,-0.2549846
0.9924375,-0.1052709,-0.2556682
0.9952912,-0.1045276,-0.2536947
0.9959614,-0.1016273,-0.2519905
0.9930523,-0.1002652,-0.2517322
0.9906804,-0.1012611,-0.2514699
0.9916265,-0.1053071,-0.2506353
0.99326,-0.10837,-0.2494332
0.9928393,-0.106642,-0.2500184
0.9931946,-0.1052258,-0.2525694
0.9931565,-0.1038793,-0.2530026
0.9927643,-0.1025844,-0.2506459
0.9928243,-0.1053246,-0.2495123
0.9902175,-0.1075032,-0.2475232
0.988028,-0.1034126,-0.2466212
0.9887588,-0.09980418,-0.2511205
0.9894628,-0.1025963,-0.2540406
0.9896366,-0.1050018,-0.2552329
0.9911011,-0.1056771,-0.2538782
0.9942293,-0.1072559,-0.2461136
0.996552,-0.1052495,-0.2423598
0.9961498,-0.1019643,-0.2496045
0.9938046,-0.1017729,-0.2603384
0.991558,-0.1014201,-0.2591674
0.9899461,-0.1012162,-0.2461873
0.9907272,-0.1025933,-0.2370257
0.9936127,-0.1031523,-0.2379589
0.9931968,-0.1036378,-0.2457868
0.9925767,-0.1040998,-0.2496751
0.9936062,-0.1024153,-0.2509614
0.9926772,-0.100726,-0.2548516
0.9932982,-0.1008764,-0.2545502
0.9940082,-0.1000251,-0.2520015
0.993424,-0.09784044,-0.2474524
0.9932642,-0.09902187,-0.2445536
0.99254,-0.1028702,-0.2467477
0.9936935,-0.1048042,-0.248524
0.994997,-0.1046044,-0.2520679
0.995928,-0.1038289,-0.252871
0.9965145,-0.1050762,-0.2521947
0.994984,-0.1062525,-0.2534194
0.9951059,-0.1051646,-0.250924
0.9945216,-0.1055952,-0.2494644
0.9937592,-0.1059452,-0.2486377
0.9947714,-0.1063096,-0.2498102
0.9923837,-0.1083927,-0.2528282
0.9919996,-0.1080324,-0.2508147
0.9974559,-0.1048128,-0.2501603
1.002478,-0.09983184,-0.2503
1.001832,-0.09712476,-0.2494121
0.9971281,-0.09856051,-0.2506458
0.9950419,-0.0972487,-0.2507494
0.9934913,-0.09443564,-0.2504403
0.9913311,-0.09406212,-0.2458968
0.9909731,-0.09315415,-0.2387837
0.9933379,-0.09370553,-0.2403778
0.9993398,-0.09753202,-0.2449985
0.9990227,-0.1008823,-0.2453238
0.9936712,-0.1036689,-0.2489601
0.9929593,-0.1045771,-0.2517202
0.9934458,-0.1011124,-0.2453564
0.9952489,-0.09916489,-0.2436736
0.9957222,-0.1010118,-0.2455288
0.9951645,-0.1015545,-0.2399138
0.9962253,-0.09954957,-0.2418077
0.9926714,-0.0983557,-0.247465
0.9906384,-0.1014789,-0.2484849
0.9923943,-0.1048837,-0.2547158
0.9933202,-0.104385,-0.2537332
0.9951453,-0.1034484,-0.2485883
0.9945208,-0.1021847,-0.2510928
0.9938326,-0.09910471,-0.2495719
0.9939815,-0.09772587,-0.2495198
0.9925118,-0.09907095,-0.25089
0.9933976,-0.09991189,-0.2475112
0.9950998,-0.1006098,-0.2458668
0.996137,-0.1005912,-0.241827
0.9961821,-0.09691845,-0.2414817
0.9953708,-0.09501008,-0.248454
0.9956866,-0.09857705,-0.2525445
0.9941356,-0.1030109,-0.2525348
0.9924423,-0.1051668,-0.2498389
0.9939676,-0.104112,-0.249612
0.9948401,-0.102166,-0.2490697
0.9934351,-0.1002126,-0.2461341
0.9925948,-0.09803406,-0.2446772
0.9933432,-0.100041,-0.2403686
0.9938968,-0.1027311,-0.2432063
0.9945442,-0.1007508,-0.2506474
0.9967485,-0.09915481,-0.2488434
0.997458,-0.09865618,-0.2456526
0.9939793,-0.09840415,-0.2412001
0.9920781,-0.1013594,-0.2410976
0.9941078,-0.1046376,-0.2467152
0.9938709,-0.1056789,-0.2465152
0.9942285,-0.1032184,-0.2478154
0.996298,-0.09953894,-0.2436573
0.9948694,-0.09965001,-0.2354618
0.9932777,-0.0991766,-0.2400487
0.9912097,-0.09942266,-0.2423663
0.9908682,-0.1025186,-0.2415889
0.9937659,-0.1002498,-0.2485607
0.9928019,-0.09708068,-0.2510315
0.992829,-0.09756796,-0.2461289
0.9935093,-0.09811086,-0.2428691
0.9910793,-0.1004925,-0.2446299
0.9900797,-0.09988669,-0.2459589
0.9887397,-0.09499885,-0.2443317
0.9911958,-0.09508317,-0.2426921
0.9947441,-0.1028258,-0.2389636
0.9933547,-0.1106049,-0.2373879
0.9962724,-0.1092997,-0.2398412
1.000215,-0.105483,-0.2414825
0.9974385,-0.1035738,-0.2505159
0.9914851,-0.09712624,-0.264239
0.9865012,-0.09661025,-0.2690177
0.9865782,-0.1013541,-0.2736839
0.9888188,-0.1004026,-0.2787012
0.9898273,-0.1058638,-0.2771101
0.9941104,-0.1127679,-0.2782685
0.999317,-0.1110983,-0.2735168
1.00171,-0.1111161,-0.2636502
1.007662,-0.1066612,-0.260437
1.012207,-0.09872519,-0.2479354
1.007808,-0.09569194,-0.2305428
1.002807,-0.09008026,-0.2195203
0.9997967,-0.08789933,-0.2100228
1.003054,-0.08740932,-0.2041943
1.012889,-0.0790648,-0.1965528
1.014543,-0.0744529,-0.1906636
1.011565,-0.07362885,-0.1876179
1.00928,-0.06932585,-0.1783488
1.00606,-0.0667787,-0.166125
1.010706,-0.06593879,-0.153822
1.017101,-0.06318482,-0.146635
1.019455,-0.05596625,-0.1382153
1.02435,-0.04398976,-0.1215906
1.025502,-0.0353729,-0.109566
1.019967,-0.03454693,-0.1064466
1.016698,-0.03325727,-0.1016414
1.018813,-0.03091091,-0.09062329
1.020868,-0.03311654,-0.08725667
1.020813,-0.03122704,-0.08771784
1.022535,-0.02626358,-0.0808358
1.022926,-0.02473803,-0.07384695
1.021426,-0.02022272,-0.06301258
1.022887,-0.01693994,-0.04975937
1.024237,-0.012746,-0.03546638
1.025055,-0.006734789,-0.03033416
1.025286,-0.01023627,-0.03660444
1.022629,-0.01097659,-0.02272285
1.021769,-0.007182528,-0.01197596
1.02255,-0.006319345,-0.0212152
1.02301,-0.001255849,-0.01971346
1.024054,-0.000973985,-0.01898043
1.023386,0.0005209646,-0.01410317
1.022532,0.01312847,0.004413155
1.022195,0.01804093,0.01486453
1.021737,0.01598195,0.01713529
1.021644,0.02096091,0.01620974
1.021347,0.02736003,0.02217678
1.025249,0.02583078,0.03244758
1.030486,0.02384941,0.03134505
1.02911,0.03071151,0.03053679
1.025626,0.03724412,0.03643219
1.024626,0.0398873,0.04177983
1.024226,0.04140661,0.04775226
1.021526,0.04553427,0.06094734
1.014654,0.05411299,0.07449281
1.010861,0.05100398,0.07222026
1.015391,0.04512904,0.06415281
1.018701,0.05140242,0.06402705
1.017767,0.05446982,0.07318113
1.018755,0.05855346,0.08313678
1.017466,0.06486512,0.07206398
1.011308,0.06847043,0.06144583
1.005848,0.076524,0.08340833
1.005488,0.07464075,0.1103002
1.012266,0.06896789,0.1152147
1.017278,0.06941596,0.09916567
1.013508,0.06091562,0.08312261
1.010955,0.05243441,0.08969338
1.013384,0.04239192,0.08985109
1.015141,0.03277338,0.07058614
1.01814,0.04282167,0.0617537
1.021684,0.0524983,0.05797787
1.02247,0.0530914,0.04677886
1.027415,0.04950391,0.03631497
1.034933,0.03653358,0.02821101
1.036235,0.02549126,0.002073387
1.042382,0.008437727,-0.03382507
1.049815,0.001143508,-0.02815484
1.032891,0.03346937,-0.02518111
1.008626,0.05227983,-0.06559025
1.008309,0.01349009,-0.07878777
1.019556,-0.03720717,-0.07927168
1.019122,-0.04639958,-0.08867857
0.9958992,-0.02883244,-0.07923573
0.9704093,-0.02774603,-0.09322161
0.9766854,-0.04222291,-0.1134162
0.9883797,-0.06626076,-0.1146376
0.9911681,-0.08513495,-0.1247469
1.024669,-0.06742549,-0.1292577
1.05723,-0.04895574,-0.1356761
1.046624,-0.05826526,-0.1318932
1.04668,-0.04321743,-0.09735751
1.086304,0.009471233,-0.04716211
1.106461,0.04041626,0.01317865
1.064208,0.01925619,0.02204038
1.00664,-0.009809409,-0.03852178
0.9992358,-0.02901642,-0.1225444
1.026127,-0.08722271,-0.2123325
1.040853,-0.1361769,-0.2504803
1.037113,-0.1146094,-0.243434
1.022706,-0.09622721,-0.2295493
1.011459,-0.08270272,-0.1803616
1.019148,-0.04937288,-0.1440756
1.029206,-0.04120947,-0.1404458
1.024681,-0.02545696,-0.1111995
1.01819,-0.001976432,-0.06984294
1.016176,0.00538849,-0.04568648
1.022575,0.01547977,-0.05412896
1.031255,0.00848137,-0.08186702
1.018182,0.008325307,-0.08339399
1.003541,0.01852382,-0.05618466
1.012831,0.01221451,-0.02085293
1.02345,0.0130462,-0.01225303
1.028296,0.007494089,-0.01774242
1.02676,0.001901128,0.004785776
1.01887,0.006881681,0.0107393
1.024112,-0.004406473,-0.002469404
1.0278,-0.01599326,-0.003286413
1.022382,-0.01911281,-0.01051247
1.02388,-0.009791882,0.0006949118
1.021259,0.0155492,0.01830022
1.020041,0.03637143,0.01161687
1.026833,0.04420022,0.01203677
1.02698,0.04003019,0.01793704
1.019973,0.04929003,0.02117443
1.008768,0.06484804,0.02513044
1.005523,0.05588446,0.02527194
1.007868,0.05030132,0.02952663
0.9963356,0.0510323,0.03542882
0.9873851,0.04488001,0.04639045
1.002838,0.05429983,0.0626468
1.037812,0.06897817,0.06656828
1.061475,0.0696519,0.0519743
1.046348,0.06526188,0.03209578
1.025764,0.05923382,0.02608206
1.028143,0.05178598,0.02980945
1.027047,0.05359787,0.02982787
1.022237,0.06219387,0.02871004
1.023347,0.06766912,0.03013187
1.017689,0.07328986,0.02976095
1.019036,0.07545017,0.02256964
1.026482,0.07815208,0.01454147
1.025228,0.08572097,0.01439017
1.024383,0.08547186,0.0214958
1.019479,0.08675749,0.03280318
1.017502,0.08991029,0.04230571
1.021323,0.08528648,0.03871988
1.017368,0.0854171,0.02704276
1.017966,0.08192217,0.02557927
1.019772,0.07344677,0.03594465
1.018615,0.07073266,0.05064954
1.020553,0.06636885,0.0558754
1.018691,0.06672551,0.05167331
1.019475,0.06565803,0.05640294
1.019899,0.05726721,0.05702071
1.017611,0.0585159,0.05132404
1.018244,0.06404605,0.05339743
1.015772,0.06776502,0.05050159
1.01482,0.06972097,0.04797983
1.01582,0.06776053,0.04930394
1.016985,0.06890642,0.04720249
1.019913,0.06847492,0.04659983
1.019708,0.0675093,0.04367849
1.020191,0.0717749,0.04580892
1.021092,0.0737138,0.05378026
1.019819,0.07385328,0.05613779
1.019237,0.07386862,0.05426615
1.019208,0.07427744,0.04910348
1.01997,0.07660847,0.04661078
1.020375,0.07655372,0.0421949
1.021665,0.07618855,0.03244145
1.021698,0.0766055,0.03186705
1.018148,0.0758111,0.03923373
1.016594,0.07476812,0.0474383
1.016561,0.0728388,0.04986324
1.01695,0.0724175,0.04674817
1.018854,0.07236761,0.04810031
1.020477,0.07064238,0.04834918
1.020545,0.06974894,0.04727647
1.018892,0.06827297,0.04722059
1.019191,0.06756331,0.04153596
1.02002,0.06855446,0.03791314
1.019183,0.06920222,0.04324368
1.020267,0.0714502,0.0490844
1.020394,0.0722973,0.04755085
1.018794,0.06850318,0.04597784
1.018142,0.06537663,0.04824485
1.016189,0.06697124,0.04640382
1.014523,0.07084013,0.04342635
1.015439,0.07475204,0.03938613
1.017068,0.07772102,0.03562893
1.019894,0.07537344,0.03923936
1.024432,0.0691675,0.04122173
1.025951,0.06586266,0.03961624
1.023505,0.06777229,0.03880947
1.022103,0.07245051,0.03693213
1.021305,0.07406637,0.03591065
1.019855,0.07566915,0.0347278
1.018245,0.07790088,0.03809479
1.016326,0.07572897,0.04687205
1.017978,0.07705794,0.05026113
1.02071,0.07825769,0.04837563
1.019325,0.07332374,0.04558709
1.018708,0.07094466,0.04341017
1.018957,0.06980272,0.04313076
1.01682,0.07026789,0.04345539
1.016708,0.07287981,0.0420191
1.017128,0.07221297,0.04084777
1.015551,0.06994685,0.04575181
1.017039,0.06791554,0.05103681
1.020102,0.06802523,0.05348876
1.021117,0.06948472,0.0540452
1.021189,0.0715152,0.04641135
1.020525,0.07396618,0.04218087
1.020413,0.07263349,0.05125759
1.019377,0.0681276,0.05971241
1.016826,0.06375658,0.05676665
1.016179,0.06484283,0.04952752
1.015977,0.06849764,0.0492403
1.018178,0.06710928,0.05395052
1.022325,0.06452208,0.0611008
1.019739,0.06209722,0.06518071
1.015333,0.06490159,0.06241695
1.015579,0.07518323,0.05628801
1.01715,0.07950104,0.04498437
1.020684,0.07584546,0.04472105
1.022718,0.07184959,0.05239081
1.021868,0.07166492,0.05060022
1.022105,0.07347078,0.05425866
1.02043,0.07512741,0.05174147
1.018671,0.08085423,0.04032003
1.019563,0.08350111,0.04173066
1.019768,0.07979186,0.04353042
1.02023,0.07755041,0.04633504
1.020938,0.07577973,0.0507256
1.019709,0.07510162,0.04734303
1.017201,0.0726209,0.04578315
1.01675,0.06763154,0.04551638
1.02073,0.06895949,0.05077857
1.025238,0.07071261,0.05878336
1.025462,0.06862993,0.05579714
1.021779,0.07052897,0.05498479
1.01719,0.07530941,0.06212304
1.014246,0.07903213,0.0653432
1.015662,0.07960088,0.06257791
1.017966,0.07789889,0.05612668
1.016241,0.07780266,0.05090044
1.017141,0.07603906,0.05152011
1.021883,0.07448278,0.05126645
1.024213,0.07544536,0.04630601
1.023061,0.07273989,0.04645996
1.018999,0.0721683,0.0494165
1.017078,0.07631954,0.04886459
1.016377,0.07867558,0.05258966
1.014181,0.07914251,0.05742207
1.014175,0.07718536,0.05716214
1.014441,0.07508348,0.05590003
1.015547,0.07359208,0.05548104
1.016207,0.07559837,0.05742263
1.016222,0.08085578,0.05908688
1.019309,0.08008889,0.05823665
1.019196,0.07964705,0.0581657
1.01881,0.0791251,0.05844316
1.020223,0.07278454,0.05834753
1.017938,0.07103271,0.05863575
1.01798,0.07213349,0.06012121
1.019285,0.07380288,0.06066639
1.019154,0.07867831,0.05584271
1.019009,0.08111113,0.05171389
1.017375,0.080184,0.05714367
1.018569,0.07716456,0.06378394
1.021195,0.07396822,0.0607053
1.022166,0.07374333,0.05640198
1.02108,0.07817611,0.05805233
1.018225,0.08218353,0.06223151
1.019368,0.07967914,0.06620537
1.020252,0.07773305,0.06144417
1.01865,0.07738923,0.05172901
1.019444,0.07319086,0.05039467
1.017787,0.07127642,0.05365928
1.01606,0.07450245,0.05885144
1.018861,0.07734106,0.06467252
1.020852,0.07908748,0.06446186
1.020067,0.08056603,0.06230805
1.018061,0.07739427,0.06292554
1.017823,0.07319883,0.06526653
1.019435,0.0756667,0.06728011
1.020483,0.0794898,0.0660705
1.021206,0.08052036,0.06407766
1.020815,0.07921861,0.06310186
1.020438,0.07560493,0.05963219
1.020188,0.07497794,0.05686912
1.019026,0.07588016,0.05863543
1.019344,0.07614567,0.05883952
1.019749,0.07860587,0.0582075
1.019209,0.07783401,0.06140305
1.019513,0.07508632,0.0633095
1.01951,0.07513375,0.06255983
1.019329,0.07481607,0.06221272
1.019002,0.0761781,0.06166841
1.016728,0.07785286,0.05823256
1.014801,0.07765202,0.05446615
1.016786,0.07808801,0.05782569
1.018827,0.07755409,0.06148574
1.016197,0.07772975,0.05769479
1.014728,0.07860746,0.05372196
1.018281,0.0797279,0.05143438
1.020476,0.08159833,0.05049579
1.019417,0.08067877,0.05197926
1.018519,0.08149055,0.05197257
1.017018,0.08280355,0.05431714
1.01504,0.07939268,0.0604408
1.017413,0.07819185,0.06192293
1.020913,0.07796786,0.05905281
1.018507,0.07630249,0.05754929
1.016934,0.07691449,0.05833469
1.018787,0.07572375,0.05947867
1.018099,0.07409249,0.06152958
1.018489,0.07568169,0.06469997
1.019243,0.07696287,0.06273306
1.017558,0.07762033,0.05941727
1.017874,0.07645738,0.06155569
1.018609,0.07433459,0.06250809
1.018701,0.07668417,0.06480917
1.019768,0.07897146,0.06994449
1.019089,0.07708336,0.06777416
1.016462,0.07555071,0.06177772
1.014617,0.07397417,0.05514453
1.015172,0.07338123,0.04921677
1.017013,0.07737748,0.05465913
1.018543,0.082271,0.06356558
1.019935,0.08440018,0.06432307
1.020104,0.08328386,0.06281583
1.020708,0.08158537,0.06025301
1.023031,0.08126799,0.05916937
1.022193,0.0798033,0.06206173
1.019328,0.07816681,0.06288958
1.017637,0.07598063,0.06167581
1.016207,0.07382539,0.05883324
1.018346,0.07529176,0.05850377
1.020446,0.07542311,0.06367138
1.017992,0.07507698,0.06376961
1.016699,0.0792016,0.06102986
1.017015,0.08243866,0.06298488
1.018252,0.08244655,0.06241487
1.020241,0.08119779,0.05870028
1.019335,0.08023788,0.05623265
1.017765,0.07975569,0.05484896
1.016333,0.07932039,0.05650179
1.014537,0.0795579,0.0576051
1.015173,0.07898485,0.05552858
1.015744,0.07995043,0.05536307
1.015822,0.08133027,0.05605504
1.019794,0.07941106,0.0571656
1.023585,0.07702879,0.05786039
1.021453,0.07414596,0.05209347
1.01877,0.0742017,0.0465348
1.019579,0.07617949,0.04976942
1.019637,0.07474591,0.05606411
1.018763,0.07662304,0.06050361
1.017736,0.07895956,0.06330756
1.015159,0.07732617,0.05914551
1.014674,0.07773484,0.04998432
1.015976,0.07853374,0.04769842
1.016167,0.08023354,0.05200556
1.017904,0.0825767,0.05719922
1.019568,0.08036919,0.05832834
1.019394,0.0782235,0.05634604
1.019563,0.08016547,0.05967587
1.018851,0.0809484,0.06173107
1.016697,0.07823709,0.05898913
1.014792,0.07626112,0.05714602
1.016054,0.07619797,0.05555295
1.019432,0.07640941,0.05959908
1.019448,0.07653741,0.0631578
1.017452,0.07658798,0.05437234
1.016446,0.07821782,0.04694918
1.0172,0.0796293,0.05164734
1.018845,0.07831609,0.05462365
1.017963,0.07724331,0.0499972
1.017646,0.07780762,0.04981992
1.018389,0.07767431,0.05431848
1.016846,0.07576948,0.05660462
1.016589,0.07448469,0.05784083
1.017671,0.07493005,0.05822269
1.018232,0.07521344,0.05865162
1.017948,0.07493718,0.0583842
1.016278,0.07472054,0.05788489
1.017215,0.07424238,0.05795522
1.021167,0.07435691,0.05362213
1.023049,0.07879886,0.04970087
1.020405,0.08428067,0.05038452
1.017713,0.08396937,0.05048146
1.017156,0.0831298,0.05056064
1.015247,0.08352001,0.05130185
1.017159,0.08016082,0.04994547
1.020741,0.07804532,0.04819718
1.016617,0.07796341,0.05115632
1.013473,0.07472917,0.05553373
1.015091,0.07170917,0.05873734
1.014914,0.07222367,0.06434901
1.016294,0.07439073,0.06590938
1.019284,0.07512297,0.0658401
1.019758,0.07321891,0.06835925
1.019416,0.07153603,0.06195876
1.019394,0.07223472,0.05635525
1.019426,0.07411587,0.06404477
1.019348,0.07684189,0.06912862
1.018123,0.08128572,0.06544596
1.016002,0.08247697,0.06375559
1.014685,0.07786578,0.06382421
1.015187,0.07568421,0.06005979
1.015655,0.07904525,0.057565
1.015555,0.08114029,0.05857678
1.01831,0.07706079,0.05699111
1.022246,0.07384887,0.05466401
1.021967,0.07878738,0.05443795
1.017479,0.08235751,0.05648796
1.013816,0.07987585,0.05962888
1.014948,0.07828425,0.05901224
1.016215,0.07753861,0.06018528
1.015071,0.07653401,0.06403734
1.017358,0.07726753,0.06257153
1.020835,0.0807764,0.06168761
1.021135,0.08398227,0.06391744
1.020491,0.08038584,0.06672592
1.01891,0.07555373,0.07344754
1.017717,0.07788097,0.07498223
1.019043,0.07923826,0.06210368
1.020831,0.07847242,0.04649093
1.020969,0.08098542,0.04426374
1.019744,0.0783746,0.05553494
1.019191,0.07468307,0.06688539
1.019439,0.07776991,0.06997457
1.018975,0.07882969,0.0679406
1.016776,0.07921625,0.06739701
1.014375,0.08221997,0.06959984
1.015039,0.08222211,0.06828893
1.01589,0.08069535,0.06191398
1.014902,0.0803407,0.05722729
1.015623,0.08057368,0.06102207
1.017494,0.08045522,0.06751375
1.019227,0.07940888,0.06574216
1.020067,0.07804086,0.0656971
1.019161,0.07774176,0.06998536
1.01949,0.07984295,0.06727167
1.020668,0.08193222,0.06525754
1.020113,0.08155139,0.06394938
1.017458,0.08079389,0.06130694
1.014612,0.08119402,0.06480524
1.017432,0.08056435,0.06547149
1.021148,0.07911248,0.06119003
1.017893,0.07956176,0.05850647
1.015287,0.08095504,0.05737932
1.015475,0.08233394,0.05730325
1.015167,0.08187133,0.05705131
1.01753,0.07865696,0.06099771
1.01959,0.07719355,0.06548761
1.019564,0.07803115,0.06412022
1.019351,0.07974137,0.06362632
1.01833,0.08046957,0.06553243
1.01812,0.07692627,0.06594644
1.018864,0.07371906,0.06497088
1.019742,0.07511424,0.06477424
1.019686,0.07804447,0.06161938
1.019022,0.08064823,0.05619782
1.019524,0.08207076,0.05860777
1.018585,0.07874424,0.06007416
1.017175,0.07432042,0.05663241
1.017,0.0758885,0.05919198
1.017418,0.07746895,0.06057276
1.019975,0.07746211,0.05969118
1.020447,0.07984708,0.06048864
1.019418,0.08086495,0.05896348
1.021418,0.08212024,0.06000055
1.021054,0.08119083,0.06099974
1.0192,0.07667742,0.05986598
1.01968,0.07650578,0.06120724
1.019278,0.07906769,0.06185413
1.01936,0.08135714,0.0625033
1.019745,0.08096467,0.06073623
1.019114,0.07845592,0.05664605
1.019628,0.0786025,0.05659545
1.018946,0.07768057,0.05558525
1.017091,0.07817222,0.05249632
1.017223,0.08041153,0.05179395
1.019033,0.07959172,0.05628954
1.019499,0.08072553,0.06197228
1.017688,0.08126483,0.05870244
1.017223,0.08076113,0.05484989
1.016619,0.08266195,0.05625431
1.016243,0.08144277,0.05646257
1.018249,0.07883654,0.05930594
1.018219,0.07722653,0.06273488
1.019175,0.07630322,0.06346166
1.02186,0.07678333,0.06438556
1.022057,0.07608286,0.06520128
1.020246,0.07630824,0.07081706
1.016384,0.07695721,0.07645026
1.016936,0.07703249,0.07005303
1.020901,0.07935228,0.06167141
1.020398,0.08048914,0.06079172
1.019561,0.07993609,0.05791781
1.019454,0.07818553,0.05537681
1.018275,0.07564689,0.0594569
1.017892,0.07792976,0.06216362
1.018368,0.08029739,0.06446617
1.019942,0.07793243,0.06830047
1.020968,0.07718699,0.06900721
1.019251,0.07794105,0.06646595
1.017144,0.07683545,0.06130513
1.018341,0.07583816,0.0615876
1.020219,0.07496576,0.06441986
1.020009,0.07219901,0.06320303
1.019523,0.06979924,0.06597904
1.018915,0.07072081,0.06576114
1.018479,0.0714294,0.06212696
1.017129,0.07040231,0.0629477
1.016084,0.07158057,0.06204008
1.01882,0.07555755,0.06179326
1.022886,0.08162693,0.0594437
1.025223,0.08513889,0.0551075
1.020882,0.08214517,0.05710483
1.013738,0.0808864,0.05759397
1.014947,0.08271881,0.05629379
1.017246,0.08174244,0.05638318
1.016128,0.08171193,0.05243483
1.016867,0.08216275,0.0485453
1.015751,0.08054309,0.0508136
1.015059,0.07953223,0.05741336
1.017564,0.078302,0.06186142
1.019369,0.07623682,0.06118788
1.019938,0.07359181,0.0592517
1.018675,0.07291031,0.05944819
1.016628,0.0751423,0.05869671
1.014799,0.07505629,0.05668112
1.01464,0.07381597,0.0563244
1.016404,0.07379799,0.05374722
1.017174,0.07490837,0.05427153
1.020063,0.07929229,0.05909025
1.021995,0.08263831,0.05790239
1.019268,0.08220313,0.05627536
1.019106,0.08110202,0.05560916
1.019809,0.07928085,0.0549798
1.019135,0.07715597,0.05846163
1.01967,0.07726227,0.059631
1.019342,0.07862287,0.06089368
1.019582,0.07813446,0.06256825
1.020497,0.07731678,0.06106784
1.020898,0.07647909,0.0604048
1.021116,0.07541667,0.05966137
1.020543,0.0760518,0.06249093
1.020728,0.07482656,0.06637797
1.019562,0.0743026,0.06608144
1.016228,0.07640056,0.06612378
1.015111,0.07757261,0.06240044
1.017756,0.08166379,0.05524068
1.020726,0.08332243,0.05389138
1.019393,0.08040165,0.06054962
1.017926,0.07955508,0.06631609
1.01935,0.07722275,0.06309155
1.019431,0.07677585,0.06093199
1.019497,0.07797333,0.06324321
1.019756,0.07554591,0.06141462
1.019858,0.07617918,0.05926474
1.020683,0.07711117,0.05897796
1.019875,0.07573236,0.05808009
1.019795,0.0766744,0.06024122
1.019842,0.07648868,0.06566407
1.018799,0.0760671,0.068798
1.019586,0.07726227,0.06467708
1.018522,0.07886376,0.05853533
1.016464,0.08139393,0.05924573
1.016522,0.08118325,0.06134755
1.015673,0.08063334,0.06172361
1.015588,0.08268864,0.06299535
1.017941,0.08138452,0.06244687
1.019738,0.07779076,0.06661956
1.017186,0.07616007,0.07064739
1.013682,0.07756614,0.06451255
1.015897,0.08059072,0.06270642
1.018731,0.08015434,0.06478477
1.019472,0.08051073,0.06298268
1.0203,0.08414926,0.06381574
1.019828,0.08431713,0.06365055
1.020677,0.08098242,0.06399662
1.019669,0.07604839,0.06542197
1.016548,0.07421734,0.06468126
1.017364,0.07653707,0.06632098
1.017267,0.07832157,0.06687046
1.01769,0.08236981,0.06814741
1.02027,0.08270842,0.06873818
1.017676,0.07787594,0.06509968
1.015315,0.07756534,0.06527374
1.016166,0.07736253,0.06478981
1.015146,0.07639681,0.06223136
1.015262,0.07776985,0.06093649
1.017433,0.08010589,0.06017153
1.018836,0.08191325,0.06202809
1.01996,0.0798634,0.06202187
1.021131,0.08021134,0.06586527
1.020787,0.08150735,0.071469
1.018533,0.07964807,0.06578879
1.016854,0.08096099,0.05860601
1.017432,0.08039834,0.05577818
1.019297,0.07816307,0.05492081
1.019958,0.07773096,0.05741386
1.019182,0.07639716,0.060102
1.019219,0.07768528,0.06285966
1.018759,0.07889043,0.06402685
1.01758,0.07905392,0.0632475
1.018223,0.07872325,0.06238368
1.019187,0.07690811,0.060497
1.019502,0.07800668,0.06074841
1.019639,0.07807767,0.06265256
1.019265,0.07725201,0.06519777
1.019463,0.07825019,0.06920294
1.019922,0.07752863,0.06746914
1.021072,0.07776117,0.06233798
1.022515,0.07799816,0.06191428
1.020284,0.07765182,0.06029378
1.016447,0.07929144,0.05573138
1.01532,0.0810899,0.05221445
1.015744,0.08186663,0.05247985
1.017861,0.07833512,0.06230632
1.020231,0.07372507,0.07173481
1.018261,0.073815,0.06809117
1.01445,0.07412487,0.06232706
1.014079,0.0745885,0.06240961
1.017379,0.07850728,0.06131671
1.020756,0.08197513,0.05948054
1.019665,0.08183972,0.05902151
1.017193,0.07913216,0.05771051
1.016613,0.07686119,0.05818958
1.014695,0.07757026,0.05841647
1.01528,0.07803135,0.05984334
1.018847,0.07560858,0.06758298
1.019883,0.0749583,0.07101341
1.020644,0.07777023,0.06642379
1.020746,0.08006897,0.06389408
1.019801,0.07946166,0.06542886
1.019645,0.07848611,0.06589955
1.019915,0.07935431,0.06429141
1.021631,0.07840513,0.06404643
1.02186,0.07707459,0.0636443
1.021918,0.07808754,0.06369016
1.022373,0.07780323,0.06480695
1.019045,0.07757593,0.06479664
1.017269,0.07802049,0.06593741
1.018101,0.07740747,0.064904
1.01835,0.07697638,0.06284177
1.019033,0.07631179,0.06224905
1.019467,0.07707415,0.05910223
1.019759,0.07875252,0.05859808
1.01941,0.07944883,0.06205522
1.020052,0.08055837,0.06576809
1.020922,0.07920867,0.06639034
1.020158,0.07669036,0.06372405
1.019786,0.07759944,0.06390377
1.016935,0.07744161,0.06240824
1.016043,0.07561243,0.06173898
1.021133,0.07661863,0.06552363
1.022735,0.07765478,0.06435629
1.019448,0.07764611,0.06077674
1.017017,0.07773317,0.05732481
1.017962,0.07581599,0.05770647
1.019749,0.07437264,0.06265761
1.019189,0.07539342,0.06251681
1.019519,0.07659562,0.0615881
1.019678,0.07645199,0.05844396
1.019029,0.07427571,0.05433894
1.019799,0.07265072,0.06035705
1.01933,0.07228552,0.06623442
1.01947,0.07235623,0.06751472
1.020473,0.0751078,0.06981299
1.020079,0.0769982,0.06868634
1.020171,0.07458762,0.06429958
1.01973,0.0728975,0.06171685
1.01853,0.07488137,0.06059781
1.017637,0.07746985,0.0580724
1.017906,0.07810514,0.0569292
1.018512,0.07816424,0.05748944
1.017691,0.07892977,0.05837558
1.018106,0.07822129,0.05999406
1.018125,0.07501762,0.05723817
1.016964,0.07404846,0.05447138
1.017594,0.07699756,0.05753224
1.018111,0.07869333,0.05932458
1.018089,0.08011398,0.05812693
1.017093,0.08075296,0.05804126
1.016552,0.07646969,0.05919023
1.018677,0.07383512,0.06109775
1.019947,0.07485573,0.06406904
1.019595,0.07441215,0.06454981
1.019159,0.07326036,0.06228141
1.019487,0.07348754,0.06309693
1.018961,0.07548662,0.06628125
1.015553,0.07813979,0.06851775
1.013355,0.08167628,0.06606416
1.015443,0.08318991,0.05928803
1.018914,0.08180744,0.05785579
1.019297,0.08171459,0.06211972
1.018852,0.07938193,0.06530582
1.019191,0.0772917,0.06520459
1.017432,0.07899819,0.06489001
1.017997,0.07815512,0.06776509
1.019627,0.07637512,0.06819016
1.019099,0.07531702,0.0659318
1.019818,0.07469053,0.06469344
1.018825,0.07635084,0.06299618
1.016495,0.0775102,0.06248289
1.015091,0.0785672,0.06221759
1.015457,0.08056739,0.06196642
1.017728,0.08244701,0.06022113
1.016924,0.08254852,0.05697917
1.018018,0.08049956,0.05869856
1.021653,0.07859291,0.0607983
1.020833,0.07562548,0.0609662
1.02003,0.07575382,0.06152382
1.018467,0.07945416,0.05976712
1.015576,0.07899615,0.06035533
1.016351,0.07813307,0.06443488
1.016686,0.07773518,0.06794824
1.015902,0.07640991,0.06851566
1.016533,0.07744418,0.0680391
1.016724,0.07670303,0.06978735
1.016833,0.07522091,0.06702553
1.017484,-0.02850088,-0.1381753
1.01922,-0.02770163,-0.1413255
1.019356,-0.03066691,-0.1439521
1.017745,-0.02637066,-0.1450426
1.01572,-0.01825656,-0.1461013
1.015661,-0.01002833,-0.1508412
1.015706,-0.01346251,-0.1524698
1.015798,-0.02681042,-0.1497532
1.018725,-0.03105822,-0.1499394
1.021138,-0.02939357,-0.1501847
1.022285,-0.02868073,-0.1506507
1.020471,-0.02996045,-0.1493752
1.015151,-0.03587653,-0.1411306
1.012544,-0.04169512,-0.1332067
1.011403,-0.04619263,-0.1334242
1.011088,-0.04809815,-0.1364031
1.014306,-0.04791756,-0.1358999
1.016949,-0.0456433,-0.1404052
1.016914,-0.04023099,-0.1495951
1.014786,-0.04139624,-0.1529076
1.011327,-0.04375242,-0.153359
1.008848,-0.04207564,-0.1522683
1.009216,-0.04280341,-0.1510916
1.01125,-0.04124392,-0.1522743
1.012979,-0.04119091,-0.151417
1.016421,-0.04252926,-0.1480383
1.018097,-0.04076476,-0.1417819
1.016913,-0.0405401,-0.1370908
1.01704,-0.03746171,-0.1375589
1.015233,-0.03494968,-0.1402155
1.017246,-0.03736197,-0.1420097
1.02246,-0.03795544,-0.137131
1.01993,-0.03683687,-0.1327348
1.016501,-0.03488602,-0.1352621
1.014088,-0.03351999,-0.1370963
1.013266,-0.03470291,-0.137796
1.018484,-0.03582741,-0.1391518
1.020391,-0.03761852,-0.1421757
1.018764,-0.04223868,-0.1467119
1.016747,-0.04458663,-0.14711
1.014614,-0.04190712,-0.1416564
1.017272,-0.04009488,-0.1369272
1.020055,-0.03908578,-0.1388055
1.020478,-0.03979055,-0.1408893
1.020265,-0.04306482,-0.1397995
1.017301,-0.04133561,-0.1404243
1.014535,-0.03900894,-0.140499
1.016551,-0.03925656,-0.1398948
1.019535,-0.03767652,-0.1414639
1.017484,-0.03708203,-0.1446759
1.015408,-0.03681413,-0.1484447
1.014689,-0.03879283,-0.1463875
1.013084,-0.04077853,-0.1374068
1.015794,-0.0394472,-0.1307138
1.019514,-0.04213786,-0.1313589
1.020987,-0.04181311,-0.1349423
1.019479,-0.038506,-0.1342268
1.01478,-0.04109681,-0.1352655
1.014989,-0.04084282,-0.1390263
1.016987,-0.04126441,-0.1335062
1.017451,-0.04392618,-0.1310102
1.019499,-0.0400525,-0.1396578
1.018479,-0.03772637,-0.145341
1.016693,-0.03908688,-0.1463534
1.01675,-0.03910499,-0.1449775
1.017521,-0.03914602,-0.1436034
1.019567,-0.04052425,-0.1399777
1.01908,-0.04246806,-0.1315389
1.016613,-0.04136759,-0.1278612
1.014618,-0.0394123,-0.1305598
1.015127,-0.03877787,-0.1371946
1.018215,-0.03847182,-0.1421094
1.020177,-0.03945816,-0.142989
1.022141,-0.0404484,-0.1459054
1.021717,-0.04385738,-0.1448204
1.018535,-0.04686607,-0.1394965
1.016716,-0.04310789,-0.1353521
1.014567,-0.04017565,-0.1335023
1.014804,-0.04192927,-0.1359385
1.01611,-0.04247222,-0.1384597
1.014761,-0.04298711,-0.1405557
1.015286,-0.04513443,-0.1393623
1.015802,-0.04428402,-0.1362001
1.015747,-0.04107305,-0.1395653
1.017224,-0.03986356,-0.1414817
1.016717,-0.04000946,-0.1396509
1.016501,-0.04072671,-0.1394896
1.017886,-0.0412542,-0.1359523
1.018348,-0.04159255,-0.1321444
1.019398,-0.04210844,-0.1354321
1.021412,-0.04134775,-0.1412012
1.022486,-0.04143813,-0.1424802
1.020218,-0.04076429,-0.1416575
1.016653,-0.03780932,-0.1424915
1.01623,-0.03709621,-0.1433391
1.017212,-0.03750411,-0.1428817
1.018444,-0.03758753,-0.1413618
1.019981,-0.0379215,-0.1412193
1.019271,-0.03906929,-0.1416008
1.017287,-0.04051534,-0.1391992
1.016312,-0.03753635,-0.1381479
1.016677,-0.03407862,-0.1402023
1.017817,-0.0354388,-0.140538
1.018253,-0.03675088,-0.1390955
1.018052,-0.03603762,-0.1393956
1.018371,-0.03586385,-0.1424527
1.019843,-0.03598873,-0.1446868
1.021055,-0.03427411,-0.1400873
1.019235,-0.03266153,-0.1334179
1.017445,-0.0333154,-0.1344854
1.019867,-0.03360031,-0.1375085
1.021125,-0.03316467,-0.1372132
1.017057,-0.03297017,-0.1365883
1.0139,-0.03164055,-0.1338984
1.015367,-0.0304747,-0.1324863
1.016847,-0.03354987,-0.1339097
1.016308,-0.03906412,-0.1341763
1.01586,-0.04152759,-0.1347143
1.015126,-0.04186914,-0.1337237
1.014925,-0.0418136,-0.1302085
1.015689,-0.04052044,-0.1263742
1.015486,-0.03714876,-0.1229763
1.017441,-0.03252373,-0.1240119
1.021597,-0.03235569,-0.1288904
1.022443,-0.03461398,-0.1325131
1.019196,-0.03365859,-0.1326834
1.015116,-0.03412956,-0.1312629
1.014774,-0.0352327,-0.1318374
1.016869,-0.03386646,-0.1314596
1.01766,-0.03257384,-0.129607
1.018,-0.03117131,-0.1298262
1.016355,-0.0319316,-0.1293351
1.014977,-0.03259214,-0.1301003
1.018009,-0.03121758,-0.1340077
1.020565,-0.03229896,-0.1358015
1.019692,-0.03209459,-0.135612
1.020131,-0.03162576,-0.1333479
1.023276,-0.033568,-0.1294728
1.023753,-0.03432988,-0.1290462
1.020631,-0.03584207,-0.1280002
1.01847,-0.03564613,-0.123968
1.018304,-0.0340619,-0.1270264
1.018147,-0.03489518,-0.1351345
1.016286,-0.03443017,-0.1364574
1.013729,-0.03246182,-0.1323847
1.012769,-0.02972757,-0.1274512
1.017193,-0.0282886,-0.1238615
1.025109,-0.02948954,-0.1221952
1.026159,-0.02928222,-0.1230766
1.023224,-0.02909371,-0.1289922
1.023398,-0.03025041,-0.1281839
1.021496,-0.03093139,-0.119658
1.015658,-0.03154771,-0.1196756
1.010958,-0.03293895,-0.1229651
1.013557,-0.03694675,-0.1221729
1.017366,-0.04152848,-0.1223747
1.01516,-0.04076576,-0.1240085
1.017355,-0.03659186,-0.1246405
1.021298,-0.03516243,-0.123414
1.019002,-0.03217464,-0.1237937
1.019006,-0.02722733,-0.1266256
1.020072,-0.02882771,-0.1286838
1.019021,-0.03045189,-0.1287293
1.019216,-0.028544,-0.1282021
1.017745,-0.03168531,-0.1287915
1.016658,-0.03577808,-0.1293664
1.020191,-0.03739922,-0.1302096
1.023629,-0.0381491,-0.1311856
1.022294,-0.03687885,-0.1326114
1.019905,-0.03660638,-0.1353423
1.01847,-0.03617175,-0.1354138
1.016115,-0.03522763,-0.1349011
1.017903,-0.0348211,-0.1389759
1.020836,-0.03227336,-0.1404791
1.018129,-0.03095777,-0.1327846
1.017336,-0.02990989,-0.1264017
1.018478,-0.02813228,-0.1286912
1.016855,-0.02991311,-0.1286738
1.016439,-0.03123992,-0.1249164
1.017045,-0.03189825,-0.1260729
1.018456,-0.03230542,-0.1264108
1.020085,-0.02954481,-0.1239488
1.01949,-0.02906071,-0.1251034
1.01864,-0.03148866,-0.1269389
1.016925,-0.03413898,-0.1315356
1.015002,-0.03496406,-0.1384692
1.017734,-0.03077587,-0.1351895
1.021831,-0.02878629,-0.12804
1.021144,-0.03363696,-0.127845
1.019937,-0.03772976,-0.1292984
1.01975,-0.03519358,-0.132262
1.01549,-0.03147066,-0.1364971
1.013168,-0.03191726,-0.1384565
1.017796,-0.03125337,-0.1344304
1.021674,-0.03085476,-0.1263009
1.020307,-0.03261046,-0.1286066
1.018122,-0.03184658,-0.1339557
1.017908,-0.03175295,-0.130913
1.016628,-0.03185591,-0.1309487
1.01684,-0.0302686,-0.1309876
1.019638,-0.030767,-0.1295772
1.020031,-0.033436,-0.1308865
1.019534,-0.03601074,-0.1275401
1.016402,-0.03588858,-0.1260444
1.013359,-0.03429677,-0.1311217
1.01626,-0.03258643,-0.1375091
1.016962,-0.03104127,-0.1398716
1.017718,-0.03068485,-0.1326971
1.020962,-0.03024911,-0.123807
1.019127,-0.03197687,-0.1208932
1.018893,-0.03433143,-0.1237819
1.020248,-0.03479951,-0.1269942
1.018674,-0.03464565,-0.1265737
1.018742,-0.03145211,-0.1297161
1.018134,-0.0290067,-0.1326166
1.018475,-0.02970519,-0.1324111
1.02065,-0.03026676,-0.1344917
1.021008,-0.03088232,-0.1294
1.022551,-0.03118678,-0.1200525
1.022609,-0.03157596,-0.1211672
1.020457,-0.0311275,-0.1288405
1.019994,-0.03118379,-0.1326305
1.018275,-0.03241827,-0.1258702
1.014743,-0.03145726,-0.1161994
1.011926,-0.03012151,-0.1184136
1.013799,-0.02911191,-0.1261484
1.019057,-0.03052319,-0.1305175
1.020077,-0.03315977,-0.1318087
1.020185,-0.03156977,-0.1288829
1.021739,-0.03062616,-0.1288941
1.021951,-0.03063064,-0.1318369
1.022814,-0.02922081,-0.1316327
1.02154,-0.02900807,-0.1300458
1.018915,-0.02779849,-0.1229965
1.017225,-0.0257257,-0.1167992
1.016632,-0.02450573,-0.1205064
1.01981,-0.02476212,-0.1261787
1.02043,-0.02567103,-0.1305162
1.020002,-0.02595516,-0.1314113
1.022006,-0.02804435,-0.128063
1.0203,-0.02867099,-0.1269798
1.020158,-0.02749983,-0.1269504
1.020205,-0.03026218,-0.1252492
1.018532,-0.03170999,-0.124874
1.022248,-0.02967519,-0.1269585
1.024787,-0.02965216,-0.1284201
1.024815,-0.02967741,-0.1269165
1.024131,-0.03075989,-0.1230282
1.020062,-0.03469315,-0.1196397
1.018728,-0.0354473,-0.1212255
1.018865,-0.03299429,-0.1265518
1.015897,-0.02861828,-0.1305371
1.013088,-0.02332191,-0.1314119
1.014482,-0.02572281,-0.1307601
1.018348,-0.03201587,-0.132951
1.017944,-0.03302485,-0.1351285
1.01592,-0.03252668,-0.1302915
1.015516,-0.03078965,-0.1257402
1.016461,-0.02875995,-0.1278383
1.019025,-0.0294673,-0.1286185
1.01727,-0.02919929,-0.1271023
1.015926,-0.02973041,-0.1278987
1.019533,-0.03031838,-0.1278918
1.021221,-0.0285962,-0.1261495
1.021,-0.02907502,-0.1243622
1.019079,-0.02952023,-0.1220971
1.018816,-0.02902725,-0.1217441
1.021294,-0.03023261,-0.1221217
1.020504,-0.0307923,-0.1193669
1.019659,-0.03043291,-0.1168093
1.018637,-0.02954483,-0.1161537
1.017397,-0.02889999,-0.1151437
1.019567,-0.0291809,-0.1145292
1.020633,-0.02938787,-0.1141274
1.020897,-0.03007104,-0.1138012
1.020587,-0.03077685,-0.1153484
1.018469,-0.03176305,-0.1161295
1.019853,-0.03573875,-0.1146216
1.02406,-0.03982863,-0.1159644
1.025633,-0.03484902,-0.1193932
1.024511,-0.0238437,-0.1209541
1.024255,-0.01806732,-0.1190802
1.021384,-0.01552775,-0.1131975
1.015101,-0.0154243,-0.1135326
1.01432,-0.02042722,-0.1247263
1.016094,-0.02594296,-0.1327038
1.016318,-0.03266819,-0.1256617
1.019088,-0.03989674,-0.1163333
1.02228,-0.04128954,-0.1215765
1.024517,-0.03975142,-0.1250506
1.025157,-0.04210848,-0.1225768
1.02226,-0.04335166,-0.1252358
1.017087,-0.03771607,-0.1179338
1.013941,-0.03285987,-0.1115915
1.016813,-0.03269221,-0.1209305
1.021269,-0.03383974,-0.1261182
1.022849,-0.03448054,-0.1233079
1.022355,-0.03413132,-0.1207161
1.020852,-0.03320824,-0.1208989
1.020689,-0.03015114,-0.1222397
1.020964,-0.02909554,-0.1265384
1.020684,-0.03079127,-0.1327802
1.020786,-0.03115006,-0.1284204
1.019891,-0.03253306,-0.1226022
1.019113,-0.03208602,-0.1243588
1.019111,-0.03132389,-0.1244336
1.017732,-0.03295158,-0.1238673
1.016274,-0.03338015,-0.1253908
1.017312,-0.0348632,-0.1292803
1.019319,-0.03349552,-0.1308568
1.020284,-0.03018323,-0.1267907
1.021266,-0.0304915,-0.1235211
1.021062,-0.02899389,-0.122741
1.019918,-0.02877187,-0.1229209
1.019807,-0.03173985,-0.1234679
1.018938,-0.03270536,-0.1266106
1.019033,-0.03467938,-0.131162
1.018241,-0.0367215,-0.133107
1.015644,-0.03486593,-0.1310193
1.017831,-0.03137135,-0.1259887
1.020172,-0.02977039,-0.1289912
1.020896,-0.03076372,-0.1328563
1.022777,-0.03174401,-0.1280575
1.020448,-0.03216946,-0.1271683
1.018414,-0.0331634,-0.1238003
1.019723,-0.03437169,-0.1184249
1.019587,-0.03439698,-0.1218153
1.019454,-0.03113035,-0.1240911
1.020373,-0.02858495,-0.1251401
1.020812,-0.03251263,-0.1264353
1.018918,-0.03621625,-0.1265614
1.01639,-0.03289616,-0.1262515
1.016201,-0.03034199,-0.1214534
1.016001,-0.03160763,-0.120471
1.015156,-0.03067857,-0.1218008
1.01615,-0.03083033,-0.1192845
1.018309,-0.03247975,-0.1213648
1.019212,-0.03002293,-0.1216522
1.019689,-0.02790471,-0.1196057
1.020554,-0.0276191,-0.1236506
1.020862,-0.02597883,-0.1268213
1.021023,-0.02689437,-0.1285397
1.02055,-0.03134302,-0.1233531
1.019842,-0.03450486,-0.1141312
1.019393,-0.03375773,-0.1183734
1.019141,-0.03269866,-0.1219104
1.019717,-0.0345759,-0.1194123
1.019425,-0.03504253,-0.1224174
1.019588,-0.03327513,-0.1233928
1.021519,-0.03233295,-0.1251292
1.022568,-0.03141239,-0.1263009
1.022465,-0.03099646,-0.123626
1.021933,-0.03058694,-0.1255488
1.022405,-0.03014948,-0.1253758
1.023376,-0.03071735,-0.1248368
1.022852,-0.02962299,-0.129408
1.020323,-0.02866473,-0.1305118
1.016977,-0.02973691,-0.1273274
1.018411,-0.03128612,-0.1229809
1.020675,-0.03422423,-0.1230116
1.017765,-0.03556155,-0.1273123
1.016663,-0.03460521,-0.129345
1.017631,-0.03496133,-0.1283651
1.01976,-0.03392243,-0.1246288
1.023512,-0.03075134,-0.1251355
1.021509,-0.0296262,-0.1285466
1.018612,-0.03013303,-0.1282984
1.020008,-0.03219478,-0.1264997
1.020303,-0.03564782,-0.1218085
1.020874,-0.0336448,-0.1222704
1.021094,-0.03008482,-0.1259561
1.019472,-0.03248531,-0.125768
1.019367,-0.03267521,-0.1280254
1.019631,-0.03191261,-0.1227839
1.020263,-0.0343013,-0.1165809
1.021273,-0.03324402,-0.1214806
1.020767,-0.03286683,-0.1234025
1.02035,-0.03356569,-0.1235101
1.019196,-0.03113178,-0.1243182
1.017589,-0.03013932,-0.1239361
1.018778,-0.03064078,-0.1266889
1.020132,-0.03160944,-0.1304033
1.018789,-0.0322741,-0.1338949
1.016508,-0.03179652,-0.1305874
1.015114,-0.03218919,-0.1232494
1.017147,-0.03281078,-0.1210202
1.02184,-0.03321876,-0.1183077
1.022766,-0.03175437,-0.1209091
1.020048,-0.02947979,-0.1280431
1.019264,-0.02985875,-0.12488
1.021133,-0.03018408,-0.1225442
1.023069,-0.03036907,-0.1258944
1.022323,-0.03081679,-0.1245214
1.021113,-0.02941772,-0.124372
1.020034,-0.02881999,-0.1229662
1.017455,-0.02931853,-0.1189974
1.019327,-0.02930892,-0.120394
1.021996,-0.03005868,-0.1205885
1.018469,-0.03084495,-0.1203205
1.016213,-0.03080732,-0.1216344
1.017146,-0.03146558,-0.1203197
1.018711,-0.03352604,-0.1208611
1.021508,-0.03556459,-0.1211682
1.021526,-0.03644453,-0.1203867
1.020072,-0.03593517,-0.1209955
1.020661,-0.03387782,-0.1198125
1.019713,-0.03195748,-0.1190938
1.018518,-0.03143347,-0.1195379
1.01978,-0.03095798,-0.1196132
1.0191,-0.02953462,-0.1202085
1.018982,-0.02914495,-0.1203028
1.02197,-0.03200864,-0.1200606
1.021989,-0.03416084,-0.1195441
1.021399,-0.03245997,-0.1175476
1.020949,-0.03125827,-0.1147858
1.017792,-0.03228947,-0.1141322
1.018403,-0.03287227,-0.115732
1.020566,-0.03244668,-0.1187495
1.019862,-0.03153007,-0.1221979
1.020074,-0.02992288,-0.1212049
1.019546,-0.02893266,-0.1199355
1.018744,-0.03011778,-0.1225056
1.018951,-0.03192845,-0.1220403
1.017728,-0.0322756,-0.1190321
1.018095,-0.0315765,-0.1139371
1.020505,-0.03122234,-0.1096399
1.021993,-0.03148239,-0.1146068
1.022506,-0.03321064,-0.1178119
1.021246,-0.03580423,-0.1107872
1.020303,-0.0355515,-0.1073915
1.020882,-0.03110765,-0.1146362
1.01996,-0.02507451,-0.1208927
1.019036,-0.0239323,-0.1184574
1.019847,-0.02766362,-0.1189582
1.021325,-0.02831235,-0.1252291
1.022715,-0.02801563,-0.125247
1.022766,-0.03061776,-0.1213568
1.023646,-0.03263209,-0.1185638
1.025374,-0.03235616,-0.1172238
1.023473,-0.03096572,-0.119355
1.02128,-0.03035236,-0.1197741
1.023241,-0.02892553,-0.1181303
1.024168,-0.02843387,-0.1180364
1.022333,-0.02980061,-0.116966
1.021599,-0.02780725,-0.1137419
1.020344,-0.02630756,-0.1098072
1.017997,-0.02697242,-0.1115786
1.017603,-0.0277373,-0.118696
1.018653,-0.030045,-0.122041
1.020082,-0.02954524,-0.1213895
1.022081,-0.02935298,-0.1201001
1.022491,-0.03145269,-0.1206461
1.020124,-0.03058417,-0.1207697
1.018964,-0.03130963,-0.1191632
1.02063,-0.03352962,-0.1198838
1.022129,-0.03342002,-0.1170363
1.022493,-0.03315343,-0.1138177
1.022143,-0.03256802,-0.1179676
1.022133,-0.03239979,-0.1212701
1.022371,-0.0323061,-0.1236611
1.022105,-0.03009837,-0.1260923
1.022264,-0.0283002,-0.1241844
1.022079,-0.02934925,-0.1208961
1.021245,-0.03034556,-0.1172259
1.020476,-0.02970137,-0.1145926
1.019765,-0.02999491,-0.1139112
1.019402,-0.03070268,-0.1143326
1.01908,-0.0304883,-0.1157294
1.018663,-0.0294548,-0.1145339
1.018037,-0.02769618,-0.1141539
1.018652,-0.02666559,-0.1195807
1.020272,-0.02615856,-0.1241349
1.020291,-0.02647594,-0.1229326
1.02078,-0.02771065,-0.1203982
1.021309,-0.02855844,-0.1201187
1.020421,-0.02871206,-0.1207915
1.020572,-0.02749132,-0.121104
1.019241,-0.02739897,-0.1204607
1.017022,-0.02793353,-0.1186298
1.017371,-0.02572162,-0.1168657
1.017447,-0.02439951,-0.1159425
1.017215,-0.02522298,-0.1159221
1.0177,-0.02602865,-0.1159889
1.018141,-0.0268029,-0.1190555
1.019228,-0.02765486,-0.1257794
1.019627,-0.02974491,-0.1269331
1.019389,-0.03109285,-0.1236805
1.019497,-0.02964225,-0.1229364
1.01919,-0.02841763,-0.1212364
1.018601,-0.02821138,-0.1200305
1.017803,-0.02681075,-0.1215603
1.018041,-0.0257664,-0.1227149
1.019264,-0.02660236,-0.1240494
1.019539,-0.02654525,-0.1249376
1.019522,-0.02609669,-0.1249911
1.01976,-0.02643588,-0.1259264
1.020791,-0.02542945,-0.1257877
1.020956,-0.02464608,-0.123539
1.018101,-0.02522712,-0.1192137
1.017347,-0.02649013,-0.1134509
1.01955,-0.02949686,-0.1132686
1.019488,-0.03215962,-0.1189035
1.017646,-0.03166081,-0.1221323
1.014345,-0.03021993,-0.1225388
1.011577,-0.03005862,-0.1204575
1.014977,-0.02960868,-0.1156834
1.021244,-0.0289946,-0.1133544
1.024157,-0.02655034,-0.1178998
1.023859,-0.02142192,-0.1285731
1.021947,-0.02010746,-0.1338723
1.020173,-0.02145016,-0.1270086
1.019088,-0.02260414,-0.1197831
1.01911,-0.02530376,-0.1207605
1.019909,-0.02568035,-0.1243052
1.019278,-0.02639765,-0.1254039
1.019251,-0.02845713,-0.1247375
1.019813,-0.02670904,-0.1220422
1.01914,-0.02489718,-0.119746
1.019538,-0.02486958,-0.1201682
1.019929,-0.02555662,-0.1208689
1.021156,-0.02777571,-0.1234795
1.023908,-0.02930837,-0.1251247
1.023785,-0.02674528,-0.1196422
1.022214,-0.02261893,-0.1143197
1.02119,-0.02346412,-0.1158905
1.020455,-0.02542892,-0.1183566
1.020539,-0.02576807,-0.1194542
1.019173,-0.02784594,-0.1216138
1.017906,-0.02828703,-0.1200525
1.020589,-0.02834863,-0.116984
1.023462,-0.02967755,-0.1166759
1.021945,-0.02860372,-0.115166
1.019756,-0.02612011,-0.1176619
1.019438,-0.02347489,-0.1220647
1.01931,-0.02309055,-0.1207441
1.020496,-0.02505542,-0.1195906
1.021271,-0.0251772,-0.1167574
1.02024,-0.02486413,-0.1124265
1.019123,-0.02511994,-0.1151024
1.017542,-0.02488757,-0.1201343
1.018267,-0.02524932,-0.1214701
1.022016,-0.02589425,-0.1225481
1.02627,-0.02659278,-0.1286129
1.028828,-0.02695309,-0.1351118
1.0255,-0.02788238,-0.1299957
1.02096,-0.02985014,-0.1194556
1.020171,-0.02944422,-0.1159004
1.01892,-0.02857087,-0.1122827
1.01768,-0.02954679,-0.1096315
1.017906,-0.02916257,-0.1137845
1.018379,-0.02837669,-0.114575
1.019035,-0.02678877,-0.1137396
1.019672,-0.02399766,-0.1162317
1.020613,-0.02504264,-0.1186895
1.021083,-0.02754389,-0.1231853
1.021767,-0.02747642,-0.1246638
1.022379,-0.02622398,-0.1181346
1.021074,-0.0243362,-0.1112161
1.019461,-0.0244618,-0.1130246
1.01822,-0.0249914,-0.1167308
1.017818,-0.02379245,-0.1161377
1.018146,-0.02513559,-0.120211
1.01802,-0.02585632,-0.1201437
1.018633,-0.02551447,-0.1156337
1.02088,-0.02877192,-0.1193068
1.02392,-0.0301446,-0.11989
1.023745,-0.0296525,-0.1206316
1.019409,-0.03056887,-0.1220373
1.014359,-0.02890189,-0.1117748
1.011355,-0.0266101,-0.1041639
1.014218,-0.02595198,-0.1047568
1.017727,-0.02482355,-0.1100721
1.016767,-0.02455612,-0.1192845
1.018581,-0.02536929,-0.1212124
1.022386,-0.02518874,-0.1195581
1.023667,-0.02614293,-0.1214555
1.024766,-0.0298202,-0.1229894
1.025202,-0.0320777,-0.123619
1.024817,-0.03097404,-0.1224565
1.023728,-0.02796411,-0.1186776
1.021494,-0.02506746,-0.1153274
1.020119,-0.02378192,-0.1160468
1.020194,-0.02327076,-0.1220416
1.02111,-0.02349679,-0.1284182
1.021593,-0.02326361,-0.1264889
1.020718,-0.02347015,-0.1189042
1.019552,-0.02579967,-0.1156754
1.019325,-0.02682533,-0.1157018
1.019694,-0.02888514,-0.1146468
1.020604,-0.0327213,-0.1108095
1.022971,-0.03218673,-0.110375
1.024267,-0.03020434,-0.1189105
1.023158,-0.02925327,-0.1224609
1.021484,-0.02608804,-0.1181565
1.019518,-0.02369821,-0.1156965
1.018957,-0.02327008,-0.1148638
1.019335,-0.02199342,-0.1173286
1.017697,-0.02177917,-0.1190734
1.016682,-0.02282758,-0.118567
1.020314,-0.02320855,-0.119695
1.024617,-0.02493764,-0.1183832
1.023326,-0.02742776,-0.1168813
1.018949,-0.0280732,-0.1172247
1.015581,-0.02768804,-0.1174924
1.015053,-0.02657054,-0.1171664
1.019183,-0.024661,-0.1170093
1.022225,-0.02210195,-0.1225383
1.020568,-0.0201339,-0.1280926
1.019097,-0.02173986,-0.1259486
1.017772,-0.0241297,-0.1232672
1.016301,-0.02467218,-0.122121
1.018302,-0.02610093,-0.1190499
1.020479,-0.02687818,-0.1188788
1.019689,-0.02598366,-0.118863
1.020991,-0.02548606,-0.1158132
1.023918,-0.02448155,-0.1152861
1.023026,-0.02299762,-0.1123956
1.021368,-0.02230228,-0.1134681
1.021275,-0.02368228,-0.1192482
1.019662,-0.02661196,-0.113817
1.017803,-0.02873207,-0.1104974
1.01707,-0.03101549,-0.1120394
1.01713,-0.03129624,-0.110317
1.020135,-0.02873728,-0.1141782
1.023181,-0.02906254,-0.1172994
1.020733,-0.02976031,-0.1194969
1.018219,-0.02918186,-0.1214505
1.020659,-0.02923532,-0.1196576
1.02138,-0.02603093,-0.1196744
1.019438,-0.02365992,-0.1172761
1.019315,-0.02370038,-0.1157229
1.01945,-0.02254901,-0.114011
1.019438,-0.02419257,-0.1099413
1.019534,-0.02649151,-0.1157392
1.01966,-0.02645779,-0.1221305
1.021345,-0.02553734,-0.1227312
1.02292,-0.02444385,-0.1247976
1.02344,-0.02497112,-0.1207897
1.024482,-0.02427733,-0.1130866
1.024758,-0.02303875,-0.1128536
1.021465,-0.023773,-0.1155899
1.018031,-0.02367384,-0.1171102
1.019292,-0.02368459,-0.1204956
1.020228,-0.02458273,-0.1217765
1.01887,-0.02521567,-0.1225326
1.019351,-0.02516236,-0.1265153
1.018822,-0.02455821,-0.123585
1.017428,-0.02424729,-0.1148073
1.019067,-0.0239129,-0.1103426
1.022708,-0.02602828,-0.1141609
1.025769,-0.02861742,-0.1208074
1.023897,-0.02610493,-0.1162717
1.020428,-0.0237979,-0.1114128
1.021573,-0.02527857,-0.1135962
1.021268,-0.02533645,-0.1115488
1.019691,-0.02456805,-0.1180234
1.02061,-0.02521748,-0.1285885
1.019135,-0.0250461,-0.1261157
1.018877,-0.02480199,-0.1219224
1.02061,-0.02573545,-0.1204433
1.020716,-0.02758049,-0.121163
1.022797,-0.02995799,-0.1233206
1.022788,-0.0290674,-0.1222429
1.020967,-0.0257265,-0.1237383
1.021191,-0.02458448,-0.124588
1.01975,-0.02478001,-0.1177068
1.020536,-0.02487378,-0.1114276
1.021658,-0.02329494,-0.112931
1.019167,-0.02154668,-0.1135372
1.019131,-0.02372413,-0.1087457
1.018832,-0.02707568,-0.1097534
1.017425,-0.02924416,-0.114477
1.018446,-0.0297422,-0.1155062
1.019354,-0.02837867,-0.1159144
1.021354,-0.02725071,-0.1142724
1.02304,-0.02536224,-0.1127431
1.021732,-0.02492072,-0.1127887
1.020211,-0.02593233,-0.1139332
1.0193,-0.0230058,-0.1179089
1.02005,-0.02107766,-0.1192232
1.020942,-0.02267623,-0.1204875
1.018127,-0.02233998,-0.1244029
1.015886,-0.02208105,-0.1269414
1.018438,-0.02336992,-0.1273205
1.020868,-0.02379081,-0.1244422
1.021041,-0.02314108,-0.1245525
1.022411,-0.02082362,-0.1245774
1.022664,-0.01899562,-0.1200563
1.020731,-0.02099375,-0.1174021
1.0207,-0.02328381,-0.1122659
1.020824,-0.02219277,-0.1094638
1.019734,-0.02258058,-0.1115009
1.019356,-0.02718259,-0.109212
1.019257,-0.03038059,-0.1082014
1.019773,-0.02916562,-0.1109832
1.020572,-0.02665895,-0.113863
1.021782,-0.0264536,-0.1143172
1.022831,-0.02825241,-0.1134214
1.02201,-0.02928402,-0.1157401
1.022066,-0.02770524,-0.1204555
1.022535,-0.02536379,-0.1249417
1.021417,-0.02632105,-0.1207736
1.019659,-0.02687671,-0.1147354
1.017463,-0.02468989,-0.1175342
1.018473,-0.02407042,-0.1168672
1.020521,-0.02412117,-0.1151667
1.019115,-0.02688224,-0.1154617
1.019153,-0.03075705,-0.1123972
1.019943,-0.02923811,-0.1141357
1.019078,-0.02838594,-0.1147124
1.019718,-0.02961723,-0.1120159
1.020475,-0.02809969,-0.1111366
1.020866,-0.02733046,-0.1070706
1.021149,-0.02759128,-0.1091043
1.020531,-0.02601048,-0.1178868
1.020726,-0.02438603,-0.1219114
1.019919,-0.02500545,-0.119613
1.017849,-0.02648918,-0.1134826
1.017158,-0.02732376,-0.1130418
1.017685,-0.02774645,-0.1145549
1.020214,-0.0257505,-0.1112913
1.022777,-0.02235543,-0.1109279
1.023037,-0.02186962,-0.1115918
1.022663,-0.02329582,-0.1136607
1.021075,-0.0241259,-0.1165477
1.019314,-0.02488166,-0.114501
1.019746,-0.0268585,-0.1123351
1.021267,-0.028589,-0.1106228
1.022537,-0.02776749,-0.110539
1.021625,-0.02735868,-0.1119178
1.020068,-0.02816869,-0.1106662
1.020963,-0.02764065,-0.111067
1.021329,-0.02624198,-0.1127173
1.021327,-0.02085418,-0.1169509
1.022725,-0.01500278,-0.1230206
1.02216,-0.0194671,-0.1202644
1.020941,-0.02501903,-0.1130124
1.020887,-0.02189057,-0.1101213
1.020967,-0.02261425,-0.1102767
1.02275,-0.02782488,-0.1109833
1.02405,-0.02752499,-0.1096017
1.022726,-0.02489243,-0.1117016
1.021738,-0.02200136,-0.1211898
1.022222,-0.02148728,-0.1272567
1.022477,-0.02420139,-0.1238545
1.022017,-0.0246256,-0.1174857
1.022236,-0.02635096,-0.1156825
1.022372,-0.02894754,-0.1169153
1.022025,-0.028792,-0.1168282
1.022175,-0.02745362,-0.1172565
1.021319,-0.02373658,-0.1165151
1.020464,-0.02276099,-0.1143609
1.020692,-0.02424638,-0.1131611
1.019848,-0.02331878,-0.1114633
1.018407,-0.02363585,-0.1120549
1.018556,-0.02376023,-0.1156128
1.020028,-0.0233738,-0.117333
1.020728,-0.02403247,-0.1148863
1.021783,-0.02432887,-0.1136796
1.023738,-0.0253346,-0.1186495
1.023786,-0.02534285,-0.1222717
1.023262,-0.02554326,-0.1197374
1.022858,-0.02621722,-0.1166053
1.021489,-0.02283315,-0.116799
1.020373,-0.02000755,-0.1186124
1.019136,-0.02331967,-0.1201714
1.019041,-0.02656735,-0.1209088
1.019925,-0.0252253,-0.1179831
1.019632,-0.02608449,-0.1123432
1.021074,-0.02903214,-0.1103583
1.023064,-0.02771991,-0.1158976
1.021846,-0.02717752,-0.1211757
1.020084,-0.02804031,-0.1190104
1.019201,-0.02587249,-0.1170246
1.018959,-0.0252903,-0.1171235
1.018893,-0.02671296,-0.1180541
1.018065,-0.02609044,-0.1213634
1.019559,-0.02347083,-0.1212496
1.021663,-0.02140451,-0.1193358
1.019884,-0.0220709,-0.1167961
1.018723,-0.02268185,-0.1123743
1.019778,-0.02213043,-0.1139885
1.019469,-0.02291655,-0.1187022
1.019267,-0.0233453,-0.1196356
1.019966,-0.02296737,-0.1187366
1.020795,-0.0245132,-0.1158784
1.020976,-0.02628155,-0.1123951
1.019165,-0.02741613,-0.1094767
1.018755,-0.02979971,-0.107854
1.019928,-0.02947802,-0.1091038
1.018416,-0.0263187,-0.110075
1.017458,-0.02531849,-0.1119855
1.018228,-0.02474951,-0.115452
1.017076,-0.02459355,-0.1169521
1.016656,-0.024578,-0.1175147
1.018883,-0.02297931,-0.1165645
1.021982,-0.02337632,-0.1159244
1.023713,-0.02316223,-0.1178428
1.022366,-0.02148781,-0.1239162
1.020111,-0.02272354,-0.1306112
1.019063,-0.02440668,-0.1252455
1.02038,-0.0264924,-0.1176371
1.022438,-0.02888427,-0.1169394
1.022288,-0.02930998,-0.1156713
1.02196,-0.02918426,-0.1190935
1.021441,-0.02776132,-0.1210226
1.020418,-0.02563944,-0.1187764
1.020674,-0.02423955,-0.1173251
1.019914,-0.02296093,-0.1106053
1.018318,-0.02245665,-0.1118183
1.018634,-0.02361013,-0.119053
1.019987,-0.02582064,-0.1177709
1.02072,-0.02515139,-0.1164459
1.021653,-0.02278136,-0.1130556
1.022778,-0.02121458,-0.1106473
1.022182,-0.01847814,-0.1177568
1.021916,-0.02020687,-0.1205301
1.022565,-0.02672497,-0.1087281
1.022049,-0.030181,-0.09773149
1.022004,-0.02910622,-0.1076774
1.021509,-0.0262851,-0.117952
1.020535,-0.02673668,-0.1110114
1.022109,-0.02615519,-0.1115967
1.024471,-0.02392825,-0.1175391
1.025292,-0.02740332,-0.1171335
1.023306,-0.02880297,-0.1195831
1.018559,-0.02770736,-0.1193381
1.015759,-0.02806112,-0.1191665
1.018131,-0.02570121,-0.1238112
1.020422,-0.02601086,-0.1234143
1.01749,-0.02727437,-0.1188534
1.015513,-0.02676151,-0.112604
1.017316,-0.02823585,-0.1104525
1.018194,-0.02813799,-0.1178517
1.020678,-0.0282685,-0.1231808
1.023276,-0.02974163,-0.1199244
1.02074,-0.02917127,-0.1132683
1.017371,-0.0289128,-0.1062043
1.016542,-0.02883041,-0.1036381
1.018568,-0.02627471,-0.1121499
1.022173,-0.02320108,-0.1203991
1.022301,-0.023124,-0.1165156
1.019196,-0.02461718,-0.1157458
1.017286,-0.02615697,-0.1208495
1.01783,-0.02863442,-0.1192022
1.018564,-0.02903515,-0.1179391
1.018002,-0.02759517,-0.1202419
1.018623,-0.02704499,-0.1186289
1.019513,-0.02600538,-0.1165856
1.01923,-0.02648996,-0.1186343
1.020231,-0.02870713,-0.1181009
1.019839,-0.02933289,-0.1143338
1.018976,-0.02940783,-0.1157369
1.021696,-0.02866478,-0.1234097
1.022522,-0.0270323,-0.1316389
1.020007,-0.02530989,-0.1272742
1.018057,-0.02421201,-0.1167204
1.017545,-0.02555676,-0.119212
1.018559,-0.02607588,-0.1248816
1.019162,-0.02598467,-0.1283086
1.020686,-0.02608019,-0.1269932
1.023322,-0.02429536,-0.1177672
1.02386,-0.02473033,-0.1172531
1.023188,-0.0248376,-0.1190138
1.02081,-0.02348214,-0.1187484
1.018543,-0.02493729,-0.1242349
1.018833,-0.02528455,-0.1250609
1.016972,-0.02554032,-0.1225144
1.013352,-0.02626389,-0.1199133
1.01415,-0.02503396,-0.1200417
1.019018,-0.02509615,-0.122131
1.022004,-0.02461766,-0.1190803
1.021476,-0.02298275,-0.1201525
1.021994,-0.0227675,-0.1222699
1.024187,-0.02528906,-0.1227626
1.022834,-0.02862433,-0.1247697
1.019342,-0.02461423,-0.1170016
1.019225,-0.0199109,-0.1093476
1.019236,-0.02305907,-0.1124132
1.01745,-0.02469046,-0.1148455
1.016757,-0.0246712,-0.1135517
1.018019,-0.02572328,-0.1152916
1.020976,-0.02436298,-0.1198029
1.022309,-0.02423019,-0.1214045
1.023454,-0.02464541,-0.1206934
1.023756,-0.02487909,-0.1175864
1.021062,-0.02630375,-0.1149525
1.022217,-0.02563579,-0.1160317
1.023022,-0.02575902,-0.1162877
1.021307,-0.02767421,-0.117046
1.022753,-0.02786029,-0.1183071
1.0217,-0.02675065,-0.1183113
1.019117,-0.02503203,-0.1179923
1.017444,-0.02453802,-0.1180976
1.015867,-0.02483767,-0.119929
1.017305,-0.02554407,-0.119353
1.019094,-0.02695331,-0.1175973
1.022728,-0.02567781,-0.1187357
1.026242,-0.02495739,-0.1228354
1.023697,-0.02634219,-0.1274573
1.02009,-0.02571086,-0.1257812
1.018812,-0.02614767,-0.1199273
1.019385,-0.02705066,-0.1148804
1.019806,-0.02594476,-0.1131326
1.018966,-0.02603636,-0.1141825
1.018659,-0.02526334,-0.1119144
1.018015,-0.02414034,-0.1099069
1.018887,-0.02567363,-0.1096374
1.020781,-0.02603218,-0.1077671
1.02029,-0.02615388,-0.1080749
1.020154,-0.02679235,-0.1089709
1.021902,-0.02510343,-0.1096754
1.022812,-0.02487111,-0.1135808
1.021862,-0.02614732,-0.1165947
1.021139,-0.02608557,-0.1152064
1.020686,-0.02469099,-0.1133333
1.019809,-0.02210005,-0.1123171
1.020292,-0.02263356,-0.1104463
1.021025,-0.02460743,-0.1109589
1.021106,-0.02447379,-0.1128787
1.02185,-0.02582135,-0.1130211
1.023301,-0.02613213,-0.113216
1.023959,-0.02443534,-0.1115541
1.022535,-0.02487404,-0.1100341
1.021801,-0.02534636,-0.1109249
1.022398,-0.02478423,-0.1103226
1.022199,-0.02499779,-0.1109622
1.022201,-0.02513252,-0.1116469
1.022253,-0.02486809,-0.1096198
1.02182,-0.02486827,-0.1095972
1.0205,-0.02415604,-0.1100508
1.01883,-0.02395043,-0.1107584
1.019278,-0.0271704,-0.1134113
1.020212,-0.03042567,-0.1145495
1.021165,-0.02946846,-0.1148147
1.023646,-0.02800347,-0.1153535
1.02355,-0.02782969,-0.1152587
1.019564,-0.02596011,-0.1143224
1.017209,-0.02573082,-0.113138
1.0191,-0.02758141,-0.1111183
1.022051,-0.02780766,-0.1052969
1.022283,-0.02950098,-0.1015049
1.020272,-0.02902378,-0.1067765
1.018922,-0.02377502,-0.113075
1.01942,-0.02165884,-0.1130745
1.020728,-0.02364528,-0.1114567
1.020956,-0.02604071,-0.1100444
1.020781,-0.02526655,-0.1075168
1.020927,-0.0240584,-0.1071692
1.020704,-0.02577047,-0.1055552
1.021093,-0.02484706,-0.1024848
1.021757,-0.02457032,-0.1087283
1.022362,-0.02550518,-0.1165003
1.022141,-0.02372101,-0.1141096
1.020462,-0.02444091,-0.1127657
1.020456,-0.02569767,-0.1155969
1.021239,-0.02668226,-0.1144562
1.02107,-0.02828462,-0.1133168
1.02216,-0.026864,-0.1134402
1.022514,-0.02572925,-0.1102338
1.020086,-0.02572753,-0.1075958
1.01891,-0.02557488,-0.1099322
1.020541,-0.02579096,-0.1130952
1.021213,-0.02563986,-0.1123444
1.020571,-0.02590946,-0.1122336
1.019894,-0.02638232,-0.1127283
1.018998,-0.02664242,-0.1080927
1.018869,-0.027,-0.1067474
1.019522,-0.029636,-0.1096755
1.020647,-0.03276441,-0.1096286
1.02159,-0.03194057,-0.1158502
1.023558,-0.03207196,-0.1233528
1.027526,-0.03544838,-0.1176823
1.030323,-0.03843283,-0.1138377
1.031948,-0.03852545,-0.1231938
1.032008,-0.03151545,-0.1291727
1.028,-0.02171918,-0.1241716
1.019482,-0.01616162,-0.1183178
1.009744,-0.0113503,-0.1179569
1.006597,-0.006471688,-0.1267691
1.010039,-0.006136767,-0.1375666
1.024173,-0.007829568,-0.1344617
1.044569,-0.007675354,-0.1286593
1.041206,-0.007613699,-0.1337187
1.028035,-0.005283776,-0.1382002
1.032102,0.0007708938,-0.1421953
1.032479,0.007873448,-0.1476957
1.032818,0.01819106,-0.1478858
1.039825,0.02483235,-0.1444593
1.044392,0.02359495,-0.1343429
1.056363,0.0201069,-0.1232656
1.06005,0.009910761,-0.1241928
1.053706,0.00229445,-0.1243382
1.047541,0.002997618,-0.1116753
1.034487,-0.00729196,-0.1043918
1.035517,-0.02574789,-0.1098896
1.033165,-0.03743276,-0.1118599
1.004053,-0.04834594,-0.1081627
0.9814954,-0.07698079,-0.09397876
0.9622126,-0.1185505,-0.07670098
0.9357942,-0.1407297,-0.08915953
0.9235516,-0.1404163,-0.1095089
0.9232981,-0.1294616,-0.1078347
0.9265505,-0.1204587,-0.1093305
0.9443476,-0.1334935,-0.110971
0.9807373,-0.1498042,-0.09718757
1.011148,-0.1506429,-0.08896042
1.013679,-0.141861,-0.09529311
0.9944785,-0.1176439,-0.0992177
0.9836737,-0.08202287,-0.08513682
1.00828,-0.05084739,-0.07635431
1.03853,-0.03526512,-0.1013724
1.036329,-0.03113911,-0.1217935
1.023398,-0.02602383,-0.1063943
1.020157,-0.01459888,-0.09987485
1.017788,0.01443421,-0.1324581
1.016743,0.04985899,-0.1620502
1.01714,0.06137741,-0.1648172
1.014707,0.0757983,-0.1819285
1.012474,0.1339727,-0.2150485
1.008261,0.1895014,-0.2196761
0.9970877,0.2023012,-0.2089235
0.9841006,0.2160631,-0.2166519
0.9765828,0.242327,-0.2382647
0.9786864,-0.1512195,0.2866623
0.9762347,-0.1484868,0.2927705
0.9745319,-0.1465312,0.287347
0.9754914,-0.1488276,0.2844432
0.9773408,-0.1475961,0.2903125
0.9759479,-0.1467825,0.2929601
0.9753974,-0.1475773,0.2943749
0.9760567,-0.1468966,0.2948163
0.9762458,-0.1474506,0.2942944
0.9767825,-0.146839,0.2955487
0.9761871,-0.1452382,0.2960251
0.9762639,-0.1442299,0.2953667
0.9767055,-0.1440948,0.2930675
0.9757415,-0.1459207,0.2908007
0.975075,-0.1459355,0.2915073
0.9749357,-0.1454808,0.2921242
0.9765142,-0.1452282,0.2921476
0.9770549,-0.1438521,0.2951652
0.9747465,-0.1448984,0.2983464
0.9748528,-0.1464452,0.2962476
0.9754876,-0.1474631,0.2929408
0.9755188,-0.1476892,0.2929411
0.9769571,-0.1470246,0.2937655
0.9764011,-0.1494066,0.2962274
0.9760529,-0.1516053,0.2980726
0.9769378,-0.1513282,0.2955272
0.977228,-0.1505276,0.2954284
0.9788125,-0.1495609,0.2995479
0.9775065,-0.1498549,0.3022466
0.9709753,-0.149132,0.3064262
0.9661036,-0.1472096,0.314293
0.9686204,-0.1468155,0.316646
0.9747218,-0.1462122,0.306075
0.9772978,-0.1447254,0.295813
0.9768392,-0.1443676,0.3003551
0.9758704,-0.1464956,0.3036736
0.9763004,-0.1490207,0.2968152
0.9769368,-0.149759,0.2952673
0.9758601,-0.1500919,0.2957119
0.9768989,-0.1501217,0.2939238
0.9784506,-0.1498564,0.2951732
0.978672,-0.1498776,0.2948341
0.976975,-0.1491354,0.2972924
0.9726799,-0.1484572,0.3004553
0.9731011,-0.1499745,0.2978033
0.9745522,-0.1531553,0.2987294
0.9728918,-0.1540765,0.3011383
0.9738579,-0.1497969,0.3008728
0.9737905,-0.1454409,0.3000054
0.9735609,-0.1469261,0.2967719
0.9758113,-0.1486843,0.2972
0.9768513,-0.1482618,0.3006458
0.9775457,-0.1505495,0.3017065
0.9772306,-0.1507299,0.3018385
0.9751846,-0.1489843,0.3007604
0.9732429,-0.1503684,0.3006653
0.9748107,-0.1492182,0.3010389
0.9780051,-0.1479781,0.3012195
0.9770814,-0.1499877,0.3027298
0.9768717,-0.1501331,0.3018631
0.9758267,-0.1500034,0.3010033
0.9712067,-0.1500279,0.3016042
0.9719388,-0.1500165,0.3011955
0.9741654,-0.1511391,0.3013778
0.9743109,-0.1512791,0.3004475
0.9764856,-0.1504859,0.2994255
0.9763483,-0.1481923,0.2992502
0.974292,-0.145268,0.298104
0.9732973,-0.1432697,0.2980263
0.9732555,-0.143565,0.2989064
0.9740709,-0.1471716,0.3002998
0.9734564,-0.1488072,0.2997914
0.9732356,-0.1479489,0.2953191
0.9730812,-0.1461866,0.2908785
0.9712905,-0.1437473,0.289743
0.9704314,-0.1459754,0.2933018
0.9692139,-0.1487045,0.2977304
0.9694339,-0.1477724,0.3008493
0.9727306,-0.1485812,0.3037638
0.9742041,-0.1489691,0.3017068
0.9739297,-0.1472619,0.3008679
0.9742533,-0.1468841,0.3078367
0.9752573,-0.1465732,0.3106742
0.9753611,-0.1464002,0.3056399
0.9745176,-0.1478187,0.3009203
0.9752116,-0.1494428,0.3012837
0.9747888,-0.1513116,0.3057318
0.9728584,-0.1528849,0.3072893
0.9723753,-0.1521019,0.3043801
0.9736313,-0.1491567,0.3016637
0.9755455,-0.1464047,0.3022481
0.9732629,-0.1477445,0.3028263
0.9700256,-0.1506963,0.3001402
0.9711477,-0.1501407,0.2994396
0.9718665,-0.1505579,0.2991953
0.9722476,-0.1521251,0.2994082
0.9725881,-0.1511448,0.3027328
0.9718166,-0.1516322,0.3020339
0.9724133,-0.1534395,0.3031356
0.9724725,-0.1539163,0.3075034
0.9728793,-0.1516926,0.3064619
0.9739616,-0.147645,0.3074186
0.9721271,-0.1470893,0.3087462
0.9690851,-0.1467864,0.3040736
0.9680399,-0.1449783,0.3000114
0.9714091,-0.1460178,0.2974401
0.9752425,-0.1463193,0.2953454
0.9738984,-0.1461069,0.297311
0.9738026,-0.1470881,0.303433
0.9772098,-0.1473768,0.3066796
0.9784327,-0.1515303,0.302954
0.9789348,-0.1561485,0.299512
0.9772171,-0.1542565,0.3000653
0.9717043,-0.1533326,0.3001673
0.9698701,-0.155853,0.2998668
0.9721426,-0.154977,0.3014999
0.974125,-0.1510033,0.3030628
0.9765177,-0.1456355,0.3037297
0.9779253,-0.1430564,0.3050694
0.9752585,-0.1468803,0.3068045
0.9713474,-0.1490097,0.3067393
0.9716353,-0.1476007,0.3049969
0.972094,-0.1480378,0.3034813
0.969856,-0.1488949,0.300151
0.9697392,-0.1497219,0.2999662
0.9687571,-0.1503475,0.3051661
0.9678805,-0.1508409,0.3045033
0.9720182,-0.1517542,0.3013544
0.9747949,-0.1515394,0.302231
0.9737116,-0.1523355,0.3045637
0.9731037,-0.1540873,0.3082847
0.9738337,-0.1544313,0.3064126
0.9736199,-0.1539666,0.3003655
0.97253,-0.153127,0.2976418
0.9731056,-0.1521099,0.2974953
0.9737648,-0.1499633,0.2999154
0.9735364,-0.1480885,0.3002786
0.9725256,-0.1492288,0.301456
0.9708887,-0.1501948,0.3088517
0.9706777,-0.1472856,0.3103715
0.970996,-0.144975,0.3018023
0.9717668,-0.147866,0.2967357
0.9725588,-0.1505568,0.3020517
0.9725231,-0.1500109,0.3065321
0.9741488,-0.1498728,0.3033109
0.9764609,-0.1497284,0.3016253
0.9768687,-0.1481869,0.3017845
0.9757546,-0.1470345,0.3006893
0.9745255,-0.1487872,0.3017332
0.9733443,-0.1509872,0.301583
0.9731353,-0.1499757,0.3005312
0.974129,-0.1493454,0.2998822
0.9734902,-0.1495453,0.2969901
0.9733283,-0.148191,0.2982119
0.9738742,-0.1478448,0.30589
0.9723865,-0.1463792,0.3118533
0.9720239,-0.1438618,0.310512
0.9721095,-0.1468303,0.3071472
0.971238,-0.1502312,0.3087392
0.9710897,-0.148213,0.3078942
0.972867,-0.1471289,0.3027692
0.9771325,-0.1475781,0.2999231
0.9785844,-0.1468452,0.2996498
0.976222,-0.1473251,0.3041808
0.9738696,-0.1474132,0.3070023
0.9713172,-0.1478017,0.3050383
0.9702411,-0.1519275,0.3047032
0.9705451,-0.1552934,0.3004593
0.9692369,-0.1533397,0.2935304
0.9680908,-0.1498715,0.2929168
0.971377,-0.1500455,0.2999673
0.9752667,-0.1520653,0.3076112
0.9736977,-0.1530872,0.3082447
0.972732,-0.1529697,0.3067771
0.9745105,-0.1510999,0.3046779
0.974501,-0.1493899,0.302165
0.9759029,-0.1482737,0.3012731
0.9770077,-0.1485191,0.2976923
0.9747261,-0.1510126,0.2984366
0.9729204,-0.1514897,0.3045243
0.9718321,-0.1505102,0.3056847
0.9719258,-0.1497847,0.3031686
0.9728941,-0.1496414,0.3001187
0.9728437,-0.1505129,0.3001264
0.9738217,-0.1493834,0.3017976
0.9738171,-0.1480846,0.3013182
0.9722125,-0.1470754,0.3043531
0.97222,-0.1469308,0.3067026
0.9719889,-0.1496892,0.3051543
0.9712738,-0.1503372,0.3054199
0.9707528,-0.149912,0.3048826
0.9708583,-0.1501341,0.3046953
0.9729619,-0.1497266,0.3059025
0.9740715,-0.1502818,0.3045457
0.9736405,-0.1498817,0.3001251
0.9731429,-0.1498842,0.2955249
0.9717812,-0.1502877,0.2970427
0.9708105,-0.1496831,0.3004215
0.9726205,-0.150206,0.3010495
0.9763702,-0.1496224,0.3036392
0.9767158,-0.1478844,0.3043577
0.9741226,-0.1460237,0.301176
0.9732468,-0.1454785,0.2999323
0.9732479,-0.1480559,0.3034851
0.9729888,-0.1488082,0.3080992
0.9722882,-0.1467375,0.307222
0.9736526,-0.14523,0.3051398
0.9759073,-0.1461212,0.3058859
0.974005,-0.1490618,0.3050256
0.9728755,-0.1501346,0.3043625
0.9740206,-0.1484684,0.3061445
0.9735287,-0.1469244,0.3088537
0.9735288,-0.1496226,0.3093736
0.9737296,-0.1529655,0.30697
0.9735145,-0.1515218,0.3070237
0.9736759,-0.1520498,0.3071026
0.9733936,-0.1527251,0.3060064
0.9729145,-0.1490027,0.3061861
0.9721323,-0.1489262,0.3041911
0.9707134,-0.1496288,0.3024238
0.9700034,-0.1481182,0.2986137
0.9722508,-0.1510938,0.2961644
0.9736593,-0.1525815,0.3035404
0.972037,-0.1493793,0.3073109
0.9730885,-0.1489055,0.3038022
0.973705,-0.149127,0.3009491
0.973127,-0.1498344,0.300191
0.9761893,-0.1526252,0.3064082
0.9766501,-0.1519885,0.3146713
0.9747849,-0.1506134,0.3160658
0.9727991,-0.1498447,0.3103891
0.9685143,-0.1474792,0.3063228
0.9677696,-0.1478592,0.3083264
0.9703105,-0.1506957,0.3070944
0.9731794,-0.1534039,0.3040495
0.9745309,-0.1517808,0.3045735
0.972928,-0.1482257,0.3049455
0.9729276,-0.1503893,0.3030134
0.9731121,-0.1506839,0.2993462
0.9734008,-0.1490088,0.3003243
0.9742546,-0.150514,0.3030385
0.9731179,-0.1489577,0.2997882
0.9736757,-0.1481999,0.2992807
0.9739163,-0.1499271,0.3019547
0.9731672,-0.1496534,0.30103
0.9739627,-0.148451,0.3011266
0.9734814,-0.146474,0.2999091
0.9735149,-0.1473321,0.2974952
0.9738462,-0.1496851,0.2982107
0.9733581,-0.1500027,0.2952314
0.9736036,-0.150378,0.2932047
0.97232,-0.1492247,0.3010153
0.9700845,-0.1471885,0.308595
0.9691161,-0.1459413,0.3058693
0.9701852,-0.1479761,0.3015666
0.9716928,-0.1525304,0.3026014
0.9721048,-0.1515634,0.3017674
0.9749491,-0.1496002,0.3041752
0.9776366,-0.1504742,0.309408
0.9759283,-0.1494247,0.3072665
0.9741234,-0.1486258,0.3069497
0.9735094,-0.1457789,0.3074197
0.9730755,-0.1421711,0.30415
0.9730161,-0.1432176,0.3041659
0.9721345,-0.1444119,0.3042115
0.9727717,-0.1453467,0.3049774
0.9743554,-0.1465606,0.3062085
0.9734865,-0.146895,0.304819
0.9729567,-0.1495627,0.3039004
0.9722088,-0.1531318,0.3017532
0.9700484,-0.1558848,0.3007644
0.9706416,-0.1573646,0.3032903
0.9717511,-0.1553,0.30567
0.971854,-0.1531544,0.3061511
0.9722708,-0.1540509,0.3069913
0.9697801,-0.1533808,0.3093817
0.9684714,-0.1502745,0.306021
0.9713891,-0.1494922,0.3012046
0.97293,-0.1501434,0.3012524
0.9737788,-0.1496754,0.2994632
0.9741343,-0.1482035,0.3005238
0.9730305,-0.1466245,0.3048723
0.9732709,-0.1472435,0.3060096
0.9711645,-0.14871,0.3046988
0.9681865,-0.149324,0.3010196
0.9698531,-0.1496871,0.2992757
0.9711874,-0.1490986,0.2992654
0.9696543,-0.1491672,0.3028161
0.9676103,-0.1498019,0.3095739
0.9675545,-0.1501218,0.3080159
0.9701838,-0.1520933,0.3029459
0.9722663,-0.1529594,0.3006809
0.974155,-0.1509178,0.3002137
0.9742553,-0.1495683,0.3006511
0.9730989,-0.1508691,0.2992985
0.9757702,-0.1530058,0.3060376
0.9768261,-0.1527695,0.3133251
0.9742334,-0.1511009,0.3035281
0.973181,-0.1486722,0.2934374
0.973378,-0.1461425,0.2954888
0.9738041,-0.1471312,0.2985176
0.9724546,-0.1482119,0.3031542
0.9707972,-0.148473,0.3108555
0.970859,-0.150716,0.3087939
0.9704517,-0.1512559,0.3015004
0.9701031,-0.1537639,0.3012586
0.9692141,-0.1585807,0.3021015
0.9690996,-0.1563817,0.3058041
0.9699532,-0.1527239,0.3111347
0.9691303,-0.1524845,0.3083327
0.9697942,-0.1489795,0.3044341
0.9714859,-0.1465014,0.3020031
0.9727898,-0.1476477,0.3003863
0.9746568,-0.1470479,0.3006136
0.9759345,-0.1471149,0.295166
0.9766434,-0.1477074,0.2909077
0.9745601,-0.1477749,0.2987319
0.9729882,-0.1491023,0.3085061
0.9757089,-0.1488759,0.3090406
0.9770567,-0.1491418,0.307533
0.9759944,-0.1504344,0.3049467
0.9742249,-0.149044,0.297575
0.9720639,-0.1481183,0.2997198
0.9711594,-0.1485565,0.304548
0.9717169,-0.1478071,0.3015582
0.9734334,-0.1468558,0.3035844
0.9740289,-0.1471194,0.3001706
0.9734378,-0.1474997,0.2931427
0.9735925,-0.1466841,0.3007304
0.9736708,-0.1454272,0.3081565
0.9735925,-0.1442241,0.3087793
0.9734122,-0.1449473,0.3075116
0.9729155,-0.1464584,0.3014098
0.9726794,-0.1448288,0.2979101
0.9730096,-0.1438077,0.3028591
0.9732248,-0.1451408,0.3093457
0.9734169,-0.1461804,0.3073638
0.9739969,-0.1478402,0.303652
0.9742047,-0.1484799,0.3053357
0.9769683,-0.1485174,0.3012406
0.9806106,-0.149893,0.295793
0.9789871,-0.1501291,0.2979708
0.9765703,-0.1497679,0.2998381
0.9764361,-0.1492032,0.3001781
0.9760722,-0.1476574,0.3016878
0.9765572,-0.1462964,0.3018926
0.976514,-0.1456063,0.3010835
0.976097,-0.1477855,0.3024889
0.9766436,-0.150851,0.3043083
0.9761245,-0.1509292,0.3030287
0.9750465,-0.1487134,0.2989507
0.9731302,-0.1443096,0.2941591
0.9717476,-0.1423936,0.2950268
0.9742713,-0.1442002,0.2973809
0.9767749,-0.1454146,0.2949412
0.9761684,-0.1479184,0.2964201
0.9744539,-0.1479923,0.3001845
0.9730992,-0.1457364,0.3019949
0.9734402,-0.1460527,0.3040774
0.9739803,-0.1440204,0.3039046
0.973413,-0.1436234,0.3036824
0.9735653,-0.1458918,0.3008508
0.9737881,-0.145616,0.2968781
0.9734508,-0.1478836,0.2987976
0.9736678,-0.1490376,0.2992081
0.9736627,-0.1487299,0.2979693
0.9738601,-0.1506545,0.2989793
0.9754963,-0.148108,0.2979905
0.9768905,-0.146125,0.295844
0.9765824,-0.1477189,0.2937773
0.9762147,-0.1471588,0.2939744
0.9775941,-0.1467562,0.2948304
0.9790745,-0.1455807,0.2922739
0.9789488,-0.1437577,0.291027
0.9774542,-0.1445361,0.292175
0.9757185,-0.1456574,0.2935092
0.9761973,-0.1464795,0.2954968
0.9765534,-0.1485611,0.2972963
0.9742383,-0.1504048,0.2990643
0.9734576,-0.1485407,0.2991381
0.9753976,-0.1460666,0.2983606
0.977068,-0.1475014,0.3005687
0.9765957,-0.1486173,0.302364
0.9758456,-0.148377,0.302102
0.9767354,-0.1483834,0.3029019
0.9767808,-0.1458334,0.3030664
0.9775122,-0.1434703,0.3019382
0.9782768,-0.1443904,0.3002174
0.9751369,-0.1446881,0.2983864
0.972175,-0.1432841,0.3008355
0.971083,-0.1429496,0.3041556
0.9727164,-0.1440079,0.3016756
0.9765299,-0.144418,0.2992725
0.975456,-0.1425239,0.2994419
0.9747688,-0.1402245,0.2982013
0.9772212,-0.1411475,0.2987489
0.9744853,-0.1440611,0.3010622
0.9724673,-0.1453553,0.3024436
0.9743138,-0.1465008,0.3028377
0.9742786,-0.1494029,0.2999334
0.9742236,-0.150879,0.2977029
0.9736409,-0.1492699,0.2996061
0.9731245,-0.1466613,0.3000583
0.9742268,-0.1432464,0.2971738
0.9745529,-0.1402273,0.2948529
0.9761889,-0.1400717,0.2960475
0.9779413,-0.1409209,0.2978615
0.9777115,-0.142836,0.2965806
0.9777046,-0.145425,0.2935881
0.9766789,-0.1446434,0.2912193
0.9751252,-0.1438211,0.2922081
0.9746096,-0.1448795,0.296706
0.9742406,-0.144378,0.303499
0.974396,-0.1442553,0.3086637
0.9750616,-0.1446917,0.306217
0.9751096,-0.1442838,0.300973
0.9739196,-0.1444719,0.2973262
0.9736189,-0.1445177,0.2979442
0.9755289,-0.144337,0.3066749
0.9765727,-0.1448833,0.3101571
0.9747756,-0.1462042,0.3038339
0.9727108,-0.1477422,0.3014157
0.9735263,-0.1473116,0.3033229
0.9741854,-0.1455033,0.3049483
0.9731236,-0.1441864,0.3053116
0.9732023,-0.1433813,0.3022608
0.9711374,-0.1448082,0.2969233
0.9686341,-0.1472509,0.2950359
0.9717347,-0.1489989,0.2997688
0.9759632,-0.1506588,0.3029338
0.9766749,-0.1486968,0.3011896
0.9740479,-0.1449978,0.3009484
0.9701015,-0.1441123,0.3017487
0.9686354,-0.1441419,0.3013539
0.9698665,-0.1445692,0.3008556
0.9713598,-0.1436269,0.2997745
0.9719846,-0.1429257,0.2980365
0.9729372,-0.1460541,0.2982759
0.9755728,-0.1476845,0.2992122
0.9773764,-0.1455589,0.2982663
0.9760939,-0.1439018,0.2987328
0.9744867,-0.1460863,0.2998284
0.9725568,-0.1484407,0.2999115
0.969889,-0.1468845,0.3010378
0.9716358,-0.1472681,0.3037162
0.9742573,-0.1495215,0.3083711
0.9733214,-0.14979,0.3086891
0.973824,-0.1484082,0.3029361
0.9745362,-0.1456082,0.3002103
0.9736802,-0.1466074,0.3012205
0.9719671,-0.1498946,0.3018949
0.9700049,-0.1497233,0.3009118
0.97195,-0.1472322,0.2992817
0.9737612,-0.1434288,0.2985115
0.972498,-0.1416897,0.2981477
0.9718044,-0.1423286,0.2989524
0.9702605,-0.1418961,0.2987254
0.9689826,-0.1403575,0.2983351
0.9697279,-0.1393162,0.300157
0.9719066,-0.1407654,0.3011197
0.9754839,-0.1408202,0.3025524
0.9772556,-0.1403646,0.3032967
0.9764304,-0.1433021,0.303098
0.9759707,-0.1461065,0.3065507
0.9766389,-0.1521945,0.3094103
0.9757644,-0.1561446,0.308624
0.9725177,-0.1505227,0.3073687
0.9700222,-0.1477532,0.3067287
0.9703043,-0.1487694,0.3053276
0.9719164,-0.1470137,0.3046667
0.9724432,-0.1442187,0.3052221
0.9739353,-0.1411617,0.302639
0.9753163,-0.1416178,0.3009309
0.9741018,-0.1439928,0.3011482
0.9733554,-0.1441273,0.3004632
0.9709835,-0.1420458,0.3035557
0.9697643,-0.1393241,0.3052226
0.972098,-0.1412534,0.3032497
0.9723248,-0.1445676,0.3025021
0.973683,-0.1444817,0.3009305
0.9735355,-0.1443678,0.3012042
0.9709554,-0.1437209,0.3028542
0.972634,-0.1440349,0.3027011
0.9725394,-0.1475523,0.3030963
0.9712394,-0.1495522,0.3038101
0.9709914,-0.1486506,0.3052262
0.9689782,-0.148173,0.3052242
0.9709879,-0.148701,0.3008333
0.9736035,-0.1474347,0.2972065
0.9724607,-0.1448795,0.2982504
0.9718407,-0.1440602,0.299846
0.9707292,-0.1443409,0.2999654
0.9706036,-0.1446601,0.3013771
0.9731179,-0.1444125,0.3003401
0.9742777,-0.1442668,0.2975614
0.9744339,-0.1446882,0.3005174
0.9748463,-0.1444722,0.3031613
0.9733411,-0.1453193,0.3034891
0.9715059,-0.1462665,0.3063979
0.9722589,-0.1459091,0.3066395
0.9739095,-0.1470333,0.3073467
0.9754135,-0.1489831,0.3105146
0.9768151,-0.1491903,0.3068409
0.9755516,-0.1484996,0.3011073
0.9733016,-0.1499668,0.3014456
0.9735598,-0.1509432,0.3043033
0.9737517,-0.1492894,0.3057983
0.973424,-0.1500089,0.3030356
0.9737939,-0.150339,0.2990043
0.9738592,-0.1483171,0.2997579
0.9753907,-0.1477966,0.3006469
0.9768669,-0.1468727,0.299668
0.9755525,-0.1473625,0.3010604
0.9744432,-0.1493379,0.3017996
0.9752205,-0.1492163,0.3012103
0.9757949,-0.1487058,0.3010909
0.9746355,-0.1480515,0.2995639
0.9732232,-0.14764,0.2980952
0.9733199,-0.1463506,0.2980483
0.9739281,-0.1449945,0.2971795
0.9737782,-0.1467956,0.2953587
0.9744497,-0.1482361,0.2963362
0.9764187,-0.1486354,0.2983738
0.9768532,-0.1474496,0.2972881
0.9768987,-0.1460809,0.296096
0.977272,-0.1480086,0.2951249
0.9761585,-0.1472957,0.2955405
0.976095,-0.1468765,0.2985904
0.9767328,-0.1498115,0.2984364
0.976065,-0.1500792,0.2962947
0.9754457,-0.1498298,0.29383
0.9748561,-0.1480281,0.2918892
0.9746156,-0.1454529,0.2942397
0.9745171,-0.1461941,0.297037
0.9741666,-0.147563,0.2998434
0.9750684,-0.1490401,0.3003564
0.9754676,-0.1479952,0.2969628
0.9749445,-0.1466723,0.2967181
0.9768523,-0.1493911,0.2953095
0.9785564,-0.1502618,0.2934412
0.9774938,-0.1481477,0.2939151
0.9766764,-0.146722,0.2891267
0.97542,-0.1481011,0.2872935
0.9717396,-0.1503399,0.2902506
0.9684579,-0.1497954,0.2898101
0.9702615,-0.149041,0.2927377
0.974783,-0.1484969,0.2978342
0.9755098,-0.1481085,0.2992471
0.9746436,-0.1479396,0.2989312
0.9742043,-0.1453293,0.2980749
0.9731844,-0.1426913,0.2987801
0.9734715,-0.1419184,0.2988834
0.9727208,-0.144933,0.2981484
0.9710048,-0.14967,0.2989658
0.9715251,-0.1481802,0.2978174
0.9725109,-0.1458147,0.2948531
0.9722467,-0.1468784,0.2929947
0.9710586,-0.1460115,0.2962735
0.970445,-0.1472968,0.3024572
0.9699939,-0.1504598,0.3021746
0.969312,-0.1487588,0.3013224
0.9704839,-0.1452985,0.3037251
0.9721416,-0.1441338,0.3026829
0.972498,-0.1460224,0.3023806
0.9716283,-0.1482638,0.3034371
0.9694236,-0.1471686,0.3044205
0.967393,-0.1467167,0.3098926
0.9685366,-0.1477252,0.313796
0.9733178,-0.1470194,0.3100791
0.9770306,-0.1471133,0.3065391
0.9767896,-0.1469568,0.3082044
0.9749905,-0.1442884,0.3073288
0.9746979,-0.1423611,0.3041489
0.9754571,-0.1431206,0.3057172
0.9757329,-0.1455125,0.3061592
0.9766601,-0.1471206,0.303951
0.9761111,-0.1471191,0.3015061
0.9736342,-0.145502,0.2972231
0.9734859,-0.1439964,0.298175
0.9753635,-0.1462124,0.3017897
0.9765609,-0.1487298,0.3022147
0.9761932,-0.149184,0.3068709
0.9761857,-0.1492745,0.311397
0.9756339,-0.1469962,0.3090069
0.9732577,-0.146169,0.3070682
0.9725567,-0.148118,0.3075896
0.9721314,-0.1474771,0.3061075
0.9719051,-0.1484902,0.3046996
0.9728387,-0.1511858,0.3058885
0.9728367,-0.1498578,0.3061303
0.9738881,-0.1495258,0.3072325
0.973942,-0.1502006,0.3110571
0.9727322,-0.147527,0.3113823
0.9727196,-0.1449213,0.3089819
0.9729028,-0.1440468,0.3078736
0.9756048,-0.1454605,0.308111
0.9769121,-0.1474207,0.3084134
0.97523,-0.1475772,0.3059602
0.9748784,-0.1490284,0.3031283
0.9718037,-0.1505814,0.3024984
0.9684837,-0.1500849,0.3035631
0.9682998,-0.1497572,0.304462
0.968533,-0.1500707,0.3022222
0.9709536,-0.1510102,0.3016876
0.9712659,-0.1543043,0.3068828
0.9692367,-0.1583772,0.3115105
0.9705254,-0.1563007,0.3091814
0.9737196,-0.1494869,0.3027397
0.9773528,-0.1459918,0.2990154
0.9754568,-0.1469465,0.2990595
0.9712356,-0.1496893,0.3013371
0.9724457,-0.1495483,0.3041552
0.9708417,-0.1477781,0.3099871
0.9703567,-0.1479324,0.3149409
0.9755885,-0.146983,0.309275
0.9762959,-0.1469493,0.3061737
0.9729576,-0.1476719,0.3088767
0.9699536,-0.1465112,0.3034409
0.9721236,-0.1455732,0.2996941
0.9763873,-0.1437958,0.3015606
0.974837,-0.1431263,0.3017062
0.975861,-0.1434426,0.3011789
0.9791774,-0.1439845,0.3001691
0.978787,-0.1504047,0.2997375
0.977738,-0.1558036,0.2980081
0.9755774,-0.1510834,0.2976972
0.9760727,-0.1460077,0.3027413
0.9770466,-0.1481413,0.3064048
0.9747989,-0.149125,0.3022172
0.9746039,-0.1490554,0.2945268
0.9736766,-0.1538883,0.293357
0.9732244,-0.1560025,0.293329
0.9763739,-0.155275,0.291142
0.9789217,-0.1559627,0.2922117
0.9811375,-0.1548272,0.2914044
0.9810202,-0.1538766,0.291394
0.9780159,-0.1533494,0.2925164
0.9746665,-0.1565932,0.2922123
0.9711842,-0.1619346,0.2962296
0.9723693,-0.1589242,0.3001029
0.9754613,-0.1533774,0.3020777
0.9752842,-0.1484985,0.3013392
0.9782427,-0.143451,0.297493
0.9803909,-0.144476,0.298169
0.976222,-0.1460777,0.2993254
0.9734247,-0.1473022,0.299516
0.9707742,-0.1524476,0.3041458
0.9688916,-0.1553519,0.3074788
0.9732988,-0.1540632,0.3031501
0.9769313,-0.1508841,0.293856
0.9776989,-0.1465525,0.2863493
0.9787105,-0.1437248,0.2855833
0.9762251,-0.1472308,0.2885659
0.9724013,-0.1544976,0.2871623
0.974879,-0.1568088,0.2867618
0.9780455,-0.1570075,0.2888126
0.9747029,-0.1574,0.2877372
0.973356,-0.1563495,0.293886
0.9741389,-0.1567221,0.2996944
0.9731549,-0.1543871,0.2959275
0.9748704,-0.1515217,0.2950652
0.9753415,-0.1522405,0.2960882
0.9752336,-0.1493291,0.2963559
0.9779811,-0.1449633,0.2974944
0.9797144,-0.1452329,0.2989644
0.9796342,-0.1467374,0.2989291
0.9780498,-0.1468903,0.2952206
0.976759,-0.1489529,0.2921468
0.9753113,-0.1511607,0.289011
0.9750295,-0.149664,0.2888945
0.9769504,-0.1511223,0.2908585
0.9768771,-0.1576749,0.2896691
0.9775286,-0.162861,0.2916031
0.9757224,-0.1616219,0.2929173
0.9721981,-0.1564607,0.2945736
0.9757176,-0.1538819,0.2987511
0.9768145,-0.1485198,0.2963863
0.9720514,-0.1434843,0.2947322
0.9691829,-0.1461982,0.2968228
0.9698148,-0.1461592,0.2982112
0.9727018,-0.1432832,0.30243
0.9726261,-0.1429371,0.3052509
0.972641,-0.1429331,0.3045974
0.974721,-0.1444422,0.3041774
0.9753646,-0.1457351,0.3017272
0.9776923,-0.1472494,0.2982484
0.9785248,-0.1495088,0.2974572
0.9772189,-0.1508115,0.2933973
0.9774166,-0.1538304,0.2867189
0.975199,-0.1591266,0.285711
0.9725951,-0.1623172,0.2852964
0.9736338,-0.1582163,0.2858854
0.9750481,-0.1532627,0.2905698
0.975148,-0.1541913,0.2911282
0.9760925,-0.1538469,0.2905609
0.9776505,-0.1499306,0.293331
0.9779861,-0.143247,0.2976019
0.9776284,-0.1383475,0.3034851
0.9767732,-0.1429133,0.3035521
0.9757858,-0.1466772,0.2999498
0.9740563,-0.1446199,0.3029532
0.9704425,-0.1462912,0.3042629
0.9694909,-0.1492905,0.3006927
0.9748483,-0.149973,0.2988596
0.9798612,-0.1496123,0.2931126
0.9780666,-0.1483067,0.2892402
0.9763687,-0.1507426,0.2932941
0.977563,-0.1552398,0.2945983
0.9751787,-0.156064,0.2959376
0.9740856,-0.1554169,0.2980869
0.9759243,-0.1535891,0.2973107
0.9756133,-0.1492294,0.2989205
0.9765169,-0.1449192,0.2970202
0.976868,-0.1440581,0.2936631
0.9756242,-0.1447901,0.2960153
0.9758248,-0.1426282,0.298413
0.9747497,-0.1426999,0.30175
0.9746258,-0.1453682,0.3033924
0.9758939,-0.1452178,0.299403
0.9764502,-0.1476379,0.2958725
0.9781679,-0.1513736,0.2953507
0.9773082,-0.1503195,0.2970217
0.9754175,-0.1491834,0.2969329
0.9767003,-0.1502255,0.2933907
0.9766074,-0.1492907,0.2910529
0.97599,-0.1480435,0.2931603
0.976338,-0.1497742,0.2966992
0.9745014,-0.1502421,0.2959879
0.9729861,-0.1488667,0.2950566
0.9737416,-0.1482896,0.2948192
0.974589,-0.1471637,0.2902838
0.9742527,-0.145236,0.2881919
0.9733729,-0.1430125,0.2923517
0.9734559,-0.1433265,0.2978096
0.9736308,-0.1448504,0.2998508
0.9726553,-0.1456422,0.2982704
0.9720693,-0.150074,0.2983564
0.9732748,-0.1540258,0.2989822
0.9749419,-0.1537257,0.2983734
0.9756149,-0.1515865,0.2981451
0.9766999,-0.1482708,0.2952548
0.9779259,-0.1491633,0.2901572
0.9762645,-0.1528834,0.2884405
0.9740188,-0.1530394,0.2914066
0.975325,-0.1519626,0.2950581
0.9773247,-0.1492783,0.2991917
0.977858,-0.145988,0.3033315
0.9779379,-0.1469621,0.3030175
0.9762946,-0.1483164,0.3025092
0.9742281,-0.1485667,0.3041146
0.9732844,-0.1506969,0.3037955
0.9736516,-0.151581,0.3025296
0.9758302,-0.1518505,0.3008196
0.9767957,-0.1527634,0.299015
0.9771039,-0.1492596,0.2921128
0.979925,-0.1456199,0.2817646
0.9825744,-0.1473006,0.2850306
0.9804047,-0.1476676,0.2962207
0.9759019,-0.1457881,0.2999447
0.9758036,-0.1457262,0.2987413
0.9758727,-0.1460373,0.2941186
0.9733626,-0.1467088,0.2923595
0.9734927,-0.1477283,0.2964557
0.9737198,-0.1479719,0.2985957
0.9734786,-0.1474758,0.2975722
0.9738134,-0.1453657,0.2930494
0.9737405,-0.1439504,0.2902329
0.975556,-0.1462587,0.2920478
0.976917,-0.1483649,0.2918268
0.9764751,-0.14777,0.2914461
0.975828,-0.1480366,0.2935898
0.9746025,-0.1488439,0.3006719
0.9729104,-0.1486239,0.3091297
0.9717365,-0.1486065,0.3065355
0.9725899,-0.1482031,0.2996492
0.9738238,-0.1472143,0.2987422
0.9739458,-0.1467644,0.2985019
0.973626,-0.1472161,0.2981329
0.9744674,-0.1465836,0.2981943
0.9765448,-0.1451563,0.2966572
0.9765301,-0.1459602,0.2972301
0.9760535,-0.1462925,0.2986644
0.9753339,-0.1472122,0.2978503
0.9727166,-0.1522668,0.2962344
0.9719224,-0.1555423,0.2937328
0.9730674,-0.1543853,0.2947785
0.9742642,-0.1529194,0.2976664
0.9745808,-0.151629,0.2979732
0.9746951,-0.1483502,0.3000714
0.9745895,-0.1467977,0.2976843
0.9729894,-0.1485718,0.2911577
0.9734865,-0.1477231,0.2911282
0.9743149,-0.1467852,0.2921085
0.974004,-0.1475069,0.2914024
0.9755017,-0.1467938,0.2920227
0.9751826,-0.1468662,0.2929776
0.9745231,-0.147159,0.2960417
0.9750482,-0.1479615,0.2982127
0.9730484,-0.1475162,0.2971972
0.9719681,-0.1453945,0.2966742
0.9739876,-0.1462744,0.2965715
0.9761164,-0.1467547,0.2961281
0.9769264,-0.1471207,0.2982152
0.9774365,-0.1478567,0.3010166
0.9765908,-0.1466093,0.2992909
0.973832,-0.1474285,0.2975689
0.9738421,-0.1474668,0.2987383
0.9741736,-0.1470863,0.2969174
0.9730126,-0.1491189,0.2949156
0.9748763,-0.1488749,0.2961555
0.9758187,-0.1482766,0.2971409
0.9763666,-0.1483847,0.2981643
0.9788138,-0.1471872,0.2979874
0.9787284,-0.1467214,0.2932011
0.9786359,-0.1474346,0.2886424
0.9777053,-0.1471079,0.2906962
0.9747375,-0.1448499,0.2927946
0.9755048,-0.1432348,0.2892899
0.9771111,-0.1426655,0.2889003
0.9766274,-0.1432021,0.2938623
0.9779676,-0.145045,0.2965069
0.9799269,-0.1478831,0.2936416
0.9793113,-0.1506514,0.2899517
0.9786816,-0.1466132,0.2913247
0.9794936,-0.1413787,0.2908688
0.9791607,-0.143174,0.2873597
0.9785896,-0.144148,0.289069
0.9776418,-0.1455204,0.2897348
0.9753301,-0.1501319,0.2895019
0.9743874,-0.1508329,0.293923
0.9736058,-0.1491136,0.2961805
0.9730261,-0.1482514,0.2954337
0.9740735,-0.1465495,0.293122
0.9734156,-0.1449887,0.2915515
0.9723891,-0.1444035,0.2960856
0.9728817,-0.1440947,0.2995265
0.9745626,-0.1448036,0.2943678
0.9774006,-0.1455074,0.29002
0.9768106,-0.1459324,0.2956868
0.97582,-0.147107,0.3014148
0.9784328,-0.1472495,0.3006172
0.9778955,-0.1475973,0.2999781
0.9753041,-0.1491358,0.2974742
0.9744718,-0.1499325,0.2947799
0.9733551,-0.1483018,0.2981484
0.9735029,-0.1438717,0.3010881
0.9747961,-0.1410788,0.2998432
0.9753868,-0.1410692,0.2980894
0.9759006,-0.1450461,0.298244
0.9765621,-0.1509232,0.299128
0.9762233,-0.1483396,0.2982402
0.9743621,-0.1434593,0.2975467
0.9731542,-0.1431588,0.2972791
0.9734793,-0.1429248,0.2970329
0.9738623,-0.146048,0.2983951
0.973551,-0.1483976,0.298534
0.9738243,-0.1475264,0.2966921
0.9755993,-0.1507923,0.2953731
0.9768201,-0.1529112,0.2953593
0.9769288,-0.147711,0.2954026
0.9779005,-0.1421385,0.2939943
0.9795721,-0.1447417,0.2955812
0.9785025,-0.149947,0.3021636
0.975949,-0.1513687,0.3073258
0.9763431,-0.1510098,0.3054056
0.9762682,-0.1441782,0.298757
0.9742902,-0.1392282,0.2960674
0.9733367,-0.1442486,0.2971804
0.9732685,-0.1462464,0.2970882
0.9743345,-0.1475333,0.2948401
0.9753788,-0.1521975,0.2899964
0.9764446,-0.1520596,0.2881406
0.9759379,-0.1503211,0.2916763
0.9731549,-0.14925,0.2969275
0.9734418,-0.1456273,0.3001139
0.9747251,-0.1430932,0.2982042
0.9767513,-0.1446677,0.296556
0.9803884,-0.1453487,0.2976223
0.9782562,-0.1455639,0.2990986
0.9745726,-0.1481312,0.3011345
0.9741365,-0.1474796,0.302373
0.9730377,-0.1464801,0.3034339
0.9729955,-0.1483577,0.3035548
0.9739062,-0.1497044,0.3029234
0.9742181,-0.1520488,0.3014561
0.9739001,-0.1513215,0.2970344
0.9726868,-0.1465327,0.2951875
0.9720287,-0.143426,0.2980029
0.970908,-0.1423836,0.3011962
0.9724747,-0.1441037,0.2999647
0.9776023,-0.1451853,0.290274
0.978011,-0.143951,0.2823491
0.9747088,-0.1445675,0.2886684
0.9727583,-0.1449677,0.2986308
0.9723073,-0.1462855,0.2997546
0.9726407,-0.1498381,0.3011724
0.9727083,-0.1502453,0.3026969
0.9773728,-0.147827,0.2978441
0.9845354,-0.1457083,0.2955806
0.9842188,-0.1452644,0.2915082
0.9763774,-0.1450856,0.2864423
0.9700241,-0.1433514,0.2903906
0.9742308,-0.1438556,0.2939207
0.979087,-0.1471089,0.2963169
0.975511,-0.1496293,0.2965318
0.97555,-0.1504871,0.2917541
0.976483,-0.1503209,0.2912259
0.9729908,-0.1512329,0.2908365
0.9739646,-0.1517049,0.2895802
0.9769105,-0.1492755,0.2892453
0.9790351,-0.147516,0.2856209
0.9799045,-0.1473905,0.2846768
0.9772816,-0.1468305,0.2887787
0.9757351,-0.1466082,0.2951893
0.9747853,-0.1435658,0.3001796
0.9740944,-0.1376706,0.3022757
0.9738835,-0.134598,0.3038818
0.9719184,-0.1330645,0.3035855
0.9745074,-0.1340846,0.3026792
0.978083,-0.1391772,0.3010031
0.9760526,-0.143307,0.3005988
0.9757375,-0.1464226,0.3013385
0.9760819,-0.1474408,0.2953746
0.9745726,-0.14669,0.2902648
0.9759994,-0.1482068,0.2914752
0.9779062,-0.1498722,0.2920692
0.9778801,-0.1511331,0.2916642
0.9770357,-0.1482693,0.2913697
0.9741861,-0.1419864,0.2919138
0.9716765,-0.1426261,0.2924177
0.9744855,-0.1450756,0.2951019
0.9782018,-0.1451143,0.2994415
0.9770204,-0.1480496,0.2961651
0.9763749,-0.150752,0.2864308
0.9769843,-0.1521048,0.2797953
0.9759726,-0.1519509,0.2848128
0.9773886,-0.1520763,0.2956416
0.9782478,-0.1539032,0.2987869
0.9764481,-0.1520088,0.2985314
0.9762877,-0.1497894,0.2970755
0.9759773,-0.1466108,0.2947992
0.9746082,-0.1415205,0.2970987
0.9732187,-0.1429642,0.2977652
0.972968,-0.1442697,0.2969774
0.9733433,-0.1439472,0.2983941
0.9716855,-0.1469021,0.2987117
0.9722782,-0.1454611,0.2991365
0.9746671,-0.1424298,0.3002546
0.9750194,-0.1415068,0.3018628
0.9753717,-0.1405007,0.3018657
0.9749518,-0.139221,0.3010265
0.9757332,-0.1348181,0.303568
0.9767297,-0.1343581,0.3037291
0.9742941,-0.1401395,0.2986141
0.9732241,-0.1436492,0.2933431
0.9746693,-0.1471297,0.2906439
0.9765069,-0.1533251,0.287998
0.9774943,-0.1576975,0.2832156
0.9768528,-0.1565514,0.2823805
0.9763558,-0.1527261,0.2871205
0.9761054,-0.1502875,0.2919451
0.9765494,-0.1481149,0.2915031
0.9765265,-0.1466712,0.2899406
0.9760609,-0.1447711,0.294915
0.9763344,-0.1416264,0.2949257
0.9744888,-0.1385996,0.2914975
0.9729552,-0.1372895,0.2963853
0.9736517,-0.1420933,0.3005011
0.9742966,-0.1463079,0.3028485
0.9762492,-0.1443697,0.3014179
0.9783267,-0.1437956,0.2956182
0.9773119,-0.1452414,0.2952377
0.9754777,-0.1464268,0.2930476
0.9764869,-0.1483957,0.2915907
0.9763505,-0.1493081,0.2954368
0.9731167,-0.1484901,0.2939769
0.9720771,-0.1494731,0.2921385
0.9737565,-0.1519695,0.2920992
0.9758291,-0.153199,0.2920394
0.9753083,-0.1543309,0.295782
0.974365,-0.1525131,0.2964746
0.9764984,-0.1489742,0.2954702
0.9762347,-0.1479906,0.296947
0.9743179,-0.1460148,0.2965361
0.9734211,-0.1456616,0.2964246
0.9734194,-0.1489828,0.2966325
0.9756381,-0.1501869,0.2963887
0.9751675,-0.1475,0.2965373
0.9738505,-0.1449454,0.2956259
0.9753692,-0.1481818,0.2964004
0.9761638,-0.1535238,0.2995805
0.9764965,-0.1548391,0.3011406
0.9764352,-0.1535975,0.2956098
0.9763085,-0.1495373,0.288868
0.9761154,-0.1438312,0.2913993
0.9745037,-0.1408954,0.2928854
0.9735292,-0.1418106,0.2890365
0.9754632,-0.1439756,0.2908734
0.9791457,-0.1450092,0.2952267
0.9790816,-0.1464267,0.2965355
0.9751768,-0.1476346,0.2956608
0.9728573,-0.1472996,0.2927833
0.9742485,-0.1471046,0.2892596
0.976929,-0.1477209,0.2863035
0.9766468,-0.1503782,0.287448
0.9768914,-0.1539349,0.2905028
0.9781623,-0.1544263,0.2913757
0.9757705,-0.1507076,0.29394
0.9744865,-0.1462263,0.2948486
0.9763311,-0.1451017,0.2918614
0.978581,-0.1460934,0.2897076
0.9794413,-0.1473352,0.2889896
0.9770716,-0.149117,0.291536
0.9748044,-0.1505778,0.2952889
0.9750504,-0.1502325,0.2963916
0.9769779,-0.1494796,0.2910788
0.9783842,-0.1503077,0.2828785
0.9777827,-0.1495368,0.2850787
0.977557,-0.1469847,0.2866394
0.9780899,-0.1450274,0.2810441
0.9786801,-0.1426214,0.2823555
0.9793723,-0.1386506,0.2792397
0.9794847,-0.1346054,0.2719307
0.9802444,-0.1370275,0.2757084
0.9822836,-0.1429246,0.2810738
0.981593,-0.1474996,0.2903943
0.9763118,-0.1548569,0.3044013
0.9734382,-0.1571802,0.303516
0.9756387,-0.1539161,0.2935299
0.977266,-0.1524627,0.2909223
0.9776372,-0.1496881,0.2948487
0.9769198,-0.1502383,0.2994209
0.9740494,-0.1512413,0.2993229
0.9729068,-0.1460815,0.2981196
0.9738763,-0.1398952,0.295918
0.9736622,-0.1331359,0.2894577
0.9734604,-0.1320384,0.2906035
0.9737399,-0.1364097,0.2947876
0.9733615,-0.1363265,0.29463
0.9727365,-0.136467,0.3000737
0.9719686,-0.1390131,0.3001202
0.9726079,-0.1408018,0.296287
0.975163,-0.1415845,0.3000321
0.9774131,-0.1432707,0.2977206
0.9786652,-0.1480735,0.2929462
0.979912,-0.1482431,0.2901517
0.9801584,-0.1459058,0.285723
0.9778838,-0.1480924,0.2851843
0.9770446,-0.1482191,0.2822612
0.9785028,-0.1481055,0.2800037
0.9785425,-0.1484896,0.2811766
0.9788722,-0.146157,0.2800531
0.9778352,-0.1465339,0.281996
0.9753443,-0.1466167,0.2834454
0.976575,-0.1453466,0.2845548
0.9779856,-0.1467489,0.2895346
0.9784335,-0.1489617,0.2956291
0.9797774,-0.1508668,0.3017886
0.9789396,-0.1489844,0.3006959
0.9779613,-0.1459468,0.2983073
0.9776858,-0.1438899,0.3001897
0.9762158,-0.1394441,0.2975728
0.9748988,-0.1394811,0.2943141
0.9751337,-0.1419259,0.289163
0.9785027,-0.1422846,0.2834911
0.9803026,-0.1456794,0.2862874
0.9776835,-0.1469204,0.2879764
0.9773214,-0.1466468,0.2885468
0.9782098,-0.1477645,0.2932231
0.9776854,-0.1450029,0.2919388
0.9787671,-0.1436676,0.2885233
0.979314,-0.1457333,0.2892311
0.9780531,-0.1487545,0.2889823
0.9765785,-0.1522654,0.2905534
0.9761559,-0.1489228,0.2926659
0.9780113,-0.1434529,0.2910333
0.9807578,-0.1442722,0.2897161
0.9823714,-0.1450669,0.2882748
0.9800704,-0.1449617,0.2866418
0.9762024,-0.146301,0.2868475
0.9760177,-0.1450353,0.2893891
0.9766265,-0.1421195,0.2941343
0.9762826,-0.1431384,0.2947671
0.976634,-0.148243,0.2935848
0.9772286,-0.1484872,0.295523
0.9778928,-0.1436115,0.2960911
0.9770231,-0.1429632,0.2971934
0.9761883,-0.1416467,0.2958942
0.9782608,-0.1395682,0.2875397
0.9798964,-0.1445517,0.2799652
0.9788223,-0.148077,0.2786
0.9770561,-0.1478201,0.2849393
0.9760693,-0.1501654,0.2908518
0.9761815,-0.1534646,0.2886896
0.9766423,-0.1530091,0.2872662
0.9760029,-0.1472269,0.2875051
0.9744359,-0.1441965,0.2862368
0.9736206,-0.1446451,0.2888151
0.9752705,-0.1440052,0.2928689
0.9783687,-0.1451561,0.2924396
0.9791014,-0.146208,0.2913181
0.9781804,-0.1465694,0.2959143
0.9760126,-0.1434221,0.3002057
0.9723102,-0.1386573,0.2984428
0.973066,-0.1434903,0.2965692
0.9747725,-0.1500654,0.2969642
0.9732251,-0.1498527,0.2969278
0.9754052,-0.1470793,0.2935816
0.9772623,-0.1429915,0.2902648
0.9751004,-0.1423817,0.2914866
0.9748741,-0.1447703,0.2913464
0.9759552,-0.1455896,0.2897351
0.9768856,-0.1469797,0.2911842
0.977232,-0.1480033,0.2922454
0.9764625,-0.1487913,0.2920709
0.9747087,-0.1498726,0.2948755
0.9730362,-0.1466825,0.300103
0.975376,-0.1428732,0.3009056
0.9775015,-0.144282,0.2978125
0.9760463,-0.1453132,0.2978533
0.9753163,-0.1438284,0.2985037
0.9722377,-0.1444799,0.2966518
0.9685709,-0.1448231,0.2968854
0.9725602,-0.1443507,0.2976965
0.9773379,-0.1464856,0.2955431
0.975741,-0.1469053,0.2937763
0.9756822,-0.1427305,0.2927274
0.9772769,-0.1387919,0.2929957
0.974771,-0.1400982,0.2954338
0.9736484,-0.1434122,0.2960928
0.9738577,-0.1440323,0.2959076
0.9732655,-0.1456362,0.295822
0.9750951,-0.1468448,0.2958031
0.9759386,-0.1468601,0.2970338
0.975576,-0.1485588,0.2967581
0.97472,-0.1472082,0.2946262
0.9722747,-0.1465688,0.2924332
0.9705571,-0.1489364,0.2937826
0.9695185,-0.1483581,0.2970521
0.9716831,-0.1476776,0.2950505
0.9752192,-0.1471586,0.2911078
0.976599,-0.1467955,0.2903455
0.9768343,-0.1475419,0.2950568
0.9739858,-0.1460876,0.302156
0.9729183,-0.145469,0.3031265
0.9742977,-0.1460323,0.3023326
0.9741504,-0.1457095,0.3028284
0.9754506,-0.1459379,0.3004059
0.975166,-0.1454137,0.2980438
0.9745082,-0.1436723,0.2982038
0.975673,-0.1408251,0.2998397
0.9754223,-0.1395511,0.2998289
0.9759732,-0.1418583,0.299361
0.9759196,-0.1438779,0.2999728
0.9762269,-0.1451392,0.2961008
0.9778006,-0.1464809,0.2918871
0.9769005,-0.1473646,0.2920521
0.9768975,-0.1479979,0.2922338
0.9775742,-0.1486625,0.2941069
0.9775287,-0.1505192,0.2968389
0.9781785,-0.1503486,0.2960886
0.9776155,-0.1483398,0.2952024
0.9770976,-0.1487265,0.2952648
0.9757501,-0.1486357,0.290777
0.9741516,-0.1480157,0.2835975
0.9761662,-0.1471754,0.2820035
0.9770711,-0.1450123,0.2845923
0.975895,-0.145508,0.2870666
0.9769102,-0.1455084,0.2898088
0.9782841,-0.143692,0.2904015
0.9794643,-0.1445145,0.2897538
0.9796263,-0.14475,0.2906376
0.9784306,-0.1441098,0.2896586
0.9783004,-0.1448061,0.2863087
0.976452,-0.1456814,0.2848994
0.9738269,-0.1478041,0.2886321
0.9740451,-0.1490147,0.293713
0.9760506,-0.1465797,0.2929873
0.9785919,-0.1441006,0.2946469
0.9773163,-0.144224,0.300721
0.9751692,-0.1446852,0.2959758
0.9767352,-0.1447021,0.2869872
0.9756779,-0.1462054,0.2839667
0.9741983,-0.1473121,0.2841645
0.9753959,-0.1446846,0.2890393
0.9749529,-0.1423887,0.2897409
0.9748649,-0.1456274,0.2859113
0.9750107,-0.1481815,0.2862093
0.9739382,-0.1443563,0.2858801
0.9739844,-0.1418504,0.2866288
0.9765013,-0.1445761,0.2891856
0.9805644,-0.1468842,0.2905187
0.9813924,-0.1470953,0.2910541
0.9798355,-0.1450758,0.2897063
0.9797456,-0.1409846,0.2917897
0.9790821,-0.1396644,0.2960666
0.9784651,-0.1422728,0.300448
0.9777405,-0.1438512,0.3048109
0.976066,-0.1431674,0.3009068
0.9778633,-0.1436395,0.292822
0.9803343,-0.1449828,0.2872303
0.9790008,-0.144685,0.2872765
0.9789107,-0.1449952,0.2916353
0.9805472,-0.1465668,0.2918531
0.9802362,-0.1465875,0.2939174
0.9788241,-0.1460924,0.2928102
0.9774191,-0.1448971,0.2867219
0.9783346,-0.1428464,0.2935846
0.9796667,-0.1429226,0.2987776
0.9771685,-0.143609,0.2945163
0.9757345,-0.1448184,0.2958921
0.9774993,-0.1474262,0.2955749
0.9779885,-0.1476544,0.2912121
0.9766715,-0.1464985,0.287447
0.9750667,-0.1455652,0.287275
0.9749135,-0.1442982,0.2924576
0.9760226,-0.1459178,0.2945647
0.9764519,-0.1482616,0.2964152
0.9750739,-0.1468446,0.2975359
0.9718342,-0.1447505,0.2925227
0.9705377,-0.1434652,0.2908322
0.973654,-0.1427867,0.2926316
0.9770633,-0.1449933,0.2947093
0.97679,-0.1466633,0.2975088
0.9757978,-0.1456375,0.2973326
0.9766948,-0.146034,0.2985931
0.9764547,-0.1476453,0.2996306
0.9760978,-0.1481406,0.2972943
0.97634,-0.1466698,0.2971086
0.9744305,-0.1440169,0.2965711
0.9730525,-0.1426431,0.2993863
0.9737291,-0.1427248,0.304614
0.9747208,-0.1437447,0.3002001
0.9752223,-0.1448858,0.2965047
0.9751479,-0.1462244,0.2985518
0.9758695,-0.147284,0.2943376
0.9766743,-0.1469429,0.2897593
0.9763027,-0.1472353,0.2920885
0.9753304,-0.1463029,0.2954229
0.9747606,-0.1442599,0.296958
0.9750005,-0.1442804,0.2982977
0.9747066,-0.1436726,0.2998485
0.9731875,-0.1436463,0.3018296
0.971849,-0.1449728,0.3017896
0.9728979,-0.1452056,0.2984297
0.9743362,-0.1452995,0.2964529
0.9734575,-0.1449905,0.2962508
0.9730072,-0.1453008,0.2989166
0.9721541,-0.1462043,0.3031802
0.9700877,-0.1465777,0.3020005
0.9711695,-0.1467956,0.3030628
0.9742249,-0.1462833,0.3062405
0.9763522,-0.1465455,0.2999429
0.9770131,-0.1465438,0.2939258
0.9753556,-0.1453671,0.295657
0.9726727,-0.1447038,0.2971941
0.9704723,-0.1433798,0.2982021
0.9722368,-0.14264,0.3014507
0.9768641,-0.1431641,0.3007906
0.9766938,-0.1427675,0.2952435
0.9747059,-0.1412021,0.2936644
0.9743039,-0.1397258,0.2956674
0.9733727,-0.1406514,0.2971141
0.9754398,-0.1436935,0.299243
0.9773021,-0.1468279,0.3049604
0.9761301,-0.1475384,0.3122488
0.9763016,-0.1442798,0.3095846
0.97652,-0.141984,0.3013144
0.9763149,-0.1431235,0.2993001
0.9764333,-0.1443365,0.2996236
0.97615,-0.1472111,0.3016717
0.9755798,-0.1514099,0.3037908
0.974829,-0.1505024,0.3029301
0.975994,-0.1478851,0.2995014
0.9778015,-0.1489489,0.2937304
0.9772491,-0.1487288,0.2957468
0.9741697,-0.1477841,0.3013076
0.9710628,-0.147342,0.3011321
0.9718572,-0.1450087,0.3023538
0.973055,-0.1455517,0.3027263
0.9719315,-0.1465789,0.3026496
0.9733875,-0.1450537,0.3034353
0.9758966,-0.1451308,0.3014106
0.9757572,-0.1441767,0.2998491
0.9747182,-0.1430771,0.294035
0.9737797,-0.1431574,0.2904214
0.9735484,-0.1417646,0.2966447
0.9736122,-0.1422699,0.301297
0.9735181,-0.1452976,0.3031222
0.9737722,-0.148348,0.3023805
0.9736785,-0.1489472,0.2974218
0.974304,-0.1487491,0.2944635
0.9745261,-0.1506735,0.29504
0.9730769,-0.14891,0.2963654
0.9725393,-0.1456052,0.2983845
0.9725941,-0.1450411,0.3007805
0.9737501,-0.143834,0.300586
0.9757499,-0.14449,0.3014834
0.9755408,-0.1448777,0.3017854
0.9762727,-0.1436934,0.298447
0.9786511,-0.1432366,0.2975722
0.9780021,-0.1391334,0.2959283
0.9771309,-0.1364416,0.2959569
0.9780534,-0.1396084,0.3001134
0.9768463,-0.1422924,0.3018854
0.9758398,-0.1427702,0.3020988
0.9766388,-0.1433495,0.3012108
0.9761841,-0.1449547,0.3040335
0.974705,-0.1453235,0.3071076
0.9712644,-0.1442756,0.3049538
0.9690284,-0.1442114,0.3055214
0.9737791,-0.144577,0.3053214
0.9780797,-0.144545,0.301784
0.974681,-0.1442523,0.2973662
0.9722039,-0.1445431,0.2943068
0.9756273,-0.1445202,0.2970745
0.9782734,-0.1440632,0.2980494
0.9790768,-0.1439418,0.2964243
0.9779997,-0.143564,0.2965851
0.9750037,-0.1445754,0.2955574
0.9754379,-0.1449139,0.2956189
0.975145,-0.1439372,0.2963464
0.9721601,-0.1450156,0.2965166
0.9715143,-0.1463359,0.2975342
0.9710881,-0.1471362,0.297214
0.9714563,-0.1455594,0.2960422
0.9712276,-0.1415527,0.2962404
0.9706721,-0.1419966,0.298627
0.9749735,-0.146535,0.3017814
0.9775374,-0.1492663,0.3007509
0.976291,-0.1465022,0.2938298
0.9761819,-0.1426174,0.2863451
0.9763986,-0.1447453,0.2844939
0.9767665,-0.1464353,0.2867822
0.9770951,-0.1460256,0.2864861
0.9775108,-0.147867,0.2858968
0.975063,-0.1462147,0.2905494
0.9704911,-0.1440379,0.2973266
0.9706648,-0.1447499,0.301864
0.9730119,-0.1443408,0.2993612
0.9741958,-0.1459565,0.2922495
0.9747408,-0.1489637,0.2892863
0.9746583,-0.1495147,0.2891136
0.9742832,-0.1450822,0.2882339
0.972286,-0.1402248,0.2865515
0.9722333,-0.1458093,0.2903519
0.975678,-0.1514256,0.29747
0.9788094,-0.1480305,0.2945382
0.9798345,-0.1477968,0.2927014
0.978007,-0.1492456,0.2963071
0.9770372,-0.1461498,0.2946018
0.9770741,-0.1444991,0.2953038
0.9750952,-0.1450583,0.2941036
0.9747557,-0.144781,0.2899314
0.9761307,-0.142681,0.2928889
0.9766052,-0.1406689,0.2939234
0.9766638,-0.1419359,0.2927758
0.9770811,-0.1432238,0.2951091
0.9779802,-0.1438684,0.2958149
0.9770357,-0.1461494,0.293304
0.9757636,-0.1473332,0.2905085
0.976537,-0.1486443,0.2927289
0.9765512,-0.1491033,0.2986985
0.9761657,-0.1465295,0.3025054
0.9767049,-0.1467279,0.3008553
0.9772605,-0.1479721,0.2958307
0.9778175,-0.1466417,0.2952458
0.9770657,-0.1461056,0.29666
0.975856,-0.144963,0.2972323
0.9762207,-0.14341,0.2994313
0.975583,-0.1429042,0.2982325
0.9737638,-0.1412596,0.2951407
0.9743898,-0.1418788,0.2934751
0.9763379,-0.1458889,0.2930836
0.9761965,-0.1474912,0.2955546
0.973586,-0.1448255,0.2966527
0.9715047,-0.1417751,0.2977578
0.9732762,-0.1429845,0.2984844
0.9762348,-0.1448828,0.2946052
0.976704,-0.144197,0.2943537
0.976176,-0.145519,0.2987491
0.9756274,-0.1465125,0.3015467
0.9755996,-0.1463438,0.3007333
0.9766386,-0.1477427,0.2963654
0.976275,-0.1472419,0.2953434
0.974296,-0.1467432,0.297941
0.9733708,-0.1466654,0.2990961
0.9745317,-0.1449677,0.2988701
0.9764373,-0.1440299,0.2981358
0.9763248,-0.1429403,0.2984594
0.9740253,-0.1434993,0.2970128
0.9710096,-0.1452563,0.2948728
0.9683013,-0.1452159,0.2960013
0.9690687,-0.1485923,0.2960894
0.9752874,-0.1525909,0.295702
0.9806921,-0.1478012,0.2967489
0.9764291,-0.1390842,0.2966993
0.9702721,-0.1384367,0.2962094
0.9713807,-0.1499247,0.2954234
0.9688914,-0.1601672,0.2942703
0.9632554,-0.1502715,0.2970476
0.9635802,-0.1341514,0.3119017
0.9671256,-0.1333929,0.3326148
0.9727124,-0.1342311,0.3354813
0.9719086,-0.128008,0.3184251
0.9676777,-0.1246321,0.3048482
0.9723223,-0.1292284,0.30267
0.9800281,-0.1332868,0.2943291
1.019126,-0.05030749,0.1206146
1.019857,-0.04940644,0.1194825
1.019292,-0.04918559,0.1162065
1.019414,-0.04639744,0.1155841
1.019542,-0.04532989,0.1111923
1.019344,-0.04821162,0.1113792
1.019699,-0.05014828,0.1181717
1.020296,-0.05132369,0.1238057
1.021287,-0.05144995,0.1250311
1.021867,-0.05208907,0.1236463
1.022051,-0.05524533,0.1218629
1.0216,-0.05890474,0.1131428
1.019993,-0.06012259,0.1061434
1.018582,-0.05829885,0.1103858
1.015917,-0.05548627,0.1166623
1.013328,-0.05148681,0.1196086
1.013892,-0.05045872,0.1189473
1.014114,-0.05066869,0.1216457
1.013791,-0.04530763,0.1271908
1.015522,-0.04120511,0.1255896
1.018164,-0.03932181,0.1265922
1.019765,-0.04212034,0.134864
1.017026,-0.05057596,0.1386038
1.015213,-0.04970199,0.1356887
1.022545,-0.04923,0.1272762
1.028304,-0.05641364,0.1196828
1.02198,-0.05777532,0.1232114
1.015056,-0.05852497,0.1284525
1.014614,-0.05925895,0.1260696
1.012382,-0.0592524,0.1265754
1.011808,-0.06159285,0.1273503
1.017487,-0.05722304,0.1178608
1.019841,-0.05144805,0.1092406
1.01944,-0.04984553,0.110427
1.018989,-0.04853335,0.1143186
1.015049,-0.05102968,0.1159991
1.011356,-0.05404635,0.1195747
1.012109,-0.05324381,0.1235652
1.021206,-0.05459902,0.1193204
1.029887,-0.06013197,0.114386
1.025029,-0.06245701,0.1169499
1.015654,-0.05984189,0.1233824
1.010914,-0.05644022,0.1301446
1.011802,-0.05308605,0.1288782
1.015687,-0.05401737,0.1255364
1.015454,-0.05791875,0.1280019
1.015392,-0.05774933,0.124392
1.018832,-0.0539977,0.1154336
1.021674,-0.05030556,0.109326
1.022973,-0.05263352,0.1102526
1.021158,-0.05750266,0.1176705
1.020251,-0.05797632,0.1189581
1.022265,-0.05914719,0.1172601
1.022144,-0.0563408,0.1177959
1.020049,-0.05055472,0.1172299
1.014409,-0.0548821,0.1239514
1.009587,-0.05926172,0.1290138
1.014751,-0.05797827,0.1200027
1.021107,-0.05990524,0.109223
1.021419,-0.06180823,0.1058917
1.022158,-0.06281078,0.1050438
1.022898,-0.06225014,0.1029829
1.021693,-0.05826025,0.1044092
1.02189,-0.05621722,0.1047305
1.020278,-0.05678028,0.1030601
1.0154,-0.05828172,0.1081152
1.012726,-0.05916634,0.1126596
1.012266,-0.06068425,0.1132613
1.014216,-0.06288352,0.1122199
1.019179,-0.05716544,0.1096894
1.023029,-0.04530312,0.1054436
1.02366,-0.04077989,0.1012286
1.021387,-0.05202921,0.1137203
1.017497,-0.06794505,0.1321462
1.01316,-0.07153519,0.1320567
1.013156,-0.07152243,0.1249622
1.01745,-0.07257345,0.1185253
1.01962,-0.06833621,0.1122411
1.022172,-0.06614422,0.1130265
1.022335,-0.06098789,0.1153712
1.018989,-0.05203238,0.1142682
1.018516,-0.05297874,0.1151683
1.016247,-0.05883525,0.1157898
1.015638,-0.06206041,0.1127147
1.017909,-0.05976184,0.1128478
1.016057,-0.05464989,0.1162736
1.016492,-0.05582483,0.1179915
1.018387,-0.05800321,0.1141908
1.021872,-0.05968438,0.1072131
1.029726,-0.06394884,0.1072065
1.029713,-0.06701419,0.1103712
1.022418,-0.07017118,0.1176195
1.015893,-0.07100518,0.128775
1.011937,-0.07119531,0.1274581
1.013151,-0.072321,0.1251244
1.01137,-0.06675556,0.1313689
1.006324,-0.05948029,0.1317677
1.009044,-0.05564422,0.1271021
1.014163,-0.05305501,0.1221638
1.017259,-0.05282735,0.1226522
1.021328,-0.05513175,0.1274011
1.022182,-0.06046919,0.1273965
1.019334,-0.06504567,0.1287013
1.015394,-0.06588842,0.1275959
1.014837,-0.06531456,0.1220213
1.019855,-0.06576867,0.1234681
1.022704,-0.07005159,0.1250469
1.021764,-0.07359323,0.1254053
1.018563,-0.07194759,0.1290697
1.01493,-0.067962,0.1272031
1.014871,-0.06268277,0.1214823
1.014657,-0.05824172,0.115714
1.016737,-0.05976903,0.1132335
1.021153,-0.06512005,0.1213118
1.02006,-0.06596569,0.1282605
1.020193,-0.06338828,0.1257491
1.023161,-0.06106775,0.1265247
1.020014,-0.058785,0.1331994
1.015258,-0.05958186,0.1381036
1.014195,-0.06067842,0.1398102
1.014781,-0.06084405,0.1389422
1.017392,-0.06231014,0.1381901
1.018962,-0.06063306,0.1376793
1.017722,-0.05767595,0.1339688
1.017949,-0.05674657,0.1321221
1.01832,-0.05649361,0.1349885
1.017644,-0.05748067,0.1359631
1.017292,-0.05809005,0.1352015
1.016548,-0.05983463,0.1351349
1.017402,-0.06441215,0.1341166
1.018804,-0.0684313,0.1342509
1.018861,-0.07149605,0.1353179
1.018646,-0.07140615,0.1351322
1.015271,-0.06504639,0.1364019
1.011752,-0.05987555,0.136137
1.017739,-0.06563136,0.1295422
1.028232,-0.07175338,0.1242164
1.030025,-0.06242946,0.1246194
1.024311,-0.050692,0.1252601
1.019257,-0.048867,0.1263049
1.015744,-0.05127582,0.1323746
1.011642,-0.05874859,0.1428659
1.011916,-0.06482035,0.1462225
1.01841,-0.06255133,0.1381367
1.020466,-0.05910959,0.1347654
1.018149,-0.05687406,0.1409838
1.017218,-0.0549182,0.1445928
1.014202,-0.05504589,0.1408007
1.011723,-0.05625965,0.1360518
1.013333,-0.0575126,0.1347751
1.019561,-0.06604116,0.1307953
1.026038,-0.07704222,0.1260431
1.025385,-0.07398858,0.1281209
1.021424,-0.06714604,0.1324624
1.016478,-0.06567745,0.1348703
1.012225,-0.06268619,0.1347178
1.014561,-0.06386946,0.1317367
1.020265,-0.06681336,0.129661
1.022463,-0.06629185,0.1317179
1.018179,-0.06693192,0.1372849
1.012873,-0.06574646,0.1402435
1.013135,-0.06492631,0.1330147
1.013294,-0.06844101,0.1249541
1.011915,-0.073238,0.132819
1.015737,-0.07828032,0.1439589
1.019243,-0.0771065,0.1447003
1.019184,-0.06842934,0.1463747
1.01939,-0.06004625,0.1477156
1.015929,-0.0539254,0.1444331
1.013544,-0.05067457,0.1409375
1.01391,-0.05168228,0.1362816
1.0099,-0.05566108,0.1344203
1.007422,-0.05641204,0.1362298
1.006849,-0.05465716,0.1418288
1.005901,-0.05607605,0.149214
1.011121,-0.05557942,0.1479639
1.017937,-0.05525083,0.1429736
1.019356,-0.05800945,0.1369304
1.021762,-0.06186184,0.1256476
1.026477,-0.06983199,0.1210127
1.023833,-0.07463792,0.1217206
1.020168,-0.07511955,0.1196033
1.022843,-0.07600811,0.1216906
1.021873,-0.07629235,0.1242562
1.020954,-0.07920269,0.1243065
1.02491,-0.0791288,0.1241641
1.025203,-0.07480285,0.1202643
1.022622,-0.06817065,0.1220389
1.019927,-0.05599986,0.1300223
1.018635,-0.05330845,0.1357506
1.019769,-0.06221502,0.1380362
1.01899,-0.0660034,0.1290079
1.01653,-0.06715744,0.1207038
1.014493,-0.06878492,0.1252092
1.014122,-0.06788559,0.1292232
1.015699,-0.06810788,0.1313693
1.017847,-0.0689567,0.1336337
1.020393,-0.06831912,0.1334621
1.019513,-0.06494802,0.1332428
1.016376,-0.05758269,0.1336312
1.014759,-0.05088743,0.1352676
1.012243,-0.04931991,0.1381399
1.011977,-0.05115066,0.1447336
1.013513,-0.05358046,0.1525503
1.013852,-0.05647625,0.1522007
1.015548,-0.05728169,0.1462369
1.013928,-0.05634928,0.1440309
1.011348,-0.05846959,0.1434313
1.014074,-0.06007889,0.1387176
1.016279,-0.06157383,0.1334772
1.016846,-0.06574118,0.1315757
1.016629,-0.06761904,0.1302195
1.015196,-0.06925153,0.1265693
1.016908,-0.06995384,0.1262471
1.019881,-0.06745962,0.1320211
1.020001,-0.06515788,0.1367427
1.019555,-0.0623225,0.1396438
1.019468,-0.06291584,0.1402589
1.017216,-0.06579623,0.1374651
1.014691,-0.06454658,0.1352457
1.01345,-0.06160291,0.1352123
1.011907,-0.05878158,0.137545
1.012511,-0.05911514,0.1375872
1.013888,-0.0605467,0.1347663
1.013575,-0.05830466,0.1314499
1.013243,-0.05881444,0.1278892
1.012128,-0.06375213,0.1290005
1.013147,-0.0690085,0.1315868
1.017458,-0.07059548,0.134607
1.020973,-0.06642374,0.1411342
1.02275,-0.06263495,0.1440304
1.022831,-0.05951574,0.1419647
1.020069,-0.05608614,0.1382119
1.014103,-0.05419818,0.1341088
1.012075,-0.05097541,0.1338003
1.014119,-0.05309838,0.1355908
1.012042,-0.0587433,0.1345926
1.013496,-0.0581485,0.1326335
1.021842,-0.06234011,0.127307
1.02856,-0.06951548,0.119411
1.029103,-0.06688494,0.1211946
1.024602,-0.06468136,0.1250166
1.024476,-0.06506538,0.1235096
1.025456,-0.06114815,0.1282294
1.021172,-0.05974172,0.1330628
1.015895,-0.05951982,0.1346129
1.010399,-0.0571751,0.1363198
1.011887,-0.05797688,0.1336066
1.016189,-0.05628071,0.1336007
1.017283,-0.05251543,0.1314532
1.02265,-0.05436789,0.1251362
1.022811,-0.05531809,0.1277106
1.02032,-0.05613703,0.1281265
1.022604,-0.0595696,0.1253373
1.019305,-0.05859309,0.1296837
1.017698,-0.05752457,0.1315407
1.016519,-0.05891181,0.1303658
1.009337,-0.05787134,0.1313259
1.008664,-0.05631732,0.1350136
1.011086,-0.05531525,0.1383698
1.012226,-0.05515367,0.1341867
1.016202,-0.05562587,0.1301342
1.018588,-0.05368029,0.132995
1.019329,-0.05218097,0.134046
1.018152,-0.05378447,0.1307713
1.015982,-0.05553671,0.1288719
1.018708,-0.05871595,0.128228
1.022413,-0.06324497,0.1273746
1.021757,-0.06341936,0.1296509
1.018012,-0.06138783,0.1368379
1.012926,-0.06182535,0.1432949
1.011547,-0.0612397,0.138461
1.015426,-0.06025103,0.1311575
1.018658,-0.06042359,0.135236
1.019985,-0.05757764,0.1357087
1.019426,-0.05612446,0.1311311
1.016882,-0.05922468,0.1342666
1.015536,-0.06301977,0.1338524
1.01545,-0.06568679,0.1277265
1.018058,-0.06137176,0.127371
1.021725,-0.05546258,0.1337554
1.02194,-0.05653095,0.1380896
1.021047,-0.05483996,0.1349435
1.017207,-0.0506799,0.1346301
1.012146,-0.05064217,0.1398517
1.014233,-0.04992906,0.1428125
1.016515,-0.05069248,0.141992
1.012839,-0.05317026,0.1400119
1.012162,-0.05309087,0.1414892
1.015699,-0.05450231,0.1430337
1.017868,-0.05699057,0.1429469
1.019415,-0.05909164,0.1436575
1.020317,-0.06200789,0.143547
1.019597,-0.06164958,0.1442742
1.018456,-0.06011626,0.1421324
1.016515,-0.06075676,0.1387999
1.012957,-0.0603253,0.1404677
1.011259,-0.05945842,0.1416459
1.013439,-0.0573909,0.144242
1.014703,-0.0542501,0.147412
1.01606,-0.05518343,0.1404147
1.017574,-0.05574655,0.1319022
1.015219,-0.05422336,0.1345544
1.015204,-0.05696807,0.1382327
1.017551,-0.05875715,0.1368508
1.018358,-0.05786659,0.137803
1.019428,-0.05854331,0.138162
1.019259,-0.05734804,0.1385827
1.019225,-0.05627256,0.1414863
1.017302,-0.05632112,0.1398577
1.012827,-0.05480273,0.1378825
1.011188,-0.05370677,0.1389103
1.012161,-0.05246518,0.1430845
1.016368,-0.05254254,0.1496477
1.021322,-0.05454926,0.1475968
1.023042,-0.05599255,0.143032
1.021611,-0.05767958,0.1417733
1.01709,-0.0582865,0.1355588
1.014264,-0.0591178,0.133018
1.014914,-0.0613578,0.1359626
1.015822,-0.06092034,0.1362032
1.015258,-0.05907683,0.13709
1.01483,-0.05802598,0.1374471
1.0156,-0.05813302,0.1382338
1.014185,-0.05968898,0.1418058
1.013598,-0.05950663,0.1429385
1.015479,-0.05781375,0.1429341
1.0171,-0.05639354,0.1415381
1.018126,-0.05564511,0.1360115
1.014503,-0.05581401,0.1308099
1.011106,-0.05562651,0.1294237
1.013473,-0.05731565,0.1311373
1.014711,-0.05885188,0.1323325
1.014486,-0.05636096,0.1342938
1.01817,-0.05482525,0.1374495
1.022326,-0.05558609,0.1361844
1.019795,-0.05579807,0.1354968
1.014998,-0.05562134,0.1380959
1.013326,-0.05668732,0.139265
1.012164,-0.06012423,0.1409639
1.014302,-0.06467654,0.1420882
1.017354,-0.0669657,0.1439356
1.016407,-0.06168294,0.1473898
1.015658,-0.05586022,0.1468055
1.015544,-0.05995323,0.1457962
1.016761,-0.06483757,0.1435915
1.018259,-0.06501611,0.1405774
1.014505,-0.06402977,0.1503968
1.01166,-0.06193699,0.1597159
1.016052,-0.06392121,0.1465368
1.01948,-0.06638752,0.1317573
1.016199,-0.06265831,0.1356094
1.013916,-0.0598613,0.1442918
1.015791,-0.05901571,0.1473869
1.014971,-0.05622989,0.1421754
1.012097,-0.05246379,0.1340604
1.010691,-0.05075682,0.137834
1.01012,-0.05588537,0.1433472
1.008953,-0.06222149,0.142208
1.006932,-0.06326925,0.144016
1.012002,-0.06251085,0.1426322
1.022599,-0.06211689,0.1403522
1.024903,-0.06271981,0.1417133
1.01964,-0.06245284,0.1427571
1.013794,-0.06089214,0.14726
1.011286,-0.05939599,0.1457801
1.01373,-0.05806769,0.1412437
1.015506,-0.06091379,0.1404232
1.01525,-0.06388998,0.1337665
1.015307,-0.06229053,0.13299
1.015426,-0.06209429,0.1373179
1.01637,-0.06291341,0.1363314
1.017823,-0.06233291,0.1377052
1.018434,-0.06245303,0.1379444
1.017793,-0.06208562,0.1375058
1.017199,-0.05884855,0.1377695
1.0173,-0.05304768,0.1364369
1.016673,-0.0504726,0.1364284
1.01404,-0.05517314,0.1341044
1.011871,-0.05968185,0.1352182
1.015026,-0.05842527,0.1397002
1.018249,-0.05804785,0.1431724
1.016203,-0.06065691,0.1489978
1.015266,-0.06112661,0.1458579
1.01561,-0.05903402,0.1392241
1.015208,-0.05587371,0.1405829
1.017257,-0.05528445,0.1402186
1.018713,-0.05863342,0.1396431
1.017632,-0.0607353,0.1390239
1.016114,-0.06036218,0.1364185
1.01482,-0.05920539,0.1375909
1.015098,-0.05751954,0.1377543
1.015795,-0.05539219,0.1354194
1.016,-0.05446199,0.1328979
1.016719,-0.05835835,0.1307369
1.016025,-0.06289426,0.1317754
1.015031,-0.06149946,0.1311015
1.017096,-0.05976971,0.130061
1.018718,-0.06092857,0.13513
1.0169,-0.05990508,0.1392151
1.015207,-0.06078811,0.1377188
1.015526,-0.0642411,0.1314222
1.01708,-0.06410978,0.123917
1.018635,-0.06415625,0.1267946
1.01825,-0.06069354,0.1361138
1.017447,-0.05317086,0.1392959
1.017756,-0.0531327,0.1390327
1.01788,-0.05441136,0.1389948
1.017693,-0.05512428,0.1400358
1.01551,-0.06002016,0.1423518
1.012394,-0.05898087,0.1430057
1.012377,-0.05682185,0.1420012
1.013517,-0.05957527,0.1387229
1.016724,-0.05926244,0.1347871
1.021109,-0.06086018,0.1354487
1.019611,-0.06494043,0.1363321
1.017123,-0.06492087,0.1311794
1.016382,-0.06274464,0.1278238
1.012741,-0.05918693,0.1311217
1.011597,-0.05873948,0.1329815
1.013229,-0.05984677,0.1317531
1.013276,-0.05767446,0.1323491
1.014562,-0.05960432,0.1361552
1.016878,-0.06336129,0.1403739
1.018508,-0.06395019,0.1410299
1.018729,-0.06329804,0.1400902
1.018374,-0.06082708,0.1408718
1.019496,-0.06079323,0.141336
1.018059,-0.06177332,0.1395907
1.015656,-0.06156687,0.1381137
1.017918,-0.06302443,0.1374803
1.019661,-0.06295664,0.1370053
1.019292,-0.06387844,0.1378606
1.019659,-0.06586646,0.137748
1.01913,-0.06348144,0.1381812
1.018347,-0.06120114,0.1404824
1.017049,-0.06047347,0.1400733
1.016089,-0.05752806,0.1381583
1.01709,-0.05519218,0.1363961
1.017271,-0.05641177,0.1363424
1.016333,-0.05820377,0.13895
1.015038,-0.06032916,0.1411113
1.014745,-0.0635553,0.1437111
1.015986,-0.06286096,0.1435577
1.016067,-0.05994426,0.1398602
1.016653,-0.05777225,0.1383436
1.017542,-0.05445687,0.1377759
1.017964,-0.05525013,0.140622
1.020126,-0.05904247,0.1450809
1.019878,-0.06090382,0.1442614
1.018646,-0.0635965,0.1456398
1.019434,-0.06389445,0.1483383
1.016728,-0.06293621,0.1451024
1.013953,-0.06382222,0.1434592
1.014673,-0.06197132,0.1448329
1.014829,-0.0614773,0.1444872
1.015387,-0.06071343,0.1437511
1.016502,-0.05701541,0.1423967
1.017088,-0.05906806,0.1415968
1.018546,-0.06075395,0.1422249
1.019381,-0.05808772,0.1400788
1.016966,-0.058212,0.1372374
1.014108,-0.05933606,0.1377386
1.015104,-0.06285889,0.1371242
1.016005,-0.06769569,0.1353335
1.014574,-0.06712575,0.1349047
1.013903,-0.06460015,0.1368233
1.011234,-0.06350031,0.1457107
1.008776,-0.06155057,0.1510246
1.01199,-0.05939813,0.1404788
1.015343,-0.05827991,0.1303233
1.015521,-0.05866348,0.1343278
1.015297,-0.06007267,0.1371927
1.015138,-0.05815133,0.1329399
