accx,accy,accz
0.9256148,0.1663663,0.3673494
0.9286822,0.1663854,0.3661213
0.9318461,0.1642254,0.3659201
0.9323784,0.1662132,0.3694279
0.9318425,0.1685361,0.3741724
0.9312789,0.1714601,0.3746963
0.9294211,0.1735642,0.3749847
0.9270672,0.1702727,0.380929
0.9286819,0.1698808,0.3844061
0.9319282,0.1702874,0.3825688
0.9314977,0.1696609,0.3770609
0.9282974,0.1698826,0.3727554
0.9253317,0.1687815,0.3762259
0.9258697,0.1704601,0.3785303
0.9273355,0.1732397,0.3774726
0.9255636,0.175548,0.376443
0.9244003,0.1759646,0.3754154
0.9245327,0.1735268,0.3771789
0.9273334,0.1734006,0.3763745
0.9325468,0.1714165,0.3751896
0.9301455,0.1702283,0.3751134
0.9245892,0.1724253,0.372949
0.9239178,0.1695359,0.3739389
0.9258844,0.1682628,0.371297
0.9305557,0.169808,0.3681149
0.9300747,0.1691205,0.371042
0.926914,0.1712745,0.3693243
0.9298895,0.1715394,0.3699784
0.9295273,0.1695818,0.3728053
0.9269971,0.1695187,0.3703623
0.9264035,0.1675584,0.3753459
0.9242862,0.167842,0.3797554
0.9268209,0.1706452,0.3752964
0.9326644,0.1709451,0.3742273
0.9358822,0.1702705,0.3755554
0.9352361,0.1672093,0.3768998
0.9327435,0.1645402,0.3779506
0.9334815,0.1678212,0.3758057
0.9336071,0.1708865,0.3734831
0.9327889,0.1693712,0.3730825
0.9336647,0.1688151,0.3740186
0.9316835,0.1696281,0.3736003
0.9288573,0.167379,0.3738259
0.9270486,0.1649565,0.3770742
0.9267196,0.165172,0.3797197
0.9286857,0.1655164,0.379162
0.9294077,0.1661857,0.3743174
0.9302951,0.1669417,0.3728761
0.9308357,0.1667031,0.377907
0.9301238,0.1665746,0.3793456
0.9295665,0.1666698,0.374811
0.926932,0.1667375,0.3703847
0.9260766,0.1666046,0.3720209
0.9283882,0.1673721,0.3747947
0.9297057,0.1703219,0.3748726
0.9292312,0.1730234,0.3780571
0.9275973,0.1718405,0.3782595
0.9268686,0.1697099,0.375012
0.9263205,0.1709069,0.375049
0.9275332,0.1698717,0.3747205
0.9312305,0.1658297,0.3750754
0.9321599,0.164778,0.375295
0.9303032,0.1653181,0.3744992
0.9283487,0.1664,0.3755994
0.9289349,0.166638,0.3757551
0.9297154,0.164668,0.3764869
0.9275199,0.164198,0.3765064
0.9267255,0.1671884,0.3740189
0.9263129,0.1705382,0.3739298
0.9260095,0.1680478,0.3761097
0.926893,0.1649925,0.3790738
0.9260877,0.1672646,0.3800516
0.9261826,0.1669884,0.3801161
0.9261376,0.1659913,0.3812259
0.9265039,0.1670507,0.3781823
0.9304567,0.1658955,0.3727239
0.9325093,0.1663505,0.3676235
0.932701,0.1671542,0.3674593
0.9333237,0.1655795,0.3727532
0.9312631,0.1656826,0.3718083
0.9280156,0.1663635,0.3720173
0.927319,0.1656404,0.3770718
0.9288873,0.1647995,0.3749088
0.9295643,0.1634389,0.3740029
0.9292366,0.1621406,0.3760603
0.9299948,0.1639559,0.3746117
0.9300115,0.1686362,0.376782
0.9261816,0.1730909,0.3814954
0.9230763,0.1735924,0.3827477
0.9285748,0.1679667,0.3759411
0.9346583,0.1633205,0.3673391
0.9317486,0.1645499,0.3703281
0.9297432,0.1635922,0.3738935
0.9314112,0.1598397,0.3736911
0.9301548,0.1618079,0.3788402
0.9301578,0.1652998,0.3764511
0.9302459,0.1661691,0.3706504
0.9283439,0.1686593,0.374715
0.9294749,0.1676862,0.3747035
0.9304007,0.1643842,0.3712689
0.9300006,0.1655563,0.3711579
0.9290488,0.1654344,0.3710197
0.9261867,0.1648347,0.3766423
0.9264486,0.1659567,0.3811488
0.9271905,0.1658329,0.3787897
0.9260014,0.1668228,0.3774628
0.9279754,0.1658945,0.375984
0.9284521,0.163757,0.3740491
0.9261052,0.1648095,0.3730597
0.9263029,0.1657037,0.3727098
0.9262385,0.1662569,0.3755263
0.9243525,0.1668436,0.3790392
0.9237921,0.166702,0.3783373
0.9262036,0.1668403,0.3766689
0.9296342,0.1674627,0.378361
0.9286563,0.1688079,0.3780061
0.9258526,0.1699024,0.3770511
0.9267711,0.1711001,0.3781404
0.9283339,0.1713031,0.3752953
0.9292867,0.1702998,0.3723482
0.9287412,0.1710129,0.3710461
0.9272728,0.1710289,0.3702156
0.9296986,0.1701122,0.3718474
0.9314896,0.1691702,0.3733589
0.9295458,0.16651,0.375658
0.9269009,0.1660864,0.3758513
0.9244171,0.1671845,0.3741789
0.926267,0.1664605,0.3731155
0.9291934,0.1666038,0.3670588
0.9275548,0.1670337,0.3638358
0.9272357,0.1677341,0.3668865
0.9285834,0.1702179,0.368645
0.9281897,0.1716544,0.3721309
0.9284649,0.1716765,0.3744815
0.9275581,0.1722598,0.3747162
0.9257261,0.1717983,0.3769904
0.9267106,0.1684348,0.3769983
0.9280775,0.165736,0.3768609
0.9282669,0.1678435,0.3768159
0.9282847,0.1716617,0.3753345
0.9283949,0.1722728,0.3755074
0.9279578,0.1695487,0.3721566
0.927025,0.1674013,0.3701985
0.9272018,0.1697733,0.3758822
0.9262841,0.1729741,0.378877
0.9258037,0.1722827,0.3761856
0.9270602,0.1716658,0.3737516
0.9260861,0.1717135,0.3754099
0.926222,0.1703439,0.3775481
0.926851,0.1707265,0.3764302
0.9262643,0.1712064,0.3730037
0.9286332,0.1705059,0.3682919
0.9306138,0.1709716,0.37275
0.9309785,0.1707023,0.3815802
0.9314772,0.1697875,0.3805102
0.9319309,0.1689796,0.3774511
0.9321866,0.1674401,0.3732371
0.9303442,0.1663605,0.3692832
0.9285077,0.166745,0.3741585
0.9274212,0.1689314,0.3788218
0.9273728,0.1708713,0.3800488
0.9287374,0.1710844,0.3805886
0.9288999,0.1708041,0.3798332
0.9293689,0.170505,0.3819756
0.9285679,0.1700784,0.3824072
0.9276599,0.1693449,0.3769831
0.9293831,0.1701047,0.3724114
0.9291803,0.1714875,0.370698
0.9303112,0.1707142,0.3702603
0.9330751,0.1706016,0.3703022
0.9321647,0.1713151,0.3690997
0.9274486,0.1717071,0.3696608
0.9214067,0.1734312,0.3728421
0.9231137,0.1737105,0.3751405
0.9273053,0.1712402,0.3770465
0.9257001,0.1685077,0.3790741
0.9269781,0.1673795,0.3812296
0.9286004,0.1681841,0.3815276
0.9288942,0.1682957,0.3814142
0.9297654,0.1683096,0.3829037
0.9266494,0.1708688,0.3766117
0.9258599,0.1732546,0.3690117
0.9267779,0.1733086,0.3721808
0.9260044,0.1728494,0.3736641
0.9267563,0.171284,0.3710861
0.9261866,0.1685286,0.3728173
0.9263159,0.1691175,0.3753236
0.9270671,0.1712403,0.3794403
0.9277551,0.1709798,0.3829644
0.9296898,0.1725911,0.3776154
0.9274756,0.1744584,0.3728931
0.9258401,0.1734183,0.3771551
0.9293461,0.1732998,0.3791556
0.9315546,0.1728963,0.3770916
0.9304854,0.1719978,0.3781179
0.9289204,0.1730974,0.379889
0.9285483,0.1740253,0.3802694
0.9281632,0.1736572,0.3782131
0.9281222,0.1733617,0.3750123
0.927213,0.1737798,0.3752696
0.9254334,0.1732812,0.3755328
0.9266514,0.1714697,0.3743125
0.9267545,0.1692427,0.3749125
0.9261471,0.1668682,0.3734425
0.9286369,0.1649983,0.3706716
0.9276121,0.1607994,0.3679362
0.9193808,0.1531122,0.3585966
0.90814,0.1492517,0.34987
0.8991767,0.1581886,0.3469748
0.8915449,0.172824,0.3350754
0.8900645,0.1784005,0.3234636
0.8938406,0.1858981,0.3341459
0.8830987,0.2030721,0.3452597
0.8745633,0.2066322,0.3435779
0.8895147,0.1932937,0.3583019
0.9041706,0.1869954,0.3847768
0.9178303,0.1850246,0.3919623
0.9523555,0.1626353,0.3827805
0.9907662,0.1384194,0.3769652
0.9899707,0.1572092,0.3732466
0.9698239,0.197965,0.3551092
0.9713756,0.2350114,0.3260407
0.9518923,0.2969471,0.29025
0.9231002,0.3354184,0.2524577
0.9476637,0.2894111,0.2319797
1.008766,0.2255603,0.202478
1.069117,0.1938411,0.1615828
1.068734,0.1890499,0.1649377
1.031107,0.2189493,0.1815654
1.024973,0.2586564,0.1811138
0.9846557,0.290901,0.2083677
0.9539213,0.3134726,0.2232182
1.009529,0.3219045,0.1885507
1.03683,0.3320277,0.1646428
1.006967,0.3308825,0.1711098
0.9711366,0.3195589,0.1999512
0.9248494,0.3152873,0.2487924
0.887129,0.304884,0.2930129
0.8782788,0.3060605,0.3266491
0.8874284,0.3121658,0.356113
0.8879131,0.2956303,0.3901812
0.898795,0.2618023,0.4280365
0.9172977,0.2050242,0.4473821
0.8890845,0.1778421,0.4461751
0.8334353,0.2047672,0.4470781
0.7805059,0.2164556,0.4547553
0.7611046,0.2174129,0.4569547
0.7915521,0.2126109,0.4698276
0.8032852,0.1853882,0.4981404
0.7882579,0.1836065,0.522301
0.7815199,0.1997547,0.5435126
0.7588909,0.2234329,0.5475842
0.7186269,0.2716343,0.5439551
0.6960658,0.2865743,0.5577871
0.70179,0.2718429,0.5639844
0.7297977,0.2891296,0.5612482
0.791946,0.312793,0.5582344
0.8516093,0.3168016,0.5433772
0.8441189,0.316017,0.5270588
0.803984,0.3112085,0.5164714
0.7901217,0.3064895,0.5098177
0.8057328,0.309223,0.5020078
0.8343014,0.3190357,0.4930241
0.8524711,0.3395819,0.4835022
0.863091,0.3669774,0.4606745
0.8571776,0.3791091,0.4252274
0.8260138,0.3737003,0.396758
0.8164652,0.3714193,0.3965745
0.8339383,0.3720978,0.410415
0.8574377,0.3742176,0.4157925
0.874014,0.3799343,0.4194044
0.8487889,0.3798774,0.4237474
0.8056898,0.3867132,0.4434993
0.7878997,0.4064802,0.4662764
0.8023935,0.4109999,0.4618227
0.8261406,0.3927716,0.4623546
0.8177763,0.3798555,0.4783233
0.7906339,0.393274,0.4818265
0.7608973,0.4178873,0.4782662
0.747371,0.4353551,0.4806975
0.7666948,0.4448097,0.4898882
0.7713694,0.4383465,0.4988518
0.7676095,0.4273613,0.5029171
0.7636279,0.4264171,0.5098299
0.7335827,0.4290914,0.523845
0.7132586,0.4476969,0.5353906
0.705209,0.4702471,0.5406648
0.7075164,0.4684668,0.5396337
0.7219236,0.4591459,0.5319369
0.7181341,0.4518833,0.5286383
0.7264331,0.4400691,0.5246024
0.7415759,0.4350663,0.5156088
0.7374748,0.4424759,0.5116127
0.7490573,0.4455577,0.5035991
0.7671012,0.4347021,0.4817617
0.7719264,0.4248239,0.4553177
0.7634516,0.4216303,0.4555592
0.7521111,0.4204409,0.47513
0.7643231,0.420699,0.4737064
0.7801468,0.4181841,0.4697565
0.7866777,0.4073277,0.4706005
0.7873457,0.3938289,0.468887
0.768578,0.3960163,0.4818178
0.7515247,0.4073738,0.4906951
0.7504976,0.4187588,0.4915328
0.7523516,0.4393619,0.4913164
0.7533446,0.4483995,0.4857757
0.7566473,0.4430271,0.4854115
0.761096,0.4478855,0.481776
0.7536572,0.4506872,0.4794017
0.7409619,0.4471832,0.4842649
0.7389059,0.4479425,0.484117
0.7508273,0.4417789,0.4784957
0.7756605,0.4289609,0.4642149
0.7878979,0.4226084,0.4555991
0.7787361,0.4248481,0.4600936
0.7720674,0.4277785,0.4602011
0.7723684,0.4286223,0.4553858
0.7735264,0.4325222,0.452541
0.7771575,0.4339003,0.4525878
0.7827733,0.4317013,0.4514316
0.7854019,0.4302747,0.452416
0.7856816,0.4257271,0.4583686
0.7849668,0.4260828,0.460745
0.7786674,0.4333574,0.4603593
0.7719811,0.4394988,0.4609524
0.7723207,0.4446132,0.4624048
0.7741417,0.4435844,0.4589
0.7715772,0.4407974,0.4512072
0.7714227,0.4394943,0.4503331
0.774023,0.4333764,0.4509712
0.7748094,0.4326064,0.4499089
0.7809285,0.4352777,0.4518347
0.7853063,0.4349374,0.4533243
0.7839298,0.4372828,0.453591
0.7847569,0.4319163,0.4551633
0.7806671,0.4235446,0.4588126
0.7748599,0.4270189,0.4600752
0.7717698,0.4319386,0.4618188
0.7676861,0.4367984,0.4662367
0.7678894,0.4456201,0.46127
0.769691,0.4489616,0.4547423
0.7715372,0.4462084,0.4578935
0.7752625,0.44186,0.4585087
0.7772036,0.4374475,0.4554189
0.7784045,0.4356422,0.4543321
0.778828,0.4331717,0.4525188
0.7781287,0.4275635,0.4529858
0.7751283,0.4267983,0.4550221
0.7709299,0.4319562,0.4531518
0.7738053,0.4347888,0.4525337
0.7788033,0.4367446,0.4561272
0.7786267,0.4378869,0.4585488
0.7790285,0.4344539,0.4587635
0.7783896,0.4320571,0.4580886
0.7751554,0.4315525,0.4581904
0.7748309,0.4308206,0.458508
0.7761203,0.4331349,0.4558952
0.7775649,0.4366478,0.4504901
0.7782648,0.4369481,0.4460809
0.7773009,0.4357441,0.4506843
0.7769396,0.4351441,0.4588788
0.7764137,0.431838,0.4580734
0.7769777,0.4297252,0.4560527
0.778446,0.4322279,0.4560461
0.7778474,0.4347175,0.4504063
0.7787906,0.438021,0.4444582
0.7815221,0.4360223,0.4453668
0.7815192,0.4310218,0.4501101
0.7775217,0.4347168,0.4528185
0.7739241,0.4357608,0.4557337
0.7772874,0.4326424,0.4580744
0.7812585,0.4337133,0.4553013
0.7795149,0.4328127,0.4532284
0.7790943,0.431393,0.4526325
0.7789236,0.430425,0.4523159
0.7767622,0.4298631,0.4533558
0.7780968,0.4316604,0.4521347
0.7791863,0.4320685,0.4508795
0.7789537,0.4336151,0.4501899
0.7805825,0.4340981,0.4511497
0.7805962,0.4324045,0.4538408
0.780303,0.4336097,0.4514864
0.7798872,0.43259,0.4486745
0.7785759,0.4311469,0.4488391
0.7796643,0.4323949,0.4491236
0.7811115,0.4320012,0.4505731
0.7820473,0.4327458,0.4501278
0.7815055,0.4338076,0.4496761
0.779717,0.4333923,0.4513623
0.7803343,0.4342008,0.4514567
0.7791219,0.4344711,0.4515939
0.7767724,0.4321758,0.4523248
0.7782209,0.4295134,0.4525286
0.7802828,0.4302987,0.4513071
0.7825454,0.431671,0.4487506
0.7831547,0.4325231,0.4486397
0.7778195,0.4375056,0.4499376
0.7739295,0.4394293,0.4522042
0.7791959,0.4331381,0.4558753
0.7842158,0.4289251,0.4573319
0.7807225,0.4321362,0.4569724
0.7782908,0.4347501,0.454925
0.7798248,0.4318174,0.4528245
0.7789306,0.4304391,0.4517899
0.7789432,0.4318573,0.4494008
0.7792812,0.4319879,0.4503715
0.7769513,0.433261,0.4527177
0.7765642,0.4344866,0.4516717
0.778952,0.4346405,0.4521498
0.7813302,0.4341275,0.4525481
0.7800865,0.4326703,0.4523644
0.7787009,0.4335841,0.4528323
0.783201,0.4345612,0.4498495
0.7851748,0.4345621,0.4477831
0.7800973,0.4349555,0.4499522
0.776109,0.4335368,0.4523251
0.7775893,0.4330489,0.453258
0.7798026,0.4334898,0.452762
0.7787437,0.4332019,0.4525736
0.779149,0.4334753,0.4529564
0.7798127,0.4332318,0.4523571
0.7794386,0.4329788,0.4506054
0.7814291,0.4316531,0.4477322
0.7811685,0.4298423,0.4464079
0.7798954,0.431031,0.447809
0.7793183,0.4335746,0.4492179
0.7785516,0.4351335,0.450246
0.7806371,0.4341711,0.4505576
0.7808669,0.4328908,0.4504929
0.7794224,0.4357618,0.4517386
0.7774132,0.4396901,0.4517176
0.7735995,0.4409072,0.4508711
0.7753623,0.4391267,0.4516886
0.7795769,0.4336623,0.4523219
0.7805541,0.4288348,0.4555808
0.7791848,0.4302556,0.4605442
0.7757661,0.433558,0.4613617
0.7764542,0.4333658,0.4613826
0.7798359,0.4328469,0.4584879
0.7806381,0.4320233,0.4508796
0.7799531,0.4305714,0.4501115
0.7775848,0.4321677,0.4539291
0.7769728,0.4325626,0.4540215
0.7765542,0.4316008,0.4541547
0.774403,0.4340683,0.4528311
0.7768752,0.4353505,0.4517192
0.7796105,0.434428,0.4536832
0.7778759,0.4337649,0.4529741
0.7756545,0.4330505,0.4540624
0.7745566,0.4333335,0.4570135
0.7760563,0.433437,0.4561246
0.777901,0.4332413,0.4569242
0.7778388,0.4333933,0.4576994
0.7779824,0.4332887,0.4570743
0.778797,0.4333718,0.4567552
0.7801571,0.4333094,0.4505551
0.7801023,0.4333287,0.4449522
0.7787034,0.4333714,0.4481164
0.778671,0.4332728,0.4509905
0.7780593,0.4333941,0.4506342
0.7777916,0.4329388,0.4550591
0.7812776,0.4315481,0.4595384
0.7827161,0.4304001,0.4565003
0.7785417,0.4320756,0.4538168
0.7758356,0.4343463,0.4536806
0.7763418,0.4333112,0.4521007
0.7766487,0.432836,0.452875
0.7776654,0.4336178,0.4540264
0.7797722,0.4322787,0.4524999
0.7808611,0.431724,0.4499535
0.7786712,0.4333425,0.4467192
0.7759036,0.4350278,0.4466245
0.7762505,0.4353133,0.4477967
0.776633,0.4347757,0.4462873
0.7763904,0.4369973,0.4465802
0.7773692,0.4386926,0.4463557
0.7780299,0.4368989,0.4446757
0.777509,0.4373247,0.4475167
0.7758227,0.4368302,0.449413
0.7746883,0.4307167,0.44788
0.7757641,0.4267952,0.4494886
0.7769319,0.4307312,0.4525913
0.7767595,0.4355555,0.4546674
0.7778613,0.4335502,0.4547909
0.779093,0.4330984,0.4524528
0.7748562,0.4372828,0.4525971
0.7706567,0.4369943,0.4541313
0.7738998,0.4372287,0.4567145
0.7766785,0.4381675,0.4610676
0.7752276,0.4358022,0.4581225
0.7756068,0.4361759,0.4527123
0.7764795,0.4362063,0.4516969
0.7768748,0.4357781,0.4497571
0.7783065,0.4364071,0.4521179
0.7769588,0.4348139,0.4559692
0.7755532,0.4349625,0.4542024
0.7768431,0.4365398,0.4553888
0.7765386,0.4373767,0.45798
0.7770384,0.4351336,0.4552031
0.7785585,0.4309019,0.4514507
0.7785141,0.4320864,0.4501316
0.7793449,0.4343699,0.4512786
0.7794241,0.4347129,0.4519489
0.7788389,0.4350326,0.4498694
0.7793473,0.4334095,0.4487146
0.778981,0.4334561,0.448689
0.7783601,0.4353138,0.4486428
0.7785035,0.4360954,0.4508333
0.7792646,0.434735,0.4530148
0.7795026,0.4327924,0.4539103
0.7788668,0.4359845,0.4544497
0.7792068,0.438958,0.4540537
0.779341,0.4366561,0.453631
0.7787623,0.4344741,0.4511961
0.7784109,0.4327471,0.4469289
0.777508,0.4317396,0.4446944
0.7775601,0.4313954,0.4442089
0.7781284,0.4303241,0.4458046
0.7775736,0.4322368,0.4517185
0.7777595,0.4341759,0.4566266
0.7775889,0.4320545,0.4510172
0.7757975,0.4306769,0.444669
0.7745761,0.4319543,0.4515203
0.7747741,0.4349793,0.4575424
0.7751607,0.4380482,0.4538375
0.7740157,0.4378438,0.450753
0.7733379,0.4364979,0.4490031
0.7746735,0.4350622,0.447326
0.7752928,0.4325338,0.4470303
0.7755501,0.4328475,0.447776
0.7779312,0.4341329,0.4511071
0.7814295,0.4325716,0.4533437
0.7811247,0.4314209,0.4513177
0.7778962,0.4304311,0.4492767
0.7780294,0.430121,0.4516638
0.7784521,0.4322154,0.4540845
0.7779851,0.4329937,0.4519933
0.779594,0.4335599,0.4507
0.778515,0.4346201,0.4500216
0.7768943,0.4341722,0.4493023
0.7783417,0.4332577,0.450281
0.7787341,0.4316704,0.4480642
0.7791631,0.4332771,0.4467088
0.7795547,0.4360859,0.4495016
0.7786116,0.4344048,0.4515992
0.7785821,0.4339605,0.4525497
0.778698,0.434061,0.451885
0.7799821,0.4338401,0.4511574
0.7811832,0.437734,0.4515485
0.7793586,0.4386265,0.4522638
0.7788918,0.436366,0.4531888
0.7805136,0.4366701,0.4527235
0.7814342,0.4345551,0.4526276
0.781624,0.4302778,0.4529754
0.7811144,0.4290432,0.452261
0.7819298,0.4314805,0.4510809
0.7821374,0.4346547,0.4494405
0.7796918,0.4335845,0.4495565
0.7787127,0.4325363,0.4496161
0.7790038,0.4349879,0.4478525
0.7783538,0.4348655,0.4476065
0.7780772,0.4342395,0.4473595
0.7802147,0.4342258,0.4471431
0.7830879,0.4327084,0.4491283
0.7817975,0.4339234,0.4498408
0.7793855,0.4363085,0.4492161
0.7792048,0.4374043,0.4500092
0.7788438,0.4354279,0.4505577
0.779313,0.431769,0.4504624
0.7795346,0.4334579,0.4507395
0.7793289,0.4351266,0.4496706
0.7797116,0.4336137,0.4480789
0.7786795,0.4324894,0.4484678
0.7785671,0.4300531,0.4489165
0.7771719,0.4316937,0.4488041
0.7741638,0.4349594,0.4502112
0.775717,0.4329041,0.4513059
0.7780194,0.432877,0.4502258
0.7792037,0.4343967,0.4488377
0.7789426,0.4346226,0.448373
0.775775,0.4367805,0.4483564
0.7761727,0.4363299,0.4479018
0.7773414,0.4344854,0.4474091
0.7775392,0.4349311,0.449709
0.7806522,0.4340299,0.4524049
0.7820179,0.4319885,0.4504038
0.783101,0.4303376,0.4481882
0.7823248,0.4317376,0.4487481
0.7781921,0.4345,0.4489422
0.7794776,0.4323457,0.4504961
0.782537,0.431166,0.4529735
0.7827881,0.433484,0.4527686
0.7800709,0.4337879,0.4507553
0.7742754,0.4350551,0.4494606
0.7746274,0.4364107,0.4499018
0.7787438,0.43417,0.4499557
0.779744,0.4316818,0.44803
0.7809621,0.4320752,0.4478993
0.7804014,0.435006,0.4534074
0.7787144,0.4364713,0.4584175
0.7793407,0.4344853,0.453613
0.7811093,0.4324361,0.4470069
0.7822342,0.4332008,0.4485034
0.7801546,0.4343134,0.4493954
0.7783172,0.4346378,0.4474762
0.779253,0.4363534,0.4468729
0.7794173,0.4348511,0.4438996
0.778988,0.4319357,0.4444456
0.7791515,0.4336406,0.4505864
0.7791108,0.4337647,0.4525956
0.7781806,0.4332617,0.4515514
0.7774898,0.4364284,0.4530116
0.7779622,0.4380289,0.4556907
0.7787383,0.4360849,0.4553801
0.779429,0.4318741,0.4533128
0.7786974,0.4298097,0.4518807
0.7763076,0.4323634,0.4490752
0.7748473,0.4342538,0.4491814
0.7773198,0.4336837,0.4506056
0.7805853,0.4346594,0.4490709
0.7785132,0.4371998,0.4503425
0.774801,0.4372023,0.4505054
0.7732096,0.4377985,0.4494363
0.7731562,0.4417308,0.4526933
0.7751062,0.4430884,0.4545802
0.7752731,0.4394254,0.4569562
0.7746086,0.4338607,0.459491
0.7759089,0.4319304,0.457365
0.7774741,0.433135,0.454216
0.7799417,0.4348786,0.4501417
0.7795612,0.4384509,0.4499189
0.7773219,0.4363056,0.4561171
0.7780626,0.4318139,0.4589563
0.7775413,0.4338036,0.4542398
0.7766343,0.4336123,0.4489465
0.7765452,0.4326766,0.4506951
0.7757241,0.4339933,0.4527022
0.7758611,0.4329358,0.4513297
0.7745494,0.4333732,0.4527529
0.7742156,0.4332301,0.452876
0.7764729,0.4316951,0.4524834
0.7771823,0.4326793,0.4532986
0.7765033,0.4337123,0.452629
0.7749244,0.43391,0.4549609
0.774652,0.4345686,0.4571633
0.7744322,0.4365993,0.4569872
0.7729414,0.4382797,0.4571222
0.773961,0.4399058,0.4564525
0.7748775,0.44123,0.4559037
0.7761689,0.4391745,0.4533599
0.7788959,0.4371505,0.4507808
0.77922,0.4337114,0.4505773
0.7782398,0.4298443,0.4496562
0.7764615,0.4299498,0.4504742
0.7759256,0.4296449,0.4529423
0.7776665,0.433311,0.4543589
0.780656,0.4382037,0.4528775
0.7843544,0.4359841,0.4499791
0.7818541,0.4358887,0.450554
0.7768,0.4394553,0.450364
0.7766582,0.4408648,0.4492209
0.7755061,0.4399706,0.4508919
0.7744469,0.4369714,0.4517527
0.7766544,0.4346129,0.4529744
0.7783967,0.4340525,0.453444
0.7796539,0.4338977,0.4516936
0.7794032,0.4324968,0.4509
0.7783115,0.43265,0.4479086
0.7775303,0.4366635,0.4461493
0.7749394,0.4384648,0.4487516
0.7746454,0.4373312,0.4489158
0.7773807,0.4369327,0.4485057
0.7779541,0.4353323,0.4506193
0.7769497,0.4315319,0.4545685
0.7763491,0.4300984,0.4577987
0.77802,0.4346852,0.4535225
0.7801176,0.4394173,0.4483666
0.7789014,0.4391822,0.4498286
0.7778899,0.43763,0.449778
0.7779077,0.4370868,0.4479167
0.7774719,0.4362882,0.4497896
0.7779687,0.4341253,0.4513333
0.7778153,0.4325988,0.4513748
0.7775809,0.4337312,0.4542951
0.7779949,0.4356015,0.4581227
0.7776512,0.4372912,0.456949
0.7777763,0.4380445,0.4521603
0.7778777,0.4372926,0.4499297
0.7776444,0.4373543,0.4500508
0.7777033,0.4372353,0.4495696
0.7768462,0.4346346,0.449282
0.7760871,0.4325307,0.450474
0.7767097,0.4333106,0.4501615
0.7783075,0.4346904,0.4455955
0.7796602,0.4347994,0.4440288
0.7796862,0.4345086,0.4483407
0.7806263,0.433902,0.4510856
0.7826399,0.4333227,0.4495196
0.7824085,0.4350605,0.4443881
0.7826087,0.4369046,0.4401622
0.7857266,0.4357588,0.4397985
0.7855788,0.4341588,0.4414523
0.7795517,0.4337637,0.4434581
0.9607088,0.1418323,0.3074025
0.9519295,0.1482905,0.3109614
0.9488804,0.1478972,0.316523
0.9553854,0.1460917,0.3176719
0.9609437,0.1482029,0.3147037
0.9563744,0.1470067,0.313312
0.9520443,0.1491126,0.312112
0.951684,0.1513681,0.3123245
0.9526,0.1523861,0.3141486
0.9562215,0.1550905,0.3146933
0.9560622,0.1543337,0.3160257
0.9543523,0.1531901,0.3172062
0.9544121,0.1517128,0.3181813
0.9520232,0.1491992,0.3186431
0.9529068,0.1495988,0.317848
0.9562796,0.1506152,0.3201392
0.9571602,0.149818,0.3225754
0.9574124,0.1502458,0.3222503
0.9565449,0.1531311,0.3220749
0.956878,0.1547012,0.3212447
0.9572038,0.1544517,0.3204063
0.9553856,0.1534854,0.3197446
0.9546499,0.1523044,0.3184973
0.9538474,0.1510652,0.3177358
0.9541488,0.1493383,0.3154083
0.955524,0.1476143,0.3123315
0.955254,0.1459484,0.3132822
0.9549013,0.1506159,0.3149353
0.954185,0.1560512,0.3124686
0.9563636,0.1495746,0.3112963
0.96161,0.1448188,0.3105401
0.9618083,0.1492821,0.3076106
0.9545319,0.1521202,0.3114309
0.9474999,0.1530277,0.3178464
0.9522182,0.1535122,0.3174264
0.9616788,0.1543614,0.3118859
0.9629479,0.1570545,0.3068006
0.9604319,0.1574499,0.3112681
0.9560756,0.1555102,0.3164888
0.9533058,0.1551955,0.3123038
0.9546729,0.1551757,0.3114357
0.9539289,0.1555232,0.3140524
0.9540679,0.1575235,0.3146938
0.9545629,0.1573061,0.3174457
0.9536548,0.1563671,0.3173256
0.9542091,0.1572626,0.3154833
0.9520733,0.1569653,0.3159696
0.9497842,0.1569096,0.3132941
0.9500486,0.1580599,0.3119202
0.9510004,0.1581309,0.3163806
0.9528099,0.1566492,0.3211037
0.9531071,0.1548842,0.3224684
0.9536096,0.155348,0.317832
0.9545073,0.155897,0.3135798
0.9541263,0.153795,0.317106
0.9545073,0.1512024,0.3191524
0.9557329,0.1493211,0.3157136
0.9568396,0.1497843,0.3150497
0.956205,0.1517551,0.3183922
0.9558897,0.1522163,0.3210684
0.9568523,0.1526535,0.320197
0.9567303,0.1513153,0.3165929
0.9564544,0.1496589,0.3113529
0.9532667,0.1536805,0.3054505
0.9490704,0.1570778,0.303977
0.950019,0.1556797,0.3060776
0.9525087,0.1558866,0.3092165
0.9546598,0.1576092,0.3154876
0.9582072,0.1570683,0.3149926
0.9602854,0.1564675,0.3078507
0.9579027,0.1573029,0.3068617
0.9536116,0.1570926,0.3067714
0.951906,0.1577717,0.3105924
0.9515825,0.1596515,0.3184641
0.95277,0.1587995,0.315507
0.9549933,0.1567451,0.3138235
0.9529835,0.1548163,0.3186356
0.9501029,0.1536345,0.3180499
0.9499138,0.1545473,0.3177289
0.9497766,0.1561112,0.3173343
0.950184,0.1573969,0.3150318
0.9500631,0.1571493,0.3152882
0.9500943,0.1565663,0.3146913
0.9526078,0.1571529,0.3125882
0.9558501,0.1569669,0.3102606
0.9577623,0.1569727,0.3096577
0.9557782,0.1583438,0.3106517
0.9528561,0.1603201,0.3109904
0.9526768,0.1617516,0.3130828
0.9526185,0.1611779,0.3136561
0.9535895,0.1601982,0.3144007
0.9564832,0.1587121,0.3189469
0.9591361,0.1566309,0.3186952
0.9590267,0.1591435,0.3159862
0.9572188,0.1622245,0.3131911
0.9574034,0.1583149,0.3068642
0.9552661,0.1560958,0.3062683
0.9528205,0.1611283,0.3080572
0.9547114,0.1647939,0.3055313
0.9543336,0.1637819,0.3071021
0.9536665,0.1616343,0.3098922
0.954486,0.1607534,0.3110821
0.9529736,0.161394,0.3150194
0.9530873,0.1630337,0.3162969
0.9555072,0.1646197,0.3143936
0.9577155,0.165236,0.3134698
0.9572274,0.1670229,0.3122067
0.9552365,0.1687341,0.3124363
0.9553721,0.1671495,0.3147569
0.9537714,0.1659864,0.3144373
0.9521578,0.1665542,0.3090535
0.9538415,0.1649989,0.3035256
0.9545451,0.1629307,0.3060589
0.9541614,0.1629428,0.3137245
0.9541941,0.1624444,0.318155
0.955119,0.1612055,0.3190822
0.9561161,0.1603754,0.3176914
0.9563536,0.1574685,0.3161122
0.9571766,0.1544517,0.3117211
0.9565763,0.1554281,0.3040972
0.9540022,0.1571384,0.3050968
0.9521233,0.1566985,0.308212
0.9526042,0.1560305,0.3075471
0.9542449,0.1556052,0.3117911
0.9543807,0.1561586,0.3087644
0.9549902,0.1575309,0.3026267
0.9565304,0.1571556,0.3078476
0.9583109,0.1576339,0.3106603
0.9613664,0.1598744,0.3106134
0.9618085,0.1590504,0.3112524
0.9605023,0.1550728,0.3093337
0.9607481,0.1518912,0.3133217
0.9586052,0.1541157,0.3170556
0.9561993,0.1581028,0.3147236
0.9586122,0.1570742,0.3127976
0.9604903,0.1572863,0.3089711
0.9577583,0.1589105,0.3084575
0.9559919,0.1562309,0.3160995
0.9573568,0.1548557,0.317375
0.9582464,0.1556921,0.310839
0.9590171,0.1558197,0.3095421
0.9593706,0.1564382,0.3088542
0.9577904,0.157282,0.3088862
0.9565838,0.1584367,0.3136503
0.9544606,0.1597835,0.3120033
0.9514308,0.159638,0.3108617
0.9517158,0.1562177,0.3149056
0.9518703,0.1545543,0.314622
0.9510541,0.1579843,0.3154409
0.9536744,0.1585058,0.3153578
0.9557751,0.1553021,0.3136828
0.9561381,0.1534741,0.3173837
0.9583312,0.1537815,0.3220887
0.9598321,0.154828,0.3236515
0.9563809,0.1545972,0.321523
0.9488244,0.1575115,0.3218058
0.9459184,0.1606038,0.3228682
0.9505668,0.1557703,0.3190238
0.9544719,0.1506311,0.3159892
0.9545849,0.1513177,0.3118776
0.9538772,0.1536308,0.3095358
0.9541742,0.1547761,0.3120609
0.9545237,0.155457,0.3137659
0.9546662,0.1574587,0.314905
0.9552496,0.1588447,0.3109624
0.9548873,0.1569915,0.3086712
0.9554065,0.1535892,0.3121213
0.9559558,0.1524627,0.3095175
0.9542486,0.1545047,0.3103672
0.9544479,0.1561874,0.3144709
0.957015,0.1547917,0.3104471
0.9588413,0.1533499,0.3086843
0.9578753,0.1542669,0.3085846
0.955983,0.1534863,0.3076534
0.9571289,0.1519164,0.3099984
0.9573664,0.1524696,0.3101163
0.9563719,0.152814,0.3114752
0.9571299,0.1536862,0.3145135
0.9562042,0.1541892,0.3148165
0.9555783,0.1547606,0.3153777
0.9558359,0.1572514,0.3133685
0.9545722,0.1570464,0.3080205
0.9553888,0.1554405,0.304615
0.9558733,0.1547595,0.308485
0.9533174,0.153069,0.3164386
0.9522384,0.1520865,0.3185934
0.9533774,0.1519867,0.3172959
0.9559347,0.1535569,0.314242
0.95948,0.1544303,0.3084373
0.9605615,0.1520978,0.3045765
0.959555,0.1507318,0.3019302
0.9604686,0.1479362,0.3026357
0.9615226,0.1465973,0.3073337
0.959569,0.1515645,0.3117811
0.9565882,0.154015,0.3146597
0.9555696,0.1538126,0.3095067
0.9588896,0.1551142,0.2997796
0.9616561,0.1551617,0.2983559
0.9559066,0.1522148,0.3058003
0.9502087,0.1484763,0.3152057
0.9528535,0.1501477,0.3171958
0.95391,0.1529531,0.3140884
0.9518047,0.1533871,0.3154006
0.9535593,0.1549279,0.3154388
0.9565342,0.15408,0.3128432
0.960772,0.1537092,0.3123949
0.9630642,0.1547703,0.3121721
0.9559729,0.1537529,0.3127544
0.9497846,0.15425,0.3120594
0.9510948,0.1545458,0.3094483
0.9506453,0.1547278,0.3086346
0.9504354,0.1561262,0.3115403
0.9548521,0.1553311,0.3162793
0.9566545,0.1544341,0.3148449
0.9551499,0.1545018,0.3113819
0.9554647,0.1556936,0.3120161
0.9558007,0.1577391,0.3108226
0.9553524,0.1570894,0.3108798
0.9558358,0.1564235,0.3123074
0.9567959,0.1573269,0.3106682
0.9589523,0.1570602,0.3103232
0.9604557,0.1576607,0.3123825
0.9596464,0.1583102,0.3176577
0.9594672,0.1556039,0.3223294
0.9595907,0.1531581,0.3195237
0.9575262,0.154576,0.3164266
0.9543519,0.1573819,0.3183448
0.9524466,0.1588257,0.3187
0.9515789,0.1580707,0.3169586
0.9504839,0.1552993,0.3169209
0.9506856,0.1533969,0.3162103
0.9526276,0.1540651,0.3153801
0.9532893,0.1548872,0.3139825
0.952704,0.155761,0.3099508
0.953629,0.1578007,0.3103271
0.9546184,0.1590979,0.3138431
0.9539332,0.1597362,0.3130237
0.9531314,0.1601542,0.31037
0.9528187,0.1594578,0.309446
0.9535166,0.1592483,0.3102687
0.9549791,0.1582755,0.311923
0.9563632,0.1561052,0.3134367
0.9586383,0.1569835,0.3123459
0.9589156,0.1585856,0.312589
0.956156,0.1590281,0.316206
0.9564123,0.1598935,0.3143466
0.9578026,0.1579749,0.3080199
0.9559456,0.1560207,0.3042378
0.9541725,0.1580102,0.3054037
0.952389,0.1619912,0.3078004
0.9523686,0.1664388,0.3108403
0.9554212,0.165355,0.3175426
0.9558353,0.1589531,0.3160328
0.9554099,0.1577883,0.3114124
0.9559503,0.1623364,0.314367
0.956148,0.1651159,0.3137909
0.957807,0.1637186,0.3135488
0.9588124,0.1612092,0.3142866
0.9598615,0.1600987,0.311266
0.9599995,0.1595095,0.3110957
0.9572769,0.1608655,0.3110522
0.9566172,0.1635817,0.3119989
0.9566205,0.1641845,0.3131887
0.9547458,0.1639774,0.3123479
0.9520437,0.1637698,0.3145571
0.9503671,0.1636313,0.3145634
0.9519205,0.163237,0.309012
0.9525427,0.1625284,0.3041355
0.9525452,0.165155,0.3075001
0.953307,0.1677999,0.3132075
0.9523966,0.1666582,0.3112651
0.9527981,0.1660508,0.3121263
0.9530591,0.1660696,0.3134651
0.9523951,0.1648331,0.3098584
0.9532432,0.1640962,0.3131633
0.9535858,0.1639859,0.3143131
0.954328,0.1641876,0.3103972
0.9543189,0.1666301,0.3122429
0.9528399,0.1685108,0.3114646
0.9527465,0.1650789,0.3098817
0.9532313,0.1608294,0.3121692
0.9549253,0.1605654,0.3108048
0.9548659,0.1621875,0.3106904
0.9502891,0.1646735,0.3118648
0.9490162,0.167204,0.3113641
0.9524821,0.1649859,0.3158246
0.953455,0.1602602,0.319775
0.9526546,0.1617482,0.3188659
0.9540394,0.1650949,0.3184235
0.9563243,0.1640167,0.3191888
0.9574894,0.1633827,0.3205236
0.9570327,0.1639711,0.3209703
0.9565822,0.1628808,0.3194379
0.9572014,0.1611474,0.3158053
0.9569374,0.1608356,0.3117021
0.95676,0.161444,0.3105029
0.9571766,0.1626658,0.3125253
0.9564344,0.1663558,0.3153379
0.955176,0.1692677,0.3151417
0.95372,0.1678756,0.3139084
0.9530878,0.1656076,0.3131834
0.9511409,0.1651091,0.3072759
0.9476106,0.1651642,0.3025535
0.9500443,0.1655027,0.309469
0.9539754,0.1668348,0.3156206
0.9521916,0.1694336,0.3115191
0.9506637,0.170955,0.309191
0.9499614,0.1665514,0.307747
0.9495665,0.1618191,0.3038113
0.951457,0.1638911,0.306016
0.9519104,0.1648426,0.3078702
0.9529636,0.1630923,0.3064719
0.9551569,0.163738,0.3080803
0.9550274,0.1623718,0.3109377
0.9555301,0.1601487,0.3139605
0.9559298,0.1611849,0.3136385
0.9552268,0.1613013,0.3130901
0.9553108,0.15933,0.3138645
0.9538411,0.1569044,0.3080342
0.9524447,0.1557678,0.3038397
0.9544707,0.1606464,0.3070612
0.9564641,0.1661824,0.3104252
0.9555567,0.1634146,0.311797
0.9547387,0.1588491,0.3115862
0.9541667,0.1572927,0.3135591
0.9521346,0.1561343,0.3163376
0.952929,0.1571646,0.3157935
0.9561478,0.157385,0.3154601
0.9573438,0.156638,0.3145816
0.9576062,0.1593433,0.3134141
0.9584169,0.1609794,0.3169181
0.9589657,0.1603538,0.3184659
0.9540275,0.1592527,0.3151751
0.9480277,0.157121,0.3167473
0.9533594,0.1550957,0.3161181
0.959195,0.1530991,0.3076872
0.9564083,0.1532141,0.3047825
0.9564283,0.1531697,0.309661
0.9577266,0.1521729,0.3150557
0.9564058,0.1541809,0.3145307
0.9570775,0.1548376,0.3131779
0.9571295,0.1555924,0.3152954
0.9566338,0.158393,0.3130165
0.9572034,0.159551,0.3135858
0.9570122,0.1610814,0.3150766
0.9577947,0.1590735,0.3118627
0.9587444,0.155309,0.310897
0.9582877,0.157007,0.3064184
0.9580483,0.1576831,0.3055023
0.9575215,0.1562652,0.3100882
0.9566627,0.1569936,0.3134575
0.9568083,0.1562321,0.3220539
0.9568155,0.1547637,0.3216459
0.9550674,0.1548152,0.3122394
0.953544,0.1543975,0.3103159
0.954461,0.155624,0.31077
0.9562553,0.158392,0.3116083
0.9573013,0.1596862,0.3089233
0.9575085,0.1608936,0.3052584
0.9584305,0.1588082,0.3089432
0.9603653,0.1536014,0.3088302
0.9598739,0.1534721,0.3041484
0.9582197,0.1551048,0.3024309
0.9583991,0.155006,0.3027833
0.9582948,0.1579979,0.3070428
0.9582244,0.1609978,0.3108469
0.958732,0.161007,0.3112515
0.9590289,0.1594505,0.3110797
0.9593466,0.1575387,0.3090582
0.9563443,0.1584036,0.3071808
0.9530443,0.1595704,0.3062978
0.9558026,0.1588477,0.305223
0.9580957,0.1591877,0.3043016
0.9555373,0.1598206,0.3000889
0.9538417,0.1593526,0.2954419
0.9532122,0.1568053,0.2948953
0.9514579,0.1537028,0.2971788
0.9510563,0.1543252,0.303253
0.9515914,0.1572326,0.3060383
0.9514982,0.1590208,0.3032149
0.9528114,0.1584136,0.3046806
0.9559537,0.1565652,0.3074044
0.9586974,0.1551414,0.3084973
0.958967,0.1536172,0.3091114
0.9587575,0.1538669,0.3075707
0.9598001,0.1549255,0.3084849
0.9581706,0.1547078,0.3089647
0.955937,0.1557938,0.3085308
0.956334,0.1559626,0.3100012
0.9537442,0.1551844,0.3069888
0.9499269,0.1567546,0.3043083
0.9521791,0.1576158,0.3054166
0.957648,0.1585614,0.3038261
0.9602508,0.1602,0.3013442
0.9576591,0.1589421,0.3021264
0.9544335,0.1578864,0.3052612
0.9580905,0.1595167,0.3061595
0.9616283,0.1610845,0.3051189
0.9583948,0.1612913,0.3054247
0.9557512,0.1610558,0.3074571
0.9538187,0.1607473,0.3108958
0.9531505,0.1591438,0.3112757
0.9550433,0.1569147,0.3103603
0.9529848,0.1566245,0.3113657
0.9520232,0.1586636,0.3092687
0.9534719,0.1613368,0.3073899
0.952355,0.1631852,0.3091609
0.9528646,0.163018,0.3111158
0.9529842,0.1627832,0.3131204
0.9524082,0.1640864,0.3127921
0.9531443,0.1620198,0.3110834
0.9525528,0.1579838,0.3120657
0.9527983,0.1573254,0.3129703
0.9529375,0.1580313,0.313518
0.9528826,0.1604395,0.3150837
0.9548007,0.1627731,0.3155761
0.9556086,0.1616228,0.3150819
0.9539841,0.1607411,0.3142636
0.9519284,0.1611023,0.3131515
0.9524229,0.1613976,0.3111506
0.9525373,0.1621786,0.3089883
0.9507694,0.1637279,0.3099457
0.9522972,0.1654857,0.3131297
0.953496,0.1660877,0.3151749
0.9523953,0.1660139,0.3141496
0.9532042,0.1651668,0.3097977
0.9548375,0.1646704,0.3075633
0.9566739,0.1648213,0.3114098
0.9566651,0.1634865,0.3156467
0.9548863,0.163598,0.3157087
0.9556635,0.1631733,0.3145885
0.9568479,0.1572613,0.3135746
0.9559909,0.1532105,0.3120273
0.952689,0.158434,0.3121769
0.9487019,0.1650758,0.3129877
0.9508198,0.1625132,0.3122826
0.9555683,0.1582934,0.3114938
0.955798,0.1591929,0.308312
0.9551713,0.1583927,0.3039534
0.9542354,0.159241,0.305276
0.9535598,0.1633392,0.3079374
0.9552912,0.164564,0.3083096
0.9540421,0.1649566,0.3101604
0.951535,0.165262,0.3093314
0.9516367,0.1650199,0.3072128
0.9519818,0.1634202,0.3092828
0.9538763,0.1607667,0.3114234
0.9566571,0.1609071,0.313697
0.9586826,0.1609707,0.3147567
0.9579006,0.1591855,0.3122777
0.9540117,0.1582502,0.3122552
0.9536833,0.1598067,0.3130422
0.9548412,0.1621477,0.313019
0.9544771,0.1614619,0.3133665
0.9551715,0.1623375,0.3085488
0.9539962,0.1649901,0.3037753
0.9536394,0.1638528,0.3065096
0.9551577,0.1633967,0.3109307
0.9556028,0.1638202,0.3140947
0.9576495,0.1610167,0.3169765
0.9583217,0.1590177,0.3154257
0.9573201,0.1608332,0.3110424
0.9562102,0.1638128,0.3074008
0.95332,0.1651937,0.3027112
0.9545349,0.1654608,0.3043198
0.9566863,0.1651619,0.3095414
0.9540999,0.1641933,0.3075162
0.9537108,0.1635718,0.30636
0.9551302,0.162899,0.3063068
0.9565629,0.162843,0.3076057
0.9585626,0.1651276,0.3139536
0.9551025,0.1675492,0.3129175
0.9514691,0.1668311,0.3092296
0.955509,0.1650794,0.3082898
0.9580391,0.1658881,0.3034532
0.9531817,0.1681822,0.3019614
0.9479231,0.1709317,0.3048832
0.9465714,0.1715425,0.3063295
0.9480279,0.1692285,0.305729
0.949334,0.1692648,0.3059723
0.9491763,0.1693948,0.307706
0.9524162,0.1672969,0.3070177
0.9583397,0.1664167,0.307515
0.9588124,0.1665187,0.3086761
0.9551189,0.1678691,0.3063393
0.9533417,0.1683853,0.3049229
0.9540645,0.1676112,0.305498
0.9544475,0.1673816,0.3058545
0.9529887,0.1662602,0.3054172
0.9524581,0.1665469,0.3059674
0.9534643,0.1670412,0.3085018
0.9553998,0.1663125,0.3103101
0.9574324,0.1668536,0.3104754
0.955302,0.1664928,0.3113361
0.9522393,0.1656307,0.3149427
0.9537474,0.1652014,0.3163595
0.9556837,0.1648219,0.3137183
0.9556428,0.1643286,0.3109049
0.9557505,0.161727,0.3077907
0.9563876,0.1603426,0.3104275
0.9563406,0.1615104,0.3164743
0.9526356,0.1621143,0.3154869
0.9483486,0.1627991,0.3146121
0.9505165,0.1633879,0.3159314
0.9555455,0.1632503,0.3146983
0.9576319,0.1631216,0.3142822
0.9569106,0.1635323,0.3130891
0.9535317,0.1648854,0.3128795
0.9512361,0.1653745,0.3156213
0.9519778,0.1638198,0.3165011
0.9521628,0.1633438,0.3152594
0.9513451,0.1654392,0.30973
0.9509993,0.1663744,0.3031413
0.9517993,0.1656889,0.3048098
0.9524219,0.1653289,0.3067188
0.9528628,0.1647554,0.3019378
0.9546365,0.1645533,0.300365
0.9568203,0.1636066,0.3028122
0.9584812,0.1621663,0.3053217
0.9552253,0.1611439,0.3082667
0.9512911,0.1595865,0.307094
0.9556262,0.1604723,0.3056263
0.9586148,0.1609952,0.3063952
0.956022,0.1595403,0.3052772
0.954956,0.1600915,0.3084267
0.9543549,0.1597128,0.312145
0.9555203,0.1605368,0.3108234
0.9575647,0.1637246,0.3107648
0.9552528,0.1668327,0.3098169
0.952872,0.1700199,0.3089642
0.953854,0.1653941,0.3099673
0.9542922,0.1589385,0.3079758
0.9539382,0.1618868,0.3067232
0.9536115,0.165545,0.3069183
0.9530127,0.166952,0.3049527
0.9542513,0.1665413,0.3042807
0.956127,0.1614608,0.3077273
0.9573443,0.1590114,0.3108863
0.9573866,0.1622956,0.3088976
0.9563126,0.1649922,0.3058187
0.9568483,0.1628133,0.3049217
0.9553954,0.1595978,0.3047915
0.9531011,0.15969,0.3073348
0.9546091,0.1600461,0.3092127
0.9552751,0.161738,0.308471
0.9554936,0.1653222,0.3096712
0.9559329,0.1666078,0.3074211
0.9551897,0.165635,0.3028975
0.9553562,0.1604081,0.304581
0.9538359,0.1546606,0.3066039
0.9520326,0.1559157,0.3078168
0.953315,0.158171,0.3092482
0.9557284,0.157364,0.3078287
0.9575978,0.1581743,0.3082922
0.9572365,0.160385,0.3087249
0.9564457,0.1616049,0.3073334
0.9571591,0.1613511,0.3059777
0.9565254,0.1606713,0.3039707
0.953655,0.1616416,0.3072992
0.9503567,0.1627278,0.3116747
0.949648,0.1617474,0.3090677
0.9529755,0.1583934,0.3062384
0.954895,0.1554297,0.3054693
0.9522632,0.1570775,0.3050095
0.9504974,0.1579156,0.3072095
0.9521975,0.1574857,0.3109907
0.9552873,0.1617242,0.3132059
0.9573989,0.1639069,0.3124199
0.9556201,0.1633742,0.3139328
0.9534857,0.1637007,0.3172375
0.9568403,0.1631918,0.3139729
0.9594862,0.1654021,0.3111897
0.9562276,0.1655191,0.311489
0.9545775,0.1598788,0.3103457
0.9559015,0.1574565,0.3126803
0.9556414,0.1605954,0.3118255
0.9555594,0.164788,0.3064185
0.9563608,0.1657664,0.3035304
0.9561454,0.1630562,0.3038275
0.9544713,0.1603911,0.3071848
0.9539317,0.1581592,0.3068725
0.9562006,0.1563018,0.311551
0.9574015,0.1568334,0.3199662
0.9556829,0.159029,0.3147862
0.9532656,0.1620054,0.3119085
0.9522613,0.1647426,0.3161007
0.9529949,0.1633301,0.3154439
0.9538442,0.1604046,0.3160041
0.9543089,0.1611879,0.3170977
0.9542875,0.1615947,0.315932
0.9541926,0.16172,0.3130055
0.9551103,0.1640414,0.3099975
0.9558775,0.1639663,0.3108415
0.9545104,0.162748,0.3117487
0.9500404,0.1624306,0.3108172
0.9462223,0.1622262,0.3107901
0.9499769,0.1629903,0.3103596
0.9569624,0.1632852,0.3083444
0.9572752,0.1640232,0.3079266
0.9536107,0.1642736,0.3086536
0.9512248,0.1634176,0.3081739
0.950936,0.1641248,0.3096046
0.9527805,0.16414,0.3146668
0.9530349,0.1646887,0.3198211
0.9525164,0.1667429,0.318963
0.9530303,0.1666793,0.3164754
0.9525894,0.1656952,0.3182879
0.9528262,0.1653727,0.3156986
0.952893,0.1669208,0.3121589
0.9523744,0.1688951,0.3149375
0.9521165,0.1678914,0.31668
0.9511535,0.1667603,0.3174532
0.9525327,0.1667294,0.3167873
0.9553491,0.1664652,0.3139287
0.9568114,0.1664193,0.3131726
0.9571728,0.1649372,0.3102236
0.9555143,0.1631916,0.3071117
0.9534185,0.1638092,0.308276
0.9517914,0.1646163,0.3091282
0.9499042,0.1654235,0.3100852
0.948561,0.167225,0.3124677
0.9498351,0.1670267,0.3135196
0.9528744,0.1660836,0.3144392
0.9531323,0.1669606,0.3178748
0.9532058,0.166764,0.31692
0.9541347,0.1661706,0.3077532
0.9527988,0.1658973,0.3039408
0.9527832,0.1639802,0.3111125
0.9530873,0.1634421,0.318208
0.9532949,0.1643605,0.3187971
0.9550594,0.1650405,0.3165019
0.9549188,0.1674954,0.3153327
0.9557221,0.16985,0.313479
0.9577135,0.1705356,0.3094199
0.9602038,0.1704347,0.3046777
0.9625569,0.1682499,0.3029412
0.9556523,0.1662633,0.3048216
0.9483367,0.169051,0.3052871
0.9525986,0.1716219,0.3065943
0.9563032,0.1670208,0.3122909
0.9547264,0.1627529,0.3170367
0.9535754,0.1649471,0.3167427
0.9506809,0.1670994,0.3150127
0.9488026,0.1675535,0.3165988
0.9505464,0.1683498,0.3180048
0.9497892,0.1679559,0.3179053
0.947718,0.1665996,0.317778
0.9476951,0.1647356,0.3141545
0.9496188,0.1637765,0.3111889
0.9534775,0.1664761,0.3115551
0.9534119,0.1692761,0.311728
0.9516907,0.1680954,0.3136014
0.9522741,0.1676139,0.316101
0.9501607,0.1696325,0.3148376
0.9493082,0.1704993,0.3101008
0.9507191,0.1710015,0.3066721
0.9506526,0.171227,0.3056201
0.9516531,0.1713939,0.304722
0.9516499,0.1721539,0.3054062
0.9509813,0.1696796,0.3060327
0.9516606,0.1668391,0.3053266
0.9515137,0.1680575,0.3054739
0.9521753,0.1687608,0.3053817
0.9532124,0.1681787,0.3040371
0.9527556,0.1680062,0.3037815
0.9526244,0.1663999,0.3053079
0.9527187,0.1663776,0.3058506
0.9516886,0.1690998,0.307777
0.9501714,0.1698387,0.3110853
0.9500349,0.1695281,0.309895
0.95258,0.17074,0.308308
0.9569806,0.1727826,0.3077447
0.9590042,0.1736632,0.3049456
0.9551645,0.1696676,0.307062
0.9500698,0.1647587,0.311764
0.9498357,0.1647282,0.3115763
0.9529539,0.1655272,0.3135363
0.9550372,0.1643226,0.3192118
0.9541924,0.1636481,0.3213905
0.9523414,0.1651727,0.3159787
0.9514027,0.167525,0.3052768
0.9517555,0.168333,0.3007139
0.9556621,0.166546,0.3048128
0.9586172,0.1625329,0.3078671
0.9557496,0.1602399,0.3079705
0.9529015,0.1623954,0.31186
0.9512231,0.1659791,0.3173918
0.9513364,0.166971,0.3155491
0.9539885,0.1648708,0.3127919
0.9527071,0.1631266,0.3137223
0.9520319,0.1639673,0.3119893
0.9536621,0.1652361,0.3120944
0.9522676,0.1652565,0.3132798
0.9527504,0.1651642,0.3118951
0.9537406,0.1642687,0.3126704
0.9543766,0.1625386,0.3127263
0.9554831,0.1626556,0.3120856
0.9521674,0.1643322,0.3128721
0.951665,0.1656543,0.3123195
0.9545742,0.1646435,0.3124577
0.954943,0.1630927,0.3123418
0.9574926,0.1640929,0.3108278
0.9579033,0.1639635,0.3109673
0.9557666,0.1626056,0.3118738
0.9574692,0.1625107,0.3114148
0.9570184,0.1623118,0.3105109
0.9550242,0.1626142,0.3118366
0.9541212,0.1625771,0.3141026
0.9518479,0.1624669,0.3152318
0.9526479,0.1639635,0.3141634
0.953474,0.1658411,0.3107771
0.9522921,0.167108,0.3098161
0.9539702,0.1655573,0.3091618
0.9547187,0.1627422,0.3080958
0.9549996,0.1622119,0.3096565
0.9568931,0.162605,0.3080067
0.957178,0.163528,0.3068442
0.9565765,0.1634697,0.3083129
0.9548831,0.1602488,0.3074205
0.9527595,0.1579469,0.3089595
0.9523853,0.161478,0.311489
0.9529175,0.1654598,0.3122391
0.9529306,0.1617892,0.3104837
0.9530721,0.1573583,0.3067966
0.955593,0.1567447,0.3082284
0.9578065,0.1550881,0.3089126
0.9565539,0.1564833,0.3051504
0.9538412,0.1597345,0.3026759
0.9521409,0.1598024,0.3010503
0.9525842,0.1597083,0.3037493
0.9531585,0.1585498,0.3070145
0.9526212,0.1570284,0.3043793
0.9528652,0.1568745,0.3037259
0.9538444,0.1567486,0.3066421
0.9543382,0.157183,0.3082667
0.9547857,0.1574098,0.3078127
0.9567444,0.1594813,0.3037242
0.9589677,0.1618326,0.3009798
0.9578488,0.1592332,0.3064312
0.9559639,0.1565497,0.3120558
0.9564469,0.1577166,0.3090008
0.9537615,0.1588699,0.3066719
0.9499332,0.1582894,0.3093063
0.952191,0.1581076,0.3083812
0.9540594,0.1590964,0.3071217
0.9534684,0.1610984,0.3060369
0.9561909,0.1641623,0.3011545
0.9579145,0.1646115,0.3015525
0.9566531,0.1625265,0.3078826
0.9564012,0.1604928,0.3127953
0.9552674,0.1578209,0.3136937
0.9525675,0.1593293,0.3112782
0.9522784,0.162762,0.3107012
0.9535623,0.1606619,0.3092675
0.9544404,0.1595303,0.3061107
0.9559831,0.1604915,0.3055619
0.9561518,0.1600076,0.3054171
0.9558744,0.1615823,0.3075255
0.9574739,0.1611315,0.3089043
0.9566467,0.1586069,0.3060934
0.9537233,0.1586939,0.305292
0.9532558,0.1597647,0.3065164
0.9568415,0.161841,0.3081159
0.9608064,0.161531,0.3080862
0.956138,0.1609544,0.3071173
0.9489923,0.1653073,0.3098421
0.9498806,0.1671381,0.3139685
0.951375,0.1638723,0.3165686
0.951233,0.160486,0.3114177
0.9518166,0.1605105,0.3038219
0.9511935,0.162119,0.30767
0.9529035,0.1615685,0.3113298
0.9559432,0.1626589,0.3104544
0.9575082,0.1632683,0.3129409
0.9573772,0.1626442,0.3104763
0.9562759,0.1640676,0.3094226
0.9572355,0.1613326,0.3134568
0.9571551,0.1585141,0.3117655
0.956099,0.1610425,0.3125494
0.9556091,0.1629473,0.314988
0.9534236,0.1643602,0.3157061
0.9538519,0.1652816,0.3206704
0.9548826,0.1624046,0.3184873
0.9534493,0.1581658,0.311074
0.953414,0.1579472,0.3078762
0.9526964,0.1608599,0.3098462
0.9523407,0.1625701,0.3167721
0.9532702,0.1639205,0.3156686
0.9525414,0.1650009,0.3129004
0.953243,0.1654254,0.315256
0.9557114,0.1654865,0.3138733
0.9574945,0.1649756,0.3156936
0.9568905,0.1654244,0.3153062
0.9536271,0.1651827,0.3104718
0.9521655,0.164149,0.3096395
0.9527267,0.1638637,0.3089156
0.9534679,0.1632819,0.3106342
0.9555102,0.162303,0.3117845
0.9568416,0.1605938,0.3121381
0.9536831,0.161388,0.3138596
0.9487814,0.1653703,0.3124509
0.9503276,0.1666659,0.3142642
0.9555562,0.1634483,0.3144915
0.9573958,0.1595523,0.3118035
0.9566706,0.1608721,0.3138222
0.9544812,0.1635965,0.315745
0.9544841,0.1638566,0.3182494
0.9545718,0.1668901,0.3155157
0.9521654,0.1671629,0.309865
0.9521322,0.1639157,0.3129713
0.9513565,0.1640838,0.3137651
0.9526158,0.1645431,0.3133036
0.9583569,0.1655875,0.3172687
0.9600685,0.1655284,0.3154114
0.9574465,0.1643801,0.3108291
0.954181,0.1677031,0.308787
0.9553762,0.170355,0.3086084
0.9574967,0.169406,0.3096616
0.9547666,0.1668544,0.310801
0.9529734,0.1642888,0.3161238
0.9505414,0.1637698,0.3209431
0.9496746,0.1646801,0.316825
0.9510055,0.1670083,0.3115281
0.9491016,0.1678667,0.3122375
0.9503562,0.1673862,0.3134366
0.951444,0.1658542,0.3138423
0.9507879,0.1629913,0.3157728
0.9527497,0.1656483,0.3147635
0.9535969,0.1695005,0.3127122
0.9551828,0.1704893,0.3133699
0.9510856,0.1724663,0.3123979
0.9444618,0.1700118,0.3128841
0.8876658,0.331941,0.3377334
0.888051,0.3320123,0.3432571
0.8880588,0.3343245,0.3378393
0.8854819,0.3370286,0.3315118
0.8840434,0.3384746,0.3358492
0.8862655,0.3392656,0.3374003
0.8894067,0.3399634,0.3373483
0.8908426,0.3381053,0.3411424
0.8905256,0.3344474,0.3416377
0.8896819,0.3338965,0.3400241
0.8895089,0.3328173,0.3384743
0.8884695,0.3307498,0.3393025
0.8866592,0.3323827,0.3417328
0.8861843,0.332297,0.3413317
0.8870304,0.3312461,0.3415156
0.8897586,0.3325169,0.3403657
0.8907355,0.3313996,0.3380537
0.8879358,0.32996,0.3383943
0.8860801,0.3293875,0.336377
0.885956,0.3303421,0.3363909
0.887112,0.333481,0.3394492
0.8879596,0.3337586,0.3382824
0.887297,0.3345635,0.3361369
0.8880598,0.3356521,0.3341056
0.8902403,0.3337753,0.3340915
0.8923822,0.3339723,0.3356663
0.8917559,0.3332864,0.3345646
0.8889564,0.3317314,0.3364043
0.8878396,0.3323354,0.3381968
0.8871215,0.3316027,0.3353646
0.8874062,0.3314005,0.334106
0.8884463,0.329617,0.3364685
0.8897836,0.3264923,0.3439288
0.8926405,0.3277856,0.3492683
0.892109,0.328883,0.3395192
0.8907546,0.3299505,0.3274715
0.8922655,0.3326055,0.3303887
0.8916246,0.3305389,0.3331213
0.8911326,0.3278302,0.3306263
0.8912256,0.329582,0.3391006
0.8897011,0.3305369,0.3455805
0.8902271,0.3302651,0.3414467
0.8906389,0.3309297,0.3384665
0.8899302,0.3302591,0.3350549
0.8908061,0.3294658,0.3352727
0.8917246,0.3294159,0.3374641
0.8915031,0.3300364,0.335636
0.8890321,0.3332508,0.3379442
0.8868008,0.335627,0.339033
0.8868878,0.3354808,0.3340093
0.8862026,0.3345192,0.3306174
0.8875132,0.332795,0.3314634
0.8898302,0.3307695,0.3329521
0.8875025,0.3282655,0.3316362
0.8853623,0.3286955,0.3327499
0.8861769,0.3299419,0.3351843
0.887221,0.3276578,0.3344742
0.8881721,0.3274969,0.3352333
0.8891756,0.3283183,0.3365712
0.8913137,0.3282984,0.337757
0.8931288,0.3299045,0.338273
0.8941407,0.330064,0.3378611
0.8948842,0.3305115,0.3407046
0.8940491,0.3303091,0.342658
0.8938785,0.325815,0.3429996
0.8944139,0.32052,0.342754
0.8942223,0.3183828,0.3373563
0.8931464,0.3220912,0.3312548
0.8920557,0.3270256,0.3292638
0.8928645,0.328349,0.3310293
0.8922659,0.3281095,0.3332266
0.8917148,0.3272968,0.3347476
0.8923319,0.3275038,0.3390551
0.8909562,0.3263324,0.3413094
0.8918094,0.3239723,0.3399912
0.8919574,0.325463,0.3388781
0.8900481,0.3271917,0.3368097
0.8905647,0.327684,0.3358118
0.8905598,0.3273775,0.3377631
0.8928999,0.3256429,0.3424912
0.8951164,0.3265653,0.345017
0.8912188,0.3279157,0.3400474
0.8874191,0.3284571,0.3355212
0.887045,0.3298036,0.3373402
0.8887106,0.3283757,0.3358976
0.8892991,0.3252759,0.3233525
0.8884352,0.3230983,0.3139763
0.8881511,0.3241764,0.3233245
0.8876948,0.3275752,0.3354626
0.890049,0.3267208,0.334216
0.89281,0.3258845,0.3337445
0.8915311,0.3284243,0.3382623
0.890278,0.3281753,0.3372143
0.8903281,0.3274087,0.3372953
0.8905461,0.3289064,0.3382524
0.892057,0.3295127,0.3365616
0.8938709,0.3289156,0.3381257
0.8940835,0.3281755,0.3380167
0.8942961,0.3274455,0.3396377
0.8943116,0.3267203,0.3427448
0.891519,0.3268405,0.3386395
0.889411,0.3289289,0.336508
0.8907353,0.33146,0.3385647
0.8933247,0.3314838,0.3385131
0.8949143,0.3324496,0.3344535
0.8934131,0.3354411,0.3306697
0.8905838,0.3324708,0.3349173
0.889973,0.3290247,0.3395603
0.8912704,0.332784,0.3389073
0.8920499,0.334043,0.3370606
0.8916566,0.330862,0.3336976
0.8915042,0.3291501,0.3322689
0.8916056,0.3295316,0.338744
0.8907775,0.3329321,0.3446087
0.8899208,0.3353286,0.3363448
0.8902552,0.3321004,0.3288236
0.8904584,0.3282075,0.3374215
0.8901372,0.329052,0.3442616
0.8901325,0.3307407,0.3419756
0.8894333,0.3299927,0.3412801
0.8885424,0.3289417,0.3408765
0.889014,0.3272898,0.3382448
0.8905097,0.3271075,0.3384483
0.8931129,0.3279868,0.3422403
0.8948219,0.3274982,0.340795
0.8919683,0.329863,0.3347254
0.889026,0.3318076,0.3349098
0.8912351,0.3311397,0.3377161
0.8924206,0.3308195,0.3395115
0.8902607,0.3287556,0.3416356
0.89001,0.3303885,0.3412297
0.8904481,0.3326477,0.3411592
0.8901795,0.3269622,0.3374536
0.8903548,0.324199,0.3330926
0.8907581,0.3295721,0.3377047
0.8929677,0.3327417,0.3403551
0.8949502,0.3268503,0.3382977
0.8923637,0.3218467,0.3374741
0.8878964,0.3291917,0.3355743
0.8869076,0.3346227,0.3343635
0.8889668,0.3301055,0.3360768
0.8910643,0.3277713,0.3398932
0.89217,0.3274053,0.3400042
0.8917362,0.3247645,0.3366658
0.8915357,0.3235022,0.3369168
0.8929677,0.3260425,0.3361999
0.8941858,0.3290263,0.327566
0.894178,0.3288349,0.3204965
0.8916387,0.331473,0.3299844
0.8883507,0.3366511,0.3420536
0.8886466,0.3344922,0.3393197
0.8902671,0.3297691,0.3363663
0.8903599,0.3290178,0.3356918
0.8902979,0.3286791,0.3300458
0.8906234,0.329065,0.3301247
0.8920156,0.3276856,0.3319983
0.8936772,0.3250516,0.3301202
0.8928651,0.3257722,0.3342982
0.8908431,0.3254064,0.3369684
0.8899936,0.3268842,0.3311595
0.8899002,0.3325205,0.3281335
0.8896125,0.3338018,0.3319855
0.8887915,0.3304208,0.3369487
0.8896669,0.3273039,0.3374708
0.8918645,0.3282259,0.3370752
0.8918438,0.3301334,0.3381509
0.8914725,0.3290155,0.336715
0.89183,0.330242,0.3353383
0.8915463,0.33263,0.3327852
0.8917202,0.3313351,0.3313717
0.8916951,0.3275071,0.3361206
0.8915715,0.3259304,0.3386813
0.8917867,0.331088,0.3374761
0.8913934,0.3352333,0.3371538
0.8908084,0.3330412,0.337056
0.8900371,0.3317446,0.3350706
0.8897355,0.3324043,0.3323402
0.8887885,0.3328252,0.3340958
0.8871443,0.3344585,0.3353503
0.8890505,0.3349399,0.3322553
0.8913832,0.3321179,0.3305213
0.890128,0.3284869,0.3304698
0.8900518,0.3260836,0.3315167
0.8916048,0.3259809,0.3336213
0.8917519,0.3268181,0.337893
0.8911662,0.3262318,0.3431775
0.888982,0.3264475,0.3433246
0.8869537,0.327718,0.3427556
0.889267,0.3290656,0.3438891
0.8924405,0.3314424,0.3412184
0.8927308,0.3326052,0.3393137
0.8929782,0.3328063,0.3385194
0.8935789,0.3334979,0.3354763
0.8936982,0.3323823,0.3353376
0.8941788,0.3278654,0.338928
0.8918894,0.3233542,0.3422058
0.8881273,0.3249628,0.338097
0.888528,0.3288939,0.3321359
0.8896461,0.3296825,0.3368279
0.8894328,0.3305931,0.3393519
0.8905916,0.3297814,0.336215
0.8908981,0.3269169,0.3386215
0.8916546,0.3272172,0.3405957
0.8938422,0.3275037,0.339865
0.8929181,0.3258451,0.3359409
0.890687,0.3263512,0.3320752
0.890128,0.3277469,0.3348827
0.8902098,0.3277692,0.3359509
0.8913616,0.3276748,0.335687
0.8920145,0.3269128,0.3382178
0.8916971,0.3266805,0.3391312
0.8931255,0.3300205,0.3379861
0.8960312,0.3322798,0.3349455
0.8977315,0.3277438,0.3350707
0.8950997,0.3229108,0.3395476
0.8906066,0.3250144,0.3427608
0.8901908,0.3276218,0.342238
0.8930542,0.3284074,0.3392898
0.8953863,0.3312703,0.3380882
0.8941954,0.3293781,0.3346482
0.8910254,0.3260164,0.3314227
0.8899293,0.3289318,0.3330058
0.8899927,0.3307987,0.3309246
0.8905147,0.3320372,0.3313708
0.8907696,0.3327147,0.340941
0.8916808,0.3297792,0.3504087
0.8937633,0.3287428,0.3507427
0.892109,0.3275358,0.3413872
0.8898972,0.3269036,0.3360986
0.890439,0.3277581,0.3364273
0.8901566,0.3260306,0.3338659
0.889934,0.3279269,0.3315138
0.888615,0.3304416,0.3306868
0.8874632,0.3285334,0.3329008
0.8910519,0.3281582,0.335984
0.8944594,0.3278118,0.3348292
0.8934447,0.3275758,0.3340834
0.893137,0.3290464,0.3351395
0.8948639,0.3287345,0.3340351
0.8928427,0.3265479,0.3304949
0.8904611,0.3241406,0.3265718
0.8918433,0.3249594,0.3267618
0.8910124,0.3275711,0.3340149
0.8895893,0.3278646,0.3399386
0.8908513,0.3277574,0.3377717
0.8924921,0.3266734,0.3359332
0.8952568,0.3250152,0.3364463
0.8966761,0.3249274,0.3342474
0.8955999,0.3248939,0.3339955
0.8954567,0.3254623,0.3377421
0.8952067,0.3268258,0.3451075
0.8938741,0.3281453,0.3518794
0.893391,0.3280244,0.3407474
0.8927726,0.3263378,0.3258585
0.890942,0.3264926,0.3353934
0.8901112,0.3275627,0.342215
0.8910245,0.3291,0.3343281
0.8919345,0.3315803,0.3359175
0.890917,0.3318626,0.3356067
0.889428,0.3302702,0.3327489
0.8893756,0.3285047,0.3363019
0.8881165,0.3288499,0.3335695
0.8876777,0.3296738,0.3305341
0.8896931,0.3278154,0.3291837
0.8900951,0.3278656,0.3281119
0.8910089,0.3298053,0.3322524
0.8923957,0.3305055,0.3329193
0.8912699,0.3291946,0.3350315
0.8907688,0.3272417,0.338747
0.8912024,0.3304067,0.3343915
0.8917951,0.3334352,0.3308084
0.8929295,0.3312466,0.3300485
0.8925571,0.3301894,0.329388
0.8904191,0.3308163,0.3316622
0.8888355,0.332058,0.3342773
0.8919856,0.3325962,0.333618
0.896137,0.3310355,0.3315417
0.8932602,0.3300387,0.33215
0.8899664,0.3280609,0.3320277
0.8905371,0.3268699,0.3327792
0.8899815,0.3283428,0.3387378
0.8906632,0.3277809,0.3437294
0.8925364,0.3266855,0.3451436
0.8940676,0.3246456,0.3447553
0.8943587,0.3215787,0.3425035
0.8895972,0.3253755,0.3374597
0.8863201,0.3297176,0.3360035
0.8897664,0.3264572,0.3397964
0.8940839,0.3244331,0.3390037
0.8944727,0.3252446,0.3392523
0.8906352,0.3238968,0.3414031
0.8878728,0.3238068,0.3388861
0.8895469,0.3271432,0.3368803
0.8912242,0.3321253,0.3338713
0.8900726,0.3345912,0.333797
0.8903987,0.3320586,0.3361059
0.8935154,0.3302224,0.333904
0.8949502,0.3307769,0.3346958
0.8943459,0.3302188,0.3353346
0.8923693,0.3296583,0.3339697
0.8912111,0.3285201,0.3356073
0.8927313,0.32616,0.3363658
0.8931865,0.3254464,0.338378
0.8920151,0.3289998,0.3407798
0.8903865,0.3338158,0.3407981
0.8898693,0.3324302,0.3379559
0.8905734,0.3305377,0.3331452
0.8901463,0.332923,0.3359076
0.8902696,0.3318784,0.3394613
0.8902135,0.331326,0.3353234
0.8892107,0.3327326,0.3337827
0.8887904,0.3314257,0.3338675
0.8886657,0.3320085,0.3346987
0.8892982,0.3322644,0.3391298
0.8899291,0.3312839,0.3394724
0.8912722,0.3305649,0.3374724
0.8921215,0.3256402,0.3356471
0.8904756,0.3234854,0.3357721
0.8899572,0.3306921,0.3442097
0.8911114,0.3366445,0.3488695
0.8938198,0.3307832,0.3433899
0.8969718,0.3245837,0.3390332
0.8952983,0.3284639,0.3353718
0.8905814,0.3297427,0.3350428
0.8879512,0.3308139,0.3404192
0.8886179,0.336587,0.3407679
0.8908236,0.3332546,0.3384693
0.8917868,0.3290963,0.3346634
0.8919678,0.3321871,0.3286481
0.8919916,0.332392,0.3326645
0.892962,0.3325209,0.3372608
0.8948071,0.3339095,0.3337671
0.8939594,0.333368,0.3361652
0.8922652,0.3338019,0.3444498
0.8907125,0.3338471,0.3498201
0.8891504,0.3335735,0.3450926
0.890046,0.333523,0.3365227
0.8895214,0.3301388,0.3386051
0.888767,0.3278981,0.3399793
0.8886564,0.3318195,0.3357388
0.8868395,0.3344723,0.3359957
0.8893852,0.332814,0.3352213
0.8914468,0.3317584,0.3341517
0.8898536,0.3315247,0.3351682
0.8913121,0.3322037,0.334038
0.8920455,0.3319798,0.333439
0.8913752,0.3305453,0.3339918
0.8908254,0.3308995,0.3383281
0.8898689,0.3314037,0.3413068
0.8905483,0.3330831,0.334426
0.8912272,0.333864,0.3297019
0.8922076,0.3318944,0.3328531
0.8934789,0.3313462,0.3362377
0.8937783,0.3292619,0.3386026
0.8930338,0.3270431,0.3405771
0.8915964,0.3291328,0.3414988
0.8920698,0.3326207,0.3388173
0.8934801,0.3350509,0.3336459
0.8947836,0.3344328,0.3329359
0.8946036,0.3318048,0.3374066
0.892014,0.3303768,0.3399295
0.8913635,0.3328796,0.3380292
0.8922242,0.3360221,0.3376227
0.8942801,0.3334385,0.3421516
0.8963383,0.3298387,0.3448322
0.8930413,0.327725,0.3383814
0.889448,0.3273929,0.3324509
0.8904425,0.3322842,0.3372757
0.8924555,0.3335638,0.3404078
0.8934287,0.3305427,0.3343849
0.8928195,0.3324271,0.3308587
0.8910627,0.333441,0.3321179
0.8897827,0.3325501,0.3327923
0.8901539,0.3331412,0.3353876
0.8905906,0.3313889,0.3386562
0.8897356,0.331045,0.3371758
0.8884853,0.3300422,0.3331382
0.8872478,0.326499,0.3317531
0.8880609,0.3285574,0.3343836
0.8896393,0.3302863,0.3373183
0.8887935,0.3288659,0.3363693
0.8883802,0.3314226,0.3350813
0.8885516,0.3344793,0.3356073
0.8882914,0.3348496,0.3335896
0.8907929,0.3329359,0.3323086
0.8927192,0.3311002,0.3330757
0.8911892,0.3320119,0.331478
0.8905309,0.3319101,0.3316476
0.8903786,0.3295014,0.3330736
0.8901081,0.3269396,0.3341466
0.8917766,0.3264039,0.3371037
0.8933693,0.3300467,0.3369039
0.892944,0.3329721,0.3373524
0.8904612,0.3301098,0.3414615
0.8895132,0.3269976,0.3403959
0.8917369,0.327615,0.3369406
0.8920053,0.3271819,0.3368392
0.891322,0.3257974,0.3360497
0.8917499,0.3262838,0.3351468
0.8906417,0.3257009,0.3397801
0.8899847,0.3250347,0.3443507
0.8908517,0.3276966,0.338953
0.8929682,0.3298291,0.3333954
0.8951453,0.3275352,0.3366843
0.8930508,0.325256,0.3374673
0.8884771,0.3267212,0.3339957
0.8857403,0.3277411,0.3331145
0.8865217,0.3275398,0.3327952
0.8909993,0.328299,0.3322887
0.8943691,0.3280089,0.3301215
0.8926568,0.327133,0.3290985
0.8887026,0.3271022,0.3349137
0.8867866,0.3284726,0.339371
0.8872469,0.3295449,0.3374809
0.8878915,0.328706,0.3359588
0.8878045,0.3302454,0.3373209
0.8893956,0.3311159,0.3387737
0.8928947,0.3288424,0.3384415
0.8937067,0.3283254,0.3360107
0.8929169,0.3274604,0.3319647
0.8934452,0.3275104,0.3304946
0.8921003,0.3283641,0.3299143
0.8895137,0.3272571,0.3269662
0.8899575,0.3279819,0.3292512
0.8918678,0.3275757,0.3360876
0.8917171,0.3256038,0.3404393
0.8918419,0.3255882,0.3413024
0.8937276,0.3280823,0.3393062
0.8947547,0.3321101,0.3381631
0.8947278,0.3309437,0.336647
0.8941553,0.3293579,0.3350719
0.8945797,0.3316525,0.3366453
0.8954845,0.3312421,0.3358978
0.8948521,0.3307655,0.3337834
0.8940974,0.3272917,0.333162
0.8924286,0.3218273,0.3319323
0.8911578,0.3261002,0.3318699
0.8918804,0.3309087,0.3310206
0.8922594,0.3281951,0.3307702
0.8915764,0.3261263,0.3344136
0.8897653,0.3256544,0.3370817
0.8900337,0.3287381,0.3365272
0.8919902,0.3340276,0.3355878
0.8924744,0.3317956,0.3372048
0.8934057,0.327839,0.338508
0.8932288,0.3282134,0.3384363
0.8926378,0.3281679,0.3392458
0.8932217,0.3295305,0.3372463
0.8918708,0.3299046,0.336048
0.8903935,0.3291827,0.3357993
0.8901166,0.3312238,0.3322895
0.8901732,0.3297635,0.3336941
0.890494,0.3282288,0.3361509
0.8899616,0.329596,0.3341945
0.8893673,0.3280653,0.3355432
0.8889311,0.3274148,0.3363319
0.889509,0.3277511,0.3330385
0.890872,0.3267882,0.3319093
0.8902624,0.3264403,0.3352941
0.8903201,0.3275437,0.3383599
0.8923915,0.3310386,0.3341679
0.8934399,0.3320818,0.3296448
0.8932425,0.3282934,0.3317611
0.8926034,0.3259872,0.3324266
0.8922073,0.3305051,0.331518
0.8915812,0.335821,0.3319201
0.8913061,0.3338306,0.3305147
0.8920301,0.3322438,0.3316343
0.8919346,0.3331135,0.3355649
0.8932633,0.330284,0.3360517
0.8952973,0.3268146,0.3356072
0.894061,0.3247718,0.3380603
0.8919517,0.3288548,0.33816
0.890004,0.3341914,0.335549
0.8905083,0.3293721,0.3351887
0.8959519,0.324844,0.3310007
0.8986558,0.3255109,0.326297
0.8949051,0.3262836,0.3312836
0.8897506,0.3292116,0.3352011
0.8862911,0.3311055,0.3321432
0.887013,0.3337129,0.3310127
0.8894429,0.3361062,0.3324372
0.8887633,0.3330102,0.3320683
0.8886351,0.3318506,0.3314992
0.8895439,0.3323169,0.3321599
0.8895458,0.3312087,0.3309355
0.8915793,0.3310758,0.3309918
0.8925826,0.3286563,0.3352637
0.8929882,0.3277283,0.3387432
0.8947003,0.3298366,0.3380991
0.891942,0.3292756,0.3359259
0.8889225,0.3288148,0.3352425
0.8907245,0.3294126,0.3328852
0.8930975,0.3294582,0.3326072
0.8958835,0.3303781,0.3365613
0.8975849,0.3302165,0.3370437
0.8935868,0.3285934,0.3370658
0.8890181,0.3289071,0.3348451
0.8900756,0.3302739,0.3290215
0.8909674,0.3313073,0.3287683
0.8897435,0.3335669,0.3308491
0.8907955,0.3334152,0.3334146
0.8918548,0.3309153,0.3354709
0.8918928,0.3304783,0.3327595
0.8916232,0.3302454,0.3314914
0.891059,0.3306992,0.334321
0.8902028,0.3308145,0.3382283
0.8878371,0.330234,0.3392311
0.8874911,0.331873,0.3359886
0.8894875,0.3322779,0.3344915
0.8906068,0.3327229,0.3381073
0.8905278,0.333819,0.3410667
0.8890656,0.333135,0.3359216
0.8897679,0.3326736,0.3309894
0.8916975,0.3301362,0.3334607
0.8917297,0.3280223,0.3332354
0.8918369,0.3294103,0.3299742
0.891292,0.3302274,0.3285788
0.8905996,0.3321768,0.3286328
0.8893366,0.3353951,0.3334073
0.8883556,0.3345279,0.3366629
0.8901494,0.3311926,0.3353652
0.8905778,0.3293228,0.3378838
0.8901138,0.3285251,0.3373461
0.8904016,0.3291785,0.3325813
0.8904852,0.3286414,0.3334737
0.8923845,0.3269261,0.33334
0.8944318,0.3280636,0.3322522
0.894341,0.328338,0.3341689
0.8916064,0.3291238,0.3346153
0.8892758,0.3317117,0.3347471
0.8902767,0.3308708,0.3316398
0.890672,0.3291397,0.3286346
0.88964,0.3272774,0.3309216
0.8885269,0.3261511,0.3342748
0.8870612,0.3272373,0.3370733
0.8875411,0.3278483,0.33458
0.8895425,0.3296181,0.332334
0.8899623,0.3299589,0.3366464
0.8899187,0.3293977,0.3384265
0.8922666,0.33215,0.3379505
0.8948315,0.3324512,0.3399374
0.8947011,0.3313767,0.3409592
0.8941198,0.3328554,0.3341443
0.8945976,0.3345111,0.3257692
0.8944899,0.3364603,0.3290931
0.8942879,0.3341704,0.3329452
0.8945981,0.3283428,0.3310166
0.8943745,0.3269413,0.332389
0.8944103,0.3278598,0.3323999
0.8940158,0.3279691,0.3333674
0.8916439,0.3277427,0.3405405
0.8900756,0.3277729,0.3444162
0.8926242,0.3287337,0.3409465
0.8956578,0.3287787,0.3352351
0.8936506,0.3289811,0.3337223
0.8919509,0.3293734,0.3355077
0.893477,0.3282545,0.335714
0.8925418,0.3279878,0.3349697
0.8927938,0.32772,0.3331421
0.8953176,0.325654,0.3326787
0.894065,0.324484,0.3324932
0.8912741,0.3253689,0.3301487
0.8899613,0.3269544,0.3290882
0.8908132,0.3282084,0.3261624
0.8924296,0.32801,0.3260504
0.8914326,0.3273912,0.3312213
0.8900256,0.3279553,0.3323263
0.888991,0.327869,0.3322732
0.8886293,0.3280808,0.3318211
0.8916293,0.3306686,0.3327213
0.8925197,0.3326743,0.3389954
0.8899913,0.3320397,0.3422442
0.8901492,0.3305572,0.3389402
0.8905142,0.3300951,0.333818
0.8894624,0.3286937,0.3339076
0.8878396,0.3261892,0.3317389
0.8857135,0.3262276,0.3251429
0.8884222,0.3280704,0.3305578
0.8918929,0.3306609,0.3371678
0.8900831,0.3321354,0.3367854
0.8903942,0.3285028,0.3359275
0.8944689,0.3247881,0.3318371
0.8961324,0.3268207,0.3340157
0.8934773,0.3299158,0.3371931
0.890288,0.3307427,0.3345686
0.8915183,0.3307555,0.3367501
0.8925483,0.3288778,0.3382346
0.8909518,0.3260508,0.3382241
0.8918114,0.3246627,0.3397277
0.8920146,0.3256156,0.3400502
0.8909642,0.3286841,0.3400522
0.8911639,0.3306964,0.3353018
0.8899087,0.3319515,0.3302852
0.8905237,0.3307396,0.3294259
0.893492,0.3266767,0.329102
0.8948575,0.3265046,0.3310934
0.8948817,0.3260845,0.3329932
0.8939622,0.3253589,0.3340274
0.8944828,0.329848,0.3374176
0.894822,0.3312021,0.3404837
0.893954,0.328285,0.3391443
0.8947524,0.326296,0.3339761
0.8937362,0.3259144,0.3322885
0.8900709,0.3273468,0.3356225
0.885479,0.3289336,0.3369375
0.8837279,0.3312252,0.3356522
0.8880136,0.331002,0.3350931
0.8900161,0.3287373,0.3341437
0.8886969,0.3293781,0.3317871
0.8892,0.3293558,0.3299656
0.8884935,0.3297828,0.3303808
0.888072,0.3314134,0.33247
0.8905458,0.3312296,0.3346014
0.8918339,0.3319339,0.3358894
0.892522,0.3313932,0.3345728
0.8966299,0.3291308,0.3318993
0.8964398,0.3271323,0.3312252
0.8897431,0.3244608,0.3310784
0.8876555,0.3262813,0.3325032
0.8879393,0.3302082,0.3347823
0.888698,0.3292085,0.3341038
0.891469,0.3290037,0.3348577
0.8903672,0.3314821,0.3389847
0.8907846,0.3322181,0.3414216
0.8933144,0.3321223,0.3377803
0.8915847,0.3319466,0.3323988
0.8887103,0.3329406,0.3317647
0.8869801,0.3347665,0.3330827
0.8892262,0.3348422,0.3364781
0.8927778,0.3345364,0.3387251
0.8937729,0.3331169,0.3369882
0.8965633,0.3293998,0.3375172
0.8980462,0.3263785,0.3377067
0.8955928,0.3252741,0.3366685
0.8940028,0.3234481,0.3351373
0.8941203,0.3219655,0.3334956
0.8945614,0.3272385,0.339411
0.89362,0.3339339,0.3456118
0.892123,0.3337505,0.3434993
0.8916047,0.3318746,0.3426247
0.8898894,0.3308379,0.344475
0.8873532,0.3300327,0.3393089
0.8860582,0.3298017,0.3335629
0.8882619,0.3288759,0.3360865
0.8918264,0.3293979,0.3351686
0.8901739,0.3311967,0.3286622
0.8884317,0.3323254,0.3277138
0.8896972,0.3322061,0.3314251
0.8893227,0.3315514,0.3334544
0.8908919,0.3330013,0.3329161
0.8926087,0.3365237,0.333571
0.8928204,0.3398224,0.3341592
0.8937808,0.338397,0.3353961
0.8922391,0.3339489,0.3375868
0.8911363,0.33275,0.331447
0.8902987,0.3317313,0.3254817
0.8894392,0.3316781,0.3305312
0.8907,0.3345031,0.333885
0.8883089,0.3349086,0.3314021
0.8867206,0.3345733,0.3312619
0.8895662,0.333931,0.331749
0.8920645,0.3325621,0.3299565
0.892954,0.3326957,0.330294
0.8897766,0.3316948,0.3315504
0.8890478,0.3316434,0.3321875
0.8915818,0.3320615,0.3354454
0.8898125,0.3298106,0.3356597
0.889723,0.3290835,0.3337998
0.8903102,0.3312031,0.3356942
0.8888874,0.334474,0.3351958
0.8906706,0.3354986,0.3336148
0.8907626,0.3342909,0.3347007
0.8895786,0.3347811,0.3351121
0.8907223,0.3343313,0.3370232
0.8902213,0.3316636,0.3384098
0.8898732,0.3291934,0.3360455
0.8897005,0.3295405,0.3356824
0.8883755,0.3322685,0.3363772
0.8890451,0.3322605,0.3349027
0.8895205,0.3315387,0.3342127
0.8883294,0.3324152,0.3323758
0.8892703,0.3327186,0.3287038
0.8931325,0.3337451,0.327434
0.8940495,0.3344736,0.3305105
0.8903575,0.3346211,0.3342323
0.8896458,0.3348791,0.3335323
0.8907925,0.3325437,0.332957
0.8899462,0.327654,0.3346902
0.8900492,0.3238441,0.3344367
0.8885787,0.3266364,0.3329949
0.8872366,0.3322926,0.3313864
0.8902702,0.3323304,0.3316068
0.8926761,0.3314126,0.3325699
0.8918444,0.3313907,0.3322703
0.8914243,0.3297931,0.3358615
0.8937801,0.3297283,0.3406732
0.8947741,0.3293269,0.3405393
0.8922715,0.3296109,0.3381039
0.8902097,0.3311302,0.3363799
0.889838,0.3295393,0.3346641
0.8907223,0.3286198,0.3318634
0.8912496,0.3292361,0.3311403
0.8916344,0.3282405,0.3327129
0.9910332,0.1094158,0.2113051
0.9893183,0.1073046,0.2132171
0.9869515,0.1086241,0.2131233
0.988288,0.11091,0.2147468
0.9901943,0.1104904,0.2201106
0.9927259,0.1097096,0.2236473
0.9950992,0.1066818,0.226218
0.9953133,0.106112,0.2208532
0.9948041,0.1082707,0.2113563
0.9921356,0.1085168,0.2123067
0.9919733,0.112607,0.2134729
0.9909997,0.1163507,0.2094749
0.9845296,0.1167078,0.2096084
0.9842626,0.1168917,0.2114776
0.9887248,0.1132703,0.2176281
0.9919638,0.1080445,0.2259854
0.9943662,0.1049986,0.2238175
0.9931057,0.1092195,0.218328
0.9943969,0.1153489,0.2178911
0.9961395,0.1122087,0.2181036
0.9911078,0.1112606,0.2201701
0.9872607,0.1138674,0.2225116
0.988861,0.1116247,0.2215661
0.9906414,0.1111624,0.2186537
0.9895349,0.1092638,0.2157208
0.9875324,0.1052534,0.2170921
0.986709,0.1057711,0.2200063
0.9907383,0.107374,0.2215241
0.9969388,0.108836,0.2262147
0.9946597,0.1088916,0.2277606
0.9913465,0.1085604,0.2240459
0.9919703,0.1104128,0.2223902
0.9897855,0.1096587,0.2184945
0.9905432,0.1077668,0.2156122
0.9897865,0.1058789,0.2211214
0.987428,0.1035463,0.2264858
0.9927527,0.1070305,0.2266847
0.9941217,0.1116981,0.2238756
0.9921869,0.1113641,0.2201565
0.9936879,0.1105112,0.2187289
0.9928786,0.109246,0.2200878
0.9939484,0.106871,0.2235712
0.9950577,0.1066493,0.2267771
0.993491,0.1081242,0.226638
0.992038,0.108631,0.2237922
0.9896715,0.108429,0.2212302
0.9917247,0.1090131,0.2202558
0.9944157,0.1089714,0.2198063
0.9926632,0.1072483,0.2194781
0.9926297,0.106368,0.2195703
0.9921844,0.1076719,0.221295
0.9893822,0.1097866,0.2229499
0.9882677,0.1114786,0.2223369
0.9894889,0.1105383,0.2228784
0.9918162,0.1077464,0.2241096
0.9932784,0.1070621,0.2236072
0.9916687,0.1063511,0.2227108
0.9897157,0.1055251,0.2201543
0.9929103,0.1067944,0.2173442
0.9957493,0.1067797,0.2203878
0.9927233,0.1083371,0.2276467
0.9896896,0.1108474,0.2306094
0.9889968,0.1080506,0.2275473
0.9911923,0.1049041,0.2206449
0.9940394,0.1040382,0.2153282
0.991388,0.1049213,0.2203246
0.9887598,0.1081843,0.2269181
0.9898198,0.10901,0.2244512
0.9888748,0.1089528,0.2227395
0.9881398,0.1106715,0.2236037
0.988707,0.1124087,0.2211577
0.9881239,0.1140162,0.2229875
0.9897818,0.1116644,0.2316278
0.991002,0.10856,0.2357335
0.9889192,0.1115353,0.2291754
0.9885643,0.1135915,0.22255
0.9889387,0.1111746,0.2221544
0.9878542,0.1106152,0.2216091
0.9873182,0.1114197,0.2232049
0.9873556,0.1110373,0.2263087
0.9876792,0.1103404,0.2275478
0.9874842,0.1083419,0.2270335
0.9875272,0.1079685,0.2225451
0.9887765,0.1118043,0.2235988
0.9899187,0.1123782,0.2283134
0.9906639,0.1098381,0.230574
0.990107,0.1113938,0.2335675
0.9892984,0.1117108,0.2296313
0.9899649,0.1098953,0.2271021
0.9912059,0.1098732,0.2283872
0.9916736,0.1088518,0.2255367
0.9887651,0.1130535,0.2276309
0.9854624,0.118926,0.2277317
0.9858953,0.1147298,0.2256435
0.9858968,0.1112127,0.226771
0.9832841,0.1130699,0.2220847
0.981474,0.11248,0.2203645
0.9834651,0.1124078,0.2247414
0.9858726,0.1136979,0.2273714
0.9847764,0.1139813,0.227945
0.9858381,0.1140167,0.229737
0.9904847,0.1137669,0.2343269
0.9926229,0.1144158,0.2297461
0.9912774,0.1172163,0.2238316
0.9885031,0.1214307,0.2307794
0.9868891,0.1228848,0.2333449
0.9877101,0.1192637,0.2284504
0.9897472,0.1168414,0.2271494
0.9916615,0.1178917,0.2285342
0.9918234,0.1166242,0.2294531
0.9906374,0.1143732,0.2262487
0.9894173,0.1150146,0.2253097
0.9875761,0.1148744,0.2323376
0.9854855,0.1132656,0.2384982
0.9854503,0.1141597,0.2364688
0.9858803,0.1160997,0.2326268
0.9842175,0.1168528,0.2337067
0.9849005,0.1169818,0.2325272
0.9886036,0.1162112,0.2282634
0.9919291,0.115732,0.2258039
0.9942373,0.1152963,0.2253417
0.9917976,0.1164601,0.2290399
0.9860739,0.1236797,0.2343644
0.9821697,0.1300171,0.2401439
0.9824385,0.1272322,0.2391638
0.9857071,0.1220992,0.2328086
0.9856102,0.1198765,0.2359353
0.9853908,0.1164817,0.2351114
0.9853024,0.1157387,0.2289636
0.9823209,0.119787,0.2297902
0.9850837,0.120981,0.2288387
0.9875474,0.1225317,0.2319063
0.9853336,0.1242134,0.2351029
0.9864652,0.1204512,0.2322656
0.9871685,0.1189314,0.2341208
0.9874673,0.121427,0.2351845
0.9881133,0.1238587,0.2356711
0.9879128,0.1241588,0.2343187
0.9892458,0.1227895,0.2302242
0.9875905,0.1230711,0.2336802
0.9841085,0.1220007,0.2369454
0.9835234,0.1212191,0.2373963
0.9865952,0.1202152,0.2369596
0.9904928,0.117132,0.2333003
0.9887485,0.1196054,0.2322539
0.9860907,0.1218865,0.2299797
0.9863574,0.1185627,0.2270376
0.985725,0.1176796,0.2306167
0.9861988,0.1199939,0.2351579
0.9863998,0.1215589,0.2351217
0.9854907,0.1208809,0.2332863
0.9855388,0.120238,0.2332527
0.9847554,0.1201062,0.2326494
0.9863831,0.1183695,0.229662
0.9894552,0.1186176,0.2275949
0.9884792,0.1214558,0.2314334
0.9857823,0.1238385,0.2389325
0.9831962,0.1256231,0.2400493
0.9826342,0.1246296,0.2376083
0.9839035,0.1208541,0.2366418
0.9832153,0.1187974,0.2348106
0.9838096,0.120036,0.2361156
0.9872542,0.1216164,0.2379086
0.9893721,0.121164,0.2368941
0.9875955,0.1225126,0.2364922
0.9848299,0.1264108,0.2345034
0.9861343,0.1269825,0.2337841
0.9868495,0.1258417,0.2352018
0.9851827,0.1258024,0.2331392
0.9855321,0.1254242,0.2322452
0.9846232,0.1256402,0.2332749
0.9843419,0.1250923,0.2314674
0.9862728,0.1245007,0.232031
0.9860399,0.1253684,0.2353489
0.9861477,0.1249709,0.2362942
0.9862528,0.1242425,0.235545
0.9859882,0.1225956,0.2346853
0.9873155,0.1198442,0.2375508
0.9876054,0.1205233,0.2417452
0.9873879,0.122105,0.2402501
0.9866046,0.1225188,0.2378609
0.9856797,0.1236617,0.2375826
0.9866023,0.123335,0.2357506
0.9879235,0.1245161,0.2339648
0.9893596,0.1264513,0.2345643
0.9886575,0.1242088,0.2350878
0.9856917,0.124841,0.2334646
0.9842081,0.1268862,0.2330238
0.9844139,0.1253949,0.2335653
0.9856649,0.1248668,0.2324312
0.9873454,0.1222684,0.2298954
0.9887102,0.1218728,0.2266582
0.9860115,0.1268166,0.2267108
0.9813909,0.1283926,0.2261289
0.9835497,0.1278949,0.2236015
0.9870076,0.1256891,0.2309386
0.9891916,0.1214445,0.2406668
0.9927825,0.1192877,0.2384906
0.9887719,0.1221051,0.2314696
0.9827586,0.1272584,0.2277989
0.9835898,0.1256282,0.2292407
0.9851099,0.1262412,0.2337916
0.9866244,0.1314183,0.2354428
0.9865419,0.1281316,0.2345736
0.9849994,0.1247187,0.2336884
0.9848205,0.1238006,0.2324533
0.9833002,0.1237025,0.2307477
0.9854571,0.1280824,0.2286127
0.9891892,0.127897,0.2295672
0.9871036,0.125405,0.2316322
0.9858153,0.1250082,0.2300536
0.9857976,0.1242039,0.2297131
0.9848965,0.1246687,0.231384
0.9864594,0.1236247,0.2334079
0.9865539,0.1250591,0.236841
0.9855123,0.1286347,0.2369507
0.986254,0.1277014,0.2321731
0.9852619,0.1275592,0.2269107
0.9841831,0.1288016,0.2251817
0.9850775,0.131051,0.2228348
0.9856693,0.134822,0.2179915
0.9862652,0.1340278,0.220647
0.986316,0.1314363,0.2277014
0.9860253,0.1304045,0.2317964
0.9873067,0.1300021,0.2323229
0.988532,0.130976,0.2285539
0.9877041,0.1302647,0.2294068
0.9845781,0.1283698,0.231321
0.9824144,0.1276345,0.2301636
0.9842468,0.1270379,0.2344727
0.9855058,0.126301,0.2362459
0.9842115,0.124698,0.2353241
0.9837348,0.1255068,0.2355437
0.9831465,0.1281656,0.2286152
0.9822958,0.1268837,0.2229666
0.9828456,0.1256673,0.2264135
0.9836321,0.1252474,0.2297255
0.9850973,0.1219004,0.228465
0.9886565,0.120341,0.2303129
0.9922805,0.1225143,0.2347717
0.991623,0.1252839,0.2329812
0.9871641,0.1272326,0.2293407
0.9841929,0.1294657,0.2285482
0.9833917,0.1290958,0.229375
0.9833126,0.1255805,0.2305072
0.9833939,0.1262285,0.2308725
0.9833564,0.1270522,0.2331921
0.9845576,0.1258329,0.2335276
0.9862154,0.1275612,0.2301728
0.9881516,0.1273076,0.2284753
0.989013,0.1267807,0.2283774
0.9861258,0.1282264,0.2270033
0.9835305,0.1277823,0.2252088
0.9840578,0.1273301,0.2309194
0.9848438,0.1260247,0.2385662
0.9839338,0.1244381,0.2360928
0.9828672,0.12468,0.2324678
0.9831561,0.1243816,0.2310701
0.9830005,0.1234689,0.227949
0.9829468,0.1242176,0.2290653
0.9841093,0.1255242,0.2317079
0.9852838,0.1240216,0.2336819
0.9872467,0.1229902,0.2370916
0.9884829,0.1239463,0.234887
0.987976,0.123533,0.2315501
0.9886682,0.1235468,0.2334075
0.9876503,0.1240946,0.2310327
0.9849498,0.1252546,0.2277797
0.986155,0.1261694,0.2306966
0.9865212,0.1220535,0.2330202
0.9845926,0.1176842,0.2331786
0.9849549,0.1193361,0.2317686
0.9855336,0.121376,0.229702
0.986336,0.1213465,0.22924
0.9864286,0.1253361,0.2247654
0.9856325,0.1294683,0.2214239
0.9860518,0.1275017,0.2344397
0.984328,0.1252508,0.2484982
0.9825566,0.1249661,0.2411661
0.9834185,0.1247319,0.2342059
0.9829952,0.1253749,0.2389026
0.9805121,0.1259169,0.2342323
0.9794212,0.1263176,0.2307764
0.9844485,0.1257667,0.2359411
0.9906182,0.1244482,0.2363853
0.9894625,0.1249643,0.2390064
0.9877046,0.1246218,0.2377569
0.9895664,0.1211273,0.2292763
0.9886074,0.1188071,0.2288288
0.9865783,0.1210783,0.2316537
0.9860999,0.1243095,0.2350095
0.9856479,0.1240223,0.2367108
0.9866099,0.1239706,0.2309514
0.9871171,0.1260468,0.2270708
0.9871684,0.1264227,0.226705
0.9871539,0.1259803,0.2287827
0.9857776,0.1238299,0.2329225
0.9877982,0.1208629,0.2330817
0.9896369,0.1217093,0.2319306
0.9867458,0.1228732,0.2318743
0.9854433,0.1239059,0.2329089
0.9861504,0.1258774,0.2341395
0.9863225,0.1258936,0.2310943
0.9860267,0.1258516,0.225807
0.985614,0.1240555,0.222925
0.9845748,0.1210761,0.2251455
0.9825983,0.1231078,0.2313169
0.983142,0.1282518,0.2351657
0.9842505,0.1310358,0.2373886
0.9850449,0.1274579,0.2389521
0.9885607,0.1220284,0.2384915
0.9896113,0.1234245,0.2402693
0.9871909,0.1259582,0.2381204
0.9854369,0.1262251,0.2326217
0.9842629,0.1284187,0.2353468
0.9847228,0.127285,0.2389096
0.9859971,0.124845,0.2387561
0.9861611,0.1251984,0.2366638
0.986191,0.1236498,0.2312907
0.9857253,0.1256474,0.2288982
0.9840659,0.1295115,0.229607
0.9814867,0.1273731,0.2306503
0.9786923,0.1262667,0.2318688
0.9778016,0.1267946,0.2334195
0.9805745,0.1259383,0.2343326
0.9848865,0.1269373,0.2319969
0.9855459,0.1286433,0.2311653
0.9842635,0.1315873,0.2322588
0.9861368,0.1347356,0.2356667
0.9883745,0.1337065,0.2381784
0.9891944,0.1284322,0.228849
0.9881139,0.1234502,0.2223906
0.9830927,0.1263076,0.22898
0.9798236,0.1313545,0.232876
0.9836249,0.1285226,0.2324405
0.9881255,0.1258569,0.2349122
0.9862328,0.1265954,0.2371903
0.9839922,0.1266695,0.2340726
0.9826996,0.1292767,0.2320671
0.9782625,0.1313735,0.2338985
0.9817173,0.1306418,0.2320967
0.9876486,0.1302836,0.2303667
0.9841804,0.1305657,0.2297115
0.9847826,0.1307925,0.2290884
0.9872535,0.1299511,0.2321555
0.9832375,0.1288267,0.2346548
0.9809941,0.1274062,0.2360089
0.9805544,0.1276184,0.2370368
0.9820822,0.130251,0.2356854
0.9840531,0.1307826,0.2326523
0.9813618,0.1306075,0.2294304
0.9802143,0.1305897,0.2285821
0.9835937,0.1299491,0.229224
0.9866268,0.1290985,0.2299464
0.9865288,0.1273847,0.232579
0.985596,0.1293168,0.2385234
0.9863372,0.1317593,0.2424156
0.986203,0.1302452,0.2397449
0.9858528,0.1304817,0.2363014
0.9863591,0.1321656,0.2339869
0.9859866,0.1339592,0.233613
0.9853755,0.1370326,0.2341838
0.9826605,0.1400135,0.231462
0.9800303,0.141411,0.2316628
0.983808,0.1368138,0.232694
0.9880029,0.1309269,0.2311363
0.9857331,0.1333574,0.2327609
0.9832271,0.1365983,0.2338008
0.9826908,0.1355745,0.2347742
0.9814417,0.1364403,0.2355664
0.9828135,0.136314,0.2327691
0.9841339,0.135516,0.2296921
0.9834013,0.1363497,0.2255892
0.9864432,0.1340556,0.2277724
0.9903072,0.1326384,0.2332528
0.9906505,0.1342657,0.229932
0.9892547,0.1368517,0.2294496
0.9883579,0.1400672,0.2304783
0.9889206,0.1390428,0.2252804
0.9882559,0.1369862,0.2246395
0.9873621,0.1368841,0.2279544
0.9866024,0.1351273,0.2326695
0.9840741,0.1332886,0.2363275
0.9839414,0.1315315,0.2335009
0.9845888,0.1314745,0.2315102
0.9825995,0.1337409,0.2321816
0.9821257,0.1342884,0.2318049
0.9826327,0.134802,0.231795
0.9832377,0.135112,0.2311007
0.9852926,0.134261,0.2302108
0.9842287,0.1349285,0.2305032
0.982257,0.1350228,0.230202
0.9839377,0.135295,0.2283158
0.9844172,0.1365236,0.2287427
0.9843397,0.1351625,0.2338522
0.9841984,0.1343783,0.2358464
0.9819195,0.1358031,0.2314612
0.9825232,0.1362201,0.2293467
0.9843191,0.1351,0.2316325
0.9849535,0.1333589,0.2343158
0.9858916,0.1330652,0.2365452
0.9828234,0.1338415,0.234048
0.9790108,0.1350653,0.227445
0.9803611,0.1366806,0.2251773
0.9817793,0.1361308,0.226503
0.9817683,0.1347985,0.2270632
0.9838542,0.1346883,0.2281962
0.9837949,0.1346382,0.2304838
0.9815608,0.1345837,0.2316294
0.9822835,0.1338871,0.231897
0.982894,0.1329573,0.2338281
0.9836468,0.1332993,0.2333853
0.985835,0.1335377,0.2298317
0.9870222,0.1322845,0.2287724
0.9881518,0.1288969,0.2289652
0.9870713,0.1258074,0.2296884
0.985258,0.1293282,0.2311325
0.9853118,0.1339693,0.2328021
0.9868013,0.1307708,0.235357
0.9896053,0.1284963,0.2345258
0.9864432,0.130551,0.2312819
0.9818788,0.1298154,0.2312958
0.9838078,0.1302707,0.2335341
0.9845224,0.1336436,0.2337062
0.9843477,0.1354935,0.2328107
0.9843363,0.1352087,0.2337039
0.9826238,0.134964,0.2333027
0.9837312,0.1367051,0.2330301
0.9854653,0.1362294,0.2337944
0.9862682,0.134515,0.2320574
0.9863817,0.1344867,0.2290024
0.9847593,0.1317705,0.2248187
0.9845616,0.1300714,0.2240793
0.9850172,0.1323518,0.2264493
0.9858303,0.1340605,0.2272012
0.9883311,0.1333834,0.2313816
0.9894326,0.1316556,0.236678
0.9885401,0.1313267,0.2391617
0.9870669,0.1309854,0.2360441
0.9863803,0.1309943,0.2290261
0.986754,0.130976,0.231158
0.986184,0.1296366,0.2371202
0.9857229,0.1300282,0.239416
0.9863299,0.1291134,0.2401003
0.9858207,0.1282939,0.2369837
0.9841154,0.1290644,0.2352461
0.9829534,0.1271104,0.2320703
0.9836304,0.1277227,0.2289631
0.9863281,0.1293572,0.2309292
0.9880793,0.1291531,0.2286837
0.9867445,0.1313757,0.2293273
0.9854567,0.1321594,0.232027
0.9861807,0.1310618,0.2286181
0.9864009,0.1301011,0.2291013
0.9860055,0.1293649,0.2295183
0.9872594,0.1293897,0.2285993
0.9887944,0.1287626,0.2303273
0.9887014,0.1294957,0.2313859
0.987158,0.1301078,0.2339274
0.9856101,0.1296756,0.2320838
0.9868393,0.1302824,0.2289426
0.98827,0.1303612,0.2305863
0.9872501,0.1313868,0.2280973
0.9871605,0.1323756,0.2245487
0.9869003,0.1308699,0.2237833
0.9856179,0.1281047,0.2223832
0.9860757,0.1279881,0.2242726
0.9863737,0.1307768,0.2277997
0.9860746,0.1297527,0.2266491
0.9867107,0.129986,0.2254029
0.9862237,0.1318986,0.2272979
0.9850778,0.129331,0.2273909
0.9860313,0.1298225,0.2283008
0.9867265,0.1297346,0.2298105
0.9857012,0.1289426,0.2296556
0.9860699,0.1320357,0.2326147
0.9859118,0.1311601,0.2325234
0.9830843,0.1315157,0.2289376
0.9818185,0.1320092,0.2292435
0.984379,0.1291612,0.2292606
0.9873319,0.1300159,0.2295452
0.9861799,0.1301027,0.229796
0.9843328,0.1329333,0.2288809
0.9849248,0.1384016,0.2318018
0.9836557,0.136774,0.2330025
0.9828615,0.1349372,0.2308441
0.9836737,0.1349106,0.2302906
0.9832939,0.1332379,0.2288964
0.9846684,0.1334665,0.2285894
0.9868512,0.1343463,0.2298126
0.9877742,0.1347847,0.2289306
0.9866837,0.1346762,0.2293273
0.9844335,0.1326424,0.2313426
0.9846603,0.1314335,0.2321729
0.9848615,0.1317584,0.2322561
0.9838123,0.1311878,0.2325389
0.9813682,0.1302597,0.2363858
0.9784426,0.1303632,0.2401899
0.9814722,0.1317369,0.236591
0.9850601,0.1349278,0.2309406
0.9830816,0.1380083,0.2289364
0.9828971,0.1347105,0.2293888
0.9848822,0.1299764,0.2320557
0.9845544,0.1340326,0.2343773
0.9837918,0.1371395,0.2345436
0.9833657,0.1345134,0.2355946
0.9839368,0.1346669,0.2374772
0.9851639,0.1348182,0.2370103
0.9838141,0.134493,0.2356036
0.9828866,0.1350612,0.2344259
0.9845021,0.1344136,0.2348163
0.9850021,0.1350402,0.2396286
0.984879,0.1360505,0.2405734
0.9855485,0.1379313,0.2357247
0.9865592,0.1398218,0.2348271
0.9870332,0.1385147,0.233358
0.98654,0.1373782,0.2319588
0.9855943,0.1357813,0.2346248
0.9831674,0.1343878,0.2328348
0.9812312,0.1374554,0.2323213
0.9819629,0.1398892,0.2350715
0.9835326,0.1374517,0.2341686
0.9851215,0.1338497,0.2332385
0.9857186,0.1319115,0.2309368
0.9844761,0.1317046,0.2300073
0.9833317,0.1330139,0.2310614
0.9834261,0.1337579,0.2300395
0.9834534,0.1336961,0.2312788
0.9842739,0.1361732,0.2323255
0.9861371,0.1394923,0.2335086
0.9857663,0.1402595,0.234495
0.983338,0.1401256,0.2341615
0.9813708,0.1404352,0.2365916
0.9824099,0.1402946,0.2334686
0.9845357,0.139761,0.2286629
0.9839478,0.1382964,0.2302702
0.984643,0.1351184,0.2289513
0.9853956,0.1338773,0.2252936
0.9840909,0.1354418,0.2245995
0.9851217,0.1367547,0.2248221
0.9858168,0.1388873,0.2249478
0.9859666,0.1404658,0.2294323
0.9866048,0.1401496,0.2351337
0.9857114,0.1400231,0.2332289
0.9854594,0.1385188,0.2312008
0.9826055,0.1368072,0.2305666
0.9782046,0.137458,0.2271644
0.9787545,0.1378133,0.2275186
0.9801534,0.1372911,0.2282553
0.9810086,0.1378619,0.2280855
0.9844018,0.139405,0.2317679
0.9865801,0.1407032,0.2352471
0.9860237,0.1403594,0.235189
0.9860292,0.1390038,0.2326939
0.9862807,0.1392777,0.2304399
0.9852284,0.1416159,0.2279128
0.9826267,0.1429279,0.2249905
0.9796685,0.1389918,0.2236994
0.9810834,0.1342435,0.2246258
0.9840885,0.1367626,0.2275111
0.9833734,0.1388462,0.2273077
0.9838114,0.135737,0.2279584
0.9846909,0.1361718,0.2322699
0.9835175,0.1383557,0.2304977
0.9839514,0.1388297,0.2287646
0.9835476,0.1381271,0.2310167
0.9827292,0.1349635,0.2311111
0.9839234,0.1337823,0.2324345
0.9842094,0.1332582,0.2318555
0.9847343,0.1317735,0.2294693
0.9851421,0.134513,0.2303268
0.9841453,0.1373032,0.2340313
0.9841196,0.1359962,0.2388967
0.9841231,0.134299,0.235639
0.9853121,0.1330186,0.2307548
0.9888454,0.1313594,0.2341522
0.9907997,0.1317837,0.2339346
0.9894398,0.133655,0.2322558
0.9863196,0.1341305,0.233794
0.9854873,0.1350186,0.2316442
0.9864993,0.1353712,0.23121
0.9857876,0.1359706,0.2319856
0.9851869,0.1384377,0.2284233
0.9847829,0.1373034,0.2268009
0.9852918,0.135046,0.2295494
0.987326,0.1344087,0.2319176
0.9886886,0.1324815,0.2314593
0.9899346,0.1317181,0.2304787
0.9864796,0.1318047,0.2322866
0.9811071,0.1314557,0.2355066
0.9833541,0.12947,0.2359764
0.9854611,0.1266417,0.2334485
0.9839933,0.1276702,0.2313189
0.9848916,0.128772,0.2323522
0.9840061,0.1290422,0.2340348
0.9829258,0.1314465,0.2308176
0.9858405,0.1317877,0.226799
0.9880846,0.1319179,0.2260893
0.9874806,0.1342445,0.2258315
0.9847288,0.1350521,0.2259359
0.9832825,0.1346099,0.224875
0.9827343,0.1337368,0.225386
0.9803307,0.1329952,0.2274249
0.9834786,0.1333926,0.225823
0.9884801,0.1334126,0.2261892
0.9869523,0.1332355,0.2291502
0.9878053,0.1332259,0.2300251
0.9899917,0.1322221,0.2280141
0.9874851,0.1307912,0.2264318
0.9870161,0.1301864,0.2301474
0.9879112,0.1308049,0.2324044
0.9872678,0.1315961,0.2331826
0.9870332,0.1320334,0.234515
0.9850507,0.1319731,0.2317964
0.9831115,0.1308547,0.2304022
0.9839081,0.130298,0.2274661
0.9837046,0.1307719,0.2253881
0.9827332,0.13147,0.2292233
0.9837376,0.1322325,0.2276343
0.9847964,0.1318313,0.2259628
0.9863934,0.1308624,0.2271739
0.9884259,0.1309514,0.2255955
0.9869515,0.1330999,0.2263809
0.9843068,0.135705,0.2248123
0.9833953,0.1346476,0.223563
0.9845599,0.1322221,0.2293741
0.9864865,0.1320209,0.23378
0.9827187,0.1328268,0.233335
0.9791643,0.134588,0.2325044
0.9835457,0.1352534,0.2339146
0.9861283,0.1343516,0.2335161
0.9843881,0.1348131,0.2326099
0.9846031,0.1352089,0.233885
0.9859363,0.1362807,0.2324803
0.986319,0.1384294,0.2328963
0.9858859,0.1385047,0.2333901
0.9850302,0.138723,0.2285505
0.9835645,0.1391388,0.226589
0.9829362,0.1373645,0.2269533
0.983482,0.1354286,0.2227475
0.9833675,0.1342685,0.2187599
0.9832546,0.1352134,0.225026
0.9833831,0.1387254,0.2326259
0.9836752,0.1411351,0.2282449
0.985481,0.1402848,0.2240582
0.9884306,0.1379007,0.2247329
0.9889581,0.1371261,0.2261573
0.9850906,0.1372033,0.2308048
0.9820391,0.1357119,0.2297184
0.9835629,0.1342318,0.2266245
0.9855961,0.1342705,0.2285052
0.9855341,0.1342326,0.2266145
0.9853289,0.1334911,0.2258528
0.9854696,0.135686,0.2279891
0.9853712,0.1388599,0.2273646
0.9854507,0.1375011,0.2271826
0.9852356,0.1368246,0.2260528
0.9843092,0.1381265,0.2261824
0.9831004,0.137251,0.2281464
0.9829174,0.137389,0.2285907
0.9837145,0.1377887,0.2305838
0.9833066,0.1372239,0.2309559
0.9834369,0.1376491,0.2297738
0.9854209,0.1375001,0.2291117
0.9864959,0.1373952,0.2270327
0.9862894,0.1376383,0.2275819
0.9849756,0.1373908,0.2288799
0.9816505,0.1377246,0.2305393
0.97855,0.1384116,0.2356055
0.9810634,0.1391014,0.2373306
0.9854927,0.1390661,0.2354399
0.9839169,0.1386285,0.2340084
0.9830812,0.1393672,0.2294179
0.9842675,0.1407315,0.2244411
0.9824988,0.1420593,0.2263046
0.9834739,0.1422025,0.2294711
0.9838667,0.1426136,0.2287098
0.9827181,0.1461885,0.2284461
0.9848275,0.1483129,0.2285945
0.9848409,0.1466545,0.2316657
0.9845476,0.1451753,0.2369175
0.9850291,0.1441739,0.2349854
0.9841588,0.1441249,0.2303167
0.9841332,0.1444687,0.2269457
0.9831524,0.1425287,0.224109
0.9839609,0.1413536,0.2260439
0.985521,0.1434614,0.2263441
0.9842186,0.1448845,0.2253143
0.9837869,0.142703,0.2288013
0.983261,0.1406981,0.2293456
0.9826564,0.1417682,0.2262189
0.9819142,0.1420611,0.2242013
0.9799985,0.1412609,0.2251779
0.9812132,0.1421894,0.2284288
0.9827856,0.1435365,0.2295427
0.9820293,0.1447803,0.2294054
0.983559,0.1450325,0.2289834
0.9855674,0.1448281,0.2289811
0.9847397,0.1462858,0.2295872
0.984326,0.146128,0.2280992
0.9850369,0.1450917,0.2251334
0.9839481,0.1453323,0.2202405
0.9810103,0.1441232,0.2187126
0.9784503,0.1441081,0.2219597
0.9798544,0.1448005,0.2211756
0.9834723,0.1433777,0.2213323
0.9832867,0.1438919,0.2262118
0.9812806,0.1457094,0.231603
0.9802516,0.1454201,0.2358495
0.9801402,0.1422765,0.2316918
0.9810594,0.1389656,0.2254845
0.9804203,0.1400402,0.2261756
0.9802806,0.1412667,0.2224884
0.9810096,0.14062,0.2177596
0.9812705,0.1414468,0.2238881
0.9860088,0.1393954,0.230657
0.9906955,0.1361153,0.2311237
0.9879702,0.1376649,0.2306916
0.9816777,0.1396033,0.2312203
0.9777249,0.141258,0.2323471
0.9789866,0.1439756,0.2321401
0.9818913,0.1419247,0.2320521
0.9821555,0.1378671,0.2349258
0.9818475,0.1373594,0.2365396
0.9818679,0.1382041,0.2344629
0.9809475,0.139354,0.2324166
0.9806688,0.1390909,0.2339519
0.9832064,0.138011,0.2375022
0.9884111,0.1375067,0.2394972
0.9911605,0.1356753,0.2390441
0.9867495,0.1365541,0.2361778
0.9833755,0.1385521,0.2337974
0.9876034,0.136752,0.2330332
0.9904146,0.1358816,0.232638
0.9879965,0.1360425,0.2327442
0.9856203,0.1360108,0.2326957
0.9837041,0.1367883,0.2329973
0.9835713,0.1372268,0.2298831
0.9863245,0.1380964,0.226297
0.9864688,0.1370329,0.2268126
0.984467,0.1352469,0.2228472
0.9838707,0.1348293,0.2224494
0.9829518,0.1344571,0.2283901
0.9832121,0.1368923,0.2275856
0.9840931,0.1382338,0.2275359
0.9847446,0.1371228,0.2273157
0.9868158,0.1378649,0.2242557
0.986053,0.1381279,0.2254519
0.9836694,0.1378731,0.2258794
0.9839662,0.1357345,0.2303108
0.9866061,0.1333993,0.2362758
0.9901915,0.1343727,0.2338763
0.9885235,0.1341676,0.2311483
0.9832704,0.1344864,0.2299201
0.9814911,0.1350091,0.2278809
0.9823155,0.1324629,0.2272558
0.9841193,0.1318279,0.2274045
0.9835465,0.1350048,0.2250079
0.9827216,0.1421409,0.2205774
0.9854577,0.1494597,0.220259
0.9878363,0.1508635,0.2214234
0.9912806,0.1509191,0.2215676
0.9914788,0.151592,0.2225481
0.9833365,0.1477907,0.221924
0.9760376,0.1417475,0.2202756
0.9729445,0.1373968,0.221315
0.9711835,0.1356252,0.2315324
0.9706986,0.1379758,0.245045
